Yaw,Pitch,Roll,AX,AY,AZ,GX,GY,GZ
86.15,-177.68,-110.21,-341,-7883,-2884,-1,-1,0
86.17,-177.68,-110.21,-346,-7875,-2875,-1,0,0
86.17,-177.68,-110.23,-347,-7898,-2906,-1,0,-1
86.16,-177.69,-110.25,-342,-7916,-2932,-1,0,-1
86.14,-177.69,-110.24,-335,-7918,-2950,0,0,-1
86.15,-177.69,-110.23,-341,-7905,-2924,0,-1,0
86.15,-177.69,-110.21,-341,-7884,-2900,0,-1,0
86.16,-177.68,-110.19,-343,-7876,-2873,0,0,0
86.15,-177.68,-110.20,-349,-7890,-2878,-1,0,-1
86.17,-177.68,-110.21,-349,-7906,-2909,-1,0,-1
86.15,-177.69,-110.22,-349,-7909,-2923,-1,0,-1
86.15,-177.69,-110.22,-351,-7904,-2932,0,0,-1
86.15,-177.69,-110.21,-338,-7886,-2909,0,0,0
86.15,-177.69,-110.21,-342,-7877,-2908,-1,-1,0
86.15,-177.68,-110.22,-345,-7876,-2908,-1,0,0
86.16,-177.68,-110.22,-351,-7888,-2916,-1,0,0
86.14,-177.68,-110.23,-344,-7905,-2927,0,-1,0
86.16,-177.68,-110.22,-340,-7917,-2917,0,-1,0
86.15,-177.68,-110.22,-339,-7908,-2906,0,-1,0
86.16,-177.68,-110.22,-342,-7898,-2901,-1,-1,0
86.16,-177.68,-110.22,-343,-7888,-2900,-1,0,0
86.16,-177.68,-110.22,-344,-7897,-2912,-1,-1,-1
86.16,-177.68,-110.22,-340,-7905,-2911,0,0,-1
86.16,-177.68,-110.22,-337,-7904,-2918,0,-1,0
86.18,-177.67,-110.22,-340,-7906,-2929,-1,-1,0
86.16,-177.66,-110.22,-353,-7908,-2927,0,0,-1
86.18,-177.67,-110.22,-345,-7903,-2926,0,-1,-1
86.18,-177.67,-110.22,-340,-7896,-2907,0,-1,0
86.18,-177.67,-110.22,-346,-7889,-2906,-1,0,-1
86.18,-177.67,-110.22,-345,-7890,-2904,-1,-1,0
86.20,-177.66,-110.22,-347,-7898,-2916,-1,-1,0
86.20,-177.66,-110.22,-351,-7905,-2916,0,0,0
86.20,-177.66,-110.22,-349,-7903,-2909,0,0,0
86.20,-177.66,-110.22,-346,-7903,-2905,0,0,-1
86.18,-177.66,-110.21,-337,-7907,-2903,-1,0,0
86.18,-177.66,-110.21,-341,-7908,-2909,0,-1,0
86.20,-177.65,-110.21,-345,-7901,-2911,-1,-1,0
86.20,-177.65,-110.21,-352,-7896,-2904,0,0,-1
86.17,-177.65,-110.22,-351,-7902,-2908,-1,-1,0
86.17,-177.65,-110.22,-351,-7897,-2908,0,-1,0
86.19,-177.64,-110.21,-344,-7899,-2907,0,-1,0
86.19,-177.64,-110.21,-357,-7896,-2911,0,-1,0
86.19,-177.64,-110.20,-355,-7894,-2907,0,-1,0
86.21,-177.64,-110.21,-356,-7893,-2901,-1,0,0
86.17,-177.64,-110.21,-351,-7894,-2907,0,0,0
86.19,-177.63,-110.21,-352,-7899,-2918,-1,-1,0
86.19,-177.63,-110.21,-357,-7900,-2908,0,0,0
86.20,-177.63,-110.21,-354,-7909,-2916,0,0,-1
86.19,-177.63,-110.21,-350,-7904,-2901,0,-1,0
86.19,-177.63,-110.20,-347,-7892,-2908,0,-1,0
86.19,-177.63,-110.20,-341,-7891,-2901,0,-1,0
86.21,-177.63,-110.20,-349,-7902,-2901,0,-1,0
86.21,-177.62,-110.19,-350,-7908,-2900,0,-1,-1
86.21,-177.62,-110.19,-352,-7906,-2909,0,-1,0
86.23,-177.62,-110.19,-351,-7899,-2910,0,0,-1
86.21,-177.62,-110.18,-345,-7887,-2904,0,-1,0
86.21,-177.62,-110.18,-341,-7888,-2894,-1,0,0
86.23,-177.62,-110.19,-348,-7884,-2897,-1,0,0
86.21,-177.62,-110.19,-353,-7892,-2911,-1,-1,0
86.21,-177.61,-110.19,-354,-7902,-2903,0,-1,0
86.21,-177.62,-110.17,-351,-7907,-2892,0,0,0
86.21,-177.62,-110.17,-348,-7903,-2893,0,-1,0
86.21,-177.61,-110.17,-351,-7909,-2901,0,-1,0
86.23,-177.61,-110.16,-350,-7893,-2890,0,0,-1
86.22,-177.62,-110.16,-347,-7891,-2890,-1,0,0
86.22,-177.62,-110.17,-343,-7892,-2890,-1,0,-1
86.22,-177.62,-110.17,-342,-7890,-2899,0,-1,-1
86.22,-177.62,-110.17,-346,-7894,-2899,0,0,0
86.22,-177.62,-110.16,-357,-7898,-2913,0,-1,0
86.22,-177.61,-110.16,-357,-7892,-2899,-1,-1,0
86.22,-177.61,-110.16,-350,-7899,-2895,0,0,0
86.22,-177.61,-110.16,-352,-7897,-2888,0,0,-1
86.20,-177.62,-110.16,-348,-7905,-2888,-1,0,-1
86.20,-177.62,-110.16,-346,-7905,-2889,-1,-1,0
86.22,-177.62,-110.16,-352,-7903,-2900,-1,0,0
86.20,-177.62,-110.16,-351,-7902,-2902,0,0,0
86.20,-177.62,-110.16,-349,-7898,-2903,0,0,-1
86.20,-177.62,-110.16,-353,-7902,-2902,-1,0,-1
86.20,-177.62,-110.16,-345,-7898,-2889,0,0,0
86.20,-177.62,-110.15,-356,-7904,-2892,-1,-1,0
86.20,-177.62,-110.15,-360,-7906,-2894,-1,0,-1
86.20,-177.62,-110.15,-359,-7901,-2895,-1,0,-1
86.20,-177.62,-110.16,-359,-7898,-2896,-1,0,-1
86.20,-177.63,-110.16,-353,-7902,-2909,0,0,0
86.20,-177.62,-110.15,-351,-7907,-2900,0,0,-1
86.20,-177.62,-110.15,-352,-7898,-2896,0,-1,0
86.20,-177.62,-110.16,-355,-7891,-2898,-1,0,-1
86.18,-177.63,-110.16,-352,-7898,-2889,-1,0,-1
86.19,-177.63,-110.16,-342,-7898,-2906,-1,0,-1
86.16,-177.64,-110.17,-345,-7896,-2911,-1,0,-1
86.18,-177.63,-110.17,-350,-7898,-2908,-1,0,0
86.16,-177.63,-110.17,-351,-7904,-2904,0,0,-1
86.19,-177.64,-110.16,-347,-7903,-2899,0,0,-1
86.16,-177.63,-110.17,-351,-7902,-2910,-1,0,-1
86.16,-177.64,-110.17,-354,-7899,-2915,-1,0,-1
86.16,-177.65,-110.18,-349,-7899,-2911,-1,0,-1
86.17,-177.65,-110.18,-339,-7899,-2912,-1,0,-1
86.17,-177.65,-110.19,-342,-7900,-2907,-1,0,-1
86.16,-177.65,-110.20,-349,-7901,-2917,-1,0,0
86.16,-177.65,-110.20,-343,-7896,-2921,0,0,-1
86.14,-177.65,-110.19,-346,-7893,-2921,0,0,-1
86.14,-177.65,-110.19,-344,-7892,-2910,-1,0,0
86.14,-177.65,-110.19,-351,-7901,-2908,0,0,0
86.14,-177.65,-110.19,-354,-7909,-2911,-1,0,0
86.12,-177.66,-110.20,-354,-7900,-2898,-1,0,-1
86.14,-177.66,-110.21,-353,-7894,-2900,-1,0,-1
86.14,-177.66,-110.21,-347,-7897,-2894,-1,0,-1
86.12,-177.66,-110.22,-346,-7910,-2896,-1,0,-1
86.13,-177.66,-110.22,-347,-7906,-2921,0,0,-1
86.14,-177.66,-110.21,-342,-7905,-2919,0,0,0
86.14,-177.66,-110.21,-341,-7900,-2921,0,0,0
86.14,-177.66,-110.20,-342,-7883,-2891,0,-1,0
86.14,-177.66,-110.20,-346,-7892,-2885,-1,-1,0
86.14,-177.66,-110.21,-356,-7909,-2899,-1,0,-1
86.14,-177.66,-110.21,-350,-7917,-2935,0,0,-1
86.15,-177.67,-110.21,-344,-7908,-2940,0,0,-1
86.12,-177.67,-110.18,-329,-7883,-2913,1,-1,0
86.12,-177.66,-110.16,-333,-7871,-2871,0,-1,0
86.14,-177.65,-110.15,-347,-7880,-2853,-1,-1,0
86.14,-177.64,-110.17,-358,-7902,-2875,-2,-1,0
86.15,-177.64,-110.20,-360,-7909,-2902,-1,0,-1
86.13,-177.66,-110.22,-344,-7908,-2920,-1,0,-1
86.14,-177.67,-110.22,-330,-7891,-2941,0,0,-1
86.14,-177.67,-110.20,-334,-7883,-2929,1,-1,0
86.15,-177.65,-110.18,-337,-7876,-2901,0,-1,0
86.15,-177.64,-110.15,-352,-7895,-2879,0,-1,0
86.15,-177.64,-110.15,-361,-7910,-2874,-1,0,-1
86.15,-177.65,-110.16,-363,-7914,-2881,-1,0,-1
86.15,-177.65,-110.17,-355,-7913,-2891,-1,0,-1
86.14,-177.65,-110.19,-350,-7895,-2911,-1,0,-1
86.14,-177.66,-110.20,-341,-7881,-2914,0,0,-1
86.14,-177.66,-110.20,-336,-7885,-2925,0,0,0
86.13,-177.66,-110.19,-345,-7893,-2915,0,-1,0
86.13,-177.64,-110.16,-356,-7911,-2900,0,-1,0
86.15,-177.64,-110.15,-356,-7921,-2888,0,-1,0
86.13,-177.64,-110.14,-348,-7921,-2880,0,0,-1
86.13,-177.64,-110.15,-362,-7912,-2880,-1,0,-1
86.11,-177.65,-110.16,-350,-7898,-2891,-1,0,-1
86.11,-177.66,-110.18,-341,-7884,-2890,-1,0,-1
86.11,-177.67,-110.19,-334,-7881,-2898,-1,0,-1
86.10,-177.67,-110.20,-343,-7893,-2916,-1,0,0
86.10,-177.67,-110.20,-346,-7899,-2925,-1,0,0
86.10,-177.67,-110.20,-344,-7906,-2927,0,0,0
86.10,-177.66,-110.20,-344,-7906,-2916,0,0,0
86.11,-177.66,-110.19,-347,-7908,-2904,0,0,-1
86.09,-177.66,-110.17,-356,-7902,-2888,0,0,-1
86.09,-177.66,-110.18,-351,-7892,-2890,-1,0,-1
86.09,-177.67,-110.18,-347,-7890,-2881,-1,0,-1
86.09,-177.68,-110.19,-342,-7889,-2881,-1,0,-1
86.07,-177.67,-110.19,-346,-7900,-2893,-1,0,-1
86.07,-177.67,-110.19,-348,-7899,-2902,-1,0,-1
86.07,-177.68,-110.20,-341,-7897,-2909,0,0,0
86.09,-177.67,-110.20,-338,-7900,-2914,0,-1,0
86.07,-177.67,-110.19,-339,-7901,-2908,0,0,0
86.07,-177.67,-110.19,-337,-7903,-2908,0,0,-1
86.08,-177.68,-110.19,-337,-7901,-2896,0,0,-1
86.08,-177.68,-110.19,-337,-7899,-2901,-1,0,0
86.05,-177.68,-110.19,-337,-7896,-2898,-1,0,0
86.05,-177.68,-110.19,-341,-7893,-2904,-1,0,0
86.05,-177.68,-110.21,-347,-7899,-2910,-1,0,-1
86.05,-177.69,-110.21,-345,-7907,-2914,-1,0,-1
86.05,-177.69,-110.21,-338,-7908,-2919,0,0,0
86.05,-177.69,-110.21,-336,-7895,-2921,0,0,-1
86.06,-177.69,-110.20,-333,-7897,-2911,0,0,0
86.06,-177.69,-110.20,-335,-7889,-2903,0,0,-1
86.06,-177.69,-110.20,-338,-7887,-2899,-1,0,0
86.03,-177.69,-110.21,-338,-7893,-2899,-1,0,0
86.03,-177.69,-110.20,-345,-7903,-2903,-1,0,0
86.03,-177.69,-110.20,-336,-7908,-2904,0,0,0
86.06,-177.69,-110.20,-338,-7904,-2895,-1,0,0
86.03,-177.69,-110.20,-343,-7898,-2904,-1,0,-1
86.03,-177.69,-110.21,-340,-7887,-2913,-1,0,-1
86.03,-177.70,-110.21,-340,-7887,-2909,-1,0,-1
86.03,-177.70,-110.21,-339,-7888,-2904,0,0,0
86.01,-177.69,-110.22,-341,-7894,-2909,-1,-1,0
86.01,-177.69,-110.21,-342,-7898,-2908,-1,0,0
86.01,-177.69,-110.22,-347,-7896,-2903,-1,0,-1
86.01,-177.69,-110.22,-347,-7888,-2912,-1,0,-1
86.01,-177.70,-110.22,-339,-7891,-2904,-1,0,-1
86.01,-177.70,-110.22,-337,-7885,-2903,-1,0,0
85.99,-177.70,-110.23,-339,-7883,-2916,-1,0,0
86.01,-177.70,-110.23,-343,-7892,-2919,-1,0,0
86.01,-177.70,-110.23,-339,-7903,-2919,0,0,-1
85.99,-177.70,-110.23,-339,-7907,-2905,0,0,-1
85.99,-177.70,-110.22,-331,-7897,-2894,0,0,-1
85.98,-177.70,-110.21,-322,-7888,-2888,-1,-1,0
85.99,-177.70,-110.22,-330,-7898,-2894,-1,-1,0
85.99,-177.70,-110.23,-342,-7900,-2901,-1,0,-1
85.97,-177.71,-110.24,-342,-7908,-2924,-1,0,-1
85.97,-177.71,-110.25,-331,-7914,-2937,0,0,-1
85.99,-177.71,-110.24,-334,-7906,-2930,0,-1,0
85.97,-177.71,-110.23,-331,-7889,-2898,0,-1,0
85.99,-177.70,-110.22,-334,-7877,-2881,-1,-1,0
85.97,-177.70,-110.22,-326,-7886,-2877,-1,-1,0
85.99,-177.70,-110.23,-335,-7913,-2889,-1,0,-1
85.97,-177.71,-110.24,-335,-7918,-2924,-1,0,-1
85.97,-177.71,-110.25,-334,-7916,-2943,0,0,-1
85.96,-177.72,-110.24,-325,-7900,-2930,0,-1,0
85.96,-177.71,-110.22,-332,-7896,-2921,0,-1,0
85.98,-177.72,-110.22,-333,-7886,-2906,0,-1,0
85.96,-177.71,-110.22,-337,-7894,-2905,-1,-1,0
85.97,-177.71,-110.23,-341,-7907,-2913,-1,-1,0
85.99,-177.70,-110.23,-342,-7907,-2919,-1,-1,0
85.99,-177.70,-110.23,-336,-7902,-2916,0,-1,0
85.99,-177.70,-110.23,-337,-7884,-2919,0,-1,0
86.01,-177.70,-110.23,-341,-7887,-2916,-1,-1,0
86.01,-177.70,-110.23,-342,-7884,-2909,0,0,-1
86.01,-177.70,-110.23,-346,-7889,-2907,-1,-1,0
86.00,-177.69,-110.24,-347,-7900,-2917,0,0,-1
86.01,-177.70,-110.23,-335,-7893,-2916,-1,0,-1
86.01,-177.70,-110.23,-339,-7896,-2919,0,-1,0
86.01,-177.70,-110.23,-341,-7895,-2911,0,0,-1
85.99,-177.70,-110.22,-343,-7889,-2906,0,0,0
86.01,-177.70,-110.22,-336,-7885,-2903,0,0,0
86.01,-177.70,-110.22,-340,-7884,-2905,-1,0,0
85.99,-177.70,-110.22,-339,-7899,-2907,-1,0,0
85.99,-177.70,-110.23,-341,-7903,-2918,0,0,0
85.99,-177.70,-110.22,-337,-7901,-2904,0,0,0
85.99,-177.69,-110.22,-339,-7900,-2900,0,-1,0
85.97,-177.70,-110.22,-336,-7893,-2892,-1,0,0
85.99,-177.69,-110.22,-340,-7891,-2898,-1,0,-1
85.99,-177.69,-110.22,-338,-7892,-2909,-1,0,0
85.99,-177.69,-110.22,-330,-7894,-2921,0,0,0
85.99,-177.69,-110.22,-332,-7899,-2911,0,-1,0
85.99,-177.69,-110.22,-342,-7905,-2912,0,-1,0
85.99,-177.69,-110.22,-344,-7897,-2896,0,-1,0
85.97,-177.69,-110.21,-345,-7895,-2899,0,0,0
85.97,-177.69,-110.21,-341,-7882,-2895,-1,0,0
85.97,-177.69,-110.21,-335,-7886,-2899,-1,0,0
85.99,-177.69,-110.22,-343,-7896,-2916,-1,0,0
85.99,-177.69,-110.22,-342,-7899,-2913,0,0,0
85.99,-177.69,-110.22,-339,-7905,-2908,0,0,0
85.99,-177.69,-110.22,-342,-7905,-2908,0,-1,0
85.99,-177.69,-110.22,-345,-7899,-2917,0,0,-1
85.99,-177.69,-110.22,-338,-7897,-2915,-1,0,-1
85.99,-177.69,-110.22,-336,-7901,-2916,-1,0,0
85.99,-177.69,-110.22,-338,-7907,-2912,-1,0,0
85.99,-177.69,-110.22,-334,-7901,-2911,-1,0,0
85.99,-177.69,-110.22,-333,-7898,-2911,0,0,0
85.99,-177.69,-110.22,-338,-7893,-2912,0,0,0
85.99,-177.69,-110.22,-333,-7887,-2908,0,0,0
85.99,-177.69,-110.22,-343,-7893,-2906,-1,0,0
85.96,-177.68,-110.22,-347,-7909,-2897,-1,0,0
85.96,-177.68,-110.22,-347,-7904,-2907,-1,0,0
85.96,-177.68,-110.22,-338,-7903,-2907,-1,0,-1
85.96,-177.68,-110.22,-341,-7905,-2909,0,-1,0
85.96,-177.68,-110.22,-337,-7891,-2915,0,0,0
85.96,-177.68,-110.21,-339,-7892,-2902,-1,-1,0
85.98,-177.67,-110.21,-350,-7907,-2911,0,-1,0
86.00,-177.67,-110.21,-350,-7904,-2901,-1,-1,0
85.98,-177.66,-110.21,-354,-7902,-2903,-1,-1,0
85.99,-177.66,-110.21,-351,-7901,-2902,-1,0,-1
85.99,-177.66,-110.22,-347,-7896,-2907,-1,0,-1
85.99,-177.66,-110.22,-347,-7897,-2909,0,-1,0
86.00,-177.67,-110.20,-344,-7899,-2908,0,0,-1
86.00,-177.67,-110.20,-337,-7889,-2901,0,-1,0
86.00,-177.67,-110.20,-334,-7894,-2896,-1,-1,0
86.00,-177.67,-110.20,-348,-7899,-2903,-1,0,-1
86.00,-177.67,-110.21,-348,-7902,-2907,-1,0,-1
86.00,-177.67,-110.20,-346,-7903,-2905,0,0,-1
85.98,-177.67,-110.20,-347,-7899,-2906,0,-1,0
86.01,-177.67,-110.19,-347,-7893,-2888,0,-1,0
85.98,-177.66,-110.19,-342,-7893,-2886,-1,0,0
85.98,-177.66,-110.19,-338,-7894,-2900,-1,0,-1
86.00,-177.67,-110.20,-333,-7905,-2916,-1,0,-1
86.00,-177.67,-110.21,-334,-7907,-2922,0,0,0
86.00,-177.67,-110.20,-337,-7902,-2916,0,-1,0
86.00,-177.67,-110.20,-344,-7895,-2915,0,-1,0
86.00,-177.67,-110.20,-340,-7896,-2905,0,-1,0
86.00,-177.67,-110.20,-342,-7899,-2901,-1,0,-1
85.98,-177.68,-110.20,-340,-7900,-2903,-1,0,-1
86.00,-177.67,-110.21,-340,-7900,-2914,0,0,-1
86.00,-177.67,-110.21,-343,-7897,-2907,0,-1,0
86.00,-177.67,-110.20,-346,-7901,-2901,0,0,0
85.98,-177.67,-110.20,-345,-7900,-2903,0,0,0
86.01,-177.67,-110.19,-343,-7896,-2896,0,-1,0
86.01,-177.67,-110.19,-344,-7894,-2894,-1,-1,0
86.01,-177.67,-110.19,-349,-7897,-2904,-1,-1,0
86.00,-177.66,-110.20,-342,-7895,-2902,-1,-1,0
86.00,-177.66,-110.20,-342,-7902,-2906,0,-1,0
86.02,-177.66,-110.20,-340,-7907,-2901,0,-1,0
86.02,-177.66,-110.19,-335,-7893,-2895,-1,0,0
86.02,-177.65,-110.20,-340,-7894,-2905,0,-1,0
86.01,-177.65,-110.20,-352,-7890,-2907,0,0,0
86.01,-177.65,-110.20,-349,-7894,-2907,0,-1,0
86.01,-177.65,-110.19,-354,-7898,-2908,0,0,0
86.02,-177.65,-110.19,-347,-7898,-2894,-1,0,-1
86.02,-177.65,-110.19,-338,-7896,-2900,0,0,-1
86.00,-177.66,-110.18,-335,-7894,-2902,0,-1,-1
86.01,-177.66,-110.17,-333,-7877,-2871,0,-1,0
86.03,-177.65,-110.17,-343,-7891,-2871,-1,0,0
86.02,-177.65,-110.19,-358,-7906,-2900,-1,0,-1
86.02,-177.66,-110.19,-354,-7909,-2921,-1,0,-1
86.01,-177.67,-110.19,-341,-7903,-2925,0,0,-1
86.01,-177.67,-110.18,-342,-7897,-2914,0,0,0
86.02,-177.67,-110.16,-337,-7892,-2887,0,-1,0
86.01,-177.66,-110.17,-350,-7905,-2888,-1,0,-1
86.01,-177.66,-110.17,-354,-7912,-2902,-1,0,-1
86.01,-177.67,-110.18,-350,-7907,-2911,-1,0,-1
86.01,-177.67,-110.18,-342,-7908,-2908,0,0,-1
86.01,-177.67,-110.18,-339,-7905,-2902,0,0,-1
85.99,-177.67,-110.18,-338,-7895,-2893,-1,0,0
86.01,-177.67,-110.18,-350,-7900,-2906,-1,-1,-1
86.01,-177.67,-110.18,-344,-7906,-2911,0,0,0
86.01,-177.67,-110.18,-356,-7912,-2917,0,0,-1
86.01,-177.67,-110.18,-356,-7911,-2906,0,0,-1
86.01,-177.67,-110.18,-356,-7903,-2897,-1,0,-1
85.99,-177.67,-110.18,-345,-7896,-2886,-1,0,-1
85.99,-177.67,-110.18,-348,-7891,-2885,-1,0,-1
86.01,-177.67,-110.18,-345,-7896,-2896,-1,0,-1
86.01,-177.67,-110.18,-344,-7900,-2896,-1,0,-1
86.00,-177.68,-110.18,-340,-7895,-2896,0,0,-1
86.00,-177.68,-110.18,-340,-7898,-2890,-1,0,-1
85.98,-177.68,-110.18,-341,-7897,-2894,-1,0,0
85.98,-177.68,-110.18,-344,-7891,-2894,-1,0,0
85.99,-177.67,-110.18,-349,-7890,-2890,-1,0,-1
85.99,-177.67,-110.18,-343,-7899,-2892,-1,0,-1
85.98,-177.68,-110.18,-346,-7905,-2889,-1,0,-1
85.98,-177.68,-110.18,-347,-7900,-2891,-1,0,-1
85.98,-177.69,-110.18,-351,-7894,-2894,-1,0,-1
85.98,-177.69,-110.18,-349,-7888,-2897,-1,0,-1
85.96,-177.69,-110.19,-343,-7895,-2905,-1,0,-1
85.96,-177.69,-110.19,-344,-7898,-2906,-1,0,-1
85.96,-177.69,-110.19,-336,-7900,-2897,-1,0,-1
85.96,-177.70,-110.20,-338,-7901,-2909,-1,0,-1
85.98,-177.69,-110.20,-347,-7895,-2911,0,0,0
85.97,-177.69,-110.20,-347,-7893,-2916,0,0,0
85.96,-177.69,-110.19,-345,-7897,-2907,0,-1,0
85.96,-177.69,-110.19,-335,-7891,-2896,-1,0,-1
85.96,-177.69,-110.19,-335,-7898,-2902,-1,0,-1
85.94,-177.70,-110.20,-337,-7901,-2903,-1,0,-1
85.94,-177.70,-110.20,-336,-7911,-2913,0,0,-1
85.94,-177.70,-110.19,-338,-7898,-2903,0,0,-1
85.95,-177.70,-110.18,-341,-7896,-2888,0,0,-1
85.95,-177.69,-110.17,-347,-7896,-2869,0,-1,0
85.96,-177.69,-110.17,-367,-7894,-2882,0,-1,0
85.98,-177.68,-110.17,-363,-7889,-2889,-1,-1,0
85.98,-177.68,-110.17,-361,-7884,-2894,-1,0,-1
85.97,-177.68,-110.19,-365,-7896,-2912,-1,0,0
85.95,-177.68,-110.19,-354,-7901,-2913,-1,0,0
85.97,-177.68,-110.20,-343,-7886,-2914,0,-1,0
85.97,-177.67,-110.19,-332,-7885,-2920,0,0,0
85.97,-177.67,-110.19,-320,-7889,-2918,0,-1,0
85.96,-177.66,-110.18,-334,-7896,-2904,0,-1,0
85.94,-177.65,-110.16,-338,-7898,-2897,0,-1,0
85.97,-177.65,-110.16,-337,-7902,-2903,0,-1,0
85.97,-177.65,-110.16,-331,-7894,-2903,0,0,-1
85.95,-177.65,-110.15,-339,-7901,-2901,-1,0,-1
85.97,-177.65,-110.16,-344,-7901,-2901,-1,0,-1
85.97,-177.66,-110.17,-344,-7903,-2897,-1,0,-1
85.97,-177.66,-110.17,-352,-7901,-2903,-1,0,-1
85.97,-177.68,-110.19,-359,-7910,-2912,-1,0,-1
85.97,-177.69,-110.19,-357,-7916,-2915,-1,0,-1
85.98,-177.69,-110.20,-361,-7910,-2913,-1,0,-1
85.96,-177.70,-110.20,-357,-7890,-2913,0,0,-1
85.97,-177.71,-110.19,-350,-7876,-2900,0,0,-1
85.97,-177.71,-110.20,-346,-7875,-2908,-1,0,0
85.94,-177.71,-110.20,-343,-7878,-2910,0,0,0
85.96,-177.70,-110.20,-341,-7889,-2907,0,-1,0
85.93,-177.68,-110.19,-349,-7902,-2907,0,-1,0
85.95,-177.68,-110.18,-355,-7908,-2911,0,-1,0
85.94,-177.67,-110.16,-354,-7913,-2890,0,-1,0
85.93,-177.66,-110.15,-359,-7893,-2882,0,0,0
85.93,-177.66,-110.15,-352,-7891,-2878,-1,0,0
85.93,-177.65,-110.16,-358,-7906,-2893,-1,0,-1
85.93,-177.66,-110.16,-351,-7908,-2906,-1,0,-1
85.93,-177.67,-110.17,-343,-7900,-2914,-1,0,-1
85.93,-177.67,-110.18,-337,-7905,-2914,-1,0,-1
85.93,-177.68,-110.18,-337,-7894,-2910,-1,0,-1
85.92,-177.69,-110.18,-335,-7887,-2910,0,0,-1
85.91,-177.68,-110.18,-336,-7891,-2896,0,0,0
85.91,-177.68,-110.18,-338,-7897,-2899,-1,0,0
85.91,-177.68,-110.18,-336,-7895,-2912,-1,0,0
85.89,-177.68,-110.18,-342,-7894,-2918,0,0,0
85.89,-177.68,-110.18,-347,-7894,-2918,0,0,-1
85.89,-177.68,-110.18,-348,-7894,-2909,0,0,0
85.89,-177.68,-110.18,-348,-7901,-2903,0,0,-1
85.90,-177.68,-110.17,-348,-7904,-2902,0,0,-1
85.90,-177.68,-110.17,-349,-7902,-2906,-1,0,-1
85.90,-177.69,-110.18,-347,-7905,-2896,-1,0,-1
85.90,-177.69,-110.18,-350,-7902,-2895,-1,0,-1
85.88,-177.69,-110.19,-344,-7895,-2892,-1,0,-1
85.88,-177.70,-110.19,-343,-7897,-2901,-1,0,-1
85.88,-177.70,-110.19,-344,-7888,-2908,-1,0,-1
85.87,-177.70,-110.20,-338,-7886,-2915,-1,0,0
85.87,-177.69,-110.20,-343,-7891,-2905,-1,0,0
85.87,-177.69,-110.20,-331,-7899,-2904,0,0,0
85.87,-177.69,-110.20,-341,-7902,-2907,-1,-1,0
85.87,-177.69,-110.20,-333,-7903,-2911,-1,0,-1
85.87,-177.69,-110.20,-338,-7901,-2916,-1,0,-1
85.85,-177.70,-110.21,-332,-7903,-2920,-1,0,-1
85.87,-177.70,-110.21,-339,-7904,-2913,0,-1,-1
85.85,-177.70,-110.20,-341,-7911,-2906,0,-1,0
85.84,-177.70,-110.19,-345,-7905,-2896,0,0,-1
85.84,-177.69,-110.19,-338,-7887,-2888,-1,0,-1
85.84,-177.70,-110.19,-336,-7883,-2895,-1,0,-1
85.85,-177.69,-110.21,-339,-7893,-2907,-1,0,0
85.85,-177.70,-110.21,-338,-7906,-2917,-1,0,-1
85.85,-177.70,-110.22,-337,-7900,-2922,-1,0,-1
85.85,-177.70,-110.22,-335,-7891,-2913,-1,0,-1
85.83,-177.71,-110.22,-337,-7897,-2901,-1,0,-1
85.81,-177.71,-110.22,-342,-7899,-2913,-1,0,-1
85.81,-177.71,-110.23,-346,-7907,-2911,-1,0,-1
85.81,-177.72,-110.23,-351,-7903,-2908,-1,0,-1
85.81,-177.72,-110.23,-344,-7896,-2912,-1,0,-1
85.81,-177.72,-110.23,-338,-7887,-2904,0,0,-1
85.80,-177.73,-110.23,-339,-7885,-2907,0,0,-1
85.81,-177.72,-110.23,-342,-7884,-2905,-1,-1,0
85.81,-177.72,-110.23,-341,-7889,-2907,0,-1,0
85.81,-177.71,-110.22,-343,-7899,-2911,0,-1,0
85.81,-177.70,-110.22,-343,-7891,-2903,-1,-1,0
85.80,-177.70,-110.22,-351,-7886,-2904,-1,-1,0
85.80,-177.69,-110.23,-349,-7892,-2907,-1,-1,0
85.80,-177.69,-110.23,-351,-7914,-2914,-1,0,-1
85.80,-177.69,-110.23,-350,-7921,-2931,-1,0,-1
85.80,-177.70,-110.24,-343,-7910,-2929,-1,0,-1
85.78,-177.70,-110.23,-339,-7904,-2918,0,0,-1
85.80,-177.70,-110.23,-336,-7891,-2908,0,0,-1
85.80,-177.70,-110.23,-330,-7881,-2905,-1,0,0
85.80,-177.70,-110.23,-335,-7881,-2896,-1,-1,0
85.80,-177.70,-110.23,-333,-7899,-2913,-1,0,-1
85.80,-177.70,-110.24,-333,-7906,-2931,0,-1,-1
85.82,-177.70,-110.23,-340,-7909,-2918,0,0,-1
85.80,-177.70,-110.23,-338,-7902,-2917,0,0,-1
85.80,-177.70,-110.23,-340,-7892,-2910,0,-1,-1
85.80,-177.70,-110.23,-341,-7890,-2904,-1,0,-1
85.82,-177.70,-110.24,-350,-7889,-2906,-1,-1,-1
85.82,-177.71,-110.24,-353,-7899,-2916,-1,0,-1
85.82,-177.71,-110.24,-351,-7900,-2920,-1,0,-1
85.82,-177.71,-110.24,-339,-7893,-2909,0,0,-1
85.82,-177.71,-110.24,-336,-7885,-2904,-1,0,-1
85.82,-177.71,-110.24,-341,-7887,-2905,0,0,0
85.82,-177.71,-110.24,-331,-7890,-2914,-1,-1,0
85.84,-177.70,-110.24,-334,-7887,-2908,-1,-1,0
85.81,-177.69,-110.24,-337,-7886,-2910,0,-1,0
85.83,-177.69,-110.24,-337,-7894,-2917,-1,-1,0
85.83,-177.68,-110.24,-349,-7900,-2926,0,-1,0
85.83,-177.68,-110.23,-340,-7902,-2910,0,-1,0
85.83,-177.67,-110.23,-346,-7903,-2904,0,-1,0
85.83,-177.67,-110.22,-350,-7900,-2891,-1,-1,0
85.83,-177.66,-110.22,-339,-7905,-2892,-1,0,-1
85.83,-177.67,-110.22,-338,-7900,-2903,-1,0,0
85.82,-177.66,-110.23,-347,-7894,-2911,-1,-1,0
85.84,-177.66,-110.24,-338,-7889,-2912,-1,-1,-1
85.84,-177.66,-110.24,-346,-7901,-2915,-1,-1,-1
85.84,-177.66,-110.24,-347,-7895,-2908,-1,-1,-1
85.86,-177.67,-110.25,-353,-7892,-2919,-1,-1,-1
85.85,-177.66,-110.26,-355,-7886,-2905,-1,0,-1
85.85,-177.67,-110.27,-345,-7893,-2921,-1,0,0
85.83,-177.66,-110.27,-347,-7895,-2912,-1,0,-1
85.85,-177.66,-110.28,-341,-7901,-2923,0,0,0
85.84,-177.66,-110.27,-352,-7899,-2926,0,-1,0
85.86,-177.65,-110.27,-348,-7888,-2913,-1,-1,0
85.84,-177.65,-110.27,-348,-7893,-2915,0,0,0
85.84,-177.65,-110.26,-341,-7897,-2916,-1,0,0
85.84,-177.65,-110.26,-347,-7900,-2918,0,0,0
85.86,-177.64,-110.26,-350,-7905,-2922,-1,-1,0
85.84,-177.64,-110.27,-356,-7901,-2920,-1,0,-1
85.84,-177.64,-110.27,-350,-7902,-2936,-1,0,-1
85.84,-177.65,-110.27,-348,-7896,-2915,-1,0,-1
85.82,-177.65,-110.27,-345,-7884,-2916,0,0,-1
85.84,-177.65,-110.27,-339,-7891,-2922,0,-1,0
85.84,-177.65,-110.26,-346,-7894,-2921,0,-1,0
85.86,-177.64,-110.26,-346,-7890,-2923,-1,-1,0
85.86,-177.64,-110.26,-352,-7884,-2918,-1,0,-1
85.86,-177.64,-110.26,-355,-7892,-2920,-1,0,-1
85.86,-177.65,-110.27,-349,-7891,-2915,-1,0,-1
85.86,-177.65,-110.27,-355,-7892,-2924,0,0,-1
85.86,-177.65,-110.27,-349,-7885,-2923,0,0,-1
85.84,-177.65,-110.27,-353,-7888,-2916,0,0,-1
85.83,-177.66,-110.26,-354,-7889,-2911,0,0,-1
85.85,-177.65,-110.25,-348,-7897,-2906,0,0,-1
85.83,-177.66,-110.25,-351,-7902,-2902,-1,0,-1
85.83,-177.66,-110.25,-346,-7892,-2905,0,0,-1
85.83,-177.66,-110.25,-352,-7887,-2907,-1,0,-1
85.82,-177.66,-110.25,-346,-7891,-2903,-1,0,-1
85.82,-177.66,-110.25,-343,-7887,-2906,0,0,-1
85.82,-177.66,-110.25,-341,-7897,-2905,-1,0,0
85.83,-177.66,-110.25,-341,-7903,-2917,-1,0,-1
85.81,-177.66,-110.26,-346,-7900,-2918,-1,0,0
85.81,-177.67,-110.26,-347,-7906,-2922,-1,0,-1
85.81,-177.67,-110.26,-346,-7902,-2919,0,0,-1
85.83,-177.67,-110.26,-346,-7889,-2922,0,0,-1
85.83,-177.66,-110.26,-344,-7885,-2913,0,-1,-1
85.83,-177.66,-110.26,-348,-7888,-2910,0,0,-1
85.81,-177.66,-110.26,-351,-7886,-2920,0,0,-1
85.83,-177.66,-110.26,-346,-7897,-2911,-1,0,-1
85.83,-177.66,-110.25,-347,-7906,-2913,-1,-1,-1
85.83,-177.66,-110.25,-346,-7905,-2907,-1,-1,-1
85.82,-177.66,-110.25,-348,-7900,-2904,0,-1,-1
85.82,-177.66,-110.25,-348,-7902,-2902,0,0,-1
85.81,-177.66,-110.24,-343,-7897,-2906,-1,-1,0
85.82,-177.66,-110.24,-338,-7891,-2911,-1,-1,0
85.81,-177.66,-110.24,-338,-7896,-2916,0,-1,0
85.81,-177.66,-110.24,-341,-7902,-2909,0,-1,-1
85.84,-177.66,-110.23,-350,-7899,-2907,0,-1,-1
85.84,-177.66,-110.23,-353,-7899,-2904,-1,-1,-1
85.84,-177.66,-110.23,-358,-7891,-2904,-1,-1,-1
85.84,-177.66,-110.23,-352,-7892,-2901,-1,0,0
85.84,-177.66,-110.23,-350,-7895,-2912,0,0,-1
85.81,-177.65,-110.24,-346,-7892,-2910,-1,0,0
85.81,-177.65,-110.24,-345,-7909,-2907,-1,0,-1
85.81,-177.65,-110.24,-341,-7906,-2916,0,0,-1
85.81,-177.65,-110.24,-347,-7895,-2916,-1,-1,0
85.83,-177.65,-110.24,-356,-7891,-2917,-1,-1,0
85.83,-177.65,-110.24,-364,-7903,-2921,0,0,-1
85.80,-177.65,-110.23,-357,-7907,-2917,0,0,-1
85.80,-177.65,-110.22,-342,-7899,-2910,0,0,0
85.82,-177.65,-110.22,-343,-7889,-2904,-1,0,0
85.82,-177.65,-110.22,-341,-7895,-2909,0,0,0
85.82,-177.65,-110.22,-349,-7894,-2906,0,0,-1
85.82,-177.65,-110.22,-351,-7897,-2909,-1,-1,-1
85.82,-177.65,-110.22,-348,-7904,-2910,0,-1,-1
85.82,-177.65,-110.22,-352,-7900,-2913,0,-1,0
85.82,-177.65,-110.20,-346,-7887,-2897,0,-1,0
85.84,-177.64,-110.20,-350,-7887,-2895,-1,-1,-1
85.82,-177.64,-110.21,-358,-7881,-2896,-1,0,-1
85.83,-177.64,-110.22,-357,-7891,-2917,-1,0,-1
85.83,-177.64,-110.22,-352,-7911,-2929,0,0,-1
85.82,-177.65,-110.22,-353,-7909,-2923,0,0,0
85.82,-177.64,-110.21,-351,-7906,-2906,0,-1,0
85.80,-177.64,-110.20,-348,-7909,-2895,-1,0,-1
85.80,-177.64,-110.21,-362,-7910,-2900,-1,0,-1
85.79,-177.65,-110.22,-359,-7895,-2905,-1,0,-1
85.80,-177.66,-110.23,-343,-7894,-2912,-1,0,-1
85.80,-177.67,-110.24,-337,-7891,-2915,-1,0,-1
85.80,-177.67,-110.25,-335,-7890,-2932,0,0,-1
85.78,-177.68,-110.25,-344,-7898,-2926,0,0,-1
85.78,-177.67,-110.24,-348,-7893,-2919,0,0,-1
85.78,-177.67,-110.24,-346,-7890,-2903,0,-1,0
85.78,-177.67,-110.24,-351,-7886,-2913,0,-1,0
85.78,-177.66,-110.23,-349,-7892,-2905,0,-1,0
85.80,-177.67,-110.23,-345,-7900,-2916,0,-1,0
85.80,-177.66,-110.22,-358,-7907,-2919,0,-1,0
85.80,-177.65,-110.21,-353,-7896,-2914,0,-1,0
85.80,-177.64,-110.21,-352,-7897,-2903,0,0,0
85.80,-177.64,-110.20,-346,-7895,-2899,-1,0,0
85.78,-177.65,-110.20,-345,-7896,-2891,-1,0,-1
85.78,-177.64,-110.21,-342,-7908,-2904,-1,0,-1
85.78,-177.64,-110.21,-352,-7911,-2908,-1,0,-1
85.78,-177.65,-110.22,-355,-7910,-2901,0,0,-1
85.80,-177.65,-110.21,-356,-7886,-2892,0,0,-1
85.78,-177.65,-110.21,-357,-7884,-2893,-1,0,-1
85.78,-177.65,-110.21,-354,-7886,-2894,-1,-1,-1
85.78,-177.65,-110.21,-340,-7892,-2898,0,-1,-1
85.78,-177.65,-110.21,-341,-7904,-2899,0,-1,0
85.78,-177.65,-110.20,-339,-7899,-2896,0,-1,0
85.78,-177.65,-110.20,-349,-7891,-2900,0,-1,0
85.78,-177.64,-110.20,-350,-7887,-2901,0,0,-1
85.80,-177.64,-110.19,-349,-7885,-2912,0,-1,-1
85.80,-177.64,-110.19,-341,-7887,-2915,0,-1,0
85.80,-177.64,-110.19,-338,-7902,-2917,0,-1,0
85.80,-177.64,-110.19,-337,-7892,-2906,-1,0,0
85.78,-177.63,-110.19,-348,-7901,-2914,-1,0,-1
85.78,-177.64,-110.20,-344,-7896,-2911,0,0,-1
85.78,-177.64,-110.20,-355,-7900,-2911,-1,0,-1
85.78,-177.64,-110.20,-355,-7903,-2911,0,0,-1
85.76,-177.64,-110.19,-351,-7902,-2902,0,0,-1
85.77,-177.65,-110.20,-355,-7899,-2899,-1,0,-1
85.78,-177.65,-110.20,-355,-7894,-2895,-1,0,-1
85.78,-177.65,-110.21,-345,-7895,-2892,-1,0,-1
85.78,-177.66,-110.21,-338,-7894,-2898,-1,0,-1
85.78,-177.66,-110.21,-345,-7882,-2906,0,0,-1
85.78,-177.66,-110.21,-343,-7878,-2902,-1,-1,0
85.78,-177.64,-110.21,-350,-7889,-2911,0,-1,0
85.78,-177.64,-110.21,-348,-7898,-2917,0,0,0
85.78,-177.64,-110.20,-345,-7900,-2895,-1,0,0
85.76,-177.64,-110.20,-350,-7910,-2906,-1,0,0
85.76,-177.64,-110.20,-350,-7908,-2901,0,0,-1
85.76,-177.64,-110.20,-355,-7905,-2910,0,0,-1
85.78,-177.64,-110.20,-353,-7905,-2909,-1,0,-1
85.78,-177.64,-110.20,-355,-7899,-2906,-1,0,-1
85.76,-177.65,-110.21,-356,-7905,-2902,-1,0,-1
85.76,-177.65,-110.21,-355,-7912,-2911,-1,0,-1
85.76,-177.66,-110.22,-355,-7910,-2909,-1,0,-1
85.74,-177.67,-110.23,-350,-7902,-2917,-1,0,-1
85.74,-177.68,-110.24,-345,-7897,-2915,-1,0,-1
85.74,-177.68,-110.24,-349,-7890,-2908,-1,0,-1
85.74,-177.68,-110.25,-337,-7884,-2918,-1,0,0
85.74,-177.68,-110.25,-339,-7879,-2922,0,0,0
85.74,-177.68,-110.25,-343,-7887,-2922,0,0,0
85.74,-177.67,-110.24,-345,-7895,-2924,0,-1,0
85.72,-177.67,-110.22,-344,-7885,-2912,0,-1,0
85.73,-177.67,-110.21,-346,-7876,-2889,0,-1,0
85.72,-177.66,-110.21,-348,-7885,-2857,-1,-1,0
85.74,-177.65,-110.25,-366,-7931,-2892,-2,0,-1
85.74,-177.66,-110.29,-375,-7954,-2931,-1,0,-1
85.72,-177.68,-110.30,-360,-7925,-2941,-1,0,-1
85.71,-177.70,-110.30,-334,-7868,-2917,0,0,-1
85.70,-177.70,-110.29,-329,-7838,-2918,0,-1,0
85.72,-177.69,-110.27,-322,-7857,-2923,0,-1,0
85.70,-177.67,-110.24,-340,-7903,-2921,0,-1,0
85.71,-177.65,-110.22,-366,-7947,-2920,0,0,0
85.70,-177.66,-110.21,-372,-7960,-2913,0,0,-1
85.70,-177.66,-110.21,-363,-7921,-2909,-1,0,-1
85.69,-177.67,-110.21,-350,-7867,-2880,-1,0,-1
85.69,-177.68,-110.22,-335,-7828,-2869,-1,0,0
85.68,-177.67,-110.24,-331,-7839,-2896,-1,0,0
85.67,-177.67,-110.25,-333,-7889,-2930,-1,-1,0
85.69,-177.66,-110.25,-345,-7940,-2956,0,-1,0
85.67,-177.66,-110.24,-353,-7948,-2936,0,0,0
85.65,-177.66,-110.23,-360,-7924,-2932,0,0,-1
85.68,-177.66,-110.23,-358,-7873,-2912,0,0,-1
85.65,-177.66,-110.23,-341,-7843,-2882,-1,-1,0
85.66,-177.65,-110.25,-351,-7871,-2910,-1,0,-1
85.66,-177.66,-110.25,-344,-7902,-2918,0,0,-1
85.67,-177.66,-110.25,-340,-7920,-2909,-1,-1,0
85.67,-177.66,-110.24,-344,-7911,-2901,-1,-1,0
85.67,-177.66,-110.26,-345,-7890,-2895,-1,-1,-1
85.70,-177.66,-110.27,-342,-7866,-2910,-1,0,-1
85.68,-177.66,-110.27,-352,-7870,-2930,-1,0,-1
85.68,-177.66,-110.27,-347,-7896,-2938,0,-1,0
85.68,-177.66,-110.26,-346,-7906,-2932,0,-1,0
85.70,-177.65,-110.25,-349,-7902,-2907,0,-1,0
85.70,-177.64,-110.24,-359,-7886,-2890,-1,-1,-1
85.72,-177.65,-110.25,-360,-7886,-2896,-1,0,-1
85.70,-177.65,-110.27,-355,-7891,-2901,-1,0,-1
85.72,-177.66,-110.28,-350,-7886,-2917,-1,0,-1
85.72,-177.66,-110.28,-342,-7886,-2924,-1,0,-1
85.72,-177.66,-110.28,-339,-7900,-2926,0,-1,0
85.70,-177.67,-110.28,-340,-7903,-2930,0,-1,-1
85.70,-177.66,-110.27,-338,-7903,-2923,0,-1,0
85.70,-177.66,-110.27,-343,-7897,-2906,-1,0,-1
85.70,-177.67,-110.28,-334,-7891,-2906,-1,0,-1
85.70,-177.66,-110.29,-347,-7892,-2916,-1,0,0
85.70,-177.67,-110.29,-345,-7891,-2913,-1,-1,0
85.70,-177.67,-110.29,-349,-7899,-2914,0,0,0
85.69,-177.66,-110.28,-343,-7900,-2913,0,0,0
85.70,-177.67,-110.28,-340,-7893,-2912,0,0,-1
85.70,-177.67,-110.28,-342,-7898,-2915,-1,0,-1
85.70,-177.67,-110.28,-347,-7898,-2916,-1,0,-1
85.70,-177.67,-110.28,-347,-7889,-2913,-1,0,-1
85.70,-177.67,-110.28,-343,-7890,-2921,-1,0,-1
85.70,-177.68,-110.29,-344,-7889,-2924,-1,0,-1
85.72,-177.67,-110.29,-351,-7887,-2927,0,0,-1
85.72,-177.67,-110.29,-353,-7894,-2924,0,0,-1
85.70,-177.67,-110.28,-350,-7898,-2919,0,0,-1
85.70,-177.67,-110.28,-348,-7896,-2918,-1,0,-1
85.70,-177.67,-110.28,-346,-7898,-2920,-1,-1,-1
85.72,-177.67,-110.29,-345,-7894,-2918,-1,0,-1
85.70,-177.68,-110.29,-345,-7902,-2917,-1,0,-1
85.70,-177.68,-110.29,-346,-7904,-2919,0,0,-1
85.70,-177.68,-110.29,-342,-7898,-2912,0,-1,0
85.70,-177.67,-110.28,-345,-7896,-2923,-1,0,0
85.70,-177.67,-110.28,-343,-7895,-2914,-1,-1,0
85.70,-177.67,-110.29,-350,-7893,-2924,-1,0,0
85.70,-177.67,-110.30,-348,-7896,-2928,-1,0,-1
85.70,-177.67,-110.30,-347,-7903,-2930,0,0,-1
85.68,-177.67,-110.29,-342,-7890,-2924,0,0,-1
85.68,-177.67,-110.29,-339,-7886,-2927,0,-1,-1
85.70,-177.68,-110.29,-337,-7891,-2923,-1,0,-1
85.72,-177.68,-110.30,-342,-7892,-2927,-1,-1,-1
85.72,-177.68,-110.30,-338,-7897,-2920,-1,-1,0
85.72,-177.68,-110.30,-339,-7901,-2921,0,0,0
85.72,-177.68,-110.30,-342,-7899,-2927,0,0,0
85.70,-177.68,-110.29,-341,-7891,-2917,0,-1,-1
85.70,-177.68,-110.29,-337,-7898,-2913,-1,0,0
85.72,-177.68,-110.30,-348,-7905,-2924,-1,-1,-1
85.70,-177.67,-110.30,-348,-7895,-2927,-1,0,-1
85.70,-177.67,-110.30,-351,-7893,-2933,0,0,0
85.70,-177.67,-110.30,-347,-7892,-2927,0,0,-1
85.70,-177.67,-110.28,-343,-7889,-2911,0,0,0
85.68,-177.67,-110.27,-339,-7879,-2895,-1,-1,0
85.68,-177.67,-110.27,-337,-7882,-2892,-1,-1,0
85.70,-177.67,-110.28,-341,-7904,-2906,-1,0,-1
85.70,-177.67,-110.28,-344,-7901,-2919,0,0,-1
85.70,-177.68,-110.29,-349,-7898,-2930,0,0,-1
85.69,-177.67,-110.28,-342,-7888,-2922,0,-1,0
85.69,-177.67,-110.28,-340,-7882,-2916,0,-1,0
85.69,-177.67,-110.28,-342,-7885,-2912,0,0,-1
85.68,-177.67,-110.27,-354,-7891,-2912,-1,0,-1
85.68,-177.67,-110.27,-357,-7900,-2910,0,0,-1
85.68,-177.67,-110.27,-354,-7902,-2925,0,0,-1
85.68,-177.67,-110.27,-349,-7887,-2925,0,-1,-1
85.68,-177.67,-110.27,-346,-7884,-2923,-1,0,-1
85.68,-177.67,-110.27,-349,-7890,-2919,-1,-1,0
85.68,-177.66,-110.27,-348,-7898,-2920,0,-1,0
85.68,-177.66,-110.27,-351,-7891,-2913,0,-1,0
85.68,-177.66,-110.27,-349,-7892,-2911,-1,0,-1
85.68,-177.66,-110.27,-341,-7895,-2923,-1,-1,0
85.68,-177.66,-110.27,-343,-7892,-2918,0,-1,0
85.68,-177.66,-110.26,-338,-7895,-2911,0,-1,0
85.70,-177.66,-110.26,-341,-7899,-2914,0,-1,0
85.70,-177.65,-110.25,-350,-7893,-2908,-1,-1,-1
85.70,-177.66,-110.26,-351,-7892,-2918,-1,-1,-1
85.70,-177.66,-110.26,-347,-7896,-2917,0,-1,-1
85.69,-177.66,-110.25,-346,-7888,-2919,0,-1,0
85.71,-177.66,-110.25,-342,-7882,-2905,0,-1,0
85.69,-177.66,-110.25,-345,-7882,-2910,-1,0,0
85.70,-177.65,-110.25,-348,-7886,-2913,-1,-1,0
85.68,-177.65,-110.26,-350,-7887,-2914,-1,-1,0
85.68,-177.65,-110.26,-348,-7888,-2915,0,-1,0
85.70,-177.65,-110.25,-353,-7897,-2914,0,-1,0
85.69,-177.65,-110.24,-350,-7896,-2906,0,-1,0
85.71,-177.64,-110.23,-349,-7898,-2900,0,-1,0
85.71,-177.64,-110.23,-353,-7885,-2904,-1,-1,0
85.71,-177.64,-110.23,-352,-7893,-2894,-1,-1,-1
85.71,-177.64,-110.23,-356,-7902,-2897,-1,-1,-1
85.71,-177.64,-110.23,-347,-7889,-2908,-1,-1,0
85.72,-177.64,-110.23,-348,-7889,-2915,-1,-1,0
85.70,-177.64,-110.24,-353,-7899,-2928,-1,-1,0
85.70,-177.64,-110.24,-354,-7906,-2930,0,0,-1
85.70,-177.64,-110.24,-350,-7903,-2925,0,0,-1
85.72,-177.64,-110.23,-348,-7897,-2919,0,-1,0
85.72,-177.63,-110.23,-347,-7884,-2915,0,-1,0
85.72,-177.63,-110.23,-355,-7885,-2918,-1,-1,0
85.70,-177.63,-110.23,-359,-7886,-2911,-1,0,-1
85.70,-177.64,-110.24,-357,-7903,-2921,-1,0,-1
85.70,-177.64,-110.24,-354,-7907,-2914,0,0,-1
85.70,-177.64,-110.24,-344,-7905,-2911,0,-1,0
85.70,-177.64,-110.24,-349,-7896,-2907,-1,0,0
85.68,-177.64,-110.23,-344,-7884,-2906,0,0,-1
85.68,-177.64,-110.23,-346,-7891,-2910,-1,0,0
85.68,-177.64,-110.23,-349,-7901,-2909,-1,0,0
85.68,-177.64,-110.23,-353,-7903,-2911,-1,-1,-1
85.68,-177.64,-110.23,-356,-7908,-2907,-1,0,-1
85.68,-177.64,-110.23,-352,-7904,-2905,-1,0,-1
85.67,-177.64,-110.22,-349,-7898,-2906,-1,-1,-1
85.68,-177.64,-110.23,-354,-7893,-2902,-1,-1,0
85.68,-177.64,-110.23,-353,-7891,-2911,0,-1,0
85.68,-177.64,-110.23,-352,-7889,-2910,-1,0,0
85.68,-177.64,-110.23,-347,-7899,-2923,-1,0,0
85.68,-177.64,-110.24,-342,-7899,-2930,-1,-1,0
85.68,-177.64,-110.23,-342,-7907,-2922,0,-1,0
85.68,-177.64,-110.23,-342,-7912,-2916,0,-1,0
85.67,-177.64,-110.22,-351,-7899,-2901,0,-1,0
85.67,-177.64,-110.22,-356,-7892,-2905,-1,-1,-1
85.68,-177.63,-110.22,-354,-7889,-2902,-1,-1,-1
85.68,-177.63,-110.22,-351,-7898,-2900,-1,0,-1
85.67,-177.64,-110.22,-341,-7902,-2911,-1,0,-1
85.68,-177.64,-110.24,-341,-7905,-2922,-1,0,-1
85.68,-177.64,-110.24,-343,-7899,-2924,0,-1,0
85.67,-177.65,-110.23,-342,-7889,-2919,0,-1,0
85.67,-177.64,-110.22,-341,-7887,-2906,0,-1,0
85.67,-177.64,-110.22,-346,-7892,-2904,-1,0,0
85.67,-177.64,-110.22,-347,-7894,-2905,-1,-1,-1
85.67,-177.64,-110.22,-347,-7895,-2910,-1,-1,-1
85.67,-177.65,-110.23,-354,-7889,-2916,-1,0,-1
85.67,-177.65,-110.23,-346,-7890,-2910,0,0,-1
85.67,-177.65,-110.23,-350,-7890,-2911,-1,-1,0
85.67,-177.65,-110.23,-347,-7891,-2903,-1,-1,0
85.67,-177.65,-110.23,-355,-7884,-2905,-1,-1,-1
85.64,-177.64,-110.23,-354,-7891,-2904,-1,-1,-1
85.67,-177.65,-110.23,-349,-7900,-2913,0,0,0
85.67,-177.65,-110.23,-349,-7895,-2919,0,-1,-1
85.67,-177.65,-110.23,-352,-7899,-2925,-1,-1,0
85.66,-177.64,-110.24,-351,-7900,-2919,-1,-1,0
85.68,-177.64,-110.23,-349,-7901,-2921,0,0,0
85.66,-177.63,-110.23,-353,-7894,-2923,0,-1,0
85.66,-177.63,-110.23,-349,-7892,-2918,0,-1,0
85.66,-177.63,-110.23,-349,-7901,-2910,-1,-1,0
85.66,-177.63,-110.23,-351,-7904,-2915,-1,-1,-1
85.66,-177.63,-110.23,-346,-7897,-2915,-1,0,-1
85.66,-177.64,-110.24,-342,-7895,-2916,0,0,-1
85.66,-177.64,-110.24,-340,-7898,-2922,-1,0,0
85.66,-177.64,-110.24,-348,-7891,-2910,0,0,0
85.66,-177.64,-110.24,-347,-7891,-2915,-1,-1,0
85.66,-177.64,-110.24,-340,-7888,-2920,-1,-1,0
85.66,-177.64,-110.24,-339,-7899,-2925,0,0,0
85.66,-177.64,-110.24,-345,-7901,-2920,0,0,0
85.64,-177.65,-110.24,-347,-7894,-2918,0,0,-1
85.64,-177.64,-110.23,-340,-7885,-2910,-1,-1,0
85.62,-177.64,-110.24,-334,-7881,-2910,-1,-1,0
85.64,-177.64,-110.25,-349,-7887,-2925,-1,-1,0
85.63,-177.64,-110.25,-344,-7896,-2924,0,0,0
85.62,-177.64,-110.25,-347,-7909,-2928,0,0,-1
85.64,-177.64,-110.25,-346,-7906,-2921,0,0,-1
85.64,-177.64,-110.25,-349,-7893,-2917,0,0,0
85.62,-177.64,-110.25,-345,-7886,-2911,-1,0,-1
85.62,-177.65,-110.25,-342,-7894,-2909,-1,0,-1
85.62,-177.65,-110.26,-343,-7898,-2908,-1,0,-1
85.62,-177.66,-110.26,-340,-7904,-2929,-1,0,0
85.62,-177.66,-110.26,-338,-7896,-2925,0,-1,0
85.62,-177.66,-110.26,-345,-7889,-2926,0,-1,0
85.60,-177.65,-110.25,-344,-7883,-2917,0,-1,0
85.60,-177.65,-110.25,-347,-7890,-2911,-1,-1,-1
85.60,-177.65,-110.25,-345,-7904,-2906,-1,0,0
85.58,-177.65,-110.26,-346,-7902,-2915,-1,0,-1
85.58,-177.66,-110.26,-348,-7896,-2919,-1,0,-1
85.58,-177.66,-110.27,-349,-7890,-2923,0,0,-1
85.58,-177.66,-110.26,-344,-7886,-2916,0,0,-1
85.58,-177.66,-110.27,-344,-7889,-2923,-1,-1,0
85.58,-177.66,-110.26,-343,-7892,-2909,-1,-1,0
85.58,-177.66,-110.26,-351,-7893,-2914,-1,0,0
85.58,-177.66,-110.27,-352,-7896,-2924,-1,0,-1
85.58,-177.67,-110.27,-345,-7891,-2916,-1,0,-1
85.58,-177.67,-110.28,-341,-7889,-2927,-1,0,-1
85.58,-177.67,-110.28,-342,-7891,-2923,-1,0,0
85.58,-177.67,-110.28,-340,-7890,-2916,0,-1,0
85.58,-177.67,-110.28,-340,-7892,-2913,-1,-1,0
85.54,-177.67,-110.27,-340,-7890,-2916,0,0,0
85.56,-177.67,-110.28,-342,-7897,-2924,-1,0,0
85.56,-177.67,-110.28,-342,-7895,-2927,-1,-1,0
85.56,-177.67,-110.28,-340,-7900,-2923,0,0,-1
85.54,-177.68,-110.28,-346,-7899,-2916,-1,0,-1
85.54,-177.68,-110.28,-341,-7894,-2912,-1,-1,-1
85.54,-177.68,-110.28,-334,-7895,-2910,-1,-1,-1
85.54,-177.68,-110.28,-340,-7903,-2924,-1,-1,-1
85.54,-177.68,-110.28,-335,-7897,-2922,0,-1,0
85.54,-177.68,-110.28,-343,-7897,-2915,0,-1,0
85.54,-177.68,-110.28,-341,-7894,-2906,-1,-1,0
85.54,-177.68,-110.28,-340,-7893,-2919,-1,-1,-1
85.54,-177.68,-110.28,-340,-7894,-2924,-1,-1,0
85.54,-177.68,-110.28,-337,-7897,-2925,-1,0,0
85.54,-177.68,-110.28,-343,-7897,-2919,0,-1,0
85.56,-177.67,-110.28,-346,-7893,-2921,-1,-1,0
85.54,-177.68,-110.28,-342,-7888,-2910,-1,-1,0
85.56,-177.67,-110.28,-339,-7891,-2912,-1,0,0
85.54,-177.68,-110.28,-344,-7899,-2920,-1,0,-1
85.54,-177.68,-110.28,-349,-7907,-2924,0,-1,0
85.54,-177.67,-110.27,-348,-7902,-2925,0,0,0
85.54,-177.67,-110.27,-350,-7892,-2913,0,-1,0
85.56,-177.67,-110.28,-348,-7884,-2924,-1,-1,0
85.56,-177.67,-110.28,-344,-7893,-2914,-1,-1,0
85.53,-177.67,-110.29,-346,-7892,-2925,-1,0,-1
85.55,-177.66,-110.29,-351,-7897,-2922,-1,0,0
85.53,-177.67,-110.29,-346,-7897,-2919,0,-1,-1
85.56,-177.67,-110.28,-339,-7887,-2911,0,-1,0
85.56,-177.67,-110.28,-337,-7887,-2905,-1,-1,0
85.56,-177.67,-110.28,-338,-7892,-2920,-1,-1,0
85.56,-177.67,-110.28,-344,-7895,-2923,0,-1,0
85.56,-177.67,-110.28,-349,-7896,-2927,0,-1,0
85.54,-177.67,-110.27,-341,-7896,-2918,0,0,0
85.54,-177.66,-110.27,-344,-7885,-2902,0,-1,0
85.56,-177.66,-110.27,-350,-7887,-2902,-1,-1,0
85.57,-177.66,-110.28,-348,-7909,-2935,-1,0,-1
85.56,-177.67,-110.28,-337,-7906,-2949,0,0,-1
85.55,-177.68,-110.27,-333,-7897,-2930,0,0,-1
85.55,-177.68,-110.25,-331,-7885,-2897,0,-1,0
85.54,-177.66,-110.25,-337,-7869,-2888,-1,-1,0
85.56,-177.66,-110.27,-353,-7874,-2904,-1,-1,0
85.57,-177.66,-110.29,-355,-7899,-2925,-1,0,-1
85.57,-177.67,-110.30,-346,-7921,-2943,0,0,-1
85.55,-177.66,-110.29,-340,-7928,-2950,0,-1,0
85.54,-177.66,-110.27,-338,-7915,-2938,0,-1,0
85.54,-177.66,-110.25,-340,-7881,-2896,0,-1,0
85.54,-177.66,-110.25,-348,-7868,-2882,-1,0,0
85.54,-177.66,-110.26,-349,-7880,-2903,-1,0,0
85.56,-177.66,-110.27,-345,-7901,-2931,-1,0,-1
85.56,-177.66,-110.28,-332,-7903,-2939,0,0,0
85.54,-177.67,-110.27,-333,-7905,-2942,0,-1,0
85.52,-177.67,-110.26,-338,-7893,-2923,0,-1,0
85.52,-177.66,-110.26,-345,-7886,-2898,-1,-1,0
85.54,-177.66,-110.26,-348,-7889,-2905,-1,-1,-1
85.54,-177.66,-110.27,-338,-7894,-2920,-1,-1,-1
85.54,-177.66,-110.27,-337,-7898,-2932,0,-1,0
85.56,-177.66,-110.26,-341,-7900,-2925,0,-1,0
85.54,-177.65,-110.24,-344,-7894,-2908,0,-1,0
85.56,-177.65,-110.25,-346,-7884,-2902,-1,-1,-1
85.54,-177.65,-110.26,-347,-7887,-2906,-1,0,-1
85.55,-177.65,-110.27,-346,-7897,-2923,-1,0,-1
85.55,-177.65,-110.27,-347,-7900,-2930,0,-1,0
85.54,-177.66,-110.26,-349,-7899,-2924,0,-1,0
85.56,-177.65,-110.25,-338,-7895,-2911,0,-1,0
85.54,-177.66,-110.25,-344,-7894,-2900,-1,-1,0
85.54,-177.66,-110.25,-346,-7897,-2906,-1,-1,-1
85.54,-177.66,-110.25,-341,-7899,-2924,0,0,-1
85.56,-177.65,-110.25,-348,-7896,-2923,0,-1,0
85.54,-177.66,-110.25,-340,-7895,-2916,0,-1,0
85.54,-177.65,-110.25,-347,-7888,-2917,-1,0,0
85.54,-177.65,-110.25,-352,-7888,-2923,-1,-1,0
85.55,-177.65,-110.26,-352,-7893,-2923,-1,0,0
85.54,-177.65,-110.25,-348,-7902,-2927,0,0,0
85.54,-177.65,-110.25,-345,-7906,-2909,0,-1,0
85.54,-177.65,-110.24,-344,-7897,-2907,0,-1,0
85.56,-177.64,-110.24,-345,-7895,-2919,-1,-1,0
85.54,-177.65,-110.25,-347,-7891,-2920,-1,-1,-1
85.54,-177.65,-110.25,-348,-7898,-2929,-1,0,-1
85.54,-177.65,-110.25,-344,-7897,-2921,-1,-1,-1
85.54,-177.65,-110.25,-344,-7889,-2925,-1,-1,0
85.55,-177.65,-110.26,-344,-7882,-2915,-1,-1,0
85.55,-177.65,-110.26,-349,-7892,-2919,0,-1,0
85.55,-177.64,-110.25,-351,-7895,-2925,0,-1,0
85.55,-177.64,-110.25,-347,-7896,-2927,0,-1,-1
85.55,-177.64,-110.25,-343,-7899,-2918,0,-1,0
85.55,-177.64,-110.25,-351,-7893,-2914,0,-1,0
85.55,-177.64,-110.25,-350,-7884,-2906,-1,-1,-1
85.55,-177.64,-110.25,-348,-7885,-2913,-1,-1,0
85.55,-177.64,-110.25,-347,-7892,-2923,0,-1,0
85.55,-177.64,-110.25,-340,-7896,-2924,-1,-1,0
85.55,-177.64,-110.25,-346,-7897,-2912,-1,-1,0
85.57,-177.63,-110.25,-355,-7893,-2920,-1,-1,0
85.57,-177.63,-110.25,-360,-7895,-2917,-1,0,-1
85.57,-177.63,-110.25,-357,-7895,-2918,-1,-1,-1
85.57,-177.63,-110.25,-358,-7899,-2915,-1,-1,0
85.54,-177.63,-110.25,-356,-7896,-2923,-1,-1,0
85.54,-177.63,-110.25,-351,-7894,-2928,0,-1,0
85.57,-177.63,-110.25,-352,-7883,-2911,0,-1,0
85.54,-177.62,-110.25,-354,-7897,-2919,-1,-1,0
85.56,-177.62,-110.25,-347,-7901,-2933,-1,0,-1
85.57,-177.63,-110.25,-344,-7901,-2924,0,0,-1
85.55,-177.63,-110.24,-346,-7899,-2927,0,-1,0
85.57,-177.63,-110.23,-338,-7892,-2906,0,-1,0
85.57,-177.62,-110.23,-339,-7878,-2894,-1,-1,0
85.57,-177.62,-110.23,-346,-7880,-2891,-1,-1,0
85.57,-177.62,-110.24,-355,-7893,-2915,-1,0,-1
85.57,-177.62,-110.24,-355,-7911,-2919,-1,0,0
85.57,-177.62,-110.24,-350,-7912,-2923,0,-1,-1
85.57,-177.62,-110.23,-344,-7897,-2923,0,-1,0
85.57,-177.62,-110.23,-344,-7879,-2909,0,-1,0
85.57,-177.62,-110.23,-348,-7874,-2911,-1,-1,0
85.56,-177.62,-110.24,-353,-7887,-2902,-1,-1,0
85.56,-177.62,-110.24,-350,-7903,-2913,-1,0,0
85.56,-177.62,-110.24,-347,-7908,-2922,-1,0,-1
85.56,-177.62,-110.24,-353,-7898,-2924,0,0,-1
85.55,-177.62,-110.24,-348,-7893,-2912,0,0,0
85.55,-177.62,-110.24,-344,-7886,-2905,-1,0,0
85.55,-177.62,-110.24,-338,-7883,-2908,-1,-1,0
85.56,-177.62,-110.24,-342,-7900,-2914,0,-1,0
85.56,-177.61,-110.23,-350,-7897,-2915,0,-1,0
85.56,-177.61,-110.23,-350,-7901,-2924,0,-1,0
85.56,-177.61,-110.23,-351,-7891,-2918,-1,-1,0
85.56,-177.61,-110.23,-353,-7883,-2922,-1,-1,-1
85.58,-177.61,-110.24,-356,-7882,-2920,-1,0,0
85.58,-177.61,-110.24,-351,-7893,-2910,-1,0,-1
85.56,-177.61,-110.24,-350,-7900,-2931,-1,-1,0
85.56,-177.61,-110.24,-353,-7895,-2928,0,0,-1
85.58,-177.61,-110.24,-345,-7887,-2918,0,-1,0
85.56,-177.61,-110.23,-351,-7884,-2921,0,0,0
85.56,-177.61,-110.23,-356,-7883,-2919,0,0,0
85.56,-177.61,-110.23,-357,-7896,-2913,0,0,0
85.56,-177.61,-110.23,-350,-7901,-2910,-1,0,0
85.55,-177.62,-110.23,-346,-7896,-2908,-1,0,-1
85.55,-177.62,-110.23,-348,-7891,-2905,-1,0,-1
85.55,-177.62,-110.23,-346,-7892,-2901,-1,0,0
85.55,-177.62,-110.23,-342,-7889,-2900,0,0,-1
85.55,-177.62,-110.23,-346,-7893,-2906,-1,0,0
85.55,-177.62,-110.23,-351,-7899,-2909,0,-1,0
85.55,-177.62,-110.23,-355,-7896,-2917,0,-1,0
85.55,-177.61,-110.22,-357,-7890,-2923,0,-1,-1
85.55,-177.61,-110.22,-351,-7892,-2908,-1,0,0
85.55,-177.61,-110.23,-344,-7893,-2907,-1,0,-1
85.55,-177.62,-110.23,-347,-7900,-2917,-1,-1,0
85.56,-177.61,-110.23,-343,-7891,-2923,-1,-1,0
85.54,-177.61,-110.23,-350,-7880,-2919,0,-1,0
85.54,-177.61,-110.24,-352,-7880,-2929,0,0,-1
85.54,-177.61,-110.24,-347,-7882,-2924,0,-1,-1
85.52,-177.61,-110.23,-346,-7888,-2914,-1,0,-1
85.52,-177.62,-110.24,-348,-7898,-2920,-1,0,-1
85.52,-177.62,-110.24,-350,-7895,-2917,0,0,-1
85.52,-177.62,-110.24,-347,-7887,-2919,-1,0,-1
85.52,-177.62,-110.24,-341,-7881,-2916,-1,-1,-1
85.53,-177.63,-110.24,-347,-7889,-2920,-1,-1,-1
85.53,-177.63,-110.24,-352,-7890,-2918,-1,-1,0
85.54,-177.63,-110.25,-353,-7895,-2919,-1,0,-1
85.54,-177.63,-110.25,-352,-7900,-2917,-1,0,0
85.53,-177.63,-110.25,-349,-7898,-2920,0,0,-1
85.53,-177.63,-110.25,-345,-7899,-2926,0,-1,0
85.53,-177.63,-110.25,-355,-7894,-2925,0,-1,0
85.53,-177.63,-110.25,-353,-7886,-2916,-1,-1,0
85.53,-177.63,-110.25,-348,-7890,-2926,0,0,-1
85.53,-177.63,-110.25,-353,-7888,-2912,-1,0,0
85.52,-177.62,-110.25,-353,-7889,-2924,0,-1,0
85.52,-177.62,-110.25,-357,-7892,-2924,0,0,-1
85.50,-177.63,-110.25,-349,-7887,-2910,-1,0,-1
85.50,-177.63,-110.25,-345,-7890,-2912,-1,0,0
85.50,-177.63,-110.25,-346,-7891,-2918,-1,-1,0
85.50,-177.63,-110.25,-344,-7897,-2918,0,-1,0
85.50,-177.63,-110.25,-345,-7891,-2916,0,-1,0
85.50,-177.63,-110.25,-348,-7894,-2925,-1,-1,-1
85.50,-177.63,-110.25,-346,-7895,-2931,-1,-1,-1
85.52,-177.63,-110.26,-348,-7888,-2933,-1,0,-1
85.52,-177.63,-110.26,-351,-7881,-2935,-1,0,-1
85.52,-177.63,-110.27,-349,-7880,-2927,-1,0,-1
85.52,-177.63,-110.27,-350,-7878,-2928,-1,0,0
85.50,-177.64,-110.27,-342,-7883,-2928,-1,0,0
85.50,-177.64,-110.27,-346,-7881,-2933,0,0,0
85.50,-177.63,-110.27,-349,-7885,-2927,0,-1,0
85.50,-177.63,-110.27,-350,-7889,-2916,0,0,0
85.48,-177.63,-110.26,-355,-7889,-2905,-1,0,0
85.48,-177.63,-110.26,-355,-7888,-2901,-1,0,-1
85.50,-177.63,-110.27,-347,-7886,-2909,-1,0,-1
85.50,-177.64,-110.27,-342,-7893,-2916,-1,0,-1
85.50,-177.64,-110.28,-343,-7896,-2922,0,0,0
85.48,-177.64,-110.27,-336,-7892,-2914,0,-1,0
85.48,-177.64,-110.27,-339,-7891,-2899,-1,-1,0
85.48,-177.64,-110.27,-346,-7894,-2912,-1,-1,-1
85.48,-177.64,-110.27,-351,-7889,-2914,-1,0,-1
85.48,-177.64,-110.27,-340,-7882,-2912,0,0,0
85.47,-177.65,-110.27,-338,-7885,-2925,0,0,-1
85.47,-177.65,-110.27,-344,-7881,-2917,-1,0,0
85.44,-177.65,-110.27,-352,-7886,-2921,-1,0,0
85.46,-177.64,-110.28,-350,-7883,-2926,0,0,0
85.46,-177.64,-110.28,-352,-7887,-2931,0,0,-1
85.44,-177.65,-110.27,-348,-7890,-2920,-1,0,-1
85.44,-177.65,-110.27,-343,-7892,-2917,-1,0,-1
85.44,-177.65,-110.28,-338,-7895,-2923,-1,-1,-1
85.44,-177.65,-110.28,-333,-7891,-2922,0,-1,0
85.43,-177.65,-110.27,-339,-7884,-2914,0,-1,0
85.43,-177.65,-110.27,-343,-7892,-2912,-1,0,-1
85.45,-177.66,-110.27,-344,-7899,-2905,-1,0,0
85.43,-177.65,-110.27,-347,-7899,-2922,-1,0,0
85.43,-177.65,-110.27,-345,-7901,-2915,0,0,-1
85.41,-177.66,-110.27,-348,-7900,-2908,0,0,-1
85.43,-177.66,-110.27,-341,-7898,-2915,-1,-1,-1
85.41,-177.66,-110.27,-339,-7893,-2920,-1,0,0
85.41,-177.66,-110.27,-342,-7891,-2916,-1,0,-1
85.43,-177.66,-110.28,-341,-7893,-2921,-1,0,-1
85.41,-177.67,-110.28,-339,-7894,-2922,0,0,-1
85.41,-177.67,-110.28,-335,-7896,-2923,0,-1,0
85.42,-177.67,-110.27,-337,-7884,-2908,0,-1,0
85.43,-177.66,-110.27,-337,-7876,-2905,-1,-1,0
85.41,-177.66,-110.27,-348,-7891,-2913,-1,0,0
85.43,-177.66,-110.28,-348,-7899,-2928,-1,0,-1
85.43,-177.67,-110.28,-348,-7904,-2930,0,-1,-1
85.41,-177.67,-110.28,-338,-7891,-2912,0,0,0
85.41,-177.66,-110.27,-340,-7886,-2918,0,-1,0
85.41,-177.66,-110.27,-340,-7883,-2910,-1,-1,0
85.41,-177.66,-110.27,-339,-7889,-2917,-1,-1,0
85.41,-177.66,-110.27,-348,-7897,-2925,-1,0,0
85.40,-177.66,-110.28,-347,-7903,-2936,-1,0,0
85.40,-177.66,-110.28,-347,-7896,-2942,0,-1,-1
85.40,-177.66,-110.28,-355,-7884,-2934,-1,-1,-1
85.40,-177.66,-110.28,-346,-7882,-2925,-1,0,-1
85.40,-177.66,-110.28,-341,-7881,-2924,-1,-1,0
85.42,-177.66,-110.29,-337,-7883,-2924,-1,-1,0
85.42,-177.66,-110.29,-342,-7884,-2925,-1,-1,0
85.42,-177.65,-110.28,-344,-7879,-2930,0,-1,0
85.42,-177.65,-110.28,-338,-7879,-2922,0,-1,0
85.40,-177.65,-110.28,-341,-7891,-2919,0,-1,0
85.40,-177.65,-110.28,-340,-7895,-2921,0,-1,0
85.43,-177.65,-110.27,-339,-7897,-2916,0,-1,0
85.43,-177.65,-110.27,-338,-7895,-2922,-1,-1,-1
85.43,-177.65,-110.27,-339,-7892,-2920,-1,-1,0
85.43,-177.65,-110.27,-338,-7893,-2920,0,-1,0
85.43,-177.65,-110.27,-342,-7895,-2927,0,-1,0
85.43,-177.65,-110.27,-342,-7895,-2917,-1,-1,0
85.40,-177.65,-110.28,-340,-7891,-2930,-1,-1,0
85.42,-177.65,-110.28,-344,-7890,-2925,-1,-1,-1
85.42,-177.65,-110.28,-345,-7885,-2925,-1,-1,-1
85.42,-177.65,-110.29,-342,-7892,-2941,-1,-1,-1
85.42,-177.65,-110.29,-336,-7886,-2933,0,-1,0
85.44,-177.65,-110.29,-341,-7888,-2938,0,-1,0
85.42,-177.65,-110.28,-337,-7882,-2931,0,-1,0
85.42,-177.65,-110.28,-346,-7886,-2923,0,0,0
85.42,-177.65,-110.28,-348,-7888,-2918,0,0,0
85.42,-177.65,-110.28,-349,-7893,-2921,-1,-1,0
85.40,-177.65,-110.29,-347,-7894,-2923,-1,-1,0
85.42,-177.64,-110.29,-347,-7896,-2924,-1,0,-1
85.42,-177.64,-110.29,-347,-7888,-2928,0,-1,0
85.42,-177.65,-110.28,-346,-7895,-2916,0,-1,0
85.42,-177.64,-110.28,-341,-7890,-2910,0,-1,0
85.42,-177.64,-110.27,-347,-7883,-2917,0,-1,0
85.42,-177.64,-110.27,-343,-7886,-2922,-1,-1,0
85.44,-177.64,-110.28,-346,-7890,-2928,-1,-1,0
85.41,-177.64,-110.29,-346,-7900,-2933,-1,0,-1
85.42,-177.64,-110.29,-341,-7893,-2935,0,0,-1
85.42,-177.64,-110.29,-336,-7882,-2926,-1,-1,0
85.43,-177.64,-110.30,-344,-7888,-2932,-1,-1,0
85.43,-177.64,-110.30,-348,-7908,-2938,0,0,-1
85.41,-177.64,-110.29,-351,-7908,-2926,0,0,-1
85.42,-177.65,-110.28,-345,-7897,-2922,0,-1,0
85.44,-177.64,-110.27,-341,-7885,-2908,0,-1,0
85.42,-177.64,-110.26,-343,-7876,-2884,-1,-1,0
85.44,-177.63,-110.27,-352,-7895,-2903,-1,-1,0
85.43,-177.63,-110.29,-355,-7903,-2928,-1,0,-1
85.43,-177.64,-110.30,-350,-7895,-2938,0,0,-1
85.42,-177.64,-110.29,-340,-7881,-2922,0,-1,0
85.43,-177.64,-110.29,-346,-7881,-2931,0,-1,0
85.43,-177.64,-110.29,-348,-7878,-2936,0,-1,0
85.43,-177.63,-110.28,-348,-7875,-2925,0,-1,-1
85.44,-177.63,-110.27,-346,-7879,-2921,0,-1,0
85.43,-177.63,-110.27,-347,-7893,-2911,-1,-1,0
85.45,-177.63,-110.28,-355,-7897,-2915,-1,-1,0
85.45,-177.63,-110.29,-360,-7905,-2925,-1,0,-1
85.45,-177.64,-110.30,-351,-7897,-2934,-1,0,-1
85.43,-177.65,-110.30,-337,-7885,-2933,0,0,-1
85.44,-177.64,-110.28,-328,-7871,-2922,0,-1,0
85.42,-177.64,-110.27,-333,-7875,-2902,0,-1,0
85.43,-177.63,-110.27,-348,-7887,-2903,-1,-1,0
85.43,-177.63,-110.28,-362,-7915,-2916,-1,0,-1
85.43,-177.63,-110.29,-362,-7914,-2938,-1,0,-1
85.43,-177.64,-110.29,-342,-7907,-2932,0,0,-1
85.44,-177.64,-110.28,-333,-7888,-2921,0,-1,0
85.42,-177.64,-110.27,-330,-7875,-2899,0,-1,0
85.43,-177.63,-110.27,-345,-7879,-2896,-1,-1,0
85.45,-177.63,-110.28,-353,-7890,-2910,-1,-1,0
85.43,-177.63,-110.28,-360,-7911,-2932,-1,0,-1
85.43,-177.63,-110.28,-353,-7920,-2939,0,0,-1
85.44,-177.63,-110.27,-344,-7909,-2925,0,0,-1
85.44,-177.63,-110.27,-347,-7885,-2913,0,-1,0
85.44,-177.63,-110.27,-355,-7870,-2913,-1,-1,0
85.45,-177.63,-110.28,-353,-7871,-2917,-1,-1,0
85.45,-177.63,-110.28,-353,-7888,-2920,-1,-1,0
85.45,-177.63,-110.28,-351,-7903,-2930,0,-1,0
85.43,-177.63,-110.27,-355,-7906,-2925,0,-1,0
85.43,-177.63,-110.27,-347,-7901,-2925,0,-1,-1
85.46,-177.62,-110.26,-356,-7897,-2907,0,-1,0
85.43,-177.62,-110.26,-356,-7887,-2907,-1,-1,0
85.45,-177.62,-110.27,-355,-7893,-2910,-1,-1,-1
85.45,-177.62,-110.27,-350,-7894,-2920,-1,-1,0
85.45,-177.62,-110.27,-349,-7897,-2935,0,-1,0
85.45,-177.62,-110.27,-350,-7894,-2946,0,-1,0
85.45,-177.62,-110.27,-342,-7891,-2929,0,-1,0
85.46,-177.62,-110.26,-350,-7887,-2920,0,-1,0
85.46,-177.62,-110.26,-346,-7885,-2906,-1,-1,0
85.45,-177.62,-110.27,-350,-7892,-2918,-1,0,0
85.45,-177.62,-110.27,-350,-7896,-2937,-1,0,-1
85.47,-177.62,-110.28,-351,-7898,-2937,0,0,-1
85.45,-177.62,-110.27,-350,-7888,-2935,0,-1,0
85.45,-177.62,-110.27,-354,-7890,-2929,0,-1,0
85.45,-177.62,-110.27,-348,-7889,-2912,0,-1,0
85.45,-177.62,-110.27,-357,-7885,-2910,-1,-1,0
85.45,-177.62,-110.27,-355,-7891,-2911,-1,-1,0
85.47,-177.62,-110.28,-351,-7896,-2921,0,0,0
85.45,-177.62,-110.27,-351,-7899,-2915,0,-1,0
85.47,-177.62,-110.26,-350,-7900,-2905,0,-1,0
85.47,-177.62,-110.26,-352,-7895,-2909,-1,-1,-1
85.45,-177.62,-110.27,-350,-7888,-2911,-1,0,0
85.45,-177.62,-110.27,-354,-7895,-2919,-1,0,-1
85.45,-177.62,-110.27,-352,-7898,-2913,0,0,-1
85.45,-177.62,-110.27,-351,-7900,-2930,-1,-1,0
85.47,-177.62,-110.27,-348,-7894,-2922,0,-1,0
85.45,-177.62,-110.27,-349,-7886,-2917,-1,-1,0
85.45,-177.62,-110.27,-347,-7885,-2921,-1,0,0
85.45,-177.62,-110.27,-344,-7892,-2926,0,0,-1
85.45,-177.62,-110.27,-341,-7901,-2926,0,-1,0
85.45,-177.62,-110.27,-345,-7901,-2915,-1,-1,0
85.45,-177.62,-110.27,-349,-7898,-2913,-1,-1,0
85.45,-177.62,-110.27,-345,-7886,-2903,-1,-1,0
85.47,-177.62,-110.28,-346,-7881,-2919,-1,-1,0
85.47,-177.62,-110.28,-349,-7888,-2926,0,-1,-1
85.47,-177.62,-110.27,-339,-7896,-2920,0,-1,0
85.47,-177.62,-110.27,-356,-7898,-2924,-1,-1,0
85.46,-177.60,-110.27,-355,-7900,-2921,-1,-1,0
85.46,-177.60,-110.27,-361,-7893,-2912,-1,-1,-1
85.46,-177.60,-110.27,-362,-7890,-2919,-1,0,-1
85.46,-177.61,-110.28,-348,-7889,-2916,-1,0,0
85.46,-177.61,-110.28,-345,-7895,-2923,-1,-1,0
85.46,-177.61,-110.28,-348,-7894,-2918,-1,-1,0
85.48,-177.61,-110.28,-360,-7886,-2922,-1,-1,0
85.48,-177.60,-110.28,-363,-7883,-2911,-1,0,-1
85.46,-177.61,-110.28,-354,-7893,-2926,-1,0,-1
85.46,-177.61,-110.28,-345,-7884,-2919,0,-1,0
85.46,-177.61,-110.28,-346,-7890,-2919,0,-1,0
85.46,-177.61,-110.28,-348,-7890,-2917,-1,-1,0
85.46,-177.61,-110.28,-351,-7888,-2914,0,-1,0
85.46,-177.61,-110.28,-347,-7885,-2916,-1,0,-1
85.46,-177.61,-110.28,-346,-7899,-2917,-1,0,-1
85.44,-177.62,-110.28,-351,-7895,-2915,0,0,-1
85.44,-177.61,-110.28,-355,-7899,-2911,-1,-1,0
85.44,-177.62,-110.28,-352,-7898,-2926,-1,0,-1
85.44,-177.62,-110.28,-357,-7895,-2928,-1,0,-1
85.45,-177.62,-110.28,-359,-7894,-2927,0,0,-1
85.45,-177.62,-110.28,-355,-7894,-2933,0,0,-1
85.45,-177.62,-110.27,-352,-7888,-2925,0,0,-1
85.43,-177.63,-110.27,-347,-7881,-2904,-1,0,0
85.43,-177.63,-110.28,-349,-7885,-2916,-1,0,0
85.43,-177.63,-110.28,-351,-7894,-2914,-1,0,0
85.41,-177.63,-110.29,-355,-7903,-2932,-1,0,-1
85.41,-177.63,-110.29,-347,-7898,-2936,0,-1,0
85.43,-177.63,-110.28,-350,-7881,-2922,0,-1,0
85.41,-177.63,-110.28,-344,-7883,-2908,0,-1,0
85.41,-177.63,-110.28,-347,-7889,-2914,0,-1,0
85.41,-177.63,-110.28,-348,-7889,-2910,-1,0,-1
85.41,-177.63,-110.28,-345,-7893,-2935,-1,-1,0
85.41,-177.63,-110.28,-345,-7888,-2940,0,-1,0
85.41,-177.63,-110.28,-346,-7886,-2926,0,-1,0
85.41,-177.63,-110.27,-347,-7882,-2921,0,-1,0
85.41,-177.63,-110.27,-352,-7876,-2914,-1,-1,0
85.41,-177.63,-110.28,-357,-7881,-2914,-1,0,-1
85.43,-177.63,-110.29,-349,-7890,-2929,-1,0,-1
85.39,-177.63,-110.29,-348,-7899,-2932,0,0,-1
85.41,-177.64,-110.28,-348,-7891,-2921,0,0,0
85.41,-177.64,-110.28,-345,-7882,-2923,0,-1,0
85.39,-177.63,-110.28,-351,-7878,-2924,0,-1,0
85.39,-177.63,-110.28,-355,-7885,-2920,-1,0,-1
85.39,-177.63,-110.29,-356,-7894,-2919,0,0,-1
85.37,-177.64,-110.28,-350,-7894,-2921,0,-1,-1
85.37,-177.64,-110.28,-347,-7899,-2924,0,-1,0
85.37,-177.64,-110.28,-344,-7894,-2920,-1,-1,0
85.37,-177.64,-110.28,-343,-7890,-2906,-1,-1,0
85.37,-177.64,-110.28,-347,-7884,-2916,-1,0,0
85.37,-177.64,-110.28,-348,-7890,-2916,-1,-1,-1
85.37,-177.64,-110.28,-350,-7894,-2918,-1,-1,0
85.39,-177.64,-110.29,-348,-7899,-2926,0,0,0
85.39,-177.63,-110.28,-355,-7895,-2917,0,-1,0
85.37,-177.64,-110.28,-355,-7890,-2910,-1,0,0
85.37,-177.64,-110.28,-353,-7896,-2912,-1,0,-1
85.37,-177.64,-110.28,-357,-7904,-2921,-1,0,-1
85.37,-177.64,-110.28,-353,-7899,-2925,-1,0,-1
85.37,-177.64,-110.28,-344,-7890,-2922,0,0,0
85.36,-177.64,-110.28,-343,-7884,-2911,-1,0,0
85.36,-177.64,-110.28,-336,-7886,-2907,0,0,0
85.36,-177.65,-110.28,-347,-7899,-2916,-1,0,-1
85.36,-177.65,-110.28,-340,-7893,-2914,-1,0,-1
85.36,-177.65,-110.29,-341,-7897,-2910,0,0,-1
85.36,-177.65,-110.29,-342,-7894,-2915,0,0,-1
85.34,-177.66,-110.28,-345,-7892,-2916,0,0,-1
85.34,-177.66,-110.28,-346,-7893,-2921,-1,0,0
85.34,-177.66,-110.28,-348,-7891,-2922,0,0,0
85.34,-177.66,-110.28,-351,-7895,-2915,-1,0,0
85.34,-177.66,-110.28,-350,-7891,-2910,-1,0,0
85.32,-177.65,-110.29,-345,-7895,-2913,-1,0,-1
85.30,-177.66,-110.29,-346,-7894,-2918,-1,0,-1
85.30,-177.66,-110.29,-348,-7889,-2920,-1,0,-1
85.30,-177.66,-110.29,-352,-7893,-2914,-1,0,0
85.30,-177.66,-110.29,-354,-7895,-2908,-1,0,-1
85.32,-177.66,-110.30,-351,-7891,-2911,-1,0,0
85.31,-177.66,-110.31,-351,-7895,-2925,-1,0,-1
85.31,-177.66,-110.31,-348,-7896,-2936,0,0,-1
85.30,-177.67,-110.31,-333,-7895,-2929,0,-1,-1
85.30,-177.67,-110.29,-331,-7885,-2914,0,-1,0
85.30,-177.65,-110.29,-346,-7883,-2907,-1,-1,0
85.31,-177.65,-110.31,-361,-7902,-2926,-1,-1,0
85.33,-177.65,-110.32,-350,-7913,-2950,-1,0,-1
85.32,-177.67,-110.32,-346,-7913,-2951,0,0,-1
85.33,-177.67,-110.29,-330,-7886,-2928,0,-1,0
85.31,-177.66,-110.27,-335,-7860,-2888,0,-1,0
85.32,-177.65,-110.27,-349,-7872,-2882,-1,-1,0
85.34,-177.65,-110.29,-365,-7900,-2906,-1,0,-1
85.33,-177.66,-110.31,-358,-7920,-2933,-1,0,-1
85.33,-177.67,-110.32,-349,-7911,-2949,-1,0,-1
85.32,-177.67,-110.32,-333,-7884,-2946,0,-1,0
85.32,-177.67,-110.30,-332,-7859,-2918,0,-1,0
85.34,-177.66,-110.30,-333,-7861,-2911,0,-1,0
85.31,-177.66,-110.31,-342,-7882,-2915,-1,-1,0
85.33,-177.65,-110.31,-352,-7911,-2934,-1,-1,-1
85.35,-177.66,-110.32,-355,-7925,-2956,-1,-1,-1
85.33,-177.66,-110.32,-350,-7917,-2954,0,0,-1
85.34,-177.67,-110.30,-341,-7877,-2916,0,-1,-1
85.33,-177.67,-110.29,-334,-7857,-2892,0,-1,0
85.32,-177.66,-110.28,-340,-7858,-2892,-1,-1,0
85.34,-177.66,-110.30,-347,-7882,-2910,-1,-1,0
85.33,-177.66,-110.31,-355,-7916,-2933,-1,0,-1
85.35,-177.66,-110.32,-351,-7929,-2951,-1,0,-1
85.36,-177.66,-110.31,-345,-7915,-2942,0,-1,-1
85.34,-177.66,-110.31,-346,-7885,-2927,0,-1,0
85.34,-177.66,-110.30,-348,-7871,-2920,0,-1,0
85.34,-177.66,-110.30,-345,-7870,-2899,-1,-1,0
85.35,-177.65,-110.30,-351,-7896,-2922,-1,-1,0
85.35,-177.65,-110.30,-349,-7918,-2939,-1,0,0
85.34,-177.66,-110.30,-352,-7927,-2927,0,0,-1
85.34,-177.66,-110.30,-347,-7907,-2927,-1,0,-1
85.35,-177.66,-110.31,-342,-7880,-2913,-1,-1,0
85.35,-177.65,-110.32,-341,-7873,-2920,-1,-1,0
85.35,-177.66,-110.32,-344,-7879,-2927,-1,-1,0
85.37,-177.65,-110.32,-352,-7894,-2944,0,-1,0
85.36,-177.64,-110.32,-349,-7911,-2952,0,-1,0
85.37,-177.64,-110.30,-342,-7912,-2937,0,-1,0
85.37,-177.64,-110.29,-341,-7898,-2919,0,-1,0
85.36,-177.64,-110.28,-343,-7895,-2910,0,-1,0
85.37,-177.64,-110.28,-349,-7889,-2912,-1,0,-1
85.38,-177.65,-110.29,-353,-7891,-2918,-1,0,-1
85.37,-177.64,-110.30,-348,-7901,-2921,-1,-1,-1
85.35,-177.65,-110.30,-344,-7891,-2909,0,0,-1
85.38,-177.65,-110.30,-342,-7877,-2912,0,-1,0
85.35,-177.64,-110.29,-343,-7874,-2910,-1,-1,0
85.37,-177.64,-110.30,-353,-7891,-2928,-1,-1,0
85.37,-177.64,-110.30,-357,-7903,-2945,0,0,-1
85.38,-177.65,-110.29,-352,-7910,-2936,0,-1,-1
85.36,-177.64,-110.28,-351,-7902,-2931,0,0,-1
85.36,-177.64,-110.27,-342,-7886,-2898,0,-1,0
85.38,-177.64,-110.27,-352,-7879,-2889,-1,-1,0
85.38,-177.64,-110.27,-344,-7878,-2894,-1,0,-1
85.37,-177.64,-110.28,-347,-7885,-2908,-1,0,-1
85.35,-177.64,-110.29,-339,-7900,-2932,-1,0,0
85.38,-177.65,-110.29,-340,-7914,-2934,0,-1,0
85.36,-177.64,-110.28,-344,-7905,-2927,0,-1,0
85.38,-177.64,-110.27,-350,-7890,-2905,0,-1,0
85.38,-177.64,-110.27,-355,-7883,-2894,-1,-1,0
85.37,-177.63,-110.27,-361,-7894,-2904,-1,0,-1
85.37,-177.64,-110.28,-353,-7890,-2915,-1,0,-1
85.37,-177.64,-110.28,-351,-7896,-2922,0,-1,-1
85.37,-177.64,-110.28,-352,-7897,-2918,0,-1,0
85.38,-177.64,-110.27,-346,-7895,-2913,0,-1,-1
85.38,-177.64,-110.27,-345,-7889,-2909,0,-1,0
85.38,-177.63,-110.26,-351,-7888,-2905,0,-1,0
85.40,-177.63,-110.26,-349,-7892,-2911,-1,-1,0
85.38,-177.63,-110.26,-353,-7886,-2913,-1,-1,0
85.40,-177.63,-110.27,-346,-7887,-2925,-1,-1,0
85.39,-177.63,-110.29,-342,-7890,-2940,-1,-1,-1
85.39,-177.64,-110.29,-348,-7893,-2946,0,0,0
85.39,-177.63,-110.28,-350,-7890,-2944,0,-1,0
85.37,-177.63,-110.27,-351,-7891,-2921,0,-1,0
85.37,-177.63,-110.27,-363,-7894,-2916,-1,-1,0
85.39,-177.62,-110.28,-359,-7899,-2912,-1,0,-1
85.39,-177.63,-110.28,-356,-7901,-2923,-1,0,-1
85.39,-177.64,-110.29,-349,-7902,-2925,-1,0,-1
85.37,-177.64,-110.28,-346,-7888,-2915,0,-1,0
85.40,-177.63,-110.27,-347,-7882,-2910,0,-1,0
85.39,-177.63,-110.27,-352,-7890,-2909,0,-1,0
85.41,-177.62,-110.27,-360,-7899,-2918,-1,-1,0
85.39,-177.62,-110.27,-365,-7902,-2921,-1,-1,-1
85.39,-177.62,-110.28,-360,-7900,-2925,0,-1,-1
85.39,-177.62,-110.27,-359,-7890,-2911,0,-1,-1
85.41,-177.62,-110.27,-351,-7874,-2906,0,-1,0
85.41,-177.62,-110.27,-347,-7877,-2916,-1,-1,0
85.40,-177.62,-110.28,-350,-7894,-2926,-1,-1,0
85.40,-177.62,-110.28,-352,-7906,-2924,0,-1,-1
85.41,-177.62,-110.27,-356,-7914,-2934,0,0,-1
85.41,-177.62,-110.27,-351,-7902,-2927,0,-1,0
85.39,-177.62,-110.26,-342,-7884,-2899,0,-1,0
85.42,-177.62,-110.26,-337,-7879,-2906,0,-1,0
85.41,-177.62,-110.25,-338,-7879,-2898,0,-1,0
85.41,-177.62,-110.25,-344,-7896,-2895,0,-1,0
85.41,-177.62,-110.25,-351,-7909,-2909,-1,-1,0
85.41,-177.62,-110.25,-353,-7908,-2918,-1,-1,-1
85.42,-177.62,-110.26,-352,-7895,-2931,0,0,-1
85.41,-177.62,-110.25,-350,-7888,-2920,0,0,-1
85.42,-177.62,-110.24,-342,-7881,-2908,0,-1,0
85.42,-177.62,-110.24,-347,-7888,-2902,-1,-1,0
85.41,-177.62,-110.25,-349,-7893,-2913,-1,-1,0
85.41,-177.62,-110.25,-357,-7897,-2916,-1,0,-1
85.41,-177.62,-110.25,-357,-7903,-2923,-1,0,-1
85.41,-177.62,-110.25,-358,-7905,-2922,0,0,-1
85.40,-177.62,-110.24,-354,-7892,-2919,0,0,-1
85.42,-177.62,-110.24,-350,-7884,-2910,0,-1,0
85.40,-177.62,-110.24,-352,-7888,-2919,-1,0,0
85.41,-177.62,-110.25,-346,-7881,-2915,-1,-1,-1
85.40,-177.62,-110.25,-348,-7888,-2918,-1,0,0
85.40,-177.62,-110.25,-348,-7899,-2918,0,-1,0
85.40,-177.62,-110.25,-346,-7898,-2927,0,-1,0
85.41,-177.62,-110.25,-351,-7894,-2928,0,-1,0
85.41,-177.62,-110.25,-351,-7886,-2924,0,0,0
85.41,-177.62,-110.25,-352,-7890,-2919,-1,-1,-1
85.42,-177.62,-110.26,-348,-7891,-2917,-1,-1,-1
85.42,-177.62,-110.26,-346,-7893,-2928,0,-1,-1
85.42,-177.62,-110.26,-350,-7893,-2929,0,0,0
85.41,-177.62,-110.25,-352,-7884,-2911,0,0,0
85.40,-177.62,-110.25,-352,-7890,-2904,0,0,-1
85.40,-177.62,-110.25,-345,-7879,-2902,-1,0,0
85.40,-177.62,-110.25,-349,-7885,-2898,-1,-1,0
85.39,-177.62,-110.26,-364,-7896,-2920,-1,-1,0
85.41,-177.62,-110.27,-359,-7907,-2945,0,0,-1
85.39,-177.63,-110.27,-353,-7898,-2945,0,0,-1
85.38,-177.63,-110.25,-343,-7886,-2921,0,-1,0
85.39,-177.63,-110.23,-346,-7872,-2885,0,-1,0
85.38,-177.62,-110.23,-357,-7878,-2886,-1,-1,0
85.37,-177.62,-110.25,-360,-7896,-2903,-1,0,-1
85.39,-177.62,-110.27,-360,-7906,-2924,-1,0,-1
85.37,-177.63,-110.27,-344,-7902,-2941,0,0,-1
85.39,-177.63,-110.27,-344,-7895,-2943,0,-1,0
85.40,-177.62,-110.25,-343,-7881,-2919,0,-1,0
85.38,-177.62,-110.24,-354,-7880,-2893,0,-1,0
85.38,-177.62,-110.23,-354,-7893,-2890,-1,0,-1
85.38,-177.62,-110.24,-350,-7910,-2894,-1,0,-1
85.40,-177.62,-110.25,-349,-7907,-2911,-1,0,-1
85.40,-177.63,-110.25,-343,-7899,-2924,-1,0,-1
85.40,-177.63,-110.25,-345,-7888,-2923,0,0,-1
85.38,-177.63,-110.25,-343,-7888,-2914,0,-1,0
85.38,-177.63,-110.25,-342,-7884,-2916,0,-1,0
85.38,-177.63,-110.25,-341,-7891,-2902,-1,0,0
85.38,-177.63,-110.25,-348,-7898,-2914,-1,-1,0
85.38,-177.63,-110.25,-342,-7904,-2917,-1,-1,0
85.38,-177.63,-110.25,-340,-7904,-2912,0,-1,-1
85.37,-177.64,-110.24,-347,-7894,-2912,0,-1,0
85.38,-177.63,-110.25,-346,-7885,-2908,-1,-1,0
85.38,-177.63,-110.25,-353,-7884,-2916,-1,0,0
85.38,-177.64,-110.25,-349,-7886,-2910,-1,0,-1
85.36,-177.63,-110.26,-352,-7896,-2925,-1,0,-1
85.38,-177.64,-110.27,-351,-7896,-2932,0,0,-1
85.36,-177.64,-110.26,-346,-7892,-2924,0,-1,-1
85.38,-177.64,-110.25,-348,-7886,-2906,0,-1,0
85.36,-177.63,-110.26,-352,-7886,-2910,0,0,0
85.36,-177.63,-110.25,-355,-7884,-2894,-1,0,0
85.36,-177.63,-110.26,-354,-7895,-2912,-1,-1,0
85.36,-177.63,-110.26,-359,-7904,-2916,-1,0,-1
85.36,-177.63,-110.26,-355,-7895,-2913,0,0,-1
85.36,-177.63,-110.26,-344,-7894,-2921,0,0,-1
85.34,-177.63,-110.25,-348,-7887,-2911,0,0,0
85.34,-177.63,-110.25,-350,-7889,-2911,-1,-1,0
85.36,-177.63,-110.25,-352,-7897,-2913,-1,-1,0
85.36,-177.63,-110.25,-352,-7896,-2920,-1,-1,0
85.38,-177.63,-110.26,-357,-7901,-2920,-1,0,-1
85.35,-177.63,-110.26,-352,-7900,-2922,-1,0,-1
85.38,-177.63,-110.26,-350,-7895,-2930,0,-1,0
85.35,-177.63,-110.27,-349,-7894,-2923,-1,-1,0
85.35,-177.63,-110.27,-348,-7896,-2919,-1,0,0
85.34,-177.63,-110.26,-348,-7895,-2913,0,0,0
85.36,-177.64,-110.26,-344,-7894,-2910,0,-1,0
85.36,-177.64,-110.26,-350,-7901,-2927,-1,0,0
85.34,-177.63,-110.26,-349,-7893,-2923,-1,0,-1
85.34,-177.63,-110.26,-348,-7895,-2909,-1,0,-1
85.36,-177.64,-110.26,-346,-7893,-2911,-1,-1,0
85.34,-177.64,-110.27,-344,-7891,-2914,-1,0,-1
85.34,-177.64,-110.27,-341,-7891,-2915,-1,-1,0
85.34,-177.64,-110.27,-339,-7906,-2920,-1,0,-1
85.34,-177.65,-110.27,-337,-7898,-2925,-1,0,0
85.34,-177.65,-110.27,-340,-7891,-2924,-1,-1,0
85.34,-177.65,-110.27,-349,-7886,-2929,-1,0,0
85.34,-177.65,-110.28,-348,-7894,-2927,-1,0,-1
85.34,-177.65,-110.28,-353,-7896,-2924,0,0,-1
85.34,-177.65,-110.28,-348,-7891,-2920,0,0,-1
85.34,-177.65,-110.28,-343,-7892,-2919,0,-1,0
85.34,-177.65,-110.28,-341,-7888,-2914,-1,-1,0
85.34,-177.65,-110.27,-339,-7885,-2900,0,0,0
85.32,-177.64,-110.27,-354,-7894,-2909,-1,0,0
85.32,-177.65,-110.28,-348,-7897,-2905,-1,0,-1
85.32,-177.65,-110.28,-344,-7891,-2914,-1,0,-1
85.31,-177.65,-110.30,-344,-7897,-2932,-1,0,0
85.32,-177.65,-110.28,-339,-7894,-2927,0,-1,0
85.32,-177.65,-110.28,-342,-7892,-2918,0,0,0
85.30,-177.65,-110.28,-347,-7894,-2912,0,0,-1
85.30,-177.65,-110.28,-350,-7887,-2904,-1,0,-1
85.30,-177.65,-110.28,-360,-7888,-2910,-1,-1,-1
85.29,-177.65,-110.29,-356,-7900,-2922,-1,0,-1
85.28,-177.66,-110.29,-353,-7896,-2920,-1,0,-1
85.28,-177.66,-110.29,-347,-7890,-2928,-1,0,-1
85.28,-177.67,-110.30,-348,-7882,-2927,-1,0,-1
85.28,-177.67,-110.30,-346,-7878,-2919,-1,0,0
85.26,-177.67,-110.31,-345,-7879,-2929,-1,0,0
85.26,-177.67,-110.31,-350,-7881,-2933,0,0,0
85.26,-177.67,-110.31,-344,-7894,-2926,-1,-1,0
85.26,-177.67,-110.31,-342,-7898,-2918,-1,0,-1
85.26,-177.67,-110.31,-342,-7897,-2922,0,-1,-1
85.26,-177.67,-110.31,-345,-7890,-2919,-1,-1,0
85.26,-177.67,-110.31,-345,-7887,-2915,-1,-1,0
85.26,-177.67,-110.31,-344,-7892,-2903,-1,-1,0
85.28,-177.67,-110.31,-344,-7896,-2909,-1,0,0
85.28,-177.67,-110.32,-347,-7891,-2915,-1,-1,0
85.28,-177.67,-110.32,-341,-7891,-2927,0,-1,0
85.29,-177.67,-110.32,-350,-7892,-2930,0,-1,0
85.27,-177.66,-110.31,-345,-7890,-2920,-1,-1,0
85.28,-177.67,-110.31,-345,-7889,-2924,-1,0,-1
85.29,-177.67,-110.32,-344,-7887,-2927,-1,0,-1
85.27,-177.66,-110.32,-343,-7890,-2935,0,-1,0
85.27,-177.66,-110.32,-340,-7896,-2931,0,-1,0
85.29,-177.66,-110.32,-344,-7890,-2922,0,-1,-1
85.28,-177.67,-110.31,-342,-7898,-2911,-1,-1,-1
85.28,-177.67,-110.32,-340,-7899,-2915,-1,-1,-1
85.28,-177.67,-110.32,-341,-7892,-2913,-1,-1,0
85.28,-177.67,-110.32,-345,-7890,-2913,-1,-1,0
85.28,-177.67,-110.32,-341,-7890,-2909,0,-1,0
85.28,-177.67,-110.31,-337,-7891,-2912,0,0,0
85.28,-177.67,-110.30,-333,-7894,-2915,0,0,0
85.28,-177.67,-110.30,-339,-7890,-2911,0,-1,0
85.28,-177.67,-110.30,-340,-7891,-2920,-1,-1,0
85.29,-177.66,-110.32,-349,-7911,-2954,-1,-1,-1
85.28,-177.67,-110.32,-351,-7907,-2954,0,0,-1
85.28,-177.68,-110.31,-344,-7895,-2938,0,0,-1
85.29,-177.67,-110.29,-343,-7878,-2899,0,-1,0
85.29,-177.67,-110.28,-342,-7867,-2880,-1,-1,0
85.29,-177.66,-110.31,-356,-7879,-2892,-1,-1,0
85.30,-177.66,-110.33,-355,-7899,-2923,-1,0,-1
85.30,-177.67,-110.36,-352,-7916,-2960,-1,0,-1
85.28,-177.67,-110.35,-348,-7919,-2965,0,-1,0
85.27,-177.66,-110.32,-353,-7897,-2955,1,-1,0
85.30,-177.66,-110.30,-343,-7878,-2912,0,-1,0
85.30,-177.66,-110.28,-349,-7869,-2890,0,-1,0
85.28,-177.66,-110.29,-355,-7880,-2893,-1,0,0
85.29,-177.66,-110.31,-349,-7894,-2917,-1,0,-1
85.29,-177.66,-110.32,-342,-7913,-2943,-1,0,-1
85.29,-177.67,-110.32,-337,-7899,-2951,0,0,-1
85.29,-177.66,-110.31,-335,-7884,-2921,0,-1,0
85.30,-177.66,-110.30,-347,-7877,-2909,0,-1,0
85.31,-177.65,-110.30,-349,-7880,-2908,-1,-1,-1
85.29,-177.65,-110.31,-355,-7887,-2918,-1,0,-1
85.29,-177.66,-110.31,-354,-7895,-2935,-1,0,-1
85.31,-177.66,-110.32,-350,-7903,-2941,0,-1,0
85.31,-177.65,-110.31,-346,-7903,-2936,0,-1,0
85.31,-177.65,-110.31,-346,-7888,-2924,0,-1,0
85.29,-177.65,-110.31,-352,-7882,-2908,0,-1,0
85.29,-177.65,-110.30,-356,-7884,-2909,0,-1,0
85.29,-177.65,-110.30,-350,-7896,-2910,0,-1,0
85.31,-177.64,-110.30,-348,-7895,-2920,-1,-1,0
85.31,-177.64,-110.30,-348,-7896,-2923,0,-1,0
85.31,-177.64,-110.30,-338,-7890,-2925,0,-1,-1
85.31,-177.65,-110.30,-335,-7891,-2927,0,-1,-1
85.31,-177.65,-110.30,-339,-7894,-2917,0,-1,0
85.31,-177.65,-110.30,-335,-7888,-2923,0,-1,0
85.31,-177.64,-110.29,-337,-7887,-2919,-1,-1,0
85.30,-177.64,-110.30,-346,-7893,-2928,-1,-1,0
85.31,-177.64,-110.30,-353,-7898,-2925,-1,0,-1
85.31,-177.64,-110.30,-352,-7898,-2935,0,0,-1
85.31,-177.64,-110.30,-343,-7908,-2928,0,-1,-1
85.31,-177.65,-110.30,-338,-7901,-2926,0,-1,0
85.31,-177.64,-110.29,-343,-7892,-2918,0,-1,0
85.31,-177.64,-110.29,-349,-7886,-2911,0,-1,0
85.33,-177.64,-110.29,-348,-7892,-2904,-1,-1,0
85.30,-177.63,-110.29,-356,-7899,-2913,-1,-1,0
85.32,-177.63,-110.30,-353,-7906,-2922,-1,0,0
85.32,-177.63,-110.30,-349,-7909,-2933,0,-1,-1
85.32,-177.63,-110.30,-345,-7904,-2939,0,-1,0
85.32,-177.63,-110.30,-355,-7892,-2923,0,-1,0
85.33,-177.63,-110.29,-351,-7885,-2913,0,-1,0
85.34,-177.62,-110.28,-356,-7894,-2909,0,-1,0
85.32,-177.62,-110.29,-362,-7902,-2909,0,-1,0
85.32,-177.61,-110.29,-357,-7895,-2918,-1,-1,0
85.32,-177.61,-110.29,-353,-7899,-2918,0,-1,0
85.34,-177.62,-110.28,-353,-7895,-2917,0,-1,-1
85.32,-177.62,-110.27,-346,-7891,-2914,0,-1,0
85.34,-177.61,-110.28,-355,-7891,-2919,0,-1,0
85.32,-177.62,-110.27,-352,-7889,-2911,-1,0,0
85.34,-177.61,-110.28,-352,-7896,-2913,-1,0,-1
85.32,-177.62,-110.27,-348,-7895,-2915,-1,0,0
85.32,-177.62,-110.27,-349,-7892,-2923,0,0,-1
85.32,-177.62,-110.27,-343,-7894,-2925,0,-1,0
85.30,-177.61,-110.26,-344,-7900,-2914,0,-1,0
85.30,-177.61,-110.26,-350,-7903,-2913,0,-1,0
85.33,-177.62,-110.26,-341,-7903,-2910,0,-1,-1
85.33,-177.62,-110.26,-340,-7890,-2919,0,-1,0
85.31,-177.62,-110.26,-343,-7891,-2921,0,0,-1
85.33,-177.62,-110.25,-343,-7891,-2923,0,0,-1
85.30,-177.63,-110.24,-339,-7878,-2914,0,-1,0
85.32,-177.62,-110.22,-341,-7867,-2890,0,-1,0
85.31,-177.61,-110.23,-353,-7885,-2891,-1,-1,0
85.32,-177.60,-110.24,-367,-7915,-2905,-1,-1,-1
85.34,-177.61,-110.26,-364,-7920,-2931,-1,0,-1
85.35,-177.62,-110.27,-350,-7907,-2943,0,0,-1
