Yaw,Pitch,Roll,AX,AY,AZ,GX,GY,GZ
85.63,179.29,-133.60,100,-6096,-5825,0,0,-1
85.63,179.29,-133.60,106,-6093,-5820,0,0,0
85.63,179.28,-133.59,103,-6086,-5811,0,0,0
85.63,179.29,-133.59,101,-6091,-5797,-1,-1,0
85.63,179.29,-133.59,102,-6097,-5808,0,-1,0
85.63,179.29,-133.59,102,-6108,-5815,-1,-1,0
85.63,179.29,-133.59,105,-6106,-5827,0,0,0
85.63,179.29,-133.59,102,-6098,-5822,0,0,0
85.63,179.29,-133.59,110,-6098,-5817,0,0,-1
85.63,179.28,-133.59,115,-6100,-5800,-1,0,-1
85.63,179.28,-133.59,109,-6105,-5806,-1,-1,-1
85.63,179.28,-133.59,112,-6103,-5812,-1,-1,0
85.63,179.28,-133.59,110,-6101,-5813,-1,-1,0
85.63,179.29,-133.59,105,-6103,-5806,-1,-1,0
85.63,179.29,-133.59,104,-6103,-5805,-1,-1,-1
85.63,179.29,-133.59,103,-6110,-5814,-1,-1,0
85.63,179.29,-133.59,111,-6116,-5808,0,0,0
85.63,179.29,-133.59,107,-6112,-5807,0,0,0
85.63,179.29,-133.58,103,-6101,-5818,-1,-1,0
85.63,179.30,-133.59,93,-6101,-5815,0,-1,0
85.62,179.30,-133.59,96,-6099,-5823,0,-1,0
85.63,179.30,-133.59,107,-6099,-5814,0,0,0
85.63,179.30,-133.58,108,-6100,-5806,-1,-1,0
85.61,179.30,-133.58,109,-6103,-5810,-1,-1,0
85.62,179.30,-133.59,109,-6095,-5809,-1,0,0
85.62,179.30,-133.59,104,-6098,-5810,-1,0,-1
85.62,179.29,-133.59,105,-6102,-5808,-1,0,-1
85.62,179.29,-133.59,104,-6101,-5806,-1,0,-1
85.62,179.29,-133.59,104,-6104,-5816,-1,0,0
85.62,179.29,-133.59,102,-6100,-5822,0,-1,-1
85.62,179.29,-133.59,99,-6098,-5819,0,0,0
85.62,179.29,-133.59,101,-6096,-5810,0,-1,0
85.62,179.29,-133.59,106,-6101,-5809,0,0,-1
85.61,179.29,-133.59,103,-6106,-5803,0,-1,0
85.61,179.29,-133.59,101,-6103,-5807,0,-1,0
85.61,179.30,-133.58,98,-6098,-5795,0,0,0
85.61,179.30,-133.58,103,-6099,-5792,0,-1,0
85.61,179.30,-133.58,102,-6099,-5793,-1,-1,0
85.61,179.30,-133.58,95,-6105,-5817,0,0,0
85.61,179.29,-133.58,99,-6104,-5828,0,0,0
85.61,179.29,-133.58,105,-6107,-5822,0,0,0
85.61,179.29,-133.57,99,-6106,-5807,0,0,-1
85.61,179.29,-133.57,109,-6109,-5805,-1,-1,0
85.61,179.29,-133.57,104,-6109,-5811,-1,-1,-1
85.62,179.30,-133.57,98,-6109,-5811,-1,-1,0
85.62,179.30,-133.57,94,-6107,-5809,-1,-1,-1
85.62,179.30,-133.57,100,-6093,-5808,0,-1,-1
85.62,179.30,-133.57,103,-6098,-5808,0,-1,0
85.62,179.30,-133.57,102,-6101,-5807,0,0,0
85.61,179.30,-133.56,107,-6099,-5821,0,0,0
85.61,179.30,-133.56,104,-6100,-5823,0,0,0
85.61,179.30,-133.56,101,-6101,-5818,0,0,-1
85.61,179.29,-133.56,107,-6109,-5811,-1,0,-1
85.61,179.29,-133.56,105,-6114,-5814,0,0,-1
85.61,179.29,-133.56,101,-6108,-5819,-1,0,0
85.61,179.29,-133.56,101,-6101,-5810,-1,0,-1
85.61,179.28,-133.57,110,-6104,-5812,-1,-1,-1
85.61,179.28,-133.57,109,-6100,-5812,-1,-1,-1
85.61,179.28,-133.58,114,-6097,-5823,-1,-1,-1
85.61,179.28,-133.58,107,-6095,-5823,-1,-1,0
85.62,179.29,-133.58,100,-6093,-5820,-1,-1,0
85.63,179.29,-133.59,101,-6100,-5814,-1,-1,0
85.61,179.29,-133.59,102,-6096,-5813,-1,-1,0
85.61,179.29,-133.59,98,-6095,-5813,-1,-1,0
85.61,179.29,-133.59,100,-6093,-5814,0,0,0
85.61,179.29,-133.59,102,-6088,-5813,0,0,0
85.61,179.29,-133.59,110,-6097,-5812,0,-1,0
85.61,179.29,-133.59,110,-6097,-5806,-1,0,0
85.61,179.29,-133.59,109,-6099,-5815,-1,-1,0
85.61,179.29,-133.59,110,-6098,-5819,0,0,-1
85.61,179.29,-133.58,106,-6096,-5822,0,-1,-1
85.61,179.29,-133.59,101,-6101,-5816,-1,0,0
85.61,179.29,-133.59,99,-6102,-5810,-1,-1,-1
85.61,179.29,-133.59,100,-6105,-5813,-1,-1,0
85.61,179.29,-133.59,100,-6102,-5814,-1,-1,0
85.62,179.29,-133.59,103,-6098,-5811,-1,-1,0
85.62,179.29,-133.59,99,-6097,-5810,-1,-1,0
85.62,179.29,-133.59,108,-6100,-5816,-1,-1,0
85.62,179.29,-133.59,109,-6097,-5816,-1,-1,0
85.62,179.29,-133.59,103,-6097,-5818,-1,-1,0
85.63,179.30,-133.60,98,-6095,-5815,-1,-1,0
85.63,179.30,-133.60,103,-6107,-5814,-1,0,0
85.63,179.30,-133.60,103,-6106,-5810,-1,0,0
85.63,179.30,-133.60,105,-6099,-5809,-1,-1,0
85.63,179.30,-133.60,98,-6100,-5823,0,-1,0
85.61,179.30,-133.60,101,-6089,-5816,0,-1,0
85.63,179.31,-133.59,106,-6093,-5806,0,-1,-1
85.62,179.30,-133.59,107,-6100,-5811,0,0,-1
85.62,179.30,-133.59,114,-6104,-5814,-1,0,-1
85.63,179.30,-133.60,115,-6098,-5819,-1,-1,0
85.62,179.30,-133.61,112,-6089,-5826,-1,-1,0
85.62,179.30,-133.61,107,-6085,-5823,-1,0,0
85.62,179.30,-133.61,103,-6092,-5819,0,0,0
85.62,179.30,-133.61,110,-6096,-5813,0,0,0
85.61,179.30,-133.61,105,-6104,-5817,0,0,0
85.61,179.30,-133.60,102,-6106,-5810,0,-1,0
85.61,179.30,-133.60,97,-6107,-5812,0,0,0
85.61,179.30,-133.60,98,-6108,-5812,0,0,-1
85.61,179.30,-133.59,104,-6105,-5807,0,-1,0
85.61,179.30,-133.59,101,-6109,-5805,-1,-1,0
85.61,179.30,-133.59,107,-6103,-5809,-1,-1,0
85.61,179.30,-133.59,106,-6098,-5797,0,-1,0
85.61,179.30,-133.60,109,-6097,-5799,-1,-1,0
85.61,179.30,-133.60,109,-6099,-5810,-1,-1,0
85.61,179.31,-133.59,108,-6108,-5806,-1,-1,0
85.61,179.31,-133.59,108,-6105,-5811,0,-1,0
85.61,179.31,-133.59,101,-6096,-5815,-1,-1,0
85.62,179.31,-133.60,99,-6092,-5816,-1,-1,0
85.62,179.31,-133.60,106,-6099,-5815,-1,-1,-1
85.62,179.31,-133.60,102,-6094,-5812,0,0,0
85.62,179.31,-133.60,109,-6100,-5818,0,-1,0
85.62,179.31,-133.60,101,-6101,-5819,0,0,-1
85.61,179.31,-133.59,102,-6098,-5810,0,-1,0
85.62,179.31,-133.60,104,-6089,-5811,-1,-1,0
85.62,179.31,-133.60,103,-6096,-5812,-1,-1,0
85.62,179.31,-133.60,93,-6105,-5806,0,-1,0
85.62,179.31,-133.60,95,-6100,-5796,0,0,-1
85.62,179.31,-133.60,98,-6103,-5811,0,0,-1
85.62,179.31,-133.60,95,-6101,-5811,-1,0,0
85.62,179.31,-133.60,95,-6099,-5816,-1,-1,0
85.63,179.32,-133.60,100,-6102,-5814,-1,-1,0
85.63,179.32,-133.60,99,-6096,-5813,-1,-1,-1
85.63,179.32,-133.60,99,-6092,-5816,0,0,-1
85.63,179.32,-133.60,97,-6096,-5808,0,0,0
85.63,179.32,-133.60,101,-6098,-5810,-1,-1,0
85.62,179.31,-133.60,103,-6102,-5810,-1,-1,0
85.63,179.32,-133.60,103,-6102,-5810,-1,-1,0
85.63,179.32,-133.60,97,-6105,-5815,0,0,-1
85.62,179.31,-133.60,101,-6107,-5818,0,0,0
85.62,179.31,-133.60,95,-6105,-5806,-1,0,-1
85.62,179.31,-133.60,91,-6105,-5805,-1,0,-1
85.62,179.31,-133.60,88,-6101,-5805,-1,0,-1
85.62,179.31,-133.60,97,-6100,-5808,-1,0,0
85.62,179.31,-133.60,99,-6098,-5815,0,-1,0
85.62,179.31,-133.60,103,-6094,-5807,0,0,0
85.62,179.32,-133.59,97,-6095,-5808,0,-1,0
85.62,179.31,-133.60,101,-6102,-5817,-1,-1,-1
85.62,179.31,-133.60,98,-6112,-5815,-1,-1,-1
85.63,179.32,-133.60,100,-6108,-5823,-1,-1,-1
85.63,179.32,-133.60,107,-6104,-5820,-1,-1,0
85.63,179.32,-133.60,102,-6097,-5801,-1,0,0
85.63,179.32,-133.60,104,-6097,-5805,-1,0,-1
85.63,179.32,-133.60,98,-6098,-5813,0,0,0
85.63,179.32,-133.60,94,-6100,-5820,0,0,0
85.62,179.31,-133.60,98,-6100,-5826,0,0,0
85.62,179.31,-133.60,96,-6101,-5819,0,0,-1
85.61,179.31,-133.59,97,-6111,-5811,0,0,-1
85.61,179.31,-133.59,95,-6103,-5811,-1,0,-1
85.61,179.31,-133.59,90,-6103,-5807,-1,0,0
85.61,179.31,-133.59,96,-6096,-5804,0,0,-1
85.61,179.31,-133.59,95,-6094,-5812,-1,-1,0
85.62,179.31,-133.60,100,-6098,-5814,-1,-1,0
85.61,179.31,-133.59,105,-6097,-5812,-1,0,-1
85.61,179.30,-133.60,104,-6107,-5816,-1,0,-1
85.61,179.30,-133.60,104,-6105,-5813,0,-1,-1
85.61,179.30,-133.60,104,-6100,-5810,-1,-1,-1
85.62,179.31,-133.60,103,-6089,-5800,-1,-1,-1
85.62,179.31,-133.60,103,-6086,-5807,-1,-1,0
85.62,179.31,-133.60,99,-6088,-5812,0,0,0
85.61,179.31,-133.59,100,-6097,-5817,0,0,-1
85.61,179.31,-133.59,96,-6099,-5816,0,0,-1
85.61,179.31,-133.59,98,-6102,-5813,0,0,0
85.61,179.31,-133.59,109,-6102,-5817,-1,0,0
85.61,179.30,-133.59,104,-6100,-5823,-1,0,-1
85.61,179.30,-133.59,107,-6103,-5825,0,0,0
85.61,179.30,-133.59,101,-6101,-5822,0,0,0
85.61,179.30,-133.59,106,-6093,-5814,-1,-1,0
85.61,179.29,-133.60,106,-6097,-5812,-1,-1,0
85.61,179.30,-133.60,105,-6089,-5811,-1,-1,0
85.61,179.30,-133.60,102,-6090,-5815,-1,0,0
85.61,179.30,-133.60,106,-6093,-5820,0,-1,0
85.61,179.30,-133.60,99,-6091,-5815,0,-1,0
85.61,179.30,-133.60,95,-6098,-5818,0,-1,0
85.60,179.30,-133.60,99,-6097,-5824,0,-1,0
85.60,179.31,-133.60,105,-6097,-5825,0,-1,0
85.60,179.31,-133.60,106,-6107,-5833,0,0,0
85.60,179.31,-133.60,101,-6109,-5820,0,0,0
85.59,179.30,-133.59,103,-6106,-5822,-1,0,0
85.59,179.30,-133.59,101,-6097,-5808,-1,0,0
85.60,179.31,-133.60,94,-6096,-5815,-1,-1,-1
85.60,179.30,-133.60,97,-6096,-5824,-1,0,0
85.61,179.31,-133.61,102,-6098,-5839,0,0,-1
85.60,179.30,-133.60,103,-6098,-5830,0,0,0
85.60,179.30,-133.60,107,-6098,-5823,0,0,0
85.59,179.30,-133.60,110,-6100,-5806,0,0,-1
85.59,179.30,-133.60,112,-6099,-5800,-1,-1,0
85.60,179.30,-133.60,110,-6100,-5803,-1,-1,0
85.60,179.30,-133.60,101,-6096,-5818,-1,-1,0
85.61,179.31,-133.61,101,-6098,-5826,-1,-1,0
85.59,179.31,-133.61,100,-6093,-5824,0,0,0
85.60,179.30,-133.60,103,-6093,-5817,0,0,-1
85.59,179.30,-133.60,107,-6099,-5815,0,0,-1
85.59,179.30,-133.60,105,-6101,-5817,0,0,0
85.59,179.30,-133.59,104,-6096,-5810,0,-1,0
85.59,179.30,-133.59,101,-6100,-5822,0,0,0
85.59,179.30,-133.59,103,-6104,-5820,-1,0,0
85.59,179.30,-133.59,100,-6107,-5831,-1,0,-1
85.59,179.30,-133.59,100,-6098,-5822,0,0,-1
85.59,179.30,-133.59,103,-6091,-5812,0,0,0
85.59,179.30,-133.59,98,-6097,-5804,0,0,-1
85.59,179.30,-133.59,103,-6101,-5814,0,-1,0
85.59,179.30,-133.59,104,-6103,-5813,-1,-1,0
85.59,179.30,-133.59,99,-6104,-5815,-1,-1,0
85.58,179.31,-133.59,97,-6100,-5822,-1,-1,0
85.58,179.31,-133.59,98,-6102,-5826,0,0,-1
85.58,179.31,-133.59,97,-6104,-5818,0,0,0
85.59,179.30,-133.59,99,-6106,-5821,0,0,-1
85.59,179.30,-133.59,106,-6104,-5823,0,0,-1
85.58,179.30,-133.58,102,-6108,-5816,0,0,-1
85.58,179.30,-133.58,106,-6107,-5819,0,0,0
85.58,179.30,-133.58,106,-6107,-5826,0,0,-1
85.57,179.29,-133.58,109,-6106,-5822,0,0,0
85.57,179.29,-133.58,108,-6111,-5818,0,0,-1
85.57,179.28,-133.58,104,-6108,-5811,-1,0,0
85.57,179.29,-133.58,108,-6108,-5820,-1,0,-1
85.58,179.29,-133.58,106,-6108,-5817,-1,0,0
85.58,179.28,-133.59,106,-6103,-5820,-1,0,-1
85.58,179.28,-133.59,103,-6104,-5814,0,0,-1
85.58,179.28,-133.59,105,-6100,-5802,0,0,-1
85.58,179.28,-133.58,113,-6104,-5811,-1,-1,0
85.58,179.28,-133.59,108,-6105,-5817,0,-1,0
85.58,179.28,-133.59,108,-6107,-5815,0,-1,0
85.57,179.28,-133.58,103,-6108,-5817,0,-1,0
85.57,179.28,-133.58,99,-6103,-5804,0,0,0
85.57,179.29,-133.58,100,-6102,-5811,0,0,0
85.57,179.29,-133.58,104,-6103,-5821,-1,0,-1
85.58,179.28,-133.59,106,-6099,-5822,-1,0,0
85.58,179.28,-133.59,102,-6098,-5829,0,0,0
85.57,179.28,-133.58,99,-6101,-5820,0,0,0
85.57,179.28,-133.58,102,-6100,-5814,0,0,-1
85.57,179.28,-133.58,104,-6101,-5798,-1,0,-1
85.58,179.28,-133.59,103,-6099,-5803,-1,-1,0
85.56,179.28,-133.59,101,-6105,-5801,-1,-1,0
85.57,179.28,-133.60,107,-6109,-5803,-1,-1,-1
85.57,179.28,-133.60,100,-6101,-5811,-1,0,-1
85.57,179.28,-133.60,101,-6104,-5823,0,0,-1
85.57,179.28,-133.60,105,-6104,-5826,0,0,-1
85.56,179.28,-133.59,108,-6104,-5814,0,0,0
85.56,179.28,-133.59,108,-6104,-5826,0,0,0
85.56,179.28,-133.59,105,-6104,-5820,0,0,0
85.56,179.28,-133.59,96,-6109,-5812,0,0,0
85.56,179.28,-133.59,99,-6108,-5820,0,0,-1
85.56,179.27,-133.59,106,-6100,-5814,-1,0,-1
85.56,179.27,-133.59,109,-6098,-5810,-1,0,-1
85.56,179.27,-133.60,110,-6099,-5808,-1,-1,0
85.56,179.27,-133.60,111,-6109,-5812,-1,-1,-1
85.56,179.27,-133.60,116,-6107,-5817,-1,-1,0
85.56,179.27,-133.60,109,-6101,-5821,-1,-1,0
85.57,179.27,-133.61,105,-6098,-5811,-1,-1,0
85.57,179.28,-133.60,97,-6101,-5815,-1,-1,0
85.58,179.28,-133.61,103,-6099,-5817,-1,-1,0
85.58,179.28,-133.61,102,-6110,-5829,-1,0,0
85.58,179.28,-133.61,104,-6100,-5828,0,0,-1
85.58,179.28,-133.61,106,-6099,-5829,0,0,0
85.57,179.28,-133.60,102,-6103,-5824,0,0,-1
85.57,179.28,-133.60,104,-6104,-5822,-1,0,-1
85.57,179.28,-133.60,101,-6108,-5816,-1,-1,0
85.57,179.27,-133.61,103,-6110,-5817,-1,0,0
85.57,179.27,-133.61,108,-6109,-5815,-1,0,0
85.57,179.27,-133.61,95,-6107,-5816,-1,0,0
85.56,179.28,-133.61,100,-6097,-5817,-1,0,0
85.56,179.28,-133.61,105,-6098,-5816,-1,0,-1
85.56,179.28,-133.61,105,-6090,-5817,-1,-1,0
85.57,179.28,-133.62,101,-6088,-5814,-1,-1,0
85.57,179.28,-133.62,101,-6094,-5809,-1,-1,0
85.57,179.29,-133.61,105,-6094,-5804,0,-1,0
85.57,179.29,-133.61,104,-6101,-5810,0,-1,0
85.57,179.29,-133.61,100,-6101,-5804,0,0,0
85.56,179.29,-133.61,101,-6104,-5812,-1,-1,0
85.57,179.29,-133.61,102,-6107,-5817,-1,-1,0
85.57,179.29,-133.61,102,-6101,-5815,-1,0,-1
85.57,179.29,-133.61,101,-6103,-5810,-1,-1,0
85.57,179.29,-133.61,100,-6097,-5814,0,-1,0
85.57,179.29,-133.61,100,-6093,-5811,0,-1,0
85.57,179.30,-133.61,95,-6095,-5802,-1,0,0
85.57,179.30,-133.61,101,-6105,-5795,-1,-1,-1
85.57,179.30,-133.61,98,-6101,-5808,-1,-1,0
85.56,179.30,-133.62,98,-6102,-5828,-1,-1,0
85.57,179.30,-133.63,97,-6101,-5829,-1,-1,0
85.57,179.30,-133.63,90,-6098,-5822,0,0,-1
85.56,179.30,-133.62,96,-6095,-5821,0,0,0
85.56,179.30,-133.62,108,-6096,-5825,0,0,0
85.56,179.30,-133.62,105,-6100,-5820,0,-1,0
85.56,179.30,-133.61,95,-6098,-5816,0,-1,0
85.56,179.30,-133.61,100,-6093,-5811,0,0,0
85.55,179.30,-133.61,101,-6094,-5811,-1,0,0
85.55,179.30,-133.61,103,-6093,-5808,-1,0,-1
85.55,179.30,-133.61,97,-6087,-5807,-1,0,-1
85.55,179.30,-133.61,100,-6085,-5812,0,-1,0
85.55,179.30,-133.61,104,-6090,-5807,-1,-1,0
85.56,179.30,-133.61,104,-6099,-5818,0,-1,0
85.56,179.30,-133.61,102,-6105,-5810,0,0,-1
85.56,179.30,-133.61,100,-6106,-5818,0,0,-1
85.55,179.30,-133.61,103,-6104,-5816,-1,-1,0
85.56,179.30,-133.61,96,-6096,-5812,-1,-1,0
85.56,179.30,-133.61,102,-6094,-5818,-1,-1,-1
85.56,179.30,-133.62,104,-6098,-5821,-1,0,0
85.56,179.30,-133.62,105,-6096,-5819,-1,0,-1
85.56,179.30,-133.62,97,-6096,-5816,0,0,-1
85.56,179.30,-133.62,98,-6101,-5815,0,0,0
85.55,179.29,-133.61,103,-6105,-5811,-1,-1,0
85.55,179.29,-133.61,107,-6115,-5819,-1,0,0
85.55,179.29,-133.61,101,-6108,-5813,-1,0,0
85.55,179.29,-133.61,109,-6104,-5818,0,0,0
85.55,179.30,-133.61,106,-6102,-5824,0,0,0
85.55,179.30,-133.61,108,-6108,-5824,0,-1,0
85.55,179.30,-133.61,102,-6107,-5822,-1,-1,0
85.55,179.31,-133.61,97,-6105,-5820,-1,-1,0
85.55,179.31,-133.61,106,-6109,-5819,-1,0,0
85.55,179.30,-133.62,104,-6106,-5826,-1,0,0
85.55,179.30,-133.62,107,-6105,-5831,-1,0,0
85.55,179.30,-133.62,106,-6095,-5826,0,0,0
85.54,179.30,-133.61,106,-6098,-5821,0,-1,0
85.54,179.30,-133.61,108,-6099,-5819,0,-1,0
85.55,179.30,-133.60,106,-6104,-5808,0,-1,0
85.55,179.30,-133.60,102,-6105,-5813,0,-1,-1
85.55,179.30,-133.60,105,-6112,-5811,0,-1,0
85.55,179.30,-133.60,103,-6111,-5814,-1,-1,-1
85.55,179.30,-133.60,97,-6108,-5812,-1,0,-1
85.55,179.30,-133.60,102,-6101,-5808,-1,0,0
85.55,179.30,-133.60,97,-6101,-5815,-1,-1,0
85.53,179.30,-133.60,99,-6103,-5809,-1,-1,0
85.55,179.31,-133.59,101,-6104,-5812,0,-1,0
85.55,179.31,-133.59,106,-6101,-5805,-1,-1,-1
85.55,179.30,-133.60,106,-6102,-5812,-1,0,-1
85.55,179.30,-133.61,110,-6096,-5815,-1,-1,-1
85.54,179.30,-133.61,103,-6095,-5818,-1,-1,-1
85.55,179.31,-133.61,95,-6091,-5820,-1,0,-1
85.55,179.30,-133.62,102,-6089,-5813,0,0,0
85.54,179.30,-133.61,102,-6098,-5817,0,0,0
85.54,179.30,-133.61,100,-6102,-5816,0,0,0
85.54,179.30,-133.61,102,-6103,-5818,0,0,0
85.54,179.31,-133.60,99,-6101,-5817,0,-1,0
85.54,179.30,-133.61,100,-6103,-5823,0,0,-1
85.53,179.30,-133.60,107,-6109,-5818,0,0,-1
85.54,179.30,-133.59,104,-6110,-5806,0,0,-1
85.54,179.30,-133.59,105,-6103,-5807,0,0,0
85.54,179.30,-133.59,102,-6097,-5811,0,-1,0
85.54,179.30,-133.59,97,-6097,-5808,-1,-1,0
85.54,179.30,-133.59,96,-6108,-5807,-1,0,-1
85.54,179.30,-133.59,104,-6106,-5820,0,0,-1
85.54,179.30,-133.59,96,-6108,-5813,0,-1,0
85.54,179.30,-133.59,96,-6106,-5809,0,0,0
85.54,179.30,-133.59,97,-6093,-5803,-1,0,-1
85.54,179.30,-133.59,98,-6089,-5810,-1,-1,0
85.54,179.30,-133.59,100,-6100,-5818,0,0,-1
85.53,179.30,-133.58,99,-6103,-5819,0,0,0
85.53,179.30,-133.58,98,-6098,-5816,0,0,-1
85.53,179.30,-133.58,99,-6096,-5813,-1,0,-1
85.53,179.30,-133.58,104,-6102,-5810,-1,0,0
85.53,179.30,-133.58,108,-6110,-5809,0,-1,0
85.53,179.30,-133.58,104,-6106,-5814,0,-1,0
85.53,179.30,-133.58,102,-6109,-5814,0,0,0
85.53,179.30,-133.57,91,-6111,-5815,-1,-1,0
85.53,179.30,-133.58,92,-6106,-5813,-1,-1,-1
85.53,179.30,-133.58,96,-6107,-5812,-1,-1,0
85.53,179.30,-133.58,99,-6109,-5816,-1,0,0
85.53,179.30,-133.58,100,-6109,-5814,-1,-1,0
85.53,179.30,-133.58,95,-6105,-5813,0,0,0
85.53,179.30,-133.58,96,-6100,-5807,0,0,0
85.53,179.30,-133.58,96,-6102,-5806,0,0,-1
85.53,179.30,-133.58,99,-6100,-5811,0,0,0
85.53,179.30,-133.58,105,-6100,-5822,0,0,-1
85.53,179.30,-133.58,109,-6105,-5818,0,0,-1
85.53,179.30,-133.58,104,-6107,-5815,-1,0,0
85.53,179.30,-133.57,112,-6109,-5800,0,0,0
85.53,179.30,-133.57,105,-6111,-5803,-1,-1,0
85.53,179.30,-133.57,105,-6112,-5811,-1,0,-1
85.53,179.30,-133.57,97,-6104,-5816,0,0,-1
85.53,179.30,-133.58,101,-6104,-5824,0,0,-1
85.53,179.30,-133.58,96,-6102,-5811,0,0,-1
85.53,179.30,-133.58,105,-6103,-5807,-1,-1,0
85.53,179.30,-133.58,107,-6101,-5806,-1,0,0
85.53,179.30,-133.58,110,-6106,-5812,0,0,0
85.52,179.29,-133.57,108,-6105,-5817,0,0,0
85.52,179.29,-133.57,105,-6105,-5816,0,0,-1
85.52,179.29,-133.57,100,-6111,-5805,-1,0,-1
85.52,179.29,-133.57,102,-6107,-5809,-1,0,-1
85.52,179.29,-133.58,101,-6105,-5815,-1,-1,-1
85.53,179.29,-133.59,100,-6109,-5820,-1,-1,0
85.53,179.29,-133.59,103,-6099,-5814,-1,-1,-1
85.53,179.28,-133.59,96,-6097,-5813,0,0,-1
85.53,179.29,-133.59,103,-6090,-5813,0,0,0
85.53,179.29,-133.59,108,-6092,-5821,0,0,0
85.52,179.29,-133.58,97,-6106,-5820,0,0,0
85.52,179.29,-133.57,98,-6110,-5816,0,0,0
85.52,179.29,-133.57,97,-6112,-5820,0,-1,-1
85.52,179.29,-133.57,100,-6110,-5815,-1,0,-1
85.52,179.29,-133.57,101,-6104,-5819,-1,0,-1
85.52,179.28,-133.58,99,-6103,-5821,-1,0,-1
85.51,179.28,-133.58,101,-6098,-5817,-1,0,-1
85.51,179.28,-133.58,108,-6096,-5825,0,0,-1
85.52,179.28,-133.58,112,-6101,-5816,0,-1,-1
85.52,179.27,-133.58,112,-6114,-5819,-1,-1,0
85.51,179.28,-133.59,110,-6118,-5826,-1,-1,0
85.51,179.28,-133.59,109,-6105,-5819,-1,-1,0
85.51,179.28,-133.59,110,-6104,-5812,-1,-1,0
85.52,179.29,-133.59,102,-6102,-5816,0,-1,0
85.51,179.28,-133.58,102,-6105,-5809,0,-1,0
85.52,179.29,-133.59,107,-6105,-5820,-1,-1,0
85.52,179.28,-133.58,105,-6108,-5811,0,0,-1
85.51,179.28,-133.58,97,-6101,-5811,-1,0,0
85.51,179.28,-133.58,100,-6098,-5820,-1,0,0
85.51,179.28,-133.58,104,-6101,-5826,0,0,0
85.51,179.28,-133.58,105,-6105,-5820,-1,0,0
85.51,179.28,-133.58,106,-6106,-5814,-1,0,-1
85.51,179.28,-133.58,108,-6102,-5807,-1,0,-1
85.51,179.28,-133.59,98,-6104,-5811,-1,0,-1
85.51,179.28,-133.59,102,-6104,-5813,-1,0,0
85.51,179.28,-133.59,100,-6102,-5808,-1,0,0
85.51,179.28,-133.59,101,-6095,-5802,-1,0,-1
85.51,179.28,-133.59,106,-6095,-5801,-1,0,0
85.51,179.28,-133.59,105,-6095,-5801,0,-1,0
85.51,179.28,-133.59,105,-6099,-5814,0,-1,0
85.52,179.28,-133.59,102,-6096,-5815,-1,-1,0
85.51,179.28,-133.59,107,-6096,-5814,0,0,0
85.51,179.28,-133.59,106,-6101,-5811,0,0,0
85.51,179.28,-133.59,112,-6095,-5819,-1,-1,0
85.51,179.28,-133.59,109,-6098,-5819,-1,0,0
85.51,179.28,-133.59,113,-6103,-5815,0,-1,0
85.51,179.28,-133.59,112,-6108,-5813,0,0,-1
85.51,179.28,-133.59,112,-6105,-5817,-1,0,-1
85.51,179.28,-133.59,110,-6104,-5815,-1,-1,0
85.51,179.28,-133.59,109,-6100,-5815,-1,-1,0
85.51,179.27,-133.59,111,-6105,-5821,-1,-1,-1
85.51,179.27,-133.59,109,-6107,-5819,0,0,0
85.51,179.28,-133.59,107,-6111,-5821,0,0,0
85.50,179.28,-133.58,106,-6109,-5811,0,0,-1
85.50,179.28,-133.58,101,-6107,-5804,0,0,-1
85.50,179.28,-133.58,99,-6107,-5806,-1,-1,-1
85.51,179.28,-133.59,99,-6102,-5812,-1,-1,0
85.52,179.28,-133.59,98,-6110,-5822,-1,-1,0
85.52,179.28,-133.60,104,-6109,-5817,-1,-1,0
85.52,179.28,-133.60,106,-6107,-5823,-1,0,-1
85.52,179.28,-133.60,112,-6101,-5813,0,0,-1
85.52,179.28,-133.60,111,-6100,-5817,0,0,0
85.52,179.28,-133.60,107,-6105,-5816,0,0,0
85.51,179.28,-133.59,112,-6107,-5816,0,0,0
85.51,179.28,-133.59,111,-6110,-5820,0,0,0
85.51,179.28,-133.59,102,-6106,-5813,-1,0,0
85.51,179.28,-133.59,106,-6113,-5809,-1,0,-1
85.51,179.27,-133.59,111,-6108,-5815,-1,0,0
85.51,179.27,-133.60,115,-6106,-5816,-1,0,-1
85.51,179.27,-133.60,112,-6097,-5816,-1,-1,-1
85.52,179.27,-133.60,112,-6097,-5811,-1,-1,0
85.51,179.28,-133.61,113,-6099,-5810,-1,-1,0
85.52,179.28,-133.62,120,-6101,-5810,-1,-1,0
85.53,179.29,-133.63,113,-6103,-5815,-1,-1,0
85.54,179.29,-133.64,115,-6095,-5824,-1,-1,0
85.54,179.30,-133.65,112,-6096,-5838,-1,-1,0
85.53,179.31,-133.66,104,-6095,-5839,0,-1,0
85.53,179.32,-133.65,95,-6097,-5834,0,0,0
85.54,179.31,-133.64,98,-6102,-5816,0,0,-1
85.53,179.31,-133.64,97,-6102,-5804,-1,0,-1
85.53,179.31,-133.64,98,-6101,-5809,-1,0,-1
85.53,179.30,-133.63,97,-6106,-5817,-1,0,-1
85.53,179.30,-133.64,100,-6105,-5823,-1,0,-1
85.52,179.29,-133.64,103,-6107,-5812,-1,0,-1
85.53,179.29,-133.65,98,-6109,-5813,-1,0,-1
85.53,179.29,-133.65,95,-6105,-5805,-1,-1,-1
85.52,179.29,-133.66,99,-6099,-5810,-1,-1,-1
85.53,179.29,-133.67,102,-6094,-5827,-1,0,0
85.53,179.29,-133.67,103,-6090,-5827,0,0,-1
85.53,179.29,-133.67,108,-6093,-5822,0,0,0
85.54,179.28,-133.66,118,-6096,-5815,0,-1,0
85.52,179.29,-133.66,110,-6099,-5811,-1,-1,0
85.54,179.29,-133.66,110,-6101,-5817,-1,-1,0
85.54,179.29,-133.66,108,-6101,-5815,0,0,0
85.52,179.29,-133.66,97,-6101,-5824,0,0,0
85.52,179.29,-133.66,99,-6101,-5819,0,0,-1
85.53,179.29,-133.65,100,-6095,-5798,0,0,-1
85.53,179.29,-133.65,111,-6105,-5796,-1,0,0
85.53,179.29,-133.65,105,-6101,-5805,-1,-1,0
85.53,179.29,-133.65,108,-6096,-5803,-1,-1,0
85.53,179.29,-133.65,109,-6104,-5809,0,-1,0
85.53,179.29,-133.65,109,-6098,-5813,0,-1,0
85.53,179.29,-133.65,113,-6096,-5812,-1,-1,0
85.53,179.28,-133.65,110,-6090,-5814,-1,-1,-1
85.54,179.29,-133.66,110,-6092,-5810,-1,-1,0
85.54,179.30,-133.66,106,-6092,-5816,-1,-1,0
85.55,179.30,-133.66,96,-6092,-5815,-1,-1,0
85.55,179.31,-133.66,95,-6087,-5820,-1,-1,0
85.55,179.31,-133.66,98,-6094,-5838,0,0,0
85.55,179.31,-133.66,105,-6100,-5842,0,0,0
85.53,179.31,-133.66,94,-6096,-5841,0,0,0
85.53,179.31,-133.65,96,-6092,-5828,0,0,0
85.52,179.31,-133.64,97,-6095,-5828,0,0,0
85.51,179.30,-133.64,106,-6101,-5819,0,0,0
85.51,179.30,-133.63,109,-6107,-5822,0,0,-1
85.51,179.30,-133.62,107,-6106,-5816,0,0,-1
85.52,179.29,-133.63,103,-6102,-5806,0,0,-1
85.51,179.29,-133.62,107,-6097,-5806,-1,0,-1
85.52,179.28,-133.63,100,-6092,-5811,-1,-1,-1
85.52,179.28,-133.63,105,-6086,-5805,-1,-1,0
85.52,179.29,-133.64,107,-6084,-5809,-1,-1,-1
85.52,179.29,-133.64,113,-6085,-5816,-1,-1,0
85.53,179.30,-133.64,110,-6095,-5821,-1,-1,0
85.53,179.30,-133.65,108,-6098,-5832,0,-1,0
85.53,179.31,-133.64,105,-6100,-5837,0,-1,0
85.53,179.30,-133.64,105,-6100,-5822,0,0,-1
85.53,179.31,-133.63,97,-6099,-5824,0,0,0
85.52,179.30,-133.63,96,-6094,-5816,0,0,-1
85.52,179.30,-133.63,98,-6090,-5824,0,0,-1
85.52,179.30,-133.62,100,-6100,-5812,0,0,0
85.53,179.30,-133.62,100,-6105,-5818,0,0,-1
85.52,179.29,-133.61,96,-6099,-5803,0,0,-1
85.52,179.29,-133.61,105,-6099,-5797,0,0,-1
85.52,179.29,-133.61,103,-6095,-5802,-1,0,-1
85.52,179.29,-133.61,101,-6087,-5804,-1,0,-1
85.52,179.29,-133.61,102,-6093,-5805,0,-1,0
85.52,179.29,-133.61,104,-6097,-5817,0,-1,0
85.52,179.29,-133.61,100,-6101,-5821,0,0,0
85.52,179.29,-133.61,105,-6099,-5809,0,-1,0
85.52,179.29,-133.60,96,-6101,-5809,0,-1,0
85.52,179.29,-133.60,102,-6101,-5821,-1,-1,-1
85.52,179.29,-133.60,101,-6100,-5814,0,0,0
85.52,179.29,-133.60,100,-6105,-5817,0,0,-1
85.52,179.29,-133.60,103,-6103,-5812,0,0,-1
85.52,179.29,-133.60,102,-6107,-5814,-1,0,-1
85.52,179.29,-133.60,105,-6112,-5823,-1,0,-1
85.51,179.29,-133.60,103,-6108,-5825,-1,0,-1
85.51,179.29,-133.60,109,-6110,-5818,-1,0,-1
85.51,179.29,-133.60,101,-6105,-5809,-1,0,-1
85.51,179.29,-133.60,112,-6101,-5814,-1,0,0
85.51,179.29,-133.60,115,-6098,-5808,0,-1,0
85.51,179.29,-133.60,109,-6101,-5817,0,-1,0
85.51,179.29,-133.60,103,-6107,-5810,0,-1,0
85.50,179.29,-133.59,107,-6110,-5798,0,-1,-1
85.50,179.29,-133.59,111,-6107,-5803,-1,-1,0
85.51,179.29,-133.60,104,-6112,-5815,-1,0,0
85.52,179.29,-133.60,93,-6105,-5822,-1,-1,0
85.52,179.29,-133.60,96,-6098,-5816,-1,0,-1
85.52,179.29,-133.61,97,-6098,-5817,0,0,0
85.52,179.29,-133.60,98,-6100,-5821,0,-1,0
85.51,179.29,-133.60,106,-6103,-5807,0,-1,0
85.51,179.30,-133.59,105,-6104,-5810,0,-1,0
85.51,179.30,-133.59,101,-6107,-5814,0,-1,0
85.51,179.30,-133.59,104,-6102,-5807,0,0,0
85.50,179.29,-133.59,107,-6116,-5813,-1,0,0
85.50,179.29,-133.59,101,-6115,-5808,-1,0,-1
85.50,179.29,-133.59,105,-6109,-5809,-1,-1,0
85.50,179.29,-133.59,107,-6104,-5802,-1,-1,0
85.51,179.30,-133.59,106,-6094,-5803,-1,-1,0
85.51,179.30,-133.59,104,-6102,-5808,-1,-1,-1
85.51,179.30,-133.59,104,-6111,-5815,-1,0,-1
85.51,179.30,-133.59,105,-6107,-5811,0,-1,-1
85.51,179.30,-133.59,104,-6101,-5804,-1,-1,0
85.51,179.30,-133.59,97,-6098,-5805,-1,-1,0
85.51,179.30,-133.60,99,-6098,-5812,-1,-1,0
85.51,179.30,-133.60,108,-6099,-5814,0,-1,0
85.51,179.31,-133.59,105,-6098,-5807,0,0,-1
85.51,179.30,-133.59,106,-6105,-5806,0,0,0
85.51,179.30,-133.59,107,-6105,-5813,0,-1,0
85.51,179.30,-133.59,108,-6106,-5809,0,-1,0
85.51,179.31,-133.58,105,-6108,-5809,0,-1,0
85.51,179.31,-133.58,110,-6101,-5812,-1,-1,0
85.51,179.31,-133.58,109,-6099,-5822,0,-1,0
85.51,179.31,-133.58,110,-6099,-5812,-1,-1,0
85.51,179.31,-133.58,100,-6107,-5814,-1,0,-1
85.51,179.31,-133.58,103,-6100,-5812,-1,-1,0
85.51,179.31,-133.59,107,-6100,-5818,-1,-1,0
85.51,179.31,-133.59,103,-6101,-5826,0,0,0
85.51,179.31,-133.59,100,-6101,-5820,-1,-1,0
85.51,179.31,-133.59,97,-6106,-5815,-1,0,0
85.51,179.31,-133.59,100,-6103,-5812,-1,0,0
85.51,179.31,-133.59,101,-6103,-5806,-1,-1,0
85.51,179.31,-133.59,101,-6098,-5814,0,0,0
85.51,179.31,-133.59,100,-6103,-5802,0,-1,0
85.51,179.31,-133.59,102,-6103,-5807,0,0,-1
85.51,179.31,-133.59,100,-6097,-5809,0,-1,-1
85.51,179.31,-133.59,99,-6099,-5815,-1,-1,0
85.51,179.31,-133.59,97,-6102,-5802,-1,-1,-1
85.51,179.31,-133.59,103,-6103,-5803,-1,0,0
85.51,179.31,-133.59,108,-6098,-5799,0,0,0
85.51,179.31,-133.59,106,-6097,-5805,0,0,0
85.51,179.31,-133.59,101,-6099,-5800,0,-1,0
85.51,179.31,-133.58,97,-6107,-5807,-1,-1,-1
85.51,179.31,-133.59,98,-6113,-5812,-1,0,-1
85.51,179.31,-133.59,101,-6113,-5814,-1,-1,-1
85.51,179.31,-133.59,97,-6102,-5816,0,0,-1
85.51,179.31,-133.59,98,-6099,-5813,0,0,0
85.51,179.30,-133.59,100,-6091,-5808,0,0,-1
85.51,179.30,-133.59,105,-6095,-5812,0,0,0
85.51,179.30,-133.59,112,-6096,-5819,0,0,0
85.50,179.30,-133.58,106,-6098,-5821,0,0,0
85.50,179.30,-133.58,102,-6102,-5820,0,0,0
85.50,179.30,-133.58,106,-6110,-5816,-1,0,0
85.50,179.30,-133.58,108,-6108,-5806,0,0,-1
85.50,179.29,-133.58,109,-6100,-5802,-1,0,-1
85.50,179.29,-133.58,104,-6103,-5798,0,0,-1
85.50,179.29,-133.58,99,-6095,-5806,0,-1,0
85.50,179.29,-133.58,103,-6098,-5799,0,-1,0
85.50,179.30,-133.58,103,-6100,-5806,-1,-1,-1
85.50,179.30,-133.58,111,-6109,-5813,-1,-1,-1
85.50,179.30,-133.58,109,-6110,-5823,-1,-1,0
85.50,179.30,-133.58,108,-6107,-5821,-1,-1,0
85.50,179.30,-133.58,106,-6113,-5812,-1,0,0
85.51,179.30,-133.59,105,-6108,-5816,-1,0,-1
85.50,179.30,-133.58,101,-6103,-5815,0,0,0
85.50,179.30,-133.58,101,-6099,-5807,0,0,-1
85.50,179.30,-133.58,101,-6094,-5813,0,0,-1
85.50,179.30,-133.58,97,-6098,-5809,0,0,0
85.50,179.30,-133.58,99,-6099,-5813,0,-1,0
85.50,179.30,-133.58,96,-6102,-5812,0,0,0
85.50,179.30,-133.57,101,-6108,-5806,0,0,0
85.49,179.30,-133.57,101,-6109,-5808,0,0,-1
85.49,179.30,-133.57,103,-6105,-5801,-1,-1,0
85.49,179.30,-133.57,104,-6106,-5804,-1,0,-1
85.50,179.29,-133.58,99,-6103,-5816,-1,0,-1
85.50,179.30,-133.58,96,-6101,-5811,-1,-1,-1
85.50,179.30,-133.58,102,-6099,-5803,0,-1,-1
85.50,179.30,-133.58,96,-6097,-5805,0,-1,0
85.50,179.30,-133.58,102,-6103,-5817,-1,-1,0
85.50,179.30,-133.58,97,-6102,-5814,0,-1,0
85.50,179.30,-133.58,102,-6108,-5816,0,0,0
85.50,179.30,-133.58,102,-6100,-5811,0,0,-1
85.50,179.30,-133.57,98,-6105,-5810,0,0,0
85.49,179.30,-133.57,98,-6105,-5802,0,0,0
85.49,179.31,-133.57,103,-6103,-5798,-1,-1,0
85.50,179.30,-133.57,104,-6104,-5803,-1,-1,0
85.50,179.30,-133.57,106,-6100,-5803,0,0,0
85.49,179.31,-133.57,106,-6099,-5808,0,0,-1
85.49,179.30,-133.56,107,-6105,-5793,0,0,-1
85.50,179.30,-133.56,111,-6105,-5790,-1,-1,-1
85.50,179.30,-133.56,110,-6102,-5802,-1,-1,-1
85.51,179.30,-133.57,111,-6098,-5812,-1,-1,0
85.51,179.31,-133.58,102,-6096,-5815,-1,-1,0
85.51,179.31,-133.58,100,-6099,-5815,-1,-1,0
85.51,179.31,-133.58,104,-6101,-5810,0,0,0
85.50,179.30,-133.58,103,-6102,-5807,0,0,0
85.51,179.31,-133.57,110,-6099,-5809,0,-1,-1
85.51,179.30,-133.57,109,-6099,-5813,0,0,0
85.50,179.30,-133.56,111,-6102,-5805,0,0,-1
85.50,179.30,-133.56,110,-6103,-5806,0,0,0
85.50,179.30,-133.56,108,-6109,-5804,-1,0,0
85.50,179.30,-133.56,105,-6108,-5800,-1,0,0
85.50,179.30,-133.56,99,-6109,-5798,-1,0,0
85.50,179.30,-133.55,98,-6114,-5783,-1,0,0
85.50,179.30,-133.55,105,-6112,-5789,-1,0,-1
85.50,179.30,-133.55,108,-6108,-5781,-1,-1,-1
85.50,179.30,-133.55,111,-6104,-5789,-1,-1,0
85.50,179.30,-133.56,105,-6104,-5805,-1,-1,0
85.51,179.30,-133.57,101,-6104,-5816,-1,-1,0
85.51,179.30,-133.57,101,-6099,-5805,-1,-1,0
85.51,179.31,-133.57,100,-6101,-5816,-1,-1,0
85.51,179.31,-133.57,103,-6097,-5806,0,0,-1
85.51,179.30,-133.57,107,-6102,-5803,0,-1,0
85.51,179.30,-133.57,100,-6106,-5802,0,-1,0
85.51,179.31,-133.57,99,-6108,-5807,-1,-1,0
85.51,179.31,-133.56,98,-6106,-5806,0,0,0
85.51,179.31,-133.56,96,-6113,-5812,0,0,-1
85.51,179.31,-133.56,99,-6108,-5808,0,-1,0
85.51,179.31,-133.56,103,-6099,-5811,-1,0,-1
85.50,179.31,-133.57,103,-6100,-5818,-1,0,-1
85.50,179.31,-133.57,105,-6102,-5810,-1,0,0
85.50,179.30,-133.58,103,-6100,-5815,-1,0,-1
85.51,179.30,-133.57,102,-6101,-5810,0,0,-1
85.51,179.30,-133.57,103,-6105,-5807,0,-1,0
85.51,179.30,-133.57,108,-6101,-5802,0,-1,0
85.51,179.31,-133.57,103,-6095,-5802,-1,-1,0
85.50,179.31,-133.57,98,-6102,-5810,-1,-1,0
85.50,179.31,-133.57,100,-6105,-5818,0,-1,0
85.50,179.31,-133.57,105,-6105,-5831,-1,0,0
85.50,179.31,-133.57,98,-6103,-5814,-1,0,-1
85.50,179.31,-133.57,103,-6097,-5809,0,0,0
85.49,179.31,-133.57,103,-6101,-5799,0,0,-1
85.51,179.30,-133.56,101,-6101,-5793,0,-1,0
85.51,179.30,-133.57,107,-6109,-5798,-1,-1,-1
85.51,179.31,-133.57,105,-6107,-5810,-1,-1,0
85.51,179.32,-133.58,94,-6109,-5823,-1,-1,0
85.51,179.32,-133.58,101,-6102,-5827,-1,-1,-1
85.52,179.31,-133.59,96,-6093,-5823,-1,0,-1
85.52,179.31,-133.59,98,-6088,-5819,-1,-1,-1
85.52,179.31,-133.59,104,-6096,-5821,-1,-1,0
85.52,179.31,-133.59,104,-6102,-5830,0,-1,0
85.52,179.31,-133.60,101,-6099,-5837,0,0,0
85.52,179.31,-133.60,98,-6094,-5834,0,0,-1
85.51,179.31,-133.60,98,-6095,-5820,0,0,-1
85.51,179.31,-133.60,100,-6099,-5807,-1,0,-1
85.51,179.31,-133.60,109,-6100,-5808,-1,0,0
85.52,179.31,-133.60,109,-6096,-5811,-1,0,-1
85.52,179.31,-133.60,111,-6100,-5810,-1,-1,-1
85.52,179.31,-133.60,107,-6100,-5805,0,-1,0
85.52,179.31,-133.60,104,-6099,-5810,-1,-1,0
85.52,179.31,-133.60,104,-6101,-5807,-1,-1,0
85.52,179.31,-133.60,107,-6102,-5810,-1,-1,0
85.51,179.32,-133.60,104,-6089,-5811,-1,-1,0
85.51,179.32,-133.60,94,-6095,-5817,-1,-1,0
85.51,179.32,-133.60,94,-6099,-5817,0,0,0
85.51,179.32,-133.60,103,-6102,-5823,0,0,0
85.51,179.32,-133.60,105,-6098,-5817,0,0,-1
85.51,179.31,-133.60,108,-6099,-5813,-1,0,-1
85.51,179.31,-133.60,108,-6100,-5815,-1,0,0
85.51,179.31,-133.60,116,-6100,-5815,-1,-1,0
85.51,179.31,-133.60,112,-6097,-5816,-1,0,0
85.51,179.31,-133.60,104,-6101,-5813,-1,0,0
85.51,179.31,-133.60,105,-6098,-5814,-1,-1,0
85.51,179.31,-133.60,110,-6104,-5803,-1,0,0
85.51,179.31,-133.60,105,-6106,-5808,-1,0,0
85.51,179.31,-133.60,105,-6102,-5808,-1,0,-1
85.51,179.31,-133.60,103,-6104,-5810,-1,-1,0
85.51,179.31,-133.61,104,-6098,-5802,-1,-1,0
85.51,179.31,-133.61,104,-6102,-5814,0,-1,0
85.51,179.31,-133.61,94,-6101,-5820,-1,-1,0
85.51,179.31,-133.61,104,-6102,-5815,0,0,0
85.51,179.31,-133.61,107,-6106,-5814,0,-1,0
85.51,179.31,-133.60,113,-6102,-5811,-1,-1,0
85.51,179.31,-133.61,111,-6099,-5815,-1,0,-1
85.51,179.31,-133.61,99,-6096,-5816,-1,0,0
85.51,179.31,-133.61,97,-6100,-5824,-1,0,-1
85.51,179.31,-133.61,101,-6098,-5822,-1,0,0
85.51,179.31,-133.61,104,-6102,-5816,0,-1,0
85.51,179.31,-133.61,105,-6097,-5815,0,-1,0
85.51,179.31,-133.61,107,-6099,-5817,-1,-1,0
85.51,179.31,-133.61,104,-6107,-5821,-1,-1,0
85.52,179.31,-133.61,101,-6107,-5826,-1,-1,-1
85.53,179.32,-133.62,95,-6101,-5832,-1,0,-1
85.53,179.31,-133.62,89,-6103,-5829,-1,0,-1
85.53,179.31,-133.62,99,-6098,-5822,0,0,-1
85.52,179.31,-133.62,104,-6098,-5806,0,0,-1
85.52,179.31,-133.62,109,-6098,-5811,0,0,0
85.52,179.30,-133.62,109,-6105,-5825,0,0,0
85.52,179.31,-133.62,100,-6110,-5814,0,0,0
85.51,179.31,-133.61,105,-6107,-5814,-1,0,-1
85.51,179.31,-133.61,101,-6105,-5813,0,0,0
85.51,179.31,-133.61,98,-6104,-5810,-1,0,-1
85.51,179.31,-133.61,91,-6109,-5816,-1,0,-1
85.51,179.30,-133.62,97,-6095,-5809,0,0,-1
85.51,179.30,-133.62,95,-6095,-5805,0,-1,0
85.52,179.30,-133.62,102,-6099,-5808,-1,-1,-1
85.52,179.30,-133.62,100,-6096,-5813,-1,-1,0
85.51,179.31,-133.63,96,-6103,-5828,-1,-1,0
85.51,179.32,-133.63,101,-6104,-5813,-1,-1,0
85.51,179.32,-133.63,102,-6100,-5817,-1,-1,0
85.51,179.31,-133.63,104,-6094,-5808,-1,-1,0
85.51,179.31,-133.63,100,-6088,-5819,-1,0,0
85.51,179.31,-133.63,99,-6090,-5816,0,0,-1
85.51,179.31,-133.63,96,-6096,-5818,0,0,-1
85.51,179.31,-133.63,101,-6098,-5811,0,0,0
85.51,179.31,-133.62,94,-6099,-5812,0,0,0
85.51,179.31,-133.62,97,-6105,-5820,-1,-1,0
85.51,179.32,-133.63,95,-6105,-5819,-1,-1,-1
85.51,179.31,-133.63,100,-6099,-5819,-1,0,-1
85.51,179.31,-133.63,100,-6091,-5819,-1,0,-1
85.51,179.31,-133.63,97,-6094,-5819,-1,0,-1
85.51,179.31,-133.63,97,-6100,-5821,-1,0,-1
85.51,179.31,-133.63,103,-6096,-5815,-1,0,0
85.51,179.31,-133.63,97,-6095,-5813,-1,0,0
85.51,179.31,-133.63,100,-6097,-5808,-1,-1,0
85.51,179.31,-133.63,102,-6101,-5799,0,-1,0
85.51,179.31,-133.63,104,-6094,-5802,0,0,-1
85.51,179.31,-133.63,102,-6093,-5815,-1,0,0
85.51,179.31,-133.63,102,-6089,-5814,-1,0,0
85.51,179.31,-133.63,103,-6096,-5814,0,0,0
85.51,179.31,-133.63,107,-6101,-5807,0,-1,0
85.51,179.31,-133.63,105,-6094,-5814,0,0,-1
85.51,179.31,-133.63,108,-6101,-5810,-1,0,-1
85.51,179.30,-133.63,112,-6101,-5815,-1,0,0
85.51,179.31,-133.63,102,-6112,-5802,-1,-1,0
85.51,179.31,-133.63,99,-6101,-5804,-1,-1,-1
85.51,179.31,-133.63,98,-6099,-5808,-1,-1,0
85.51,179.31,-133.63,97,-6096,-5814,0,-1,0
85.51,179.31,-133.63,98,-6103,-5815,0,-1,0
85.50,179.31,-133.61,94,-6104,-5802,0,0,0
85.51,179.31,-133.62,97,-6104,-5813,-1,-1,0
85.51,179.31,-133.62,101,-6118,-5828,-1,-1,0
85.51,179.31,-133.63,100,-6110,-5833,-1,-1,0
85.51,179.31,-133.63,98,-6095,-5825,-1,0,-1
85.51,179.31,-133.63,102,-6088,-5819,-1,0,-1
85.51,179.31,-133.63,100,-6082,-5816,0,0,-1
85.51,179.31,-133.63,101,-6093,-5823,0,0,0
85.51,179.31,-133.63,106,-6101,-5825,0,-1,0
85.51,179.31,-133.63,103,-6102,-5824,0,-1,0
85.51,179.31,-133.63,103,-6106,-5821,-1,0,-1
85.51,179.31,-133.63,100,-6104,-5810,-1,0,0
85.51,179.31,-133.63,96,-6103,-5819,-1,0,0
85.51,179.31,-133.63,104,-6101,-5829,-1,0,-1
85.51,179.31,-133.63,108,-6100,-5826,-1,0,-1
85.51,179.30,-133.63,105,-6098,-5811,0,0,-1
85.51,179.30,-133.64,104,-6099,-5806,-1,0,-1
85.51,179.29,-133.64,100,-6101,-5818,-1,0,-1
85.51,179.28,-133.65,103,-6097,-5829,-1,0,-1
85.52,179.28,-133.66,107,-6098,-5836,-1,0,0
85.52,179.28,-133.66,113,-6100,-5836,-1,0,-1
85.51,179.27,-133.66,111,-6096,-5837,-1,0,-1
85.51,179.26,-133.67,109,-6111,-5853,-1,0,-1
85.50,179.25,-133.67,112,-6133,-5869,0,0,-1
85.50,179.22,-133.66,113,-6132,-5868,-1,0,-1
85.48,179.19,-133.66,110,-6122,-5863,0,1,-1
85.47,179.15,-133.66,118,-6103,-5848,0,0,-1
85.46,179.12,-133.65,128,-6092,-5824,0,0,-1
85.47,179.09,-133.64,136,-6078,-5801,0,0,-1
85.45,179.07,-133.62,139,-6075,-5780,0,0,-1
85.44,179.06,-133.61,128,-6083,-5788,0,0,-1
85.44,179.05,-133.59,125,-6100,-5804,0,0,-1
85.44,179.03,-133.59,123,-6109,-5808,0,0,-1
85.42,179.01,-133.58,123,-6119,-5828,0,0,-1
85.42,178.98,-133.57,136,-6113,-5820,0,0,-1
85.40,178.95,-133.55,146,-6106,-5811,0,0,-1
85.40,178.92,-133.53,155,-6101,-5799,0,0,-1
85.38,178.89,-133.50,165,-6101,-5805,1,0,-1
85.37,178.86,-133.48,189,-6108,-5816,1,0,-1
85.37,178.83,-133.45,191,-6119,-5819,1,0,-1
85.36,178.82,-133.41,186,-6119,-5808,1,0,-1
85.35,178.82,-133.37,176,-6115,-5800,1,0,0
85.33,178.82,-133.34,168,-6120,-5784,1,0,0
85.32,178.81,-133.32,167,-6121,-5775,0,0,-1
85.31,178.80,-133.29,169,-6123,-5767,0,0,-1
85.30,178.79,-133.27,170,-6126,-5774,0,0,-1
85.29,178.77,-133.26,180,-6139,-5778,0,0,-1
85.29,178.76,-133.24,189,-6136,-5775,0,0,-1
85.28,178.74,-133.23,197,-6130,-5755,0,0,-1
85.28,178.73,-133.23,195,-6129,-5751,-1,0,-1
85.28,178.72,-133.24,199,-6133,-5762,-1,0,-1
85.28,178.72,-133.25,206,-6133,-5765,-1,0,0
85.29,178.72,-133.27,209,-6127,-5772,-1,-1,0
85.29,178.72,-133.27,207,-6123,-5759,0,-1,0
85.28,178.73,-133.26,204,-6122,-5755,0,-1,0
85.28,178.75,-133.25,192,-6117,-5744,0,-1,0
85.28,178.76,-133.24,200,-6112,-5754,0,-1,0
85.27,178.79,-133.23,188,-6127,-5766,0,-1,0
85.27,178.81,-133.21,175,-6146,-5780,0,-1,0
85.26,178.83,-133.18,172,-6150,-5767,1,-1,0
85.26,178.85,-133.15,166,-6153,-5760,0,-1,0
85.26,178.86,-133.13,174,-6163,-5755,0,-1,0
85.26,178.88,-133.12,182,-6176,-5757,-1,-1,0
85.26,178.90,-133.13,176,-6168,-5757,-1,-1,0
85.27,178.92,-133.15,169,-6151,-5758,-1,-1,0
85.28,178.94,-133.16,158,-6129,-5753,-1,-1,0
85.29,178.96,-133.17,152,-6127,-5747,-1,-1,0
85.29,178.99,-133.18,145,-6135,-5753,0,-1,0
85.29,179.02,-133.17,148,-6145,-5753,0,-1,0
85.30,179.04,-133.17,148,-6146,-5749,-1,-1,0
85.30,179.05,-133.18,156,-6145,-5752,-1,-1,0
85.31,179.07,-133.20,154,-6133,-5755,-1,-1,0
85.31,179.07,-133.21,161,-6126,-5770,-1,-1,0
85.32,179.08,-133.22,165,-6129,-5778,-1,-1,0
85.32,179.09,-133.23,158,-6146,-5793,-1,-1,0
85.32,179.10,-133.23,152,-6167,-5819,0,-1,0
85.33,179.11,-133.23,144,-6172,-5819,0,-1,0
85.32,179.13,-133.21,138,-6154,-5786,0,-1,0
85.33,179.14,-133.21,137,-6130,-5750,-1,-1,0
85.34,179.15,-133.21,137,-6138,-5743,-1,-1,0
85.34,179.16,-133.23,134,-6155,-5776,-1,-1,0
85.34,179.16,-133.24,132,-6163,-5796,-1,-1,0
85.34,179.17,-133.25,128,-6161,-5808,0,-1,-1
85.34,179.17,-133.24,130,-6144,-5783,0,-1,0
85.34,179.17,-133.24,131,-6135,-5760,0,-1,0
85.34,179.18,-133.23,137,-6124,-5747,-1,-1,0
85.35,179.19,-133.23,128,-6125,-5747,-1,-1,0
85.36,179.21,-133.23,129,-6129,-5748,-1,-1,0
85.36,179.23,-133.24,137,-6131,-5758,-1,-1,0
85.37,179.24,-133.24,135,-6138,-5779,-1,-1,0
85.37,179.26,-133.25,132,-6149,-5798,-1,-1,0
85.38,179.26,-133.25,127,-6150,-5803,0,-1,0
85.38,179.27,-133.25,122,-6154,-5798,0,-1,0
85.37,179.27,-133.24,120,-6160,-5780,0,-1,0
85.37,179.27,-133.24,122,-6143,-5765,0,-1,-1
85.37,179.27,-133.24,122,-6132,-5769,-1,-1,0
85.38,179.27,-133.25,124,-6130,-5781,-1,-1,0
85.38,179.27,-133.25,123,-6131,-5783,0,-1,0
85.37,179.27,-133.23,117,-6124,-5778,0,-1,0
85.37,179.27,-133.23,111,-6125,-5772,0,-1,0
85.38,179.28,-133.23,117,-6136,-5772,-1,-1,0
85.36,179.29,-133.23,110,-6150,-5771,0,-1,0
85.36,179.29,-133.23,113,-6144,-5771,0,-1,0
85.37,179.29,-133.22,120,-6138,-5765,0,-1,0
85.37,179.29,-133.22,121,-6135,-5765,0,-1,0
85.37,179.30,-133.21,121,-6147,-5774,-1,-1,0
85.36,179.30,-133.23,122,-6158,-5779,-1,-1,-1
85.36,179.29,-133.23,134,-6155,-5783,-1,0,0
85.37,179.28,-133.25,132,-6141,-5784,-1,0,0
85.37,179.29,-133.24,133,-6133,-5782,0,-1,0
85.36,179.28,-133.23,134,-6128,-5778,0,-1,0
85.36,179.29,-133.21,129,-6138,-5768,0,-1,0
85.35,179.29,-133.20,122,-6149,-5757,0,-1,0
85.36,179.31,-133.19,115,-6155,-5752,-1,-1,0
85.36,179.33,-133.20,105,-6157,-5739,-1,-1,0
85.36,179.34,-133.22,92,-6166,-5758,-1,-1,0
85.36,179.33,-133.24,95,-6161,-5776,-1,0,-1
85.37,179.32,-133.24,103,-6154,-5780,-1,0,-1
85.36,179.30,-133.24,116,-6128,-5772,0,0,-1
85.37,179.28,-133.25,129,-6110,-5749,-1,0,-1
85.37,179.28,-133.27,125,-6109,-5755,-1,-1,-1
85.38,179.29,-133.28,124,-6121,-5766,-1,-1,0
85.38,179.30,-133.29,121,-6117,-5766,-1,-1,0
85.39,179.31,-133.29,118,-6112,-5768,0,-1,0
85.38,179.33,-133.26,107,-6128,-5777,0,-1,0
85.38,179.34,-133.24,110,-6134,-5782,0,-1,0
85.38,179.35,-133.22,105,-6155,-5767,0,-1,0
85.38,179.35,-133.21,102,-6177,-5755,-1,-1,-1
85.40,179.35,-133.23,101,-6164,-5764,-1,-1,-1
85.40,179.34,-133.26,101,-6147,-5761,-2,-1,-1
85.41,179.34,-133.30,105,-6135,-5768,-1,0,-1
85.42,179.33,-133.32,112,-6116,-5743,-1,0,-1
85.43,179.31,-133.34,118,-6119,-5753,-1,0,-1
85.45,179.31,-133.35,131,-6129,-5788,-1,-1,0
85.46,179.32,-133.36,130,-6122,-5779,-1,-1,0
85.46,179.33,-133.37,122,-6112,-5782,-1,-1,0
85.47,179.33,-133.39,119,-6112,-5777,-2,-1,-1
85.49,179.33,-133.42,117,-6144,-5823,-1,-1,-1
85.50,179.34,-133.44,121,-6160,-5846,-1,-1,0
85.50,179.36,-133.43,138,-6135,-5833,0,-1,0
85.50,179.39,-133.42,135,-6089,-5812,0,-1,0
85.50,179.42,-133.40,127,-6081,-5811,1,-1,0
85.50,179.45,-133.37,124,-6110,-5822,1,-1,0
85.49,179.47,-133.32,110,-6155,-5809,1,-1,0
85.50,179.49,-133.29,103,-6184,-5817,0,-1,0
85.50,179.51,-133.28,109,-6183,-5826,0,-1,0
85.51,179.54,-133.26,93,-6152,-5789,0,-1,0
85.51,179.57,-133.24,71,-6120,-5734,0,-1,0
85.52,179.59,-133.21,66,-6110,-5697,0,-1,0
85.55,179.62,-133.21,63,-6125,-5724,-1,-1,0
85.56,179.63,-133.23,73,-6158,-5798,-1,-1,0
85.56,179.65,-133.23,78,-6158,-5827,0,-1,0
85.56,179.68,-133.22,72,-6131,-5791,0,-1,0
85.56,179.70,-133.20,63,-6119,-5750,0,-1,0
85.57,179.73,-133.16,59,-6127,-5732,1,-1,0
85.58,179.75,-133.13,61,-6142,-5743,0,-1,0
85.58,179.77,-133.12,52,-6157,-5749,0,-1,0
85.59,179.76,-133.12,51,-6170,-5768,-1,0,-1
85.60,179.75,-133.14,58,-6171,-5777,-1,0,-1
85.59,179.74,-133.14,48,-6144,-5741,-1,0,-1
85.60,179.72,-133.14,50,-6109,-5742,0,0,-1
85.62,179.70,-133.12,69,-6114,-5783,1,0,-1
85.62,179.67,-133.11,96,-6132,-5781,-1,0,-1
85.62,179.65,-133.13,93,-6187,-5800,-2,0,-1
85.64,179.65,-133.17,69,-6205,-5798,-3,0,-1
85.63,179.63,-133.22,71,-6190,-5784,-2,0,-1
85.64,179.63,-133.26,75,-6123,-5723,-1,-1,0
85.66,179.65,-133.27,72,-6072,-5686,-1,-1,0
85.68,179.68,-133.29,74,-6069,-5709,-1,-2,0
85.71,179.70,-133.33,66,-6096,-5729,-3,-2,0
85.72,179.72,-133.38,49,-6153,-5801,-2,-1,0
85.74,179.73,-133.44,43,-6182,-5848,-2,-1,-1
85.76,179.74,-133.48,44,-6171,-5866,-2,-1,0
85.75,179.73,-133.51,52,-6149,-5864,-1,0,-1
85.76,179.72,-133.53,64,-6119,-5833,-1,0,-1
85.75,179.70,-133.53,77,-6106,-5823,-1,0,-1
85.75,179.69,-133.54,84,-6107,-5810,-1,0,0
85.73,179.70,-133.54,84,-6115,-5815,-1,-1,0
85.74,179.71,-133.54,81,-6116,-5823,0,-1,0
85.72,179.71,-133.53,78,-6117,-5825,0,-1,0
85.71,179.72,-133.51,76,-6112,-5808,0,-1,0
85.70,179.73,-133.49,74,-6116,-5794,0,-1,0
85.69,179.75,-133.45,70,-6112,-5787,1,-1,0
85.69,179.77,-133.41,63,-6109,-5773,1,-1,0
85.68,179.79,-133.39,46,-6120,-5782,0,-1,0
85.67,179.81,-133.36,35,-6135,-5779,0,-1,0
85.67,179.82,-133.35,39,-6149,-5771,0,-1,0
85.68,179.82,-133.36,38,-6154,-5782,-1,-1,-1
85.68,179.82,-133.38,46,-6149,-5794,-2,-1,-1
85.68,179.81,-133.42,49,-6134,-5810,-1,0,-1
85.69,179.80,-133.44,56,-6116,-5808,-1,0,-1
85.68,179.79,-133.44,61,-6104,-5805,0,0,-1
85.68,179.79,-133.43,58,-6100,-5789,0,-1,0
85.68,179.81,-133.42,49,-6111,-5771,-1,-1,0
85.68,179.82,-133.43,41,-6132,-5783,-1,-1,0
85.70,179.83,-133.46,38,-6131,-5798,-2,-1,0
85.71,179.84,-133.50,44,-6128,-5806,-2,-1,0
85.71,179.84,-133.52,41,-6116,-5807,-1,-1,-1
85.73,179.83,-133.54,45,-6112,-5800,-1,-1,-1
85.73,179.83,-133.54,46,-6104,-5794,0,-1,0
85.73,179.84,-133.52,37,-6092,-5772,0,-1,0
85.75,179.86,-133.51,34,-6098,-5764,0,-1,0
85.74,179.87,-133.50,37,-6120,-5777,0,-1,0
85.76,179.89,-133.50,29,-6134,-5798,-1,-1,0
85.75,179.90,-133.50,38,-6137,-5821,-1,-1,0
85.76,179.91,-133.50,45,-6126,-5819,0,-1,0
85.76,179.91,-133.50,39,-6117,-5816,0,-1,0
85.77,179.92,-133.48,50,-6116,-5821,0,-1,0
85.77,179.92,-133.48,48,-6123,-5825,0,-1,0
85.77,179.93,-133.47,45,-6129,-5829,0,-1,0
85.76,179.93,-133.46,33,-6135,-5834,0,-1,0
85.76,179.93,-133.46,23,-6132,-5820,0,0,0
85.74,179.93,-133.46,30,-6132,-5818,0,0,0
85.73,179.91,-133.44,32,-6118,-5804,0,0,0
85.72,179.91,-133.43,34,-6111,-5789,0,0,-1
85.71,179.90,-133.42,36,-6119,-5792,0,0,-1
85.72,179.89,-133.42,49,-6137,-5787,-1,0,-1
85.71,179.88,-133.42,41,-6133,-5787,-1,0,0
85.70,179.88,-133.43,38,-6111,-5788,-1,-1,0
85.70,179.89,-133.43,35,-6103,-5787,-1,-1,0
85.70,179.89,-133.43,35,-6108,-5789,0,-1,0
85.69,179.89,-133.43,38,-6120,-5782,0,-1,0
85.71,179.89,-133.43,37,-6127,-5783,-1,-1,0
85.70,179.89,-133.44,36,-6130,-5775,-1,-1,0
85.72,179.90,-133.46,30,-6127,-5771,-2,-1,0
85.73,179.91,-133.49,20,-6122,-5795,-1,-1,-1
85.73,179.91,-133.52,24,-6116,-5794,-1,-1,-1
85.75,179.90,-133.52,37,-6094,-5799,0,-1,-1
85.75,179.90,-133.52,43,-6086,-5786,0,-1,0
85.75,179.91,-133.50,46,-6082,-5773,0,-1,0
85.76,179.92,-133.49,37,-6097,-5780,-1,-1,0
85.78,179.93,-133.51,29,-6128,-5818,-1,-1,0
85.78,179.95,-133.52,36,-6124,-5838,-1,-1,0
85.78,179.95,-133.51,38,-6108,-5829,0,-1,0
85.78,179.97,-133.50,38,-6089,-5808,0,-1,0
85.78,179.97,-133.48,36,-6112,-5803,0,-1,0
85.77,179.97,-133.47,23,-6144,-5814,0,-1,0
85.78,179.96,-133.48,27,-6154,-5827,-1,0,-1
85.78,179.95,-133.49,31,-6135,-5825,-1,0,-1
85.76,179.93,-133.50,39,-6111,-5827,-1,0,-1
85.75,179.91,-133.50,44,-6096,-5818,0,0,-1
85.74,179.89,-133.49,54,-6088,-5800,0,0,0
85.74,179.90,-133.49,50,-6100,-5792,0,-1,0
85.74,179.90,-133.49,31,-6112,-5796,-1,-1,0
85.75,179.91,-133.49,23,-6129,-5810,-1,0,0
85.73,179.90,-133.49,26,-6121,-5808,0,0,0
85.74,179.90,-133.48,39,-6100,-5790,0,-1,0
85.74,179.90,-133.48,34,-6094,-5775,-1,-1,0
85.74,179.91,-133.48,31,-6115,-5775,-1,-1,0
85.75,179.91,-133.49,25,-6134,-5780,-1,-1,-1
85.76,179.91,-133.50,27,-6140,-5788,-1,-1,-1
85.77,179.90,-133.52,27,-6123,-5796,-1,-1,-1
85.77,179.90,-133.53,32,-6105,-5794,-1,-1,-1
85.78,179.91,-133.53,30,-6097,-5798,0,-1,0
85.79,179.92,-133.53,30,-6098,-5800,0,-1,0
85.78,179.94,-133.52,32,-6104,-5803,0,-1,0
85.78,179.94,-133.50,29,-6109,-5802,0,-1,0
85.78,179.96,-133.49,24,-6120,-5806,0,-1,0
85.79,179.97,-133.50,16,-6131,-5811,-1,-1,0
85.79,179.97,-133.51,19,-6135,-5825,-1,-1,0
85.79,179.97,-133.52,27,-6122,-5823,-1,-1,-1
85.79,179.97,-133.52,28,-6110,-5818,0,0,-1
85.80,179.96,-133.51,37,-6101,-5805,0,0,0
85.78,179.96,-133.49,32,-6107,-5805,0,0,0
85.78,179.96,-133.49,25,-6122,-5802,0,0,0
85.77,179.96,-133.48,29,-6126,-5795,0,0,0
85.76,179.95,-133.48,43,-6118,-5803,0,0,0
85.76,179.94,-133.48,40,-6120,-5818,0,0,0
85.76,179.94,-133.48,38,-6129,-5827,0,0,0
85.75,179.93,-133.48,35,-6129,-5817,0,0,-1
85.75,179.93,-133.47,28,-6115,-5794,0,0,0
85.75,179.92,-133.46,30,-6099,-5774,0,-1,0
85.75,179.93,-133.45,28,-6097,-5769,0,-1,0
85.75,179.94,-133.44,28,-6112,-5776,0,-1,0
85.75,179.94,-133.44,24,-6118,-5786,0,-1,0
85.75,179.95,-133.43,21,-6126,-5801,0,-1,0
85.76,179.96,-133.43,26,-6128,-5809,-1,-1,0
85.76,179.96,-133.43,28,-6137,-5808,-1,-1,0
85.76,179.96,-133.44,19,-6137,-5809,-1,-1,-1
85.77,179.96,-133.45,24,-6136,-5814,-1,0,-1
85.77,179.95,-133.46,29,-6129,-5820,-1,0,-1
85.77,179.94,-133.47,28,-6117,-5818,-1,0,-1
85.77,179.92,-133.48,40,-6115,-5815,0,0,-1
85.76,179.92,-133.47,32,-6111,-5803,0,0,-1
85.77,179.91,-133.47,33,-6111,-5788,0,0,0
85.76,179.91,-133.46,33,-6108,-5778,0,-1,0
85.76,179.91,-133.46,33,-6094,-5782,0,-1,0
85.77,179.93,-133.46,31,-6106,-5789,0,-1,0
85.77,179.93,-133.45,30,-6126,-5814,0,-1,0
85.76,179.93,-133.45,29,-6139,-5827,0,0,0
85.75,179.92,-133.44,31,-6142,-5816,0,0,-1
85.75,179.92,-133.44,31,-6144,-5803,0,0,-1
85.75,179.90,-133.43,33,-6130,-5789,-1,0,-1
85.74,179.89,-133.43,30,-6116,-5778,-1,0,-1
85.74,179.89,-133.43,35,-6109,-5769,-1,-1,0
85.74,179.89,-133.43,35,-6112,-5767,-1,-1,0
85.74,179.90,-133.44,35,-6122,-5784,-1,-1,0
85.75,179.91,-133.44,30,-6121,-5787,-1,-1,0
85.75,179.92,-133.44,26,-6124,-5794,-1,-1,0
85.76,179.93,-133.45,24,-6114,-5793,-1,-1,0
85.77,179.94,-133.45,18,-6110,-5790,0,-1,0
85.77,179.94,-133.45,25,-6117,-5797,-1,-1,0
85.77,179.94,-133.45,26,-6124,-5794,-1,-1,0
85.78,179.95,-133.45,23,-6124,-5794,-1,-1,0
85.78,179.95,-133.46,28,-6117,-5804,-1,-1,0
85.79,179.96,-133.46,29,-6117,-5807,-1,-1,0
85.80,179.96,-133.47,22,-6116,-5817,0,-1,0
85.80,179.97,-133.46,23,-6114,-5815,0,-1,0
85.79,179.97,-133.46,26,-6112,-5804,0,-1,0
85.79,179.98,-133.45,19,-6116,-5810,0,-1,0
85.79,179.98,-133.45,20,-6127,-5819,0,-1,0
85.79,179.97,-133.45,24,-6144,-5835,-1,0,0
85.77,179.96,-133.45,17,-6166,-5851,-1,0,-1
85.77,179.93,-133.46,25,-6174,-5869,-1,0,-1
85.76,179.90,-133.47,31,-6157,-5853,-1,0,-1
85.76,179.87,-133.47,35,-6101,-5789,0,0,-1
85.75,179.86,-133.45,46,-6050,-5727,0,0,0
85.74,179.87,-133.43,55,-6029,-5693,0,-1,0
85.74,179.89,-133.41,49,-6048,-5688,0,-2,0
85.76,179.93,-133.40,37,-6079,-5709,0,-2,0
85.77,179.98,-133.39,22,-6114,-5737,-1,-2,0
85.78,-179.98,-133.40,8,-6149,-5786,-1,-2,0
85.79,-179.96,-133.42,6,-6162,-5811,-1,-1,0
85.80,-179.97,-133.43,-1,-6150,-5816,-1,-1,-1
85.80,-179.97,-133.44,5,-6129,-5806,-1,0,-1
85.82,-179.98,-133.45,17,-6125,-5797,-1,0,-1
85.82,-179.99,-133.45,28,-6131,-5813,-1,-1,-1
85.82,-180.00,-133.46,34,-6142,-5829,-1,-1,-1
85.82,-180.00,-133.46,40,-6150,-5849,0,-1,0
85.81,179.99,-133.46,42,-6143,-5840,0,0,0
85.81,180.00,-133.46,31,-6127,-5818,0,-1,0
85.80,-180.00,-133.46,24,-6117,-5794,0,-1,0
85.79,180.00,-133.45,15,-6114,-5799,0,0,0
85.79,180.00,-133.44,13,-6124,-5800,0,0,0
85.78,180.00,-133.44,9,-6130,-5811,0,0,-1
85.78,179.99,-133.42,15,-6139,-5808,0,0,-1
85.77,179.98,-133.42,18,-6136,-5798,0,0,-1
85.76,179.97,-133.41,27,-6118,-5773,0,-1,0
85.76,179.97,-133.41,27,-6103,-5765,-1,-1,0
85.77,179.98,-133.41,23,-6103,-5759,-1,-1,0
85.77,179.99,-133.42,23,-6109,-5763,-1,-1,0
85.79,-180.00,-133.42,21,-6109,-5770,-1,-1,0
85.79,-180.00,-133.42,21,-6107,-5783,-1,-1,0
85.80,-179.99,-133.44,26,-6120,-5795,-1,-1,0
85.81,-179.98,-133.44,25,-6124,-5803,-1,-1,0
85.82,-179.99,-133.45,23,-6130,-5804,-1,-1,-1
85.80,-179.99,-133.46,20,-6126,-5800,-1,-1,0
85.81,-179.99,-133.46,24,-6116,-5796,-1,-1,0
85.82,-179.98,-133.47,26,-6111,-5785,-1,-1,0
85.82,-179.98,-133.48,14,-6101,-5792,-1,-1,0
85.83,-179.98,-133.49,16,-6107,-5800,-1,-1,0
85.83,-179.98,-133.49,20,-6112,-5810,-1,-1,0
85.84,-179.98,-133.49,23,-6113,-5818,0,-1,0
85.84,-179.97,-133.49,23,-6118,-5817,0,-1,0
85.84,-179.97,-133.49,21,-6118,-5810,0,-1,0
85.84,-179.97,-133.49,19,-6119,-5801,0,-1,-1
85.84,-179.97,-133.49,18,-6119,-5796,-1,-1,0
85.84,-179.97,-133.49,17,-6118,-5790,-1,-1,0
85.84,-179.97,-133.49,11,-6120,-5804,-1,-1,0
85.84,-179.97,-133.51,18,-6134,-5825,-1,0,-1
85.84,-179.99,-133.51,18,-6143,-5838,-1,0,-1
85.83,179.99,-133.51,22,-6129,-5827,0,0,-1
85.82,179.98,-133.51,25,-6105,-5788,0,0,-1
85.81,179.98,-133.50,27,-6083,-5759,0,-1,0
85.82,179.98,-133.48,27,-6071,-5739,0,-1,0
85.83,179.99,-133.48,29,-6082,-5749,-1,-1,0
85.84,-180.00,-133.49,23,-6099,-5786,-1,-1,0
85.83,-179.99,-133.49,21,-6125,-5810,-1,-1,0
85.84,-179.98,-133.50,19,-6135,-5819,-1,-1,0
85.85,-179.98,-133.51,15,-6128,-5815,-1,-1,-1
85.85,-179.98,-133.51,10,-6124,-5811,-1,-1,-1
85.86,-179.98,-133.52,16,-6110,-5807,-1,-1,-1
85.86,-179.98,-133.52,16,-6101,-5800,-1,-1,-1
85.88,-179.99,-133.53,27,-6102,-5797,-1,-1,0
85.88,-179.99,-133.53,27,-6103,-5802,-1,-1,0
85.87,-179.98,-133.54,23,-6107,-5814,-1,-1,0
85.87,-179.98,-133.54,19,-6119,-5830,0,0,0
85.86,-179.99,-133.54,20,-6129,-5849,0,0,0
85.86,-179.99,-133.53,24,-6128,-5841,0,0,-1
85.86,-180.00,-133.52,20,-6129,-5829,0,0,0
85.85,179.99,-133.51,26,-6126,-5818,0,0,-1
85.83,179.99,-133.50,24,-6109,-5786,0,0,0
85.83,179.99,-133.49,18,-6092,-5769,0,-1,0
85.83,179.99,-133.47,14,-6093,-5749,0,-1,0
85.83,-180.00,-133.47,14,-6100,-5750,-1,-1,0
85.83,-179.99,-133.47,13,-6104,-5768,-1,-1,0
85.84,-179.98,-133.48,11,-6118,-5789,-1,-1,0
85.84,-179.98,-133.48,12,-6134,-5805,-1,-1,0
85.85,-179.98,-133.49,11,-6132,-5804,-1,-1,-1
85.86,-179.98,-133.50,13,-6126,-5816,-1,0,-1
85.86,-179.99,-133.51,26,-6118,-5810,-1,-1,-1
85.86,-180.00,-133.52,28,-6110,-5819,-1,-1,-1
85.86,-180.00,-133.52,33,-6095,-5814,-1,-1,0
85.86,-179.99,-133.52,26,-6093,-5801,0,-1,0
85.86,-179.99,-133.51,21,-6098,-5797,0,-1,0
85.86,-179.98,-133.51,19,-6109,-5790,0,-1,0
85.87,-179.97,-133.51,16,-6127,-5809,-1,-1,0
85.87,-179.97,-133.51,12,-6137,-5833,-1,-1,0
85.86,-179.97,-133.52,13,-6149,-5854,-1,0,-1
85.86,-179.98,-133.51,16,-6135,-5838,0,0,-1
85.86,-179.99,-133.51,19,-6119,-5815,0,0,-1
85.85,-180.00,-133.51,22,-6102,-5799,0,0,0
85.84,180.00,-133.50,16,-6101,-5797,0,0,0
85.84,-180.00,-133.50,14,-6102,-5790,0,-1,0
85.84,-180.00,-133.50,15,-6102,-5785,-1,-1,0
85.84,-179.99,-133.49,12,-6105,-5779,-1,-1,0
85.85,-179.99,-133.50,10,-6112,-5780,-1,-1,0
85.86,-179.98,-133.50,7,-6117,-5790,-1,-1,0
85.86,-179.98,-133.50,16,-6119,-5807,-1,-1,0
85.86,-179.98,-133.50,17,-6124,-5801,-1,-1,-1
85.86,-179.98,-133.51,20,-6124,-5797,-1,-1,0
85.86,-179.98,-133.51,22,-6124,-5795,-1,-1,0
85.86,-179.98,-133.51,23,-6120,-5797,-1,-1,0
85.87,-179.98,-133.52,20,-6110,-5799,-1,-1,0
85.88,-179.98,-133.52,12,-6108,-5803,-1,-1,0
85.88,-179.98,-133.52,19,-6108,-5804,0,-1,0
85.88,-179.98,-133.52,24,-6106,-5807,0,-1,0
85.87,-179.98,-133.51,25,-6102,-5801,0,-1,0
85.87,-179.97,-133.51,16,-6105,-5794,0,-1,0
85.87,-179.96,-133.50,10,-6109,-5790,0,-1,0
85.86,-179.96,-133.49,13,-6119,-5789,0,-1,0
85.87,-179.95,-133.49,14,-6132,-5802,-1,-1,0
85.87,-179.96,-133.49,16,-6152,-5836,-1,-1,0
85.87,-179.97,-133.50,12,-6158,-5858,-1,0,-1
85.86,-179.97,-133.50,12,-6142,-5851,0,0,-1
85.86,-179.98,-133.50,11,-6111,-5809,0,0,-1
85.85,-179.99,-133.50,17,-6088,-5759,0,-1,0
85.85,-179.98,-133.49,17,-6090,-5757,-1,-1,0
85.86,-179.98,-133.50,18,-6104,-5769,-1,-1,0
85.86,-179.97,-133.50,15,-6118,-5794,-1,-1,0
85.86,-179.96,-133.49,13,-6124,-5810,0,-1,0
85.86,-179.97,-133.49,15,-6126,-5814,0,-1,0
85.86,-179.97,-133.47,14,-6122,-5800,0,-1,0
85.86,-179.97,-133.47,12,-6121,-5794,0,0,-1
85.86,-179.97,-133.47,17,-6119,-5792,-1,-1,-1
85.86,-179.98,-133.48,15,-6110,-5784,-1,-1,-1
85.87,-179.97,-133.49,10,-6112,-5784,-1,-1,0
85.87,-179.97,-133.49,16,-6113,-5797,-1,-1,0
85.88,-179.97,-133.50,16,-6114,-5798,0,-1,-1
85.87,-179.98,-133.49,18,-6115,-5810,0,-1,0
85.87,-179.97,-133.49,10,-6117,-5805,0,-1,0
85.87,-179.97,-133.48,3,-6124,-5810,0,0,0
85.86,-179.97,-133.48,10,-6122,-5811,0,0,-1
85.86,-179.97,-133.48,10,-6120,-5813,0,0,-1
85.86,-179.98,-133.48,18,-6120,-5803,0,0,-1
85.85,-179.99,-133.48,21,-6121,-5810,0,0,0
85.85,-179.99,-133.48,18,-6113,-5802,0,0,0
85.85,-179.99,-133.48,23,-6103,-5789,0,-1,0
85.84,-179.99,-133.47,16,-6102,-5786,0,-1,0
85.84,-179.99,-133.46,21,-6101,-5790,0,-1,0
85.85,-179.98,-133.47,16,-6118,-5799,-1,-1,0
85.85,-179.98,-133.47,20,-6124,-5793,-1,-1,0
85.85,-179.98,-133.47,17,-6129,-5793,-1,-1,0
85.85,-179.98,-133.47,23,-6121,-5804,-1,-1,0
85.86,-179.99,-133.48,24,-6108,-5807,-1,-1,0
85.86,-179.99,-133.48,23,-6110,-5800,-1,-1,0
85.87,-179.99,-133.48,26,-6110,-5787,-1,-1,0
85.88,-179.98,-133.48,25,-6116,-5795,-1,-1,0
85.88,-179.98,-133.48,22,-6123,-5804,-1,-1,0
85.88,-179.97,-133.49,25,-6127,-5810,-1,-1,0
85.88,-179.97,-133.49,18,-6132,-5815,0,-1,0
85.88,-179.97,-133.49,16,-6132,-5813,0,0,0
85.88,-179.98,-133.48,20,-6126,-5795,-1,-1,0
85.88,-179.98,-133.48,21,-6111,-5784,-1,-1,0
85.88,-179.98,-133.48,16,-6106,-5786,-1,-1,0
85.87,-179.98,-133.49,17,-6108,-5797,-1,-1,0
85.87,-179.98,-133.49,24,-6107,-5806,-1,-1,0
85.87,-179.98,-133.49,27,-6110,-5801,0,-1,0
85.87,-179.98,-133.49,28,-6112,-5805,0,-1,0
85.87,-179.98,-133.49,20,-6115,-5798,0,-1,0
85.88,-179.97,-133.49,14,-6114,-5795,0,-1,0
85.88,-179.97,-133.49,22,-6111,-5791,-1,-1,0
85.88,-179.97,-133.49,19,-6115,-5801,-1,-1,0
85.88,-179.97,-133.49,11,-6119,-5803,-1,-1,0
85.88,-179.97,-133.49,9,-6121,-5803,-1,-1,-1
85.88,-179.97,-133.49,10,-6112,-5805,0,-1,0
85.88,-179.97,-133.50,13,-6109,-5797,-1,-1,0
85.88,-179.97,-133.49,8,-6108,-5789,0,-1,0
85.88,-179.97,-133.49,11,-6121,-5803,-1,-1,0
85.88,-179.97,-133.49,17,-6124,-5803,-1,-1,0
85.88,-179.97,-133.49,13,-6125,-5802,-1,-1,0
85.88,-179.97,-133.49,12,-6122,-5805,-1,-1,0
85.88,-179.97,-133.50,11,-6119,-5796,-1,0,-1
85.89,-179.98,-133.50,11,-6111,-5784,-1,-1,0
85.88,-179.97,-133.50,10,-6102,-5792,-1,-1,0
85.88,-179.97,-133.49,11,-6107,-5797,0,-1,0
85.89,-179.97,-133.49,13,-6114,-5796,0,-1,0
85.89,-179.97,-133.49,15,-6120,-5803,-1,-1,0
85.89,-179.97,-133.49,20,-6122,-5806,-1,-1,0
85.89,-179.97,-133.50,21,-6116,-5794,-1,-1,0
85.89,-179.97,-133.50,19,-6111,-5799,-1,-1,0
85.89,-179.97,-133.50,17,-6110,-5811,0,-1,0
85.89,-179.97,-133.50,17,-6111,-5801,0,-1,0
85.89,-179.97,-133.50,16,-6105,-5792,0,-1,0
85.89,-179.97,-133.49,17,-6112,-5796,0,-1,0
85.89,-179.97,-133.49,19,-6123,-5806,-1,-1,0
85.89,-179.97,-133.49,21,-6127,-5813,0,-1,0
85.89,-179.97,-133.49,21,-6123,-5815,0,0,0
85.89,-179.97,-133.49,23,-6111,-5800,0,-1,0
85.89,-179.97,-133.49,19,-6106,-5800,0,-1,0
85.89,-179.97,-133.49,11,-6112,-5807,-1,-1,0
85.89,-179.97,-133.50,9,-6113,-5807,-1,-1,0
85.90,-179.97,-133.51,12,-6108,-5813,-1,-1,0
85.90,-179.97,-133.51,18,-6108,-5810,0,-1,0
85.90,-179.97,-133.51,18,-6105,-5820,0,-1,0
85.89,-179.97,-133.50,16,-6111,-5813,0,-1,0
85.89,-179.96,-133.49,13,-6118,-5805,0,-1,0
85.89,-179.96,-133.49,14,-6123,-5794,-1,-1,0
85.90,-179.96,-133.50,19,-6123,-5790,-1,-1,0
85.90,-179.96,-133.50,14,-6118,-5798,-1,-1,0
85.91,-179.96,-133.51,7,-6119,-5807,-1,-1,0
85.91,-179.96,-133.51,0,-6109,-5794,0,0,0
85.90,-179.96,-133.50,6,-6109,-5796,0,0,-1
85.90,-179.96,-133.50,17,-6114,-5794,0,-1,0
85.89,-179.97,-133.50,22,-6118,-5795,0,-1,0
85.89,-179.97,-133.50,16,-6115,-5795,-1,-1,0
85.89,-179.97,-133.50,17,-6118,-5795,-1,-1,0
85.89,-179.97,-133.50,15,-6123,-5795,-1,-1,0
85.89,-179.97,-133.50,14,-6123,-5791,-1,-1,0
85.89,-179.97,-133.50,12,-6112,-5790,-1,-1,0
85.90,-179.96,-133.50,11,-6111,-5794,0,-1,0
85.89,-179.96,-133.49,22,-6118,-5792,-1,-1,0
85.89,-179.96,-133.49,19,-6122,-5795,-1,-1,0
85.90,-179.96,-133.50,16,-6123,-5805,-1,-1,0
85.91,-179.96,-133.50,16,-6123,-5805,-1,-1,0
85.91,-179.96,-133.50,13,-6120,-5810,-1,-1,0
85.91,-179.95,-133.51,12,-6113,-5809,-1,-1,0
85.91,-179.95,-133.51,15,-6109,-5798,-1,-1,0
85.91,-179.95,-133.51,20,-6111,-5803,0,-1,0
85.91,-179.96,-133.50,27,-6105,-5810,0,-1,0
85.91,-179.96,-133.50,22,-6115,-5808,0,-1,0
85.91,-179.96,-133.50,20,-6122,-5803,-1,-1,0
85.91,-179.96,-133.50,23,-6118,-5807,-1,-1,0
85.91,-179.96,-133.50,21,-6109,-5805,0,-1,0
85.91,-179.96,-133.50,20,-6111,-5816,-1,-1,0
85.91,-179.96,-133.51,14,-6108,-5810,-1,-1,0
85.91,-179.96,-133.51,9,-6117,-5805,-1,-1,0
85.91,-179.96,-133.51,10,-6113,-5805,-1,-1,0
85.91,-179.96,-133.51,18,-6113,-5812,-1,-1,0
85.91,-179.96,-133.52,15,-6109,-5803,-1,-1,0
85.91,-179.96,-133.51,17,-6106,-5802,0,-1,0
85.91,-179.96,-133.51,22,-6112,-5793,0,-1,0
85.91,-179.96,-133.51,18,-6116,-5803,-1,-1,0
85.92,-179.95,-133.52,10,-6118,-5818,-1,-1,0
85.92,-179.95,-133.52,16,-6116,-5820,0,-1,0
85.92,-179.95,-133.51,18,-6112,-5806,-1,-1,0
85.92,-179.95,-133.51,14,-6112,-5802,0,-1,0
85.92,-179.94,-133.52,9,-6109,-5805,-1,-1,0
85.91,-179.95,-133.53,16,-6107,-5814,-1,-1,0
85.93,-179.95,-133.52,22,-6105,-5809,-1,-1,0
85.93,-179.95,-133.53,24,-6109,-5801,-1,-1,0
85.93,-179.95,-133.53,20,-6112,-5800,-1,-1,0
85.93,-179.96,-133.53,17,-6109,-5804,-1,-1,0
85.93,-179.95,-133.53,15,-6116,-5797,-1,-1,0
85.93,-179.96,-133.53,8,-6114,-5805,0,0,0
85.93,-179.96,-133.53,15,-6117,-5808,0,-1,0
85.92,-179.96,-133.53,19,-6116,-5809,0,-1,0
85.92,-179.96,-133.53,19,-6112,-5812,0,0,0
85.91,-179.96,-133.52,13,-6115,-5799,0,0,-1
85.91,-179.96,-133.52,10,-6109,-5804,0,-1,0
85.92,-179.97,-133.51,18,-6105,-5793,0,0,-1
85.92,-179.97,-133.51,10,-6111,-5804,0,-1,0
85.91,-179.97,-133.52,12,-6112,-5812,-1,-1,0
85.92,-179.98,-133.52,14,-6114,-5798,0,0,0
85.92,-179.98,-133.51,18,-6110,-5799,0,0,0
85.91,-179.98,-133.51,19,-6105,-5796,0,-1,0
85.91,-179.98,-133.51,15,-6114,-5805,0,-1,-1
85.91,-179.98,-133.51,19,-6122,-5807,-1,0,-1
85.91,-179.99,-133.51,18,-6117,-5813,-1,-1,-1
85.92,-179.99,-133.52,14,-6111,-5822,-1,-1,-1
85.92,-179.99,-133.52,19,-6110,-5822,0,0,-1
85.92,180.00,-133.52,25,-6107,-5805,0,0,-1
85.92,179.99,-133.52,23,-6107,-5809,0,0,0
85.92,179.99,-133.52,20,-6102,-5811,0,-1,0
85.92,179.99,-133.52,13,-6113,-5812,0,0,0
85.91,179.99,-133.51,15,-6124,-5813,0,0,-1
85.91,179.98,-133.51,14,-6121,-5820,0,0,-1
85.91,179.98,-133.50,15,-6118,-5805,0,0,-1
85.91,179.97,-133.51,15,-6115,-5795,-1,0,0
85.91,179.97,-133.50,14,-6104,-5797,0,0,-1
85.91,179.97,-133.50,18,-6104,-5795,0,-1,0
85.91,179.97,-133.50,20,-6113,-5799,-1,-1,0
85.91,179.97,-133.50,20,-6113,-5806,-1,-1,0
85.91,179.97,-133.50,20,-6121,-5809,0,-1,0
85.91,179.97,-133.50,18,-6123,-5815,-1,-1,0
85.91,179.97,-133.50,11,-6120,-5803,-1,0,-1
85.91,179.97,-133.50,6,-6119,-5800,-1,0,0
85.92,179.97,-133.50,12,-6113,-5803,-1,0,-1
85.92,179.96,-133.51,14,-6110,-5807,0,0,0
85.91,179.96,-133.50,18,-6109,-5809,0,0,-1
85.91,179.95,-133.50,31,-6113,-5809,0,0,-1
85.90,179.95,-133.49,33,-6116,-5806,0,0,0
85.90,179.95,-133.49,22,-6123,-5809,0,-1,0
85.90,179.95,-133.49,15,-6123,-5808,-1,0,0
85.90,179.95,-133.49,17,-6121,-5805,0,0,-1
85.90,179.94,-133.50,16,-6111,-5808,0,0,-1
85.90,179.94,-133.50,18,-6102,-5804,0,-1,-1
85.92,179.94,-133.50,22,-6110,-5795,0,-1,0
85.92,179.94,-133.49,15,-6110,-5796,0,-1,0
85.92,179.94,-133.49,13,-6117,-5811,0,-1,0
85.92,179.94,-133.49,10,-6115,-5812,0,0,0
85.92,179.94,-133.50,14,-6117,-5824,0,0,-1
85.92,179.94,-133.50,16,-6112,-5813,0,-1,0
85.91,179.93,-133.49,17,-6113,-5809,0,0,0
85.91,179.94,-133.49,13,-6118,-5801,0,-1,0
85.90,179.93,-133.48,16,-6116,-5779,-1,-1,-1
85.90,179.93,-133.48,15,-6112,-5794,0,-1,0
85.90,179.93,-133.48,5,-6120,-5790,0,-1,0
85.90,179.93,-133.48,8,-6124,-5798,0,0,0
85.90,179.93,-133.48,13,-6114,-5808,-1,0,-1
85.90,179.93,-133.49,7,-6113,-5806,-1,0,-1
85.90,179.93,-133.49,7,-6113,-5817,-1,0,0
85.90,179.93,-133.49,10,-6121,-5820,0,0,-1
85.90,179.92,-133.50,11,-6123,-5807,0,0,-1
85.90,179.92,-133.50,13,-6117,-5801,-1,0,-1
85.90,179.92,-133.50,19,-6114,-5791,-1,0,0
85.90,179.92,-133.50,21,-6116,-5801,-1,-1,0
85.90,179.92,-133.49,20,-6107,-5806,0,-1,0
85.90,179.92,-133.49,16,-6103,-5797,0,-1,0
85.90,179.92,-133.48,15,-6104,-5787,0,-1,0
85.90,179.92,-133.47,14,-6126,-5787,0,-1,-1
85.90,179.92,-133.47,19,-6139,-5789,-1,-1,-1
85.91,179.92,-133.48,15,-6125,-5797,-1,-1,-1
85.91,179.92,-133.48,12,-6122,-5797,-1,-1,0
85.90,179.92,-133.49,17,-6110,-5799,-1,0,-1
85.91,179.91,-133.49,17,-6105,-5800,0,0,-1
85.91,179.91,-133.49,19,-6108,-5793,0,0,0
85.91,179.91,-133.49,22,-6107,-5798,0,0,0
85.90,179.91,-133.48,21,-6110,-5800,0,-1,0
85.90,179.91,-133.48,19,-6114,-5807,0,0,0
85.89,179.90,-133.47,21,-6114,-5804,0,0,0
85.89,179.90,-133.47,17,-6113,-5802,0,0,-1
85.89,179.90,-133.47,16,-6119,-5803,0,0,0
85.89,179.90,-133.47,10,-6114,-5802,0,-1,0
85.89,179.90,-133.47,12,-6111,-5795,-1,-1,0
85.89,179.90,-133.47,15,-6119,-5802,-1,-1,-1
85.90,179.90,-133.48,24,-6116,-5817,-1,-1,-1
85.90,179.90,-133.48,27,-6112,-5822,-1,0,-1
85.90,179.90,-133.49,25,-6112,-5817,-1,-1,0
85.90,179.90,-133.49,16,-6114,-5808,-1,-1,0
85.91,179.90,-133.49,14,-6108,-5812,-1,-1,0
85.91,179.90,-133.49,17,-6110,-5798,0,-1,-1
85.90,179.90,-133.49,14,-6109,-5793,0,0,0
85.90,179.90,-133.49,18,-6112,-5803,0,0,0
85.89,179.90,-133.48,15,-6112,-5799,0,0,0
85.89,179.90,-133.48,12,-6120,-5794,0,0,-1
85.89,179.90,-133.48,15,-6125,-5797,0,0,0
85.89,179.89,-133.47,19,-6126,-5795,0,-1,0
85.89,179.89,-133.47,13,-6123,-5797,0,0,0
85.89,179.89,-133.48,18,-6119,-5798,-1,0,-1
85.89,179.89,-133.48,24,-6122,-5798,-1,-1,0
85.89,179.89,-133.48,19,-6115,-5798,-1,-1,-1
85.89,179.89,-133.48,17,-6107,-5808,-1,0,-1
85.89,179.89,-133.49,19,-6107,-5812,0,-1,0
85.89,179.89,-133.48,17,-6109,-5805,0,-1,0
85.89,179.89,-133.48,15,-6107,-5806,0,-1,-1
85.89,179.89,-133.48,18,-6115,-5808,0,-1,0
85.89,179.89,-133.48,22,-6116,-5808,0,-1,0
85.89,179.89,-133.48,14,-6116,-5810,0,-1,-1
85.89,179.89,-133.48,19,-6110,-5801,-1,-1,0
85.89,179.89,-133.48,19,-6101,-5795,0,-1,0
85.89,179.89,-133.48,21,-6106,-5800,0,0,-1
85.89,179.89,-133.48,25,-6105,-5804,0,0,-1
85.89,179.89,-133.48,15,-6115,-5801,-1,0,0
85.89,179.88,-133.48,12,-6109,-5801,-1,0,-1
85.89,179.89,-133.49,12,-6106,-5806,0,-1,-1
85.89,179.89,-133.49,17,-6104,-5809,0,-1,0
85.89,179.88,-133.49,13,-6105,-5812,0,0,0
85.89,179.88,-133.49,16,-6107,-5811,0,-1,0
85.89,179.88,-133.48,14,-6113,-5802,0,-1,0
85.89,179.89,-133.48,14,-6117,-5802,0,0,0
85.89,179.89,-133.48,17,-6120,-5806,-1,-1,-1
85.89,179.89,-133.49,12,-6112,-5805,-1,-1,-1
85.89,179.89,-133.50,17,-6113,-5805,-1,-1,-1
85.89,179.89,-133.50,13,-6106,-5811,-1,0,-1
85.89,179.89,-133.50,12,-6108,-5798,0,0,-1
85.89,179.88,-133.51,20,-6117,-5805,0,0,0
85.88,179.88,-133.50,17,-6119,-5814,0,0,0
85.89,179.88,-133.50,22,-6122,-5810,0,-1,0
85.89,179.87,-133.49,21,-6122,-5810,0,0,0
85.88,179.88,-133.49,11,-6118,-5804,0,0,0
85.88,179.88,-133.48,15,-6119,-5797,0,0,-1
85.88,179.88,-133.48,17,-6117,-5797,0,0,-1
85.88,179.87,-133.49,24,-6110,-5789,-1,-1,0
85.88,179.87,-133.49,21,-6105,-5781,0,-1,0
85.87,179.87,-133.49,15,-6112,-5789,-1,-1,-1
85.88,179.88,-133.49,13,-6117,-5798,-1,-1,-1
85.88,179.88,-133.49,16,-6116,-5807,-1,0,-1
85.89,179.87,-133.49,17,-6120,-5810,0,-1,-1
85.88,179.87,-133.49,16,-6115,-5802,0,0,0
85.89,179.87,-133.49,16,-6105,-5800,0,-1,-1
85.89,179.87,-133.50,15,-6105,-5808,0,-1,-1
85.89,179.87,-133.50,13,-6106,-5814,0,0,0
85.88,179.86,-133.49,19,-6108,-5813,0,0,-1
85.88,179.86,-133.49,26,-6110,-5810,0,0,0
85.88,179.86,-133.49,21,-6108,-5804,0,0,0
85.88,179.86,-133.49,20,-6113,-5799,0,0,0
85.88,179.86,-133.48,13,-6122,-5803,0,0,0
85.88,179.86,-133.48,4,-6125,-5797,-1,0,0
85.88,179.86,-133.48,8,-6122,-5796,-1,-1,0
85.88,179.86,-133.49,9,-6113,-5814,-1,-1,-1
85.87,179.87,-133.49,12,-6108,-5807,-1,0,-1
85.88,179.86,-133.49,12,-6115,-5804,-1,0,-1
85.88,179.86,-133.50,18,-6112,-5806,0,0,-1
85.88,179.86,-133.50,19,-6111,-5803,0,0,-1
85.88,179.86,-133.49,24,-6106,-5804,0,0,-1
85.88,179.86,-133.49,27,-6114,-5805,-1,-1,0
85.88,179.86,-133.49,27,-6117,-5801,0,-1,0
85.88,179.86,-133.49,28,-6119,-5804,0,-1,0
85.88,179.86,-133.49,19,-6115,-5803,-1,-1,0
85.87,179.86,-133.50,19,-6110,-5809,0,-1,0
85.87,179.87,-133.49,15,-6116,-5814,0,-1,-1
85.86,179.86,-133.49,16,-6112,-5809,0,0,-1
85.86,179.86,-133.49,15,-6114,-5803,0,0,0
85.86,179.86,-133.49,17,-6116,-5798,0,0,0
85.86,179.86,-133.49,19,-6119,-5795,-1,0,-1
85.86,179.86,-133.48,23,-6115,-5798,0,0,-1
85.86,179.85,-133.49,24,-6117,-5803,0,0,0
85.85,179.85,-133.48,22,-6114,-5802,0,0,0
85.86,179.85,-133.48,13,-6116,-5792,0,0,-1
85.86,179.85,-133.48,16,-6116,-5788,-1,-1,-1
85.86,179.85,-133.48,18,-6118,-5800,-1,-1,-1
85.86,179.86,-133.49,20,-6121,-5806,-1,-1,0
85.86,179.85,-133.50,20,-6114,-5809,-1,-1,0
85.87,179.86,-133.50,11,-6103,-5809,0,0,-1
85.87,179.86,-133.50,19,-6103,-5815,0,0,-1
85.86,179.85,-133.50,18,-6106,-5809,0,-1,0
85.86,179.85,-133.50,22,-6106,-5814,0,0,0
85.86,179.85,-133.50,18,-6105,-5807,0,0,0
85.86,179.86,-133.49,19,-6117,-5810,0,-1,0
85.86,179.86,-133.48,14,-6122,-5800,0,-1,0
85.86,179.85,-133.49,17,-6121,-5805,-1,0,0
85.86,179.85,-133.49,15,-6119,-5815,-1,0,0
85.86,179.86,-133.49,15,-6111,-5809,-1,-1,0
85.86,179.85,-133.49,12,-6114,-5806,0,0,-1
85.86,179.85,-133.49,14,-6117,-5794,0,0,-1
85.85,179.85,-133.48,18,-6114,-5797,-1,0,-1
