Yaw,Pitch,Roll,AX,AY,AZ,GX,GY,GZ
73.65,-178.87,-113.25,-169,-7743,-3315,-1,0,0
73.63,-178.87,-113.25,-173,-7742,-3328,-1,-1,0
73.65,-178.87,-113.26,-166,-7735,-3335,-1,0,0
73.65,-178.87,-113.26,-168,-7735,-3327,-1,0,0
73.63,-178.87,-113.26,-175,-7737,-3324,0,-1,0
73.65,-178.87,-113.26,-170,-7744,-3326,0,-1,0
73.65,-178.86,-113.26,-166,-7741,-3323,-1,-1,0
73.65,-178.87,-113.26,-164,-7735,-3322,-1,-1,0
73.65,-178.87,-113.26,-166,-7728,-3326,-1,0,0
73.65,-178.87,-113.26,-166,-7739,-3323,-1,0,-1
73.63,-178.87,-113.26,-168,-7742,-3329,0,-1,0
73.63,-178.87,-113.25,-172,-7742,-3326,0,-1,0
73.63,-178.87,-113.25,-173,-7729,-3318,0,-1,0
73.63,-178.86,-113.25,-174,-7723,-3311,-1,0,0
73.63,-178.86,-113.25,-171,-7734,-3309,-1,0,0
73.65,-178.86,-113.26,-171,-7737,-3332,-1,-1,0
73.64,-178.86,-113.25,-169,-7738,-3334,0,-1,0
73.64,-178.86,-113.25,-171,-7740,-3330,0,-1,0
73.63,-178.86,-113.24,-169,-7741,-3324,0,0,0
73.63,-178.86,-113.24,-173,-7743,-3323,0,-1,-1
73.63,-178.86,-113.24,-172,-7741,-3330,-1,0,-1
73.63,-178.86,-113.24,-167,-7743,-3328,-1,-1,0
73.64,-178.86,-113.25,-166,-7737,-3328,0,0,0
73.64,-178.86,-113.25,-163,-7732,-3324,-1,-1,-1
73.64,-178.86,-113.25,-166,-7730,-3321,-1,-1,-1
73.65,-178.86,-113.26,-169,-7739,-3327,-1,-1,0
73.65,-178.86,-113.26,-172,-7743,-3323,0,-1,0
73.65,-178.86,-113.26,-164,-7741,-3324,0,-1,0
73.65,-178.86,-113.26,-163,-7737,-3325,0,-1,0
73.65,-178.86,-113.26,-166,-7739,-3321,0,-1,-1
73.65,-178.86,-113.26,-165,-7740,-3328,-1,-1,0
73.64,-178.86,-113.25,-175,-7738,-3332,-1,-1,0
73.64,-178.85,-113.25,-179,-7738,-3331,0,-1,0
73.64,-178.85,-113.25,-179,-7739,-3327,0,-1,-1
73.64,-178.85,-113.25,-178,-7742,-3326,0,0,-1
73.66,-178.85,-113.24,-176,-7747,-3324,0,-1,0
73.66,-178.85,-113.24,-174,-7749,-3323,-1,-1,-1
73.66,-178.85,-113.24,-175,-7744,-3326,-1,-1,0
73.65,-178.85,-113.25,-179,-7735,-3330,-1,-1,0
73.66,-178.85,-113.25,-171,-7732,-3336,-1,-1,-1
73.66,-178.85,-113.25,-169,-7740,-3334,0,-1,0
73.66,-178.85,-113.25,-172,-7740,-3334,0,-1,0
73.67,-178.85,-113.25,-177,-7750,-3337,0,-1,0
73.67,-178.84,-113.24,-180,-7743,-3327,0,-1,0
73.67,-178.84,-113.24,-184,-7745,-3323,0,-1,0
73.67,-178.84,-113.24,-178,-7740,-3322,0,-1,-1
73.67,-178.84,-113.24,-172,-7735,-3323,-1,0,0
73.67,-178.84,-113.24,-170,-7739,-3324,-1,-1,0
73.67,-178.84,-113.24,-170,-7741,-3327,-1,-1,-1
73.67,-178.84,-113.24,-165,-7743,-3336,0,-1,-1
73.67,-178.84,-113.24,-163,-7741,-3319,0,0,0
73.65,-178.84,-113.23,-166,-7735,-3320,0,0,0
73.65,-178.84,-113.23,-169,-7737,-3323,-1,0,0
73.65,-178.84,-113.23,-166,-7740,-3326,-1,-1,0
73.65,-178.84,-113.23,-169,-7743,-3323,-1,-1,-1
73.67,-178.84,-113.24,-169,-7744,-3323,-1,0,-1
73.67,-178.84,-113.24,-168,-7732,-3330,-1,0,0
73.67,-178.85,-113.25,-164,-7734,-3328,-1,0,-1
73.66,-178.85,-113.24,-160,-7736,-3332,0,0,-1
73.65,-178.85,-113.24,-163,-7735,-3322,0,-1,0
73.65,-178.85,-113.24,-166,-7731,-3316,0,-1,0
73.67,-178.85,-113.24,-165,-7731,-3313,0,0,-1
73.67,-178.85,-113.24,-162,-7734,-3318,-1,-1,0
73.65,-178.85,-113.24,-163,-7742,-3330,-1,0,0
73.66,-178.85,-113.24,-163,-7742,-3343,0,0,0
73.66,-178.85,-113.24,-168,-7743,-3341,0,-1,0
73.65,-178.85,-113.24,-174,-7741,-3337,0,-1,0
73.65,-178.84,-113.23,-178,-7737,-3328,0,-1,0
73.65,-178.85,-113.24,-174,-7740,-3325,-1,0,-1
73.65,-178.85,-113.24,-173,-7738,-3323,-1,0,-1
73.65,-178.85,-113.24,-176,-7735,-3324,-1,0,0
73.65,-178.85,-113.24,-173,-7736,-3321,-1,0,-1
73.66,-178.85,-113.24,-170,-7732,-3311,-1,0,-1
73.66,-178.85,-113.24,-169,-7730,-3317,-1,0,-1
73.66,-178.86,-113.25,-167,-7729,-3323,-1,0,0
73.64,-178.85,-113.25,-170,-7737,-3326,-1,-1,0
73.64,-178.85,-113.25,-171,-7738,-3334,-1,0,-1
73.64,-178.85,-113.25,-167,-7735,-3335,0,-1,-1
73.64,-178.85,-113.25,-166,-7740,-3333,-1,0,0
73.64,-178.85,-113.25,-166,-7739,-3326,0,0,0
73.64,-178.85,-113.25,-164,-7734,-3334,-1,0,0
73.64,-178.85,-113.25,-164,-7733,-3327,0,-1,0
73.64,-178.85,-113.25,-172,-7735,-3318,0,0,0
73.64,-178.85,-113.24,-179,-7737,-3324,0,0,-1
73.64,-178.85,-113.24,-175,-7737,-3317,-1,0,-1
73.64,-178.85,-113.25,-176,-7745,-3326,-1,0,-1
73.64,-178.85,-113.25,-174,-7738,-3322,-1,0,-1
73.64,-178.86,-113.25,-164,-7740,-3323,-1,0,-1
73.62,-178.86,-113.26,-161,-7741,-3322,-1,0,0
73.62,-178.86,-113.26,-168,-7737,-3328,0,0,0
73.62,-178.86,-113.26,-169,-7737,-3327,0,0,-1
73.62,-178.86,-113.26,-174,-7729,-3337,0,-1,0
73.64,-178.85,-113.26,-176,-7733,-3338,-1,0,0
73.64,-178.85,-113.26,-178,-7738,-3337,0,0,0
73.64,-178.85,-113.26,-177,-7741,-3331,-1,0,0
73.64,-178.85,-113.26,-176,-7746,-3326,-1,0,0
73.62,-178.85,-113.26,-176,-7739,-3326,-1,0,-1
73.62,-178.85,-113.26,-178,-7744,-3331,-1,0,0
73.62,-178.85,-113.26,-174,-7735,-3332,-1,0,-1
73.62,-178.85,-113.27,-173,-7737,-3326,-1,0,0
73.62,-178.85,-113.26,-171,-7737,-3330,-1,0,0
73.62,-178.85,-113.27,-169,-7743,-3332,-1,0,0
73.61,-178.85,-113.27,-177,-7740,-3330,-1,0,0
73.62,-178.85,-113.28,-178,-7740,-3332,-1,0,-1
73.62,-178.85,-113.28,-173,-7733,-3327,-1,0,0
73.62,-178.86,-113.28,-171,-7737,-3331,0,0,0
73.61,-178.85,-113.29,-168,-7741,-3329,-1,0,0
73.62,-178.86,-113.28,-172,-7742,-3328,0,-1,0
73.60,-178.85,-113.27,-168,-7736,-3317,0,-1,0
73.62,-178.85,-113.28,-175,-7732,-3317,-1,-1,-1
73.60,-178.85,-113.28,-172,-7734,-3314,-1,0,-1
73.61,-178.85,-113.29,-162,-7736,-3332,-1,0,-1
73.61,-178.86,-113.29,-162,-7741,-3345,-1,0,-1
73.62,-178.85,-113.29,-169,-7746,-3347,0,-1,0
73.61,-178.86,-113.29,-168,-7744,-3344,0,0,0
73.61,-178.85,-113.29,-169,-7741,-3339,0,0,-1
73.61,-178.85,-113.29,-169,-7738,-3339,-1,0,-1
73.61,-178.86,-113.29,-162,-7746,-3329,-1,-1,-1
73.61,-178.86,-113.29,-167,-7745,-3330,-1,-1,0
73.61,-178.86,-113.29,-162,-7736,-3327,-1,0,0
73.61,-178.86,-113.29,-162,-7735,-3330,-1,0,-1
73.61,-178.86,-113.29,-159,-7729,-3328,-1,0,-1
73.61,-178.87,-113.30,-161,-7730,-3325,-1,-1,-1
73.61,-178.87,-113.30,-164,-7733,-3334,0,-1,0
73.61,-178.87,-113.30,-166,-7733,-3336,0,0,0
73.61,-178.87,-113.30,-162,-7736,-3334,-1,-1,0
73.61,-178.86,-113.29,-163,-7737,-3330,-1,-1,0
73.61,-178.86,-113.29,-162,-7739,-3329,-1,0,0
73.61,-178.86,-113.29,-169,-7739,-3335,0,0,0
73.61,-178.86,-113.29,-164,-7742,-3336,0,-1,-1
73.61,-178.85,-113.29,-161,-7733,-3340,0,-1,0
73.61,-178.86,-113.28,-165,-7732,-3334,0,0,0
73.61,-178.86,-113.28,-164,-7729,-3327,0,0,0
73.59,-178.86,-113.28,-164,-7730,-3330,-1,0,-1
73.61,-178.86,-113.29,-167,-7735,-3336,-1,0,-1
73.61,-178.87,-113.30,-168,-7729,-3336,-1,0,-1
73.61,-178.87,-113.30,-166,-7724,-3340,0,0,-1
73.61,-178.87,-113.30,-159,-7730,-3346,0,-1,0
73.61,-178.87,-113.30,-163,-7731,-3343,0,-1,0
73.61,-178.86,-113.29,-171,-7737,-3341,0,-1,0
73.61,-178.86,-113.29,-166,-7733,-3329,0,-1,0
73.61,-178.86,-113.29,-173,-7735,-3332,0,-1,0
73.61,-178.86,-113.29,-168,-7737,-3334,-1,0,0
73.62,-178.85,-113.29,-170,-7741,-3342,0,-1,0
73.62,-178.85,-113.29,-167,-7738,-3332,0,-1,0
73.61,-178.85,-113.29,-169,-7741,-3327,0,-1,-1
73.61,-178.85,-113.29,-175,-7748,-3333,0,0,-1
73.61,-178.85,-113.29,-174,-7746,-3335,0,-1,0
73.62,-178.86,-113.28,-169,-7739,-3333,0,-1,-1
73.62,-178.85,-113.28,-176,-7737,-3336,0,-1,0
73.60,-178.85,-113.28,-181,-7736,-3329,-1,0,0
73.60,-178.85,-113.28,-174,-7736,-3331,-1,-1,0
73.61,-178.85,-113.29,-171,-7736,-3334,-1,0,-1
73.61,-178.85,-113.29,-166,-7744,-3332,0,-1,-1
73.61,-178.85,-113.29,-166,-7749,-3328,0,-1,0
73.60,-178.85,-113.28,-163,-7735,-3331,0,0,0
73.60,-178.85,-113.28,-164,-7728,-3322,0,0,0
73.60,-178.85,-113.28,-164,-7738,-3322,-1,-1,0
73.60,-178.85,-113.28,-174,-7744,-3337,-1,0,-1
73.60,-178.85,-113.28,-174,-7743,-3346,-1,-1,0
73.62,-178.85,-113.29,-171,-7740,-3346,0,-1,0
73.62,-178.84,-113.28,-172,-7738,-3344,0,-1,0
73.60,-178.85,-113.28,-176,-7732,-3328,0,-1,0
73.60,-178.84,-113.27,-171,-7732,-3314,0,0,0
73.60,-178.84,-113.27,-174,-7738,-3323,0,0,-1
73.60,-178.84,-113.27,-176,-7736,-3320,-1,-1,0
73.60,-178.84,-113.27,-179,-7742,-3321,-1,-1,0
73.61,-178.84,-113.28,-177,-7738,-3327,-1,-1,0
73.61,-178.84,-113.28,-163,-7741,-3331,-1,-1,-1
73.61,-178.84,-113.28,-168,-7740,-3328,-1,-1,0
73.61,-178.84,-113.28,-176,-7744,-3332,0,-1,-1
73.61,-178.84,-113.28,-173,-7743,-3331,0,-1,0
73.61,-178.84,-113.28,-177,-7741,-3337,0,-1,0
73.61,-178.83,-113.27,-170,-7736,-3328,0,-1,-1
73.61,-178.83,-113.27,-171,-7734,-3335,0,0,0
73.61,-178.83,-113.27,-170,-7738,-3333,0,-1,0
73.59,-178.84,-113.27,-169,-7742,-3327,0,0,0
73.61,-178.83,-113.26,-172,-7733,-3324,0,-1,0
73.59,-178.83,-113.26,-177,-7730,-3326,-1,0,0
73.59,-178.83,-113.27,-173,-7738,-3329,-1,0,0
73.59,-178.84,-113.27,-170,-7748,-3332,-1,0,-1
73.61,-178.83,-113.27,-175,-7748,-3331,-1,-1,0
73.59,-178.84,-113.27,-178,-7746,-3326,-1,-1,-1
73.59,-178.84,-113.27,-169,-7736,-3328,0,-1,0
73.61,-178.83,-113.27,-172,-7735,-3329,-1,-1,0
73.61,-178.83,-113.27,-166,-7744,-3333,-1,-1,0
73.61,-178.83,-113.27,-169,-7742,-3328,-1,-1,0
73.62,-178.82,-113.27,-169,-7744,-3335,0,-1,0
73.62,-178.82,-113.27,-172,-7749,-3335,0,-1,0
73.62,-178.82,-113.27,-177,-7746,-3338,0,-1,0
73.62,-178.81,-113.26,-172,-7741,-3338,0,-1,0
73.62,-178.82,-113.27,-172,-7739,-3340,-1,-1,0
73.62,-178.82,-113.27,-177,-7744,-3343,0,-1,0
73.62,-178.82,-113.27,-167,-7743,-3340,0,-1,0
73.64,-178.82,-113.26,-169,-7739,-3340,0,-1,0
73.64,-178.82,-113.26,-174,-7738,-3327,0,-1,0
73.63,-178.81,-113.26,-181,-7740,-3325,0,-1,0
73.62,-178.81,-113.26,-182,-7737,-3329,-1,-1,0
73.64,-178.82,-113.26,-175,-7741,-3327,-1,-1,-1
73.64,-178.82,-113.26,-172,-7743,-3330,0,-1,-1
73.63,-178.81,-113.26,-174,-7738,-3318,0,-1,0
73.63,-178.81,-113.26,-176,-7738,-3315,0,-1,0
73.63,-178.81,-113.25,-176,-7738,-3324,0,-1,0
73.63,-178.81,-113.25,-178,-7729,-3326,-1,0,-1
73.63,-178.81,-113.26,-178,-7733,-3321,-1,0,-1
73.63,-178.81,-113.26,-175,-7735,-3326,0,-1,0
73.63,-178.81,-113.25,-172,-7740,-3329,0,-1,0
73.63,-178.81,-113.25,-174,-7743,-3330,0,-1,0
73.63,-178.80,-113.25,-182,-7742,-3327,0,-1,0
73.63,-178.80,-113.24,-179,-7750,-3328,0,0,-1
73.63,-178.80,-113.23,-180,-7748,-3323,0,0,-1
73.63,-178.80,-113.23,-177,-7746,-3319,0,-1,-1
73.62,-178.80,-113.23,-177,-7743,-3319,0,-1,0
73.64,-178.80,-113.23,-173,-7738,-3308,-1,-1,-1
73.64,-178.80,-113.23,-174,-7744,-3308,-1,-1,-1
73.63,-178.81,-113.23,-176,-7744,-3310,-1,-1,0
73.64,-178.80,-113.23,-177,-7745,-3317,-1,-1,0
73.64,-178.80,-113.23,-182,-7749,-3320,0,-1,0
73.64,-178.80,-113.23,-179,-7744,-3313,0,-1,0
73.62,-178.80,-113.22,-180,-7734,-3312,-1,0,0
73.63,-178.80,-113.22,-180,-7732,-3321,-1,0,0
73.64,-178.80,-113.23,-180,-7727,-3327,0,-1,0
73.64,-178.79,-113.22,-184,-7735,-3331,0,-1,0
73.64,-178.79,-113.22,-186,-7744,-3319,0,-1,0
73.62,-178.79,-113.21,-181,-7747,-3317,0,0,0
73.62,-178.79,-113.21,-185,-7743,-3315,-1,0,0
73.62,-178.79,-113.21,-178,-7743,-3322,-1,0,-1
73.62,-178.79,-113.22,-177,-7742,-3325,-1,0,-1
73.64,-178.79,-113.22,-187,-7739,-3330,-1,-1,-1
73.62,-178.79,-113.22,-188,-7739,-3325,-1,0,-1
73.62,-178.79,-113.22,-181,-7734,-3332,0,-1,0
73.62,-178.79,-113.22,-176,-7727,-3324,0,-1,0
73.64,-178.79,-113.22,-174,-7739,-3330,-1,-1,0
73.62,-178.79,-113.22,-181,-7740,-3338,0,0,-1
73.62,-178.79,-113.22,-185,-7742,-3336,0,0,-1
73.64,-178.79,-113.22,-183,-7744,-3332,0,0,-1
73.64,-178.79,-113.22,-182,-7738,-3327,0,0,-1
73.64,-178.79,-113.22,-178,-7736,-3323,0,-1,-1
73.64,-178.79,-113.22,-175,-7738,-3321,-1,0,-1
73.64,-178.80,-113.22,-171,-7738,-3321,-1,0,0
73.62,-178.80,-113.22,-176,-7733,-3317,-1,0,-1
73.62,-178.80,-113.22,-179,-7738,-3317,0,0,-1
73.62,-178.79,-113.22,-180,-7739,-3318,0,-1,-1
73.62,-178.79,-113.22,-175,-7742,-3319,-1,0,0
73.62,-178.80,-113.22,-174,-7739,-3319,-1,0,-1
73.62,-178.80,-113.22,-174,-7742,-3333,-1,0,-1
73.62,-178.80,-113.22,-174,-7747,-3339,0,0,-1
73.62,-178.80,-113.22,-169,-7740,-3326,0,-1,0
73.62,-178.80,-113.22,-176,-7740,-3322,0,-1,0
73.62,-178.79,-113.22,-182,-7736,-3308,0,-1,0
73.62,-178.79,-113.22,-179,-7734,-3321,-1,-1,0
73.64,-178.80,-113.22,-178,-7733,-3330,-1,0,0
73.62,-178.79,-113.23,-183,-7738,-3338,-1,-1,-1
73.62,-178.79,-113.23,-177,-7741,-3337,0,0,0
73.64,-178.79,-113.23,-181,-7749,-3347,0,0,0
73.64,-178.79,-113.23,-179,-7739,-3336,0,0,0
73.60,-178.79,-113.23,-181,-7734,-3326,0,0,0
73.62,-178.79,-113.23,-174,-7744,-3314,-1,0,0
73.62,-178.79,-113.23,-173,-7747,-3312,-1,-1,0
73.60,-178.79,-113.23,-171,-7743,-3324,-1,-1,0
73.62,-178.79,-113.24,-179,-7741,-3329,-1,-1,0
73.62,-178.79,-113.24,-182,-7735,-3330,-1,-1,0
73.62,-178.78,-113.25,-181,-7742,-3331,-1,0,-1
73.62,-178.79,-113.25,-181,-7743,-3330,0,-1,-1
73.62,-178.79,-113.25,-179,-7738,-3324,-1,-1,0
73.64,-178.78,-113.25,-184,-7729,-3323,0,-1,-1
73.62,-178.79,-113.25,-162,-7729,-3324,-1,0,-1
73.62,-178.80,-113.26,-179,-7738,-3338,0,0,0
73.62,-178.80,-113.26,-178,-7735,-3339,-1,0,-1
73.62,-178.80,-113.26,-178,-7747,-3347,0,0,0
73.62,-178.80,-113.26,-172,-7747,-3332,0,0,0
73.61,-178.80,-113.25,-168,-7739,-3319,-1,0,0
73.61,-178.80,-113.25,-174,-7740,-3333,-1,0,-1
73.61,-178.80,-113.26,-173,-7742,-3335,-1,0,-1
73.60,-178.81,-113.26,-162,-7736,-3332,0,0,-1
73.60,-178.81,-113.26,-158,-7728,-3330,-1,-1,-1
73.60,-178.82,-113.26,-165,-7728,-3325,0,0,0
73.60,-178.82,-113.26,-167,-7730,-3328,-1,0,-1
73.60,-178.82,-113.26,-160,-7732,-3327,-1,0,0
73.58,-178.82,-113.27,-168,-7735,-3330,-1,0,-1
73.57,-178.83,-113.27,-162,-7742,-3329,-1,0,-1
73.57,-178.83,-113.27,-175,-7737,-3336,-1,0,0
73.59,-178.82,-113.27,-179,-7738,-3343,-1,0,-1
73.57,-178.83,-113.27,-177,-7744,-3336,0,0,-1
73.55,-178.83,-113.27,-167,-7736,-3338,-1,0,-1
73.55,-178.83,-113.27,-168,-7735,-3328,-1,0,-1
73.56,-178.83,-113.28,-169,-7735,-3323,-1,0,0
73.56,-178.84,-113.28,-173,-7737,-3327,-1,0,-1
73.56,-178.83,-113.28,-177,-7738,-3328,-1,0,-1
73.56,-178.84,-113.28,-169,-7735,-3332,-1,0,-1
73.56,-178.84,-113.28,-173,-7737,-3334,-1,0,-1
73.55,-178.84,-113.29,-172,-7735,-3337,-1,0,-1
73.55,-178.84,-113.29,-173,-7738,-3338,-1,0,-1
73.55,-178.85,-113.29,-166,-7731,-3339,-1,0,0
73.55,-178.85,-113.29,-170,-7733,-3335,0,0,0
73.54,-178.84,-113.29,-171,-7729,-3322,0,0,0
73.53,-178.84,-113.28,-172,-7733,-3316,-1,0,-1
73.51,-178.84,-113.29,-171,-7736,-3324,-1,0,-1
73.53,-178.85,-113.30,-170,-7740,-3340,-1,0,-1
73.53,-178.85,-113.30,-166,-7737,-3349,-1,0,0
73.53,-178.85,-113.30,-171,-7737,-3343,0,-1,0
73.53,-178.85,-113.30,-176,-7735,-3343,0,0,0
73.51,-178.84,-113.30,-177,-7736,-3328,0,0,-1
73.53,-178.85,-113.30,-173,-7747,-3331,-1,0,-1
73.53,-178.85,-113.30,-169,-7743,-3326,-1,-1,-1
73.53,-178.85,-113.30,-167,-7742,-3319,-1,0,0
73.52,-178.85,-113.31,-170,-7735,-3330,0,-1,0
73.53,-178.85,-113.30,-168,-7735,-3326,-1,0,0
73.53,-178.85,-113.30,-165,-7739,-3331,-1,-1,-1
73.53,-178.85,-113.30,-162,-7741,-3330,-1,-1,0
73.53,-178.85,-113.30,-169,-7741,-3346,-1,-1,0
73.53,-178.85,-113.30,-170,-7739,-3339,0,-1,0
73.53,-178.85,-113.30,-176,-7734,-3344,0,-1,-1
73.53,-178.85,-113.30,-170,-7732,-3344,-1,-1,0
73.53,-178.85,-113.30,-164,-7737,-3335,-1,-1,0
73.53,-178.85,-113.30,-161,-7735,-3340,0,-1,0
73.53,-178.85,-113.30,-173,-7742,-3344,0,-1,0
73.53,-178.85,-113.30,-174,-7741,-3336,0,-1,-1
73.53,-178.85,-113.30,-173,-7736,-3340,0,-1,-1
73.53,-178.84,-113.30,-174,-7734,-3335,0,-1,-1
73.53,-178.84,-113.30,-174,-7733,-3328,-1,-1,-1
73.54,-178.84,-113.30,-169,-7733,-3325,-1,-1,0
73.54,-178.84,-113.30,-169,-7741,-3326,-1,-1,-1
73.54,-178.84,-113.30,-171,-7740,-3339,0,-1,0
73.54,-178.84,-113.30,-171,-7740,-3329,0,-1,0
73.56,-178.84,-113.30,-170,-7739,-3329,0,-1,0
73.56,-178.84,-113.29,-172,-7736,-3331,0,-1,0
73.56,-178.84,-113.29,-170,-7730,-3325,0,-1,0
73.56,-178.84,-113.29,-177,-7731,-3327,-1,-1,-1
73.54,-178.84,-113.30,-179,-7736,-3329,-1,0,0
73.54,-178.84,-113.30,-172,-7738,-3337,0,-1,0
73.55,-178.83,-113.30,-172,-7745,-3342,0,-1,0
73.55,-178.82,-113.30,-172,-7738,-3342,0,-1,0
73.55,-178.82,-113.30,-177,-7738,-3330,-1,-1,0
73.55,-178.82,-113.29,-177,-7730,-3324,0,-1,0
73.55,-178.82,-113.29,-176,-7727,-3325,0,-1,0
73.57,-178.82,-113.30,-172,-7733,-3328,-1,-1,0
73.57,-178.82,-113.30,-171,-7730,-3333,-1,-1,0
73.58,-178.82,-113.30,-164,-7741,-3345,-1,-1,0
73.57,-178.82,-113.31,-166,-7736,-3339,-1,-1,0
73.57,-178.82,-113.31,-164,-7745,-3346,-1,-1,0
73.58,-178.82,-113.30,-160,-7741,-3336,0,-1,0
73.58,-178.81,-113.30,-182,-7727,-3336,0,-1,0
73.57,-178.82,-113.30,-162,-7719,-3332,-1,0,0
73.57,-178.81,-113.31,-176,-7728,-3343,-1,-1,0
73.58,-178.81,-113.31,-168,-7737,-3344,-1,-1,-1
73.58,-178.81,-113.31,-178,-7739,-3347,0,-1,0
73.58,-178.81,-113.31,-177,-7732,-3347,0,-1,0
73.58,-178.81,-113.31,-174,-7739,-3348,0,-1,-1
73.60,-178.81,-113.30,-177,-7741,-3342,0,0,-1
73.58,-178.81,-113.30,-172,-7742,-3335,0,0,-1
73.58,-178.81,-113.28,-172,-7745,-3327,-1,-1,0
73.58,-178.81,-113.28,-169,-7738,-3319,-1,-1,0
73.58,-178.81,-113.28,-172,-7732,-3319,-1,0,0
73.58,-178.81,-113.28,-175,-7734,-3315,-1,0,-1
73.58,-178.81,-113.30,-181,-7737,-3328,-1,0,-1
73.60,-178.81,-113.30,-178,-7740,-3341,0,-1,-1
73.58,-178.81,-113.29,-172,-7738,-3338,0,-1,0
73.60,-178.81,-113.29,-170,-7732,-3342,0,-1,0
73.59,-178.80,-113.29,-174,-7729,-3336,0,-1,0
73.59,-178.80,-113.29,-171,-7724,-3335,0,-1,0
73.59,-178.80,-113.29,-180,-7732,-3339,-1,-1,0
73.61,-178.80,-113.29,-183,-7733,-3335,-1,-1,0
73.61,-178.80,-113.29,-175,-7733,-3332,-1,-1,0
73.61,-178.80,-113.29,-180,-7740,-3343,0,-1,-1
73.61,-178.79,-113.29,-184,-7742,-3325,0,-1,-1
73.61,-178.80,-113.28,-185,-7739,-3315,0,-1,-1
73.61,-178.80,-113.28,-179,-7738,-3321,0,0,-1
73.61,-178.80,-113.28,-178,-7733,-3320,-1,0,-1
73.61,-178.80,-113.28,-177,-7732,-3318,-1,-1,0
73.61,-178.80,-113.27,-174,-7735,-3322,0,-1,0
73.61,-178.80,-113.27,-170,-7732,-3333,0,-1,0
73.62,-178.79,-113.27,-177,-7741,-3334,0,-1,0
73.62,-178.79,-113.26,-170,-7736,-3329,0,-1,0
73.62,-178.79,-113.26,-177,-7736,-3330,-1,-1,0
73.62,-178.78,-113.27,-182,-7734,-3329,-1,-1,0
73.62,-178.78,-113.27,-182,-7732,-3337,0,-1,0
73.62,-178.78,-113.27,-181,-7733,-3330,0,-1,0
73.61,-178.78,-113.26,-173,-7749,-3334,0,-1,0
73.62,-178.78,-113.26,-180,-7743,-3331,0,-1,0
73.61,-178.78,-113.25,-173,-7743,-3324,0,-1,0
73.63,-178.78,-113.25,-185,-7744,-3328,0,-1,0
73.63,-178.78,-113.23,-182,-7739,-3317,0,-1,0
73.63,-178.77,-113.23,-177,-7741,-3325,0,-1,0
73.64,-178.77,-113.22,-179,-7738,-3324,0,-1,0
73.62,-178.76,-113.21,-178,-7735,-3314,0,-1,0
73.63,-178.76,-113.20,-181,-7741,-3315,0,-1,0
73.63,-178.75,-113.18,-186,-7737,-3311,0,-1,-1
73.63,-178.75,-113.18,-182,-7738,-3303,0,-1,-1
73.65,-178.75,-113.18,-179,-7745,-3318,0,-1,0
73.63,-178.75,-113.17,-180,-7747,-3316,0,-1,0
73.64,-178.75,-113.16,-182,-7746,-3318,0,-1,0
73.62,-178.74,-113.15,-185,-7730,-3309,0,-1,0
73.64,-178.74,-113.14,-182,-7735,-3293,-1,-1,0
73.62,-178.74,-113.14,-187,-7741,-3307,-1,0,-1
73.62,-178.74,-113.14,-175,-7740,-3302,-1,-1,0
73.64,-178.74,-113.15,-179,-7748,-3324,-1,0,0
73.62,-178.74,-113.15,-178,-7752,-3322,0,-1,-1
73.62,-178.74,-113.14,-184,-7747,-3313,0,-1,0
73.62,-178.75,-113.14,-185,-7746,-3315,0,0,-1
73.62,-178.74,-113.13,-184,-7741,-3296,-1,0,-1
73.62,-178.75,-113.14,-179,-7736,-3302,-1,0,-1
73.63,-178.75,-113.14,-184,-7735,-3301,-1,0,-1
73.61,-178.75,-113.15,-177,-7747,-3301,-1,0,-1
73.61,-178.76,-113.15,-179,-7751,-3310,0,0,-1
73.61,-178.76,-113.15,-177,-7754,-3313,0,-1,0
73.61,-178.76,-113.15,-178,-7746,-3306,-1,-1,0
73.61,-178.76,-113.15,-188,-7740,-3304,-1,-1,-1
73.61,-178.76,-113.15,-183,-7738,-3307,-1,0,-1
73.63,-178.76,-113.16,-178,-7740,-3321,-1,0,-1
73.62,-178.76,-113.17,-179,-7742,-3318,-1,0,0
73.63,-178.76,-113.17,-184,-7746,-3324,-1,0,-1
73.62,-178.76,-113.17,-175,-7759,-3327,0,0,-1
73.63,-178.76,-113.16,-183,-7749,-3322,0,-1,0
73.62,-178.76,-113.16,-177,-7738,-3306,0,0,-1
73.62,-178.77,-113.16,-187,-7742,-3312,-1,0,-1
73.62,-178.76,-113.17,-181,-7744,-3311,-1,0,-1
73.62,-178.77,-113.18,-178,-7750,-3321,-1,0,-1
73.61,-178.77,-113.18,-175,-7750,-3327,-1,0,-1
73.63,-178.77,-113.19,-173,-7747,-3323,-1,0,-1
73.61,-178.78,-113.19,-183,-7752,-3325,0,0,-1
73.61,-178.78,-113.19,-176,-7740,-3323,0,-1,0
73.61,-178.78,-113.19,-176,-7741,-3317,-1,-1,0
73.61,-178.78,-113.19,-180,-7743,-3321,-1,0,0
73.61,-178.78,-113.19,-178,-7738,-3320,-1,-1,0
73.61,-178.78,-113.19,-179,-7738,-3325,0,0,-1
73.61,-178.78,-113.19,-180,-7740,-3318,-1,0,-1
73.63,-178.78,-113.20,-175,-7740,-3324,-1,0,-1
73.63,-178.79,-113.20,-176,-7746,-3312,-1,0,-1
73.62,-178.79,-113.21,-181,-7739,-3323,-1,0,-1
73.64,-178.79,-113.22,-184,-7738,-3325,-1,0,-1
73.64,-178.79,-113.22,-182,-7738,-3327,-1,0,-1
73.64,-178.80,-113.22,-177,-7736,-3320,-1,0,-1
73.62,-178.80,-113.23,-172,-7738,-3321,-1,0,0
73.61,-178.80,-113.24,-178,-7741,-3327,-1,0,-1
73.61,-178.80,-113.24,-186,-7741,-3327,-1,0,-1
73.61,-178.81,-113.25,-178,-7740,-3324,-1,0,0
73.61,-178.80,-113.25,-182,-7743,-3333,-1,0,0
73.60,-178.81,-113.25,-177,-7736,-3338,0,0,0
73.61,-178.80,-113.25,-181,-7743,-3336,0,0,0
73.61,-178.80,-113.25,-175,-7739,-3336,-1,-1,0
73.61,-178.80,-113.26,-172,-7733,-3340,-1,0,-1
73.59,-178.80,-113.26,-176,-7736,-3334,-1,0,-1
73.59,-178.81,-113.26,-176,-7740,-3338,-1,0,-1
73.60,-178.81,-113.27,-173,-7742,-3342,0,0,-1
73.59,-178.81,-113.26,-180,-7744,-3339,0,-1,0
73.59,-178.81,-113.26,-176,-7732,-3336,0,0,0
73.59,-178.81,-113.26,-178,-7731,-3340,0,0,0
73.58,-178.81,-113.26,-183,-7736,-3330,-1,0,-1
73.58,-178.81,-113.26,-179,-7742,-3328,-1,0,-1
73.58,-178.81,-113.26,-177,-7742,-3321,-1,0,0
73.58,-178.81,-113.26,-175,-7740,-3327,-1,0,-1
73.58,-178.81,-113.26,-170,-7739,-3326,-1,0,-1
73.58,-178.82,-113.27,-175,-7734,-3328,-1,0,-1
73.58,-178.82,-113.27,-174,-7734,-3330,-1,-1,0
73.58,-178.82,-113.27,-179,-7735,-3332,0,0,-1
73.58,-178.82,-113.27,-179,-7732,-3333,0,0,-1
73.58,-178.82,-113.27,-175,-7727,-3333,0,0,0
73.57,-178.82,-113.27,-174,-7732,-3334,-1,0,0
73.57,-178.82,-113.27,-179,-7739,-3341,0,0,0
73.56,-178.81,-113.27,-182,-7742,-3339,0,0,0
73.56,-178.81,-113.27,-182,-7739,-3333,0,0,0
73.56,-178.81,-113.27,-181,-7738,-3333,-1,0,0
73.56,-178.81,-113.27,-185,-7741,-3322,-1,0,-1
73.55,-178.81,-113.27,-182,-7747,-3332,-1,0,-1
73.55,-178.81,-113.27,-181,-7744,-3327,-1,0,-1
73.55,-178.82,-113.28,-178,-7737,-3329,-1,0,-1
73.55,-178.82,-113.28,-177,-7732,-3327,0,0,-1
73.53,-178.82,-113.27,-173,-7744,-3323,-1,0,0
73.55,-178.82,-113.28,-174,-7744,-3329,-1,-1,-1
73.55,-178.82,-113.28,-169,-7742,-3331,-1,0,0
73.53,-178.82,-113.27,-169,-7737,-3331,0,0,-1
73.54,-178.83,-113.28,-169,-7735,-3327,0,0,-1
73.52,-178.83,-113.28,-168,-7735,-3330,-1,0,0
73.52,-178.83,-113.28,-175,-7733,-3334,0,0,-1
73.52,-178.83,-113.28,-175,-7734,-3330,-1,0,0
73.52,-178.83,-113.28,-171,-7736,-3336,-1,0,0
73.52,-178.83,-113.28,-171,-7736,-3332,-1,0,-1
73.52,-178.83,-113.28,-171,-7735,-3329,-1,0,-1
73.52,-178.83,-113.29,-167,-7736,-3330,-1,0,-1
73.50,-178.83,-113.29,-170,-7735,-3332,-1,0,0
73.52,-178.83,-113.30,-172,-7734,-3344,-1,0,0
73.52,-178.83,-113.30,-169,-7737,-3333,-1,0,-1
73.50,-178.83,-113.31,-176,-7740,-3331,-1,0,-1
73.51,-178.84,-113.31,-169,-7735,-3330,-1,0,-1
73.49,-178.84,-113.31,-173,-7738,-3334,-1,0,-1
73.49,-178.84,-113.31,-170,-7743,-3335,0,0,0
73.49,-178.84,-113.31,-169,-7738,-3334,0,0,0
73.49,-178.84,-113.31,-167,-7738,-3332,-1,0,0
73.47,-178.84,-113.31,-172,-7735,-3330,-1,0,0
73.49,-178.84,-113.32,-179,-7733,-3335,-1,0,0
73.47,-178.84,-113.32,-180,-7741,-3346,-1,0,-1
73.47,-178.84,-113.32,-179,-7747,-3356,0,0,0
73.47,-178.84,-113.32,-170,-7737,-3346,0,-1,0
73.49,-178.84,-113.33,-172,-7740,-3353,0,0,0
73.47,-178.84,-113.32,-171,-7734,-3332,-1,0,-1
73.46,-178.84,-113.33,-176,-7742,-3333,-1,0,-1
73.46,-178.84,-113.33,-177,-7747,-3338,-1,0,-1
73.46,-178.85,-113.33,-170,-7739,-3338,-1,0,-1
73.46,-178.85,-113.34,-170,-7731,-3334,-1,0,-1
73.46,-178.85,-113.34,-167,-7739,-3338,-1,-1,-1
73.47,-178.85,-113.34,-169,-7737,-3335,-1,0,0
73.48,-178.85,-113.34,-170,-7736,-3341,-1,-1,-1
73.48,-178.85,-113.34,-166,-7736,-3346,0,-1,0
73.48,-178.85,-113.35,-162,-7731,-3347,0,-1,0
73.48,-178.85,-113.35,-165,-7736,-3345,0,0,0
73.48,-178.85,-113.35,-167,-7734,-3339,0,-1,0
73.48,-178.85,-113.35,-166,-7733,-3339,0,-1,0
73.48,-178.85,-113.34,-175,-7737,-3344,0,-1,0
73.46,-178.84,-113.34,-178,-7738,-3345,0,-1,0
73.48,-178.85,-113.34,-176,-7746,-3340,0,0,-1
73.48,-178.85,-113.34,-168,-7742,-3337,-1,-1,-1
73.48,-178.85,-113.34,-170,-7734,-3332,-1,0,0
73.48,-178.85,-113.34,-171,-7728,-3331,-1,-1,0
73.46,-178.84,-113.34,-168,-7725,-3335,-1,0,0
73.48,-178.84,-113.35,-170,-7728,-3335,-1,0,-1
73.48,-178.84,-113.35,-170,-7736,-3346,0,-1,-1
73.48,-178.84,-113.35,-170,-7737,-3344,0,-1,0
73.46,-178.84,-113.34,-173,-7733,-3337,0,-1,0
73.46,-178.84,-113.34,-176,-7732,-3331,-1,-1,0
73.46,-178.84,-113.34,-160,-7731,-3332,-1,0,0
73.46,-178.84,-113.34,-170,-7730,-3326,-1,0,0
73.46,-178.84,-113.34,-170,-7729,-3325,-1,-1,-1
73.46,-178.84,-113.34,-172,-7731,-3338,-1,0,0
73.46,-178.84,-113.34,-175,-7725,-3328,0,-1,0
73.46,-178.84,-113.34,-171,-7725,-3322,0,-1,-1
73.46,-178.84,-113.34,-166,-7726,-3337,-1,0,0
73.46,-178.84,-113.34,-169,-7725,-3329,0,-1,0
73.47,-178.84,-113.33,-166,-7728,-3329,-1,-1,0
73.49,-178.84,-113.34,-169,-7728,-3338,0,-1,0
73.49,-178.83,-113.34,-170,-7727,-3334,0,-1,0
73.47,-178.83,-113.34,-174,-7734,-3345,0,-1,0
73.48,-178.82,-113.34,-187,-7737,-3342,0,-1,-1
73.48,-178.82,-113.34,-182,-7733,-3345,0,-1,-1
73.48,-178.82,-113.34,-186,-7740,-3341,-1,-1,-1
73.48,-178.82,-113.34,-180,-7734,-3347,0,-1,0
73.48,-178.82,-113.34,-182,-7735,-3341,0,-1,0
73.49,-178.82,-113.33,-176,-7728,-3335,0,-1,0
73.49,-178.82,-113.33,-175,-7725,-3338,0,0,0
73.48,-178.81,-113.33,-174,-7720,-3335,-1,-1,0
73.48,-178.81,-113.33,-173,-7731,-3342,-1,-1,0
73.49,-178.81,-113.34,-173,-7735,-3340,-1,-1,0
73.50,-178.82,-113.34,-173,-7735,-3368,0,-1,0
73.49,-178.81,-113.34,-170,-7734,-3355,0,-1,0
73.49,-178.80,-113.33,-185,-7738,-3353,0,-1,0
73.49,-178.80,-113.33,-182,-7731,-3343,0,0,-1
73.49,-178.80,-113.33,-185,-7726,-3337,0,0,-1
73.48,-178.81,-113.33,-182,-7733,-3333,-1,0,-1
73.48,-178.81,-113.33,-179,-7732,-3330,0,-1,-1
73.48,-178.81,-113.33,-166,-7728,-3326,-1,-1,-1
73.49,-178.81,-113.33,-162,-7732,-3313,-1,-1,-1
73.48,-178.82,-113.32,-159,-7727,-3314,-1,-1,-1
73.48,-178.82,-113.32,-162,-7742,-3322,-1,-1,0
73.48,-178.82,-113.32,-165,-7746,-3334,0,-1,0
73.48,-178.82,-113.32,-171,-7745,-3331,0,-1,0
73.49,-178.81,-113.31,-175,-7737,-3337,0,-1,0
73.50,-178.82,-113.32,-171,-7733,-3344,0,-1,-1
73.50,-178.82,-113.32,-173,-7730,-3344,-1,0,-1
73.50,-178.82,-113.32,-177,-7730,-3339,0,-1,0
73.50,-178.82,-113.32,-176,-7739,-3342,0,-1,0
73.48,-178.81,-113.31,-174,-7736,-3337,0,-1,-1
73.48,-178.81,-113.31,-180,-7731,-3322,0,-1,-1
73.48,-178.81,-113.31,-178,-7734,-3320,-1,-1,-1
73.48,-178.82,-113.31,-174,-7733,-3331,-1,-1,-1
73.49,-178.81,-113.31,-169,-7729,-3338,-1,0,0
73.49,-178.81,-113.31,-179,-7725,-3333,-1,-1,0
73.49,-178.81,-113.31,-177,-7727,-3332,-1,-1,0
73.49,-178.81,-113.33,-183,-7734,-3346,0,-1,0
73.49,-178.81,-113.32,-178,-7738,-3356,0,-1,0
73.49,-178.81,-113.32,-179,-7734,-3351,0,-1,0
73.49,-178.80,-113.31,-186,-7735,-3349,0,-1,0
73.49,-178.80,-113.31,-178,-7735,-3335,0,-1,0
73.50,-178.80,-113.31,-177,-7726,-3333,0,-1,0
73.50,-178.80,-113.31,-182,-7723,-3333,0,0,-1
73.50,-178.80,-113.31,-175,-7724,-3332,-1,-1,-1
73.50,-178.80,-113.31,-174,-7727,-3334,-1,-1,-1
73.50,-178.80,-113.31,-177,-7731,-3342,0,0,-1
73.50,-178.80,-113.31,-171,-7733,-3340,0,-1,0
73.50,-178.80,-113.31,-170,-7735,-3336,0,-1,-1
73.49,-178.80,-113.30,-169,-7737,-3328,0,-1,0
73.49,-178.80,-113.30,-177,-7739,-3326,0,-1,0
73.49,-178.80,-113.30,-180,-7735,-3334,-1,-1,0
73.50,-178.80,-113.31,-183,-7738,-3340,-1,-1,0
73.50,-178.80,-113.31,-181,-7738,-3341,0,-1,-1
73.50,-178.80,-113.31,-175,-7740,-3343,0,-1,0
73.49,-178.80,-113.30,-176,-7735,-3333,0,-1,-1
73.48,-178.79,-113.30,-175,-7738,-3323,0,-1,0
73.48,-178.79,-113.30,-177,-7733,-3325,-1,-1,0
73.48,-178.79,-113.30,-179,-7732,-3326,-1,0,-1
73.49,-178.80,-113.30,-178,-7738,-3332,-1,0,-1
73.49,-178.80,-113.30,-171,-7738,-3346,-1,0,-1
73.50,-178.80,-113.31,-171,-7743,-3354,0,-1,0
73.49,-178.80,-113.30,-173,-7737,-3355,0,-1,0
73.48,-178.79,-113.30,-181,-7729,-3342,0,-1,0
73.48,-178.79,-113.30,-183,-7734,-3332,0,0,0
73.48,-178.79,-113.30,-179,-7735,-3329,-1,0,-1
73.47,-178.80,-113.29,-181,-7743,-3332,-1,0,-1
73.47,-178.80,-113.30,-176,-7736,-3336,-1,-1,-1
73.47,-178.80,-113.30,-183,-7731,-3324,-1,0,-1
73.48,-178.80,-113.30,-184,-7737,-3319,-1,0,-1
73.47,-178.80,-113.30,-180,-7737,-3317,-1,0,-1
73.47,-178.80,-113.30,-180,-7733,-3324,-1,-1,0
73.48,-178.80,-113.30,-184,-7734,-3330,-1,-1,0
73.47,-178.80,-113.30,-176,-7740,-3329,0,0,0
73.47,-178.80,-113.30,-172,-7730,-3325,-1,0,-1
73.47,-178.80,-113.30,-171,-7734,-3318,-1,0,0
73.47,-178.80,-113.30,-179,-7728,-3331,0,0,0
73.47,-178.80,-113.30,-175,-7734,-3335,0,0,0
73.47,-178.80,-113.29,-180,-7741,-3333,0,0,0
73.45,-178.80,-113.29,-171,-7740,-3330,0,0,0
73.43,-178.80,-113.28,-165,-7740,-3311,-1,0,0
73.43,-178.80,-113.28,-171,-7739,-3323,-1,0,-1
73.45,-178.81,-113.29,-169,-7743,-3329,-1,0,-1
73.44,-178.81,-113.30,-172,-7740,-3334,-1,0,-1
73.42,-178.82,-113.30,-169,-7742,-3339,-1,0,-1
73.43,-178.82,-113.30,-167,-7745,-3345,0,-1,0
73.42,-178.82,-113.30,-172,-7745,-3338,0,-1,0
73.42,-178.82,-113.30,-172,-7743,-3337,0,0,0
73.42,-178.82,-113.30,-173,-7735,-3342,0,0,0
73.42,-178.82,-113.30,-175,-7738,-3338,0,-1,0
73.42,-178.81,-113.30,-174,-7734,-3333,0,-1,-1
73.42,-178.81,-113.30,-176,-7727,-3337,0,-1,0
73.42,-178.81,-113.30,-176,-7732,-3331,-1,0,0
73.42,-178.81,-113.30,-182,-7739,-3336,-1,0,0
73.41,-178.82,-113.29,-175,-7744,-3332,0,0,-1
73.40,-178.81,-113.29,-172,-7743,-3335,0,-1,0
73.40,-178.81,-113.29,-169,-7737,-3329,-1,-1,0
73.40,-178.81,-113.29,-171,-7734,-3325,-1,0,0
73.41,-178.82,-113.29,-168,-7737,-3333,-1,0,-1
73.41,-178.82,-113.30,-171,-7733,-3332,-1,0,-1
73.43,-178.82,-113.30,-166,-7735,-3344,-1,0,0
73.41,-178.83,-113.30,-161,-7734,-3344,0,-1,0
73.41,-178.82,-113.30,-168,-7727,-3333,0,-1,0
73.41,-178.82,-113.29,-177,-7722,-3327,0,-1,0
73.41,-178.82,-113.29,-174,-7722,-3324,-1,-1,0
73.41,-178.82,-113.29,-170,-7727,-3331,-1,0,0
73.39,-178.82,-113.30,-178,-7740,-3339,-1,0,0
73.39,-178.82,-113.30,-174,-7740,-3340,0,-1,0
73.39,-178.82,-113.30,-180,-7742,-3339,0,0,0
73.38,-178.81,-113.29,-178,-7737,-3336,0,-1,0
73.40,-178.81,-113.29,-178,-7731,-3338,0,0,-1
73.38,-178.82,-113.28,-176,-7731,-3322,-1,0,-1
73.37,-178.82,-113.29,-173,-7736,-3325,-1,0,0
73.37,-178.82,-113.29,-175,-7737,-3326,-1,0,0
73.37,-178.82,-113.29,-173,-7734,-3328,-1,0,-1
73.37,-178.82,-113.29,-172,-7736,-3333,-1,0,-1
73.38,-178.83,-113.30,-169,-7734,-3331,-1,0,-1
73.38,-178.83,-113.30,-174,-7736,-3334,-1,0,-1
73.38,-178.83,-113.30,-180,-7738,-3330,-1,0,0
73.37,-178.83,-113.30,-179,-7742,-3331,0,0,-1
73.37,-178.83,-113.30,-178,-7738,-3331,0,0,-1
73.35,-178.82,-113.30,-172,-7732,-3335,-1,-1,0
73.35,-178.82,-113.30,-179,-7734,-3333,-1,-1,0
73.35,-178.82,-113.30,-173,-7736,-3333,0,-1,0
73.37,-178.83,-113.30,-170,-7738,-3322,0,-1,0
73.36,-178.83,-113.29,-172,-7739,-3324,0,0,-1
73.36,-178.83,-113.29,-176,-7742,-3333,0,0,-1
73.36,-178.83,-113.29,-169,-7741,-3326,-1,0,-1
73.36,-178.83,-113.29,-169,-7736,-3322,-1,-1,0
73.36,-178.83,-113.29,-169,-7742,-3329,-1,-1,0
73.36,-178.83,-113.29,-173,-7742,-3335,-1,0,-1
73.34,-178.83,-113.30,-169,-7741,-3334,0,0,0
73.36,-178.83,-113.29,-172,-7737,-3336,0,-1,0
73.34,-178.83,-113.30,-169,-7737,-3333,0,-1,0
73.34,-178.82,-113.29,-168,-7749,-3344,0,0,0
73.34,-178.83,-113.30,-166,-7737,-3347,0,0,0
73.34,-178.83,-113.30,-173,-7738,-3345,0,0,-1
73.34,-178.83,-113.30,-166,-7733,-3332,0,0,-1
73.34,-178.83,-113.30,-170,-7729,-3331,0,0,-1
73.32,-178.83,-113.29,-165,-7734,-3325,-1,0,0
73.32,-178.83,-113.29,-173,-7736,-3335,-1,0,0
73.34,-178.83,-113.30,-174,-7739,-3338,-1,0,0
73.34,-178.83,-113.30,-177,-7733,-3336,0,0,-1
73.34,-178.83,-113.30,-170,-7727,-3326,-1,-1,0
73.32,-178.83,-113.29,-173,-7736,-3321,0,0,0
73.32,-178.83,-113.29,-174,-7733,-3330,0,-1,0
73.34,-178.83,-113.30,-178,-7733,-3334,-1,-1,-1
73.32,-178.83,-113.30,-177,-7738,-3340,-1,0,0
73.32,-178.83,-113.30,-178,-7736,-3343,0,0,-1
73.32,-178.83,-113.30,-172,-7738,-3339,0,0,-1
73.32,-178.83,-113.30,-170,-7737,-3343,0,-1,0
73.32,-178.83,-113.30,-179,-7737,-3342,0,0,0
73.32,-178.83,-113.30,-177,-7738,-3336,-1,0,-1
73.32,-178.83,-113.30,-175,-7733,-3334,-1,-1,-1
73.32,-178.83,-113.30,-165,-7728,-3343,-1,-1,0
73.32,-178.82,-113.31,-170,-7730,-3345,0,-1,0
73.32,-178.83,-113.30,-174,-7731,-3341,0,-1,0
73.32,-178.83,-113.30,-177,-7733,-3331,0,0,-1
73.30,-178.83,-113.29,-182,-7732,-3318,-1,0,-1
73.30,-178.83,-113.30,-177,-7727,-3329,-1,0,-1
73.32,-178.83,-113.30,-179,-7733,-3335,-1,0,-1
73.30,-178.83,-113.30,-181,-7727,-3340,-1,0,0
73.31,-178.83,-113.31,-174,-7725,-3339,-1,0,-1
73.31,-178.83,-113.31,-170,-7727,-3337,-1,0,-1
73.31,-178.83,-113.31,-166,-7733,-3336,-1,0,-1
73.31,-178.84,-113.31,-171,-7732,-3342,-1,0,0
73.31,-178.84,-113.31,-172,-7732,-3343,0,0,0
73.29,-178.83,-113.32,-172,-7729,-3335,0,0,0
73.29,-178.83,-113.32,-172,-7724,-3330,-1,0,-1
73.29,-178.83,-113.32,-170,-7730,-3340,-1,0,-1
73.29,-178.83,-113.32,-173,-7730,-3341,-1,0,0
73.29,-178.83,-113.32,-178,-7733,-3339,0,0,0
73.29,-178.83,-113.32,-177,-7739,-3336,-1,0,0
73.29,-178.83,-113.32,-177,-7738,-3335,-1,0,-1
73.27,-178.83,-113.32,-176,-7736,-3338,-1,0,-1
73.27,-178.84,-113.32,-175,-7737,-3339,-1,0,-1
73.28,-178.84,-113.33,-176,-7736,-3340,-1,0,-1
73.29,-178.84,-113.33,-173,-7734,-3333,-1,0,-1
73.28,-178.84,-113.33,-167,-7731,-3323,0,0,-1
73.28,-178.84,-113.33,-161,-7729,-3326,-1,-1,0
73.28,-178.84,-113.33,-169,-7726,-3334,0,0,0
73.27,-178.83,-113.32,-170,-7725,-3338,0,0,0
73.27,-178.83,-113.32,-169,-7732,-3335,0,-1,0
73.27,-178.83,-113.32,-163,-7737,-3333,0,0,0
73.27,-178.84,-113.33,-165,-7736,-3334,-1,0,-1
73.27,-178.84,-113.33,-169,-7734,-3336,-1,0,-1
73.27,-178.84,-113.33,-176,-7739,-3335,-1,0,-1
73.26,-178.84,-113.32,-178,-7738,-3335,-1,0,-1
73.26,-178.85,-113.33,-176,-7731,-3335,-1,0,-1
73.26,-178.85,-113.33,-176,-7732,-3338,-1,0,-1
73.26,-178.85,-113.33,-174,-7735,-3336,-1,0,-1
73.26,-178.85,-113.33,-169,-7733,-3337,-1,0,0
73.24,-178.84,-113.33,-170,-7729,-3339,-1,0,0
73.26,-178.84,-113.33,-175,-7736,-3345,-1,-1,0
73.26,-178.84,-113.33,-171,-7738,-3342,-1,0,-1
73.24,-178.85,-113.33,-167,-7736,-3341,-1,0,-1
73.24,-178.85,-113.33,-170,-7739,-3337,-1,0,-1
73.24,-178.85,-113.33,-173,-7739,-3339,0,0,-1
73.24,-178.85,-113.33,-170,-7734,-3332,0,0,-1
73.23,-178.85,-113.33,-167,-7726,-3324,0,0,0
73.23,-178.85,-113.33,-163,-7722,-3322,-1,0,0
73.23,-178.85,-113.33,-165,-7731,-3329,-1,0,-1
73.23,-178.85,-113.34,-169,-7739,-3340,-1,0,-1
73.25,-178.85,-113.35,-170,-7739,-3357,-1,0,0
73.23,-178.86,-113.36,-175,-7736,-3355,0,0,0
73.23,-178.85,-113.35,-174,-7734,-3349,0,-1,0
73.23,-178.85,-113.34,-173,-7727,-3345,0,-1,0
73.23,-178.85,-113.34,-170,-7722,-3338,0,0,-1
73.23,-178.85,-113.34,-167,-7729,-3330,-1,0,-1
73.22,-178.86,-113.35,-163,-7725,-3342,-1,0,-1
73.22,-178.86,-113.35,-167,-7734,-3345,-1,-1,0
73.22,-178.86,-113.35,-175,-7730,-3347,-1,0,-1
73.23,-178.85,-113.35,-175,-7727,-3341,-1,-1,-1
73.23,-178.85,-113.35,-173,-7728,-3343,0,-1,0
73.23,-178.86,-113.36,-169,-7740,-3346,0,-1,-1
73.23,-178.86,-113.36,-172,-7743,-3344,0,-1,0
73.23,-178.86,-113.36,-166,-7740,-3337,-1,-1,-1
73.23,-178.86,-113.36,-174,-7739,-3333,-1,-1,0
73.23,-178.86,-113.36,-164,-7734,-3342,-1,-1,0
73.23,-178.86,-113.36,-167,-7733,-3343,0,-1,0
73.23,-178.85,-113.35,-169,-7736,-3346,0,-1,0
73.23,-178.85,-113.35,-171,-7736,-3342,0,0,0
73.21,-178.85,-113.35,-174,-7733,-3333,0,-1,0
73.21,-178.85,-113.35,-173,-7728,-3338,0,0,-1
73.21,-178.85,-113.35,-168,-7728,-3332,-1,0,0
73.23,-178.85,-113.35,-175,-7736,-3334,-1,-1,-1
73.23,-178.85,-113.35,-173,-7738,-3346,-1,0,-1
73.23,-178.85,-113.35,-162,-7740,-3350,-1,-1,-1
73.24,-178.86,-113.36,-158,-7744,-3352,0,0,-1
73.23,-178.86,-113.36,-166,-7732,-3348,0,-1,0
73.23,-178.86,-113.36,-160,-7729,-3350,0,-1,0
73.23,-178.86,-113.36,-160,-7727,-3342,-1,-1,0
73.21,-178.85,-113.36,-165,-7728,-3360,-1,0,0
73.21,-178.85,-113.36,-173,-7732,-3356,0,0,0
73.21,-178.85,-113.36,-171,-7731,-3340,0,-1,0
73.21,-178.85,-113.36,-170,-7729,-3336,-1,-1,0
73.21,-178.85,-113.36,-174,-7734,-3336,0,0,0
73.21,-178.85,-113.36,-170,-7731,-3333,-1,0,0
73.21,-178.85,-113.36,-177,-7733,-3336,-1,0,0
73.21,-178.85,-113.36,-178,-7737,-3338,-1,0,0
73.21,-178.85,-113.36,-176,-7733,-3341,0,-1,0
73.21,-178.85,-113.36,-171,-7737,-3340,-1,-1,0
73.21,-178.85,-113.36,-175,-7732,-3341,-1,0,0
73.23,-178.85,-113.36,-167,-7731,-3342,-1,-1,0
73.23,-178.85,-113.36,-164,-7726,-3345,-1,0,-1
73.23,-178.85,-113.36,-165,-7727,-3347,0,0,0
73.21,-178.85,-113.35,-173,-7740,-3341,0,-1,0
73.21,-178.84,-113.35,-173,-7734,-3332,0,-1,0
73.21,-178.84,-113.35,-172,-7728,-3331,-1,-1,0
73.21,-178.84,-113.35,-172,-7726,-3336,-1,0,-1
73.21,-178.84,-113.36,-171,-7730,-3353,-1,0,-1
73.21,-178.84,-113.37,-169,-7728,-3360,0,0,0
73.21,-178.84,-113.36,-174,-7729,-3365,0,-1,0
73.21,-178.84,-113.36,-172,-7721,-3353,0,-1,0
73.20,-178.84,-113.36,-168,-7727,-3343,0,-1,0
73.20,-178.84,-113.35,-169,-7740,-3336,-1,0,-1
73.19,-178.84,-113.36,-168,-7739,-3341,-1,-1,-1
73.19,-178.84,-113.36,-170,-7738,-3342,-1,-1,0
73.21,-178.84,-113.36,-175,-7733,-3336,-1,-1,0
73.21,-178.84,-113.36,-170,-7736,-3333,-1,-1,-1
73.21,-178.84,-113.36,-171,-7736,-3344,0,-1,-1
73.21,-178.84,-113.36,-166,-7731,-3344,-1,-1,0
73.21,-178.84,-113.36,-169,-7739,-3354,-1,-1,0
73.21,-178.84,-113.36,-171,-7736,-3355,0,-1,0
73.20,-178.84,-113.36,-177,-7731,-3332,0,0,0
73.20,-178.84,-113.36,-172,-7727,-3342,0,-1,0
73.20,-178.84,-113.36,-170,-7722,-3339,0,0,0
73.20,-178.83,-113.36,-171,-7732,-3342,0,-1,0
73.20,-178.83,-113.36,-172,-7739,-3348,0,-1,0
73.20,-178.83,-113.36,-177,-7742,-3343,0,0,0
73.19,-178.84,-113.35,-169,-7738,-3339,0,0,-1
73.19,-178.84,-113.35,-167,-7726,-3330,-1,-1,0
73.20,-178.83,-113.36,-174,-7732,-3330,-1,-1,0
73.20,-178.83,-113.36,-173,-7727,-3332,-1,-1,0
73.20,-178.83,-113.36,-169,-7733,-3339,-1,-1,0
73.20,-178.83,-113.36,-170,-7734,-3345,0,-1,0
73.20,-178.83,-113.36,-165,-7742,-3346,0,-1,0
73.20,-178.83,-113.36,-167,-7734,-3340,0,-1,0
73.20,-178.83,-113.35,-175,-7731,-3336,0,-1,0
73.20,-178.83,-113.35,-176,-7734,-3329,-1,0,0
73.20,-178.83,-113.35,-172,-7736,-3335,-1,-1,0
73.20,-178.83,-113.35,-170,-7727,-3345,-1,-1,0
73.20,-178.83,-113.35,-172,-7734,-3347,0,-1,-1
73.20,-178.83,-113.35,-171,-7742,-3340,0,-1,-1
73.18,-178.83,-113.34,-168,-7747,-3329,0,-1,0
73.20,-178.83,-113.34,-166,-7744,-3330,0,-1,0
73.18,-178.83,-113.34,-166,-7731,-3343,-1,0,0
73.19,-178.82,-113.35,-169,-7727,-3343,-1,-1,0
73.19,-178.82,-113.35,-166,-7732,-3342,0,-1,0
73.18,-178.83,-113.34,-178,-7736,-3338,0,-1,-1
73.18,-178.83,-113.34,-181,-7741,-3337,-1,0,-1
73.20,-178.83,-113.34,-175,-7742,-3342,0,-1,0
73.21,-178.82,-113.34,-178,-7731,-3340,0,-1,-1
73.21,-178.82,-113.34,-173,-7732,-3345,0,-1,-1
73.20,-178.82,-113.33,-167,-7736,-3349,0,-1,-1
73.21,-178.83,-113.33,-170,-7732,-3341,0,-1,0
73.21,-178.82,-113.33,-175,-7729,-3340,0,-1,0
73.21,-178.82,-113.33,-175,-7730,-3346,-1,-1,-1
73.21,-178.82,-113.33,-172,-7729,-3334,-1,0,-1
73.21,-178.82,-113.33,-175,-7728,-3331,-1,0,0
73.21,-178.82,-113.33,-180,-7733,-3337,0,-1,0
73.21,-178.82,-113.32,-178,-7733,-3331,0,-1,0
73.21,-178.81,-113.32,-181,-7732,-3323,0,-1,0
73.21,-178.82,-113.31,-176,-7729,-3322,0,-1,0
73.19,-178.81,-113.31,-176,-7735,-3327,-1,0,0
73.21,-178.82,-113.32,-179,-7743,-3336,-1,0,-1
73.21,-178.82,-113.33,-177,-7744,-3340,-1,0,-1
73.21,-178.82,-113.33,-170,-7732,-3335,-1,0,0
73.21,-178.82,-113.33,-173,-7734,-3335,0,0,-1
73.20,-178.83,-113.32,-167,-7726,-3340,0,0,-1
73.21,-178.82,-113.33,-182,-7737,-3340,-1,0,0
73.21,-178.82,-113.33,-178,-7742,-3343,-1,-1,0
73.21,-178.82,-113.33,-179,-7739,-3348,0,0,0
73.21,-178.82,-113.33,-178,-7731,-3340,0,0,-1
73.20,-178.83,-113.32,-174,-7740,-3329,0,-1,0
73.20,-178.83,-113.32,-171,-7736,-3334,0,-1,0
73.19,-178.82,-113.32,-182,-7740,-3336,0,-1,0
73.19,-178.82,-113.32,-182,-7736,-3344,-1,-1,-1
73.19,-178.82,-113.32,-179,-7737,-3348,0,0,-1
73.20,-178.83,-113.32,-172,-7728,-3339,-1,0,-1
73.20,-178.83,-113.32,-165,-7734,-3342,-1,0,-1
73.20,-178.83,-113.32,-166,-7731,-3332,-1,-1,0
73.21,-178.82,-113.33,-172,-7733,-3328,-1,-1,0
73.20,-178.82,-113.33,-173,-7732,-3340,-1,0,-1
73.20,-178.83,-113.34,-172,-7738,-3343,-1,0,-1
73.22,-178.83,-113.33,-170,-7743,-3343,0,-1,-1
73.21,-178.83,-113.33,-173,-7740,-3346,0,-1,0
73.21,-178.83,-113.33,-172,-7735,-3341,0,0,0
73.20,-178.83,-113.32,-169,-7738,-3340,0,0,-1
73.20,-178.83,-113.33,-171,-7738,-3348,-1,0,-1
73.20,-178.83,-113.33,-175,-7739,-3340,0,0,0
73.20,-178.83,-113.33,-177,-7744,-3333,0,0,-1
73.20,-178.83,-113.33,-178,-7737,-3338,-1,-1,-1
73.20,-178.83,-113.33,-181,-7738,-3344,0,0,0
73.20,-178.83,-113.33,-181,-7742,-3339,0,0,0
73.18,-178.83,-113.32,-174,-7731,-3329,0,0,0
73.18,-178.83,-113.32,-173,-7733,-3342,-1,0,-1
73.18,-178.83,-113.32,-174,-7737,-3341,-1,0,0
73.20,-178.83,-113.33,-171,-7735,-3352,-1,-1,0
73.18,-178.83,-113.33,-174,-7740,-3355,-1,0,0
73.18,-178.83,-113.33,-181,-7741,-3346,0,0,0
73.18,-178.82,-113.33,-185,-7744,-3342,0,-1,0
73.18,-178.82,-113.33,-183,-7741,-3345,0,-1,0
73.18,-178.82,-113.33,-179,-7735,-3349,0,-1,0
73.18,-178.82,-113.33,-181,-7736,-3344,-1,0,0
73.20,-178.82,-113.33,-175,-7731,-3344,-1,0,-1
73.20,-178.83,-113.34,-165,-7741,-3349,-1,0,-1
73.20,-178.83,-113.34,-172,-7743,-3344,0,0,0
73.20,-178.83,-113.34,-172,-7744,-3346,0,-1,0
73.18,-178.82,-113.33,-172,-7743,-3340,0,-1,0
73.18,-178.82,-113.33,-176,-7726,-3331,0,-1,-1
73.18,-178.82,-113.33,-184,-7722,-3335,-1,0,0
73.19,-178.82,-113.33,-179,-7725,-3340,-1,0,0
73.18,-178.83,-113.34,-172,-7734,-3353,-1,0,0
73.20,-178.83,-113.35,-170,-7742,-3367,0,-1,0
73.18,-178.82,-113.34,-176,-7738,-3350,0,-1,0
73.18,-178.83,-113.33,-173,-7728,-3336,0,0,-1
73.18,-178.83,-113.33,-165,-7729,-3328,0,0,-1
73.16,-178.83,-113.33,-172,-7737,-3329,-1,0,-1
73.16,-178.83,-113.33,-174,-7741,-3327,-1,0,-1
73.18,-178.83,-113.34,-176,-7734,-3333,-1,0,-1
73.16,-178.83,-113.34,-181,-7736,-3338,-1,0,-1
73.15,-178.84,-113.34,-177,-7739,-3340,0,0,-1
73.15,-178.83,-113.33,-181,-7733,-3337,0,-1,0
73.16,-178.83,-113.34,-173,-7732,-3340,-1,-1,0
73.15,-178.83,-113.33,-165,-7724,-3337,0,0,0
73.15,-178.83,-113.33,-169,-7726,-3339,-1,0,0
73.16,-178.84,-113.34,-170,-7728,-3331,-1,0,0
73.16,-178.84,-113.34,-170,-7734,-3337,-1,0,0
73.16,-178.84,-113.34,-172,-7733,-3335,0,0,0
73.16,-178.84,-113.34,-173,-7735,-3337,0,-1,0
73.15,-178.84,-113.34,-178,-7739,-3336,0,0,-1
73.15,-178.84,-113.34,-176,-7735,-3332,0,0,-1
73.15,-178.84,-113.34,-174,-7731,-3327,-1,0,-1
73.15,-178.84,-113.34,-172,-7729,-3330,-1,0,-1
73.13,-178.84,-113.34,-172,-7734,-3337,-1,0,-1
73.14,-178.85,-113.35,-174,-7732,-3350,-1,0,-1
73.14,-178.85,-113.35,-171,-7733,-3354,-1,0,-1
73.14,-178.85,-113.35,-168,-7728,-3350,-1,-1,0
73.14,-178.85,-113.35,-169,-7729,-3347,0,0,0
73.14,-178.85,-113.35,-168,-7734,-3346,0,-1,0
73.14,-178.85,-113.35,-168,-7734,-3335,-1,0,-1
73.14,-178.85,-113.35,-167,-7732,-3335,0,0,-1
73.14,-178.85,-113.35,-171,-7737,-3334,-1,0,0
73.14,-178.85,-113.35,-166,-7740,-3336,-1,0,-1
73.14,-178.85,-113.35,-171,-7740,-3343,-1,0,0
73.12,-178.85,-113.36,-174,-7737,-3338,-1,0,0
73.13,-178.85,-113.36,-172,-7739,-3340,-1,0,0
73.13,-178.85,-113.36,-165,-7736,-3337,-1,0,-1
73.13,-178.86,-113.37,-169,-7734,-3335,-1,0,-1
73.13,-178.86,-113.37,-167,-7736,-3336,-1,0,0
73.13,-178.86,-113.37,-168,-7734,-3341,-1,0,0
73.13,-178.86,-113.37,-173,-7730,-3346,-1,-1,0
73.13,-178.86,-113.37,-179,-7734,-3355,-1,0,-1
73.13,-178.86,-113.38,-175,-7734,-3351,-1,0,0
73.11,-178.86,-113.37,-173,-7729,-3342,0,0,-1
73.11,-178.86,-113.37,-176,-7732,-3337,-1,0,0
73.11,-178.86,-113.37,-172,-7739,-3344,0,-1,0
73.11,-178.86,-113.37,-167,-7731,-3339,0,-1,0
73.13,-178.86,-113.37,-165,-7722,-3330,-1,-1,-1
73.13,-178.86,-113.38,-162,-7732,-3351,-1,0,-1
73.13,-178.86,-113.38,-163,-7738,-3361,-1,0,-1
73.15,-178.87,-113.39,-166,-7733,-3366,-1,-1,0
73.13,-178.86,-113.39,-172,-7735,-3369,0,-1,0
73.15,-178.86,-113.39,-172,-7732,-3363,0,-1,0
73.13,-178.86,-113.38,-175,-7734,-3353,0,0,0
73.13,-178.86,-113.38,-176,-7729,-3345,-1,0,0
73.13,-178.86,-113.38,-176,-7734,-3336,-1,0,-1
73.13,-178.86,-113.38,-178,-7737,-3347,-1,-1,0
73.13,-178.85,-113.39,-176,-7730,-3352,-1,0,-1
73.13,-178.86,-113.39,-174,-7727,-3351,-1,-1,-1
73.15,-178.86,-113.39,-168,-7730,-3344,0,-1,-1
73.15,-178.86,-113.39,-169,-7725,-3344,-1,-1,0
73.15,-178.86,-113.39,-167,-7723,-3343,-1,-1,0
73.15,-178.86,-113.39,-162,-7731,-3343,-1,-1,-1
73.15,-178.86,-113.39,-158,-7731,-3346,0,0,-1
73.15,-178.86,-113.39,-161,-7725,-3353,0,0,0
73.15,-178.86,-113.39,-170,-7724,-3359,0,-1,0
73.14,-178.86,-113.38,-176,-7725,-3351,0,-1,0
73.14,-178.85,-113.38,-172,-7727,-3343,0,-1,0
73.14,-178.85,-113.38,-175,-7727,-3336,0,0,0
73.12,-178.85,-113.37,-174,-7731,-3332,-1,0,0
73.12,-178.85,-113.37,-175,-7733,-3336,-1,0,-1
73.13,-178.86,-113.38,-168,-7737,-3343,-1,-1,-1
73.14,-178.86,-113.38,-171,-7733,-3344,-1,-1,-1
73.14,-178.86,-113.38,-176,-7730,-3344,-1,-1,-1
73.14,-178.86,-113.38,-167,-7730,-3347,-1,0,-1
73.14,-178.86,-113.38,-166,-7723,-3342,0,-1,0
73.14,-178.86,-113.38,-167,-7725,-3349,0,-1,0
73.14,-178.86,-113.38,-164,-7721,-3351,0,-1,0
73.14,-178.86,-113.38,-173,-7728,-3350,0,-1,0
73.14,-178.85,-113.38,-172,-7731,-3342,0,-1,0
73.14,-178.85,-113.38,-174,-7731,-3348,0,-1,0
73.14,-178.85,-113.38,-173,-7732,-3352,0,0,0
73.14,-178.85,-113.38,-173,-7734,-3351,-1,-1,0
73.14,-178.85,-113.38,-174,-7730,-3348,0,0,0
73.14,-178.84,-113.37,-169,-7735,-3343,0,-1,-1
73.14,-178.84,-113.37,-170,-7734,-3343,0,-1,0
73.14,-178.84,-113.37,-174,-7728,-3336,0,-1,0
73.16,-178.85,-113.37,-173,-7725,-3334,-1,0,0
73.14,-178.84,-113.37,-175,-7726,-3335,-1,0,-1
73.16,-178.85,-113.38,-174,-7727,-3349,-1,0,-1
73.16,-178.85,-113.38,-174,-7731,-3359,0,-1,-1
73.16,-178.85,-113.38,-177,-7733,-3356,0,-1,0
73.16,-178.84,-113.38,-166,-7720,-3349,0,-1,0
73.15,-178.84,-113.38,-173,-7720,-3346,-1,0,0
73.15,-178.84,-113.38,-180,-7725,-3347,-1,0,-1
73.15,-178.83,-113.38,-179,-7737,-3352,-1,0,0
73.15,-178.83,-113.38,-179,-7733,-3355,0,0,0
73.15,-178.83,-113.38,-170,-7731,-3360,0,0,0
73.13,-178.84,-113.38,-173,-7729,-3356,0,-1,0
73.15,-178.84,-113.37,-173,-7730,-3349,0,-1,0
73.15,-178.83,-113.37,-172,-7734,-3342,0,-1,0
73.15,-178.84,-113.37,-175,-7732,-3349,-1,0,-1
73.15,-178.84,-113.37,-166,-7733,-3347,-1,-1,-1
73.15,-178.84,-113.37,-171,-7737,-3345,-1,-1,0
73.15,-178.84,-113.38,-171,-7730,-3343,-1,-1,-1
73.15,-178.84,-113.38,-172,-7722,-3349,-1,0,-1
73.16,-178.84,-113.38,-164,-7728,-3348,-1,-1,0
73.17,-178.84,-113.38,-166,-7731,-3344,-1,-1,-1
73.17,-178.84,-113.38,-169,-7734,-3350,0,-1,0
73.17,-178.84,-113.38,-169,-7731,-3353,0,-1,0
73.17,-178.84,-113.38,-170,-7727,-3353,-1,-1,0
73.17,-178.84,-113.38,-169,-7731,-3346,-1,-1,0
73.17,-178.84,-113.38,-169,-7739,-3347,0,-1,0
73.17,-178.83,-113.38,-174,-7739,-3350,0,-1,0
73.15,-178.83,-113.38,-172,-7734,-3360,0,0,0
73.17,-178.83,-113.38,-171,-7734,-3351,0,-1,0
73.17,-178.83,-113.38,-170,-7729,-3343,-1,-1,0
73.17,-178.83,-113.38,-173,-7729,-3343,-1,-1,-1
73.17,-178.83,-113.38,-172,-7728,-3338,-1,-1,0
73.16,-178.83,-113.39,-177,-7736,-3340,-1,-1,0
73.16,-178.83,-113.39,-179,-7739,-3344,0,-1,0
73.18,-178.82,-113.38,-180,-7739,-3346,-1,-1,0
73.16,-178.82,-113.38,-174,-7732,-3347,0,-1,0
73.18,-178.82,-113.38,-178,-7737,-3345,0,-1,0
73.18,-178.82,-113.38,-169,-7736,-3341,0,-1,0
73.18,-178.82,-113.38,-169,-7733,-3338,-1,-1,-1
73.18,-178.82,-113.38,-170,-7729,-3346,0,-1,0
73.18,-178.82,-113.37,-174,-7735,-3346,0,-1,0
73.18,-178.82,-113.37,-178,-7732,-3342,-1,-1,0
73.18,-178.82,-113.37,-170,-7726,-3339,0,-1,-1
73.18,-178.82,-113.37,-176,-7729,-3333,0,-1,0
73.18,-178.82,-113.37,-172,-7731,-3333,-1,-1,0
73.16,-178.82,-113.37,-166,-7729,-3336,0,-1,0
73.18,-178.82,-113.36,-171,-7726,-3329,0,-1,0
73.19,-178.82,-113.37,-172,-7725,-3339,0,-1,0
73.17,-178.81,-113.37,-177,-7733,-3338,0,-1,0
73.17,-178.81,-113.36,-184,-7744,-3325,-1,-1,0
73.17,-178.81,-113.36,-180,-7742,-3337,-1,0,-1
73.17,-178.81,-113.37,-186,-7739,-3349,0,0,-1
73.19,-178.81,-113.37,-186,-7729,-3346,-1,0,0
73.19,-178.81,-113.37,-180,-7731,-3352,0,-1,-1
73.18,-178.80,-113.37,-178,-7731,-3342,0,-1,0
73.17,-178.80,-113.36,-176,-7726,-3333,0,-1,0
73.17,-178.80,-113.36,-173,-7726,-3333,-1,-1,0
73.18,-178.80,-113.36,-176,-7728,-3342,-1,-1,-1
73.18,-178.80,-113.37,-175,-7725,-3345,0,-1,-1
73.18,-178.80,-113.36,-180,-7731,-3356,0,-1,0
73.18,-178.80,-113.36,-180,-7723,-3356,0,-1,0
73.20,-178.80,-113.36,-176,-7715,-3350,0,-1,0
73.18,-178.79,-113.35,-177,-7722,-3346,0,-1,0
73.18,-178.79,-113.35,-176,-7735,-3339,0,-1,-1
73.20,-178.80,-113.34,-180,-7737,-3338,-1,-1,-1
73.20,-178.80,-113.35,-177,-7742,-3341,-1,-1,-1
73.20,-178.80,-113.35,-177,-7734,-3343,0,-1,0
73.20,-178.80,-113.35,-173,-7729,-3337,-1,0,-1
73.20,-178.80,-113.35,-165,-7730,-3344,0,-1,-1
73.20,-178.80,-113.35,-168,-7726,-3343,0,0,0
73.20,-178.80,-113.35,-173,-7735,-3351,-1,-1,0
73.20,-178.80,-113.35,-173,-7741,-3344,0,-1,0
73.20,-178.80,-113.35,-179,-7735,-3352,0,-1,-1
73.20,-178.80,-113.35,-176,-7732,-3345,0,-1,0
73.20,-178.80,-113.35,-174,-7730,-3346,0,-1,0
73.20,-178.80,-113.34,-173,-7730,-3339,0,-1,0
73.20,-178.80,-113.34,-178,-7726,-3328,-1,-1,0
73.21,-178.79,-113.34,-179,-7732,-3340,-1,-1,0
73.20,-178.79,-113.34,-180,-7735,-3338,0,0,-1
73.20,-178.80,-113.34,-178,-7741,-3331,-1,0,-1
73.20,-178.80,-113.34,-180,-7740,-3335,-1,0,-1
73.20,-178.80,-113.34,-182,-7730,-3327,-1,0,-1
73.22,-178.80,-113.34,-178,-7720,-3322,-1,0,0
73.20,-178.80,-113.35,-177,-7725,-3331,-1,0,-1
73.20,-178.80,-113.35,-171,-7726,-3342,-1,0,0
73.20,-178.81,-113.35,-172,-7733,-3348,0,-1,0
73.20,-178.80,-113.35,-175,-7733,-3336,0,-1,0
73.20,-178.81,-113.34,-177,-7733,-3333,0,-1,0
73.20,-178.80,-113.34,-182,-7725,-3336,0,0,0
73.18,-178.80,-113.34,-183,-7724,-3339,0,-1,0
73.18,-178.80,-113.34,-184,-7730,-3339,0,0,-1
73.18,-178.80,-113.34,-188,-7741,-3341,-1,0,0
73.18,-178.80,-113.34,-181,-7744,-3343,-1,-1,-1
73.18,-178.80,-113.34,-180,-7739,-3343,0,-1,-1
73.20,-178.81,-113.34,-179,-7737,-3335,0,0,0
73.20,-178.81,-113.34,-179,-7731,-3329,-1,0,-1
73.19,-178.81,-113.33,-168,-7725,-3330,0,0,0
73.18,-178.81,-113.33,-174,-7734,-3329,-1,0,0
73.18,-178.80,-113.34,-174,-7732,-3338,-1,-1,0
73.18,-178.80,-113.34,-179,-7731,-3352,-1,-1,-1
73.18,-178.80,-113.34,-179,-7728,-3350,0,-1,-1
73.19,-178.81,-113.35,-176,-7727,-3342,-1,0,-1
73.19,-178.81,-113.35,-177,-7727,-3330,-1,0,0
73.19,-178.81,-113.35,-176,-7730,-3327,-1,0,0
73.19,-178.81,-113.35,-173,-7740,-3325,-1,0,-1
73.19,-178.81,-113.35,-172,-7741,-3342,0,0,-1
73.17,-178.82,-113.35,-167,-7735,-3341,-1,-1,-1
73.19,-178.81,-113.35,-169,-7730,-3335,-1,-1,0
73.19,-178.81,-113.35,-170,-7730,-3335,-1,0,0
73.17,-178.81,-113.35,-170,-7733,-3340,-1,0,0
73.17,-178.81,-113.35,-176,-7731,-3340,0,0,0
73.17,-178.81,-113.35,-180,-7737,-3337,0,0,0
73.17,-178.81,-113.35,-179,-7736,-3335,0,0,-1
73.15,-178.81,-113.35,-177,-7736,-3342,0,0,-1
73.16,-178.81,-113.35,-179,-7737,-3337,-1,0,0
73.17,-178.81,-113.36,-177,-7732,-3331,-1,0,-1
80.11,150.39,-135.40,-258,-258,-258,-258,-258,-258
73.17,-178.82,-113.36,-172,-7732,-3335,-1,0,-1
73.18,-178.82,-113.36,-173,-7734,-3339,-1,0,-1
73.18,-178.82,-113.36,-176,-7734,-3342,0,0,0
73.16,-178.83,-113.36,-170,-7728,-3342,0,-1,0
73.18,-178.83,-113.36,-168,-7725,-3329,-1,0,0
73.16,-178.83,-113.36,-173,-7720,-3329,0,0,-1
73.16,-178.83,-113.36,-169,-7720,-3333,-1,0,0
73.16,-178.83,-113.36,-170,-7724,-3345,-1,0,0
73.18,-178.83,-113.37,-166,-7727,-3349,0,0,0
73.16,-178.83,-113.36,-169,-7732,-3349,0,0,0
73.16,-178.82,-113.36,-172,-7734,-3336,0,0,0
73.14,-178.83,-113.35,-175,-7737,-3334,0,0,0
73.14,-178.83,-113.35,-178,-7730,-3329,-1,-1,-1
73.14,-178.83,-113.35,-180,-7735,-3330,-1,-1,-1
73.16,-178.83,-113.36,-175,-7733,-3338,-1,0,-1
73.16,-178.83,-113.36,-174,-7728,-3348,-1,0,-1
73.17,-178.83,-113.37,-167,-7727,-3352,0,0,-1
73.17,-178.83,-113.37,-166,-7727,-3344,0,-1,-1
73.15,-178.83,-113.36,-170,-7729,-3340,0,-1,0
73.15,-178.83,-113.36,-168,-7738,-3345,0,-1,0
73.17,-178.84,-113.36,-170,-7742,-3348,0,-1,0
73.17,-178.84,-113.36,-173,-7736,-3344,0,0,0
73.15,-178.83,-113.36,-176,-7737,-3351,0,0,-1
73.15,-178.83,-113.36,-176,-7738,-3350,0,0,0
73.15,-178.83,-113.36,-178,-7738,-3349,-1,0,-1
73.15,-178.83,-113.36,-180,-7729,-3343,-1,0,0
73.15,-178.84,-113.36,-175,-7730,-3344,-1,0,-1
73.15,-178.83,-113.36,-176,-7733,-3344,0,0,0
73.15,-178.84,-113.36,-172,-7733,-3342,0,-1,0
73.15,-178.83,-113.36,-171,-7734,-3340,-1,-1,0
73.15,-178.84,-113.36,-169,-7728,-3345,-1,-1,0
73.15,-178.84,-113.36,-172,-7726,-3338,-1,0,0
73.15,-178.84,-113.37,-164,-7726,-3338,-1,0,0
73.15,-178.84,-113.38,-167,-7727,-3353,-1,0,0
73.15,-178.84,-113.38,-168,-7732,-3346,-1,-1,0
73.13,-178.84,-113.38,-172,-7736,-3351,0,0,0
73.13,-178.84,-113.38,-172,-7730,-3351,0,0,-1
73.13,-178.84,-113.38,-173,-7725,-3344,-1,0,-1
73.14,-178.84,-113.38,-173,-7719,-3347,-1,0,0
73.14,-178.85,-113.39,-163,-7723,-3352,-1,0,0
73.14,-178.85,-113.40,-160,-7725,-3370,0,0,0
73.14,-178.85,-113.40,-166,-7726,-3371,-1,0,0
73.14,-178.85,-113.40,-165,-7727,-3368,0,0,-1
73.12,-178.85,-113.40,-170,-7722,-3356,0,0,0
73.12,-178.85,-113.40,-172,-7727,-3355,0,0,-1
73.13,-178.85,-113.40,-169,-7725,-3351,-1,0,-1
73.11,-178.85,-113.40,-165,-7727,-3351,-1,0,-1
73.11,-178.86,-113.41,-169,-7724,-3347,-1,0,-1
73.11,-178.86,-113.41,-165,-7727,-3350,-1,0,-1
73.11,-178.86,-113.41,-161,-7731,-3347,-1,0,0
73.11,-178.86,-113.41,-173,-7730,-3349,0,0,0
73.11,-178.86,-113.41,-170,-7735,-3339,-1,0,-1
73.12,-178.87,-113.42,-166,-7727,-3347,-1,0,-1
73.10,-178.86,-113.42,-164,-7723,-3347,-1,-1,0
73.10,-178.87,-113.42,-161,-7730,-3354,-1,0,0
73.12,-178.87,-113.43,-168,-7733,-3355,-1,-1,0
73.12,-178.86,-113.43,-172,-7735,-3354,-1,-1,0
73.12,-178.86,-113.43,-170,-7735,-3363,0,0,0
73.12,-178.86,-113.43,-168,-7726,-3346,-1,-1,0
73.13,-178.86,-113.43,-172,-7728,-3344,0,-1,-1
73.13,-178.86,-113.43,-170,-7734,-3344,-1,-1,0
73.13,-178.86,-113.43,-168,-7732,-3349,-1,-1,0
73.12,-178.86,-113.44,-170,-7732,-3353,-1,-1,0
73.13,-178.86,-113.44,-169,-7732,-3368,-1,-1,0
73.13,-178.86,-113.44,-165,-7729,-3368,-1,-1,0
73.15,-178.86,-113.45,-166,-7722,-3356,-1,-1,0
73.13,-178.85,-113.45,-165,-7729,-3354,0,0,0
73.15,-178.85,-113.45,-156,-7728,-3350,0,-1,0
73.13,-178.85,-113.45,-162,-7722,-3355,0,-1,0
73.13,-178.85,-113.45,-165,-7722,-3345,-1,-1,0
73.14,-178.84,-113.45,-174,-7728,-3352,0,-1,0
73.14,-178.85,-113.45,-166,-7722,-3350,-1,0,-1
73.14,-178.85,-113.45,-175,-7719,-3357,0,0,-1
73.14,-178.85,-113.45,-172,-7722,-3364,0,0,0
73.14,-178.85,-113.45,-176,-7720,-3365,0,-1,-1
73.14,-178.85,-113.45,-172,-7715,-3356,0,-1,0
73.14,-178.84,-113.45,-167,-7722,-3356,0,0,-1
73.13,-178.85,-113.44,-167,-7720,-3345,0,-1,0
73.14,-178.85,-113.44,-167,-7724,-3351,0,-1,0
73.13,-178.85,-113.44,-171,-7726,-3355,0,-1,0
73.14,-178.85,-113.44,-174,-7722,-3347,-1,-1,-1
73.14,-178.85,-113.44,-164,-7729,-3351,-1,0,0
73.13,-178.85,-113.44,-171,-7732,-3356,-1,0,-1
73.15,-178.85,-113.46,-170,-7730,-3359,-1,-1,-1
73.14,-178.85,-113.44,-164,-7731,-3349,0,-1,0
73.14,-178.85,-113.44,-165,-7724,-3342,0,-1,0
73.14,-178.84,-113.44,-175,-7723,-3343,0,-1,0
73.14,-178.84,-113.44,-170,-7721,-3339,-1,-1,0
73.16,-178.84,-113.44,-174,-7727,-3353,-1,0,0
73.14,-178.84,-113.45,-169,-7727,-3360,-1,0,0
73.14,-178.84,-113.46,-174,-7725,-3371,-1,-1,0
73.15,-178.83,-113.46,-171,-7722,-3374,0,-1,0
73.15,-178.83,-113.46,-176,-7714,-3356,-1,-1,0
73.15,-178.82,-113.45,-178,-7719,-3360,0,0,0
73.15,-178.82,-113.45,-169,-7728,-3361,-1,0,0
73.13,-178.82,-113.46,-173,-7728,-3355,-1,0,0
73.13,-178.82,-113.46,-180,-7722,-3350,-1,0,0
73.15,-178.82,-113.46,-178,-7714,-3353,-1,-1,0
73.15,-178.82,-113.47,-180,-7724,-3361,-1,0,-1
73.13,-178.82,-113.47,-179,-7716,-3344,-1,0,-1
73.15,-178.82,-113.47,-187,-7727,-3361,0,0,0
73.14,-178.81,-113.47,-175,-7720,-3359,0,-1,0
73.16,-178.81,-113.46,-174,-7727,-3363,0,-1,0
73.14,-178.81,-113.46,-173,-7720,-3364,0,-1,-1
73.15,-178.82,-113.45,-165,-7718,-3364,0,0,-1
73.14,-178.82,-113.45,-170,-7721,-3357,0,0,-1
73.13,-178.82,-113.44,-172,-7722,-3348,0,-1,0
73.12,-178.81,-113.44,-184,-7727,-3352,0,-1,0
73.14,-178.81,-113.43,-185,-7721,-3344,0,-1,0
73.14,-178.81,-113.43,-186,-7726,-3345,0,0,-1
73.12,-178.81,-113.42,-179,-7723,-3330,-1,0,0
73.12,-178.81,-113.42,-189,-7723,-3322,-1,-1,-1
73.14,-178.81,-113.43,-183,-7729,-3336,-1,0,-1
73.14,-178.81,-113.43,-168,-7728,-3339,-1,-1,-1
73.14,-178.81,-113.43,-176,-7723,-3354,-1,-1,0
73.14,-178.81,-113.43,-178,-7725,-3361,-1,-1,0
73.14,-178.81,-113.43,-175,-7725,-3360,0,-1,0
73.14,-178.81,-113.43,-176,-7724,-3357,0,-1,0
73.15,-178.80,-113.43,-178,-7728,-3357,0,-1,0
73.15,-178.80,-113.43,-181,-7730,-3362,0,-1,0
73.15,-178.80,-113.43,-179,-7731,-3363,0,-1,0
73.14,-178.81,-113.42,-175,-7729,-3361,0,-1,0
73.16,-178.81,-113.42,-171,-7725,-3354,0,-1,-1
73.16,-178.81,-113.42,-169,-7725,-3360,0,0,0
73.16,-178.81,-113.42,-173,-7734,-3348,-1,-1,-1
73.16,-178.81,-113.42,-177,-7731,-3349,-1,0,-1
73.14,-178.81,-113.42,-179,-7732,-3355,0,0,-1
73.14,-178.81,-113.42,-179,-7731,-3351,0,-1,0
73.16,-178.81,-113.41,-167,-7724,-3349,0,-1,0
73.16,-178.81,-113.41,-173,-7726,-3352,0,0,0
73.15,-178.81,-113.41,-174,-7724,-3341,-1,0,0
73.15,-178.80,-113.40,-178,-7730,-3342,-1,-1,0
73.15,-178.80,-113.40,-184,-7733,-3339,-1,0,0
73.15,-178.80,-113.40,-184,-7731,-3343,-1,0,-1
73.15,-178.81,-113.41,-178,-7732,-3355,-1,0,-1
73.15,-178.81,-113.41,-171,-7730,-3351,0,-1,-1
73.14,-178.81,-113.40,-173,-7731,-3346,0,-1,0
73.15,-178.81,-113.39,-175,-7729,-3345,0,-1,0
73.15,-178.81,-113.39,-173,-7720,-3331,0,-1,0
73.15,-178.80,-113.39,-177,-7723,-3337,-1,-1,0
73.15,-178.81,-113.39,-174,-7733,-3353,-1,0,0
73.15,-178.81,-113.39,-174,-7740,-3359,-1,0,0
73.17,-178.80,-113.40,-172,-7737,-3364,0,-1,0
73.15,-178.81,-113.39,-179,-7735,-3362,0,-1,0
73.17,-178.80,-113.39,-176,-7735,-3354,0,-1,0
73.15,-178.80,-113.38,-179,-7732,-3340,0,-1,-1
73.15,-178.81,-113.37,-176,-7725,-3329,-1,0,-1
73.15,-178.80,-113.38,-175,-7733,-3335,-1,0,-1
73.13,-178.81,-113.38,-177,-7733,-3334,-1,0,-1
73.16,-178.81,-113.37,-176,-7724,-3334,0,-1,-1
73.16,-178.81,-113.37,-179,-7719,-3337,-1,-1,-1
73.16,-178.81,-113.37,-174,-7727,-3340,0,-1,-1
73.16,-178.81,-113.37,-172,-7721,-3341,0,0,0
73.15,-178.81,-113.38,-181,-7725,-3353,-1,-1,0
73.15,-178.81,-113.38,-174,-7725,-3349,-1,0,-1
73.16,-178.81,-113.39,-179,-7729,-3359,-1,0,-1
73.16,-178.81,-113.39,-174,-7732,-3347,0,0,0
73.14,-178.81,-113.38,-172,-7735,-3345,0,-1,0
73.16,-178.81,-113.37,-181,-7737,-3348,0,-1,0
73.15,-178.81,-113.37,-187,-7733,-3350,0,-1,-1
73.15,-178.81,-113.37,-177,-7732,-3350,0,0,-1
73.15,-178.81,-113.37,-178,-7732,-3342,-1,0,-1
73.14,-178.81,-113.36,-176,-7731,-3341,-1,0,-1
73.16,-178.81,-113.37,-178,-7729,-3341,-1,0,-1
73.14,-178.82,-113.37,-177,-7733,-3336,-1,0,-1
73.14,-178.82,-113.37,-176,-7733,-3335,-1,-1,0
73.14,-178.82,-113.37,-174,-7730,-3344,-1,0,-1
73.14,-178.82,-113.37,-172,-7735,-3342,0,-1,-1
73.16,-178.82,-113.37,-171,-7733,-3339,0,-1,0
73.14,-178.82,-113.37,-172,-7732,-3348,-1,-1,0
73.14,-178.82,-113.37,-182,-7739,-3346,0,0,0
73.14,-178.82,-113.37,-184,-7740,-3352,0,-1,0
73.15,-178.81,-113.36,-181,-7741,-3338,0,-1,-1
73.15,-178.81,-113.36,-179,-7735,-3338,0,0,0
73.15,-178.81,-113.36,-181,-7735,-3339,-1,0,0
73.14,-178.81,-113.37,-182,-7739,-3344,-1,0,-1
73.14,-178.81,-113.37,-177,-7739,-3348,0,0,-1
73.14,-178.82,-113.36,-175,-7735,-3342,0,0,-1
73.14,-178.82,-113.36,-181,-7735,-3339,0,0,0
73.14,-178.82,-113.36,-174,-7729,-3333,0,0,0
73.14,-178.82,-113.36,-182,-7732,-3340,-1,0,0
73.14,-178.82,-113.36,-175,-7737,-3339,-1,0,-1
73.13,-178.83,-113.37,-174,-7738,-3348,-1,0,-1
73.13,-178.83,-113.37,-166,-7736,-3347,-1,0,-1
73.13,-178.83,-113.37,-166,-7736,-3353,0,0,0
73.12,-178.82,-113.37,-181,-7734,-3355,0,0,0
73.12,-178.82,-113.37,-181,-7723,-3346,0,-1,0
73.14,-178.82,-113.37,-175,-7726,-3338,-1,-1,0
73.14,-178.82,-113.37,-172,-7729,-3341,-1,0,0
73.16,-178.82,-113.38,-178,-7733,-3348,-1,0,-1
73.15,-178.82,-113.39,-171,-7738,-3362,-1,-1,0
73.15,-178.82,-113.39,-172,-7737,-3361,0,-1,0
73.14,-178.83,-113.38,-175,-7732,-3348,0,0,0
73.14,-178.82,-113.37,-174,-7726,-3345,0,-1,0
73.14,-178.82,-113.37,-175,-7726,-3337,0,0,-1
73.14,-178.82,-113.37,-171,-7730,-3342,-1,0,-1
73.14,-178.83,-113.38,-174,-7729,-3342,-1,0,-1
73.14,-178.83,-113.38,-174,-7729,-3343,-1,-1,-1
73.14,-178.83,-113.38,-173,-7725,-3338,-1,0,-1
73.13,-178.83,-113.37,-171,-7723,-3330,-1,0,-1
73.13,-178.83,-113.37,-170,-7725,-3331,-1,0,0
73.13,-178.83,-113.37,-174,-7729,-3333,-1,0,0
73.13,-178.83,-113.37,-173,-7732,-3339,-1,0,-1
73.13,-178.83,-113.38,-165,-7730,-3350,0,0,-1
73.13,-178.83,-113.38,-169,-7728,-3349,0,0,-1
73.13,-178.83,-113.38,-161,-7724,-3350,0,0,0
73.12,-178.84,-113.37,-158,-7725,-3340,0,0,0
73.12,-178.84,-113.37,-164,-7733,-3353,0,0,0
73.10,-178.83,-113.37,-171,-7728,-3353,0,0,0
73.10,-178.84,-113.38,-178,-7735,-3343,-1,0,0
73.10,-178.84,-113.38,-175,-7728,-3341,-1,0,-1
73.10,-178.84,-113.38,-179,-7736,-3345,-1,0,-1
73.10,-178.84,-113.38,-179,-7739,-3348,-1,0,-1
73.09,-178.85,-113.39,-176,-7738,-3349,-1,0,-1
73.10,-178.85,-113.39,-170,-7739,-3342,0,0,-1
73.09,-178.85,-113.39,-178,-7727,-3347,0,0,0
73.09,-178.85,-113.39,-174,-7733,-3356,-1,0,0
73.09,-178.85,-113.39,-175,-7740,-3360,-1,-1,0
73.09,-178.85,-113.39,-177,-7734,-3360,0,0,0
73.08,-178.84,-113.39,-180,-7729,-3349,0,0,-1
73.09,-178.85,-113.39,-175,-7725,-3351,-1,0,0
73.08,-178.84,-113.39,-179,-7727,-3346,-1,0,0
73.07,-178.84,-113.39,-176,-7728,-3350,-1,0,0
73.07,-178.85,-113.40,-176,-7732,-3349,-1,0,-1
73.07,-178.85,-113.40,-173,-7731,-3354,-1,0,-1
73.07,-178.85,-113.40,-178,-7727,-3356,-1,0,0
73.07,-178.85,-113.40,-173,-7720,-3351,-1,0,0
73.07,-178.85,-113.40,-170,-7723,-3347,-1,0,0
73.07,-178.85,-113.41,-173,-7728,-3358,-1,0,0
73.07,-178.85,-113.41,-181,-7726,-3351,-1,0,0
73.07,-178.85,-113.41,-174,-7723,-3342,-1,0,-1
73.07,-178.85,-113.42,-167,-7725,-3350,-1,0,-1
73.04,-178.86,-113.42,-169,-7728,-3361,0,0,0
73.05,-178.85,-113.42,-176,-7725,-3356,0,0,0
73.04,-178.85,-113.41,-172,-7727,-3351,-1,0,-1
73.04,-178.86,-113.42,-168,-7725,-3347,-1,0,-1
73.06,-178.86,-113.42,-168,-7721,-3355,-1,0,-1
73.06,-178.86,-113.43,-161,-7724,-3354,0,0,0
73.04,-178.86,-113.43,-165,-7730,-3359,0,0,0
73.04,-178.86,-113.43,-170,-7729,-3357,0,-1,0
73.04,-178.85,-113.42,-179,-7734,-3354,0,0,-1
73.02,-178.86,-113.42,-178,-7726,-3354,-1,0,-1
73.02,-178.86,-113.42,-174,-7737,-3356,-1,0,-1
73.03,-178.86,-113.43,-171,-7734,-3358,-1,-1,0
73.05,-178.86,-113.43,-171,-7726,-3358,-1,-1,-1
73.03,-178.86,-113.44,-167,-7719,-3351,-1,0,0
73.04,-178.86,-113.45,-173,-7724,-3359,-1,0,-1
73.05,-178.86,-113.45,-174,-7732,-3353,-1,-1,-1
73.05,-178.86,-113.45,-173,-7736,-3355,0,-1,0
73.05,-178.86,-113.45,-172,-7735,-3354,0,-1,0
73.05,-178.86,-113.45,-173,-7727,-3355,0,-1,-1
73.05,-178.86,-113.45,-170,-7726,-3353,-1,-1,0
73.06,-178.86,-113.45,-179,-7724,-3362,0,-1,0
73.04,-178.86,-113.46,-173,-7721,-3363,-1,-1,0
73.06,-178.85,-113.46,-174,-7724,-3376,-1,0,0
73.06,-178.85,-113.46,-176,-7732,-3374,0,-1,0
73.06,-178.85,-113.46,-179,-7735,-3370,0,0,-1
73.06,-178.85,-113.46,-170,-7732,-3356,-1,0,-1
73.06,-178.85,-113.46,-166,-7721,-3351,-1,0,0
73.06,-178.85,-113.46,-164,-7718,-3355,-1,-1,0
73.06,-178.85,-113.46,-163,-7716,-3345,-1,-1,0
73.08,-178.86,-113.47,-172,-7720,-3365,0,0,-1
73.08,-178.86,-113.47,-160,-7719,-3363,0,0,-1
73.06,-178.86,-113.47,-163,-7727,-3363,-1,0,0
73.06,-178.86,-113.47,-167,-7722,-3357,0,-1,0
73.06,-178.85,-113.46,-173,-7723,-3362,0,-1,0
73.06,-178.85,-113.46,-186,-7722,-3359,0,-1,-1
73.04,-178.86,-113.46,-175,-7723,-3355,0,-1,0
73.06,-178.85,-113.45,-175,-7720,-3340,0,-1,0
73.06,-178.85,-113.44,-176,-7724,-3346,0,-1,-1
73.06,-178.85,-113.44,-171,-7722,-3338,-1,-1,0
73.06,-178.85,-113.44,-174,-7726,-3346,0,0,0
73.06,-178.85,-113.44,-174,-7731,-3351,0,-1,-1
73.06,-178.85,-113.43,-169,-7731,-3351,0,-1,-1
73.06,-178.85,-113.43,-169,-7729,-3340,0,-1,0
73.06,-178.85,-113.43,-173,-7728,-3340,0,-1,0
73.06,-178.85,-113.43,-178,-7723,-3337,-1,-1,0
73.06,-178.85,-113.43,-173,-7724,-3354,-1,0,-1
73.06,-178.85,-113.43,-169,-7722,-3360,-1,0,-1
73.06,-178.85,-113.43,-169,-7731,-3367,0,0,-1
73.06,-178.85,-113.43,-169,-7733,-3356,0,-1,0
73.06,-178.85,-113.43,-174,-7732,-3355,0,-1,0
73.07,-178.85,-113.42,-173,-7726,-3341,0,-1,-1
73.07,-178.85,-113.42,-174,-7719,-3337,-1,0,0
73.05,-178.85,-113.43,-172,-7717,-3345,-1,0,0
73.06,-178.85,-113.43,-173,-7719,-3354,-1,0,0
73.07,-178.85,-113.44,-170,-7731,-3359,0,-1,0
73.07,-178.84,-113.43,-182,-7733,-3356,0,-1,0
73.05,-178.84,-113.42,-179,-7729,-3349,0,0,-1
73.05,-178.84,-113.42,-173,-7731,-3353,0,0,0
73.05,-178.85,-113.41,-177,-7735,-3349,0,0,0
73.05,-178.84,-113.42,-182,-7732,-3359,-1,-1,0
73.06,-178.83,-113.42,-177,-7730,-3348,-1,-1,0
73.06,-178.83,-113.42,-183,-7731,-3348,-1,-1,0
73.08,-178.83,-113.43,-182,-7733,-3358,-1,-1,-1
73.08,-178.83,-113.43,-181,-7736,-3360,-1,0,0
73.06,-178.83,-113.43,-179,-7733,-3363,0,-1,0
73.08,-178.83,-113.43,-177,-7731,-3366,0,-1,0
73.08,-178.83,-113.43,-178,-7724,-3349,0,-1,0
73.06,-178.83,-113.42,-171,-7720,-3336,0,-1,0
73.06,-178.83,-113.42,-173,-7722,-3347,-1,0,0
73.08,-178.83,-113.43,-171,-7719,-3354,-1,-1,0
73.08,-178.83,-113.43,-173,-7727,-3359,0,-1,0
73.08,-178.83,-113.43,-177,-7730,-3355,0,-1,0
73.08,-178.82,-113.42,-176,-7732,-3358,0,-1,0
73.08,-178.82,-113.42,-171,-7730,-3352,0,-1,0
73.08,-178.82,-113.42,-176,-7728,-3341,0,-1,0
73.07,-178.82,-113.42,-181,-7728,-3340,-1,0,0
73.07,-178.82,-113.43,-182,-7718,-3349,-1,0,-1
73.07,-178.82,-113.43,-180,-7719,-3346,-1,-1,-1
73.07,-178.82,-113.43,-174,-7727,-3353,-1,0,0
73.07,-178.82,-113.43,-175,-7726,-3364,0,-1,0
73.07,-178.82,-113.43,-176,-7722,-3361,0,-1,0
73.07,-178.82,-113.43,-174,-7725,-3358,0,-1,0
73.07,-178.81,-113.43,-171,-7728,-3351,0,0,0
73.07,-178.81,-113.43,-174,-7727,-3355,0,-1,0
73.07,-178.81,-113.43,-178,-7729,-3354,-1,0,0
73.07,-178.81,-113.43,-172,-7729,-3349,-1,-1,-1
73.07,-178.81,-113.43,-176,-7733,-3346,-1,-1,-1
73.07,-178.81,-113.43,-173,-7735,-3354,-1,-1,-1
73.09,-178.82,-113.43,-173,-7731,-3349,-1,-1,-1
73.09,-178.82,-113.43,-168,-7729,-3340,-1,0,-1
73.09,-178.82,-113.43,-174,-7727,-3339,-1,0,-1
73.08,-178.82,-113.42,-175,-7726,-3341,0,-1,-1
73.09,-178.82,-113.43,-173,-7724,-3349,0,-1,0
73.09,-178.82,-113.43,-165,-7729,-3355,-1,-1,0
73.09,-178.81,-113.42,-175,-7726,-3352,0,-1,0
73.08,-178.81,-113.42,-175,-7728,-3348,-1,0,0
73.08,-178.81,-113.42,-176,-7731,-3353,-1,0,0
73.09,-178.82,-113.43,-167,-7734,-3355,-1,0,0
73.09,-178.82,-113.43,-168,-7729,-3348,-1,0,-1
73.08,-178.82,-113.42,-167,-7735,-3346,0,0,-1
73.08,-178.82,-113.42,-176,-7726,-3355,0,-1,-1
73.08,-178.82,-113.42,-175,-7723,-3352,0,-1,0
73.09,-178.82,-113.41,-171,-7723,-3342,0,-1,0
73.09,-178.82,-113.41,-175,-7720,-3347,-1,-1,0
73.09,-178.82,-113.41,-176,-7723,-3353,-1,-1,0
73.09,-178.82,-113.41,-170,-7725,-3356,-1,-1,0
73.09,-178.81,-113.42,-173,-7728,-3368,0,-1,0
73.09,-178.81,-113.41,-173,-7732,-3360,0,-1,0
73.09,-178.81,-113.41,-173,-7729,-3355,0,-1,0
73.08,-178.81,-113.40,-180,-7726,-3350,0,-1,-1
73.10,-178.81,-113.40,-177,-7731,-3349,-1,0,-1
73.09,-178.82,-113.40,-180,-7729,-3342,-1,0,-1
73.08,-178.81,-113.40,-178,-7734,-3355,-1,-1,0
73.08,-178.81,-113.40,-179,-7727,-3348,-1,-1,-1
73.09,-178.82,-113.40,-179,-7722,-3338,-1,0,-1
73.09,-178.82,-113.40,-182,-7729,-3336,-1,0,0
73.09,-178.82,-113.40,-181,-7732,-3334,-1,-1,-1
73.09,-178.82,-113.40,-183,-7722,-3338,0,-1,0
73.09,-178.82,-113.40,-183,-7727,-3342,0,-1,0
73.09,-178.82,-113.40,-177,-7729,-3354,0,0,-1
73.09,-178.82,-113.40,-168,-7729,-3356,0,0,0
73.08,-178.81,-113.40,-182,-7734,-3366,-1,0,0
73.08,-178.81,-113.40,-178,-7739,-3361,-1,-1,0
73.08,-178.81,-113.40,-180,-7736,-3366,0,0,-1
73.07,-178.81,-113.40,-178,-7730,-3351,0,0,-1
73.08,-178.81,-113.39,-180,-7725,-3341,0,-1,-1
73.09,-178.82,-113.40,-176,-7728,-3348,-1,-1,-1
73.09,-178.82,-113.40,-173,-7730,-3346,-1,-1,-1
73.09,-178.82,-113.40,-163,-7729,-3345,-1,0,-1
73.09,-178.82,-113.40,-167,-7729,-3353,-1,0,0
73.09,-178.82,-113.40,-175,-7725,-3348,0,0,-1
73.09,-178.82,-113.40,-176,-7726,-3353,0,-1,0
73.09,-178.82,-113.40,-179,-7730,-3354,0,0,0
73.09,-178.82,-113.40,-181,-7737,-3347,0,-1,0
73.09,-178.82,-113.40,-172,-7735,-3356,0,-1,0
73.09,-178.82,-113.40,-174,-7741,-3355,0,0,0
73.07,-178.82,-113.40,-172,-7741,-3351,0,0,-1
73.07,-178.82,-113.40,-169,-7736,-3340,-1,0,-1
73.07,-178.82,-113.40,-174,-7724,-3340,-1,0,0
73.07,-178.82,-113.40,-170,-7729,-3346,-1,0,-1
73.08,-178.83,-113.40,-179,-7726,-3350,-1,0,-1
73.06,-178.83,-113.40,-173,-7728,-3351,-1,0,-1
73.06,-178.83,-113.40,-175,-7725,-3344,0,0,-1
73.08,-178.83,-113.40,-174,-7732,-3346,0,-1,-1
73.08,-178.83,-113.40,-178,-7730,-3344,0,-1,0
73.08,-178.83,-113.40,-175,-7730,-3336,-1,0,0
73.06,-178.83,-113.40,-174,-7727,-3337,0,0,0
73.06,-178.83,-113.40,-176,-7729,-3347,-1,0,-1
73.06,-178.83,-113.41,-173,-7736,-3356,-1,0,-1
73.06,-178.83,-113.41,-178,-7736,-3349,0,0,0
73.04,-178.83,-113.40,-176,-7735,-3336,0,0,0
73.06,-178.83,-113.39,-173,-7733,-3340,0,-1,0
73.06,-178.83,-113.39,-171,-7721,-3343,-1,-1,0
73.04,-178.83,-113.40,-165,-7727,-3357,-1,0,-1
73.06,-178.83,-113.41,-163,-7728,-3360,-1,0,0
73.06,-178.83,-113.41,-169,-7735,-3371,0,0,0
73.04,-178.83,-113.40,-166,-7733,-3377,0,0,0
73.04,-178.83,-113.40,-174,-7731,-3368,0,0,-1
73.04,-178.83,-113.40,-171,-7729,-3359,0,0,-1
73.04,-178.83,-113.40,-172,-7734,-3352,-1,0,0
73.05,-178.84,-113.41,-173,-7726,-3345,-1,0,-1
73.05,-178.84,-113.41,-170,-7735,-3346,-1,0,-1
73.05,-178.84,-113.41,-180,-7729,-3342,-1,0,-1
73.05,-178.84,-113.41,-176,-7731,-3343,-1,0,-1
73.05,-178.84,-113.41,-168,-7730,-3339,-1,0,0
73.03,-178.85,-113.41,-167,-7735,-3339,0,-1,0
73.03,-178.85,-113.41,-175,-7732,-3348,-1,0,0
73.03,-178.85,-113.41,-175,-7727,-3348,0,0,-1
73.03,-178.84,-113.40,-182,-7727,-3349,0,-1,0
73.03,-178.84,-113.40,-180,-7724,-3351,0,-1,0
73.03,-178.84,-113.40,-182,-7730,-3359,0,-1,0
73.03,-178.84,-113.40,-175,-7732,-3353,0,-1,0
73.04,-178.84,-113.39,-179,-7730,-3348,0,-1,0
73.04,-178.84,-113.39,-176,-7724,-3347,0,-1,-1
73.04,-178.84,-113.39,-177,-7721,-3346,-1,0,-1
73.04,-178.84,-113.39,-178,-7721,-3347,-1,0,-1
73.05,-178.84,-113.40,-171,-7721,-3347,-1,0,-1
73.05,-178.84,-113.40,-170,-7724,-3346,-1,-1,-1
73.05,-178.84,-113.40,-167,-7725,-3354,-1,0,0
73.03,-178.84,-113.40,-170,-7728,-3364,0,0,0
73.03,-178.84,-113.40,-170,-7728,-3351,-1,0,0
73.03,-178.84,-113.40,-174,-7732,-3364,-1,-1,-1
