Yaw,Pitch,Roll,AX,AY,AZ,GX,GY,GZ
74.85,-178.83,-112.93,-173,-7748,-3275,-1,0,-1
74.83,-178.83,-112.94,-176,-7755,-3285,-1,-1,-1
74.83,-178.83,-112.94,-178,-7749,-3285,0,-1,0
74.83,-178.82,-112.93,-173,-7748,-3282,0,-1,0
74.83,-178.82,-112.93,-178,-7746,-3281,0,-1,0
74.83,-178.82,-112.93,-178,-7752,-3281,-1,0,-1
74.83,-178.82,-112.93,-184,-7753,-3269,-1,0,-1
74.81,-178.83,-112.93,-174,-7757,-3272,-1,0,-1
74.81,-178.83,-112.93,-170,-7759,-3282,0,-1,0
74.83,-178.82,-112.93,-168,-7752,-3279,0,-1,0
74.83,-178.83,-112.92,-167,-7748,-3271,-1,0,0
74.83,-178.82,-112.93,-175,-7750,-3280,-1,-1,-1
74.83,-178.82,-112.93,-169,-7759,-3289,-1,-1,0
74.85,-178.82,-112.94,-174,-7760,-3290,0,-1,-1
74.83,-178.82,-112.93,-177,-7757,-3292,0,-1,0
74.83,-178.82,-112.93,-171,-7749,-3289,0,-1,0
74.85,-178.82,-112.94,-170,-7751,-3287,-1,-1,-1
74.85,-178.82,-112.94,-164,-7749,-3279,-1,-1,0
74.85,-178.82,-112.94,-173,-7755,-3277,-1,-1,0
74.84,-178.82,-112.93,-175,-7760,-3286,0,-1,-1
74.84,-178.82,-112.93,-169,-7766,-3284,0,-1,0
74.85,-178.82,-112.93,-171,-7762,-3275,0,-1,-1
74.85,-178.82,-112.92,-165,-7760,-3271,0,-1,-1
74.85,-178.82,-112.92,-166,-7758,-3272,-1,-1,0
74.85,-178.82,-112.92,-169,-7754,-3272,-1,-1,0
74.86,-178.82,-112.93,-166,-7754,-3277,-1,-1,0
74.87,-178.82,-112.93,-160,-7759,-3280,-1,-1,0
74.87,-178.82,-112.93,-161,-7764,-3281,0,-1,0
74.86,-178.81,-112.93,-167,-7760,-3280,0,-1,0
74.86,-178.81,-112.93,-171,-7757,-3277,0,-1,0
74.86,-178.81,-112.92,-175,-7757,-3270,-1,-1,0
74.86,-178.81,-112.92,-174,-7755,-3269,-1,-1,0
74.87,-178.80,-112.92,-182,-7761,-3280,-1,-1,0
74.87,-178.80,-112.92,-181,-7763,-3286,-1,-1,0
74.87,-178.79,-112.93,-188,-7770,-3283,-1,-1,0
74.87,-178.79,-112.93,-183,-7769,-3280,-1,-1,0
74.89,-178.79,-112.94,-180,-7761,-3284,-1,-1,0
74.90,-178.78,-112.94,-183,-7754,-3286,0,-1,0
74.90,-178.78,-112.94,-180,-7757,-3280,-1,-1,0
74.91,-178.78,-112.94,-181,-7748,-3282,-1,-1,0
74.90,-178.78,-112.95,-177,-7751,-3284,-1,0,0
74.91,-178.78,-112.95,-180,-7756,-3289,-1,-1,0
74.91,-178.78,-112.95,-173,-7759,-3294,-1,-1,0
74.91,-178.77,-112.95,-177,-7753,-3293,-1,-1,-1
74.92,-178.78,-112.95,-173,-7753,-3288,0,0,-1
74.93,-178.78,-112.96,-181,-7763,-3293,-1,-1,0
74.93,-178.77,-112.95,-185,-7754,-3282,0,-1,0
74.93,-178.77,-112.95,-174,-7748,-3279,0,-1,0
74.93,-178.77,-112.95,-181,-7751,-3287,-1,-1,0
74.94,-178.77,-112.96,-175,-7746,-3282,-1,-1,0
74.94,-178.77,-112.96,-172,-7752,-3291,-1,0,0
74.94,-178.76,-112.97,-174,-7753,-3297,0,-1,0
74.94,-178.76,-112.97,-182,-7752,-3291,0,-1,0
74.93,-178.75,-112.97,-193,-7758,-3301,0,-1,0
74.93,-178.75,-112.97,-188,-7752,-3296,-1,-1,0
74.93,-178.75,-112.95,-192,-7755,-3288,0,0,-1
74.92,-178.75,-112.95,-187,-7754,-3293,0,0,0
74.90,-178.75,-112.94,-183,-7764,-3292,0,0,0
74.88,-178.75,-112.92,-193,-7758,-3290,0,0,-1
74.85,-178.77,-112.91,-179,-7756,-3266,0,0,-1
74.85,-178.77,-112.91,-179,-7756,-3275,0,0,-1
74.84,-178.77,-112.89,-180,-7753,-3268,0,0,-1
74.82,-178.77,-112.88,-180,-7760,-3275,0,0,0
74.80,-178.78,-112.87,-177,-7770,-3271,0,0,0
74.80,-178.77,-112.86,-181,-7761,-3276,0,0,-1
74.78,-178.78,-112.86,-171,-7757,-3284,-1,-1,0
74.78,-178.77,-112.85,-175,-7756,-3267,0,-1,-1
74.80,-178.77,-112.86,-177,-7763,-3292,0,-1,-1
74.80,-178.77,-112.85,-182,-7760,-3279,0,-1,0
74.81,-178.76,-112.85,-181,-7761,-3273,0,-1,0
74.81,-178.76,-112.84,-195,-7759,-3265,0,-1,-1
74.81,-178.76,-112.84,-184,-7758,-3251,-1,-1,0
74.83,-178.76,-112.85,-191,-7767,-3271,-1,-1,0
74.82,-178.75,-112.86,-186,-7773,-3272,-1,-1,0
74.84,-178.75,-112.86,-185,-7777,-3292,0,-1,0
74.86,-178.75,-112.86,-176,-7768,-3291,0,-1,0
74.85,-178.74,-112.85,-183,-7752,-3278,0,-1,0
74.85,-178.74,-112.85,-185,-7757,-3273,0,-1,0
74.85,-178.73,-112.85,-188,-7756,-3274,0,-1,0
74.86,-178.72,-112.84,-188,-7758,-3276,0,-1,0
74.86,-178.72,-112.84,-194,-7767,-3277,0,-1,0
74.86,-178.72,-112.84,-196,-7768,-3275,0,-1,0
74.88,-178.72,-112.84,-194,-7765,-3268,-1,-1,0
74.87,-178.71,-112.84,-199,-7771,-3283,-1,-1,-1
74.88,-178.72,-112.85,-194,-7770,-3279,0,0,-1
74.90,-178.72,-112.84,-188,-7776,-3269,-1,-1,-1
74.89,-178.71,-112.85,-192,-7765,-3271,-1,-1,-1
74.90,-178.72,-112.86,-193,-7766,-3273,-1,-1,0
74.91,-178.72,-112.86,-189,-7764,-3283,0,-1,-1
74.90,-178.72,-112.86,-183,-7760,-3280,0,0,-1
74.90,-178.72,-112.86,-191,-7759,-3277,0,0,0
74.90,-178.72,-112.86,-194,-7763,-3282,0,0,0
74.90,-178.72,-112.86,-197,-7765,-3280,0,0,0
74.90,-178.72,-112.86,-189,-7760,-3275,-1,0,-1
74.90,-178.73,-112.86,-176,-7762,-3283,-1,0,-1
74.90,-178.73,-112.87,-180,-7766,-3290,0,0,-1
74.90,-178.73,-112.87,-184,-7760,-3280,0,-1,-1
74.90,-178.74,-112.86,-179,-7754,-3271,0,-1,0
74.90,-178.73,-112.85,-184,-7753,-3260,-1,0,-1
74.91,-178.74,-112.86,-185,-7753,-3260,-1,0,-1
74.89,-178.74,-112.87,-258,-258,-258,-1,-258,-258
74.91,-178.74,-112.87,-187,-7755,-3285,-1,0,0
74.89,-178.74,-112.88,-188,-7760,-3286,-1,0,0
74.89,-178.74,-112.88,-187,-7760,-3286,0,0,-1
74.89,-178.74,-112.87,-186,-7757,-3270,0,0,-1
74.89,-178.75,-112.87,-185,-7760,-3262,-1,0,-1
74.87,-178.74,-112.87,-185,-7760,-3267,-1,0,-1
74.88,-178.75,-112.88,-190,-7766,-3273,-1,0,-1
74.89,-178.75,-112.88,-196,-7763,-3283,-1,0,-1
74.90,-178.75,-112.89,-190,-7768,-3279,-1,0,-1
74.88,-178.75,-112.88,-179,-7768,-3272,0,0,-1
74.88,-178.75,-112.88,-185,-7768,-3273,-1,0,0
74.88,-178.75,-112.88,-179,-7751,-3275,-1,-1,0
74.88,-178.75,-112.88,-184,-7752,-3268,-1,0,-1
74.88,-178.76,-112.89,-188,-7750,-3273,-1,0,-1
74.88,-178.76,-112.89,-178,-7762,-3276,-1,0,0
74.88,-178.76,-112.89,-168,-7767,-3286,0,-1,-1
74.88,-178.76,-112.89,-173,-7769,-3286,0,0,0
74.88,-178.76,-112.89,-172,-7766,-3283,0,0,-1
74.87,-178.76,-112.88,-180,-7766,-3276,0,-1,0
74.87,-178.76,-112.88,-183,-7762,-3277,0,0,-1
74.87,-178.76,-112.88,-179,-7761,-3279,-1,-1,-1
74.87,-178.76,-112.88,-185,-7759,-3276,-1,0,-1
74.87,-178.77,-112.89,-181,-7756,-3274,-1,0,-1
74.89,-178.77,-112.89,-178,-7754,-3278,-1,0,-1
74.89,-178.77,-112.90,-179,-7757,-3286,-1,0,-1
74.89,-178.77,-112.90,-177,-7754,-3286,0,-1,-1
74.89,-178.77,-112.90,-172,-7759,-3289,0,-1,0
74.89,-178.77,-112.90,-177,-7756,-3282,0,-1,0
74.89,-178.77,-112.90,-179,-7754,-3278,0,0,-1
74.88,-178.78,-112.90,-180,-7756,-3273,-1,0,0
74.88,-178.78,-112.90,-183,-7758,-3285,0,0,-1
74.87,-178.77,-112.89,-184,-7756,-3277,0,0,0
74.88,-178.78,-112.90,-177,-7760,-3272,-1,0,0
74.88,-178.78,-112.90,-177,-7763,-3273,-1,0,-1
74.88,-178.78,-112.90,-182,-7763,-3284,-1,-1,-1
74.88,-178.78,-112.90,-181,-7760,-3277,-1,0,0
74.86,-178.78,-112.91,-181,-7762,-3284,-1,0,-1
74.88,-178.78,-112.90,-178,-7756,-3275,0,0,0
74.86,-178.78,-112.90,-182,-7763,-3274,-1,0,-1
74.88,-178.79,-112.90,-174,-7753,-3277,-1,-1,0
74.86,-178.78,-112.90,-180,-7754,-3274,0,-1,0
74.88,-178.78,-112.90,-180,-7750,-3271,0,-1,0
74.86,-178.78,-112.91,-175,-7748,-3284,-1,0,-1
74.86,-178.78,-112.91,-181,-7748,-3284,-1,0,-1
74.86,-178.79,-112.91,-181,-7763,-3288,0,-1,0
74.86,-178.79,-112.91,-176,-7755,-3287,0,-1,0
74.86,-178.78,-112.90,-177,-7758,-3287,0,-1,0
74.86,-178.78,-112.90,-180,-7757,-3286,0,0,-1
74.86,-178.78,-112.90,-176,-7760,-3279,0,0,-1
74.85,-178.79,-112.90,-171,-7761,-3285,-1,0,-1
74.85,-178.79,-112.91,-175,-7766,-3282,-1,0,-1
74.86,-178.79,-112.91,-179,-7758,-3284,-1,-1,-1
74.86,-178.79,-112.91,-182,-7762,-3279,-1,-1,-1
74.86,-178.79,-112.91,-181,-7765,-3278,-1,0,-1
74.87,-178.79,-112.92,-174,-7759,-3282,-1,0,0
74.87,-178.79,-112.92,-174,-7760,-3283,-1,-1,-1
74.87,-178.79,-112.92,-172,-7761,-3284,0,-1,0
74.87,-178.79,-112.92,-178,-7758,-3286,0,0,0
74.87,-178.79,-112.92,-174,-7756,-3279,0,-1,-1
74.87,-178.79,-112.92,-176,-7754,-3279,0,-1,0
74.86,-178.79,-112.91,-175,-7754,-3276,0,-1,0
74.86,-178.79,-112.91,-188,-7761,-3278,0,0,0
74.85,-178.79,-112.91,-187,-7764,-3277,0,0,-1
74.85,-178.79,-112.91,-189,-7766,-3272,-1,0,-1
74.85,-178.79,-112.91,-179,-7766,-3273,-1,0,0
74.85,-178.80,-112.91,-182,-7765,-3274,0,0,-1
74.85,-178.80,-112.91,-173,-7753,-3269,-1,0,0
74.85,-178.80,-112.91,-172,-7760,-3283,-1,-1,-1
74.85,-178.80,-112.91,-172,-7755,-3278,-1,0,-1
74.85,-178.80,-112.91,-174,-7748,-3277,0,0,-1
74.85,-178.80,-112.91,-181,-7756,-3271,0,0,-1
74.85,-178.80,-112.91,-182,-7761,-3278,0,0,0
74.85,-178.80,-112.91,-176,-7761,-3280,0,0,-1
74.85,-178.80,-112.91,-176,-7763,-3275,0,0,-1
74.85,-178.80,-112.91,-173,-7758,-3286,-1,-1,-1
74.85,-178.80,-112.92,-176,-7761,-3286,-1,0,-1
74.84,-178.80,-112.92,-183,-7759,-3282,-1,0,-1
74.84,-178.80,-112.92,-178,-7768,-3288,0,0,-1
74.84,-178.81,-112.93,-180,-7769,-3285,-1,0,-1
74.84,-178.81,-112.93,-184,-7769,-3289,-1,0,-1
74.84,-178.81,-112.93,-180,-7762,-3286,-1,0,-1
74.84,-178.81,-112.93,-178,-7759,-3293,-1,0,-1
74.84,-178.81,-112.93,-177,-7751,-3283,-1,0,-1
74.82,-178.81,-112.93,-171,-7750,-3281,-1,0,-1
74.82,-178.81,-112.93,-174,-7755,-3276,0,0,0
74.82,-178.81,-112.93,-178,-7755,-3281,0,0,0
74.82,-178.81,-112.93,-179,-7762,-3278,-1,0,0
74.83,-178.81,-112.94,-176,-7761,-3274,-1,0,0
74.83,-178.81,-112.94,-174,-7757,-3277,-1,0,-1
74.81,-178.82,-112.95,-171,-7765,-3288,-1,0,0
74.81,-178.82,-112.95,-173,-7770,-3295,-1,0,0
74.82,-178.81,-112.95,-182,-7759,-3298,0,0,0
74.82,-178.81,-112.95,-173,-7760,-3304,0,0,0
74.81,-178.82,-112.95,-172,-7754,-3297,0,0,-1
74.81,-178.82,-112.95,-174,-7756,-3284,-1,0,-1
74.79,-178.82,-112.95,-171,-7755,-3277,-1,0,0
74.79,-178.82,-112.95,-170,-7761,-3285,-1,0,0
74.81,-178.82,-112.96,-166,-7755,-3276,-1,0,-1
74.79,-178.82,-112.96,-176,-7749,-3275,-1,0,-1
74.79,-178.82,-112.97,-175,-7753,-3283,-1,0,-1
74.80,-178.83,-112.97,-174,-7763,-3300,-1,-1,0
74.81,-178.82,-112.98,-177,-7768,-3300,0,-1,0
74.81,-178.82,-112.97,-173,-7761,-3294,-1,-1,0
74.81,-178.82,-112.97,-174,-7750,-3282,-1,0,0
74.81,-178.82,-112.99,-173,-7750,-3297,-1,0,-1
74.81,-178.82,-112.99,-168,-7751,-3297,0,0,-1
74.81,-178.82,-112.99,-166,-7743,-3306,0,-1,0
74.80,-178.83,-112.99,-172,-7749,-3298,0,-1,0
74.81,-178.82,-112.98,-175,-7749,-3288,0,-1,0
74.81,-178.82,-112.98,-175,-7751,-3280,-1,0,-1
74.81,-178.82,-112.98,-176,-7751,-3276,-1,0,-1
74.82,-178.83,-112.98,-169,-7751,-3279,-1,0,-1
74.82,-178.83,-112.98,-169,-7755,-3284,-1,-1,0
74.82,-178.83,-112.98,-169,-7750,-3287,-1,-1,0
74.83,-178.82,-112.99,-180,-7751,-3294,-1,-1,0
74.83,-178.82,-112.99,-174,-7758,-3290,-1,-1,0
74.83,-178.82,-112.99,-174,-7766,-3294,0,-1,0
74.83,-178.82,-112.99,-171,-7761,-3292,0,-1,0
74.83,-178.82,-112.99,-172,-7759,-3295,-1,0,0
74.81,-178.82,-112.97,-173,-7760,-3292,0,0,0
74.83,-178.82,-112.98,-178,-7758,-3292,-1,-1,0
74.83,-178.82,-112.98,-180,-7759,-3298,0,-1,0
74.83,-178.82,-112.98,-177,-7757,-3294,0,-1,0
74.83,-178.82,-112.98,-178,-7758,-3294,0,-1,-1
74.83,-178.82,-112.98,-176,-7762,-3299,0,0,-1
74.83,-178.82,-112.98,-178,-7763,-3297,0,-1,0
74.82,-178.81,-112.97,-177,-7759,-3291,-1,-1,0
74.82,-178.81,-112.97,-179,-7758,-3284,-1,-1,0
74.82,-178.81,-112.97,-178,-7753,-3293,-1,0,-1
74.83,-178.82,-112.98,-170,-7754,-3300,-1,-1,-1
74.83,-178.82,-112.98,-170,-7752,-3295,0,0,-1
74.83,-178.82,-112.98,-172,-7755,-3291,0,-1,0
74.83,-178.81,-112.98,-172,-7746,-3286,0,-1,0
74.82,-178.81,-112.97,-174,-7745,-3282,0,-1,0
74.85,-178.82,-112.97,-173,-7745,-3275,-1,-1,-1
74.85,-178.82,-112.97,-175,-7752,-3281,-1,0,-1
74.86,-178.81,-112.98,-172,-7755,-3294,-1,-1,0
74.84,-178.81,-112.98,-177,-7754,-3300,0,-1,0
74.86,-178.81,-112.97,-181,-7758,-3292,0,-1,0
74.84,-178.81,-112.97,-179,-7752,-3289,0,0,0
74.84,-178.81,-112.97,-179,-7755,-3279,0,0,-1
74.84,-178.81,-112.97,-178,-7757,-3283,-1,0,0
74.84,-178.81,-112.97,-168,-7752,-3286,-1,-1,-1
74.84,-178.81,-112.97,-169,-7759,-3288,-1,0,0
74.84,-178.81,-112.97,-164,-7751,-3288,-1,0,0
74.85,-178.82,-112.97,-172,-7759,-3286,-1,0,0
74.84,-178.81,-112.97,-170,-7758,-3284,-1,-1,0
74.86,-178.81,-112.98,-175,-7757,-3293,0,-1,0
74.86,-178.81,-112.97,-169,-7755,-3297,0,-1,0
74.86,-178.81,-112.98,-167,-7753,-3304,0,0,0
74.86,-178.81,-112.98,-173,-7754,-3294,0,-1,0
74.86,-178.81,-112.98,-171,-7757,-3290,-1,-1,0
74.86,-178.81,-112.98,-171,-7758,-3295,0,-1,0
74.86,-178.81,-112.97,-170,-7760,-3306,0,-1,0
74.86,-178.81,-112.97,-173,-7755,-3300,0,-1,0
74.86,-178.81,-112.97,-172,-7754,-3304,0,-1,0
74.86,-178.81,-112.97,-173,-7748,-3297,0,0,-1
74.86,-178.81,-112.97,-177,-7755,-3295,-1,-1,0
74.86,-178.81,-112.97,-175,-7757,-3294,-1,0,0
74.87,-178.80,-112.98,-180,-7752,-3303,-1,0,0
74.86,-178.80,-112.98,-177,-7754,-3300,-1,-1,-1
74.87,-178.80,-112.98,-174,-7756,-3294,0,-1,0
74.87,-178.80,-112.98,-182,-7758,-3294,0,-1,0
74.87,-178.80,-112.98,-178,-7752,-3292,0,-1,0
74.87,-178.80,-112.98,-182,-7750,-3303,0,-1,0
74.87,-178.80,-112.98,-178,-7750,-3294,0,-1,0
74.87,-178.80,-112.98,-180,-7748,-3291,0,-1,0
74.87,-178.80,-112.98,-174,-7751,-3283,0,-1,0
74.87,-178.80,-112.97,-178,-7758,-3292,-1,-1,0
74.89,-178.79,-112.98,-181,-7760,-3288,-1,-1,0
74.87,-178.79,-112.98,-180,-7763,-3300,-1,0,0
74.87,-178.79,-112.98,-170,-7757,-3300,0,-1,0
74.87,-178.79,-112.98,-169,-7761,-3297,0,-1,0
74.89,-178.79,-112.98,-173,-7760,-3283,0,-1,-1
74.87,-178.80,-112.97,-174,-7758,-3278,0,-1,0
74.89,-178.79,-112.96,-170,-7751,-3263,0,-1,0
74.88,-178.79,-112.96,-173,-7751,-3267,0,0,0
74.89,-178.79,-112.96,-175,-7753,-3280,-1,0,-1
74.89,-178.80,-112.97,-177,-7748,-3290,0,0,-1
74.89,-178.80,-112.97,-176,-7750,-3294,0,0,-1
74.89,-178.80,-112.97,-170,-7756,-3284,0,0,-1
74.87,-178.80,-112.96,-168,-7757,-3279,0,-1,0
74.89,-178.80,-112.96,-175,-7744,-3279,0,-1,0
74.89,-178.80,-112.95,-181,-7741,-3271,-1,-1,0
74.89,-178.79,-112.96,-180,-7749,-3284,-1,0,-1
74.89,-178.79,-112.96,-186,-7754,-3290,-1,-1,0
74.89,-178.80,-112.97,-178,-7759,-3300,0,-1,0
74.90,-178.79,-112.97,-180,-7755,-3309,0,-1,0
74.89,-178.79,-112.96,-187,-7754,-3299,0,0,0
74.88,-178.79,-112.96,-191,-7757,-3289,0,0,0
74.88,-178.79,-112.96,-182,-7760,-3276,-1,0,0
74.88,-178.79,-112.96,-186,-7758,-3288,-1,0,-1
74.88,-178.79,-112.96,-181,-7754,-3283,-1,-1,-1
74.88,-178.79,-112.96,-183,-7755,-3285,-1,-1,0
74.90,-178.79,-112.97,-182,-7746,-3288,0,0,-1
74.89,-178.79,-112.96,-179,-7745,-3282,0,-1,-1
74.90,-178.79,-112.96,-180,-7749,-3275,-1,-1,0
74.90,-178.79,-112.96,-181,-7753,-3275,0,-1,0
74.90,-178.79,-112.96,-182,-7754,-3283,0,-1,0
74.90,-178.79,-112.96,-180,-7747,-3284,0,0,-1
74.90,-178.79,-112.96,-177,-7748,-3284,0,-1,-1
74.88,-178.79,-112.96,-176,-7743,-3280,0,0,0
74.88,-178.78,-112.95,-181,-7756,-3282,0,-1,0
74.88,-178.78,-112.95,-181,-7757,-3296,0,-1,0
74.88,-178.78,-112.95,-181,-7758,-3293,0,0,0
74.90,-178.79,-112.95,-180,-7760,-3283,0,0,0
74.88,-178.78,-112.95,-180,-7752,-3273,-1,0,0
74.88,-178.78,-112.95,-173,-7749,-3274,-1,0,-1
74.88,-178.79,-112.96,-174,-7748,-3282,-1,0,-1
74.89,-178.79,-112.96,-175,-7748,-3284,-1,0,-1
74.89,-178.79,-112.96,-170,-7754,-3286,0,0,-1
74.88,-178.79,-112.96,-167,-7752,-3283,0,0,0
74.88,-178.79,-112.96,-179,-7758,-3279,-1,-1,0
74.88,-178.79,-112.96,-174,-7764,-3290,-1,-1,0
74.90,-178.78,-112.96,-181,-7758,-3295,0,0,0
74.88,-178.78,-112.95,-181,-7763,-3291,0,-1,0
74.88,-178.78,-112.95,-184,-7752,-3282,-1,-1,0
74.87,-178.77,-112.96,-185,-7755,-3288,0,-1,0
74.87,-178.77,-112.96,-184,-7749,-3284,-1,0,0
74.88,-178.78,-112.96,-178,-7754,-3290,-1,-1,-1
74.88,-178.78,-112.96,-182,-7753,-3282,0,0,-1
74.89,-178.78,-112.96,-181,-7752,-3282,-1,0,-1
74.90,-178.78,-112.96,-169,-7756,-3287,-1,-1,0
74.88,-178.78,-112.97,-178,-7755,-3290,-1,0,-1
74.88,-178.78,-112.97,-178,-7752,-3279,-1,0,-1
74.88,-178.78,-112.97,-175,-7747,-3294,-1,0,-1
74.88,-178.79,-112.97,-174,-7756,-3295,0,0,-1
74.88,-178.78,-112.97,-178,-7757,-3289,0,-1,0
74.87,-178.79,-112.96,-183,-7755,-3289,0,-1,0
74.86,-178.78,-112.96,-182,-7745,-3268,-1,0,0
74.86,-178.78,-112.96,-178,-7748,-3275,-1,-1,0
74.88,-178.78,-112.97,-178,-7753,-3277,-1,-1,-1
74.86,-178.78,-112.97,-178,-7761,-3291,-1,0,0
74.86,-178.78,-112.97,-181,-7759,-3295,0,-1,0
74.88,-178.78,-112.96,-176,-7755,-3294,0,-1,0
74.86,-178.78,-112.96,-177,-7750,-3291,0,0,0
74.86,-178.78,-112.96,-174,-7754,-3294,0,0,-1
74.84,-178.78,-112.95,-176,-7754,-3285,-1,0,0
74.85,-178.79,-112.95,-170,-7755,-3300,-1,0,-1
74.85,-178.79,-112.96,-174,-7750,-3289,-1,0,-1
74.85,-178.79,-112.97,-178,-7746,-3297,-1,0,-1
74.85,-178.79,-112.97,-178,-7751,-3300,-1,0,-1
74.85,-178.79,-112.97,-181,-7754,-3292,-1,0,0
74.85,-178.79,-112.97,-180,-7757,-3283,0,-1,0
74.86,-178.79,-112.97,-180,-7761,-3287,0,-1,0
74.86,-178.79,-112.97,-176,-7757,-3287,0,0,0
74.85,-178.79,-112.97,-179,-7756,-3291,-1,0,-1
74.85,-178.79,-112.96,-182,-7761,-3290,-1,0,-1
74.85,-178.79,-112.97,-175,-7750,-3295,-1,-1,0
74.85,-178.79,-112.97,-176,-7749,-3301,0,0,0
74.85,-178.79,-112.97,-184,-7756,-3303,0,0,0
74.83,-178.79,-112.96,-180,-7759,-3300,0,0,0
74.84,-178.79,-112.96,-170,-7758,-3288,0,0,-1
74.83,-178.79,-112.95,-171,-7753,-3280,-1,0,-1
74.83,-178.79,-112.95,-173,-7749,-3278,-1,0,-1
74.85,-178.79,-112.96,-173,-7749,-3288,-1,-1,-1
74.84,-178.80,-112.97,-171,-7751,-3288,-1,-1,-1
74.85,-178.80,-112.97,-170,-7751,-3297,0,-1,-1
74.85,-178.80,-112.97,-172,-7751,-3293,0,-1,0
74.85,-178.80,-112.96,-171,-7754,-3289,0,-1,0
74.85,-178.79,-112.96,-173,-7750,-3276,-1,-1,0
74.86,-178.78,-112.96,-178,-7745,-3263,-1,-1,0
74.87,-178.79,-112.96,-172,-7747,-3282,-1,0,0
74.86,-178.79,-112.98,-173,-7752,-3290,-1,0,0
74.86,-178.79,-112.98,-181,-7752,-3297,0,0,0
74.86,-178.78,-112.97,-179,-7758,-3297,0,-1,0
74.86,-178.78,-112.97,-184,-7759,-3291,0,0,-1
74.84,-178.78,-112.96,-192,-7750,-3275,0,0,-1
74.84,-178.78,-112.96,-186,-7748,-3275,-1,0,0
74.86,-178.78,-112.97,-182,-7756,-3295,-1,-1,-1
74.86,-178.78,-112.97,-177,-7755,-3292,-1,-1,-1
74.86,-178.78,-112.97,-169,-7751,-3286,0,-1,0
74.86,-178.78,-112.97,-182,-7755,-3285,-1,0,0
74.86,-178.79,-112.98,-175,-7749,-3288,-1,0,-1
74.87,-178.79,-112.98,-176,-7755,-3296,-1,0,-1
74.87,-178.79,-112.98,-173,-7757,-3297,-1,0,-1
74.86,-178.80,-112.98,-167,-7751,-3292,0,0,-1
74.85,-178.80,-112.98,-169,-7750,-3297,0,-1,0
74.85,-178.80,-112.97,-165,-7752,-3286,0,-1,0
74.84,-178.80,-112.96,-172,-7752,-3281,0,-1,0
74.85,-178.80,-112.96,-177,-7747,-3286,-1,0,0
74.85,-178.80,-112.97,-179,-7749,-3281,-1,0,-1
74.84,-178.80,-112.98,-176,-7755,-3294,-1,0,-1
74.85,-178.80,-112.98,-178,-7754,-3308,0,0,0
74.85,-178.80,-112.98,-177,-7754,-3306,0,-1,0
74.84,-178.80,-112.98,-176,-7754,-3296,0,0,-1
74.84,-178.80,-112.98,-174,-7754,-3297,0,0,-1
74.84,-178.80,-112.98,-176,-7758,-3297,-1,0,-1
74.84,-178.81,-112.98,-184,-7761,-3297,-1,0,-1
74.84,-178.81,-112.98,-180,-7757,-3291,-1,0,0
74.84,-178.81,-112.98,-175,-7757,-3284,0,0,-1
74.84,-178.81,-112.98,-177,-7748,-3289,-1,0,-1
74.82,-178.81,-112.99,-172,-7744,-3290,-1,0,-1
74.82,-178.81,-112.99,-172,-7749,-3298,-1,-1,0
74.82,-178.81,-112.99,-174,-7756,-3288,-1,-1,0
74.84,-178.81,-112.99,-175,-7757,-3293,-1,0,0
74.84,-178.81,-112.99,-170,-7753,-3275,-1,0,0
74.82,-178.81,-113.00,-171,-7751,-3283,-1,0,0
74.82,-178.81,-113.01,-170,-7747,-3283,-1,0,0
74.82,-178.81,-113.02,-177,-7755,-3314,-1,-1,0
74.84,-178.80,-113.03,-172,-7756,-3313,-1,0,0
74.84,-178.80,-113.03,-175,-7752,-3305,0,-1,0
74.84,-178.81,-113.03,-169,-7755,-3301,-1,0,-1
74.84,-178.81,-113.03,-171,-7759,-3300,0,0,-1
74.83,-178.82,-113.03,-170,-7757,-3302,-1,0,-1
74.83,-178.81,-113.04,-166,-7753,-3307,-1,-1,-1
74.83,-178.82,-113.05,-164,-7739,-3302,-1,-1,0
74.83,-178.82,-113.05,-160,-7735,-3307,-1,0,-1
74.83,-178.82,-113.06,-164,-7749,-3317,-1,0,-1
74.83,-178.82,-113.06,-164,-7752,-3316,0,0,-1
74.83,-178.82,-113.06,-171,-7747,-3306,0,-1,-1
74.85,-178.82,-113.06,-166,-7757,-3295,0,-1,0
74.85,-178.82,-113.05,-165,-7753,-3293,0,-1,0
74.83,-178.82,-113.05,-169,-7752,-3290,0,0,0
74.83,-178.82,-113.05,-176,-7757,-3303,0,0,-1
74.83,-178.82,-113.04,-174,-7758,-3293,0,-1,-1
74.85,-178.82,-113.04,-174,-7753,-3294,-1,0,0
74.85,-178.82,-113.04,-177,-7754,-3293,0,-1,0
74.85,-178.82,-113.04,-176,-7753,-3285,0,0,-1
74.83,-178.82,-113.04,-172,-7745,-3281,0,-1,-1
74.85,-178.83,-113.04,-166,-7740,-3299,0,-1,-1
74.85,-178.82,-113.03,-169,-7733,-3294,0,0,0
74.85,-178.82,-113.03,-174,-7738,-3297,-1,-1,0
74.83,-178.82,-113.03,-172,-7742,-3302,-1,-1,0
74.83,-178.82,-113.03,-175,-7749,-3301,-1,-1,0
74.85,-178.83,-113.04,-176,-7751,-3306,0,0,-1
74.85,-178.82,-113.03,-176,-7754,-3291,0,0,-1
74.83,-178.83,-113.03,-171,-7755,-3295,0,-1,0
74.85,-178.82,-113.02,-181,-7741,-3295,0,-1,0
74.85,-178.82,-113.02,-175,-7735,-3279,-1,-1,0
74.85,-178.82,-113.03,-176,-7745,-3290,-1,0,-1
74.85,-178.82,-113.03,-172,-7755,-3295,-1,0,-1
74.85,-178.82,-113.03,-176,-7753,-3305,0,-1,0
74.85,-178.82,-113.03,-177,-7752,-3309,0,-1,0
74.85,-178.82,-113.03,-178,-7751,-3309,0,-1,0
74.86,-178.82,-113.02,-179,-7748,-3295,0,-1,0
74.85,-178.82,-113.01,-179,-7746,-3291,0,0,-1
74.85,-178.82,-113.01,-177,-7752,-3284,-1,-1,0
74.85,-178.82,-113.02,-181,-7753,-3290,-1,-1,0
74.86,-178.82,-113.02,-186,-7751,-3292,-1,0,0
74.85,-178.81,-113.02,-182,-7752,-3300,-1,-1,-1
74.86,-178.82,-113.02,-170,-7754,-3296,0,-1,-1
74.86,-178.82,-113.02,-174,-7752,-3300,0,-1,0
74.86,-178.82,-113.02,-163,-7750,-3296,0,-1,0
74.86,-178.81,-113.02,-171,-7756,-3302,0,-1,0
74.86,-178.81,-113.02,-169,-7755,-3291,-1,-1,-1
74.88,-178.81,-113.02,-174,-7744,-3301,0,0,-1
74.88,-178.81,-113.03,-171,-7742,-3297,0,-1,0
74.86,-178.82,-113.02,-167,-7751,-3296,0,0,0
74.86,-178.81,-113.02,-168,-7762,-3297,0,-1,0
74.86,-178.80,-113.01,-176,-7755,-3295,0,-1,0
74.88,-178.81,-113.01,-171,-7743,-3284,-1,-1,-1
74.88,-178.81,-113.01,-180,-7745,-3284,0,0,-1
74.88,-178.81,-113.01,-175,-7748,-3281,-1,-1,-1
74.88,-178.81,-113.01,-175,-7750,-3286,-1,0,-1
74.88,-178.81,-113.01,-181,-7750,-3297,-1,-1,0
74.88,-178.81,-113.01,-177,-7750,-3291,0,-1,0
74.88,-178.81,-113.01,-174,-7750,-3291,0,-1,0
74.88,-178.81,-113.01,-175,-7751,-3281,0,-1,0
74.87,-178.80,-113.00,-178,-7751,-3286,0,-1,0
74.87,-178.80,-113.00,-178,-7756,-3291,0,-1,0
74.87,-178.80,-113.00,-185,-7752,-3303,0,-1,0
74.87,-178.80,-113.00,-175,-7749,-3298,0,-1,0
74.87,-178.80,-113.00,-172,-7747,-3302,0,-1,0
74.87,-178.80,-113.00,-167,-7748,-3296,0,-1,0
74.87,-178.80,-113.00,-179,-7756,-3292,-1,-1,0
74.87,-178.80,-113.00,-177,-7759,-3287,-1,0,0
74.87,-178.80,-113.00,-183,-7757,-3289,-1,0,-1
74.87,-178.80,-113.00,-175,-7748,-3295,-1,0,-1
74.87,-178.80,-113.00,-174,-7751,-3293,0,-1,-1
74.89,-178.80,-113.00,-174,-7748,-3285,0,-1,0
74.89,-178.80,-112.99,-181,-7751,-3280,0,-1,0
74.89,-178.80,-112.99,-181,-7747,-3278,-1,-1,0
74.89,-178.80,-112.99,-179,-7749,-3279,0,0,-1
74.89,-178.80,-112.99,-172,-7748,-3286,-1,0,-1
74.89,-178.80,-113.00,-170,-7752,-3298,-1,-1,0
74.89,-178.80,-112.99,-178,-7756,-3299,0,-1,0
74.89,-178.79,-112.99,-179,-7748,-3295,0,-1,0
74.87,-178.79,-112.98,-185,-7746,-3276,0,-1,0
74.89,-178.79,-112.98,-184,-7754,-3276,0,0,-1
74.89,-178.79,-112.98,-186,-7749,-3282,-1,-1,-1
74.86,-178.79,-112.98,-189,-7750,-3276,-1,0,0
74.86,-178.79,-112.98,-185,-7750,-3294,0,-1,-1
74.88,-178.78,-112.98,-189,-7744,-3288,0,-1,-1
74.88,-178.79,-112.98,-185,-7746,-3284,-1,-1,-1
74.88,-178.79,-112.98,-179,-7747,-3290,0,-1,-1
74.88,-178.79,-112.98,-178,-7745,-3297,-1,0,0
74.88,-178.79,-112.98,-181,-7751,-3294,-1,-1,0
74.90,-178.78,-112.99,-183,-7740,-3291,-1,-1,0
74.88,-178.78,-112.98,-185,-7748,-3289,0,-1,-1
74.90,-178.78,-112.98,-184,-7752,-3300,0,-1,0
74.89,-178.77,-112.98,-183,-7752,-3305,0,-1,0
74.88,-178.77,-112.97,-181,-7761,-3292,0,-1,0
74.89,-178.78,-112.97,-181,-7758,-3281,0,-1,0
74.89,-178.77,-112.97,-185,-7754,-3277,0,0,-1
74.89,-178.77,-112.97,-185,-7760,-3288,0,0,-1
74.89,-178.77,-112.97,-181,-7762,-3293,-1,-1,-1
74.89,-178.77,-112.97,-185,-7756,-3290,-1,-1,-1
74.89,-178.77,-112.97,-188,-7754,-3287,-1,0,0
74.89,-178.77,-112.97,-186,-7750,-3293,0,-1,0
74.89,-178.77,-112.97,-182,-7753,-3293,0,0,-1
74.89,-178.77,-112.97,-173,-7746,-3297,0,0,-1
74.89,-178.77,-112.97,-177,-7750,-3295,0,-1,0
74.89,-178.77,-112.95,-178,-7749,-3282,0,-1,0
74.89,-178.77,-112.95,-179,-7749,-3280,0,-1,0
74.89,-178.77,-112.95,-179,-7752,-3280,-1,-1,0
74.89,-178.77,-112.95,-178,-7756,-3289,-1,0,-1
74.89,-178.77,-112.95,-180,-7751,-3292,-1,0,-1
74.89,-178.77,-112.95,-176,-7756,-3292,0,-1,-1
74.89,-178.77,-112.95,-178,-7758,-3307,0,-1,-1
74.90,-178.78,-112.96,-178,-7751,-3300,0,0,-1
74.90,-178.78,-112.96,-180,-7746,-3293,-1,0,0
74.91,-178.77,-112.96,-173,-7754,-3296,-1,-1,-1
74.92,-178.78,-112.97,-175,-7752,-3287,-1,0,-1
74.90,-178.79,-112.96,-181,-7756,-3287,0,0,0
74.90,-178.78,-112.96,-183,-7756,-3289,0,-1,0
74.89,-178.77,-112.95,-183,-7759,-3278,0,-1,0
74.89,-178.77,-112.95,-183,-7753,-3280,-1,0,0
74.89,-178.77,-112.95,-186,-7753,-3282,-1,0,-1
74.91,-178.77,-112.96,-186,-7751,-3295,-1,0,0
74.91,-178.77,-112.96,-189,-7758,-3296,0,0,0
74.90,-178.78,-112.96,-182,-7757,-3300,0,0,-1
74.90,-178.78,-112.96,-177,-7749,-3292,0,0,-1
74.90,-178.78,-112.96,-181,-7749,-3280,0,0,0
74.88,-178.78,-112.95,-188,-7752,-3282,-1,0,-1
74.90,-178.78,-112.96,-189,-7757,-3293,-1,-1,-1
74.90,-178.78,-112.96,-186,-7758,-3292,0,0,-1
74.90,-178.78,-112.96,-181,-7760,-3291,0,0,-1
74.88,-178.78,-112.95,-170,-7754,-3293,0,0,-1
74.90,-178.78,-112.96,-167,-7754,-3294,-1,0,0
74.90,-178.78,-112.96,-168,-7757,-3288,-1,0,0
74.88,-178.79,-112.96,-170,-7764,-3298,0,0,-1
74.88,-178.79,-112.96,-175,-7757,-3298,0,0,0
74.88,-178.79,-112.96,-174,-7745,-3285,-1,0,0
74.88,-178.79,-112.96,-171,-7753,-3284,0,-1,0
74.88,-178.79,-112.96,-175,-7757,-3282,-1,-1,0
74.88,-178.79,-112.96,-172,-7750,-3285,0,-1,-1
74.88,-178.79,-112.96,-179,-7752,-3282,-1,0,-1
74.88,-178.79,-112.96,-184,-7751,-3296,0,0,-1
74.88,-178.79,-112.96,-179,-7762,-3295,-1,0,0
74.88,-178.79,-112.96,-184,-7769,-3294,-1,-1,-1
74.87,-178.79,-112.96,-182,-7759,-3290,-1,-1,0
74.87,-178.79,-112.96,-184,-7748,-3292,0,0,-1
74.87,-178.79,-112.97,-180,-7748,-3290,0,-1,0
74.87,-178.79,-112.96,-180,-7751,-3286,0,-1,0
74.88,-178.79,-112.96,-178,-7752,-3284,0,-1,0
74.88,-178.79,-112.96,-181,-7752,-3273,0,-1,0
74.88,-178.78,-112.95,-187,-7753,-3278,0,-1,0
74.88,-178.78,-112.95,-187,-7760,-3280,0,0,-1
74.88,-178.79,-112.96,-186,-7755,-3290,-1,0,-1
74.86,-178.78,-112.96,-189,-7754,-3292,-1,0,-1
74.86,-178.78,-112.96,-183,-7751,-3286,-1,0,0
74.86,-178.78,-112.96,-181,-7756,-3278,-1,0,-1
74.86,-178.78,-112.96,-180,-7758,-3277,0,0,0
74.87,-178.79,-112.96,-179,-7750,-3289,-1,0,-1
74.87,-178.79,-112.96,-180,-7743,-3287,-1,0,0
74.87,-178.79,-112.96,-179,-7747,-3283,-1,0,-1
74.86,-178.79,-112.98,-180,-7747,-3298,-1,0,-1
74.86,-178.79,-112.98,-176,-7748,-3298,0,0,0
74.86,-178.79,-112.98,-178,-7756,-3296,0,-1,0
74.85,-178.79,-112.97,-171,-7753,-3301,0,-1,0
74.87,-178.79,-112.96,-179,-7744,-3288,0,-1,0
74.87,-178.79,-112.96,-182,-7737,-3278,0,-1,-1
74.87,-178.79,-112.96,-176,-7739,-3283,-1,0,0
74.86,-178.79,-112.98,-169,-7745,-3289,-1,0,0
74.87,-178.79,-112.98,-171,-7748,-3295,-1,0,0
74.87,-178.79,-112.98,-174,-7762,-3298,0,0,0
74.86,-178.79,-112.98,-182,-7760,-3293,0,0,0
74.85,-178.79,-112.97,-175,-7750,-3280,0,0,0
74.85,-178.79,-112.97,-175,-7748,-3280,-1,0,-1
74.85,-178.79,-112.98,-175,-7745,-3276,-1,0,0
74.85,-178.79,-112.98,-181,-7753,-3282,-1,0,-1
74.83,-178.80,-112.98,-172,-7757,-3302,-1,0,0
74.85,-178.79,-112.99,-171,-7758,-3310,0,0,-1
74.84,-178.80,-112.99,-168,-7754,-3307,0,0,-1
74.84,-178.80,-112.99,-173,-7754,-3299,-1,0,0
74.84,-178.80,-112.99,-177,-7750,-3298,0,0,0
74.84,-178.80,-112.99,-183,-7756,-3289,-1,0,-1
74.85,-178.80,-112.99,-178,-7753,-3299,0,0,0
74.85,-178.80,-112.99,-180,-7747,-3301,0,0,0
74.85,-178.80,-112.99,-181,-7750,-3296,-1,0,0
74.84,-178.80,-113.00,-180,-7754,-3301,0,0,0
74.83,-178.79,-112.99,-176,-7754,-3294,0,0,0
74.83,-178.79,-112.99,-175,-7760,-3289,0,0,-1
74.82,-178.80,-112.99,-178,-7760,-3298,0,0,-1
74.83,-178.80,-113.00,-180,-7751,-3290,-1,-1,0
74.82,-178.80,-112.99,-174,-7745,-3286,-1,0,0
74.82,-178.80,-112.99,-170,-7748,-3282,-1,0,-1
74.82,-178.81,-113.00,-169,-7748,-3276,-1,0,-1
74.81,-178.81,-113.01,-169,-7749,-3290,-1,0,-1
74.81,-178.82,-113.01,-171,-7754,-3298,-1,0,0
74.82,-178.81,-113.01,-167,-7749,-3294,-1,0,0
74.81,-178.81,-113.02,-177,-7752,-3310,-1,-1,-1
74.82,-178.81,-113.03,-180,-7754,-3305,-1,0,0
74.82,-178.81,-113.03,-184,-7749,-3294,-1,0,-1
74.82,-178.81,-113.04,-180,-7749,-3303,-1,-1,0
74.83,-178.81,-113.04,-178,-7747,-3304,-1,0,0
74.83,-178.81,-113.04,-181,-7748,-3299,-1,0,-1
74.83,-178.81,-113.04,-167,-7753,-3299,-1,-1,0
74.84,-178.81,-113.05,-172,-7751,-3299,0,0,-1
74.83,-178.81,-113.04,-170,-7743,-3299,-1,0,0
74.83,-178.81,-113.04,-172,-7740,-3294,-1,0,0
74.83,-178.82,-113.05,-173,-7746,-3306,-1,0,-1
74.81,-178.82,-113.05,-174,-7749,-3299,-1,-1,0
74.83,-178.82,-113.06,-175,-7750,-3300,-1,0,-1
74.83,-178.82,-113.06,-183,-7754,-3309,0,0,-1
74.83,-178.82,-113.06,-178,-7760,-3313,-1,0,0
74.83,-178.82,-113.06,-183,-7758,-3306,0,-1,0
74.81,-178.82,-113.05,-173,-7754,-3313,0,-1,0
74.83,-178.81,-113.04,-172,-7752,-3299,0,-1,0
74.83,-178.81,-113.04,-175,-7747,-3302,0,-1,-1
74.83,-178.82,-113.05,-165,-7751,-3300,-1,0,-1
74.85,-178.81,-113.05,-170,-7752,-3316,-1,-1,0
74.83,-178.82,-113.05,-167,-7755,-3302,0,-1,0
74.85,-178.81,-113.05,-164,-7757,-3315,0,-1,0
74.83,-178.81,-113.04,-170,-7752,-3303,0,0,-1
74.84,-178.81,-113.03,-174,-7752,-3305,0,-1,0
74.84,-178.81,-113.03,-175,-7750,-3296,0,-1,0
74.84,-178.80,-113.03,-178,-7746,-3288,0,-1,0
74.84,-178.80,-113.03,-175,-7746,-3281,-1,0,0
74.82,-178.81,-113.04,-181,-7752,-3290,-1,-1,-1
74.84,-178.81,-113.03,-169,-7752,-3298,0,-1,-1
74.84,-178.81,-113.03,-172,-7753,-3297,-1,-1,-1
74.84,-178.81,-113.03,-167,-7754,-3296,-1,-1,0
74.86,-178.80,-113.04,-176,-7749,-3305,0,-1,0
74.86,-178.80,-113.03,-177,-7746,-3300,0,-1,0
74.86,-178.80,-113.03,-169,-7746,-3303,0,-1,0
74.86,-178.80,-113.03,-171,-7745,-3302,-1,-1,0
74.86,-178.80,-113.03,-174,-7750,-3313,0,-1,0
74.85,-178.80,-113.03,-180,-7756,-3298,0,-1,0
74.85,-178.80,-113.03,-180,-7760,-3301,0,-1,-1
74.85,-178.80,-113.02,-175,-7758,-3299,0,0,-1
74.86,-178.80,-113.02,-172,-7751,-3301,0,-1,-1
74.87,-178.80,-113.02,-176,-7752,-3281,-1,-1,0
74.85,-178.80,-113.02,-178,-7754,-3280,-1,-1,0
74.85,-178.80,-113.02,-177,-7753,-3287,-1,-1,-1
74.87,-178.80,-113.03,-179,-7753,-3288,-1,0,0
74.87,-178.80,-113.03,-183,-7748,-3292,-1,-1,0
74.87,-178.79,-113.03,-173,-7747,-3307,0,-1,0
74.87,-178.80,-113.04,-174,-7747,-3307,-1,-1,0
74.87,-178.79,-113.03,-180,-7752,-3304,0,-1,0
74.86,-178.79,-113.03,-189,-7752,-3297,-1,0,0
74.87,-178.79,-113.03,-183,-7755,-3308,-1,-1,-1
74.85,-178.78,-113.03,-184,-7757,-3298,-1,0,0
74.86,-178.79,-113.03,-186,-7756,-3291,0,0,-1
74.85,-178.79,-113.02,-184,-7758,-3291,-1,0,0
74.85,-178.79,-113.02,-182,-7753,-3297,0,0,-1
74.83,-178.79,-113.02,-177,-7755,-3301,0,0,-1
74.83,-178.79,-113.00,-175,-7746,-3278,0,-1,0
74.83,-178.79,-113.00,-169,-7753,-3296,0,0,0
74.81,-178.79,-112.99,-175,-7750,-3290,0,0,0
74.79,-178.79,-112.99,-171,-7751,-3289,0,0,0
74.79,-178.79,-112.99,-180,-7753,-3305,0,0,0
74.79,-178.79,-112.98,-175,-7757,-3289,0,0,-1
74.79,-178.79,-112.97,-181,-7758,-3288,-1,-1,0
74.79,-178.79,-112.98,-170,-7748,-3285,-1,-1,0
74.81,-178.78,-112.98,-176,-7753,-3284,-1,-1,0
74.81,-178.78,-112.98,-177,-7752,-3281,0,-1,0
74.81,-178.78,-112.98,-179,-7750,-3284,-1,-1,-1
74.83,-178.78,-112.98,-173,-7751,-3294,-1,-1,0
74.83,-178.78,-112.98,-169,-7749,-3290,-1,-1,0
74.84,-178.78,-112.99,-175,-7752,-3288,-1,-1,0
74.82,-178.78,-112.99,-180,-7753,-3295,-1,-1,0
74.84,-178.78,-113.00,-185,-7757,-3297,-1,-1,-1
74.82,-178.78,-112.99,-190,-7765,-3292,0,0,-1
74.84,-178.78,-112.99,-183,-7759,-3283,-1,-1,0
74.84,-178.78,-112.99,-178,-7762,-3287,0,-1,0
74.84,-178.78,-112.99,-179,-7761,-3290,-1,-1,0
74.84,-178.78,-112.99,-180,-7754,-3281,-1,-1,-1
74.86,-178.78,-112.99,-182,-7748,-3286,-1,0,-1
74.84,-178.78,-113.00,-182,-7743,-3287,-1,0,0
74.84,-178.78,-113.00,-181,-7749,-3288,-1,-1,0
74.86,-178.78,-113.01,-178,-7755,-3303,0,-1,0
74.86,-178.77,-113.00,-177,-7758,-3297,0,-1,0
74.88,-178.77,-113.00,-179,-7745,-3282,0,-1,0
74.87,-178.77,-112.99,-176,-7747,-3285,-1,-1,0
74.88,-178.77,-113.00,-179,-7756,-3292,-1,0,0
74.87,-178.77,-112.99,-182,-7756,-3306,0,-1,0
74.87,-178.77,-112.99,-176,-7760,-3307,0,-1,0
74.87,-178.77,-112.99,-188,-7755,-3301,0,-1,0
74.87,-178.76,-112.99,-188,-7750,-3287,0,0,0
74.87,-178.76,-112.99,-187,-7760,-3289,-1,-1,0
74.87,-178.76,-113.00,-188,-7754,-3294,-1,-1,-1
74.87,-178.76,-113.00,-188,-7744,-3300,0,-1,-1
74.88,-178.75,-113.00,-190,-7748,-3301,0,-1,0
74.88,-178.75,-113.00,-186,-7753,-3299,0,-1,0
74.90,-178.75,-112.99,-183,-7749,-3300,0,-1,0
74.90,-178.75,-112.99,-178,-7746,-3294,0,-1,0
74.90,-178.75,-112.99,-183,-7743,-3299,-1,-1,0
74.90,-178.75,-112.99,-187,-7753,-3300,0,0,-1
74.90,-178.75,-112.99,-188,-7747,-3297,0,0,0
74.90,-178.75,-112.99,-192,-7747,-3286,-1,-1,0
74.90,-178.75,-112.99,-187,-7750,-3292,0,-1,-1
74.90,-178.75,-112.99,-183,-7750,-3294,0,-1,-1
74.91,-178.74,-112.98,-176,-7759,-3287,0,-1,-1
74.91,-178.75,-112.99,-182,-7754,-3290,-1,0,-1
74.90,-178.75,-112.98,-187,-7748,-3289,0,0,-1
74.90,-178.76,-112.98,-180,-7747,-3295,0,-1,-1
74.90,-178.76,-112.98,-180,-7753,-3294,0,-1,0
74.90,-178.75,-112.98,-179,-7749,-3294,0,0,0
74.90,-178.75,-112.98,-177,-7752,-3284,0,0,0
74.90,-178.75,-112.98,-185,-7755,-3287,-1,0,0
74.90,-178.75,-112.98,-189,-7751,-3290,-1,0,-1
74.88,-178.75,-112.98,-186,-7755,-3297,-1,0,-1
74.89,-178.76,-112.99,-176,-7755,-3301,-1,0,-1
74.89,-178.76,-112.98,-177,-7754,-3290,0,0,0
74.89,-178.76,-112.98,-179,-7752,-3294,0,-1,0
74.88,-178.76,-112.98,-184,-7749,-3290,0,-1,0
74.88,-178.76,-112.98,-258,-258,-258,-1,-1,-258
74.88,-178.76,-112.98,-186,-7746,-3289,-1,0,-1
74.89,-178.76,-112.99,-184,-7749,-3301,-1,0,0
74.89,-178.76,-112.99,-184,-7753,-3305,-1,0,-1
74.89,-178.76,-113.00,-182,-7759,-3306,0,0,0
74.88,-178.75,-112.99,-183,-7758,-3299,0,-1,0
74.89,-178.76,-112.98,-183,-7758,-3293,0,-1,0
74.88,-178.76,-112.98,-185,-7755,-3290,0,0,-1
74.88,-178.76,-112.98,-193,-7758,-3278,-1,0,-1
74.87,-178.76,-112.98,-188,-7754,-3279,-1,0,-1
74.87,-178.76,-112.98,-188,-7756,-3280,-1,0,-1
74.87,-178.76,-112.98,-188,-7748,-3284,-1,0,-1
74.85,-178.77,-112.98,-181,-7751,-3283,-1,0,-1
74.87,-178.77,-112.98,-174,-7748,-3286,0,-1,0
74.87,-178.77,-112.98,-177,-7750,-3286,-1,0,0
74.87,-178.77,-112.98,-177,-7754,-3292,0,0,0
74.87,-178.77,-112.98,-179,-7755,-3299,0,0,-1
74.87,-178.77,-112.98,-172,-7744,-3300,0,-1,0
74.88,-178.78,-112.99,-173,-7741,-3291,-1,0,0
74.86,-178.77,-112.99,-169,-7749,-3299,0,0,0
74.86,-178.77,-112.99,-175,-7755,-3290,-1,0,0
74.86,-178.77,-112.99,-178,-7756,-3293,0,0,0
74.85,-178.77,-112.98,-183,-7759,-3287,0,0,0
74.84,-178.77,-112.98,-184,-7758,-3285,0,0,-1
74.86,-178.77,-112.98,-176,-7763,-3279,-1,0,-1
74.86,-178.77,-112.98,-173,-7759,-3269,-1,-1,-1
74.86,-178.78,-112.98,-174,-7755,-3278,-1,-1,-1
74.86,-178.78,-112.98,-174,-7754,-3277,-1,0,-1
74.86,-178.78,-112.99,-167,-7752,-3291,-1,0,-1
74.86,-178.78,-112.98,-174,-7754,-3290,0,-1,0
74.84,-178.78,-112.98,-173,-7754,-3288,0,-1,0
74.84,-178.78,-112.98,-170,-7754,-3288,0,-1,0
74.84,-178.78,-112.98,-171,-7754,-3281,0,0,0
74.84,-178.78,-112.97,-178,-7753,-3277,-1,0,0
74.84,-178.78,-112.97,-181,-7757,-3273,-1,0,-1
74.84,-178.78,-112.98,-178,-7758,-3281,-1,0,0
74.83,-178.79,-112.97,-182,-7761,-3275,-1,0,0
74.83,-178.79,-112.97,-180,-7765,-3285,-1,0,-1
74.83,-178.79,-112.97,-180,-7757,-3288,-1,0,-1
74.83,-178.79,-112.98,-182,-7758,-3289,-1,0,-1
74.85,-178.79,-112.98,-180,-7751,-3299,-1,0,-1
74.83,-178.79,-112.98,-173,-7752,-3284,0,0,0
74.83,-178.79,-112.98,-176,-7752,-3285,-1,0,0
74.85,-178.79,-112.98,-182,-7756,-3288,-1,-1,0
74.85,-178.79,-112.98,-180,-7753,-3287,-1,-1,-1
74.83,-178.79,-112.99,-178,-7743,-3300,-1,0,-1
74.83,-178.79,-112.99,-176,-7753,-3300,0,0,-1
74.83,-178.79,-112.99,-173,-7751,-3292,0,0,0
74.83,-178.79,-112.98,-179,-7755,-3289,0,-1,0
74.83,-178.79,-112.98,-181,-7751,-3281,0,-1,0
74.85,-178.79,-112.98,-177,-7747,-3282,-1,-1,-1
74.83,-178.79,-112.99,-172,-7748,-3280,-1,0,-1
74.83,-178.79,-112.99,-177,-7752,-3292,-1,0,-1
74.85,-178.79,-113.00,-178,-7753,-3301,-1,0,0
74.85,-178.79,-113.00,-180,-7745,-3299,0,0,0
74.85,-178.79,-113.00,-181,-7745,-3301,0,0,0
74.83,-178.79,-112.99,-183,-7742,-3297,0,0,0
74.83,-178.79,-112.99,-177,-7748,-3290,0,0,-1
74.81,-178.79,-112.99,-172,-7748,-3292,-1,0,-1
74.82,-178.80,-113.00,-175,-7753,-3289,-1,0,-1
74.82,-178.80,-113.00,-175,-7749,-3289,-1,0,0
74.83,-178.80,-113.01,-172,-7748,-3292,-1,0,-1
74.82,-178.80,-113.02,-170,-7756,-3302,-1,0,-1
74.82,-178.80,-113.02,-170,-7758,-3293,-1,-1,-1
74.82,-178.80,-113.02,-166,-7755,-3290,-1,-1,0
74.84,-178.80,-113.03,-168,-7758,-3291,-1,0,0
74.82,-178.80,-113.03,-173,-7751,-3294,-1,0,-1
74.82,-178.80,-113.03,-174,-7755,-3288,-1,0,0
74.82,-178.80,-113.05,-179,-7758,-3304,-1,0,0
74.80,-178.80,-113.04,-176,-7762,-3295,0,0,0
74.80,-178.80,-113.04,-172,-7760,-3297,0,0,0
74.80,-178.80,-113.04,-179,-7756,-3295,0,0,0
74.80,-178.80,-113.03,-180,-7757,-3300,-1,0,-1
74.80,-178.80,-113.03,-182,-7756,-3292,-1,0,-1
74.80,-178.81,-113.04,-179,-7751,-3288,-1,0,-1
74.81,-178.81,-113.04,-178,-7745,-3293,-1,0,-1
74.80,-178.81,-113.06,-179,-7749,-3309,0,0,-1
74.79,-178.81,-113.05,-167,-7748,-3300,-1,0,0
74.79,-178.81,-113.05,-173,-7747,-3303,-1,0,0
74.80,-178.81,-113.06,-181,-7754,-3304,0,0,-1
74.79,-178.82,-113.05,-178,-7750,-3301,0,0,0
74.79,-178.82,-113.05,-179,-7754,-3309,0,0,-1
74.77,-178.81,-113.06,-175,-7751,-3315,0,0,0
74.79,-178.82,-113.05,-172,-7748,-3301,0,0,-1
74.78,-178.82,-113.05,-169,-7752,-3294,0,0,-1
74.78,-178.82,-113.05,-168,-7746,-3290,-1,0,0
74.78,-178.82,-113.05,-171,-7751,-3288,-1,0,-1
74.78,-178.82,-113.05,-165,-7755,-3305,0,0,-1
74.76,-178.82,-113.06,-170,-7749,-3308,-1,0,-1
74.76,-178.83,-113.06,-181,-7753,-3309,-1,0,-1
74.76,-178.83,-113.06,-185,-7752,-3300,0,0,-1
74.76,-178.83,-113.06,-181,-7751,-3300,-1,0,-1
74.76,-178.83,-113.07,-177,-7752,-3302,-1,0,-1
74.76,-178.83,-113.07,-178,-7754,-3305,0,0,0
74.76,-178.83,-113.07,-174,-7747,-3297,0,-1,0
74.75,-178.83,-113.06,-168,-7745,-3297,0,-1,0
74.76,-178.83,-113.05,-161,-7739,-3290,0,-1,0
74.75,-178.83,-113.06,-165,-7738,-3287,-1,-1,-1
74.75,-178.83,-113.06,-165,-7743,-3295,-1,0,0
74.75,-178.83,-113.06,-169,-7750,-3304,0,0,0
74.76,-178.83,-113.05,-177,-7750,-3308,0,-1,-1
74.75,-178.83,-113.05,-173,-7749,-3301,0,-1,0
74.74,-178.82,-113.04,-173,-7752,-3301,0,-1,0
74.76,-178.83,-113.04,-175,-7751,-3286,0,0,0
74.76,-178.83,-113.04,-182,-7754,-3282,-1,0,-1
74.74,-178.82,-113.04,-178,-7760,-3292,-1,-1,-1
74.76,-178.83,-113.04,-175,-7756,-3288,0,-1,0
74.76,-178.83,-113.04,-173,-7755,-3289,-1,0,-1
74.76,-178.83,-113.04,-171,-7749,-3291,0,-1,-1
74.76,-178.83,-113.04,-173,-7754,-3295,0,-1,0
74.76,-178.82,-113.03,-175,-7757,-3295,0,-1,0
74.76,-178.82,-113.03,-178,-7748,-3296,0,-1,0
74.77,-178.82,-113.04,-180,-7744,-3299,-1,0,0
74.77,-178.82,-113.04,-176,-7745,-3297,-1,0,-1
74.77,-178.82,-113.04,-177,-7746,-3302,0,-1,0
74.77,-178.82,-113.04,-181,-7747,-3291,0,-1,0
74.76,-178.82,-113.03,-182,-7753,-3288,0,-1,0
74.75,-178.81,-113.02,-176,-7749,-3282,0,-1,-1
74.77,-178.81,-113.02,-175,-7753,-3282,-1,-1,0
74.75,-178.81,-113.02,-182,-7756,-3291,-1,0,-1
74.77,-178.81,-113.03,-181,-7756,-3298,-1,0,0
74.77,-178.81,-113.03,-177,-7746,-3292,-1,-1,0
74.77,-178.81,-113.03,-172,-7745,-3297,0,-1,-1
74.77,-178.81,-113.03,-168,-7750,-3299,0,-1,0
74.77,-178.81,-113.03,-174,-7745,-3304,0,-1,0
74.77,-178.81,-113.03,-176,-7740,-3299,0,0,0
74.77,-178.81,-113.03,-182,-7743,-3308,-1,0,-1
74.79,-178.81,-113.04,-183,-7755,-3310,-1,0,-1
74.79,-178.81,-113.04,-180,-7749,-3299,-1,-1,-1
74.79,-178.81,-113.04,-180,-7751,-3301,0,0,-1
74.79,-178.81,-113.04,-171,-7747,-3296,-1,-1,0
74.79,-178.81,-113.03,-181,-7751,-3296,0,0,0
74.78,-178.80,-113.03,-184,-7757,-3299,0,0,-1
74.78,-178.80,-113.03,-180,-7758,-3293,0,-1,0
74.78,-178.80,-113.03,-175,-7760,-3295,0,-1,0
74.79,-178.81,-113.03,-178,-7755,-3293,-1,-1,-1
74.79,-178.81,-113.03,-184,-7746,-3297,-1,-1,0
74.78,-178.80,-113.04,-181,-7743,-3302,-1,0,-1
74.78,-178.80,-113.04,-179,-7748,-3309,-1,0,-1
74.80,-178.80,-113.04,-174,-7754,-3306,0,-1,0
74.80,-178.80,-113.04,-175,-7751,-3300,0,-1,0
74.80,-178.80,-113.03,-176,-7749,-3305,0,-1,0
74.80,-178.80,-113.03,-175,-7747,-3302,-1,-1,-1
74.80,-178.80,-113.04,-180,-7749,-3305,-1,0,-1
74.82,-178.80,-113.04,-177,-7749,-3309,-1,-1,0
74.80,-178.80,-113.05,-173,-7757,-3306,-1,-1,0
74.80,-178.80,-113.05,-173,-7759,-3306,0,0,0
74.80,-178.80,-113.03,-180,-7755,-3291,0,0,0
74.80,-178.80,-113.03,-180,-7760,-3288,-1,0,-1
74.80,-178.80,-113.03,-179,-7762,-3304,-1,0,-1
74.80,-178.80,-113.03,-175,-7760,-3299,-1,0,-1
74.80,-178.80,-113.03,-172,-7761,-3292,-1,-1,0
74.80,-178.80,-113.03,-174,-7753,-3285,0,-1,0
74.80,-178.80,-113.03,-177,-7752,-3282,-1,-1,-1
74.80,-178.80,-113.03,-170,-7746,-3301,-1,-1,0
74.82,-178.80,-113.04,-174,-7751,-3310,-1,-1,0
74.81,-178.79,-113.04,-170,-7758,-3310,0,-1,0
74.81,-178.79,-113.04,-173,-7755,-3303,0,-1,0
74.82,-178.80,-113.04,-177,-7748,-3303,-1,-1,-1
74.82,-178.80,-113.04,-173,-7750,-3306,-1,-1,-1
74.83,-178.79,-113.04,-171,-7749,-3300,0,-1,0
74.83,-178.79,-113.04,-171,-7751,-3299,0,-1,0
74.83,-178.79,-113.04,-177,-7747,-3283,0,-1,0
74.83,-178.79,-113.04,-182,-7751,-3288,0,-1,0
74.81,-178.79,-113.03,-183,-7756,-3296,0,0,-1
74.81,-178.79,-113.03,-181,-7752,-3292,0,-1,0
74.81,-178.79,-113.03,-185,-7747,-3287,0,-1,0
74.81,-178.79,-113.03,-178,-7752,-3294,-1,-1,0
74.83,-178.78,-113.03,-181,-7750,-3293,-1,0,0
74.82,-178.78,-113.05,-180,-7752,-3301,-1,-1,-1
74.82,-178.78,-113.05,-177,-7747,-3298,0,-1,-1
74.83,-178.78,-113.03,-172,-7752,-3291,0,-1,0
74.83,-178.78,-113.03,-177,-7749,-3302,0,-1,0
74.82,-178.78,-113.03,-180,-7747,-3299,0,-1,0
74.84,-178.78,-113.02,-182,-7748,-3283,0,-1,0
74.84,-178.77,-113.02,-179,-7748,-3284,0,0,0
74.84,-178.77,-113.02,-181,-7756,-3295,0,-1,-1
74.83,-178.78,-113.02,-177,-7756,-3292,0,-1,0
74.84,-178.77,-113.02,-184,-7759,-3291,-1,-1,-1
74.84,-178.77,-113.02,-185,-7759,-3293,-1,-1,0
74.84,-178.77,-113.02,-186,-7757,-3296,0,-1,-1
74.84,-178.77,-113.02,-181,-7753,-3297,0,0,0
74.86,-178.77,-113.02,-180,-7748,-3301,0,-1,-1
74.86,-178.77,-113.02,-178,-7745,-3288,-1,-1,0
74.86,-178.77,-113.02,-179,-7751,-3292,0,-1,0
74.86,-178.77,-113.01,-181,-7747,-3288,-1,-1,0
74.86,-178.77,-113.01,-190,-7750,-3295,0,0,-1
74.86,-178.77,-113.02,-184,-7751,-3299,-1,0,-1
74.86,-178.77,-113.02,-185,-7751,-3300,0,0,-1
74.84,-178.78,-113.01,-178,-7750,-3294,0,0,0
74.84,-178.77,-113.01,-175,-7755,-3288,0,-1,0
74.84,-178.77,-113.01,-182,-7752,-3283,-1,-1,0
74.84,-178.77,-113.01,-178,-7747,-3284,-1,0,-1
74.84,-178.78,-113.02,-171,-7747,-3291,-1,0,-1
74.83,-178.78,-113.02,-174,-7756,-3298,-1,0,0
74.83,-178.78,-113.02,-179,-7763,-3310,0,-1,0
74.83,-178.78,-113.02,-184,-7758,-3304,0,-1,0
74.82,-178.78,-113.02,-183,-7749,-3298,0,-1,0
74.82,-178.78,-113.01,-177,-7744,-3288,0,0,0
74.82,-178.78,-113.01,-177,-7749,-3289,-1,0,-1
74.81,-178.78,-113.01,-181,-7751,-3293,-1,0,-1
74.81,-178.78,-113.02,-180,-7751,-3293,-1,0,-1
74.83,-178.78,-113.02,-185,-7754,-3298,-1,0,-1
74.83,-178.78,-113.02,-179,-7750,-3293,-1,0,-1
74.81,-178.79,-113.02,-177,-7755,-3285,0,-1,0
74.83,-178.79,-113.01,-178,-7749,-3274,0,-1,0
74.83,-178.79,-113.01,-177,-7743,-3279,-1,-1,0
74.83,-178.79,-113.01,-182,-7739,-3283,-1,0,0
74.83,-178.79,-113.02,-186,-7746,-3293,-1,0,-1
74.81,-178.79,-113.02,-173,-7750,-3297,-1,0,0
74.81,-178.79,-113.02,-177,-7752,-3307,0,0,0
74.81,-178.79,-113.02,-178,-7749,-3305,0,-1,0
74.81,-178.79,-113.02,-179,-7753,-3308,0,0,0
74.81,-178.79,-113.02,-181,-7753,-3295,0,-1,0
74.82,-178.78,-113.02,-179,-7758,-3291,-1,-1,0
74.83,-178.78,-113.02,-174,-7766,-3288,-1,-1,0
74.83,-178.78,-113.02,-179,-7761,-3282,-1,-1,-1
74.83,-178.78,-113.02,-180,-7751,-3280,-1,0,-1
74.81,-178.79,-113.03,-180,-7752,-3288,-1,0,-1
74.83,-178.79,-113.04,-175,-7748,-3302,0,0,-1
74.83,-178.78,-113.04,-178,-7749,-3309,0,-1,0
74.83,-178.78,-113.03,-184,-7743,-3306,0,-1,0
74.83,-178.78,-113.03,-188,-7748,-3309,0,0,0
74.83,-178.78,-113.03,-184,-7747,-3300,-1,0,-1
74.83,-178.78,-113.03,-183,-7754,-3303,-1,0,-1
74.83,-178.79,-113.04,-181,-7759,-3310,0,0,0
74.81,-178.79,-113.03,-181,-7745,-3296,0,0,0
74.83,-178.78,-113.03,-181,-7757,-3293,-1,0,-1
74.83,-178.79,-113.04,-182,-7758,-3298,-1,0,-1
74.83,-178.79,-113.04,-184,-7752,-3282,-1,0,-1
74.83,-178.79,-113.04,-183,-7751,-3290,-1,0,-1
74.83,-178.79,-113.04,-176,-7751,-3297,-1,-1,0
74.83,-178.79,-113.04,-171,-7750,-3298,0,0,0
74.81,-178.79,-113.05,-176,-7751,-3306,0,-1,0
74.81,-178.79,-113.05,-183,-7750,-3307,-1,-1,-1
74.81,-178.78,-113.04,-183,-7753,-3295,0,-1,0
74.83,-178.79,-113.04,-177,-7744,-3284,0,-1,0
74.83,-178.79,-113.04,-171,-7746,-3279,-1,-1,0
74.83,-178.79,-113.04,-172,-7752,-3285,-1,0,0
74.81,-178.79,-113.04,-171,-7759,-3296,-1,0,0
74.81,-178.79,-113.04,-177,-7764,-3306,0,-1,0
74.81,-178.78,-113.04,-179,-7764,-3311,0,-1,0
74.83,-178.79,-113.04,-178,-7759,-3310,0,-1,-1
74.83,-178.78,-113.03,-186,-7750,-3298,0,0,0
74.81,-178.79,-113.03,-183,-7755,-3287,0,0,0
74.81,-178.79,-113.03,-176,-7754,-3295,-1,0,-1
74.81,-178.79,-113.03,-178,-7752,-3289,-1,0,-1
74.81,-178.79,-113.03,-185,-7746,-3295,-1,0,0
74.81,-178.79,-113.03,-176,-7753,-3286,0,0,-1
74.81,-178.79,-113.03,-179,-7748,-3291,-1,0,-1
74.81,-178.79,-113.03,-168,-7744,-3282,-1,0,0
74.81,-178.79,-113.03,-173,-7739,-3285,0,0,0
74.80,-178.80,-113.03,-169,-7750,-3292,0,0,0
74.78,-178.80,-113.04,-181,-7753,-3300,-1,0,-1
74.80,-178.79,-113.04,-179,-7751,-3302,-1,0,-1
74.80,-178.80,-113.04,-182,-7750,-3311,0,0,-1
74.80,-178.80,-113.04,-181,-7750,-3307,0,0,0
74.80,-178.80,-113.04,-187,-7753,-3308,0,0,-1
74.78,-178.80,-113.04,-189,-7756,-3307,0,0,-1
74.78,-178.80,-113.04,-187,-7759,-3304,0,0,-1
74.78,-178.80,-113.04,-180,-7751,-3296,-1,0,-1
74.77,-178.80,-113.05,-179,-7756,-3296,-1,0,-1
74.77,-178.81,-113.05,-175,-7753,-3297,-1,0,-1
74.77,-178.81,-113.05,-179,-7752,-3287,-1,0,-1
74.77,-178.81,-113.05,-180,-7745,-3295,-1,0,-1
74.77,-178.81,-113.05,-180,-7751,-3287,-1,0,-1
74.75,-178.81,-113.05,-178,-7752,-3285,-1,0,-1
74.75,-178.81,-113.05,-179,-7747,-3297,-1,0,0
74.75,-178.81,-113.05,-177,-7748,-3297,-1,0,0
74.73,-178.81,-113.05,-181,-7749,-3291,0,0,-1
74.73,-178.81,-113.05,-175,-7749,-3289,0,0,0
74.73,-178.81,-113.05,-182,-7751,-3292,-1,0,0
74.73,-178.81,-113.05,-180,-7757,-3302,-1,0,-1
74.73,-178.81,-113.06,-177,-7749,-3304,-1,0,-1
74.74,-178.82,-113.06,-180,-7741,-3304,-1,0,-1
74.72,-178.82,-113.06,-180,-7745,-3302,-1,0,-1
74.72,-178.82,-113.07,-174,-7746,-3299,0,0,-1
74.72,-178.82,-113.07,-173,-7751,-3302,0,-1,-1
74.72,-178.82,-113.06,-166,-7747,-3293,0,-1,0
74.72,-178.81,-113.06,-174,-7746,-3294,-1,0,0
74.72,-178.81,-113.06,-171,-7743,-3301,-1,0,0
74.70,-178.82,-113.07,-172,-7756,-3305,-1,0,-1
74.72,-178.82,-113.08,-172,-7753,-3309,-1,0,-1
74.72,-178.82,-113.08,-169,-7754,-3320,0,0,-1
74.72,-178.82,-113.08,-171,-7752,-3308,0,0,0
74.72,-178.82,-113.08,-168,-7745,-3310,0,0,-1
74.71,-178.83,-113.08,-168,-7753,-3303,0,0,-1
74.71,-178.83,-113.08,-169,-7755,-3296,-1,0,0
74.71,-178.83,-113.08,-172,-7755,-3295,-1,0,-1
74.71,-178.83,-113.09,-172,-7744,-3299,-1,0,0
74.71,-178.83,-113.09,-174,-7745,-3304,-1,-1,-1
74.71,-178.83,-113.09,-169,-7748,-3303,-1,-1,-1
74.71,-178.83,-113.09,-169,-7737,-3301,-1,-1,0
74.73,-178.82,-113.10,-175,-7748,-3309,-1,-1,0
74.73,-178.82,-113.10,-181,-7756,-3307,0,-1,0
74.73,-178.82,-113.10,-179,-7752,-3303,-1,-1,0
74.73,-178.82,-113.10,-174,-7752,-3305,-1,0,0
74.72,-178.82,-113.10,-180,-7750,-3318,-1,-1,0
74.72,-178.82,-113.10,-179,-7746,-3316,-1,0,0
74.72,-178.82,-113.10,-180,-7744,-3309,-1,-1,0
74.72,-178.82,-113.10,-175,-7750,-3302,0,0,-1
74.72,-178.82,-113.10,-178,-7750,-3309,0,0,0
74.70,-178.82,-113.10,-171,-7747,-3299,-1,0,-1
74.70,-178.82,-113.10,-172,-7744,-3299,0,0,0
74.71,-178.83,-113.09,-172,-7741,-3294,0,0,-1
74.70,-178.82,-113.09,-165,-7742,-3294,0,0,0
74.69,-178.82,-113.09,-170,-7748,-3298,0,0,0
74.69,-178.83,-113.08,-165,-7748,-3305,0,0,0
74.67,-178.82,-113.08,-169,-7750,-3304,0,-1,0
74.67,-178.82,-113.08,-176,-7749,-3317,0,-1,0
74.68,-178.82,-113.07,-179,-7753,-3301,0,-1,0
74.68,-178.82,-113.07,-176,-7751,-3307,0,-1,0
74.67,-178.82,-113.07,-171,-7745,-3297,0,-1,-1
74.68,-178.82,-113.07,-168,-7744,-3299,-1,-1,-1
74.68,-178.82,-113.07,-173,-7748,-3303,0,0,-1
74.68,-178.82,-113.07,-170,-7748,-3296,-1,-1,0
74.69,-178.82,-113.08,-168,-7747,-3306,0,-1,-1
74.68,-178.82,-113.07,-179,-7746,-3294,-1,-1,0
74.69,-178.82,-113.08,-182,-7752,-3297,0,-1,-1
74.70,-178.81,-113.08,-180,-7751,-3303,-1,-1,-1
74.70,-178.81,-113.08,-180,-7748,-3300,-1,-1,0
74.70,-178.81,-113.08,-174,-7748,-3301,-1,-1,-1
74.70,-178.81,-113.08,-170,-7750,-3305,0,-1,0
74.70,-178.81,-113.08,-173,-7748,-3294,0,-1,0
74.70,-178.81,-113.08,-185,-7747,-3300,0,-1,0
74.70,-178.81,-113.08,-183,-7748,-3297,0,-1,-1
74.70,-178.81,-113.08,-180,-7742,-3305,-1,-1,0
74.71,-178.81,-113.08,-185,-7749,-3302,-1,0,0
74.71,-178.81,-113.08,-185,-7751,-3306,0,0,0
74.71,-178.80,-113.08,-185,-7748,-3305,0,-1,0
74.71,-178.80,-113.07,-184,-7746,-3307,0,-1,0
74.71,-178.80,-113.07,-178,-7750,-3309,-1,-1,-1
74.71,-178.80,-113.07,-175,-7752,-3307,0,0,-1
74.69,-178.80,-113.07,-179,-7750,-3299,0,0,-1
74.69,-178.80,-113.07,-181,-7753,-3300,0,-1,0
74.69,-178.80,-113.07,-176,-7752,-3299,-1,-1,0
74.71,-178.80,-113.07,-177,-7743,-3289,-1,-1,-1
74.71,-178.81,-113.08,-175,-7741,-3289,-1,0,0
74.71,-178.81,-113.08,-174,-7748,-3306,-1,-1,0
74.71,-178.81,-113.08,-168,-7745,-3309,-1,-1,0
74.73,-178.80,-113.08,-177,-7747,-3313,0,-1,0
74.71,-178.80,-113.08,-184,-7744,-3308,0,-1,-1
74.71,-178.80,-113.08,-176,-7748,-3300,-1,-1,-1
74.71,-178.80,-113.08,-172,-7749,-3298,-1,-1,0
74.71,-178.80,-113.08,-175,-7750,-3298,0,-1,0
74.71,-178.80,-113.08,-178,-7757,-3304,0,-1,0
74.71,-178.79,-113.07,-184,-7753,-3294,0,0,0
74.71,-178.79,-113.07,-181,-7743,-3296,0,0,-1
74.73,-178.80,-113.07,-182,-7747,-3280,-1,0,-1
74.73,-178.80,-113.07,-180,-7746,-3286,-1,0,-1
74.71,-178.79,-113.07,-181,-7742,-3297,-1,0,0
74.72,-178.79,-113.07,-179,-7745,-3291,-1,-1,0
74.72,-178.79,-113.07,-175,-7747,-3296,-1,0,0
74.72,-178.79,-113.07,-169,-7752,-3303,0,-1,0
74.72,-178.79,-113.07,-173,-7748,-3303,-1,-1,0
74.74,-178.79,-113.08,-174,-7748,-3305,0,-1,0
74.74,-178.79,-113.08,-173,-7749,-3306,0,-1,0
74.74,-178.79,-113.08,-170,-7749,-3301,-1,0,0
74.72,-178.79,-113.07,-171,-7752,-3303,0,-1,0
74.74,-178.78,-113.07,-176,-7749,-3288,-1,-1,0
74.74,-178.78,-113.07,-174,-7755,-3296,0,-1,0
74.74,-178.78,-113.07,-181,-7753,-3298,-1,-1,0
74.73,-178.78,-113.08,-176,-7754,-3304,-1,0,0
74.73,-178.78,-113.08,-171,-7750,-3300,0,0,-1
74.74,-178.78,-113.09,-163,-7751,-3304,-1,-1,-1
74.76,-178.79,-113.09,-170,-7751,-3304,0,0,-1
74.74,-178.79,-113.08,-175,-7746,-3310,0,-1,-1
74.74,-178.79,-113.08,-174,-7749,-3306,0,-1,-1
74.74,-178.79,-113.08,-178,-7750,-3317,0,-1,-1
74.74,-178.78,-113.06,-174,-7750,-3301,0,-1,-1
74.74,-178.79,-113.06,-171,-7748,-3289,0,-1,0
74.75,-178.78,-113.06,-184,-7751,-3288,0,-1,0
74.75,-178.78,-113.06,-181,-7752,-3291,0,0,-1
74.74,-178.79,-113.05,-177,-7756,-3297,0,0,-1
74.74,-178.79,-113.05,-170,-7755,-3301,0,0,-1
74.76,-178.79,-113.05,-170,-7753,-3305,0,0,0
74.74,-178.79,-113.05,-166,-7760,-3301,0,-1,0
74.74,-178.79,-113.05,-169,-7755,-3293,0,-1,0
74.74,-178.79,-113.04,-181,-7744,-3281,-1,-1,-1
74.74,-178.79,-113.04,-181,-7734,-3290,-1,-1,0
74.76,-178.79,-113.05,-174,-7742,-3300,-1,-1,-1
74.74,-178.79,-113.06,-173,-7748,-3310,-1,-1,0
74.74,-178.79,-113.05,-180,-7755,-3312,-1,-1,0
74.76,-178.79,-113.06,-180,-7756,-3319,0,-1,0
74.76,-178.78,-113.05,-177,-7759,-3313,0,0,0
74.76,-178.78,-113.05,-178,-7749,-3297,0,0,-1
74.74,-178.79,-113.04,-174,-7755,-3296,-1,-1,0
74.74,-178.79,-113.04,-176,-7753,-3296,-1,0,-1
74.74,-178.79,-113.04,-169,-7749,-3289,-1,-1,0
74.76,-178.78,-113.05,-175,-7754,-3289,-1,0,-1
74.76,-178.79,-113.05,-179,-7750,-3294,-1,0,-1
74.76,-178.79,-113.05,-173,-7754,-3303,0,0,-1
74.75,-178.80,-113.05,-169,-7753,-3307,0,0,0
74.74,-178.79,-113.05,-177,-7756,-3299,0,-1,0
74.72,-178.79,-113.04,-181,-7753,-3296,0,0,-1
74.74,-178.79,-113.03,-180,-7753,-3295,0,0,0
74.74,-178.79,-113.03,-183,-7751,-3289,0,-1,0
74.74,-178.79,-113.03,-176,-7758,-3293,0,0,0
74.72,-178.79,-113.02,-176,-7759,-3286,0,0,-1
74.72,-178.79,-113.02,-182,-7756,-3293,0,0,0
74.72,-178.79,-113.02,-182,-7759,-3305,0,0,-1
74.72,-178.79,-113.02,-188,-7759,-3293,0,0,-1
74.70,-178.79,-113.02,-184,-7758,-3277,0,0,-1
74.70,-178.79,-113.02,-189,-7759,-3278,-1,0,-1
74.70,-178.79,-113.02,-177,-7753,-3293,-1,0,-1
74.68,-178.79,-113.01,-190,-7747,-3294,0,0,0
74.68,-178.79,-112.99,-184,-7758,-3303,0,-1,-1
74.68,-178.79,-112.98,-175,-7753,-3285,0,-1,-1
74.68,-178.79,-112.98,-167,-7750,-3294,0,0,0
74.69,-178.80,-112.97,-175,-7737,-3290,0,-1,0
74.68,-178.79,-112.97,-179,-7749,-3293,0,-1,0
74.70,-178.79,-112.97,-186,-7757,-3289,-1,-1,-1
74.70,-178.79,-112.97,-184,-7758,-3284,-1,0,-1
74.70,-178.79,-112.97,-178,-7751,-3280,-1,0,-1
74.68,-178.79,-112.98,-176,-7761,-3285,-1,0,-1
74.69,-178.80,-112.99,-171,-7763,-3290,-1,0,-1
74.71,-178.80,-113.00,-169,-7756,-3291,-1,0,-1
74.69,-178.80,-113.00,-172,-7755,-3291,-1,0,-1
74.69,-178.80,-113.00,-169,-7758,-3298,-1,-1,0
74.71,-178.80,-113.01,-175,-7768,-3301,-1,-1,0
74.71,-178.80,-113.01,-180,-7767,-3294,-1,-1,0
74.73,-178.80,-113.02,-179,-7762,-3305,-1,0,-1
74.71,-178.80,-113.03,-179,-7758,-3312,-1,0,-1
74.73,-178.80,-113.03,-175,-7758,-3311,-1,-1,0
74.73,-178.80,-113.03,-177,-7756,-3298,0,-1,0
74.72,-178.80,-113.03,-174,-7745,-3283,-1,-1,0
74.72,-178.80,-113.03,-178,-7749,-3292,-1,0,0
74.73,-178.80,-113.03,-177,-7750,-3297,-1,0,-1
74.73,-178.80,-113.04,-174,-7752,-3303,-1,0,-1
74.73,-178.80,-113.04,-174,-7756,-3316,0,0,0
74.73,-178.80,-113.04,-180,-7756,-3311,0,0,0
74.73,-178.80,-113.04,-173,-7747,-3297,0,0,-1
74.71,-178.80,-113.03,-177,-7752,-3287,0,0,0
74.71,-178.80,-113.03,-178,-7754,-3291,-1,-1,0
74.71,-178.80,-113.03,-180,-7753,-3292,-1,0,0
74.71,-178.80,-113.04,-180,-7761,-3289,-1,0,-1
74.69,-178.80,-113.04,-173,-7755,-3294,-1,0,-1
74.70,-178.81,-113.05,-172,-7753,-3293,-1,0,-1
74.70,-178.81,-113.05,-172,-7753,-3291,-1,0,-1
74.72,-178.81,-113.05,-171,-7755,-3285,-1,-1,-1
74.72,-178.81,-113.05,-176,-7754,-3291,0,-1,0
74.70,-178.81,-113.05,-179,-7758,-3300,0,0,-1
74.70,-178.81,-113.05,-175,-7745,-3317,0,0,0
74.70,-178.82,-113.06,-175,-7743,-3306,0,0,0
74.70,-178.82,-113.06,-176,-7744,-3308,0,-1,0
74.70,-178.81,-113.05,-179,-7750,-3306,0,-1,0
74.70,-178.81,-113.05,-180,-7756,-3297,0,0,0
74.70,-178.81,-113.05,-182,-7758,-3302,0,0,-1
74.68,-178.81,-113.04,-175,-7759,-3302,-1,0,-1
74.68,-178.81,-113.04,-181,-7749,-3287,-1,0,-1
74.68,-178.82,-113.05,-176,-7750,-3281,-1,0,-1
74.66,-178.81,-113.05,-176,-7744,-3289,-1,0,0
74.68,-178.81,-113.06,-174,-7747,-3302,-1,0,-1
74.68,-178.82,-113.06,-169,-7748,-3297,0,-1,-1
74.68,-178.82,-113.06,-172,-7748,-3293,0,0,-1
74.67,-178.82,-113.06,-166,-7747,-3299,0,0,0
74.67,-178.82,-113.06,-170,-7748,-3302,-1,-1,-1
74.69,-178.82,-113.07,-170,-7749,-3308,0,0,0
74.67,-178.83,-113.06,-174,-7751,-3305,0,0,0
74.67,-178.82,-113.06,-179,-7752,-3282,-1,0,0
74.67,-178.82,-113.06,-182,-7750,-3279,-1,0,0
74.67,-178.82,-113.06,-176,-7746,-3287,-1,0,0
74.67,-178.82,-113.06,-182,-7748,-3295,-1,0,-1
74.67,-178.82,-113.06,-173,-7748,-3292,-1,0,0
74.65,-178.82,-113.07,-172,-7751,-3299,0,0,-1
74.65,-178.82,-113.07,-175,-7751,-3300,-1,0,0
74.65,-178.82,-113.07,-178,-7755,-3313,0,-1,-1
74.65,-178.82,-113.07,-171,-7751,-3301,0,-1,0
74.65,-178.82,-113.07,-166,-7744,-3293,0,0,0
74.64,-178.83,-113.06,-163,-7741,-3290,-1,0,0
74.65,-178.83,-113.07,-171,-7757,-3296,-1,0,-1
74.63,-178.83,-113.07,-171,-7756,-3301,-1,0,0
74.64,-178.83,-113.08,-170,-7755,-3310,-1,0,0
74.65,-178.83,-113.08,-172,-7750,-3322,0,-1,0
74.65,-178.83,-113.08,-178,-7757,-3314,0,0,-1
74.64,-178.83,-113.08,-176,-7753,-3303,0,0,-1
74.64,-178.83,-113.08,-173,-7752,-3297,-1,0,-1
74.64,-178.83,-113.08,-170,-7756,-3287,-1,0,-1
74.64,-178.84,-113.08,-168,-7751,-3292,-1,0,0
74.62,-178.83,-113.08,-171,-7750,-3291,-1,0,0
74.62,-178.83,-113.08,-169,-7749,-3294,-1,0,-1
74.62,-178.84,-113.09,-169,-7751,-3294,-1,0,-1
74.62,-178.84,-113.09,-171,-7749,-3303,-1,0,0
74.62,-178.83,-113.10,-177,-7747,-3309,-1,-1,0
74.64,-178.83,-113.10,-185,-7744,-3310,-1,-1,0
74.64,-178.83,-113.10,-178,-7748,-3302,-1,-1,-1
74.64,-178.83,-113.10,-169,-7749,-3298,-1,-1,0
74.64,-178.83,-113.10,-166,-7746,-3302,-1,-1,0
74.64,-178.83,-113.10,-172,-7743,-3299,-1,-1,0
74.64,-178.83,-113.10,-174,-7747,-3298,0,-1,0
74.65,-178.83,-113.11,-177,-7739,-3316,0,-1,-1
74.64,-178.83,-113.10,-168,-7742,-3301,0,0,-1
74.64,-178.83,-113.10,-170,-7749,-3305,0,0,0
74.64,-178.83,-113.10,-171,-7745,-3289,-1,0,0
74.64,-178.83,-113.10,-177,-7749,-3300,-1,-1,-1
74.65,-178.83,-113.11,-171,-7751,-3301,-1,-1,0
74.65,-178.83,-113.11,-170,-7749,-3300,0,-1,0
74.64,-178.83,-113.10,-170,-7749,-3296,-1,-1,0
74.65,-178.82,-113.10,-170,-7754,-3299,0,-1,0
74.65,-178.82,-113.10,-176,-7756,-3300,0,-1,0
74.65,-178.82,-113.10,-174,-7759,-3293,-1,-1,0
74.65,-178.82,-113.10,-179,-7756,-3294,-1,0,0
74.65,-178.82,-113.10,-179,-7756,-3311,0,0,0
74.67,-178.82,-113.11,-182,-7752,-3329,0,-1,-1
74.65,-178.82,-113.10,-181,-7748,-3308,0,0,-1
74.65,-178.82,-113.10,-177,-7755,-3320,0,-1,0
74.65,-178.82,-113.10,-173,-7754,-3316,0,0,-1
74.67,-178.82,-113.10,-177,-7749,-3305,0,-1,-1
74.67,-178.82,-113.10,-169,-7747,-3301,-1,0,-1
74.67,-178.82,-113.10,-171,-7748,-3302,-1,-1,0
74.65,-178.82,-113.10,-175,-7741,-3302,-1,0,0
74.65,-178.82,-113.10,-177,-7742,-3304,-1,-1,-1
74.65,-178.82,-113.10,-173,-7754,-3303,0,-1,0
74.67,-178.82,-113.10,-174,-7750,-3298,0,-1,0
74.66,-178.81,-113.09,-175,-7748,-3292,0,-1,0
74.66,-178.81,-113.09,-178,-7747,-3293,0,-1,0
74.66,-178.81,-113.09,-179,-7742,-3298,-1,0,0
74.65,-178.82,-113.10,-174,-7746,-3307,-1,-1,0
74.66,-178.81,-113.10,-179,-7756,-3325,-1,-1,0
74.68,-178.80,-113.10,-181,-7754,-3321,0,-1,0
74.66,-178.81,-113.10,-180,-7756,-3314,0,-1,0
74.66,-178.80,-113.09,-185,-7750,-3300,0,-1,0
74.66,-178.80,-113.09,-184,-7753,-3300,-1,-1,0
74.66,-178.80,-113.09,-178,-7758,-3298,0,-1,0
74.67,-178.79,-113.09,-181,-7751,-3294,-1,-1,0
74.67,-178.79,-113.09,-178,-7746,-3294,-1,-1,-1
74.67,-178.80,-113.10,-177,-7751,-3297,-1,-1,0
74.65,-178.79,-113.10,-180,-7738,-3295,-1,0,-1
74.66,-178.80,-113.10,-176,-7748,-3312,0,0,0
74.65,-178.79,-113.10,-178,-7751,-3308,0,0,-1
74.64,-178.80,-113.09,-177,-7748,-3313,0,0,0
74.60,-178.80,-113.07,-182,-7740,-3295,0,0,-1
74.59,-178.81,-113.06,-178,-7747,-3305,0,0,-1
74.55,-178.81,-113.04,-184,-7756,-3308,0,0,0
74.55,-178.81,-113.02,-182,-7761,-3308,0,0,0
74.51,-178.81,-113.01,-178,-7754,-3287,0,-1,-1
74.50,-178.81,-113.01,-168,-7756,-3292,0,-1,0
74.49,-178.81,-113.00,-179,-7738,-3262,0,-1,-1
74.51,-178.81,-113.01,-180,-7751,-3280,-1,-1,0
74.53,-178.81,-113.02,-170,-7748,-3284,-1,-1,-1
74.53,-178.82,-113.02,-171,-7759,-3280,-1,-1,0
74.53,-178.82,-113.02,-171,-7744,-3279,0,-1,-1
74.53,-178.81,-113.04,-164,-7752,-3297,-1,-1,0
74.53,-178.81,-113.04,-176,-7751,-3317,0,-1,-1
74.53,-178.81,-113.04,-159,-7744,-3299,-1,-1,0
74.53,-178.81,-113.04,-182,-7750,-3303,0,-1,-1
74.53,-178.81,-113.04,-172,-7743,-3291,-1,-1,0
74.55,-178.81,-113.04,-187,-7748,-3302,0,-1,0
74.55,-178.81,-113.02,-167,-7743,-3288,-1,-1,-1
74.57,-178.81,-113.03,-174,-7753,-3294,0,-1,0
74.58,-178.80,-113.03,-170,-7749,-3302,-1,-1,0
74.60,-178.80,-113.02,-180,-7751,-3288,-1,-1,0
74.61,-178.80,-113.03,-184,-7756,-3300,0,-1,0
74.63,-178.79,-113.04,-181,-7760,-3302,-1,-1,-1
74.63,-178.79,-113.03,-184,-7755,-3290,-1,-1,0
74.65,-178.79,-113.04,-180,-7749,-3294,-1,-1,0
74.66,-178.78,-113.04,-176,-7749,-3294,-1,-1,0
74.66,-178.78,-113.04,-168,-7744,-3292,0,0,0
74.64,-178.78,-113.05,-171,-7745,-3275,-1,-1,0
74.66,-178.78,-113.05,-174,-7748,-3293,-1,-1,0
74.66,-178.78,-113.06,-183,-7753,-3295,-1,0,-1
74.66,-178.78,-113.06,-182,-7759,-3302,-1,0,-1
74.66,-178.78,-113.06,-178,-7756,-3295,-1,0,-1
74.66,-178.78,-113.06,-178,-7752,-3304,0,-1,0
74.65,-178.79,-113.05,-173,-7751,-3303,0,-1,0
74.66,-178.79,-113.05,-174,-7744,-3290,0,-1,0
74.66,-178.79,-113.05,-186,-7747,-3288,0,-1,-1
74.66,-178.79,-113.05,-181,-7749,-3290,-1,-1,0
74.68,-178.78,-113.05,-183,-7750,-3304,-1,-1,0
74.68,-178.77,-113.06,-186,-7753,-3304,-1,-1,0
74.68,-178.77,-113.06,-188,-7755,-3315,0,-1,0
74.68,-178.78,-113.05,-186,-7748,-3308,0,-1,0
74.68,-178.77,-113.04,-188,-7743,-3313,0,-1,0
74.67,-178.77,-113.04,-188,-7750,-3294,-1,0,0
74.67,-178.77,-113.04,-189,-7755,-3296,0,-1,0
74.67,-178.77,-113.04,-187,-7757,-3290,-1,0,-1
74.69,-178.77,-113.05,-183,-7747,-3294,-1,-1,-1
74.69,-178.77,-113.05,-181,-7745,-3293,-1,0,-1
74.69,-178.78,-113.04,-176,-7751,-3278,0,-1,-1
74.69,-178.78,-113.04,-174,-7755,-3276,-1,0,0
74.69,-178.78,-113.04,-176,-7753,-3279,-1,-1,0
74.69,-178.78,-113.04,-179,-7754,-3290,-1,0,-1
74.69,-178.78,-113.04,-185,-7747,-3295,-1,0,-1
74.69,-178.78,-113.04,-183,-7744,-3298,-1,0,0
74.68,-178.77,-113.04,-186,-7744,-3300,0,-1,0
74.68,-178.77,-113.04,-188,-7750,-3302,0,-1,0
74.69,-178.77,-113.03,-190,-7752,-3290,0,-1,0
74.67,-178.77,-113.03,-179,-7755,-3291,0,-1,-1
74.69,-178.77,-113.02,-182,-7753,-3289,-1,0,-1
74.67,-178.77,-113.03,-181,-7752,-3287,-1,0,-1
74.68,-178.78,-113.04,-189,-7752,-3291,-1,0,-1
74.68,-178.78,-113.04,-184,-7749,-3294,-1,0,-1
74.68,-178.78,-113.04,-182,-7752,-3293,-1,0,0
74.68,-178.78,-113.04,-179,-7751,-3285,-1,0,-1
74.68,-178.78,-113.04,-181,-7747,-3284,0,0,0
74.68,-178.78,-113.04,-179,-7743,-3291,0,0,-1
74.68,-178.78,-113.04,-179,-7752,-3290,0,0,0
74.66,-178.78,-113.04,-185,-7753,-3285,-1,0,0
74.66,-178.78,-113.04,-177,-7752,-3295,0,0,0
74.66,-178.78,-113.04,-187,-7756,-3290,-1,0,0
74.66,-178.78,-113.04,-191,-7757,-3289,0,0,-1
74.66,-178.78,-113.04,-188,-7756,-3287,0,-1,-1
74.66,-178.78,-113.04,-179,-7756,-3293,-1,-1,0
74.66,-178.78,-113.04,-184,-7755,-3283,-1,0,0
74.66,-178.78,-113.04,-182,-7751,-3279,-1,0,0
74.66,-178.78,-113.04,-187,-7747,-3290,-1,0,0
74.66,-178.78,-113.04,-187,-7753,-3291,-1,0,-1
74.66,-178.78,-113.04,-184,-7754,-3298,-1,0,-1
74.66,-178.78,-113.04,-184,-7757,-3301,-1,0,-1
74.66,-178.78,-113.04,-179,-7761,-3292,0,0,0
74.65,-178.79,-113.04,-174,-7754,-3299,0,0,0
74.65,-178.79,-113.04,-181,-7753,-3292,0,-1,0
74.64,-178.78,-113.04,-181,-7750,-3280,0,-1,0
74.64,-178.78,-113.04,-179,-7749,-3293,0,0,-1
74.64,-178.78,-113.04,-183,-7760,-3296,-1,0,-1
74.64,-178.78,-113.04,-173,-7759,-3302,0,0,0
74.64,-178.78,-113.04,-174,-7751,-3300,0,-1,0
74.64,-178.78,-113.04,-183,-7753,-3301,0,0,0
74.64,-178.78,-113.03,-180,-7751,-3309,0,0,0
74.63,-178.78,-113.03,-178,-7748,-3308,0,0,-1
74.63,-178.79,-113.03,-177,-7751,-3299,-1,0,-1
74.63,-178.79,-113.03,-178,-7748,-3293,-1,-1,-1
74.63,-178.79,-113.03,-178,-7750,-3289,-1,-1,0
74.63,-178.79,-113.03,-175,-7750,-3288,-1,0,-1
74.63,-178.79,-113.03,-170,-7755,-3295,-1,0,-1
74.63,-178.79,-113.04,-170,-7757,-3297,-1,0,-1
74.65,-178.79,-113.04,-177,-7758,-3305,-1,-1,0
74.65,-178.79,-113.04,-180,-7758,-3300,0,0,-1
74.63,-178.80,-113.04,-174,-7753,-3297,0,0,0
74.63,-178.80,-113.04,-176,-7753,-3286,-1,0,0
74.63,-178.80,-113.04,-175,-7756,-3290,0,0,0
74.63,-178.80,-113.04,-180,-7754,-3292,-1,0,0
74.63,-178.79,-113.04,-179,-7760,-3295,0,-1,0
74.61,-178.79,-113.04,-182,-7758,-3293,-1,-1,0
74.63,-178.79,-113.04,-181,-7761,-3289,0,0,-1
74.63,-178.79,-113.04,-176,-7761,-3295,-1,-1,-1
74.63,-178.80,-113.04,-170,-7762,-3303,-1,0,-1
74.63,-178.80,-113.04,-170,-7755,-3292,-1,0,0
74.62,-178.80,-113.04,-164,-7746,-3281,0,0,0
74.60,-178.80,-113.04,-179,-7751,-3291,-1,0,-1
74.60,-178.80,-113.04,-179,-7747,-3294,-1,0,0
74.62,-178.80,-113.05,-179,-7755,-3301,-1,0,-1
74.62,-178.80,-113.05,-175,-7754,-3299,-1,0,0
74.60,-178.80,-113.05,-172,-7755,-3299,-1,0,0
74.60,-178.80,-113.04,-172,-7745,-3297,0,0,-1
74.60,-178.81,-113.05,-165,-7747,-3286,0,0,-1
74.59,-178.81,-113.04,-172,-7750,-3279,-1,0,0
74.58,-178.80,-113.05,-176,-7746,-3282,-1,0,-1
74.59,-178.81,-113.05,-173,-7746,-3284,-1,0,0
74.57,-178.81,-113.05,-171,-7751,-3288,-1,0,-1
74.57,-178.81,-113.05,-165,-7755,-3288,0,0,0
74.57,-178.81,-113.05,-176,-7755,-3295,-1,0,0
74.57,-178.81,-113.05,-175,-7760,-3296,-1,0,-1
74.57,-178.82,-113.05,-178,-7755,-3298,-1,0,-1
74.57,-178.81,-113.06,-175,-7750,-3296,-1,0,0
74.57,-178.82,-113.07,-173,-7752,-3310,-1,0,-1
74.58,-178.82,-113.07,-169,-7749,-3305,-1,0,-1
74.58,-178.82,-113.07,-169,-7745,-3305,0,-1,0
74.58,-178.82,-113.07,-167,-7744,-3297,-1,0,0
74.58,-178.82,-113.07,-170,-7743,-3299,-1,0,0
74.56,-178.82,-113.08,-163,-7741,-3306,-1,0,-1
74.56,-178.83,-113.08,-168,-7740,-3302,-1,0,0
74.55,-178.83,-113.09,-167,-7743,-3299,-1,0,-1
74.56,-178.82,-113.09,-166,-7757,-3306,-1,-1,0
74.54,-178.83,-113.10,-170,-7736,-3313,0,0,0
74.53,-178.84,-113.11,-188,-7742,-3304,-1,0,-1
74.50,-178.85,-113.12,-178,-7737,-3286,-1,0,-1
74.51,-178.86,-113.13,-152,-7732,-3285,-1,0,0
74.53,-178.86,-113.15,-156,-7761,-3321,-1,-1,0
74.52,-178.85,-113.15,-173,-7776,-3347,0,-1,0
74.52,-178.85,-113.14,-178,-7755,-3328,0,-1,-1
74.52,-178.84,-113.13,-169,-7743,-3294,0,-1,-1
74.54,-178.85,-113.12,-159,-7727,-3281,-1,-1,-1
74.52,-178.85,-113.13,-152,-7732,-3287,-1,0,0
74.54,-178.85,-113.15,-158,-7736,-3300,-1,-1,0
74.54,-178.84,-113.16,-163,-7745,-3316,-1,-1,0
74.56,-178.84,-113.17,-172,-7745,-3320,-1,0,-1
74.56,-178.84,-113.17,-172,-7743,-3332,0,0,-1
74.54,-178.85,-113.16,-163,-7746,-3327,0,-1,0
74.55,-178.84,-113.15,-173,-7740,-3315,0,-1,0
74.55,-178.83,-113.15,-184,-7739,-3298,0,-1,0
74.53,-178.84,-113.14,-184,-7743,-3289,-1,0,-1
74.54,-178.84,-113.14,-171,-7750,-3294,-1,0,-1
74.54,-178.85,-113.15,-173,-7747,-3293,-1,0,-1
74.54,-178.85,-113.15,-175,-7744,-3301,-1,0,-1
74.55,-178.84,-113.15,-164,-7738,-3307,0,-1,0
74.54,-178.85,-113.15,-166,-7734,-3302,-1,0,0
74.54,-178.85,-113.15,-172,-7732,-3305,-1,0,-1
74.55,-178.84,-113.15,-171,-7741,-3312,-1,0,0
74.55,-178.84,-113.15,-163,-7748,-3309,-1,-1,0
74.55,-178.84,-113.15,-171,-7754,-3308,0,-1,0
74.54,-178.84,-113.15,-172,-7755,-3311,0,-1,0
74.55,-178.83,-113.15,-177,-7748,-3312,0,-1,-1
74.55,-178.83,-113.15,-176,-7739,-3308,-1,0,-1
74.54,-178.84,-113.15,-172,-7745,-3309,-1,0,0
74.55,-178.84,-113.15,-169,-7745,-3316,-1,-1,0
74.55,-178.84,-113.15,-174,-7753,-3322,0,0,-1
74.55,-178.84,-113.15,-171,-7749,-3311,0,0,-1
74.55,-178.84,-113.15,-178,-7747,-3306,-1,-1,-1
74.55,-178.84,-113.15,-178,-7745,-3311,0,0,0
74.55,-178.83,-113.15,-175,-7744,-3302,0,-1,0
74.55,-178.83,-113.15,-168,-7744,-3313,-1,0,0
74.53,-178.84,-113.15,-165,-7745,-3317,-1,-1,0
74.53,-178.83,-113.15,-173,-7749,-3314,-1,-1,0
74.53,-178.83,-113.15,-175,-7757,-3319,-1,-1,0
74.53,-178.83,-113.15,-175,-7753,-3315,0,-1,-1
74.54,-178.84,-113.16,-172,-7754,-3316,0,-1,-1
74.55,-178.84,-113.15,-171,-7746,-3307,0,-1,-1
74.55,-178.84,-113.15,-172,-7746,-3299,0,-1,0
74.55,-178.83,-113.14,-182,-7749,-3295,0,-1,0
74.55,-178.83,-113.14,-175,-7743,-3305,-1,-1,-1
74.55,-178.83,-113.14,-172,-7742,-3310,-1,-1,0
74.57,-178.83,-113.15,-167,-7741,-3319,-1,-1,0
74.55,-178.83,-113.16,-168,-7743,-3323,0,-1,0
74.55,-178.83,-113.16,-170,-7746,-3329,0,-1,0
74.56,-178.83,-113.15,-174,-7742,-3319,0,-1,0
74.56,-178.82,-113.14,-181,-7742,-3313,0,-1,0
74.56,-178.82,-113.14,-177,-7744,-3309,-1,-1,-1
74.56,-178.82,-113.14,-171,-7744,-3308,-1,0,-1
74.56,-178.83,-113.15,-173,-7746,-3300,-1,-1,0
74.56,-178.83,-113.15,-177,-7746,-3301,-1,-1,0
74.56,-178.83,-113.15,-172,-7746,-3304,-1,-1,-1
74.56,-178.83,-113.15,-176,-7748,-3309,-1,-1,0
74.58,-178.83,-113.15,-172,-7745,-3312,-1,-1,0
74.58,-178.82,-113.15,-172,-7747,-3319,0,-1,0
74.58,-178.82,-113.15,-172,-7749,-3304,0,-1,0
74.57,-178.81,-113.14,-175,-7750,-3300,-1,-1,0
74.57,-178.81,-113.14,-173,-7739,-3307,-1,-1,0
74.57,-178.81,-113.14,-171,-7743,-3311,0,-1,0
74.59,-178.81,-113.15,-170,-7744,-3315,0,-1,0
74.57,-178.81,-113.14,-174,-7739,-3304,0,-1,0
74.57,-178.81,-113.14,-175,-7746,-3301,0,0,0
74.57,-178.81,-113.14,-172,-7746,-3303,0,0,-1
74.57,-178.81,-113.14,-179,-7745,-3293,0,0,-1
74.57,-178.81,-113.14,-181,-7739,-3299,-1,-1,-1
74.57,-178.81,-113.14,-181,-7740,-3303,-1,0,-1
74.57,-178.81,-113.14,-180,-7744,-3294,-1,-1,0
74.57,-178.81,-113.14,-187,-7742,-3288,-1,0,0
74.57,-178.81,-113.14,-183,-7743,-3299,-1,-1,0
74.57,-178.81,-113.14,-186,-7744,-3297,0,-1,0
74.58,-178.80,-113.14,-179,-7747,-3312,0,-1,0
74.57,-178.80,-113.13,-179,-7743,-3307,0,-1,0
74.57,-178.80,-113.13,-180,-7741,-3298,0,-1,0
74.57,-178.80,-113.13,-183,-7745,-3313,0,-1,0
74.57,-178.80,-113.13,-179,-7752,-3313,-1,-1,0
74.57,-178.80,-113.13,-187,-7754,-3302,-1,-1,0
74.57,-178.80,-113.13,-186,-7746,-3295,-1,-1,-1
74.58,-178.79,-113.13,-181,-7746,-3304,-1,-1,0
74.58,-178.79,-113.13,-180,-7740,-3304,0,-1,-1
74.58,-178.79,-113.13,-176,-7742,-3304,0,-1,0
74.58,-178.79,-113.13,-173,-7745,-3304,0,-1,0
74.58,-178.80,-113.13,-179,-7750,-3298,0,-1,0
74.60,-178.79,-113.13,-172,-7749,-3302,0,-1,0
74.60,-178.79,-113.13,-175,-7744,-3315,-1,-1,0
74.58,-178.79,-113.13,-179,-7747,-3312,-1,-1,0
74.58,-178.79,-113.13,-180,-7750,-3310,0,-1,0
74.58,-178.79,-113.13,-184,-7754,-3327,0,-1,-1
74.58,-178.79,-113.13,-186,-7751,-3325,0,-1,0
74.59,-178.78,-113.12,-180,-7746,-3305,0,-1,0
74.59,-178.78,-113.12,-183,-7747,-3295,0,-1,0
74.59,-178.78,-113.12,-180,-7741,-3291,-1,-1,-1
74.59,-178.78,-113.12,-179,-7739,-3298,-1,0,-1
74.59,-178.78,-113.12,-173,-7737,-3298,-1,0,-1
74.59,-178.78,-113.12,-178,-7748,-3313,-1,-1,0
74.59,-178.78,-113.12,-179,-7748,-3320,0,-1,0
74.59,-178.78,-113.12,-181,-7752,-3317,0,-1,0
74.59,-178.77,-113.11,-189,-7752,-3310,0,-1,0
74.57,-178.77,-113.10,-190,-7748,-3304,0,0,-1
74.57,-178.77,-113.10,-186,-7751,-3299,-1,0,-1
74.57,-178.78,-113.10,-180,-7754,-3303,-1,-1,0
74.59,-178.77,-113.11,-181,-7756,-3320,-1,-1,-1
74.59,-178.78,-113.11,-177,-7751,-3311,-1,0,-1
74.59,-178.78,-113.12,-172,-7744,-3306,-1,-1,-1
74.59,-178.78,-113.12,-174,-7746,-3314,0,-1,-1
74.59,-178.78,-113.12,-180,-7744,-3307,0,-1,-1
74.61,-178.78,-113.11,-177,-7750,-3300,0,-1,0
74.61,-178.78,-113.11,-176,-7751,-3296,-1,-1,-1
74.59,-178.79,-113.11,-173,-7749,-3294,-1,0,0
74.59,-178.79,-113.11,-180,-7749,-3294,0,-1,-1
74.57,-178.78,-113.11,-188,-7751,-3297,-1,0,0
74.57,-178.78,-113.10,-186,-7751,-3305,0,0,0
74.57,-178.78,-113.10,-188,-7754,-3303,0,0,0
74.57,-178.78,-113.10,-186,-7756,-3293,0,0,-1
74.57,-178.78,-113.10,-183,-7752,-3293,-1,0,-1
74.57,-178.78,-113.10,-181,-7751,-3292,-1,0,-1
74.57,-178.78,-113.10,-176,-7747,-3286,-1,0,0
74.56,-178.79,-113.10,-179,-7747,-3294,-1,-1,-1
74.58,-178.79,-113.11,-174,-7750,-3303,-1,0,-1
74.58,-178.79,-113.11,-175,-7750,-3315,0,0,0
74.58,-178.79,-113.11,-178,-7749,-3311,0,-1,0
74.57,-178.78,-113.11,-184,-7748,-3305,-1,0,0
