Yaw,Pitch,Roll,AX,AY,AZ,GX,GY,GZ
82.45,177.71,-133.69,337,-6094,-5821,0,0,-1
82.45,177.71,-133.69,337,-6091,-5815,-1,0,0
82.45,177.72,-133.69,334,-6092,-5821,0,0,-1
82.45,177.71,-133.69,332,-6090,-5811,0,0,-1
82.45,177.71,-133.69,333,-6090,-5816,-1,-1,0
82.45,177.71,-133.68,335,-6084,-5821,0,-1,0
82.45,177.71,-133.69,334,-6087,-5819,-1,-1,0
82.45,177.71,-133.69,339,-6086,-5817,-1,0,-1
82.45,177.71,-133.69,339,-6088,-5822,-1,0,-1
82.45,177.71,-133.69,334,-6091,-5821,-1,0,0
82.45,177.71,-133.69,332,-6091,-5828,0,-1,0
82.45,177.71,-133.69,336,-6089,-5830,0,-1,0
82.45,177.71,-133.69,338,-6086,-5819,-1,-1,0
82.45,177.71,-133.69,333,-6090,-5819,-1,0,-1
82.45,177.71,-133.69,341,-6094,-5806,0,0,0
82.45,177.71,-133.69,343,-6092,-5819,0,0,0
82.45,177.71,-133.68,343,-6085,-5813,0,-1,0
82.45,177.71,-133.68,339,-6079,-5817,0,0,0
82.45,177.71,-133.69,338,-6078,-5819,-1,-1,0
82.45,177.71,-133.69,334,-6075,-5824,-1,-1,0
82.45,177.71,-133.69,339,-6083,-5819,-1,-1,0
82.45,177.71,-133.69,340,-6083,-5820,0,-1,0
82.45,177.71,-133.69,336,-6082,-5825,-1,0,0
82.45,177.71,-133.69,333,-6082,-5820,0,0,0
82.45,177.71,-133.69,340,-6085,-5825,0,0,-1
82.45,177.71,-133.69,340,-6087,-5816,0,0,-1
82.45,177.71,-133.69,337,-6085,-5816,-1,0,-1
82.45,177.71,-133.69,330,-6080,-5817,-1,-1,0
82.46,177.72,-133.69,328,-6086,-5819,0,0,0
82.45,177.71,-133.69,330,-6091,-5821,-1,0,-1
82.45,177.71,-133.69,332,-6095,-5805,-1,0,-1
82.45,177.71,-133.69,339,-6089,-5809,-1,0,0
82.45,177.71,-133.69,338,-6086,-5808,-1,-1,0
82.45,177.71,-133.69,337,-6087,-5812,-1,-1,0
82.45,177.72,-133.70,338,-6085,-5820,-1,0,0
82.45,177.72,-133.70,331,-6083,-5812,-1,0,0
82.45,177.72,-133.70,331,-6086,-5811,-1,0,-1
82.45,177.72,-133.70,331,-6081,-5809,-1,-1,0
82.45,177.72,-133.70,332,-6084,-5813,-1,-1,0
82.45,177.72,-133.70,334,-6082,-5815,-1,-1,-1
82.45,177.72,-133.70,333,-6082,-5810,-1,-1,0
82.45,177.72,-133.70,328,-6077,-5813,0,-1,0
82.45,177.72,-133.70,329,-6078,-5811,0,-1,0
82.45,177.72,-133.70,335,-6086,-5809,0,-1,-1
82.45,177.72,-133.70,334,-6084,-5806,-1,-1,0
82.45,177.72,-133.70,334,-6078,-5814,-1,0,0
82.45,177.73,-133.70,334,-6083,-5824,-1,-1,0
82.45,177.72,-133.71,335,-6080,-5822,-1,0,0
82.45,177.73,-133.70,335,-6083,-5829,0,-1,0
82.45,177.72,-133.71,336,-6081,-5822,0,0,0
82.45,177.72,-133.71,342,-6082,-5815,0,-1,0
82.45,177.72,-133.71,342,-6083,-5812,0,-1,0
82.45,177.72,-133.71,345,-6084,-5823,-1,-1,-1
82.45,177.72,-133.71,340,-6085,-5817,-1,0,0
82.45,177.72,-133.71,337,-6078,-5821,-1,0,0
82.46,177.72,-133.71,338,-6074,-5827,-1,-1,0
82.46,177.72,-133.71,338,-6078,-5828,0,-1,0
82.46,177.72,-133.71,332,-6082,-5826,-1,-1,0
82.46,177.72,-133.71,339,-6080,-5825,0,-1,0
82.46,177.72,-133.71,334,-6083,-5820,0,0,0
82.46,177.72,-133.71,336,-6087,-5817,-1,-1,0
82.45,177.73,-133.71,331,-6080,-5820,-1,-1,0
82.45,177.73,-133.71,332,-6084,-5823,0,-1,-1
82.45,177.73,-133.71,338,-6080,-5823,0,-1,0
82.46,177.72,-133.71,338,-6077,-5821,-1,-1,0
82.45,177.73,-133.71,338,-6082,-5814,-1,-1,0
82.46,177.72,-133.71,336,-6080,-5821,0,-1,-1
82.46,177.72,-133.71,331,-6083,-5824,0,-1,-1
82.46,177.72,-133.71,336,-6079,-5823,0,-1,0
82.46,177.72,-133.71,336,-6075,-5821,0,-1,0
82.46,177.72,-133.71,338,-6077,-5824,-1,-1,-1
82.46,177.72,-133.71,332,-6082,-5830,0,0,0
82.46,177.72,-133.71,335,-6078,-5829,0,-1,-1
82.45,177.72,-133.71,334,-6081,-5820,0,-1,0
82.45,177.72,-133.71,337,-6075,-5822,0,0,-1
82.45,177.72,-133.71,330,-6083,-5826,0,0,-1
82.45,177.72,-133.71,333,-6078,-5820,-1,0,-1
82.45,177.72,-133.71,335,-6082,-5821,0,0,0
82.46,177.72,-133.72,341,-6083,-5830,0,-1,-1
82.46,177.72,-133.72,337,-6079,-5823,0,0,0
82.46,177.72,-133.72,337,-6077,-5824,0,0,0
82.46,177.72,-133.72,333,-6080,-5834,0,-1,-1
82.46,177.72,-133.72,335,-6086,-5835,0,0,0
82.46,177.71,-133.71,335,-6086,-5828,0,0,-1
82.46,177.71,-133.71,333,-6085,-5831,0,0,0
82.46,177.71,-133.71,331,-6078,-5815,0,0,0
82.46,177.71,-133.71,331,-6073,-5810,0,-1,0
82.46,177.72,-133.71,334,-6076,-5819,0,0,-1
82.44,177.72,-133.71,338,-6081,-5824,0,0,0
82.44,177.72,-133.71,333,-6081,-5829,-1,0,0
82.44,177.72,-133.71,329,-6078,-5829,0,0,-1
82.46,177.72,-133.71,328,-6077,-5813,0,0,-1
82.44,177.72,-133.71,326,-6079,-5819,0,0,0
82.44,177.72,-133.71,333,-6078,-5812,-1,-1,0
82.44,177.72,-133.71,334,-6078,-5813,-1,0,0
82.44,177.72,-133.71,333,-6087,-5812,-1,0,0
82.44,177.72,-133.71,337,-6088,-5827,-1,0,0
82.44,177.72,-133.71,337,-6082,-5824,0,0,-1
82.44,177.72,-133.71,324,-6075,-5824,0,0,0
82.44,177.72,-133.71,325,-6076,-5821,0,0,0
82.44,177.72,-133.71,333,-6080,-5833,-1,0,0
82.44,177.72,-133.71,330,-6077,-5829,-1,0,0
82.45,177.72,-133.72,331,-6078,-5830,-1,0,0
82.44,177.72,-133.72,331,-6076,-5832,0,0,0
82.44,177.72,-133.72,327,-6088,-5835,0,0,-1
82.44,177.73,-133.72,330,-6084,-5829,0,0,0
82.44,177.72,-133.72,330,-6079,-5830,-1,-1,-1
82.44,177.72,-133.72,334,-6081,-5826,0,-1,0
82.44,177.72,-133.72,340,-6080,-5822,-1,0,0
82.44,177.73,-133.72,333,-6088,-5828,0,0,0
82.44,177.73,-133.72,333,-6090,-5820,0,-1,0
82.44,177.73,-133.72,333,-6083,-5827,0,0,-1
82.44,177.72,-133.71,328,-6089,-5817,0,0,-1
82.44,177.72,-133.71,326,-6094,-5817,-1,-1,0
82.44,177.73,-133.71,328,-6093,-5821,0,-1,0
82.43,177.73,-133.71,335,-6090,-5822,-1,-1,0
82.44,177.73,-133.71,332,-6089,-5826,-1,-1,0
82.44,177.73,-133.71,328,-6085,-5823,-1,0,-1
82.44,177.72,-133.71,332,-6082,-5817,0,0,0
82.43,177.73,-133.71,330,-6080,-5817,-1,0,0
82.43,177.73,-133.71,332,-6082,-5829,0,0,-1
82.43,177.73,-133.71,333,-6081,-5821,0,-1,0
82.44,177.72,-133.71,335,-6085,-5830,0,0,0
82.44,177.72,-133.71,339,-6087,-5830,-1,-1,-1
82.44,177.72,-133.71,328,-6086,-5824,0,0,0
82.43,177.73,-133.71,327,-6083,-5820,0,0,-1
82.44,177.72,-133.71,335,-6078,-5811,0,0,0
82.44,177.72,-133.71,332,-6084,-5821,0,0,0
82.44,177.72,-133.71,337,-6082,-5828,-1,0,0
82.44,177.72,-133.71,341,-6084,-5812,-1,-1,0
82.44,177.72,-133.71,335,-6083,-5812,0,0,0
82.44,177.72,-133.71,339,-6085,-5815,-1,0,-1
82.44,177.72,-133.71,337,-6084,-5812,-1,0,0
82.44,177.72,-133.71,339,-6088,-5812,0,0,0
82.44,177.72,-133.71,344,-6092,-5817,0,0,0
82.44,177.72,-133.71,349,-6087,-5821,-1,0,0
82.44,177.72,-133.71,339,-6085,-5819,-1,0,0
82.44,177.71,-133.71,336,-6086,-5819,0,0,0
82.44,177.71,-133.71,339,-6085,-5820,0,0,0
82.42,177.71,-133.71,337,-6084,-5822,-1,0,0
82.42,177.71,-133.71,331,-6076,-5820,0,0,0
82.42,177.71,-133.71,335,-6077,-5823,-1,0,-1
82.42,177.71,-133.71,335,-6085,-5822,-1,-1,0
82.42,177.71,-133.71,344,-6086,-5817,0,-1,0
82.42,177.71,-133.71,347,-6087,-5815,-1,0,0
82.42,177.71,-133.71,336,-6081,-5822,0,0,-1
82.42,177.71,-133.71,338,-6074,-5818,0,-1,0
82.42,177.71,-133.71,336,-6077,-5808,-1,-1,0
82.42,177.71,-133.70,333,-6080,-5817,0,0,-1
82.42,177.71,-133.70,338,-6080,-5828,-1,-1,0
82.42,177.71,-133.71,337,-6080,-5829,0,-1,-1
82.42,177.71,-133.72,341,-6089,-5829,-1,0,-1
82.42,177.71,-133.72,333,-6087,-5830,-1,0,-1
82.42,177.71,-133.72,329,-6082,-5824,-1,0,0
82.42,177.71,-133.71,324,-6081,-5831,0,-1,0
82.41,177.71,-133.72,333,-6081,-5834,-1,0,0
82.42,177.71,-133.71,338,-6085,-5826,-1,-1,-1
82.41,177.71,-133.72,335,-6082,-5831,-1,0,0
82.41,177.71,-133.72,335,-6082,-5822,0,0,0
82.41,177.71,-133.72,330,-6079,-5813,-1,-1,0
82.41,177.71,-133.72,338,-6080,-5818,-1,0,0
82.41,177.71,-133.72,331,-6077,-5822,0,0,0
82.41,177.71,-133.72,322,-6083,-5823,0,-1,0
82.42,177.72,-133.72,324,-6083,-5827,-1,0,0
82.42,177.72,-133.72,324,-6082,-5819,-1,-1,0
82.42,177.71,-133.72,333,-6091,-5825,-1,0,-1
82.42,177.71,-133.72,333,-6082,-5829,-1,-1,0
82.40,177.71,-133.73,335,-6087,-5829,-1,-1,-1
82.42,177.71,-133.72,337,-6082,-5821,0,-1,0
82.42,177.72,-133.72,328,-6082,-5811,0,-1,0
82.40,177.72,-133.72,328,-6083,-5805,-1,0,0
82.42,177.72,-133.72,334,-6081,-5805,0,0,0
82.42,177.72,-133.72,340,-6076,-5810,-1,0,0
82.42,177.72,-133.72,336,-6072,-5810,0,0,0
82.40,177.72,-133.72,333,-6080,-5815,-1,-1,0
82.42,177.72,-133.72,332,-6085,-5811,0,-1,0
82.42,177.72,-133.72,340,-6083,-5813,0,-1,0
82.41,177.71,-133.72,352,-6085,-5814,-1,-1,-1
82.42,177.72,-133.72,336,-6081,-5828,-1,-1,0
82.42,177.72,-133.72,335,-6082,-5822,0,-1,0
82.40,177.72,-133.72,326,-6075,-5813,-1,-1,-1
82.40,177.72,-133.72,330,-6077,-5823,0,0,-1
82.42,177.72,-133.72,336,-6076,-5817,0,0,-1
82.40,177.72,-133.72,334,-6074,-5820,-1,-1,0
82.42,177.72,-133.72,337,-6083,-5822,-1,-1,0
82.42,177.72,-133.72,334,-6085,-5812,0,0,0
82.42,177.72,-133.72,334,-6089,-5825,-1,-1,-1
82.42,177.72,-133.72,334,-6084,-5818,-1,0,-1
82.40,177.72,-133.72,327,-6088,-5823,0,0,0
82.40,177.72,-133.72,324,-6088,-5821,0,0,0
82.40,177.72,-133.72,332,-6087,-5818,-1,-1,0
82.40,177.72,-133.72,333,-6086,-5812,-1,0,0
82.42,177.72,-133.72,337,-6082,-5808,0,0,0
82.40,177.72,-133.72,341,-6084,-5814,-1,-1,0
82.40,177.72,-133.72,332,-6079,-5822,-1,-1,0
82.40,177.72,-133.72,336,-6079,-5823,-1,0,0
82.40,177.72,-133.72,337,-6080,-5824,-1,-1,0
82.41,177.72,-133.73,338,-6077,-5823,-1,-1,0
82.41,177.72,-133.73,336,-6081,-5824,-1,-1,0
82.41,177.72,-133.73,332,-6086,-5828,-1,-1,0
82.41,177.72,-133.73,342,-6085,-5825,0,-1,0
82.41,177.72,-133.73,338,-6086,-5817,-1,-1,0
82.41,177.72,-133.73,338,-6083,-5812,-1,0,0
82.41,177.72,-133.73,343,-6081,-5808,-1,-1,0
82.41,177.72,-133.73,335,-6086,-5817,-1,-1,0
82.41,177.72,-133.73,334,-6085,-5813,0,-1,0
82.41,177.72,-133.73,335,-6082,-5822,-1,0,-1
82.41,177.72,-133.73,334,-6082,-5825,0,0,0
82.42,177.73,-133.73,331,-6082,-5834,-1,-1,0
82.40,177.73,-133.73,326,-6079,-5837,-1,0,0
82.40,177.73,-133.73,327,-6083,-5826,-1,0,0
82.40,177.73,-133.73,323,-6084,-5822,0,-1,0
82.40,177.73,-133.73,330,-6083,-5817,0,0,-1
82.40,177.73,-133.73,336,-6085,-5821,0,-1,0
82.42,177.73,-133.73,335,-6080,-5824,0,-1,0
82.40,177.74,-133.73,329,-6078,-5823,0,0,0
82.40,177.74,-133.73,328,-6076,-5813,0,0,-1
82.40,177.74,-133.73,329,-6078,-5820,0,0,-1
82.40,177.74,-133.73,326,-6082,-5825,0,-1,0
82.40,177.74,-133.73,325,-6082,-5827,0,0,0
82.40,177.74,-133.73,330,-6082,-5830,0,0,-1
82.41,177.73,-133.72,330,-6084,-5822,-1,0,0
82.41,177.73,-133.72,334,-6079,-5825,0,0,-1
82.41,177.73,-133.72,333,-6083,-5822,-1,-1,0
82.41,177.73,-133.72,334,-6085,-5825,0,0,0
82.41,177.73,-133.72,340,-6081,-5810,0,0,0
82.40,177.72,-133.72,337,-6078,-5817,0,-1,-1
82.40,177.72,-133.72,335,-6081,-5816,-1,0,0
82.41,177.73,-133.72,334,-6076,-5828,0,0,0
82.41,177.73,-133.72,-258,-258,-258,1,-258,-258
82.41,177.73,-133.72,335,-6076,-5818,-1,0,0
82.40,177.72,-133.72,338,-6082,-5814,0,0,-1
82.40,177.72,-133.72,337,-6084,-5816,0,0,0
82.40,177.72,-133.71,337,-6085,-5808,-1,-1,-1
82.40,177.72,-133.71,336,-6088,-5814,0,0,0
82.40,177.72,-133.71,333,-6081,-5816,0,0,-1
82.40,177.72,-133.71,334,-6074,-5815,-1,-1,0
82.40,177.72,-133.71,333,-6081,-5812,0,0,0
82.40,177.72,-133.71,335,-6082,-5825,0,0,-1
82.40,177.72,-133.72,343,-6079,-5822,0,-1,0
82.40,177.72,-133.72,340,-6081,-5818,-1,0,0
82.40,177.72,-133.72,336,-6081,-5823,-1,0,0
82.40,177.72,-133.71,336,-6086,-5814,-1,0,0
82.40,177.72,-133.71,336,-6084,-5816,-1,-1,0
82.40,177.72,-133.71,342,-6085,-5815,0,-1,0
82.40,177.72,-133.71,334,-6087,-5813,-1,0,0
82.40,177.72,-133.71,329,-6086,-5823,-1,0,0
82.40,177.72,-133.71,324,-6083,-5814,-1,-1,-1
82.40,177.72,-133.71,327,-6080,-5818,-1,-1,-1
82.40,177.72,-133.71,334,-6074,-5817,0,-1,0
82.40,177.72,-133.71,337,-6082,-5816,0,-1,0
82.40,177.72,-133.71,346,-6089,-5808,0,-1,0
82.40,177.72,-133.71,338,-6092,-5809,-1,-1,0
82.40,177.72,-133.71,334,-6086,-5818,-1,0,-1
82.40,177.72,-133.71,341,-6082,-5824,-1,-1,-1
82.40,177.72,-133.71,339,-6079,-5826,0,-1,0
82.40,177.72,-133.71,335,-6083,-5817,0,-1,-1
82.40,177.72,-133.72,336,-6083,-5817,0,0,0
82.40,177.72,-133.71,334,-6084,-5811,0,0,0
82.40,177.72,-133.71,336,-6083,-5808,-1,0,-1
82.40,177.72,-133.71,335,-6075,-5815,-1,0,0
82.40,177.72,-133.71,335,-6078,-5819,-1,0,0
82.40,177.72,-133.71,331,-6081,-5815,-1,-1,-1
82.40,177.72,-133.71,334,-6073,-5814,0,-1,0
82.40,177.72,-133.72,333,-6075,-5817,-1,-1,-1
82.40,177.72,-133.71,334,-6080,-5812,0,-1,0
82.40,177.72,-133.71,334,-6076,-5819,0,-1,0
82.40,177.72,-133.71,329,-6079,-5822,-1,0,0
82.40,177.72,-133.71,328,-6087,-5813,-1,0,-1
82.38,177.72,-133.72,328,-6085,-5822,-1,-1,0
82.38,177.72,-133.72,333,-6084,-5828,-1,0,-1
82.38,177.72,-133.72,336,-6082,-5825,0,0,0
82.38,177.72,-133.72,337,-6083,-5824,0,-1,0
82.38,177.72,-133.72,337,-6083,-5821,-1,-1,0
82.38,177.72,-133.72,337,-6087,-5828,-1,0,0
82.38,177.72,-133.72,334,-6085,-5832,0,0,0
82.39,177.72,-133.72,333,-6079,-5827,0,0,-1
82.39,177.72,-133.73,341,-6077,-5825,0,-1,0
82.39,177.72,-133.72,334,-6078,-5815,0,-1,0
82.39,177.72,-133.72,331,-6074,-5813,-1,-1,0
82.39,177.72,-133.72,333,-6079,-5818,-1,0,-1
82.39,177.72,-133.72,330,-6075,-5831,-1,-1,0
82.40,177.73,-133.73,330,-6078,-5829,-1,0,-1
82.40,177.73,-133.73,330,-6077,-5833,-1,0,0
82.40,177.72,-133.73,342,-6080,-5826,-1,0,0
82.40,177.72,-133.73,339,-6084,-5838,0,0,-1
82.40,177.72,-133.73,334,-6082,-5834,0,-1,0
82.40,177.72,-133.73,333,-6080,-5824,-1,0,0
82.40,177.72,-133.73,336,-6083,-5825,-1,0,-1
82.40,177.72,-133.73,340,-6079,-5823,-1,0,0
82.39,177.72,-133.74,333,-6077,-5824,-1,0,0
82.39,177.72,-133.74,333,-6077,-5820,0,0,0
82.38,177.72,-133.73,336,-6073,-5815,-1,-1,0
82.38,177.72,-133.73,333,-6083,-5814,0,-1,-1
82.38,177.72,-133.73,335,-6076,-5808,-1,0,0
82.38,177.72,-133.73,334,-6077,-5806,-1,0,-1
82.38,177.72,-133.73,334,-6083,-5803,-1,0,-1
82.39,177.72,-133.74,333,-6080,-5809,-1,0,-1
82.38,177.72,-133.73,334,-6080,-5819,0,0,0
82.38,177.72,-133.74,336,-6081,-5821,-1,-1,0
82.39,177.72,-133.74,340,-6081,-5822,-1,0,0
82.39,177.72,-133.74,345,-6080,-5826,0,-1,-1
82.39,177.72,-133.74,345,-6083,-5826,-1,-1,0
82.39,177.72,-133.74,337,-6084,-5826,-1,0,-1
82.39,177.72,-133.74,331,-6078,-5813,0,0,-1
82.39,177.72,-133.74,332,-6083,-5815,-1,0,0
82.39,177.72,-133.74,330,-6089,-5822,-1,0,0
82.39,177.72,-133.74,329,-6090,-5820,-1,0,-1
82.39,177.72,-133.74,333,-6091,-5824,0,0,0
82.38,177.71,-133.73,334,-6086,-5824,-1,0,-1
82.39,177.72,-133.74,335,-6084,-5831,0,0,-1
82.38,177.71,-133.73,340,-6084,-5827,-1,-1,-1
82.38,177.71,-133.73,334,-6084,-5814,-1,-1,0
82.39,177.72,-133.74,335,-6085,-5811,-1,-1,0
82.38,177.71,-133.73,334,-6091,-5818,0,0,0
82.39,177.72,-133.74,331,-6090,-5822,-1,0,-1
82.38,177.71,-133.73,334,-6090,-5822,-1,-1,-1
82.39,177.72,-133.74,334,-6081,-5824,0,-1,-1
82.39,177.71,-133.73,338,-6080,-5813,0,-1,0
82.38,177.71,-133.73,339,-6072,-5819,-1,0,0
82.39,177.72,-133.74,334,-6080,-5825,-1,0,0
82.38,177.71,-133.73,343,-6076,-5815,0,-1,-1
82.38,177.71,-133.74,340,-6081,-5820,-1,0,0
82.38,177.71,-133.74,344,-6085,-5823,-1,0,-1
82.38,177.71,-133.74,340,-6078,-5825,0,-1,0
82.39,177.71,-133.74,342,-6081,-5826,0,-1,0
82.39,177.71,-133.74,344,-6084,-5817,-1,0,0
82.39,177.71,-133.74,338,-6087,-5817,-1,-1,0
82.38,177.71,-133.74,333,-6083,-5818,0,-1,0
82.39,177.71,-133.74,338,-6077,-5815,-1,-1,0
82.40,177.71,-133.74,335,-6087,-5825,0,0,-1
82.40,177.71,-133.74,334,-6087,-5820,-1,-1,0
82.40,177.72,-133.74,328,-6084,-5827,0,0,0
82.39,177.72,-133.74,329,-6083,-5821,-1,-1,0
82.39,177.72,-133.74,334,-6084,-5815,-1,-1,0
82.39,177.72,-133.74,336,-6082,-5813,-1,-1,-1
82.40,177.72,-133.74,333,-6083,-5814,0,-1,0
82.40,177.72,-133.74,336,-6079,-5821,-1,0,-1
82.39,177.72,-133.74,337,-6076,-5827,-1,-1,0
82.39,177.72,-133.75,339,-6074,-5830,-1,-1,0
82.39,177.72,-133.75,333,-6074,-5830,0,-1,0
82.39,177.72,-133.74,333,-6083,-5822,0,0,0
82.39,177.72,-133.74,340,-6084,-5816,-1,-1,-1
82.39,177.72,-133.74,334,-6079,-5817,0,0,0
82.39,177.72,-133.74,331,-6082,-5819,0,0,0
82.39,177.72,-133.74,330,-6077,-5825,-1,-1,0
82.39,177.72,-133.74,331,-6081,-5816,-1,-1,0
82.39,177.72,-133.74,328,-6077,-5813,-1,-1,0
82.39,177.72,-133.74,337,-6080,-5818,-1,0,0
82.39,177.72,-133.74,336,-6077,-5816,-1,0,0
82.39,177.72,-133.74,338,-6074,-5827,-1,-1,0
82.40,177.73,-133.75,337,-6072,-5817,-1,-1,0
82.40,177.73,-133.75,328,-6068,-5823,-1,-1,0
82.40,177.73,-133.75,326,-6075,-5824,-1,-1,-1
82.40,177.73,-133.75,325,-6075,-5814,-1,-1,0
82.40,177.73,-133.75,329,-6079,-5824,0,-1,-1
82.40,177.73,-133.75,333,-6074,-5819,0,-1,0
82.40,177.73,-133.75,332,-6072,-5812,-1,-1,0
82.41,177.73,-133.75,339,-6077,-5814,-1,-1,-1
82.41,177.72,-133.76,338,-6078,-5820,-1,-1,0
82.41,177.72,-133.76,340,-6075,-5824,-1,-1,0
82.41,177.72,-133.76,339,-6076,-5828,0,0,-1
82.41,177.72,-133.76,332,-6083,-5830,0,0,0
82.41,177.72,-133.76,332,-6083,-5822,-1,-1,0
82.41,177.73,-133.75,331,-6082,-5824,-1,-1,0
82.40,177.73,-133.77,333,-6085,-5822,-1,-1,0
82.40,177.74,-133.76,330,-6088,-5821,-1,-1,0
82.40,177.73,-133.77,337,-6083,-5822,-1,-1,0
82.40,177.73,-133.77,339,-6085,-5830,0,0,-1
82.41,177.73,-133.76,339,-6086,-5820,0,-1,-1
82.41,177.72,-133.76,333,-6083,-5818,-1,-1,-1
82.41,177.73,-133.76,334,-6077,-5808,-1,-1,0
82.41,177.72,-133.76,338,-6081,-5806,-1,0,0
82.41,177.73,-133.75,332,-6083,-5813,0,-1,0
82.41,177.73,-133.75,329,-6084,-5817,0,0,0
82.41,177.73,-133.75,327,-6088,-5829,0,0,-1
82.41,177.73,-133.75,329,-6082,-5831,0,0,-1
82.41,177.73,-133.75,329,-6080,-5826,-1,-1,0
82.41,177.73,-133.75,333,-6083,-5820,0,-1,0
82.41,177.73,-133.75,332,-6081,-5817,0,-1,0
82.41,177.73,-133.75,327,-6088,-5821,-1,0,0
82.40,177.72,-133.75,332,-6088,-5821,-1,0,-1
82.41,177.73,-133.75,335,-6079,-5828,-1,0,0
82.40,177.72,-133.75,338,-6079,-5819,0,-1,-1
82.40,177.72,-133.75,344,-6084,-5814,-1,0,0
82.40,177.72,-133.75,334,-6081,-5823,-1,0,-1
82.40,177.72,-133.75,326,-6080,-5820,0,0,-1
82.40,177.72,-133.75,332,-6085,-5819,-1,-1,0
82.40,177.72,-133.75,330,-6083,-5818,0,0,0
82.40,177.73,-133.74,328,-6085,-5813,0,0,0
82.39,177.73,-133.74,328,-6078,-5806,0,0,-1
82.40,177.73,-133.74,330,-6083,-5804,-1,0,0
82.39,177.73,-133.74,332,-6079,-5812,0,-1,0
82.40,177.73,-133.74,332,-6081,-5810,-1,-1,0
82.40,177.73,-133.74,338,-6088,-5809,-1,0,0
82.40,177.73,-133.74,335,-6082,-5820,0,-1,-1
82.40,177.73,-133.74,334,-6077,-5821,0,0,0
82.40,177.73,-133.74,334,-6071,-5823,0,-1,-1
82.40,177.73,-133.74,336,-6070,-5825,-1,-1,0
82.39,177.73,-133.74,338,-6078,-5833,0,-1,0
82.40,177.73,-133.74,338,-6084,-5821,0,0,0
82.39,177.73,-133.74,339,-6078,-5819,-1,0,0
82.39,177.72,-133.74,340,-6082,-5823,-1,0,0
82.39,177.72,-133.74,334,-6078,-5818,-1,0,-1
82.39,177.72,-133.74,334,-6071,-5807,0,0,-1
82.39,177.72,-133.74,332,-6068,-5807,-1,-1,-1
82.39,177.72,-133.74,330,-6073,-5811,0,0,-1
82.39,177.72,-133.74,332,-6080,-5813,0,-1,0
82.39,177.73,-133.74,332,-6086,-5821,0,-1,-1
82.39,177.72,-133.74,333,-6085,-5822,-1,-1,0
82.39,177.72,-133.74,334,-6085,-5819,0,0,-1
82.40,177.72,-133.74,330,-6087,-5816,-1,0,0
82.40,177.73,-133.74,324,-6090,-5808,-1,0,-1
82.40,177.73,-133.74,336,-6089,-5817,0,0,0
82.40,177.72,-133.73,333,-6082,-5818,0,-1,0
82.40,177.73,-133.74,329,-6084,-5818,-1,0,-1
82.40,177.72,-133.73,337,-6088,-5823,0,0,-1
82.40,177.72,-133.73,339,-6090,-5821,-1,0,0
82.40,177.72,-133.73,336,-6089,-5818,0,0,-1
82.40,177.72,-133.73,337,-6084,-5816,0,-1,-1
82.40,177.72,-133.73,335,-6081,-5819,-1,0,0
82.40,177.72,-133.73,333,-6082,-5813,-1,-1,0
82.40,177.72,-133.73,342,-6080,-5812,0,0,0
82.40,177.72,-133.73,331,-6079,-5816,-1,-1,-1
82.40,177.72,-133.73,332,-6078,-5826,-1,-1,0
82.40,177.72,-133.73,335,-6078,-5820,-1,-1,0
82.40,177.72,-133.74,338,-6081,-5833,-1,0,0
82.40,177.72,-133.73,339,-6078,-5816,-1,-1,0
82.40,177.72,-133.74,336,-6079,-5820,-1,-1,0
82.40,177.72,-133.73,336,-6081,-5817,-1,-1,0
82.40,177.71,-133.74,339,-6080,-5823,-1,0,-1
82.40,177.71,-133.74,337,-6078,-5821,0,0,-1
82.40,177.71,-133.74,330,-6079,-5817,-1,-1,0
82.40,177.72,-133.74,327,-6075,-5821,-1,-1,0
82.40,177.72,-133.74,328,-6070,-5824,0,0,0
82.40,177.72,-133.74,331,-6066,-5817,0,-1,0
82.40,177.72,-133.74,329,-6069,-5827,-1,-1,0
82.40,177.72,-133.75,337,-6072,-5835,-1,0,-1
82.40,177.72,-133.74,339,-6079,-5829,0,0,-1
82.40,177.72,-133.74,334,-6076,-5821,0,0,0
82.40,177.72,-133.74,337,-6082,-5815,0,0,0
82.40,177.72,-133.74,335,-6088,-5821,0,-1,-1
82.40,177.71,-133.74,343,-6087,-5827,-1,0,-1
82.40,177.72,-133.74,345,-6087,-5822,-1,0,0
82.40,177.71,-133.74,341,-6089,-5825,0,0,-1
82.40,177.72,-133.74,334,-6089,-5827,-1,-1,-1
82.40,177.72,-133.74,334,-6086,-5830,0,0,-1
82.40,177.72,-133.74,334,-6088,-5825,-1,0,0
82.40,177.71,-133.74,329,-6085,-5816,0,0,0
82.40,177.72,-133.74,329,-6083,-5818,-1,-1,0
82.40,177.72,-133.74,333,-6076,-5817,-1,-1,0
82.40,177.72,-133.74,336,-6076,-5823,-1,0,-1
82.41,177.71,-133.75,338,-6079,-5827,-1,0,-1
82.41,177.71,-133.75,340,-6081,-5825,0,0,0
82.41,177.71,-133.75,342,-6078,-5822,0,0,0
82.40,177.72,-133.74,338,-6086,-5822,-1,-1,0
82.40,177.72,-133.74,337,-6080,-5827,-1,-1,-1
82.41,177.71,-133.75,342,-6080,-5828,-1,0,0
82.41,177.71,-133.75,340,-6079,-5822,0,-1,0
82.40,177.72,-133.74,329,-6078,-5820,0,0,0
82.40,177.72,-133.74,330,-6082,-5820,0,0,-1
82.40,177.72,-133.74,334,-6081,-5810,-1,-1,0
82.39,177.72,-133.74,327,-6078,-5816,-1,0,0
82.39,177.72,-133.74,332,-6077,-5817,-1,0,0
82.39,177.72,-133.74,335,-6081,-5816,0,0,0
82.39,177.72,-133.74,332,-6086,-5820,-1,-1,0
82.40,177.72,-133.74,326,-6082,-5814,0,0,0
82.39,177.72,-133.74,331,-6081,-5819,-1,0,0
82.39,177.72,-133.74,330,-6083,-5822,0,-1,0
82.39,177.72,-133.74,336,-6078,-5827,0,-1,-1
82.40,177.72,-133.75,335,-6074,-5829,-1,0,0
82.40,177.72,-133.75,338,-6075,-5826,-1,-1,0
82.40,177.72,-133.75,330,-6072,-5833,-1,-1,0
82.40,177.72,-133.75,335,-6072,-5828,0,0,-1
82.40,177.72,-133.75,339,-6072,-5818,-1,0,0
82.40,177.72,-133.75,337,-6078,-5816,-1,-1,0
82.40,177.72,-133.75,333,-6076,-5820,-1,-1,0
82.40,177.72,-133.75,336,-6076,-5810,-1,-1,-1
82.40,177.72,-133.75,332,-6078,-5816,0,0,0
82.40,177.72,-133.75,330,-6085,-5819,-1,-1,0
82.40,177.72,-133.75,324,-6083,-5815,0,-1,0
82.40,177.73,-133.75,330,-6084,-5824,0,0,0
82.40,177.73,-133.75,328,-6081,-5824,-1,-1,0
82.40,177.73,-133.75,326,-6075,-5826,-1,-1,0
82.40,177.73,-133.75,333,-6073,-5823,-1,0,0
82.40,177.73,-133.75,335,-6086,-5818,0,0,0
82.40,177.73,-133.75,330,-6086,-5826,0,0,-1
82.40,177.73,-133.75,329,-6079,-5820,0,0,-1
82.40,177.73,-133.75,330,-6075,-5824,-1,-1,0
82.40,177.73,-133.75,330,-6078,-5820,0,-1,0
82.40,177.73,-133.75,336,-6077,-5819,-1,-1,0
82.41,177.73,-133.75,336,-6072,-5827,-1,-1,0
82.40,177.73,-133.75,329,-6081,-5820,0,-1,0
82.40,177.73,-133.75,332,-6080,-5818,0,-1,-1
82.41,177.73,-133.75,336,-6077,-5820,0,0,0
82.40,177.73,-133.75,329,-6081,-5821,-1,-1,0
82.41,177.73,-133.75,335,-6079,-5817,-1,0,-1
82.41,177.73,-133.75,335,-6075,-5830,-1,-1,0
82.41,177.73,-133.75,330,-6080,-5826,-1,0,0
82.41,177.73,-133.75,327,-6074,-5833,0,0,-1
82.41,177.73,-133.75,325,-6073,-5828,0,0,-1
82.41,177.73,-133.75,328,-6073,-5831,0,0,0
82.41,177.73,-133.75,333,-6074,-5829,-1,-1,0
82.41,177.73,-133.76,333,-6076,-5823,-1,-1,-1
82.41,177.73,-133.76,326,-6074,-5827,-1,0,-1
82.41,177.73,-133.76,331,-6080,-5825,-1,-1,0
82.41,177.73,-133.76,335,-6087,-5826,0,-1,0
82.41,177.73,-133.75,334,-6077,-5822,0,0,0
82.41,177.73,-133.76,334,-6077,-5825,-1,-1,0
82.41,177.73,-133.76,327,-6084,-5825,-1,0,0
82.41,177.73,-133.76,326,-6082,-5827,0,0,-1
82.41,177.73,-133.76,332,-6078,-5818,-1,-1,0
82.40,177.74,-133.76,330,-6075,-5817,0,0,0
82.41,177.73,-133.76,334,-6075,-5817,0,-1,0
82.41,177.73,-133.76,332,-6077,-5813,-1,-1,0
82.40,177.74,-133.76,334,-6077,-5820,-1,-1,0
82.41,177.74,-133.77,327,-6075,-5829,-1,-1,0
82.41,177.74,-133.77,328,-6081,-5832,0,-1,0
82.41,177.74,-133.77,331,-6079,-5821,-1,0,0
82.41,177.74,-133.77,329,-6079,-5821,-1,0,0
82.41,177.74,-133.77,328,-6072,-5827,-1,-1,0
82.41,177.74,-133.77,334,-6072,-5825,-1,-1,0
82.41,177.74,-133.77,339,-6073,-5822,0,0,0
82.41,177.74,-133.77,338,-6071,-5822,-1,0,0
82.41,177.73,-133.77,336,-6075,-5827,-1,0,0
82.41,177.73,-133.77,342,-6081,-5823,-1,0,0
82.41,177.73,-133.77,340,-6077,-5814,-1,-1,0
82.41,177.73,-133.77,333,-6080,-5817,-1,0,0
82.41,177.73,-133.77,334,-6076,-5817,-1,-1,-1
82.41,177.73,-133.77,335,-6084,-5817,-1,0,0
82.41,177.73,-133.77,338,-6084,-5823,-1,-1,0
82.41,177.73,-133.77,333,-6078,-5828,-1,0,0
82.41,177.73,-133.77,327,-6077,-5824,-1,-1,0
82.41,177.74,-133.77,327,-6080,-5833,-1,0,0
82.41,177.74,-133.77,329,-6082,-5828,-1,0,0
82.41,177.74,-133.77,329,-6079,-5838,0,0,-1
82.41,177.74,-133.77,329,-6079,-5830,0,0,0
82.41,177.74,-133.77,329,-6075,-5822,-1,-1,0
82.41,177.74,-133.77,324,-6078,-5820,0,0,-1
82.41,177.74,-133.77,324,-6074,-5825,0,0,0
82.41,177.74,-133.77,324,-6072,-5819,0,-1,-1
82.41,177.74,-133.77,328,-6075,-5821,0,0,-1
82.41,177.73,-133.77,331,-6085,-5825,0,0,0
82.41,177.73,-133.77,330,-6079,-5820,0,0,-1
82.41,177.73,-133.77,326,-6079,-5817,-1,0,-1
82.41,177.73,-133.77,329,-6074,-5819,0,-1,0
82.41,177.73,-133.77,328,-6082,-5822,0,-1,0
82.41,177.74,-133.77,330,-6084,-5818,-1,0,-1
82.40,177.74,-133.76,334,-6085,-5820,-1,0,0
82.40,177.74,-133.76,334,-6086,-5822,0,0,0
82.40,177.74,-133.76,330,-6086,-5817,0,0,0
82.40,177.74,-133.76,324,-6087,-5824,-1,0,0
82.40,177.74,-133.76,322,-6087,-5830,0,0,0
82.40,177.74,-133.76,326,-6084,-5828,-1,-1,-1
82.40,177.74,-133.76,326,-6083,-5842,0,0,0
82.40,177.74,-133.76,328,-6084,-5831,0,-1,0
82.40,177.74,-133.76,334,-6079,-5835,0,0,0
82.40,177.74,-133.76,336,-6084,-5831,0,-1,0
82.41,177.74,-133.77,340,-6079,-5833,-1,-1,0
82.41,177.74,-133.77,337,-6082,-5824,-1,0,-1
82.41,177.74,-133.77,329,-6080,-5815,-1,0,-1
82.40,177.74,-133.76,335,-6079,-5822,0,0,-1
82.41,177.73,-133.77,337,-6083,-5835,-1,-1,0
82.41,177.73,-133.77,330,-6078,-5842,0,-1,0
82.41,177.73,-133.77,330,-6078,-5842,0,-1,0
82.41,177.74,-133.77,332,-6084,-5830,-1,0,0
82.41,177.74,-133.77,330,-6078,-5827,0,-1,0
82.40,177.74,-133.76,330,-6084,-5825,0,-1,0
82.40,177.75,-133.76,330,-6081,-5823,0,-1,0
82.40,177.74,-133.75,327,-6083,-5820,0,-1,-1
82.40,177.74,-133.75,328,-6086,-5822,0,0,0
82.40,177.74,-133.75,331,-6084,-5817,0,-1,0
82.40,177.74,-133.75,328,-6079,-5822,0,0,0
82.40,177.75,-133.75,328,-6086,-5819,0,-1,0
82.40,177.75,-133.75,335,-6082,-5822,0,0,-1
82.40,177.75,-133.75,332,-6072,-5830,0,-1,-1
82.40,177.75,-133.75,333,-6077,-5822,0,-1,0
82.40,177.75,-133.75,330,-6076,-5816,0,-1,0
82.40,177.75,-133.75,329,-6080,-5823,0,0,-1
82.40,177.75,-133.75,326,-6080,-5828,0,0,0
82.41,177.75,-133.74,333,-6083,-5825,0,-1,0
82.40,177.75,-133.74,333,-6080,-5829,0,0,0
82.40,177.75,-133.74,328,-6077,-5819,0,-1,0
82.40,177.75,-133.74,330,-6083,-5820,0,-1,0
82.40,177.75,-133.73,335,-6075,-5817,0,-1,0
82.39,177.76,-133.72,328,-6072,-5828,0,-1,0
82.40,177.77,-133.69,325,-6059,-5803,1,-1,0
82.40,177.76,-133.65,309,-6072,-5814,1,0,-1
82.40,177.73,-133.61,315,-6071,-5798,1,0,-1
82.41,177.70,-133.57,312,-6081,-5787,1,0,-2
82.41,177.65,-133.54,332,-6100,-5773,0,0,-2
82.43,177.61,-133.52,343,-6103,-5786,0,0,-2
82.44,177.58,-133.51,346,-6098,-5777,0,0,-2
82.47,177.54,-133.52,326,-6108,-5761,-1,0,-2
82.51,177.49,-133.55,351,-6135,-5828,-1,0,-2
82.52,177.44,-133.57,360,-6122,-5814,-1,0,-2
82.55,177.40,-133.60,375,-6123,-5823,-1,0,-2
82.57,177.36,-133.61,389,-6092,-5798,-1,0,-2
82.60,177.34,-133.64,390,-6077,-5772,-2,0,-1
82.63,177.33,-133.68,393,-6065,-5769,-2,-1,-1
82.66,177.32,-133.73,396,-6076,-5789,-2,-1,-1
82.69,177.32,-133.77,393,-6095,-5826,-2,-1,-1
82.72,177.32,-133.81,395,-6085,-5830,-2,-1,-1
82.74,177.32,-133.84,389,-6093,-5841,-1,-1,-1
82.77,177.31,-133.87,396,-6082,-5845,-2,-1,-1
82.78,177.30,-133.90,388,-6069,-5857,-1,0,-1
82.80,177.29,-133.93,396,-6059,-5847,-2,0,-1
82.83,177.28,-133.96,390,-6053,-5838,-2,0,-1
82.86,177.25,-134.00,391,-6045,-5825,-2,-1,-2
82.91,177.23,-134.05,391,-6046,-5839,-2,0,-2
82.95,177.21,-134.10,410,-6043,-5818,-3,-1,-1
83.00,177.21,-134.16,414,-6049,-5850,-2,-1,-1
83.04,177.21,-134.21,413,-6049,-5857,-2,-1,-1
83.09,177.21,-134.25,406,-6038,-5853,-2,-1,-1
83.14,177.20,-134.30,401,-6025,-5852,-2,-1,-1
83.18,177.19,-134.35,402,-6019,-5848,-2,-1,-2
83.23,177.17,-134.40,421,-6019,-5874,-2,-1,-1
83.27,177.17,-134.44,418,-6016,-5900,-2,-1,-1
83.31,177.17,-134.46,428,-6008,-5903,-1,-1,-1
83.35,177.17,-134.49,429,-6002,-5899,-1,-1,-1
83.39,177.19,-134.51,431,-6013,-5907,-1,-1,-1
83.42,177.19,-134.53,422,-6007,-5909,-1,-1,-1
83.45,177.20,-134.54,414,-6007,-5904,-1,-1,-1
83.49,177.20,-134.56,403,-5996,-5917,-1,-1,-1
83.53,177.21,-134.59,415,-5992,-5916,-2,-2,-1
83.58,177.24,-134.61,418,-5981,-5897,-2,-2,-1
83.63,177.27,-134.63,405,-5978,-5900,-1,-2,-1
83.67,177.31,-134.66,390,-5976,-5899,-1,-2,0
83.74,177.34,-134.69,385,-5972,-5894,-2,-2,-1
83.80,177.37,-134.72,386,-5978,-5901,-2,-2,-1
83.86,177.40,-134.75,383,-5969,-5904,-2,-2,-1
83.92,177.42,-134.80,382,-5984,-5955,-2,-2,-1
83.97,177.45,-134.82,371,-5972,-5937,-1,-2,-1
84.03,177.46,-134.85,375,-5955,-5920,-1,-2,-1
84.10,177.50,-134.87,375,-5950,-5924,-2,-2,-1
84.15,177.53,-134.90,375,-5951,-5921,-2,-2,-1
84.19,177.55,-134.93,375,-5967,-5974,-1,-2,-1
84.23,177.57,-134.97,381,-5972,-5984,-1,-2,0
84.25,177.60,-134.97,382,-5968,-5971,-1,-2,0
84.28,177.65,-134.98,372,-5964,-5976,-1,-2,1
84.28,177.69,-134.98,355,-5958,-5959,0,-2,0
84.28,177.73,-134.99,339,-5942,-5951,-1,-2,0
84.29,177.77,-134.99,340,-5949,-5958,0,-2,0
84.30,177.80,-135.00,330,-5947,-5946,-1,-1,0
84.30,177.83,-135.00,326,-5954,-5942,-1,-1,0
84.32,177.85,-135.02,324,-5950,-5939,-1,-1,0
84.34,177.88,-135.05,318,-5948,-5933,-2,-1,0
84.35,177.91,-135.07,304,-5945,-5947,-1,-1,0
84.37,177.93,-135.09,297,-5940,-5951,-1,-2,0
84.40,177.96,-135.09,301,-5950,-5963,-1,-1,0
84.42,177.99,-135.10,286,-5949,-5945,0,-2,0
84.48,178.05,-135.12,274,-5955,-5960,-1,-3,0
84.57,178.11,-135.14,272,-5922,-5876,-3,-4,-1
84.69,178.19,-135.23,254,-5914,-5876,-4,-5,-1
84.82,178.26,-135.37,247,-5917,-5898,-7,-4,-1
84.96,178.33,-135.55,259,-5911,-5993,-7,-3,-1
85.09,178.41,-135.69,265,-5863,-5959,-7,-4,0
85.17,178.45,-135.82,260,-5918,-6125,-3,-2,-1
85.22,178.47,-135.87,237,-5895,-6072,-2,-2,-1
85.25,178.46,-135.93,246,-5901,-6168,1,-1,0
85.25,178.45,-135.92,227,-5923,-6191,-1,1,-1
85.24,178.43,-135.88,259,-5882,-6074,-1,0,0
85.24,178.44,-135.87,248,-5884,-6093,0,0,-1
85.23,178.45,-135.84,245,-5864,-6013,0,-1,0
85.23,178.46,-135.85,226,-5856,-5995,-1,-1,0
85.24,178.48,-135.87,228,-5857,-6000,-1,-1,0
85.25,178.51,-135.90,224,-5838,-6003,-1,-1,0
85.27,178.54,-135.93,222,-5845,-6007,-2,-2,0
85.29,178.58,-135.97,208,-5844,-6040,-2,-2,0
85.32,178.62,-136.01,203,-5845,-6040,-2,-2,0
85.35,178.66,-136.06,207,-5855,-6074,-2,-2,0
85.38,178.69,-136.10,200,-5842,-6080,-1,-2,0
85.41,178.72,-136.14,190,-5856,-6101,-2,-2,0
85.43,178.75,-136.18,194,-5838,-6062,-2,-2,0
85.47,178.79,-136.22,186,-5842,-6072,-3,-2,0
85.50,178.82,-136.28,183,-5832,-6080,-2,-2,0
85.54,178.85,-136.33,174,-5826,-6081,-3,-2,0
85.56,178.87,-136.40,181,-5836,-6109,-2,-1,-1
85.59,178.89,-136.46,173,-5816,-6088,-3,-2,0
85.62,178.93,-136.52,170,-5811,-6102,-3,-2,0
85.65,178.95,-136.58,161,-5814,-6118,-3,-1,0
85.66,178.97,-136.63,165,-5803,-6129,-2,-1,0
85.67,178.98,-136.67,166,-5789,-6127,-2,-1,0
85.69,179.00,-136.71,159,-5790,-6142,-2,-1,0
85.69,179.02,-136.74,161,-5779,-6118,-2,-1,0
85.70,179.04,-136.77,156,-5777,-6146,-1,-1,0
85.71,179.05,-136.78,155,-5774,-6127,-1,-1,0
85.70,179.06,-136.81,150,-5777,-6159,-1,-1,0
85.71,179.06,-136.83,156,-5771,-6155,-1,-1,0
85.70,179.07,-136.83,148,-5760,-6145,-1,-1,0
85.69,179.09,-136.83,139,-5765,-6152,-1,-1,0
85.70,179.10,-136.83,133,-5773,-6149,0,-1,0
85.69,179.10,-136.82,132,-5773,-6143,0,0,0
85.69,179.11,-136.82,135,-5770,-6144,-1,-1,0
85.68,179.12,-136.83,135,-5769,-6151,-1,-1,0
85.67,179.13,-136.82,138,-5774,-6143,-1,-1,0
85.68,179.13,-136.83,134,-5771,-6145,0,-1,0
85.66,179.15,-136.82,143,-5765,-6144,0,-1,0
85.66,179.16,-136.81,128,-5763,-6143,0,-1,0
85.65,179.17,-136.80,130,-5764,-6144,0,-1,0
85.65,179.17,-136.80,130,-5771,-6135,0,-1,0
85.64,179.18,-136.79,126,-5779,-6141,0,0,0
85.63,179.18,-136.78,121,-5777,-6136,0,0,0
85.63,179.19,-136.78,125,-5775,-6136,-1,0,0
85.63,179.18,-136.79,130,-5771,-6141,0,0,0
85.62,179.18,-136.79,136,-5763,-6141,0,-1,0
85.62,179.19,-136.78,129,-5765,-6138,0,-1,0
85.61,179.20,-136.78,121,-5770,-6127,0,-1,0
85.60,179.20,-136.77,120,-5770,-6132,0,-1,0
85.60,179.21,-136.77,120,-5782,-6133,0,0,0
85.60,179.21,-136.77,108,-5772,-6137,0,0,0
85.60,179.20,-136.77,116,-5774,-6139,0,0,-1
85.59,179.20,-136.76,115,-5772,-6134,0,0,-1
85.60,179.20,-136.75,115,-5775,-6131,0,0,0
85.59,179.19,-136.74,123,-5777,-6128,0,0,-1
85.58,179.18,-136.73,120,-5780,-6144,0,0,-1
85.57,179.15,-136.72,117,-5783,-6159,0,1,-1
85.56,179.09,-136.69,123,-5787,-6155,1,1,-2
85.54,179.02,-136.65,118,-5791,-6165,1,2,-2
85.50,178.90,-136.60,111,-5797,-6184,2,4,-4
85.46,178.73,-136.49,133,-5803,-6196,4,5,-4
85.41,178.53,-136.34,154,-5841,-6237,6,6,-5
85.34,178.30,-136.07,162,-5843,-6272,11,7,-6
85.25,177.96,-135.65,117,-5944,-6416,19,12,-10
85.15,177.46,-135.05,171,-6065,-6330,20,15,-14
85.03,176.81,-134.49,167,-6276,-6466,22,19,-19
84.96,176.00,-133.88,176,-6378,-6359,20,22,-23
84.95,175.09,-133.27,401,-6432,-6163,21,20,-24
84.97,174.23,-132.73,602,-6336,-6019,17,19,-24
85.03,173.42,-132.19,732,-6359,-6074,26,16,-24
85.06,172.63,-131.46,944,-6231,-5712,23,14,-23
85.08,171.90,-130.75,1004,-6119,-5489,27,16,-21
85.10,171.19,-130.09,1208,-5925,-5061,20,14,-19
85.22,170.65,-129.71,1296,-5932,-4671,6,5,-17
85.51,170.26,-129.67,1420,-5996,-4728,1,2,-14
85.81,169.91,-129.75,1441,-6150,-4967,-3,2,-13
86.11,169.61,-129.77,1335,-6288,-4985,-1,0,-14
86.62,169.42,-129.80,1429,-6251,-5308,6,-7,-12
87.11,169.38,-129.45,1471,-6235,-5326,18,-9,-7
87.53,169.42,-128.92,1383,-6414,-5268,21,-10,-7
88.10,169.44,-128.37,1393,-6745,-5267,22,-11,-12
88.95,169.32,-127.67,1160,-7481,-5347,27,-15,-22
90.49,169.15,-126.71,1229,-7759,-5647,46,-24,-33
92.46,168.76,-125.19,1690,-7789,-5662,73,-24,-37
94.87,168.20,-123.24,2059,-7980,-5409,77,-31,-39
97.80,167.63,-121.06,2033,-8780,-6027,101,-29,-50
101.16,166.51,-117.61,2288,-8815,-6237,148,-2,-55
105.97,165.41,-112.91,1768,-8429,-5908,207,-18,-58
113.03,164.07,-107.85,2139,-8268,-4725,178,-1,-57
123.57,162.08,-103.12,2616,-9021,-4359,180,6,-91
141.84,158.84,-97.94,2388,-9378,-4105,202,36,-130
-172.26,155.26,-91.87,1943,-8829,-2411,195,45,-129
-130.61,27.81,-86.79,1529,-8365,-1392,162,11,-117
-112.06,30.63,-81.52,1768,-7925,-989,197,6,-109
-103.43,33.29,-76.04,2897,-6781,-162,168,-4,-88
-98.78,35.46,-71.35,3572,-5761,474,145,3,-74
-95.68,36.78,-67.05,4373,-5295,794,140,17,-32
-93.29,37.36,-62.71,4894,-3728,2191,99,17,-13
-92.10,37.27,-61.13,4828,-1603,1768,7,25,14
-90.40,36.99,-60.63,5280,-1077,3132,-45,32,6
-88.87,36.16,-62.32,4798,-2633,2788,-89,36,30
-88.37,34.61,-64.09,3583,-4132,2127,-48,22,41
-88.81,33.45,-65.17,2798,-4900,2747,-33,-5,24
-89.36,33.03,-66.07,3775,-5439,3094,-29,3,21
-89.91,32.53,-66.82,4167,-5750,2998,-18,-4,16
-90.39,32.29,-67.49,4336,-5833,2883,-25,-5,10
-90.96,32.31,-68.09,4623,-5927,2616,-13,-6,2
-91.24,32.39,-68.62,4696,-6082,2676,-23,-5,1
-91.74,32.35,-69.49,4598,-6456,2393,-24,-5,3
-92.30,32.28,-70.26,4692,-6617,2371,-26,-4,4
-92.58,32.16,-71.12,4603,-6678,2263,-29,2,4
-92.30,32.04,-72.01,4587,-6505,2093,-40,10,2
-90.82,31.92,-73.03,4616,-6203,2085,-49,22,0
-88.27,31.69,-74.41,4615,-6657,2416,-88,26,3
-86.08,31.26,-76.45,4284,-8789,757,-48,21,-1
-84.39,31.21,-76.56,3959,-9251,414,20,12,-16
-83.74,31.76,-75.83,4079,-8731,663,25,1,-31
-82.68,32.69,-74.69,4291,-8019,1126,35,4,-39
-81.93,33.70,-73.75,4615,-7419,1209,28,2,-34
-81.21,34.52,-72.83,4572,-7271,1308,26,2,-32
-81.27,35.37,-71.84,4614,-7275,1116,40,-5,-35
-81.51,36.45,-70.37,4912,-7117,1215,59,-8,-43
-81.91,37.77,-68.57,5203,-6484,1478,61,-11,-44
-81.98,39.01,-66.68,5332,-5824,1824,59,-5,-41
-81.60,40.00,-64.88,5512,-5291,2542,41,-2,-33
-80.76,40.72,-63.56,5688,-5190,2570,29,9,-23
-79.34,41.20,-62.11,5981,-4726,2827,27,24,-25
-77.31,41.27,-60.83,5420,-5076,3114,5,26,-14
-76.26,41.02,-59.86,5197,-5701,3115,26,19,-5
-75.26,40.85,-58.61,5150,-5366,3523,18,17,-9
-74.55,40.98,-57.83,5326,-5028,3403,10,2,-11
-74.96,41.34,-57.39,5696,-4706,3078,21,-9,-4
-75.50,41.47,-56.94,6033,-4700,3281,15,-1,5
-75.41,41.25,-56.41,6266,-4606,3639,10,15,9
-74.75,40.71,-55.94,5775,-4879,4042,-1,16,11
-75.10,40.15,-55.96,5321,-5370,3657,12,-5,18
-76.69,39.93,-55.90,5432,-5008,3374,26,-17,22
-78.26,39.68,-55.67,5577,-4522,3868,20,-15,25
-79.18,39.32,-55.77,5673,-4155,4225,-5,-2,23
-79.27,38.70,-56.14,5318,-4481,4595,-20,5,23
-80.06,38.06,-57.06,5003,-5352,3963,-10,-10,26
-81.52,37.57,-57.69,4675,-5649,3463,6,-17,25
-83.12,37.25,-58.02,4561,-5459,3493,8,-17,20
-84.29,37.10,-58.23,4689,-5272,3732,3,-16,14
-85.03,36.84,-58.40,4373,-5460,3916,-2,-7,11
-86.16,36.63,-58.86,3948,-5812,3513,4,-19,12
-87.87,36.57,-59.22,4005,-5981,3274,14,-30,14
-89.76,36.55,-59.49,4050,-6005,3254,19,-28,14
-91.47,36.61,-59.60,4160,-5666,3490,18,-32,13
-93.03,36.73,-59.65,4260,-5613,3606,17,-28,8
-94.41,36.60,-59.73,4188,-5968,3644,18,-26,20
-96.61,36.41,-59.93,3793,-5831,3392,30,-40,21
-98.43,36.54,-59.77,3946,-5113,3793,29,-43,14
-100.22,36.90,-60.02,3901,-4847,4010,10,-48,8
-102.62,37.21,-60.73,3761,-5407,3774,17,-62,16
-105.63,37.61,-61.60,3704,-5629,3295,29,-78,20
-108.89,37.94,-62.62,4306,-5697,3300,25,-79,32
-111.94,37.88,-63.72,4655,-5144,3601,7,-66,40
-114.85,37.70,-65.22,4019,-5167,3090,6,-66,37
-118.36,37.48,-67.11,3621,-4882,2831,-16,-93,39
-122.80,37.12,-70.04,3625,-5228,2051,-5,-95,58
-127.13,36.45,-72.57,3758,-4867,2244,-13,-115,58
-131.89,35.70,-75.86,3351,-4448,1898,-24,-123,66
-136.85,34.75,-79.70,3247,-3382,2010,-72,-139,62
-141.87,33.92,-84.58,3640,-3174,866,-86,-98,50
-145.60,32.75,-87.81,3642,-3669,1064,-69,-67,54
-149.79,149.29,-90.67,3470,-5032,236,-45,-64,81
-152.77,151.04,-92.44,3768,-6549,-774,4,-74,39
-153.50,152.31,-91.73,4319,-6546,-1561,86,-41,69
-154.86,153.63,-91.91,5688,-9605,-739,-24,-56,25
-156.76,153.92,-94.58,6018,-11786,-2512,-67,-63,-5
-158.50,154.16,-97.17,6452,-13659,-3769,-38,-30,13
-160.52,155.25,-98.87,5000,-13991,-3721,-51,-28,13
-161.91,155.56,-101.04,4100,-12639,-4473,-22,-64,-19
-161.76,155.96,-100.63,3641,-9969,-2604,12,-30,1
-162.19,155.88,-102.14,2823,-8172,-1962,-8,-64,7
-162.27,156.05,-102.51,2824,-7130,-2103,11,-12,-15
-161.43,155.56,-102.08,2155,-6650,-1124,20,-20,-28
-160.49,154.66,-102.12,3308,-6654,-2078,2,29,-31
-159.76,153.98,-101.83,3641,-6530,-1811,-3,9,-16
-159.46,153.51,-101.99,4244,-7034,-2168,-13,22,-6
-159.61,153.22,-102.55,3984,-7679,-2069,-31,5,-5
-159.73,153.17,-102.90,3929,-8280,-2810,12,-2,-6
-159.07,152.94,-102.14,4009,-8326,-2519,34,6,-12
-158.28,152.66,-101.23,3969,-8161,-2243,33,6,-10
-157.45,152.42,-100.15,3880,-7763,-2007,41,3,-9
-156.62,152.21,-99.01,3749,-7584,-1605,38,0,-7
-155.96,152.17,-97.94,3316,-7886,-1750,50,-13,-10
-155.12,152.14,-96.56,3540,-7943,-1694,70,-30,-4
-154.40,152.31,-94.91,3561,-7851,-1973,94,-33,2
-153.65,152.55,-92.80,3782,-7274,-1172,87,-41,8
-153.25,152.85,-91.09,4332,-7078,-1174,83,-32,17
-152.91,26.77,-89.06,4308,-6942,-610,84,-21,16
-152.67,26.41,-87.16,4358,-6954,66,68,-23,15
-152.59,25.98,-85.37,4321,-7301,262,79,-12,22
-152.61,25.48,-83.52,3800,-7214,675,64,-12,16
-152.54,25.15,-81.91,3854,-7399,1026,56,-8,11
-152.49,24.87,-80.47,4071,-7329,1201,50,1,14
-152.56,24.47,-79.16,3982,-6836,1951,38,-8,19
-153.44,24.02,-80.24,4378,-6691,1722,-49,-28,20
-154.24,23.25,-80.32,4260,-7209,621,35,10,20
-154.53,22.74,-79.75,4219,-7980,960,12,16,18
-154.87,22.14,-79.07,4031,-8150,682,26,25,19
-155.12,21.47,-78.04,3624,-7850,777,31,33,18
-155.23,20.84,-76.91,3016,-7531,866,28,37,11
-155.24,20.28,-75.75,2634,-7365,1067,33,33,8
-155.16,19.85,-74.62,2469,-7272,1333,32,23,7
-155.04,19.47,-73.44,2332,-7319,1513,37,22,3
-154.80,19.20,-72.24,2207,-7520,2008,38,18,-1
-154.41,19.08,-71.03,2334,-7605,2359,35,15,-4
-154.05,19.00,-69.94,2292,-7758,2783,31,11,-4
-153.79,18.91,-68.94,2280,-7925,3106,33,4,-3
-153.45,18.95,-67.97,2485,-7895,3228,29,2,-5
-153.16,18.92,-66.96,2522,-7499,3287,37,6,-1
-152.82,18.86,-65.76,2402,-6583,3514,33,4,-1
-152.54,18.86,-64.82,2288,-5893,3624,24,0,-2
-152.31,19.00,-64.15,2256,-5587,3785,16,-11,-2
-152.28,19.11,-63.88,2324,-5496,3903,3,-13,3
-152.51,19.12,-63.99,2500,-6076,3863,-5,-19,10
-152.98,19.00,-64.17,2743,-6868,3624,8,-21,15
-153.32,18.88,-64.13,3043,-6859,3579,6,-10,13
-153.58,18.73,-64.11,3142,-6808,3785,0,-7,11
-153.86,18.55,-64.26,3262,-6713,3726,-7,-1,11
-154.16,18.28,-64.47,3241,-6655,3690,-10,3,13
-154.65,17.85,-64.75,3021,-6719,3568,-9,2,18
-155.15,17.39,-65.02,3038,-6578,3688,-16,5,19
-155.78,16.83,-65.55,2870,-6756,3627,-21,4,21
-156.49,16.28,-66.13,2640,-7066,3372,-18,-3,20
-157.31,15.70,-66.70,2589,-7147,3345,-17,-6,29
-158.35,14.94,-67.40,2391,-7229,3284,-21,-7,33
-159.50,14.07,-68.18,2258,-7345,3274,-28,-5,37
-160.61,13.24,-69.02,1898,-7324,3154,-26,-5,28
-161.66,12.51,-69.91,1586,-7664,2997,-28,-12,28
-162.75,11.77,-70.77,1628,-7956,2765,-25,-8,32
-163.92,10.84,-71.45,1428,-8610,2329,-6,-4,34
-164.89,9.99,-71.60,1539,-8600,2226,0,-5,32
-165.65,9.23,-71.60,1599,-7971,2403,-3,10,25
-166.34,8.56,-71.98,597,-7893,2229,-13,0,12
-166.80,8.23,-72.13,1067,-8052,2133,4,-8,15
-166.97,8.08,-71.97,1183,-7822,2230,9,-4,2
-166.65,8.29,-71.65,951,-7483,2431,9,6,-16
-166.14,8.59,-71.43,920,-7492,2705,-1,13,-15
-165.89,8.71,-71.41,1012,-7997,2278,5,10,-7
-165.66,8.75,-71.01,1151,-8428,1821,27,11,-6
-165.17,8.87,-70.11,1284,-8572,1709,38,14,-12
-164.47,9.09,-69.01,1406,-8668,1875,42,18,-16
-163.61,9.41,-67.75,1455,-8913,2204,48,18,-22
-162.55,9.78,-66.13,1321,-8896,2943,57,15,-25
-161.50,10.22,-64.48,1164,-8905,3302,57,7,-26
-160.32,10.81,-62.60,1246,-8575,4011,62,1,-29
-159.15,11.52,-60.75,1327,-8175,4391,62,-10,-27
-158.08,12.21,-58.71,1518,-7812,4287,80,-7,-23
-157.18,12.80,-56.37,1809,-7615,4405,84,-16,-11
-156.53,13.10,-53.66,1706,-7793,4119,120,-9,-7
-155.67,13.54,-49.44,1687,-7824,4989,172,-20,-16
-154.68,14.39,-44.34,2156,-7427,6019,175,-32,-17
-154.21,14.95,-40.14,2443,-5594,5708,137,-12,7
-154.50,15.05,-37.23,2021,-3603,5682,82,-20,16
-154.54,15.34,-36.31,1846,-2352,4847,-10,-9,-4
-154.29,15.56,-36.73,2131,-1818,3603,-13,7,-3
-154.26,15.53,-37.38,2410,-1970,4886,-51,-2,6
-154.46,15.49,-39.13,2207,-2640,4504,-63,0,6
-154.59,15.32,-40.72,2053,-3486,4651,-50,9,1
-154.73,15.01,-41.82,2106,-4634,5400,-39,11,3
-154.80,14.79,-42.78,2051,-5400,5512,-28,10,-3
-154.73,14.53,-43.29,1929,-5376,6048,-22,15,-4
-154.70,14.28,-43.87,1799,-5553,6569,-31,9,-4
-154.72,14.17,-44.60,1870,-6066,6426,-22,4,-3
-154.66,14.14,-44.99,1915,-6208,6444,-13,4,-5
-154.52,14.15,-45.23,1864,-6005,6463,-14,3,-8
-154.32,14.27,-45.67,1844,-5661,6478,-26,0,-11
-154.06,14.52,-46.47,1847,-5415,6524,-42,-4,-15
-153.79,14.89,-47.74,1980,-5297,6308,-57,-5,-14
-153.71,15.21,-49.45,2128,-5155,5908,-70,-5,-8
-153.83,15.37,-51.41,2313,-5099,5422,-75,-3,1
-154.36,15.29,-53.81,2574,-5475,4915,-91,0,11
-155.03,15.03,-56.32,2739,-6503,4263,-79,9,10
-155.69,14.61,-58.32,2800,-6864,3851,-64,14,14
-156.53,14.05,-60.28,2914,-7412,3624,-68,14,22
-157.53,13.27,-62.08,2591,-8718,3130,-46,18,22
-158.41,12.37,-62.73,1730,-9563,2925,3,15,18
-158.78,11.85,-62.37,1239,-9044,2756,28,1,6
-158.57,11.84,-61.44,1210,-7884,2882,36,-2,-6
-158.20,12.10,-60.60,1324,-7169,3158,26,-11,-8
-157.84,12.48,-60.01,1442,-6871,3295,20,-13,-11
-157.41,12.97,-59.50,1619,-6809,3243,24,-13,-13
-156.96,13.45,-58.90,1770,-6647,3456,18,-13,-11
-156.62,13.92,-58.66,1866,-7237,3855,9,-14,-13
-156.29,14.36,-58.30,2036,-7660,3948,22,-13,-11
-155.87,14.70,-57.51,2128,-7393,4035,32,-3,-11
-155.44,14.95,-56.70,2192,-6926,4388,21,-1,-10
-155.08,15.21,-56.16,2087,-6822,4614,14,-3,-12
-154.66,15.53,-55.66,2008,-6828,4737,16,-4,-15
-154.20,15.88,-55.08,1990,-6677,4850,18,-4,-15
-153.72,16.27,-54.53,2083,-6417,4955,13,-5,-15
-153.28,16.66,-54.20,2187,-6271,5025,4,-5,-15
-152.79,17.08,-53.99,2256,-6339,4907,5,-3,-19
-152.25,17.59,-53.74,2340,-6267,4824,5,-6,-20
-151.64,18.17,-53.54,2458,-6091,4779,1,-8,-22
-151.03,18.79,-53.46,2653,-6068,4753,-2,-6,-22
-150.41,19.39,-53.36,2714,-6083,4758,0,-8,-23
-149.79,20.03,-53.25,2819,-6070,4697,1,-8,-22
-149.24,20.62,-53.12,2841,-6039,4700,2,-11,-19
-148.80,21.19,-53.05,2944,-6022,4692,0,-13,-15
-148.48,21.69,-53.10,3003,-6117,4647,-2,-12,-12
-148.23,22.14,-53.19,2941,-6276,4597,-1,-16,-12
-147.88,22.69,-53.18,3030,-6241,4558,3,-16,-16
-147.47,23.30,-53.18,3164,-6320,4533,1,-16,-16
-147.07,23.91,-53.14,3300,-6383,4433,5,-16,-16
-146.68,24.49,-53.02,3371,-6327,4273,10,-14,-15
-146.28,25.06,-52.73,3351,-6225,4256,14,-17,-16
-145.82,25.72,-52.34,3429,-6087,4269,18,-18,-18
-145.31,26.44,-51.89,3658,-5914,4353,17,-18,-17
-144.86,27.06,-51.47,3951,-5751,4421,14,-12,-13
-144.52,27.49,-51.10,3978,-5734,4458,13,-9,-10
-144.26,27.83,-50.73,3896,-5762,4487,15,-9,-10
-144.01,28.16,-50.27,3868,-5671,4551,17,-9,-9
-143.78,28.47,-49.84,3870,-5516,4619,13,-8,-9
-143.54,28.76,-49.48,3884,-5396,4677,10,-6,-8
-143.38,28.99,-49.21,3902,-5322,4680,8,-6,-5
-143.24,29.17,-48.94,3930,-5301,4682,9,-3,-5
-143.14,29.28,-48.68,3908,-5313,4748,7,-3,-4
-143.05,29.39,-48.46,3874,-5353,4745,8,-4,-4
-142.96,29.53,-48.22,3894,-5294,4832,7,-5,-4
-142.87,29.67,-48.04,3988,-5266,4892,6,-5,-3
-142.80,29.80,-47.87,4045,-5222,4921,5,-4,-3
-142.72,29.91,-47.73,4054,-5180,4962,3,-4,-3
-142.64,30.06,-47.68,4066,-5145,4977,0,-7,-3
-142.55,30.24,-47.71,4135,-5171,4889,-1,-6,-4
-142.45,30.42,-47.72,4154,-5235,4850,1,-6,-4
-142.34,30.62,-47.67,4139,-5211,4822,3,-8,-5
-142.19,30.87,-47.59,4151,-5136,4907,1,-10,-6
-142.02,31.19,-47.65,4270,-5155,4927,-2,-11,-6
-141.84,31.52,-47.77,4308,-5290,4845,-2,-11,-7
-141.66,31.85,-47.79,4289,-5350,4736,5,-11,-7
-141.51,32.18,-47.73,4266,-5142,4813,2,-14,-5
-141.37,32.54,-47.87,4361,-5067,4758,-4,-14,-4
-141.25,32.87,-48.07,4358,-5233,4663,-1,-14,-4
-141.15,33.21,-48.25,4375,-5347,4547,2,-16,-5
-140.98,33.62,-48.31,4535,-5250,4435,4,-15,-6
-140.79,34.00,-48.28,4638,-5077,4433,3,-11,-6
-140.67,34.26,-48.31,4624,-5037,4362,0,-9,-3
-140.63,34.42,-48.39,4675,-5207,4328,4,-7,-1
-140.63,34.55,-48.42,4815,-5209,4345,2,-7,0
-140.66,34.64,-48.40,4899,-5086,4345,5,-4,2
-140.71,34.64,-48.37,4844,-4940,4351,1,-2,3
-140.78,34.62,-48.38,4842,-4943,4376,1,-1,2
-140.84,34.59,-48.38,4820,-5022,4385,1,0,2
-140.92,34.53,-48.37,4780,-5143,4432,1,0,2
-140.99,34.48,-48.35,4787,-5231,4418,3,1,1
-141.05,34.40,-48.23,4752,-5196,4434,4,2,1
-141.11,34.33,-48.10,4712,-5144,4473,3,2,1
-141.14,34.29,-48.02,4639,-5150,4513,2,0,0
-141.13,34.28,-47.92,4650,-5125,4557,3,1,-1
-141.13,34.25,-47.82,4639,-5124,4605,1,1,-1
-141.10,34.25,-47.74,4630,-5155,4597,2,1,-2
-141.05,34.27,-47.63,4628,-5133,4571,3,1,-3
-141.01,34.26,-47.46,4616,-5093,4568,3,2,-2
-140.96,34.23,-47.29,4615,-5029,4586,3,4,-3
-140.93,34.20,-47.13,4616,-5011,4648,2,2,-2
-140.89,34.17,-47.01,4630,-4980,4712,1,2,-2
-140.86,34.15,-46.95,4665,-4977,4713,-1,2,-1
-140.85,34.10,-46.90,4656,-4960,4703,-1,3,-1
-140.84,34.05,-46.85,4646,-4954,4661,0,3,-1
-140.85,33.99,-46.80,4661,-4963,4690,0,2,0
-140.88,33.92,-46.74,4649,-4946,4696,0,3,0
-140.90,33.85,-46.67,4623,-4935,4740,0,2,0
-140.93,33.79,-46.65,4589,-4950,4783,-1,1,0
-140.96,33.75,-46.67,4586,-4954,4774,-2,0,1
-140.98,33.73,-46.68,4597,-4966,4762,-1,0,1
-141.01,33.69,-46.70,4576,-4977,4760,-1,0,1
-141.04,33.68,-46.74,4562,-4972,4726,-1,-1,0
-141.08,33.65,-46.75,4545,-4962,4742,-1,0,1
-141.12,33.61,-46.80,4525,-4966,4764,-2,-1,1
-141.17,33.59,-46.89,4553,-5014,4742,-2,-2,1
-141.19,33.59,-46.95,4566,-5014,4721,-2,-1,1
-141.22,33.58,-47.00,4580,-5004,4725,-2,-1,1
-141.26,33.56,-47.09,4597,-5007,4717,-3,-1,1
-141.29,33.54,-47.18,4607,-5035,4705,-3,-1,1
-141.31,33.52,-47.26,4605,-5054,4677,-2,0,1
-141.34,33.50,-47.33,4580,-5061,4659,-2,0,0
-141.37,33.48,-47.39,4544,-5090,4637,-2,-1,1
-141.41,33.45,-47.45,4552,-5086,4628,-2,-1,1
-141.46,33.43,-47.50,4549,-5088,4624,-1,-1,1
-141.51,33.41,-47.58,4543,-5099,4613,-1,-2,1
-141.57,33.40,-47.65,4546,-5125,4628,-1,-2,2
-141.65,33.38,-47.74,4534,-5137,4628,-1,-3,2
-141.71,33.38,-47.82,4523,-5167,4601,-1,-3,2
-141.79,33.37,-47.90,4532,-5207,4581,0,-3,2
-141.87,33.35,-47.96,4536,-5199,4588,0,-3,3
-141.97,33.33,-48.02,4537,-5181,4605,0,-3,3
-142.06,33.30,-48.11,4541,-5177,4582,-1,-3,3
-142.14,33.29,-48.20,4536,-5162,4601,-1,-3,2
-142.19,33.30,-48.28,4542,-5173,4602,-1,-3,1
-142.22,33.31,-48.36,4555,-5208,4583,-1,-3,1
-142.25,33.34,-48.41,4549,-5230,4564,0,-3,0
-142.26,33.37,-48.43,4560,-5243,4544,1,-2,0
-142.28,33.39,-48.41,4550,-5221,4544,1,-2,0
-142.27,33.43,-48.41,4564,-5200,4538,0,-2,-1
-142.26,33.45,-48.41,4573,-5176,4534,-1,-1,-1
-142.24,33.46,-48.43,4566,-5174,4517,-1,0,-1
-142.23,33.46,-48.43,4573,-5185,4537,-1,0,-1
-142.20,33.47,-48.43,4566,-5197,4514,-1,0,-1
-142.18,33.47,-48.42,4575,-5202,4531,-1,0,-2
-142.16,33.46,-48.39,4622,-5158,4513,0,2,0
-142.18,33.40,-48.35,4627,-5095,4512,-1,3,0
-142.19,33.33,-48.31,4614,-5094,4503,0,3,0
-142.20,33.27,-48.26,4598,-5110,4521,0,3,0
-142.22,33.19,-48.20,4576,-5125,4554,0,3,0
-142.24,33.10,-48.14,4547,-5125,4595,0,3,0
-142.25,33.02,-48.06,4528,-5112,4614,0,4,0
-142.26,32.93,-47.97,4503,-5111,4627,0,5,0
-142.28,32.81,-47.87,4467,-5129,4674,0,5,-1
-142.27,32.73,-47.80,4466,-5139,4710,-1,4,-1
-142.27,32.63,-47.73,4479,-5132,4740,-1,5,0
-142.29,32.51,-47.69,4484,-5109,4751,-2,6,0
-142.30,32.37,-47.65,4516,-5094,4732,-3,7,1
-142.34,32.21,-47.63,4476,-5093,4764,-3,6,1
-142.39,32.07,-47.62,4435,-5099,4735,-3,5,1
-142.46,31.92,-47.63,4340,-5117,4729,-2,4,2
-142.52,31.81,-47.65,4271,-5153,4765,-2,1,1
-142.55,31.77,-47.68,4258,-5202,4782,-1,-1,0
-142.58,31.77,-47.72,4266,-5217,4804,-1,-2,0
-142.62,31.78,-47.78,4299,-5240,4793,-1,-3,1
-142.65,31.79,-47.85,4323,-5267,4748,-1,-3,1
-142.70,31.80,-47.91,4349,-5251,4722,-1,-2,2
-142.77,31.77,-47.96,4339,-5229,4717,-1,-2,2
-142.83,31.74,-48.01,4329,-5220,4693,-1,-2,2
-142.90,31.72,-48.05,4328,-5205,4696,-1,-2,2
-142.96,31.70,-48.12,4340,-5224,4679,-1,-2,2
-143.03,31.68,-48.18,4360,-5217,4650,-1,-2,2
-143.11,31.64,-48.22,4352,-5226,4645,1,-1,2
-143.18,31.62,-48.23,4359,-5241,4672,0,-2,2
-143.23,31.61,-48.29,4374,-5266,4669,-1,-2,2
-143.30,31.57,-48.35,4369,-5298,4652,-1,-1,2
-143.37,31.52,-48.38,4348,-5300,4646,-1,0,2
-143.43,31.47,-48.42,4324,-5338,4645,-1,0,1
-143.47,31.44,-48.46,4319,-5367,4645,-1,0,1
-143.52,31.40,-48.48,4304,-5379,4654,0,0,1
-143.56,31.36,-48.49,4277,-5380,4662,0,0,1
-143.60,31.33,-48.49,4288,-5382,4649,0,0,0
-143.63,31.30,-48.46,4294,-5364,4670,1,0,0
-143.63,31.29,-48.43,4281,-5354,4655,1,1,-1
-143.63,31.27,-48.38,4272,-5344,4681,0,0,-1
-143.62,31.26,-48.34,4298,-5330,4667,0,1,-2
-143.59,31.26,-48.28,4304,-5310,4663,1,2,-2
-143.56,31.24,-48.20,4301,-5310,4648,1,2,-2
-143.52,31.23,-48.10,4301,-5306,4643,2,2,-2
-143.50,31.19,-48.00,4316,-5282,4659,2,3,-1
-143.48,31.14,-47.88,4301,-5274,4672,2,3,-1
-143.46,31.08,-47.76,4289,-5269,4705,1,4,-1
-143.45,31.01,-47.66,4284,-5268,4706,1,5,-2
-143.45,30.93,-47.54,4273,-5250,4751,1,4,-1
-143.44,30.85,-47.43,4260,-5248,4769,1,4,0
-143.45,30.75,-47.33,4253,-5257,4787,1,4,-1
-143.46,30.66,-47.23,4233,-5253,4815,1,4,-1
-143.47,30.56,-47.11,4201,-5249,4832,1,4,-1
-143.47,30.48,-47.00,4194,-5250,4847,2,4,-1
-143.48,30.39,-46.88,4173,-5244,4860,3,3,0
-143.49,30.30,-46.75,4144,-5242,4856,2,4,0
-143.52,30.20,-46.61,4149,-5200,4885,3,4,1
-143.57,30.09,-46.49,4158,-5186,4891,3,4,1
-143.61,29.98,-46.34,4160,-5163,4913,3,4,1
-143.66,29.85,-46.21,4159,-5137,4934,3,4,1
-143.72,29.72,-46.07,4128,-5120,4970,2,4,2
-143.80,29.58,-45.96,4091,-5101,5007,2,4,2
-143.87,29.46,-45.87,4063,-5103,5030,2,3,2
-143.92,29.36,-45.79,4062,-5114,5037,2,2,1
-143.97,29.29,-45.70,4056,-5107,5066,2,1,1
-143.99,29.24,-45.64,4054,-5105,5101,1,1,1
-144.02,29.21,-45.60,4020,-5096,5113,0,0,0
-144.04,29.19,-45.58,4027,-5101,5120,0,-1,0
-144.04,29.20,-45.57,4010,-5095,5118,0,-1,0
-144.04,29.22,-45.56,4008,-5087,5105,-1,-2,0
-144.05,29.23,-45.58,3986,-5086,5107,-1,-2,0
-144.07,29.26,-45.63,4007,-5113,5111,-2,-3,0
-144.07,29.29,-45.70,4029,-5121,5103,-2,-3,0
-144.08,29.33,-45.77,4029,-5118,5086,-2,-3,0
-144.09,29.38,-45.86,4025,-5130,5058,-2,-4,0
-144.10,29.43,-45.95,4034,-5152,5038,-2,-4,0
-144.11,29.50,-46.05,4047,-5174,5036,-2,-4,0
-144.11,29.56,-46.15,4078,-5181,5012,-2,-4,0
-144.13,29.62,-46.26,4068,-5199,5005,-3,-4,0
-144.16,29.66,-46.38,4078,-5182,4982,-3,-4,1
-144.21,29.69,-46.51,4069,-5169,4942,-3,-4,2
-144.27,29.71,-46.66,4075,-5188,4927,-3,-4,2
-144.33,29.74,-46.82,4091,-5210,4911,-3,-4,2
-144.40,29.76,-46.96,4085,-5238,4908,-3,-4,2
-144.47,29.78,-47.10,4092,-5269,4874,-3,-4,2
-144.52,29.80,-47.23,4114,-5288,4863,-3,-4,2
-144.58,29.83,-47.35,4105,-5321,4854,-2,-4,1
-144.62,29.88,-47.46,4124,-5347,4818,-2,-5,1
-144.65,29.93,-47.55,4133,-5339,4822,-1,-4,1
-144.69,29.96,-47.64,4117,-5318,4818,-1,-4,1
-144.73,30.00,-47.73,4149,-5308,4799,-2,-4,1
-144.77,30.04,-47.82,4130,-5277,4779,-1,-4,1
-144.82,30.07,-47.92,4120,-5271,4780,-2,-4,2
-144.89,30.08,-48.03,4060,-5269,4750,-1,-4,2
-144.97,30.11,-48.11,4024,-5299,4766,0,-6,2
-145.01,30.19,-48.20,4066,-5318,4833,-1,-8,1
-145.00,30.32,-48.32,4121,-5366,4856,-2,-7,-1
-144.95,30.47,-48.43,4207,-5377,4837,-3,-7,-2
-144.88,30.62,-48.53,4219,-5371,4736,-2,-5,-3
-144.81,30.74,-48.61,4229,-5343,4695,-2,-4,-3
-144.73,30.86,-48.69,4222,-5337,4667,-3,-4,-3
-144.65,30.99,-48.78,4211,-5362,4694,-4,-5,-4
-144.54,31.15,-48.92,4215,-5377,4705,-5,-6,-4
-144.40,31.35,-49.07,4245,-5371,4688,-5,-7,-5
-144.25,31.57,-49.24,4293,-5403,4579,-4,-7,-5
-144.12,31.77,-49.34,4313,-5419,4559,-2,-7,-5
-144.00,31.97,-49.45,4369,-5377,4555,-3,-8,-4
-143.90,32.18,-49.62,4428,-5387,4521,-3,-7,-4
-143.80,32.36,-49.74,4495,-5390,4475,-2,-6,-3
-143.71,32.50,-49.79,4526,-5381,4435,0,-4,-3
-143.63,32.61,-49.81,4564,-5320,4424,-1,-2,-3
-143.57,32.68,-49.83,4541,-5313,4392,-1,-1,-2
-143.54,32.70,-49.84,4527,-5315,4376,0,0,-1
-143.51,32.73,-49.81,4516,-5299,4401,1,0,-1
-143.49,32.73,-49.77,4527,-5297,4441,0,1,-1
-143.45,32.73,-49.70,4494,-5305,4485,0,1,-2
-143.40,32.75,-49.64,4487,-5336,4499,1,1,-3
-143.34,32.78,-49.57,4474,-5334,4513,0,1,-3
-143.27,32.80,-49.50,4489,-5318,4541,0,1,-3
-143.19,32.83,-49.44,4494,-5277,4538,-1,1,-3
-143.11,32.84,-49.38,4484,-5259,4523,-1,2,-3
-143.04,32.86,-49.34,4469,-5251,4532,-2,2,-3
-142.96,32.86,-49.30,4463,-5272,4526,-2,3,-3
-142.89,32.85,-49.24,4466,-5255,4539,-1,3,-3
-142.82,32.83,-49.17,4484,-5219,4545,-2,3,-3
-142.76,32.81,-49.13,4490,-5203,4568,-2,3,-2
-142.73,32.79,-49.11,4495,-5210,4593,-2,2,-2
-142.70,32.76,-49.11,4474,-5208,4611,-2,1,-1
-142.69,32.75,-49.12,4470,-5209,4644,-2,0,-1
-142.69,32.75,-49.17,4428,-5219,4643,-2,-2,-1
-142.68,32.79,-49.24,4394,-5215,4652,-2,-4,-1
-142.67,32.87,-49.35,4358,-5242,4648,-3,-6,-1
-142.67,32.98,-49.49,4357,-5259,4674,-3,-8,-1
-142.66,33.11,-49.67,4429,-5292,4615,-3,-8,0
-142.67,33.23,-49.82,4517,-5282,4560,-2,-8,1
-142.72,33.30,-49.96,4613,-5222,4476,-1,-5,3
-142.82,33.30,-50.07,4589,-5167,4406,-1,-4,4
-142.93,33.28,-50.20,4513,-5173,4409,-2,-5,4
-143.05,33.28,-50.38,4462,-5258,4469,-3,-8,3
-143.14,33.34,-50.61,4521,-5350,4485,-3,-9,2
-143.20,33.42,-50.82,4612,-5386,4425,-2,-7,3
-143.29,33.44,-51.00,4622,-5382,4346,-2,-6,4
-143.40,33.45,-51.16,4649,-5380,4318,-2,-6,4
-143.51,33.45,-51.32,4754,-5409,4296,-1,-5,4
-143.63,33.42,-51.45,4919,-5368,4218,0,-2,7
-143.81,33.28,-51.52,4786,-5261,4141,-1,1,7
-143.99,33.13,-51.60,4551,-5289,4131,-1,-1,5
-144.12,33.05,-51.71,4474,-5403,4144,-1,-2,3
-144.21,33.01,-51.77,4498,-5493,4178,0,-2,3
-144.30,32.95,-51.78,4448,-5528,4163,2,-1,2
-144.40,32.88,-51.78,4384,-5541,4186,1,-1,2
-144.46,32.84,-51.77,4378,-5586,4233,1,-1,1
-144.50,32.81,-51.76,4412,-5616,4299,1,-1,0
-144.53,32.78,-51.74,4482,-5619,4331,0,0,0
-144.56,32.73,-51.72,4474,-5604,4303,0,2,0
-144.57,32.69,-51.67,4447,-5581,4292,0,2,-1
-144.57,32.65,-51.61,4406,-5542,4281,1,2,-1
-144.54,32.63,-51.53,4408,-5508,4278,1,2,-2
-144.49,32.65,-51.43,4428,-5464,4269,2,1,-3
-144.42,32.68,-51.31,4444,-5427,4271,2,2,-3
-144.37,32.69,-51.18,4486,-5422,4313,2,2,-3
-144.31,32.70,-51.03,4521,-5388,4349,3,3,-2
-144.28,32.67,-50.88,4563,-5348,4374,2,4,-1
-144.26,32.61,-50.76,4543,-5328,4413,1,5,-1
-144.24,32.54,-50.66,4528,-5347,4437,-1,5,-1
-144.21,32.46,-50.56,4499,-5389,4459,-1,6,-2
-144.16,32.40,-50.46,4471,-5420,4473,0,6,-3
-144.08,32.35,-50.32,4474,-5410,4491,-1,6,-4
-143.96,32.30,-50.17,4505,-5364,4486,-1,9,-6
-143.78,32.29,-50.01,4556,-5324,4435,-3,9,-7
-143.59,32.25,-49.86,4630,-5328,4383,-2,12,-7
-143.45,32.14,-49.64,4637,-5327,4412,-1,14,-5
-143.31,31.99,-49.39,4606,-5275,4465,-1,16,-5
-143.15,31.85,-49.14,4556,-5209,4483,-3,15,-7
-142.94,31.75,-48.91,4491,-5277,4493,-1,15,-8
-142.75,31.64,-48.68,4417,-5324,4566,-2,13,-8
-142.57,31.55,-48.43,4298,-5394,4534,1,13,-9
-142.36,31.45,-48.10,4255,-5365,4698,1,13,-9
-142.09,31.39,-47.80,4309,-5255,4663,0,14,-11
-141.75,31.38,-47.44,4269,-5240,4633,1,15,-13
-141.44,31.33,-47.08,4252,-5341,4750,2,13,-12
-141.18,31.26,-46.71,4307,-5308,4792,4,14,-10
-140.94,31.16,-46.28,4284,-5202,4861,4,14,-10
-140.65,31.08,-45.85,4313,-5071,4854,4,15,-10
-140.42,30.95,-45.46,4261,-5026,4850,3,15,-8
-140.25,30.79,-45.07,4153,-5119,4819,8,13,-7
-140.08,30.69,-44.48,4179,-5068,4923,15,9,-7
-139.87,30.66,-43.76,4257,-4913,4933,22,8,-8
-139.63,30.68,-42.80,4360,-4672,5105,27,7,-8
-139.46,30.79,-41.80,4204,-4670,5543,29,-6,-7
-139.31,31.11,-41.23,4290,-4688,5680,14,-12,-5
-139.21,31.30,-41.03,4465,-4444,5378,4,-1,0
-139.22,31.17,-40.73,4443,-4186,5343,7,10,2
-139.32,30.88,-40.54,4190,-4105,5550,-5,8,4
-139.51,30.53,-40.65,4021,-3997,5567,-10,10,9
-139.81,30.07,-41.14,3989,-3902,5576,-25,11,13
-140.15,29.56,-41.85,4089,-4122,5571,-29,14,13
-140.55,29.00,-42.59,4106,-4424,5576,-27,12,15
-141.01,28.50,-43.35,4166,-4774,5389,-22,9,16
-141.52,27.94,-44.04,4288,-4763,5357,-24,12,21
-142.09,27.31,-44.78,4244,-4817,5296,-24,12,21
-142.60,26.74,-45.46,4284,-5133,5305,-22,14,16
-143.02,26.14,-46.06,4182,-5240,5250,-23,17,15
-143.51,25.44,-46.70,3935,-5325,5143,-23,19,19
-144.17,24.62,-47.42,3675,-5496,4974,-25,18,23
-144.93,23.72,-48.12,3434,-5792,4890,-20,17,26
-145.70,22.85,-48.68,3230,-5962,4873,-14,15,24
-146.37,22.09,-49.11,3143,-6068,4967,-12,12,21
-146.98,21.42,-49.46,3110,-6126,5022,-10,11,20
-147.57,20.75,-49.77,2990,-6117,5070,-10,12,20
-148.14,20.07,-50.08,2858,-6060,5188,-13,13,19
-148.71,19.42,-50.49,2797,-6034,5153,-16,12,18
-149.25,18.76,-50.92,2666,-6133,5089,-15,13,17
-149.76,18.12,-51.30,2542,-6279,4934,-12,14,15
-150.21,17.49,-51.57,2401,-6373,4933,-10,15,14
-150.66,16.86,-51.83,2260,-6414,4850,-9,16,13
-151.03,16.26,-52.03,2111,-6403,4724,-8,16,11
-151.33,15.72,-52.18,1998,-6395,4667,-6,15,9
-151.61,15.24,-52.31,1869,-6408,4626,-5,13,8
-151.84,14.82,-52.41,1796,-6422,4636,-4,11,6
-152.04,14.45,-52.47,1794,-6397,4667,-3,10,6
-152.20,14.13,-52.54,1759,-6354,4695,-4,9,4
-152.34,13.86,-52.63,1771,-6350,4797,-6,8,4
-152.48,13.61,-52.79,1797,-6386,4821,-7,8,3
-152.61,13.39,-52.94,1738,-6463,4797,-6,7,2
-152.71,13.18,-53.06,1751,-6575,4812,-4,7,2
-152.78,12.98,-53.07,1778,-6560,4890,-2,8,2
-152.84,12.77,-53.08,1786,-6518,4913,-3,8,3
-152.91,12.56,-53.11,1754,-6498,4833,-2,8,2
-152.95,12.35,-53.10,1745,-6531,4866,-1,10,2
-152.98,12.11,-53.09,1763,-6503,4915,-2,11,2
-153.01,11.84,-53.09,1793,-6483,4968,-3,13,3
-153.08,11.54,-53.14,1707,-6498,4923,-5,13,2
-153.14,11.24,-53.20,1698,-6526,4964,-5,13,3
-153.21,10.94,-53.30,1658,-6524,4928,-6,14,2
-153.28,10.64,-53.39,1608,-6586,4814,-4,13,3
-153.32,10.33,-53.39,1559,-6664,4732,2,14,2
-153.34,10.04,-53.25,1431,-6619,4703,5,10,3
-153.36,9.80,-53.03,1325,-6612,4694,9,7,3
-153.41,9.59,-52.79,1300,-6581,4795,8,4,5
-153.48,9.38,-52.56,1345,-6504,4911,7,5,6
-153.57,9.13,-52.40,1312,-6390,5079,1,6,6
-153.76,8.87,-52.43,1230,-6529,5066,-2,4,6
-153.97,8.63,-52.45,1163,-6699,5034,1,2,7
-154.15,8.44,-52.39,1226,-6664,4989,4,1,7
-154.31,8.25,-52.27,1119,-6546,5022,4,-1,7
-154.49,8.12,-52.15,1039,-6460,5030,5,-4,6
-154.60,8.07,-51.99,1075,-6371,5130,5,-5,4
-154.64,8.08,-51.84,1156,-6318,5152,4,-4,2
-154.66,8.10,-51.73,1123,-6349,5091,4,-4,1
-154.65,8.16,-51.59,1083,-6392,5097,5,-5,-1
-154.64,8.23,-51.44,1103,-6348,5166,4,-6,0
-154.71,8.29,-51.38,1041,-6262,5255,0,-9,2
-154.87,8.36,-51.47,956,-6323,5231,-4,-11,3
-155.02,8.48,-51.60,977,-6440,5195,-3,-12,1
-155.10,8.64,-51.73,1115,-6431,5174,-4,-10,-1
-155.11,8.82,-51.85,1188,-6344,5177,-5,-7,-3
-155.04,9.00,-52.00,1201,-6266,5159,-8,-5,-6
-154.92,9.23,-52.20,1139,-6413,5034,-6,-5,-9
-154.76,9.46,-52.31,1189,-6505,4969,-3,-5,-8
-154.61,9.69,-52.38,1252,-6486,4920,-2,-6,-7
-154.47,9.92,-52.42,1296,-6506,5000,-2,-7,-7
-154.35,10.15,-52.50,1386,-6462,5061,-5,-6,-6
-154.25,10.36,-52.64,1451,-6503,5005,-5,-5,-6
-154.15,10.55,-52.75,1541,-6526,5039,-5,-4,-5
-154.04,10.70,-52.89,1638,-6467,5080,-8,-1,-5
-153.94,10.82,-53.07,1632,-6543,4982,-6,1,-6
-153.79,10.93,-53.17,1660,-6569,5032,-5,1,-6
-153.66,11.02,-53.28,1660,-6554,4986,-5,2,-6
-153.55,11.09,-53.39,1625,-6559,4974,-6,1,-5
-153.45,11.17,-53.52,1673,-6541,4886,-6,1,-5
-153.35,11.25,-53.64,1717,-6509,4816,-4,2,-5
-153.25,11.31,-53.73,1725,-6408,4833,-6,1,-4
-153.21,11.36,-53.91,1703,-6429,4782,-8,1,-3
-153.20,11.39,-54.06,1713,-6515,4781,-5,1,-2
-153.17,11.43,-54.19,1740,-6533,4775,-6,1,-3
-153.12,11.48,-54.30,1737,-6585,4727,-5,0,-3
-153.09,11.53,-54.41,1743,-6693,4726,-4,-1,-2
-153.07,11.59,-54.50,1774,-6794,4647,-1,-1,-2
-153.04,11.62,-54.48,1764,-6785,4613,1,-2,-1
-153.01,11.67,-54.43,1736,-6716,4589,3,-3,-1
-153.01,11.73,-54.38,1731,-6641,4587,2,-4,0
-153.06,11.77,-54.34,1726,-6599,4602,2,-5,2
-153.13,11.79,-54.31,1727,-6580,4624,2,-5,2
-153.20,11.81,-54.29,1735,-6570,4667,2,-5,2
-153.25,11.85,-54.27,1796,-6588,4704,1,-4,2
-153.30,11.86,-54.24,1821,-6631,4712,3,-3,2
-153.34,11.84,-54.16,1793,-6604,4779,3,-3,2
-153.38,11.83,-54.09,1784,-6554,4817,1,-2,2
-153.43,11.80,-54.05,1763,-6547,4808,1,-1,2
-153.49,11.76,-53.99,1737,-6557,4795,2,-1,3
-153.57,11.68,-53.93,1704,-6531,4803,2,-1,3
-153.67,11.60,-53.86,1669,-6535,4805,2,-2,4
-153.79,11.51,-53.80,1613,-6620,4807,3,-3,4
-153.92,11.43,-53.70,1640,-6686,4824,4,-3,5
-154.05,11.31,-53.58,1661,-6611,4883,4,-1,6
-154.20,11.17,-53.50,1624,-6495,4905,2,0,6
-154.38,11.00,-53.47,1543,-6434,4926,0,0,6
-154.56,10.83,-53.47,1499,-6464,4901,0,1,6
-154.73,10.64,-53.46,1463,-6505,4909,0,2,5
-154.88,10.46,-53.43,1401,-6573,4885,2,1,5
-155.00,10.32,-53.36,1362,-6554,4824,3,1,4
-155.14,10.17,-53.30,1337,-6633,4813,3,0,5
-155.24,10.05,-53.19,1244,-6602,4877,4,-1,2
-155.31,10.00,-53.12,1243,-6556,4910,1,-3,2
-155.34,10.03,-53.11,1294,-6519,4915,0,-4,-1
-155.33,10.13,-53.14,1228,-6600,4859,-1,-7,-3
-155.30,10.31,-53.14,1252,-6739,4792,4,-10,-3
-155.19,10.52,-53.00,1290,-6611,4823,6,-9,-5
-155.05,10.75,-52.86,1310,-6364,4961,2,-8,-5
-154.94,10.99,-52.90,1383,-6226,5050,-6,-9,-5
-154.87,11.22,-53.06,1448,-6312,5083,-7,-8,-6
-154.77,11.42,-53.20,1657,-6420,5279,-8,-4,-5
-154.60,11.63,-53.41,1820,-6455,5165,-9,-1,-9
-154.30,11.91,-53.55,1805,-6483,5052,-6,0,-14
-153.91,12.28,-53.63,1774,-6405,5021,-6,-3,-16
-153.52,12.69,-53.77,1845,-6264,4964,-10,-4,-15
-153.15,13.08,-54.01,1821,-6152,4920,-14,-2,-15
-152.85,13.40,-54.33,1845,-6107,5015,-18,0,-15
-152.53,13.72,-54.77,1938,-6231,5029,-22,2,-16
-152.19,14.09,-55.27,2125,-6434,4907,-21,2,-17
-151.86,14.44,-55.71,2236,-6563,4794,-18,2,-15
-151.64,14.70,-56.15,2253,-6591,4704,-19,0,-10
-151.57,14.89,-56.66,2281,-6616,4661,-21,-2,-7
-151.57,15.07,-57.25,2304,-6690,4549,-22,-3,-5
-151.61,15.23,-57.83,2238,-6693,4340,-20,-4,-5
-151.68,15.40,-58.36,2122,-6711,4207,-18,-9,-4
-151.79,15.61,-58.94,2105,-6785,4085,-17,-12,-3
-151.93,15.85,-59.50,2130,-6941,3960,-16,-15,-2
-152.07,16.09,-60.00,2159,-7015,3834,-12,-16,-3
-152.17,16.37,-60.44,2235,-7055,3707,-10,-18,-3
-152.26,16.65,-60.83,2234,-7026,3612,-8,-18,-3
-152.34,16.94,-61.21,2283,-7044,3620,-9,-19,-2
-152.46,17.23,-61.63,2351,-7229,3587,-9,-20,-2
-152.54,17.49,-61.96,2415,-7362,3548,-4,-17,-2
-152.57,17.73,-62.15,2514,-7388,3613,-2,-16,-3
-152.54,17.98,-62.26,2587,-7336,3595,1,-12,-4
-152.46,18.21,-62.31,2634,-7219,3662,0,-11,-5
-152.34,18.46,-62.37,2700,-7188,3662,0,-9,-6
-152.18,18.73,-62.39,2723,-7165,3617,1,-8,-7
-152.00,18.98,-62.35,2763,-7075,3585,3,-7,-7
-151.80,19.23,-62.29,2821,-7047,3623,3,-6,-7
-151.61,19.48,-62.21,2930,-6867,3714,1,-5,-6
-151.45,19.68,-62.24,2934,-6760,3729,-4,-4,-6
-151.29,19.90,-62.36,2918,-6800,3649,-5,-4,-7
-151.14,20.14,-62.50,2987,-6709,3676,-8,-6,-6
-151.06,20.36,-62.77,3087,-6648,3585,-9,-7,-4
-151.06,20.53,-63.13,3093,-6658,3506,-12,-7,-2
-151.12,20.63,-63.55,3086,-6768,3449,-15,-6,0
-151.22,20.69,-63.98,3024,-7071,3388,-12,-5,-1
-151.28,20.77,-64.32,3028,-7296,3331,-9,-5,-2
-151.31,20.84,-64.56,2945,-7520,3173,-3,-4,-2
-151.35,20.88,-64.60,2912,-7756,3145,6,-5,-2
-151.28,20.94,-64.33,2944,-7771,3129,15,-4,-3
-151.15,21.00,-63.79,3022,-7646,3195,26,-4,0
-151.03,21.03,-63.04,2941,-7306,3201,30,-3,-2
-150.80,21.13,-62.17,3049,-6959,3394,30,-4,-2
-150.61,21.25,-61.37,3123,-6546,3375,28,-3,-1
-150.42,21.35,-60.62,3075,-6208,3571,23,-4,-1
-150.33,21.45,-60.13,3149,-6057,3751,13,-7,2
-150.32,21.49,-59.87,3274,-6051,3681,8,-2,3
-150.35,21.43,-59.69,3337,-6338,3764,6,1,3
-150.37,21.35,-59.46,3297,-6553,3718,11,2,1
-150.34,21.29,-59.08,3228,-6552,3724,15,3,1
-150.25,21.23,-58.60,3194,-6445,3752,15,6,-1
-150.13,21.18,-58.17,3131,-6258,3893,8,6,-2
-149.98,21.20,-57.86,3167,-6212,4002,7,5,-3
-149.84,21.21,-57.66,3253,-6283,4102,1,6,-2
-149.81,21.14,-57.60,3222,-6524,4165,-1,5,0
-149.86,21.00,-57.57,3163,-6820,4086,2,6,2
-149.94,20.80,-57.37,3076,-6947,4065,9,7,3
-150.00,20.58,-57.02,2986,-6854,4094,12,7,3
-150.03,20.37,-56.63,2900,-6689,4158,11,8,3
-150.07,20.15,-56.26,2780,-6649,4298,10,7,3
-150.13,19.93,-55.91,2716,-6671,4363,11,7,2
-150.14,19.73,-55.49,2694,-6614,4345,15,8,2
-150.14,19.52,-54.96,2609,-6524,4376,17,7,2
-150.16,19.32,-54.45,2536,-6483,4415,18,5,3
-150.23,19.12,-53.95,2470,-6409,4453,17,3,4
-150.30,18.91,-53.41,2471,-6288,4550,18,4,5
-150.39,18.68,-52.92,2462,-6144,4787,13,4,6
-150.52,18.45,-52.64,2469,-6098,4899,5,4,6
-150.67,18.21,-52.48,2534,-6245,4936,5,4,7
-150.87,17.93,-52.32,2584,-6397,4878,6,6,8
-151.03,17.60,-52.04,2556,-6454,4881,11,9,7
-151.17,17.27,-51.66,2471,-6375,4936,12,9,7
-151.31,16.91,-51.28,2402,-6235,5001,11,11,6
-151.42,16.59,-50.92,2335,-6144,5108,9,8,6
-151.55,16.30,-50.66,2305,-6115,5065,8,8,5
-151.66,16.02,-50.37,2174,-6110,5135,9,6,5
-151.78,15.79,-50.06,2092,-6093,5171,9,3,5
-151.90,15.60,-49.80,2118,-6061,5194,10,3,6
-152.05,15.41,-49.57,2136,-6041,5239,6,1,6
-152.20,15.26,-49.41,2145,-6063,5267,6,0,6
-152.36,15.13,-49.28,2177,-6099,5287,4,-1,5
-152.46,15.03,-49.14,2176,-6091,5379,5,-1,4
-152.55,14.96,-49.00,2175,-6050,5347,5,0,3
-152.61,14.88,-48.86,2186,-5981,5348,4,1,2
-152.66,14.81,-48.73,2184,-5926,5343,4,1,3
-152.73,14.71,-48.64,2155,-5858,5364,1,1,3
-152.78,14.66,-48.62,2166,-5864,5358,-1,-1,2
-152.85,14.62,-48.63,2144,-5910,5304,0,-1,2
-152.91,14.56,-48.60,2122,-5887,5326,1,0,2
-152.97,14.51,-48.62,2163,-5887,5322,-3,0,2
-153.04,14.48,-48.72,2185,-6022,5332,-3,-1,2
-153.09,14.43,-48.76,2157,-6081,5283,-1,1,2
-153.16,14.36,-48.78,2129,-6109,5266,-1,1,2
-153.22,14.26,-48.79,2103,-6137,5239,0,3,2
-153.30,14.13,-48.78,2042,-6189,5173,1,3,3
-153.39,13.98,-48.74,1981,-6268,5131,3,3,3
-153.47,13.84,-48.63,1987,-6286,5113,6,3,3
-153.55,13.68,-48.48,2003,-6305,5170,6,3,4
-153.63,13.53,-48.30,1938,-6323,5213,8,3,3
-153.68,13.39,-48.04,1828,-6267,5266,10,2,2
-153.70,13.30,-47.75,1837,-6237,5296,11,1,1
-153.68,13.23,-47.39,1796,-6266,5311,16,1,1
-153.66,13.20,-46.92,1805,-6227,5389,18,-2,0
-153.58,13.22,-46.37,1890,-6104,5437,21,-1,-1
-153.45,13.27,-45.77,1938,-6006,5538,20,-1,-3
-153.28,13.38,-45.23,1912,-5937,5546,19,-2,-5
-153.10,13.49,-44.59,1926,-5794,5657,23,-2,-4
-152.92,13.65,-43.91,2033,-5717,5846,21,-6,-4
-152.77,13.81,-43.21,1861,-5789,5775,31,-5,-4
-152.67,13.95,-42.35,1922,-5474,6136,24,-10,0
-152.62,14.15,-41.72,2069,-5502,6077,27,-9,0
-152.56,14.32,-40.96,2113,-5635,6048,29,-6,-1
-152.54,14.27,-40.08,1878,-5407,5972,37,0,1
-152.47,14.25,-39.20,2152,-4992,6234,22,1,1
-152.36,14.24,-38.57,2074,-4976,6220,19,2,-4
-152.27,14.17,-37.89,1825,-4771,6216,25,4,0
-152.19,14.12,-37.32,1934,-4221,6470,8,0,-3
-152.03,14.20,-37.21,2049,-4111,6392,-8,2,-5
-151.88,14.20,-37.36,2083,-4118,6087,-7,6,-6
-151.70,14.12,-37.37,1958,-4065,6157,-2,9,-4
-151.76,13.95,-37.57,1927,-3894,6447,-22,1,5
-151.96,13.78,-38.25,2065,-4125,6099,-25,7,5
