Yaw,Pitch,Roll,AX,AY,AZ,GX,GY,GZ
74.43,-177.56,-115.21,-357,-7618,-3571,-1,-1,0
74.44,-177.57,-115.21,-361,-7610,-3571,-1,0,-1
74.44,-177.57,-115.23,-358,-7615,-3589,-1,0,-1
74.44,-177.57,-115.23,-358,-7619,-3607,-1,0,-1
74.44,-177.57,-115.23,-358,-7619,-3613,0,0,0
74.44,-177.57,-115.23,-357,-7616,-3615,0,0,0
74.44,-177.57,-115.23,-357,-7613,-3602,0,-1,0
74.44,-177.57,-115.23,-355,-7614,-3600,0,0,-1
74.42,-177.57,-115.22,-355,-7615,-3591,-1,0,-1
74.44,-177.57,-115.22,-355,-7616,-3582,-1,0,-1
74.42,-177.57,-115.22,-357,-7616,-3594,-1,0,0
74.44,-177.57,-115.23,-359,-7614,-3595,-1,0,-1
74.44,-177.58,-115.24,-362,-7620,-3599,-1,0,-1
74.44,-177.58,-115.24,-361,-7628,-3609,-1,0,-1
74.44,-177.58,-115.24,-355,-7620,-3609,0,0,-1
74.44,-177.58,-115.24,-358,-7621,-3609,-1,0,-1
74.44,-177.58,-115.24,-357,-7613,-3600,0,-1,-1
74.45,-177.59,-115.25,-355,-7612,-3605,-1,0,0
74.43,-177.59,-115.25,-349,-7621,-3600,-1,0,0
74.43,-177.59,-115.25,-355,-7617,-3610,-1,0,0
74.45,-177.59,-115.26,-355,-7621,-3621,0,0,-1
74.43,-177.59,-115.25,-356,-7615,-3606,-1,0,0
74.43,-177.59,-115.25,-356,-7618,-3607,0,0,-1
74.43,-177.59,-115.25,-362,-7618,-3594,-1,0,-1
74.41,-177.59,-115.25,-362,-7624,-3604,0,0,-1
74.43,-177.60,-115.26,-347,-7613,-3600,-1,0,-1
74.42,-177.60,-115.27,-344,-7618,-3600,-1,0,-1
74.44,-177.60,-115.28,-349,-7614,-3614,0,0,-1
74.44,-177.60,-115.28,-354,-7618,-3602,-1,0,-1
74.42,-177.61,-115.29,-352,-7620,-3608,-1,0,-1
74.43,-177.61,-115.29,-350,-7618,-3608,-1,0,-1
74.43,-177.61,-115.29,-345,-7618,-3604,-1,0,-1
74.43,-177.62,-115.29,-348,-7615,-3608,-1,0,0
74.44,-177.61,-115.30,-355,-7618,-3614,-1,0,-1
74.44,-177.61,-115.30,-360,-7611,-3616,0,0,-1
74.44,-177.61,-115.30,-356,-7611,-3612,-1,0,-1
74.44,-177.61,-115.30,-354,-7611,-3600,-1,0,-1
74.44,-177.62,-115.30,-354,-7607,-3608,-1,0,-1
74.43,-177.62,-115.31,-348,-7606,-3609,-1,-1,0
74.43,-177.62,-115.31,-340,-7603,-3609,0,-1,0
74.44,-177.61,-115.31,-352,-7610,-3612,-1,-1,0
74.44,-177.61,-115.31,-351,-7611,-3601,-1,0,-1
74.44,-177.62,-115.31,-352,-7610,-3604,-1,0,-1
74.45,-177.62,-115.32,-351,-7605,-3613,-1,0,-1
74.45,-177.62,-115.32,-349,-7606,-3611,-1,0,-1
74.45,-177.62,-115.32,-346,-7607,-3606,0,0,-1
74.45,-177.62,-115.32,-355,-7606,-3598,0,-1,0
74.46,-177.62,-115.31,-348,-7607,-3600,0,-1,0
74.46,-177.61,-115.31,-335,-7601,-3586,-1,-1,0
74.46,-177.61,-115.32,-338,-7606,-3609,-1,0,0
74.46,-177.61,-115.32,-341,-7605,-3610,-1,0,0
74.46,-177.61,-115.33,-350,-7607,-3619,-1,0,-1
74.46,-177.61,-115.33,-354,-7609,-3615,0,-1,0
74.47,-177.61,-115.32,-354,-7612,-3611,0,-1,0
74.46,-177.61,-115.31,-353,-7613,-3618,0,-1,0
74.45,-177.60,-115.31,-350,-7615,-3606,0,-1,0
74.45,-177.60,-115.31,-352,-7616,-3609,0,-1,-1
74.47,-177.61,-115.31,-347,-7613,-3615,-1,0,-1
74.47,-177.60,-115.31,-347,-7605,-3613,-1,-1,-1
74.47,-177.60,-115.32,-344,-7605,-3617,-1,0,0
74.47,-177.61,-115.32,-344,-7612,-3615,-1,0,-1
74.47,-177.61,-115.32,-351,-7617,-3620,-1,0,-1
74.47,-177.61,-115.32,-349,-7608,-3614,-1,-1,-1
74.49,-177.61,-115.32,-350,-7614,-3610,0,-1,0
74.49,-177.61,-115.32,-346,-7603,-3606,-1,-1,-1
74.49,-177.61,-115.32,-348,-7601,-3613,-1,-1,0
74.49,-177.61,-115.32,-348,-7603,-3616,0,-1,0
74.49,-177.60,-115.33,-344,-7611,-3628,0,-1,0
74.49,-177.60,-115.33,-356,-7612,-3626,0,-1,0
74.50,-177.60,-115.32,-369,-7615,-3618,0,-1,0
74.50,-177.59,-115.31,-364,-7617,-3605,0,0,0
74.48,-177.60,-115.31,-356,-7612,-3605,0,0,-1
74.49,-177.60,-115.31,-351,-7609,-3617,-1,-1,-1
74.50,-177.60,-115.32,-351,-7610,-3611,-1,0,0
74.50,-177.60,-115.32,-349,-7609,-3615,0,0,0
74.50,-177.60,-115.32,-345,-7614,-3607,-1,0,0
74.50,-177.60,-115.32,-333,-7615,-3615,-1,0,-1
74.50,-177.60,-115.33,-345,-7609,-3617,-1,0,0
74.50,-177.60,-115.33,-348,-7608,-3622,0,-1,0
74.50,-177.60,-115.33,-349,-7613,-3623,0,-1,0
74.50,-177.60,-115.33,-353,-7613,-3616,0,-1,0
74.50,-177.60,-115.33,-352,-7610,-3612,0,-1,0
74.50,-177.59,-115.33,-351,-7612,-3616,0,-1,0
74.50,-177.59,-115.33,-348,-7611,-3605,-1,-1,0
74.50,-177.59,-115.33,-354,-7619,-3607,0,0,-1
74.51,-177.60,-115.32,-348,-7618,-3603,-1,-1,0
74.51,-177.60,-115.32,-346,-7615,-3603,0,0,0
74.51,-177.59,-115.32,-348,-7617,-3604,-1,-1,0
74.51,-177.59,-115.32,-349,-7612,-3607,0,-1,0
74.51,-177.59,-115.32,-353,-7606,-3597,-1,-1,0
74.51,-177.59,-115.32,-354,-7606,-3599,0,-1,0
74.51,-177.58,-115.31,-356,-7608,-3606,-1,-1,0
74.51,-177.58,-115.32,-350,-7610,-3613,-1,0,0
74.51,-177.59,-115.33,-351,-7608,-3605,-1,-1,-1
74.51,-177.59,-115.33,-350,-7613,-3603,-1,0,0
74.51,-177.59,-115.33,-357,-7614,-3614,0,-1,0
74.51,-177.58,-115.32,-354,-7609,-3615,0,-1,0
74.53,-177.57,-115.32,-355,-7601,-3603,0,-1,0
74.53,-177.57,-115.31,-356,-7612,-3604,-1,-1,0
74.53,-177.57,-115.31,-355,-7600,-3597,-1,0,0
74.53,-177.56,-115.32,-352,-7616,-3615,-1,0,-1
74.53,-177.57,-115.33,-349,-7619,-3620,-1,-1,0
74.53,-177.57,-115.33,-356,-7613,-3614,0,-1,0
74.53,-177.57,-115.31,-354,-7613,-3616,0,-1,0
74.53,-177.56,-115.31,-358,-7608,-3609,0,-1,0
74.53,-177.56,-115.30,-357,-7608,-3601,0,0,-1
74.53,-177.56,-115.30,-352,-7614,-3600,-1,-1,-1
74.53,-177.57,-115.30,-352,-7612,-3600,-1,-1,-1
74.53,-177.57,-115.30,-354,-7615,-3590,-1,-1,-1
74.55,-177.56,-115.30,-357,-7613,-3586,-1,-1,-1
74.55,-177.56,-115.30,-357,-7608,-3587,-1,0,-1
74.55,-177.56,-115.30,-357,-7604,-3593,-1,-1,-1
74.55,-177.56,-115.30,-351,-7612,-3600,0,-1,-1
74.53,-177.57,-115.30,-349,-7606,-3602,0,-1,0
74.55,-177.56,-115.29,-351,-7603,-3588,0,-1,0
74.54,-177.55,-115.28,-350,-7607,-3590,0,-1,0
74.54,-177.55,-115.28,-348,-7620,-3600,-1,-1,0
74.56,-177.55,-115.28,-353,-7624,-3605,-1,-1,0
74.56,-177.55,-115.28,-364,-7624,-3623,-1,-1,0
74.57,-177.54,-115.29,-367,-7624,-3614,-1,0,-1
74.56,-177.55,-115.29,-363,-7619,-3602,0,0,-1
74.56,-177.56,-115.29,-360,-7609,-3597,-1,0,-1
74.56,-177.56,-115.29,-353,-7611,-3599,-1,0,-1
74.55,-177.56,-115.30,-351,-7601,-3604,-1,0,-1
74.56,-177.56,-115.31,-351,-7599,-3599,-1,0,-1
74.56,-177.56,-115.31,-348,-7605,-3611,0,-1,0
74.56,-177.56,-115.31,-349,-7603,-3609,0,-1,0
74.58,-177.56,-115.30,-336,-7600,-3600,0,-1,0
74.58,-177.55,-115.30,-342,-7604,-3598,0,-1,0
74.57,-177.55,-115.29,-349,-7611,-3599,0,-1,0
74.58,-177.53,-115.29,-359,-7616,-3603,-1,-1,0
74.58,-177.53,-115.29,-362,-7622,-3599,-1,-1,0
74.58,-177.53,-115.28,-371,-7616,-3601,0,0,0
74.58,-177.53,-115.28,-366,-7612,-3603,0,-1,-1
74.58,-177.52,-115.28,-361,-7611,-3599,-1,-1,0
74.59,-177.51,-115.28,-367,-7622,-3607,0,-1,0
74.59,-177.51,-115.28,-369,-7620,-3617,0,-1,0
74.59,-177.51,-115.28,-362,-7614,-3609,-1,0,-1
74.59,-177.51,-115.28,-364,-7621,-3609,0,-1,0
74.60,-177.51,-115.27,-365,-7613,-3603,0,-1,-1
74.60,-177.51,-115.27,-360,-7607,-3602,0,-1,0
74.60,-177.50,-115.26,-369,-7610,-3597,0,-1,0
74.58,-177.50,-115.26,-362,-7608,-3582,-1,0,0
74.58,-177.50,-115.26,-356,-7618,-3591,0,0,-1
74.60,-177.51,-115.26,-352,-7624,-3589,0,0,0
74.60,-177.51,-115.25,-353,-7618,-3594,0,-1,-1
74.59,-177.51,-115.25,-358,-7616,-3597,0,-1,0
74.62,-177.50,-115.25,-366,-7617,-3591,-1,-1,0
74.60,-177.50,-115.25,-367,-7611,-3593,-1,0,-1
74.61,-177.51,-115.26,-361,-7611,-3606,-1,0,-1
74.62,-177.52,-115.27,-357,-7607,-3613,-1,0,-1
74.61,-177.53,-115.27,-352,-7610,-3615,0,0,0
74.61,-177.51,-115.26,-362,-7607,-3603,0,-1,0
74.61,-177.52,-115.25,-358,-7605,-3589,0,-1,-1
74.61,-177.52,-115.24,-359,-7611,-3576,0,0,-1
74.59,-177.52,-115.23,-361,-7616,-3577,0,0,-1
74.61,-177.52,-115.24,-363,-7611,-3582,-1,-1,0
74.61,-177.52,-115.24,-370,-7615,-3583,-1,-1,0
74.60,-177.51,-115.24,-369,-7611,-3588,-1,-1,0
74.61,-177.51,-115.25,-369,-7615,-3600,-1,0,-1
74.61,-177.52,-115.25,-371,-7625,-3608,-1,0,-1
74.61,-177.52,-115.25,-367,-7624,-3608,-1,-1,-1
74.62,-177.53,-115.26,-357,-7617,-3614,-1,0,-1
74.62,-177.53,-115.26,-354,-7616,-3611,0,0,-1
74.62,-177.53,-115.26,-358,-7604,-3602,-1,0,-1
74.62,-177.53,-115.26,-358,-7604,-3601,0,0,0
74.62,-177.53,-115.26,-357,-7604,-3608,0,-1,0
74.60,-177.53,-115.27,-358,-7612,-3612,0,0,0
74.60,-177.53,-115.25,-362,-7622,-3609,0,-1,0
74.60,-177.53,-115.25,-362,-7625,-3609,0,-1,0
74.59,-177.52,-115.25,-361,-7620,-3604,0,0,-1
74.59,-177.52,-115.25,-357,-7618,-3596,-1,0,-1
74.60,-177.52,-115.25,-358,-7615,-3597,-1,-1,-1
74.60,-177.53,-115.25,-351,-7618,-3598,-1,0,-1
74.60,-177.53,-115.25,-356,-7617,-3596,-1,-1,-1
74.60,-177.54,-115.26,-357,-7612,-3598,-1,0,-1
74.62,-177.54,-115.27,-356,-7619,-3614,-1,0,-1
74.62,-177.54,-115.27,-355,-7619,-3610,-1,0,-1
74.62,-177.54,-115.27,-358,-7616,-3612,-1,0,-1
74.62,-177.54,-115.27,-359,-7616,-3610,0,0,-1
74.62,-177.54,-115.27,-350,-7614,-3611,-1,0,-1
74.63,-177.55,-115.28,-347,-7618,-3600,-1,0,-1
74.63,-177.55,-115.28,-356,-7619,-3607,-1,-1,0
74.61,-177.55,-115.27,-352,-7620,-3600,0,-1,0
74.61,-177.54,-115.27,-351,-7613,-3593,0,-1,0
74.60,-177.54,-115.26,-362,-7609,-3594,0,-1,0
74.62,-177.53,-115.25,-357,-7609,-3587,0,-1,0
74.62,-177.53,-115.23,-356,-7607,-3572,0,-1,0
74.63,-177.52,-115.23,-359,-7623,-3606,0,-1,0
74.61,-177.52,-115.24,-369,-7622,-3586,-1,0,0
74.61,-177.52,-115.26,-367,-7638,-3632,0,0,-1
74.60,-177.53,-115.25,-368,-7627,-3609,-1,0,-1
74.59,-177.54,-115.26,-350,-7608,-3601,-1,0,-1
74.61,-177.55,-115.26,-354,-7603,-3593,0,0,0
74.59,-177.54,-115.26,-356,-7605,-3599,-1,0,-1
74.59,-177.54,-115.26,-356,-7616,-3589,-1,-1,0
74.60,-177.54,-115.26,-369,-7624,-3612,0,0,-1
74.59,-177.55,-115.26,-347,-7619,-3606,-1,0,-1
74.58,-177.56,-115.26,-350,-7621,-3619,0,0,0
74.57,-177.56,-115.26,-345,-7613,-3610,-1,-1,-1
74.57,-177.56,-115.26,-346,-7619,-3621,0,-1,0
74.57,-177.56,-115.24,-354,-7610,-3593,0,0,-1
74.57,-177.56,-115.24,-354,-7621,-3608,-1,0,0
74.57,-177.56,-115.24,-358,-7625,-3596,0,0,-1
74.59,-177.57,-115.25,-351,-7632,-3598,-1,0,-1
74.58,-177.58,-115.25,-341,-7624,-3600,-1,0,-1
74.58,-177.58,-115.25,-340,-7621,-3584,-1,-1,-1
74.60,-177.58,-115.26,-346,-7601,-3576,-1,-1,0
74.59,-177.58,-115.27,-353,-7602,-3577,-1,-1,0
74.61,-177.58,-115.28,-354,-7613,-3597,-1,0,-1
74.61,-177.58,-115.28,-344,-7620,-3593,0,-1,-1
74.61,-177.58,-115.28,-349,-7621,-3603,-1,-1,0
74.61,-177.58,-115.28,-349,-7614,-3602,-1,-1,0
74.61,-177.58,-115.29,-360,-7621,-3613,-1,0,-1
74.63,-177.58,-115.30,-361,-7610,-3615,-1,0,-1
74.61,-177.58,-115.31,-356,-7606,-3608,-1,0,-1
74.63,-177.59,-115.31,-346,-7607,-3609,0,0,-1
74.62,-177.60,-115.31,-337,-7599,-3599,-1,0,-1
74.62,-177.60,-115.31,-333,-7598,-3605,0,0,0
74.61,-177.60,-115.30,-340,-7606,-3605,0,0,0
74.61,-177.60,-115.30,-348,-7602,-3607,-1,-1,0
74.62,-177.60,-115.31,-354,-7608,-3601,-1,0,0
74.60,-177.60,-115.31,-349,-7611,-3605,-1,0,-1
74.60,-177.60,-115.31,-348,-7618,-3608,-1,0,-1
74.59,-177.61,-115.32,-348,-7621,-3610,-1,0,-1
74.60,-177.62,-115.32,-342,-7622,-3607,-1,0,-1
74.60,-177.62,-115.32,-338,-7612,-3608,-1,0,-1
74.60,-177.62,-115.33,-346,-7606,-3603,0,0,-1
74.60,-177.62,-115.33,-345,-7606,-3608,0,0,-1
74.59,-177.63,-115.33,-340,-7607,-3607,-1,0,0
74.59,-177.63,-115.33,-344,-7607,-3603,0,0,-1
74.59,-177.63,-115.33,-350,-7611,-3605,0,-1,0
74.58,-177.62,-115.32,-355,-7611,-3602,-1,0,0
74.59,-177.63,-115.32,-347,-7614,-3613,-1,0,-1
74.58,-177.62,-115.33,-354,-7614,-3621,-1,0,-1
74.58,-177.63,-115.33,-348,-7618,-3615,0,0,-1
74.59,-177.63,-115.34,-351,-7616,-3625,-1,0,-1
74.57,-177.64,-115.34,-343,-7608,-3610,-1,0,0
74.57,-177.64,-115.34,-344,-7618,-3619,0,0,-1
74.57,-177.63,-115.33,-350,-7606,-3608,0,0,0
74.57,-177.63,-115.33,-353,-7600,-3598,-1,-1,0
74.59,-177.63,-115.34,-349,-7606,-3609,-1,0,-1
74.57,-177.64,-115.35,-344,-7609,-3616,-1,0,-1
74.57,-177.64,-115.35,-341,-7617,-3618,0,0,0
74.57,-177.64,-115.35,-340,-7616,-3614,0,-1,0
74.57,-177.64,-115.35,-345,-7606,-3607,0,-1,0
74.57,-177.63,-115.34,-354,-7606,-3605,0,-1,0
74.57,-177.63,-115.34,-356,-7621,-3601,0,0,-1
74.57,-177.63,-115.34,-352,-7625,-3607,0,0,-1
74.57,-177.63,-115.34,-348,-7614,-3594,0,-1,0
74.55,-177.63,-115.34,-354,-7614,-3584,0,-1,0
74.57,-177.63,-115.34,-352,-7610,-3591,-1,-1,-1
74.57,-177.63,-115.34,-347,-7603,-3600,-1,0,-1
74.56,-177.63,-115.35,-342,-7599,-3615,-1,0,-1
74.57,-177.63,-115.36,-344,-7606,-3616,-1,0,-1
74.57,-177.63,-115.36,-343,-7616,-3616,0,-1,0
74.57,-177.64,-115.35,-343,-7623,-3621,0,-1,-1
74.57,-177.64,-115.35,-350,-7611,-3597,-1,-1,-1
74.59,-177.64,-115.36,-345,-7598,-3594,-1,0,-1
74.59,-177.64,-115.37,-349,-7606,-3609,-1,0,-1
74.59,-177.64,-115.38,-346,-7612,-3636,-1,0,-1
74.59,-177.63,-115.38,-348,-7607,-3638,0,-1,0
74.58,-177.63,-115.37,-355,-7602,-3626,0,-1,0
74.58,-177.62,-115.37,-366,-7599,-3614,-1,-1,0
74.58,-177.62,-115.37,-353,-7612,-3608,0,0,-1
74.58,-177.63,-115.36,-339,-7610,-3598,0,0,-1
74.57,-177.63,-115.36,-338,-7597,-3602,0,-1,0
74.58,-177.63,-115.36,-343,-7600,-3607,-1,-1,0
74.59,-177.61,-115.37,-355,-7615,-3609,0,-1,0
74.59,-177.60,-115.36,-360,-7617,-3617,0,-1,0
74.57,-177.61,-115.34,-361,-7615,-3613,0,0,-1
74.57,-177.60,-115.34,-355,-7609,-3605,0,-1,0
74.58,-177.60,-115.33,-345,-7611,-3614,0,-1,0
74.56,-177.59,-115.33,-355,-7599,-3610,0,-1,0
74.56,-177.58,-115.32,-354,-7593,-3594,-1,-1,0
74.58,-177.59,-115.33,-354,-7611,-3619,-1,0,-1
74.58,-177.59,-115.34,-350,-7618,-3623,0,0,-1
74.57,-177.59,-115.33,-344,-7619,-3611,0,0,-1
74.57,-177.60,-115.32,-346,-7617,-3616,0,-1,0
74.56,-177.59,-115.31,-349,-7611,-3603,0,-1,0
74.56,-177.59,-115.31,-359,-7614,-3598,0,-1,0
74.58,-177.58,-115.30,-359,-7618,-3597,0,-1,0
74.57,-177.58,-115.30,-351,-7612,-3587,-1,-1,0
74.57,-177.58,-115.30,-352,-7607,-3596,0,-1,0
74.57,-177.57,-115.31,-350,-7615,-3597,-1,-1,0
74.57,-177.57,-115.30,-355,-7618,-3603,0,-1,0
74.57,-177.57,-115.30,-356,-7611,-3602,0,-1,0
74.57,-177.56,-115.30,-358,-7609,-3601,0,-1,0
74.58,-177.56,-115.29,-361,-7611,-3592,0,-1,0
74.58,-177.55,-115.28,-361,-7610,-3589,-1,-1,0
74.56,-177.55,-115.29,-357,-7610,-3590,-1,0,0
74.58,-177.55,-115.30,-356,-7610,-3600,-1,0,-1
74.56,-177.56,-115.30,-357,-7612,-3607,-1,0,-1
74.56,-177.56,-115.30,-355,-7617,-3613,0,-1,0
74.56,-177.55,-115.30,-363,-7613,-3607,0,-1,0
74.57,-177.55,-115.30,-352,-7601,-3597,0,-1,0
74.57,-177.55,-115.30,-354,-7602,-3596,0,0,-1
74.56,-177.56,-115.29,-354,-7612,-3597,0,0,0
74.56,-177.55,-115.29,-351,-7618,-3605,0,-1,0
74.56,-177.55,-115.28,-357,-7613,-3595,0,-1,0
74.56,-177.55,-115.28,-364,-7609,-3604,0,-1,-1
74.55,-177.54,-115.28,-369,-7609,-3601,0,0,-1
74.55,-177.54,-115.28,-370,-7616,-3593,0,-1,-1
74.57,-177.54,-115.29,-369,-7610,-3599,0,-1,0
74.56,-177.55,-115.28,-363,-7607,-3602,0,-1,0
74.57,-177.54,-115.29,-362,-7615,-3601,-1,-1,0
74.58,-177.54,-115.29,-359,-7611,-3595,-1,-1,0
74.57,-177.54,-115.29,-363,-7611,-3593,-1,0,-1
74.57,-177.54,-115.30,-359,-7616,-3594,-1,0,0
74.57,-177.54,-115.30,-346,-7613,-3590,-1,-1,0
74.57,-177.54,-115.30,-350,-7608,-3597,0,-1,0
74.57,-177.54,-115.29,-350,-7610,-3599,0,-1,0
74.57,-177.54,-115.29,-350,-7603,-3601,0,-1,0
74.56,-177.53,-115.29,-367,-7616,-3602,0,-1,0
74.57,-177.54,-115.28,-365,-7623,-3596,0,-1,0
74.56,-177.53,-115.27,-357,-7619,-3598,0,-1,0
74.56,-177.53,-115.27,-361,-7607,-3587,0,0,-1
74.57,-177.53,-115.28,-354,-7598,-3591,-1,0,0
74.57,-177.54,-115.28,-354,-7603,-3584,-1,-1,0
74.57,-177.54,-115.28,-360,-7601,-3587,-1,-1,0
74.56,-177.53,-115.29,-371,-7617,-3588,-1,-1,0
74.58,-177.53,-115.28,-364,-7639,-3582,0,-1,-1
74.58,-177.53,-115.27,-347,-7626,-3585,0,-1,0
74.57,-177.52,-115.28,-361,-7584,-3579,-1,-1,0
74.59,-177.52,-115.29,-357,-7585,-3573,-1,-1,0
74.60,-177.51,-115.31,-376,-7625,-3622,-1,0,0
74.58,-177.51,-115.30,-367,-7622,-3630,0,0,-1
74.59,-177.52,-115.29,-354,-7600,-3613,0,-1,0
74.58,-177.51,-115.30,-352,-7619,-3615,0,-1,0
74.58,-177.50,-115.29,-361,-7624,-3608,0,-1,0
74.58,-177.50,-115.29,-357,-7616,-3613,0,0,0
74.58,-177.50,-115.29,-364,-7599,-3611,0,0,-1
74.58,-177.50,-115.29,-360,-7609,-3614,0,-1,0
74.58,-177.50,-115.29,-370,-7619,-3610,0,-1,0
74.58,-177.49,-115.27,-374,-7625,-3595,0,-1,0
74.59,-177.48,-115.26,-373,-7613,-3581,0,-1,0
74.59,-177.48,-115.26,-371,-7615,-3586,0,-1,0
74.59,-177.48,-115.27,-372,-7607,-3580,-1,0,-1
74.59,-177.49,-115.28,-364,-7617,-3600,-1,0,-1
74.59,-177.50,-115.28,-363,-7620,-3622,0,0,-1
74.60,-177.50,-115.27,-355,-7623,-3622,0,-1,0
74.59,-177.49,-115.27,-373,-7614,-3627,0,-1,0
74.57,-177.49,-115.24,-362,-7612,-3603,0,-1,0
74.57,-177.48,-115.22,-372,-7609,-3585,0,0,-1
74.57,-177.48,-115.21,-356,-7607,-3573,0,0,0
74.55,-177.47,-115.21,-373,-7608,-3580,0,0,-1
74.56,-177.49,-115.21,-371,-7622,-3594,0,0,-1
74.54,-177.49,-115.20,-376,-7616,-3572,-1,0,-1
74.55,-177.51,-115.20,-352,-7627,-3584,0,0,0
74.54,-177.50,-115.19,-363,-7623,-3588,0,0,-1
74.54,-177.51,-115.20,-359,-7612,-3594,0,-1,0
74.55,-177.50,-115.19,-366,-7606,-3568,0,-1,-1
74.54,-177.51,-115.18,-367,-7606,-3566,-1,-1,0
74.55,-177.50,-115.19,-370,-7603,-3576,-1,0,0
74.55,-177.50,-115.19,-366,-7614,-3584,-1,0,0
74.53,-177.50,-115.19,-373,-7623,-3591,-1,-1,0
74.55,-177.49,-115.19,-370,-7626,-3598,0,-1,0
74.54,-177.49,-115.19,-368,-7616,-3588,0,-1,0
74.54,-177.48,-115.18,-370,-7618,-3579,0,-1,0
74.56,-177.48,-115.18,-364,-7617,-3577,0,-1,-1
74.56,-177.48,-115.18,-362,-7614,-3567,-1,-1,0
74.56,-177.48,-115.18,-368,-7624,-3574,-1,-1,-1
74.56,-177.49,-115.18,-365,-7620,-3576,-1,0,-1
74.58,-177.49,-115.19,-372,-7615,-3578,-1,0,-1
74.58,-177.49,-115.19,-366,-7616,-3571,-1,-1,-1
74.58,-177.49,-115.19,-367,-7610,-3571,0,0,-1
74.56,-177.49,-115.20,-369,-7609,-3566,-1,0,-1
74.58,-177.50,-115.21,-374,-7614,-3582,-1,0,-1
74.56,-177.50,-115.21,-376,-7610,-3591,-1,0,-1
74.58,-177.50,-115.23,-373,-7609,-3597,-1,0,-1
74.59,-177.51,-115.23,-365,-7601,-3589,-1,0,-1
74.57,-177.50,-115.24,-367,-7601,-3582,-1,0,-1
74.57,-177.50,-115.24,-371,-7604,-3589,0,-1,-1
74.57,-177.50,-115.24,-369,-7613,-3597,-1,-1,0
74.57,-177.50,-115.24,-370,-7621,-3599,-1,0,-1
74.57,-177.51,-115.24,-372,-7626,-3604,-1,0,-1
74.57,-177.51,-115.24,-368,-7620,-3596,-1,0,-1
74.59,-177.51,-115.25,-362,-7610,-3589,-1,0,-1
74.59,-177.52,-115.26,-357,-7611,-3602,-1,0,-1
74.58,-177.52,-115.26,-355,-7615,-3604,-1,0,-1
74.58,-177.52,-115.26,-357,-7616,-3599,-1,-1,-1
74.58,-177.53,-115.26,-358,-7618,-3596,0,-1,0
74.58,-177.53,-115.26,-357,-7609,-3586,0,-1,0
74.58,-177.53,-115.26,-361,-7605,-3582,-1,0,-1
74.60,-177.53,-115.26,-356,-7599,-3589,-1,0,-1
74.58,-177.53,-115.27,-367,-7604,-3601,-1,0,-1
74.58,-177.53,-115.27,-368,-7608,-3601,-1,0,0
74.58,-177.53,-115.27,-366,-7609,-3605,-1,0,0
74.58,-177.53,-115.27,-363,-7611,-3608,0,0,0
74.58,-177.53,-115.27,-360,-7617,-3605,0,-1,0
74.58,-177.53,-115.27,-360,-7618,-3602,0,-1,0
74.58,-177.52,-115.26,-367,-7610,-3591,-1,-1,0
74.56,-177.53,-115.26,-366,-7608,-3587,0,0,0
74.58,-177.53,-115.27,-371,-7617,-3600,-1,0,-1
74.58,-177.53,-115.27,-365,-7612,-3591,-1,0,-1
74.58,-177.53,-115.29,-358,-7617,-3594,-1,0,-1
74.58,-177.54,-115.29,-353,-7612,-3602,-1,0,-1
74.57,-177.54,-115.29,-355,-7614,-3603,0,-1,0
74.59,-177.54,-115.28,-360,-7611,-3602,0,-1,0
74.59,-177.54,-115.28,-367,-7605,-3604,0,-1,0
74.59,-177.54,-115.28,-364,-7602,-3597,0,-1,0
74.59,-177.54,-115.28,-366,-7607,-3599,-1,-1,0
74.60,-177.53,-115.28,-369,-7615,-3595,-1,-1,0
74.60,-177.53,-115.28,-372,-7618,-3606,-1,-1,0
74.58,-177.53,-115.28,-375,-7619,-3596,-1,0,-1
74.60,-177.54,-115.29,-363,-7614,-3591,-1,0,-1
74.60,-177.54,-115.29,-357,-7616,-3590,-1,0,-1
74.59,-177.54,-115.28,-357,-7615,-3597,0,0,-1
74.59,-177.54,-115.28,-362,-7617,-3601,0,0,-1
74.59,-177.54,-115.28,-356,-7616,-3586,0,-1,0
74.59,-177.54,-115.28,-351,-7602,-3585,-1,0,0
74.59,-177.54,-115.28,-350,-7598,-3579,-1,0,0
74.57,-177.54,-115.28,-354,-7613,-3583,0,0,0
74.57,-177.54,-115.27,-359,-7614,-3580,-1,-1,0
74.58,-177.53,-115.27,-357,-7617,-3591,0,-1,0
74.57,-177.54,-115.27,-364,-7618,-3598,0,-1,0
74.58,-177.53,-115.27,-369,-7615,-3599,0,-1,-1
74.58,-177.53,-115.27,-372,-7605,-3596,-1,0,0
74.58,-177.53,-115.27,-367,-7606,-3592,-1,0,-1
74.58,-177.54,-115.28,-361,-7616,-3594,-1,0,-1
74.59,-177.54,-115.28,-362,-7617,-3594,-1,0,-1
74.59,-177.54,-115.28,-361,-7615,-3608,-1,0,-1
74.57,-177.54,-115.29,-360,-7610,-3611,0,0,-1
74.59,-177.54,-115.30,-366,-7606,-3604,-1,0,0
74.57,-177.55,-115.29,-360,-7604,-3598,-1,0,0
74.57,-177.55,-115.29,-355,-7609,-3599,-1,0,-1
74.57,-177.54,-115.30,-359,-7618,-3598,-1,0,-1
74.57,-177.55,-115.29,-360,-7624,-3593,-1,0,0
74.57,-177.54,-115.30,-369,-7620,-3604,0,0,0
74.56,-177.54,-115.29,-365,-7616,-3596,0,0,-1
74.56,-177.54,-115.29,-363,-7608,-3588,-1,0,0
74.56,-177.54,-115.29,-369,-7603,-3588,0,-1,0
74.56,-177.54,-115.29,-359,-7613,-3593,-1,-1,0
74.57,-177.54,-115.30,-358,-7616,-3600,-1,-1,0
74.57,-177.54,-115.30,-357,-7611,-3607,-1,0,-1
74.57,-177.55,-115.32,-358,-7612,-3608,-1,0,-1
74.58,-177.55,-115.32,-357,-7616,-3617,-1,0,-1
74.59,-177.55,-115.33,-350,-7620,-3621,-1,0,-1
74.59,-177.55,-115.33,-352,-7616,-3622,0,0,0
74.58,-177.56,-115.33,-356,-7615,-3609,0,0,0
74.58,-177.56,-115.33,-358,-7613,-3593,0,0,-1
74.56,-177.56,-115.32,-356,-7608,-3592,0,0,-1
74.56,-177.56,-115.32,-359,-7613,-3589,-1,0,-1
74.56,-177.56,-115.32,-360,-7611,-3591,-1,0,-1
74.56,-177.56,-115.32,-361,-7614,-3583,-1,0,0
74.56,-177.56,-115.32,-367,-7612,-3594,-1,0,-1
74.55,-177.57,-115.33,-357,-7606,-3590,-1,0,-1
74.55,-177.57,-115.34,-350,-7605,-3606,-1,0,-1
74.56,-177.58,-115.34,-346,-7610,-3610,0,0,-1
74.56,-177.58,-115.34,-354,-7606,-3609,-1,-1,0
74.55,-177.58,-115.34,-348,-7605,-3605,0,0,0
74.54,-177.57,-115.34,-354,-7608,-3603,-1,0,-1
74.54,-177.58,-115.35,-343,-7610,-3602,-1,0,-1
74.54,-177.59,-115.35,-347,-7617,-3606,-1,0,0
74.56,-177.58,-115.36,-349,-7612,-3623,0,0,-1
74.54,-177.59,-115.35,-352,-7618,-3623,-1,0,-1
74.54,-177.59,-115.35,-357,-7619,-3618,0,0,-1
74.54,-177.59,-115.35,-360,-7616,-3609,0,0,-1
74.54,-177.59,-115.36,-360,-7613,-3607,-1,0,-1
74.54,-177.59,-115.36,-353,-7613,-3606,-1,0,-1
74.53,-177.59,-115.37,-355,-7608,-3610,-1,0,-1
74.53,-177.59,-115.37,-352,-7609,-3620,-1,0,-1
74.55,-177.60,-115.38,-350,-7601,-3624,-1,0,0
74.55,-177.60,-115.38,-352,-7613,-3620,-1,0,0
74.55,-177.60,-115.38,-351,-7616,-3615,-1,0,0
74.53,-177.60,-115.38,-353,-7611,-3605,-1,0,-1
74.53,-177.60,-115.38,-355,-7605,-3608,-1,0,0
74.53,-177.60,-115.38,-348,-7601,-3622,0,0,0
74.53,-177.60,-115.38,-349,-7601,-3618,0,0,0
74.53,-177.60,-115.39,-354,-7596,-3623,-1,-1,0
74.53,-177.60,-115.38,-354,-7606,-3616,-1,-1,0
74.54,-177.59,-115.39,-357,-7609,-3615,-1,-1,0
74.53,-177.59,-115.39,-359,-7603,-3610,-1,0,-1
74.53,-177.59,-115.39,-354,-7604,-3609,-1,-1,0
74.53,-177.60,-115.40,-351,-7596,-3613,-1,-1,0
74.53,-177.60,-115.40,-345,-7600,-3609,0,-1,0
74.54,-177.59,-115.40,-356,-7606,-3608,-1,-1,0
74.53,-177.59,-115.39,-351,-7615,-3602,0,0,-1
74.53,-177.59,-115.39,-358,-7620,-3621,-1,0,0
74.54,-177.59,-115.40,-359,-7611,-3624,-1,-1,0
74.54,-177.59,-115.40,-353,-7602,-3616,-1,0,-1
74.54,-177.59,-115.40,-346,-7606,-3617,0,0,-1
74.53,-177.60,-115.40,-347,-7609,-3611,0,-1,0
74.54,-177.59,-115.39,-348,-7610,-3599,0,-1,0
74.54,-177.59,-115.39,-355,-7606,-3600,-1,-1,-1
74.55,-177.60,-115.39,-352,-7602,-3600,-1,-1,0
74.54,-177.59,-115.40,-352,-7602,-3608,-1,0,-1
74.54,-177.59,-115.40,-352,-7602,-3614,-1,0,0
74.54,-177.59,-115.40,-352,-7608,-3622,0,0,0
74.54,-177.59,-115.40,-356,-7607,-3619,0,-1,0
74.54,-177.58,-115.39,-356,-7614,-3614,0,-1,0
74.54,-177.59,-115.38,-354,-7606,-3610,0,0,0
74.54,-177.59,-115.38,-351,-7604,-3610,0,0,0
74.54,-177.59,-115.38,-359,-7606,-3608,-1,0,-1
74.54,-177.59,-115.38,-354,-7607,-3615,-1,-1,0
74.54,-177.58,-115.39,-349,-7604,-3615,-1,-1,0
74.54,-177.58,-115.39,-345,-7609,-3607,0,0,-1
74.54,-177.59,-115.39,-349,-7613,-3605,0,0,-1
74.54,-177.59,-115.38,-347,-7614,-3604,0,-1,0
74.54,-177.59,-115.38,-356,-7612,-3601,0,-1,0
74.54,-177.59,-115.38,-353,-7603,-3595,-1,-1,0
74.54,-177.58,-115.39,-356,-7601,-3603,-1,0,0
74.55,-177.58,-115.40,-353,-7604,-3615,-1,0,0
74.56,-177.59,-115.40,-359,-7614,-3623,0,-1,0
74.55,-177.58,-115.40,-354,-7607,-3620,0,-1,0
74.54,-177.58,-115.39,-359,-7603,-3616,0,-1,0
74.54,-177.58,-115.39,-355,-7602,-3611,0,-1,0
74.55,-177.58,-115.38,-353,-7606,-3601,-1,0,0
74.55,-177.58,-115.38,-353,-7602,-3596,-1,-1,0
74.55,-177.58,-115.38,-354,-7607,-3602,-1,-1,-1
74.55,-177.58,-115.38,-349,-7610,-3607,0,-1,0
74.55,-177.58,-115.38,-348,-7603,-3610,0,-1,-1
74.55,-177.58,-115.38,-348,-7604,-3614,-1,-1,-1
74.55,-177.58,-115.38,-349,-7604,-3610,-1,-1,0
74.55,-177.58,-115.38,-353,-7605,-3604,-1,-1,0
74.55,-177.58,-115.38,-361,-7602,-3613,-1,-1,0
74.57,-177.58,-115.39,-354,-7601,-3615,-1,-1,0
74.57,-177.58,-115.39,-359,-7613,-3627,0,-1,0
74.57,-177.58,-115.39,-360,-7611,-3623,0,-1,0
74.57,-177.57,-115.38,-351,-7605,-3612,0,-1,0
74.57,-177.57,-115.38,-350,-7606,-3613,0,-1,0
74.56,-177.57,-115.38,-353,-7607,-3608,0,-1,0
74.56,-177.57,-115.38,-365,-7612,-3609,-1,-1,0
74.57,-177.56,-115.38,-362,-7612,-3604,-1,0,-1
74.58,-177.56,-115.38,-360,-7610,-3615,-1,-1,-1
74.56,-177.56,-115.39,-360,-7605,-3616,0,-1,-1
74.58,-177.56,-115.38,-358,-7595,-3617,-1,-1,0
74.58,-177.56,-115.38,-364,-7606,-3606,-1,-1,0
74.58,-177.56,-115.38,-365,-7604,-3605,0,-1,-1
74.56,-177.56,-115.39,-363,-7605,-3611,-1,0,0
74.57,-177.56,-115.39,-361,-7612,-3621,0,-1,-1
74.59,-177.56,-115.39,-357,-7615,-3615,0,-1,0
74.58,-177.56,-115.38,-357,-7604,-3601,0,-1,0
74.59,-177.56,-115.38,-359,-7600,-3608,-1,-1,0
74.59,-177.56,-115.38,-355,-7605,-3609,0,0,-1
74.59,-177.56,-115.38,-354,-7614,-3617,-1,-1,0
74.59,-177.56,-115.38,-351,-7620,-3617,0,-1,0
74.58,-177.55,-115.38,-358,-7615,-3619,0,-1,0
74.58,-177.54,-115.37,-360,-7613,-3609,0,-1,0
74.57,-177.55,-115.37,-356,-7611,-3606,0,-1,-1
74.57,-177.55,-115.37,-361,-7610,-3603,0,0,0
74.59,-177.55,-115.37,-356,-7610,-3593,0,0,0
74.58,-177.54,-115.36,-367,-7618,-3588,-1,-1,0
74.57,-177.54,-115.36,-362,-7608,-3600,-1,0,0
74.58,-177.54,-115.37,-366,-7611,-3594,-1,0,-1
74.57,-177.55,-115.37,-363,-7610,-3602,-1,0,-1
74.58,-177.54,-115.37,-361,-7615,-3617,0,-1,-1
74.58,-177.54,-115.37,-359,-7608,-3618,0,-1,0
74.58,-177.54,-115.37,-362,-7602,-3610,0,-1,0
74.59,-177.55,-115.36,-356,-7599,-3608,0,-1,0
74.60,-177.54,-115.37,-359,-7601,-3606,-1,-1,0
74.59,-177.53,-115.36,-354,-7606,-3604,0,-1,0
74.59,-177.53,-115.36,-354,-7608,-3606,-1,-1,0
74.59,-177.53,-115.37,-363,-7608,-3613,-1,-1,0
74.59,-177.52,-115.36,-365,-7607,-3612,0,-1,0
74.59,-177.52,-115.36,-366,-7613,-3618,0,-1,0
74.58,-177.52,-115.36,-377,-7614,-3613,0,-1,-1
74.59,-177.52,-115.35,-371,-7609,-3600,0,-1,-1
74.59,-177.52,-115.35,-368,-7610,-3604,0,0,-1
74.59,-177.53,-115.35,-364,-7613,-3601,0,-1,-1
74.59,-177.53,-115.35,-362,-7617,-3614,0,-1,0
74.59,-177.53,-115.35,-360,-7611,-3621,0,-1,0
74.61,-177.52,-115.35,-350,-7605,-3601,0,0,0
74.60,-177.52,-115.34,-357,-7608,-3605,0,-1,0
74.60,-177.52,-115.34,-362,-7612,-3603,0,-1,0
74.59,-177.52,-115.34,-363,-7613,-3606,0,-1,0
74.59,-177.52,-115.34,-357,-7609,-3616,0,-1,0
74.59,-177.52,-115.34,-361,-7608,-3618,0,-1,0
74.59,-177.52,-115.34,-363,-7606,-3614,0,-1,0
74.60,-177.52,-115.33,-364,-7611,-3606,0,-1,-1
74.60,-177.52,-115.33,-367,-7613,-3607,0,-1,-1
74.61,-177.52,-115.33,-366,-7619,-3618,-1,0,-1
74.61,-177.52,-115.33,-369,-7611,-3603,0,0,-1
74.61,-177.52,-115.33,-366,-7608,-3597,-1,0,-1
74.61,-177.52,-115.33,-359,-7606,-3608,-1,0,0
74.61,-177.53,-115.34,-361,-7608,-3613,-1,-1,0
74.60,-177.52,-115.33,-361,-7610,-3608,0,-1,0
74.60,-177.52,-115.33,-363,-7605,-3600,0,-1,0
74.60,-177.52,-115.33,-359,-7604,-3599,-1,-1,0
74.62,-177.51,-115.33,-359,-7605,-3611,-1,0,-1
74.61,-177.52,-115.34,-359,-7606,-3609,-1,0,-1
74.60,-177.52,-115.34,-364,-7618,-3611,0,0,0
74.60,-177.51,-115.34,-367,-7620,-3614,0,-1,0
74.60,-177.51,-115.34,-366,-7623,-3617,0,0,0
74.58,-177.51,-115.33,-373,-7623,-3607,0,0,-1
74.58,-177.51,-115.33,-369,-7612,-3602,-1,0,-1
74.60,-177.52,-115.33,-362,-7617,-3589,-1,0,-1
74.59,-177.52,-115.32,-359,-7614,-3589,0,0,-1
74.59,-177.52,-115.33,-369,-7619,-3597,-1,0,-1
74.58,-177.52,-115.33,-365,-7609,-3596,-1,0,-1
74.59,-177.52,-115.34,-363,-7611,-3610,-1,0,-1
74.60,-177.54,-115.35,-364,-7612,-3620,-1,0,-1
74.60,-177.54,-115.35,-360,-7609,-3620,0,0,0
74.60,-177.54,-115.35,-367,-7604,-3612,0,-1,0
74.59,-177.53,-115.35,-364,-7596,-3617,0,-1,-1
74.60,-177.54,-115.35,-360,-7600,-3619,-1,-1,0
74.60,-177.54,-115.35,-363,-7605,-3609,-1,0,0
74.60,-177.54,-115.35,-365,-7611,-3610,-1,-1,0
74.60,-177.54,-115.35,-360,-7613,-3615,0,0,0
74.58,-177.53,-115.35,-371,-7609,-3615,0,0,-1
74.60,-177.54,-115.35,-365,-7609,-3604,0,0,-1
74.60,-177.54,-115.35,-359,-7610,-3609,0,0,-1
74.60,-177.54,-115.35,-366,-7609,-3610,-1,0,-1
74.60,-177.54,-115.35,-360,-7607,-3611,-1,-1,-1
74.60,-177.54,-115.36,-356,-7610,-3604,-1,-1,0
74.60,-177.54,-115.36,-358,-7603,-3607,-1,0,-1
74.59,-177.55,-115.35,-353,-7606,-3606,0,-1,0
74.59,-177.55,-115.35,-352,-7611,-3616,0,-1,0
74.59,-177.55,-115.35,-355,-7613,-3619,0,-1,0
74.58,-177.54,-115.35,-355,-7613,-3609,0,-1,0
74.58,-177.54,-115.35,-354,-7606,-3609,0,-1,0
74.58,-177.54,-115.35,-361,-7611,-3607,0,0,-1
74.58,-177.54,-115.35,-367,-7618,-3606,-1,0,-1
74.58,-177.54,-115.35,-370,-7616,-3600,0,0,-1
74.58,-177.54,-115.35,-373,-7615,-3602,-1,0,0
74.57,-177.54,-115.34,-363,-7612,-3598,0,0,0
74.57,-177.54,-115.34,-367,-7609,-3596,-1,0,0
74.58,-177.54,-115.35,-359,-7613,-3599,-1,0,0
74.56,-177.54,-115.35,-360,-7609,-3612,-1,0,0
74.56,-177.54,-115.35,-364,-7611,-3619,0,0,0
74.56,-177.54,-115.35,-361,-7610,-3617,0,-1,0
74.55,-177.54,-115.35,-362,-7609,-3611,0,0,0
74.55,-177.54,-115.35,-361,-7609,-3608,-1,0,-1
74.55,-177.54,-115.35,-354,-7603,-3607,-1,0,-1
74.55,-177.54,-115.35,-357,-7605,-3606,0,0,-1
74.57,-177.55,-115.34,-365,-7610,-3599,0,-1,-1
74.57,-177.55,-115.34,-361,-7604,-3591,-1,-1,0
74.57,-177.55,-115.34,-360,-7599,-3589,-1,0,-1
74.56,-177.55,-115.35,-365,-7604,-3607,-1,0,-1
74.56,-177.56,-115.36,-358,-7609,-3618,-1,0,-1
74.56,-177.56,-115.36,-361,-7610,-3613,0,-1,0
74.56,-177.56,-115.36,-360,-7615,-3616,0,-1,0
74.56,-177.56,-115.35,-358,-7605,-3614,0,-1,0
74.56,-177.56,-115.34,-353,-7598,-3596,0,0,0
74.56,-177.56,-115.34,-354,-7597,-3597,-1,0,-1
74.56,-177.56,-115.35,-354,-7609,-3603,-1,0,-1
74.56,-177.56,-115.35,-358,-7612,-3605,-1,0,-1
74.56,-177.56,-115.35,-357,-7618,-3604,-1,0,0
74.55,-177.56,-115.36,-361,-7612,-3602,-1,0,-1
74.53,-177.57,-115.35,-359,-7616,-3603,-1,0,-1
74.53,-177.57,-115.36,-357,-7619,-3602,-1,0,-1
74.55,-177.58,-115.35,-359,-7615,-3607,0,0,-1
74.55,-177.57,-115.35,-364,-7610,-3599,-1,0,0
74.54,-177.58,-115.35,-360,-7611,-3601,0,0,0
74.52,-177.58,-115.35,-357,-7608,-3609,-1,0,0
74.53,-177.58,-115.36,-356,-7610,-3611,0,0,0
74.53,-177.58,-115.36,-356,-7608,-3607,-1,-1,0
74.53,-177.58,-115.36,-361,-7615,-3612,-1,0,-1
74.53,-177.58,-115.36,-361,-7608,-3612,0,0,-1
74.52,-177.58,-115.37,-361,-7608,-3620,-1,0,-1
74.52,-177.58,-115.36,-361,-7613,-3612,0,0,-1
74.52,-177.58,-115.36,-352,-7609,-3606,0,0,-1
74.52,-177.58,-115.36,-353,-7607,-3607,-1,0,0
74.51,-177.59,-115.37,-356,-7606,-3611,-1,0,-1
74.51,-177.59,-115.37,-348,-7604,-3610,-1,0,-1
74.51,-177.59,-115.37,-350,-7603,-3618,-1,0,-1
74.51,-177.60,-115.38,-348,-7608,-3614,-1,0,-1
74.51,-177.60,-115.38,-355,-7615,-3615,-1,0,-1
74.51,-177.60,-115.38,-360,-7611,-3614,-1,-1,-1
74.51,-177.59,-115.38,-360,-7611,-3606,-1,0,-1
74.50,-177.60,-115.38,-359,-7609,-3614,-1,0,0
74.50,-177.60,-115.38,-355,-7611,-3617,0,0,-1
74.50,-177.60,-115.38,-352,-7611,-3611,-1,0,0
74.50,-177.60,-115.38,-356,-7609,-3615,-1,0,0
74.50,-177.60,-115.39,-358,-7611,-3609,-1,0,0
74.48,-177.60,-115.39,-362,-7611,-3604,-1,0,-1
74.50,-177.60,-115.40,-363,-7610,-3620,-1,0,-1
74.50,-177.61,-115.40,-355,-7605,-3626,-1,0,-1
74.49,-177.61,-115.40,-347,-7606,-3617,0,-1,-1
74.49,-177.61,-115.40,-349,-7606,-3607,-1,-1,0
74.49,-177.61,-115.40,-354,-7602,-3603,0,0,0
74.50,-177.60,-115.40,-365,-7607,-3600,-1,0,0
74.50,-177.61,-115.40,-351,-7602,-3608,-1,0,-1
74.50,-177.61,-115.42,-349,-7600,-3612,-1,0,-1
74.49,-177.61,-115.43,-354,-7604,-3631,-1,0,0
74.49,-177.61,-115.43,-349,-7605,-3636,0,-1,0
74.50,-177.61,-115.42,-353,-7603,-3635,0,-1,0
74.50,-177.60,-115.41,-361,-7600,-3622,0,-1,0
74.49,-177.60,-115.41,-359,-7598,-3606,0,0,0
74.48,-177.60,-115.40,-353,-7608,-3603,-1,0,0
74.48,-177.60,-115.40,-356,-7614,-3601,-1,-1,0
74.48,-177.60,-115.40,-367,-7608,-3610,-1,0,-1
74.49,-177.60,-115.41,-366,-7604,-3609,-1,0,-1
74.50,-177.60,-115.41,-359,-7609,-3614,-1,0,-1
74.50,-177.61,-115.42,-353,-7605,-3612,-1,0,-1
74.50,-177.61,-115.42,-352,-7598,-3601,-1,0,-1
74.50,-177.61,-115.42,-349,-7599,-3608,-1,-1,0
74.50,-177.61,-115.42,-350,-7601,-3609,0,-1,0
74.50,-177.61,-115.42,-346,-7604,-3608,0,-1,0
74.50,-177.61,-115.42,-353,-7604,-3617,0,-1,0
74.50,-177.60,-115.41,-353,-7612,-3612,0,-1,0
74.49,-177.60,-115.41,-358,-7614,-3619,0,-1,0
74.49,-177.60,-115.41,-361,-7617,-3634,0,-1,0
74.49,-177.59,-115.40,-360,-7615,-3625,0,-1,0
74.48,-177.60,-115.40,-354,-7614,-3606,0,-1,0
74.49,-177.59,-115.40,-352,-7614,-3611,-1,0,-1
74.48,-177.60,-115.40,-350,-7611,-3605,-1,0,0
74.50,-177.60,-115.41,-352,-7622,-3621,-1,0,-1
74.50,-177.60,-115.41,-354,-7616,-3613,-1,0,-1
74.50,-177.60,-115.41,-353,-7611,-3618,-1,-1,0
74.50,-177.60,-115.41,-351,-7605,-3619,0,0,0
74.50,-177.60,-115.41,-357,-7612,-3617,0,-1,0
74.49,-177.60,-115.41,-354,-7611,-3612,-1,-1,0
74.49,-177.60,-115.41,-359,-7617,-3617,0,-1,0
74.49,-177.60,-115.41,-353,-7608,-3608,-1,-1,0
74.49,-177.59,-115.40,-354,-7608,-3617,0,0,0
74.49,-177.59,-115.40,-355,-7608,-3622,0,-1,0
74.49,-177.59,-115.40,-355,-7604,-3613,0,-1,0
74.49,-177.59,-115.40,-360,-7608,-3610,-1,-1,0
74.49,-177.59,-115.40,-365,-7615,-3610,-1,0,-1
74.49,-177.59,-115.40,-360,-7613,-3608,-1,0,-1
74.49,-177.60,-115.41,-353,-7614,-3616,-1,0,-1
74.49,-177.60,-115.41,-350,-7617,-3617,0,-1,-1
74.49,-177.59,-115.40,-352,-7609,-3605,0,-1,0
74.49,-177.59,-115.40,-359,-7605,-3598,-1,-1,0
74.49,-177.59,-115.40,-356,-7602,-3600,-1,-1,0
74.49,-177.59,-115.40,-352,-7605,-3597,-1,0,-1
74.49,-177.59,-115.40,-353,-7608,-3594,-1,0,0
74.49,-177.59,-115.40,-349,-7612,-3606,0,-1,0
74.49,-177.58,-115.40,-356,-7605,-3607,-1,-1,0
74.49,-177.58,-115.40,-369,-7610,-3620,0,-1,0
74.50,-177.58,-115.40,-371,-7613,-3613,0,0,0
74.48,-177.58,-115.39,-366,-7612,-3611,0,0,-1
74.48,-177.58,-115.39,-362,-7613,-3607,0,0,0
74.48,-177.58,-115.39,-362,-7609,-3607,-1,-1,0
74.48,-177.57,-115.38,-359,-7610,-3609,-1,-1,-1
74.48,-177.58,-115.39,-357,-7610,-3610,-1,0,-1
74.50,-177.58,-115.40,-355,-7605,-3609,-1,0,-1
74.50,-177.58,-115.40,-350,-7610,-3622,-1,-1,-1
74.50,-177.58,-115.40,-348,-7613,-3622,0,-1,0
74.49,-177.58,-115.40,-351,-7603,-3605,0,-1,0
74.49,-177.58,-115.39,-355,-7598,-3603,0,-1,0
74.49,-177.58,-115.39,-349,-7602,-3610,0,-1,0
74.49,-177.58,-115.39,-350,-7605,-3609,0,-1,0
74.48,-177.58,-115.39,-349,-7612,-3607,-1,-1,0
74.49,-177.57,-115.39,-363,-7615,-3614,-1,-1,0
74.49,-177.57,-115.39,-367,-7611,-3613,0,0,0
74.49,-177.57,-115.39,-363,-7609,-3611,0,0,-1
74.49,-177.57,-115.39,-359,-7610,-3613,-1,-1,-1
74.49,-177.57,-115.39,-359,-7608,-3612,-1,-1,0
74.49,-177.57,-115.39,-362,-7613,-3614,0,-1,0
74.49,-177.57,-115.39,-358,-7605,-3602,-1,-1,0
74.49,-177.57,-115.39,-354,-7606,-3612,0,-1,-1
74.50,-177.57,-115.39,-353,-7605,-3612,0,-1,0
74.49,-177.56,-115.39,-352,-7605,-3603,0,-1,0
74.49,-177.56,-115.39,-356,-7610,-3615,0,-1,0
74.49,-177.56,-115.39,-364,-7608,-3610,-1,-1,0
74.51,-177.56,-115.39,-368,-7611,-3620,-1,-1,-1
74.51,-177.56,-115.39,-363,-7613,-3619,0,-1,0
74.49,-177.56,-115.38,-357,-7615,-3607,0,-1,0
74.50,-177.55,-115.38,-359,-7617,-3610,0,-1,0
74.50,-177.55,-115.38,-364,-7624,-3610,-1,-1,0
74.51,-177.56,-115.39,-353,-7621,-3611,-1,-1,-1
74.50,-177.56,-115.37,-353,-7620,-3601,0,-1,-1
74.51,-177.56,-115.37,-350,-7614,-3608,0,-1,0
74.51,-177.56,-115.37,-355,-7608,-3605,-1,-1,0
74.51,-177.56,-115.37,-361,-7610,-3614,-1,-1,-1
74.51,-177.56,-115.37,-370,-7609,-3604,-1,0,-1
74.51,-177.56,-115.37,-364,-7612,-3611,0,-1,0
74.51,-177.56,-115.37,-351,-7615,-3612,0,-1,-1
74.51,-177.55,-115.37,-357,-7611,-3615,0,-1,0
74.52,-177.55,-115.36,-363,-7614,-3602,0,-1,0
74.52,-177.54,-115.36,-362,-7606,-3597,-1,-1,0
74.52,-177.55,-115.36,-359,-7606,-3608,-1,-1,-1
74.53,-177.54,-115.37,-357,-7612,-3615,-1,-1,-1
74.53,-177.55,-115.37,-357,-7620,-3607,0,-1,0
74.52,-177.54,-115.36,-357,-7618,-3615,0,-1,0
74.52,-177.54,-115.35,-361,-7614,-3614,0,-1,0
74.52,-177.54,-115.35,-368,-7610,-3614,0,0,-1
74.51,-177.54,-115.35,-366,-7614,-3615,0,0,-1
74.51,-177.54,-115.35,-362,-7614,-3610,0,-1,0
74.52,-177.54,-115.34,-364,-7613,-3601,0,-1,0
74.51,-177.54,-115.34,-360,-7607,-3606,0,-1,0
74.53,-177.54,-115.34,-363,-7604,-3611,-1,0,-1
74.52,-177.54,-115.35,-363,-7605,-3610,-1,0,-1
74.52,-177.54,-115.36,-368,-7610,-3616,0,-1,-1
74.51,-177.54,-115.35,-369,-7613,-3612,0,-1,0
74.53,-177.54,-115.34,-364,-7609,-3601,0,-1,0
74.51,-177.54,-115.34,-367,-7601,-3591,0,-1,0
74.51,-177.54,-115.34,-363,-7604,-3594,-1,0,-1
74.51,-177.54,-115.34,-358,-7613,-3599,-1,0,0
74.53,-177.54,-115.34,-362,-7612,-3597,-1,-1,0
74.53,-177.54,-115.34,-365,-7618,-3607,0,-1,0
74.51,-177.54,-115.34,-365,-7609,-3603,0,-1,-1
74.51,-177.53,-115.33,-361,-7612,-3592,0,0,-1
74.50,-177.54,-115.33,-363,-7611,-3595,-1,0,-1
74.50,-177.54,-115.33,-363,-7612,-3590,-1,0,-1
74.50,-177.54,-115.33,-365,-7617,-3590,-1,0,-1
74.50,-177.54,-115.33,-364,-7613,-3596,-1,0,-1
74.50,-177.54,-115.34,-362,-7614,-3599,0,-1,-1
74.50,-177.54,-115.34,-356,-7610,-3602,0,0,0
74.50,-177.54,-115.34,-363,-7617,-3611,-1,-1,0
74.51,-177.54,-115.34,-363,-7618,-3615,-1,-1,0
74.52,-177.54,-115.34,-361,-7615,-3620,-1,-1,-1
74.52,-177.54,-115.34,-361,-7612,-3612,0,0,0
74.50,-177.54,-115.34,-355,-7614,-3611,0,0,0
74.50,-177.54,-115.33,-355,-7606,-3595,0,0,0
74.51,-177.54,-115.34,-370,-7610,-3607,-1,0,0
74.50,-177.54,-115.34,-362,-7608,-3615,-1,0,-1
74.50,-177.54,-115.35,-371,-7609,-3621,-1,0,-1
74.50,-177.55,-115.35,-369,-7606,-3618,0,0,-1
74.50,-177.55,-115.35,-363,-7604,-3606,0,-1,0
74.50,-177.55,-115.35,-364,-7605,-3605,0,0,-1
74.50,-177.55,-115.35,-363,-7605,-3599,-1,-1,0
74.50,-177.55,-115.35,-367,-7613,-3612,-1,0,-1
74.50,-177.55,-115.35,-367,-7612,-3619,0,0,-1
74.50,-177.55,-115.35,-364,-7610,-3609,0,-1,-1
74.50,-177.55,-115.35,-362,-7604,-3601,0,-1,0
74.50,-177.55,-115.35,-367,-7601,-3607,-1,0,-1
74.50,-177.55,-115.35,-366,-7609,-3609,-1,0,0
74.50,-177.55,-115.35,-366,-7614,-3606,0,0,-1
74.50,-177.55,-115.35,-359,-7613,-3599,0,0,-1
74.49,-177.55,-115.35,-357,-7624,-3604,0,-1,-1
74.50,-177.55,-115.34,-347,-7618,-3594,0,-1,0
74.49,-177.55,-115.33,-353,-7610,-3584,0,-1,0
74.49,-177.55,-115.33,-348,-7607,-3589,-1,0,0
74.50,-177.55,-115.34,-361,-7616,-3604,-1,0,-1
74.50,-177.55,-115.35,-362,-7617,-3616,-1,0,-1
74.51,-177.56,-115.36,-352,-7619,-3631,0,0,0
74.50,-177.55,-115.35,-356,-7623,-3627,0,-1,0
74.49,-177.55,-115.35,-364,-7617,-3610,0,-1,0
74.48,-177.55,-115.34,-371,-7607,-3607,0,-1,0
74.50,-177.54,-115.34,-367,-7611,-3600,0,-1,-1
74.50,-177.54,-115.34,-362,-7612,-3597,-1,-1,0
74.48,-177.54,-115.34,-360,-7617,-3601,0,0,0
74.48,-177.54,-115.34,-365,-7610,-3590,-1,0,0
74.50,-177.54,-115.34,-367,-7608,-3603,0,0,-1
74.48,-177.54,-115.35,-365,-7615,-3606,-1,-1,0
74.49,-177.53,-115.35,-381,-7607,-3616,0,-1,0
74.48,-177.54,-115.35,-368,-7601,-3608,-1,-1,0
74.48,-177.54,-115.35,-359,-7597,-3601,-1,0,0
74.50,-177.54,-115.36,-360,-7609,-3612,-1,-1,0
74.50,-177.54,-115.36,-357,-7606,-3613,-1,0,0
74.49,-177.54,-115.37,-357,-7600,-3617,-1,-1,0
74.49,-177.54,-115.37,-367,-7608,-3619,0,0,0
74.49,-177.54,-115.37,-369,-7613,-3619,0,0,-1
74.48,-177.54,-115.36,-363,-7615,-3611,0,0,-1
74.48,-177.55,-115.37,-366,-7612,-3611,-1,0,-1
74.47,-177.55,-115.36,-372,-7607,-3596,0,0,-1
74.47,-177.55,-115.37,-370,-7619,-3601,-1,0,-1
74.47,-177.55,-115.37,-366,-7605,-3602,-1,0,-1
74.48,-177.56,-115.37,-351,-7605,-3610,-1,0,-1
74.46,-177.57,-115.37,-350,-7597,-3596,-1,0,0
74.48,-177.57,-115.38,-358,-7596,-3609,-1,0,-1
74.48,-177.57,-115.38,-354,-7603,-3616,-1,0,-1
74.48,-177.57,-115.38,-358,-7607,-3624,0,0,-1
74.48,-177.57,-115.38,-355,-7610,-3613,0,-1,0
74.47,-177.57,-115.38,-358,-7611,-3619,0,0,0
74.47,-177.57,-115.38,-359,-7612,-3616,0,0,-1
74.47,-177.57,-115.38,-355,-7611,-3612,0,0,-1
74.47,-177.57,-115.38,-356,-7610,-3611,-1,0,0
74.47,-177.58,-115.38,-360,-7612,-3617,0,0,-1
74.45,-177.58,-115.39,-358,-7612,-3607,-1,0,-1
74.45,-177.58,-115.39,-354,-7621,-3624,0,0,-1
74.45,-177.58,-115.39,-353,-7607,-3621,-1,0,-1
74.44,-177.60,-115.40,-353,-7597,-3619,-1,0,-1
74.44,-177.60,-115.40,-353,-7606,-3608,-1,0,-1
74.44,-177.60,-115.40,-358,-7607,-3613,0,0,-1
74.44,-177.60,-115.40,-357,-7605,-3609,-1,0,0
74.44,-177.60,-115.40,-357,-7606,-3609,-1,0,-1
74.45,-177.60,-115.40,-354,-7605,-3611,-1,0,-1
74.43,-177.60,-115.40,-349,-7606,-3616,-1,0,0
74.43,-177.60,-115.40,-353,-7610,-3604,0,0,-1
74.45,-177.60,-115.40,-353,-7610,-3588,-1,0,0
74.43,-177.60,-115.41,-352,-7601,-3607,-1,0,-1
74.43,-177.61,-115.41,-352,-7600,-3616,-1,0,-1
74.43,-177.61,-115.42,-347,-7597,-3626,-1,0,-1
74.43,-177.61,-115.43,-348,-7608,-3641,-1,0,0
74.43,-177.61,-115.44,-352,-7610,-3646,-1,0,-1
74.43,-177.61,-115.44,-356,-7605,-3629,0,0,0
74.43,-177.61,-115.43,-364,-7607,-3614,-1,0,0
74.43,-177.61,-115.44,-359,-7601,-3614,0,0,-1
74.43,-177.61,-115.44,-350,-7603,-3625,-1,0,0
74.42,-177.61,-115.44,-352,-7605,-3621,-1,-1,0
74.43,-177.61,-115.45,-359,-7603,-3621,-1,0,-1
74.43,-177.61,-115.45,-356,-7599,-3622,-1,0,-1
74.43,-177.61,-115.45,-356,-7598,-3625,-1,0,-1
74.43,-177.61,-115.45,-358,-7606,-3629,0,0,-1
74.43,-177.61,-115.45,-353,-7606,-3623,0,-1,0
74.44,-177.60,-115.45,-357,-7607,-3627,0,-1,0
74.44,-177.60,-115.45,-360,-7606,-3616,-1,-1,0
74.44,-177.60,-115.45,-349,-7609,-3618,0,0,-1
74.43,-177.60,-115.45,-352,-7605,-3608,-1,-1,0
74.44,-177.60,-115.45,-356,-7612,-3619,0,-1,0
74.44,-177.60,-115.45,-350,-7602,-3626,0,-1,0
74.44,-177.60,-115.45,-348,-7605,-3623,0,-1,0
74.44,-177.60,-115.45,-353,-7604,-3628,0,0,-1
74.44,-177.60,-115.45,-361,-7606,-3617,-1,-1,-1
74.44,-177.60,-115.45,-352,-7605,-3620,0,-1,0
74.44,-177.60,-115.45,-351,-7606,-3633,-1,-1,0
74.44,-177.60,-115.45,-353,-7603,-3629,0,-1,-1
74.44,-177.60,-115.45,-352,-7605,-3626,-1,-1,-1
74.44,-177.60,-115.45,-357,-7604,-3618,0,-1,0
74.44,-177.60,-115.45,-360,-7599,-3625,0,-1,0
74.44,-177.59,-115.44,-356,-7607,-3620,-1,-1,0
74.44,-177.59,-115.44,-356,-7610,-3618,0,-1,0
74.44,-177.59,-115.44,-361,-7606,-3622,0,-1,0
74.43,-177.58,-115.44,-362,-7605,-3624,0,-1,0
74.43,-177.58,-115.44,-357,-7602,-3619,0,-1,0
74.43,-177.58,-115.44,-358,-7604,-3625,-1,0,0
74.43,-177.58,-115.44,-356,-7609,-3614,0,-1,-1
74.43,-177.58,-115.44,-354,-7622,-3618,-1,0,-1
74.45,-177.59,-115.43,-352,-7610,-3614,-1,0,-1
74.43,-177.58,-115.44,-353,-7605,-3611,-1,-1,0
74.44,-177.59,-115.43,-353,-7600,-3611,0,0,0
74.44,-177.59,-115.43,-362,-7596,-3614,-1,-1,0
74.44,-177.59,-115.42,-355,-7602,-3614,0,-1,0
74.44,-177.59,-115.43,-358,-7605,-3606,-1,0,-1
74.44,-177.59,-115.43,-356,-7606,-3621,-1,0,-1
74.44,-177.60,-115.44,-359,-7604,-3617,-1,0,-1
74.44,-177.60,-115.44,-353,-7608,-3621,0,-1,-1
74.44,-177.59,-115.43,-352,-7599,-3616,0,-1,0
74.44,-177.59,-115.42,-351,-7602,-3610,0,-1,0
74.44,-177.59,-115.42,-351,-7598,-3613,-1,-1,0
74.44,-177.59,-115.42,-349,-7601,-3606,-1,-1,0
74.45,-177.58,-115.43,-345,-7601,-3613,-1,0,0
74.45,-177.59,-115.43,-351,-7606,-3626,-1,-1,0
74.45,-177.58,-115.43,-358,-7617,-3630,0,-1,0
74.45,-177.58,-115.43,-357,-7615,-3628,0,-1,0
74.44,-177.57,-115.42,-360,-7613,-3617,0,-1,0
74.44,-177.57,-115.42,-358,-7604,-3615,0,0,-1
74.44,-177.57,-115.42,-350,-7604,-3604,-1,0,0
74.44,-177.57,-115.42,-352,-7616,-3604,-1,0,0
74.44,-177.57,-115.42,-357,-7609,-3613,-1,-1,0
74.44,-177.57,-115.42,-361,-7606,-3612,0,-1,-1
74.43,-177.57,-115.41,-357,-7609,-3613,0,0,-1
74.43,-177.58,-115.42,-357,-7602,-3612,-1,0,-1
74.43,-177.58,-115.42,-354,-7604,-3622,0,-1,0
74.43,-177.58,-115.42,-357,-7600,-3614,-1,-1,0
74.43,-177.57,-115.41,-355,-7604,-3617,0,-1,0
74.43,-177.57,-115.41,-359,-7605,-3617,0,-1,0
74.45,-177.57,-115.41,-360,-7600,-3613,0,-1,0
74.44,-177.57,-115.41,-363,-7597,-3613,0,-1,0
74.43,-177.57,-115.41,-360,-7602,-3623,0,-1,0
74.44,-177.56,-115.41,-371,-7606,-3619,0,-1,0
74.44,-177.56,-115.41,-377,-7610,-3621,0,0,-1
74.44,-177.56,-115.41,-364,-7606,-3621,0,0,-1
74.44,-177.56,-115.41,-367,-7606,-3616,-1,0,0
74.44,-177.56,-115.41,-359,-7605,-3620,-1,0,0
74.44,-177.56,-115.41,-361,-7601,-3617,-1,0,0
74.44,-177.56,-115.41,-368,-7603,-3622,0,0,0
74.44,-177.56,-115.41,-364,-7601,-3612,0,-1,-1
74.44,-177.56,-115.41,-358,-7601,-3612,0,-1,0
74.44,-177.56,-115.41,-365,-7602,-3608,0,-1,0
74.43,-177.55,-115.40,-363,-7609,-3611,0,-1,0
74.43,-177.55,-115.40,-372,-7612,-3610,0,-1,0
74.43,-177.55,-115.40,-373,-7612,-3606,0,-1,0
74.44,-177.54,-115.39,-368,-7613,-3604,0,-1,0
74.44,-177.54,-115.39,-363,-7611,-3617,0,-1,0
74.44,-177.54,-115.39,-371,-7605,-3621,0,0,0
74.44,-177.54,-115.38,-375,-7608,-3617,0,0,0
74.42,-177.54,-115.39,-376,-7613,-3621,-1,-1,0
74.42,-177.54,-115.39,-362,-7612,-3616,0,-1,0
74.42,-177.54,-115.39,-362,-7606,-3607,-1,0,0
74.42,-177.54,-115.39,-361,-7613,-3609,-1,-1,-1
74.42,-177.54,-115.39,-368,-7610,-3620,0,0,-1
74.42,-177.54,-115.39,-366,-7602,-3620,-1,-1,-1
74.44,-177.53,-115.39,-364,-7604,-3621,0,-1,-1
74.42,-177.54,-115.39,-368,-7605,-3608,0,0,0
74.42,-177.54,-115.39,-360,-7610,-3617,0,-1,0
74.44,-177.53,-115.38,-358,-7616,-3612,0,-1,0
74.42,-177.53,-115.37,-357,-7613,-3596,0,-1,0
74.42,-177.53,-115.37,-358,-7604,-3603,0,-1,0
74.44,-177.53,-115.37,-365,-7603,-3603,-1,-1,0
74.44,-177.53,-115.37,-368,-7606,-3615,-1,0,0
74.45,-177.52,-115.38,-370,-7614,-3627,-1,-1,0
74.45,-177.52,-115.37,-373,-7615,-3618,0,-1,0
74.43,-177.51,-115.36,-366,-7614,-3612,0,-1,0
74.45,-177.51,-115.36,-370,-7606,-3609,0,-1,0
74.43,-177.51,-115.35,-365,-7604,-3597,0,-1,-1
74.43,-177.51,-115.35,-367,-7613,-3605,-1,-1,-1
74.43,-177.51,-115.35,-370,-7616,-3598,0,-1,-1
74.45,-177.51,-115.35,-365,-7615,-3596,0,-1,-1
74.45,-177.51,-115.35,-362,-7615,-3601,-1,0,-1
74.45,-177.51,-115.35,-361,-7615,-3607,0,0,-1
74.45,-177.52,-115.35,-358,-7616,-3612,-1,0,-1
74.45,-177.52,-115.35,-360,-7613,-3613,0,-1,-1
74.44,-177.52,-115.35,-362,-7604,-3607,0,-1,0
74.44,-177.52,-115.35,-362,-7598,-3604,0,0,-1
74.44,-177.52,-115.35,-353,-7597,-3610,0,-1,-1
74.44,-177.52,-115.35,-362,-7600,-3618,0,-1,0
74.45,-177.52,-115.35,-368,-7613,-3624,0,-1,0
74.45,-177.51,-115.35,-373,-7620,-3621,0,-1,0
74.43,-177.52,-115.34,-377,-7610,-3615,0,0,0
74.43,-177.52,-115.34,-373,-7615,-3607,0,0,0
74.43,-177.52,-115.34,-368,-7609,-3603,-1,0,-1
74.43,-177.52,-115.34,-378,-7604,-3610,-1,0,-1
74.44,-177.52,-115.35,-374,-7608,-3604,-1,0,-1
74.44,-177.52,-115.35,-366,-7610,-3611,-1,0,-1
74.44,-177.53,-115.35,-368,-7613,-3604,-1,0,-1
74.44,-177.53,-115.35,-364,-7611,-3611,-1,-1,-1
74.44,-177.53,-115.35,-361,-7613,-3600,0,0,-1
74.44,-177.53,-115.36,-356,-7600,-3605,-1,0,0
74.44,-177.53,-115.36,-366,-7610,-3607,-1,0,0
74.44,-177.53,-115.36,-370,-7612,-3608,0,0,-1
74.44,-177.53,-115.35,-370,-7609,-3614,0,0,0
74.44,-177.53,-115.35,-368,-7620,-3606,0,-1,-1
74.44,-177.53,-115.35,-375,-7618,-3598,0,0,0
74.44,-177.53,-115.35,-371,-7610,-3605,0,-1,-1
74.42,-177.53,-115.35,-367,-7606,-3602,0,-1,-1
74.42,-177.53,-115.35,-361,-7606,-3603,-1,0,-1
74.42,-177.53,-115.35,-364,-7609,-3609,0,0,-1
74.43,-177.54,-115.35,-365,-7600,-3592,-1,0,0
74.42,-177.53,-115.36,-367,-7610,-3600,-1,0,-1
74.43,-177.54,-115.36,-364,-7604,-3614,-1,0,-1
74.43,-177.54,-115.37,-364,-7606,-3625,-1,0,-1
74.41,-177.54,-115.37,-361,-7606,-3624,0,0,-1
74.41,-177.55,-115.38,-362,-7607,-3621,0,-1,0
74.42,-177.55,-115.37,-364,-7606,-3618,0,-1,0
74.41,-177.54,-115.37,-367,-7601,-3609,-1,-1,0
74.41,-177.54,-115.37,-368,-7604,-3607,-1,0,-1
74.41,-177.55,-115.38,-365,-7614,-3618,-1,0,-1
74.42,-177.55,-115.38,-363,-7615,-3626,-1,0,-1
74.41,-177.55,-115.38,-361,-7617,-3618,0,-1,0
74.41,-177.54,-115.37,-367,-7613,-3611,0,-1,0
74.40,-177.55,-115.37,-369,-7610,-3613,0,0,0
74.40,-177.55,-115.37,-369,-7608,-3603,-1,0,-1
74.40,-177.55,-115.37,-369,-7613,-3599,-1,0,-1
74.40,-177.55,-115.37,-363,-7615,-3601,-1,0,-1
74.40,-177.55,-115.37,-366,-7615,-3607,0,-1,-1
74.40,-177.55,-115.37,-359,-7608,-3611,-1,0,-1
74.40,-177.55,-115.37,-356,-7610,-3616,-1,0,-1
74.40,-177.56,-115.38,-356,-7608,-3615,-1,0,-1
74.40,-177.56,-115.38,-357,-7613,-3606,-1,0,0
74.40,-177.56,-115.38,-355,-7613,-3611,0,0,-1
74.40,-177.56,-115.38,-357,-7601,-3611,0,-1,-1
74.39,-177.57,-115.38,-359,-7602,-3612,0,0,-1
74.40,-177.56,-115.38,-367,-7602,-3611,-1,-1,-1
74.40,-177.56,-115.38,-366,-7612,-3608,-1,-1,0
74.40,-177.56,-115.38,-360,-7614,-3610,0,-1,0
74.40,-177.56,-115.38,-366,-7613,-3609,0,0,0
74.40,-177.56,-115.38,-361,-7613,-3607,-1,0,-1
74.40,-177.56,-115.38,-366,-7606,-3598,0,-1,0
74.40,-177.56,-115.38,-358,-7604,-3610,-1,-1,0
74.40,-177.56,-115.38,-357,-7611,-3614,-1,0,0
74.39,-177.56,-115.38,-363,-7612,-3619,-1,0,-1
74.39,-177.56,-115.39,-361,-7609,-3614,-1,0,-1
74.39,-177.56,-115.39,-363,-7609,-3609,0,-1,-1
74.39,-177.57,-115.38,-351,-7607,-3600,0,-1,0
74.39,-177.56,-115.39,-359,-7611,-3607,-1,-1,0
74.37,-177.57,-115.38,-361,-7605,-3596,-1,0,0
74.37,-177.57,-115.38,-367,-7613,-3605,0,0,-1
74.37,-177.57,-115.38,-369,-7612,-3608,-1,0,0
74.37,-177.57,-115.38,-366,-7607,-3609,0,0,-1
74.36,-177.57,-115.38,-364,-7611,-3605,0,0,0
74.38,-177.57,-115.38,-357,-7609,-3600,0,-1,0
74.38,-177.57,-115.38,-358,-7610,-3605,-1,0,-1
74.36,-177.57,-115.38,-366,-7613,-3621,0,0,-1
74.36,-177.57,-115.38,-365,-7613,-3616,-1,0,0
74.36,-177.57,-115.38,-358,-7608,-3607,-1,0,0
74.35,-177.58,-115.38,-360,-7610,-3603,-1,0,-1
74.35,-177.58,-115.38,-356,-7608,-3596,-1,0,-1
74.35,-177.58,-115.38,-364,-7606,-3607,-1,0,-1
74.34,-177.58,-115.39,-362,-7605,-3608,-1,0,-1
74.34,-177.59,-115.39,-355,-7605,-3610,-1,0,-1
74.34,-177.60,-115.40,-352,-7610,-3620,-1,0,-1
74.34,-177.60,-115.40,-353,-7602,-3625,-1,0,-1
74.34,-177.60,-115.40,-357,-7609,-3617,0,0,-1
74.34,-177.60,-115.40,-356,-7610,-3612,0,0,0
74.31,-177.60,-115.40,-354,-7602,-3612,-1,0,0
74.33,-177.60,-115.41,-352,-7606,-3616,-1,0,-1
74.33,-177.61,-115.42,-353,-7604,-3615,-1,0,-1
74.31,-177.61,-115.42,-356,-7606,-3627,-1,0,-1
74.32,-177.61,-115.43,-354,-7606,-3628,0,0,0
74.30,-177.61,-115.43,-357,-7606,-3626,0,0,0
74.32,-177.61,-115.43,-355,-7605,-3621,0,0,-1
74.30,-177.61,-115.42,-354,-7606,-3618,0,0,0
74.28,-177.61,-115.42,-359,-7609,-3612,-1,0,0
74.28,-177.62,-115.43,-351,-7608,-3605,0,0,-1
74.29,-177.62,-115.43,-353,-7612,-3612,-1,0,-1
74.27,-177.62,-115.44,-357,-7609,-3618,-1,0,-1
74.29,-177.62,-115.44,-360,-7605,-3623,-1,0,-1
74.29,-177.63,-115.45,-358,-7606,-3620,-1,0,-1
74.29,-177.63,-115.45,-357,-7606,-3620,-1,-1,0
74.29,-177.63,-115.45,-359,-7604,-3615,0,-1,0
74.29,-177.63,-115.45,-357,-7598,-3618,0,-1,0
74.29,-177.63,-115.45,-355,-7599,-3618,0,-1,0
74.30,-177.62,-115.45,-358,-7600,-3610,-1,-1,0
74.30,-177.62,-115.45,-358,-7598,-3612,-1,-1,0
74.30,-177.61,-115.44,-356,-7604,-3616,0,-1,0
74.28,-177.61,-115.45,-357,-7601,-3618,-1,0,0
74.28,-177.61,-115.45,-356,-7606,-3630,0,0,-1
74.28,-177.61,-115.45,-355,-7608,-3631,-1,-1,-1
74.28,-177.61,-115.45,-348,-7611,-3623,0,-1,0
74.28,-177.61,-115.45,-356,-7608,-3618,0,-1,-1
74.28,-177.62,-115.44,-351,-7595,-3610,-1,-1,-1
74.28,-177.61,-115.45,-346,-7608,-3620,-1,0,0
74.28,-177.61,-115.45,-350,-7606,-3629,-1,0,0
74.28,-177.62,-115.45,-353,-7610,-3648,0,0,0
74.28,-177.62,-115.45,-355,-7614,-3638,-1,-1,0
74.28,-177.61,-115.45,-358,-7603,-3627,0,0,0
74.27,-177.62,-115.44,-356,-7602,-3626,0,0,-1
74.25,-177.61,-115.43,-351,-7601,-3616,0,-1,0
74.26,-177.61,-115.44,-358,-7601,-3617,0,0,0
74.24,-177.60,-115.44,-355,-7613,-3608,-1,-1,0
74.24,-177.60,-115.43,-358,-7612,-3611,0,-1,0
74.24,-177.60,-115.44,-357,-7617,-3626,-1,-1,-1
74.24,-177.60,-115.44,-360,-7607,-3622,0,0,-1
74.24,-177.60,-115.44,-353,-7603,-3615,0,-1,0
74.24,-177.60,-115.43,-360,-7602,-3604,0,-1,0
74.24,-177.60,-115.43,-358,-7603,-3623,0,0,-1
74.24,-177.60,-115.43,-356,-7608,-3615,-1,-1,0
74.24,-177.60,-115.43,-358,-7611,-3622,0,-1,0
74.24,-177.60,-115.43,-354,-7609,-3633,0,-1,-1
74.24,-177.59,-115.43,-364,-7608,-3623,0,-1,0
74.24,-177.59,-115.43,-370,-7606,-3615,0,0,-1
74.24,-177.59,-115.43,-361,-7603,-3603,0,-1,-1
74.25,-177.59,-115.42,-360,-7603,-3605,0,-1,-1
74.24,-177.59,-115.42,-351,-7611,-3603,0,-1,0
74.25,-177.59,-115.42,-354,-7610,-3606,0,-1,0
74.25,-177.59,-115.41,-355,-7604,-3598,-1,-1,0
74.25,-177.59,-115.42,-360,-7600,-3601,-1,0,-1
74.25,-177.59,-115.42,-361,-7594,-3600,-1,0,-1
74.27,-177.59,-115.43,-360,-7609,-3609,-1,0,0
74.27,-177.59,-115.43,-358,-7609,-3622,0,-1,0
74.25,-177.59,-115.42,-355,-7602,-3620,0,-1,0
74.25,-177.59,-115.42,-354,-7604,-3618,0,-1,0
74.25,-177.58,-115.41,-359,-7602,-3609,0,0,0
74.24,-177.58,-115.41,-358,-7605,-3609,0,0,0
74.24,-177.58,-115.41,-361,-7610,-3614,-1,0,0
74.24,-177.58,-115.41,-364,-7612,-3609,0,-1,0
74.24,-177.58,-115.41,-357,-7612,-3615,0,0,0
74.23,-177.58,-115.40,-349,-7609,-3618,0,0,0
74.21,-177.57,-115.40,-360,-7598,-3601,0,0,-1
74.19,-177.58,-115.40,-355,-7598,-3606,-1,0,0
74.20,-177.58,-115.40,-362,-7604,-3599,0,0,-1
74.19,-177.58,-115.41,-366,-7611,-3632,-1,0,0
74.18,-177.58,-115.41,-364,-7610,-3623,0,-1,0
74.19,-177.57,-115.41,-367,-7607,-3625,0,-1,0
74.19,-177.56,-115.40,-365,-7605,-3616,-1,-1,0
74.18,-177.56,-115.40,-362,-7606,-3603,0,-1,0
74.20,-177.56,-115.40,-369,-7621,-3618,0,-1,-1
74.20,-177.56,-115.40,-368,-7615,-3604,-1,-1,-1
74.22,-177.56,-115.40,-364,-7612,-3604,0,-1,-1
74.21,-177.55,-115.41,-365,-7606,-3613,-1,-1,0
74.21,-177.55,-115.41,-365,-7610,-3615,0,0,-1
74.23,-177.56,-115.41,-358,-7600,-3607,-1,-1,0
74.21,-177.56,-115.41,-358,-7599,-3607,-1,-1,0
74.21,-177.56,-115.41,-354,-7597,-3607,-1,0,0
74.21,-177.56,-115.41,-360,-7600,-3607,-1,-1,0
74.23,-177.56,-115.42,-363,-7611,-3619,-1,-1,0
74.23,-177.56,-115.42,-365,-7616,-3630,0,-1,0
74.23,-177.55,-115.41,-364,-7610,-3623,0,-1,-1
74.23,-177.55,-115.41,-357,-7604,-3632,0,-1,0
74.23,-177.55,-115.41,-364,-7602,-3620,0,-1,0
74.23,-177.55,-115.41,-361,-7601,-3612,0,-1,0
74.23,-177.55,-115.41,-367,-7606,-3609,-1,0,-1
74.23,-177.55,-115.41,-364,-7606,-3615,0,-1,-1
74.23,-177.55,-115.41,-360,-7612,-3615,0,-1,-1
74.23,-177.55,-115.41,-359,-7616,-3615,0,-1,0
74.23,-177.55,-115.40,-362,-7603,-3607,0,-1,0
74.23,-177.55,-115.40,-360,-7605,-3604,-1,-1,-1
74.23,-177.55,-115.40,-363,-7602,-3614,0,0,-1
74.23,-177.55,-115.40,-364,-7602,-3609,0,-1,0
74.23,-177.55,-115.40,-360,-7596,-3615,0,-1,0
74.23,-177.55,-115.40,-354,-7596,-3608,0,-1,0
74.24,-177.55,-115.39,-357,-7600,-3604,0,-1,0
74.24,-177.54,-115.38,-364,-7601,-3597,0,-1,0
74.24,-177.54,-115.38,-360,-7599,-3597,-1,-1,0
74.24,-177.54,-115.38,-355,-7604,-3612,-1,-1,-1
74.24,-177.54,-115.39,-357,-7606,-3610,0,0,0
74.24,-177.54,-115.40,-367,-7618,-3637,0,-1,0
74.25,-177.54,-115.39,-368,-7612,-3628,0,-1,0
74.24,-177.54,-115.38,-367,-7609,-3624,0,-1,-1
74.24,-177.53,-115.38,-365,-7607,-3617,0,-1,0
74.25,-177.53,-115.37,-364,-7610,-3619,0,-1,0
74.25,-177.53,-115.37,-367,-7617,-3610,0,-1,0
74.25,-177.53,-115.37,-364,-7618,-3600,-1,-1,0
74.24,-177.53,-115.38,-359,-7613,-3604,-1,0,0
74.24,-177.54,-115.38,-363,-7610,-3604,-1,0,-1
74.24,-177.54,-115.38,-356,-7613,-3617,-1,0,-1
74.24,-177.55,-115.39,-362,-7612,-3629,0,0,-1
74.24,-177.55,-115.39,-365,-7608,-3621,0,-1,0
74.24,-177.54,-115.39,-358,-7604,-3618,0,-1,0
74.24,-177.54,-115.39,-364,-7602,-3616,-1,-1,-1
74.24,-177.54,-115.39,-361,-7606,-3613,-1,0,-1
74.24,-177.55,-115.39,-369,-7613,-3617,-1,0,-1
74.24,-177.55,-115.39,-373,-7612,-3624,0,0,0
74.24,-177.54,-115.39,-379,-7610,-3622,0,0,-1
74.24,-177.54,-115.39,-373,-7609,-3615,0,0,-1
74.24,-177.54,-115.39,-375,-7604,-3614,-1,0,-1
74.24,-177.55,-115.39,-369,-7607,-3609,-1,0,-1
74.23,-177.55,-115.40,-369,-7613,-3608,-1,0,-1
74.23,-177.55,-115.40,-371,-7617,-3612,-1,0,-1
74.23,-177.56,-115.41,-365,-7605,-3612,-1,0,-1
74.23,-177.56,-115.41,-359,-7603,-3609,0,0,0
74.23,-177.56,-115.41,-366,-7601,-3614,0,-1,0
74.22,-177.56,-115.40,-351,-7601,-3606,0,0,0
74.23,-177.56,-115.41,-360,-7607,-3613,-1,0,0
74.23,-177.56,-115.41,-366,-7615,-3608,-1,0,-1
74.23,-177.56,-115.41,-364,-7616,-3614,0,0,0
74.23,-177.56,-115.41,-361,-7613,-3620,0,-1,0
74.22,-177.56,-115.40,-357,-7610,-3607,0,-1,0
74.21,-177.55,-115.39,-360,-7608,-3608,0,-1,0
74.21,-177.55,-115.39,-368,-7611,-3611,-1,-1,-1
74.21,-177.55,-115.39,-371,-7619,-3615,-1,0,-1
74.22,-177.56,-115.40,-374,-7612,-3615,-1,0,-1
74.22,-177.56,-115.40,-367,-7609,-3615,-1,0,-1
74.22,-177.57,-115.40,-360,-7605,-3602,0,0,-1
74.22,-177.56,-115.40,-368,-7610,-3600,0,-1,-1
74.20,-177.56,-115.39,-366,-7613,-3596,0,0,0
74.20,-177.56,-115.39,-366,-7612,-3600,-1,0,0
74.22,-177.56,-115.40,-371,-7608,-3607,-1,0,-1
74.22,-177.57,-115.40,-368,-7609,-3606,-1,0,-1
74.20,-177.57,-115.41,-359,-7609,-3622,0,0,0
74.22,-177.57,-115.40,-357,-7617,-3626,0,-1,0
74.22,-177.57,-115.40,-360,-7618,-3620,0,-1,0
74.20,-177.56,-115.39,-357,-7607,-3614,0,0,0
74.20,-177.56,-115.39,-363,-7610,-3601,0,0,0
74.20,-177.56,-115.39,-358,-7614,-3600,-1,0,-1
74.19,-177.57,-115.39,-355,-7616,-3606,0,0,0
74.20,-177.56,-115.39,-363,-7609,-3607,-1,-1,-1
74.20,-177.56,-115.39,-363,-7608,-3601,-1,0,-1
74.20,-177.57,-115.40,-358,-7607,-3609,-1,0,-1
74.21,-177.57,-115.40,-359,-7609,-3612,-1,0,-1
74.21,-177.57,-115.40,-361,-7613,-3611,0,-1,-1
74.19,-177.57,-115.40,-355,-7610,-3606,0,-1,0
74.21,-177.57,-115.40,-364,-7604,-3611,0,-1,0
74.19,-177.57,-115.39,-357,-7601,-3601,-1,-1,0
74.20,-177.57,-115.40,-366,-7604,-3611,-1,-1,0
74.20,-177.57,-115.40,-363,-7608,-3605,-1,-1,0
74.19,-177.56,-115.40,-366,-7615,-3615,-1,-1,0
74.19,-177.56,-115.40,-366,-7617,-3619,0,0,-1
74.19,-177.56,-115.40,-363,-7612,-3608,0,0,-1
74.19,-177.57,-115.39,-364,-7606,-3601,0,0,-1
74.19,-177.57,-115.39,-356,-7611,-3603,0,-1,-1
74.19,-177.57,-115.39,-360,-7610,-3605,-1,0,-1
74.19,-177.57,-115.39,-354,-7609,-3611,-1,0,0
74.17,-177.57,-115.40,-357,-7604,-3613,-1,0,-1
74.18,-177.58,-115.40,-356,-7599,-3615,0,0,-1
74.18,-177.58,-115.40,-356,-7606,-3612,-1,0,-1
74.18,-177.58,-115.40,-362,-7608,-3623,0,-1,0
74.18,-177.58,-115.40,-361,-7614,-3615,0,0,0
74.18,-177.58,-115.40,-363,-7611,-3607,0,-1,0
74.18,-177.58,-115.40,-362,-7612,-3604,-1,0,-1
74.18,-177.58,-115.40,-368,-7611,-3608,-1,0,-1
74.16,-177.58,-115.40,-363,-7607,-3605,-1,0,-1
74.16,-177.59,-115.40,-357,-7605,-3602,-1,0,0
74.16,-177.59,-115.40,-360,-7611,-3594,-1,0,-1
74.16,-177.58,-115.40,-364,-7614,-3596,-1,0,-1
74.15,-177.58,-115.41,-366,-7609,-3594,-1,0,-1
74.15,-177.59,-115.41,-365,-7608,-3599,-1,0,-1
74.15,-177.59,-115.41,-367,-7604,-3614,-1,0,-1
74.13,-177.59,-115.42,-365,-7608,-3619,-1,0,-1
74.13,-177.59,-115.42,-362,-7608,-3621,-1,0,-1
74.13,-177.59,-115.42,-366,-7613,-3616,0,0,-1
74.12,-177.59,-115.41,-366,-7614,-3609,0,0,-1
74.14,-177.60,-115.41,-356,-7608,-3600,-1,0,-1
74.13,-177.59,-115.42,-357,-7600,-3601,-1,0,0
74.14,-177.60,-115.43,-348,-7605,-3618,-1,0,-1
74.12,-177.60,-115.43,-358,-7612,-3617,-1,0,-1
74.12,-177.60,-115.43,-357,-7611,-3619,0,0,0
74.12,-177.60,-115.43,-360,-7614,-3627,0,-1,0
74.12,-177.60,-115.43,-361,-7608,-3617,0,0,-1
74.10,-177.60,-115.42,-357,-7601,-3616,0,0,0
74.10,-177.60,-115.42,-354,-7604,-3609,-1,0,-1
74.10,-177.60,-115.43,-350,-7607,-3606,-1,0,-1
74.11,-177.60,-115.43,-348,-7610,-3604,-1,0,-1
74.11,-177.61,-115.43,-351,-7611,-3614,-1,0,-1
74.11,-177.61,-115.43,-354,-7610,-3607,-1,0,-1
74.11,-177.61,-115.44,-355,-7609,-3618,-1,0,-1
74.12,-177.62,-115.44,-348,-7609,-3623,-1,0,0
74.12,-177.62,-115.44,-351,-7605,-3623,0,0,0
74.10,-177.61,-115.44,-350,-7603,-3618,-1,0,0
74.10,-177.61,-115.44,-353,-7606,-3614,-1,0,-1
74.10,-177.62,-115.45,-351,-7604,-3629,-1,-1,0
74.10,-177.62,-115.45,-348,-7598,-3628,-1,0,0
74.10,-177.62,-115.45,-357,-7607,-3628,-1,-1,0
74.10,-177.62,-115.46,-355,-7610,-3630,-1,0,-1
74.10,-177.62,-115.46,-353,-7608,-3631,0,0,-1
74.10,-177.62,-115.46,-348,-7608,-3634,-1,0,-1
74.08,-177.62,-115.46,-345,-7612,-3628,-1,0,-1
74.10,-177.62,-115.46,-353,-7614,-3619,-1,0,-1
74.10,-177.62,-115.46,-353,-7608,-3626,-1,0,-1
74.10,-177.62,-115.46,-349,-7596,-3618,-1,-1,0
74.10,-177.63,-115.47,-343,-7598,-3616,-1,-1,-1
74.10,-177.63,-115.47,-344,-7604,-3629,0,-1,0
74.10,-177.63,-115.47,-343,-7607,-3628,0,-1,0
74.12,-177.62,-115.46,-347,-7608,-3618,0,-1,0
74.10,-177.62,-115.46,-358,-7615,-3617,-1,-1,0
74.10,-177.62,-115.46,-347,-7608,-3615,-1,-1,0
74.10,-177.62,-115.46,-359,-7608,-3629,-1,0,0
74.10,-177.62,-115.46,-356,-7610,-3618,-1,-1,0
74.10,-177.62,-115.46,-351,-7611,-3617,0,-1,0
74.11,-177.61,-115.46,-360,-7604,-3616,-1,-1,0
74.11,-177.61,-115.46,-354,-7607,-3615,-1,-1,-1
74.09,-177.61,-115.46,-352,-7602,-3623,-1,0,-1
74.11,-177.62,-115.47,-355,-7611,-3622,-1,-1,-1
74.11,-177.61,-115.46,-357,-7612,-3622,0,-1,0
74.11,-177.61,-115.46,-360,-7599,-3623,0,-1,0
74.11,-177.61,-115.46,-355,-7607,-3620,-1,0,-1
74.09,-177.61,-115.46,-351,-7604,-3618,-1,0,-1
74.11,-177.61,-115.46,-350,-7606,-3623,0,-1,0
74.09,-177.61,-115.46,-351,-7615,-3631,0,-1,-1
74.09,-177.61,-115.46,-353,-7613,-3628,-1,-1,-1
74.09,-177.61,-115.47,-358,-7610,-3638,0,0,-1
74.09,-177.61,-115.47,-347,-7606,-3632,0,0,0
74.11,-177.61,-115.46,-350,-7597,-3621,0,-1,0
74.09,-177.61,-115.45,-351,-7597,-3608,0,-1,0
74.09,-177.61,-115.45,-360,-7603,-3597,-1,-1,0
74.09,-177.61,-115.45,-358,-7604,-3600,-1,0,-1
74.09,-177.61,-115.46,-356,-7611,-3615,-1,0,-1
74.09,-177.61,-115.47,-354,-7614,-3634,-1,0,-1
74.09,-177.61,-115.47,-354,-7613,-3641,0,-1,0
74.09,-177.61,-115.47,-353,-7606,-3633,0,-1,0
74.07,-177.60,-115.45,-359,-7601,-3619,0,-1,0
74.07,-177.60,-115.45,-356,-7609,-3624,0,0,-1
74.07,-177.61,-115.45,-355,-7602,-3624,-1,0,0
74.09,-177.61,-115.46,-360,-7603,-3631,-1,0,-1
74.09,-177.61,-115.46,-357,-7604,-3627,0,0,0
74.09,-177.61,-115.46,-359,-7605,-3618,-1,-1,-1
74.09,-177.61,-115.46,-354,-7605,-3622,-1,0,-1
74.09,-177.61,-115.47,-354,-7607,-3620,-1,-1,-1
74.09,-177.61,-115.47,-359,-7604,-3617,-1,-1,0
74.09,-177.61,-115.46,-359,-7601,-3619,0,-1,0
74.09,-177.61,-115.46,-361,-7606,-3622,-1,-1,0
74.09,-177.60,-115.47,-362,-7606,-3628,0,-1,0
74.09,-177.60,-115.47,-360,-7601,-3635,0,-1,0
74.09,-177.60,-115.47,-355,-7607,-3629,0,-1,0
74.08,-177.60,-115.47,-356,-7610,-3623,0,-1,0
74.08,-177.59,-115.46,-359,-7606,-3628,0,0,0
74.08,-177.59,-115.46,-358,-7615,-3623,0,0,-1
74.08,-177.59,-115.46,-365,-7613,-3621,0,-1,0
74.08,-177.59,-115.46,-362,-7614,-3622,-1,-1,-1
74.08,-177.59,-115.46,-361,-7610,-3627,-1,0,-1
74.08,-177.60,-115.47,-354,-7610,-3618,-1,0,-1
74.08,-177.60,-115.47,-349,-7607,-3621,-1,0,-1
74.08,-177.60,-115.47,-347,-7609,-3611,0,-1,0
74.08,-177.60,-115.47,-349,-7603,-3608,-1,-1,0
74.08,-177.59,-115.46,-352,-7608,-3611,0,-1,0
74.08,-177.59,-115.46,-359,-7606,-3611,0,-1,0
74.08,-177.59,-115.46,-358,-7608,-3620,0,-1,0
74.08,-177.59,-115.46,-356,-7601,-3622,0,-1,0
74.08,-177.59,-115.46,-363,-7607,-3627,0,-1,0
74.08,-177.59,-115.46,-358,-7607,-3630,0,-1,0
74.08,-177.59,-115.46,-351,-7615,-3627,0,-1,0
74.08,-177.59,-115.46,-351,-7616,-3624,-1,-1,0
74.08,-177.59,-115.46,-351,-7610,-3616,-1,0,-1
74.08,-177.59,-115.46,-360,-7602,-3612,-1,0,-1
74.08,-177.59,-115.46,-365,-7602,-3610,0,-1,0
74.08,-177.59,-115.46,-361,-7606,-3614,0,0,0
74.08,-177.59,-115.46,-360,-7603,-3611,0,-1,0
74.08,-177.58,-115.45,-358,-7608,-3617,-1,-1,0
74.08,-177.59,-115.46,-361,-7610,-3618,-1,0,-1
74.08,-177.59,-115.46,-359,-7606,-3607,0,0,-1
74.08,-177.59,-115.46,-359,-7598,-3623,0,-1,0
74.08,-177.58,-115.45,-360,-7602,-3621,0,-1,0
74.07,-177.58,-115.44,-359,-7606,-3608,0,-1,0
74.07,-177.58,-115.44,-363,-7604,-3606,0,-1,0
74.09,-177.57,-115.44,-359,-7603,-3606,-1,-1,0
74.07,-177.57,-115.45,-359,-7608,-3618,-1,0,-1
74.07,-177.57,-115.46,-368,-7606,-3626,-1,0,0
74.07,-177.57,-115.46,-367,-7615,-3635,0,0,0
74.08,-177.57,-115.46,-367,-7607,-3638,0,-1,0
74.06,-177.56,-115.45,-366,-7613,-3637,0,-1,0
74.06,-177.56,-115.45,-361,-7607,-3615,0,-1,0
74.06,-177.56,-115.45,-359,-7609,-3609,0,-1,0
74.06,-177.56,-115.45,-360,-7613,-3606,-1,-1,0
74.06,-177.56,-115.45,-365,-7613,-3607,-1,-1,0
74.08,-177.56,-115.45,-366,-7614,-3609,-1,-1,0
74.08,-177.56,-115.45,-363,-7608,-3611,-1,0,0
74.08,-177.56,-115.45,-363,-7611,-3615,0,0,-1
74.08,-177.56,-115.45,-367,-7608,-3618,-1,-1,0
74.06,-177.55,-115.44,-364,-7604,-3616,0,0,0
74.06,-177.55,-115.44,-365,-7601,-3607,0,-1,0
74.05,-177.54,-115.43,-357,-7600,-3602,0,-1,0
74.05,-177.54,-115.43,-371,-7599,-3608,0,-1,0
74.06,-177.53,-115.43,-374,-7601,-3605,0,-1,0
74.06,-177.53,-115.42,-373,-7608,-3611,-1,-1,0
74.06,-177.52,-115.42,-374,-7616,-3616,0,-1,0
74.05,-177.51,-115.41,-375,-7612,-3607,0,-1,-1
74.04,-177.52,-115.41,-367,-7615,-3602,-1,-1,0
74.04,-177.52,-115.41,-368,-7615,-3614,0,0,-1
74.04,-177.52,-115.41,-371,-7618,-3615,-1,0,0
74.05,-177.52,-115.42,-370,-7614,-3614,-1,0,-1
74.04,-177.52,-115.42,-367,-7610,-3625,-1,0,-1
74.04,-177.52,-115.42,-371,-7617,-3606,-1,0,-1
74.04,-177.53,-115.43,-368,-7612,-3625,0,0,-1
74.04,-177.53,-115.42,-373,-7614,-3625,0,0,0
74.03,-177.53,-115.41,-367,-7607,-3632,0,0,0
74.01,-177.53,-115.41,-362,-7610,-3612,0,0,0
74.02,-177.52,-115.41,-376,-7609,-3624,0,0,0
74.01,-177.52,-115.40,-366,-7606,-3616,0,0,0
74.02,-177.52,-115.39,-366,-7599,-3602,-1,-1,-1
74.02,-177.52,-115.39,-367,-7609,-3623,0,-1,-1
74.01,-177.53,-115.39,-357,-7613,-3616,0,-1,0
74.03,-177.52,-115.38,-360,-7611,-3612,0,-1,0
74.03,-177.52,-115.38,-357,-7602,-3604,0,-1,0
74.03,-177.52,-115.38,-366,-7602,-3595,-1,-1,-1
74.03,-177.53,-115.38,-365,-7606,-3599,-1,0,-1
74.03,-177.53,-115.39,-366,-7607,-3607,-1,0,-1
74.04,-177.54,-115.39,-361,-7610,-3618,-1,0,-1
74.04,-177.55,-115.40,-361,-7606,-3627,0,0,-1
74.04,-177.55,-115.40,-359,-7602,-3634,0,0,-1
74.04,-177.55,-115.40,-367,-7596,-3619,0,-1,-1
74.02,-177.55,-115.39,-371,-7600,-3612,0,-1,0
74.02,-177.54,-115.39,-374,-7595,-3596,-1,-1,-1
74.04,-177.54,-115.39,-365,-7599,-3598,-1,0,0
74.04,-177.54,-115.40,-371,-7611,-3601,-1,0,0
74.04,-177.54,-115.40,-368,-7612,-3615,0,0,-1
74.04,-177.54,-115.40,-369,-7606,-3615,-1,-1,0
74.04,-177.54,-115.39,-366,-7611,-3627,0,0,0
74.04,-177.54,-115.39,-368,-7612,-3613,0,0,-1
74.02,-177.54,-115.39,-371,-7614,-3610,0,0,-1
74.02,-177.54,-115.39,-366,-7614,-3609,0,0,-1
74.02,-177.54,-115.39,-364,-7614,-3607,-1,-1,-1
74.02,-177.54,-115.39,-368,-7608,-3603,0,0,0
74.02,-177.55,-115.39,-360,-7604,-3604,-1,0,-1
74.02,-177.55,-115.39,-356,-7604,-3608,-1,0,-1
74.03,-177.56,-115.40,-361,-7611,-3611,-1,0,-1
74.03,-177.56,-115.40,-361,-7611,-3619,0,0,-1
74.01,-177.56,-115.40,-361,-7605,-3616,0,-1,0
74.01,-177.56,-115.39,-363,-7603,-3608,0,0,0
74.01,-177.56,-115.39,-360,-7602,-3607,-1,0,0
74.01,-177.56,-115.39,-358,-7599,-3617,-1,0,0
74.01,-177.56,-115.39,-364,-7609,-3619,0,-1,0
74.01,-177.56,-115.39,-368,-7606,-3611,0,-1,0
74.01,-177.55,-115.39,-371,-7608,-3605,-1,0,0
74.01,-177.55,-115.39,-368,-7609,-3604,0,0,-1
74.00,-177.56,-115.39,-357,-7608,-3601,-1,0,-1
74.02,-177.56,-115.39,-359,-7610,-3603,-1,0,-1
74.01,-177.56,-115.39,-365,-7611,-3603,-1,-1,0
74.01,-177.56,-115.39,-367,-7608,-3605,-1,-1,-1
74.01,-177.56,-115.39,-364,-7608,-3606,0,0,-1
74.00,-177.56,-115.39,-353,-7608,-3611,0,0,0
74.00,-177.56,-115.39,-360,-7604,-3609,0,-1,0
74.02,-177.56,-115.39,-357,-7604,-3605,0,-1,0
74.00,-177.56,-115.39,-365,-7606,-3610,0,0,0
74.01,-177.56,-115.39,-364,-7605,-3614,-1,0,-1
74.01,-177.56,-115.39,-364,-7608,-3617,0,0,-1
74.01,-177.56,-115.38,-364,-7600,-3599,0,0,0
73.99,-177.55,-115.38,-371,-7606,-3612,0,0,-1
74.01,-177.56,-115.38,-363,-7606,-3599,-1,-1,0
73.99,-177.55,-115.38,-375,-7607,-3604,0,0,-1
73.99,-177.55,-115.38,-375,-7601,-3598,-1,0,-1
73.99,-177.55,-115.38,-369,-7601,-3596,-1,0,-1
73.99,-177.55,-115.38,-364,-7600,-3605,-1,-1,0
73.99,-177.55,-115.38,-360,-7604,-3600,-1,-1,0
73.99,-177.55,-115.38,-362,-7609,-3604,0,0,0
73.99,-177.55,-115.38,-363,-7606,-3621,0,0,0
73.99,-177.55,-115.38,-359,-7605,-3619,-1,0,0
73.99,-177.55,-115.38,-361,-7607,-3611,0,-1,0
73.99,-177.55,-115.38,-367,-7612,-3609,-1,-1,0
74.00,-177.54,-115.38,-376,-7602,-3608,-1,-1,0
74.00,-177.54,-115.39,-380,-7603,-3606,0,0,0
74.00,-177.54,-115.39,-368,-7603,-3613,-1,0,0
74.00,-177.54,-115.41,-363,-7620,-3637,0,0,0
74.00,-177.54,-115.40,-355,-7613,-3632,0,-1,-1
74.00,-177.54,-115.40,-354,-7609,-3630,0,-1,0
74.00,-177.53,-115.40,-354,-7611,-3639,0,-1,0
74.00,-177.54,-115.39,-361,-7603,-3620,0,0,-1
73.99,-177.54,-115.38,-362,-7598,-3609,-1,0,0
73.99,-177.54,-115.39,-369,-7615,-3616,0,0,-1
73.99,-177.54,-115.39,-366,-7608,-3612,-1,0,-1
73.97,-177.55,-115.39,-367,-7607,-3614,-1,0,-1
73.99,-177.55,-115.40,-366,-7604,-3626,-1,0,-1
73.96,-177.55,-115.41,-366,-7613,-3625,-1,0,-1
73.96,-177.56,-115.41,-358,-7606,-3622,0,0,-1
73.98,-177.56,-115.41,-357,-7607,-3623,-1,-1,0
73.97,-177.57,-115.40,-359,-7603,-3604,0,0,0
73.97,-177.57,-115.40,-357,-7591,-3606,-1,0,-1
73.97,-177.57,-115.41,-351,-7596,-3614,0,0,-1
73.95,-177.57,-115.41,-361,-7606,-3619,-1,0,-1
73.95,-177.57,-115.41,-362,-7603,-3619,-1,0,-1
73.96,-177.56,-115.42,-368,-7604,-3627,0,-1,0
73.95,-177.57,-115.41,-368,-7607,-3621,0,0,-1
73.95,-177.57,-115.40,-356,-7608,-3616,0,0,-1
73.95,-177.57,-115.40,-361,-7599,-3613,-1,0,-1
73.95,-177.57,-115.40,-362,-7601,-3599,-1,0,-1
73.96,-177.58,-115.41,-356,-7608,-3618,-1,0,-1
73.96,-177.58,-115.41,-357,-7598,-3611,-1,0,-1
73.94,-177.59,-115.42,-357,-7593,-3610,-1,0,-1
73.94,-177.59,-115.42,-350,-7590,-3621,-1,0,-1
73.95,-177.59,-115.43,-346,-7599,-3623,0,0,-1
73.94,-177.60,-115.43,-348,-7605,-3625,-1,0,-1
73.93,-177.60,-115.42,-354,-7611,-3623,0,0,0
73.93,-177.60,-115.42,-362,-7613,-3619,0,0,0
73.93,-177.60,-115.42,-365,-7602,-3621,0,0,0
73.92,-177.60,-115.41,-362,-7599,-3605,0,0,-1
73.92,-177.60,-115.42,-355,-7598,-3609,-1,0,-1
73.92,-177.61,-115.42,-352,-7604,-3616,-1,0,0
73.92,-177.60,-115.43,-357,-7607,-3631,-1,-1,0
73.92,-177.60,-115.43,-363,-7607,-3626,-1,-1,-1
73.92,-177.61,-115.44,-356,-7603,-3637,0,0,-1
73.92,-177.61,-115.44,-352,-7602,-3631,0,0,-1
73.92,-177.61,-115.44,-354,-7605,-3626,0,-1,-1
73.92,-177.61,-115.44,-354,-7611,-3619,-1,-1,-1
73.92,-177.61,-115.44,-354,-7610,-3617,-1,0,-1
73.94,-177.62,-115.45,-353,-7602,-3629,-1,0,-1
73.93,-177.61,-115.46,-356,-7596,-3621,-1,0,-1
73.93,-177.61,-115.46,-353,-7597,-3628,0,-1,-1
73.94,-177.62,-115.45,-354,-7605,-3625,0,-1,0
73.94,-177.61,-115.45,-355,-7607,-3610,0,-1,-1
73.95,-177.63,-115.45,-352,-7611,-3603,-1,0,-1
73.96,-177.64,-115.46,-347,-7612,-3607,-1,0,-1
73.97,-177.65,-115.47,-345,-7610,-3613,-1,0,-1
73.97,-177.66,-115.49,-335,-7599,-3622,-1,0,-1
73.99,-177.66,-115.50,-335,-7592,-3645,-1,-1,-1
74.00,-177.66,-115.51,-342,-7595,-3640,-1,-1,-1
74.01,-177.67,-115.50,-345,-7596,-3630,0,-1,0
