Yaw,Pitch,Roll,AX,AY,AZ,GX,GY,GZ
87.34,178.24,-130.71,243,-6444,-5610,0,-1,0
87.32,178.24,-130.68,248,-6445,-5584,0,0,-1
87.31,178.22,-130.65,251,-6427,-5540,1,0,-1
87.29,178.20,-130.62,262,-6402,-5486,0,0,-1
87.29,178.19,-130.61,265,-6378,-5439,-1,0,-1
87.30,178.19,-130.62,270,-6381,-5428,-1,-1,-1
87.31,178.19,-130.65,277,-6392,-5447,-2,-1,0
87.31,178.19,-130.70,272,-6403,-5479,-2,-1,-1
87.33,178.19,-130.73,269,-6399,-5508,-2,-1,-1
87.33,178.18,-130.77,261,-6384,-5516,-1,-1,-1
87.35,178.19,-130.79,260,-6371,-5514,-1,0,-1
87.35,178.18,-130.80,259,-6366,-5515,-1,-1,0
87.35,178.18,-130.80,266,-6348,-5504,0,0,-1
87.35,178.18,-130.80,266,-6359,-5502,-1,-1,0
87.35,178.19,-130.81,268,-6368,-5499,-1,-1,0
87.35,178.19,-130.81,267,-6375,-5511,-1,-1,0
87.34,178.20,-130.81,268,-6376,-5519,-1,-1,0
87.35,178.21,-130.81,263,-6374,-5514,0,-1,0
87.35,178.21,-130.81,260,-6375,-5521,0,-1,0
87.34,178.21,-130.80,259,-6383,-5512,0,0,0
87.34,178.21,-130.79,261,-6391,-5502,-1,-1,0
87.35,178.22,-130.80,251,-6392,-5508,-1,-1,0
87.33,178.22,-130.80,262,-6383,-5504,-1,-1,0
87.34,178.22,-130.81,263,-6380,-5519,-1,0,-1
87.34,178.21,-130.82,262,-6376,-5520,-1,0,-1
87.35,178.21,-130.81,278,-6378,-5518,-1,-1,0
87.34,178.21,-130.82,274,-6370,-5523,-1,-1,0
87.35,178.22,-130.82,267,-6363,-5508,-1,-1,0
87.35,178.22,-130.83,265,-6366,-5509,-1,-1,0
87.35,178.22,-130.83,270,-6363,-5508,-1,-1,0
87.35,178.22,-130.84,264,-6363,-5517,-1,-1,0
87.35,178.23,-130.84,265,-6370,-5526,0,-1,0
87.35,178.23,-130.84,259,-6374,-5527,0,-1,0
87.35,178.24,-130.83,256,-6384,-5525,0,-1,0
87.35,178.24,-130.82,253,-6386,-5525,0,-1,0
87.35,178.24,-130.83,249,-6381,-5519,0,-1,0
87.35,178.24,-130.83,251,-6373,-5512,-1,0,-1
87.35,178.24,-130.83,252,-6365,-5503,-1,-1,-1
87.36,178.25,-130.83,255,-6363,-5499,-1,-1,0
87.37,178.24,-130.84,261,-6359,-5497,-1,-1,0
87.37,178.24,-130.84,253,-6363,-5508,-1,-1,0
87.37,178.25,-130.85,255,-6369,-5511,-1,-1,0
87.37,178.25,-130.84,256,-6366,-5515,0,-1,0
87.37,178.26,-130.85,256,-6360,-5517,0,-1,0
87.37,178.26,-130.85,256,-6363,-5526,0,-1,0
87.37,178.27,-130.84,257,-6370,-5521,0,-1,0
87.37,178.27,-130.84,252,-6377,-5521,0,-1,0
87.36,178.27,-130.84,253,-6377,-5516,0,-1,0
87.37,178.27,-130.84,253,-6372,-5506,-1,-1,0
87.37,178.28,-130.84,251,-6364,-5503,-1,-1,0
87.37,178.28,-130.85,253,-6367,-5512,-1,-1,0
87.37,178.28,-130.86,252,-6368,-5527,-1,0,0
87.37,178.28,-130.86,252,-6375,-5532,0,-1,0
87.37,178.28,-130.85,257,-6367,-5513,0,-1,0
87.37,178.29,-130.84,254,-6369,-5499,0,-1,0
87.37,178.29,-130.84,251,-6369,-5497,0,-1,0
87.37,178.30,-130.84,248,-6371,-5503,-1,-1,0
87.37,178.30,-130.84,252,-6378,-5511,0,-1,0
87.38,178.31,-130.85,247,-6368,-5520,0,-1,0
87.38,178.31,-130.85,248,-6369,-5517,-1,-1,0
87.38,178.31,-130.84,246,-6373,-5519,0,-1,0
87.39,178.32,-130.85,243,-6363,-5524,-1,-1,0
87.38,178.32,-130.85,247,-6365,-5521,-1,-1,0
87.38,178.32,-130.85,250,-6365,-5526,-1,0,0
87.38,178.32,-130.85,242,-6368,-5535,0,0,0
87.37,178.32,-130.84,240,-6373,-5527,0,0,0
87.36,178.32,-130.83,242,-6381,-5520,0,0,0
87.36,178.33,-130.81,240,-6384,-5505,0,0,0
87.36,178.32,-130.80,244,-6372,-5498,-1,0,0
87.36,178.32,-130.80,245,-6373,-5498,-1,-1,0
87.36,178.33,-130.81,247,-6371,-5496,-1,-1,0
87.37,178.33,-130.81,245,-6372,-5499,-1,-1,0
87.37,178.34,-130.82,240,-6364,-5498,-1,-1,0
87.38,178.35,-130.83,228,-6369,-5503,-1,-1,0
87.37,178.35,-130.84,232,-6373,-5524,-1,-1,-1
87.38,178.36,-130.84,235,-6377,-5535,-1,-1,0
87.38,178.36,-130.85,237,-6372,-5533,0,-1,0
87.38,178.36,-130.85,236,-6365,-5519,0,0,0
87.38,178.36,-130.85,244,-6362,-5509,-1,-1,0
87.39,178.36,-130.85,237,-6368,-5510,-1,-1,-1
87.38,178.36,-130.85,241,-6372,-5511,0,-1,0
87.39,178.37,-130.85,241,-6371,-5521,0,-1,0
87.39,178.37,-130.85,237,-6375,-5513,0,-1,0
87.39,178.37,-130.85,237,-6378,-5506,-1,-1,0
87.40,178.37,-130.85,236,-6379,-5513,-1,-1,-1
87.40,178.37,-130.85,241,-6376,-5519,-1,-1,-1
87.40,178.37,-130.85,236,-6384,-5524,0,0,-1
87.41,178.37,-130.85,238,-6371,-5508,-1,0,-1
87.41,178.37,-130.85,237,-6367,-5508,0,0,-1
87.41,178.37,-130.85,246,-6358,-5499,-1,-1,-1
87.41,178.36,-130.86,244,-6358,-5502,-1,-1,-1
87.41,178.37,-130.85,241,-6364,-5514,0,-1,0
87.42,178.37,-130.86,236,-6370,-5517,0,-1,0
87.42,178.38,-130.85,227,-6372,-5520,0,-1,0
87.40,178.38,-130.85,229,-6372,-5525,0,-1,0
87.41,178.38,-130.84,232,-6373,-5527,0,0,-1
87.41,178.38,-130.84,235,-6373,-5521,0,0,-1
87.40,178.37,-130.84,237,-6374,-5508,-1,0,-1
87.41,178.37,-130.85,226,-6379,-5523,-1,0,-1
87.41,178.37,-130.85,229,-6380,-5523,-1,0,-1
87.40,178.36,-130.85,240,-6375,-5522,0,0,-1
87.40,178.36,-130.84,243,-6371,-5508,0,0,-1
87.40,178.36,-130.83,241,-6370,-5504,0,-1,-1
87.40,178.36,-130.83,240,-6368,-5491,0,-1,0
87.42,178.37,-130.82,250,-6367,-5496,-1,-1,-1
87.42,178.36,-130.82,249,-6367,-5494,-1,-1,-1
87.41,178.37,-130.83,251,-6371,-5507,-1,-1,-1
87.41,178.36,-130.84,244,-6374,-5523,-1,0,-1
87.41,178.36,-130.84,242,-6375,-5532,0,0,-1
87.41,178.36,-130.83,236,-6385,-5536,0,0,-1
87.41,178.35,-130.82,244,-6384,-5521,0,0,-1
87.40,178.35,-130.82,243,-6378,-5518,0,0,0
87.40,178.35,-130.82,241,-6364,-5518,-1,0,0
87.40,178.35,-130.83,232,-6359,-5511,-1,-1,0
87.40,178.35,-130.83,229,-6368,-5512,-1,0,-1
87.40,178.35,-130.83,234,-6378,-5518,0,0,-1
87.38,178.34,-130.82,251,-6377,-5505,0,0,-1
87.39,178.34,-130.81,256,-6370,-5489,0,0,0
87.38,178.34,-130.81,253,-6370,-5492,-1,-1,0
87.38,178.34,-130.82,250,-6367,-5503,-1,-1,0
87.38,178.34,-130.83,242,-6364,-5509,-1,0,-1
87.38,178.34,-130.84,244,-6367,-5516,0,0,-1
87.38,178.34,-130.82,246,-6370,-5507,0,0,-1
87.38,178.34,-130.81,244,-6371,-5500,0,0,0
87.38,178.34,-130.81,247,-6377,-5511,0,0,-1
87.38,178.33,-130.82,247,-6380,-5511,-1,0,-1
87.37,178.32,-130.82,242,-6380,-5515,-1,0,-1
87.37,178.32,-130.82,239,-6370,-5513,0,0,-1
87.39,178.32,-130.82,240,-6354,-5506,0,0,-1
87.38,178.31,-130.82,247,-6350,-5504,0,0,-1
87.38,178.32,-130.81,243,-6354,-5509,0,0,0
87.38,178.32,-130.81,245,-6359,-5507,0,-1,0
87.36,178.32,-130.81,239,-6377,-5514,0,-1,0
87.36,178.32,-130.81,244,-6378,-5507,0,0,0
87.36,178.33,-130.81,235,-6379,-5516,0,-1,0
87.36,178.33,-130.80,232,-6381,-5518,0,0,-1
87.36,178.33,-130.80,235,-6374,-5516,0,0,-1
87.36,178.33,-130.80,240,-6377,-5512,0,0,-1
87.36,178.32,-130.80,245,-6381,-5500,-1,0,-1
87.36,178.32,-130.80,247,-6381,-5509,-1,0,-1
87.36,178.32,-130.81,243,-6371,-5513,-1,0,-1
87.36,178.31,-130.81,242,-6364,-5515,0,0,-1
87.36,178.31,-130.81,248,-6366,-5507,0,0,-1
87.35,178.31,-130.81,247,-6370,-5507,0,0,-1
87.35,178.31,-130.80,247,-6372,-5501,0,-1,-1
87.35,178.31,-130.80,244,-6379,-5511,-1,0,0
87.35,178.31,-130.81,247,-6370,-5516,0,0,0
87.35,178.31,-130.81,243,-6373,-5513,0,0,-1
87.35,178.31,-130.81,237,-6368,-5517,0,0,-1
87.35,178.31,-130.81,240,-6363,-5518,0,0,-1
87.34,178.30,-130.80,241,-6374,-5515,0,0,-1
87.34,178.30,-130.80,241,-6373,-5500,0,0,-1
87.34,178.30,-130.80,244,-6370,-5503,-1,0,-1
87.34,178.30,-130.81,247,-6368,-5509,-1,0,-1
87.34,178.30,-130.81,243,-6372,-5514,0,0,-1
87.34,178.30,-130.81,246,-6377,-5510,0,0,-1
87.34,178.30,-130.81,239,-6375,-5516,0,0,-1
87.34,178.30,-130.80,246,-6370,-5506,0,0,0
87.34,178.30,-130.80,247,-6370,-5512,0,0,-1
87.34,178.30,-130.80,253,-6371,-5503,0,0,0
87.33,178.29,-130.80,254,-6374,-5513,0,0,0
87.34,178.29,-130.80,247,-6378,-5516,0,0,0
87.33,178.29,-130.80,247,-6373,-5518,0,0,-1
87.33,178.29,-130.80,246,-6375,-5519,0,0,-1
87.33,178.28,-130.80,245,-6374,-5521,0,0,-1
87.33,178.28,-130.80,249,-6376,-5513,0,0,-1
87.33,178.28,-130.80,240,-6395,-5520,0,0,-1
87.33,178.28,-130.80,246,-6379,-5504,-1,-1,-1
87.33,178.28,-130.81,250,-6367,-5507,-1,0,-1
87.32,178.28,-130.82,244,-6364,-5516,-1,0,-1
87.33,178.29,-130.82,237,-6367,-5522,0,-1,0
87.32,178.28,-130.82,237,-6373,-5520,0,0,0
87.32,178.29,-130.81,242,-6375,-5517,0,0,0
87.32,178.29,-130.81,241,-6377,-5500,0,0,0
87.32,178.29,-130.81,234,-6373,-5505,0,0,-1
87.32,178.29,-130.81,233,-6375,-5512,0,0,-1
87.32,178.29,-130.81,239,-6372,-5513,-1,0,-1
87.32,178.28,-130.81,243,-6374,-5512,0,0,-1
87.32,178.28,-130.81,242,-6382,-5517,-1,0,-1
87.30,178.28,-130.82,246,-6375,-5526,-1,0,-1
87.30,178.28,-130.82,248,-6376,-5518,-1,0,-1
87.30,178.27,-130.81,248,-6378,-5515,0,0,-1
87.30,178.27,-130.81,249,-6372,-5499,0,0,-1
87.30,178.27,-130.82,247,-6375,-5503,-1,0,-1
87.30,178.27,-130.82,247,-6370,-5517,-1,0,-1
87.30,178.27,-130.82,246,-6370,-5523,0,0,-1
87.30,178.27,-130.82,250,-6372,-5527,0,0,-1
87.30,178.27,-130.82,248,-6377,-5523,0,0,-1
87.30,178.26,-130.83,245,-6381,-5517,-1,0,-1
87.29,178.26,-130.82,245,-6378,-5516,0,0,-1
87.29,178.26,-130.82,244,-6368,-5509,0,0,-1
87.28,178.25,-130.82,246,-6368,-5507,0,0,-1
87.28,178.25,-130.83,243,-6381,-5514,-1,0,-1
87.27,178.24,-130.83,247,-6376,-5508,-1,0,-1
87.27,178.24,-130.83,248,-6380,-5519,-1,0,-1
87.27,178.24,-130.83,251,-6374,-5515,-1,0,-1
87.26,178.24,-130.84,252,-6376,-5512,-1,0,-1
87.26,178.23,-130.84,249,-6376,-5522,-1,0,-1
87.26,178.23,-130.85,258,-6374,-5525,-1,0,-1
87.25,178.22,-130.85,254,-6372,-5527,-1,0,-1
87.25,178.23,-130.85,251,-6372,-5523,-1,0,-1
87.24,178.22,-130.85,253,-6370,-5517,-1,0,-1
87.24,178.22,-130.85,251,-6380,-5515,-1,0,-1
87.24,178.21,-130.86,249,-6381,-5515,-1,0,-1
87.24,178.21,-130.86,252,-6371,-5518,-1,0,-1
87.25,178.22,-130.86,251,-6365,-5516,-1,0,-1
87.25,178.21,-130.87,248,-6374,-5527,-1,0,-1
87.25,178.21,-130.87,247,-6365,-5523,-1,-1,-1
87.25,178.21,-130.87,247,-6362,-5515,0,-1,0
87.25,178.21,-130.86,251,-6359,-5508,0,0,-1
87.25,178.21,-130.86,254,-6367,-5510,0,0,-1
87.24,178.21,-130.86,258,-6368,-5507,0,-1,-1
87.25,178.21,-130.86,261,-6362,-5505,-1,-1,0
87.25,178.22,-130.87,255,-6354,-5521,-1,-1,0
87.26,178.22,-130.87,250,-6361,-5528,-1,-1,-1
87.26,178.22,-130.87,245,-6359,-5525,0,-1,-1
87.26,178.22,-130.87,243,-6361,-5537,0,0,-1
87.25,178.23,-130.86,246,-6364,-5538,0,0,0
87.25,178.23,-130.86,242,-6371,-5525,0,0,0
87.25,178.23,-130.86,243,-6367,-5514,0,0,-1
87.25,178.23,-130.86,254,-6369,-5507,-1,-1,-1
87.25,178.23,-130.86,253,-6370,-5504,-1,0,-1
87.25,178.23,-130.86,251,-6370,-5504,-1,-1,-1
87.25,178.23,-130.86,253,-6363,-5508,-1,-1,0
87.26,178.23,-130.86,254,-6366,-5514,0,-1,0
87.26,178.24,-130.86,250,-6362,-5522,0,-1,0
87.25,178.25,-130.87,253,-6366,-5524,-1,-1,0
87.25,178.25,-130.87,254,-6371,-5528,-1,-1,0
87.25,178.25,-130.87,254,-6363,-5527,0,-1,0
87.25,178.25,-130.87,256,-6358,-5515,0,-1,0
87.25,178.25,-130.86,253,-6357,-5514,0,-1,0
87.26,178.26,-130.86,246,-6365,-5518,0,-1,0
87.26,178.26,-130.86,243,-6370,-5514,0,-1,-1
87.25,178.26,-130.85,248,-6378,-5517,0,-1,0
87.26,178.27,-130.85,252,-6375,-5524,0,-1,0
87.26,178.27,-130.85,246,-6373,-5511,0,-1,0
87.26,178.27,-130.85,246,-6369,-5517,-1,-1,-1
87.26,178.27,-130.85,241,-6368,-5512,0,0,-1
87.26,178.27,-130.85,243,-6362,-5535,0,-1,0
87.26,178.27,-130.85,248,-6357,-5528,0,0,-1
87.26,178.27,-130.85,246,-6358,-5523,-1,0,0
87.26,178.28,-130.84,242,-6360,-5522,0,-1,0
87.26,178.28,-130.84,248,-6361,-5518,0,0,-1
87.26,178.28,-130.84,246,-6367,-5520,-1,-1,-1
87.26,178.28,-130.83,231,-6364,-5510,0,0,0
87.26,178.28,-130.83,238,-6368,-5529,0,0,-1
87.27,178.28,-130.81,242,-6365,-5500,0,0,-1
87.26,178.28,-130.81,244,-6367,-5510,0,0,-1
87.26,178.28,-130.81,248,-6370,-5505,0,-1,0
87.26,178.28,-130.81,244,-6372,-5511,-1,0,0
87.27,178.28,-130.81,239,-6377,-5520,0,0,-1
87.26,178.28,-130.81,253,-6371,-5506,-1,-1,0
87.26,178.28,-130.81,242,-6362,-5518,0,0,-1
87.26,178.28,-130.81,250,-6373,-5524,0,0,-1
87.26,178.28,-130.80,248,-6374,-5518,0,-1,0
87.26,178.29,-130.80,239,-6367,-5507,0,-1,0
87.25,178.29,-130.80,230,-6365,-5508,-1,-1,0
87.26,178.29,-130.81,229,-6366,-5523,-1,0,0
87.26,178.29,-130.82,249,-6364,-5520,0,-1,0
87.26,178.29,-130.82,248,-6373,-5525,0,-1,0
87.26,178.30,-130.81,245,-6379,-5515,0,-1,0
87.25,178.31,-130.81,234,-6376,-5517,0,0,-1
87.26,178.30,-130.82,231,-6367,-5516,-1,0,-1
87.26,178.30,-130.82,235,-6375,-5520,-1,0,0
87.26,178.30,-130.82,239,-6372,-5526,-1,0,-1
87.26,178.30,-130.82,240,-6372,-5519,-1,0,-1
87.25,178.30,-130.83,238,-6361,-5516,-1,-1,0
87.25,178.30,-130.83,241,-6362,-5514,-1,0,-1
87.26,178.30,-130.84,243,-6359,-5517,-1,0,0
87.24,178.30,-130.84,238,-6365,-5526,0,-1,0
87.25,178.31,-130.84,237,-6367,-5512,0,-1,0
87.25,178.31,-130.84,237,-6361,-5514,0,-1,0
87.25,178.32,-130.84,235,-6369,-5510,0,-1,0
87.26,178.33,-130.84,231,-6363,-5517,0,-1,0
87.26,178.33,-130.84,238,-6361,-5513,0,-1,0
87.26,178.34,-130.84,232,-6364,-5516,0,-1,0
87.26,178.34,-130.83,227,-6364,-5509,0,0,-1
87.26,178.34,-130.84,228,-6366,-5513,0,-1,-1
87.26,178.34,-130.84,235,-6364,-5514,-1,-1,-1
87.26,178.34,-130.84,235,-6371,-5530,0,-1,-1
87.25,178.34,-130.83,236,-6371,-5510,0,0,0
87.26,178.34,-130.83,235,-6367,-5511,-1,-1,-1
87.25,178.34,-130.83,236,-6358,-5505,0,0,-1
87.25,178.34,-130.83,238,-6361,-5513,0,-1,0
87.25,178.34,-130.82,238,-6367,-5506,0,-1,0
87.25,178.35,-130.82,244,-6374,-5500,0,-1,0
87.25,178.35,-130.82,237,-6379,-5501,0,-1,0
87.25,178.35,-130.82,239,-6373,-5505,0,0,-1
87.25,178.35,-130.82,232,-6364,-5517,0,0,-1
87.25,178.34,-130.82,231,-6367,-5524,0,0,-1
87.25,178.34,-130.82,232,-6371,-5518,0,0,-1
87.25,178.34,-130.82,231,-6365,-5510,0,0,-1
87.24,178.34,-130.81,228,-6377,-5506,0,0,-1
87.24,178.34,-130.81,237,-6377,-5504,-1,0,-1
87.24,178.34,-130.81,236,-6372,-5505,0,0,-1
87.24,178.34,-130.81,236,-6370,-5506,0,0,-1
87.24,178.34,-130.81,234,-6376,-5521,-1,0,-1
87.24,178.33,-130.82,235,-6369,-5522,-1,0,-1
87.24,178.33,-130.82,241,-6366,-5526,0,0,-1
87.23,178.32,-130.82,240,-6377,-5518,0,0,-1
87.23,178.32,-130.82,232,-6379,-5521,0,0,-1
87.23,178.32,-130.82,231,-6372,-5510,0,0,-1
87.23,178.32,-130.82,234,-6368,-5498,-1,0,-1
87.24,178.32,-130.83,239,-6367,-5500,-1,0,-1
87.23,178.32,-130.83,239,-6364,-5512,-1,0,0
87.23,178.32,-130.83,236,-6376,-5520,0,0,0
87.23,178.32,-130.83,235,-6376,-5532,0,0,-1
87.22,178.33,-130.82,236,-6374,-5516,0,0,-1
87.22,178.33,-130.82,232,-6375,-5508,0,0,-1
87.23,178.32,-130.81,239,-6370,-5506,0,0,-1
87.21,178.32,-130.82,238,-6371,-5516,-1,0,-1
87.21,178.32,-130.82,230,-6379,-5520,0,0,-1
87.23,178.31,-130.82,232,-6378,-5505,0,0,-1
87.23,178.31,-130.82,234,-6373,-5514,-1,0,-1
87.23,178.31,-130.82,235,-6374,-5510,-1,-1,-1
87.22,178.32,-130.82,237,-6376,-5512,-1,-1,-1
87.22,178.32,-130.82,232,-6380,-5509,-1,0,-1
87.22,178.32,-130.82,236,-6380,-5523,0,0,-1
87.22,178.31,-130.81,243,-6373,-5517,0,0,-1
87.22,178.31,-130.81,236,-6370,-5516,0,0,0
87.22,178.32,-130.80,233,-6363,-5507,0,-1,0
87.22,178.32,-130.80,229,-6368,-5517,0,-1,0
87.22,178.32,-130.80,235,-6370,-5512,-1,0,0
87.21,178.32,-130.80,234,-6371,-5507,-1,0,-1
87.21,178.32,-130.81,235,-6376,-5511,-1,0,-1
87.21,178.31,-130.81,240,-6379,-5524,-1,0,-1
87.21,178.31,-130.81,235,-6370,-5521,0,0,-1
87.21,178.31,-130.82,224,-6370,-5508,-1,0,-1
87.21,178.31,-130.82,236,-6367,-5505,-1,0,-1
87.21,178.31,-130.82,238,-6368,-5497,-1,0,-1
87.21,178.31,-130.82,233,-6363,-5503,0,0,-1
87.20,178.31,-130.83,238,-6362,-5512,0,0,-1
87.20,178.31,-130.83,236,-6366,-5516,0,0,-1
87.19,178.31,-130.82,246,-6369,-5522,0,0,-1
87.19,178.31,-130.82,243,-6374,-5522,0,0,-1
87.19,178.31,-130.82,233,-6374,-5514,0,0,-1
87.19,178.31,-130.82,234,-6369,-5518,0,0,-1
87.19,178.31,-130.82,236,-6362,-5515,-1,0,-1
87.19,178.30,-130.82,240,-6367,-5511,0,0,-1
87.19,178.30,-130.82,238,-6374,-5513,0,0,-1
87.19,178.30,-130.82,237,-6375,-5509,0,-1,0
87.19,178.30,-130.82,241,-6370,-5514,0,0,-1
87.19,178.30,-130.82,242,-6372,-5517,0,0,-1
87.19,178.30,-130.82,240,-6368,-5516,-1,0,-1
87.19,178.30,-130.83,242,-6369,-5523,-1,0,-1
87.18,178.30,-130.83,244,-6373,-5528,-1,0,-1
87.18,178.30,-130.83,237,-6376,-5529,0,0,-1
87.17,178.30,-130.83,237,-6369,-5523,0,0,-1
87.19,178.30,-130.82,238,-6372,-5525,0,0,-1
87.18,178.29,-130.82,238,-6370,-5518,0,0,-1
87.19,178.29,-130.83,238,-6364,-5501,-1,0,-1
87.17,178.30,-130.83,239,-6358,-5503,-1,0,-1
87.18,178.30,-130.84,237,-6360,-5513,-1,0,-1
87.18,178.30,-130.84,241,-6356,-5526,0,0,0
87.18,178.30,-130.84,238,-6357,-5532,0,0,-1
87.18,178.30,-130.84,234,-6369,-5530,0,0,-1
87.17,178.29,-130.83,239,-6369,-5519,0,0,-1
87.17,178.29,-130.83,235,-6366,-5516,0,0,-1
87.17,178.29,-130.83,234,-6370,-5509,0,0,-1
87.17,178.29,-130.83,235,-6364,-5499,0,0,-1
87.17,178.29,-130.83,234,-6363,-5500,0,0,-1
87.15,178.29,-130.83,236,-6363,-5503,-1,0,-1
87.16,178.29,-130.84,241,-6356,-5503,-1,0,-1
87.15,178.29,-130.83,244,-6366,-5511,0,0,-1
87.15,178.29,-130.83,247,-6370,-5514,0,0,-1
87.15,178.29,-130.83,242,-6367,-5510,0,0,-1
87.15,178.29,-130.83,239,-6366,-5527,0,0,-1
87.15,178.29,-130.83,246,-6366,-5523,0,0,-1
87.15,178.29,-130.83,239,-6369,-5520,0,0,-1
87.15,178.29,-130.83,239,-6371,-5517,0,0,-1
87.15,178.29,-130.83,237,-6369,-5511,0,0,-1
87.15,178.29,-130.83,237,-6373,-5517,0,0,-1
87.15,178.29,-130.83,236,-6379,-5517,0,0,-1
87.15,178.29,-130.82,244,-6365,-5498,0,0,0
87.15,178.29,-130.82,240,-6367,-5499,0,0,-1
87.15,178.28,-130.82,243,-6367,-5495,-1,0,-1
87.15,178.28,-130.83,237,-6364,-5502,-1,0,-1
87.15,178.28,-130.82,235,-6360,-5500,0,0,-1
87.15,178.28,-130.82,244,-6363,-5514,0,0,-1
87.15,178.28,-130.82,240,-6365,-5519,0,0,-1
87.15,178.28,-130.83,245,-6366,-5520,0,0,-1
87.13,178.29,-130.83,243,-6373,-5520,0,0,0
87.13,178.29,-130.83,236,-6373,-5520,0,0,-1
87.13,178.29,-130.83,231,-6371,-5525,0,0,-1
87.13,178.28,-130.83,232,-6375,-5519,0,0,-1
87.13,178.28,-130.82,238,-6377,-5515,0,0,-1
87.13,178.28,-130.82,240,-6369,-5516,-1,0,-1
87.13,178.27,-130.83,235,-6369,-5518,0,0,-1
87.11,178.28,-130.83,236,-6360,-5510,-1,0,-1
87.11,178.27,-130.84,246,-6360,-5517,0,0,-1
87.11,178.27,-130.84,243,-6362,-5516,0,0,-1
87.11,178.27,-130.84,243,-6364,-5514,-1,0,-1
87.11,178.27,-130.84,241,-6371,-5520,-1,0,-1
87.11,178.26,-130.85,251,-6369,-5527,-1,0,-1
87.11,178.26,-130.85,248,-6368,-5518,0,0,-1
87.11,178.26,-130.84,245,-6375,-5512,0,0,-1
87.10,178.25,-130.83,246,-6372,-5494,0,0,-1
87.10,178.25,-130.84,247,-6362,-5490,-1,0,-1
87.11,178.25,-130.85,241,-6362,-5499,-1,0,-1
87.10,178.25,-130.86,248,-6357,-5526,-1,0,-1
87.09,178.24,-130.86,253,-6363,-5532,0,0,-1
87.09,178.24,-130.86,244,-6364,-5534,0,0,-1
87.09,178.24,-130.85,253,-6373,-5522,0,0,0
87.09,178.24,-130.85,242,-6383,-5519,0,0,-1
87.09,178.24,-130.85,245,-6374,-5512,-1,0,-1
87.09,178.24,-130.85,238,-6363,-5504,-1,0,-1
87.07,178.24,-130.86,249,-6363,-5498,-1,0,-1
87.07,178.24,-130.86,250,-6365,-5521,-1,0,-1
87.08,178.24,-130.87,249,-6364,-5522,-1,0,-1
87.08,178.24,-130.87,255,-6372,-5526,0,0,-1
87.08,178.23,-130.87,256,-6371,-5521,0,0,-1
87.08,178.24,-130.87,248,-6370,-5511,0,-1,-1
87.09,178.24,-130.87,247,-6364,-5519,-1,-1,-1
87.09,178.24,-130.88,247,-6363,-5524,0,-1,-1
87.09,178.24,-130.88,250,-6368,-5526,0,-1,0
87.09,178.24,-130.87,248,-6370,-5524,0,0,0
87.09,178.24,-130.87,246,-6366,-5523,0,0,-1
87.09,178.25,-130.87,246,-6370,-5527,0,0,0
87.09,178.25,-130.87,244,-6366,-5516,0,0,-1
87.09,178.25,-130.87,253,-6360,-5511,0,0,-1
87.09,178.25,-130.87,249,-6363,-5509,-1,0,-1
87.09,178.24,-130.87,247,-6365,-5509,-1,0,-1
87.09,178.24,-130.87,250,-6362,-5508,-1,0,-1
87.09,178.24,-130.87,245,-6368,-5519,0,0,-1
87.09,178.24,-130.87,253,-6365,-5513,0,0,-1
87.09,178.24,-130.87,245,-6354,-5516,0,0,-1
87.09,178.24,-130.87,247,-6358,-5515,0,0,-1
87.09,178.24,-130.87,248,-6361,-5521,0,0,-1
87.09,178.24,-130.87,251,-6372,-5526,0,0,0
87.09,178.25,-130.87,246,-6372,-5524,-1,-1,-1
87.07,178.25,-130.87,245,-6361,-5525,-1,-1,0
87.08,178.26,-130.87,239,-6365,-5527,0,0,-1
87.08,178.25,-130.88,240,-6363,-5533,0,0,-1
87.08,178.25,-130.88,249,-6360,-5530,0,0,0
87.08,178.26,-130.87,256,-6359,-5521,0,-1,-1
87.08,178.25,-130.88,250,-6367,-5527,0,0,-1
87.08,178.25,-130.88,246,-6370,-5530,-1,0,-1
87.09,178.25,-130.88,251,-6366,-5530,-1,0,-1
87.09,178.25,-130.88,242,-6363,-5519,0,0,-1
87.08,178.25,-130.88,237,-6362,-5508,0,0,-1
87.08,178.26,-130.87,233,-6366,-5516,0,0,-1
87.08,178.26,-130.87,235,-6367,-5515,-1,-1,-1
87.07,178.26,-130.88,245,-6365,-5517,-1,-1,0
87.08,178.27,-130.88,250,-6368,-5523,0,-1,0
87.08,178.27,-130.88,249,-6363,-5527,-1,0,0
87.08,178.27,-130.88,242,-6360,-5543,0,0,0
87.08,178.27,-130.88,244,-6362,-5532,0,0,-1
87.07,178.27,-130.87,243,-6369,-5529,0,0,-1
87.07,178.27,-130.87,237,-6372,-5524,0,0,-1
87.07,178.27,-130.87,239,-6369,-5522,-1,0,-1
87.07,178.27,-130.87,235,-6368,-5524,-1,0,-1
87.07,178.27,-130.87,236,-6370,-5521,-1,0,-1
87.07,178.27,-130.87,242,-6361,-5524,-1,0,-1
87.07,178.27,-130.88,238,-6360,-5533,-1,0,0
87.07,178.27,-130.88,245,-6373,-5539,-1,0,-1
87.07,178.27,-130.88,245,-6368,-5538,0,-1,0
87.07,178.27,-130.89,241,-6362,-5536,0,-1,0
87.07,178.27,-130.89,240,-6350,-5528,0,-1,0
87.07,178.28,-130.89,238,-6354,-5520,0,-1,0
87.07,178.29,-130.89,237,-6360,-5521,0,0,0
87.06,178.28,-130.89,240,-6368,-5521,0,-1,0
87.06,178.29,-130.88,235,-6374,-5515,0,-1,-1
87.06,178.29,-130.88,231,-6368,-5521,0,0,0
87.07,178.29,-130.88,237,-6370,-5516,0,-1,-1
87.07,178.29,-130.88,237,-6375,-5528,-1,0,-1
87.07,178.29,-130.88,236,-6370,-5527,-1,0,-1
87.07,178.29,-130.88,238,-6374,-5526,0,0,-1
87.07,178.29,-130.88,240,-6364,-5526,0,0,0
87.07,178.29,-130.88,236,-6361,-5520,0,0,-1
87.07,178.30,-130.89,239,-6361,-5511,0,0,-1
87.07,178.29,-130.88,245,-6367,-5510,0,-1,0
87.07,178.29,-130.88,248,-6368,-5513,0,0,-1
87.07,178.29,-130.88,246,-6368,-5520,0,0,0
87.07,178.29,-130.88,242,-6359,-5524,0,0,-1
87.06,178.30,-130.89,242,-6353,-5523,-1,0,-1
87.06,178.30,-130.89,245,-6359,-5518,0,0,-1
87.06,178.30,-130.89,243,-6358,-5522,0,0,-1
87.06,178.30,-130.89,241,-6354,-5522,0,0,-1
87.06,178.30,-130.89,244,-6360,-5517,0,-1,-1
87.06,178.30,-130.89,241,-6354,-5513,0,0,0
87.06,178.30,-130.89,242,-6357,-5506,0,-1,-1
87.06,178.30,-130.89,241,-6372,-5519,0,0,0
87.06,178.30,-130.89,244,-6368,-5520,0,0,-1
87.06,178.30,-130.89,241,-6363,-5524,0,0,-1
87.06,178.30,-130.89,237,-6362,-5530,0,0,-1
87.06,178.30,-130.89,244,-6370,-5530,0,0,-1
87.05,178.30,-130.88,239,-6380,-5530,0,-1,-1
87.06,178.30,-130.87,240,-6378,-5512,0,-1,-1
87.06,178.31,-130.87,240,-6376,-5505,-1,-1,-1
87.06,178.30,-130.87,245,-6372,-5505,-1,-1,0
87.07,178.31,-130.88,243,-6366,-5516,0,-1,0
87.06,178.31,-130.88,242,-6368,-5527,0,-1,0
87.06,178.31,-130.88,242,-6366,-5526,0,-1,0
87.05,178.32,-130.86,232,-6370,-5521,0,-1,0
87.05,178.32,-130.86,230,-6369,-5521,0,0,0
87.05,178.32,-130.86,231,-6370,-5513,-1,0,-1
87.05,178.32,-130.86,236,-6370,-5513,0,0,-1
87.05,178.32,-130.86,239,-6372,-5523,0,0,-1
87.05,178.32,-130.86,233,-6370,-5514,0,0,-1
87.05,178.32,-130.86,236,-6364,-5500,-1,0,-1
87.05,178.31,-130.87,239,-6361,-5510,-1,-1,0
87.05,178.31,-130.87,239,-6367,-5510,0,0,-1
87.05,178.31,-130.87,236,-6370,-5515,0,0,-1
87.05,178.32,-130.86,230,-6369,-5516,-1,-1,0
87.06,178.32,-130.87,231,-6366,-5510,0,-1,0
87.05,178.32,-130.86,240,-6363,-5511,0,-1,0
87.05,178.32,-130.86,238,-6363,-5509,0,-1,0
87.05,178.32,-130.86,233,-6371,-5516,0,-1,0
87.05,178.33,-130.85,230,-6374,-5518,0,-1,-1
87.05,178.33,-130.85,231,-6374,-5517,-1,0,-1
87.05,178.32,-130.86,238,-6366,-5520,-1,0,-1
87.05,178.32,-130.86,240,-6366,-5519,-1,0,-1
87.05,178.32,-130.86,241,-6370,-5515,0,0,-1
87.05,178.32,-130.86,242,-6366,-5517,-1,0,-1
87.05,178.32,-130.86,235,-6368,-5518,-1,0,0
87.06,178.32,-130.87,234,-6366,-5509,-1,-1,0
87.06,178.32,-130.87,232,-6362,-5516,0,-1,-1
87.06,178.32,-130.87,236,-6364,-5512,0,-1,0
87.06,178.33,-130.86,241,-6368,-5516,0,0,0
87.06,178.33,-130.86,235,-6374,-5524,-1,0,0
87.06,178.33,-130.86,241,-6375,-5518,-1,-1,0
87.06,178.33,-130.86,242,-6373,-5529,-1,0,0
87.06,178.33,-130.86,241,-6367,-5521,0,0,0
87.06,178.33,-130.86,243,-6369,-5505,0,0,0
87.05,178.32,-130.86,244,-6367,-5517,0,0,-1
87.05,178.32,-130.86,240,-6360,-5515,0,-1,0
87.06,178.33,-130.86,235,-6361,-5507,0,-1,-1
87.06,178.33,-130.86,236,-6357,-5506,-1,-1,0
87.06,178.33,-130.86,238,-6358,-5517,-1,0,-1
87.06,178.33,-130.86,237,-6368,-5518,-1,0,-1
87.05,178.33,-130.87,239,-6367,-5522,-1,0,-1
87.04,178.32,-130.87,246,-6370,-5524,0,0,-1
87.06,178.32,-130.87,240,-6375,-5526,0,0,-1
87.05,178.32,-130.86,233,-6376,-5520,0,0,-1
87.05,178.32,-130.86,228,-6371,-5513,-1,-1,-1
87.06,178.32,-130.87,232,-6370,-5507,-1,-1,-1
87.05,178.32,-130.88,236,-6365,-5522,-1,-1,0
87.05,178.32,-130.88,240,-6366,-5538,0,-1,0
87.05,178.33,-130.87,238,-6365,-5525,0,-1,0
87.05,178.33,-130.87,242,-6369,-5527,0,0,0
87.05,178.33,-130.87,238,-6367,-5532,0,0,0
87.04,178.33,-130.87,238,-6370,-5515,0,0,-1
87.04,178.33,-130.87,238,-6372,-5503,-1,0,-1
87.04,178.33,-130.87,236,-6373,-5507,0,0,-1
87.04,178.32,-130.86,236,-6369,-5493,-1,0,0
87.04,178.33,-130.86,231,-6365,-5490,-1,0,-1
87.04,178.33,-130.87,242,-6362,-5512,-1,-1,-1
87.05,178.33,-130.88,242,-6366,-5516,-1,-1,0
87.05,178.33,-130.88,243,-6368,-5526,0,-1,-1
87.05,178.33,-130.87,234,-6365,-5519,0,-1,0
87.04,178.33,-130.88,227,-6359,-5515,0,0,0
87.04,178.33,-130.88,231,-6362,-5523,0,-1,0
87.05,178.33,-130.87,243,-6358,-5519,0,0,0
87.05,178.33,-130.87,242,-6366,-5516,0,0,0
87.05,178.33,-130.87,239,-6368,-5525,0,0,0
87.04,178.33,-130.87,235,-6365,-5521,-1,0,0
87.04,178.33,-130.88,237,-6368,-5526,-1,0,-1
87.04,178.33,-130.87,239,-6366,-5518,-1,0,0
87.04,178.33,-130.88,234,-6368,-5523,-1,0,0
87.04,178.33,-130.88,243,-6367,-5523,-1,0,0
87.04,178.33,-130.88,245,-6366,-5521,-1,-1,0
87.04,178.33,-130.88,245,-6361,-5527,0,0,-1
87.04,178.32,-130.88,243,-6357,-5518,-1,0,0
87.04,178.33,-130.88,235,-6359,-5523,0,-1,0
87.04,178.33,-130.88,232,-6364,-5512,0,-1,-1
87.04,178.33,-130.88,235,-6371,-5501,0,0,0
87.04,178.33,-130.87,237,-6367,-5507,-1,0,-1
87.04,178.33,-130.87,233,-6368,-5508,-1,0,-1
87.04,178.33,-130.88,240,-6371,-5508,0,0,-1
87.04,178.33,-130.88,238,-6367,-5513,-1,0,-1
87.04,178.33,-130.88,242,-6377,-5530,0,0,0
87.04,178.33,-130.88,240,-6375,-5526,-1,-1,-1
87.04,178.33,-130.88,247,-6367,-5514,0,-1,-1
87.03,178.32,-130.87,246,-6365,-5523,-1,-1,0
87.04,178.33,-130.88,242,-6366,-5520,-1,0,0
87.02,178.33,-130.88,237,-6367,-5524,-1,0,0
87.03,178.33,-130.89,240,-6359,-5532,-1,0,0
87.03,178.33,-130.89,242,-6365,-5539,0,0,-1
87.02,178.33,-130.88,237,-6373,-5537,0,0,-1
87.02,178.32,-130.88,241,-6372,-5522,0,0,-1
87.02,178.33,-130.88,241,-6366,-5510,-1,0,0
87.02,178.32,-130.89,244,-6360,-5507,-1,-1,0
87.02,178.32,-130.90,244,-6362,-5518,-1,-1,0
87.02,178.33,-130.91,241,-6366,-5530,-1,0,0
87.02,178.32,-130.90,239,-6363,-5538,0,0,0
87.02,178.32,-130.90,241,-6372,-5537,0,0,0
87.01,178.32,-130.89,238,-6371,-5527,0,0,0
87.01,178.32,-130.89,237,-6371,-5510,-1,0,-1
87.01,178.32,-130.89,238,-6373,-5512,-1,0,-1
87.01,178.32,-130.89,234,-6371,-5510,-1,-1,-1
87.01,178.32,-130.89,232,-6371,-5509,-1,-1,-1
87.01,178.32,-130.89,241,-6366,-5505,-1,0,0
87.01,178.31,-130.90,244,-6367,-5508,-1,-1,-1
87.01,178.31,-130.90,243,-6369,-5520,0,-1,-1
87.01,178.32,-130.89,242,-6372,-5512,-1,-1,-1
87.02,178.32,-130.90,235,-6375,-5524,-1,-1,-1
87.02,178.32,-130.90,238,-6364,-5519,-1,-1,0
87.02,178.32,-130.91,240,-6357,-5521,-1,-1,0
87.02,178.32,-130.91,238,-6359,-5525,0,-1,0
87.01,178.33,-130.91,242,-6361,-5537,0,-1,0
87.02,178.33,-130.90,243,-6362,-5530,0,0,0
87.02,178.33,-130.90,235,-6361,-5529,0,0,0
87.02,178.32,-130.90,236,-6366,-5518,0,-1,0
87.01,178.33,-130.91,239,-6368,-5516,-1,-1,0
87.01,178.33,-130.91,238,-6374,-5517,-1,0,-1
87.02,178.33,-130.92,239,-6369,-5526,-1,0,0
87.02,178.33,-130.92,244,-6367,-5532,-1,0,0
87.02,178.33,-130.92,243,-6369,-5522,0,-1,0
87.02,178.33,-130.92,243,-6365,-5514,-1,-1,-1
87.02,178.33,-130.92,242,-6359,-5519,-1,-1,0
87.02,178.33,-130.92,240,-6366,-5529,0,-1,0
87.02,178.33,-130.92,238,-6366,-5533,-1,0,0
87.01,178.33,-130.92,243,-6361,-5526,-1,-1,0
87.02,178.33,-130.92,243,-6364,-5529,0,-1,0
87.02,178.33,-130.92,249,-6358,-5523,-1,-1,0
87.02,178.34,-130.93,244,-6356,-5522,0,-1,0
87.01,178.33,-130.92,250,-6364,-5525,-1,-1,0
87.02,178.34,-130.93,247,-6362,-5533,-1,0,0
87.02,178.34,-130.93,243,-6364,-5531,-1,0,0
87.02,178.33,-130.93,243,-6355,-5526,-1,0,-1
87.01,178.33,-130.93,244,-6357,-5528,0,0,-1
87.01,178.33,-130.93,249,-6367,-5529,0,-1,0
87.01,178.33,-130.93,239,-6361,-5520,0,-1,0
87.02,178.33,-130.93,240,-6350,-5517,-1,-1,0
87.02,178.34,-130.94,241,-6352,-5521,-1,-1,0
87.02,178.34,-130.94,244,-6360,-5529,-1,-1,0
87.02,178.34,-130.94,251,-6367,-5541,0,-1,0
87.02,178.35,-130.94,247,-6363,-5543,0,-1,0
87.02,178.35,-130.94,241,-6358,-5544,0,0,0
87.02,178.35,-130.94,238,-6362,-5535,0,0,0
87.01,178.34,-130.94,242,-6360,-5524,-1,0,-1
87.03,178.34,-130.94,241,-6361,-5524,0,-1,0
87.02,178.35,-130.94,234,-6360,-5519,-1,-1,0
87.02,178.35,-130.94,235,-6364,-5517,-1,-1,-1
87.02,178.34,-130.95,240,-6363,-5511,-1,0,-1
87.02,178.35,-130.94,240,-6363,-5510,0,-1,0
87.02,178.35,-130.94,243,-6363,-5509,-1,-1,0
87.02,178.35,-130.94,246,-6367,-5516,-1,-1,0
87.02,178.35,-130.94,242,-6365,-5521,-1,-1,0
87.02,178.35,-130.95,252,-6365,-5528,0,-1,0
87.02,178.35,-130.95,247,-6354,-5528,0,-1,0
87.04,178.35,-130.94,240,-6351,-5525,0,-1,0
87.02,178.36,-130.94,243,-6368,-5531,0,-1,0
87.02,178.35,-130.94,237,-6371,-5524,0,0,0
87.02,178.35,-130.94,236,-6372,-5524,0,-1,0
87.02,178.36,-130.93,240,-6376,-5519,0,-1,-1
87.03,178.36,-130.93,243,-6373,-5517,0,-1,0
87.03,178.36,-130.93,242,-6367,-5519,-1,-1,0
87.04,178.36,-130.93,235,-6365,-5516,-1,-1,0
87.04,178.36,-130.93,240,-6361,-5524,-1,-1,-1
87.04,178.36,-130.93,245,-6363,-5520,-1,-1,0
87.04,178.36,-130.93,250,-6367,-5532,0,-1,0
87.03,178.36,-130.92,249,-6366,-5536,0,-1,0
87.03,178.36,-130.92,245,-6369,-5533,0,-1,0
87.03,178.37,-130.92,229,-6364,-5526,0,-1,0
87.03,178.37,-130.91,228,-6370,-5526,0,-1,0
87.04,178.38,-130.91,232,-6366,-5518,0,-1,0
87.04,178.37,-130.90,239,-6371,-5521,0,0,-1
87.04,178.37,-130.90,233,-6369,-5524,0,0,-1
87.04,178.37,-130.91,238,-6368,-5517,-1,0,-1
87.04,178.36,-130.90,235,-6368,-5520,0,0,-1
87.04,178.36,-130.89,243,-6365,-5526,0,0,-1
87.03,178.36,-130.88,233,-6369,-5524,0,0,-1
87.04,178.36,-130.87,235,-6366,-5503,0,-1,0
87.04,178.37,-130.86,234,-6364,-5499,-1,-1,0
87.04,178.36,-130.87,240,-6356,-5503,0,0,0
87.04,178.37,-130.86,235,-6369,-5515,0,-1,0
87.03,178.36,-130.86,245,-6374,-5525,0,0,-1
87.03,178.37,-130.85,245,-6367,-5506,0,-1,0
87.02,178.37,-130.84,232,-6366,-5506,0,0,0
87.02,178.37,-130.84,225,-6361,-5504,-1,0,0
87.02,178.36,-130.85,234,-6361,-5517,-1,0,-1
87.01,178.37,-130.85,229,-6370,-5525,-1,0,-1
87.01,178.37,-130.85,228,-6379,-5525,0,-1,0
87.01,178.37,-130.85,229,-6374,-5517,-1,0,-1
87.01,178.37,-130.86,234,-6371,-5514,-1,0,-1
87.02,178.37,-130.86,233,-6374,-5521,-1,0,-1
87.02,178.36,-130.87,240,-6374,-5518,-1,0,-1
87.01,178.36,-130.86,237,-6374,-5511,-1,0,0
87.02,178.36,-130.87,236,-6365,-5514,-1,0,0
87.02,178.36,-130.87,237,-6366,-5509,-1,0,0
87.02,178.36,-130.87,238,-6363,-5517,-1,0,0
87.02,178.36,-130.87,237,-6369,-5536,0,0,0
87.01,178.36,-130.88,231,-6379,-5532,-1,0,0
87.01,178.36,-130.88,228,-6380,-5532,-1,0,-1
87.01,178.36,-130.88,233,-6376,-5524,0,0,-1
87.01,178.36,-130.88,237,-6368,-5514,-1,0,-1
87.01,178.35,-130.88,239,-6371,-5512,-1,0,-1
87.01,178.35,-130.89,238,-6371,-5521,-1,0,-1
87.01,178.35,-130.89,231,-6368,-5517,-1,0,-1
87.02,178.35,-130.90,240,-6364,-5517,-1,0,-1
87.02,178.35,-130.90,240,-6364,-5519,0,0,-1
87.01,178.35,-130.89,239,-6364,-5516,0,0,0
87.02,178.36,-130.89,233,-6368,-5524,0,-1,0
87.02,178.36,-130.89,237,-6374,-5531,-1,0,-1
87.02,178.36,-130.89,233,-6378,-5529,-1,0,-1
87.02,178.35,-130.90,235,-6370,-5523,0,0,0
87.02,178.35,-130.90,239,-6376,-5520,0,0,-1
87.01,178.35,-130.89,241,-6367,-5515,0,0,-1
87.01,178.35,-130.89,247,-6361,-5517,-1,-1,0
87.01,178.35,-130.89,240,-6367,-5512,-1,-1,-1
87.02,178.35,-130.90,243,-6370,-5510,-1,0,0
87.02,178.35,-130.90,236,-6366,-5515,-1,-1,-1
87.01,178.35,-130.91,232,-6362,-5528,-1,0,0
87.01,178.35,-130.91,233,-6366,-5528,0,0,0
87.00,178.35,-130.90,238,-6372,-5527,0,0,-1
87.01,178.34,-130.90,238,-6375,-5517,0,0,-1
87.01,178.34,-130.90,241,-6365,-5509,-1,-1,0
87.01,178.34,-130.90,245,-6363,-5500,-1,-1,0
87.02,178.35,-130.90,248,-6365,-5503,-1,0,0
87.00,178.34,-130.91,251,-6372,-5516,-1,-1,0
87.02,178.35,-130.90,237,-6377,-5521,0,-1,0
87.01,178.34,-130.90,236,-6370,-5522,0,-1,0
87.01,178.35,-130.89,227,-6369,-5524,0,0,0
87.00,178.35,-130.89,232,-6369,-5522,0,0,-1
87.01,178.35,-130.89,235,-6366,-5519,0,-1,-1
87.01,178.35,-130.89,239,-6358,-5515,0,-1,-1
87.01,178.35,-130.89,239,-6361,-5519,-1,0,-1
87.01,178.35,-130.89,240,-6361,-5511,-1,-1,0
87.00,178.35,-130.90,236,-6355,-5518,-1,-1,-1
87.00,178.34,-130.91,241,-6360,-5527,-1,-1,0
87.01,178.35,-130.91,236,-6368,-5533,0,0,0
87.00,178.34,-130.91,237,-6367,-5534,0,0,-1
87.00,178.34,-130.91,239,-6362,-5525,0,0,-1
87.00,178.34,-130.91,237,-6366,-5520,0,-1,0
87.00,178.35,-130.90,239,-6359,-5514,0,-1,0
87.00,178.35,-130.90,234,-6368,-5513,-1,0,0
87.00,178.35,-130.90,230,-6370,-5520,0,0,0
87.00,178.35,-130.90,235,-6375,-5527,0,0,0
87.00,178.35,-130.90,230,-6373,-5526,-1,0,-1
87.00,178.35,-130.90,235,-6371,-5528,-1,0,-1
87.00,178.34,-130.91,242,-6372,-5519,-1,0,-1
87.00,178.34,-130.91,234,-6367,-5527,-1,0,-1
87.00,178.34,-130.91,232,-6362,-5528,0,0,-1
87.00,178.34,-130.90,239,-6360,-5518,0,0,-1
87.00,178.33,-130.91,247,-6358,-5514,0,-1,0
87.00,178.33,-130.91,248,-6359,-5511,0,-1,0
87.00,178.34,-130.90,246,-6371,-5518,-1,-1,0
87.00,178.34,-130.90,245,-6377,-5523,0,0,0
87.00,178.34,-130.90,239,-6375,-5525,0,-1,0
87.00,178.34,-130.90,236,-6368,-5517,-1,0,0
87.00,178.34,-130.90,233,-6366,-5519,-1,0,-1
87.00,178.33,-130.91,242,-6362,-5517,-1,0,-1
87.00,178.33,-130.91,243,-6369,-5522,-1,0,-1
87.00,178.33,-130.91,242,-6361,-5522,-1,0,-1
87.00,178.33,-130.91,241,-6362,-5525,-1,0,-1
87.00,178.33,-130.91,240,-6369,-5517,0,0,-1
86.99,178.33,-130.91,237,-6359,-5517,0,-1,0
86.99,178.33,-130.90,243,-6361,-5524,-1,0,0
86.99,178.33,-130.91,247,-6361,-5516,-1,0,0
86.99,178.33,-130.91,238,-6371,-5513,-1,0,0
87.00,178.33,-130.91,246,-6366,-5516,-1,0,0
87.00,178.33,-130.91,247,-6366,-5523,-1,0,-1
86.99,178.32,-130.91,245,-6367,-5520,0,0,-1
86.98,178.32,-130.91,248,-6375,-5513,0,0,-1
86.98,178.32,-130.91,242,-6366,-5508,-1,-1,0
86.99,178.32,-130.91,240,-6365,-5496,-1,-1,-1
86.99,178.31,-130.92,246,-6367,-5505,-1,-1,0
86.98,178.32,-130.93,251,-6368,-5529,-1,0,0
86.98,178.32,-130.93,247,-6369,-5544,0,0,0
86.98,178.32,-130.92,243,-6371,-5532,0,0,-1
86.97,178.31,-130.91,239,-6371,-5519,0,0,-1
86.97,178.31,-130.91,244,-6368,-5512,-1,0,-1
86.97,178.31,-130.92,244,-6369,-5515,-1,0,-1
86.97,178.31,-130.92,241,-6369,-5514,-1,0,-1
86.97,178.30,-130.92,242,-6360,-5510,-1,-1,-1
86.97,178.30,-130.92,242,-6356,-5505,-1,0,-1
86.97,178.30,-130.93,243,-6359,-5513,-1,0,-1
86.97,178.30,-130.93,242,-6356,-5518,-1,0,0
86.97,178.30,-130.93,242,-6362,-5517,0,0,0
86.97,178.30,-130.93,244,-6364,-5528,0,0,0
86.96,178.30,-130.93,246,-6366,-5530,-1,0,-1
86.96,178.30,-130.93,247,-6363,-5520,-1,0,0
86.96,178.30,-130.93,244,-6370,-5518,-1,0,0
86.96,178.30,-130.93,247,-6371,-5519,-1,0,0
86.96,178.30,-130.93,246,-6371,-5524,-1,0,0
86.96,178.30,-130.93,243,-6368,-5530,-1,0,0
86.96,178.30,-130.93,239,-6367,-5529,0,0,-1
86.94,178.30,-130.93,236,-6365,-5517,-1,0,-1
86.96,178.29,-130.94,248,-6361,-5509,-1,-1,-1
86.94,178.30,-130.94,244,-6363,-5519,-1,-1,-1
86.95,178.30,-130.94,247,-6367,-5517,-1,-1,0
86.95,178.30,-130.94,242,-6366,-5519,-1,-1,-1
86.95,178.30,-130.94,241,-6352,-5518,-1,-1,0
86.96,178.30,-130.95,242,-6352,-5513,0,-1,0
86.95,178.30,-130.94,245,-6353,-5507,0,-1,0
86.96,178.31,-130.94,247,-6360,-5529,0,-1,0
86.96,178.31,-130.94,253,-6356,-5535,0,-1,0
86.96,178.31,-130.94,248,-6361,-5529,0,-1,0
86.96,178.32,-130.94,246,-6361,-5535,0,-1,0
86.96,178.32,-130.94,240,-6364,-5536,0,-1,-1
86.96,178.32,-130.94,242,-6370,-5527,-1,-1,0
86.96,178.31,-130.95,244,-6363,-5531,-1,0,-1
86.96,178.31,-130.95,247,-6367,-5524,0,0,-1
86.96,178.32,-130.94,242,-6362,-5517,-1,0,-1
86.96,178.31,-130.95,243,-6357,-5525,0,-1,0
86.96,178.32,-130.94,249,-6356,-5523,0,-1,0
86.96,178.32,-130.94,252,-6353,-5530,0,-1,0
86.96,178.32,-130.94,246,-6360,-5528,-1,-1,0
86.97,178.32,-130.95,244,-6360,-5527,-1,-1,0
86.97,178.32,-130.95,248,-6363,-5529,-1,0,-1
86.97,178.32,-130.95,252,-6360,-5514,-1,0,0
86.96,178.31,-130.95,250,-6359,-5513,0,0,0
86.96,178.32,-130.94,244,-6360,-5513,0,0,-1
86.97,178.31,-130.94,251,-6360,-5497,0,-1,-1
86.96,178.31,-130.94,245,-6361,-5506,-1,-1,-1
86.96,178.32,-130.94,249,-6362,-5517,-1,-1,0
86.97,178.32,-130.95,247,-6362,-5526,-1,0,0
86.97,178.32,-130.95,250,-6369,-5531,0,-1,0
86.97,178.32,-130.95,244,-6369,-5540,0,-1,0
86.96,178.32,-130.94,239,-6367,-5541,0,0,0
86.96,178.32,-130.94,243,-6373,-5528,0,0,-1
86.96,178.32,-130.93,244,-6372,-5515,-1,0,-1
86.96,178.32,-130.93,244,-6368,-5513,-1,0,-1
86.96,178.32,-130.93,240,-6365,-5513,-1,-1,-1
86.96,178.32,-130.94,238,-6362,-5521,-1,0,-1
86.96,178.32,-130.94,239,-6361,-5520,-1,0,-1
86.96,178.32,-130.94,238,-6361,-5514,0,-1,0
86.96,178.32,-130.94,234,-6362,-5517,0,-1,-1
86.96,178.32,-130.94,231,-6366,-5520,-1,-1,0
86.97,178.32,-130.95,237,-6358,-5519,-1,0,0
86.97,178.32,-130.95,241,-6355,-5517,0,-1,0
86.97,178.33,-130.94,237,-6359,-5517,0,-1,0
86.97,178.33,-130.94,242,-6365,-5515,0,-1,0
86.97,178.33,-130.94,240,-6371,-5519,0,0,0
86.96,178.33,-130.93,244,-6374,-5516,0,0,0
86.96,178.33,-130.93,242,-6371,-5519,0,0,0
86.96,178.33,-130.93,242,-6373,-5522,0,-1,-1
86.96,178.33,-130.93,243,-6365,-5515,-1,-1,0
86.96,178.33,-130.93,241,-6361,-5512,-1,0,0
86.97,178.33,-130.94,233,-6362,-5517,-1,0,0
86.96,178.33,-130.94,237,-6356,-5527,-1,-1,0
86.96,178.33,-130.95,236,-6358,-5529,-1,-1,0
86.96,178.34,-130.94,233,-6359,-5518,0,-1,0
86.96,178.34,-130.94,234,-6357,-5523,0,-1,0
86.96,178.34,-130.94,231,-6361,-5523,0,-1,0
86.96,178.34,-130.94,240,-6365,-5523,0,-1,0
86.96,178.34,-130.94,240,-6359,-5525,0,-1,0
86.96,178.34,-130.94,239,-6365,-5522,-1,-1,0
86.96,178.34,-130.94,237,-6362,-5513,-1,-1,0
86.97,178.35,-130.94,244,-6358,-5516,-1,0,0
86.97,178.35,-130.94,241,-6355,-5519,0,-1,0
86.97,178.35,-130.94,242,-6358,-5529,-1,-1,0
86.97,178.35,-130.94,242,-6354,-5533,0,-1,0
86.97,178.35,-130.94,243,-6360,-5529,0,0,0
86.97,178.35,-130.94,241,-6363,-5532,-1,-1,0
86.98,178.35,-130.95,246,-6366,-5521,-1,-1,0
86.98,178.35,-130.95,240,-6360,-5519,-1,-1,0
86.96,178.36,-130.95,241,-6360,-5529,0,0,0
86.96,178.36,-130.95,242,-6356,-5542,0,-1,-1
86.98,178.35,-130.95,242,-6361,-5527,0,-1,-1
86.97,178.35,-130.94,248,-6354,-5523,0,-1,0
86.98,178.35,-130.95,248,-6348,-5517,-1,-1,0
86.98,178.36,-130.95,238,-6354,-5521,-1,-1,0
86.97,178.36,-130.96,234,-6359,-5536,-1,-1,0
86.98,178.36,-130.96,238,-6361,-5536,0,-1,0
86.97,178.36,-130.95,236,-6360,-5536,0,-1,0
86.97,178.37,-130.95,234,-6364,-5531,0,-1,0
86.98,178.37,-130.94,237,-6369,-5530,0,-1,0
86.98,178.37,-130.94,237,-6363,-5530,-1,-1,-1
86.97,178.37,-130.95,228,-6363,-5528,-1,-1,-1
86.98,178.37,-130.95,225,-6360,-5526,0,-1,-1
86.98,178.37,-130.96,237,-6363,-5514,-1,-1,0
86.98,178.37,-130.96,239,-6362,-5512,-1,-1,-1
86.97,178.36,-130.95,240,-6364,-5519,-1,0,-1
86.98,178.37,-130.96,238,-6365,-5531,0,-1,0
86.99,178.37,-130.95,239,-6367,-5532,0,-1,0
86.98,178.37,-130.94,239,-6359,-5523,0,-1,0
86.98,178.37,-130.94,241,-6356,-5508,0,-1,-1
86.98,178.37,-130.94,236,-6355,-5517,0,-1,0
86.98,178.38,-130.94,235,-6359,-5520,0,-1,0
87.00,178.37,-130.93,230,-6362,-5514,0,-1,0
86.99,178.38,-130.93,229,-6366,-5521,0,-1,0
86.99,178.38,-130.92,236,-6362,-5511,0,0,-1
86.99,178.38,-130.92,239,-6358,-5506,-1,0,-1
86.99,178.38,-130.92,234,-6366,-5515,0,0,-1
86.99,178.38,-130.92,232,-6361,-5514,-1,0,-1
86.99,178.38,-130.92,237,-6365,-5522,0,0,-1
86.98,178.37,-130.92,239,-6367,-5525,0,0,-1
86.98,178.37,-130.92,233,-6361,-5515,0,-1,0
86.98,178.37,-130.92,237,-6357,-5509,-1,0,0
86.98,178.37,-130.92,235,-6364,-5506,-1,0,0
86.98,178.37,-130.92,237,-6365,-5511,0,-1,-1
86.98,178.38,-130.91,235,-6374,-5516,0,-1,-1
86.97,178.37,-130.91,232,-6369,-5511,0,0,0
86.97,178.37,-130.91,235,-6367,-5517,-1,0,-1
86.98,178.38,-130.91,234,-6368,-5527,-1,0,0
86.97,178.37,-130.91,234,-6366,-5529,0,0,-1
86.97,178.37,-130.91,237,-6364,-5521,0,0,-1
86.97,178.37,-130.91,240,-6362,-5509,0,0,-1
86.97,178.36,-130.91,235,-6367,-5505,0,0,-1
86.98,178.36,-130.91,238,-6370,-5509,0,0,-1
86.97,178.36,-130.91,241,-6364,-5510,-1,0,-1
86.98,178.36,-130.91,237,-6366,-5512,0,-1,0
86.98,178.36,-130.90,232,-6364,-5518,0,-1,0
86.97,178.36,-130.91,230,-6369,-5517,-1,0,0
86.98,178.36,-130.92,229,-6367,-5518,-1,0,-1
86.98,178.36,-130.92,229,-6363,-5530,-1,0,-1
86.98,178.36,-130.92,236,-6361,-5533,0,0,-1
86.97,178.36,-130.91,240,-6369,-5525,0,0,0
86.97,178.36,-130.90,241,-6363,-5512,0,0,0
86.97,178.36,-130.91,240,-6355,-5504,-1,-1,0
86.97,178.36,-130.91,241,-6361,-5511,-1,-1,0
86.98,178.36,-130.92,246,-6360,-5531,-1,-1,0
86.96,178.36,-130.92,241,-6367,-5541,0,-1,0
86.97,178.36,-130.92,237,-6369,-5535,0,0,0
86.97,178.36,-130.91,237,-6363,-5527,0,0,0
86.97,178.36,-130.91,232,-6367,-5512,0,-1,0
86.96,178.36,-130.90,233,-6365,-5517,-1,0,-1
86.97,178.36,-130.91,234,-6366,-5516,-1,0,-1
86.96,178.36,-130.90,234,-6372,-5513,-1,0,-1
86.96,178.36,-130.91,234,-6362,-5518,-1,0,-1
86.97,178.36,-130.91,234,-6356,-5517,-1,0,-1
86.97,178.35,-130.92,246,-6351,-5514,-1,-1,0
86.97,178.35,-130.92,235,-6366,-5521,0,0,-1
86.97,178.36,-130.92,230,-6376,-5522,0,0,-1
86.97,178.36,-130.92,237,-6373,-5523,0,0,-1
86.96,178.35,-130.91,238,-6369,-5514,0,0,0
86.96,178.35,-130.91,239,-6366,-5511,0,0,0
86.96,178.36,-130.91,233,-6360,-5519,0,-1,0
86.95,178.36,-130.91,233,-6367,-5521,0,-1,0
86.95,178.36,-130.91,234,-6376,-5526,0,0,0
86.95,178.36,-130.91,229,-6372,-5523,0,0,0
86.95,178.36,-130.91,232,-6370,-5510,0,0,-1
86.95,178.36,-130.91,238,-6370,-5508,-1,0,-1
86.95,178.35,-130.90,242,-6367,-5512,-1,0,-1
86.95,178.35,-130.91,238,-6371,-5523,-1,0,-1
86.94,178.34,-130.91,238,-6361,-5518,-1,0,-1
86.95,178.35,-130.92,246,-6350,-5516,-1,-1,0
86.95,178.35,-130.92,244,-6354,-5511,0,0,-1
86.94,178.34,-130.91,246,-6361,-5511,0,0,0
86.94,178.34,-130.91,239,-6367,-5521,0,0,0
86.94,178.35,-130.91,241,-6365,-5520,0,-1,0
86.94,178.35,-130.91,230,-6369,-5510,0,-1,0
86.94,178.35,-130.91,230,-6370,-5515,0,0,0
86.93,178.35,-130.90,241,-6370,-5520,-1,0,-1
86.93,178.34,-130.91,246,-6367,-5521,-1,0,-1
86.93,178.34,-130.91,241,-6369,-5520,-1,0,-1
86.93,178.34,-130.91,233,-6372,-5525,-1,0,-1
86.93,178.34,-130.91,235,-6371,-5521,0,0,-1
86.93,178.34,-130.91,229,-6367,-5514,0,0,-1
86.93,178.34,-130.91,231,-6361,-5507,-1,0,0
86.93,178.34,-130.91,230,-6356,-5509,-1,0,0
86.93,178.34,-130.91,236,-6358,-5512,-1,0,-1
86.93,178.34,-130.91,239,-6364,-5510,-1,0,0
86.92,178.34,-130.91,235,-6368,-5517,0,0,0
86.92,178.34,-130.91,240,-6374,-5515,0,0,-1
86.91,178.34,-130.91,239,-6375,-5514,0,0,-1
86.93,178.33,-130.90,235,-6374,-5508,-1,0,-1
86.91,178.34,-130.91,237,-6360,-5510,-1,-1,0
86.92,178.33,-130.92,244,-6358,-5518,-1,-1,0
86.92,178.33,-130.92,249,-6356,-5525,-1,0,0
86.92,178.33,-130.92,243,-6360,-5532,0,0,0
86.91,178.33,-130.91,246,-6368,-5533,0,0,0
86.91,178.33,-130.91,237,-6367,-5520,0,0,-1
86.91,178.33,-130.91,245,-6367,-5517,-1,0,0
86.91,178.33,-130.91,250,-6365,-5524,0,0,-1
86.91,178.32,-130.91,235,-6367,-5522,-1,0,0
86.89,178.32,-130.92,239,-6367,-5530,-1,0,-1
86.89,178.32,-130.92,239,-6367,-5520,-1,0,0
86.89,178.32,-130.92,247,-6362,-5514,-1,0,-1
86.89,178.31,-130.92,251,-6362,-5521,-1,0,-1
86.89,178.31,-130.92,254,-6367,-5516,-1,0,-1
86.90,178.31,-130.93,256,-6367,-5517,-1,0,-1
86.90,178.31,-130.93,246,-6368,-5519,-1,0,0
86.90,178.31,-130.93,243,-6367,-5521,-1,0,-1
86.90,178.31,-130.93,247,-6366,-5514,0,-1,0
86.90,178.31,-130.93,247,-6369,-5525,-1,-1,-1
86.90,178.31,-130.93,244,-6365,-5520,0,-1,0
86.89,178.31,-130.93,237,-6369,-5521,0,-1,0
86.89,178.31,-130.92,245,-6367,-5522,0,0,-1
86.89,178.31,-130.92,249,-6365,-5516,0,-1,0
86.89,178.31,-130.92,242,-6361,-5516,-1,-1,0
86.89,178.31,-130.93,247,-6368,-5518,-1,0,-1
86.90,178.31,-130.93,244,-6365,-5521,-1,0,-1
86.90,178.30,-130.94,244,-6360,-5511,-1,-1,-1
86.90,178.30,-130.94,242,-6362,-5523,0,-1,0
86.90,178.30,-130.94,249,-6363,-5527,-1,-1,0
86.90,178.30,-130.94,244,-6366,-5529,-1,-1,0
86.90,178.31,-130.95,244,-6360,-5535,-1,-1,0
86.90,178.31,-130.95,244,-6362,-5529,-1,-1,-1
86.90,178.32,-130.94,241,-6363,-5518,-1,-1,0
86.90,178.32,-130.94,236,-6367,-5526,0,0,0
86.90,178.32,-130.94,239,-6363,-5520,0,0,0
86.89,178.32,-130.94,241,-6364,-5522,0,-1,0
86.89,178.32,-130.94,238,-6362,-5516,-1,-1,0
86.90,178.32,-130.94,240,-6365,-5518,-1,0,0
86.89,178.32,-130.94,236,-6368,-5523,0,-1,0
86.90,178.32,-130.94,241,-6361,-5525,-1,0,-1
86.89,178.32,-130.95,237,-6359,-5531,-1,-1,-1
86.89,178.32,-130.95,237,-6354,-5530,-1,0,-1
86.89,178.32,-130.95,240,-6354,-5532,0,0,-1
86.89,178.32,-130.95,239,-6367,-5526,0,0,-1
86.89,178.32,-130.94,245,-6365,-5522,0,-1,-1
86.90,178.32,-130.94,247,-6361,-5509,-1,-1,0
86.89,178.32,-130.95,249,-6362,-5524,-1,-1,0
86.90,178.32,-130.96,243,-6366,-5530,-1,-1,0
86.90,178.32,-130.96,243,-6361,-5532,0,-1,0
86.90,178.33,-130.95,240,-6362,-5540,0,0,-1
86.90,178.33,-130.95,236,-6355,-5535,0,0,-1
86.89,178.33,-130.95,236,-6360,-5531,0,0,0
86.89,178.32,-130.95,239,-6363,-5520,-1,0,-1
86.89,178.33,-130.94,236,-6367,-5519,-1,-1,-1
86.89,178.32,-130.95,243,-6367,-5524,-1,0,0
86.89,178.33,-130.95,243,-6357,-5520,-1,0,-1
86.89,178.33,-130.95,240,-6356,-5518,-1,0,-1
86.89,178.33,-130.95,243,-6356,-5513,-1,0,0
86.90,178.33,-130.95,245,-6356,-5520,-1,-1,0
86.88,178.32,-130.96,247,-6360,-5521,-1,-1,0
86.89,178.33,-130.96,244,-6359,-5517,-1,-1,0
86.89,178.33,-130.96,241,-6357,-5519,-1,-1,-1
86.89,178.33,-130.96,245,-6353,-5528,-1,-1,0
86.89,178.33,-130.96,241,-6358,-5533,0,0,0
86.89,178.34,-130.96,236,-6360,-5531,-1,0,0
86.89,178.34,-130.96,243,-6368,-5526,-1,0,0
86.89,178.34,-130.96,240,-6365,-5533,0,0,0
86.89,178.34,-130.96,246,-6367,-5530,0,0,0
86.89,178.34,-130.96,241,-6369,-5531,-1,-1,-1
86.89,178.34,-130.96,245,-6362,-5521,-1,-1,-1
86.90,178.33,-130.97,247,-6359,-5523,-1,-1,0
86.89,178.34,-130.98,245,-6358,-5523,-1,-1,-1
86.89,178.34,-130.98,243,-6357,-5516,-1,-1,-1
86.89,178.34,-130.98,241,-6354,-5516,0,-1,0
86.89,178.34,-130.98,242,-6352,-5529,0,-1,0
86.89,178.34,-130.98,236,-6356,-5537,0,-1,-1
86.89,178.34,-130.98,232,-6361,-5533,0,0,-1
86.90,178.35,-130.98,231,-6365,-5539,0,-1,0
86.90,178.35,-130.98,238,-6361,-5538,-1,-1,0
86.90,178.35,-130.98,237,-6353,-5524,0,-1,0
86.90,178.35,-130.98,239,-6357,-5516,0,-1,0
86.89,178.36,-130.97,235,-6362,-5523,0,-1,0
86.89,178.35,-130.97,232,-6365,-5518,-1,-1,-1
86.89,178.35,-130.97,237,-6361,-5530,-1,0,-1
86.90,178.35,-130.98,239,-6354,-5539,-1,-1,0
86.90,178.35,-130.98,236,-6357,-5536,0,0,0
86.90,178.35,-130.98,244,-6361,-5526,0,0,0
86.89,178.35,-130.97,240,-6361,-5514,0,-1,-1
86.90,178.35,-130.96,243,-6354,-5514,-1,-1,0
86.89,178.35,-130.97,244,-6357,-5515,-1,-1,0
86.90,178.36,-130.98,240,-6357,-5520,-1,-1,0
86.91,178.36,-130.98,234,-6361,-5522,-1,-1,0
86.89,178.36,-130.98,232,-6352,-5538,0,-1,0
86.89,178.37,-130.98,238,-6360,-5541,0,0,0
86.90,178.36,-130.97,231,-6366,-5535,0,-1,0
86.89,178.36,-130.97,247,-6369,-5523,-1,0,-1
86.89,178.36,-130.97,246,-6369,-5521,-1,-1,-1
86.89,178.36,-130.97,237,-6368,-5518,0,0,-1
86.89,178.36,-130.97,230,-6363,-5522,0,-1,-1
86.90,178.36,-130.97,237,-6352,-5517,-1,-1,0
86.90,178.36,-130.97,245,-6354,-5522,-1,-1,0
86.91,178.37,-130.97,245,-6363,-5529,-1,-1,0
86.91,178.37,-130.97,237,-6360,-5528,0,-1,0
86.91,178.37,-130.97,235,-6358,-5524,0,-1,0
86.91,178.37,-130.97,237,-6348,-5516,-1,-1,0
86.91,178.37,-130.97,238,-6349,-5520,0,-1,0
86.90,178.38,-130.98,241,-6356,-5526,-1,-1,0
86.90,178.38,-130.98,244,-6364,-5531,0,-1,0
86.91,178.38,-130.97,245,-6362,-5522,0,-1,0
86.91,178.38,-130.97,237,-6358,-5523,0,-1,-1
86.91,178.39,-130.97,240,-6363,-5519,0,-1,0
86.91,178.38,-130.96,234,-6358,-5518,-1,0,-1
86.91,178.38,-130.96,233,-6357,-5523,-1,0,0
86.91,178.39,-130.97,240,-6359,-5520,-1,-1,0
86.91,178.39,-130.97,236,-6366,-5522,-1,0,-1
86.91,178.38,-130.97,244,-6361,-5528,-1,-1,0
86.91,178.38,-130.97,244,-6353,-5541,0,0,-1
86.91,178.38,-130.97,244,-6352,-5536,0,0,-1
86.91,178.38,-130.97,240,-6354,-5531,0,0,-1
86.91,178.38,-130.96,233,-6356,-5531,0,0,-1
86.90,178.38,-130.95,235,-6357,-5535,0,0,-1
86.90,178.38,-130.95,236,-6362,-5523,0,0,-1
86.89,178.37,-130.95,242,-6358,-5526,0,0,-1
86.89,178.37,-130.95,238,-6362,-5527,0,0,-1
86.89,178.37,-130.95,239,-6361,-5534,0,0,-1
86.89,178.37,-130.95,238,-6363,-5524,0,0,-1
86.90,178.36,-130.95,236,-6359,-5514,0,0,-1
86.89,178.37,-130.95,229,-6362,-5517,-1,0,-1
86.89,178.37,-130.95,230,-6360,-5522,-1,0,-1
86.89,178.37,-130.96,234,-6359,-5523,-1,0,-1
86.89,178.37,-130.96,235,-6360,-5530,-1,0,0
86.89,178.36,-130.96,235,-6360,-5531,0,0,-1
86.89,178.36,-130.96,237,-6361,-5523,0,0,-1
86.88,178.36,-130.95,239,-6357,-5509,0,-1,-1
86.89,178.36,-130.95,241,-6359,-5516,-1,-1,-1
86.89,178.36,-130.96,247,-6356,-5509,-1,-1,0
86.89,178.36,-130.96,248,-6357,-5518,-1,0,0
86.88,178.36,-130.97,248,-6363,-5528,0,0,0
86.89,178.36,-130.96,245,-6365,-5531,0,0,0
86.89,178.36,-130.96,240,-6365,-5530,0,0,-1
86.88,178.35,-130.95,235,-6362,-5526,0,0,-1
86.88,178.35,-130.95,233,-6362,-5510,-1,0,-1
86.87,178.35,-130.95,240,-6365,-5510,-1,0,-1
86.87,178.35,-130.95,243,-6362,-5519,0,0,-1
86.87,178.34,-130.95,242,-6358,-5531,-1,0,-1
86.87,178.34,-130.95,240,-6366,-5540,-1,0,0
86.88,178.35,-130.96,239,-6367,-5535,-1,-1,-1
86.88,178.35,-130.96,239,-6369,-5533,0,-1,-1
86.88,178.35,-130.96,240,-6368,-5533,-1,0,-1
86.88,178.34,-130.96,242,-6366,-5531,-1,-1,-1
86.88,178.35,-130.96,236,-6361,-5527,0,-1,-1
86.88,178.35,-130.96,241,-6359,-5518,0,-1,0
86.88,178.35,-130.96,240,-6356,-5521,0,-1,0
86.88,178.35,-130.96,234,-6363,-5525,-1,-1,0
86.88,178.35,-130.96,232,-6364,-5525,-1,0,0
86.88,178.35,-130.96,230,-6368,-5523,-1,0,-1
86.88,178.35,-130.96,231,-6363,-5525,0,0,-1
86.88,178.35,-130.96,232,-6357,-5522,-1,0,-1
86.87,178.34,-130.95,240,-6362,-5515,-1,0,-1
86.87,178.34,-130.96,243,-6363,-5521,-1,0,0
86.87,178.35,-130.96,246,-6358,-5522,-1,-1,0
86.87,178.34,-130.97,238,-6356,-5522,-1,0,-1
86.87,178.34,-130.97,237,-6356,-5529,-1,-1,0
86.87,178.34,-130.97,243,-6354,-5534,0,0,0
86.87,178.34,-130.97,241,-6353,-5540,0,0,0
86.87,178.34,-130.97,240,-6356,-5536,0,0,-1
86.86,178.34,-130.96,239,-6365,-5529,0,0,0
86.86,178.34,-130.96,243,-6363,-5524,-1,0,0
86.86,178.34,-130.96,247,-6359,-5520,-1,0,-1
86.85,178.33,-130.96,243,-6358,-5516,-1,0,-1
86.85,178.33,-130.96,242,-6358,-5519,-1,0,-1
86.85,178.33,-130.96,239,-6357,-5518,0,-1,-1
86.85,178.33,-130.96,239,-6355,-5520,0,-1,0
86.86,178.34,-130.96,238,-6364,-5519,-1,-1,0
86.86,178.34,-130.96,231,-6365,-5522,-1,-1,-1
86.86,178.33,-130.97,234,-6360,-5527,-1,0,-1
86.86,178.33,-130.97,245,-6361,-5522,0,0,0
86.86,178.33,-130.97,245,-6362,-5520,0,0,-1
86.85,178.33,-130.96,248,-6362,-5524,0,0,-1
86.85,178.33,-130.96,238,-6362,-5517,0,-1,-1
86.85,178.33,-130.96,242,-6360,-5525,-1,-1,-1
86.86,178.33,-130.97,238,-6354,-5520,-1,-1,0
86.87,178.33,-130.98,245,-6359,-5534,-1,-1,0
86.85,178.34,-130.98,242,-6360,-5537,0,-1,0
86.85,178.34,-130.98,238,-6366,-5540,0,0,0
86.85,178.34,-130.97,238,-6371,-5534,0,0,0
86.84,178.34,-130.96,241,-6369,-5519,0,0,-1
86.84,178.34,-130.96,237,-6369,-5520,-1,0,-1
86.84,178.34,-130.96,238,-6367,-5516,0,0,-1
86.85,178.33,-130.96,239,-6360,-5510,0,0,0
86.84,178.33,-130.96,242,-6359,-5510,-1,0,0
86.84,178.33,-130.96,242,-6363,-5511,-1,0,0
86.84,178.33,-130.96,247,-6368,-5526,-1,0,-1
86.84,178.33,-130.97,251,-6368,-5530,-1,0,0
86.84,178.33,-130.97,242,-6360,-5531,0,0,-1
86.84,178.33,-130.97,244,-6362,-5526,0,0,-1
86.84,178.32,-130.97,245,-6362,-5525,0,0,0
86.84,178.32,-130.97,243,-6357,-5525,-1,0,0
86.83,178.33,-130.97,235,-6357,-5530,0,0,0
86.83,178.33,-130.97,239,-6367,-5537,-1,0,0
86.83,178.33,-130.97,242,-6367,-5529,0,0,0
86.82,178.32,-130.97,242,-6363,-5529,0,0,-1
86.82,178.32,-130.97,244,-6361,-5518,-1,0,-1
86.82,178.32,-130.97,242,-6356,-5519,-1,0,-1
86.81,178.32,-130.98,244,-6356,-5524,-1,0,0
86.81,178.31,-130.98,250,-6358,-5528,-1,0,-1
86.81,178.30,-130.99,250,-6357,-5524,-1,0,-1
86.80,178.30,-130.99,245,-6360,-5521,-1,0,-1
86.81,178.30,-130.99,245,-6362,-5520,-1,-1,-1
86.81,178.30,-130.99,245,-6364,-5512,-1,-1,0
86.81,178.30,-130.99,251,-6364,-5515,-1,-1,0
86.81,178.30,-130.99,244,-6367,-5521,-1,-1,0
86.81,178.30,-130.99,244,-6370,-5529,-1,-1,-1
86.81,178.30,-130.99,249,-6357,-5533,-1,-1,0
86.81,178.30,-130.99,247,-6353,-5524,0,-1,-1
86.81,178.30,-130.99,240,-6346,-5516,-1,0,-1
86.81,178.30,-130.99,245,-6350,-5513,0,-1,0
86.81,178.30,-130.99,244,-6359,-5526,-1,-1,-1
86.81,178.30,-130.99,240,-6364,-5524,-1,0,0
86.81,178.31,-130.99,239,-6355,-5533,-1,0,0
86.80,178.31,-131.00,247,-6353,-5538,-1,0,0
86.80,178.31,-131.00,245,-6353,-5536,0,0,0
86.81,178.30,-131.00,242,-6360,-5532,0,0,-1
86.81,178.30,-130.99,248,-6359,-5522,0,-1,0
86.81,178.30,-130.99,250,-6352,-5517,-1,-1,0
86.81,178.30,-131.00,249,-6351,-5520,-1,-1,-1
86.81,178.31,-131.01,255,-6351,-5529,-1,-1,0
86.81,178.31,-131.01,253,-6359,-5535,0,0,0
86.81,178.31,-131.01,248,-6365,-5548,0,-1,0
86.80,178.31,-131.00,251,-6362,-5547,0,-1,0
86.80,178.31,-130.99,248,-6363,-5532,0,-1,0
86.79,178.31,-130.99,241,-6368,-5517,0,0,-1
86.79,178.31,-130.99,250,-6362,-5522,-1,0,-1
86.80,178.31,-130.99,248,-6364,-5520,-1,-1,0
86.80,178.31,-130.99,244,-6363,-5516,-1,-1,-1
86.80,178.31,-130.99,244,-6355,-5511,-1,0,-1
86.80,178.31,-131.00,244,-6358,-5527,-1,-1,0
86.80,178.31,-131.00,245,-6364,-5538,0,-1,0
86.81,178.31,-131.00,242,-6365,-5536,-1,-1,-1
86.81,178.31,-131.00,244,-6359,-5535,-1,-1,0
86.81,178.31,-131.00,242,-6358,-5531,-1,-1,0
86.81,178.32,-131.00,248,-6361,-5514,0,-1,0
86.81,178.33,-131.00,250,-6356,-5529,-1,-1,0
86.81,178.33,-131.00,243,-6364,-5537,-1,-1,0
86.81,178.33,-131.00,243,-6372,-5530,-1,0,0
86.81,178.33,-131.00,240,-6372,-5528,-1,-1,0
86.81,178.33,-131.00,240,-6361,-5525,-1,0,0
86.81,178.33,-131.00,231,-6361,-5517,0,0,-1
86.81,178.33,-131.00,235,-6361,-5523,-1,-1,-1
86.81,178.33,-131.00,242,-6358,-5524,-1,-1,-1
86.81,178.33,-131.00,246,-6360,-5516,-1,-1,0
86.81,178.33,-131.00,240,-6368,-5518,0,-1,0
86.81,178.33,-131.00,238,-6363,-5526,0,0,0
86.81,178.34,-130.99,236,-6362,-5528,0,-1,0
86.81,178.34,-130.99,239,-6364,-5528,-1,-1,0
86.81,178.34,-130.99,243,-6362,-5534,0,0,0
86.81,178.34,-130.99,238,-6361,-5532,0,-1,-1
86.81,178.34,-130.99,240,-6359,-5534,-1,0,-1
86.81,178.34,-130.99,239,-6356,-5533,-1,-1,0
86.80,178.34,-130.99,240,-6356,-5526,0,0,0
86.81,178.34,-130.99,247,-6357,-5521,0,0,-1
86.81,178.34,-130.99,242,-6354,-5523,-1,-1,-1
86.81,178.34,-130.99,243,-6361,-5528,-1,-1,-1
86.81,178.34,-131.00,244,-6359,-5536,-1,-1,0
86.81,178.34,-131.00,251,-6364,-5535,-1,-1,-1
86.80,178.33,-131.00,247,-6365,-5538,0,0,0
86.81,178.33,-130.98,246,-6369,-5531,0,-1,0
86.81,178.33,-130.98,238,-6364,-5528,-1,-1,-1
86.81,178.34,-130.99,240,-6358,-5523,-1,-1,0
86.81,178.34,-131.00,232,-6358,-5526,-1,-1,0
86.81,178.35,-131.00,236,-6357,-5540,-1,-1,0
86.80,178.35,-131.00,244,-6362,-5547,0,-1,0
86.79,178.35,-131.00,242,-6363,-5538,0,0,0
86.79,178.35,-131.00,242,-6363,-5535,0,-1,0
86.79,178.35,-130.99,241,-6359,-5534,0,-1,0
86.79,178.35,-130.99,236,-6360,-5527,0,0,-1
86.79,178.35,-131.00,237,-6358,-5529,-1,-1,0
86.79,178.35,-131.00,237,-6355,-5526,-1,-1,-1
86.80,178.35,-131.00,239,-6356,-5523,-1,-1,-1
86.80,178.35,-131.00,242,-6357,-5533,-1,-1,0
86.80,178.35,-131.01,249,-6355,-5541,-1,-1,0
86.80,178.35,-131.00,240,-6356,-5539,0,-1,-1
86.80,178.35,-131.00,233,-6354,-5531,0,-1,0
86.81,178.36,-131.00,233,-6346,-5528,0,-1,0
86.81,178.36,-131.00,237,-6351,-5530,0,-1,0
86.81,178.36,-131.00,236,-6354,-5535,-1,-1,0
86.81,178.37,-131.00,232,-6358,-5538,0,-1,0
86.81,178.37,-131.00,233,-6358,-5539,0,-1,-1
86.81,178.37,-131.00,232,-6355,-5549,-1,-1,0
86.82,178.37,-131.01,233,-6355,-5545,0,0,0
86.81,178.37,-131.00,231,-6355,-5527,-1,0,-1
86.81,178.37,-131.00,234,-6359,-5514,-1,-1,0
86.82,178.37,-131.01,233,-6358,-5525,-1,-1,0
86.82,178.37,-131.01,235,-6357,-5526,0,-1,0
86.82,178.37,-131.01,244,-6358,-5521,0,-1,0
86.82,178.38,-131.00,233,-6354,-5521,0,-1,0
86.82,178.38,-131.00,239,-6355,-5526,0,-1,0
86.82,178.38,-131.00,232,-6357,-5531,0,-1,0
86.82,178.38,-131.00,231,-6355,-5529,0,-1,0
86.82,178.39,-130.99,230,-6359,-5534,0,-1,-1
86.81,178.38,-130.99,234,-6356,-5524,0,0,0
86.81,178.38,-130.99,236,-6359,-5527,-1,0,-1
86.81,178.38,-130.99,237,-6358,-5526,-1,0,-1
86.81,178.38,-130.99,239,-6364,-5524,-1,0,-1
86.81,178.38,-130.99,240,-6357,-5534,0,-1,-1
86.83,178.38,-130.99,239,-6355,-5534,0,-1,0
86.83,178.38,-130.99,241,-6349,-5523,0,-1,-1
86.83,178.38,-130.99,246,-6354,-5522,-1,-1,0
86.83,178.38,-130.99,241,-6362,-5526,-1,-1,0
86.83,178.38,-130.99,240,-6362,-5529,-1,-1,0
86.81,178.38,-130.99,241,-6362,-5533,0,0,0
86.81,178.37,-130.99,243,-6369,-5526,0,0,-1
86.81,178.37,-130.98,241,-6361,-5525,0,0,-1
86.81,178.37,-130.98,239,-6358,-5516,0,-1,0
86.81,178.37,-130.98,234,-6354,-5514,-1,0,0
86.82,178.37,-130.98,232,-6351,-5524,-1,-1,-1
86.81,178.37,-130.99,237,-6345,-5531,-1,-1,0
86.81,178.37,-130.99,238,-6357,-5539,0,-1,0
86.81,178.37,-130.99,247,-6365,-5546,0,0,0
86.80,178.38,-130.98,238,-6368,-5542,0,0,0
86.80,178.38,-130.98,240,-6361,-5542,0,0,-1
86.80,178.37,-130.98,238,-6363,-5533,-1,0,-1
86.80,178.37,-130.98,233,-6360,-5524,-1,0,-1
86.80,178.37,-130.98,237,-6363,-5523,-1,0,-1
86.80,178.37,-130.98,237,-6357,-5523,-1,0,-1
86.81,178.37,-130.99,236,-6356,-5526,-1,0,-1
86.81,178.37,-131.00,234,-6354,-5532,-1,0,-1
86.81,178.37,-131.00,242,-6361,-5524,0,0,0
86.80,178.37,-130.99,238,-6358,-5525,0,0,0
86.80,178.36,-130.99,236,-6357,-5526,0,0,0
86.80,178.37,-130.98,236,-6362,-5525,0,0,-1
86.80,178.37,-130.98,233,-6357,-5532,0,0,0
86.80,178.37,-130.98,232,-6359,-5530,0,-1,0
86.80,178.37,-130.98,229,-6357,-5531,0,0,0
86.80,178.37,-130.98,229,-6357,-5523,-1,0,-1
86.79,178.37,-130.97,228,-6363,-5531,0,0,-1
86.79,178.36,-130.98,231,-6364,-5537,0,0,-1
86.79,178.37,-130.98,233,-6362,-5515,-1,0,-1
86.79,178.36,-130.98,237,-6366,-5515,-1,0,-1
86.79,178.36,-130.98,233,-6362,-5511,-1,0,-1
86.79,178.36,-130.98,242,-6368,-5513,-1,0,-1
86.78,178.36,-130.99,237,-6362,-5517,-1,0,0
86.78,178.36,-130.99,241,-6357,-5525,0,0,0
86.78,178.36,-130.99,243,-6355,-5535,0,-1,-1
86.78,178.36,-130.98,244,-6357,-5546,0,0,0
86.78,178.36,-130.98,241,-6363,-5537,0,-1,0
86.78,178.36,-130.98,240,-6360,-5526,0,-1,0
86.78,178.37,-130.98,230,-6356,-5522,0,-1,-1
86.78,178.37,-130.98,233,-6359,-5528,-1,0,0
86.78,178.37,-130.98,233,-6364,-5531,-1,0,-1
86.78,178.37,-130.98,237,-6363,-5543,-1,-1,-1
86.78,178.36,-130.98,236,-6362,-5530,-1,0,-1
86.78,178.36,-130.98,240,-6366,-5528,-1,-1,-1
86.78,178.36,-130.98,241,-6360,-5525,0,-1,-1
86.78,178.36,-130.98,235,-6358,-5524,-1,0,0
86.78,178.36,-130.99,237,-6357,-5531,-1,0,-1
86.76,178.36,-130.99,241,-6362,-5528,-1,0,-1
86.76,178.36,-130.99,236,-6361,-5533,0,0,0
86.77,178.36,-130.98,236,-6365,-5530,0,0,0
86.77,178.36,-130.98,235,-6359,-5519,0,0,-1
86.77,178.35,-130.98,234,-6348,-5525,-1,0,-1
86.77,178.35,-131.00,234,-6343,-5533,-1,-1,0
86.77,178.36,-131.00,241,-6351,-5540,-1,0,0
86.77,178.36,-131.00,239,-6357,-5539,0,0,0
86.76,178.36,-130.99,244,-6358,-5540,0,-1,0
86.76,178.36,-130.99,236,-6366,-5543,0,-1,0
86.76,178.36,-130.98,234,-6365,-5524,-1,0,-1
86.75,178.36,-130.98,236,-6369,-5528,0,0,-1
86.75,178.36,-130.98,233,-6366,-5518,-1,0,-1
86.75,178.35,-130.98,239,-6366,-5523,-1,0,-1
86.76,178.36,-130.98,236,-6363,-5522,-1,0,-1
86.76,178.35,-130.99,233,-6358,-5523,-1,0,-1
86.76,178.35,-130.99,242,-6357,-5532,-1,0,0
86.76,178.35,-130.99,237,-6361,-5534,0,-1,0
86.76,178.35,-130.99,237,-6366,-5531,0,-1,0
86.76,178.35,-130.99,233,-6355,-5534,-1,-1,0
86.76,178.35,-130.99,230,-6356,-5530,-1,0,0
86.76,178.35,-130.99,234,-6359,-5530,0,0,0
86.76,178.35,-130.99,241,-6352,-5531,0,0,0
86.76,178.35,-130.99,236,-6360,-5528,0,0,0
86.75,178.35,-130.98,234,-6367,-5531,0,0,-1
86.75,178.35,-130.98,233,-6371,-5519,0,0,-1
86.74,178.34,-130.98,237,-6366,-5520,0,0,-1
86.74,178.34,-130.98,244,-6363,-5523,-1,0,-1
86.74,178.34,-130.98,238,-6363,-5515,-1,0,-1
86.74,178.34,-130.99,237,-6365,-5518,-1,0,-1
86.73,178.34,-130.99,245,-6360,-5536,-1,0,-1
86.73,178.33,-130.99,241,-6361,-5541,0,0,-1
86.73,178.33,-130.99,242,-6358,-5525,0,0,-1
86.72,178.33,-130.99,247,-6355,-5527,0,0,0
86.72,178.33,-130.99,245,-6359,-5533,0,0,0
86.72,178.33,-130.99,247,-6355,-5529,0,0,-1
86.72,178.32,-130.99,248,-6355,-5531,0,0,0
86.72,178.32,-130.99,245,-6355,-5537,0,0,-1
86.72,178.32,-130.98,251,-6356,-5531,0,0,-1
86.72,178.32,-130.98,249,-6354,-5524,0,0,0
86.72,178.32,-130.97,248,-6356,-5513,0,0,-1
86.72,178.32,-130.97,243,-6356,-5517,-1,0,-1
86.71,178.31,-130.97,242,-6360,-5519,-1,0,-1
86.70,178.30,-130.98,248,-6351,-5526,-1,0,-1
86.70,178.30,-130.98,254,-6358,-5530,0,0,0
86.69,178.30,-130.97,251,-6357,-5526,0,0,-1
86.68,178.30,-130.97,247,-6360,-5511,0,0,-1
86.68,178.29,-130.97,247,-6353,-5513,-1,0,-1
86.69,178.29,-130.98,247,-6355,-5515,-1,-1,-1
86.70,178.29,-130.99,254,-6355,-5538,-1,-1,0
86.69,178.30,-131.00,257,-6362,-5533,-1,-1,0
86.69,178.30,-131.00,253,-6364,-5535,0,-1,0
86.69,178.30,-130.99,247,-6361,-5536,0,-1,0
86.69,178.30,-130.99,241,-6356,-5533,0,-1,0
86.68,178.30,-130.99,245,-6355,-5531,0,0,0
86.70,178.30,-130.98,249,-6358,-5518,0,-1,-1
86.70,178.30,-130.98,250,-6359,-5511,0,-1,0
86.70,178.30,-130.98,247,-6365,-5509,-1,-1,0
86.70,178.31,-130.98,241,-6365,-5509,-1,-1,0
86.69,178.31,-130.99,244,-6366,-5512,-1,0,-1
86.69,178.31,-130.99,244,-6367,-5516,0,-1,0
86.69,178.31,-130.98,243,-6368,-5527,0,-1,-1
86.70,178.31,-130.98,248,-6361,-5526,-1,-1,0
86.70,178.31,-130.98,249,-6350,-5530,-1,0,-1
86.69,178.31,-130.98,245,-6347,-5529,-1,-1,0
86.69,178.31,-130.98,254,-6355,-5527,-1,-1,0
86.70,178.32,-130.98,239,-6357,-5520,-1,-1,0
86.70,178.32,-130.98,244,-6364,-5520,0,0,0
86.70,178.32,-130.98,237,-6364,-5521,0,0,0
86.70,178.33,-130.98,237,-6361,-5531,0,-1,0
86.70,178.33,-130.98,240,-6356,-5523,-1,-1,0
86.70,178.33,-130.98,243,-6357,-5525,-1,0,0
86.70,178.33,-130.98,240,-6358,-5522,-1,-1,-1
86.70,178.32,-130.98,244,-6361,-5530,-1,0,0
86.70,178.32,-130.98,245,-6361,-5528,0,-1,0
86.70,178.33,-130.98,246,-6358,-5524,0,-1,0
86.70,178.33,-130.98,243,-6356,-5525,0,0,0
86.70,178.33,-130.98,236,-6357,-5529,0,0,0
86.70,178.33,-130.98,238,-6359,-5528,0,-1,0
86.70,178.34,-130.98,235,-6357,-5522,0,-1,-1
86.70,178.34,-130.98,239,-6356,-5521,0,0,-1
86.70,178.34,-130.98,243,-6359,-5523,-1,-1,0
86.70,178.34,-130.98,242,-6358,-5533,-1,-1,0
86.70,178.34,-130.98,241,-6357,-5531,0,-1,0
86.70,178.34,-130.98,244,-6359,-5527,-1,-1,0
86.71,178.34,-130.98,245,-6361,-5525,-1,-1,-1
86.70,178.34,-130.99,245,-6356,-5521,-1,0,0
86.70,178.34,-130.99,238,-6357,-5533,-1,0,0
86.70,178.34,-130.99,239,-6364,-5538,0,0,0
86.70,178.34,-130.98,242,-6365,-5540,0,-1,-1
86.70,178.34,-130.98,245,-6358,-5526,0,-1,0
86.70,178.34,-130.98,243,-6348,-5516,-1,-1,0
86.70,178.34,-130.98,240,-6349,-5514,-1,-1,0
86.70,178.35,-130.99,244,-6357,-5538,-1,-1,0
86.70,178.35,-130.99,244,-6359,-5539,0,0,0
86.70,178.35,-130.98,239,-6374,-5544,0,-1,0
86.70,178.35,-130.98,236,-6367,-5544,0,0,0
86.70,178.35,-130.98,238,-6365,-5531,0,-1,-1
86.70,178.35,-130.98,241,-6361,-5522,-1,0,-1
86.70,178.35,-130.98,240,-6365,-5529,-1,-1,0
86.70,178.35,-130.98,234,-6365,-5528,-1,-1,-1
86.70,178.35,-130.99,242,-6354,-5530,-1,-1,0
86.70,178.35,-130.99,245,-6341,-5519,-1,-1,0
86.71,178.35,-130.99,241,-6349,-5534,-1,-1,0
86.71,178.35,-130.99,242,-6353,-5536,0,-1,-1
86.71,178.35,-130.99,245,-6360,-5534,0,-1,-1
86.71,178.35,-130.99,249,-6354,-5530,0,-1,0
86.71,178.35,-130.99,246,-6347,-5543,0,-1,0
86.71,178.35,-130.99,252,-6345,-5528,0,-1,0
86.71,178.36,-130.99,246,-6350,-5525,0,-1,0
86.71,178.36,-130.99,241,-6354,-5526,-1,-1,0
86.72,178.36,-130.99,246,-6361,-5524,-1,-1,0
86.71,178.36,-130.99,253,-6367,-5520,-1,0,0
86.71,178.36,-130.99,252,-6366,-5520,0,0,-1
86.71,178.36,-130.99,243,-6367,-5520,0,0,-1
86.71,178.35,-130.99,239,-6361,-5528,-1,-1,-1
86.71,178.35,-130.99,234,-6359,-5522,0,0,0
86.70,178.35,-130.99,228,-6352,-5522,0,-1,0
86.70,178.36,-130.99,233,-6345,-5514,0,-1,0
86.70,178.36,-130.99,238,-6352,-5511,0,-1,0
86.70,178.37,-130.99,237,-6354,-5507,0,-1,0
86.71,178.37,-130.99,240,-6358,-5522,-1,-1,0
86.71,178.37,-130.99,232,-6367,-5539,0,-1,0
86.71,178.38,-130.99,226,-6363,-5538,0,-1,0
86.71,178.38,-130.99,237,-6364,-5529,0,-1,-1
86.71,178.38,-130.99,238,-6362,-5526,-1,-1,0
86.71,178.38,-130.99,241,-6359,-5526,-1,-1,0
86.72,178.38,-131.00,239,-6359,-5537,-1,-1,0
86.72,178.38,-131.00,238,-6361,-5536,0,-1,0
86.72,178.38,-131.00,246,-6359,-5531,0,-1,0
86.72,178.39,-130.99,241,-6356,-5521,0,-1,0
86.72,178.39,-130.99,238,-6361,-5524,-1,-1,0
86.72,178.39,-131.00,231,-6361,-5526,-1,0,-1
86.71,178.39,-131.00,233,-6359,-5531,-1,0,0
86.71,178.39,-131.00,235,-6363,-5539,0,-1,0
86.72,178.39,-130.99,234,-6366,-5531,0,-1,-1
86.72,178.39,-130.98,237,-6360,-5519,0,-1,-1
86.72,178.39,-130.99,232,-6356,-5517,-1,-1,-1
86.72,178.39,-131.00,234,-6353,-5519,-1,-1,0
86.72,178.39,-131.00,235,-6350,-5528,-1,-1,0
86.72,178.40,-130.99,229,-6361,-5534,0,-1,0
86.72,178.40,-130.98,224,-6363,-5535,0,-1,0
86.72,178.40,-130.98,229,-6366,-5540,0,-1,0
86.72,178.41,-130.98,227,-6370,-5541,0,0,-1
86.72,178.41,-130.98,231,-6372,-5538,0,0,-1
86.72,178.40,-130.98,236,-6363,-5533,0,0,-1
86.72,178.40,-130.98,230,-6360,-5529,0,0,-1
86.72,178.40,-130.98,234,-6355,-5515,-1,0,-1
86.72,178.40,-130.98,227,-6347,-5518,-1,0,0
86.72,178.40,-130.98,235,-6351,-5524,0,0,-1
86.71,178.39,-130.98,237,-6352,-5535,0,0,0
86.71,178.39,-130.98,233,-6353,-5525,0,-1,-1
86.72,178.39,-130.97,226,-6349,-5518,0,0,0
86.71,178.39,-130.96,234,-6348,-5512,0,-1,0
86.71,178.39,-130.96,234,-6356,-5516,0,0,0
86.71,178.39,-130.96,239,-6356,-5525,0,-1,0
86.71,178.39,-130.96,229,-6358,-5525,0,0,0
86.71,178.39,-130.96,224,-6362,-5527,0,0,0
86.71,178.39,-130.95,230,-6366,-5528,0,0,0
86.71,178.40,-130.95,232,-6363,-5530,0,0,-1
86.71,178.40,-130.95,233,-6362,-5523,-1,0,-1
86.71,178.39,-130.96,232,-6363,-5530,-1,0,0
86.71,178.39,-130.96,236,-6358,-5514,-1,0,-1
86.71,178.38,-130.96,240,-6357,-5515,-1,0,-1
86.71,178.38,-130.97,244,-6355,-5516,0,0,0
86.70,178.38,-130.96,241,-6354,-5521,0,0,-1
86.70,178.38,-130.96,243,-6360,-5527,0,-1,0
86.70,178.38,-130.96,246,-6370,-5529,0,-1,0
86.70,178.38,-130.96,240,-6372,-5537,0,-1,0
86.70,178.38,-130.96,233,-6372,-5528,0,0,0
86.70,178.38,-130.96,234,-6368,-5527,0,0,0
86.70,178.38,-130.96,237,-6364,-5529,-1,0,-1
86.69,178.37,-130.96,239,-6364,-5531,-1,0,-1
86.69,178.37,-130.96,243,-6358,-5532,-1,0,-1
86.70,178.37,-130.96,241,-6353,-5534,-1,0,0
86.70,178.37,-130.97,235,-6357,-5527,-1,-1,0
86.70,178.37,-130.97,237,-6359,-5524,-1,-1,-1
86.69,178.37,-130.97,242,-6358,-5528,-1,0,-1
86.69,178.36,-130.98,244,-6362,-5535,-1,0,0
86.69,178.36,-130.98,239,-6359,-5531,0,0,-1
86.68,178.36,-130.97,234,-6366,-5527,0,0,-1
86.69,178.36,-130.96,242,-6360,-5514,0,-1,-1
86.69,178.36,-130.96,242,-6353,-5508,-1,0,0
86.68,178.36,-130.97,240,-6352,-5510,-1,-1,0
86.69,178.36,-130.98,233,-6356,-5530,-1,-1,0
86.68,178.37,-130.98,240,-6355,-5547,0,0,0
86.68,178.37,-130.98,235,-6355,-5544,0,0,0
86.68,178.37,-130.98,229,-6356,-5544,0,0,0
86.68,178.37,-130.97,234,-6360,-5523,0,0,0
86.67,178.37,-130.97,232,-6359,-5514,0,0,0
86.67,178.37,-130.97,229,-6358,-5518,-1,0,0
86.67,178.37,-130.97,228,-6360,-5520,-1,-1,-1
86.67,178.36,-130.97,235,-6358,-5513,-1,0,-1
86.67,178.36,-130.97,241,-6359,-5518,-1,0,-1
86.67,178.36,-130.98,244,-6361,-5519,0,0,-1
