Yaw,Pitch,Roll,AX,AY,AZ,GX,GY,GZ
88.01,-177.79,-109.52,-322,-7928,-2810,0,-1,0
88.00,-177.78,-109.52,-329,-7927,-2798,-1,0,0
88.01,-177.79,-109.53,-329,-7926,-2812,-1,0,-1
88.01,-177.79,-109.53,-335,-7936,-2821,-1,0,-1
88.01,-177.79,-109.53,-327,-7938,-2831,0,0,-1
88.01,-177.79,-109.53,-325,-7935,-2833,0,-1,0
88.01,-177.79,-109.52,-327,-7923,-2809,0,-1,0
88.01,-177.79,-109.52,-331,-7916,-2787,-1,0,-1
87.99,-177.79,-109.52,-335,-7925,-2799,-1,0,-1
88.01,-177.79,-109.53,-334,-7930,-2812,-1,0,-1
88.01,-177.79,-109.53,-330,-7932,-2820,0,0,-1
87.99,-177.79,-109.53,-327,-7936,-2813,0,0,0
87.99,-177.79,-109.52,-327,-7937,-2812,0,0,0
87.99,-177.78,-109.52,-335,-7933,-2802,-1,-1,0
87.99,-177.79,-109.52,-331,-7934,-2798,-1,0,-1
87.99,-177.79,-109.52,-331,-7936,-2797,-1,0,-1
87.99,-177.79,-109.52,-335,-7928,-2803,-1,0,-1
87.98,-177.79,-109.53,-328,-7928,-2818,-1,0,-1
87.98,-177.79,-109.54,-330,-7934,-2822,-1,-1,0
87.98,-177.79,-109.53,-325,-7941,-2820,0,0,0
87.96,-177.79,-109.53,-331,-7941,-2811,0,0,-1
87.99,-177.79,-109.52,-331,-7938,-2798,0,0,-1
87.97,-177.79,-109.52,-335,-7933,-2796,-1,0,-1
87.96,-177.79,-109.53,-333,-7927,-2807,-1,0,-1
87.96,-177.79,-109.53,-324,-7919,-2809,-1,0,-1
87.96,-177.80,-109.53,-323,-7926,-2816,-1,0,0
87.96,-177.80,-109.53,-325,-7935,-2826,0,0,0
87.94,-177.79,-109.53,-332,-7946,-2831,0,-1,0
87.96,-177.79,-109.52,-331,-7944,-2819,0,-1,-1
87.97,-177.79,-109.51,-331,-7936,-2799,0,0,-1
87.95,-177.79,-109.51,-320,-7916,-2776,-1,0,0
87.95,-177.79,-109.52,-331,-7921,-2789,-1,-1,0
87.96,-177.79,-109.52,-331,-7927,-2800,-1,-1,0
87.96,-177.78,-109.53,-328,-7933,-2805,-1,0,-1
87.96,-177.79,-109.54,-323,-7936,-2820,-1,0,-1
87.97,-177.79,-109.55,-324,-7938,-2835,-1,0,-1
87.96,-177.79,-109.54,-327,-7936,-2840,0,-1,-1
87.98,-177.79,-109.53,-319,-7920,-2829,0,-1,0
87.96,-177.79,-109.52,-321,-7913,-2804,0,-1,0
87.97,-177.78,-109.51,-330,-7921,-2782,-1,0,0
87.96,-177.77,-109.51,-335,-7934,-2786,-1,0,0
87.96,-177.78,-109.52,-332,-7940,-2807,-1,0,-1
87.96,-177.79,-109.53,-332,-7937,-2829,-1,0,-1
87.96,-177.80,-109.53,-318,-7927,-2829,0,0,-1
87.95,-177.80,-109.53,-319,-7922,-2815,0,-1,0
87.95,-177.79,-109.52,-329,-7925,-2807,0,-1,0
87.95,-177.79,-109.52,-329,-7924,-2800,-1,0,0
87.94,-177.79,-109.53,-330,-7927,-2815,-1,0,-1
87.96,-177.79,-109.55,-329,-7930,-2824,-1,0,-1
87.96,-177.80,-109.55,-325,-7923,-2832,-1,0,-1
87.93,-177.80,-109.56,-326,-7929,-2833,-1,0,-1
87.95,-177.79,-109.56,-330,-7927,-2827,-1,0,0
87.93,-177.80,-109.57,-334,-7936,-2824,-1,0,-1
87.93,-177.80,-109.57,-335,-7930,-2833,-1,0,-1
87.93,-177.80,-109.57,-328,-7916,-2835,-1,0,-1
87.93,-177.80,-109.57,-328,-7908,-2828,-1,0,-1
87.93,-177.80,-109.57,-322,-7918,-2826,0,0,0
87.91,-177.80,-109.56,-328,-7931,-2814,-1,-1,0
87.91,-177.80,-109.56,-331,-7935,-2809,0,0,-1
87.91,-177.80,-109.56,-325,-7934,-2810,0,0,-1
87.91,-177.80,-109.56,-321,-7933,-2809,0,0,-1
87.91,-177.80,-109.56,-320,-7923,-2811,0,0,-1
87.89,-177.80,-109.56,-315,-7925,-2816,0,0,0
87.89,-177.81,-109.56,-315,-7928,-2818,-1,0,0
87.89,-177.81,-109.56,-318,-7932,-2815,-1,-1,-1
87.91,-177.80,-109.57,-322,-7927,-2815,-1,0,-1
87.91,-177.80,-109.57,-328,-7923,-2820,-1,0,-1
87.91,-177.81,-109.57,-320,-7922,-2832,0,0,-1
87.91,-177.81,-109.57,-321,-7920,-2830,0,0,-1
87.91,-177.81,-109.57,-316,-7914,-2822,0,0,-1
87.91,-177.81,-109.57,-314,-7929,-2822,-1,0,0
87.89,-177.81,-109.57,-320,-7936,-2815,-1,0,0
87.89,-177.81,-109.56,-328,-7938,-2818,0,0,-1
87.89,-177.81,-109.57,-328,-7934,-2814,-1,0,-1
87.89,-177.81,-109.57,-325,-7928,-2821,0,0,-1
87.90,-177.82,-109.56,-315,-7927,-2817,0,0,-1
87.90,-177.82,-109.56,-315,-7918,-2804,-1,0,0
87.89,-177.81,-109.57,-321,-7929,-2813,-1,0,0
87.89,-177.81,-109.57,-323,-7935,-2810,-1,0,-1
87.87,-177.82,-109.58,-332,-7943,-2827,-1,0,-1
87.87,-177.81,-109.57,-325,-7939,-2825,0,0,-1
87.88,-177.82,-109.57,-325,-7933,-2814,0,0,-1
87.88,-177.82,-109.57,-321,-7934,-2822,0,0,-1
87.88,-177.82,-109.57,-324,-7934,-2834,0,0,-1
87.85,-177.82,-109.57,-331,-7935,-2830,0,0,-1
87.85,-177.82,-109.57,-320,-7935,-2814,-1,0,-1
87.85,-177.83,-109.58,-318,-7922,-2816,-1,0,-1
87.85,-177.83,-109.58,-322,-7923,-2839,-1,0,-1
87.83,-177.83,-109.59,-318,-7919,-2845,0,0,-1
87.83,-177.83,-109.59,-321,-7925,-2833,0,0,0
87.83,-177.83,-109.59,-321,-7935,-2832,0,0,0
87.83,-177.83,-109.58,-327,-7940,-2822,0,0,-1
87.83,-177.83,-109.58,-328,-7933,-2830,-1,0,-1
87.83,-177.83,-109.59,-326,-7926,-2823,-1,0,-1
87.83,-177.83,-109.59,-327,-7919,-2822,0,0,-1
87.81,-177.83,-109.58,-326,-7925,-2824,0,0,-1
87.81,-177.83,-109.59,-324,-7921,-2824,-1,0,-1
87.81,-177.83,-109.60,-327,-7919,-2829,-1,0,-1
87.81,-177.84,-109.60,-325,-7924,-2830,-1,0,-1
87.81,-177.84,-109.61,-323,-7926,-2832,-1,0,-1
87.81,-177.84,-109.61,-322,-7931,-2834,0,0,-1
87.81,-177.85,-109.61,-318,-7927,-2835,-1,0,-1
87.81,-177.85,-109.61,-316,-7924,-2822,-1,0,-1
87.80,-177.84,-109.62,-322,-7925,-2828,-1,0,-1
87.80,-177.84,-109.62,-319,-7929,-2834,-1,0,-1
87.80,-177.84,-109.62,-320,-7934,-2835,0,0,0
87.80,-177.84,-109.62,-323,-7944,-2829,-1,0,-1
87.80,-177.84,-109.62,-326,-7940,-2818,-1,0,-1
87.80,-177.84,-109.62,-322,-7937,-2820,-1,0,-1
87.80,-177.84,-109.62,-319,-7923,-2814,-1,0,-1
87.78,-177.84,-109.61,-314,-7917,-2812,-1,0,-1
87.80,-177.84,-109.62,-319,-7920,-2813,-1,0,0
87.80,-177.84,-109.62,-320,-7932,-2824,-1,0,0
87.80,-177.84,-109.62,-321,-7934,-2824,-1,-1,-1
87.80,-177.84,-109.62,-322,-7931,-2827,0,0,-1
87.80,-177.84,-109.62,-323,-7925,-2827,-1,-1,0
87.78,-177.84,-109.62,-329,-7934,-2834,-1,0,-1
87.78,-177.84,-109.62,-327,-7931,-2838,-1,0,-1
87.80,-177.84,-109.62,-321,-7933,-2840,0,0,-1
87.78,-177.84,-109.61,-317,-7918,-2819,0,0,0
87.81,-177.84,-109.60,-315,-7911,-2808,0,0,0
87.78,-177.84,-109.61,-322,-7913,-2810,-1,0,0
87.80,-177.83,-109.61,-324,-7921,-2826,-1,0,-1
87.78,-177.84,-109.62,-328,-7931,-2836,-1,0,-1
87.78,-177.84,-109.62,-330,-7935,-2834,-1,0,-1
87.80,-177.84,-109.62,-330,-7927,-2822,0,0,-1
87.80,-177.84,-109.62,-323,-7917,-2837,0,-1,0
87.80,-177.84,-109.62,-320,-7911,-2826,-1,-1,0
87.79,-177.83,-109.62,-318,-7917,-2837,-1,-1,0
87.79,-177.83,-109.62,-316,-7933,-2842,-1,0,-1
87.79,-177.84,-109.63,-321,-7944,-2840,-1,0,-1
87.79,-177.84,-109.63,-322,-7936,-2841,0,0,-1
87.79,-177.84,-109.63,-324,-7918,-2829,0,0,-1
87.79,-177.84,-109.63,-323,-7912,-2828,0,-1,0
87.79,-177.83,-109.62,-323,-7917,-2826,-1,-1,0
87.79,-177.83,-109.62,-327,-7933,-2828,-1,0,0
87.81,-177.83,-109.63,-332,-7945,-2827,-1,0,-1
87.79,-177.83,-109.62,-327,-7941,-2829,0,0,-1
87.79,-177.83,-109.62,-323,-7935,-2829,-1,0,-1
87.78,-177.84,-109.62,-316,-7924,-2810,0,0,-1
87.78,-177.84,-109.62,-311,-7919,-2817,-1,-1,-1
87.79,-177.84,-109.63,-311,-7918,-2824,-1,-1,-1
87.79,-177.84,-109.63,-320,-7922,-2831,-1,0,-1
87.79,-177.84,-109.63,-325,-7936,-2843,0,-1,-1
87.79,-177.84,-109.63,-318,-7936,-2843,0,-1,0
87.81,-177.83,-109.63,-318,-7937,-2835,0,-1,0
87.82,-177.83,-109.62,-314,-7928,-2818,0,-1,0
87.82,-177.83,-109.62,-317,-7927,-2817,-1,0,-1
87.81,-177.82,-109.62,-331,-7926,-2821,-1,0,-1
87.81,-177.82,-109.62,-333,-7930,-2827,0,0,-1
87.81,-177.82,-109.62,-323,-7927,-2833,0,-1,0
87.81,-177.82,-109.62,-322,-7923,-2837,0,0,-1
87.81,-177.82,-109.62,-327,-7923,-2838,-1,-1,-1
87.81,-177.82,-109.62,-326,-7918,-2828,0,0,-1
87.82,-177.83,-109.62,-318,-7913,-2820,-1,0,-1
87.82,-177.83,-109.62,-314,-7917,-2820,-1,0,-1
87.81,-177.83,-109.63,-319,-7927,-2825,-1,0,0
87.81,-177.83,-109.63,-326,-7938,-2831,0,-1,-1
87.79,-177.83,-109.62,-318,-7929,-2830,0,-1,-1
87.79,-177.83,-109.62,-320,-7925,-2835,0,-1,-1
87.79,-177.83,-109.62,-321,-7917,-2819,0,0,0
87.81,-177.82,-109.62,-326,-7922,-2829,-1,0,-1
87.81,-177.83,-109.63,-333,-7922,-2834,-1,0,0
87.79,-177.82,-109.63,-332,-7928,-2837,-1,0,-1
87.79,-177.82,-109.63,-325,-7934,-2835,0,0,-1
87.81,-177.83,-109.63,-321,-7921,-2831,0,-1,0
87.79,-177.82,-109.62,-325,-7923,-2830,0,-1,0
87.81,-177.82,-109.62,-330,-7925,-2824,0,-1,0
87.81,-177.82,-109.62,-319,-7928,-2822,0,-1,0
87.83,-177.81,-109.62,-326,-7933,-2819,0,-1,-1
87.83,-177.81,-109.62,-325,-7934,-2821,-1,-1,-1
87.83,-177.81,-109.62,-322,-7931,-2831,-1,-1,-1
87.84,-177.81,-109.63,-323,-7924,-2834,-1,-1,-1
87.84,-177.81,-109.63,-322,-7923,-2832,0,0,-1
87.84,-177.81,-109.63,-318,-7910,-2824,-1,0,0
87.84,-177.81,-109.63,-317,-7909,-2826,-1,-1,0
87.84,-177.80,-109.62,-322,-7922,-2821,0,-1,0
87.84,-177.80,-109.62,-325,-7924,-2829,0,-1,-1
87.83,-177.80,-109.61,-327,-7929,-2833,0,0,-1
87.83,-177.80,-109.61,-321,-7922,-2823,-1,-1,-1
87.83,-177.80,-109.61,-321,-7922,-2823,-1,0,-1
87.83,-177.80,-109.61,-325,-7926,-2823,-1,0,0
87.84,-177.80,-109.62,-328,-7926,-2828,-1,0,-1
87.84,-177.80,-109.62,-326,-7924,-2830,0,0,-1
87.83,-177.81,-109.62,-325,-7925,-2823,-1,0,-1
87.83,-177.81,-109.62,-321,-7924,-2818,0,-1,0
87.83,-177.80,-109.61,-327,-7923,-2816,0,-1,0
87.85,-177.81,-109.61,-325,-7925,-2820,0,0,0
87.85,-177.80,-109.61,-329,-7933,-2822,-1,0,-1
87.87,-177.80,-109.61,-328,-7932,-2825,-1,0,-1
87.85,-177.81,-109.61,-324,-7928,-2822,-1,0,0
87.87,-177.80,-109.61,-330,-7926,-2832,0,-1,0
87.87,-177.80,-109.61,-333,-7923,-2827,0,0,0
87.85,-177.80,-109.60,-330,-7926,-2825,0,0,0
87.87,-177.80,-109.61,-324,-7927,-2835,-1,0,0
87.87,-177.80,-109.61,-318,-7927,-2821,-1,-1,0
87.87,-177.80,-109.61,-324,-7924,-2826,-1,-1,0
87.87,-177.80,-109.61,-324,-7925,-2817,0,-1,0
87.87,-177.80,-109.61,-322,-7925,-2822,0,-1,0
87.87,-177.80,-109.60,-323,-7916,-2815,0,-1,0
87.87,-177.80,-109.59,-325,-7921,-2815,0,-1,0
87.87,-177.80,-109.59,-327,-7916,-2811,-1,0,0
87.89,-177.79,-109.60,-328,-7928,-2822,-1,-1,0
87.87,-177.80,-109.59,-329,-7928,-2829,0,0,-1
87.87,-177.80,-109.59,-324,-7924,-2822,0,0,-1
87.86,-177.80,-109.58,-320,-7918,-2816,0,-1,0
87.88,-177.79,-109.58,-319,-7917,-2808,0,-1,0
87.88,-177.79,-109.57,-324,-7922,-2813,0,-1,0
87.90,-177.79,-109.58,-329,-7931,-2816,-1,-1,-1
87.88,-177.79,-109.57,-327,-7935,-2813,0,0,-1
87.88,-177.79,-109.57,-328,-7929,-2814,0,0,-1
87.88,-177.79,-109.57,-328,-7930,-2812,0,-1,0
87.88,-177.79,-109.57,-322,-7917,-2809,-1,0,0
87.88,-177.79,-109.57,-325,-7914,-2807,-1,0,-1
87.88,-177.79,-109.57,-320,-7916,-2809,-1,-1,0
87.88,-177.79,-109.57,-323,-7924,-2818,-1,-1,0
87.88,-177.79,-109.57,-332,-7936,-2831,0,0,-1
87.88,-177.79,-109.57,-329,-7937,-2819,0,0,-1
87.88,-177.79,-109.57,-329,-7937,-2817,-1,-1,-1
87.88,-177.79,-109.57,-328,-7924,-2817,-1,0,-1
87.88,-177.79,-109.58,-326,-7921,-2830,-1,0,-1
87.88,-177.79,-109.58,-324,-7928,-2830,-1,0,0
87.88,-177.79,-109.58,-326,-7932,-2831,0,0,-1
87.88,-177.79,-109.58,-321,-7926,-2814,-1,0,0
87.85,-177.79,-109.58,-326,-7928,-2832,-1,0,0
87.85,-177.79,-109.58,-333,-7927,-2831,0,0,-1
87.85,-177.79,-109.58,-331,-7933,-2829,0,0,0
87.85,-177.79,-109.58,-333,-7926,-2824,0,0,-1
87.88,-177.79,-109.57,-332,-7930,-2811,-1,-1,0
87.85,-177.79,-109.57,-334,-7929,-2815,-1,-1,0
87.85,-177.79,-109.58,-324,-7925,-2814,-1,0,0
87.85,-177.79,-109.58,-317,-7928,-2820,-1,0,-1
87.85,-177.79,-109.58,-319,-7934,-2821,0,0,-1
87.86,-177.80,-109.57,-318,-7935,-2818,0,0,0
87.86,-177.80,-109.57,-327,-7939,-2811,0,0,0
87.86,-177.80,-109.57,-330,-7935,-2817,0,0,0
87.86,-177.80,-109.57,-324,-7929,-2818,0,0,-1
87.84,-177.80,-109.57,-321,-7918,-2814,-1,0,-1
87.84,-177.80,-109.57,-322,-7916,-2820,-1,0,0
87.84,-177.80,-109.58,-326,-7924,-2826,-1,0,0
87.84,-177.80,-109.58,-328,-7932,-2830,-1,0,-1
87.84,-177.80,-109.58,-328,-7936,-2829,0,0,-1
87.84,-177.80,-109.57,-322,-7933,-2822,0,0,-1
87.84,-177.80,-109.57,-321,-7917,-2818,-1,0,0
87.82,-177.80,-109.57,-319,-7914,-2821,-1,-1,0
87.82,-177.80,-109.57,-318,-7924,-2818,-1,-1,0
87.84,-177.80,-109.58,-329,-7928,-2812,-1,0,0
87.84,-177.80,-109.58,-330,-7933,-2829,0,-1,-1
87.84,-177.80,-109.57,-325,-7923,-2819,0,0,0
87.86,-177.80,-109.57,-335,-7929,-2824,0,-1,0
87.84,-177.80,-109.57,-325,-7926,-2817,0,-1,0
87.86,-177.79,-109.57,-329,-7928,-2815,-1,0,0
87.84,-177.79,-109.57,-324,-7931,-2813,-1,0,0
87.84,-177.79,-109.57,-322,-7931,-2822,-1,0,-1
87.84,-177.80,-109.58,-321,-7938,-2831,0,0,-1
87.84,-177.80,-109.58,-319,-7937,-2833,0,0,-1
87.84,-177.80,-109.57,-325,-7933,-2822,0,0,0
87.84,-177.80,-109.57,-324,-7925,-2822,0,0,-1
87.84,-177.80,-109.57,-326,-7924,-2818,-1,0,-1
87.84,-177.80,-109.57,-327,-7928,-2817,-1,0,0
87.83,-177.80,-109.56,-320,-7925,-2807,-1,0,-1
87.80,-177.81,-109.57,-317,-7931,-2819,-1,0,-1
87.82,-177.81,-109.58,-320,-7929,-2832,-1,0,-1
87.82,-177.81,-109.58,-316,-7931,-2831,0,0,0
87.80,-177.81,-109.57,-316,-7925,-2829,0,0,0
87.80,-177.81,-109.57,-325,-7926,-2810,0,0,0
87.80,-177.81,-109.57,-329,-7925,-2807,-1,-1,0
87.82,-177.81,-109.58,-329,-7928,-2816,-1,0,-1
87.82,-177.81,-109.58,-321,-7939,-2834,-1,0,-1
87.82,-177.82,-109.59,-319,-7938,-2837,-1,0,-1
87.80,-177.82,-109.59,-320,-7925,-2827,0,0,-1
87.78,-177.82,-109.59,-324,-7921,-2830,-1,0,0
87.78,-177.82,-109.59,-314,-7923,-2828,0,0,0
87.78,-177.82,-109.59,-322,-7917,-2817,-1,0,0
87.78,-177.82,-109.59,-318,-7927,-2824,-1,0,-1
87.78,-177.82,-109.59,-315,-7931,-2836,0,0,-1
87.78,-177.82,-109.59,-321,-7926,-2822,0,0,0
87.78,-177.82,-109.59,-327,-7922,-2813,-1,0,0
87.78,-177.82,-109.59,-327,-7921,-2809,-1,0,0
87.76,-177.82,-109.59,-316,-7922,-2812,-1,0,-1
87.78,-177.82,-109.59,-321,-7929,-2817,-1,0,0
87.76,-177.82,-109.60,-328,-7936,-2825,-1,0,0
87.76,-177.82,-109.60,-331,-7933,-2836,-1,0,0
87.77,-177.82,-109.60,-330,-7929,-2843,-1,0,0
87.75,-177.82,-109.61,-326,-7924,-2835,-1,0,-1
87.75,-177.82,-109.61,-324,-7925,-2828,-1,0,-1
87.75,-177.83,-109.62,-322,-7928,-2832,-1,0,-1
87.75,-177.83,-109.62,-323,-7932,-2828,-1,0,0
87.75,-177.83,-109.62,-327,-7925,-2825,0,0,0
87.73,-177.83,-109.61,-326,-7928,-2828,0,0,0
87.73,-177.83,-109.61,-323,-7924,-2816,-1,0,0
87.73,-177.83,-109.61,-320,-7925,-2827,-1,0,-1
87.73,-177.83,-109.61,-320,-7928,-2825,0,0,0
87.73,-177.83,-109.61,-317,-7925,-2818,-1,0,-1
87.73,-177.83,-109.61,-322,-7921,-2820,-1,0,0
87.73,-177.83,-109.62,-327,-7919,-2831,-1,0,-1
87.73,-177.83,-109.63,-329,-7926,-2837,-1,0,-1
87.73,-177.84,-109.63,-321,-7926,-2833,0,0,-1
87.71,-177.84,-109.63,-309,-7920,-2835,0,0,0
87.71,-177.84,-109.62,-314,-7926,-2834,0,-1,0
87.71,-177.83,-109.62,-317,-7928,-2834,0,-1,0
87.71,-177.83,-109.62,-328,-7935,-2830,-1,0,0
87.71,-177.84,-109.62,-330,-7936,-2821,-1,0,-1
87.70,-177.83,-109.64,-331,-7925,-2832,-1,0,-1
87.68,-177.84,-109.65,-324,-7924,-2839,-1,0,-1
87.68,-177.84,-109.65,-316,-7927,-2845,0,0,0
87.70,-177.84,-109.64,-319,-7926,-2838,0,0,0
87.69,-177.84,-109.64,-315,-7927,-2834,0,-1,0
87.69,-177.83,-109.63,-327,-7929,-2821,0,0,0
87.69,-177.83,-109.63,-338,-7924,-2821,-1,0,-1
87.68,-177.83,-109.64,-333,-7920,-2837,-1,0,-1
87.68,-177.84,-109.65,-322,-7918,-2840,-1,0,-1
87.70,-177.84,-109.66,-314,-7917,-2841,-1,0,-1
87.70,-177.84,-109.66,-315,-7918,-2836,-1,0,0
87.67,-177.84,-109.66,-314,-7915,-2827,-1,0,0
87.67,-177.84,-109.66,-320,-7920,-2830,-1,0,0
87.67,-177.84,-109.66,-313,-7922,-2825,0,-1,0
87.67,-177.84,-109.66,-312,-7930,-2831,0,0,0
87.70,-177.84,-109.65,-317,-7933,-2833,0,-1,0
87.70,-177.83,-109.65,-321,-7925,-2829,0,-1,0
87.68,-177.84,-109.65,-319,-7920,-2824,-1,0,-1
87.70,-177.84,-109.66,-323,-7916,-2817,-1,0,-1
87.67,-177.84,-109.66,-321,-7915,-2826,-1,0,0
87.67,-177.84,-109.66,-316,-7921,-2834,0,0,0
87.67,-177.84,-109.66,-319,-7924,-2833,0,0,0
87.67,-177.84,-109.66,-318,-7924,-2833,-1,-1,0
87.67,-177.84,-109.66,-317,-7928,-2838,0,-1,0
87.67,-177.84,-109.66,-328,-7931,-2833,-1,0,-1
87.67,-177.84,-109.66,-322,-7929,-2831,-1,-1,-1
87.67,-177.84,-109.66,-320,-7922,-2838,-1,0,-1
87.69,-177.84,-109.66,-323,-7923,-2842,0,0,0
87.69,-177.83,-109.66,-318,-7927,-2842,0,-1,0
87.67,-177.83,-109.65,-323,-7927,-2830,0,0,0
87.70,-177.83,-109.65,-323,-7928,-2827,0,0,-1
87.70,-177.83,-109.65,-323,-7925,-2825,-1,-1,-1
87.69,-177.83,-109.66,-323,-7923,-2831,-1,0,0
87.69,-177.83,-109.66,-317,-7924,-2844,-1,0,-1
87.69,-177.84,-109.66,-316,-7923,-2851,0,0,-1
87.67,-177.84,-109.66,-314,-7921,-2839,0,0,0
87.67,-177.84,-109.66,-311,-7925,-2845,0,0,0
87.70,-177.84,-109.65,-316,-7923,-2824,0,0,0
87.70,-177.84,-109.65,-321,-7925,-2826,-1,0,0
87.67,-177.84,-109.66,-319,-7927,-2833,-1,0,-1
87.69,-177.84,-109.66,-319,-7931,-2843,-1,0,0
87.69,-177.84,-109.66,-325,-7922,-2841,0,0,0
87.69,-177.83,-109.66,-329,-7920,-2833,0,0,0
87.69,-177.83,-109.66,-333,-7919,-2832,0,-1,0
87.69,-177.83,-109.66,-323,-7918,-2842,0,0,0
87.69,-177.83,-109.66,-325,-7922,-2847,-1,-1,0
87.71,-177.83,-109.66,-329,-7925,-2841,-1,-1,0
87.71,-177.83,-109.66,-325,-7926,-2832,0,0,0
87.69,-177.82,-109.65,-328,-7928,-2830,0,0,0
87.69,-177.82,-109.65,-331,-7928,-2821,-1,-1,-1
87.69,-177.82,-109.65,-332,-7916,-2825,-1,-1,-1
87.71,-177.83,-109.66,-328,-7923,-2834,-1,0,-1
87.68,-177.82,-109.67,-334,-7929,-2841,-1,0,-1
87.68,-177.82,-109.67,-329,-7925,-2845,0,0,-1
87.68,-177.82,-109.67,-324,-7926,-2843,0,0,0
87.68,-177.82,-109.67,-317,-7927,-2837,0,0,0
87.68,-177.82,-109.66,-322,-7925,-2834,0,-1,0
87.71,-177.82,-109.66,-320,-7924,-2828,0,-1,0
87.69,-177.82,-109.65,-322,-7931,-2818,0,-1,0
87.69,-177.82,-109.65,-320,-7931,-2820,-1,-1,0
87.71,-177.82,-109.65,-330,-7929,-2834,-1,-1,0
87.71,-177.82,-109.65,-326,-7930,-2839,-1,0,0
87.70,-177.81,-109.66,-319,-7924,-2837,-1,-1,0
87.71,-177.82,-109.65,-313,-7930,-2832,0,-1,0
87.71,-177.82,-109.65,-312,-7921,-2833,0,-1,0
87.72,-177.81,-109.65,-313,-7921,-2831,-1,-1,0
87.72,-177.81,-109.65,-321,-7924,-2840,-1,-1,0
87.72,-177.80,-109.65,-325,-7931,-2833,0,-1,0
87.74,-177.79,-109.65,-329,-7922,-2820,-1,-1,0
87.74,-177.79,-109.65,-326,-7916,-2833,0,0,-1
87.74,-177.79,-109.65,-316,-7912,-2827,-1,-1,0
87.76,-177.78,-109.65,-316,-7912,-2825,-1,-1,0
87.75,-177.77,-109.65,-325,-7927,-2842,-1,-1,0
87.77,-177.77,-109.65,-337,-7934,-2839,-1,0,-1
87.78,-177.77,-109.66,-340,-7933,-2834,-1,0,-1
87.77,-177.77,-109.65,-330,-7926,-2838,0,0,-1
87.77,-177.78,-109.65,-322,-7915,-2825,0,-1,0
87.79,-177.76,-109.64,-319,-7901,-2827,0,-1,0
87.79,-177.76,-109.63,-330,-7906,-2819,-1,-1,0
87.79,-177.76,-109.63,-334,-7928,-2830,0,-1,0
87.79,-177.75,-109.63,-336,-7930,-2821,-1,-1,0
87.80,-177.75,-109.65,-342,-7941,-2838,-1,0,-1
87.80,-177.76,-109.66,-346,-7936,-2832,-1,0,-1
87.80,-177.76,-109.66,-335,-7922,-2842,0,0,-1
87.78,-177.77,-109.66,-330,-7903,-2842,0,-1,-1
87.81,-177.76,-109.65,-326,-7901,-2837,0,-1,0
87.78,-177.75,-109.64,-335,-7910,-2839,0,-1,0
87.80,-177.75,-109.63,-336,-7919,-2829,-1,-1,0
87.80,-177.75,-109.65,-343,-7935,-2832,-1,0,-1
87.80,-177.75,-109.65,-343,-7935,-2829,-1,0,-1
87.78,-177.76,-109.65,-330,-7928,-2827,0,0,0
87.81,-177.76,-109.64,-331,-7923,-2830,0,0,0
87.81,-177.75,-109.64,-326,-7905,-2815,-1,-1,0
87.80,-177.75,-109.65,-349,-7909,-2820,0,0,0
87.80,-177.75,-109.65,-345,-7926,-2831,-1,0,0
87.80,-177.75,-109.65,-339,-7942,-2848,0,0,0
87.78,-177.75,-109.65,-337,-7938,-2848,0,0,-1
87.81,-177.75,-109.64,-336,-7929,-2830,0,0,0
87.79,-177.75,-109.63,-337,-7931,-2818,0,0,-1
87.81,-177.75,-109.63,-332,-7920,-2816,0,-1,-1
87.81,-177.75,-109.63,-339,-7918,-2813,-1,0,-1
87.80,-177.76,-109.63,-325,-7920,-2815,-1,0,-1
87.79,-177.77,-109.65,-326,-7921,-2838,-1,0,-1
87.77,-177.78,-109.65,-315,-7923,-2839,0,0,-1
87.77,-177.78,-109.65,-320,-7929,-2858,0,0,-1
87.80,-177.79,-109.65,-313,-7915,-2833,-1,0,0
87.77,-177.78,-109.65,-323,-7917,-2830,0,0,-1
87.77,-177.78,-109.65,-330,-7924,-2847,0,0,0
87.80,-177.78,-109.64,-317,-7919,-2826,0,-1,0
87.80,-177.77,-109.63,-328,-7929,-2834,-1,-1,0
87.80,-177.76,-109.63,-327,-7930,-2818,0,-1,0
87.79,-177.76,-109.63,-330,-7932,-2834,0,-1,0
87.81,-177.76,-109.63,-322,-7928,-2824,0,-1,0
87.81,-177.76,-109.63,-335,-7937,-2836,0,-1,0
87.79,-177.75,-109.61,-336,-7923,-2825,0,-1,0
87.79,-177.74,-109.61,-328,-7912,-2822,0,-1,0
87.83,-177.73,-109.61,-345,-7913,-2836,0,-1,0
87.81,-177.73,-109.60,-342,-7926,-2837,0,0,0
87.81,-177.72,-109.59,-335,-7909,-2825,0,0,0
87.81,-177.72,-109.59,-334,-7919,-2806,-1,-1,0
87.82,-177.71,-109.61,-343,-7935,-2803,-2,0,-1
87.81,-177.72,-109.64,-345,-7937,-2820,-2,0,-1
87.79,-177.72,-109.67,-350,-7926,-2842,-2,0,-1
87.81,-177.74,-109.69,-331,-7916,-2859,-1,0,-1
87.79,-177.74,-109.70,-327,-7906,-2857,0,0,-1
87.80,-177.74,-109.69,-317,-7921,-2866,0,-1,0
87.80,-177.73,-109.66,-327,-7927,-2855,0,-1,0
87.79,-177.73,-109.64,-338,-7929,-2821,0,0,0
87.79,-177.72,-109.64,-340,-7931,-2816,-1,-1,0
87.81,-177.72,-109.64,-345,-7947,-2824,-1,-1,-1
87.81,-177.72,-109.65,-349,-7948,-2851,0,0,-1
87.79,-177.73,-109.65,-323,-7929,-2835,-1,0,0
87.79,-177.73,-109.64,-337,-7923,-2831,0,0,0
87.77,-177.73,-109.64,-331,-7905,-2822,0,0,0
87.79,-177.73,-109.65,-330,-7901,-2814,-1,0,0
87.78,-177.73,-109.65,-334,-7917,-2824,-1,-1,0
87.78,-177.73,-109.66,-335,-7942,-2860,-1,0,-1
87.78,-177.73,-109.66,-340,-7938,-2854,0,0,-1
87.78,-177.73,-109.66,-330,-7934,-2861,0,-1,0
87.79,-177.74,-109.65,-324,-7912,-2839,0,-1,0
87.79,-177.73,-109.65,-320,-7896,-2828,-1,-1,0
87.78,-177.73,-109.65,-326,-7904,-2819,-1,-1,0
87.80,-177.73,-109.66,-333,-7930,-2827,-1,-1,0
87.78,-177.73,-109.67,-337,-7947,-2839,0,0,-1
87.78,-177.73,-109.66,-338,-7943,-2844,0,0,-1
87.77,-177.73,-109.65,-331,-7929,-2846,0,0,0
87.79,-177.73,-109.65,-328,-7926,-2837,0,-1,0
87.79,-177.73,-109.64,-337,-7914,-2819,-1,0,0
87.77,-177.73,-109.65,-335,-7906,-2818,-1,0,0
87.78,-177.73,-109.66,-329,-7911,-2819,-1,0,-1
87.76,-177.74,-109.67,-329,-7935,-2842,-1,0,-1
87.76,-177.74,-109.67,-326,-7943,-2842,-1,0,-1
87.76,-177.74,-109.68,-330,-7941,-2850,0,0,-1
87.74,-177.75,-109.67,-330,-7916,-2839,0,0,-1
87.74,-177.75,-109.67,-334,-7906,-2824,0,0,-1
87.74,-177.75,-109.67,-328,-7906,-2817,0,0,0
87.74,-177.75,-109.67,-339,-7926,-2824,-1,0,0
87.74,-177.75,-109.68,-334,-7933,-2836,-1,0,-1
87.72,-177.75,-109.68,-337,-7934,-2835,-1,0,-1
87.72,-177.75,-109.68,-337,-7922,-2839,-1,0,-1
87.74,-177.76,-109.68,-325,-7917,-2846,0,0,-1
87.73,-177.76,-109.68,-325,-7915,-2833,0,0,0
87.73,-177.76,-109.68,-328,-7915,-2830,-1,0,0
87.73,-177.76,-109.68,-326,-7916,-2822,-1,0,0
87.74,-177.75,-109.68,-333,-7918,-2825,-1,-1,-1
87.72,-177.75,-109.68,-340,-7920,-2832,-1,0,-1
87.72,-177.75,-109.68,-332,-7913,-2834,-1,0,-1
87.72,-177.75,-109.68,-340,-7919,-2839,-1,0,-1
87.72,-177.76,-109.69,-343,-7922,-2839,-1,0,0
87.74,-177.75,-109.69,-338,-7920,-2843,-1,0,-1
87.72,-177.76,-109.69,-331,-7917,-2848,0,0,0
87.72,-177.76,-109.69,-332,-7917,-2849,0,0,0
87.72,-177.76,-109.69,-334,-7921,-2838,0,0,-1
87.70,-177.76,-109.68,-333,-7928,-2830,0,0,0
87.72,-177.75,-109.68,-331,-7929,-2826,-1,-1,0
87.72,-177.75,-109.68,-334,-7923,-2835,-1,-1,0
87.72,-177.76,-109.69,-333,-7921,-2840,0,0,-1
87.72,-177.76,-109.69,-334,-7922,-2843,0,0,0
87.72,-177.76,-109.69,-335,-7928,-2847,-1,0,0
87.74,-177.75,-109.69,-337,-7928,-2849,-1,-1,0
87.74,-177.75,-109.69,-335,-7930,-2834,0,0,-1
87.74,-177.75,-109.69,-337,-7922,-2834,-1,0,-1
87.72,-177.76,-109.69,-334,-7920,-2831,0,0,0
87.72,-177.76,-109.69,-335,-7919,-2839,0,0,0
87.72,-177.76,-109.69,-334,-7912,-2829,-1,-1,0
87.70,-177.75,-109.69,-343,-7922,-2835,-1,0,-1
87.71,-177.75,-109.69,-344,-7932,-2844,-1,0,-1
87.71,-177.75,-109.70,-342,-7933,-2843,-1,0,-1
87.70,-177.76,-109.70,-333,-7932,-2832,-1,0,-1
87.71,-177.76,-109.70,-333,-7921,-2845,-1,0,0
87.70,-177.76,-109.70,-319,-7916,-2842,0,0,0
87.70,-177.76,-109.69,-325,-7909,-2835,0,-1,0
87.70,-177.75,-109.69,-328,-7920,-2833,0,-1,0
87.70,-177.75,-109.69,-333,-7931,-2833,-1,0,0
87.70,-177.75,-109.69,-334,-7925,-2844,-1,0,-1
87.70,-177.76,-109.70,-336,-7919,-2853,-1,0,-1
87.68,-177.76,-109.69,-328,-7916,-2835,-1,0,-1
87.68,-177.77,-109.70,-323,-7920,-2828,-1,0,0
87.70,-177.76,-109.70,-328,-7917,-2838,-1,0,0
87.67,-177.76,-109.70,-339,-7920,-2842,0,0,0
87.67,-177.76,-109.70,-335,-7914,-2832,0,0,0
87.70,-177.76,-109.69,-333,-7916,-2842,0,0,0
87.68,-177.76,-109.69,-329,-7921,-2834,0,-1,0
87.68,-177.76,-109.69,-328,-7929,-2825,-1,-1,0
87.70,-177.76,-109.69,-335,-7930,-2817,-1,0,-1
87.67,-177.76,-109.70,-337,-7923,-2824,-1,0,-1
87.67,-177.77,-109.71,-329,-7915,-2844,-1,0,-1
87.67,-177.77,-109.71,-323,-7912,-2847,0,0,-1
87.68,-177.77,-109.70,-311,-7908,-2839,0,-1,0
87.66,-177.77,-109.70,-320,-7915,-2826,-1,-1,0
87.67,-177.76,-109.70,-335,-7930,-2828,-1,0,0
87.67,-177.75,-109.71,-358,-7945,-2843,-1,0,-1
87.67,-177.77,-109.71,-346,-7930,-2840,-1,0,-1
87.66,-177.77,-109.71,-322,-7913,-2844,0,0,-1
87.64,-177.78,-109.71,-316,-7900,-2828,0,0,0
87.63,-177.77,-109.71,-330,-7908,-2829,-1,0,0
87.63,-177.77,-109.71,-329,-7916,-2841,-1,0,-1
87.63,-177.77,-109.71,-321,-7926,-2851,-1,0,-1
87.63,-177.78,-109.72,-319,-7931,-2860,-1,0,0
87.63,-177.78,-109.72,-324,-7932,-2861,0,0,-1
87.62,-177.79,-109.72,-322,-7928,-2854,0,0,-1
87.64,-177.79,-109.72,-322,-7918,-2844,0,0,-1
87.62,-177.79,-109.71,-318,-7909,-2837,0,0,0
87.60,-177.79,-109.72,-320,-7909,-2825,-1,0,0
87.62,-177.79,-109.73,-327,-7921,-2833,-1,0,0
87.61,-177.79,-109.73,-332,-7937,-2853,-1,0,-1
87.61,-177.79,-109.74,-334,-7933,-2860,-1,0,-1
87.60,-177.80,-109.73,-332,-7922,-2854,0,0,-1
87.59,-177.79,-109.73,-327,-7914,-2844,0,0,0
87.59,-177.79,-109.73,-331,-7905,-2847,-1,0,0
87.59,-177.79,-109.73,-330,-7910,-2850,-1,0,0
87.59,-177.80,-109.75,-334,-7924,-2857,-1,0,-1
87.59,-177.80,-109.75,-332,-7931,-2860,-1,0,-1
87.59,-177.80,-109.75,-323,-7927,-2857,-1,0,0
87.57,-177.80,-109.75,-318,-7915,-2843,0,0,0
87.57,-177.80,-109.75,-321,-7918,-2854,-1,0,-1
87.59,-177.80,-109.75,-313,-7911,-2846,-1,0,0
87.57,-177.80,-109.75,-320,-7906,-2834,-1,-1,0
87.59,-177.80,-109.75,-323,-7913,-2847,-1,0,0
87.59,-177.80,-109.75,-318,-7921,-2856,-1,0,0
87.59,-177.80,-109.75,-316,-7920,-2865,-1,0,0
87.57,-177.80,-109.76,-324,-7919,-2861,0,0,0
87.59,-177.80,-109.75,-316,-7906,-2847,0,0,0
87.57,-177.80,-109.75,-319,-7909,-2835,0,-1,-1
87.57,-177.80,-109.75,-329,-7909,-2833,-1,0,-1
87.59,-177.80,-109.75,-332,-7908,-2834,-1,0,-1
87.58,-177.80,-109.76,-334,-7915,-2849,-1,0,-1
87.58,-177.80,-109.77,-331,-7922,-2860,0,0,-1
87.59,-177.81,-109.76,-327,-7918,-2851,0,0,-1
87.59,-177.81,-109.76,-325,-7920,-2844,0,-1,0
87.57,-177.81,-109.75,-325,-7916,-2830,0,-1,0
87.59,-177.80,-109.75,-329,-7909,-2831,-1,0,0
87.57,-177.80,-109.76,-332,-7918,-2839,-1,0,0
87.57,-177.80,-109.76,-336,-7923,-2855,0,0,-1
87.59,-177.80,-109.75,-327,-7931,-2848,0,-1,0
87.59,-177.80,-109.75,-322,-7925,-2844,-1,0,0
87.59,-177.80,-109.75,-321,-7920,-2839,-1,-1,0
87.57,-177.80,-109.76,-331,-7917,-2844,-1,0,0
87.57,-177.80,-109.76,-318,-7922,-2860,0,0,-1
87.57,-177.80,-109.76,-328,-7917,-2868,0,0,0
87.58,-177.80,-109.76,-334,-7918,-2862,0,0,0
87.56,-177.79,-109.76,-330,-7919,-2860,-1,0,0
87.56,-177.79,-109.76,-327,-7922,-2856,-1,0,0
87.56,-177.79,-109.76,-324,-7929,-2861,0,0,-1
87.54,-177.79,-109.76,-323,-7927,-2871,0,0,-1
87.53,-177.80,-109.74,-327,-7930,-2862,0,0,-1
87.54,-177.80,-109.73,-327,-7929,-2848,0,-1,-1
87.54,-177.80,-109.71,-333,-7924,-2831,0,-1,0
87.54,-177.80,-109.71,-336,-7910,-2814,-1,0,-1
87.56,-177.80,-109.72,-332,-7895,-2819,-1,0,-1
87.55,-177.80,-109.74,-328,-7903,-2844,-1,0,0
87.53,-177.80,-109.74,-316,-7908,-2851,0,0,0
87.53,-177.79,-109.73,-311,-7906,-2840,0,-1,0
87.55,-177.78,-109.73,-325,-7932,-2857,0,-1,0
87.54,-177.77,-109.71,-334,-7953,-2862,0,-1,0
87.55,-177.77,-109.70,-337,-7947,-2850,0,0,-1
87.56,-177.77,-109.69,-332,-7933,-2835,0,0,0
87.55,-177.77,-109.67,-315,-7909,-2810,0,-1,0
87.52,-177.76,-109.67,-325,-7901,-2804,-1,-1,0
87.54,-177.76,-109.67,-322,-7902,-2812,-1,-1,0
87.55,-177.76,-109.69,-333,-7919,-2843,-1,0,0
87.53,-177.76,-109.70,-334,-7930,-2861,0,0,-1
87.53,-177.76,-109.69,-328,-7937,-2864,0,0,-1
87.51,-177.76,-109.68,-323,-7927,-2855,0,0,0
87.52,-177.76,-109.67,-321,-7922,-2830,0,-1,0
87.52,-177.76,-109.67,-328,-7909,-2813,0,-1,0
87.52,-177.76,-109.67,-332,-7914,-2812,-1,0,-1
87.52,-177.77,-109.67,-333,-7918,-2820,-1,0,-1
87.54,-177.76,-109.68,-329,-7919,-2831,-1,0,0
87.51,-177.76,-109.68,-338,-7927,-2836,0,0,0
87.54,-177.76,-109.68,-330,-7930,-2838,0,-1,0
87.52,-177.76,-109.67,-331,-7928,-2836,0,-1,0
87.52,-177.76,-109.67,-327,-7921,-2841,0,-1,0
87.52,-177.75,-109.66,-330,-7918,-2835,0,-1,0
87.52,-177.74,-109.65,-334,-7923,-2830,0,-1,0
87.50,-177.74,-109.64,-336,-7927,-2823,0,-1,0
87.52,-177.73,-109.64,-335,-7934,-2836,0,-1,0
87.52,-177.73,-109.64,-333,-7937,-2832,0,0,0
87.52,-177.73,-109.63,-340,-7937,-2827,-1,0,0
87.52,-177.73,-109.63,-339,-7939,-2826,-1,0,-1
87.52,-177.73,-109.64,-335,-7928,-2830,-1,-1,-1
87.52,-177.73,-109.64,-331,-7919,-2828,0,-1,-1
87.52,-177.73,-109.64,-323,-7911,-2829,0,-1,0
87.52,-177.74,-109.64,-319,-7906,-2826,-1,-1,-1
87.52,-177.74,-109.64,-323,-7914,-2821,-1,-1,-1
87.54,-177.74,-109.65,-330,-7929,-2824,-1,-1,0
87.55,-177.73,-109.65,-345,-7926,-2831,0,-1,-1
87.58,-177.74,-109.65,-335,-7922,-2825,0,-1,-1
87.56,-177.74,-109.65,-327,-7921,-2814,-1,-1,-1
87.58,-177.74,-109.65,-317,-7923,-2813,-1,-1,-1
87.60,-177.74,-109.65,-316,-7917,-2813,-1,-1,0
87.61,-177.73,-109.67,-326,-7908,-2821,-1,-1,0
87.62,-177.73,-109.68,-333,-7906,-2846,-1,-1,-1
87.64,-177.73,-109.69,-336,-7917,-2859,-1,-1,-1
87.64,-177.73,-109.69,-337,-7933,-2866,0,-1,-1
87.66,-177.73,-109.69,-333,-7924,-2863,0,-1,0
87.66,-177.72,-109.68,-332,-7917,-2846,0,-1,0
87.66,-177.72,-109.67,-339,-7910,-2847,0,-1,0
87.68,-177.70,-109.67,-341,-7919,-2841,0,-1,0
87.68,-177.70,-109.66,-344,-7917,-2839,0,0,-1
87.68,-177.70,-109.66,-340,-7924,-2848,0,-1,0
87.66,-177.70,-109.66,-345,-7942,-2846,0,0,-1
87.68,-177.71,-109.66,-341,-7952,-2855,0,0,-1
87.67,-177.71,-109.65,-340,-7937,-2845,0,0,-1
87.68,-177.72,-109.65,-342,-7921,-2839,0,0,-1
87.67,-177.73,-109.62,-330,-7906,-2826,0,0,-1
87.66,-177.73,-109.60,-323,-7894,-2795,0,-1,0
87.68,-177.72,-109.59,-333,-7908,-2789,0,-1,0
87.70,-177.72,-109.59,-344,-7929,-2799,-1,-1,0
87.70,-177.72,-109.60,-350,-7933,-2820,-1,0,-1
87.70,-177.72,-109.61,-336,-7932,-2843,-1,0,0
87.68,-177.73,-109.61,-320,-7913,-2847,0,-1,0
87.70,-177.72,-109.60,-314,-7889,-2833,0,-1,0
87.72,-177.70,-109.58,-315,-7888,-2827,0,-1,0
87.71,-177.69,-109.57,-328,-7927,-2834,0,-1,0
87.71,-177.67,-109.57,-344,-7947,-2829,0,-1,0
87.72,-177.67,-109.57,-349,-7962,-2825,-1,0,0
87.72,-177.67,-109.59,-351,-7960,-2829,-1,0,-1
87.72,-177.68,-109.60,-341,-7940,-2829,-1,0,-1
87.70,-177.69,-109.61,-335,-7921,-2836,-1,0,-1
87.70,-177.69,-109.62,-327,-7893,-2826,0,0,-1
87.70,-177.70,-109.62,-329,-7901,-2831,0,-1,0
87.70,-177.70,-109.62,-336,-7925,-2841,-1,-1,0
87.70,-177.70,-109.62,-339,-7941,-2847,-1,0,-1
87.70,-177.71,-109.63,-344,-7950,-2844,-1,0,-1
87.68,-177.71,-109.63,-336,-7944,-2837,0,0,-1
87.71,-177.72,-109.63,-332,-7915,-2832,0,-1,-1
87.69,-177.72,-109.62,-333,-7901,-2815,0,-1,0
87.69,-177.71,-109.61,-335,-7900,-2811,0,-1,0
87.69,-177.71,-109.61,-342,-7920,-2821,0,-1,0
87.69,-177.70,-109.60,-356,-7936,-2822,0,-1,0
87.70,-177.70,-109.61,-351,-7947,-2843,0,-1,0
87.70,-177.70,-109.61,-345,-7948,-2845,0,-1,-1
87.71,-177.71,-109.60,-338,-7933,-2829,0,0,-1
87.71,-177.71,-109.60,-336,-7919,-2825,-1,0,-1
87.71,-177.71,-109.60,-333,-7908,-2817,-1,-1,-1
87.71,-177.71,-109.61,-330,-7919,-2824,-1,-1,0
87.70,-177.71,-109.62,-332,-7925,-2830,-1,0,0
87.70,-177.71,-109.62,-341,-7939,-2841,-1,-1,0
87.70,-177.71,-109.63,-342,-7940,-2849,-1,-1,-1
87.70,-177.71,-109.63,-340,-7931,-2847,0,0,-1
87.70,-177.71,-109.64,-337,-7912,-2844,-1,0,-1
87.70,-177.72,-109.64,-345,-7915,-2841,-1,0,0
87.67,-177.71,-109.64,-339,-7902,-2827,-1,0,0
87.69,-177.71,-109.65,-344,-7912,-2840,-1,0,0
87.67,-177.71,-109.65,-343,-7922,-2847,-1,0,-1
87.69,-177.71,-109.66,-344,-7927,-2847,-1,0,-1
87.69,-177.72,-109.67,-341,-7935,-2850,-1,0,-1
87.67,-177.72,-109.66,-337,-7929,-2849,0,0,-1
87.67,-177.72,-109.66,-338,-7922,-2849,0,0,-1
87.67,-177.72,-109.66,-335,-7920,-2839,-1,0,-1
87.67,-177.73,-109.67,-337,-7921,-2830,0,0,-1
87.65,-177.73,-109.66,-333,-7926,-2829,-1,0,-1
87.65,-177.73,-109.67,-336,-7933,-2841,-1,0,-1
87.65,-177.74,-109.67,-334,-7931,-2842,-1,-1,-1
87.65,-177.74,-109.67,-332,-7927,-2835,-1,0,-1
87.65,-177.74,-109.67,-339,-7918,-2825,-1,0,0
87.67,-177.73,-109.68,-336,-7911,-2835,-1,-1,-1
87.65,-177.73,-109.68,-336,-7914,-2846,-1,0,0
87.65,-177.73,-109.68,-336,-7914,-2840,-1,-1,0
87.65,-177.73,-109.68,-334,-7920,-2844,0,-1,0
87.65,-177.73,-109.68,-335,-7930,-2839,0,-1,0
87.65,-177.73,-109.68,-337,-7929,-2837,0,-1,0
87.65,-177.73,-109.67,-335,-7924,-2833,-1,-1,0
87.66,-177.73,-109.68,-335,-7921,-2832,-1,-1,-1
87.66,-177.73,-109.68,-336,-7919,-2845,-1,-1,-1
87.66,-177.73,-109.68,-330,-7918,-2848,0,-1,-1
87.69,-177.73,-109.68,-336,-7921,-2846,0,0,-1
87.66,-177.73,-109.68,-331,-7923,-2847,0,0,-1
87.66,-177.73,-109.69,-331,-7919,-2840,0,0,0
87.66,-177.73,-109.68,-337,-7918,-2831,-1,0,0
87.66,-177.73,-109.68,-333,-7924,-2841,0,0,-1
87.67,-177.73,-109.68,-337,-7925,-2838,0,-1,-1
87.67,-177.73,-109.68,-329,-7923,-2833,0,0,0
87.67,-177.73,-109.68,-331,-7930,-2840,-1,-1,0
87.67,-177.73,-109.68,-321,-7914,-2829,-1,0,0
87.67,-177.74,-109.68,-333,-7917,-2833,-1,0,-1
87.65,-177.74,-109.69,-325,-7927,-2845,-1,-1,-1
87.65,-177.74,-109.69,-327,-7924,-2849,-1,0,-1
87.67,-177.74,-109.69,-330,-7917,-2840,0,-1,-1
87.67,-177.74,-109.69,-335,-7913,-2836,0,-1,0
87.67,-177.74,-109.68,-339,-7916,-2839,0,-1,0
87.67,-177.73,-109.68,-342,-7919,-2836,0,-1,0
87.65,-177.74,-109.67,-337,-7920,-2834,0,0,0
87.65,-177.73,-109.67,-335,-7919,-2827,0,-1,0
87.65,-177.73,-109.67,-333,-7921,-2826,-1,-1,0
87.67,-177.73,-109.68,-331,-7922,-2833,-1,-1,0
87.66,-177.73,-109.68,-334,-7928,-2845,-1,0,-1
87.65,-177.74,-109.69,-333,-7927,-2847,-1,0,-1
87.65,-177.74,-109.69,-337,-7932,-2853,0,0,-1
87.67,-177.74,-109.68,-335,-7927,-2852,0,0,0
87.67,-177.74,-109.68,-335,-7926,-2845,0,-1,0
87.67,-177.74,-109.68,-336,-7927,-2838,-1,-1,-1
87.67,-177.74,-109.68,-335,-7924,-2832,-1,0,-1
87.65,-177.75,-109.70,-332,-7912,-2832,-1,0,-1
87.65,-177.75,-109.70,-328,-7911,-2841,-1,0,-1
87.65,-177.75,-109.70,-329,-7918,-2847,0,-1,0
87.65,-177.75,-109.70,-329,-7917,-2843,0,-1,0
87.65,-177.74,-109.69,-326,-7906,-2829,0,-1,0
87.65,-177.74,-109.69,-331,-7920,-2833,-1,-1,0
87.66,-177.74,-109.69,-338,-7928,-2843,-1,0,-1
87.65,-177.75,-109.69,-329,-7931,-2842,0,0,-1
87.65,-177.75,-109.68,-328,-7924,-2831,0,0,0
87.65,-177.74,-109.68,-319,-7917,-2821,0,-1,0
87.65,-177.74,-109.68,-326,-7908,-2818,-1,-1,0
87.63,-177.74,-109.68,-333,-7923,-2813,-1,0,0
87.65,-177.75,-109.69,-347,-7937,-2838,-1,0,-1
87.63,-177.75,-109.71,-331,-7932,-2859,-1,0,-1
87.63,-177.76,-109.70,-325,-7924,-2857,0,0,-1
87.61,-177.76,-109.69,-318,-7908,-2845,0,-1,0
87.64,-177.76,-109.68,-315,-7901,-2827,0,-1,0
87.64,-177.75,-109.68,-329,-7920,-2816,-1,-1,0
87.63,-177.75,-109.69,-338,-7940,-2839,-1,-1,-1
87.63,-177.75,-109.71,-329,-7933,-2860,-1,0,-1
87.63,-177.77,-109.71,-330,-7921,-2863,0,0,-1
87.62,-177.77,-109.70,-320,-7918,-2858,0,0,0
87.62,-177.77,-109.69,-314,-7899,-2829,0,-1,0
87.62,-177.76,-109.68,-321,-7896,-2812,-1,-1,0
87.61,-177.76,-109.69,-336,-7918,-2824,-1,0,0
87.63,-177.76,-109.70,-338,-7933,-2846,-1,0,-1
87.63,-177.77,-109.71,-333,-7943,-2846,-1,0,-1
87.62,-177.77,-109.70,-336,-7934,-2852,0,0,0
87.62,-177.76,-109.70,-336,-7924,-2842,0,-1,0
87.60,-177.77,-109.69,-335,-7915,-2826,0,0,0
87.61,-177.76,-109.69,-336,-7922,-2825,-1,0,0
87.61,-177.76,-109.69,-332,-7933,-2836,-1,0,-1
87.60,-177.77,-109.69,-324,-7937,-2850,0,-1,0
87.60,-177.77,-109.69,-318,-7930,-2843,0,0,0
87.60,-177.77,-109.69,-325,-7934,-2845,0,-1,0
87.60,-177.77,-109.69,-337,-7921,-2832,0,0,-1
87.60,-177.77,-109.69,-337,-7915,-2846,-1,0,-1
87.57,-177.77,-109.70,-336,-7913,-2859,-1,0,-1
87.58,-177.78,-109.71,-330,-7912,-2858,-1,0,-1
87.58,-177.78,-109.71,-326,-7910,-2850,-1,-1,0
87.58,-177.78,-109.71,-325,-7919,-2852,0,0,0
87.58,-177.78,-109.71,-325,-7917,-2848,-1,0,0
87.55,-177.78,-109.71,-329,-7917,-2854,-1,-1,0
87.55,-177.78,-109.71,-326,-7922,-2848,0,-1,0
87.55,-177.78,-109.71,-325,-7923,-2855,0,-1,0
87.58,-177.78,-109.71,-324,-7921,-2844,0,-1,0
87.58,-177.78,-109.71,-324,-7914,-2843,0,-1,0
87.58,-177.77,-109.70,-322,-7910,-2832,-1,-1,0
87.59,-177.77,-109.71,-328,-7924,-2838,-1,-1,0
87.59,-177.77,-109.72,-334,-7937,-2846,-1,0,-1
87.60,-177.77,-109.73,-334,-7938,-2862,-1,0,-1
87.59,-177.78,-109.73,-326,-7927,-2863,0,0,-1
87.59,-177.78,-109.73,-319,-7910,-2862,0,-1,0
87.59,-177.78,-109.73,-319,-7906,-2849,0,-1,0
87.59,-177.77,-109.72,-320,-7904,-2838,0,-1,0
87.60,-177.77,-109.73,-326,-7913,-2845,-1,-1,0
87.60,-177.77,-109.74,-338,-7930,-2851,-1,-1,-1
87.60,-177.77,-109.74,-350,-7938,-2860,0,0,-1
87.58,-177.77,-109.74,-337,-7926,-2856,0,0,-1
87.59,-177.77,-109.72,-327,-7906,-2833,0,-1,0
87.59,-177.77,-109.72,-324,-7898,-2830,0,-1,0
87.60,-177.76,-109.72,-325,-7909,-2826,-1,-1,0
87.60,-177.76,-109.73,-323,-7925,-2834,-1,0,0
87.60,-177.76,-109.74,-328,-7941,-2858,-1,0,-1
87.60,-177.77,-109.74,-326,-7945,-2857,0,0,-1
87.60,-177.77,-109.73,-322,-7935,-2855,0,-1,0
87.60,-177.77,-109.73,-323,-7906,-2845,0,-1,0
87.60,-177.77,-109.73,-324,-7895,-2832,-1,-1,0
87.62,-177.76,-109.73,-326,-7905,-2843,-1,-1,-1
87.60,-177.77,-109.74,-320,-7927,-2858,0,-1,0
87.60,-177.76,-109.74,-327,-7932,-2858,0,-1,0
87.62,-177.76,-109.73,-330,-7924,-2846,0,-1,0
87.62,-177.76,-109.73,-331,-7911,-2841,0,-1,0
87.62,-177.75,-109.72,-342,-7911,-2839,0,0,0
87.62,-177.75,-109.72,-336,-7910,-2835,-1,0,-1
87.62,-177.76,-109.73,-334,-7922,-2852,-1,0,-1
87.60,-177.76,-109.73,-336,-7927,-2855,-1,0,-1
87.60,-177.76,-109.73,-333,-7932,-2855,0,0,-1
87.62,-177.76,-109.73,-332,-7929,-2844,0,-1,-1
87.60,-177.76,-109.72,-330,-7920,-2843,0,-1,0
87.63,-177.76,-109.71,-323,-7907,-2837,0,-1,0
87.63,-177.76,-109.71,-315,-7903,-2841,0,-1,0
87.62,-177.75,-109.72,-326,-7909,-2837,-1,-1,0
87.64,-177.75,-109.73,-342,-7923,-2842,-1,-1,0
87.63,-177.75,-109.74,-336,-7942,-2853,-1,0,-1
87.63,-177.75,-109.74,-335,-7950,-2875,-1,0,-1
87.61,-177.76,-109.74,-328,-7932,-2861,0,0,0
87.61,-177.76,-109.74,-325,-7908,-2848,0,-1,0
87.64,-177.75,-109.73,-320,-7894,-2839,0,-1,0
87.63,-177.74,-109.72,-327,-7902,-2831,0,-1,0
87.65,-177.74,-109.72,-329,-7930,-2844,-1,-1,0
87.65,-177.74,-109.73,-342,-7949,-2851,-1,-1,0
87.65,-177.74,-109.74,-336,-7951,-2867,0,0,-1
87.65,-177.74,-109.73,-331,-7928,-2856,0,-1,-1
87.66,-177.74,-109.71,-322,-7899,-2837,0,-1,0
87.66,-177.74,-109.71,-320,-7884,-2820,0,-1,0
87.67,-177.73,-109.71,-324,-7894,-2823,-1,-1,0
87.67,-177.73,-109.72,-335,-7923,-2849,-1,-1,0
87.68,-177.72,-109.72,-332,-7943,-2860,-1,-1,-1
87.67,-177.73,-109.72,-330,-7942,-2862,0,-1,0
87.69,-177.73,-109.71,-331,-7921,-2855,0,-1,0
87.69,-177.72,-109.71,-319,-7902,-2836,0,-1,0
87.69,-177.72,-109.71,-321,-7897,-2829,0,-1,0
87.69,-177.72,-109.71,-329,-7905,-2834,-1,-1,0
87.69,-177.72,-109.71,-330,-7925,-2848,0,-1,0
87.69,-177.72,-109.71,-331,-7941,-2858,0,-1,0
87.70,-177.72,-109.69,-330,-7934,-2842,0,0,-1
87.70,-177.72,-109.69,-334,-7922,-2839,-1,-1,0
87.67,-177.72,-109.70,-331,-7906,-2849,-1,0,-1
87.67,-177.72,-109.70,-331,-7909,-2845,0,0,0
87.67,-177.72,-109.70,-339,-7914,-2838,0,-1,0
87.70,-177.72,-109.69,-339,-7920,-2833,0,0,0
87.68,-177.73,-109.69,-334,-7921,-2835,-1,-1,-1
87.70,-177.72,-109.69,-333,-7926,-2847,-1,-1,0
87.70,-177.72,-109.69,-332,-7928,-2851,0,0,-1
87.68,-177.73,-109.69,-336,-7935,-2852,0,0,-1
87.68,-177.73,-109.69,-336,-7930,-2843,0,0,-1
87.68,-177.73,-109.69,-339,-7925,-2840,-1,0,-1
87.67,-177.73,-109.71,-335,-7917,-2846,-1,0,-1
87.68,-177.73,-109.71,-334,-7917,-2856,-1,0,0
87.67,-177.73,-109.72,-333,-7923,-2859,0,-1,0
87.68,-177.73,-109.71,-328,-7923,-2862,0,-1,0
87.67,-177.73,-109.71,-331,-7927,-2860,0,-1,0
87.67,-177.73,-109.71,-337,-7922,-2862,0,-1,-1
87.66,-177.73,-109.70,-332,-7914,-2832,-1,0,0
87.67,-177.73,-109.71,-338,-7920,-2840,-1,0,-1
87.68,-177.73,-109.71,-329,-7919,-2841,-1,0,-1
87.68,-177.74,-109.72,-329,-7919,-2854,-1,0,-1
87.65,-177.74,-109.72,-327,-7914,-2848,0,-1,0
87.68,-177.73,-109.71,-324,-7912,-2832,0,-1,0
87.67,-177.73,-109.71,-325,-7923,-2835,0,-1,0
87.67,-177.73,-109.71,-332,-7920,-2840,-1,-1,-1
87.68,-177.73,-109.71,-330,-7920,-2840,-1,-1,0
87.67,-177.73,-109.72,-329,-7926,-2853,-1,-1,0
87.68,-177.72,-109.72,-327,-7920,-2862,0,-1,0
87.71,-177.72,-109.71,-336,-7912,-2844,0,-1,0
87.71,-177.71,-109.71,-334,-7910,-2830,0,-1,0
87.72,-177.71,-109.71,-341,-7926,-2857,-1,-1,0
87.72,-177.71,-109.71,-343,-7942,-2854,0,-1,-1
87.71,-177.71,-109.71,-327,-7935,-2864,0,-1,0
87.71,-177.72,-109.70,-329,-7926,-2859,0,-1,0
87.72,-177.71,-109.68,-333,-7916,-2837,0,-1,0
87.72,-177.71,-109.68,-331,-7911,-2834,0,-1,0
87.72,-177.71,-109.68,-335,-7911,-2835,-1,-1,0
87.74,-177.71,-109.68,-339,-7922,-2844,-1,0,0
87.74,-177.71,-109.69,-337,-7924,-2847,-1,0,0
87.74,-177.71,-109.69,-336,-7927,-2849,-1,-1,-1
87.73,-177.71,-109.70,-338,-7919,-2851,-1,-1,0
87.73,-177.71,-109.70,-335,-7917,-2847,0,0,0
87.71,-177.71,-109.69,-342,-7920,-2836,-1,0,0
87.73,-177.71,-109.69,-340,-7928,-2841,0,-1,0
87.73,-177.71,-109.69,-349,-7935,-2846,-1,-1,-1
87.73,-177.71,-109.69,-352,-7930,-2827,0,0,-1
87.71,-177.71,-109.69,-343,-7923,-2822,-1,0,-1
87.71,-177.71,-109.69,-334,-7915,-2821,-1,-1,-1
87.71,-177.71,-109.69,-327,-7908,-2836,-1,-1,0
87.73,-177.71,-109.70,-328,-7915,-2846,0,-1,0
87.73,-177.71,-109.70,-335,-7922,-2851,0,-1,0
87.71,-177.71,-109.69,-340,-7935,-2846,0,-1,-1
87.72,-177.72,-109.68,-332,-7930,-2839,0,-1,0
87.72,-177.71,-109.68,-335,-7924,-2834,-1,-1,0
87.74,-177.71,-109.69,-342,-7924,-2845,-1,-1,-1
87.71,-177.71,-109.69,-338,-7933,-2850,-1,0,-1
87.74,-177.72,-109.69,-339,-7937,-2848,0,0,-1
87.72,-177.72,-109.69,-332,-7921,-2849,0,0,-1
87.74,-177.72,-109.69,-333,-7911,-2841,-1,-1,0
87.74,-177.72,-109.69,-333,-7908,-2843,-1,-1,0
87.71,-177.72,-109.70,-333,-7920,-2850,-1,0,0
87.71,-177.72,-109.70,-336,-7941,-2843,0,0,-1
87.71,-177.72,-109.70,-332,-7941,-2858,0,0,-1
87.72,-177.73,-109.69,-332,-7929,-2846,0,-1,-1
87.72,-177.72,-109.69,-331,-7913,-2834,0,-1,0
87.72,-177.73,-109.69,-331,-7898,-2822,-1,0,0
87.74,-177.73,-109.70,-333,-7911,-2837,-1,-1,0
87.72,-177.72,-109.70,-328,-7919,-2847,-1,0,0
87.72,-177.73,-109.71,-340,-7935,-2859,0,-1,0
87.71,-177.72,-109.70,-344,-7940,-2858,0,-1,0
87.71,-177.72,-109.70,-343,-7927,-2842,0,0,-1
87.70,-177.72,-109.70,-334,-7910,-2829,-1,0,-1
87.71,-177.72,-109.70,-330,-7909,-2839,-1,0,0
87.72,-177.73,-109.71,-331,-7919,-2845,-1,0,0
87.69,-177.73,-109.71,-331,-7927,-2856,-1,-1,0
87.71,-177.72,-109.72,-329,-7931,-2853,0,0,0
87.72,-177.73,-109.71,-329,-7923,-2845,0,-1,0
87.72,-177.73,-109.71,-332,-7919,-2834,-1,0,-1
87.72,-177.73,-109.71,-334,-7923,-2839,-1,0,0
87.72,-177.73,-109.71,-328,-7918,-2835,-1,0,-1
87.72,-177.73,-109.71,-328,-7918,-2843,0,0,0
87.72,-177.73,-109.71,-331,-7922,-2844,0,0,0
87.72,-177.73,-109.71,-321,-7916,-2846,0,-1,0
87.72,-177.73,-109.71,-322,-7924,-2848,-1,-1,0
87.72,-177.73,-109.71,-326,-7924,-2849,0,0,-1
87.72,-177.73,-109.71,-329,-7925,-2841,-1,0,-1
87.70,-177.74,-109.71,-328,-7921,-2839,-1,0,-1
87.72,-177.74,-109.72,-330,-7918,-2841,-1,0,0
87.72,-177.74,-109.72,-332,-7915,-2833,-1,0,-1
87.72,-177.74,-109.72,-335,-7923,-2844,-1,0,0
87.72,-177.74,-109.72,-330,-7916,-2840,0,-1,0
87.72,-177.73,-109.71,-332,-7921,-2837,0,-1,0
87.72,-177.73,-109.71,-340,-7936,-2850,0,-1,0
87.72,-177.73,-109.71,-342,-7933,-2852,0,0,-1
87.72,-177.73,-109.70,-335,-7928,-2859,0,0,-1
87.71,-177.74,-109.70,-331,-7911,-2843,0,-1,0
87.73,-177.73,-109.69,-324,-7900,-2820,-1,-1,0
87.72,-177.73,-109.69,-330,-7910,-2820,-1,-1,0
87.74,-177.73,-109.70,-336,-7931,-2838,-1,0,-1
87.72,-177.73,-109.71,-337,-7938,-2856,-1,0,-1
87.72,-177.73,-109.71,-338,-7937,-2855,0,0,0
87.70,-177.74,-109.71,-330,-7918,-2856,0,-1,0
87.72,-177.73,-109.70,-325,-7904,-2835,0,-1,0
87.72,-177.73,-109.69,-335,-7912,-2833,0,-1,0
87.72,-177.72,-109.68,-340,-7912,-2825,-1,-1,0
87.73,-177.71,-109.70,-344,-7935,-2850,-1,-1,-1
87.73,-177.72,-109.70,-347,-7944,-2857,-1,0,-1
87.72,-177.73,-109.71,-340,-7936,-2854,0,0,-1
87.72,-177.73,-109.70,-328,-7910,-2845,0,0,-1
87.72,-177.73,-109.69,-321,-7897,-2832,0,-1,0
87.72,-177.72,-109.69,-335,-7900,-2827,0,-1,0
87.70,-177.72,-109.69,-345,-7910,-2828,-1,-1,0
87.71,-177.72,-109.70,-344,-7926,-2842,-1,0,0
87.71,-177.72,-109.70,-346,-7936,-2852,0,0,-1
87.71,-177.72,-109.70,-340,-7941,-2861,-1,0,-1
87.72,-177.72,-109.70,-336,-7919,-2851,0,0,-1
87.70,-177.73,-109.70,-338,-7907,-2839,0,0,-1
87.70,-177.73,-109.70,-333,-7905,-2841,-1,-1,0
87.70,-177.73,-109.70,-330,-7917,-2841,-1,-1,0
87.72,-177.73,-109.71,-332,-7931,-2845,-1,0,0
87.69,-177.73,-109.71,-339,-7938,-2851,-1,0,-1
87.69,-177.73,-109.71,-333,-7931,-2854,0,0,-1
87.72,-177.73,-109.71,-333,-7922,-2847,-1,-1,-1
87.72,-177.74,-109.72,-333,-7915,-2834,-1,0,-1
87.69,-177.74,-109.72,-330,-7908,-2836,-1,0,-1
87.71,-177.74,-109.73,-328,-7905,-2854,-1,-1,0
87.71,-177.74,-109.74,-334,-7914,-2857,0,0,0
87.71,-177.74,-109.73,-334,-7922,-2863,0,-1,0
87.69,-177.74,-109.72,-322,-7926,-2849,0,-1,0
87.69,-177.74,-109.72,-328,-7933,-2843,-1,-1,0
87.69,-177.74,-109.72,-332,-7920,-2831,-1,0,-1
87.69,-177.74,-109.72,-332,-7915,-2830,-1,0,-1
87.69,-177.74,-109.73,-326,-7911,-2833,-1,0,0
87.67,-177.74,-109.73,-326,-7911,-2839,0,0,-1
87.67,-177.74,-109.73,-325,-7916,-2842,-1,0,0
87.69,-177.74,-109.74,-333,-7919,-2856,0,-1,0
87.69,-177.74,-109.74,-332,-7917,-2852,0,0,-1
87.67,-177.75,-109.74,-326,-7915,-2848,0,0,-1
87.67,-177.74,-109.74,-328,-7908,-2840,0,0,-1
87.67,-177.74,-109.74,-330,-7917,-2837,-1,0,0
87.67,-177.75,-109.74,-328,-7916,-2840,-1,0,0
87.67,-177.75,-109.74,-325,-7919,-2849,-1,-1,-1
87.66,-177.74,-109.75,-336,-7917,-2849,0,0,0
87.65,-177.75,-109.75,-335,-7914,-2848,0,0,0
87.65,-177.75,-109.75,-334,-7912,-2846,0,-1,-1
87.67,-177.75,-109.74,-327,-7912,-2843,0,0,-1
87.65,-177.75,-109.74,-328,-7915,-2839,-1,0,-1
87.65,-177.76,-109.74,-331,-7916,-2841,-1,0,-1
87.65,-177.76,-109.74,-325,-7919,-2848,0,-1,0
87.65,-177.75,-109.74,-328,-7926,-2850,0,0,0
87.64,-177.76,-109.73,-330,-7929,-2839,0,-1,0
87.64,-177.76,-109.73,-334,-7922,-2841,-1,-1,0
87.65,-177.75,-109.74,-329,-7925,-2845,-1,0,-1
87.64,-177.76,-109.73,-325,-7920,-2839,-1,0,-1
87.63,-177.76,-109.75,-327,-7928,-2844,-1,0,-1
87.63,-177.76,-109.75,-332,-7924,-2860,-1,-1,-1
87.63,-177.76,-109.75,-325,-7921,-2858,0,-1,0
87.65,-177.76,-109.76,-327,-7908,-2857,-1,-1,0
87.62,-177.76,-109.76,-329,-7913,-2860,-1,-1,0
87.62,-177.76,-109.76,-324,-7915,-2864,-1,-1,0
87.62,-177.76,-109.76,-323,-7922,-2856,0,-1,0
87.62,-177.76,-109.76,-327,-7937,-2855,-1,0,0
87.62,-177.76,-109.76,-320,-7925,-2843,-1,0,-1
87.62,-177.77,-109.77,-324,-7922,-2844,-1,0,-1
87.62,-177.77,-109.77,-321,-7922,-2836,-1,-1,-1
87.63,-177.77,-109.77,-324,-7919,-2838,0,-1,-1
87.63,-177.77,-109.77,-319,-7918,-2841,0,0,-1
87.65,-177.77,-109.76,-317,-7913,-2845,0,-1,0
87.62,-177.77,-109.77,-328,-7917,-2848,-1,-1,0
87.64,-177.76,-109.77,-332,-7927,-2854,-1,-1,-1
87.64,-177.76,-109.77,-330,-7931,-2853,0,-1,-1
87.64,-177.76,-109.77,-328,-7929,-2861,0,-1,-1
87.65,-177.77,-109.77,-322,-7919,-2854,0,-1,0
87.65,-177.77,-109.77,-318,-7905,-2849,0,-1,0
87.62,-177.76,-109.76,-324,-7905,-2846,-1,-1,0
87.64,-177.76,-109.77,-329,-7919,-2842,-1,-1,0
87.64,-177.76,-109.77,-328,-7933,-2844,-1,-1,-1
87.64,-177.76,-109.77,-328,-7934,-2858,0,-1,-1
87.63,-177.77,-109.77,-328,-7930,-2855,0,0,-1
87.64,-177.76,-109.77,-328,-7909,-2846,-1,-1,0
87.64,-177.76,-109.77,-331,-7910,-2844,-1,-1,0
87.64,-177.76,-109.77,-327,-7914,-2841,-1,-1,-1
87.67,-177.77,-109.77,-318,-7921,-2844,0,-1,0
87.67,-177.77,-109.77,-321,-7925,-2844,0,-1,0
87.65,-177.77,-109.76,-324,-7923,-2853,0,0,0
87.65,-177.77,-109.76,-324,-7919,-2862,0,-1,0
87.65,-177.77,-109.76,-322,-7923,-2853,-1,-1,0
87.67,-177.76,-109.76,-319,-7909,-2843,-1,-1,0
87.67,-177.76,-109.77,-327,-7919,-2857,-1,-1,0
87.64,-177.76,-109.77,-324,-7913,-2861,0,0,0
87.67,-177.76,-109.77,-322,-7907,-2854,0,-1,0
87.65,-177.76,-109.76,-321,-7915,-2843,0,-1,0
87.65,-177.76,-109.76,-323,-7914,-2837,0,-1,0
87.65,-177.76,-109.76,-327,-7912,-2836,-1,0,-1
87.64,-177.76,-109.77,-325,-7911,-2851,-1,0,-1
87.64,-177.76,-109.77,-322,-7911,-2853,0,0,0
87.64,-177.76,-109.77,-326,-7919,-2860,0,-1,0
87.62,-177.76,-109.76,-326,-7919,-2852,0,-1,0
87.65,-177.76,-109.76,-328,-7919,-2843,0,-1,0
87.65,-177.76,-109.76,-338,-7915,-2843,-1,-1,-1
87.64,-177.76,-109.77,-346,-7915,-2850,-1,0,-1
87.64,-177.76,-109.77,-328,-7915,-2860,-1,0,-1
87.64,-177.76,-109.77,-322,-7914,-2865,0,0,-1
87.64,-177.76,-109.77,-318,-7920,-2869,0,-1,0
87.65,-177.77,-109.76,-317,-7917,-2855,0,-1,0
87.65,-177.76,-109.76,-327,-7915,-2855,0,-1,0
87.65,-177.76,-109.76,-330,-7918,-2849,0,-1,0
87.67,-177.76,-109.76,-327,-7918,-2856,0,-1,-1
87.65,-177.76,-109.76,-325,-7925,-2860,0,-1,-1
87.65,-177.76,-109.76,-328,-7922,-2856,0,-1,0
87.65,-177.76,-109.76,-331,-7917,-2852,-1,0,0
87.64,-177.76,-109.77,-322,-7906,-2847,-1,-1,0
87.64,-177.76,-109.77,-327,-7907,-2851,0,-1,-1
87.64,-177.76,-109.77,-320,-7921,-2855,0,-1,-1
87.67,-177.76,-109.77,-323,-7922,-2859,0,-1,0
87.64,-177.76,-109.77,-332,-7916,-2856,-1,-1,0
87.66,-177.76,-109.77,-332,-7916,-2854,-1,-1,0
87.66,-177.75,-109.77,-335,-7908,-2852,0,0,0
87.66,-177.76,-109.77,-336,-7907,-2850,-1,0,-1
87.66,-177.76,-109.77,-329,-7911,-2853,-1,-1,-1
87.66,-177.76,-109.77,-327,-7913,-2858,0,-1,0
87.66,-177.76,-109.77,-330,-7913,-2855,0,-1,0
87.66,-177.75,-109.77,-333,-7914,-2852,0,-1,0
87.68,-177.75,-109.76,-328,-7916,-2851,0,-1,0
87.66,-177.75,-109.77,-326,-7913,-2855,-1,0,0
87.66,-177.76,-109.77,-324,-7912,-2856,-1,-1,0
87.66,-177.76,-109.77,-330,-7913,-2857,-1,-1,0
87.66,-177.76,-109.77,-338,-7915,-2863,0,-1,0
87.68,-177.75,-109.78,-338,-7918,-2867,0,-1,0
87.68,-177.75,-109.78,-333,-7915,-2870,0,-1,0
87.67,-177.75,-109.77,-328,-7913,-2865,0,-1,0
87.67,-177.75,-109.77,-327,-7903,-2862,-1,-1,0
87.65,-177.75,-109.78,-326,-7907,-2850,-1,-1,0
87.65,-177.75,-109.78,-329,-7913,-2849,-1,0,0
87.67,-177.75,-109.79,-329,-7917,-2861,0,0,-1
87.65,-177.75,-109.78,-326,-7919,-2865,0,-1,-1
87.68,-177.75,-109.78,-325,-7919,-2858,0,-1,0
87.67,-177.75,-109.77,-331,-7914,-2848,0,-1,0
87.67,-177.75,-109.77,-333,-7915,-2850,0,-1,0
87.69,-177.74,-109.78,-334,-7911,-2852,-1,-1,0
87.67,-177.74,-109.78,-337,-7916,-2851,-1,-1,-1
87.69,-177.74,-109.78,-338,-7920,-2848,-1,-1,-1
87.69,-177.74,-109.78,-332,-7914,-2851,0,-1,-1
87.69,-177.74,-109.78,-323,-7912,-2854,0,-1,0
87.67,-177.74,-109.78,-325,-7909,-2858,0,-1,0
87.69,-177.74,-109.77,-327,-7909,-2849,0,-1,0
87.69,-177.74,-109.77,-335,-7918,-2847,0,-1,0
87.69,-177.74,-109.77,-338,-7919,-2851,0,-1,0
87.69,-177.74,-109.77,-338,-7916,-2854,-1,-1,0
87.69,-177.74,-109.77,-341,-7913,-2845,-1,-1,-1
87.71,-177.74,-109.78,-340,-7918,-2856,-1,0,-1
87.69,-177.74,-109.77,-331,-7913,-2850,-1,0,0
87.68,-177.73,-109.78,-334,-7919,-2853,-1,-1,0
87.68,-177.73,-109.78,-334,-7918,-2850,-1,-1,0
87.68,-177.73,-109.78,-342,-7924,-2856,0,-1,0
87.68,-177.73,-109.77,-348,-7925,-2855,0,-1,0
87.67,-177.72,-109.76,-349,-7921,-2844,0,-1,0
87.69,-177.72,-109.75,-344,-7926,-2835,0,-1,0
87.67,-177.72,-109.76,-340,-7924,-2845,-1,-1,0
87.68,-177.72,-109.77,-330,-7911,-2849,-1,-1,-1
87.68,-177.72,-109.77,-337,-7915,-2856,-1,0,0
87.68,-177.72,-109.77,-334,-7915,-2854,0,-1,0
87.71,-177.72,-109.76,-323,-7903,-2850,0,-1,0
87.71,-177.72,-109.76,-331,-7907,-2851,0,-1,0
87.72,-177.71,-109.76,-341,-7926,-2857,0,-1,0
87.72,-177.70,-109.75,-348,-7928,-2858,0,-1,0
87.71,-177.71,-109.75,-345,-7919,-2847,0,-1,-1
87.73,-177.71,-109.74,-333,-7917,-2849,0,-1,0
87.73,-177.71,-109.74,-333,-7908,-2848,0,-1,0
87.73,-177.70,-109.74,-344,-7905,-2845,0,-1,0
87.73,-177.70,-109.74,-346,-7905,-2834,0,-1,0
87.74,-177.69,-109.74,-352,-7911,-2837,-1,-1,0
87.72,-177.69,-109.74,-350,-7922,-2845,-1,0,-1
87.74,-177.69,-109.74,-340,-7934,-2868,0,-1,-1
87.75,-177.69,-109.72,-331,-7929,-2854,0,-1,0
87.76,-177.69,-109.71,-327,-7923,-2842,0,-1,0
87.74,-177.69,-109.70,-334,-7905,-2801,-1,-1,0
87.75,-177.68,-109.71,-341,-7907,-2808,-1,-1,0
87.76,-177.68,-109.73,-348,-7911,-2835,-1,-1,0
87.74,-177.68,-109.74,-338,-7915,-2851,-1,0,-1
87.76,-177.68,-109.74,-332,-7930,-2867,0,-1,-1
87.73,-177.68,-109.72,-327,-7942,-2863,0,-1,0
87.75,-177.67,-109.70,-333,-7923,-2834,0,-1,0
87.76,-177.67,-109.69,-333,-7912,-2828,0,-1,0
87.75,-177.66,-109.69,-344,-7906,-2822,-1,-1,0
87.75,-177.67,-109.70,-347,-7907,-2825,-1,0,-1
87.73,-177.68,-109.71,-338,-7927,-2846,-1,0,-1
87.73,-177.69,-109.71,-328,-7923,-2842,0,0,0
87.73,-177.68,-109.71,-328,-7908,-2825,-1,-1,0
87.73,-177.67,-109.71,-338,-7905,-2831,-1,-1,0
87.73,-177.68,-109.72,-335,-7910,-2836,-1,0,-1
87.71,-177.69,-109.72,-332,-7922,-2858,-1,0,-1
87.71,-177.68,-109.71,-337,-7932,-2862,0,-1,0
87.72,-177.68,-109.70,-341,-7925,-2843,0,-1,0
87.70,-177.68,-109.69,-335,-7918,-2818,0,-1,0
87.71,-177.68,-109.69,-343,-7919,-2820,-1,-1,0
87.71,-177.68,-109.71,-350,-7924,-2826,-1,0,-1
87.70,-177.69,-109.73,-351,-7930,-2842,-1,0,-1
87.70,-177.70,-109.74,-336,-7935,-2861,-1,0,-1
87.69,-177.70,-109.74,-327,-7917,-2859,0,0,-1
87.69,-177.70,-109.74,-325,-7913,-2864,0,-1,0
87.69,-177.70,-109.73,-326,-7914,-2844,0,-1,0
87.69,-177.69,-109.73,-338,-7926,-2853,0,0,-1
87.69,-177.69,-109.73,-344,-7927,-2842,0,0,-1
87.67,-177.70,-109.73,-342,-7917,-2836,-1,0,-1
87.65,-177.71,-109.73,-329,-7912,-2823,-1,0,-1
87.65,-177.71,-109.73,-332,-7902,-2823,-1,-1,0
87.67,-177.70,-109.73,-332,-7907,-2832,-1,-1,0
87.67,-177.71,-109.73,-331,-7920,-2842,-1,0,-1
87.67,-177.71,-109.73,-328,-7928,-2844,0,-1,0
87.65,-177.71,-109.73,-327,-7933,-2840,0,-1,-1
87.65,-177.71,-109.73,-332,-7928,-2843,0,-1,0
87.68,-177.71,-109.72,-330,-7913,-2838,-1,-1,0
87.65,-177.71,-109.73,-333,-7911,-2846,-1,-1,-1
87.65,-177.71,-109.73,-330,-7915,-2854,-1,-1,0
87.65,-177.71,-109.73,-329,-7922,-2852,0,-1,-1
87.65,-177.71,-109.73,-331,-7918,-2855,0,0,0
87.65,-177.71,-109.73,-332,-7922,-2845,-1,-1,0
87.65,-177.71,-109.73,-337,-7924,-2848,0,0,0
87.65,-177.71,-109.73,-337,-7920,-2845,-1,0,-1
87.65,-177.72,-109.74,-338,-7920,-2845,-1,0,-1
87.65,-177.72,-109.74,-337,-7926,-2848,0,0,-1
87.65,-177.72,-109.74,-339,-7924,-2853,0,-1,0
87.65,-177.72,-109.74,-336,-7924,-2855,0,-1,0
87.65,-177.71,-109.73,-333,-7922,-2852,0,-1,0
87.65,-177.71,-109.73,-331,-7923,-2851,0,-1,-1
87.65,-177.71,-109.73,-334,-7915,-2847,-1,-1,-1
87.65,-177.72,-109.74,-336,-7915,-2843,-1,-1,0
87.65,-177.72,-109.74,-328,-7908,-2839,-1,-1,0
87.67,-177.72,-109.74,-338,-7913,-2851,-1,-1,0
87.65,-177.71,-109.75,-337,-7924,-2853,-1,-1,0
87.65,-177.71,-109.75,-333,-7933,-2852,0,-1,0
87.67,-177.71,-109.74,-340,-7936,-2854,0,-1,0
87.67,-177.71,-109.74,-334,-7925,-2858,0,-1,0
87.65,-177.71,-109.73,-342,-7917,-2854,0,0,0
87.65,-177.71,-109.73,-332,-7908,-2836,-1,-1,0
87.65,-177.71,-109.74,-339,-7910,-2853,-1,0,0
87.65,-177.71,-109.74,-334,-7910,-2861,-1,-1,0
87.66,-177.71,-109.75,-333,-7916,-2855,-1,-1,0
87.64,-177.71,-109.75,-347,-7930,-2868,0,0,-1
87.64,-177.71,-109.76,-344,-7927,-2860,0,0,-1
87.65,-177.71,-109.75,-339,-7923,-2864,0,0,-1
87.63,-177.71,-109.74,-334,-7899,-2842,0,-1,0
87.63,-177.71,-109.74,-329,-7902,-2829,-1,-1,0
87.65,-177.71,-109.74,-335,-7910,-2829,-1,-1,0
87.64,-177.71,-109.75,-346,-7932,-2847,-1,0,-1
87.63,-177.71,-109.77,-342,-7938,-2872,-1,0,-1
87.62,-177.72,-109.78,-330,-7932,-2886,0,0,-1
87.62,-177.72,-109.76,-326,-7905,-2873,0,0,0
87.61,-177.72,-109.75,-327,-7896,-2834,0,-1,0
87.61,-177.71,-109.74,-339,-7916,-2827,-1,-1,0
87.62,-177.71,-109.75,-350,-7934,-2845,-1,0,-1
87.60,-177.72,-109.77,-337,-7937,-2856,-1,0,-1
87.58,-177.73,-109.77,-325,-7923,-2867,0,0,-1
87.59,-177.74,-109.76,-314,-7903,-2846,0,0,0
87.57,-177.74,-109.76,-320,-7893,-2834,0,-1,0
87.59,-177.73,-109.76,-328,-7906,-2833,-1,-1,0
87.59,-177.74,-109.76,-342,-7920,-2845,-1,0,-1
87.59,-177.74,-109.78,-342,-7924,-2863,-1,0,-1
87.57,-177.75,-109.78,-332,-7922,-2863,-1,0,-1
87.57,-177.75,-109.78,-327,-7914,-2856,0,0,0
87.57,-177.75,-109.78,-321,-7909,-2840,-1,-1,0
87.57,-177.74,-109.77,-329,-7915,-2847,0,0,0
87.54,-177.75,-109.78,-329,-7919,-2841,-1,0,0
87.55,-177.75,-109.78,-332,-7924,-2860,-1,0,-1
87.55,-177.75,-109.79,-330,-7923,-2856,0,0,-1
87.55,-177.76,-109.79,-326,-7923,-2862,0,0,-1
87.53,-177.76,-109.79,-326,-7917,-2857,0,0,-1
87.53,-177.76,-109.79,-324,-7916,-2844,-1,0,0
87.51,-177.76,-109.79,-334,-7913,-2849,-1,0,-1
87.52,-177.76,-109.80,-337,-7911,-2857,-1,0,-1
87.52,-177.76,-109.80,-330,-7912,-2874,-1,0,-1
87.50,-177.77,-109.81,-322,-7923,-2879,0,-1,-1
87.52,-177.77,-109.81,-326,-7932,-2874,0,-1,0
87.52,-177.76,-109.80,-320,-7919,-2861,0,-1,0
87.52,-177.76,-109.80,-321,-7917,-2850,-1,-1,0
87.52,-177.76,-109.80,-325,-7916,-2851,-1,0,-1
87.52,-177.76,-109.82,-324,-7915,-2859,-1,-1,0
87.52,-177.77,-109.82,-324,-7920,-2862,-1,0,-1
87.52,-177.77,-109.82,-323,-7928,-2871,0,-1,0
87.52,-177.76,-109.82,-319,-7926,-2865,0,-1,0
87.52,-177.76,-109.82,-329,-7915,-2859,0,-1,0
87.52,-177.76,-109.81,-330,-7909,-2850,-1,0,0
87.52,-177.76,-109.82,-334,-7907,-2846,-1,-1,0
87.53,-177.76,-109.82,-336,-7915,-2859,-1,-1,0
87.51,-177.76,-109.82,-334,-7930,-2864,0,0,0
87.53,-177.76,-109.82,-326,-7927,-2861,0,-1,0
87.53,-177.76,-109.82,-323,-7923,-2856,0,-1,-1
87.53,-177.76,-109.82,-326,-7910,-2860,-1,0,0
87.53,-177.76,-109.82,-323,-7909,-2856,-1,-1,0
87.53,-177.75,-109.83,-332,-7917,-2861,-1,-1,0
87.53,-177.75,-109.83,-322,-7917,-2867,-1,-1,0
87.53,-177.76,-109.83,-331,-7921,-2870,0,-1,0
87.53,-177.75,-109.83,-332,-7919,-2872,0,-1,0
87.53,-177.75,-109.83,-331,-7915,-2861,0,-1,0
87.53,-177.75,-109.82,-333,-7915,-2864,0,-1,0
87.53,-177.75,-109.82,-326,-7913,-2862,0,-1,0
87.55,-177.75,-109.82,-329,-7923,-2851,0,-1,-1
87.53,-177.75,-109.82,-333,-7915,-2859,-1,-1,-1
87.53,-177.75,-109.82,-332,-7919,-2860,-1,0,0
87.53,-177.75,-109.83,-330,-7924,-2874,0,-1,-1
87.55,-177.76,-109.83,-325,-7916,-2869,0,-1,0
87.55,-177.76,-109.83,-324,-7913,-2863,-1,-1,0
87.55,-177.76,-109.83,-323,-7915,-2858,-1,-1,0
87.54,-177.75,-109.84,-332,-7911,-2862,0,-1,0
87.54,-177.75,-109.83,-336,-7919,-2861,0,-1,0
87.55,-177.75,-109.82,-331,-7923,-2864,0,-1,-1
87.55,-177.75,-109.82,-325,-7918,-2858,-1,-1,0
87.55,-177.76,-109.82,-324,-7922,-2854,-1,-1,0
87.54,-177.75,-109.83,-331,-7918,-2853,-1,-1,0
87.54,-177.75,-109.84,-329,-7909,-2854,0,-1,-1
87.54,-177.75,-109.83,-336,-7916,-2864,0,0,-1
87.55,-177.75,-109.82,-329,-7921,-2872,0,-1,-1
87.55,-177.75,-109.82,-329,-7913,-2859,0,-1,0
87.55,-177.75,-109.82,-323,-7906,-2857,-1,0,0
87.54,-177.75,-109.83,-335,-7902,-2855,-1,0,-1
87.54,-177.75,-109.84,-327,-7908,-2863,-1,0,-1
87.54,-177.76,-109.84,-324,-7923,-2880,0,-1,0
87.54,-177.75,-109.84,-321,-7923,-2874,0,-1,-1
87.55,-177.75,-109.82,-327,-7912,-2860,0,-1,0
87.55,-177.75,-109.82,-330,-7904,-2855,0,-1,0
87.55,-177.74,-109.81,-329,-7902,-2843,0,-1,0
87.55,-177.74,-109.81,-327,-7901,-2844,-1,-1,-1
87.57,-177.74,-109.82,-331,-7906,-2859,-1,-1,0
87.57,-177.74,-109.82,-325,-7914,-2869,0,0,-1
87.57,-177.74,-109.82,-322,-7916,-2866,0,-1,0
87.55,-177.75,-109.82,-320,-7908,-2856,0,-1,0
87.55,-177.75,-109.82,-328,-7903,-2854,0,-1,0
87.55,-177.75,-109.82,-331,-7905,-2859,-1,-1,0
87.57,-177.74,-109.82,-341,-7917,-2860,-1,-1,-1
87.55,-177.75,-109.82,-337,-7924,-2868,0,-1,-1
87.57,-177.75,-109.81,-329,-7920,-2860,0,-1,0
87.57,-177.75,-109.81,-325,-7912,-2850,0,-1,0
87.57,-177.75,-109.81,-329,-7915,-2850,-1,0,0
87.57,-177.75,-109.81,-327,-7921,-2864,-1,0,0
87.57,-177.75,-109.81,-323,-7916,-2869,0,-1,0
87.57,-177.74,-109.81,-319,-7922,-2858,0,-1,0
87.56,-177.74,-109.80,-321,-7917,-2849,0,-1,0
87.55,-177.74,-109.79,-327,-7919,-2840,-1,-1,0
87.57,-177.74,-109.80,-332,-7920,-2847,-1,-1,0
87.57,-177.74,-109.80,-339,-7918,-2859,-1,0,-1
87.57,-177.74,-109.81,-331,-7913,-2858,0,0,-1
87.57,-177.75,-109.81,-323,-7911,-2862,0,-1,0
87.57,-177.74,-109.80,-326,-7907,-2853,0,-1,0
87.57,-177.74,-109.80,-328,-7914,-2852,0,-1,0
87.57,-177.74,-109.80,-338,-7919,-2854,-1,-1,0
87.57,-177.74,-109.80,-337,-7923,-2857,-1,0,-1
87.57,-177.74,-109.80,-335,-7922,-2866,0,0,-1
87.56,-177.74,-109.80,-329,-7924,-2855,0,-1,0
87.58,-177.74,-109.79,-330,-7917,-2857,0,-1,0
87.55,-177.74,-109.79,-334,-7923,-2853,0,-1,0
87.58,-177.74,-109.79,-331,-7919,-2846,0,0,-1
87.58,-177.74,-109.79,-328,-7919,-2851,0,-1,0
87.58,-177.74,-109.79,-324,-7921,-2859,0,-1,0
87.58,-177.74,-109.79,-328,-7913,-2859,-1,-1,0
87.60,-177.74,-109.79,-332,-7916,-2861,-1,-1,0
87.60,-177.74,-109.79,-335,-7917,-2864,0,-1,-1
87.60,-177.74,-109.80,-328,-7916,-2860,0,-1,-1
87.60,-177.74,-109.80,-322,-7917,-2861,0,-1,0
87.60,-177.74,-109.80,-329,-7922,-2856,0,0,0
87.58,-177.74,-109.79,-337,-7916,-2849,-1,0,0
87.57,-177.73,-109.79,-335,-7919,-2859,-1,-1,0
87.57,-177.73,-109.79,-338,-7920,-2859,0,0,-1
87.57,-177.73,-109.79,-335,-7927,-2863,-1,-1,0
87.57,-177.73,-109.79,-335,-7922,-2855,0,-1,0
87.57,-177.73,-109.79,-333,-7920,-2857,0,-1,0
87.57,-177.73,-109.79,-328,-7916,-2849,0,-1,0
87.59,-177.73,-109.78,-330,-7918,-2841,0,-1,0
87.59,-177.73,-109.78,-343,-7915,-2837,-1,-1,0
87.59,-177.72,-109.78,-340,-7921,-2840,0,0,-1
87.58,-177.73,-109.78,-332,-7920,-2843,0,-1,0
87.58,-177.72,-109.77,-331,-7911,-2839,0,-1,0
87.58,-177.71,-109.76,-336,-7913,-2835,0,-1,0
87.60,-177.72,-109.76,-336,-7923,-2837,0,-1,0
87.60,-177.71,-109.76,-337,-7917,-2842,0,-1,-1
87.60,-177.71,-109.76,-337,-7917,-2842,-1,-1,0
87.59,-177.71,-109.77,-333,-7915,-2845,-1,-1,0
87.59,-177.71,-109.77,-333,-7914,-2851,-1,-1,0
87.61,-177.71,-109.77,-346,-7920,-2864,-1,0,-1
87.61,-177.71,-109.77,-347,-7930,-2871,0,0,-1
87.59,-177.71,-109.77,-338,-7921,-2869,0,-1,-1
87.60,-177.71,-109.75,-329,-7908,-2847,0,-1,0
87.60,-177.71,-109.75,-329,-7896,-2847,0,-1,0
87.60,-177.70,-109.75,-333,-7905,-2836,-1,-1,0
87.60,-177.70,-109.74,-335,-7930,-2843,0,0,0
87.60,-177.70,-109.74,-338,-7931,-2840,-1,0,0
87.62,-177.70,-109.75,-343,-7929,-2834,-1,-1,-1
87.62,-177.70,-109.75,-338,-7917,-2855,-1,-1,-1
87.62,-177.71,-109.76,-333,-7909,-2848,0,-1,-1
87.62,-177.70,-109.75,-331,-7905,-2846,0,-1,0
87.62,-177.70,-109.75,-332,-7917,-2853,0,-1,0
87.62,-177.70,-109.75,-338,-7922,-2853,0,-1,0
87.61,-177.69,-109.75,-340,-7924,-2848,-1,-1,-1
87.62,-177.70,-109.75,-345,-7914,-2849,-1,0,-1
87.62,-177.70,-109.75,-346,-7908,-2841,-1,0,-1
87.60,-177.71,-109.75,-342,-7905,-2844,0,0,-1
87.60,-177.71,-109.75,-338,-7917,-2849,0,0,0
87.60,-177.71,-109.75,-341,-7919,-2850,0,-1,0
87.62,-177.70,-109.75,-341,-7922,-2856,0,-1,-1
87.60,-177.71,-109.75,-336,-7916,-2849,0,0,-1
87.60,-177.71,-109.75,-332,-7913,-2842,0,0,-1
87.60,-177.71,-109.75,-337,-7915,-2845,0,0,-1
87.60,-177.71,-109.75,-333,-7912,-2846,0,-1,-1
87.60,-177.71,-109.75,-333,-7907,-2843,-1,-1,0
87.60,-177.71,-109.75,-336,-7910,-2842,0,-1,0
87.60,-177.71,-109.75,-338,-7915,-2849,0,-1,0
87.59,-177.70,-109.76,-343,-7925,-2845,-1,0,-1
87.59,-177.70,-109.76,-347,-7940,-2863,-1,0,-1
87.59,-177.71,-109.77,-344,-7940,-2873,0,0,-1
87.59,-177.71,-109.77,-338,-7919,-2873,0,0,-1
87.58,-177.71,-109.76,-332,-7906,-2864,0,0,0
87.58,-177.71,-109.75,-318,-7897,-2838,0,-1,0
87.57,-177.70,-109.75,-327,-7910,-2844,-1,0,0
87.58,-177.71,-109.76,-328,-7918,-2844,-1,0,0
87.57,-177.71,-109.77,-334,-7931,-2847,-1,0,-1
87.57,-177.72,-109.78,-340,-7928,-2854,-1,0,-1
87.57,-177.72,-109.79,-331,-7920,-2858,-1,0,-1
87.57,-177.72,-109.79,-330,-7904,-2848,0,-1,0
87.57,-177.72,-109.79,-327,-7901,-2855,0,-1,0
87.57,-177.72,-109.78,-327,-7904,-2855,0,-1,0
87.57,-177.72,-109.78,-342,-7911,-2852,0,-1,0
87.57,-177.72,-109.78,-337,-7919,-2865,-1,-1,-1
87.57,-177.72,-109.78,-341,-7925,-2869,-1,0,-1
87.59,-177.72,-109.79,-346,-7925,-2865,-1,0,-1
87.56,-177.72,-109.79,-335,-7913,-2865,-1,0,-1
87.56,-177.72,-109.80,-328,-7905,-2857,0,-1,0
87.56,-177.72,-109.80,-334,-7900,-2850,-1,0,0
87.56,-177.72,-109.80,-334,-7908,-2848,-1,-1,0
87.56,-177.72,-109.80,-335,-7919,-2851,-1,0,-1
87.56,-177.72,-109.80,-333,-7926,-2851,-1,0,-1
87.55,-177.73,-109.80,-328,-7921,-2859,-1,0,0
87.55,-177.73,-109.80,-326,-7917,-2858,0,0,0
87.55,-177.73,-109.80,-327,-7909,-2851,0,-1,0
87.55,-177.73,-109.80,-327,-7902,-2845,-1,-1,0
87.55,-177.73,-109.80,-333,-7910,-2845,-1,-1,0
87.55,-177.73,-109.80,-332,-7919,-2857,-1,-1,-1
87.55,-177.73,-109.80,-327,-7920,-2861,-1,-1,-1
87.55,-177.73,-109.80,-320,-7925,-2845,0,0,-1
87.53,-177.74,-109.80,-327,-7916,-2840,-1,0,0
87.53,-177.74,-109.80,-324,-7910,-2852,-1,0,-1
87.53,-177.74,-109.80,-330,-7914,-2849,0,0,0
87.53,-177.74,-109.80,-331,-7912,-2849,0,-1,0
87.53,-177.74,-109.80,-339,-7917,-2855,-1,0,0
87.53,-177.74,-109.80,-337,-7925,-2863,0,0,0
87.53,-177.74,-109.80,-342,-7922,-2867,0,0,-1
87.51,-177.74,-109.79,-332,-7914,-2854,0,-1,-1
87.53,-177.74,-109.80,-329,-7907,-2855,-1,0,0
87.53,-177.74,-109.80,-334,-7908,-2855,-1,-1,0
87.53,-177.74,-109.80,-336,-7916,-2860,-1,-1,-1
87.52,-177.74,-109.81,-331,-7929,-2866,-1,-1,0
87.55,-177.73,-109.80,-333,-7932,-2871,0,-1,0
87.55,-177.73,-109.80,-333,-7927,-2870,0,-1,0
87.55,-177.73,-109.80,-327,-7907,-2856,0,-1,0
87.55,-177.73,-109.80,-332,-7905,-2851,-1,0,-1
87.54,-177.72,-109.81,-336,-7913,-2857,-1,0,-1
87.54,-177.73,-109.81,-335,-7915,-2861,-1,0,-1
87.54,-177.73,-109.82,-326,-7912,-2871,0,0,-1
87.52,-177.74,-109.81,-326,-7922,-2880,0,0,-1
87.53,-177.74,-109.80,-326,-7913,-2864,0,-1,-1
87.53,-177.74,-109.80,-325,-7907,-2843,-1,0,0
87.53,-177.74,-109.80,-329,-7905,-2842,-1,-1,0
87.52,-177.74,-109.81,-345,-7914,-2848,-1,-1,-1
87.53,-177.74,-109.82,-339,-7917,-2853,-1,0,-1
87.51,-177.75,-109.82,-332,-7926,-2863,0,0,-1
87.52,-177.75,-109.81,-329,-7925,-2858,0,-1,0
87.52,-177.75,-109.80,-327,-7909,-2845,-1,0,0
87.52,-177.75,-109.80,-333,-7909,-2850,0,0,-1
87.52,-177.76,-109.81,-333,-7909,-2844,-1,0,-1
87.49,-177.76,-109.81,-337,-7917,-2864,-1,0,-1
87.49,-177.76,-109.82,-335,-7917,-2855,-1,0,-1
87.49,-177.76,-109.82,-332,-7914,-2854,0,0,-1
87.49,-177.76,-109.82,-334,-7911,-2854,-1,0,0
87.47,-177.76,-109.83,-334,-7920,-2860,-1,0,-1
87.48,-177.77,-109.82,-326,-7915,-2850,-1,0,-1
87.45,-177.77,-109.83,-326,-7915,-2856,-1,0,0
87.45,-177.77,-109.83,-336,-7923,-2862,0,0,-1
87.45,-177.77,-109.83,-335,-7920,-2870,0,0,-1
87.44,-177.78,-109.83,-340,-7915,-2857,-1,0,-1
87.44,-177.78,-109.83,-331,-7911,-2853,-1,0,0
87.41,-177.78,-109.84,-327,-7910,-2865,-1,-1,0
87.43,-177.78,-109.84,-326,-7912,-2874,-1,0,0
87.41,-177.78,-109.85,-326,-7927,-2863,0,0,-1
87.41,-177.79,-109.84,-329,-7928,-2868,0,0,-1
87.41,-177.79,-109.84,-332,-7920,-2864,-1,0,-1
87.39,-177.79,-109.85,-331,-7911,-2862,-1,0,-1
87.41,-177.79,-109.86,-329,-7906,-2857,-1,-1,-1
87.41,-177.79,-109.86,-327,-7913,-2866,-1,0,-1
87.41,-177.80,-109.87,-323,-7911,-2871,-1,0,-1
87.39,-177.79,-109.87,-318,-7908,-2866,-1,-1,0
87.39,-177.79,-109.87,-313,-7911,-2869,-1,-1,0
87.40,-177.79,-109.87,-320,-7915,-2867,-1,-1,0
87.40,-177.79,-109.87,-319,-7913,-2871,-1,-1,0
87.38,-177.79,-109.88,-328,-7912,-2875,-1,-1,-1
87.40,-177.79,-109.88,-326,-7910,-2871,-1,-1,-1
87.40,-177.79,-109.89,-326,-7912,-2880,-1,0,-1
87.40,-177.79,-109.89,-323,-7910,-2871,0,-1,-1
87.38,-177.79,-109.88,-320,-7905,-2851,0,-1,0
87.38,-177.79,-109.88,-315,-7907,-2853,0,0,0
87.40,-177.79,-109.87,-316,-7908,-2850,-1,-1,0
87.39,-177.78,-109.88,-326,-7921,-2862,-1,-1,0
87.41,-177.78,-109.88,-334,-7924,-2876,-1,-1,0
87.41,-177.78,-109.88,-328,-7920,-2884,0,-1,-1
87.42,-177.79,-109.88,-321,-7917,-2883,0,-1,-1
87.40,-177.78,-109.87,-315,-7905,-2870,0,-1,0
87.40,-177.78,-109.86,-323,-7892,-2843,0,-1,0
87.43,-177.76,-109.86,-334,-7900,-2844,-1,-1,0
87.43,-177.76,-109.87,-346,-7918,-2864,-1,-1,-1
87.43,-177.77,-109.88,-342,-7927,-2863,-1,0,-1
87.43,-177.77,-109.88,-335,-7923,-2873,0,-1,0
87.43,-177.77,-109.87,-324,-7901,-2871,0,-1,0
87.43,-177.76,-109.86,-324,-7892,-2857,0,-1,0
87.43,-177.76,-109.85,-324,-7896,-2855,-1,-1,0
87.43,-177.75,-109.86,-341,-7916,-2860,-1,-1,0
87.45,-177.75,-109.86,-340,-7934,-2860,-1,0,-1
87.43,-177.75,-109.86,-343,-7939,-2871,0,-1,0
87.44,-177.75,-109.87,-345,-7928,-2878,0,0,-1
87.45,-177.75,-109.85,-330,-7909,-2852,0,-1,0
87.43,-177.75,-109.85,-325,-7901,-2845,0,-1,0
87.43,-177.75,-109.85,-326,-7903,-2849,0,-1,0
87.43,-177.75,-109.84,-326,-7912,-2837,-1,-1,0
87.45,-177.74,-109.85,-340,-7924,-2857,-1,-1,0
87.44,-177.73,-109.85,-341,-7931,-2861,-1,0,0
87.44,-177.73,-109.85,-342,-7935,-2872,-1,0,-1
87.42,-177.74,-109.85,-334,-7935,-2872,0,-1,0
87.42,-177.74,-109.85,-330,-7912,-2859,0,0,0
87.42,-177.74,-109.85,-333,-7904,-2852,0,-1,0
87.42,-177.74,-109.85,-342,-7906,-2850,0,-1,0
87.44,-177.73,-109.85,-343,-7917,-2855,-1,-1,-1
87.44,-177.73,-109.85,-352,-7927,-2865,-1,-1,0
87.44,-177.73,-109.85,-339,-7918,-2858,-1,-1,-1
87.44,-177.73,-109.85,-349,-7914,-2864,0,0,-1
87.44,-177.73,-109.85,-345,-7905,-2857,0,-1,-1
87.44,-177.73,-109.85,-340,-7905,-2857,-1,-1,0
87.44,-177.73,-109.85,-338,-7901,-2847,0,-1,0
87.44,-177.73,-109.85,-334,-7917,-2855,-1,-1,0
87.44,-177.73,-109.85,-331,-7912,-2849,-1,-1,0
87.46,-177.72,-109.85,-332,-7913,-2858,-1,-1,0
87.46,-177.72,-109.85,-329,-7919,-2870,0,-1,0
87.46,-177.72,-109.84,-334,-7913,-2862,0,-1,0
87.46,-177.71,-109.83,-349,-7913,-2860,0,-1,0
87.46,-177.71,-109.83,-343,-7904,-2844,0,-1,0
87.46,-177.71,-109.82,-350,-7909,-2841,-1,-1,0
87.46,-177.71,-109.82,-337,-7915,-2836,-1,-1,0
87.46,-177.71,-109.84,-342,-7927,-2851,-1,0,-1
87.46,-177.71,-109.84,-342,-7931,-2862,-1,0,-1
87.46,-177.72,-109.84,-340,-7916,-2873,0,0,-1
87.48,-177.72,-109.84,-335,-7910,-2869,0,0,0
87.46,-177.72,-109.83,-334,-7906,-2857,0,-1,0
87.46,-177.71,-109.83,-332,-7904,-2846,0,-1,0
87.48,-177.71,-109.83,-338,-7908,-2849,-1,-1,0
87.48,-177.71,-109.83,-342,-7911,-2847,-1,-1,0
87.48,-177.71,-109.83,-336,-7918,-2853,-1,-1,-1
87.46,-177.71,-109.84,-335,-7927,-2866,0,0,0
87.46,-177.71,-109.84,-340,-7921,-2865,0,-1,0
87.48,-177.71,-109.83,-335,-7910,-2847,0,-1,0
87.46,-177.71,-109.82,-332,-7911,-2843,0,0,-1
87.46,-177.71,-109.82,-331,-7912,-2849,-1,-1,0
87.46,-177.71,-109.83,-333,-7922,-2853,-1,0,-1
87.46,-177.71,-109.83,-331,-7926,-2860,-1,-1,-1
87.46,-177.71,-109.83,-338,-7917,-2857,-1,-1,-1
87.46,-177.71,-109.83,-332,-7920,-2855,0,-1,-1
87.49,-177.72,-109.83,-330,-7916,-2853,0,-1,-1
87.47,-177.72,-109.82,-333,-7913,-2852,0,-1,0
87.49,-177.71,-109.82,-338,-7916,-2847,-1,-1,0
87.49,-177.71,-109.82,-335,-7921,-2858,-1,-1,0
87.49,-177.71,-109.82,-339,-7921,-2860,-1,-1,-1
87.46,-177.71,-109.83,-335,-7919,-2873,0,-1,0
87.46,-177.71,-109.83,-336,-7914,-2868,0,-1,0
87.48,-177.71,-109.83,-346,-7906,-2856,-1,-1,0
87.48,-177.71,-109.83,-350,-7905,-2847,-1,-1,-1
87.50,-177.70,-109.83,-348,-7916,-2867,0,-1,0
87.48,-177.71,-109.83,-348,-7907,-2860,0,0,0
87.48,-177.71,-109.83,-334,-7911,-2860,0,-1,0
87.48,-177.71,-109.83,-336,-7909,-2866,-1,-1,-1
87.48,-177.71,-109.83,-332,-7911,-2861,0,-1,0
87.48,-177.71,-109.83,-335,-7920,-2868,0,0,0
