Yaw,Pitch,Roll,AX,AY,AZ,GX,GY,GZ
-159.48,4.42,-31.26,621,-4281,7061,-1,-1,0
-159.48,4.42,-31.27,619,-4283,7050,-1,-1,-1
-159.47,4.43,-31.28,626,-4297,7044,-1,-1,-1
-159.47,4.43,-31.28,643,-4294,7037,0,-1,-1
-159.47,4.44,-31.28,647,-4292,7042,0,-1,0
-159.46,4.44,-31.27,659,-4286,7043,0,0,0
-159.46,4.44,-31.27,650,-4276,7050,0,0,0
-159.47,4.43,-31.26,644,-4278,7050,0,0,0
-159.47,4.42,-31.26,630,-4276,7059,0,0,0
-159.47,4.42,-31.26,625,-4277,7054,-1,-1,0
-159.47,4.42,-31.26,624,-4285,7052,-1,-1,0
-159.47,4.43,-31.26,622,-4278,7053,-1,-1,0
-159.47,4.43,-31.27,638,-4281,7047,-1,-1,0
-159.47,4.43,-31.27,638,-4292,7050,-1,-1,0
-159.47,4.43,-31.28,642,-4293,7055,0,0,0
-159.47,4.43,-31.27,634,-4280,7057,0,0,0
-159.48,4.42,-31.27,634,-4278,7055,-1,0,-1
-159.48,4.42,-31.27,635,-4288,7063,-1,0,-1
-159.47,4.43,-31.27,639,-4291,7053,0,0,-1
-159.48,4.42,-31.28,643,-4294,7052,-1,-1,0
-159.48,4.42,-31.27,647,-4281,7059,-1,0,0
-159.48,4.42,-31.27,641,-4275,7043,0,-1,0
-159.48,4.41,-31.27,639,-4280,7054,-1,0,0
-159.49,4.41,-31.28,632,-4285,7049,-1,0,0
-159.49,4.40,-31.28,627,-4290,7072,0,0,0
-159.50,4.39,-31.28,615,-4285,7061,-1,-1,0
-159.50,4.40,-31.29,613,-4293,7061,-1,-1,0
-159.50,4.40,-31.29,625,-4280,7034,-1,0,-1
-159.50,4.40,-31.29,628,-4285,7041,0,0,-1
-159.50,4.39,-31.28,617,-4283,7046,-1,0,0
-159.50,4.38,-31.29,624,-4286,7053,0,-1,0
-159.50,4.38,-31.29,630,-4296,7049,-1,0,-1
-159.50,4.37,-31.29,623,-4287,7053,0,0,0
-159.50,4.37,-31.28,623,-4269,7067,-1,-1,0
-159.51,4.36,-31.28,611,-4266,7063,-1,-1,0
-159.52,4.36,-31.29,631,-4285,7054,-1,0,0
-159.53,4.36,-31.30,621,-4300,7045,0,-1,0
-159.53,4.36,-31.31,634,-4292,7048,-1,0,0
-159.55,4.36,-31.32,630,-4316,7042,0,0,0
-159.55,4.35,-31.32,633,-4312,7039,-1,0,0
-159.56,4.34,-31.31,632,-4299,7050,0,0,0
-159.56,4.33,-31.29,617,-4277,7055,0,0,0
-159.57,4.33,-31.29,629,-4297,7045,0,0,0
-159.57,4.31,-31.26,622,-4275,7059,0,0,-1
-159.57,4.30,-31.25,622,-4267,7042,0,0,0
-159.58,4.28,-31.24,602,-4265,7055,0,0,0
-159.57,4.27,-31.23,607,-4272,7073,0,0,-1
-159.58,4.27,-31.23,620,-4277,7075,0,0,0
-159.58,4.26,-31.22,602,-4281,7096,0,-1,0
-159.59,4.27,-31.23,612,-4288,7053,-1,-1,0
-159.58,4.27,-31.22,622,-4275,7049,-1,0,0
-180.00,-0.03,0.03,-1,-1,-1,-1,-1,-1
-159.59,4.26,-31.22,604,-4267,7074,-1,0,0
-159.60,4.26,-31.23,615,-4287,7049,0,-1,-1
-159.59,4.26,-31.23,603,-4299,7048,-1,-1,-1
-159.59,4.26,-31.23,608,-4294,7074,-1,0,-1
-159.58,4.27,-31.22,624,-4289,7056,1,0,-1
-159.58,4.26,-31.21,616,-4273,7053,0,0,-1
-159.58,4.26,-31.20,624,-4282,7063,-1,-1,0
-159.58,4.26,-31.20,623,-4271,7043,0,0,-1
-159.58,4.25,-31.17,632,-4253,7095,0,0,0
-159.58,4.25,-31.18,615,-4280,7051,0,0,-1
-159.58,4.24,-31.18,611,-4262,7073,-1,0,0
-159.58,4.23,-31.17,596,-4268,7070,0,0,-1
-159.59,4.23,-31.18,603,-4269,7053,-1,0,0
-159.58,4.23,-31.17,594,-4263,7093,0,0,-1
-159.58,4.23,-31.17,608,-4276,7053,0,-1,0
-159.58,4.23,-31.18,619,-4277,7052,-1,0,-1
-159.58,4.23,-31.17,591,-4276,7059,0,-1,-1
-159.57,4.23,-31.16,616,-4277,7070,-1,-1,-1
-159.57,4.23,-31.15,625,-4274,7076,0,0,-1
-159.55,4.22,-31.14,602,-4254,7078,-1,0,-1
-159.55,4.22,-31.14,605,-4260,7075,-1,-1,-1
-159.56,4.22,-31.15,613,-4286,7059,0,-1,-1
-159.55,4.22,-31.15,609,-4283,7068,0,0,-1
-159.55,4.22,-31.15,610,-4267,7064,-1,0,-1
-159.55,4.22,-31.16,603,-4270,7056,-1,0,0
-159.56,4.21,-31.17,588,-4273,7069,-1,0,0
-159.56,4.21,-31.18,594,-4286,7073,-1,-1,-1
-159.56,4.22,-31.19,608,-4289,7051,-1,0,-1
-159.56,4.22,-31.19,596,-4298,7061,0,-1,-1
-159.56,4.22,-31.19,612,-4275,7067,0,0,-1
-159.56,4.22,-31.19,624,-4268,7038,-1,0,-1
-159.56,4.22,-31.19,620,-4281,7054,0,0,0
-159.56,4.21,-31.19,621,-4287,7051,0,0,0
-159.56,4.20,-31.18,609,-4273,7079,0,0,0
-159.56,4.19,-31.18,604,-4264,7063,-1,0,0
-159.56,4.19,-31.18,603,-4273,7062,0,0,0
-159.57,4.18,-31.19,586,-4275,7052,-1,-1,0
-159.57,4.18,-31.18,589,-4273,7071,0,-1,0
-159.57,4.18,-31.18,610,-4262,7060,-1,0,0
-159.57,4.17,-31.18,597,-4281,7068,0,0,-1
-159.58,4.17,-31.19,597,-4267,7052,-1,0,0
-159.58,4.16,-31.19,595,-4274,7053,-1,0,0
-159.58,4.16,-31.20,598,-4280,7067,-1,0,0
-159.58,4.15,-31.20,605,-4280,7055,0,0,0
-159.58,4.16,-31.19,602,-4271,7055,0,0,-1
-159.58,4.15,-31.20,604,-4288,7057,0,-1,-1
-159.58,4.15,-31.19,607,-4276,7066,0,0,-1
-159.58,4.15,-31.19,601,-4264,7067,-1,0,0
-159.58,4.15,-31.19,593,-4266,7073,-1,-1,-1
-159.59,4.15,-31.20,589,-4273,7060,-1,-1,-1
-159.59,4.15,-31.21,582,-4280,7044,-1,-1,-1
-159.59,4.15,-31.21,577,-4273,7042,-1,-1,-1
-159.59,4.15,-31.22,579,-4283,7053,-1,-1,-1
-159.58,4.16,-31.22,588,-4289,7047,-1,-1,-1
-159.58,4.17,-31.22,597,-4289,7042,0,-1,-1
-159.57,4.17,-31.21,608,-4281,7065,0,-1,-1
-159.57,4.17,-31.20,615,-4289,7066,0,0,-1
-159.57,4.17,-31.20,610,-4286,7070,0,0,-1
-159.56,4.17,-31.19,599,-4274,7069,0,0,-1
-159.56,4.17,-31.19,587,-4270,7061,-1,-1,-1
-159.55,4.17,-31.19,585,-4268,7060,-1,-1,-1
-159.55,4.17,-31.19,589,-4265,7063,-1,-1,-1
-159.56,4.18,-31.19,594,-4279,7066,-1,-1,-1
-159.56,4.19,-31.20,599,-4285,7067,-1,-1,-1
-159.56,4.19,-31.20,602,-4294,7060,-1,-1,-1
-159.56,4.19,-31.20,606,-4293,7060,0,-1,-1
-159.55,4.20,-31.19,602,-4280,7068,0,0,-1
-159.55,4.19,-31.19,607,-4280,7059,0,0,-1
-159.54,4.20,-31.18,609,-4277,7062,0,-1,-1
-159.54,4.20,-31.18,606,-4276,7063,0,-1,-1
-159.54,4.21,-31.18,606,-4268,7052,0,-1,-1
-159.54,4.21,-31.17,609,-4267,7059,0,-1,-1
-159.53,4.21,-31.17,610,-4262,7058,0,-1,-1
-159.53,4.21,-31.17,606,-4256,7062,-1,-1,-1
-159.53,4.21,-31.17,607,-4255,7064,-1,-1,-1
-159.53,4.22,-31.17,606,-4267,7054,-1,-1,-1
-159.53,4.21,-31.17,607,-4276,7049,-1,-1,-1
-159.53,4.22,-31.18,604,-4288,7060,0,-1,-1
-159.53,4.22,-31.17,604,-4281,7065,0,-1,-1
-159.52,4.23,-31.17,597,-4278,7059,-1,-1,-1
-159.53,4.23,-31.18,595,-4276,7053,0,-1,-1
-159.52,4.24,-31.18,609,-4266,7051,0,-1,-1
-159.52,4.24,-31.17,617,-4263,7054,0,-1,-1
-159.51,4.24,-31.17,617,-4273,7060,0,-1,-1
-159.51,4.24,-31.16,608,-4267,7067,0,-1,-1
-159.51,4.24,-31.16,607,-4265,7060,-1,0,-1
-159.51,4.24,-31.16,601,-4266,7056,0,-1,-1
-159.51,4.24,-31.16,599,-4266,7074,-1,-1,-1
-159.52,4.24,-31.16,599,-4270,7071,0,-1,-1
-159.51,4.25,-31.15,608,-4270,7065,0,-1,-1
-159.51,4.25,-31.15,605,-4275,7071,-1,0,-1
-159.51,4.25,-31.15,610,-4274,7063,0,-1,-1
-159.51,4.25,-31.15,615,-4271,7060,0,-1,-1
-159.51,4.26,-31.15,616,-4278,7057,0,-1,-1
-159.51,4.26,-31.15,618,-4266,7060,0,-1,0
-159.51,4.26,-31.15,612,-4269,7055,0,-1,-1
-159.51,4.26,-31.15,615,-4267,7057,0,-1,-1
-159.51,4.26,-31.15,612,-4263,7053,-1,-1,-1
-159.51,4.26,-31.16,613,-4274,7044,-1,-1,-1
-159.50,4.26,-31.16,619,-4277,7043,0,-1,-1
-159.50,4.26,-31.16,620,-4270,7047,0,-1,-1
-159.50,4.27,-31.15,621,-4278,7074,0,-1,-1
-159.50,4.27,-31.14,626,-4280,7077,0,-1,-1
-159.50,4.28,-31.14,615,-4266,7068,0,-1,-1
-159.50,4.27,-31.14,607,-4259,7061,-1,0,-1
-159.50,4.27,-31.14,605,-4251,7066,-1,0,-1
-159.50,4.27,-31.14,608,-4252,7070,-1,-1,-1
-159.50,4.27,-31.14,610,-4257,7071,-1,-1,-1
-159.50,4.27,-31.15,611,-4264,7066,-1,-1,-1
-159.50,4.28,-31.15,611,-4274,7066,-1,-1,-1
-159.50,4.28,-31.15,612,-4276,7062,0,0,-1
-159.50,4.28,-31.15,610,-4276,7056,0,-1,-1
-159.49,4.29,-31.15,626,-4285,7054,0,-1,-1
-159.49,4.28,-31.14,628,-4281,7061,0,0,-1
-159.49,4.28,-31.13,625,-4265,7060,0,0,-1
-159.49,4.28,-31.13,619,-4261,7057,-1,0,-1
-159.48,4.28,-31.13,614,-4261,7066,-1,0,0
-159.49,4.28,-31.13,609,-4266,7059,-1,-1,0
-159.49,4.28,-31.13,612,-4269,7062,-1,-1,0
-159.49,4.28,-31.14,613,-4263,7066,-1,-1,0
-159.49,4.28,-31.14,613,-4275,7059,0,-1,-1
-159.49,4.29,-31.14,619,-4277,7062,0,-1,-1
-159.49,4.29,-31.14,616,-4270,7060,-1,0,-1
-159.49,4.28,-31.14,619,-4272,7053,0,0,-1
-159.48,4.29,-31.14,620,-4268,7053,0,-1,-1
-159.48,4.29,-31.14,628,-4275,7066,0,-1,-1
-159.48,4.29,-31.14,629,-4274,7073,0,-1,-1
-159.48,4.30,-31.13,624,-4262,7078,-1,-1,-1
-159.48,4.30,-31.14,614,-4271,7063,-1,-1,-1
-159.48,4.30,-31.14,611,-4268,7059,-1,-1,-1
-159.48,4.30,-31.14,614,-4266,7064,0,-1,-1
-159.48,4.30,-31.14,619,-4271,7066,-1,-1,0
-159.48,4.31,-31.14,624,-4276,7063,0,-1,-1
-159.48,4.31,-31.14,625,-4266,7061,-1,-1,-1
-159.48,4.31,-31.14,621,-4270,7058,0,-1,-1
-159.48,4.31,-31.14,616,-4267,7054,0,-1,-1
-159.48,4.31,-31.14,623,-4263,7054,-1,-1,-1
-159.47,4.32,-31.14,622,-4266,7052,0,-1,-1
-159.47,4.32,-31.14,624,-4267,7059,0,-1,0
-159.47,4.32,-31.14,627,-4272,7050,-1,-1,0
-159.48,4.31,-31.14,624,-4273,7056,-1,0,0
-159.48,4.31,-31.14,622,-4275,7072,0,-1,-1
-159.47,4.31,-31.14,616,-4271,7066,0,-1,-1
-159.47,4.32,-31.13,615,-4264,7066,0,-1,-1
-159.47,4.32,-31.13,614,-4272,7067,0,-1,-1
-159.47,4.32,-31.13,627,-4277,7064,0,-1,-1
-159.47,4.33,-31.13,628,-4283,7068,0,-1,-1
-159.47,4.33,-31.13,628,-4277,7057,0,-1,-1
-159.47,4.33,-31.13,624,-4272,7049,0,-1,-1
-159.47,4.32,-31.13,618,-4264,7057,0,-1,-1
-159.47,4.32,-31.13,613,-4266,7070,-1,-1,0
-159.47,4.32,-31.13,615,-4260,7070,0,-1,0
-179.67,-8.66,10.38,-258,-258,-258,-258,-258,-258
-159.47,4.33,-31.12,613,-4269,7059,0,-1,-1
-159.48,4.33,-31.12,616,-4275,7059,0,-1,-1
-159.48,4.33,-31.12,611,-4265,7054,-1,-1,-1
-159.48,4.33,-31.12,603,-4272,7043,-1,-1,-1
-159.47,4.34,-31.13,623,-4280,7050,0,-1,-1
-159.47,4.35,-31.12,634,-4271,7054,0,-1,-1
-159.47,4.35,-31.11,650,-4263,7073,0,-1,-1
-159.46,4.35,-31.10,651,-4258,7079,0,0,-1
-159.46,4.35,-31.10,640,-4251,7077,-1,0,0
-159.47,4.33,-31.11,629,-4245,7067,-1,0,0
-159.47,4.33,-31.11,615,-4241,7074,-1,0,0
-159.47,4.32,-31.12,599,-4245,7064,-1,0,0
-159.48,4.32,-31.13,604,-4264,7060,-1,-1,-1
-159.48,4.33,-31.14,608,-4272,7063,-1,-1,-1
-159.48,4.33,-31.15,621,-4279,7059,-1,-1,-1
-159.47,4.34,-31.15,630,-4284,7046,0,-1,-1
-159.47,4.34,-31.14,634,-4284,7038,0,0,-1
-159.47,4.34,-31.14,632,-4276,7036,0,0,-1
-159.46,4.33,-31.12,635,-4266,7059,0,0,-1
-159.46,4.33,-31.11,627,-4259,7073,0,0,-1
-159.46,4.32,-31.11,616,-4263,7072,0,0,-1
-159.46,4.32,-31.11,614,-4269,7077,-1,-1,0
-159.47,4.32,-31.12,622,-4260,7080,-1,-1,0
-159.47,4.33,-31.12,626,-4258,7076,-1,-1,-1
-159.47,4.34,-31.12,625,-4270,7072,-1,-1,0
-159.47,4.34,-31.13,627,-4283,7071,0,0,-1
-159.47,4.33,-31.13,627,-4272,7075,-1,0,-1
-159.47,4.33,-31.13,616,-4275,7071,0,-1,-1
-159.47,4.33,-31.12,607,-4271,7073,0,-1,-1
-159.46,4.33,-31.12,618,-4264,7061,0,0,-1
-159.46,4.33,-31.12,625,-4263,7056,0,0,0
-159.46,4.34,-31.12,633,-4261,7064,0,0,-1
-159.46,4.33,-31.12,635,-4258,7064,0,0,0
-159.46,4.33,-31.12,628,-4254,7065,-1,0,0
-159.46,4.33,-31.12,625,-4258,7062,-1,0,0
-159.47,4.32,-31.12,621,-4259,7060,-1,0,0
-159.47,4.32,-31.12,614,-4267,7052,0,-1,0
-159.47,4.32,-31.12,617,-4263,7051,0,0,-1
-159.47,4.32,-31.12,618,-4264,7061,-1,0,0
-159.47,4.32,-31.12,615,-4268,7055,0,0,-1
-159.47,4.32,-31.12,622,-4267,7056,0,0,0
-159.47,4.32,-31.12,629,-4260,7056,-1,0,0
-159.47,4.32,-31.12,622,-4259,7058,-1,0,0
-159.47,4.32,-31.12,616,-4261,7062,-1,0,0
-159.47,4.31,-31.12,616,-4267,7069,-1,0,0
-159.48,4.31,-31.12,617,-4265,7067,-1,0,0
-159.48,4.31,-31.13,620,-4266,7065,-1,-1,0
-159.48,4.31,-31.13,620,-4276,7057,0,-1,-1
-159.48,4.31,-31.12,620,-4281,7073,0,0,0
-159.48,4.30,-31.12,608,-4275,7072,-1,0,0
-159.48,4.30,-31.13,603,-4279,7073,-1,-1,-1
-159.48,4.30,-31.12,607,-4270,7064,0,-1,-1
-159.48,4.30,-31.12,606,-4269,7072,0,-1,-1
-159.48,4.30,-31.12,616,-4270,7065,-1,-1,0
-159.48,4.30,-31.13,621,-4264,7055,-1,0,0
-159.49,4.29,-31.12,622,-4258,7072,-1,0,0
-159.49,4.29,-31.12,620,-4263,7070,0,0,0
-159.49,4.29,-31.12,613,-4262,7074,-1,0,0
-159.49,4.29,-31.12,615,-4265,7073,-1,0,0
-159.49,4.29,-31.12,615,-4278,7069,0,-1,-1
-159.49,4.29,-31.12,619,-4280,7065,0,-1,-1
-159.49,4.29,-31.12,622,-4268,7073,0,0,-1
-159.49,4.28,-31.12,625,-4258,7074,-1,0,0
-159.49,4.28,-31.12,619,-4256,7073,-1,0,0
-159.50,4.27,-31.12,614,-4257,7059,-1,0,0
-159.50,4.26,-31.13,605,-4255,7057,-1,0,0
-159.51,4.26,-31.14,602,-4258,7059,-1,-1,0
-159.51,4.27,-31.14,602,-4273,7048,-1,-1,0
-159.51,4.27,-31.15,608,-4277,7059,-1,-1,-1
-159.51,4.27,-31.15,612,-4271,7060,-1,-1,-1
-159.51,4.28,-31.15,619,-4276,7055,0,-1,-1
-159.51,4.29,-31.15,625,-4275,7055,0,-1,-1
-159.51,4.29,-31.15,627,-4273,7054,0,0,0
-159.51,4.29,-31.14,623,-4272,7062,0,0,0
-159.51,4.28,-31.14,616,-4275,7067,0,0,0
-159.51,4.27,-31.14,612,-4269,7071,0,0,-1
-159.51,4.27,-31.14,609,-4273,7072,-1,-1,0
-159.51,4.27,-31.14,604,-4266,7065,-1,-1,-1
-159.52,4.28,-31.14,605,-4263,7060,-1,-1,-1
-159.52,4.28,-31.14,606,-4266,7063,-1,-1,-1
-159.52,4.28,-31.14,611,-4267,7066,-1,-1,-1
-159.51,4.28,-31.15,611,-4277,7071,0,0,-1
-159.51,4.28,-31.15,608,-4282,7069,-1,0,-1
-159.51,4.28,-31.14,611,-4279,7073,0,0,-1
-159.51,4.28,-31.14,614,-4267,7070,0,-1,-1
-159.51,4.28,-31.14,617,-4258,7069,-1,-1,-1
-159.51,4.28,-31.14,610,-4257,7067,-1,-1,0
-159.51,4.28,-31.14,615,-4266,7061,0,-1,-1
-159.51,4.28,-31.14,616,-4264,7070,0,0,0
-159.51,4.28,-31.14,605,-4258,7058,-1,-1,-1
-159.51,4.28,-31.14,607,-4266,7054,-1,-1,-1
-159.51,4.28,-31.14,614,-4267,7055,0,-1,-1
-159.51,4.28,-31.14,615,-4264,7059,0,-1,-1
-159.51,4.29,-31.14,621,-4265,7060,-1,-1,-1
-159.51,4.29,-31.14,620,-4271,7058,0,-1,-1
-159.51,4.29,-31.14,620,-4269,7064,0,-1,-1
-159.50,4.30,-31.14,623,-4268,7074,0,-1,-1
-159.50,4.30,-31.13,623,-4261,7076,0,-1,-1
-159.50,4.30,-31.13,622,-4258,7071,0,-1,-1
-159.50,4.30,-31.12,621,-4263,7071,0,-1,-1
-159.49,4.30,-31.12,620,-4269,7073,-1,-1,-1
-159.49,4.30,-31.12,626,-4273,7070,0,-1,-1
-159.49,4.30,-31.12,631,-4272,7069,0,-1,-1
-159.49,4.30,-31.12,622,-4270,7078,0,-1,-1
-159.49,4.30,-31.12,616,-4274,7063,0,-1,-1
-159.49,4.30,-31.12,608,-4272,7061,-1,0,0
-159.49,4.30,-31.12,614,-4273,7069,0,-1,-1
-159.49,4.31,-31.12,622,-4273,7062,0,-1,-1
-159.49,4.32,-31.12,627,-4275,7068,0,-1,-1
-159.48,4.32,-31.11,639,-4272,7083,0,0,-1
-159.48,4.32,-31.11,627,-4254,7079,-1,0,-1
-159.49,4.31,-31.11,623,-4253,7069,-1,0,-1
-159.49,4.31,-31.11,620,-4254,7061,-1,0,0
-159.49,4.31,-31.12,617,-4252,7064,-1,-1,0
-159.49,4.31,-31.12,610,-4256,7062,-1,-1,0
-159.49,4.31,-31.13,609,-4275,7068,-1,-1,-1
-159.49,4.32,-31.13,621,-4281,7068,0,-1,-1
-159.49,4.32,-31.13,621,-4284,7060,0,-1,-1
-159.48,4.32,-31.12,625,-4275,7065,0,0,-1
-159.48,4.33,-31.12,632,-4268,7051,0,0,-1
-159.48,4.32,-31.11,629,-4266,7052,0,0,-1
-159.48,4.32,-31.10,620,-4262,7056,0,0,0
-159.48,4.32,-31.10,616,-4256,7068,0,0,-1
-159.48,4.32,-31.11,618,-4256,7071,-1,-1,-1
-159.48,4.32,-31.11,607,-4264,7077,-1,-1,0
-159.48,4.32,-31.11,611,-4258,7080,-1,-1,-1
-159.48,4.32,-31.11,619,-4266,7071,-1,-1,0
-159.48,4.32,-31.12,616,-4277,7063,-1,-1,-1
-159.48,4.32,-31.12,607,-4278,7059,-1,-1,-1
-159.49,4.31,-31.13,608,-4273,7061,-1,0,-1
-159.49,4.31,-31.13,610,-4271,7062,-1,0,-1
-159.49,4.31,-31.12,607,-4273,7070,0,0,-1
-159.49,4.31,-31.12,612,-4276,7068,0,-1,-1
-159.49,4.31,-31.12,627,-4278,7068,0,0,-1
-159.48,4.32,-31.11,626,-4271,7076,0,-1,0
-159.49,4.31,-31.11,618,-4264,7071,-1,-1,-1
-159.49,4.31,-31.11,615,-4266,7061,0,-1,-1
-159.48,4.32,-31.11,624,-4264,7059,0,0,-1
-159.48,4.32,-31.11,620,-4267,7068,0,-1,0
-159.49,4.31,-31.11,620,-4270,7060,-1,0,0
-159.49,4.31,-31.11,617,-4267,7059,0,0,0
-159.49,4.31,-31.11,622,-4264,7062,-1,0,-1
-159.49,4.31,-31.11,628,-4254,7071,-1,0,-1
-159.49,4.31,-31.11,619,-4257,7075,-1,-1,-1
-159.49,4.31,-31.12,622,-4268,7062,-1,-1,-1
-159.49,4.31,-31.12,623,-4266,7060,-1,-1,-1
-159.48,4.32,-31.12,628,-4268,7068,-1,-1,-1
-159.49,4.31,-31.13,629,-4269,7067,-1,0,-1
-159.49,4.31,-31.13,628,-4267,7060,-1,0,-1
-159.49,4.31,-31.13,618,-4272,7057,0,0,-1
-159.49,4.31,-31.12,614,-4278,7065,0,0,0
-159.49,4.31,-31.12,611,-4274,7069,0,-1,0
-159.49,4.31,-31.12,616,-4266,7077,0,-1,-1
-159.49,4.31,-31.11,615,-4266,7064,0,-1,-1
-159.49,4.31,-31.12,620,-4254,7064,-1,0,0
-159.49,4.31,-31.12,617,-4255,7066,-1,-1,0
-159.49,4.30,-31.12,629,-4271,7076,-1,0,0
-159.49,4.29,-31.12,634,-4262,7087,0,0,0
-159.49,4.29,-31.12,620,-4233,7099,-1,-1,-1
-159.49,4.30,-31.15,587,-4233,7079,-2,-1,-1
-159.51,4.32,-31.21,551,-4266,7005,-3,-2,0
-159.53,4.36,-31.27,530,-4332,6936,-1,-3,0
-159.54,4.40,-31.29,562,-4407,6933,1,-3,0
-159.53,4.45,-31.24,631,-4453,6979,2,-2,-1
-159.50,4.48,-31.16,725,-4458,7049,4,0,-1
-159.46,4.46,-31.02,777,-4387,7126,5,2,-1
-159.42,4.43,-30.85,778,-4257,7165,5,2,-1
-159.37,4.37,-30.70,762,-4054,7211,2,3,-1
-159.35,4.28,-30.63,705,-3903,7236,-1,3,0
-159.36,4.20,-30.66,588,-3849,7252,-4,2,0
-159.41,4.15,-30.79,502,-3915,7224,-7,-1,0
-159.45,4.15,-30.99,476,-4048,7139,-7,-2,0
-159.50,4.19,-31.20,481,-4177,7103,-9,-4,0
-159.55,4.26,-31.45,543,-4352,7005,-8,-4,0
-159.58,4.33,-31.66,609,-4481,6895,-6,-3,0
-159.61,4.38,-31.80,636,-4614,6829,-2,-3,0
-159.64,4.42,-31.85,698,-4658,6779,1,-1,0
-159.64,4.42,-31.80,684,-4676,6771,4,0,0
-159.63,4.39,-31.65,664,-4599,6857,7,1,0
-159.62,4.36,-31.45,677,-4503,6950,7,1,0
-159.59,4.30,-31.20,611,-4380,7059,8,2,-1
-159.55,4.25,-30.98,593,-4255,7185,6,1,-1
-159.52,4.22,-30.79,582,-4137,7232,5,0,-1
-159.48,4.21,-30.63,603,-4024,7258,2,0,-1
-159.45,4.21,-30.55,603,-3940,7233,0,0,-1
-159.45,4.20,-30.55,623,-3934,7193,-2,0,-1
-159.44,4.21,-30.60,632,-3959,7184,-4,-1,-1
-159.45,4.20,-30.69,644,-4040,7137,-4,0,-1
-159.47,4.20,-30.80,637,-4111,7133,-5,0,0
-159.49,4.19,-30.93,623,-4191,7123,-6,-1,0
-159.52,4.18,-31.07,594,-4299,7039,-4,0,0
-159.56,4.17,-31.17,563,-4367,7032,-3,-1,0
-159.58,4.17,-31.23,541,-4391,6977,-2,-1,0
-159.60,4.18,-31.26,534,-4428,6959,0,-1,0
-159.61,4.19,-31.25,532,-4424,6951,1,-2,-1
-159.58,4.22,-31.21,556,-4406,6956,2,-1,-1
-159.56,4.24,-31.13,567,-4382,6982,3,-1,-1
-159.51,4.28,-31.04,616,-4321,7013,3,-1,-1
-159.47,4.31,-30.94,668,-4277,7060,3,0,-1
-159.45,4.32,-30.87,696,-4252,7095,2,0,-1
-159.44,4.32,-30.79,718,-4221,7128,2,0,0
-159.43,4.29,-30.72,727,-4181,7137,1,1,0
-159.43,4.25,-30.67,705,-4152,7175,1,1,0
-159.45,4.18,-30.63,670,-4123,7213,0,2,0
-159.47,4.11,-30.63,586,-4081,7210,-2,1,0
-159.50,4.05,-30.67,531,-4082,7217,-3,1,0
-159.52,4.02,-30.75,489,-4069,7174,-4,0,0
-159.55,4.00,-30.85,460,-4105,7140,-5,-1,-1
-159.58,4.01,-31.00,444,-4157,7076,-6,-3,0
-159.59,4.06,-31.14,484,-4252,7004,-5,-2,-1
-159.60,4.12,-31.27,531,-4344,6956,-4,-3,-1
-159.60,4.19,-31.34,598,-4412,6927,-1,-2,-1
-159.60,4.24,-31.38,646,-4484,6905,0,-2,-1
-159.58,4.28,-31.35,682,-4522,6891,3,-1,-1
-159.55,4.29,-31.24,709,-4500,6936,4,0,-1
-159.53,4.27,-31.10,700,-4434,6997,6,1,-1
-159.50,4.23,-30.92,679,-4347,7060,6,1,-1
-159.47,4.19,-30.73,644,-4231,7141,5,2,-1
-159.44,4.13,-30.57,596,-4123,7223,3,1,-1
-159.43,4.09,-30.47,580,-4030,7265,1,1,0
-159.42,4.06,-30.44,577,-3973,7279,-2,1,-1
-159.43,4.04,-30.48,550,-3948,7272,-4,0,0
-159.45,4.04,-30.58,567,-3983,7237,-6,-1,0
-159.48,4.04,-30.73,557,-4083,7160,-6,-1,0
-159.52,4.05,-30.90,554,-4172,7087,-6,-1,0
-159.56,4.07,-31.07,558,-4269,7017,-5,-2,0
-159.59,4.09,-31.20,565,-4359,6975,-3,-1,0
-159.61,4.11,-31.29,580,-4438,6947,-2,-2,0
-159.62,4.12,-31.32,584,-4487,6926,0,-1,-1
-159.61,4.14,-31.28,603,-4491,6935,2,-1,-1
-159.59,4.14,-31.19,611,-4432,6957,4,0,-1
-159.56,4.15,-31.06,613,-4352,7018,4,0,-1
-159.53,4.14,-30.94,610,-4274,7078,4,0,-1
-159.50,4.13,-30.82,604,-4209,7118,3,0,-1
-159.48,4.11,-30.73,605,-4156,7157,2,0,-1
-159.46,4.11,-30.68,603,-4109,7180,0,0,-1
-159.45,4.10,-30.66,597,-4086,7194,-1,0,-1
-159.46,4.09,-30.69,597,-4097,7191,-3,0,0
-159.47,4.09,-30.75,589,-4133,7168,-3,-1,0
-159.50,4.09,-30.84,590,-4186,7136,-4,-1,0
-159.52,4.09,-30.93,591,-4240,7099,-3,-1,0
-159.54,4.09,-31.00,583,-4285,7066,-3,-1,0
-159.56,4.09,-31.06,586,-4319,7039,-1,0,0
-159.56,4.08,-31.09,585,-4332,7032,-1,0,-1
-159.56,4.08,-31.10,579,-4333,7017,0,0,-1
-159.55,4.08,-31.08,566,-4329,7021,0,0,-1
-159.54,4.08,-31.06,575,-4314,7028,1,-1,-1
-159.52,4.09,-31.02,580,-4284,7042,1,-1,-1
-159.51,4.10,-30.97,585,-4260,7058,1,-1,-1
-159.50,4.10,-30.94,583,-4232,7071,1,-1,-1
-159.49,4.11,-30.91,585,-4228,7084,0,-1,-1
-159.49,4.12,-30.88,593,-4222,7091,0,-1,-1
-159.48,4.12,-30.87,595,-4222,7102,0,-1,-1
-159.48,4.12,-30.86,597,-4223,7107,0,-1,-1
-159.48,4.13,-30.85,607,-4213,7115,-1,0,-1
-159.48,4.12,-30.86,604,-4207,7120,-1,0,0
-159.48,4.11,-30.87,598,-4208,7117,-1,0,0
-159.49,4.10,-30.89,594,-4217,7104,-1,0,0
-159.49,4.09,-30.92,593,-4224,7100,-2,0,0
-159.50,4.09,-30.95,583,-4234,7089,-2,-1,0
-159.50,4.09,-30.98,575,-4242,7072,-1,-1,0
-159.51,4.10,-31.00,582,-4257,7058,-1,-1,0
-159.52,4.09,-31.03,582,-4271,7044,-1,-1,-1
-159.52,4.10,-31.04,578,-4286,7033,-1,-1,-1
-159.52,4.10,-31.04,584,-4295,7030,0,-1,-1
-159.51,4.11,-31.03,585,-4298,7040,0,-1,-1
-159.51,4.11,-31.01,582,-4289,7058,0,-1,-1
-159.50,4.12,-30.98,583,-4278,7067,1,-1,-1
-159.48,4.13,-30.95,597,-4268,7073,1,-1,-1
-159.47,4.13,-30.91,612,-4240,7081,0,0,-1
-159.46,4.14,-30.89,616,-4220,7090,0,0,-1
-159.46,4.13,-30.87,613,-4208,7102,0,0,0
-159.47,4.13,-30.87,607,-4201,7097,-1,0,0
-159.47,4.12,-30.88,593,-4212,7105,-1,0,0
-159.48,4.11,-30.90,583,-4220,7112,-1,0,0
-159.49,4.11,-30.92,578,-4230,7100,-1,-1,0
-159.50,4.11,-30.95,587,-4249,7082,-1,-1,0
-159.50,4.11,-30.97,590,-4262,7070,-1,-1,-1
-159.50,4.12,-30.99,598,-4266,7061,-1,-1,-1
-159.50,4.12,-31.00,599,-4271,7054,-1,0,-1
-159.49,4.12,-31.01,605,-4270,7058,-1,0,-1
-159.50,4.11,-31.01,593,-4270,7056,0,0,-1
-159.49,4.11,-31.00,591,-4265,7072,0,-1,-1
-159.49,4.12,-30.99,580,-4263,7076,0,-1,-1
-159.49,4.12,-30.98,576,-4259,7078,0,-1,-1
-159.49,4.13,-30.97,586,-4259,7076,0,-1,-1
-159.48,4.13,-30.95,597,-4251,7079,0,-1,-1
-159.48,4.14,-30.95,599,-4244,7085,0,-1,-1
-159.48,4.14,-30.94,604,-4242,7089,0,0,-1
-159.48,4.14,-30.92,609,-4239,7101,0,0,0
-159.48,4.14,-30.92,607,-4243,7100,0,0,-1
-159.48,4.14,-30.92,594,-4236,7106,-1,0,0
-159.48,4.13,-30.93,575,-4234,7100,-1,-1,-1
-159.48,4.12,-30.94,581,-4238,7089,-1,-1,-1
-159.48,4.13,-30.95,586,-4241,7083,-1,-1,-1
-159.48,4.13,-30.96,598,-4245,7084,-1,-1,0
-159.48,4.13,-30.98,607,-4261,7077,-1,-1,-1
-159.48,4.13,-30.98,606,-4261,7067,-1,0,-1
-159.48,4.13,-30.99,602,-4264,7064,-1,0,-1
-159.48,4.13,-30.99,596,-4265,7077,0,0,-1
-159.48,4.13,-30.99,587,-4270,7073,0,-1,-1
-159.48,4.13,-30.99,582,-4271,7064,0,-1,-1
-159.48,4.14,-30.98,588,-4268,7065,0,-1,-1
-159.47,4.15,-30.97,596,-4254,7070,0,-1,-1
-159.47,4.15,-30.97,600,-4242,7082,0,-1,-1
-159.47,4.15,-30.96,599,-4249,7082,0,0,0
-159.47,4.15,-30.95,599,-4244,7081,0,0,0
-159.47,4.15,-30.95,597,-4237,7089,0,-1,-1
-159.47,4.15,-30.95,594,-4238,7100,-1,-1,0
-159.48,4.15,-30.95,597,-4233,7096,-1,-1,0
-159.48,4.15,-30.96,599,-4241,7101,-1,0,0
-159.48,4.15,-30.96,601,-4245,7089,-1,-1,-1
-159.48,4.14,-30.97,596,-4247,7085,-1,0,-1
-159.48,4.14,-30.97,597,-4242,7074,-1,-1,-1
-159.48,4.15,-30.98,588,-4251,7065,-1,0,-1
-159.48,4.14,-30.99,594,-4262,7069,-1,0,-1
-159.48,4.14,-30.99,592,-4264,7069,0,-1,-1
-159.48,4.15,-30.98,593,-4264,7078,0,-1,-1
-159.47,4.15,-30.97,600,-4256,7084,0,-1,-1
-159.47,4.15,-30.97,599,-4248,7086,0,-1,-1
-159.47,4.15,-30.96,603,-4233,7080,-1,0,-1
-159.47,4.15,-30.96,597,-4230,7075,-1,0,0
-159.47,4.15,-30.97,589,-4234,7074,-1,0,0
-159.47,4.15,-30.97,582,-4242,7072,-1,-1,0
-159.48,4.15,-30.99,586,-4253,7063,-1,-1,-1
-159.48,4.16,-30.99,584,-4260,7062,-1,-1,-1
-159.47,4.17,-30.99,587,-4270,7065,0,-1,-1
-159.47,4.18,-30.99,601,-4279,7062,0,-1,-1
-159.47,4.19,-30.97,616,-4268,7068,0,-1,-1
-159.46,4.19,-30.96,624,-4252,7077,0,0,-1
-159.46,4.18,-30.94,610,-4240,7089,0,0,-1
-159.46,4.18,-30.92,605,-4235,7094,0,0,-1
-159.45,4.17,-30.92,597,-4230,7097,0,0,-1
-159.45,4.17,-30.91,597,-4225,7101,-1,0,-1
-159.45,4.17,-30.92,597,-4220,7108,-1,0,-1
-159.45,4.17,-30.92,600,-4216,7101,-1,-1,0
-159.46,4.17,-30.94,598,-4220,7086,-1,0,0
-159.46,4.16,-30.95,598,-4228,7077,-1,0,0
-159.48,4.16,-30.97,601,-4244,7067,-1,0,0
-159.48,4.15,-30.99,593,-4258,7052,-1,0,0
-159.48,4.15,-30.99,591,-4266,7061,0,-1,-1
-159.48,4.16,-30.98,589,-4269,7053,0,-1,-1
-159.47,4.16,-30.96,590,-4266,7052,0,0,-1
-159.47,4.16,-30.95,591,-4266,7054,0,-1,-1
-159.46,4.16,-30.93,592,-4269,7081,0,-1,-1
-159.45,4.17,-30.90,606,-4250,7099,1,-1,-1
-159.44,4.18,-30.86,609,-4242,7095,0,-1,-1
-159.44,4.17,-30.84,620,-4225,7094,0,0,-1
-159.44,4.17,-30.83,623,-4215,7096,0,0,0
-159.44,4.16,-30.82,616,-4205,7103,-1,0,0
-159.44,4.14,-30.83,597,-4207,7113,-1,0,0
-159.45,4.14,-30.84,587,-4207,7108,-1,0,0
-159.46,4.13,-30.87,582,-4226,7099,-1,-1,0
-159.47,4.14,-30.89,580,-4236,7083,-1,-1,-1
-159.47,4.14,-30.91,580,-4243,7070,-1,-1,0
-159.47,4.14,-30.94,592,-4257,7057,-1,-1,-1
-159.47,4.15,-30.94,598,-4266,7049,-1,-1,-1
-159.47,4.15,-30.94,601,-4269,7047,0,-1,-1
-159.46,4.16,-30.93,606,-4279,7049,0,-1,-1
-159.46,4.16,-30.91,605,-4274,7056,0,0,-1
-159.45,4.16,-30.88,607,-4263,7077,1,0,-1
-159.45,4.15,-30.86,608,-4246,7094,0,0,-1
-159.44,4.15,-30.83,606,-4237,7108,0,0,-1
-159.43,4.15,-30.81,599,-4222,7119,0,0,-1
-159.43,4.15,-30.80,601,-4197,7122,-1,0,0
-159.43,4.14,-30.80,598,-4179,7124,-1,0,0
-159.44,4.13,-30.82,589,-4181,7098,-1,0,0
-159.45,4.13,-30.85,583,-4206,7091,-2,-1,0
-159.46,4.13,-30.87,572,-4212,7087,-2,-1,0
-159.48,4.13,-30.91,567,-4237,7074,-2,-1,0
-159.48,4.14,-30.94,578,-4278,7060,-1,-1,-1
-159.48,4.15,-30.95,593,-4297,7050,0,-1,-1
-159.47,4.15,-30.95,603,-4296,7039,0,-1,-1
-159.47,4.16,-30.93,606,-4286,7051,0,0,-1
-159.46,4.15,-30.90,614,-4265,7062,1,0,-1
-159.45,4.15,-30.86,606,-4245,7080,1,0,-1
-159.45,4.14,-30.83,601,-4217,7107,0,0,-1
-159.45,4.13,-30.81,592,-4205,7113,0,0,0
-159.45,4.12,-30.81,580,-4194,7124,-1,-1,-1
-159.45,4.12,-30.82,587,-4185,7120,-1,-1,0
-159.45,4.12,-30.83,589,-4199,7111,-1,-1,0
-159.46,4.13,-30.86,596,-4220,7098,-1,-1,0
-159.46,4.14,-30.89,600,-4238,7080,-1,-1,0
-159.47,4.13,-30.90,591,-4258,7063,-1,-1,0
-159.47,4.13,-30.92,592,-4276,7061,-1,0,0
-159.48,4.13,-30.92,591,-4282,7063,0,0,0
-159.47,4.13,-30.91,598,-4274,7068,0,0,-1
-159.47,4.12,-30.89,593,-4257,7076,0,0,-1
-159.46,4.12,-30.87,599,-4245,7077,0,0,-1
-159.46,4.12,-30.85,606,-4231,7095,0,0,-1
-159.46,4.11,-30.84,598,-4215,7106,0,0,0
-159.46,4.11,-30.83,589,-4196,7114,-1,0,0
-159.46,4.10,-30.84,588,-4203,7105,-1,-1,0
-159.47,4.10,-30.85,597,-4212,7096,-1,-1,0
-159.47,4.10,-30.86,597,-4221,7097,-1,-1,0
-159.48,4.10,-30.89,589,-4235,7092,-1,-1,0
-159.48,4.10,-30.89,588,-4245,7087,-1,-1,0
-159.49,4.10,-30.90,590,-4264,7086,0,0,0
-159.49,4.10,-30.90,590,-4263,7085,0,0,-1
-159.49,4.10,-30.89,585,-4259,7081,0,0,-1
-159.48,4.09,-30.89,586,-4258,7079,0,0,-1
-159.48,4.09,-30.87,585,-4246,7080,0,0,-1
-159.48,4.09,-30.86,590,-4236,7086,0,0,-1
-159.48,4.09,-30.86,588,-4222,7099,0,-1,0
-159.48,4.09,-30.85,586,-4219,7097,-1,-1,0
-159.48,4.09,-30.86,586,-4224,7098,-1,-1,0
-159.49,4.09,-30.87,586,-4234,7086,-1,-1,-1
-159.49,4.09,-30.88,579,-4240,7083,-1,-1,0
-159.49,4.09,-30.89,572,-4246,7070,-1,-1,0
-159.49,4.09,-30.89,579,-4264,7079,0,-1,-1
-159.49,4.09,-30.89,582,-4258,7088,-1,-1,-1
-159.49,4.10,-30.89,586,-4252,7090,0,-1,-1
-159.49,4.10,-30.89,583,-4251,7078,0,-1,-1
-159.48,4.10,-30.88,587,-4243,7085,0,0,-1
-159.48,4.10,-30.87,588,-4226,7092,0,0,-1
-159.48,4.10,-30.86,593,-4230,7094,0,0,-1
-159.48,4.10,-30.86,587,-4229,7087,-1,0,0
-159.48,4.10,-30.86,587,-4244,7079,0,-1,0
-159.47,4.11,-30.85,609,-4245,7090,0,-1,-1
-159.47,4.11,-30.85,607,-4243,7097,0,0,-1
-159.47,4.11,-30.85,594,-4241,7108,0,-1,-1
-159.47,4.11,-30.85,591,-4236,7090,-1,0,-1
-159.48,4.10,-30.85,585,-4231,7092,-1,0,-1
-159.48,4.09,-30.86,581,-4225,7081,-1,0,0
-159.48,4.09,-30.86,571,-4224,7070,-1,-1,0
-159.48,4.09,-30.87,581,-4235,7087,-1,-1,-1
-159.48,4.09,-30.87,575,-4242,7094,-1,-1,0
-159.48,4.09,-30.89,580,-4247,7092,-1,0,-1
-159.49,4.09,-30.89,584,-4252,7078,-1,-1,0
-159.49,4.09,-30.90,598,-4253,7071,-1,0,-1
-159.49,4.09,-30.89,575,-4262,7079,0,-1,0
-159.49,4.10,-30.89,613,-4251,7097,0,-1,0
-159.50,4.10,-30.90,597,-4263,7070,-1,-1,0
-159.51,4.09,-30.87,583,-4242,7127,0,-1,0
-159.52,4.10,-30.89,610,-4237,7049,-1,-1,0
-159.53,4.10,-30.88,604,-4253,7054,1,0,0
-159.53,4.09,-30.85,581,-4211,7108,-1,-1,0
-159.54,4.09,-30.87,597,-4230,7073,-1,0,0
-159.55,4.08,-30.86,571,-4210,7086,0,-1,-1
-159.55,4.06,-30.85,564,-4211,7091,0,0,0
-159.56,4.06,-30.87,588,-4242,7103,-1,-1,0
-159.57,4.05,-30.88,582,-4196,7104,-2,-1,0
-159.57,4.06,-30.90,582,-4242,7091,0,-1,0
-159.58,4.06,-30.93,609,-4227,7033,-2,0,0
-159.59,4.04,-30.92,586,-4295,7099,0,-1,0
-159.60,4.04,-30.93,574,-4254,7041,-1,-1,0
-159.59,4.03,-30.90,581,-4255,7114,1,0,0
-159.60,4.03,-30.91,578,-4253,7051,0,-1,0
-159.60,4.01,-30.89,562,-4233,7097,-1,-1,0
-159.62,4.01,-30.89,580,-4235,7068,-1,0,0
-159.61,4.02,-30.88,598,-4257,7094,1,-1,0
-159.62,4.00,-30.87,554,-4234,7073,0,-1,0
-159.63,4.01,-30.87,576,-4247,7092,-1,-1,0
-159.63,4.01,-30.86,564,-4233,7063,1,0,-1
-159.63,4.01,-30.86,558,-4235,7088,-2,-2,0
-159.63,4.01,-30.85,572,-4226,7113,1,0,-1
-159.64,4.02,-30.87,583,-4225,7063,-1,-1,0
-159.65,4.01,-30.86,595,-4224,7106,0,0,0
-159.65,4.02,-30.88,592,-4237,7068,-1,-1,0
-159.66,4.00,-30.88,560,-4258,7073,0,0,-1
-159.66,4.00,-30.89,587,-4221,7056,-1,-1,0
-159.65,3.99,-30.87,567,-4238,7107,0,0,-1
-159.67,3.99,-30.91,561,-4262,7026,-1,-1,0
-159.66,3.98,-30.88,556,-4231,7129,-1,0,0
-159.67,3.99,-30.90,584,-4241,7079,-1,0,0
-159.68,3.98,-30.90,575,-4270,7091,0,0,0
-159.68,3.98,-30.90,578,-4233,7063,-1,0,-1
-159.67,3.96,-30.89,563,-4229,7100,-1,0,0
-159.67,3.96,-30.89,566,-4228,7067,0,0,-1
-159.68,3.96,-30.90,560,-4227,7078,-1,0,0
-159.67,3.96,-30.89,578,-4237,7122,0,0,-1
-159.68,3.96,-30.92,568,-4263,7047,-1,-1,-1
-159.67,3.95,-30.90,568,-4241,7117,-2,-1,0
-159.68,3.96,-30.92,569,-4256,7040,0,0,-1
-159.67,3.96,-30.91,580,-4259,7075,0,0,-1
-159.67,3.97,-30.91,596,-4246,7057,-1,-1,-1
-159.66,3.96,-30.90,582,-4249,7090,0,0,-1
-159.66,3.96,-30.90,586,-4233,7091,-1,0,-1
-159.66,3.94,-30.91,564,-4241,7072,-1,0,0
-159.67,3.94,-30.91,577,-4237,7093,-1,-1,0
-159.66,3.93,-30.91,556,-4243,7076,0,0,-1
-159.66,3.93,-30.93,560,-4251,7091,-1,-1,-1
-159.66,3.93,-30.94,551,-4260,7083,0,0,-1
-159.65,3.93,-30.93,567,-4245,7078,0,0,-1
-159.65,3.93,-30.92,564,-4239,7084,0,0,-1
-159.65,3.93,-30.93,571,-4243,7076,-1,0,-1
-159.64,3.94,-30.93,576,-4250,7076,-1,-1,-1
-159.64,3.94,-30.93,575,-4243,7077,0,0,-1
-159.64,3.94,-30.93,559,-4244,7089,-1,-1,-1
-159.64,3.94,-30.93,561,-4251,7076,0,-1,-1
-159.64,3.94,-30.93,564,-4259,7077,-1,-1,-1
-159.63,3.95,-30.93,570,-4256,7083,0,0,-1
-159.63,3.94,-30.93,566,-4245,7071,0,-1,-1
-159.63,3.95,-30.92,567,-4257,7070,0,-1,-1
-159.62,3.95,-30.91,568,-4250,7089,0,0,-1
-159.62,3.95,-30.90,565,-4237,7088,0,0,-1
-159.62,3.95,-30.90,556,-4231,7083,-1,-1,-1
-159.61,3.96,-30.90,561,-4238,7074,0,-1,-1
-159.60,3.96,-30.89,567,-4245,7074,0,-1,-1
-159.60,3.96,-30.89,571,-4244,7083,0,-1,-1
-159.60,3.96,-30.88,576,-4238,7081,0,0,-1
-159.60,3.96,-30.88,577,-4240,7080,-1,0,-1
-159.60,3.96,-30.88,577,-4238,7080,0,0,-1
-159.59,3.97,-30.88,577,-4238,7078,-1,0,-1
-159.59,3.96,-30.89,575,-4242,7079,0,0,-1
-159.59,3.96,-30.88,573,-4242,7087,0,0,-1
-159.58,3.96,-30.88,568,-4237,7085,0,0,-1
-159.58,3.96,-30.87,563,-4235,7095,0,0,-1
-159.58,3.95,-30.87,554,-4242,7085,0,0,-1
-159.58,3.95,-30.87,560,-4239,7086,0,0,-1
-159.58,3.96,-30.87,565,-4238,7076,0,0,-1
-159.57,3.96,-30.86,565,-4236,7082,0,0,-1
-159.57,3.96,-30.85,572,-4243,7087,0,0,-1
-159.57,3.95,-30.85,573,-4241,7089,0,0,-1
-159.56,3.95,-30.84,565,-4229,7086,0,-1,-1
-159.56,3.95,-30.84,562,-4233,7085,0,0,-1
-159.56,3.95,-30.84,570,-4229,7079,0,0,-1
-159.56,3.94,-30.83,571,-4220,7091,0,0,-1
-159.56,3.95,-30.83,577,-4224,7085,0,0,-1
-159.55,3.95,-30.82,576,-4226,7099,0,0,-1
-159.55,3.95,-30.82,572,-4222,7093,0,0,0
-159.55,3.94,-30.82,558,-4231,7083,0,-1,-1
-159.55,3.95,-30.82,567,-4239,7070,0,-1,-1
-159.55,3.95,-30.81,576,-4236,7087,0,0,-1
-159.55,3.95,-30.80,587,-4224,7102,0,-1,-1
-159.55,3.95,-30.79,581,-4224,7108,0,0,0
-159.54,3.95,-30.79,578,-4217,7101,0,0,0
-159.54,3.95,-30.78,570,-4220,7107,0,0,-1
-159.54,3.94,-30.78,560,-4218,7116,-1,0,-1
-159.55,3.93,-30.79,555,-4217,7113,-1,-1,0
-159.55,3.93,-30.79,543,-4232,7099,-1,-1,-1
-159.56,3.93,-30.80,552,-4246,7091,-1,-1,-1
-159.55,3.94,-30.80,558,-4245,7083,0,-1,-1
-159.55,3.94,-30.80,570,-4242,7086,0,-1,-1
-159.55,3.94,-30.80,575,-4240,7095,0,0,-1
-159.54,3.94,-30.79,579,-4230,7096,0,0,-1
-159.54,3.94,-30.77,572,-4215,7104,0,0,-1
-159.55,3.93,-30.77,573,-4214,7103,0,0,-1
-159.55,3.93,-30.77,563,-4215,7096,0,0,0
-159.55,3.92,-30.77,566,-4218,7100,-1,0,0
-159.55,3.92,-30.77,565,-4218,7111,-1,-1,0
-159.56,3.92,-30.78,564,-4224,7095,-1,-1,0
-159.55,3.92,-30.78,-1,-1,-1,0,-1,-1
-159.56,3.92,-30.78,564,-4228,7100,-1,-1,0
-159.56,3.92,-30.78,558,-4237,7092,-1,-1,-1
-159.56,3.92,-30.78,554,-4239,7082,-1,-1,-1
-159.55,3.93,-30.78,563,-4235,7089,0,0,-1
-159.55,3.93,-30.78,575,-4235,7096,0,0,-1
-159.55,3.93,-30.78,571,-4230,7106,0,0,-1
-159.55,3.92,-30.78,573,-4224,7100,0,0,0
-159.55,3.92,-30.78,573,-4230,7093,0,0,-1
-159.55,3.92,-30.78,561,-4228,7088,-1,0,0
-159.55,3.92,-30.77,553,-4220,7094,-1,0,0
-159.55,3.91,-30.77,554,-4224,7097,0,0,-1
-159.55,3.91,-30.77,563,-4223,7087,0,0,0
-159.55,3.91,-30.78,569,-4224,7082,-1,0,0
-159.55,3.91,-30.78,564,-4226,7089,-1,-1,-1
-159.55,3.91,-30.78,571,-4231,7093,-1,0,0
-159.55,3.91,-30.78,568,-4230,7100,0,0,0
-159.56,3.91,-30.78,562,-4227,7094,-1,-1,-1
-159.55,3.91,-30.78,560,-4219,7101,-1,0,-1
-159.56,3.90,-30.78,558,-4225,7103,-1,-1,-1
-159.56,3.91,-30.78,555,-4236,7105,0,-1,-1
-159.56,3.90,-30.78,560,-4227,7101,-1,0,0
-159.56,3.90,-30.78,564,-4223,7090,0,0,-1
-159.56,3.90,-30.78,558,-4222,7094,-1,-1,0
-159.57,3.91,-30.78,566,-4233,7083,0,-1,0
-159.57,3.91,-30.78,566,-4234,7105,0,-1,-1
-159.57,3.91,-30.78,554,-4228,7103,-1,-1,-1
-159.57,3.91,-30.78,552,-4230,7095,-1,-1,-1
-159.56,3.92,-30.78,552,-4222,7090,0,-1,-1
-159.56,3.92,-30.78,559,-4221,7092,0,-1,-1
-159.56,3.92,-30.78,567,-4222,7092,-1,-1,-1
-159.56,3.92,-30.78,572,-4225,7092,0,-1,-1
-159.55,3.92,-30.77,567,-4222,7102,0,0,-1
-159.55,3.92,-30.77,564,-4223,7101,0,-1,-1
-159.56,3.92,-30.78,563,-4232,7100,-1,-1,-1
-159.55,3.93,-30.78,567,-4237,7093,-1,-1,-1
-159.55,3.94,-30.77,558,-4241,7090,0,-1,-1
-159.55,3.94,-30.77,570,-4242,7103,0,-1,-1
-159.55,3.94,-30.77,583,-4233,7101,0,0,-1
-159.54,3.95,-30.76,583,-4227,7102,0,0,-1
-159.54,3.94,-30.76,570,-4223,7106,-1,0,0
-159.55,3.93,-30.77,559,-4221,7096,-1,0,0
-159.55,3.94,-30.77,549,-4223,7082,-1,-1,0
-159.55,3.94,-30.78,547,-4226,7093,-1,-1,-1
-159.56,3.94,-30.79,553,-4237,7085,-1,-1,-1
-159.56,3.95,-30.79,558,-4247,7086,0,-1,-1
-159.56,3.95,-30.79,567,-4244,7097,0,-1,-1
-159.55,3.96,-30.79,579,-4235,7085,0,0,-1
-159.55,3.96,-30.78,576,-4227,7088,0,0,0
-159.55,3.96,-30.78,580,-4222,7086,0,0,-1
-159.55,3.96,-30.77,577,-4225,7091,0,0,-1
-159.55,3.95,-30.76,561,-4216,7102,-1,-1,-1
-159.55,3.96,-30.77,554,-4214,7096,-1,-1,-1
-159.55,3.96,-30.77,558,-4219,7086,-1,-1,-1
-159.55,3.96,-30.78,564,-4225,7095,-1,-1,-1
-159.55,3.97,-30.78,569,-4226,7089,-1,-1,-1
-159.55,3.98,-30.78,573,-4236,7097,-1,-1,-1
-159.55,3.98,-30.78,577,-4240,7084,0,0,-1
-159.55,3.97,-30.78,568,-4241,7091,0,0,-1
-159.55,3.97,-30.78,564,-4240,7111,0,0,-1
-159.54,3.97,-30.78,569,-4231,7105,0,-1,-1
-159.54,3.98,-30.77,573,-4222,7110,-1,-1,-1
-159.54,3.98,-30.77,580,-4223,7101,0,-1,-1
-159.54,3.98,-30.77,588,-4224,7100,0,-1,-1
-159.54,3.98,-30.77,586,-4222,7095,-1,0,0
-159.54,3.98,-30.77,585,-4221,7092,-1,0,0
-159.54,3.98,-30.77,577,-4231,7094,-1,0,-1
-159.54,3.98,-30.77,571,-4230,7098,-1,0,0
-159.54,3.98,-30.77,569,-4229,7097,-1,-1,-1
-159.54,3.98,-30.78,564,-4234,7089,-1,-1,-1
-159.54,3.98,-30.77,562,-4232,7092,0,-1,-1
-159.54,3.98,-30.77,572,-4223,7092,0,-1,-1
-159.54,3.98,-30.77,573,-4217,7078,0,-1,-1
-159.54,3.98,-30.77,578,-4221,7074,0,-1,-1
-159.54,3.99,-30.77,587,-4219,7078,0,-1,-1
-159.54,3.99,-30.77,587,-4220,7099,0,0,-1
-159.53,3.99,-30.76,577,-4218,7101,-1,-1,-1
-159.53,3.99,-30.77,567,-4228,7096,-1,-1,-1
-159.53,4.00,-30.77,577,-4234,7082,0,-1,-1
-159.53,4.00,-30.77,578,-4225,7097,0,0,-1
-159.53,4.00,-30.77,578,-4220,7099,-1,-1,-1
-159.53,4.00,-30.77,582,-4227,7097,-1,-1,0
-159.53,4.00,-30.76,584,-4228,7098,0,0,-1
-159.53,4.00,-30.76,583,-4221,7089,0,0,-1
-159.53,4.00,-30.76,583,-4215,7099,0,0,-1
-159.53,4.00,-30.76,581,-4220,7094,-1,-1,-1
-159.53,4.00,-30.76,573,-4224,7091,-1,-1,-1
-159.53,4.00,-30.76,577,-4222,7094,0,-1,-1
-159.53,4.00,-30.76,580,-4219,7095,-1,-1,0
-159.52,4.01,-30.76,580,-4214,7094,-1,0,-1
-159.52,4.01,-30.76,575,-4223,7090,-1,-1,0
-159.53,4.00,-30.76,572,-4233,7083,-1,-1,-1
-159.53,4.00,-30.77,564,-4238,7081,0,-1,-1
-159.53,4.00,-30.77,572,-4241,7084,0,-1,-1
-159.52,4.01,-30.76,588,-4235,7087,0,-1,-1
-159.52,4.02,-30.75,594,-4230,7093,0,0,-1
-159.52,4.02,-30.74,587,-4218,7103,0,0,-1
-159.52,4.01,-30.75,579,-4212,7106,-1,0,0
-159.52,4.00,-30.75,572,-4210,7095,-1,0,0
-159.53,4.00,-30.76,561,-4209,7083,-1,-1,0
-159.53,4.00,-30.76,559,-4224,7087,-1,-1,0
-159.53,4.01,-30.77,567,-4236,7090,-1,-1,-1
-159.52,4.02,-30.77,576,-4242,7089,-1,-1,-1
-159.52,4.02,-30.77,573,-4241,7089,0,-1,-1
-159.52,4.03,-30.77,580,-4235,7080,0,-1,-1
-159.52,4.02,-30.77,592,-4228,7090,0,0,-1
-159.52,4.02,-30.75,600,-4220,7100,0,0,-1
-159.51,4.02,-30.75,595,-4218,7099,0,0,-1
-159.51,4.02,-30.74,587,-4216,7098,0,0,0
-159.52,4.01,-30.74,574,-4214,7091,-1,-1,0
-159.52,4.01,-30.74,574,-4215,7107,-1,-1,0
-159.52,4.01,-30.74,565,-4213,7105,-1,-1,-1
-159.52,4.02,-30.76,579,-4226,7084,-1,-1,-1
-159.52,4.02,-30.76,579,-4226,7080,-1,0,0
-159.52,4.02,-30.76,584,-4230,7085,0,0,-1
-159.52,4.02,-30.76,584,-4227,7095,-1,0,0
-159.53,4.01,-30.76,579,-4221,7098,-1,0,-1
-159.52,4.01,-30.76,573,-4226,7090,-1,0,-1
-159.52,4.00,-30.76,573,-4230,7082,0,0,-1
-159.52,3.99,-30.76,574,-4229,7097,-1,0,-1
-159.52,3.99,-30.76,576,-4229,7108,-1,0,0
-159.52,3.99,-30.76,567,-4227,7093,-1,0,0
-159.53,3.99,-30.77,568,-4225,7073,-1,-1,-1
-159.52,3.99,-30.78,573,-4223,7079,0,-1,-1
-159.53,4.00,-30.77,572,-4234,7078,0,-1,0
-159.52,3.99,-30.76,574,-4237,7096,0,0,-1
-159.52,3.99,-30.75,561,-4221,7103,0,0,-1
-159.52,3.98,-30.74,560,-4230,7101,0,0,-1
-159.52,3.98,-30.74,555,-4239,7103,0,0,-1
-159.52,3.98,-30.73,570,-4218,7115,0,0,-1
-159.52,3.98,-30.72,562,-4213,7115,-1,-1,0
-159.52,3.99,-30.73,577,-4208,7104,-1,0,-1
-159.52,3.98,-30.74,570,-4208,7099,-1,-1,0
-159.52,3.98,-30.74,578,-4214,7102,-1,0,-1
-159.52,3.98,-30.74,555,-4230,7095,-1,-1,0
-159.53,3.98,-30.75,564,-4236,7100,-1,0,-1
-159.53,3.97,-30.76,568,-4233,7087,-1,0,-1
-159.53,3.97,-30.75,558,-4239,7101,0,-1,0
-159.53,3.98,-30.76,588,-4229,7098,-1,0,0
-159.53,3.98,-30.76,582,-4251,7066,1,0,0
-159.54,3.96,-30.74,550,-4235,7122,-1,-1,0
-159.54,3.96,-30.75,572,-4230,7095,0,0,0
-159.54,3.96,-30.74,558,-4242,7087,0,-1,0
-159.54,3.95,-30.73,568,-4225,7091,-1,0,0
-159.54,3.95,-30.73,554,-4205,7083,0,-1,0
-159.54,3.95,-30.72,557,-4209,7108,-1,0,-1
-159.54,3.95,-30.73,561,-4207,7091,-1,0,-1
-159.55,3.94,-30.73,549,-4210,7113,-1,0,-1
-159.55,3.95,-30.73,564,-4217,7081,-1,-1,0
-159.55,3.95,-30.74,573,-4211,7079,-1,-1,0
-159.55,3.96,-30.74,582,-4220,7087,0,-1,0
-159.55,3.95,-30.74,581,-4219,7092,0,0,-1
-159.54,3.95,-30.73,566,-4212,7102,-1,-1,0
-159.55,3.95,-30.74,563,-4226,7095,0,0,-1
-159.55,3.94,-30.74,555,-4228,7098,0,0,-1
-159.55,3.93,-30.74,549,-4220,7114,-1,0,0
-159.56,3.92,-30.74,537,-4216,7104,-1,-1,0
-159.56,3.92,-30.75,546,-4223,7094,-1,-1,-1
-159.56,3.92,-30.75,558,-4229,7090,-1,-1,-1
-159.56,3.93,-30.75,571,-4231,7097,0,-1,0
-159.56,3.93,-30.75,570,-4226,7100,0,-1,0
-159.56,3.93,-30.75,576,-4225,7107,0,0,0
-159.56,3.92,-30.75,575,-4218,7104,0,0,0
-159.56,3.92,-30.75,565,-4221,7104,0,0,0
-159.57,3.91,-30.75,564,-4231,7098,0,0,0
-159.57,3.91,-30.74,565,-4225,7107,0,0,0
-159.58,3.90,-30.74,565,-4219,7102,-1,0,0
-159.58,3.90,-30.75,564,-4219,7101,-1,-1,0
-159.58,3.90,-30.75,569,-4215,7099,0,0,-1
-159.58,3.90,-30.75,563,-4219,7099,0,0,0
-159.58,3.90,-30.74,563,-4224,7098,-1,0,-1
-159.58,3.89,-30.75,559,-4222,7106,0,0,0
-159.58,3.89,-30.75,559,-4218,7109,0,0,0
-159.58,3.88,-30.74,548,-4221,7110,0,0,0
-159.58,3.88,-30.74,552,-4222,7102,-1,0,0
-159.58,3.88,-30.75,557,-4222,7099,-1,0,0
-159.58,3.87,-30.75,553,-4229,7086,0,0,-1
-159.59,3.87,-30.74,559,-4221,7086,0,0,0
-159.59,3.87,-30.74,547,-4229,7080,0,-1,0
-159.59,3.87,-30.74,568,-4233,7100,0,0,-1
-159.59,3.87,-30.74,560,-4227,7077,0,0,-1
-159.58,3.87,-30.73,551,-4214,7081,0,-1,-1
-159.59,3.87,-30.73,559,-4217,7091,-1,-1,0
-159.58,3.87,-30.73,562,-4242,7092,0,0,-1
-159.59,3.86,-30.72,533,-4219,7116,-1,-1,0
-159.59,3.87,-30.73,556,-4236,7089,-1,-1,0
-159.59,3.87,-30.73,536,-4256,7077,0,-1,-1
-159.59,3.87,-30.70,556,-4197,7091,0,0,0
-159.60,3.88,-30.70,554,-4198,7096,-1,-1,0
-159.60,3.89,-30.70,573,-4211,7129,0,-1,-1
-159.61,3.89,-30.71,563,-4212,7104,-1,-1,0
-159.61,3.90,-30.71,576,-4228,7097,0,0,-1
-159.60,3.90,-30.71,581,-4240,7090,-1,0,0
-159.60,3.89,-30.71,567,-4232,7076,0,0,-1
-159.60,3.87,-30.68,543,-4200,7110,-1,0,0
-159.61,3.87,-30.69,566,-4227,7077,0,0,0
-159.61,3.87,-30.67,550,-4228,7124,0,-1,0
-159.62,3.85,-30.65,551,-4219,7102,0,0,0
-159.62,3.85,-30.64,553,-4211,7104,0,0,0
-159.62,3.84,-30.64,568,-4201,7082,-1,0,0
-159.62,3.81,-30.62,544,-4237,7060,1,1,-1
-159.61,3.79,-30.58,560,-4250,7085,1,1,-1
-159.59,3.75,-30.53,556,-4238,7086,2,1,-1
-159.58,3.71,-30.46,538,-4217,7123,2,1,-1
-159.57,3.69,-30.41,537,-4182,7121,0,0,0
-159.56,3.67,-30.37,537,-4198,7115,2,1,0
-159.56,3.65,-30.32,506,-4156,7145,0,0,0
-159.56,3.64,-30.30,523,-4148,7121,0,0,-1
-159.56,3.62,-30.26,489,-4140,7166,0,-1,-1
-159.55,3.63,-30.26,535,-4148,7153,-1,0,0
-159.55,3.63,-30.26,523,-4183,7136,1,-1,-1
-159.54,3.64,-30.26,541,-4178,7113,-1,0,-1
-159.52,3.63,-30.23,536,-4179,7145,0,0,-1
-159.52,3.61,-30.23,545,-4181,7119,1,1,-1
-159.52,3.60,-30.20,519,-4157,7161,0,0,0
-159.52,3.60,-30.20,534,-4160,7137,-1,0,0
-159.51,3.58,-30.20,515,-4181,7130,0,0,-1
-159.51,3.57,-30.18,516,-4159,7134,0,0,-1
-159.50,3.56,-30.17,511,-4156,7131,0,0,-1
-159.50,3.55,-30.15,504,-4133,7145,-1,0,-1
-159.49,3.55,-30.14,514,-4145,7164,0,0,-1
-159.49,3.55,-30.15,508,-4157,7140,0,0,-1
-159.48,3.54,-30.15,509,-4145,7146,-1,0,0
-159.49,3.53,-30.14,508,-4155,7141,0,0,-1
-159.48,3.53,-30.13,497,-4134,7136,-1,-1,-1
-159.47,3.53,-30.14,497,-4154,7146,-1,0,-1
-159.47,3.53,-30.13,505,-4133,7149,-1,-1,0
-159.47,3.53,-30.13,507,-4138,7152,0,0,-1
-159.47,3.53,-30.14,515,-4163,7125,0,0,-1
-159.47,3.52,-30.14,527,-4160,7108,-1,0,0
-159.47,3.52,-30.13,519,-4150,7150,-1,-1,0
-159.47,3.51,-30.13,518,-4143,7138,0,0,-1
-159.47,3.51,-30.14,513,-4149,7129,-1,0,-1
-159.47,3.51,-30.13,521,-4144,7159,-1,0,-1
-159.47,3.50,-30.14,502,-4156,7156,0,0,-1
-159.47,3.49,-30.14,500,-4147,7138,-1,0,-1
-159.46,3.49,-30.14,504,-4138,7169,-1,0,-1
-159.46,3.49,-30.15,498,-4140,7150,0,0,-1
-159.46,3.49,-30.16,505,-4149,7163,-1,-1,0
-159.46,3.50,-30.18,509,-4164,7136,-1,-1,-1
-159.46,3.50,-30.19,506,-4167,7123,-1,0,-1
-159.46,3.49,-30.19,504,-4149,7134,-1,0,-1
-159.46,3.49,-30.20,503,-4149,7140,-1,0,-1
-159.46,3.48,-30.20,495,-4157,7139,-1,-1,-1
-159.46,3.48,-30.21,490,-4159,7141,-1,0,-1
-159.46,3.48,-30.23,491,-4154,7132,-1,-1,-1
-159.46,3.49,-30.23,497,-4161,7124,-1,-1,-1
-159.46,3.49,-30.25,506,-4170,7120,-1,0,-1
-159.45,3.49,-30.25,506,-4163,7129,-1,-1,-1
-159.45,3.49,-30.25,502,-4156,7124,-1,-1,-1
-159.46,3.50,-30.27,502,-4175,7119,-1,-1,-1
-159.46,3.50,-30.27,497,-4182,7119,0,-1,-1
-159.46,3.50,-30.27,505,-4179,7132,0,0,-1
-159.45,3.50,-30.26,507,-4169,7142,0,0,-1
-159.44,3.51,-30.25,507,-4158,7148,0,-1,-1
-159.44,3.51,-30.25,508,-4143,7144,-1,0,-1
-159.44,3.50,-30.25,500,-4147,7131,-1,0,-1
-159.44,3.50,-30.26,498,-4153,7127,-1,0,-1
-159.44,3.50,-30.26,494,-4163,7121,-1,-1,-1
-159.43,3.50,-30.27,490,-4172,7128,-1,-1,-1
-159.43,3.51,-30.27,499,-4173,7121,0,-1,-1
-159.42,3.52,-30.27,501,-4179,7120,0,-1,-1
-159.42,3.52,-30.27,504,-4177,7129,0,-1,-1
-159.41,3.52,-30.25,514,-4159,7129,0,-1,-1
-159.41,3.52,-30.25,521,-4167,7134,0,0,-1
-159.41,3.52,-30.24,515,-4164,7141,0,0,-1
-159.41,3.52,-30.23,508,-4149,7136,0,0,-1
-159.41,3.52,-30.23,499,-4140,7141,-1,-1,-1
-159.41,3.52,-30.23,503,-4149,7134,0,-1,-1
-159.41,3.53,-30.23,505,-4157,7132,-1,-1,-1
-159.41,3.53,-30.23,504,-4162,7129,-1,-1,-1
-159.41,3.53,-30.23,508,-4171,7132,0,-1,-1
-159.40,3.54,-30.23,513,-4172,7127,0,-1,-1
-159.40,3.54,-30.23,506,-4175,7133,0,0,-1
-159.40,3.54,-30.22,505,-4171,7140,0,-1,-1
-159.39,3.54,-30.22,512,-4169,7141,0,-1,-1
-159.38,3.55,-30.21,511,-4162,7141,0,-1,-1
-159.38,3.56,-30.21,517,-4157,7145,0,-1,-1
-159.37,3.56,-30.20,521,-4164,7144,0,-1,-1
-159.37,3.56,-30.20,520,-4159,7136,0,0,-1
-159.37,3.56,-30.20,515,-4161,7132,0,-1,-1
-159.37,3.56,-30.19,517,-4156,7135,0,0,-1
-159.37,3.56,-30.19,512,-4158,7138,0,0,-1
-159.37,3.56,-30.19,511,-4159,7141,0,0,-1
-159.37,3.56,-30.19,507,-4156,7141,-1,0,-1
-159.37,3.56,-30.19,511,-4157,7145,-1,0,-1
-159.37,3.55,-30.19,512,-4149,7139,-1,0,-1
-159.37,3.55,-30.19,510,-4140,7136,-1,0,-1
-159.36,3.54,-30.19,513,-4142,7138,-1,0,-1
-159.37,3.54,-30.19,510,-4138,7133,-1,0,-1
-159.36,3.53,-30.19,510,-4150,7134,0,0,0
-159.36,3.53,-30.20,514,-4166,7147,0,0,-1
-159.36,3.52,-30.19,510,-4161,7164,0,0,-1
-159.36,3.52,-30.19,502,-4150,7148,-1,0,-1
-159.36,3.52,-30.19,501,-4147,7143,-1,-1,-1
-159.36,3.52,-30.19,502,-4154,7142,0,0,-1
-159.35,3.52,-30.18,501,-4161,7140,0,0,-1
-159.35,3.52,-30.18,507,-4165,7128,0,0,-1
-159.35,3.51,-30.18,510,-4161,7140,0,0,-1
-159.35,3.51,-30.18,509,-4165,7137,0,0,-1
-159.35,3.51,-30.18,503,-4163,7140,0,0,-1
-159.35,3.50,-30.17,497,-4156,7143,0,0,-1
-159.35,3.50,-30.17,499,-4152,7145,-1,0,-1
-159.35,3.50,-30.17,497,-4143,7151,-1,-1,-1
-159.35,3.50,-30.17,496,-4154,7155,-1,0,-1
-159.35,3.50,-30.17,497,-4155,7142,-1,-1,-1
-159.35,3.50,-30.17,502,-4155,7138,0,-1,-1
-159.35,3.50,-30.17,507,-4155,7140,0,0,-1
-159.34,3.50,-30.17,510,-4150,7142,0,0,-1
-159.34,3.49,-30.16,505,-4143,7153,0,0,-1
-159.33,3.49,-30.15,503,-4148,7139,0,0,-1
-159.33,3.49,-30.15,500,-4146,7139,-1,0,0
-159.34,3.48,-30.16,494,-4149,7133,-1,0,0
-159.34,3.48,-30.17,485,-4152,7133,-1,-1,0
-159.34,3.48,-30.18,491,-4156,7128,-1,-1,0
-159.34,3.49,-30.18,504,-4169,7124,0,-1,-1
-159.34,3.49,-30.17,508,-4169,7135,0,-1,-1
-159.34,3.49,-30.17,506,-4167,7140,0,-1,-1
-159.34,3.49,-30.17,504,-4161,7139,0,-1,-1
-159.33,3.49,-30.17,505,-4155,7136,0,0,-1
-159.33,3.49,-30.16,510,-4143,7141,0,0,0
-159.33,3.49,-30.15,509,-4139,7144,-1,0,0
-159.34,3.48,-30.16,497,-4133,7142,-1,0,0
-159.35,3.47,-30.16,488,-4149,7143,-1,0,0
-159.35,3.47,-30.16,485,-4151,7154,-1,-1,0
-159.35,3.47,-30.17,488,-4156,7152,-1,-1,0
-159.35,3.47,-30.18,491,-4166,7146,-1,-1,-1
-159.35,3.47,-30.18,493,-4169,7149,0,0,-1
-159.35,3.47,-30.17,491,-4166,7147,0,0,-1
-159.35,3.46,-30.17,493,-4161,7154,0,0,-1
-159.34,3.46,-30.17,501,-4156,7147,0,0,-1
-159.34,3.46,-30.17,505,-4164,7144,0,0,-1
-159.34,3.46,-30.16,500,-4153,7147,-1,0,0
-159.34,3.46,-30.17,498,-4156,7147,-1,-1,0
-159.35,3.46,-30.17,501,-4147,7149,-1,0,0
-159.35,3.45,-30.17,510,-4151,7147,-1,0,0
-159.34,3.45,-30.17,508,-4153,7133,-1,0,0
-159.35,3.45,-30.18,498,-4153,7132,-1,0,0
-159.35,3.44,-30.18,493,-4162,7144,-1,0,0
-159.36,3.44,-30.19,496,-4167,7161,0,0,-1
-159.36,3.43,-30.18,491,-4157,7148,-1,0,0
-159.36,3.43,-30.18,483,-4159,7138,-1,-1,-1
-159.36,3.44,-30.18,487,-4163,7134,0,-1,-1
-159.36,3.43,-30.18,488,-4150,7139,0,-1,-1
-159.36,3.43,-30.18,500,-4149,7144,0,-1,-1
-159.36,3.43,-30.18,503,-4151,7137,-1,0,-1
-159.36,3.43,-30.18,502,-4144,7147,-1,0,0
-159.36,3.43,-30.18,495,-4160,7149,0,0,0
-159.36,3.43,-30.18,488,-4160,7153,-1,0,0
-159.37,3.42,-30.18,480,-4154,7155,-1,0,0
-159.37,3.42,-30.19,484,-4158,7150,-1,-1,-1
-159.37,3.42,-30.19,483,-4161,7142,-1,-1,-1
-159.37,3.42,-30.19,488,-4153,7136,-1,-1,-1
-159.37,3.42,-30.20,492,-4159,7139,-1,-1,-1
-159.37,3.43,-30.19,500,-4159,7144,-1,-1,-1
-159.37,3.43,-30.19,495,-4162,7140,0,0,-1
-159.37,3.43,-30.19,489,-4152,7151,0,0,0
-159.37,3.43,-30.19,493,-4147,7150,-1,-1,-1
-159.37,3.43,-30.19,495,-4157,7145,-1,-1,-1
-159.37,3.43,-30.20,493,-4157,7132,-1,-1,0
-159.36,3.44,-30.20,499,-4164,7138,0,-1,-1
-159.36,3.44,-30.19,496,-4152,7155,-1,-1,0
-159.36,3.44,-30.20,482,-4162,7150,-1,-1,-1
-159.36,3.44,-30.20,487,-4170,7144,0,-1,-1
-159.36,3.44,-30.20,492,-4169,7146,0,-1,-1
-159.36,3.45,-30.20,502,-4164,7141,0,-1,-1
-159.36,3.46,-30.19,520,-4164,7154,0,0,-1
-159.35,3.46,-30.18,520,-4152,7160,0,0,-1
-159.35,3.46,-30.18,503,-4146,7148,-1,0,-1
-159.35,3.45,-30.18,492,-4141,7152,-1,0,0
-159.36,3.45,-30.18,481,-4145,7145,-1,0,0
-159.36,3.44,-30.20,480,-4146,7131,-1,-1,-1
-159.36,3.45,-30.20,491,-4151,7132,-1,-1,-1
-159.36,3.46,-30.21,496,-4158,7132,-1,-1,-1
-159.36,3.46,-30.22,501,-4169,7120,0,-1,-1
-159.36,3.47,-30.22,508,-4167,7112,0,-1,-1
-159.35,3.47,-30.21,515,-4163,7122,0,0,0
-159.35,3.47,-30.20,509,-4152,7133,0,0,-1
-159.35,3.46,-30.19,502,-4150,7148,0,0,-1
-159.35,3.46,-30.18,491,-4150,7154,0,0,0
-159.35,3.46,-30.18,492,-4144,7155,-1,0,-1
-159.35,3.46,-30.18,492,-4145,7149,-1,-1,0
-159.35,3.46,-30.19,499,-4153,7145,-1,-1,-1
-159.35,3.47,-30.19,504,-4151,7149,-1,-1,-1
-159.35,3.47,-30.19,496,-4149,7144,-1,-1,-1
-159.35,3.47,-30.19,491,-4160,7128,-1,-1,-1
-159.35,3.47,-30.19,496,-4166,7131,-1,-1,-1
-159.35,3.47,-30.20,503,-4162,7132,-1,-1,-1
-159.34,3.48,-30.20,510,-4170,7135,-1,-1,-1
-159.34,3.48,-30.20,506,-4170,7133,-1,-1,-1
-159.34,3.48,-30.20,512,-4161,7129,-1,-1,-1
-159.34,3.48,-30.20,511,-4157,7133,0,0,-1
-159.34,3.48,-30.20,500,-4150,7147,-1,0,-1
-159.34,3.48,-30.21,503,-4155,7140,-1,0,-1
-159.34,3.48,-30.21,503,-4150,7133,-1,-1,-1
-159.34,3.48,-30.21,498,-4150,7129,-1,0,-1
-159.34,3.48,-30.21,500,-4155,7140,-1,0,-1
-159.34,3.48,-30.21,500,-4159,7134,-1,0,0
-159.34,3.48,-30.21,501,-4164,7128,0,0,0
-159.34,3.48,-30.21,497,-4159,7120,0,0,-1
-159.34,3.47,-30.21,496,-4156,7131,0,0,-1
-159.34,3.47,-30.21,500,-4155,7134,-1,-1,-1
-159.34,3.48,-30.21,500,-4151,7140,-1,-1,-1
-159.34,3.48,-30.21,505,-4148,7138,-1,-1,-1
-159.34,3.48,-30.21,502,-4163,7135,-1,-1,-1
-159.34,3.48,-30.21,503,-4156,7136,-1,0,-1
-159.34,3.48,-30.21,495,-4151,7142,-1,-1,-1
-159.34,3.48,-30.21,495,-4161,7134,-1,-1,-1
-159.34,3.48,-30.21,504,-4162,7135,-1,0,-1
-159.34,3.48,-30.21,503,-4157,7142,-1,0,-1
-159.34,3.48,-30.21,510,-4151,7136,-1,0,-1
-159.34,3.48,-30.22,505,-4155,7132,-1,-1,0
-159.34,3.47,-30.22,493,-4164,7132,-1,-1,0
-159.34,3.47,-30.22,500,-4162,7146,0,0,-1
-159.34,3.47,-30.22,496,-4149,7148,-1,0,-1
-159.34,3.47,-30.22,489,-4153,7133,-1,0,-1
-159.34,3.47,-30.22,494,-4162,7126,0,-1,-1
-159.34,3.47,-30.22,500,-4166,7136,0,-1,0
-159.34,3.48,-30.21,509,-4159,7138,0,-1,0
-159.34,3.48,-30.21,515,-4156,7143,0,0,0
-159.34,3.48,-30.19,509,-4149,7142,0,0,-1
-159.33,3.47,-30.19,503,-4148,7144,0,0,0
-159.34,3.46,-30.19,492,-4146,7136,-1,0,0
-159.34,3.46,-30.20,492,-4143,7123,-1,-1,-1
-159.34,3.46,-30.21,486,-4139,7126,-1,-1,0
-159.34,3.46,-30.22,481,-4146,7125,-1,-1,0
-159.35,3.46,-30.22,491,-4159,7129,-1,-1,0
-159.35,3.47,-30.23,491,-4179,7131,0,-1,-1
-159.35,3.47,-30.23,504,-4170,7135,0,-1,-1
-159.34,3.47,-30.22,501,-4165,7130,0,-1,-1
-159.34,3.48,-30.21,508,-4161,7122,0,0,-1
-159.34,3.47,-30.20,502,-4157,7132,0,0,-1
-159.33,3.48,-30.19,506,-4153,7139,0,0,0
-159.33,3.48,-30.19,510,-4152,7144,0,-1,0
-159.33,3.48,-30.19,507,-4147,7147,-1,-1,-1
-159.34,3.48,-30.19,499,-4143,7148,-1,-1,-1
-159.34,3.48,-30.20,490,-4153,7138,-1,-1,-1
-159.34,3.48,-30.21,484,-4158,7129,-1,-1,-1
-159.34,3.49,-30.21,493,-4165,7129,0,-1,-1
-159.34,3.50,-30.20,499,-4165,7137,0,-1,-1
-159.34,3.49,-30.19,503,-4155,7141,0,-1,-1
-159.33,3.50,-30.18,502,-4149,7138,0,0,-1
-159.33,3.50,-30.18,506,-4149,7139,0,-1,-1
-159.33,3.50,-30.18,510,-4145,7142,0,-1,-1
-159.33,3.51,-30.17,514,-4143,7148,0,-1,-1
-159.33,3.51,-30.17,512,-4137,7150,-1,-1,-1
-159.33,3.51,-30.17,510,-4140,7141,-1,0,-1
-159.33,3.51,-30.18,-258,-258,-258,-1,0,-2
-159.33,3.50,-30.19,501,-4145,7131,-1,0,-1
-159.33,3.50,-30.20,497,-4152,7134,-1,0,-1
-159.33,3.50,-30.20,501,-4163,7132,0,0,-1
-159.33,3.50,-30.20,496,-4163,7134,0,0,-1
-159.33,3.49,-30.19,491,-4160,7138,0,0,-1
-159.33,3.48,-30.19,493,-4150,7133,0,0,-1
-159.32,3.49,-30.18,494,-4165,7143,0,0,-1
-159.31,3.49,-30.18,493,-4157,7143,0,-1,-1
-159.31,3.49,-30.18,498,-4152,7145,0,0,-1
-159.30,3.49,-30.17,511,-4152,7155,0,0,-1
-159.30,3.49,-30.17,509,-4150,7146,0,0,-1
-159.30,3.49,-30.17,509,-4147,7148,0,0,0
-159.30,3.49,-30.17,504,-4151,7141,0,0,0
-159.31,3.48,-30.16,495,-4148,7139,-1,-1,0
-159.31,3.48,-30.16,503,-4156,7132,0,-1,0
-159.31,3.48,-30.16,502,-4146,7137,0,0,0
-159.31,3.48,-30.16,497,-4150,7136,0,0,-1
-159.31,3.47,-30.16,502,-4145,7136,-1,0,-1
-159.31,3.47,-30.16,501,-4149,7141,0,0,0
-159.31,3.47,-30.15,488,-4154,7145,0,-1,-1
-159.31,3.47,-30.15,486,-4159,7148,0,-1,-1
-159.31,3.47,-30.15,506,-4154,7148,0,-1,-1
-159.31,3.48,-30.15,509,-4157,7152,0,0,-1
-159.31,3.48,-30.14,513,-4145,7138,0,0,0
-159.31,3.47,-30.14,500,-4134,7156,-1,0,-1
-159.32,3.47,-30.13,448,-4078,7209,-1,-2,0
-159.36,3.51,-30.16,438,-4011,7267,-4,-4,1
-159.40,3.60,-30.27,476,-4123,7192,-4,-4,0
-159.43,3.68,-30.37,506,-4215,7109,-3,-4,0
-159.44,3.74,-30.44,549,-4267,7037,-1,-2,-1
-159.43,3.77,-30.46,590,-4295,7032,0,-1,-1
-159.41,3.78,-30.46,596,-4352,6987,2,1,-1
-159.39,3.74,-30.37,563,-4328,7005,4,2,-1
-159.36,3.70,-30.23,538,-4219,7108,4,1,-1
-159.35,3.67,-30.12,516,-4109,7194,2,-1,0
-159.37,3.68,-30.06,491,-4063,7208,1,-2,0
-159.40,3.71,-30.03,484,-4017,7236,0,-3,1
-159.44,3.78,-30.04,485,-3994,7244,-2,-5,1
-159.49,3.87,-30.11,535,-4048,7215,-3,-5,1
-159.54,3.94,-30.17,558,-4068,7203,-3,-4,1
-159.59,4.02,-30.27,558,-4126,7133,-4,-5,1
-159.63,4.09,-30.34,584,-4200,7096,-2,-3,1
-159.66,4.15,-30.38,617,-4216,7085,-2,-3,0
-159.69,4.16,-30.41,620,-4195,7054,0,-1,0
-159.70,4.17,-30.41,633,-4193,7107,-1,-2,0
-159.74,4.18,-30.45,628,-4216,7047,-1,-1,1
-159.75,4.16,-30.43,616,-4242,7097,1,1,0
-159.76,4.14,-30.41,601,-4202,7122,0,0,0
-159.76,4.12,-30.40,563,-4178,7145,0,0,0
-159.77,4.13,-30.40,578,-4174,7134,-1,-1,0
-159.77,4.12,-30.41,588,-4172,7117,-1,0,0
-159.78,4.11,-30.41,588,-4175,7112,-1,0,0
-159.78,4.11,-30.42,593,-4173,7125,-1,-1,0
-159.80,4.11,-30.42,604,-4164,7119,-1,-1,0
-159.80,4.10,-30.43,609,-4165,7116,-1,0,0
-159.81,4.10,-30.44,594,-4178,7121,-1,0,0
-159.82,4.10,-30.46,596,-4180,7112,-1,0,0
-159.83,4.09,-30.47,578,-4194,7108,-1,-1,0
-159.83,4.09,-30.47,594,-4199,7107,-1,0,-1
-159.83,4.08,-30.47,580,-4193,7096,0,0,0
-159.84,4.08,-30.47,588,-4190,7104,0,-1,0
-159.84,4.08,-30.46,591,-4184,7115,0,0,0
-159.85,4.08,-30.46,589,-4188,7125,-1,-1,0
-159.85,4.08,-30.46,590,-4190,7101,0,0,-1
-159.85,4.08,-30.46,577,-4172,7113,-1,-1,0
-159.86,4.08,-30.46,588,-4167,7118,-1,-1,0
-159.87,4.09,-30.47,595,-4175,7123,-1,-1,0
-159.87,4.10,-30.48,587,-4193,7125,-1,-1,0
-159.88,4.11,-30.49,585,-4193,7105,-1,-1,0
-159.88,4.12,-30.49,590,-4189,7105,0,-1,0
-159.89,4.13,-30.49,594,-4175,7134,-1,-1,0
-159.89,4.14,-30.50,619,-4182,7119,-1,-1,0
-159.89,4.14,-30.51,596,-4195,7103,-1,-1,0
-159.90,4.15,-30.51,606,-4208,7089,0,0,-1
-159.90,4.14,-30.51,587,-4205,7090,0,0,-1
-159.89,4.15,-30.50,584,-4197,7113,0,-1,-1
-159.89,4.16,-30.50,597,-4192,7104,0,-1,-1
-159.88,4.16,-30.49,606,-4192,7106,0,0,-1
-159.87,4.16,-30.48,609,-4193,7121,0,0,-1
-159.87,4.16,-30.47,613,-4183,7117,0,0,-1
-159.86,4.16,-30.47,604,-4165,7121,0,0,0
-159.87,4.16,-30.47,582,-4155,7116,-1,-1,0
-159.88,4.17,-30.47,574,-4165,7111,-1,-1,0
-159.89,4.18,-30.49,582,-4178,7118,-1,-1,0
-159.90,4.21,-30.50,579,-4188,7111,-1,-2,0
-159.90,4.23,-30.51,599,-4204,7106,-1,-1,-1
-159.89,4.25,-30.51,605,-4199,7112,0,-1,-1
-159.89,4.27,-30.51,619,-4190,7101,-1,-1,-1
-159.89,4.29,-30.52,639,-4196,7102,-1,-1,-1
-159.89,4.29,-30.52,633,-4198,7113,-1,-1,0
-159.89,4.29,-30.52,628,-4196,7115,0,0,0
-159.89,4.28,-30.51,613,-4191,7125,0,0,0
-159.90,4.27,-30.51,603,-4186,7113,-1,-1,0
-159.90,4.28,-30.51,604,-4181,7125,-1,-1,0
-159.90,4.29,-30.52,600,-4192,7118,-1,-1,0
-159.90,4.30,-30.53,596,-4206,7098,-1,-1,0
-159.91,4.31,-30.54,611,-4207,7098,0,-1,0
-159.91,4.31,-30.54,618,-4208,7102,0,-1,-1
-159.91,4.32,-30.53,626,-4208,7107,-1,-1,-1
-159.91,4.33,-30.53,622,-4192,7111,0,-1,0
-159.91,4.34,-30.52,620,-4176,7116,-1,-1,0
-159.92,4.36,-30.53,632,-4172,7122,-1,-1,0
-159.93,4.37,-30.55,639,-4180,7066,-1,-1,0
-159.94,4.36,-30.54,614,-4206,7093,0,-1,0
-159.94,4.38,-30.54,603,-4232,7137,0,-1,0
-159.94,4.41,-30.54,614,-4219,7128,-1,-2,-1
-159.94,4.43,-30.54,637,-4181,7088,0,-1,-1
-159.93,4.45,-30.54,642,-4186,7063,0,-1,-1
-159.92,4.45,-30.53,652,-4210,7091,0,-1,-1
-159.92,4.47,-30.52,661,-4206,7100,0,-1,-1
-159.92,4.46,-30.50,651,-4187,7116,0,-1,-1
-159.92,4.47,-30.49,653,-4176,7134,-1,-1,0
-159.92,4.47,-30.49,646,-4180,7132,-1,-1,0
-159.92,4.48,-30.50,640,-4189,7124,-1,-1,-1
-159.92,4.49,-30.50,639,-4185,7115,0,-1,-1
-159.91,4.50,-30.49,645,-4171,7110,-1,-1,-1
-159.91,4.51,-30.50,651,-4174,7098,-1,-1,-1
-159.91,4.52,-30.50,657,-4184,7120,-1,-1,-1
-159.92,4.53,-30.50,659,-4197,7129,-1,-1,0
-159.91,4.54,-30.51,656,-4187,7121,-1,-1,0
-159.92,4.54,-30.52,650,-4191,7107,-1,-1,-1
-159.92,4.55,-30.51,645,-4197,7102,-1,-1,-1
-159.92,4.55,-30.52,648,-4185,7103,0,-1,-1
-159.92,4.57,-30.52,654,-4187,7097,-1,-1,0
-159.93,4.57,-30.52,650,-4191,7102,0,-1,-1
-159.93,4.57,-30.52,649,-4197,7115,0,-1,-1
-159.92,4.58,-30.52,659,-4186,7110,-1,-1,-1
-159.92,4.58,-30.52,657,-4185,7112,0,-1,-1
-159.92,4.59,-30.52,659,-4180,7104,-1,-1,-1
-159.92,4.60,-30.53,662,-4191,7101,-1,-1,-1
-159.92,4.61,-30.53,664,-4202,7093,0,-1,-1
-159.92,4.61,-30.53,654,-4208,7099,0,-1,-1
-159.92,4.62,-30.53,662,-4212,7113,0,-1,-1
-159.92,4.62,-30.53,671,-4204,7108,0,-1,-1
-159.91,4.63,-30.52,675,-4191,7108,0,0,-1
-159.91,4.63,-30.52,678,-4181,7108,-1,0,0
-159.91,4.63,-30.52,670,-4178,7103,-1,-1,0
-159.92,4.62,-30.53,662,-4183,7097,-1,0,0
-159.92,4.62,-30.54,660,-4185,7095,-1,-1,-1
-159.92,4.63,-30.54,664,-4189,7096,-1,-1,0
-159.92,4.63,-30.55,663,-4200,7092,-1,-1,0
-159.93,4.64,-30.57,665,-4212,7097,-1,-1,0
-159.93,4.65,-30.57,670,-4219,7100,-1,-1,-1
-159.93,4.66,-30.57,672,-4220,7098,0,-1,-1
-159.93,4.66,-30.57,683,-4207,7086,0,-1,-1
-159.92,4.66,-30.55,681,-4195,7092,0,0,-1
-159.92,4.66,-30.55,667,-4194,7104,-1,-1,0
-159.93,4.66,-30.55,667,-4189,7093,0,-1,-1
-159.93,4.67,-30.55,666,-4185,7101,-1,-1,0
-159.92,4.67,-30.55,661,-4191,7107,-1,-1,-1
-159.93,4.68,-30.56,657,-4190,7108,-1,-1,0
-159.94,4.69,-30.57,677,-4191,7101,-1,-1,0
-159.93,4.70,-30.57,686,-4198,7103,-1,-1,0
-159.94,4.70,-30.58,693,-4196,7083,-1,-1,0
-159.94,4.70,-30.58,687,-4198,7092,0,0,-1
-159.94,4.70,-30.58,683,-4208,7099,-1,-1,0
-159.94,4.70,-30.58,671,-4204,7098,0,-1,-1
-159.94,4.71,-30.58,680,-4195,7092,-1,-1,-1
-159.94,4.71,-30.57,688,-4189,7104,-1,-1,-1
-159.93,4.72,-30.58,691,-4188,7097,-1,-1,0
-159.93,4.72,-30.58,700,-4193,7096,0,0,-1
-159.93,4.72,-30.57,690,-4185,7104,0,0,0
-159.94,4.71,-30.58,679,-4200,7106,-1,-1,0
-159.94,4.71,-30.58,678,-4209,7115,-1,0,0
-159.94,4.71,-30.58,666,-4209,7097,0,0,-1
-159.94,4.71,-30.57,669,-4196,7095,0,0,-1
-159.94,4.70,-30.57,671,-4189,7112,-1,-1,0
-159.95,4.71,-30.57,671,-4193,7107,-1,-1,0
-159.95,4.71,-30.57,685,-4197,7113,-1,0,-1
-159.94,4.71,-30.57,683,-4199,7103,-1,0,-1
-159.94,4.71,-30.57,675,-4195,7105,-1,0,-1
-159.94,4.71,-30.57,677,-4186,7109,-1,-1,0
-159.95,4.70,-30.58,678,-4195,7106,-1,0,0
-159.95,4.70,-30.58,678,-4197,7108,0,0,-1
-159.95,4.70,-30.58,680,-4189,7107,0,0,0
-159.95,4.70,-30.58,683,-4181,7100,-1,0,0
-159.95,4.70,-30.58,673,-4188,7102,-1,0,0
-159.96,4.69,-30.59,678,-4199,7088,-1,0,0
-159.96,4.68,-30.58,665,-4205,7097,0,0,-1
-159.96,4.68,-30.58,664,-4199,7111,0,0,-1
-159.95,4.67,-30.58,662,-4204,7111,-1,0,-1
-159.95,4.67,-30.58,670,-4210,7107,0,0,-1
-159.95,4.67,-30.58,675,-4192,7108,0,0,-1
-159.95,4.67,-30.58,677,-4189,7096,-1,0,-1
-159.95,4.67,-30.58,678,-4188,7089,-1,0,0
-159.95,4.66,-30.59,669,-4196,7072,-1,0,-1
-159.95,4.66,-30.60,668,-4210,7085,0,0,-1
-159.95,4.65,-30.59,674,-4204,7097,-1,0,-1
-159.95,4.64,-30.59,674,-4200,7109,0,0,-1
-159.95,4.64,-30.59,683,-4201,7122,-1,0,-1
-159.95,4.64,-30.59,676,-4188,7121,-1,0,-1
-159.94,4.63,-30.59,674,-4187,7102,-1,0,-1
-159.95,4.62,-30.59,664,-4189,7098,-1,0,0
-159.95,4.61,-30.59,656,-4189,7110,-1,0,0
-159.95,4.60,-30.60,644,-4199,7106,-1,0,0
-159.95,4.60,-30.60,649,-4203,7101,-1,-1,-1
-159.95,4.60,-30.61,657,-4206,7101,-1,0,-1
-159.95,4.59,-30.61,655,-4206,7096,0,0,-1
-159.95,4.59,-30.61,661,-4199,7111,-1,0,0
-159.96,4.59,-30.61,663,-4204,7099,0,0,0
-159.95,4.58,-30.61,669,-4198,7106,-1,0,0
-159.95,4.58,-30.61,662,-4199,7101,-1,0,0
-159.96,4.57,-30.62,655,-4203,7082,-1,0,0
-159.96,4.57,-30.62,656,-4193,7093,-1,0,0
-159.96,4.56,-30.63,654,-4190,7094,-1,-1,0
-159.97,4.57,-30.64,655,-4204,7100,-1,-1,0
-159.97,4.56,-30.65,662,-4208,7079,-1,0,0
-159.97,4.56,-30.65,658,-4209,7091,-1,0,0
-159.97,4.57,-30.64,660,-4201,7097,-1,0,-1
-159.97,4.57,-30.65,650,-4202,7098,-1,-1,0
-159.97,4.57,-30.66,642,-4214,7094,-1,-1,0
-159.98,4.57,-30.67,650,-4215,7083,0,-1,-1
-159.98,4.57,-30.66,649,-4216,7083,0,-1,-1
-159.98,4.57,-30.66,657,-4209,7087,0,0,-1
-159.98,4.57,-30.66,664,-4202,7095,0,-1,0
-159.98,4.58,-30.66,665,-4204,7091,0,-1,-1
-159.98,4.58,-30.65,657,-4203,7102,0,0,0
-159.98,4.58,-30.65,661,-4196,7113,-1,0,-1
-159.98,4.58,-30.65,653,-4194,7098,-1,-1,0
-159.98,4.58,-30.66,651,-4214,7076,0,-1,-1
-159.97,4.59,-30.66,658,-4212,7105,-1,-1,-1
-159.97,4.59,-30.65,650,-4207,7095,0,-1,-1
-159.97,4.60,-30.65,653,-4203,7098,-1,-1,-1
-159.98,4.60,-30.65,660,-4203,7086,-1,-1,-1
-159.98,4.60,-30.65,659,-4210,7081,0,-1,-1
-159.98,4.61,-30.65,669,-4214,7097,0,-1,-1
-159.98,4.61,-30.64,666,-4207,7098,0,-1,-1
-159.97,4.62,-30.64,669,-4207,7092,-1,-1,0
-159.97,4.62,-30.64,667,-4206,7085,0,-1,-1
-159.97,4.62,-30.65,662,-4205,7089,-1,-1,0
-159.97,4.62,-30.65,661,-4207,7099,0,-1,-1
-159.97,4.63,-30.64,665,-4199,7104,-1,-1,-1
-159.98,4.63,-30.65,663,-4203,7101,-1,-1,0
-159.98,4.63,-30.65,661,-4209,7098,0,-1,-1
-159.98,4.63,-30.65,666,-4204,7098,0,-1,-1
-159.97,4.64,-30.65,665,-4202,7100,-1,-1,0
-159.97,4.64,-30.65,666,-4208,7087,-1,-1,-1
-159.97,4.64,-30.65,655,-4214,7092,0,-1,-1
-159.97,4.65,-30.64,669,-4208,7096,0,-1,-1
-159.97,4.65,-30.63,675,-4214,7114,0,-1,-1
-159.97,4.65,-30.63,691,-4206,7109,0,-1,-1
-159.97,4.66,-30.62,689,-4196,7117,0,0,0
-159.97,4.66,-30.63,677,-4197,7098,-1,0,0
-159.97,4.65,-30.63,674,-4196,7101,-1,-1,0
-159.97,4.65,-30.63,658,-4200,7089,-1,0,0
-159.98,4.64,-30.64,646,-4197,7094,-1,-1,-1
-159.98,4.65,-30.64,656,-4207,7087,-1,-1,-1
-159.97,4.66,-30.65,665,-4211,7082,-1,-1,-1
-159.97,4.66,-30.65,678,-4213,7085,-1,-1,-1
-159.97,4.67,-30.65,690,-4219,7082,0,0,-1
-159.96,4.67,-30.64,685,-4213,7079,0,0,-1
-159.96,4.67,-30.63,689,-4202,7093,0,0,-1
-159.96,4.66,-30.62,677,-4195,7108,0,0,-1
-159.96,4.65,-30.63,671,-4194,7106,-1,0,0
-159.96,4.65,-30.63,660,-4189,7102,-1,0,-1
-159.96,4.64,-30.63,663,-4195,7111,-1,0,-1
-159.96,4.65,-30.65,680,-4200,7111,-1,0,0
-159.97,4.64,-30.65,678,-4199,7104,-1,-1,0
-159.97,4.65,-30.67,685,-4209,7087,-1,-1,0
-159.98,4.65,-30.68,673,-4205,7093,-1,0,-1
-159.98,4.65,-30.68,674,-4223,7094,-1,-1,0
-159.98,4.65,-30.69,679,-4221,7091,-1,0,0
-159.98,4.64,-30.68,659,-4211,7099,0,0,-1
-159.98,4.64,-30.68,657,-4210,7105,-1,-1,0
-159.98,4.64,-30.69,684,-4207,7090,-1,0,-1
-159.98,4.64,-30.68,679,-4210,7108,0,0,-1
-159.98,4.63,-30.68,675,-4197,7090,-1,0,0
-159.98,4.63,-30.67,652,-4195,7104,0,0,0
-159.99,4.63,-30.68,660,-4199,7095,-1,-1,0
-159.99,4.63,-30.69,675,-4201,7092,-1,0,-1
-159.99,4.63,-30.69,672,-4203,7096,0,0,0
-160.00,4.62,-30.70,647,-4219,7076,-1,-1,0
-159.99,4.62,-30.70,667,-4219,7086,-1,0,-1
-159.99,4.62,-30.70,667,-4226,7080,0,0,-1
-159.98,4.62,-30.68,654,-4210,7100,0,-1,-1
-159.98,4.62,-30.68,662,-4204,7105,-1,0,-1
-159.98,4.61,-30.68,660,-4212,7085,0,0,-1
-159.97,4.62,-30.67,655,-4216,7096,0,-1,-1
-159.97,4.62,-30.66,656,-4218,7103,0,-1,-1
-159.97,4.62,-30.65,659,-4201,7096,0,-1,-1
-159.97,4.62,-30.64,658,-4192,7096,0,-1,-1
-159.96,4.63,-30.64,664,-4197,7099,0,-1,-1
-159.96,4.63,-30.64,661,-4206,7108,-1,-1,-1
-159.96,4.63,-30.64,665,-4203,7104,0,-1,-1
-159.96,4.63,-30.64,664,-4200,7106,-1,-1,-1
-159.96,4.64,-30.65,664,-4210,7095,-1,-1,-1
-159.96,4.64,-30.65,672,-4220,7093,0,0,-1
-159.95,4.64,-30.64,671,-4205,7099,0,-1,-1
-159.95,4.65,-30.63,670,-4195,7105,0,-1,-1
-159.94,4.65,-30.62,666,-4189,7105,0,-1,-1
-159.94,4.65,-30.62,673,-4195,7106,-1,-1,-1
-159.94,4.65,-30.62,671,-4203,7100,0,-1,-1
-159.93,4.66,-30.62,670,-4206,7101,0,-1,-1
-159.93,4.67,-30.61,681,-4201,7102,0,-1,-1
-159.93,4.66,-30.61,686,-4198,7106,0,0,-1
-159.93,4.66,-30.60,689,-4195,7121,-1,-1,0
-159.93,4.66,-30.61,675,-4201,7107,-1,0,0
-159.93,4.65,-30.61,661,-4197,7094,-1,0,-1
-159.94,4.65,-30.62,645,-4195,7091,-1,-1,-1
-159.94,4.64,-30.62,642,-4206,7096,-1,-1,-1
-159.94,4.65,-30.62,642,-4211,7095,-1,-1,-1
-159.94,4.66,-30.62,661,-4215,7083,0,-1,-1
-159.94,4.67,-30.62,672,-4219,7087,0,-1,-1
-159.94,4.67,-30.62,678,-4216,7090,0,0,-1
-159.93,4.67,-30.60,689,-4206,7101,0,0,-1
