Yaw,Pitch,Roll,AX,AY,AZ,GX,GY,GZ
-159.46,6.12,-30.21,887,-4146,7121,0,-1,-1
-159.46,6.12,-30.21,889,-4150,7118,0,0,-1
-159.46,6.12,-30.21,896,-4149,7114,0,-1,-1
-159.46,6.13,-30.20,886,-4135,7106,0,0,-1
-159.46,6.13,-30.20,890,-4130,7099,-1,-1,-1
-159.45,6.13,-30.20,890,-4143,7107,0,0,-1
-159.45,6.13,-30.20,885,-4142,7114,0,0,-1
-159.45,6.12,-30.19,879,-4140,7120,0,0,-1
-159.45,6.12,-30.20,877,-4142,7109,-1,-1,-1
-159.44,6.12,-30.20,878,-4148,7105,0,0,-1
-159.44,6.12,-30.20,881,-4147,7102,0,0,-1
-159.44,6.12,-30.19,886,-4140,7103,0,0,-1
-159.44,6.12,-30.18,886,-4134,7111,0,0,-1
-159.44,6.12,-30.18,884,-4132,7116,0,0,-1
-159.43,6.12,-30.18,885,-4131,7104,0,0,-1
-159.43,6.12,-30.17,877,-4132,7107,0,0,-1
-159.43,6.12,-30.17,876,-4135,7113,0,-1,-1
-159.43,6.12,-30.17,884,-4135,7111,0,-1,-1
-159.43,6.13,-30.16,901,-4134,7115,0,0,-1
-159.42,6.12,-30.16,907,-4128,7115,0,0,0
-159.42,6.12,-30.16,902,-4124,7111,-1,0,0
-159.42,6.11,-30.16,878,-4122,7112,-1,0,0
-159.43,6.10,-30.16,868,-4124,7105,-1,0,-1
-159.43,6.10,-30.16,862,-4131,7101,-1,-1,-1
-159.43,6.11,-30.17,861,-4138,7110,-1,-1,-1
-159.42,6.11,-30.17,878,-4137,7109,-1,-1,-1
-159.42,6.12,-30.17,891,-4148,7114,0,-1,-1
-159.42,6.12,-30.16,896,-4141,7116,0,0,-1
-159.42,6.12,-30.16,892,-4136,7097,0,0,-1
-159.41,6.12,-30.15,893,-4127,7096,0,0,0
-159.41,6.11,-30.15,893,-4128,7101,0,0,0
-159.41,6.10,-30.14,889,-4125,7106,0,0,0
-159.41,6.10,-30.14,876,-4133,7118,0,0,0
-159.41,6.10,-30.14,864,-4139,7112,-1,0,-1
-159.41,6.10,-30.14,874,-4142,7113,0,0,-1
-159.41,6.10,-30.14,872,-4137,7118,-1,-1,-1
-159.41,6.10,-30.15,870,-4134,7108,-1,0,-1
-159.41,6.10,-30.15,874,-4130,7103,-1,0,-1
-159.41,6.10,-30.15,879,-4138,7096,0,0,-1
-159.41,6.09,-30.14,886,-4134,7109,0,0,-1
-159.41,6.09,-30.14,878,-4133,7104,0,0,-1
-159.41,6.09,-30.14,878,-4135,7112,0,0,-1
-159.41,6.08,-30.14,878,-4138,7117,0,0,-1
-159.41,6.08,-30.14,881,-4133,7116,-1,0,-1
-159.41,6.08,-30.14,875,-4127,7114,-1,0,-1
-159.41,6.07,-30.14,881,-4126,7100,-1,0,0
-159.41,6.07,-30.14,880,-4146,7106,0,0,0
-159.41,6.06,-30.14,880,-4150,7109,0,0,0
-159.42,6.06,-30.14,863,-4127,7122,-1,-1,-1
-159.42,6.06,-30.14,862,-4131,7119,0,0,-1
-159.41,6.06,-30.13,879,-4140,7112,-1,0,-1
-159.41,6.06,-30.13,878,-4131,7117,0,0,-1
-159.41,6.05,-30.14,879,-4124,7115,-1,0,0
-159.41,6.05,-30.14,885,-4128,7107,0,0,0
-159.41,6.05,-30.14,876,-4133,7109,0,0,-1
-159.41,6.05,-30.14,866,-4132,7111,0,0,0
-159.41,6.04,-30.14,869,-4127,7113,-1,0,0
-159.41,6.04,-30.14,860,-4125,7121,-1,0,-1
-159.41,6.04,-30.14,864,-4138,7122,-1,-1,-1
-159.41,6.04,-30.15,867,-4146,7109,-1,-1,-1
-159.42,6.04,-30.16,868,-4151,7116,0,-1,0
-159.42,6.04,-30.15,861,-4151,7115,0,-1,-1
-159.41,6.05,-30.15,877,-4142,7114,0,0,-1
-159.41,6.05,-30.15,876,-4140,7100,0,0,-1
-159.41,6.05,-30.14,874,-4131,7111,0,-1,-1
-159.41,6.05,-30.14,876,-4132,7099,0,-1,-1
-159.41,6.05,-30.14,872,-4130,7115,0,0,-1
-159.41,6.05,-30.14,870,-4129,7105,-1,0,-1
-159.41,6.05,-30.14,860,-4120,7127,-1,-1,-1
-159.40,6.05,-30.14,863,-4124,7110,0,0,-1
-159.40,6.05,-30.14,869,-4126,7114,-1,-1,-1
-159.40,6.07,-30.14,887,-4128,7119,0,-1,-1
-159.40,6.08,-30.15,905,-4138,7109,-1,-1,0
-159.40,6.08,-30.15,881,-4138,7100,-1,0,0
-159.40,6.07,-30.15,882,-4138,7098,0,0,0
-159.40,6.07,-30.16,881,-4130,7088,-1,0,0
-159.41,6.06,-30.16,867,-4132,7121,0,-1,0
-159.41,6.06,-30.16,861,-4139,7099,0,-1,-1
-159.41,6.06,-30.16,853,-4136,7089,0,-1,-1
-159.41,6.07,-30.15,860,-4142,7100,0,-1,-1
-159.40,6.07,-30.14,879,-4136,7119,0,0,-1
-159.39,6.08,-30.13,894,-4126,7125,-1,0,-1
-159.39,6.09,-30.13,889,-4130,7113,0,0,-1
-159.39,6.09,-30.13,898,-4127,7112,-1,0,0
-159.40,6.08,-30.13,887,-4114,7107,-1,0,0
-159.41,6.07,-30.13,869,-4109,7118,-1,-1,0
-159.41,6.07,-30.14,866,-4124,7097,-1,-1,0
-159.41,6.07,-30.14,867,-4138,7130,0,0,-1
-159.41,6.08,-30.15,862,-4139,7120,-1,-1,-1
-159.40,6.08,-30.14,862,-4136,7119,0,-1,-1
-159.40,6.09,-30.14,877,-4137,7115,0,-1,-1
-159.39,6.10,-30.14,887,-4132,7114,0,0,-1
-159.39,6.10,-30.13,889,-4129,7113,-1,-1,-1
-159.39,6.10,-30.14,883,-4139,7097,0,0,0
-159.40,6.10,-30.13,882,-4137,7102,0,0,0
-159.40,6.10,-30.13,883,-4136,7123,0,-1,0
-159.40,6.10,-30.12,883,-4125,7127,-1,-1,0
-159.40,6.10,-30.13,879,-4132,7129,-1,-1,0
-159.40,6.10,-30.13,883,-4142,7115,-1,-1,-1
-159.40,6.11,-30.13,872,-4137,7118,0,-1,-1
-159.40,6.10,-30.13,876,-4128,7118,-1,-1,0
-159.40,6.10,-30.13,874,-4128,7118,-1,0,0
-159.40,6.10,-30.13,879,-4131,7121,-1,-1,0
-159.40,6.10,-30.13,877,-4133,7127,0,0,0
-159.40,6.10,-30.13,878,-4132,7128,-1,-1,-1
-159.40,6.10,-30.13,880,-4137,7115,0,-1,-1
-159.40,6.10,-30.13,881,-4131,7099,0,-1,-1
-159.40,6.11,-30.13,886,-4130,7105,0,0,0
-159.40,6.11,-30.13,886,-4125,7103,0,0,-1
-159.40,6.11,-30.14,882,-4128,7107,-1,-1,0
-159.40,6.11,-30.15,882,-4137,7100,0,0,-1
-159.41,6.11,-30.15,882,-4141,7125,-1,-1,0
-159.41,6.11,-30.15,872,-4141,7113,0,-1,-1
-159.41,6.11,-30.15,869,-4140,7110,-1,-1,-1
-159.41,6.12,-30.15,876,-4149,7103,0,-1,-1
-159.41,6.12,-30.14,879,-4139,7111,0,-1,-1
-159.40,6.13,-30.14,895,-4134,7106,0,-1,-1
-159.40,6.13,-30.14,909,-4129,7102,0,0,-1
-159.40,6.13,-30.14,904,-4128,7111,0,0,0
-159.40,6.13,-30.14,889,-4132,7108,0,0,0
-159.41,6.12,-30.14,883,-4131,7113,-1,0,0
-159.41,6.12,-30.14,876,-4139,7116,-1,-1,0
-159.40,6.13,-30.14,887,-4136,7125,0,-1,-1
-159.40,6.13,-30.14,890,-4135,7119,-1,-1,-1
-159.40,6.13,-30.14,893,-4132,7121,-1,0,0
-159.40,6.13,-30.14,885,-4128,7111,-1,0,0
-159.41,6.13,-30.15,880,-4132,7104,-1,0,0
-159.42,6.12,-30.16,867,-4137,7096,-1,0,0
-159.42,6.12,-30.16,865,-4148,7111,0,-1,-1
-159.41,6.13,-30.16,870,-4149,7117,0,-1,-1
-159.41,6.13,-30.16,888,-4146,7117,0,-1,-1
-159.40,6.14,-30.16,903,-4148,7118,-1,-1,-1
-159.40,6.15,-30.16,910,-4136,7104,0,0,-1
-159.40,6.15,-30.15,909,-4127,7107,-1,0,0
-159.40,6.15,-30.15,906,-4132,7112,0,0,0
-159.40,6.14,-30.14,897,-4124,7122,-1,0,0
-159.41,6.14,-30.14,884,-4117,7119,-1,0,0
-159.41,6.14,-30.15,874,-4125,7116,-1,-1,-1
-159.41,6.14,-30.16,873,-4131,7119,-1,-1,-1
-159.41,6.15,-30.16,879,-4138,7116,-1,-1,-1
-159.41,6.15,-30.16,888,-4135,7110,-1,-1,-1
-159.41,6.15,-30.17,891,-4134,7088,0,0,-1
-159.41,6.15,-30.17,902,-4136,7099,-1,-1,0
-159.41,6.15,-30.16,909,-4143,7114,0,0,-1
-159.41,6.15,-30.16,899,-4142,7128,-1,0,0
-159.41,6.15,-30.16,888,-4135,7116,-1,-1,0
-159.41,6.15,-30.16,886,-4129,7115,0,-1,0
-159.41,6.16,-30.16,886,-4128,7123,-1,-1,0
-159.42,6.16,-30.17,890,-4134,7115,-1,-1,0
-159.42,6.17,-30.18,898,-4138,7111,-1,-1,0
-159.42,6.16,-30.18,897,-4133,7110,-1,0,0
-159.42,6.16,-30.18,894,-4134,7113,-1,0,0
-159.43,6.16,-30.18,892,-4134,7124,-1,0,0
-159.43,6.16,-30.18,882,-4144,7118,-1,-1,0
-159.43,6.16,-30.19,882,-4148,7104,0,-1,-1
-159.43,6.16,-30.19,885,-4146,7111,0,-1,0
-159.43,6.17,-30.19,897,-4136,7098,-1,-1,0
-159.43,6.17,-30.20,901,-4133,7105,-1,0,-1
-159.43,6.17,-30.20,901,-4142,7091,-1,-1,0
-159.44,6.17,-30.21,903,-4151,7102,0,0,0
-159.44,6.17,-30.21,899,-4138,7118,-1,0,0
-159.45,6.17,-30.21,886,-4137,7120,-1,-1,0
-159.45,6.17,-30.21,890,-4141,7109,-1,-1,0
-159.44,6.18,-30.21,890,-4147,7110,0,-1,-1
-159.44,6.18,-30.22,892,-4139,7108,-1,0,-1
-159.44,6.18,-30.22,887,-4134,7102,-1,-1,0
-159.45,6.18,-30.23,887,-4137,7092,0,-1,0
-159.45,6.19,-30.22,892,-4144,7091,0,-1,-1
-159.45,6.19,-30.22,898,-4142,7110,0,-1,-1
-159.45,6.20,-30.22,904,-4139,7112,0,0,-1
-159.45,6.20,-30.22,908,-4135,7113,0,0,0
-159.45,6.19,-30.21,908,-4125,7104,0,0,-1
-159.44,6.18,-30.21,893,-4132,7103,0,0,-1
-159.45,6.17,-30.21,880,-4126,7105,-1,0,-1
-159.45,6.17,-30.21,876,-4134,7106,-1,0,-1
-159.45,6.17,-30.22,876,-4145,7109,-1,-1,-1
-159.44,6.17,-30.22,882,-4155,7114,0,-1,-1
-159.44,6.18,-30.22,889,-4158,7121,0,-1,-1
-159.43,6.19,-30.22,895,-4155,7110,0,-1,-1
-159.43,6.20,-30.22,901,-4153,7103,0,0,-1
-159.42,6.20,-30.21,912,-4146,7096,0,0,-1
-159.42,6.19,-30.19,909,-4130,7097,0,0,0
-159.42,6.18,-30.19,898,-4142,7101,0,0,0
-159.42,6.17,-30.18,892,-4142,7121,0,0,0
-159.42,6.17,-30.17,881,-4135,7124,0,0,-1
-159.42,6.17,-30.17,866,-4127,7120,-1,-1,-1
-159.41,6.18,-30.17,875,-4125,7114,0,-1,-1
-159.41,6.18,-30.17,886,-4118,7112,0,-1,-1
-159.41,6.18,-30.17,896,-4124,7116,-1,0,-1
-159.41,6.19,-30.16,901,-4130,7113,-1,0,-1
-159.41,6.18,-30.17,905,-4139,7112,-1,0,0
-159.41,6.17,-30.17,900,-4141,7113,0,0,-1
-159.41,6.17,-30.17,891,-4145,7109,-1,0,0
-159.41,6.17,-30.17,885,-4144,7114,0,0,-1
-159.41,6.17,-30.17,884,-4149,7113,0,-1,-1
-159.41,6.17,-30.17,885,-4151,7110,0,0,-1
-159.40,6.17,-30.17,889,-4146,7107,0,0,-1
-159.41,6.16,-30.16,885,-4138,7100,0,0,-1
-159.41,6.16,-30.16,889,-4132,7101,0,0,0
-159.41,6.15,-30.16,886,-4131,7107,0,0,-1
-159.41,6.15,-30.15,887,-4140,7111,0,0,-1
-159.41,6.14,-30.15,887,-4142,7118,0,0,0
-159.40,6.15,-30.15,887,-4137,7126,-1,0,-1
-159.40,6.15,-30.15,889,-4131,7112,-1,0,0
-159.40,6.15,-30.16,897,-4142,7121,0,0,-1
-159.40,6.14,-30.15,900,-4139,7123,-1,0,0
-159.40,6.14,-30.16,891,-4138,7112,-1,0,0
-159.40,6.14,-30.16,890,-4141,7107,-1,0,-1
-159.40,6.14,-30.16,888,-4141,7107,0,0,0
-159.41,6.13,-30.16,893,-4145,7113,0,0,0
-159.41,6.14,-30.17,887,-4147,7108,0,0,-1
-159.41,6.13,-30.16,890,-4140,7103,0,0,-1
-159.41,6.13,-30.16,890,-4144,7105,0,0,-1
-159.40,6.14,-30.15,895,-4131,7104,0,0,0
-159.40,6.13,-30.14,896,-4128,7104,0,0,-1
-159.40,6.13,-30.14,895,-4130,7113,0,0,-1
-159.40,6.13,-30.14,885,-4131,7125,-1,0,0
-159.40,6.12,-30.14,884,-4127,7108,0,0,0
-159.40,6.11,-30.14,878,-4125,7113,-1,0,-1
-159.40,6.11,-30.14,880,-4121,7113,0,0,-1
-159.39,6.11,-30.14,888,-4130,7120,0,0,-1
-159.39,6.11,-30.14,900,-4127,7120,-1,0,-1
-159.39,6.10,-30.14,896,-4129,7128,-1,0,0
-159.39,6.10,-30.14,892,-4136,7124,-1,0,0
-159.40,6.09,-30.15,874,-4141,7110,0,0,0
-159.40,6.08,-30.15,857,-4125,7117,-1,0,-1
-159.40,6.06,-30.16,850,-4129,7122,-1,0,-1
-159.40,6.07,-30.16,849,-4137,7106,-1,-1,-1
-159.40,6.07,-30.16,861,-4143,7109,0,-1,-1
-159.39,6.08,-30.16,867,-4135,7115,0,-1,-1
-159.39,6.08,-30.17,903,-4137,7115,-1,0,-1
-159.39,6.08,-30.17,907,-4145,7104,-1,0,0
-159.39,6.08,-30.18,902,-4147,7106,-1,0,0
-159.39,6.07,-30.18,898,-4151,7087,0,0,0
-159.39,6.06,-30.17,877,-4139,7107,0,0,0
-159.40,6.05,-30.18,865,-4135,7114,-1,0,0
-159.40,6.05,-30.19,855,-4137,7116,-1,-1,-1
-159.41,6.05,-30.20,855,-4153,7107,-1,-1,-1
-159.40,6.05,-30.20,858,-4163,7103,0,0,-1
-159.40,6.06,-30.20,874,-4152,7097,0,-1,-1
-159.40,6.06,-30.19,884,-4128,7118,-1,-1,-1
-159.39,6.07,-30.19,886,-4129,7103,0,0,-1
-159.40,6.06,-30.19,871,-4133,7116,-1,-1,0
-159.40,6.07,-30.21,865,-4159,7083,0,0,-1
-159.40,6.07,-30.19,868,-4150,7107,0,-1,0
-159.40,6.06,-30.18,859,-4134,7120,0,-1,-1
-159.40,6.07,-30.18,859,-4140,7125,-1,-1,-1
-159.40,6.08,-30.19,861,-4149,7103,0,-1,-1
-159.40,6.08,-30.18,873,-4153,7103,0,-1,-1
-159.40,6.09,-30.18,883,-4138,7096,0,-1,0
-159.40,6.09,-30.17,882,-4126,7099,0,-1,0
-159.40,6.09,-30.16,879,-4127,7107,0,-1,0
-159.40,6.09,-30.16,882,-4136,7115,0,0,0
-159.40,6.09,-30.16,870,-4135,7113,0,0,-1
-159.40,6.09,-30.15,865,-4129,7114,0,-1,-1
-159.40,6.09,-30.15,866,-4125,7113,-1,-1,-1
-159.40,6.10,-30.16,870,-4134,7111,-1,-1,-1
-159.40,6.10,-30.16,874,-4137,7113,0,-1,-1
-159.40,6.11,-30.16,881,-4139,7113,-1,-1,0
-159.40,6.11,-30.16,892,-4140,7109,0,0,-1
-159.40,6.11,-30.16,885,-4135,7116,-1,0,0
-159.40,6.11,-30.16,886,-4136,7112,0,0,0
-159.40,6.11,-30.16,881,-4131,7100,-1,0,-1
-159.40,6.11,-30.16,879,-4130,7111,0,-1,-1
-159.40,6.12,-30.16,878,-4131,7094,0,-1,-1
-159.40,6.12,-30.15,880,-4139,7112,0,-1,-1
-159.39,6.12,-30.15,879,-4141,7118,0,-1,-1
-159.39,6.12,-30.15,872,-4130,7121,0,-1,-1
-159.39,6.13,-30.15,879,-4132,7107,0,-1,-1
-159.39,6.14,-30.14,895,-4132,7111,0,-1,-1
-159.39,6.13,-30.14,897,-4119,7116,0,-1,-1
-159.38,6.14,-30.14,897,-4121,7116,-1,0,-1
-159.39,6.14,-30.14,887,-4120,7111,-1,0,0
-159.39,6.13,-30.15,878,-4129,7103,-1,0,-1
-159.39,6.14,-30.15,886,-4132,7106,-1,-1,-1
-159.39,6.14,-30.16,889,-4136,7108,0,-1,-1
-159.39,6.15,-30.16,895,-4139,7108,0,-1,-1
-159.39,6.15,-30.16,893,-4136,7097,0,0,0
-159.39,6.15,-30.16,892,-4137,7101,0,0,0
-159.39,6.14,-30.15,877,-4129,7096,0,0,0
-159.39,6.14,-30.15,866,-4125,7104,0,0,-1
-159.39,6.14,-30.15,868,-4129,7098,0,-1,-1
-159.39,6.14,-30.15,870,-4140,7119,-1,-1,-1
-159.39,6.15,-30.15,882,-4142,7124,0,-1,-1
-159.39,6.16,-30.15,901,-4139,7121,0,-1,-1
-159.38,6.16,-30.15,907,-4128,7121,-1,-1,-1
-159.38,6.16,-30.15,906,-4131,7104,-1,0,0
-159.39,6.16,-30.15,905,-4131,7102,-1,0,0
-159.39,6.16,-30.16,896,-4133,7102,-1,0,0
-159.40,6.14,-30.16,880,-4147,7115,0,0,0
-159.40,6.14,-30.16,872,-4151,7125,-1,-1,-1
-159.40,6.14,-30.16,869,-4152,7124,-1,-1,-1
-159.40,6.15,-30.16,877,-4145,7116,0,-1,-1
-159.39,6.16,-30.16,888,-4140,7120,0,-1,-1
-159.39,6.17,-30.16,889,-4147,7115,0,-1,-1
-159.38,6.17,-30.16,896,-4149,7109,0,0,-1
-159.38,6.16,-30.15,891,-4142,7103,0,0,0
-159.38,6.16,-30.15,885,-4137,7110,0,0,0
-159.38,6.16,-30.15,887,-4136,7121,0,0,0
-159.38,6.16,-30.15,885,-4136,7114,-1,-1,0
-159.39,6.16,-30.15,890,-4138,7104,-1,-1,-1
-159.39,6.16,-30.16,893,-4131,7108,-1,-1,-1
-159.39,6.17,-30.16,898,-4129,7108,-1,-1,-1
-159.39,6.17,-30.17,894,-4137,7110,-1,-1,-1
-159.39,6.17,-30.17,891,-4137,7121,-1,0,0
-159.39,6.17,-30.17,885,-4143,7108,0,0,0
-159.39,6.17,-30.17,882,-4141,7113,0,0,0
-159.39,6.17,-30.17,893,-4141,7120,0,0,-1
-159.39,6.17,-30.16,893,-4136,7117,0,0,-1
-159.39,6.17,-30.16,895,-4133,7111,0,-1,-1
-159.39,6.17,-30.16,898,-4129,7107,0,0,0
-159.39,6.17,-30.16,888,-4118,7097,0,0,-1
-159.39,6.17,-30.16,889,-4113,7105,-1,-1,0
-159.39,6.17,-30.17,899,-4120,7097,-1,0,0
-159.39,6.17,-30.17,903,-4127,7113,-1,0,-1
-159.39,6.17,-30.17,892,-4133,7105,-1,0,0
-159.40,6.17,-30.18,886,-4144,7099,-1,-1,0
-159.40,6.17,-30.19,892,-4145,7094,0,0,-1
-159.40,6.17,-30.18,890,-4141,7103,0,0,0
-159.40,6.17,-30.18,896,-4141,7104,0,0,0
-159.40,6.17,-30.19,896,-4139,7118,-1,0,0
-159.41,6.17,-30.19,897,-4136,7118,0,0,0
-159.41,6.16,-30.19,884,-4135,7103,0,0,0
-159.42,6.15,-30.19,885,-4137,7109,0,0,0
-159.42,6.15,-30.20,891,-4133,7103,-1,0,0
-159.42,6.15,-30.20,907,-4137,7125,-1,-1,0
-159.42,6.15,-30.22,907,-4146,7113,-1,0,0
-159.42,6.15,-30.22,894,-4147,7107,-1,0,0
-159.42,6.14,-30.22,895,-4137,7100,-1,0,0
-159.42,6.14,-30.23,882,-4144,7108,-1,-1,0
-159.43,6.13,-30.23,868,-4145,7106,-1,0,0
-159.43,6.13,-30.25,880,-4153,7101,-1,-1,0
-159.44,6.14,-30.26,884,-4164,7111,-1,-1,0
-159.44,6.14,-30.25,895,-4164,7101,-1,-1,-1
-159.44,6.14,-30.25,889,-4151,7114,0,-1,-1
-159.44,6.15,-30.25,893,-4151,7088,-1,-1,0
-159.44,6.15,-30.25,904,-4141,7098,-1,0,0
-159.44,6.15,-30.25,903,-4139,7091,0,0,0
-159.44,6.14,-30.24,889,-4150,7112,0,0,0
-159.45,6.13,-30.24,882,-4143,7121,-1,0,0
-159.45,6.13,-30.24,870,-4146,7116,-1,-1,0
-159.45,6.13,-30.25,866,-4157,7112,-1,-1,-1
-159.46,6.14,-30.26,872,-4153,7106,-1,-1,0
-159.46,6.15,-30.26,883,-4149,7104,0,-1,-1
-159.45,6.15,-30.26,886,-4141,7102,0,-1,-1
-159.45,6.15,-30.25,885,-4136,7108,0,-1,-1
-159.45,6.15,-30.25,890,-4148,7101,0,0,-1
-159.45,6.15,-30.24,892,-4151,7115,0,0,0
-159.45,6.15,-30.25,889,-4155,7113,0,0,-1
-159.44,6.15,-30.25,889,-4146,7114,0,0,-1
-159.44,6.15,-30.24,892,-4144,7106,0,0,-1
-159.43,6.15,-30.24,889,-4147,7103,0,0,-1
-159.43,6.15,-30.23,881,-4140,7108,0,0,-1
-159.43,6.15,-30.23,887,-4146,7108,0,-1,-1
-159.43,6.15,-30.23,887,-4156,7106,0,-1,-1
-159.42,6.16,-30.22,889,-4156,7103,0,-1,-1
-159.42,6.16,-30.22,886,-4149,7102,0,0,-1
-159.41,6.17,-30.21,897,-4149,7107,0,0,-1
-159.41,6.17,-30.21,900,-4148,7114,0,0,-1
-159.41,6.17,-30.21,896,-4139,7096,0,0,-1
-159.41,6.16,-30.20,892,-4136,7110,0,0,-1
-159.41,6.17,-30.20,888,-4132,7102,0,0,0
-159.41,6.16,-30.19,887,-4140,7114,0,0,-1
-159.41,6.16,-30.18,888,-4138,7114,0,0,-1
-159.40,6.16,-30.18,883,-4143,7115,0,-1,-1
-159.40,6.17,-30.18,884,-4150,7109,0,-1,-1
-159.40,6.17,-30.18,888,-4150,7110,0,0,-1
-159.40,6.17,-30.18,892,-4144,7109,0,-1,-1
-159.39,6.17,-30.17,894,-4135,7115,0,0,-1
-159.39,6.17,-30.17,899,-4144,7116,0,0,0
-159.39,6.17,-30.17,891,-4147,7114,0,0,-1
-159.39,6.16,-30.16,881,-4134,7119,-1,0,-1
-159.40,6.15,-30.16,875,-4135,7109,0,0,-1
-159.39,6.16,-30.16,884,-4136,7105,0,-1,-1
-159.38,6.16,-30.15,891,-4137,7108,0,-1,-1
-159.38,6.17,-30.15,898,-4132,7120,0,0,-1
-159.38,6.17,-30.15,903,-4129,7122,0,0,0
-159.38,6.16,-30.15,901,-4130,7117,-1,0,0
-159.38,6.15,-30.15,890,-4130,7109,-1,0,0
-159.38,6.14,-30.15,874,-4130,7106,-1,0,0
-159.38,6.14,-30.16,869,-4141,7112,-1,-1,-1
-159.39,6.14,-30.17,865,-4147,7105,-1,-1,-1
-159.39,6.14,-30.17,869,-4153,7106,-1,-1,-1
-159.38,6.15,-30.17,889,-4150,7100,-1,-1,-1
-159.38,6.15,-30.16,899,-4150,7106,0,0,-1
-159.38,6.15,-30.16,903,-4142,7097,0,0,0
-159.38,6.15,-30.16,889,-4142,7104,0,0,0
-159.38,6.14,-30.15,887,-4140,7104,0,0,-1
-159.38,6.13,-30.14,884,-4132,7120,0,0,0
-159.38,6.13,-30.14,880,-4120,7119,-1,0,-1
-159.38,6.12,-30.14,880,-4125,7112,-1,0,-1
-159.38,6.12,-30.14,882,-4127,7114,0,-1,-1
-159.38,6.13,-30.14,884,-4133,7106,0,0,-1
-159.37,6.13,-30.13,889,-4120,7119,0,0,-1
-159.37,6.13,-30.13,887,-4128,7115,-1,0,-1
-159.37,6.12,-30.13,885,-4130,7105,0,0,-1
-159.37,6.11,-30.13,885,-4133,7120,0,0,-1
-159.37,6.11,-30.13,882,-4131,7123,-1,0,0
-159.37,6.11,-30.13,885,-4136,7118,-1,0,-1
-159.36,6.11,-30.13,879,-4139,7128,0,0,-1
-159.36,6.11,-30.13,885,-4133,7108,-1,0,-1
-159.35,6.11,-30.13,895,-4138,7107,0,0,-1
-159.35,6.10,-30.13,901,-4133,7101,-1,0,-1
-159.34,6.08,-30.12,891,-4122,7125,0,1,-1
-159.34,6.06,-30.14,858,-4138,7092,-1,0,-1
-159.34,6.06,-30.14,869,-4164,7111,-1,-1,0
-159.35,6.06,-30.14,891,-4144,7115,0,0,0
-159.36,6.04,-30.14,863,-4146,7112,-1,-1,0
-159.36,6.05,-30.15,862,-4151,7088,-1,-1,-1
-159.36,6.05,-30.14,873,-4153,7079,0,0,0
-159.36,6.05,-30.14,879,-4155,7082,0,0,-1
-159.36,6.04,-30.11,873,-4132,7119,-1,0,-1
-159.35,6.04,-30.10,880,-4121,7111,0,-1,0
-159.35,6.04,-30.09,875,-4124,7114,0,0,-1
-159.35,6.03,-30.09,883,-4114,7134,-1,0,0
-159.35,6.03,-30.09,865,-4110,7145,0,-1,0
-159.36,6.05,-30.10,862,-4112,7104,-1,-1,0
-159.36,6.05,-30.11,860,-4102,7109,-1,-1,-1
-159.36,6.05,-30.12,871,-4125,7098,-1,-1,-1
-159.36,6.06,-30.13,876,-4143,7110,-1,-1,-1
-159.35,6.06,-30.14,880,-4147,7107,-1,0,-1
-159.35,6.06,-30.14,881,-4136,7105,-1,0,0
-159.35,6.06,-30.15,873,-4129,7107,-1,-1,0
-159.36,6.06,-30.15,868,-4137,7097,-1,-1,0
-159.36,6.06,-30.15,866,-4148,7108,0,0,0
-159.37,6.06,-30.15,862,-4142,7112,0,-1,0
-159.36,6.07,-30.15,866,-4140,7108,0,-1,-1
-159.36,6.08,-30.14,868,-4151,7103,0,-1,-1
-159.35,6.09,-30.14,883,-4146,7105,0,-1,-1
-159.35,6.10,-30.12,887,-4133,7115,0,0,-1
-159.35,6.10,-30.12,887,-4118,7116,0,0,0
-159.35,6.09,-30.11,883,-4112,7115,-1,0,0
-159.35,6.08,-30.12,859,-4113,7109,-1,0,0
-159.36,6.08,-30.12,854,-4123,7116,-1,-1,0
-159.36,6.08,-30.13,858,-4135,7113,-1,-1,-1
-159.36,6.09,-30.14,864,-4139,7113,-1,-1,-1
-159.35,6.10,-30.14,877,-4145,7107,-1,-1,-1
-159.35,6.12,-30.15,890,-4144,7103,0,-1,-1
-159.34,6.12,-30.15,902,-4143,7103,0,0,-1
-159.34,6.12,-30.15,904,-4140,7102,0,0,0
-159.35,6.11,-30.14,894,-4134,7109,0,0,0
-159.35,6.10,-30.13,874,-4127,7120,0,0,0
-159.36,6.09,-30.13,865,-4120,7130,-1,0,0
-159.36,6.09,-30.13,860,-4121,7136,-1,-1,-1
-159.35,6.10,-30.14,862,-4132,7111,-1,-1,-1
-159.35,6.11,-30.13,871,-4143,7120,0,-1,-1
-159.35,6.11,-30.12,871,-4136,7116,0,-1,-1
-159.35,6.12,-30.12,879,-4129,7111,0,-1,-1
-159.34,6.13,-30.12,888,-4122,7105,-1,0,-1
-159.34,6.13,-30.12,896,-4123,7114,-1,0,-1
-159.34,6.13,-30.12,892,-4123,7124,-1,0,0
-159.34,6.13,-30.12,892,-4134,7117,0,-1,0
-159.34,6.13,-30.12,879,-4131,7115,0,-1,0
-159.34,6.13,-30.13,892,-4126,7105,0,-1,0
-159.34,6.14,-30.12,895,-4128,7104,0,-1,-1
-159.34,6.14,-30.12,882,-4134,7112,-1,0,-1
-159.34,6.14,-30.13,888,-4144,7117,0,-1,0
-159.34,6.14,-30.12,894,-4143,7118,0,-1,-1
-159.34,6.14,-30.11,899,-4128,7103,0,0,-1
-159.34,6.14,-30.11,884,-4118,7110,0,0,-1
-159.34,6.13,-30.10,875,-4110,7113,-1,0,0
-159.34,6.13,-30.10,879,-4136,7117,0,0,-1
-159.34,6.13,-30.09,877,-4132,7125,0,0,-1
-159.34,6.13,-30.09,881,-4131,7130,-1,0,-1
-159.34,6.13,-30.09,889,-4121,7129,-1,0,-1
-159.34,6.14,-30.11,893,-4130,7119,-1,0,-1
-159.35,6.13,-30.11,884,-4124,7105,-1,-1,0
-159.34,6.14,-30.12,888,-4132,7103,-1,0,-1
-159.34,6.14,-30.12,896,-4140,7123,-1,-1,-1
-159.34,6.14,-30.13,889,-4144,7122,-1,0,-1
-159.34,6.14,-30.13,876,-4153,7116,-1,-1,-1
-159.34,6.14,-30.14,881,-4149,7100,0,-1,-1
-159.34,6.15,-30.13,881,-4145,7101,0,0,-1
-159.34,6.15,-30.13,877,-4136,7103,0,-1,-1
-159.34,6.14,-30.12,893,-4132,7100,0,0,-1
-159.34,6.15,-30.11,890,-4124,7106,0,-1,0
-159.34,6.15,-30.11,896,-4125,7106,0,0,-1
-159.34,6.14,-30.11,884,-4129,7113,-1,0,0
-159.34,6.14,-30.12,879,-4124,7110,-1,0,-1
-159.34,6.14,-30.13,872,-4127,7113,-1,-1,-1
-159.34,6.15,-30.13,876,-4132,7107,-1,-1,-1
-159.34,6.15,-30.13,889,-4142,7116,-1,-1,-1
-159.34,6.16,-30.14,898,-4143,7117,-1,0,0
-159.34,6.16,-30.14,903,-4141,7110,-1,0,0
-159.34,6.15,-30.14,896,-4128,7111,-1,0,0
-159.34,6.14,-30.14,882,-4129,7111,0,0,0
-159.35,6.13,-30.14,864,-4129,7115,-1,-1,-1
-159.35,6.14,-30.14,869,-4137,7114,0,-1,-1
-159.34,6.15,-30.14,876,-4142,7117,0,-1,-1
-159.34,6.15,-30.13,892,-4142,7122,0,-1,-1
-159.34,6.16,-30.13,909,-4134,7122,-1,-1,-1
-159.33,6.17,-30.13,912,-4124,7113,-1,0,0
-159.34,6.17,-30.13,908,-4124,7103,0,0,0
-159.34,6.16,-30.13,896,-4137,7112,0,0,0
-159.34,6.15,-30.13,884,-4132,7124,0,0,0
-159.35,6.15,-30.14,863,-4137,7123,-1,-1,0
-159.35,6.15,-30.14,866,-4142,7123,-1,-1,-1
-159.35,6.15,-30.15,873,-4142,7117,-1,-1,-1
-159.35,6.15,-30.15,879,-4131,7098,-1,-1,-1
-159.35,6.16,-30.15,894,-4138,7096,-1,0,-1
-159.35,6.16,-30.15,893,-4144,7101,0,0,-1
-159.34,6.16,-30.15,901,-4145,7118,0,0,0
-159.34,6.15,-30.14,905,-4141,7114,0,0,0
-159.34,6.15,-30.14,894,-4132,7130,-1,0,0
-159.35,6.14,-30.14,882,-4132,7111,-1,0,-1
-159.35,6.13,-30.15,884,-4127,7117,-1,0,0
-159.35,6.14,-30.16,885,-4130,7109,-1,-1,0
-159.35,6.14,-30.17,890,-4138,7104,-1,0,0
-159.36,6.14,-30.17,880,-4137,7107,-1,-1,0
-159.36,6.13,-30.17,881,-4142,7104,-1,-1,0
-159.37,6.13,-30.18,883,-4150,7101,-1,-1,0
-159.37,6.13,-30.19,886,-4156,7116,-1,0,0
-159.38,6.13,-30.19,882,-4156,7111,0,-1,0
-159.37,6.13,-30.18,880,-4145,7098,0,0,-1
-159.37,6.14,-30.18,885,-4140,7114,0,0,-1
-159.37,6.14,-30.18,891,-4135,7114,0,-1,0
-159.38,6.13,-30.18,890,-4136,7109,-1,-1,0
-159.37,6.14,-30.18,891,-4138,7094,0,-1,0
-159.38,6.13,-30.18,881,-4144,7107,0,0,0
-159.38,6.13,-30.18,879,-4142,7119,-1,0,0
-159.39,6.13,-30.18,869,-4143,7122,-1,-1,0
-159.39,6.13,-30.19,875,-4142,7109,0,-1,-1
-159.39,6.14,-30.19,889,-4143,7116,-1,-1,-1
-159.40,6.14,-30.19,887,-4143,7119,-1,-1,0
-159.40,6.14,-30.19,893,-4144,7108,0,-1,-1
-159.39,6.14,-30.18,894,-4135,7114,0,0,-1
-159.39,6.14,-30.18,890,-4134,7107,0,0,0
-159.39,6.14,-30.18,888,-4139,7113,-1,0,0
-159.39,6.13,-30.18,882,-4138,7104,-1,0,-1
-159.38,6.13,-30.18,877,-4140,7104,0,0,-1
-159.37,6.13,-30.17,879,-4140,7115,0,-1,-1
-159.38,6.13,-30.17,892,-4147,7108,0,-1,-1
-159.37,6.14,-30.17,896,-4144,7102,0,0,-1
-159.37,6.13,-30.17,894,-4127,7110,0,0,-1
-159.37,6.13,-30.17,879,-4130,7110,-1,0,-1
-159.37,6.14,-30.17,883,-4140,7101,-1,0,-1
-159.36,6.13,-30.17,872,-4141,7098,-1,0,-1
-159.36,6.13,-30.18,871,-4150,7097,0,-1,-1
-159.35,6.15,-30.18,881,-4161,7105,0,-1,-1
-159.35,6.15,-30.17,891,-4155,7104,0,-1,-1
-159.34,6.16,-30.16,907,-4139,7101,0,0,-1
-159.34,6.16,-30.16,908,-4137,7105,0,0,-1
-159.34,6.16,-30.15,905,-4139,7093,0,0,-1
-159.34,6.15,-30.13,902,-4136,7111,0,0,0
-159.34,6.14,-30.13,888,-4129,7122,0,0,-1
-159.34,6.14,-30.12,877,-4119,7126,-1,0,-1
-159.34,6.14,-30.12,877,-4123,7118,-1,-1,-1
-159.34,6.14,-30.13,881,-4138,7120,-1,-1,-1
-159.34,6.15,-30.13,887,-4137,7105,-1,-1,-1
-159.33,6.16,-30.13,895,-4132,7112,0,-1,-1
-159.33,6.16,-30.13,902,-4132,7112,0,0,-1
-159.33,6.16,-30.13,907,-4143,7112,0,0,-1
-159.33,6.15,-30.13,896,-4135,7116,-1,0,-1
-159.33,6.14,-30.13,887,-4138,7107,-1,0,-1
-159.33,6.14,-30.13,884,-4138,7113,0,0,-1
-159.33,6.14,-30.13,883,-4143,7110,0,-1,-1
-159.32,6.14,-30.13,892,-4135,7095,0,0,-1
-159.32,6.14,-30.12,891,-4127,7098,0,0,-1
-159.32,6.14,-30.12,892,-4126,7110,0,0,-1
-159.32,6.14,-30.12,886,-4140,7111,0,0,-1
-159.32,6.14,-30.12,883,-4136,7119,0,0,0
-159.33,6.13,-30.12,887,-4134,7129,-1,0,0
-159.33,6.13,-30.12,886,-4126,7123,0,0,0
-159.33,6.13,-30.12,889,-4128,7124,-1,0,-1
-159.33,6.13,-30.12,887,-4129,7113,0,0,-1
-159.33,6.13,-30.12,889,-4135,7120,0,0,0
-159.33,6.12,-30.12,878,-4127,7119,-1,0,0
-159.33,6.12,-30.12,875,-4138,7106,-1,0,-1
-159.33,6.12,-30.12,873,-4139,7101,0,0,-1
-159.33,6.12,-30.12,879,-4137,7114,0,0,0
-159.33,6.12,-30.12,879,-4139,7115,0,0,0
-159.33,6.12,-30.12,878,-4139,7119,-1,0,0
-159.33,6.12,-30.12,883,-4138,7111,0,0,0
-159.33,6.12,-30.12,883,-4136,7112,0,0,-1
-159.33,6.11,-30.12,883,-4143,7113,-1,0,0
-159.33,6.11,-30.12,883,-4142,7110,0,0,-1
-159.33,6.10,-30.12,879,-4137,7118,0,0,-1
-159.33,6.10,-30.11,874,-4131,7111,0,0,-1
-159.33,6.09,-30.11,876,-4124,7110,-1,0,0
-159.34,6.09,-30.11,868,-4124,7108,-1,0,0
-159.34,6.09,-30.11,869,-4124,7104,0,0,-1
-159.34,6.09,-30.11,879,-4122,7102,0,-1,-1
-159.33,6.09,-30.11,893,-4124,7114,-1,0,0
-159.33,6.09,-30.11,894,-4124,7127,0,0,0
-159.34,6.09,-30.11,891,-4128,7124,-1,0,0
-159.34,6.08,-30.12,882,-4142,7098,0,0,0
-159.34,6.07,-30.12,878,-4133,7123,-1,0,0
-159.34,6.08,-30.12,853,-4131,7112,-1,-1,-1
-159.34,6.08,-30.12,852,-4135,7114,-1,-1,-1
-159.34,6.08,-30.13,861,-4147,7111,0,-1,-1
-159.34,6.09,-30.13,874,-4146,7108,0,-1,-1
-159.33,6.10,-30.13,883,-4139,7108,0,-1,-1
-159.33,6.11,-30.13,904,-4127,7105,0,0,-1
-159.33,6.10,-30.12,905,-4123,7111,0,0,0
-159.33,6.10,-30.11,899,-4128,7122,0,0,0
-159.33,6.09,-30.11,885,-4120,7118,-1,0,0
-159.33,6.09,-30.11,872,-4124,7120,-1,0,0
-159.33,6.09,-30.11,861,-4131,7119,-1,-1,-1
-159.33,6.09,-30.12,869,-4140,7127,-1,-1,-1
-159.33,6.10,-30.12,878,-4142,7124,-1,-1,-1
-159.32,6.11,-30.12,882,-4137,7118,0,-1,-1
-159.32,6.11,-30.12,893,-4126,7109,0,-1,-1
-159.32,6.12,-30.12,893,-4130,7108,0,0,-1
-159.32,6.11,-30.12,890,-4130,7104,-1,0,-1
-159.32,6.11,-30.12,884,-4135,7110,0,-1,0
-159.32,6.11,-30.12,882,-4131,7100,-1,-1,0
-159.32,6.11,-30.12,882,-4143,7119,0,0,-1
-159.32,6.12,-30.12,878,-4141,7123,-1,-1,0
-159.32,6.12,-30.12,875,-4138,7115,-1,-1,-1
-159.32,6.12,-30.12,881,-4140,7109,0,-1,-1
-159.32,6.12,-30.12,887,-4131,7103,0,0,-1
-159.31,6.13,-30.12,884,-4128,7104,0,0,-1
-159.31,6.13,-30.12,887,-4132,7110,0,-1,0
-159.31,6.13,-30.12,882,-4132,7119,0,-1,0
-159.31,6.12,-30.11,874,-4125,7120,0,0,-1
-159.31,6.12,-30.11,879,-4126,7123,0,0,-1
-159.31,6.12,-30.11,883,-4125,7127,-1,-1,-1
-159.31,6.13,-30.12,886,-4132,7121,-1,-1,-1
-159.31,6.13,-30.12,890,-4134,7121,-1,0,-1
-159.31,6.13,-30.12,893,-4136,7119,0,-1,0
-159.31,6.13,-30.11,893,-4132,7119,-1,0,0
-159.31,6.13,-30.11,896,-4137,7125,-1,0,0
-159.32,6.13,-30.12,887,-4139,7111,0,0,0
-159.32,6.13,-30.12,883,-4139,7105,0,0,-1
-159.32,6.12,-30.12,883,-4135,7118,0,0,-1
-159.32,6.12,-30.12,882,-4127,7119,-1,-1,-1
-159.32,6.13,-30.12,883,-4131,7113,-1,-1,-1
-159.32,6.13,-30.13,889,-4147,7100,-1,-1,0
-159.32,6.14,-30.12,896,-4153,7115,0,0,-1
-159.32,6.14,-30.11,896,-4134,7126,0,-1,-1
-159.32,6.14,-30.11,889,-4128,7131,-1,-1,0
-159.32,6.14,-30.11,877,-4132,7109,-1,-1,-1
-159.32,6.14,-30.12,870,-4139,7098,-1,0,-1
-159.32,6.14,-30.12,881,-4142,7111,0,-1,-1
-159.32,6.14,-30.12,894,-4141,7123,0,-1,-1
-159.31,6.15,-30.13,908,-4142,7128,0,-1,-1
-159.31,6.15,-30.13,911,-4142,7129,-1,0,0
-159.31,6.15,-30.12,911,-4134,7119,0,0,0
-159.32,6.15,-30.13,894,-4131,7103,-1,0,0
-159.32,6.14,-30.13,879,-4118,7107,-1,0,0
-159.32,6.14,-30.13,864,-4131,7103,-1,-1,-1
-159.32,6.14,-30.14,867,-4139,7105,-1,-1,-1
-159.32,6.15,-30.13,879,-4146,7116,0,-1,-1
-159.31,6.16,-30.13,892,-4148,7108,0,-1,-1
-159.31,6.16,-30.13,901,-4138,7100,0,-1,-1
-159.31,6.16,-30.13,911,-4131,7094,0,0,-1
-159.31,6.16,-30.13,908,-4129,7100,0,0,0
-159.31,6.16,-30.13,896,-4122,7114,0,0,0
-159.31,6.15,-30.13,882,-4123,7117,0,0,0
-159.32,6.15,-30.13,868,-4129,7122,-1,-1,0
-159.32,6.15,-30.13,873,-4129,7127,-1,-1,-1
-159.32,6.15,-30.13,876,-4135,7108,-1,-1,0
-159.32,6.15,-30.13,880,-4142,7119,0,0,-1
-159.31,6.15,-30.13,891,-4131,7117,0,0,-1
-159.31,6.15,-30.13,883,-4125,7116,-1,-1,-1
-159.32,6.15,-30.13,881,-4134,7104,-1,-1,-1
-159.32,6.15,-30.13,891,-4134,7108,0,0,0
-159.32,6.15,-30.13,893,-4127,7107,-1,-1,0
-159.32,6.15,-30.13,875,-4122,7128,0,0,0
-159.33,6.16,-30.15,888,-4133,7105,-1,-1,0
-159.33,6.16,-30.15,884,-4135,7116,0,0,0
-159.34,6.15,-30.16,891,-4131,7121,-1,0,0
-159.34,6.15,-30.17,898,-4107,7131,0,0,0
-159.36,6.14,-30.20,884,-4136,7057,-1,0,0
-159.36,6.13,-30.20,877,-4125,7146,-1,0,0
-159.37,6.13,-30.24,893,-4157,7106,-1,-1,0
-159.37,6.12,-30.24,887,-4145,7091,0,1,-1
-159.38,6.10,-30.25,891,-4159,7117,-1,0,0
-159.38,6.11,-30.27,894,-4167,7097,-1,-1,0
-159.38,6.10,-30.25,884,-4149,7086,1,0,0
-159.39,6.10,-30.27,891,-4166,7095,-1,-1,0
-159.39,6.09,-30.25,878,-4138,7103,-1,0,0
-159.39,6.09,-30.26,873,-4178,7088,0,0,0
-159.39,6.08,-30.23,872,-4136,7113,0,0,-1
-159.39,6.08,-30.24,864,-4152,7120,-1,-1,0
-159.40,6.09,-30.23,889,-4149,7120,0,0,-1
-159.39,6.08,-30.23,857,-4151,7084,0,0,-1
-159.40,6.09,-30.23,894,-4125,7111,-1,-1,0
-159.39,6.08,-30.23,862,-4146,7110,0,0,-1
-159.41,6.08,-30.23,873,-4115,7122,-1,-2,0
-159.40,6.09,-30.25,885,-4137,7108,-1,0,-1
-159.41,6.08,-30.26,879,-4144,7149,-2,-1,0
-159.41,6.09,-30.30,895,-4182,7061,0,0,-1
-159.42,6.09,-30.29,862,-4151,7112,-2,-1,0
-159.42,6.08,-30.29,876,-4170,7115,0,0,-1
-159.42,6.09,-30.31,890,-4155,7080,0,0,-1
-159.41,6.08,-30.30,896,-4168,7135,-1,-1,0
-159.42,6.09,-30.32,873,-4174,7077,0,-1,0
-159.42,6.08,-30.31,871,-4155,7098,0,0,-1
-159.43,6.08,-30.32,862,-4162,7082,-1,-1,0
-159.42,6.08,-30.31,867,-4155,7107,-1,-1,-1
-159.42,6.09,-30.32,876,-4170,7090,-1,-1,-1
-159.42,6.10,-30.32,881,-4176,7084,0,0,-1
-159.41,6.11,-30.31,885,-4160,7096,-1,-1,-1
-159.40,6.11,-30.31,893,-4147,7095,0,-1,-1
-159.40,6.12,-30.31,896,-4145,7093,0,-1,-1
-159.40,6.13,-30.31,901,-4144,7091,-1,-1,0
-159.40,6.13,-30.31,901,-4151,7081,0,0,-1
-159.40,6.12,-30.30,892,-4148,7081,0,0,-1
-159.39,6.11,-30.29,881,-4156,7075,0,0,-1
-159.38,6.12,-30.28,881,-4160,7102,0,-1,-1
-159.37,6.12,-30.26,871,-4155,7107,0,0,-1
-159.37,6.12,-30.26,861,-4151,7112,0,-1,-1
-159.36,6.13,-30.25,873,-4150,7119,0,-1,-1
-159.36,6.14,-30.25,885,-4145,7100,0,-1,-1
-159.36,6.15,-30.25,898,-4147,7102,0,0,-1
-159.35,6.15,-30.25,900,-4147,7095,0,0,-1
-159.35,6.15,-30.25,900,-4149,7095,0,0,-1
-159.35,6.15,-30.24,900,-4152,7099,0,0,-1
-159.35,6.14,-30.24,894,-4153,7105,0,0,-1
-159.35,6.13,-30.23,884,-4150,7105,0,0,-1
-159.35,6.13,-30.23,875,-4150,7100,0,-1,-1
-159.35,6.13,-30.23,877,-4153,7103,0,-1,-1
-159.34,6.13,-30.23,885,-4152,7111,0,0,-1
-159.34,6.13,-30.23,888,-4151,7119,0,-1,-1
-159.33,6.14,-30.22,898,-4141,7109,0,0,-1
-159.33,6.14,-30.21,897,-4142,7109,0,0,-1
-159.33,6.14,-30.20,894,-4140,7109,0,0,-1
-159.33,6.13,-30.20,892,-4139,7120,0,0,-1
-159.33,6.13,-30.20,885,-4131,7113,0,0,-1
-159.33,6.13,-30.20,881,-4128,7117,-1,-1,-1
-159.33,6.13,-30.20,884,-4136,7107,-1,-1,0
-159.33,6.13,-30.20,881,-4144,7108,0,0,-1
-159.33,6.12,-30.19,882,-4145,7112,-1,-1,-1
-159.33,6.12,-30.19,879,-4139,7117,-1,-1,-1
-159.33,6.13,-30.20,884,-4139,7100,-1,-1,-1
-159.32,6.13,-30.20,883,-4148,7085,0,0,-1
-159.32,6.13,-30.20,885,-4147,7086,0,0,-1
-159.31,6.13,-30.19,891,-4136,7100,0,0,-1
-159.31,6.13,-30.18,890,-4136,7107,0,0,-1
-159.31,6.13,-30.18,890,-4143,7107,0,0,-1
-159.32,6.12,-30.18,882,-4147,7113,0,0,0
-159.31,6.12,-30.18,878,-4140,7113,0,0,0
-159.31,6.12,-30.17,874,-4131,7112,0,-1,-1
-159.31,6.12,-30.17,887,-4134,7110,0,-1,-1
-159.31,6.12,-30.17,895,-4139,7107,0,0,-1
-159.31,6.12,-30.16,891,-4137,7113,0,0,-1
-159.31,6.11,-30.16,888,-4129,7121,-1,0,0
-159.31,6.10,-30.16,877,-4129,7123,-1,0,0
-159.31,6.10,-30.17,868,-4139,7111,-1,0,-1
-159.31,6.09,-30.18,860,-4143,7112,-1,-1,-1
-159.31,6.10,-30.18,867,-4154,7109,-1,-1,-1
-159.31,6.10,-30.19,879,-4152,7104,-1,-1,-1
-159.30,6.11,-30.18,888,-4153,7107,0,-1,-1
-159.30,6.12,-30.18,899,-4154,7100,-1,-1,0
-159.30,6.12,-30.18,901,-4161,7107,0,0,-1
-159.30,6.11,-30.17,898,-4150,7112,0,0,0
-159.30,6.11,-30.16,885,-4131,7115,0,0,0
-159.31,6.10,-30.16,871,-4132,7113,0,0,0
-159.31,6.10,-30.16,868,-4136,7116,-1,-1,-1
-159.31,6.10,-30.16,866,-4138,7118,0,-1,-1
-159.31,6.10,-30.16,873,-4131,7106,-1,-1,-1
-159.31,6.10,-30.16,876,-4133,7100,-1,-1,-1
-159.31,6.10,-30.17,887,-4141,7096,-1,-1,-1
-159.31,6.10,-30.17,891,-4140,7097,0,0,-1
-159.31,6.10,-30.17,894,-4141,7095,-1,0,0
-159.31,6.09,-30.17,885,-4132,7095,-1,0,0
-159.31,6.09,-30.17,880,-4136,7098,0,-1,-1
-159.31,6.10,-30.18,882,-4145,7108,0,-1,-1
-159.30,6.10,-30.18,885,-4143,7109,0,-1,-1
-159.31,6.10,-30.18,885,-4148,7111,0,-1,-1
-159.31,6.10,-30.18,888,-4140,7102,-1,-1,0
-159.31,6.10,-30.18,886,-4139,7095,0,0,-1
-159.31,6.10,-30.18,880,-4142,7098,0,0,-1
-159.30,6.10,-30.17,885,-4139,7112,0,0,-1
-159.30,6.10,-30.17,889,-4133,7113,0,-1,-1
-159.30,6.10,-30.17,885,-4132,7107,-1,-1,-1
-159.30,6.10,-30.17,883,-4142,7107,0,0,-1
-159.30,6.10,-30.16,884,-4138,7128,0,-1,-1
-159.30,6.10,-30.16,871,-4131,7123,-1,-1,-1
-159.30,6.10,-30.16,869,-4129,7115,-1,-1,-1
-159.29,6.11,-30.17,879,-4130,7108,0,-1,-1
-159.29,6.11,-30.17,885,-4140,7098,-1,-1,-1
-159.29,6.12,-30.17,881,-4139,7102,-1,-1,-1
-159.29,6.12,-30.17,877,-4141,7106,0,-1,-1
-159.29,6.12,-30.17,879,-4140,7101,0,-1,-1
-159.29,6.12,-30.17,873,-4145,7099,0,0,-1
-159.29,6.12,-30.17,878,-4138,7104,-1,-1,-1
-159.29,6.12,-30.17,881,-4141,7102,0,-1,-1
-159.29,6.12,-30.17,877,-4135,7102,0,-1,-1
-159.29,6.12,-30.16,885,-4136,7106,0,-1,-1
-159.28,6.13,-30.16,886,-4134,7109,0,-1,-1
-159.28,6.13,-30.16,886,-4135,7108,-1,0,0
-159.28,6.13,-30.16,882,-4136,7115,-1,-1,-1
-159.28,6.13,-30.17,879,-4137,7108,0,-1,-1
-159.28,6.13,-30.17,885,-4144,7110,-1,-1,-1
-159.28,6.14,-30.16,891,-4145,7114,0,-1,-1
-159.28,6.14,-30.16,892,-4138,7112,0,-1,-1
-159.28,6.14,-30.16,895,-4128,7111,0,0,0
-159.28,6.14,-30.16,887,-4122,7092,-1,0,0
-159.28,6.13,-30.17,873,-4131,7090,-1,0,0
-159.28,6.13,-30.17,873,-4144,7093,0,0,-1
-159.28,6.13,-30.17,869,-4144,7106,0,-1,-1
-159.28,6.13,-30.17,867,-4148,7110,-1,-1,-1
-159.28,6.14,-30.18,876,-4154,7110,0,-1,-1
-159.28,6.15,-30.18,891,-4153,7107,0,-1,-1
-159.27,6.16,-30.17,900,-4152,7097,0,-1,-1
-159.27,6.16,-30.17,907,-4139,7093,0,-1,0
-159.27,6.15,-30.17,910,-4140,7098,0,0,0
-159.27,6.15,-30.16,898,-4133,7095,0,0,0
-159.28,6.14,-30.16,880,-4138,7106,0,0,0
-159.28,6.14,-30.16,879,-4126,7130,-1,0,0
-159.28,6.13,-30.16,869,-4131,7128,-1,-1,-1
-159.28,6.14,-30.16,877,-4129,7118,-1,-1,-1
-159.28,6.14,-30.17,880,-4139,7111,0,-1,-1
-159.27,6.15,-30.17,889,-4135,7105,0,-1,-1
-159.27,6.15,-30.16,895,-4135,7110,-1,-1,-1
-159.27,6.16,-30.17,900,-4135,7108,-1,0,-1
-159.27,6.15,-30.17,897,-4141,7101,0,0,0
-159.27,6.15,-30.17,884,-4143,7101,0,0,0
-159.27,6.15,-30.17,880,-4139,7105,0,-1,-1
-159.27,6.15,-30.17,882,-4139,7104,0,-1,-1
-159.28,6.15,-30.17,886,-4134,7112,-1,0,0
-159.28,6.15,-30.18,884,-4133,7112,0,-1,-1
-159.28,6.15,-30.18,887,-4135,7109,-1,-1,0
-159.28,6.15,-30.19,887,-4148,7105,-1,0,-1
-159.28,6.14,-30.19,893,-4149,7117,0,0,0
-159.28,6.14,-30.18,877,-4142,7116,-1,-1,0
-159.28,6.14,-30.19,878,-4146,7113,-1,-1,0
-159.28,6.14,-30.18,885,-4147,7111,0,0,-1
-159.28,6.13,-30.19,890,-4135,7098,-1,0,0
-159.28,6.13,-30.18,879,-4136,7129,-1,-1,0
-159.29,6.12,-30.19,879,-4139,7116,-1,0,0
-159.29,6.12,-30.20,906,-4130,7102,-1,0,0
-159.30,6.12,-30.21,878,-4133,7147,-1,-1,0
-159.30,6.12,-30.24,890,-4142,7116,-2,0,0
-159.31,6.11,-30.24,861,-4121,7149,0,0,0
-159.33,6.12,-30.29,891,-4117,7132,-4,-1,0
-159.34,6.10,-30.33,899,-4156,7122,-1,0,0
-159.35,6.11,-30.37,873,-4155,7061,-1,-1,0
-159.36,6.10,-30.39,885,-4175,7099,-1,0,0
-159.37,6.10,-30.42,895,-4188,7049,-1,0,0
-159.37,6.09,-30.42,876,-4196,7076,-1,-1,0
-159.37,6.09,-30.43,884,-4218,7062,0,0,-1
-159.37,6.08,-30.40,864,-4198,7094,0,-1,0
-159.37,6.09,-30.40,869,-4185,7068,0,-1,-1
-159.36,6.09,-30.37,894,-4167,7131,0,0,-1
-159.37,6.11,-30.37,891,-4168,7081,0,-1,0
-159.36,6.11,-30.35,894,-4171,7103,1,0,-1
-159.35,6.10,-30.33,889,-4153,7087,0,0,0
-159.35,6.09,-30.31,862,-4131,7096,0,0,-1
-159.36,6.08,-30.32,852,-4133,7121,-1,-1,0
-159.36,6.09,-30.34,861,-4157,7106,-1,-1,-1
-159.36,6.10,-30.34,863,-4158,7107,-1,-1,-1
-159.36,6.11,-30.35,866,-4165,7100,-1,-1,-1
-159.36,6.12,-30.36,883,-4157,7100,-1,-1,-1
-159.36,6.12,-30.37,892,-4170,7073,-1,-1,-1
-159.36,6.13,-30.37,905,-4177,7085,0,-1,0
-159.36,6.13,-30.37,910,-4168,7085,-1,0,0
-159.36,6.12,-30.38,895,-4167,7088,0,0,0
-159.37,6.11,-30.37,882,-4176,7085,0,0,0
-159.37,6.11,-30.37,872,-4174,7076,0,0,0
-159.37,6.11,-30.36,864,-4166,7085,0,-1,-1
-159.37,6.11,-30.36,874,-4169,7089,0,-1,0
-159.37,6.11,-30.35,879,-4169,7091,0,-1,-1
-159.37,6.12,-30.35,878,-4175,7094,0,-1,-1
-159.37,6.12,-30.35,882,-4171,7091,0,-1,-1
-159.37,6.12,-30.34,882,-4169,7092,0,-1,-1
-159.36,6.12,-30.33,888,-4158,7105,0,-1,-1
-159.36,6.12,-30.33,884,-4149,7105,-1,-1,-1
-159.36,6.13,-30.33,888,-4151,7097,0,0,-1
-159.36,6.13,-30.33,888,-4143,7088,0,-1,-1
-159.36,6.14,-30.33,899,-4160,7103,0,0,-1
-159.35,6.14,-30.32,902,-4162,7107,0,0,-1
-159.35,6.14,-30.32,879,-4160,7098,0,0,-1
-159.35,6.14,-30.32,879,-4165,7106,-1,-1,-1
-159.34,6.14,-30.32,879,-4163,7090,0,-1,-1
-159.33,6.15,-30.31,893,-4162,7098,0,-1,-1
-159.33,6.15,-30.30,897,-4157,7101,0,0,-1
-159.33,6.14,-30.29,893,-4156,7098,0,0,-1
-159.32,6.14,-30.28,894,-4147,7111,0,0,-1
-159.31,6.15,-30.28,898,-4155,7116,0,0,-1
-159.31,6.14,-30.27,890,-4151,7126,0,0,0
-159.31,6.14,-30.28,896,-4149,7101,-1,0,-1
-159.31,6.13,-30.28,880,-4142,7124,-1,0,-1
-159.31,6.14,-30.29,894,-4152,7113,-1,-1,0
-159.31,6.14,-30.30,889,-4165,7097,0,0,-1
-159.31,6.13,-30.30,894,-4162,7100,-1,0,-1
-159.31,6.13,-30.30,881,-4166,7095,0,0,-1
-159.30,6.12,-30.30,879,-4151,7096,-1,0,-1
-159.30,6.11,-30.30,877,-4157,7091,0,0,-1
-159.30,6.12,-30.30,888,-4163,7093,-1,-1,-1
-159.29,6.11,-30.29,885,-4163,7093,0,0,-1
-159.29,6.11,-30.29,888,-4159,7111,0,-1,-1
-159.29,6.11,-30.28,886,-4141,7095,-1,0,0
-159.29,6.11,-30.28,889,-4152,7112,0,0,0
-159.29,6.09,-30.28,873,-4148,7112,0,0,0
-159.29,6.09,-30.27,857,-4141,7117,-1,0,-1
-159.29,6.09,-30.28,839,-4155,7106,-1,-1,-1
-159.29,6.09,-30.28,862,-4164,7106,0,-1,-1
-159.29,6.10,-30.29,878,-4159,7103,-1,-1,-1
-159.28,6.10,-30.29,879,-4170,7103,0,-1,-1
-159.28,6.10,-30.29,900,-4173,7085,0,0,-1
-159.28,6.10,-30.29,898,-4168,7084,0,0,0
-159.28,6.10,-30.27,891,-4158,7095,0,0,0
-159.28,6.09,-30.27,879,-4148,7101,0,0,0
-159.29,6.09,-30.26,874,-4148,7113,0,0,0
-159.29,6.08,-30.26,871,-4158,7102,0,0,-1
-159.29,6.08,-30.26,870,-4161,7104,0,-1,-1
-159.29,6.08,-30.25,881,-4149,7112,0,0,-1
-159.28,6.08,-30.24,879,-4145,7106,0,-1,-1
-159.28,6.08,-30.24,883,-4151,7109,0,0,-1
-159.28,6.08,-30.24,882,-4153,7109,0,0,0
-159.29,6.07,-30.24,879,-4146,7102,0,0,0
-159.29,6.07,-30.24,879,-4143,7105,-1,0,0
-159.29,6.06,-30.24,870,-4154,7106,0,0,-1
-159.29,6.06,-30.24,870,-4157,7122,-1,-1,0
-159.29,6.06,-30.24,861,-4155,7121,-1,0,-1
-159.28,6.06,-30.25,861,-4151,7109,-1,-1,-1
-159.28,6.06,-30.25,863,-4152,7112,0,0,-1
-159.28,6.07,-30.26,882,-4154,7105,-1,-1,0
-159.28,6.06,-30.27,877,-4176,7090,0,0,-1
-159.28,6.05,-30.25,869,-4172,7122,0,0,0
-159.28,6.04,-30.26,876,-4132,7101,-1,0,0
-159.28,6.03,-30.25,877,-4164,7107,0,0,0
-159.29,6.03,-30.25,902,-4142,7144,-2,0,0
-159.30,6.02,-30.25,849,-4171,7082,2,0,-1
-159.31,6.02,-30.24,890,-4103,7114,-2,-1,0
-159.30,6.01,-30.25,869,-4151,7094,0,0,-1
-159.31,6.01,-30.25,871,-4163,7100,-1,0,0
-159.31,6.00,-30.26,877,-4178,7080,1,1,-1
-159.31,5.98,-30.26,870,-4160,7089,-1,0,0
-159.31,5.96,-30.22,867,-4118,7176,0,-1,0
-159.32,5.97,-30.27,861,-4146,7017,0,0,-1
-159.32,5.95,-30.23,855,-4095,7205,-3,-2,0
-159.34,5.96,-30.29,873,-4175,7042,2,1,-1
-159.34,5.96,-30.28,854,-4137,7127,-3,-1,0
-159.35,5.96,-30.30,864,-4191,7091,0,-1,0
-159.34,5.96,-30.28,855,-4151,7082,1,0,-1
-159.35,5.95,-30.29,866,-4177,7100,-1,0,0
-159.34,5.95,-30.27,856,-4148,7122,-1,-1,-1
-159.33,5.95,-30.27,859,-4164,7086,1,0,-1
-159.34,5.95,-30.28,859,-4150,7103,-2,-1,0
-159.33,5.94,-30.26,878,-4152,7133,0,0,-1
-159.34,5.94,-30.26,861,-4159,7097,0,0,0
-159.35,5.94,-30.26,845,-4156,7113,-1,-1,0
-159.35,5.94,-30.26,832,-4154,7076,-1,-1,-1
-159.34,5.93,-30.24,842,-4140,7164,-1,0,-1
-159.35,5.96,-30.28,853,-4176,7074,0,-1,0
-159.34,5.95,-30.25,854,-4150,7134,-1,-1,-1
-159.34,5.97,-30.28,838,-4184,7106,0,-1,-1
-159.33,5.98,-30.27,862,-4170,7081,0,-1,-1
-159.32,5.99,-30.26,886,-4142,7130,-1,-1,-1
-159.32,6.00,-30.27,883,-4152,7124,0,-1,0
-159.33,6.01,-30.28,891,-4167,7110,-1,-1,0
-159.33,6.00,-30.28,878,-4170,7098,0,0,0
-159.33,6.00,-30.26,862,-4141,7098,0,0,0
-159.34,6.00,-30.26,852,-4140,7105,0,-1,0
-159.34,6.01,-30.26,854,-4145,7105,-1,-1,-1
-159.34,6.01,-30.26,859,-4156,7107,0,-1,-1
-159.33,6.02,-30.25,875,-4162,7103,0,0,-1
-159.32,6.03,-30.24,878,-4149,7109,0,-1,-1
-159.32,6.03,-30.24,876,-4143,7110,0,-1,-1
-159.32,6.03,-30.23,877,-4141,7108,-1,-1,-1
-159.32,6.03,-30.23,874,-4148,7111,-1,0,-1
-159.32,6.03,-30.24,869,-4148,7105,-1,-1,0
-159.32,6.04,-30.25,859,-4147,7105,-1,-1,0
-159.33,6.04,-30.25,865,-4159,7101,-1,-1,0
-159.33,6.05,-30.25,869,-4158,7110,-1,-1,-1
-159.33,6.05,-30.25,869,-4149,7110,-1,-1,-1
-159.33,6.05,-30.26,868,-4152,7105,-1,-1,0
-159.33,6.05,-30.26,876,-4155,7104,0,0,-1
-159.32,6.05,-30.25,870,-4153,7102,0,-1,-1
-159.32,6.06,-30.25,871,-4146,7096,0,-1,-1
-159.32,6.06,-30.25,877,-4149,7104,0,-1,-1
-159.32,6.06,-30.24,879,-4149,7108,0,-1,-1
-159.31,6.07,-30.24,883,-4150,7104,0,-1,-1
-159.31,6.07,-30.24,880,-4154,7108,0,-1,-1
-159.31,6.07,-30.24,873,-4149,7105,0,-1,-1
-159.31,6.07,-30.24,876,-4145,7107,-1,-1,-1
-159.31,6.07,-30.24,870,-4145,7101,0,-1,-1
-159.31,6.08,-30.25,868,-4155,7094,0,-1,-1
-159.31,6.08,-30.25,877,-4157,7101,-1,-1,-1
-159.31,6.08,-30.25,880,-4151,7101,-1,-1,0
-159.31,6.08,-30.25,873,-4153,7107,-1,-1,0
-159.31,6.08,-30.26,880,-4157,7096,0,-1,-1
-159.31,6.08,-30.25,872,-4150,7109,0,-1,-1
-159.31,6.08,-30.25,874,-4147,7099,-1,-1,-1
-159.31,6.08,-30.26,880,-4152,7099,0,-1,-1
-159.31,6.09,-30.25,883,-4149,7103,0,0,-1
-159.31,6.09,-30.25,882,-4147,7108,0,0,-1
-159.30,6.09,-30.24,888,-4144,7111,0,0,0
-159.30,6.09,-30.24,888,-4142,7103,-1,0,-1
-159.30,6.09,-30.25,882,-4146,7097,-1,0,0
-159.31,6.08,-30.25,868,-4144,7102,-1,-1,-1
-159.31,6.09,-30.25,867,-4148,7106,-1,-1,-1
-159.31,6.10,-30.25,887,-4151,7111,-1,-1,-1
-159.30,6.11,-30.26,898,-4152,7107,-1,-1,-1
-159.30,6.11,-30.25,901,-4152,7105,0,0,0
-159.31,6.10,-30.25,892,-4152,7094,0,0,0
-159.31,6.10,-30.25,887,-4155,7093,0,0,0
-159.31,6.10,-30.25,870,-4151,7099,-1,-1,0
-159.32,6.10,-30.25,856,-4159,7104,0,-1,-1
-159.31,6.10,-30.25,858,-4151,7113,0,-1,-1
-159.31,6.11,-30.25,867,-4164,7119,0,-1,-1
-159.30,6.12,-30.25,884,-4155,7122,0,-1,-1
-159.30,6.13,-30.25,900,-4145,7112,-1,-1,-1
-159.30,6.13,-30.25,915,-4143,7104,0,0,0
-159.30,6.13,-30.25,901,-4146,7100,-1,0,0
-159.30,6.12,-30.24,879,-4144,7105,0,0,0
-159.31,6.11,-30.24,863,-4149,7111,-1,-1,0
-159.31,6.11,-30.25,861,-4143,7115,-1,-1,0
-159.32,6.11,-30.26,866,-4154,7114,-1,-1,-1
-159.32,6.12,-30.26,878,-4150,7104,-1,-1,-1
-159.31,6.13,-30.26,889,-4143,7101,0,-1,-1
-159.31,6.13,-30.26,888,-4144,7094,0,-1,-1
-159.31,6.13,-30.26,891,-4155,7093,0,-1,0
-159.32,6.13,-30.26,896,-4170,7092,0,0,0
-159.32,6.12,-30.26,877,-4159,7099,0,0,0
-159.32,6.12,-30.26,870,-4155,7106,0,-1,-1
-159.32,6.13,-30.26,875,-4157,7111,-1,-1,-1
-159.33,6.13,-30.26,888,-4158,7111,-1,-1,0
-159.33,6.13,-30.26,890,-4147,7107,0,0,0
-159.33,6.13,-30.26,894,-4142,7108,-1,-1,0
-159.33,6.12,-30.27,888,-4148,7109,-1,0,0
-159.34,6.12,-30.27,895,-4156,7120,-1,0,0
-159.34,6.12,-30.28,874,-4161,7115,-1,-1,0
-159.34,6.12,-30.29,871,-4164,7107,-1,-1,0
-159.34,6.13,-30.29,877,-4161,7092,0,-1,-1
-159.34,6.13,-30.28,878,-4158,7097,0,-1,-1
-159.34,6.13,-30.28,885,-4156,7110,-1,-1,-1
-159.34,6.14,-30.28,895,-4152,7093,0,0,-1
-159.34,6.14,-30.28,902,-4151,7104,0,0,0
-159.34,6.13,-30.27,888,-4146,7092,0,0,-1
-159.34,6.13,-30.26,887,-4137,7103,-1,0,0
-159.34,6.13,-30.27,878,-4145,7106,-1,-1,-1
-159.34,6.12,-30.27,873,-4151,7118,-1,-1,-1
-159.34,6.12,-30.28,878,-4154,7117,-1,-1,-1
-159.34,6.13,-30.28,879,-4148,7105,-1,-1,-1
-159.34,6.13,-30.28,889,-4150,7094,-1,-1,-1
-159.34,6.13,-30.29,898,-4162,7099,-1,0,-1
-159.33,6.13,-30.28,895,-4153,7091,0,0,-1
-159.33,6.13,-30.28,896,-4147,7088,0,0,-1
-159.33,6.13,-30.27,893,-4147,7097,0,0,-1
-159.33,6.12,-30.27,878,-4151,7095,0,0,-1
-159.32,6.12,-30.27,864,-4154,7107,0,-1,-1
-159.32,6.12,-30.26,870,-4155,7117,0,-1,-1
-159.32,6.13,-30.26,883,-4160,7102,0,-1,-1
-159.31,6.14,-30.26,894,-4148,7109,0,0,-1
-159.31,6.13,-30.25,898,-4156,7107,0,0,-1
-159.31,6.13,-30.25,894,-4154,7113,0,0,-1
-159.31,6.12,-30.25,877,-4140,7108,0,0,-1
-159.31,6.11,-30.25,858,-4147,7114,-1,-1,-1
-159.31,6.12,-30.25,862,-4155,7098,0,-1,-1
-159.30,6.12,-30.25,867,-4155,7098,0,-1,-1
-159.30,6.12,-30.24,874,-4158,7104,0,-1,-1
-159.30,6.13,-30.24,891,-4160,7106,0,-1,-1
-159.29,6.13,-30.23,899,-4144,7108,0,0,-1
-159.29,6.13,-30.22,898,-4138,7108,0,0,0
-159.29,6.12,-30.22,888,-4138,7101,0,0,0
-159.30,6.11,-30.22,875,-4139,7101,0,0,0
-159.30,6.10,-30.21,869,-4137,7116,0,0,-1
-159.29,6.10,-30.21,869,-4145,7118,-1,-1,-1
-159.29,6.10,-30.22,875,-4152,7107,-1,-1,-1
-159.29,6.11,-30.22,878,-4155,7097,0,-1,-1
-159.29,6.11,-30.21,875,-4151,7095,0,-1,-1
-159.29,6.11,-30.21,881,-4147,7093,0,0,-1
-159.28,6.11,-30.21,888,-4142,7116,0,0,-1
-159.28,6.10,-30.21,887,-4136,7103,-1,0,-1
-159.28,6.10,-30.20,883,-4143,7098,0,0,-1
-159.28,6.10,-30.20,881,-4139,7097,0,0,0
-159.28,6.09,-30.20,878,-4145,7110,0,0,-1
-159.28,6.09,-30.19,878,-4135,7108,-1,0,0
-159.28,6.09,-30.19,872,-4137,7110,-1,-1,-1
-159.29,6.09,-30.20,866,-4142,7102,-1,-1,-1
-159.29,6.09,-30.20,878,-4146,7098,0,0,-1
-159.28,6.09,-30.20,886,-4148,7099,0,0,-1
-159.28,6.09,-30.20,896,-4151,7105,0,0,0
-159.28,6.09,-30.20,882,-4154,7103,0,0,-1
-159.28,6.08,-30.20,878,-4159,7109,0,0,-1
-159.28,6.07,-30.20,876,-4147,7116,0,0,-1
-159.28,6.07,-30.19,875,-4146,7109,0,0,-1
-159.28,6.07,-30.19,874,-4145,7114,-1,0,-1
-159.28,6.06,-30.19,868,-4142,7112,0,0,0
-159.28,6.06,-30.19,867,-4147,7109,0,0,-1
-159.27,6.06,-30.19,879,-4144,7113,-1,0,-1
-159.27,6.06,-30.19,871,-4141,7106,-1,0,-1
-159.28,6.05,-30.19,866,-4143,7103,0,0,-1
-159.28,6.05,-30.19,872,-4141,7108,0,0,-1
-159.28,6.04,-30.19,877,-4143,7103,-1,0,0
-159.28,6.04,-30.19,877,-4137,7089,-1,0,0
-159.28,6.04,-30.20,870,-4147,7096,0,0,-1
-159.27,6.03,-30.18,868,-4150,7116,0,0,-1
-159.27,6.03,-30.18,870,-4138,7108,0,-1,-1
-159.27,6.03,-30.17,870,-4134,7116,0,-1,-1
-159.27,6.04,-30.17,884,-4141,7114,0,0,-1
-159.26,6.04,-30.17,885,-4132,7102,0,0,0
-159.26,6.03,-30.16,874,-4124,7111,0,0,0
-159.27,6.02,-30.16,863,-4118,7101,-1,0,0
-159.27,6.01,-30.16,854,-4127,7111,-1,0,0
-159.27,6.01,-30.17,847,-4133,7106,-1,0,-1
-159.27,6.01,-30.19,848,-4143,7110,-1,-1,0
-159.27,6.01,-30.19,865,-4163,7118,0,-1,-1
-159.27,6.02,-30.20,876,-4161,7104,-1,-1,-1
-159.27,6.02,-30.20,867,-4154,7103,0,-1,-1
-159.27,6.03,-30.21,893,-4161,7098,0,-1,0
-159.27,6.03,-30.20,892,-4167,7096,0,0,0
-159.27,6.02,-30.18,885,-4146,7108,0,0,0
-159.27,6.02,-30.17,868,-4128,7114,0,0,-1
-159.27,6.01,-30.16,858,-4118,7125,-1,-1,0
-159.27,6.02,-30.18,855,-4148,7121,0,-1,-1
-159.27,6.02,-30.17,862,-4152,7136,0,-1,-1
-159.27,6.02,-30.17,849,-4135,7126,-1,-1,-1
-159.27,6.03,-30.18,848,-4130,7113,-1,-1,-1
-159.27,6.04,-30.18,859,-4136,7101,-1,-1,-1
-159.27,6.04,-30.19,881,-4141,7100,0,-1,-1
-159.27,6.05,-30.20,885,-4138,7099,-1,-1,0
-159.27,6.05,-30.20,870,-4146,7097,-1,-1,0
-159.28,6.04,-30.20,870,-4146,7096,-1,-1,0
-159.28,6.05,-30.20,870,-4155,7100,0,-1,0
-159.28,6.05,-30.19,872,-4156,7115,-1,-1,-1
-159.28,6.05,-30.19,864,-4151,7116,0,-1,-1
-159.27,6.06,-30.19,868,-4148,7117,0,-1,-1
-159.27,6.06,-30.19,871,-4141,7106,0,-1,-1
-159.27,6.06,-30.18,873,-4138,7110,0,-1,-1
-159.28,6.06,-30.19,873,-4137,7102,0,-1,-1
-159.27,6.06,-30.18,872,-4136,7106,0,-1,-1
-159.28,6.06,-30.19,869,-4136,7113,-1,-1,0
-159.28,6.06,-30.19,874,-4131,7116,-1,-1,-1
-159.28,6.07,-30.20,880,-4129,7112,-1,-1,0
-159.28,6.07,-30.21,876,-4138,7101,0,-1,-1
-159.28,6.08,-30.20,880,-4146,7114,-1,-1,-1
-159.28,6.08,-30.21,872,-4146,7096,-1,-1,-1
-159.28,6.08,-30.21,871,-4152,7103,-1,-1,-1
-159.28,6.08,-30.22,870,-4164,7095,0,-1,-1
-159.27,6.09,-30.22,878,-4158,7101,0,-1,-1
-159.27,6.08,-30.21,878,-4146,7103,0,-1,0
-159.27,6.09,-30.21,877,-4142,7103,0,-1,-1
-159.27,6.09,-30.21,884,-4150,7106,0,0,-1
-159.27,6.09,-30.20,884,-4151,7116,0,0,-1
-159.27,6.09,-30.20,879,-4144,7117,-1,0,0
-159.27,6.08,-30.20,870,-4137,7111,0,-1,-1
-159.27,6.09,-30.20,883,-4139,7107,0,-1,-1
-159.27,6.10,-30.20,886,-4143,7114,-1,-1,-1
-159.27,6.10,-30.20,892,-4142,7114,-1,-1,-1
-159.27,6.10,-30.20,898,-4134,7108,0,0,0
-159.27,6.10,-30.20,887,-4133,7096,-1,0,0
-159.27,6.09,-30.21,876,-4135,7097,-1,0,0
-159.28,6.09,-30.22,867,-4137,7105,-1,-1,0
-159.28,6.09,-30.22,859,-4142,7107,0,-1,-1
-159.28,6.09,-30.22,858,-4149,7105,-1,-1,-1
-159.27,6.10,-30.22,874,-4156,7112,0,-1,-1
-159.27,6.11,-30.22,885,-4150,7105,0,-1,-1
-159.27,6.12,-30.22,899,-4142,7098,0,-1,-1
-159.27,6.12,-30.22,903,-4143,7088,0,0,-1
-159.27,6.12,-30.20,901,-4138,7105,0,0,0
-159.27,6.11,-30.20,879,-4130,7109,0,0,0
-159.28,6.10,-30.19,863,-4125,7111,-1,-1,0
-159.28,6.10,-30.20,853,-4130,7117,-1,-1,-1
-159.28,6.10,-30.20,864,-4139,7110,-1,-1,-1
-159.27,6.11,-30.21,871,-4145,7113,-1,-1,-1
-159.27,6.12,-30.21,885,-4148,7097,-1,-1,-1
-159.26,6.12,-30.20,898,-4145,7100,0,0,-1
-159.26,6.12,-30.20,898,-4151,7103,0,0,-1
-159.27,6.12,-30.20,889,-4146,7111,-1,0,-1
-159.27,6.12,-30.20,880,-4143,7099,-1,0,-1
-159.27,6.12,-30.20,876,-4145,7106,0,-1,-1
-159.27,6.12,-30.21,871,-4139,7101,-1,-1,-1
-159.26,6.13,-30.21,882,-4143,7098,0,-1,-1
-159.26,6.13,-30.21,889,-4144,7101,-1,-1,-1
-159.27,6.12,-30.21,881,-4145,7105,0,-1,0
-159.27,6.12,-30.21,882,-4146,7106,-1,0,0
-159.27,6.12,-30.21,879,-4141,7106,0,0,-1
-159.27,6.12,-30.20,881,-4143,7109,0,0,-1
-159.27,6.12,-30.20,876,-4142,7108,0,-1,-1
-159.27,6.12,-30.20,884,-4148,7114,0,-1,-1
-159.27,6.12,-30.20,883,-4146,7108,-1,-1,-1
-159.26,6.12,-30.20,892,-4139,7105,-1,-1,-1
-159.26,6.13,-30.21,899,-4134,7106,-1,-1,-1
-159.26,6.13,-30.21,899,-4133,7098,-1,-1,0
-159.26,6.13,-30.21,898,-4152,7107,0,0,0
-159.26,6.13,-30.21,887,-4143,7115,-1,0,0
-159.27,6.12,-30.21,876,-4143,7115,-1,-1,0
-159.27,6.13,-30.22,879,-4150,7110,-1,-1,0
-159.27,6.13,-30.23,886,-4152,7113,0,0,-1
-159.27,6.12,-30.23,887,-4147,7102,-1,0,0
-159.27,6.12,-30.23,894,-4157,7094,-1,-1,-1
-159.27,6.12,-30.23,895,-4156,7095,-1,0,0
-159.27,6.12,-30.23,887,-4153,7103,0,-1,0
-159.27,6.12,-30.23,890,-4147,7110,0,0,0
-159.28,6.11,-30.23,883,-4143,7104,-1,0,0
-159.29,6.11,-30.24,869,-4142,7099,-1,0,0
-159.29,6.10,-30.24,859,-4145,7102,-1,-1,0
-159.29,6.11,-30.25,879,-4157,7098,0,-1,0
-159.30,6.11,-30.25,893,-4152,7095,0,0,-1
-159.30,6.11,-30.25,888,-4146,7102,0,0,0
-159.30,6.11,-30.25,903,-4145,7111,-1,0,0
-159.31,6.10,-30.26,891,-4154,7090,0,0,0
-159.31,6.08,-30.26,870,-4149,7103,-1,0,0
-159.32,6.08,-30.26,854,-4151,7101,-1,-1,0
-159.32,6.08,-30.26,851,-4153,7106,-1,-1,-1
-159.32,6.08,-30.27,858,-4160,7108,-1,-1,-1
-159.32,6.09,-30.28,876,-4161,7098,0,-1,-1
-159.32,6.10,-30.27,890,-4147,7100,-1,-1,-1
-159.32,6.10,-30.27,893,-4157,7098,0,0,-1
-159.31,6.11,-30.27,902,-4154,7109,0,0,0
-159.32,6.10,-30.27,883,-4142,7093,0,0,0
-159.32,6.09,-30.28,873,-4151,7094,-1,0,0
-159.33,6.09,-30.28,868,-4157,7100,0,-1,0
-159.34,6.09,-30.28,868,-4152,7106,-1,-1,0
-159.34,6.09,-30.28,871,-4159,7102,-1,-1,-1
-159.34,6.10,-30.29,872,-4162,7095,0,-1,-1
-159.34,6.09,-30.28,873,-4158,7093,0,0,-1
-159.34,6.09,-30.28,876,-4152,7097,0,0,-1
-159.33,6.10,-30.27,884,-4150,7103,0,0,-1
-159.32,6.10,-30.27,887,-4150,7106,0,0,-1
-159.32,6.10,-30.26,886,-4152,7112,0,0,-1
-159.31,6.10,-30.25,886,-4148,7111,0,-1,-1
-159.30,6.11,-30.25,891,-4145,7101,0,-1,-1
-159.30,6.12,-30.25,894,-4145,7107,-1,-1,-1
-159.30,6.12,-30.26,898,-4155,7102,0,-1,-1
-159.30,6.12,-30.26,898,-4157,7095,0,-1,-1
-159.29,6.13,-30.26,886,-4157,7101,0,0,-1
-159.30,6.12,-30.25,876,-4157,7109,0,0,-1
-159.30,6.12,-30.25,881,-4163,7103,0,0,-1
-159.29,6.12,-30.25,890,-4161,7087,0,0,-1
-159.29,6.12,-30.24,889,-4155,7091,0,-1,-1
-159.29,6.12,-30.23,890,-4158,7096,0,-1,-1
-159.28,6.12,-30.23,891,-4147,7106,0,0,-1
-159.28,6.12,-30.22,882,-4145,7105,-1,-1,-1
-159.28,6.12,-30.22,889,-4145,7107,-1,-1,-1
-159.27,6.13,-30.23,895,-4145,7099,0,0,-1
-159.27,6.13,-30.22,895,-4143,7107,-1,-1,0
-159.27,6.13,-30.23,890,-4140,7104,-1,0,-1
-159.27,6.13,-30.23,884,-4147,7096,-1,0,0
-159.27,6.13,-30.23,888,-4156,7096,0,0,-1
-159.27,6.13,-30.23,881,-4157,7113,0,-1,-1
-159.27,6.13,-30.23,877,-4163,7107,0,-1,-1
-159.27,6.13,-30.22,889,-4160,7099,0,-1,-1
-159.26,6.13,-30.22,894,-4149,7106,0,0,-1
-159.27,6.13,-30.22,897,-4158,7103,0,0,-1
-159.26,6.13,-30.21,890,-4148,7089,0,0,-1
-159.26,6.12,-30.21,881,-4153,7086,0,0,-1
-159.26,6.13,-30.21,883,-4152,7091,0,-1,-1
-159.26,6.13,-30.20,885,-4142,7103,0,0,-1
-159.25,6.13,-30.20,891,-4137,7105,-1,0,-1
-159.25,6.12,-30.20,891,-4145,7099,0,0,-1
-159.25,6.12,-30.20,885,-4137,7106,-1,0,-1
-159.25,6.11,-30.21,883,-4141,7089,-1,0,0
-159.26,6.11,-30.21,874,-4153,7099,-1,-1,0
-159.26,6.10,-30.22,863,-4156,7093,-1,-1,-1
-159.26,6.11,-30.22,870,-4162,7102,0,-1,-1
-159.25,6.12,-30.23,886,-4160,7098,-1,-1,-1
-159.24,6.12,-30.23,901,-4154,7086,0,0,-1
-159.24,6.11,-30.22,896,-4154,7089,0,0,-1
-159.24,6.11,-30.21,893,-4142,7088,0,0,-1
-159.24,6.10,-30.20,888,-4142,7098,0,0,0
-159.24,6.08,-30.19,881,-4144,7114,0,0,0
-159.25,6.08,-30.19,867,-4132,7126,-1,0,0
-159.25,6.06,-30.19,854,-4139,7112,-1,0,-1
-159.25,6.06,-30.19,858,-4146,7122,-1,-1,-1
-159.25,6.06,-30.20,875,-4140,7101,0,0,-1
-159.25,6.06,-30.19,868,-4133,7114,-1,-1,-1
-159.25,6.06,-30.20,866,-4135,7100,-1,0,-1
-159.24,6.06,-30.21,868,-4147,7092,0,0,-1
-159.24,6.05,-30.20,882,-4143,7108,-1,0,0
-159.25,6.05,-30.20,875,-4143,7125,0,0,0
-159.25,6.04,-30.21,871,-4139,7109,-1,-1,0
-159.25,6.04,-30.22,862,-4163,7100,0,0,-1
-159.25,6.04,-30.21,881,-4152,7107,0,0,0
-159.25,6.04,-30.21,876,-4137,7107,-1,-1,0
-159.25,6.05,-30.21,868,-4137,7103,-1,-1,0
-159.26,6.04,-30.21,866,-4140,7094,0,-1,-1
-159.26,6.04,-30.21,861,-4141,7107,0,-1,-1
-159.26,6.05,-30.20,873,-4141,7106,0,-1,-1
-159.26,6.06,-30.20,871,-4138,7104,0,-1,0
-159.26,6.06,-30.20,875,-4139,7106,0,-1,-1
-159.26,6.06,-30.19,875,-4138,7116,0,-1,-1
-159.25,6.06,-30.19,870,-4141,7115,-1,-1,0
-159.25,6.06,-30.19,875,-4135,7106,0,-1,-1
-159.25,6.06,-30.20,872,-4140,7104,-1,-1,-1
-159.26,6.07,-30.20,876,-4139,7104,0,-1,-1
-159.26,6.07,-30.20,872,-4143,7106,-1,-1,0
-159.26,6.07,-30.20,867,-4137,7111,0,-1,-1
-159.26,6.07,-30.20,866,-4138,7115,0,-1,-1
-159.26,6.07,-30.20,868,-4135,7109,0,-1,-1
-159.26,6.08,-30.20,870,-4139,7096,-1,-1,0
-159.25,6.09,-30.21,873,-4171,7077,0,-1,-1
-159.25,6.09,-30.19,885,-4159,7105,0,0,-1
-159.25,6.09,-30.19,884,-4140,7106,0,0,-1
-159.25,6.09,-30.19,873,-4142,7107,-1,0,-1
-159.25,6.09,-30.19,870,-4157,7078,0,0,-1
-159.24,6.08,-30.17,873,-4139,7093,0,0,-1
-159.24,6.09,-30.17,879,-4132,7112,0,-1,0
-159.24,6.09,-30.16,892,-4141,7118,-1,-1,-1
-159.24,6.09,-30.16,908,-4146,7110,0,0,-1
-159.23,6.08,-30.17,901,-4185,7057,0,0,-1
-159.22,6.06,-30.13,889,-4163,7081,2,1,-1
-159.22,6.02,-30.10,857,-4137,7096,-1,0,-1
-159.21,6.01,-30.08,844,-4135,7110,1,0,-1
-159.21,6.00,-30.05,848,-4105,7156,0,0,-1
-159.21,6.01,-30.05,858,-4127,7098,0,-1,-1
-159.20,6.00,-30.01,862,-4086,7170,0,0,-1
-159.20,6.01,-30.02,893,-4105,7115,0,0,0
-159.19,5.99,-30.01,892,-4117,7137,0,1,-1
-159.20,5.97,-30.01,882,-4113,7116,0,0,0
-159.19,5.94,-29.99,866,-4087,7135,0,1,0
-159.21,5.92,-29.99,860,-4065,7144,-2,0,0
-159.22,5.90,-30.01,860,-4108,7130,-1,1,0
-159.23,5.87,-30.03,831,-4122,7111,-1,0,0
-159.23,5.85,-30.03,826,-4145,7124,0,0,0
-159.24,5.84,-30.04,836,-4148,7127,-1,0,0
-159.24,5.82,-30.03,838,-4139,7106,0,0,0
-159.23,5.82,-30.02,843,-4140,7103,0,0,-1
-159.23,5.79,-29.99,848,-4158,7110,1,1,-1
-159.22,5.76,-29.97,841,-4131,7102,0,1,-1
-159.21,5.74,-29.94,846,-4140,7101,1,1,-1
-159.20,5.70,-29.90,847,-4164,7098,1,2,-1
-159.17,5.63,-29.83,823,-4152,7085,3,3,-1
-159.16,5.56,-29.75,770,-4110,7125,2,2,-1
-159.13,5.52,-29.68,812,-4056,7134,1,2,-1
-159.12,5.46,-29.62,785,-4084,7161,2,1,-1
-159.10,5.42,-29.56,788,-4071,7144,2,2,-1
-159.08,5.36,-29.48,804,-4049,7190,1,2,-1
-159.07,5.32,-29.42,759,-4015,7194,1,1,-1
-159.07,5.29,-29.39,773,-4018,7191,0,1,-1
-159.05,5.25,-29.35,748,-4035,7176,0,1,-1
-159.03,5.22,-29.33,760,-4061,7169,1,2,-1
-159.01,5.18,-29.29,777,-4075,7170,1,2,-1
-158.98,5.13,-29.24,760,-4068,7131,1,2,-2
-158.93,5.06,-29.15,732,-4070,7154,3,4,-2
-158.89,4.99,-29.08,730,-4071,7150,3,3,-1
-158.87,4.92,-28.98,721,-4023,7166,3,3,-1
-158.85,4.85,-28.87,666,-3994,7268,2,1,-1
-158.85,4.82,-28.81,657,-3977,7255,2,0,0
-158.85,4.82,-28.75,670,-3966,7285,2,0,-1
-158.85,4.82,-28.72,668,-3946,7218,0,-1,0
-158.83,4.83,-28.67,716,-3935,7233,0,0,-1
-158.81,4.83,-28.64,731,-3952,7216,2,1,-1
-158.79,4.81,-28.60,728,-3939,7223,1,1,-1
-158.77,4.78,-28.56,720,-3951,7239,1,1,-1
-158.74,4.75,-28.53,717,-3946,7246,0,1,-1
-158.73,4.71,-28.49,704,-3923,7280,0,1,-1
-158.73,4.70,-28.47,701,-3910,7276,0,1,-1
-158.72,4.67,-28.47,688,-3936,7240,0,1,-1
-158.71,4.63,-28.45,659,-3947,7240,0,1,-1
-158.70,4.60,-28.44,662,-3938,7262,1,0,-1
-158.69,4.58,-28.42,657,-3933,7245,1,1,-1
-158.68,4.57,-28.40,663,-3944,7246,0,0,-1
-158.67,4.56,-28.38,647,-3958,7252,0,0,-1
-158.66,4.54,-28.36,657,-3941,7258,0,0,-1
-158.65,4.53,-28.33,661,-3927,7263,0,0,-1
-158.65,4.51,-28.31,641,-3930,7243,0,0,-1
-158.64,4.50,-28.29,627,-3898,7228,0,0,-1
-158.64,4.49,-28.27,629,-3935,7250,1,0,-1
-158.62,4.49,-28.24,641,-3934,7245,1,0,-1
-158.60,4.48,-28.20,632,-3922,7270,1,0,-1
-158.59,4.47,-28.16,627,-3904,7277,0,0,-1
-158.57,4.48,-28.14,647,-3889,7266,0,0,-1
-158.56,4.48,-28.12,656,-3879,7251,0,0,-1
-158.55,4.47,-28.09,650,-3880,7292,0,0,-1
-158.54,4.46,-28.07,648,-3872,7273,0,0,-1
-158.53,4.46,-28.07,639,-3874,7266,0,0,-1
-158.53,4.45,-28.05,637,-3892,7280,0,0,-1
-158.52,4.44,-28.04,644,-3889,7274,0,0,-1
-158.52,4.43,-28.03,641,-3901,7269,0,0,-1
-158.51,4.43,-28.03,637,-3902,7269,0,0,-1
-158.50,4.43,-28.01,626,-3888,7271,0,0,-1
-158.49,4.42,-27.98,627,-3872,7275,0,-1,-1
-158.49,4.42,-27.98,637,-3899,7282,0,0,-1
-158.48,4.42,-27.95,627,-3877,7283,0,0,-1
-158.47,4.42,-27.93,628,-3856,7300,0,0,-1
-158.46,4.42,-27.90,641,-3865,7295,0,0,-1
-158.45,4.42,-27.89,641,-3877,7281,0,0,-1
-158.45,4.42,-27.86,635,-3882,7286,1,0,-1
-158.44,4.41,-27.84,643,-3852,7290,0,0,-1
-158.43,4.40,-27.82,644,-3833,7312,0,0,-1
-158.43,4.40,-27.81,640,-3841,7296,0,0,-1
-158.42,4.39,-27.81,639,-3847,7294,0,0,-1
-158.41,4.39,-27.79,631,-3842,7309,0,0,-1
-158.41,4.39,-27.79,635,-3848,7311,0,0,0
-158.40,4.37,-27.80,605,-3844,7294,-1,0,-1
-158.40,4.38,-27.79,623,-3834,7288,-1,-1,0
-158.40,4.38,-27.80,641,-3845,7288,-1,0,-1
-158.40,4.38,-27.81,644,-3858,7282,0,0,-1
-158.40,4.37,-27.81,651,-3853,7286,-1,0,0
-158.39,4.37,-27.81,645,-3858,7279,0,0,-1
-158.39,4.36,-27.81,643,-3857,7287,0,0,0
-158.40,4.35,-27.80,622,-3850,7281,-1,0,-1
-158.40,4.34,-27.79,632,-3853,7292,0,0,0
-158.40,4.34,-27.80,633,-3862,7284,0,0,-1
-158.39,4.33,-27.80,624,-3863,7310,0,0,-1
-158.39,4.33,-27.80,613,-3858,7299,0,0,-1
-158.39,4.33,-27.79,619,-3853,7299,0,-1,-1
-158.38,4.33,-27.79,629,-3860,7313,0,0,-1
-158.37,4.33,-27.78,645,-3848,7305,0,0,-1
-158.37,4.31,-27.78,654,-3848,7298,0,0,-1
-158.36,4.30,-27.77,643,-3840,7291,0,0,-1
-158.37,4.28,-27.77,626,-3849,7293,0,0,-1
-158.37,4.25,-27.77,603,-3834,7289,-1,0,0
-158.37,4.23,-27.77,589,-3843,7308,-1,0,0
-158.37,4.23,-27.78,604,-3858,7309,-1,0,0
-158.37,4.23,-27.79,625,-3869,7311,-1,0,0
-158.38,4.22,-27.79,619,-3855,7308,-1,0,0
-158.38,4.21,-27.79,616,-3838,7299,-1,0,0
-158.39,4.20,-27.79,609,-3838,7278,-1,0,0
-158.40,4.19,-27.80,599,-3849,7276,-1,0,0
-158.40,4.17,-27.81,588,-3862,7279,-1,0,0
-158.40,4.17,-27.81,583,-3866,7295,-1,0,0
-158.41,4.15,-27.82,578,-3876,7302,-1,0,-1
-158.40,4.16,-27.81,585,-3875,7306,0,-1,-1
-158.40,4.16,-27.81,600,-3881,7289,0,-1,-1
-158.39,4.17,-27.81,610,-3874,7287,0,0,-1
-158.39,4.17,-27.80,616,-3850,7277,0,0,0
-158.39,4.17,-27.79,610,-3850,7269,0,0,0
-158.39,4.16,-27.78,603,-3853,7284,0,0,-1
-158.38,4.15,-27.77,594,-3848,7300,0,0,-1
-158.38,4.14,-27.76,586,-3852,7315,0,0,-1
-158.38,4.13,-27.75,583,-3845,7325,0,0,-1
-158.38,4.13,-27.74,579,-3838,7323,0,0,-1
-158.37,4.13,-27.73,585,-3834,7309,0,0,-1
-158.37,4.13,-27.73,592,-3833,7290,-1,0,-1
-158.37,4.12,-27.74,598,-3839,7286,-1,0,-1
-158.37,4.12,-27.74,599,-3843,7300,-1,0,-1
-158.36,4.12,-27.74,601,-3849,7306,-1,0,-1
-158.36,4.11,-27.74,597,-3849,7304,-1,0,-1
-158.36,4.10,-27.75,590,-3847,7301,-1,0,-1
-158.36,4.10,-27.75,585,-3850,7292,0,0,0
-158.36,4.10,-27.74,589,-3848,7298,0,0,-1
-158.36,4.09,-27.73,585,-3841,7308,0,0,-1
-158.36,4.08,-27.73,587,-3847,7310,0,0,0
-158.36,4.07,-27.72,580,-3842,7308,0,0,-1
-158.35,4.07,-27.72,571,-3837,7293,-1,0,-1
-158.35,4.07,-27.72,573,-3850,7302,-1,0,-1
-158.35,4.06,-27.72,576,-3851,7311,0,0,-1
-158.34,4.06,-27.72,562,-3849,7308,0,-1,-1
-158.34,4.07,-27.71,575,-3846,7306,-1,-1,-1
-158.34,4.08,-27.71,599,-3848,7297,0,-1,-1
-158.33,4.08,-27.70,592,-3847,7310,0,0,-1
-158.33,4.08,-27.69,592,-3839,7308,0,-1,0
-158.33,4.07,-27.69,609,-3844,7310,0,0,-1
-158.33,4.07,-27.69,601,-3850,7298,0,0,0
-158.32,4.06,-27.67,598,-3830,7316,0,0,-1
-158.32,4.05,-27.67,586,-3829,7314,0,0,0
-158.32,4.04,-27.66,587,-3839,7314,0,0,-1
-158.32,4.03,-27.66,586,-3831,7309,-1,0,-1
-158.33,4.03,-27.67,582,-3838,7313,-1,0,-1
-158.32,4.01,-27.67,576,-3832,7317,-1,0,-1
-158.33,4.01,-27.68,590,-3842,7308,0,0,0
-158.33,4.00,-27.68,583,-3837,7311,0,0,-1
-158.33,4.00,-27.68,587,-3841,7317,-1,0,0
-158.33,3.98,-27.68,589,-3840,7312,-1,0,-1
-158.33,3.97,-27.68,574,-3830,7311,-1,0,0
-158.34,3.96,-27.69,568,-3824,7298,-1,0,0
-158.33,3.94,-27.70,553,-3836,7305,-1,0,-1
-158.34,3.94,-27.70,547,-3846,7310,-1,0,-1
-158.34,3.94,-27.71,539,-3853,7314,-1,-1,-1
-158.34,3.94,-27.72,549,-3865,7298,-1,-1,-1
-158.33,3.95,-27.72,560,-3866,7292,0,-1,-1
-158.33,3.96,-27.72,575,-3861,7297,0,-1,-1
-158.33,3.96,-27.72,585,-3855,7304,0,0,-1
-158.32,3.95,-27.70,587,-3840,7307,0,0,0
-158.33,3.95,-27.70,587,-3843,7308,0,0,0
-158.32,3.95,-27.69,573,-3842,7307,0,0,0
-158.33,3.93,-27.68,555,-3839,7308,0,0,-1
-158.33,3.93,-27.68,552,-3830,7312,0,-1,-1
-158.32,3.93,-27.68,553,-3828,7321,-1,-1,-1
-158.32,3.94,-27.68,559,-3835,7313,-1,-1,-1
-158.32,3.94,-27.68,569,-3839,7310,-1,-1,-1
-158.32,3.95,-27.68,569,-3844,7308,0,-1,-1
-158.31,3.95,-27.68,573,-3837,7312,0,0,-1
-158.31,3.95,-27.68,578,-3832,7304,-1,0,-1
-158.31,3.95,-27.68,572,-3830,7308,-1,-1,-1
-158.31,3.95,-27.68,581,-3836,7301,-1,-1,0
-158.31,3.95,-27.69,580,-3853,7302,0,0,-1
-158.31,3.95,-27.69,571,-3852,7299,0,-1,-1
-158.31,3.95,-27.68,567,-3847,7300,0,-1,-1
-158.31,3.95,-27.69,568,-3845,7300,0,-1,-1
-158.31,3.95,-27.68,569,-3846,7291,0,-1,-1
-158.30,3.95,-27.68,577,-3839,7298,0,0,-1
-158.30,3.95,-27.67,579,-3832,7299,0,0,-1
-158.30,3.95,-27.67,567,-3834,7306,0,0,-1
-158.30,3.95,-27.67,577,-3843,7311,-1,0,-1
-158.30,3.94,-27.67,575,-3839,7302,-1,0,-1
-158.30,3.94,-27.68,564,-3829,7293,0,-1,-1
-158.30,3.94,-27.68,560,-3823,7303,-1,-1,-1
-158.30,3.94,-27.68,570,-3823,7300,-1,0,-1
-158.29,3.95,-27.69,568,-3836,7297,-1,0,-1
-158.29,3.95,-27.70,565,-3851,7297,-1,-1,-1
-158.29,3.94,-27.70,564,-3839,7293,-1,0,-1
-158.29,3.95,-27.71,574,-3846,7299,-1,-1,0
-158.29,3.96,-27.72,564,-3856,7305,-1,-1,-1
-158.30,3.97,-27.72,567,-3857,7291,0,-1,0
-158.30,3.97,-27.73,593,-3869,7300,-1,0,-1
-158.30,3.97,-27.72,576,-3873,7291,0,0,-1
-158.30,3.97,-27.71,561,-3866,7284,0,-1,-1
-158.29,3.97,-27.68,576,-3837,7284,0,0,-1
-158.28,3.97,-27.67,587,-3836,7307,0,0,-1
-158.28,3.97,-27.66,596,-3838,7318,0,0,-1
-158.27,3.97,-27.66,567,-3812,7299,-1,0,-1
-158.27,3.97,-27.66,582,-3812,7304,-1,-1,-1
-158.27,3.97,-27.66,587,-3820,7300,-1,0,-1
-158.27,3.97,-27.66,598,-3816,7318,-1,0,0
-158.27,3.97,-27.66,584,-3824,7321,-1,0,0
-158.27,3.97,-27.66,570,-3842,7312,0,0,-1
-158.27,3.96,-27.67,571,-3849,7301,-1,0,-1
-158.26,3.95,-27.67,561,-3845,7298,-1,0,-1
-158.26,3.94,-27.68,540,-3848,7286,0,0,-1
-158.26,3.93,-27.67,539,-3838,7305,-1,-1,-1
-158.25,3.93,-27.67,551,-3842,7309,0,-1,-1
