Yaw,Pitch,Roll,AX,AY,AZ,GX,GY,GZ
-160.19,4.30,-27.79,622,-3843,7298,0,-1,0
-160.19,4.30,-27.78,621,-3839,7300,0,-1,-1
-160.18,4.31,-27.78,620,-3839,7296,0,-1,0
-160.18,4.31,-27.78,619,-3840,7300,0,0,-1
-160.19,4.30,-27.78,620,-3837,7301,-1,0,-1
-160.19,4.30,-27.78,618,-3835,7302,-1,0,0
-160.18,4.31,-27.78,622,-3839,7301,-1,-1,0
-160.18,4.31,-27.78,627,-3837,7313,-1,-1,0
-160.19,4.31,-27.78,626,-3834,7308,-1,-1,0
-160.19,4.32,-27.79,623,-3838,7297,-1,-1,-1
-160.19,4.32,-27.79,627,-3839,7289,-1,-1,-1
-160.19,4.32,-27.80,621,-3842,7282,-1,0,0
-160.19,4.32,-27.80,613,-3846,7279,0,-1,0
-160.19,4.32,-27.80,620,-3848,7281,0,-1,0
-160.19,4.32,-27.80,624,-3853,7281,0,-1,-1
-160.19,4.32,-27.79,625,-3844,7291,0,0,0
-160.19,4.32,-27.78,626,-3833,7310,0,0,0
-160.19,4.32,-27.77,623,-3829,7305,-1,0,0
-160.19,4.32,-27.78,612,-3826,7297,-1,0,0
-160.20,4.31,-27.78,602,-3826,7310,-1,-1,0
-160.20,4.31,-27.79,605,-3834,7297,-1,-1,0
-160.20,4.32,-27.80,615,-3840,7300,-1,-1,-1
-160.20,4.32,-27.81,612,-3856,7297,-1,-1,-1
-160.20,4.33,-27.82,620,-3857,7286,0,-1,-1
-160.20,4.33,-27.81,627,-3852,7291,0,0,-1
-160.20,4.33,-27.80,630,-3854,7304,0,0,-1
-160.20,4.32,-27.80,632,-3843,7297,0,0,0
-160.20,4.32,-27.79,627,-3834,7302,0,0,0
-160.20,4.32,-27.79,611,-3828,7301,-1,0,0
-160.20,4.31,-27.79,609,-3827,7308,-1,-1,0
-160.20,4.31,-27.79,612,-3837,7306,-1,-1,0
-160.20,4.32,-27.80,613,-3849,7309,-1,-1,0
-160.20,4.32,-27.80,611,-3849,7291,-1,-1,0
-160.21,4.32,-27.81,623,-3838,7284,-1,0,0
-160.21,4.32,-27.81,630,-3854,7290,-1,0,0
-160.21,4.32,-27.81,621,-3847,7287,0,-1,0
-160.21,4.32,-27.81,615,-3857,7289,0,0,-1
-160.21,4.32,-27.80,620,-3840,7305,0,-1,-1
-160.21,4.32,-27.80,620,-3829,7297,-1,-1,-1
-160.21,4.33,-27.80,627,-3828,7297,-1,-1,-1
-160.21,4.34,-27.81,630,-3830,7300,-1,-1,-1
-160.21,4.34,-27.81,638,-3833,7302,-1,-1,0
-160.21,4.34,-27.82,641,-3831,7298,-1,0,0
-160.22,4.33,-27.82,627,-3842,7294,-1,0,0
-160.22,4.33,-27.82,622,-3846,7298,-1,-1,0
-160.22,4.33,-27.83,626,-3853,7297,-1,0,0
-160.22,4.33,-27.83,621,-3841,7297,-1,-1,0
-160.22,4.33,-27.83,618,-3839,7296,-1,-1,0
-160.22,4.34,-27.84,625,-3836,7285,-1,-1,0
-160.22,4.34,-27.84,620,-3843,7284,-1,-1,-1
-160.22,4.34,-27.85,628,-3851,7294,-1,-1,0
-160.22,4.34,-27.85,630,-3847,7293,-1,-1,0
-160.23,4.34,-27.86,631,-3852,7285,-1,-1,0
-160.23,4.34,-27.87,628,-3859,7279,-1,-1,0
-160.24,4.34,-27.87,628,-3853,7282,-1,-1,0
-160.24,4.34,-27.87,628,-3846,7290,-1,0,0
-160.25,4.33,-27.88,625,-3847,7287,-1,0,0
-160.25,4.33,-27.88,616,-3849,7284,-1,0,0
-160.25,4.32,-27.88,610,-3846,7284,-1,-1,0
-160.26,4.32,-27.88,610,-3845,7302,-1,-1,0
-160.26,4.32,-27.88,618,-3854,7298,-1,-1,0
-160.27,4.32,-27.89,611,-3851,7298,-1,-1,0
-160.28,4.32,-27.90,617,-3858,7297,-1,0,0
-160.28,4.32,-27.91,622,-3858,7289,-1,0,0
-160.28,4.31,-27.92,607,-3850,7289,-1,-1,0
-160.29,4.32,-27.92,608,-3850,7281,-1,-1,0
-160.29,4.32,-27.94,618,-3868,7279,-1,-1,0
-160.29,4.32,-27.93,609,-3893,7312,0,-1,-1
-160.29,4.34,-27.93,591,-3894,7329,0,-1,-1
-160.28,4.36,-27.92,581,-3876,7308,0,-1,-1
-160.26,4.39,-27.92,591,-3860,7308,-1,-2,-1
-160.24,4.43,-27.91,623,-3836,7270,0,-1,-1
-160.22,4.45,-27.91,652,-3821,7251,-1,-1,-1
-160.21,4.46,-27.90,683,-3811,7240,0,0,-1
-160.21,4.46,-27.90,694,-3811,7250,-1,0,0
-160.22,4.45,-27.89,685,-3838,7284,0,0,0
-160.23,4.42,-27.89,665,-3853,7297,0,0,0
-160.25,4.40,-27.89,638,-3866,7298,0,0,0
-160.26,4.38,-27.89,615,-3866,7296,0,0,0
-160.26,4.37,-27.88,608,-3866,7281,0,0,0
-160.26,4.37,-27.87,607,-3857,7283,0,-1,-1
-160.26,4.37,-27.86,625,-3851,7271,0,0,-1
-160.26,4.36,-27.85,632,-3841,7284,0,0,-1
-160.25,4.36,-27.83,634,-3840,7306,0,0,0
-160.25,4.35,-27.82,627,-3840,7304,0,0,0
-160.25,4.34,-27.82,611,-3848,7308,0,0,0
-160.26,4.33,-27.81,611,-3852,7298,0,0,0
-160.26,4.33,-27.81,599,-3851,7294,0,-1,0
-160.26,4.33,-27.80,604,-3852,7291,0,-1,-1
-160.26,4.33,-27.80,614,-3860,7297,0,0,-1
-160.25,4.33,-27.80,616,-3848,7309,0,0,-1
-160.25,4.33,-27.79,615,-3844,7300,-1,0,-1
-160.25,4.33,-27.79,623,-3848,7288,-1,-1,-1
-160.25,4.33,-27.79,625,-3846,7287,0,0,-1
-160.25,4.33,-27.79,630,-3846,7296,0,-1,0
-160.25,4.33,-27.79,627,-3850,7295,0,0,-1
-160.25,4.33,-27.79,620,-3840,7286,0,0,-1
-160.25,4.33,-27.78,619,-3840,7287,0,0,-1
-160.24,4.34,-27.78,623,-3844,7297,0,-1,-1
-160.24,4.33,-27.77,624,-3842,7293,0,0,-1
-160.24,4.33,-27.77,622,-3836,7300,0,-1,-1
-160.24,4.34,-27.77,621,-3840,7296,0,-1,-1
-160.23,4.34,-27.77,622,-3838,7298,0,-1,-1
-160.23,4.34,-27.76,621,-3848,7292,0,0,-1
-160.23,4.34,-27.76,627,-3848,7294,0,0,-1
-160.23,4.34,-27.77,621,-3847,7297,-1,-1,0
-160.23,4.34,-27.77,622,-3850,7295,0,-1,-1
-160.23,4.34,-27.76,621,-3847,7294,0,-1,0
-160.23,4.34,-27.76,621,-3846,7297,0,0,-1
-160.23,4.34,-27.76,615,-3840,7295,0,-1,0
-160.24,4.34,-27.76,620,-3848,7284,0,0,-1
-160.24,4.34,-27.76,621,-3844,7290,0,0,0
-160.24,4.33,-27.76,621,-3828,7294,-1,0,0
-160.24,4.33,-27.76,615,-3833,7293,-1,0,0
-160.24,4.33,-27.76,610,-3833,7289,-1,-1,0
-160.24,4.33,-27.76,619,-3845,7295,0,-1,-1
-160.24,4.34,-27.76,625,-3847,7305,0,-1,-1
-160.23,4.34,-27.76,637,-3841,7314,0,-1,-1
-160.23,4.35,-27.75,637,-3841,7311,0,0,-1
-160.23,4.34,-27.75,630,-3837,7304,-1,0,0
-160.23,4.33,-27.75,619,-3828,7310,-1,0,0
-160.24,4.33,-27.75,619,-3828,7305,-1,0,0
-160.24,4.32,-27.76,615,-3831,7295,-1,-1,0
-160.24,4.33,-27.77,612,-3841,7293,-1,-1,-1
-160.24,4.33,-27.77,615,-3844,7288,0,0,-1
-160.24,4.33,-27.77,620,-3848,7290,0,0,-1
-160.24,4.33,-27.77,624,-3856,7291,0,0,-1
-160.24,4.32,-27.76,622,-3850,7301,0,0,0
-160.24,4.32,-27.75,626,-3843,7299,0,0,0
-160.24,4.32,-27.75,623,-3827,7310,0,0,0
-160.24,4.31,-27.74,619,-3818,7313,-1,0,0
-160.24,4.31,-27.74,614,-3821,7310,-1,0,0
-160.24,4.30,-27.75,613,-3822,7301,-1,0,0
-160.25,4.30,-27.75,613,-3831,7301,-1,0,0
-160.25,4.30,-27.75,611,-3827,7299,-1,-1,0
-160.25,4.29,-27.76,608,-3835,7292,-1,-1,0
-160.25,4.30,-27.76,624,-3837,7282,-1,-1,0
-160.25,4.30,-27.76,629,-3843,7285,0,0,-1
-160.25,4.30,-27.76,621,-3836,7283,0,0,0
-160.25,4.30,-27.76,622,-3842,7287,0,0,0
-160.25,4.30,-27.76,618,-3840,7291,0,0,-1
-160.25,4.30,-27.76,615,-3846,7303,0,0,0
-160.24,4.29,-27.75,614,-3834,7312,0,-1,0
-160.25,4.29,-27.76,618,-3836,7313,-1,-1,0
-160.25,4.29,-27.76,612,-3840,7305,-1,0,-1
-160.25,4.30,-27.76,614,-3842,7303,-1,-1,0
-160.25,4.29,-27.77,610,-3848,7303,-1,0,0
-160.25,4.29,-27.77,613,-3849,7303,0,0,-1
-160.25,4.29,-27.77,612,-3844,7312,0,0,0
-160.25,4.29,-27.76,606,-3839,7301,0,-1,-1
-160.25,4.29,-27.76,611,-3844,7298,0,-1,-1
-160.25,4.29,-27.76,610,-3843,7294,0,-1,-1
-160.25,4.29,-27.76,622,-3838,7295,-1,-1,-1
-160.25,4.30,-27.76,619,-3842,7301,-1,-1,0
-160.25,4.30,-27.76,615,-3843,7287,0,-1,0
-160.25,4.31,-27.76,621,-3853,7301,0,-1,-1
-160.25,4.31,-27.76,614,-3843,7312,0,-1,0
-160.26,4.31,-27.76,606,-3835,7310,-1,-1,0
-160.25,4.31,-27.75,623,-3837,7300,-1,-1,-1
-160.25,4.32,-27.76,621,-3841,7302,0,-1,-1
-160.25,4.33,-27.76,633,-3835,7293,0,-1,-1
-160.25,4.33,-27.76,633,-3840,7294,0,-1,0
-160.24,4.33,-27.76,630,-3831,7296,-1,-1,0
-160.25,4.33,-27.75,626,-3838,7304,-1,-1,0
-160.25,4.33,-27.75,626,-3834,7302,0,-1,-1
-160.25,4.33,-27.75,621,-3830,7303,-1,-1,-1
-160.25,4.33,-27.75,623,-3835,7304,-1,-1,-1
-160.25,4.33,-27.76,620,-3838,7302,-1,-1,-1
-160.25,4.33,-27.76,628,-3833,7299,-1,-1,-1
-160.25,4.34,-27.76,623,-3841,7296,-1,-1,0
-160.25,4.34,-27.76,620,-3844,7287,0,-1,0
-160.25,4.34,-27.76,619,-3840,7289,0,-1,0
-160.25,4.34,-27.76,619,-3838,7296,0,-1,-1
-160.26,4.34,-27.76,615,-3841,7289,-1,-1,0
-160.26,4.34,-27.76,619,-3850,7306,0,-1,0
-160.25,4.34,-27.76,612,-3846,7306,0,-1,0
-160.25,4.35,-27.75,618,-3847,7300,0,-1,-1
-160.25,4.35,-27.75,625,-3845,7305,0,-1,-1
-160.25,4.36,-27.74,642,-3837,7304,0,0,-1
-160.25,4.36,-27.74,641,-3825,7312,-1,0,0
-160.25,4.36,-27.74,634,-3815,7308,-1,0,0
-160.26,4.35,-27.74,616,-3827,7297,-1,0,0
-160.27,4.35,-27.75,608,-3836,7308,-1,-1,0
-160.27,4.35,-27.75,601,-3840,7302,-1,-1,-1
-160.26,4.36,-27.77,605,-3850,7298,-1,-1,-1
-160.26,4.37,-27.77,622,-3849,7289,0,-1,-1
-160.26,4.38,-27.77,633,-3851,7285,0,-1,-1
-160.26,4.38,-27.77,645,-3849,7290,0,0,0
-160.26,4.38,-27.76,652,-3839,7290,0,0,0
-160.26,4.38,-27.74,644,-3825,7298,0,0,0
-160.26,4.37,-27.74,632,-3825,7308,0,0,0
-160.26,4.37,-27.74,622,-3830,7317,0,-1,0
-160.26,4.37,-27.74,617,-3832,7312,-1,-1,-1
-160.26,4.38,-27.73,618,-3824,7317,-1,-1,-1
-160.26,4.39,-27.74,625,-3831,7319,-1,-1,-1
-160.26,4.39,-27.75,638,-3844,7310,-1,-1,-1
-160.26,4.39,-27.75,636,-3850,7305,0,0,-1
-160.26,4.39,-27.75,636,-3846,7301,0,0,0
-160.26,4.38,-27.75,626,-3847,7294,0,0,0
-160.26,4.38,-27.74,621,-3844,7299,0,0,0
-160.26,4.38,-27.74,619,-3828,7300,0,-1,-1
-160.26,4.39,-27.73,629,-3832,7299,0,-1,-1
-160.26,4.39,-27.74,634,-3833,7292,-1,-1,-1
-160.25,4.40,-27.74,639,-3826,7290,-1,-1,0
-160.25,4.40,-27.74,636,-3831,7287,-1,0,0
-160.26,4.39,-27.74,633,-3834,7286,-1,0,0
-160.26,4.39,-27.75,622,-3842,7289,0,0,0
-160.26,4.39,-27.75,623,-3839,7292,0,-1,0
-160.26,4.38,-27.75,618,-3847,7303,0,-1,0
-160.26,4.38,-27.75,620,-3844,7305,-1,-1,-1
-160.26,4.38,-27.75,621,-3842,7302,0,-1,0
-160.27,4.39,-27.75,626,-3847,7290,0,-1,0
-160.26,4.39,-27.74,629,-3849,7307,0,0,-1
-160.26,4.39,-27.74,624,-3836,7305,0,-1,0
-160.27,4.38,-27.74,616,-3832,7309,-1,-1,-1
-160.27,4.39,-27.75,620,-3841,7295,-1,-1,-1
-160.27,4.39,-27.75,632,-3840,7290,-1,-1,0
-160.27,4.39,-27.75,635,-3837,7299,-1,-1,0
-160.27,4.39,-27.75,634,-3838,7295,-1,-1,0
-160.27,4.39,-27.75,634,-3840,7299,0,0,0
-160.28,4.39,-27.76,634,-3842,7294,-1,-1,0
-160.28,4.39,-27.76,632,-3834,7299,-1,-1,0
-160.28,4.39,-27.76,633,-3835,7287,0,-1,-1
-160.28,4.39,-27.76,636,-3838,7296,-1,-1,0
-160.27,4.40,-27.75,634,-3832,7299,-1,-1,0
-160.28,4.40,-27.76,642,-3839,7286,-1,-1,0
-160.28,4.40,-27.76,646,-3834,7287,-1,0,0
-160.28,4.40,-27.77,635,-3840,7290,-1,-1,0
-160.28,4.40,-27.77,629,-3845,7299,-1,-1,0
-160.29,4.40,-27.77,627,-3848,7298,-1,-1,0
-160.29,4.39,-27.78,622,-3847,7309,-1,-1,0
-160.30,4.40,-27.78,633,-3841,7308,-1,-1,0
-160.30,4.40,-27.78,637,-3848,7301,-1,0,0
-160.30,4.40,-27.78,630,-3847,7304,-1,-1,0
-160.30,4.39,-27.79,629,-3847,7292,-1,-1,0
-160.30,4.39,-27.79,631,-3844,7289,-1,0,0
-160.30,4.39,-27.79,641,-3848,7295,0,0,0
-160.30,4.39,-27.79,651,-3842,7294,-1,0,0
-160.31,4.38,-27.79,647,-3831,7299,-1,0,0
-160.32,4.38,-27.80,643,-3823,7303,-1,0,0
-160.32,4.37,-27.81,642,-3822,7291,-1,0,0
-160.34,4.36,-27.83,622,-3830,7297,-1,0,0
-160.34,4.35,-27.83,614,-3830,7299,-1,-1,0
-160.35,4.35,-27.86,598,-3850,7283,-1,-1,0
-160.36,4.35,-27.88,610,-3867,7293,-1,-1,0
-160.36,4.36,-27.88,632,-3872,7280,-1,0,-1
-160.36,4.36,-27.88,639,-3869,7281,-1,-1,0
-160.37,4.35,-27.89,648,-3867,7269,0,0,0
-160.37,4.35,-27.88,642,-3856,7278,0,-1,0
-160.37,4.34,-27.87,655,-3835,7285,0,0,0
-160.38,4.33,-27.87,624,-3825,7299,-1,0,0
-160.39,4.32,-27.87,616,-3840,7299,-1,0,0
-160.39,4.32,-27.88,610,-3844,7296,-1,0,0
-160.40,4.32,-27.89,608,-3848,7301,-1,-1,0
-160.40,4.32,-27.91,610,-3851,7299,-1,-1,0
-160.40,4.32,-27.91,617,-3857,7296,-1,-1,0
-160.41,4.32,-27.93,616,-3867,7280,-1,-1,0
-160.41,4.32,-27.94,618,-3873,7282,-1,0,0
-160.41,4.32,-27.94,618,-3865,7279,-1,-1,0
-160.41,4.32,-27.94,623,-3863,7279,0,-1,0
-160.41,4.33,-27.93,625,-3856,7273,0,0,0
-160.42,4.32,-27.93,625,-3858,7280,0,0,0
-160.41,4.32,-27.92,621,-3851,7284,0,0,-1
-160.41,4.32,-27.91,625,-3841,7281,0,0,-1
-160.40,4.32,-27.91,625,-3842,7279,0,-1,-1
-160.40,4.32,-27.90,624,-3842,7270,0,-1,-1
-160.40,4.32,-27.89,618,-3855,7286,0,0,-1
-160.39,4.32,-27.88,621,-3855,7289,0,-1,-1
-160.39,4.33,-27.88,609,-3851,7295,0,-1,-1
-160.39,4.33,-27.87,611,-3860,7284,0,-1,-1
-160.38,4.34,-27.87,625,-3863,7276,0,-1,-1
-160.38,4.34,-27.87,628,-3853,7284,0,0,-1
-160.38,4.34,-27.87,617,-3853,7279,-1,-1,-1
-160.38,4.34,-27.86,614,-3852,7287,0,-1,-1
-160.37,4.34,-27.86,620,-3863,7288,0,0,0
-160.38,4.34,-27.86,624,-3860,7295,-1,-1,0
-160.38,4.34,-27.85,628,-3843,7293,0,0,-1
-160.38,4.33,-27.84,621,-3840,7283,0,0,-1
-160.38,4.32,-27.84,611,-3839,7291,0,0,-1
-160.37,4.33,-27.84,610,-3837,7291,-1,-1,-1
-160.37,4.33,-27.84,618,-3844,7298,-1,0,-1
-160.37,4.32,-27.85,620,-3854,7306,-1,0,-1
-160.37,4.32,-27.85,618,-3850,7310,0,0,0
-160.37,4.32,-27.85,627,-3847,7303,-1,0,0
-160.37,4.32,-27.85,620,-3856,7296,-1,0,0
-160.37,4.32,-27.85,624,-3856,7271,-1,0,0
-160.37,4.31,-27.85,619,-3855,7288,0,0,0
-160.37,4.31,-27.84,627,-3846,7284,0,0,-1
-160.37,4.30,-27.84,612,-3845,7284,0,0,-1
-160.37,4.29,-27.84,602,-3851,7283,0,0,-1
-160.37,4.28,-27.82,603,-3839,7289,0,0,-1
-160.36,4.28,-27.82,613,-3835,7305,0,0,-1
-160.36,4.29,-27.82,621,-3843,7281,0,0,-1
-160.36,4.29,-27.82,628,-3844,7285,0,-1,-1
-160.36,4.29,-27.82,631,-3844,7278,-1,0,0
-160.36,4.28,-27.82,627,-3849,7290,-1,0,-1
-160.36,4.27,-27.83,619,-3855,7288,0,0,0
-160.36,4.26,-27.83,604,-3844,7294,-1,0,0
-160.36,4.26,-27.83,604,-3852,7293,0,-1,0
-160.37,4.27,-27.83,610,-3858,7278,0,0,-1
-160.36,4.26,-27.83,618,-3855,7287,0,0,-1
-160.36,4.27,-27.82,617,-3846,7299,0,-1,-1
-160.35,4.27,-27.81,614,-3846,7289,0,0,-1
-160.35,4.27,-27.81,608,-3848,7285,0,-1,-1
-160.35,4.27,-27.80,616,-3853,7298,0,-1,0
-160.35,4.27,-27.80,613,-3847,7300,0,-1,0
-160.35,4.27,-27.79,608,-3836,7304,0,0,-1
-160.34,4.27,-27.79,609,-3834,7299,-1,-1,-1
-160.35,4.27,-27.79,615,-3843,7295,-1,-1,0
-160.35,4.28,-27.79,617,-3847,7284,0,-1,0
-160.35,4.28,-27.79,610,-3854,7300,0,0,-1
-160.35,4.27,-27.78,610,-3847,7303,0,0,0
-160.35,4.27,-27.78,608,-3851,7303,0,0,-1
-160.35,4.26,-27.78,604,-3846,7287,-1,0,-1
-160.35,4.26,-27.78,604,-3846,7288,-1,0,-1
-160.35,4.26,-27.78,607,-3837,7298,0,0,0
-160.35,4.26,-27.78,613,-3838,7295,-1,0,0
-160.35,4.26,-27.79,604,-3844,7291,0,-1,0
-160.35,4.26,-27.79,613,-3839,7274,-1,0,-1
-160.35,4.25,-27.79,610,-3853,7295,0,-1,0
-160.35,4.25,-27.79,617,-3840,7300,0,0,0
-160.35,4.24,-27.79,623,-3840,7286,0,0,-1
-160.35,4.24,-27.78,615,-3828,7300,-1,0,0
-160.35,4.23,-27.78,617,-3840,7308,0,0,0
-160.35,4.22,-27.78,613,-3825,7304,0,0,0
-160.35,4.21,-27.77,603,-3813,7308,-1,0,0
-160.36,4.21,-27.77,599,-3821,7300,-1,0,0
-160.35,4.21,-27.78,595,-3827,7299,-1,0,-1
-160.35,4.21,-27.78,606,-3833,7308,-1,-1,0
-160.35,4.21,-27.78,614,-3832,7301,-1,0,-1
-160.35,4.21,-27.79,606,-3834,7297,-1,-1,0
-160.36,4.22,-27.79,609,-3852,7292,-1,0,0
-160.36,4.22,-27.79,605,-3848,7298,0,-1,0
-160.36,4.22,-27.79,596,-3852,7300,0,-1,-1
-160.35,4.22,-27.79,592,-3850,7281,0,0,-1
-160.35,4.22,-27.79,593,-3855,7287,0,-1,-1
-160.35,4.22,-27.78,594,-3847,7285,0,-1,-1
-160.35,4.22,-27.78,608,-3840,7293,0,-1,0
-160.35,4.23,-27.78,607,-3843,7313,0,-1,0
-160.35,4.24,-27.77,610,-3833,7304,-1,-1,0
-160.35,4.23,-27.77,606,-3841,7304,0,-1,0
-160.35,4.24,-27.77,607,-3845,7310,-1,-1,0
-160.36,4.25,-27.78,608,-3851,7301,-1,-1,0
-160.35,4.26,-27.77,618,-3841,7297,0,-1,-1
-160.35,4.27,-27.77,627,-3836,7296,0,-1,0
-160.35,4.27,-27.77,628,-3839,7301,-1,-1,0
-160.36,4.26,-27.78,620,-3842,7296,0,0,0
-160.36,4.26,-27.77,606,-3833,7300,0,0,0
-160.36,4.26,-27.77,595,-3829,7294,-1,-1,0
-160.36,4.26,-27.78,590,-3838,7296,-1,-1,-1
-160.36,4.27,-27.77,584,-3838,7293,-1,-1,-1
-160.35,4.28,-27.77,595,-3844,7301,0,-1,-1
-160.35,4.28,-27.77,612,-3849,7287,0,-1,-1
-160.35,4.29,-27.76,617,-3855,7295,0,-1,-1
-160.35,4.30,-27.76,627,-3845,7297,0,-1,0
-160.35,4.30,-27.76,618,-3836,7304,0,-1,0
-160.36,4.30,-27.76,614,-3829,7301,-1,-1,0
-160.36,4.30,-27.76,613,-3828,7309,-1,-1,0
-160.36,4.30,-27.76,611,-3835,7311,-1,-1,0
-160.36,4.30,-27.76,620,-3841,7308,-1,-1,0
-160.35,4.31,-27.77,616,-3836,7301,-1,-1,0
-160.36,4.31,-27.77,612,-3835,7296,-1,-1,0
-160.36,4.32,-27.77,621,-3840,7299,0,-1,0
-160.36,4.32,-27.77,624,-3844,7295,0,-1,-1
-160.36,4.32,-27.77,625,-3846,7277,0,-1,-1
-160.35,4.33,-27.76,623,-3839,7293,0,-1,-1
-160.35,4.33,-27.75,628,-3841,7301,0,-1,0
-160.35,4.33,-27.74,630,-3839,7302,0,-1,0
-160.34,4.34,-27.73,639,-3830,7310,0,0,0
-160.34,4.34,-27.73,636,-3825,7305,0,0,0
-160.35,4.33,-27.73,625,-3822,7299,-1,0,0
-160.35,4.33,-27.74,615,-3834,7308,-1,0,0
-160.35,4.32,-27.74,615,-3833,7296,-1,0,0
-160.35,4.32,-27.74,610,-3829,7306,-1,-1,-1
-160.35,4.32,-27.74,613,-3828,7303,-1,-1,-1
-160.35,4.32,-27.74,611,-3843,7300,-1,-1,0
-160.35,4.32,-27.74,620,-3839,7305,-1,-1,0
-160.35,4.33,-27.74,621,-3839,7309,0,-1,0
-160.35,4.33,-27.74,623,-3844,7311,0,-1,-1
-160.35,4.33,-27.74,627,-3848,7316,0,0,-1
-160.35,4.33,-27.74,626,-3840,7303,0,-1,0
-160.35,4.33,-27.74,625,-3840,7302,0,-1,-1
-160.35,4.34,-27.73,627,-3835,7288,-1,-1,0
-160.35,4.34,-27.73,625,-3844,7299,0,-1,0
-160.35,4.34,-27.73,622,-3831,7301,-1,-1,0
-160.35,4.34,-27.73,614,-3838,7292,-1,-1,-1
-160.36,4.34,-27.74,617,-3832,7280,-1,-1,0
-160.35,4.35,-27.74,620,-3837,7292,0,-1,-1
-160.36,4.35,-27.73,624,-3837,7291,0,-1,0
-160.36,4.35,-27.73,626,-3835,7298,-1,-1,0
-160.36,4.35,-27.73,616,-3836,7303,0,0,0
-160.36,4.35,-27.73,610,-3837,7293,0,-1,0
-160.36,4.35,-27.73,612,-3840,7297,0,-1,0
-160.35,4.36,-27.73,624,-3834,7300,0,-1,-1
-160.35,4.36,-27.73,633,-3831,7302,0,-1,-1
-160.35,4.36,-27.73,637,-3830,7310,-1,0,0
-160.35,4.36,-27.73,633,-3823,7308,-1,0,0
-160.36,4.35,-27.73,621,-3822,7300,-1,0,0
-160.36,4.35,-27.74,608,-3822,7287,-1,-1,0
-160.37,4.35,-27.75,605,-3835,7292,-1,-1,0
-160.37,4.36,-27.75,609,-3846,7286,-1,-1,-1
-160.37,4.36,-27.75,620,-3848,7295,0,-1,-1
-160.36,4.37,-27.75,632,-3852,7295,0,-1,-1
-160.36,4.38,-27.74,639,-3845,7292,0,-1,-1
-160.36,4.37,-27.74,638,-3841,7301,0,0,0
-160.36,4.37,-27.73,642,-3830,7304,0,0,0
-160.36,4.37,-27.72,634,-3820,7307,0,0,0
-160.36,4.37,-27.72,622,-3818,7308,-1,0,0
-160.36,4.36,-27.72,617,-3820,7299,-1,-1,0
-160.36,4.36,-27.72,621,-3817,7303,-1,-1,0
-160.36,4.37,-27.74,619,-3831,7298,-1,-1,0
-160.36,4.37,-27.74,626,-3837,7296,-1,-1,0
-160.37,4.37,-27.75,633,-3846,7290,-1,-1,0
-160.37,4.37,-27.75,626,-3849,7290,0,-1,0
-160.37,4.37,-27.75,620,-3850,7280,0,0,0
-160.37,4.37,-27.74,616,-3837,7282,-1,0,0
-160.37,4.36,-27.75,620,-3837,7292,-1,0,0
-160.37,4.36,-27.75,626,-3839,7289,0,0,0
-160.38,4.35,-27.75,627,-3828,7303,-1,0,0
-160.38,4.35,-27.76,628,-3824,7303,-1,-1,0
-160.39,4.35,-27.77,632,-3838,7279,-1,0,0
-160.39,4.34,-27.77,628,-3847,7287,-1,0,0
-160.40,4.33,-27.78,620,-3823,7277,-1,0,0
-160.41,4.32,-27.79,610,-3837,7288,-1,0,0
-160.41,4.31,-27.80,602,-3851,7294,-1,0,0
-160.42,4.31,-27.80,601,-3844,7294,-1,0,0
-160.42,4.31,-27.81,604,-3844,7300,-1,-1,0
-160.42,4.30,-27.81,613,-3846,7300,-1,0,-1
-160.42,4.31,-27.81,624,-3842,7301,-1,-1,0
-160.42,4.32,-27.82,633,-3858,7265,-1,0,-1
-160.43,4.30,-27.82,621,-3855,7288,-1,-1,0
-160.43,4.30,-27.83,619,-3843,7281,-1,0,0
-160.44,4.30,-27.83,611,-3848,7288,-1,-1,0
-160.44,4.30,-27.83,613,-3850,7292,-1,0,0
-160.44,4.30,-27.83,613,-3854,7295,-1,-1,0
-160.45,4.30,-27.84,611,-3856,7280,-1,-1,0
-160.45,4.30,-27.84,610,-3849,7282,-1,0,0
-160.45,4.29,-27.84,609,-3839,7285,-1,-1,0
-160.45,4.30,-27.85,608,-3852,7282,-1,-1,0
-160.45,4.30,-27.85,610,-3860,7287,-1,-1,0
-160.45,4.30,-27.85,606,-3850,7297,-1,-1,0
-160.45,4.30,-27.86,602,-3851,7292,-1,-1,0
-160.45,4.31,-27.86,612,-3851,7293,-1,-1,0
-160.45,4.31,-27.86,615,-3852,7288,-1,-1,0
-160.45,4.31,-27.86,613,-3852,7293,-1,-1,0
-160.46,4.32,-27.87,616,-3858,7290,0,-1,-1
-160.46,4.32,-27.87,613,-3857,7290,0,-1,-1
-160.46,4.32,-27.87,615,-3852,7295,0,-1,-1
-160.45,4.32,-27.86,615,-3843,7305,0,-1,-1
-160.45,4.32,-27.85,620,-3836,7300,0,0,0
-160.45,4.32,-27.85,614,-3830,7292,-1,0,0
-160.45,4.31,-27.85,607,-3838,7296,-1,-1,0
-160.45,4.31,-27.86,609,-3850,7281,-1,-1,-1
-160.45,4.32,-27.86,614,-3857,7290,0,-1,-1
-160.44,4.32,-27.86,613,-3866,7291,0,-1,-1
-160.44,4.33,-27.86,619,-3876,7285,0,-1,-1
-160.43,4.33,-27.85,625,-3868,7288,0,-1,-1
-160.43,4.34,-27.84,631,-3857,7281,0,-1,-1
-160.42,4.34,-27.83,641,-3852,7286,0,0,-1
-160.42,4.33,-27.82,635,-3844,7296,0,0,0
-160.42,4.33,-27.81,622,-3829,7289,0,0,0
-160.43,4.32,-27.81,601,-3837,7292,0,-1,0
-160.43,4.32,-27.81,600,-3836,7298,-1,-1,0
-160.43,4.33,-27.82,607,-3842,7292,-1,-1,0
-160.43,4.33,-27.82,605,-3843,7296,-1,-1,0
-160.43,4.33,-27.83,608,-3858,7274,-1,-1,-1
-160.43,4.33,-27.83,623,-3867,7258,0,0,-1
-160.43,4.32,-27.82,611,-3869,7289,0,0,-1
-160.43,4.32,-27.80,626,-3853,7304,0,0,0
-160.42,4.31,-27.79,607,-3842,7296,0,0,-1
-160.42,4.31,-27.78,609,-3848,7304,-1,-1,0
-160.41,4.31,-27.78,607,-3833,7296,0,0,-1
-160.41,4.31,-27.78,621,-3828,7312,-1,-1,0
-160.41,4.31,-27.79,633,-3832,7302,-1,0,0
-160.42,4.30,-27.79,619,-3831,7293,0,0,0
-160.42,4.30,-27.79,614,-3837,7285,-1,0,0
-160.43,4.29,-27.79,606,-3849,7305,-1,-1,0
-160.42,4.30,-27.79,618,-3849,7287,0,0,-1
-160.43,4.28,-27.79,608,-3849,7290,0,0,-1
-160.43,4.28,-27.78,605,-3848,7304,0,-1,0
-160.42,4.28,-27.78,609,-3840,7282,0,0,-1
-160.42,4.29,-27.77,610,-3845,7284,0,-1,-1
-160.42,4.29,-27.76,611,-3841,7285,0,0,-1
-160.42,4.28,-27.77,607,-3830,7293,-1,-1,-1
-160.42,4.29,-27.76,606,-3839,7307,-1,-1,0
-160.42,4.29,-27.76,607,-3853,7300,0,-1,-1
-160.41,4.29,-27.76,600,-3843,7301,-1,-1,-1
-160.41,4.29,-27.76,607,-3839,7293,-1,-1,-1
-160.41,4.29,-27.77,612,-3845,7306,-1,-1,-1
-160.41,4.30,-27.77,619,-3839,7303,-1,-1,-1
-160.41,4.30,-27.77,616,-3859,7298,0,-1,0
-160.41,4.30,-27.77,614,-3851,7293,0,-1,0
-160.41,4.30,-27.76,605,-3845,7294,0,-1,-1
-160.41,4.30,-27.76,608,-3846,7294,0,-1,-1
-160.41,4.31,-27.75,614,-3836,7297,0,-1,-1
-160.41,4.31,-27.75,619,-3839,7292,0,-1,-1
-160.40,4.31,-27.75,621,-3842,7287,0,-1,-1
-160.40,4.31,-27.75,621,-3847,7288,0,-1,0
-160.40,4.31,-27.74,617,-3844,7288,0,-1,0
-160.40,4.32,-27.74,620,-3841,7297,0,-1,-1
-160.40,4.32,-27.74,627,-3838,7305,-1,0,0
-160.40,4.32,-27.74,626,-3833,7295,-1,0,0
-160.40,4.31,-27.74,615,-3830,7289,-1,0,0
-160.40,4.31,-27.75,605,-3827,7287,-1,0,0
-160.41,4.30,-27.75,604,-3828,7279,-1,-1,0
-160.41,4.30,-27.75,599,-3838,7276,-1,-1,-1
-160.41,4.30,-27.76,605,-3852,7287,-1,-1,0
-160.41,4.30,-27.76,612,-3852,7295,0,-1,-1
-160.41,4.31,-27.75,616,-3844,7296,0,-1,-1
-160.40,4.31,-27.75,615,-3838,7299,0,-1,-1
-160.40,4.31,-27.75,625,-3835,7305,0,0,0
-160.40,4.30,-27.74,627,-3829,7308,0,0,0
-160.41,4.30,-27.73,622,-3821,7294,0,0,0
-160.41,4.30,-27.73,615,-3834,7299,0,0,0
-160.41,4.29,-27.73,611,-3826,7310,-1,-1,0
-160.41,4.29,-27.74,599,-3829,7309,-1,-1,0
-160.41,4.30,-27.74,601,-3827,7301,-1,-1,-1
-160.41,4.30,-27.75,604,-3837,7286,-1,-1,-1
-160.41,4.30,-27.75,609,-3844,7293,0,0,-1
-160.41,4.30,-27.75,612,-3843,7294,0,-1,-1
-160.40,4.30,-27.75,615,-3841,7309,0,-1,-1
-160.40,4.30,-27.74,610,-3834,7296,0,-1,-1
-160.40,4.31,-27.74,611,-3841,7292,0,-1,-1
-160.40,4.31,-27.73,610,-3840,7299,-1,-1,0
-160.40,4.31,-27.74,616,-3834,7296,-1,0,-1
-160.40,4.31,-27.74,629,-3838,7297,-1,0,-1
-160.40,4.30,-27.75,620,-3843,7279,-1,-1,0
-160.40,4.30,-27.76,628,-3858,7288,-1,0,0
-160.40,4.29,-27.75,620,-3844,7277,0,0,0
-160.40,4.28,-27.74,609,-3831,7306,-1,0,0
-160.41,4.27,-27.75,608,-3834,7305,-1,0,0
-160.41,4.27,-27.75,598,-3841,7294,0,-1,0
-160.41,4.27,-27.75,600,-3834,7303,-1,0,-1
-160.41,4.27,-27.75,608,-3827,7299,-1,-1,0
-160.41,4.27,-27.75,620,-3837,7293,-1,-1,0
-160.42,4.28,-27.76,619,-3837,7290,-1,-1,0
-160.42,4.28,-27.77,605,-3847,7282,-1,-1,0
-160.42,4.28,-27.77,600,-3851,7292,0,-1,-1
-160.41,4.28,-27.76,600,-3850,7300,0,-1,-1
-160.41,4.28,-27.76,608,-3841,7292,0,-1,-1
-160.41,4.29,-27.76,615,-3842,7291,0,-1,-1
-160.41,4.29,-27.76,620,-3850,7297,0,-1,0
-160.41,4.29,-27.76,617,-3837,7293,0,-1,0
-160.41,4.29,-27.76,613,-3841,7291,0,-1,-1
-160.42,4.29,-27.76,608,-3840,7289,0,-1,0
-160.41,4.29,-27.76,603,-3843,7292,-1,-1,-1
-160.42,4.29,-27.76,597,-3843,7292,0,-1,-1
-160.41,4.30,-27.76,605,-3845,7291,0,-1,-1
-160.41,4.30,-27.75,617,-3843,7300,0,-1,-1
-160.41,4.31,-27.75,626,-3838,7301,0,-1,-1
-160.41,4.31,-27.75,631,-3845,7309,-1,-1,0
-160.41,4.31,-27.75,632,-3841,7307,0,-1,0
-160.41,4.30,-27.75,623,-3835,7300,-1,-1,0
-160.41,4.30,-27.75,618,-3829,7286,-1,0,0
-160.41,4.31,-27.76,606,-3836,7287,-1,-1,0
-160.41,4.31,-27.77,613,-3837,7284,-1,-1,0
-160.41,4.32,-27.77,613,-3853,7290,0,-1,-1
-160.41,4.33,-27.76,630,-3856,7294,0,-1,-1
-160.41,4.33,-27.76,625,-3854,7278,0,-1,-1
-160.40,4.34,-27.76,629,-3845,7284,0,-1,-1
-160.40,4.34,-27.75,630,-3834,7292,0,0,-1
-160.40,4.34,-27.73,627,-3827,7293,0,-1,0
-160.40,4.34,-27.73,626,-3816,7302,-1,-1,0
-160.40,4.34,-27.73,623,-3819,7305,-1,-1,0
-160.40,4.34,-27.73,619,-3824,7294,-1,-1,0
-160.40,4.34,-27.74,609,-3833,7289,-1,-1,-1
-160.41,4.34,-27.75,614,-3828,7292,-1,-1,0
-160.41,4.35,-27.75,616,-3846,7286,-1,-1,0
-160.41,4.35,-27.76,612,-3848,7286,-1,-1,-1
-160.41,4.35,-27.76,613,-3851,7290,0,0,0
-160.41,4.34,-27.76,612,-3846,7295,0,0,0
-160.41,4.34,-27.76,610,-3841,7302,0,0,-1
-160.41,4.34,-27.75,616,-3842,7316,-1,-1,0
-160.42,4.34,-27.76,630,-3853,7300,0,-1,0
-160.42,4.34,-27.75,638,-3841,7295,0,0,0
-160.42,4.34,-27.74,636,-3839,7307,0,0,0
-160.42,4.33,-27.73,618,-3827,7298,0,-1,0
-160.43,4.33,-27.73,618,-3831,7300,0,-1,0
-160.43,4.33,-27.73,624,-3834,7292,0,0,0
-160.43,4.32,-27.71,609,-3825,7304,0,0,0
-160.43,4.31,-27.72,610,-3807,7298,-1,-1,0
-160.43,4.31,-27.72,619,-3829,7306,0,-1,0
-160.44,4.31,-27.72,619,-3832,7297,0,0,0
-160.44,4.31,-27.72,611,-3834,7318,-1,-1,0
-160.45,4.32,-27.73,610,-3828,7297,-1,-1,0
-160.45,4.31,-27.73,614,-3834,7298,0,0,-1
-160.45,4.31,-27.73,617,-3839,7300,0,-1,0
-160.45,4.31,-27.74,619,-3836,7291,-1,0,0
-160.45,4.31,-27.74,630,-3839,7313,0,-1,0
-160.46,4.31,-27.74,626,-3838,7295,0,0,0
-160.46,4.30,-27.74,617,-3839,7290,0,0,0
-160.46,4.30,-27.73,610,-3835,7308,-1,-1,0
-160.47,4.30,-27.73,618,-3834,7297,0,0,-1
-160.47,4.30,-27.73,604,-3836,7295,-1,-1,0
-160.47,4.29,-27.73,597,-3837,7294,0,0,-1
-160.46,4.29,-27.73,620,-3827,7301,-1,-1,0
-160.46,4.29,-27.73,606,-3831,7286,-1,-1,-1
-160.47,4.29,-27.72,621,-3828,7321,-1,-1,0
-160.47,4.29,-27.73,621,-3819,7289,0,0,-1
-160.47,4.29,-27.73,607,-3826,7296,-1,-1,0
-160.47,4.29,-27.73,605,-3827,7271,-1,0,-1
-160.47,4.29,-27.73,595,-3830,7296,-1,-1,-1
-160.47,4.30,-27.73,610,-3837,7313,-1,-1,-1
-160.46,4.30,-27.74,618,-3845,7312,-1,-1,-1
-160.46,4.31,-27.74,622,-3838,7305,-1,-1,-1
-160.46,4.31,-27.74,623,-3834,7293,-1,0,0
-160.46,4.31,-27.74,615,-3824,7274,-1,-1,-1
-160.46,4.31,-27.75,607,-3832,7274,-1,-1,0
-160.46,4.31,-27.75,600,-3839,7296,0,-1,-1
-160.46,4.31,-27.75,595,-3841,7298,-1,-1,-1
-160.47,4.32,-27.76,603,-3848,7294,-1,-1,-1
-160.46,4.33,-27.76,619,-3847,7286,-1,-1,-1
-160.46,4.34,-27.76,626,-3839,7285,0,-1,-1
-160.46,4.35,-27.75,633,-3841,7285,0,-1,0
-160.46,4.35,-27.75,634,-3841,7287,0,0,0
-160.45,4.35,-27.75,630,-3831,7292,0,0,0
-160.46,4.34,-27.75,615,-3831,7306,-1,0,0
-160.46,4.34,-27.75,609,-3836,7302,-1,-1,0
-160.46,4.34,-27.75,605,-3835,7305,-1,-1,-1
-160.46,4.34,-27.76,605,-3838,7308,-1,-1,-1
-160.46,4.34,-27.76,611,-3847,7307,-1,-1,0
-160.46,4.34,-27.77,616,-3850,7301,-1,-1,-1
-160.46,4.34,-27.77,620,-3845,7301,-1,-1,0
-160.46,4.34,-27.77,627,-3841,7294,0,0,0
-160.46,4.34,-27.77,623,-3841,7296,0,0,-1
-160.46,4.34,-27.76,611,-3838,7307,0,-1,-1
-160.46,4.34,-27.76,609,-3832,7313,-1,-1,0
-160.46,4.34,-27.76,615,-3831,7309,-1,-1,0
-160.46,4.34,-27.77,630,-3837,7300,-1,-1,0
-160.46,4.35,-27.78,629,-3840,7295,-1,-1,0
-160.47,4.35,-27.78,627,-3843,7291,-1,0,0
-160.47,4.34,-27.78,625,-3844,7298,-1,0,0
-160.47,4.34,-27.78,628,-3845,7293,-1,0,0
-160.47,4.34,-27.79,620,-3853,7295,0,0,0
-160.48,4.33,-27.79,615,-3846,7296,0,-1,0
-160.48,4.33,-27.79,611,-3838,7291,-1,-1,0
-160.48,4.33,-27.79,610,-3837,7288,-1,-1,0
-160.49,4.34,-27.79,614,-3838,7288,-1,-1,0
-160.49,4.34,-27.80,621,-3852,7306,-1,-1,0
-160.49,4.34,-27.80,613,-3842,7304,-1,-1,0
-160.49,4.34,-27.81,606,-3839,7299,-1,-1,0
-160.49,4.34,-27.81,612,-3847,7291,-1,-1,0
-160.49,4.34,-27.81,617,-3855,7286,-1,0,0
-160.49,4.34,-27.82,623,-3853,7285,-1,-1,0
-160.50,4.34,-27.83,621,-3862,7297,-1,0,0
-160.50,4.34,-27.83,626,-3860,7299,-1,0,0
-160.51,4.33,-27.84,627,-3846,7292,-1,0,0
-160.52,4.33,-27.84,616,-3851,7301,-1,-1,0
-160.52,4.32,-27.85,614,-3858,7296,-1,-1,0
-160.53,4.32,-27.85,609,-3854,7286,-1,0,0
-160.53,4.32,-27.86,612,-3850,7286,-1,0,0
-160.53,4.32,-27.87,614,-3843,7278,-1,-1,0
-160.53,4.32,-27.87,614,-3844,7286,-1,-1,0
-160.54,4.31,-27.88,613,-3848,7295,-1,-1,0
-160.54,4.31,-27.88,612,-3854,7289,-1,-1,0
-160.55,4.30,-27.89,619,-3859,7286,-1,-1,0
-160.55,4.31,-27.88,626,-3853,7294,-1,0,0
-160.55,4.30,-27.89,617,-3852,7294,0,0,0
-160.56,4.29,-27.89,616,-3854,7284,0,0,0
-160.55,4.29,-27.88,617,-3852,7281,0,0,-1
-160.55,4.30,-27.86,620,-3850,7286,0,0,-1
-160.55,4.30,-27.86,612,-3855,7298,0,-1,-1
-160.55,4.30,-27.85,615,-3860,7300,0,0,-1
-160.54,4.29,-27.84,618,-3853,7298,0,0,0
-160.54,4.29,-27.84,608,-3834,7307,0,0,-1
-160.54,4.28,-27.84,606,-3838,7286,-1,0,0
-160.54,4.28,-27.84,593,-3858,7300,0,-1,-1
-160.54,4.29,-27.83,596,-3843,7309,0,-1,-1
-160.54,4.29,-27.83,602,-3857,7313,0,-1,-1
-160.54,4.29,-27.83,611,-3865,7278,-1,-1,-1
-160.53,4.29,-27.82,613,-3864,7296,0,0,-1
-160.53,4.29,-27.81,624,-3844,7293,0,-1,-1
-160.52,4.29,-27.81,633,-3843,7300,0,0,-1
-160.52,4.29,-27.79,627,-3846,7284,0,0,0
-160.52,4.28,-27.79,618,-3846,7293,0,0,0
-160.52,4.28,-27.78,610,-3833,7299,0,-1,-1
-160.52,4.29,-27.77,603,-3828,7299,-1,-1,-1
-160.52,4.29,-27.78,606,-3843,7305,0,-1,-1
-160.51,4.30,-27.77,601,-3850,7304,0,-1,-1
-160.51,4.30,-27.77,605,-3850,7296,0,-1,-1
-160.50,4.31,-27.76,618,-3845,7297,0,-1,-1
-160.50,4.32,-27.76,621,-3842,7300,0,-1,-1
-160.50,4.31,-27.76,616,-3841,7295,0,0,-1
-160.50,4.31,-27.75,616,-3838,7300,-1,0,-1
-160.49,4.31,-27.75,611,-3840,7298,-1,-1,-1
-160.49,4.31,-27.75,612,-3854,7290,0,-1,-1
-160.49,4.31,-27.75,618,-3848,7291,0,-1,-1
-160.49,4.31,-27.75,629,-3841,7294,0,-1,0
-160.49,4.32,-27.75,634,-3841,7289,0,-1,0
-160.49,4.32,-27.75,628,-3844,7287,0,0,0
-160.49,4.31,-27.74,621,-3848,7296,0,0,0
-160.49,4.31,-27.74,612,-3842,7297,0,0,-1
-160.49,4.30,-27.74,603,-3835,7301,-1,-1,-1
-160.49,4.30,-27.75,606,-3842,7304,-1,-1,-1
-160.49,4.30,-27.75,618,-3844,7302,-1,0,0
-160.48,4.31,-27.74,614,-3839,7298,0,0,0
-160.48,4.31,-27.74,607,-3833,7293,0,0,-1
-160.48,4.31,-27.74,614,-3842,7288,-1,-1,0
-160.48,4.31,-27.75,618,-3844,7290,0,0,0
-160.48,4.30,-27.75,610,-3844,7290,0,0,0
-160.48,4.30,-27.74,613,-3845,7292,0,-1,-1
-160.48,4.30,-27.74,619,-3838,7283,0,-1,0
-160.48,4.30,-27.74,617,-3844,7292,0,0,-1
-160.48,4.30,-27.73,614,-3839,7298,0,-1,-1
-160.48,4.30,-27.73,609,-3836,7296,0,0,0
-160.48,4.30,-27.73,612,-3832,7295,0,-1,0
-160.48,4.30,-27.73,612,-3828,7299,0,-1,0
-160.48,4.30,-27.73,614,-3822,7303,-1,-1,0
-160.48,4.30,-27.73,621,-3820,7300,-1,0,-1
-160.48,4.30,-27.73,612,-3825,7306,-1,-1,0
-160.48,4.30,-27.74,614,-3846,7279,-1,0,-1
-160.48,4.30,-27.74,610,-3841,7293,0,0,0
-160.48,4.30,-27.73,608,-3831,7299,0,-1,0
-160.48,4.30,-27.73,615,-3834,7297,0,-1,-1
-160.48,4.30,-27.73,619,-3835,7298,0,-1,-1
-160.48,4.30,-27.73,621,-3828,7302,0,0,0
-160.48,4.30,-27.73,624,-3824,7302,-1,0,0
-160.49,4.29,-27.73,619,-3827,7304,-1,0,0
-160.49,4.29,-27.73,613,-3834,7301,-1,0,0
-160.49,4.28,-27.74,603,-3842,7299,-1,-1,0
-160.49,4.28,-27.75,596,-3848,7299,-1,-1,-1
-160.49,4.29,-27.76,604,-3853,7300,-1,-1,-1
-160.49,4.30,-27.76,612,-3844,7299,-1,-1,-1
-160.49,4.31,-27.76,626,-3844,7293,-1,-1,-1
-160.49,4.31,-27.76,635,-3850,7300,0,0,-1
-160.49,4.31,-27.76,636,-3849,7305,0,0,0
-160.49,4.30,-27.76,619,-3838,7295,0,0,0
-160.49,4.29,-27.76,613,-3835,7291,0,0,0
-160.50,4.29,-27.76,611,-3839,7307,-1,0,0
-160.49,4.28,-27.76,606,-3835,7307,-1,-1,0
-160.50,4.28,-27.76,608,-3840,7296,-1,-1,0
-160.50,4.29,-27.76,611,-3852,7303,0,-1,-1
-160.50,4.30,-27.76,617,-3849,7301,0,-1,-1
-160.50,4.30,-27.75,610,-3834,7300,-1,-1,-1
-160.50,4.30,-27.75,608,-3834,7300,0,-1,0
-160.50,4.30,-27.75,615,-3836,7305,0,0,-1
-160.50,4.30,-27.75,617,-3832,7293,0,-1,-1
-160.50,4.30,-27.75,623,-3833,7289,0,-1,-1
-160.50,4.31,-27.74,630,-3832,7296,-1,-1,-1
-160.50,4.31,-27.75,630,-3836,7290,-1,-1,-1
-160.50,4.31,-27.75,619,-3840,7293,-1,-1,-1
-160.50,4.31,-27.75,617,-3844,7289,-1,-1,0
-160.50,4.31,-27.75,613,-3846,7291,0,-1,-1
-160.49,4.32,-27.75,619,-3845,7300,0,-1,0
-160.49,4.32,-27.75,611,-3847,7301,0,-1,-1
-160.49,4.32,-27.75,619,-3843,7299,0,-1,-1
-160.49,4.32,-27.75,617,-3835,7292,0,-1,0
-160.49,4.32,-27.75,618,-3839,7288,0,-1,-1
-160.49,4.33,-27.75,618,-3837,7299,0,-1,0
-160.49,4.33,-27.74,623,-3838,7313,0,0,0
-160.49,4.33,-27.74,629,-3837,7309,-1,0,-1
-160.49,4.33,-27.75,624,-3841,7295,-1,-1,-1
-160.49,4.33,-27.75,619,-3839,7300,0,-1,-1
-160.49,4.33,-27.75,613,-3834,7298,0,-1,0
-160.49,4.34,-27.75,617,-3829,7290,-1,-1,0
-160.49,4.34,-27.75,621,-3844,7298,-1,-1,-1
-160.50,4.34,-27.75,624,-3837,7290,0,-1,0
-160.50,4.34,-27.75,618,-3849,7288,0,0,-1
-160.50,4.33,-27.74,616,-3839,7298,0,-1,0
-160.50,4.33,-27.73,606,-3833,7308,0,-1,-1
-160.50,4.33,-27.73,608,-3833,7300,0,-1,-1
-160.49,4.34,-27.73,619,-3832,7302,0,0,-1
-160.49,4.34,-27.73,625,-3823,7311,-1,0,-1
-160.49,4.34,-27.73,628,-3817,7310,-1,0,0
-160.49,4.34,-27.75,623,-3828,7310,-1,0,0
-160.50,4.33,-27.76,615,-3839,7296,-1,-1,0
-160.50,4.33,-27.76,620,-3850,7283,-1,-1,0
-160.50,4.34,-27.77,622,-3852,7289,-1,-1,-1
-160.50,4.35,-27.77,627,-3854,7286,0,-1,-1
-160.50,4.35,-27.77,632,-3854,7278,0,0,-1
-160.50,4.34,-27.76,625,-3850,7282,0,0,0
-160.50,4.34,-27.75,622,-3836,7290,0,0,0
-160.50,4.33,-27.74,611,-3831,7289,0,-1,0
-160.50,4.33,-27.74,609,-3835,7291,0,-1,0
-160.50,4.33,-27.73,613,-3833,7291,0,-1,-1
-160.49,4.34,-27.73,621,-3829,7301,0,-1,-1
-160.49,4.35,-27.73,628,-3827,7306,-1,-1,-1
-160.49,4.35,-27.73,639,-3825,7302,-1,-1,0
-160.50,4.35,-27.73,634,-3832,7293,-1,-1,0
-160.50,4.35,-27.73,631,-3829,7304,0,0,0
-160.50,4.34,-27.73,623,-3827,7303,-1,0,0
-160.50,4.35,-27.74,619,-3822,7298,-1,0,0
-160.50,4.34,-27.75,620,-3831,7292,-1,0,0
-160.51,4.34,-27.75,614,-3836,7271,-1,-1,0
-160.51,4.34,-27.76,611,-3848,7285,-1,-1,0
-160.51,4.35,-27.75,622,-3847,7294,0,-1,0
-160.51,4.35,-27.75,624,-3840,7293,0,-1,-1
-160.51,4.35,-27.75,626,-3843,7285,0,0,-1
-160.51,4.35,-27.75,631,-3842,7285,0,0,-1
-160.51,4.35,-27.75,623,-3829,7290,0,0,0
-160.51,4.35,-27.75,620,-3828,7288,-1,-1,0
-160.51,4.35,-27.75,625,-3841,7298,-1,-1,0
-160.51,4.35,-27.75,630,-3833,7299,-1,-1,0
-160.51,4.35,-27.76,623,-3837,7298,-1,-1,-1
-160.51,4.35,-27.76,635,-3830,7292,-1,-1,0
-160.50,4.36,-27.76,638,-3839,7282,0,0,0
-160.51,4.35,-27.77,636,-3842,7287,-1,0,0
-160.51,4.35,-27.76,635,-3847,7297,-1,-1,0
-160.51,4.35,-27.77,628,-3844,7297,0,0,0
-160.51,4.35,-27.76,619,-3841,7302,0,0,0
-160.51,4.35,-27.76,622,-3828,7302,-1,-1,0
-160.51,4.35,-27.76,626,-3830,7301,-1,0,0
-160.51,4.35,-27.77,620,-3830,7302,-1,0,-1
-160.52,4.35,-27.78,625,-3833,7303,-1,-1,0
-160.52,4.35,-27.78,627,-3836,7300,-1,-1,0
-160.52,4.35,-27.79,630,-3841,7298,-1,-1,0
-160.52,4.35,-27.80,628,-3841,7289,-1,-1,0
-160.53,4.35,-27.80,625,-3844,7285,-1,-1,0
-160.53,4.35,-27.80,622,-3851,7287,0,0,-1
-160.53,4.35,-27.80,622,-3855,7285,0,-1,-1
-160.52,4.35,-27.79,625,-3854,7295,0,0,-1
-160.52,4.35,-27.79,623,-3853,7302,0,0,-1
-160.52,4.35,-27.78,630,-3844,7306,0,-1,0
-160.52,4.35,-27.78,629,-3843,7314,0,0,-1
-160.52,4.35,-27.77,637,-3842,7319,0,0,-1
-160.52,4.35,-27.77,623,-3838,7312,-1,-1,0
-160.52,4.35,-27.78,621,-3842,7305,-1,-1,-1
-160.52,4.35,-27.78,624,-3836,7299,-1,0,-1
-160.52,4.35,-27.78,627,-3833,7308,-1,0,0
-160.52,4.35,-27.80,630,-3834,7305,-1,-1,0
-160.52,4.35,-27.81,628,-3846,7281,-1,0,0
-160.53,4.34,-27.81,618,-3843,7280,-1,0,0
-160.53,4.35,-27.82,617,-3853,7277,0,-1,0
-160.53,4.35,-27.82,623,-3850,7289,0,-1,0
-160.53,4.35,-27.82,629,-3851,7291,0,0,0
-160.53,4.35,-27.81,634,-3840,7304,0,0,0
-160.53,4.34,-27.80,628,-3834,7304,-1,0,0
-160.54,4.33,-27.81,623,-3830,7301,-1,0,0
-160.54,4.33,-27.81,610,-3828,7294,-1,0,0
-160.55,4.32,-27.82,610,-3832,7290,-1,-1,0
-160.55,4.33,-27.84,613,-3847,7297,-1,-1,0
-160.56,4.33,-27.85,625,-3853,7294,-1,-1,0
-160.56,4.33,-27.86,624,-3857,7286,-1,-1,0
-160.57,4.33,-27.87,634,-3863,7284,-1,0,0
-160.57,4.33,-27.87,642,-3861,7276,0,0,0
-160.58,4.32,-27.87,639,-3858,7283,0,0,0
-160.59,4.30,-27.87,629,-3857,7284,-1,0,0
-160.60,4.29,-27.88,615,-3849,7293,-1,0,0
-160.60,4.28,-27.88,609,-3837,7294,-1,0,0
-160.62,4.27,-27.90,615,-3852,7268,-1,0,0
-160.63,4.27,-27.91,605,-3865,7267,-1,-1,0
-160.64,4.26,-27.91,615,-3863,7279,0,0,0
-160.65,4.25,-27.91,598,-3836,7291,-1,-1,0
-160.65,4.25,-27.92,595,-3851,7277,0,0,0
-160.66,4.25,-27.92,617,-3865,7269,0,0,0
-160.66,4.24,-27.90,601,-3847,7268,0,0,-1
-160.66,4.24,-27.89,621,-3834,7312,-1,-1,0
-160.67,4.24,-27.89,631,-3885,7290,1,0,0
-160.67,4.23,-27.87,619,-3857,7264,0,0,0
-160.68,4.21,-27.84,596,-3860,7278,1,0,-1
-160.68,4.20,-27.81,596,-3842,7287,0,0,0
-160.68,4.20,-27.79,610,-3853,7274,1,0,0
-160.68,4.17,-27.76,574,-3818,7329,0,-1,0
-160.67,4.18,-27.75,619,-3825,7347,0,0,0
-160.68,4.17,-27.75,581,-3814,7278,0,0,-1
-160.68,4.17,-27.73,588,-3806,7319,-1,-1,-1
-160.67,4.18,-27.74,600,-3816,7292,0,-1,-1
-160.67,4.19,-27.73,598,-3825,7296,0,-1,-1
-160.66,4.20,-27.73,614,-3811,7300,0,-1,-1
-160.65,4.21,-27.72,605,-3807,7297,0,-1,-1
-160.65,4.21,-27.72,602,-3822,7294,-1,0,-1
-160.63,4.21,-27.72,601,-3812,7293,-1,0,-1
-160.62,4.22,-27.72,597,-3811,7302,-1,-1,-1
-160.61,4.24,-27.73,597,-3823,7296,-1,-1,-1
-160.61,4.25,-27.74,600,-3843,7280,-1,-1,-1
-160.60,4.26,-27.74,612,-3848,7290,-1,-1,-1
-160.60,4.27,-27.75,608,-3853,7284,-1,-1,-1
-160.60,4.27,-27.76,617,-3863,7276,0,-1,-1
-160.60,4.27,-27.75,619,-3866,7270,0,0,-1
-160.59,4.27,-27.74,608,-3846,7286,0,0,-1
-160.58,4.26,-27.72,603,-3829,7283,0,0,-1
-160.58,4.26,-27.71,607,-3825,7298,0,0,-1
-160.57,4.27,-27.70,609,-3815,7316,0,-1,-1
-160.57,4.27,-27.70,602,-3810,7318,-1,-1,-1
-160.57,4.27,-27.70,613,-3809,7314,-1,-1,0
-160.57,4.27,-27.71,613,-3820,7311,-1,-1,-1
-160.57,4.27,-27.71,616,-3827,7305,-1,-1,-1
-160.57,4.27,-27.72,612,-3838,7300,-1,0,-1
-160.57,4.27,-27.73,609,-3840,7291,-1,-1,-1
-160.57,4.27,-27.73,612,-3847,7289,0,-1,-1
-160.57,4.27,-27.72,624,-3852,7293,0,-1,-1
-160.56,4.28,-27.72,632,-3848,7299,0,0,-1
-160.56,4.28,-27.71,626,-3841,7306,0,0,-1
-160.56,4.28,-27.71,624,-3834,7302,0,0,0
-160.56,4.26,-27.70,619,-3819,7299,-1,0,0
-160.56,4.26,-27.70,613,-3817,7312,-1,0,0
-160.57,4.26,-27.72,609,-3826,7294,-1,-1,0
-160.56,4.26,-27.72,604,-3832,7299,-1,0,-1
-160.56,4.26,-27.72,601,-3840,7305,-1,-1,-1
-160.56,4.26,-27.73,606,-3845,7299,-1,-1,-1
-160.56,4.27,-27.74,613,-3845,7282,-1,-1,-1
-160.56,4.28,-27.74,620,-3844,7278,0,-1,-1
-160.56,4.28,-27.74,628,-3844,7292,0,-1,-1
-160.56,4.28,-27.73,626,-3834,7303,0,0,0
-160.56,4.27,-27.72,623,-3833,7308,0,0,0
-160.56,4.27,-27.71,617,-3830,7307,0,0,0
-160.56,4.26,-27.71,607,-3835,7314,0,0,-1
-160.56,4.26,-27.71,607,-3826,7313,-1,-1,0
-160.56,4.26,-27.71,609,-3828,7310,-1,-1,0
-160.56,4.27,-27.71,616,-3827,7305,-1,-1,0
-160.56,4.27,-27.71,615,-3824,7296,0,0,0
-160.56,4.26,-27.71,616,-3821,7300,0,0,0
-160.56,4.25,-27.71,620,-3820,7306,-1,0,0
-160.56,4.25,-27.71,614,-3827,7312,-1,0,0
-160.56,4.25,-27.71,614,-3824,7314,-1,0,-1
-160.56,4.25,-27.71,613,-3817,7314,-1,0,0
-160.57,4.25,-27.72,615,-3818,7306,-1,0,0
-160.57,4.25,-27.72,618,-3832,7311,-1,-1,0
-160.57,4.25,-27.73,628,-3834,7295,-1,0,0
-160.57,4.25,-27.73,627,-3838,7300,0,0,0
-160.57,4.24,-27.73,613,-3833,7306,-1,0,0
-160.57,4.24,-27.73,602,-3840,7307,-1,0,-1
-160.57,4.24,-27.74,598,-3840,7305,-1,-1,-1
-160.57,4.24,-27.73,597,-3841,7300,0,-1,-1
-160.57,4.24,-27.73,602,-3828,7309,-1,-1,-1
-160.57,4.24,-27.73,608,-3830,7304,-1,-1,0
-160.57,4.24,-27.73,613,-3835,7306,-1,-1,0
-160.57,4.24,-27.73,620,-3849,7311,0,-1,0
-160.57,4.24,-27.73,612,-3843,7303,0,0,0
-160.57,4.24,-27.74,609,-3835,7302,-1,0,0
-160.57,4.24,-27.74,611,-3840,7296,0,0,0
-160.58,4.23,-27.74,615,-3838,7294,-1,0,0
-160.58,4.23,-27.74,611,-3832,7292,-1,0,0
-160.58,4.24,-27.74,610,-3836,7298,-1,0,0
-160.58,4.24,-27.74,616,-3837,7303,-1,0,0
-160.58,4.23,-27.75,614,-3841,7291,-1,0,0
-160.58,4.23,-27.75,606,-3832,7292,-1,-1,0
-160.58,4.23,-27.75,609,-3836,7303,-1,-1,-1
-160.58,4.23,-27.75,611,-3830,7298,-1,-1,-1
-160.58,4.24,-27.76,601,-3829,7296,-1,-1,0
-160.58,4.24,-27.76,601,-3840,7290,0,-1,-1
-160.58,4.24,-27.76,610,-3852,7294,0,-1,0
-160.58,4.24,-27.75,605,-3849,7302,0,-1,0
-160.57,4.25,-27.75,607,-3852,7308,0,-1,-1
-160.57,4.25,-27.75,614,-3852,7296,0,-1,-1
-160.57,4.26,-27.75,620,-3845,7300,0,0,-1
-160.57,4.26,-27.75,624,-3831,7308,0,-1,0
-160.57,4.26,-27.75,617,-3824,7301,-1,0,0
-160.57,4.25,-27.75,606,-3817,7296,-1,0,0
-160.57,4.25,-27.75,591,-3828,7301,-1,-1,-1
-160.57,4.25,-27.75,595,-3833,7302,-1,-1,-1
-160.57,4.26,-27.75,600,-3837,7304,-1,-1,-1
-160.57,4.26,-27.75,606,-3849,7305,-1,-1,-1
-160.57,4.28,-27.76,627,-3856,7295,0,-1,0
-160.57,4.28,-27.75,639,-3849,7291,0,0,0
-160.57,4.28,-27.74,646,-3846,7306,0,0,0
-160.57,4.27,-27.72,626,-3830,7313,0,0,0
-160.58,4.27,-27.72,621,-3837,7300,0,0,0
-160.58,4.25,-27.70,587,-3827,7303,0,0,-1
-160.58,4.25,-27.70,595,-3819,7332,-1,-1,0
-160.58,4.25,-27.70,605,-3817,7319,-1,-1,0
-160.58,4.25,-27.71,597,-3829,7313,-1,-1,-1
-160.59,4.26,-27.72,617,-3841,7300,-1,-1,0
-160.59,4.26,-27.72,613,-3820,7296,-1,-1,0
-160.59,4.27,-27.72,621,-3833,7311,-1,0,0
-160.59,4.26,-27.73,611,-3841,7287,0,0,0
-160.59,4.26,-27.73,604,-3836,7284,0,0,-1
-160.59,4.25,-27.72,604,-3830,7302,0,-1,-1
-160.59,4.26,-27.72,616,-3833,7309,0,-1,-1
-160.59,4.26,-27.72,612,-3821,7301,0,0,-1
-160.58,4.27,-27.72,605,-3808,7299,-1,-1,-1
-160.59,4.28,-27.72,613,-3818,7288,-1,-1,0
-160.58,4.28,-27.73,622,-3831,7292,-1,-1,0
-160.58,4.28,-27.73,627,-3836,7291,-1,0,0
-160.59,4.28,-27.73,622,-3840,7294,-1,0,0
-160.59,4.28,-27.73,612,-3842,7297,0,0,0
-160.59,4.27,-27.73,605,-3839,7310,0,-1,0
-160.59,4.27,-27.73,604,-3834,7306,0,-1,-1
-160.59,4.28,-27.73,609,-3828,7295,-1,-1,-1
-160.59,4.29,-27.73,618,-3828,7294,0,-1,-1
-160.59,4.29,-27.73,622,-3830,7288,0,-1,-1
-160.59,4.29,-27.73,620,-3830,7291,0,-1,0
-160.59,4.29,-27.73,620,-3830,7292,-1,-1,0
-160.59,4.29,-27.73,618,-3824,7300,-1,-1,0
-160.59,4.29,-27.73,615,-3829,7301,0,-1,0
-160.59,4.30,-27.72,611,-3836,7298,0,-1,-1
-160.59,4.30,-27.72,611,-3834,7309,0,-1,-1
-160.59,4.30,-27.72,613,-3835,7307,-1,-1,-1
-160.59,4.30,-27.72,612,-3832,7304,-1,0,0
-160.59,4.30,-27.72,614,-3828,7289,0,-1,0
-160.59,4.30,-27.72,609,-3824,7294,-1,-1,0
-160.59,4.31,-27.72,616,-3835,7291,0,-1,-1
-160.59,4.31,-27.72,620,-3840,7304,0,-1,0
-160.59,4.31,-27.72,623,-3838,7305,0,-1,-1
-160.58,4.31,-27.71,627,-3829,7309,0,0,0
-160.58,4.31,-27.71,626,-3814,7307,-1,0,0
-160.59,4.30,-27.72,617,-3817,7296,-1,0,0
-160.60,4.29,-27.73,611,-3823,7286,-1,-1,0
-160.60,4.30,-27.74,604,-3841,7286,-1,-1,-1
-160.59,4.30,-27.74,614,-3856,7299,0,-1,0
-160.60,4.31,-27.74,618,-3853,7297,-1,-1,0
-160.60,4.31,-27.74,619,-3847,7286,0,-1,-1
-160.60,4.31,-27.74,632,-3842,7293,0,-1,0
-160.60,4.31,-27.73,637,-3840,7297,0,0,0
-160.60,4.30,-27.72,627,-3838,7302,0,0,0
-160.60,4.30,-27.71,631,-3822,7302,0,0,0
-160.60,4.30,-27.71,621,-3816,7303,-1,0,0
-160.60,4.29,-27.71,614,-3819,7307,-1,0,-1
-160.60,4.29,-27.71,604,-3822,7316,-1,-1,-1
-160.60,4.29,-27.72,601,-3821,7314,-1,-1,0
-160.60,4.29,-27.73,607,-3829,7301,-1,-1,0
-160.61,4.30,-27.74,620,-3835,7289,-1,-1,0
-160.61,4.29,-27.75,616,-3847,7276,-1,0,-1
-160.61,4.29,-27.75,613,-3848,7280,0,0,0
-160.61,4.29,-27.75,609,-3844,7284,0,0,0
-160.61,4.29,-27.75,608,-3837,7283,-1,0,0
-160.61,4.29,-27.75,605,-3837,7303,0,-1,-1
-160.61,4.29,-27.75,614,-3836,7305,-1,-1,-1
-160.61,4.29,-27.75,622,-3831,7302,-1,-1,0
-160.61,4.30,-27.75,621,-3834,7297,-1,-1,0
-160.61,4.30,-27.75,618,-3828,7292,-1,0,0
-160.61,4.30,-27.76,619,-3832,7285,-1,-1,0
-160.62,4.30,-27.77,618,-3838,7287,-1,-1,0
-160.62,4.30,-27.77,618,-3842,7302,-1,-1,0
-160.62,4.30,-27.77,622,-3845,7300,-1,-1,0
-160.62,4.30,-27.77,623,-3834,7295,-1,-1,0
-160.62,4.30,-27.78,620,-3847,7297,-1,-1,0
-160.62,4.31,-27.78,622,-3842,7301,-1,-1,0
-160.62,4.31,-27.78,614,-3838,7295,-1,-1,0
-160.62,4.31,-27.79,616,-3832,7292,-1,-1,-1
-160.62,4.31,-27.79,621,-3838,7289,-1,-1,0
-160.62,4.32,-27.80,629,-3841,7291,-1,-1,0
-160.63,4.32,-27.80,629,-3848,7297,-1,-1,0
-160.63,4.32,-27.81,625,-3849,7294,-1,-1,0
-160.64,4.33,-27.82,617,-3847,7283,-1,-1,0
-160.64,4.32,-27.82,618,-3850,7291,-1,-1,0
-160.64,4.33,-27.82,621,-3845,7291,0,-1,0
-160.64,4.33,-27.82,623,-3838,7288,-1,0,0
-160.64,4.32,-27.82,622,-3840,7301,-1,-1,0
-160.64,4.32,-27.82,621,-3846,7291,-1,0,0
-160.65,4.31,-27.83,624,-3846,7287,-1,0,0
-160.65,4.31,-27.83,621,-3849,7278,-1,0,0
-160.65,4.31,-27.83,623,-3846,7277,0,0,0
-160.65,4.30,-27.83,621,-3846,7283,0,0,0
-160.65,4.30,-27.82,625,-3850,7282,0,0,0
-160.65,4.30,-27.81,620,-3857,7290,0,0,0
-160.65,4.29,-27.81,612,-3843,7301,0,0,0
-160.65,4.29,-27.79,620,-3840,7303,0,0,0
-160.65,4.28,-27.78,617,-3849,7301,0,0,0
-160.65,4.28,-27.78,619,-3848,7290,0,0,-1
-160.65,4.28,-27.76,617,-3847,7272,0,0,-1
-160.65,4.28,-27.74,624,-3835,7285,0,0,-1
-160.64,4.28,-27.73,638,-3817,7319,0,0,0
-160.64,4.27,-27.72,634,-3810,7309,0,0,0
-160.64,4.27,-27.72,620,-3832,7310,-1,0,0
-160.64,4.26,-27.72,609,-3825,7303,0,0,0
-160.65,4.25,-27.73,592,-3826,7293,-1,-1,0
-160.65,4.26,-27.74,591,-3835,7288,-1,-1,0
-160.65,4.26,-27.75,600,-3845,7278,0,-1,-1
-160.64,4.27,-27.74,609,-3850,7278,0,0,-1
-160.64,4.27,-27.74,611,-3851,7282,0,-1,-1
-160.63,4.27,-27.73,618,-3853,7297,0,0,-1
-160.63,4.27,-27.72,629,-3841,7295,0,0,-1
-160.62,4.28,-27.71,628,-3830,7295,0,0,0
-160.62,4.27,-27.70,626,-3820,7304,0,0,-1
-160.62,4.27,-27.70,617,-3817,7312,0,0,0
-160.63,4.27,-27.69,610,-3813,7308,-1,-1,-1
-160.63,4.27,-27.70,607,-3826,7310,-1,-1,-1
-160.62,4.27,-27.70,609,-3833,7308,-1,0,-1
-160.62,4.27,-27.71,617,-3835,7307,-1,0,-1
-160.62,4.27,-27.71,612,-3835,7304,0,-1,-1
-160.62,4.27,-27.71,614,-3832,7292,0,0,-1
-160.62,4.26,-27.70,602,-3830,7282,0,0,-1
-160.61,4.26,-27.70,603,-3828,7299,-1,0,-1
-160.61,4.26,-27.69,602,-3827,7294,0,0,-1
-160.61,4.26,-27.69,609,-3823,7293,0,-1,0
-160.61,4.26,-27.69,602,-3820,7285,0,0,-1
-160.61,4.26,-27.69,618,-3831,7291,-1,-1,0
-160.61,4.26,-27.69,622,-3840,7305,0,-1,0
-160.61,4.26,-27.69,598,-3823,7288,0,0,-1
-160.61,4.26,-27.69,616,-3822,7310,-1,-1,0
-160.62,4.26,-27.70,618,-3829,7281,0,0,-1
-160.62,4.24,-27.69,619,-3835,7296,0,0,0
-160.63,4.24,-27.68,627,-3827,7330,-1,0,0
-160.63,4.23,-27.68,616,-3810,7285,0,0,-1
-160.63,4.23,-27.68,618,-3840,7309,0,0,0
-160.63,4.22,-27.67,624,-3817,7287,0,0,-1
-160.63,4.21,-27.66,605,-3808,7321,-1,-1,0
-160.63,4.22,-27.66,626,-3823,7305,0,0,0
-160.63,4.21,-27.66,604,-3807,7303,-1,0,-1
-160.63,4.21,-27.66,603,-3810,7320,-1,0,-1
-160.63,4.21,-27.67,609,-3810,7309,-1,0,-1
-160.62,4.20,-27.67,611,-3821,7302,-1,0,-1
-160.62,4.21,-27.67,601,-3806,7302,-1,0,-1
-160.62,4.20,-27.69,597,-3820,7297,-1,0,-1
-160.62,4.20,-27.70,595,-3835,7300,-1,-1,-1
-160.62,4.21,-27.71,609,-3840,7299,-1,-1,-1
-160.62,4.22,-27.72,612,-3841,7302,-1,-1,0
-160.62,4.23,-27.72,616,-3841,7290,-1,-1,0
-160.62,4.23,-27.72,609,-3846,7288,0,0,-1
-160.62,4.23,-27.71,601,-3843,7283,0,0,-1
-160.62,4.23,-27.71,602,-3838,7292,0,-1,-1
-160.61,4.22,-27.70,605,-3825,7296,0,0,-1
-160.61,4.23,-27.70,604,-3822,7305,0,-1,-1
-160.61,4.23,-27.70,613,-3820,7309,-1,-1,0
-160.61,4.23,-27.70,608,-3823,7318,-1,-1,0
-160.61,4.23,-27.70,601,-3823,7307,-1,-1,0
-160.61,4.23,-27.71,606,-3828,7307,-1,-1,0
-160.61,4.23,-27.71,603,-3833,7309,-1,-1,0
-160.61,4.24,-27.72,598,-3846,7306,-1,-1,0
-160.62,4.23,-27.72,607,-3847,7299,0,-1,0
-160.62,4.24,-27.72,609,-3840,7284,0,-1,-1
-160.61,4.24,-27.71,615,-3839,7295,0,0,-1
-160.61,4.25,-27.71,630,-3835,7303,0,0,-1
-160.61,4.25,-27.70,621,-3831,7311,0,0,0
-160.61,4.25,-27.70,616,-3821,7311,-1,0,0
-160.61,4.24,-27.70,613,-3810,7305,-1,0,0
-160.61,4.24,-27.71,607,-3811,7304,-1,0,0
-160.62,4.24,-27.71,602,-3815,7296,-1,-1,0
-160.62,4.24,-27.73,595,-3835,7300,-1,-1,-1
-160.62,4.25,-27.73,605,-3839,7299,-1,-1,-1
-160.62,4.26,-27.73,608,-3844,7297,0,-1,-1
-160.61,4.26,-27.73,617,-3837,7285,0,-1,-1
-160.61,4.27,-27.72,630,-3841,7283,0,-1,-1
-160.60,4.28,-27.71,635,-3836,7290,0,0,-1
-160.60,4.27,-27.70,628,-3828,7294,0,0,0
-160.60,4.27,-27.69,611,-3818,7294,0,0,0
-160.60,4.27,-27.69,600,-3823,7295,-1,-1,0
-160.60,4.27,-27.70,600,-3827,7302,-1,-1,0
-160.61,4.27,-27.70,599,-3823,7309,-1,-1,0
-160.61,4.27,-27.71,598,-3832,7297,-1,-1,-1
-160.60,4.28,-27.71,614,-3841,7301,-1,-1,0
-160.60,4.28,-27.71,622,-3851,7291,0,-1,-1
-160.60,4.28,-27.71,616,-3846,7295,0,-1,0
-160.60,4.28,-27.71,619,-3835,7291,0,-1,-1
-160.60,4.29,-27.70,616,-3837,7293,0,0,-1
-160.60,4.29,-27.70,614,-3832,7296,0,0,-1
-160.60,4.29,-27.70,617,-3828,7313,0,0,0
-160.60,4.29,-27.70,620,-3820,7307,-1,-1,0
-160.60,4.29,-27.70,617,-3819,7315,-1,-1,-1
-160.60,4.29,-27.70,615,-3818,7304,-1,-1,0
-160.61,4.29,-27.70,617,-3824,7303,-1,0,0
-160.61,4.29,-27.70,619,-3827,7301,-1,-1,0
-160.61,4.29,-27.70,615,-3828,7301,-1,-1,0
-160.61,4.29,-27.70,609,-3843,7302,0,0,0
-160.61,4.29,-27.70,612,-3844,7311,0,-1,-1
-160.61,4.29,-27.70,605,-3834,7304,-1,-1,-1
-160.61,4.30,-27.70,604,-3828,7299,0,-1,-1
-160.61,4.30,-27.69,617,-3822,7295,0,-1,-1
-160.61,4.31,-27.69,626,-3820,7299,0,-1,0
-160.61,4.31,-27.69,617,-3823,7296,-1,-1,0
-160.61,4.30,-27.69,615,-3831,7297,-1,0,0
-160.61,4.30,-27.69,606,-3837,7300,0,0,0
-160.62,4.30,-27.69,605,-3834,7299,-1,-1,-1
-160.62,4.30,-27.69,611,-3831,7299,-1,-1,0
-160.62,4.30,-27.69,608,-3828,7305,-1,-1,-1
-160.62,4.30,-27.70,614,-3835,7303,0,-1,-1
-160.62,4.31,-27.70,617,-3834,7305,-1,0,-1
-160.62,4.31,-27.70,621,-3831,7308,0,0,0
-160.62,4.31,-27.69,624,-3828,7299,-1,0,0
-160.62,4.31,-27.70,622,-3836,7295,-1,-1,0
-160.62,4.31,-27.70,618,-3837,7302,0,0,0
-160.62,4.31,-27.70,618,-3836,7310,-1,-1,0
-160.62,4.31,-27.70,621,-3832,7305,-1,-1,0
-160.62,4.31,-27.70,617,-3837,7308,-1,-1,0
-160.62,4.31,-27.70,617,-3839,7307,-1,-1,0
-160.62,4.31,-27.70,615,-3828,7297,-1,-1,0
-160.63,4.31,-27.71,608,-3837,7297,-1,-1,0
-160.63,4.31,-27.71,604,-3833,7296,0,-1,0
-160.63,4.31,-27.71,607,-3838,7294,0,-1,-1
-160.63,4.32,-27.71,622,-3840,7292,0,-1,-1
-160.63,4.32,-27.71,631,-3834,7302,0,0,-1
-160.63,4.33,-27.70,637,-3820,7295,-1,0,0
-160.63,4.32,-27.70,633,-3824,7306,-1,0,0
-160.63,4.31,-27.70,620,-3818,7302,-1,0,0
-160.64,4.30,-27.70,607,-3823,7307,-1,0,0
-160.64,4.31,-27.71,599,-3833,7297,-1,-1,0
-160.65,4.30,-27.72,605,-3839,7289,-1,-1,-1
-160.64,4.31,-27.72,613,-3849,7301,-1,-1,0
-160.64,4.31,-27.72,619,-3845,7304,-1,-1,-1
-160.64,4.31,-27.72,630,-3841,7295,0,0,-1
-160.64,4.31,-27.72,632,-3836,7289,0,0,0
-160.64,4.31,-27.72,627,-3845,7300,-1,0,0
-160.65,4.30,-27.72,617,-3842,7305,-1,0,0
-160.65,4.30,-27.72,615,-3829,7297,-1,0,0
-160.65,4.30,-27.73,618,-3828,7302,-1,-1,0
-160.65,4.30,-27.74,617,-3832,7306,-1,-1,0
-160.65,4.30,-27.75,623,-3845,7299,-1,-1,0
-160.66,4.31,-27.75,622,-3847,7288,-1,-1,0
-160.66,4.31,-27.76,616,-3843,7293,-1,-1,0
-160.66,4.31,-27.76,623,-3842,7287,0,0,0
-160.66,4.30,-27.76,624,-3840,7293,0,0,0
-160.66,4.30,-27.75,620,-3833,7291,-1,0,0
-160.67,4.30,-27.76,618,-3838,7287,-1,0,0
-160.67,4.30,-27.76,624,-3829,7292,-1,-1,0
-160.67,4.31,-27.77,626,-3832,7290,-1,-1,0
-160.67,4.31,-27.77,628,-3841,7285,-1,-1,0
-160.67,4.31,-27.78,626,-3841,7282,-1,0,0
-160.68,4.31,-27.79,634,-3843,7281,-1,0,0
-160.68,4.31,-27.79,629,-3840,7284,-1,0,0
-160.68,4.31,-27.79,624,-3848,7292,-1,0,0
-160.69,4.30,-27.80,617,-3847,7305,-1,-1,0
-160.69,4.31,-27.80,614,-3839,7301,-1,-1,0
-160.70,4.31,-27.80,607,-3837,7298,-1,-1,0
-160.70,4.31,-27.80,620,-3844,7282,-1,-1,0
-160.70,4.31,-27.81,628,-3848,7278,-1,-1,0
-160.70,4.32,-27.82,621,-3849,7284,-1,-1,0
-160.71,4.31,-27.82,619,-3853,7292,-1,-1,0
-160.71,4.32,-27.83,618,-3846,7286,-1,-1,0
-160.72,4.31,-27.83,617,-3847,7291,-1,-1,0
-160.72,4.31,-27.83,611,-3844,7293,-1,-1,0
-160.72,4.31,-27.84,615,-3851,7287,-1,-1,0
-160.72,4.31,-27.84,622,-3852,7289,-1,-1,0
-160.73,4.31,-27.85,622,-3847,7292,-1,0,0
-160.73,4.31,-27.85,628,-3855,7290,-1,-1,0
-160.74,4.31,-27.86,617,-3857,7287,-1,0,0
-160.75,4.31,-27.86,616,-3854,7280,-1,0,0
-160.75,4.30,-27.87,617,-3855,7281,-1,0,0
-160.75,4.30,-27.86,613,-3852,7287,-1,-1,0
-160.75,4.30,-27.87,607,-3845,7279,-1,0,0
-160.76,4.29,-27.87,598,-3856,7278,0,0,0
-160.76,4.29,-27.86,603,-3861,7277,0,0,-1
-160.75,4.29,-27.85,609,-3854,7286,0,0,-1
-160.75,4.29,-27.83,615,-3853,7301,0,0,-1
-160.74,4.29,-27.82,620,-3851,7300,0,0,-1
-160.74,4.29,-27.81,620,-3842,7298,0,0,-1
-160.73,4.28,-27.79,607,-3835,7296,0,0,-1
-160.73,4.29,-27.78,605,-3829,7285,0,-1,-1
-160.73,4.29,-27.78,602,-3839,7294,0,-1,-1
-160.72,4.30,-27.77,606,-3838,7301,0,-1,-1
-160.72,4.31,-27.77,606,-3843,7298,-1,-1,-1
-160.71,4.32,-27.77,616,-3851,7281,0,-1,-1
-160.70,4.33,-27.77,632,-3855,7277,0,-1,-1
-160.70,4.34,-27.75,641,-3850,7283,0,0,-1
-160.69,4.34,-27.75,631,-3842,7286,0,0,-1
-160.69,4.33,-27.73,629,-3829,7302,0,0,-1
-160.69,4.33,-27.73,625,-3832,7309,0,-1,0
-160.69,4.33,-27.72,624,-3834,7311,0,0,-1
-160.68,4.33,-27.70,618,-3827,7310,0,0,-1
-160.68,4.33,-27.70,614,-3834,7308,-1,-1,-1
-160.68,4.33,-27.70,623,-3833,7307,-1,-1,-1
-160.68,4.33,-27.71,627,-3837,7304,0,-1,-1
-160.68,4.34,-27.70,625,-3836,7296,0,0,-1
-160.68,4.34,-27.70,623,-3835,7295,0,0,0
-160.68,4.33,-27.70,610,-3834,7299,0,0,-1
-160.68,4.33,-27.70,609,-3835,7305,0,0,-1
-160.68,4.33,-27.69,612,-3834,7311,0,-1,-1
-160.67,4.34,-27.68,620,-3831,7317,0,-1,-1
-160.67,4.34,-27.67,624,-3819,7308,0,-1,-1
-160.66,4.34,-27.67,635,-3822,7312,0,0,-1
-160.66,4.34,-27.67,638,-3820,7298,-1,0,0
-160.67,4.34,-27.67,628,-3825,7301,-1,0,0
-160.67,4.34,-27.68,619,-3835,7291,0,0,0
-160.67,4.34,-27.67,619,-3837,7307,0,0,0
-160.67,4.34,-27.67,613,-3834,7301,0,-1,-1
-160.67,4.33,-27.67,611,-3831,7306,0,-1,-1
-160.66,4.34,-27.66,619,-3827,7313,0,-1,-1
-160.66,4.34,-27.66,624,-3817,7318,0,-1,-1
-160.66,4.34,-27.65,627,-3822,7315,0,-1,-1
-160.66,4.34,-27.65,617,-3824,7315,0,0,0
-160.66,4.34,-27.65,618,-3825,7319,0,0,0
-160.66,4.34,-27.65,618,-3826,7312,0,-1,0
-160.66,4.34,-27.64,618,-3826,7315,-1,-1,-1
-160.66,4.34,-27.65,617,-3824,7305,-1,0,0
-160.66,4.34,-27.65,618,-3830,7292,-1,-1,-1
-160.66,4.34,-27.65,621,-3825,7293,0,0,0
-160.66,4.34,-27.65,624,-3823,7293,0,0,-1
-160.67,4.33,-27.65,620,-3826,7300,-1,0,0
-160.67,4.33,-27.65,626,-3832,7291,0,0,0
-160.67,4.33,-27.65,617,-3831,7289,0,0,-1
-160.67,4.33,-27.65,609,-3833,7302,0,0,-1
-160.67,4.33,-27.65,614,-3830,7301,0,0,-1
-160.67,4.32,-27.65,610,-3825,7295,0,0,-1
-160.67,4.32,-27.65,615,-3818,7300,-1,0,0
-160.67,4.32,-27.65,614,-3815,7291,-1,-1,0
-160.67,4.32,-27.65,615,-3821,7309,0,0,-1
-160.67,4.31,-27.64,618,-3816,7311,0,0,0
-160.67,4.31,-27.64,606,-3822,7295,-1,-1,0
-160.67,4.31,-27.65,603,-3832,7291,0,-1,-1
-160.67,4.31,-27.65,613,-3830,7282,0,0,-1
-160.66,4.31,-27.64,622,-3837,7306,0,0,-1
-160.66,4.31,-27.63,623,-3836,7313,0,0,-1
-160.66,4.30,-27.63,620,-3821,7310,0,0,0
-160.66,4.30,-27.63,617,-3811,7304,-1,0,0
-160.66,4.30,-27.64,612,-3817,7307,-1,0,0
-160.67,4.29,-27.64,602,-3819,7305,-1,-1,0
-160.67,4.29,-27.65,599,-3830,7303,-1,-1,-1
-160.67,4.29,-27.66,609,-3832,7302,-1,-1,-1
-160.67,4.30,-27.66,622,-3838,7303,-1,0,-1
-160.67,4.30,-27.66,624,-3835,7296,0,0,-1
-160.67,4.29,-27.66,629,-3831,7293,0,0,0
-160.67,4.29,-27.65,624,-3823,7304,0,0,0
-160.67,4.29,-27.65,618,-3818,7306,0,0,0
-160.68,4.28,-27.64,610,-3824,7314,0,0,0
-160.68,4.28,-27.64,608,-3815,7311,-1,0,0
-160.68,4.28,-27.64,597,-3815,7315,-1,-1,0
-160.68,4.28,-27.64,601,-3818,7307,-1,-1,0
-160.68,4.28,-27.64,607,-3825,7307,-1,-1,-1
-160.68,4.28,-27.65,612,-3827,7302,-1,-1,-1
-160.68,4.29,-27.65,605,-3834,7294,-1,-1,0
-160.68,4.29,-27.65,604,-3826,7292,0,0,-1
-160.68,4.29,-27.65,612,-3824,7291,0,-1,-1
-160.68,4.28,-27.65,611,-3823,7298,0,0,-1
-160.68,4.29,-27.65,614,-3826,7307,-1,-1,0
-160.68,4.29,-27.65,610,-3831,7310,-1,-1,-1
-160.68,4.29,-27.65,616,-3825,7307,-1,-1,0
-160.67,4.29,-27.65,621,-3825,7306,-1,-1,-1
-160.67,4.29,-27.66,615,-3830,7301,-1,-1,0
-160.67,4.29,-27.66,607,-3833,7315,-1,-1,-1
-160.67,4.30,-27.66,604,-3832,7309,0,-1,0
-160.67,4.29,-27.66,606,-3835,7308,0,0,-1
-160.67,4.30,-27.65,615,-3829,7308,0,-1,-1
-160.67,4.30,-27.64,612,-3823,7314,0,-1,-1
-160.67,4.30,-27.64,612,-3824,7316,0,-1,-1
-160.67,4.30,-27.64,606,-3818,7310,0,-1,-1
-160.67,4.30,-27.63,610,-3814,7309,-1,-1,-1
-160.67,4.30,-27.63,616,-3818,7309,-1,-1,0
-160.67,4.31,-27.63,615,-3822,7305,0,-1,0
-160.67,4.31,-27.63,614,-3814,7309,0,-1,0
-160.67,4.32,-27.63,624,-3816,7304,-1,-1,0
-160.67,4.32,-27.64,627,-3820,7300,-1,-1,0
-160.67,4.32,-27.64,622,-3820,7295,0,-1,0
-160.67,4.32,-27.64,619,-3829,7298,0,0,-1
-160.67,4.32,-27.63,612,-3823,7306,0,-1,-1
-160.67,4.32,-27.63,608,-3820,7297,-1,-1,-1
-160.67,4.33,-27.63,613,-3821,7301,0,-1,-1
-160.67,4.33,-27.63,619,-3819,7302,0,-1,-1
-160.67,4.33,-27.63,632,-3823,7299,-1,-1,0
-160.67,4.34,-27.63,633,-3817,7298,-1,0,0
-160.67,4.34,-27.64,630,-3823,7293,-1,0,-1
-160.67,4.34,-27.64,622,-3818,7293,-1,0,0
-160.67,4.34,-27.64,615,-3819,7293,-1,-1,0
-160.67,4.34,-27.64,618,-3821,7290,0,-1,-1
-160.67,4.34,-27.64,617,-3819,7299,-1,-1,-1
-160.67,4.34,-27.64,617,-3824,7303,-1,-1,0
-160.67,4.34,-27.64,624,-3831,7294,0,-1,0
-160.67,4.35,-27.63,622,-3836,7286,0,-1,0
-160.67,4.35,-27.63,614,-3835,7296,0,-1,-1
-160.67,4.35,-27.63,626,-3829,7312,0,-1,-1
-160.66,4.35,-27.62,634,-3823,7314,0,-1,0
-160.66,4.35,-27.61,636,-3813,7328,0,0,0
-160.66,4.35,-27.61,624,-3812,7315,-1,0,0
-160.67,4.35,-27.62,612,-3814,7306,-1,0,0
-160.68,4.34,-27.63,610,-3817,7296,-1,-1,0
-160.68,4.34,-27.64,606,-3822,7296,-1,-1,0
-160.68,4.35,-27.64,607,-3827,7299,-1,-1,-1
-160.68,4.35,-27.65,618,-3837,7291,-1,-1,-1
-160.68,4.35,-27.65,632,-3838,7297,0,-1,0
-160.68,4.35,-27.65,630,-3844,7285,0,-1,-1
-160.68,4.35,-27.64,628,-3826,7293,0,0,0
-160.68,4.36,-27.63,631,-3824,7302,0,0,0
-160.68,4.35,-27.63,631,-3810,7301,-1,0,0
-160.68,4.35,-27.63,618,-3812,7296,-1,0,0
-160.68,4.35,-27.63,617,-3816,7300,-1,0,-1
-160.68,4.35,-27.63,613,-3818,7312,-1,-1,0
-160.69,4.35,-27.64,615,-3815,7312,-1,-1,0
-160.68,4.36,-27.64,618,-3832,7309,-1,-1,-1
-160.68,4.37,-27.65,623,-3836,7306,-1,-1,-1
-160.68,4.37,-27.65,635,-3839,7307,0,0,0
-160.68,4.37,-27.65,637,-3838,7311,-1,0,0
-160.68,4.37,-27.65,632,-3832,7304,0,0,0
-160.68,4.37,-27.65,633,-3830,7300,0,0,0
-160.68,4.37,-27.65,625,-3827,7306,-1,-1,0
-160.69,4.37,-27.65,619,-3823,7308,-1,-1,-1
-160.69,4.37,-27.65,629,-3824,7302,-1,-1,0
-160.69,4.37,-27.65,636,-3832,7300,-1,-1,0
-160.69,4.37,-27.66,638,-3822,7296,-1,0,0
-160.69,4.37,-27.66,631,-3813,7284,-1,0,0
-160.69,4.37,-27.66,633,-3822,7294,-1,0,0
-160.70,4.36,-27.67,617,-3835,7292,-1,0,0
-160.70,4.36,-27.67,617,-3829,7299,0,0,0
-160.70,4.36,-27.67,616,-3838,7283,-1,-1,0
-160.70,4.36,-27.67,616,-3833,7286,0,-1,-1
-160.70,4.36,-27.67,616,-3829,7299,-1,-1,-1
-160.70,4.36,-27.67,624,-3833,7312,-1,0,0
-160.70,4.36,-27.67,623,-3830,7309,-1,0,0
-160.70,4.36,-27.68,614,-3836,7313,-1,-1,0
-160.71,4.36,-27.68,616,-3838,7298,-1,-1,0
-160.71,4.36,-27.68,623,-3831,7290,-1,0,0
-160.71,4.35,-27.68,619,-3833,7298,-1,0,0
-160.71,4.35,-27.68,619,-3820,7293,0,0,0
-160.71,4.35,-27.69,618,-3836,7291,-1,-1,0
-160.71,4.35,-27.69,622,-3835,7304,0,-1,0
-160.71,4.35,-27.69,615,-3833,7300,-1,-1,0
-160.72,4.35,-27.69,619,-3834,7290,-1,-1,0
-160.71,4.36,-27.69,623,-3827,7292,-1,0,0
-160.72,4.35,-27.69,621,-3827,7299,-1,0,0
-160.72,4.35,-27.70,628,-3827,7306,-1,0,0
-160.72,4.35,-27.71,622,-3832,7303,-1,0,0
-160.72,4.34,-27.71,617,-3832,7296,-1,-1,0
-160.73,4.34,-27.71,616,-3833,7293,0,-1,0
-160.73,4.35,-27.71,620,-3834,7288,0,-1,-1
-160.73,4.35,-27.71,629,-3840,7299,0,0,-1
-160.72,4.35,-27.71,641,-3831,7320,-1,0,-1
-160.72,4.34,-27.71,637,-3826,7320,-1,0,0
-160.72,4.34,-27.71,631,-3826,7315,-1,0,0
-160.73,4.33,-27.72,613,-3823,7294,-1,0,0
-160.73,4.32,-27.73,605,-3828,7295,-1,-1,0
-160.74,4.32,-27.74,605,-3838,7295,-1,-1,0
-160.74,4.32,-27.76,605,-3851,7297,-1,-1,-1
-160.74,4.32,-27.76,614,-3852,7292,-1,-1,-1
-160.74,4.33,-27.76,625,-3852,7288,0,-1,0
-160.74,4.33,-27.76,637,-3846,7283,0,0,0
-160.74,4.32,-27.76,635,-3843,7292,0,0,0
-160.74,4.31,-27.76,625,-3831,7300,-1,0,0
-160.75,4.31,-27.76,617,-3828,7299,-1,0,0
-160.75,4.30,-27.77,605,-3828,7293,-1,0,0
-160.76,4.30,-27.77,600,-3840,7302,-1,-1,0
-160.76,4.31,-27.78,605,-3849,7306,-1,-1,0
-160.76,4.31,-27.79,611,-3847,7296,-1,-1,0
-160.77,4.31,-27.80,620,-3849,7290,-1,-1,0
-160.77,4.31,-27.80,620,-3851,7281,-1,0,0
-160.77,4.31,-27.81,622,-3853,7291,-1,0,0
-160.77,4.31,-27.81,620,-3853,7299,-1,0,0
-160.77,4.30,-27.81,617,-3848,7292,-1,0,0
-160.77,4.30,-27.82,614,-3844,7293,-1,0,0
-160.78,4.30,-27.83,617,-3849,7299,-1,0,0
-160.78,4.30,-27.83,615,-3849,7293,-1,-1,0
-160.79,4.30,-27.84,621,-3854,7289,-1,-1,0
-160.79,4.30,-27.85,632,-3855,7299,-1,0,0
-160.80,4.29,-27.85,621,-3848,7285,-1,0,0
-160.80,4.29,-27.85,615,-3848,7285,0,0,0
-160.80,4.28,-27.84,616,-3841,7302,0,0,0
-160.80,4.28,-27.84,609,-3853,7289,0,0,0
-160.80,4.28,-27.83,616,-3856,7294,0,0,0
-160.80,4.28,-27.81,615,-3852,7287,0,0,-1
-160.80,4.28,-27.80,610,-3846,7290,0,0,-1
-160.79,4.27,-27.78,612,-3836,7299,0,0,-1
-160.79,4.27,-27.77,614,-3836,7308,0,-1,-1
-160.78,4.27,-27.76,612,-3841,7310,0,0,-1
-160.77,4.28,-27.74,609,-3833,7318,0,-1,-1
-160.77,4.28,-27.74,615,-3828,7296,-1,-1,-1
-160.77,4.29,-27.75,618,-3839,7305,-1,-1,-1
-160.76,4.29,-27.75,619,-3840,7292,-1,-1,-1
-160.76,4.30,-27.75,615,-3856,7292,0,-1,-1
-160.76,4.31,-27.74,619,-3853,7297,0,-1,-1
-160.75,4.31,-27.74,612,-3845,7284,0,0,-1
-160.75,4.31,-27.73,611,-3838,7280,0,-1,-1
-160.74,4.31,-27.72,609,-3843,7286,0,-1,-1
-160.74,4.31,-27.71,610,-3839,7291,0,0,-1
-160.74,4.31,-27.70,613,-3828,7304,0,-1,-1
-160.73,4.32,-27.69,623,-3830,7313,0,-1,-1
-160.73,4.32,-27.68,627,-3831,7313,0,0,-1
-160.73,4.32,-27.68,623,-3819,7309,0,0,-1
-160.72,4.32,-27.68,617,-3816,7313,-1,0,0
-160.73,4.31,-27.68,612,-3814,7301,-1,0,0
-160.73,4.31,-27.68,601,-3822,7290,-1,-1,0
-160.73,4.31,-27.69,596,-3838,7290,-1,-1,-1
-160.73,4.31,-27.70,599,-3840,7286,0,-1,-1
-160.73,4.31,-27.69,611,-3838,7294,0,-1,-1
-160.73,4.32,-27.69,614,-3838,7294,0,-1,-1
-160.72,4.32,-27.68,628,-3835,7291,0,0,-1
-160.72,4.32,-27.67,626,-3831,7297,0,0,-1
-160.72,4.32,-27.65,634,-3829,7302,0,0,-1
-160.72,4.32,-27.65,631,-3813,7300,0,0,0
-160.72,4.32,-27.64,626,-3807,7303,0,0,0
-160.72,4.32,-27.64,625,-3806,7302,-1,-1,0
-160.72,4.32,-27.65,623,-3817,7316,-1,0,0
-160.72,4.32,-27.65,619,-3820,7309,-1,-1,0
-160.72,4.32,-27.65,610,-3826,7306,-1,-1,-1
-160.72,4.32,-27.66,603,-3833,7295,-1,-1,-1
-160.72,4.32,-27.67,615,-3836,7291,0,0,-1
-160.72,4.32,-27.66,621,-3838,7290,0,0,-1
-160.71,4.32,-27.66,624,-3834,7298,0,0,-1
-160.71,4.32,-27.65,624,-3840,7300,0,0,-1
-160.71,4.32,-27.65,620,-3835,7299,0,-1,-1
-160.71,4.32,-27.65,621,-3826,7303,0,0,-1
-160.71,4.32,-27.65,616,-3817,7307,-1,-1,0
-160.71,4.32,-27.65,622,-3820,7300,-1,-1,0
-160.71,4.32,-27.65,618,-3818,7301,-1,-1,-1
-160.71,4.32,-27.65,617,-3817,7306,-1,0,0
-160.71,4.32,-27.65,624,-3821,7301,-1,0,0
-160.71,4.32,-27.65,618,-3825,7304,-1,0,0
-160.72,4.32,-27.65,619,-3825,7303,0,0,0
-160.72,4.31,-27.66,620,-3834,7296,-1,0,0
-160.72,4.31,-27.66,615,-3828,7293,0,0,-1
-160.72,4.31,-27.66,614,-3833,7298,0,0,0
-160.72,4.31,-27.66,612,-3826,7301,-1,0,0
-160.72,4.31,-27.66,612,-3825,7304,-1,-1,0
-160.72,4.31,-27.66,617,-3825,7290,-1,-1,0
-160.72,4.31,-27.66,618,-3835,7301,-1,0,0
-160.72,4.31,-27.66,614,-3836,7306,-1,0,0
-160.73,4.31,-27.66,611,-3839,7299,-1,0,0
-160.73,4.31,-27.66,610,-3836,7298,0,0,0
-160.72,4.31,-27.66,617,-3833,7293,0,0,-1
-160.72,4.31,-27.66,619,-3836,7295,0,-1,0
-160.72,4.31,-27.66,628,-3828,7306,0,0,0
-160.72,4.31,-27.66,624,-3817,7304,0,0,0
-160.73,4.30,-27.66,621,-3816,7304,-1,0,0
-160.73,4.30,-27.66,617,-3821,7300,-1,0,0
-160.73,4.29,-27.66,612,-3827,7294,0,-1,0
-160.73,4.29,-27.66,608,-3825,7306,0,-1,-1
-160.73,4.29,-27.66,619,-3826,7310,0,-1,-1
-160.73,4.29,-27.65,621,-3824,7306,0,0,-1
-160.73,4.29,-27.65,622,-3820,7308,-1,0,0
-160.73,4.29,-27.65,615,-3814,7314,-1,0,0
-160.74,4.28,-27.66,610,-3815,7304,-1,0,0
-160.74,4.27,-27.67,596,-3824,7310,-1,0,0
-160.74,4.27,-27.68,594,-3833,7301,-1,-1,-1
-160.74,4.27,-27.68,596,-3840,7300,-1,-1,-1
-160.74,4.27,-27.68,606,-3840,7297,-1,-1,-1
-160.74,4.28,-27.68,617,-3844,7293,0,-1,-1
-160.74,4.28,-27.68,625,-3848,7293,0,0,-1
-160.74,4.29,-27.67,630,-3834,7294,0,0,0
-160.74,4.28,-27.66,623,-3820,7301,0,0,0
-160.74,4.28,-27.66,617,-3814,7299,0,0,0
-160.74,4.28,-27.66,613,-3815,7303,-1,-1,0
-160.74,4.28,-27.66,614,-3808,7303,-1,-1,0
-160.74,4.28,-27.66,619,-3813,7302,-1,-1,0
-160.74,4.29,-27.67,615,-3828,7307,-1,-1,0
