Yaw,Pitch,Roll,AX,AY,AZ,GX,GY,GZ
-157.64,5.04,-31.22,732,-4284,7047,0,0,0
-157.64,5.03,-31.22,722,-4280,7052,0,0,-1
-157.64,5.02,-31.21,716,-4271,7074,-1,0,0
-157.65,5.02,-31.21,710,-4270,7076,0,0,0
-157.65,5.02,-31.22,710,-4258,7068,-1,-1,0
-157.65,5.02,-31.22,704,-4265,7054,-1,-1,-1
-157.65,5.02,-31.22,705,-4270,7055,-1,-1,-1
-157.65,5.02,-31.22,708,-4268,7064,0,-1,-1
-157.65,5.02,-31.22,707,-4273,7056,-1,-1,-1
-157.65,5.02,-31.22,716,-4271,7060,-1,-1,0
-157.66,5.02,-31.21,715,-4264,7064,-1,-1,0
-157.66,5.02,-31.21,716,-4258,7054,-1,-1,0
-157.66,5.01,-31.21,704,-4258,7054,0,0,-1
-157.66,5.01,-31.21,703,-4263,7061,-1,-1,0
-157.67,5.01,-31.21,701,-4264,7054,-1,-1,-1
-157.66,5.02,-31.21,697,-4267,7054,-1,-1,-1
-157.66,5.02,-31.21,707,-4269,7048,0,-1,-1
-157.65,5.03,-31.21,711,-4265,7042,0,-1,-1
-157.65,5.04,-31.21,720,-4269,7045,-1,-1,-1
-157.65,5.04,-31.21,720,-4263,7047,0,-1,0
-157.65,5.04,-31.21,723,-4265,7051,0,-1,0
-157.65,5.04,-31.20,714,-4263,7051,0,0,0
-157.65,5.04,-31.21,706,-4261,7056,-1,-1,0
-157.66,5.04,-31.21,706,-4263,7056,-1,-1,-1
-157.66,5.04,-31.22,709,-4269,7047,-1,-1,0
-157.66,5.05,-31.22,719,-4272,7049,-1,-1,-1
-157.66,5.06,-31.23,721,-4275,7043,-1,-1,-1
-157.66,5.06,-31.23,722,-4284,7049,-1,-1,-1
-157.66,5.06,-31.23,730,-4281,7049,0,-1,-1
-157.66,5.06,-31.23,731,-4267,7058,-1,-1,-1
-157.66,5.06,-31.23,734,-4264,7057,-1,0,0
-157.66,5.06,-31.23,724,-4278,7057,0,0,0
-157.66,5.06,-31.23,719,-4278,7063,0,-1,-1
-157.66,5.06,-31.22,709,-4274,7062,0,-1,-1
-157.66,5.07,-31.22,710,-4273,7064,0,-1,-1
-157.66,5.08,-31.22,725,-4270,7055,0,-1,-1
-157.65,5.09,-31.21,729,-4261,7055,0,-1,-1
-157.65,5.09,-31.21,731,-4255,7053,-1,0,0
-157.65,5.08,-31.22,725,-4261,7044,-1,0,0
-157.65,5.07,-31.22,723,-4251,7049,-1,0,0
-157.66,5.07,-31.23,711,-4258,7044,-1,-1,-1
-157.66,5.07,-31.23,709,-4269,7046,-1,-1,-1
-157.66,5.08,-31.24,715,-4275,7048,-1,-1,-1
-157.66,5.09,-31.24,719,-4273,7048,-1,-1,-1
-157.66,5.10,-31.24,732,-4273,7051,-1,-1,-1
-157.65,5.11,-31.25,741,-4276,7052,0,-1,-1
-157.65,5.11,-31.25,744,-4273,7040,0,0,-1
-157.65,5.11,-31.24,746,-4265,7042,0,0,0
-157.65,5.10,-31.23,730,-4272,7044,0,0,0
-157.65,5.09,-31.23,723,-4262,7064,0,0,-1
-157.65,5.10,-31.23,719,-4265,7068,-1,-1,-1
-157.65,5.09,-31.23,725,-4266,7066,0,-1,-1
-157.65,5.10,-31.24,721,-4257,7052,-1,-1,-1
-157.65,5.10,-31.23,723,-4271,7034,0,-1,-1
-157.64,5.11,-31.23,735,-4271,7049,-1,-1,-1
-157.64,5.12,-31.23,734,-4270,7050,-1,-1,-1
-157.64,5.12,-31.24,732,-4276,7041,-1,-1,-1
-157.64,5.12,-31.25,728,-4282,7044,-1,-1,-1
-157.64,5.12,-31.25,729,-4281,7049,-1,-1,-1
-157.64,5.12,-31.25,730,-4284,7051,-1,-1,0
-157.65,5.12,-31.25,735,-4285,7053,0,-1,-1
-157.65,5.13,-31.25,733,-4275,7046,0,-1,-1
-157.65,5.13,-31.25,732,-4271,7049,0,0,-1
-157.65,5.13,-31.25,733,-4266,7047,-1,-1,-1
-157.65,5.13,-31.25,729,-4271,7038,-1,-1,-1
-157.65,5.13,-31.25,723,-4272,7043,0,-1,-1
-157.65,5.13,-31.25,730,-4266,7048,0,-1,-1
-157.65,5.13,-31.24,731,-4264,7045,0,-1,-1
-157.64,5.13,-31.24,735,-4270,7042,-1,-1,-1
-157.64,5.13,-31.24,735,-4267,7042,-1,-1,-1
-157.65,5.13,-31.25,733,-4274,7046,-1,-1,0
-157.65,5.13,-31.25,735,-4272,7038,-1,-1,-1
-157.65,5.13,-31.25,727,-4282,7046,-1,-1,0
-157.65,5.13,-31.26,740,-4278,7039,-1,0,0
-157.65,5.13,-31.26,735,-4282,7037,-1,-1,0
-157.66,5.13,-31.27,729,-4283,7025,0,-1,0
-157.66,5.13,-31.27,730,-4293,7042,0,-1,-1
-157.65,5.14,-31.26,728,-4286,7049,0,-1,-1
-157.65,5.14,-31.26,717,-4277,7054,-1,-1,-1
-157.65,5.15,-31.26,724,-4273,7047,0,-1,-1
-157.65,5.15,-31.26,736,-4269,7047,-1,-1,-1
-157.64,5.15,-31.25,739,-4268,7053,-1,0,-1
-157.64,5.15,-31.26,742,-4272,7046,-1,0,-1
-157.64,5.15,-31.25,745,-4263,7039,0,-1,-1
-157.64,5.15,-31.25,746,-4266,7050,-1,-1,-1
-157.64,5.16,-31.25,754,-4268,7055,0,-1,-1
-157.64,5.16,-31.25,756,-4268,7049,-1,0,0
-157.64,5.16,-31.25,748,-4264,7056,-1,0,0
-157.65,5.15,-31.25,731,-4264,7047,-1,0,0
-157.65,5.15,-31.26,721,-4271,7050,-1,0,0
-157.65,5.14,-31.26,715,-4274,7058,-1,-1,-1
-157.65,5.14,-31.27,719,-4277,7049,-1,-1,-1
-157.65,5.15,-31.27,734,-4281,7044,-1,-1,-1
-157.65,5.16,-31.27,745,-4285,7055,0,-1,-1
-157.65,5.17,-31.27,752,-4289,7052,0,-1,-1
-157.65,5.18,-31.27,757,-4285,7039,0,-1,0
-157.65,5.18,-31.27,755,-4273,7049,0,0,0
-157.65,5.17,-31.26,750,-4273,7050,0,0,0
-157.65,5.17,-31.25,740,-4271,7058,0,0,0
-157.65,5.16,-31.25,739,-4267,7035,0,0,0
-157.65,5.16,-31.25,729,-4260,7037,-1,-1,0
-157.66,5.16,-31.26,719,-4265,7040,-1,-1,0
-157.66,5.17,-31.26,732,-4270,7049,-1,-1,0
-157.66,5.18,-31.26,733,-4276,7057,-1,-1,-1
-157.66,5.18,-31.27,731,-4270,7039,-1,-1,-1
-157.67,5.19,-31.28,741,-4268,7032,-1,-1,0
-157.67,5.20,-31.28,755,-4275,7036,-1,-1,-1
-157.67,5.20,-31.29,761,-4276,7041,-1,-1,0
-157.67,5.21,-31.29,762,-4281,7046,-1,0,0
-157.67,5.20,-31.29,755,-4273,7045,-1,0,0
-157.67,5.19,-31.29,746,-4280,7051,-1,0,0
-157.67,5.19,-31.30,747,-4280,7051,-1,0,0
-157.67,5.18,-31.30,740,-4275,7050,-1,0,0
-157.68,5.17,-31.31,726,-4274,7041,-1,0,0
-157.69,5.16,-31.32,722,-4273,7030,-1,0,0
-157.69,5.16,-31.33,724,-4279,7039,-1,0,0
-157.70,5.16,-31.33,725,-4285,7038,-1,0,-1
-157.70,5.16,-31.33,732,-4280,7046,-1,0,0
-157.69,5.16,-31.33,738,-4278,7041,-1,0,-1
-157.70,5.15,-31.34,733,-4280,7049,-1,0,0
-157.70,5.15,-31.34,734,-4281,7032,-1,0,0
-157.70,5.15,-31.34,731,-4283,7038,-1,0,0
-157.70,5.15,-31.34,733,-4285,7052,-1,-1,0
-157.70,5.14,-31.35,734,-4284,7051,-1,0,0
-157.70,5.14,-31.35,729,-4279,7045,0,0,-1
-157.71,5.13,-31.35,719,-4281,7043,-1,0,0
-157.71,5.13,-31.35,722,-4291,7048,0,0,-1
-157.70,5.13,-31.34,732,-4288,7048,0,0,-1
-157.70,5.13,-31.33,724,-4284,7047,0,0,-1
-157.70,5.13,-31.33,719,-4282,7048,0,-1,-1
-157.69,5.14,-31.32,737,-4284,7045,0,-1,-1
-157.69,5.15,-31.32,752,-4282,7038,0,0,-1
-157.68,5.15,-31.31,745,-4281,7042,0,0,-1
-157.67,5.15,-31.31,736,-4272,7052,0,0,-1
-157.67,5.15,-31.30,739,-4271,7054,0,-1,-1
-157.67,5.16,-31.30,743,-4285,7045,0,-1,-1
-157.66,5.16,-31.28,755,-4286,7052,0,0,-1
-157.66,5.16,-31.28,754,-4281,7047,0,0,-1
-157.66,5.15,-31.27,740,-4275,7051,0,0,-1
-157.67,5.14,-31.27,720,-4266,7053,-1,0,-1
-157.67,5.14,-31.27,714,-4267,7044,-1,0,-1
-157.66,5.14,-31.27,710,-4278,7040,0,0,-1
-157.66,5.14,-31.27,722,-4285,7046,0,-1,-1
-157.65,5.15,-31.27,725,-4287,7047,0,-1,-1
-157.65,5.15,-31.26,734,-4282,7054,0,-1,-1
-157.64,5.16,-31.26,742,-4281,7046,0,0,-1
-157.64,5.15,-31.25,752,-4274,7044,0,0,-1
-157.64,5.15,-31.25,751,-4263,7039,0,0,0
-157.64,5.15,-31.24,734,-4267,7044,0,0,0
-157.64,5.14,-31.24,734,-4267,7045,0,0,0
-157.64,5.13,-31.23,716,-4272,7053,0,0,-1
-157.65,5.13,-31.23,718,-4270,7062,-1,-1,-1
-157.64,5.13,-31.23,717,-4266,7057,0,-1,-1
-157.64,5.13,-31.23,724,-4263,7047,-1,-1,-1
-157.64,5.13,-31.23,729,-4268,7038,-1,-1,-1
-157.63,5.14,-31.23,743,-4265,7019,0,0,-1
-157.63,5.14,-31.23,746,-4270,7034,0,0,-1
-157.63,5.13,-31.22,745,-4267,7038,0,0,-1
-157.63,5.13,-31.21,743,-4272,7054,-1,0,0
-157.63,5.13,-31.21,739,-4271,7056,0,0,0
-157.63,5.12,-31.21,734,-4273,7062,0,0,0
-157.63,5.12,-31.21,727,-4268,7064,0,0,-1
-157.63,5.12,-31.20,728,-4265,7064,-1,0,-1
-157.63,5.12,-31.20,730,-4261,7057,0,0,0
-157.63,5.11,-31.20,728,-4262,7059,-1,0,0
-157.63,5.10,-31.21,716,-4260,7061,0,0,0
-157.63,5.10,-31.20,723,-4271,7064,0,0,0
-157.63,5.09,-31.20,716,-4267,7062,-1,0,-1
-157.63,5.09,-31.20,725,-4264,7050,0,0,-1
-157.63,5.09,-31.20,725,-4271,7037,0,0,0
-157.63,5.09,-31.19,728,-4275,7046,0,0,-1
-157.62,5.09,-31.18,729,-4261,7052,0,0,-1
-157.62,5.09,-31.18,723,-4254,7052,0,0,-1
-157.62,5.09,-31.17,726,-4257,7046,0,0,-1
-157.61,5.09,-31.17,725,-4258,7046,0,0,-1
-157.61,5.08,-31.16,728,-4260,7061,0,0,-1
-157.60,5.08,-31.17,717,-4270,7046,0,0,-1
-157.59,5.07,-31.15,723,-4264,7068,0,0,-1
-157.59,5.07,-31.16,731,-4274,7044,-1,0,-1
-157.58,5.05,-31.15,729,-4266,7079,0,0,-1
-157.58,5.04,-31.17,725,-4286,7035,-1,1,-1
-157.57,5.00,-31.17,719,-4292,7035,-1,1,-1
-157.57,4.96,-31.17,707,-4292,7054,-1,1,-1
-157.55,4.93,-31.17,704,-4322,7006,2,2,-1
-157.54,4.88,-31.14,705,-4302,7059,0,1,-1
-157.53,4.86,-31.11,713,-4305,7076,0,1,0
-157.54,4.81,-31.09,712,-4227,7106,-2,1,0
-157.54,4.76,-31.10,689,-4253,7094,1,1,-1
-157.56,4.76,-31.10,736,-4221,7014,-2,1,1
-157.57,4.67,-31.07,679,-4243,7111,-1,2,0
-157.57,4.65,-31.08,673,-4294,7043,0,0,0
-157.56,4.60,-31.02,618,-4255,7121,1,0,-1
-157.56,4.59,-31.00,650,-4248,6987,4,1,-1
-157.54,4.57,-30.92,618,-4215,7166,0,-1,0
-157.53,4.56,-30.92,632,-4208,7026,3,0,-1
-157.51,4.56,-30.86,663,-4172,7168,0,0,0
-157.52,4.55,-30.89,657,-4226,7049,1,0,-1
-157.51,4.54,-30.85,642,-4179,7180,-2,-1,0
-157.53,4.53,-30.89,652,-4203,7087,1,0,0
-157.54,4.50,-30.90,628,-4230,7061,1,1,-1
-157.53,4.50,-30.91,640,-4247,7076,-1,0,0
-157.54,4.48,-30.90,618,-4262,7117,0,0,0
-157.56,4.49,-30.94,654,-4222,6990,-4,0,0
-157.56,4.45,-30.88,610,-4224,7254,-1,-2,1
-157.59,4.47,-30.97,653,-4242,6939,1,1,-1
-157.59,4.45,-30.92,622,-4236,7172,-4,-2,1
-157.60,4.45,-30.94,631,-4249,7068,5,0,-1
-157.62,4.47,-30.95,635,-4233,7007,-2,-1,0
-157.61,4.47,-30.92,608,-4275,7149,-3,-2,0
-157.61,4.48,-30.91,605,-4204,7037,3,0,-1
-157.59,4.51,-30.90,612,-4243,7107,-2,-2,-1
-157.57,4.55,-30.88,627,-4224,7067,0,-2,-1
-157.55,4.57,-30.87,627,-4248,7096,1,-1,-1
-157.53,4.61,-30.88,662,-4241,7059,-1,-1,-1
-157.51,4.63,-30.85,656,-4201,7140,-2,-2,-1
-157.51,4.65,-30.87,670,-4244,7060,2,0,-1
-157.52,4.69,-30.87,689,-4228,7069,-2,-3,0
-157.51,4.69,-30.86,682,-4212,7087,1,0,-1
-157.52,4.71,-30.88,683,-4239,7078,-2,-2,0
-157.51,4.71,-30.86,681,-4227,7088,1,0,-1
-157.51,4.72,-30.87,669,-4255,7071,-1,-1,0
-157.51,4.73,-30.87,677,-4227,7075,-1,-1,-1
-157.51,4.72,-30.85,666,-4216,7092,0,-1,-1
-157.51,4.74,-30.86,676,-4224,7082,-1,-1,-1
-157.51,4.76,-30.86,679,-4228,7080,0,-1,-1
-157.51,4.78,-30.86,687,-4227,7097,0,-1,-1
-157.52,4.80,-30.87,681,-4221,7093,-1,-1,0
-157.52,4.81,-30.88,682,-4228,7090,-1,-1,0
-157.53,4.83,-30.90,701,-4237,7058,0,-1,0
-157.53,4.83,-30.89,696,-4246,7076,0,-1,0
-157.54,4.83,-30.89,696,-4243,7060,0,-1,0
-157.53,4.84,-30.88,687,-4225,7068,0,-1,0
-157.54,4.84,-30.87,683,-4220,7076,0,-1,0
-157.53,4.86,-30.87,687,-4222,7084,0,-1,-1
-157.54,4.86,-30.87,692,-4223,7084,-1,-1,-1
-157.54,4.87,-30.87,684,-4228,7082,-1,-1,-1
-157.54,4.88,-30.87,695,-4225,7078,0,-1,-1
-157.53,4.89,-30.87,708,-4222,7084,0,-1,-1
-157.53,4.89,-30.86,714,-4220,7088,0,-1,0
-157.53,4.89,-30.86,703,-4225,7086,-1,0,0
-157.54,4.89,-30.86,701,-4224,7096,-1,0,0
-157.54,4.88,-30.87,686,-4220,7089,-1,0,0
-157.54,4.87,-30.87,678,-4216,7081,-1,0,-1
-157.55,4.87,-30.88,667,-4212,7081,-1,-1,-1
-157.55,4.88,-30.89,670,-4226,7085,-1,-1,-1
-157.55,4.88,-30.90,688,-4231,7078,-1,-1,-1
-157.54,4.90,-30.90,696,-4231,7081,0,-1,-1
-157.54,4.91,-30.90,705,-4230,7078,-1,-1,-1
-157.54,4.91,-30.90,717,-4236,7088,-1,-1,-1
-157.54,4.92,-30.91,720,-4238,7084,-1,0,0
-157.54,4.92,-30.91,721,-4233,7080,-1,0,0
-157.54,4.91,-30.90,704,-4235,7067,0,0,0
-157.54,4.89,-30.90,687,-4243,7082,0,0,-1
-157.54,4.89,-30.89,679,-4239,7081,0,-1,0
-157.55,4.89,-30.88,675,-4226,7085,0,-1,-1
-157.54,4.91,-30.88,677,-4215,7090,-1,-1,-1
-157.55,4.92,-30.88,690,-4225,7086,-1,-1,-1
-157.54,4.94,-30.89,700,-4232,7076,-1,-1,-1
-157.54,4.94,-30.90,716,-4235,7074,-1,-1,-1
-157.53,4.95,-30.89,718,-4225,7073,-1,-1,-1
-157.54,4.95,-30.90,716,-4218,7073,-1,0,0
-157.54,4.95,-30.90,713,-4222,7069,-1,0,0
-157.54,4.94,-30.89,693,-4226,7082,0,0,0
-157.54,4.94,-30.90,688,-4243,7096,-1,-1,0
-157.54,4.94,-30.90,690,-4250,7093,-1,-1,-1
-157.54,4.95,-30.91,688,-4247,7084,-1,-1,-1
-157.54,4.96,-30.91,693,-4236,7069,0,-1,-1
-157.55,4.96,-30.91,705,-4236,7062,0,-1,-1
-157.54,4.97,-30.90,713,-4238,7075,0,-1,-1
-157.54,4.98,-30.90,714,-4242,7080,0,0,0
-157.55,4.97,-30.91,711,-4237,7081,0,0,0
-157.55,4.97,-30.91,715,-4234,7086,-1,0,0
-157.55,4.97,-30.91,711,-4217,7079,-1,0,0
-157.55,4.96,-30.91,706,-4219,7077,-1,-1,0
-157.56,4.96,-30.91,693,-4223,7071,-1,-1,0
-157.56,4.96,-30.91,696,-4236,7071,-1,-1,-1
-157.56,4.97,-30.92,704,-4236,7075,-1,-1,-1
-157.56,4.97,-30.92,698,-4233,7076,-1,-1,-1
-157.56,4.98,-30.92,704,-4242,7075,-1,-1,0
-157.56,4.98,-30.92,715,-4240,7081,-1,-1,-1
-157.56,4.98,-30.93,715,-4242,7072,-1,0,-1
-157.56,4.98,-30.93,713,-4238,7066,-1,-1,0
-157.56,4.98,-30.93,712,-4240,7064,0,-1,0
-157.56,4.98,-30.93,708,-4245,7071,0,-1,0
-157.57,4.99,-30.93,713,-4246,7079,0,-1,0
-157.57,4.99,-30.93,709,-4236,7077,-1,-1,0
-157.57,5.00,-30.93,709,-4229,7075,-1,-1,0
-157.57,5.00,-30.93,714,-4228,7070,-1,-1,0
-157.57,5.01,-30.93,716,-4224,7070,-1,-1,0
-157.57,5.00,-30.94,707,-4227,7073,-1,0,0
-157.58,5.00,-30.95,707,-4230,7067,-1,-1,0
-157.58,5.00,-30.96,718,-4235,7068,-1,0,-1
-157.58,5.00,-30.96,727,-4250,7075,-1,-1,0
-157.58,4.99,-30.97,731,-4249,7078,-1,0,0
-157.59,4.99,-30.97,726,-4248,7062,-1,0,0
-157.61,4.96,-30.97,711,-4244,7066,-1,0,0
-157.61,4.95,-30.98,700,-4236,7061,-1,0,0
-157.61,4.94,-30.98,683,-4233,7047,-1,0,0
-157.61,4.93,-30.99,679,-4240,7065,-1,-1,-1
-157.61,4.93,-30.98,686,-4246,7069,0,-1,-1
-157.61,4.94,-30.98,698,-4243,7082,0,-1,-1
-157.61,4.95,-30.98,715,-4240,7082,0,-1,0
-157.61,4.96,-30.97,714,-4236,7076,-1,-1,0
-157.61,4.96,-30.97,719,-4227,7067,0,0,-1
-157.60,4.96,-30.97,721,-4235,7059,0,0,-1
-157.60,4.95,-30.96,717,-4238,7066,0,0,-1
-157.59,4.94,-30.95,705,-4241,7080,0,0,-1
-157.59,4.94,-30.95,684,-4241,7085,0,-1,-1
-157.59,4.94,-30.94,681,-4241,7091,0,-1,-1
-157.58,4.95,-30.94,694,-4242,7086,0,-1,-1
-157.58,4.96,-30.94,700,-4244,7087,0,-1,-1
-157.58,4.97,-30.93,704,-4244,7081,0,-1,-1
-157.57,4.98,-30.93,718,-4251,7075,0,-1,-1
-157.57,4.99,-30.93,730,-4247,7073,0,-1,-1
-157.57,4.99,-30.92,725,-4247,7078,0,0,-1
-157.56,5.00,-30.92,728,-4246,7075,0,0,-1
-157.57,4.99,-30.91,725,-4236,7080,0,-1,0
-157.56,4.99,-30.90,716,-4227,7079,0,-1,0
-157.56,4.99,-30.90,706,-4224,7071,0,0,-1
-157.56,4.99,-30.89,704,-4223,7076,0,-1,-1
-157.56,4.99,-30.90,718,-4225,7061,-1,-1,-1
-157.56,5.00,-30.89,719,-4225,7067,-1,-1,0
-157.56,5.00,-30.90,720,-4233,7066,0,-1,-1
-157.56,5.00,-30.89,721,-4236,7076,0,-1,-1
-157.56,5.00,-30.89,714,-4235,7079,0,-1,-1
-157.56,5.00,-30.89,700,-4233,7076,0,-1,-1
-157.56,5.00,-30.89,705,-4235,7075,0,-1,-1
-157.55,5.00,-30.88,714,-4226,7081,0,-1,-1
-157.55,5.00,-30.88,716,-4225,7084,0,-1,-1
-157.55,5.00,-30.87,714,-4228,7078,0,0,-1
-157.54,5.00,-30.86,712,-4221,7073,0,0,-1
-157.54,5.00,-30.86,710,-4221,7069,0,0,-1
-157.54,4.99,-30.86,712,-4208,7077,0,0,0
-157.54,4.99,-30.86,709,-4216,7073,-1,0,-1
-157.53,4.99,-30.85,712,-4218,7076,0,0,-1
-157.53,4.99,-30.84,712,-4220,7084,0,0,-1
-157.53,4.99,-30.84,707,-4226,7080,0,-1,-1
-157.53,4.99,-30.84,709,-4224,7086,0,0,-1
-157.52,4.98,-30.83,713,-4222,7089,0,0,-1
-157.53,4.98,-30.83,717,-4221,7085,0,0,-1
-157.52,4.98,-30.82,709,-4219,7084,0,0,-1
-157.52,4.97,-30.82,702,-4220,7081,0,0,-1
-157.52,4.96,-30.82,705,-4219,7073,-1,-1,-1
-157.52,4.97,-30.82,715,-4225,7080,0,-1,0
-157.52,4.97,-30.82,713,-4222,7073,0,0,0
-157.52,4.96,-30.81,721,-4226,7089,0,0,0
-157.52,4.95,-30.80,711,-4211,7086,0,0,0
-157.53,4.95,-30.81,696,-4211,7083,-1,0,0
-157.53,4.95,-30.81,685,-4214,7076,-1,-1,-1
-157.52,4.95,-30.81,689,-4220,7075,-1,-1,-1
-157.52,4.96,-30.81,698,-4220,7086,0,-1,-1
-157.52,4.96,-30.81,708,-4223,7090,-1,-1,-1
-157.52,4.96,-30.81,727,-4226,7086,0,0,-1
-157.51,4.97,-30.82,730,-4229,7083,0,0,-1
-157.51,4.96,-30.81,721,-4227,7087,0,0,0
-157.51,4.95,-30.80,720,-4225,7084,0,0,0
-157.51,4.94,-30.80,707,-4210,7083,0,0,0
-157.51,4.93,-30.79,695,-4210,7083,0,0,-1
-157.51,4.92,-30.80,695,-4218,7091,0,0,-1
-157.51,4.92,-30.79,698,-4225,7093,0,0,-1
-157.51,4.92,-30.79,691,-4220,7090,-1,0,-1
-157.51,4.91,-30.79,694,-4227,7084,-1,0,-1
-157.51,4.91,-30.80,690,-4219,7081,-1,-1,-1
-157.51,4.92,-30.80,701,-4218,7077,-1,-1,-1
-157.51,4.91,-30.80,703,-4211,7080,-1,0,0
-157.50,4.91,-30.81,698,-4220,7079,-1,0,0
-157.50,4.91,-30.81,702,-4225,7084,-1,0,0
-157.50,4.90,-30.80,693,-4225,7076,0,0,-1
-157.50,4.90,-30.80,701,-4224,7092,-1,-1,-1
-157.50,4.90,-30.81,695,-4228,7079,-1,0,-1
-157.50,4.90,-30.81,703,-4215,7088,-1,-1,-1
-157.50,4.91,-30.82,702,-4217,7071,-1,-1,-1
-157.50,4.91,-30.82,689,-4218,7060,-1,-1,-1
-157.50,4.91,-30.82,694,-4229,7064,0,-1,0
-157.50,4.92,-30.82,703,-4236,7072,0,0,-1
-157.50,4.92,-30.82,695,-4232,7090,0,0,-1
-157.50,4.92,-30.82,689,-4222,7093,-1,-1,-1
-157.51,4.92,-30.82,692,-4218,7086,0,-1,-1
-157.51,4.92,-30.82,692,-4214,7079,0,-1,-1
-157.50,4.93,-30.82,699,-4215,7081,0,-1,-1
-157.50,4.93,-30.81,706,-4207,7086,0,-1,-1
-157.50,4.94,-30.81,709,-4208,7088,-1,-1,-1
-157.50,4.94,-30.81,701,-4220,7104,-1,-1,0
-157.50,4.94,-30.81,708,-4211,7090,0,-1,-1
-157.50,4.94,-30.81,703,-4215,7086,-1,-1,-1
-157.50,4.94,-30.82,707,-4227,7076,-1,-1,-1
-157.50,4.94,-30.82,703,-4224,7078,0,-1,-1
-157.50,4.94,-30.82,696,-4222,7077,0,-1,-1
-157.51,4.96,-30.82,694,-4223,7076,0,-1,-1
-157.50,4.96,-30.82,706,-4225,7083,0,-1,-1
-157.49,4.97,-30.82,722,-4228,7093,0,-1,-1
-157.49,4.97,-30.81,722,-4220,7097,0,0,0
-157.49,4.97,-30.81,716,-4213,7098,-1,0,0
-157.50,4.96,-30.81,707,-4201,7082,-1,0,0
-157.50,4.95,-30.81,692,-4208,7088,-1,-1,0
-157.51,4.96,-30.81,685,-4217,7089,-1,-1,-1
-157.51,4.96,-30.82,681,-4223,7085,-1,-1,-1
-157.50,4.96,-30.82,690,-4219,7092,-1,-1,-1
-157.50,4.97,-30.82,703,-4221,7087,-1,-1,-1
-157.50,4.98,-30.84,715,-4225,7083,-1,-1,-1
-157.50,4.98,-30.84,719,-4228,7074,-1,-1,-1
-157.50,4.99,-30.84,726,-4219,7070,-1,0,0
-157.50,4.98,-30.84,716,-4224,7068,0,0,0
-157.50,4.98,-30.83,712,-4217,7072,0,0,0
-157.50,4.98,-30.83,705,-4211,7082,-1,0,0
-157.50,4.97,-30.83,697,-4215,7084,-1,-1,-1
-157.51,4.97,-30.83,696,-4219,7093,-1,-1,-1
-157.51,4.98,-30.84,698,-4229,7077,0,-1,-1
-157.50,4.98,-30.83,699,-4226,7085,0,-1,-1
-157.50,4.98,-30.82,708,-4213,7097,0,-1,-1
-157.50,4.98,-30.82,709,-4212,7092,-1,-1,-1
-157.50,4.99,-30.83,709,-4214,7082,-1,-1,-1
-157.50,4.99,-30.83,714,-4226,7086,-1,-1,-1
-157.49,5.00,-30.83,714,-4224,7093,-1,-1,-1
-157.49,5.00,-30.83,722,-4223,7092,-1,-1,-1
-157.49,5.00,-30.83,716,-4224,7093,-1,-1,0
-157.50,5.00,-30.84,718,-4229,7090,-1,-1,0
-157.50,5.00,-30.84,712,-4230,7088,-1,0,-1
-157.50,5.00,-30.84,712,-4227,7085,0,-1,-1
-157.50,5.00,-30.84,711,-4227,7081,0,-1,-1
-157.50,4.99,-30.83,713,-4223,7077,-1,-1,-1
-157.49,5.00,-30.83,710,-4219,7090,0,-1,-1
-157.49,5.00,-30.83,713,-4225,7092,0,-1,-1
-157.49,5.00,-30.83,711,-4219,7090,0,-1,-1
-157.49,5.00,-30.83,720,-4221,7094,-1,-1,-1
-157.49,5.00,-30.83,711,-4219,7093,-1,-1,-1
-157.49,5.00,-30.83,712,-4211,7085,-1,-1,-1
-157.49,5.00,-30.83,712,-4216,7081,-1,-1,-1
-157.49,5.00,-30.83,711,-4209,7076,-1,-1,-1
-157.49,5.00,-30.83,708,-4213,7084,-1,-1,0
-157.49,5.00,-30.84,715,-4221,7070,-1,-1,0
-157.49,5.00,-30.84,712,-4240,7083,0,-1,-1
-157.49,5.00,-30.84,707,-4234,7080,0,-1,-1
-157.49,5.01,-30.83,703,-4226,7087,-1,-1,0
-157.49,5.02,-30.84,708,-4224,7080,-1,-1,-1
-157.49,5.02,-30.84,714,-4217,7089,-1,0,-1
-157.49,5.02,-30.84,710,-4221,7082,-1,-1,-1
-157.49,5.02,-30.84,712,-4220,7076,0,-1,-1
-157.48,5.02,-30.84,723,-4219,7080,0,-1,0
-157.48,5.03,-30.83,734,-4217,7092,0,-1,0
-157.48,5.03,-30.82,728,-4212,7097,0,0,0
-157.49,5.02,-30.82,714,-4212,7090,-1,0,0
-157.49,5.01,-30.83,707,-4210,7074,-1,0,0
-157.50,5.01,-30.83,700,-4214,7084,-1,0,-1
-157.50,5.01,-30.84,692,-4224,7072,-1,-1,-1
-157.50,5.01,-30.85,695,-4236,7073,-1,-1,-1
-157.50,5.02,-30.85,704,-4240,7082,-1,-1,-1
-157.50,5.02,-30.86,720,-4242,7083,0,-1,-1
-157.50,5.03,-30.86,726,-4234,7082,0,-1,-1
-157.50,5.04,-30.85,737,-4228,7083,0,0,0
-157.50,5.03,-30.85,737,-4225,7085,0,0,0
-157.50,5.03,-30.84,730,-4226,7082,0,0,0
-157.50,5.02,-30.84,718,-4215,7086,0,0,0
-157.50,5.01,-30.83,704,-4208,7088,-1,0,0
-157.51,5.00,-30.84,707,-4217,7083,-1,-1,0
-157.51,5.01,-30.85,706,-4228,7094,-1,-1,-1
-157.51,5.01,-30.85,707,-4225,7089,-1,-1,-1
-157.51,5.02,-30.85,703,-4224,7082,-1,-1,-1
-157.51,5.02,-30.86,708,-4230,7084,-1,-1,-1
-157.51,5.03,-30.86,726,-4230,7078,-1,0,0
-157.51,5.03,-30.86,733,-4227,7076,-1,0,0
-157.51,5.03,-30.87,735,-4230,7071,-1,0,0
-157.51,5.03,-30.87,728,-4232,7073,0,-1,0
-157.51,5.02,-30.87,712,-4233,7085,-1,-1,0
-157.52,5.02,-30.87,713,-4236,7087,-1,-1,0
-157.52,5.02,-30.87,709,-4226,7089,-1,-1,0
-157.52,5.02,-30.88,711,-4226,7083,-1,-1,0
-157.52,5.02,-30.88,716,-4230,7087,-1,-1,0
-157.53,5.02,-30.89,719,-4231,7078,-1,-1,0
-157.53,5.03,-30.89,723,-4229,7075,-1,-1,0
-157.53,5.02,-30.89,718,-4221,7071,0,0,0
-157.53,5.02,-30.89,715,-4218,7074,-1,0,-1
-157.53,5.02,-30.89,714,-4221,7070,-1,-1,0
-157.53,5.02,-30.89,710,-4224,7066,-1,-1,0
-157.54,5.02,-30.89,717,-4228,7073,-1,-1,0
-157.54,5.03,-30.89,713,-4222,7071,-1,-1,-1
-157.54,5.02,-30.89,712,-4220,7072,-1,-1,0
-157.54,5.02,-30.89,719,-4213,7075,-1,-1,0
-157.54,5.02,-30.90,718,-4221,7073,-1,0,0
-157.54,5.02,-30.91,719,-4232,7064,-1,-1,0
-157.55,5.01,-30.90,724,-4243,7078,0,0,-1
-157.54,5.02,-30.90,726,-4237,7085,0,-1,0
-157.54,5.02,-30.90,717,-4225,7076,0,-1,0
-157.54,5.02,-30.90,710,-4224,7071,0,-1,-1
-157.54,5.02,-30.89,713,-4230,7070,0,-1,-1
-157.54,5.02,-30.89,707,-4229,7066,0,0,-1
-157.54,5.02,-30.88,712,-4230,7065,0,-1,-1
-157.53,5.03,-30.87,723,-4223,7066,0,0,-1
-157.52,5.03,-30.86,726,-4221,7068,0,0,-1
-157.52,5.02,-30.86,723,-4219,7088,0,0,-1
-157.51,5.02,-30.85,713,-4219,7088,0,0,-1
-157.51,5.02,-30.85,706,-4224,7076,0,-1,-1
-157.51,5.02,-30.85,714,-4231,7079,0,-1,-1
-157.50,5.03,-30.85,724,-4229,7079,0,-1,-1
-157.50,5.03,-30.84,731,-4224,7082,0,0,-1
-157.50,5.02,-30.84,728,-4223,7077,0,0,-1
-157.51,5.02,-30.83,721,-4209,7068,0,0,0
-157.50,5.01,-30.83,713,-4211,7066,0,0,-1
-157.50,5.01,-30.83,698,-4225,7073,0,-1,-1
-157.50,5.01,-30.82,696,-4229,7086,-1,-1,-1
-157.50,5.01,-30.82,704,-4233,7083,0,-1,-1
-157.50,5.02,-30.83,720,-4230,7085,-1,-1,-1
-157.49,5.03,-30.82,733,-4231,7082,0,-1,-1
-157.49,5.03,-30.82,746,-4229,7084,0,-1,-1
-157.49,5.03,-30.81,742,-4223,7074,0,0,-1
-157.48,5.03,-30.81,732,-4217,7073,0,0,0
-157.48,5.03,-30.81,726,-4215,7068,0,0,-1
-157.48,5.02,-30.81,711,-4218,7076,0,0,-1
-157.48,5.02,-30.81,712,-4225,7088,-1,-1,-1
-157.48,5.03,-30.81,719,-4233,7082,-1,-1,-1
-157.48,5.03,-30.81,720,-4234,7083,0,-1,-1
-157.47,5.03,-30.81,717,-4226,7081,0,0,-1
-157.47,5.02,-30.80,715,-4211,7082,0,0,-1
-157.48,5.02,-30.80,718,-4217,7091,-1,0,-1
-157.48,5.02,-30.79,723,-4221,7098,0,0,-1
-157.47,5.02,-30.79,717,-4222,7088,0,0,-1
-157.47,5.01,-30.79,719,-4215,7092,0,0,-1
-157.47,5.01,-30.79,718,-4207,7093,-1,0,0
-157.47,5.01,-30.79,716,-4210,7102,-1,0,0
-157.47,5.00,-30.79,718,-4213,7097,-1,0,0
-157.47,5.01,-30.80,717,-4216,7079,-1,0,0
-157.47,5.00,-30.80,713,-4212,7065,-1,0,0
-157.47,5.00,-30.80,713,-4210,7074,-1,0,0
-157.48,4.99,-30.80,711,-4214,7069,-1,0,0
-157.48,4.99,-30.80,712,-4227,7075,0,0,-1
-157.48,4.99,-30.79,705,-4221,7081,0,-1,-1
-157.47,4.99,-30.78,705,-4213,7082,0,-1,-1
-157.47,4.99,-30.78,697,-4210,7074,0,-1,-1
-157.47,4.99,-30.78,707,-4210,7077,0,0,-1
-157.47,4.99,-30.78,715,-4211,7078,0,0,0
-157.47,4.99,-30.77,714,-4216,7089,0,0,-1
-157.47,4.99,-30.77,712,-4211,7096,0,0,0
-157.47,4.99,-30.77,716,-4208,7089,-1,0,0
-157.47,4.98,-30.76,708,-4214,7091,0,0,0
-157.47,4.97,-30.76,701,-4210,7094,-1,0,0
-157.47,4.97,-30.77,700,-4216,7092,-1,0,-1
-157.47,4.98,-30.78,699,-4226,7084,-1,-1,0
-157.48,4.97,-30.78,707,-4222,7081,-1,-1,-1
-157.47,4.98,-30.78,714,-4220,7075,0,0,0
-157.48,4.97,-30.78,718,-4215,7079,-1,-1,0
-157.48,4.98,-30.79,713,-4216,7071,-1,0,0
-157.48,4.97,-30.79,702,-4211,7071,-1,0,-1
-157.48,4.97,-30.79,697,-4204,7071,0,-1,-1
-157.48,4.98,-30.79,703,-4201,7074,-1,-1,0
-157.48,4.98,-30.78,711,-4203,7072,0,-1,-1
-157.48,4.98,-30.78,723,-4209,7096,0,-1,-1
-157.47,4.99,-30.77,723,-4210,7090,0,0,-1
-157.47,4.98,-30.77,707,-4205,7090,-1,0,-1
-157.47,4.98,-30.78,707,-4201,7077,-1,-1,-1
-157.47,4.98,-30.78,697,-4205,7076,-1,-1,-1
-157.47,4.99,-30.78,699,-4215,7077,-1,-1,-1
-157.47,5.00,-30.79,710,-4223,7081,-1,-1,-1
-157.47,5.00,-30.79,708,-4225,7075,0,-1,-1
-157.46,5.01,-30.79,719,-4231,7077,-1,-1,-1
-157.46,5.01,-30.79,723,-4221,7084,0,-1,-1
-157.46,5.01,-30.79,729,-4214,7083,0,0,-1
-157.46,5.01,-30.79,725,-4214,7084,0,0,-1
-157.46,5.01,-30.79,724,-4216,7073,0,0,0
-157.46,5.01,-30.78,717,-4207,7084,0,0,-1
-157.46,5.01,-30.78,714,-4214,7098,-1,-1,-1
-157.46,5.01,-30.78,710,-4215,7097,-1,-1,0
-157.46,5.01,-30.79,710,-4220,7094,-1,-1,-1
-157.46,5.01,-30.79,702,-4221,7086,-1,-1,-1
-157.46,5.02,-30.79,706,-4223,7072,-1,-1,-1
-157.46,5.02,-30.79,705,-4217,7075,-1,-1,-1
-157.46,5.02,-30.79,713,-4220,7072,0,-1,-1
-157.46,5.02,-30.80,721,-4226,7066,-1,-1,0
-157.46,5.02,-30.80,714,-4226,7068,0,0,-1
-157.45,5.02,-30.79,722,-4221,7089,0,0,-1
-157.45,5.02,-30.79,711,-4208,7088,-1,0,-1
-157.45,5.02,-30.79,714,-4210,7088,-1,-1,-1
-157.45,5.02,-30.79,712,-4212,7088,-1,-1,-1
-157.45,5.03,-30.80,714,-4220,7080,-1,-1,-1
-157.45,5.03,-30.80,718,-4224,7087,-1,-1,-1
-157.45,5.03,-30.80,716,-4224,7087,-1,-1,-1
-157.45,5.03,-30.80,715,-4219,7084,0,-1,-1
-157.45,5.03,-30.80,711,-4220,7087,0,0,-1
-157.45,5.03,-30.79,713,-4210,7085,-1,0,-1
-157.45,5.03,-30.80,714,-4220,7085,-1,-1,-1
-157.45,5.03,-30.80,713,-4221,7088,0,-1,-1
-157.45,5.03,-30.79,712,-4213,7086,0,-1,-1
-157.45,5.03,-30.79,712,-4210,7084,-1,-1,-1
-157.45,5.03,-30.79,710,-4213,7077,-1,-1,-1
-157.45,5.03,-30.80,714,-4218,7080,-1,-1,0
-157.45,5.03,-30.80,716,-4224,7072,-1,-1,-1
-157.45,5.03,-30.80,710,-4216,7064,-1,-1,-1
-157.45,5.03,-30.80,712,-4214,7075,-1,-1,-1
-157.44,5.04,-30.80,713,-4217,7090,-1,-1,0
-157.45,5.04,-30.80,715,-4217,7093,-1,-1,0
-157.45,5.04,-30.80,713,-4216,7074,0,-1,0
-157.45,5.04,-30.80,712,-4219,7079,0,-1,-1
-157.45,5.04,-30.80,723,-4222,7089,0,0,-1
-157.44,5.04,-30.79,718,-4217,7093,-1,-1,-1
-157.45,5.04,-30.80,712,-4216,7078,-1,-1,-1
-157.44,5.04,-30.80,711,-4219,7077,0,-1,-1
-157.44,5.05,-30.80,713,-4218,7081,0,-1,-1
-157.44,5.05,-30.79,721,-4217,7088,-1,-1,-1
-157.44,5.06,-30.79,739,-4214,7074,0,-1,0
-157.44,5.06,-30.79,734,-4221,7086,-1,0,0
-157.44,5.05,-30.79,728,-4222,7080,0,0,0
-157.45,5.05,-30.80,719,-4224,7082,-1,0,0
-157.45,5.05,-30.80,711,-4216,7080,-1,0,-1
-157.44,5.05,-30.80,706,-4217,7085,-1,-1,-1
-157.45,5.05,-30.81,710,-4221,7094,0,-1,-1
-157.45,5.05,-30.81,717,-4228,7088,0,-1,-1
-157.45,5.06,-30.81,724,-4228,7078,0,-1,-1
-157.45,5.06,-30.81,731,-4230,7076,0,-1,0
-157.45,5.07,-30.81,739,-4227,7072,0,0,0
-157.45,5.07,-30.81,742,-4230,7076,0,0,0
-157.45,5.06,-30.80,733,-4221,7077,0,0,0
-157.45,5.05,-30.79,717,-4215,7088,-1,0,0
-157.45,5.04,-30.79,703,-4214,7101,-1,0,0
-157.46,5.04,-30.79,701,-4212,7097,-1,-1,0
-157.46,5.04,-30.80,709,-4210,7086,-1,-1,0
-157.45,5.05,-30.80,715,-4217,7091,-1,-1,0
-157.46,5.05,-30.80,724,-4216,7079,0,-1,0
-157.46,5.05,-30.80,726,-4225,7081,0,-1,-1
-157.46,5.05,-30.80,730,-4218,7080,-1,0,0
-157.46,5.05,-30.80,728,-4215,7080,-1,0,0
-157.46,5.05,-30.80,726,-4224,7076,0,-1,-1
-157.46,5.05,-30.80,727,-4219,7083,0,-1,0
-157.46,5.05,-30.79,721,-4218,7087,0,-1,-1
-157.46,5.06,-30.80,725,-4216,7087,-1,-1,0
-157.47,5.06,-30.79,728,-4215,7088,0,-1,0
-157.47,5.06,-30.79,727,-4215,7084,-1,-1,0
-157.47,5.06,-30.79,723,-4214,7082,0,-1,0
-157.47,5.06,-30.79,725,-4212,7075,-1,-1,0
-157.47,5.06,-30.79,721,-4214,7076,-1,-1,0
-157.47,5.06,-30.80,720,-4216,7081,-1,-1,0
-157.47,5.06,-30.80,726,-4220,7082,-1,-1,0
-157.48,5.06,-30.80,725,-4213,7083,-1,-1,0
-157.48,5.06,-30.80,727,-4207,7079,-1,-1,0
-157.48,5.06,-30.81,728,-4212,7072,-1,-1,0
-157.48,5.06,-30.81,728,-4219,7077,-1,-1,0
-157.49,5.06,-30.81,718,-4221,7086,-1,-1,0
-157.49,5.07,-30.81,718,-4224,7077,-1,-1,0
-157.49,5.07,-30.81,720,-4226,7077,-1,-1,0
-157.50,5.07,-30.82,726,-4229,7076,-1,0,0
-157.50,5.06,-30.82,730,-4221,7072,-1,0,0
-157.50,5.06,-30.82,736,-4216,7086,-1,0,0
-157.50,5.06,-30.82,733,-4212,7079,-1,0,0
-157.50,5.05,-30.82,724,-4220,7076,-1,0,0
-157.51,5.05,-30.83,724,-4222,7080,0,0,0
-157.51,5.05,-30.82,728,-4224,7093,0,-1,0
-157.51,5.05,-30.82,738,-4223,7094,-1,-1,0
-157.51,5.05,-30.83,729,-4216,7076,-1,0,0
-157.52,5.04,-30.84,724,-4217,7064,-1,0,0
-157.51,5.04,-30.84,721,-4221,7064,0,0,-1
-157.51,5.04,-30.85,723,-4231,7079,-1,-1,-1
-157.51,5.05,-30.84,740,-4234,7081,0,0,-1
-157.50,5.05,-30.84,749,-4233,7075,0,0,-1
-157.51,5.04,-30.83,741,-4231,7083,0,0,0
-157.51,5.03,-30.83,727,-4229,7085,0,0,0
-157.51,5.02,-30.82,703,-4221,7081,-1,0,0
-157.51,5.01,-30.82,698,-4222,7070,0,0,-1
-157.51,5.01,-30.81,696,-4217,7086,0,-1,-1
-157.50,5.01,-30.81,702,-4227,7084,0,-1,-1
-157.50,5.02,-30.81,720,-4238,7082,0,-1,-1
-157.49,5.04,-30.81,742,-4228,7086,0,-1,-1
-157.48,5.04,-30.81,748,-4219,7069,0,0,-1
-157.49,5.04,-30.80,755,-4219,7070,0,0,-1
-157.48,5.03,-30.79,747,-4219,7076,0,0,0
-157.49,5.02,-30.78,733,-4216,7078,0,0,0
-157.49,5.01,-30.78,717,-4210,7082,0,0,0
-157.49,5.00,-30.78,712,-4216,7074,-1,0,0
-157.49,5.00,-30.78,701,-4234,7085,0,0,-1
-157.49,5.00,-30.78,710,-4229,7097,0,-1,-1
-157.48,5.00,-30.77,704,-4224,7082,0,-1,-1
-157.48,5.01,-30.77,717,-4212,7070,0,-1,-1
-157.47,5.01,-30.76,728,-4216,7069,0,0,-1
-157.47,5.01,-30.76,733,-4221,7070,0,0,-1
-157.47,5.01,-30.77,731,-4218,7076,0,0,-1
-157.47,5.00,-30.76,725,-4214,7075,0,0,0
-157.47,5.00,-30.76,721,-4220,7072,0,0,0
-157.47,5.00,-30.75,714,-4215,7083,0,0,0
-157.48,4.99,-30.75,715,-4217,7086,-1,0,0
-157.48,4.99,-30.75,719,-4220,7085,0,0,0
-157.47,4.99,-30.75,724,-4212,7084,-1,0,0
-157.47,4.98,-30.75,719,-4219,7084,0,0,0
-157.47,4.98,-30.75,718,-4219,7084,-1,0,0
-157.47,4.98,-30.76,718,-4221,7085,0,0,0
-157.47,4.98,-30.75,715,-4224,7089,0,0,0
-157.47,4.97,-30.74,714,-4221,7096,0,0,0
-157.47,4.97,-30.74,718,-4211,7094,-1,0,-1
-157.47,4.97,-30.74,717,-4206,7095,-1,0,0
-157.47,4.96,-30.74,714,-4203,7081,-1,0,0
-157.47,4.96,-30.74,712,-4212,7080,0,0,0
-157.48,4.96,-30.74,717,-4213,7081,0,0,0
-157.48,4.95,-30.74,714,-4208,7083,-1,-1,0
-157.48,4.95,-30.74,707,-4214,7077,-1,-1,0
-157.48,4.95,-30.74,710,-4219,7080,0,0,0
-157.48,4.95,-30.74,707,-4219,7084,0,0,0
-157.48,4.95,-30.74,708,-4222,7086,-1,-1,-1
-157.48,4.94,-30.73,717,-4221,7078,0,0,0
-157.48,4.94,-30.73,716,-4224,7076,0,0,0
-157.48,4.94,-30.73,717,-4214,7089,0,0,0
-157.48,4.94,-30.72,722,-4212,7101,-1,0,0
-157.48,4.93,-30.72,715,-4216,7101,-1,0,0
-157.48,4.92,-30.72,711,-4212,7088,-1,0,0
-157.48,4.92,-30.72,702,-4218,7081,0,0,-1
-157.48,4.92,-30.72,711,-4210,7087,0,0,-1
-157.47,4.92,-30.71,719,-4208,7096,0,0,0
-157.47,4.92,-30.71,726,-4212,7094,0,0,0
-157.48,4.92,-30.72,724,-4205,7085,-1,0,0
-157.49,4.91,-30.72,712,-4195,7075,-1,0,0
-157.49,4.90,-30.72,702,-4203,7068,-1,0,0
-157.49,4.89,-30.72,692,-4218,7083,0,0,0
-157.49,4.90,-30.72,691,-4216,7086,0,-1,-1
-157.49,4.90,-30.72,696,-4217,7091,0,-1,-1
-157.48,4.91,-30.72,699,-4220,7093,0,-1,-1
-157.48,4.92,-30.71,723,-4218,7092,0,-1,-1
-157.47,4.93,-30.71,732,-4207,7089,0,0,0
-157.47,4.93,-30.71,734,-4208,7084,-1,0,0
-157.47,4.92,-30.71,725,-4207,7080,0,0,0
-157.48,4.91,-30.71,715,-4203,7083,-1,0,0
-157.48,4.91,-30.71,707,-4202,7094,0,0,0
-157.48,4.91,-30.71,699,-4204,7091,-1,-1,0
-157.48,4.91,-30.72,696,-4209,7105,-1,-1,-1
-157.49,4.92,-30.72,692,-4214,7086,-1,-1,-1
-157.48,4.93,-30.72,700,-4217,7084,-1,-1,-1
-157.48,4.94,-30.72,717,-4211,7090,0,-1,-1
-157.48,4.94,-30.72,723,-4211,7091,0,0,-1
-157.47,4.94,-30.72,727,-4219,7095,-1,0,0
-157.47,4.94,-30.72,720,-4221,7100,0,0,0
-157.47,4.94,-30.72,718,-4211,7094,-1,0,0
-157.47,4.93,-30.71,715,-4200,7101,-1,-1,-1
-157.48,4.94,-30.72,716,-4201,7082,-1,-1,0
-157.47,4.94,-30.72,713,-4210,7095,-1,-1,-1
-157.47,4.95,-30.72,715,-4212,7096,0,-1,-1
-157.47,4.95,-30.72,708,-4207,7090,-1,-1,-1
-157.47,4.96,-30.72,712,-4209,7079,-1,-1,-1
-157.47,4.96,-30.72,720,-4217,7083,-1,-1,-1
-157.47,4.96,-30.72,722,-4215,7074,0,-1,-1
-157.47,4.96,-30.72,726,-4211,7080,-1,-1,0
-157.47,4.96,-30.72,719,-4221,7075,0,0,-1
-157.47,4.96,-30.72,721,-4220,7076,-1,0,0
-157.46,4.96,-30.72,715,-4219,7098,0,0,-1
-157.46,4.95,-30.72,715,-4213,7086,-1,0,-1
-157.46,4.94,-30.71,700,-4211,7099,0,0,-1
-157.46,4.95,-30.71,708,-4212,7093,-1,-1,-1
-157.45,4.95,-30.71,723,-4222,7100,0,0,-1
-157.45,4.95,-30.71,726,-4214,7084,0,0,-1
-157.45,4.94,-30.71,717,-4210,7091,-1,-1,0
-157.45,4.95,-30.71,731,-4212,7092,0,0,0
-157.45,4.95,-30.71,728,-4229,7078,0,0,-1
-157.44,4.94,-30.70,719,-4208,7093,0,0,-1
-157.44,4.93,-30.69,715,-4186,7101,-1,0,0
-157.45,4.93,-30.70,717,-4189,7092,-1,0,0
-157.45,4.93,-30.70,707,-4207,7100,-1,-1,0
-157.45,4.94,-30.70,713,-4216,7096,0,-1,0
-157.45,4.94,-30.69,714,-4211,7102,0,-1,0
-157.45,4.94,-30.69,725,-4208,7122,-1,-1,0
-157.46,4.94,-30.70,714,-4201,7125,-1,-1,0
-157.46,4.94,-30.70,702,-4206,7098,-1,-1,0
-157.46,4.94,-30.71,698,-4204,7088,-1,-1,0
-157.46,4.94,-30.71,695,-4208,7084,-1,-1,0
-157.46,4.95,-30.72,695,-4213,7087,-1,-1,0
-157.47,4.95,-30.72,704,-4223,7073,-1,-1,-1
-157.47,4.96,-30.73,714,-4227,7084,-1,-1,-1
-157.47,4.96,-30.72,725,-4225,7092,0,-1,0
-157.46,4.97,-30.72,734,-4218,7089,0,-1,0
-157.46,4.97,-30.72,735,-4215,7086,0,0,0
-157.46,4.97,-30.71,735,-4210,7080,0,0,0
-157.46,4.97,-30.71,725,-4217,7088,0,0,0
-157.46,4.96,-30.71,714,-4210,7097,0,0,0
-157.46,4.96,-30.71,708,-4214,7090,-1,0,-1
-157.47,4.96,-30.71,712,-4216,7094,-1,-1,0
-157.47,4.96,-30.72,712,-4219,7095,-1,-1,0
-157.47,4.97,-30.72,717,-4215,7093,-1,-1,-1
-157.47,4.98,-30.72,720,-4207,7087,-1,-1,-1
-157.47,4.98,-30.72,731,-4201,7092,-1,0,0
-157.47,4.98,-30.73,733,-4208,7081,-1,0,0
-157.47,4.98,-30.73,722,-4218,7061,-1,0,0
-157.47,4.98,-30.73,718,-4227,7073,0,0,-1
-157.47,4.98,-30.73,722,-4221,7089,0,-1,0
-157.47,4.98,-30.73,718,-4216,7080,0,-1,0
-157.47,4.99,-30.73,716,-4215,7082,-1,-1,0
-157.47,4.99,-30.73,718,-4217,7073,0,-1,-1
-157.47,4.99,-30.73,725,-4212,7077,0,0,-1
-157.47,4.99,-30.73,723,-4218,7083,0,-1,0
-157.47,4.99,-30.73,726,-4214,7086,0,-1,0
-157.47,4.99,-30.73,724,-4211,7091,0,0,0
-157.47,4.99,-30.72,726,-4209,7088,0,0,0
-157.47,4.99,-30.72,717,-4207,7081,-1,0,0
-157.47,4.99,-30.73,721,-4208,7092,-1,-1,0
-157.47,4.99,-30.73,716,-4208,7090,-1,-1,0
-157.47,4.99,-30.74,717,-4215,7091,-1,-1,0
-157.47,4.99,-30.74,720,-4218,7094,-1,0,0
-157.47,4.99,-30.74,721,-4211,7089,-1,0,0
-157.48,4.99,-30.75,720,-4218,7084,-1,0,0
-157.48,4.99,-30.75,723,-4222,7080,-1,0,0
-157.48,4.99,-30.75,720,-4227,7079,0,0,0
-157.48,4.99,-30.75,727,-4227,7082,0,0,0
-157.48,4.98,-30.75,728,-4222,7096,0,0,0
-157.48,4.98,-30.75,716,-4218,7083,-1,-1,-1
-157.48,4.98,-30.75,720,-4218,7087,-1,0,0
-157.48,4.99,-30.75,728,-4216,7078,-1,0,0
-157.48,4.98,-30.75,730,-4209,7091,-1,0,0
-157.49,4.97,-30.76,728,-4213,7073,-1,0,0
-157.48,4.96,-30.77,727,-4219,7076,0,0,-1
-157.49,4.96,-30.77,723,-4231,7078,0,0,0
-157.50,4.95,-30.77,708,-4228,7066,-1,0,0
-157.49,4.94,-30.76,704,-4212,7087,0,0,-1
-157.50,4.93,-30.77,715,-4225,7089,-1,0,0
-157.50,4.93,-30.77,715,-4221,7084,0,0,0
-157.50,4.92,-30.77,718,-4228,7096,-1,0,0
-157.51,4.91,-30.77,713,-4225,7061,-1,0,0
-157.51,4.89,-30.76,709,-4214,7064,0,0,0
-157.51,4.87,-30.75,705,-4211,7089,-1,0,-1
-157.52,4.86,-30.76,698,-4218,7074,0,0,0
-157.52,4.85,-30.75,693,-4207,7108,-1,0,0
-157.53,4.84,-30.76,704,-4216,7079,0,0,-1
-157.53,4.84,-30.75,708,-4210,7093,-1,0,0
-157.52,4.84,-30.75,725,-4208,7091,-1,0,0
-157.52,4.82,-30.75,692,-4227,7073,0,0,-1
-157.52,4.81,-30.74,717,-4213,7078,0,0,0
-157.52,4.79,-30.72,689,-4225,7061,2,0,-1
-157.52,4.79,-30.70,716,-4211,7091,-2,0,0
-157.51,4.78,-30.67,675,-4215,7114,1,0,-1
-157.51,4.78,-30.67,688,-4226,7055,0,0,-1
-157.49,4.78,-30.62,679,-4208,7138,0,-1,-1
-157.48,4.78,-30.62,687,-4220,7078,1,0,-1
-157.47,4.78,-30.58,669,-4186,7114,-1,-1,-1
-157.46,4.79,-30.58,708,-4215,7085,1,-1,-1
-157.45,4.81,-30.54,708,-4182,7089,0,0,-1
-157.45,4.81,-30.54,698,-4177,7141,-1,-1,0
-157.44,4.82,-30.53,709,-4166,7080,0,0,-1
-157.44,4.82,-30.53,696,-4183,7126,-1,-1,0
-157.44,4.83,-30.53,698,-4183,7081,0,0,-1
-157.44,4.83,-30.53,715,-4195,7147,-2,-1,0
-157.44,4.84,-30.55,707,-4190,7069,0,0,-1
-157.44,4.83,-30.53,708,-4168,7136,-1,-1,0
-157.44,4.84,-30.55,691,-4190,7092,0,0,-1
-157.44,4.85,-30.57,705,-4211,7085,-2,-1,0
-157.44,4.85,-30.57,692,-4221,7100,0,0,-1
-157.45,4.86,-30.57,712,-4222,7093,0,-1,0
-157.44,4.87,-30.56,710,-4211,7123,0,0,-1
-157.44,4.87,-30.56,707,-4193,7113,-1,0,-1
-157.44,4.87,-30.56,705,-4189,7108,-1,-1,0
-157.44,4.87,-30.57,707,-4200,7097,-1,-1,0
-157.44,4.88,-30.56,719,-4201,7099,0,-1,0
-157.44,4.88,-30.56,710,-4190,7100,0,-1,0
-157.45,4.88,-30.56,710,-4187,7105,-1,-1,0
-157.46,4.88,-30.56,704,-4192,7109,0,-1,0
-157.45,4.89,-30.57,715,-4203,7104,0,-1,0
-157.45,4.89,-30.56,710,-4203,7098,0,0,0
-157.46,4.88,-30.56,710,-4196,7097,0,-1,0
-157.46,4.89,-30.56,708,-4188,7100,0,-1,0
-157.46,4.90,-30.55,713,-4188,7111,0,-1,0
-157.46,4.89,-30.55,719,-4188,7101,0,-1,0
-157.46,4.90,-30.55,719,-4182,7096,0,0,0
-157.46,4.90,-30.55,719,-4178,7103,-1,0,0
-157.46,4.89,-30.55,716,-4180,7099,-1,0,0
-157.47,4.89,-30.55,712,-4180,7086,-1,0,0
-157.47,4.88,-30.56,704,-4183,7082,-1,0,0
-157.47,4.88,-30.57,703,-4182,7085,-1,-1,0
-157.47,4.89,-30.56,713,-4193,7090,-1,-1,-1
-157.47,4.89,-30.57,723,-4201,7101,0,0,0
-157.47,4.89,-30.56,718,-4199,7105,0,0,0
-157.47,4.89,-30.56,718,-4202,7090,-1,0,0
-157.47,4.88,-30.57,707,-4193,7081,0,0,0
-157.47,4.87,-30.57,696,-4199,7086,-1,0,0
-157.48,4.87,-30.57,695,-4194,7094,0,0,-1
-157.48,4.87,-30.57,693,-4199,7098,-1,-1,0
-157.48,4.87,-30.57,698,-4209,7103,0,0,-1
-157.47,4.88,-30.55,711,-4200,7115,0,0,-1
-157.47,4.88,-30.55,721,-4192,7108,0,0,-1
-157.47,4.87,-30.55,724,-4180,7100,-1,0,0
-157.47,4.87,-30.55,718,-4178,7096,-1,0,0
-157.47,4.87,-30.55,716,-4188,7104,0,0,0
-157.47,4.87,-30.55,706,-4183,7109,-1,0,0
-157.47,4.87,-30.55,703,-4188,7112,-1,-1,0
-157.48,4.87,-30.55,694,-4193,7117,-1,-1,0
-157.48,4.87,-30.55,693,-4197,7111,0,0,0
-157.48,4.87,-30.55,695,-4195,7112,-1,-1,-1
-157.48,4.87,-30.55,695,-4193,7109,-1,-1,0
-157.48,4.87,-30.56,696,-4191,7102,-1,-1,-1
-157.48,4.87,-30.56,701,-4192,7096,0,0,-1
-157.47,4.87,-30.55,698,-4190,7101,0,0,0
-157.48,4.87,-30.55,704,-4182,7105,-1,-1,0
-157.48,4.87,-30.56,699,-4190,7112,-1,-1,0
-157.48,4.87,-30.56,703,-4194,7112,-1,-1,0
-157.48,4.87,-30.56,701,-4183,7099,-1,0,0
-157.48,4.87,-30.56,699,-4187,7103,-1,-1,0
-157.48,4.87,-30.56,702,-4197,7098,-1,-1,0
-157.48,4.87,-30.56,699,-4208,7103,0,-1,-1
-157.48,4.87,-30.56,706,-4209,7105,0,-1,-1
-157.47,4.88,-30.56,699,-4206,7111,0,-1,-1
-157.47,4.89,-30.56,701,-4195,7102,0,-1,-1
-157.46,4.89,-30.55,709,-4191,7093,0,-1,-1
-157.46,4.90,-30.56,709,-4193,7089,0,-1,-1
-157.46,4.90,-30.55,715,-4193,7096,-1,-1,0
-157.46,4.90,-30.55,722,-4182,7094,0,0,0
-157.46,4.91,-30.55,723,-4181,7102,-1,0,0
-157.46,4.91,-30.55,716,-4191,7105,0,0,-1
-157.46,4.90,-30.55,707,-4189,7107,-1,0,0
-157.45,4.90,-30.55,706,-4186,7107,-1,-1,-1
-157.45,4.91,-30.55,701,-4188,7111,-1,-1,-1
-157.45,4.91,-30.55,705,-4186,7098,-1,-1,-1
-157.46,4.92,-30.56,712,-4197,7095,-1,-1,-1
-157.45,4.93,-30.56,718,-4193,7099,0,-1,0
-157.45,4.92,-30.55,726,-4188,7115,-1,-1,0
-157.46,4.92,-30.56,725,-4188,7108,-1,0,0
-157.46,4.92,-30.55,716,-4192,7104,-1,0,0
-157.45,4.92,-30.56,701,-4195,7095,-1,0,-1
-157.45,4.92,-30.55,700,-4192,7096,0,-1,-1
-157.45,4.92,-30.55,713,-4192,7101,0,-1,-1
-157.45,4.93,-30.55,718,-4183,7099,-1,-1,-1
-157.45,4.93,-30.56,719,-4185,7102,-1,-1,0
-157.45,4.93,-30.56,718,-4186,7092,0,0,0
-157.45,4.93,-30.56,714,-4188,7098,-1,0,0
-157.46,4.93,-30.56,711,-4197,7089,-1,-1,0
-157.46,4.92,-30.56,702,-4191,7095,-1,-1,-1
-157.46,4.93,-30.56,696,-4195,7096,-1,-1,-1
-157.45,4.94,-30.57,707,-4202,7093,-1,-1,-1
-157.45,4.95,-30.57,725,-4193,7094,0,-1,-1
-157.44,4.96,-30.57,737,-4195,7094,0,-1,-1
-157.44,4.96,-30.56,740,-4186,7109,-1,0,0
-157.44,4.96,-30.56,739,-4191,7102,-1,0,0
-157.44,4.95,-30.56,731,-4196,7096,0,0,0
-157.44,4.94,-30.56,717,-4197,7111,-1,0,0
-157.44,4.93,-30.55,699,-4183,7110,0,0,-1
-157.44,4.93,-30.55,695,-4188,7102,-1,-1,-1
-157.44,4.93,-30.56,702,-4198,7096,0,-1,-1
-157.44,4.93,-30.56,714,-4199,7097,-1,0,-1
-157.43,4.94,-30.55,715,-4183,7091,-1,-1,-1
-157.43,4.94,-30.55,718,-4179,7087,-1,0,0
-157.43,4.94,-30.56,725,-4185,7088,-1,0,0
-157.43,4.95,-30.57,720,-4189,7102,-1,0,0
-157.43,4.95,-30.57,717,-4195,7105,-1,-1,0
-157.44,4.94,-30.57,716,-4196,7105,-1,0,0
-157.44,4.94,-30.57,714,-4193,7100,0,0,0
-157.44,4.95,-30.58,717,-4191,7091,-1,-1,0
-157.44,4.95,-30.58,719,-4201,7084,0,-1,0
-157.44,4.95,-30.58,725,-4198,7103,0,-1,-1
-157.44,4.95,-30.58,712,-4201,7106,0,-1,0
-157.44,4.95,-30.57,705,-4195,7109,-1,-1,0
-157.44,4.96,-30.57,710,-4195,7095,0,-1,-1
-157.44,4.96,-30.57,714,-4200,7099,0,-1,-1
-157.44,4.96,-30.57,723,-4193,7095,0,-1,-1
-157.44,4.96,-30.56,728,-4191,7100,-1,0,0
-157.44,4.96,-30.57,724,-4192,7104,0,0,0
-157.44,4.96,-30.57,722,-4197,7102,-1,0,0
-157.44,4.96,-30.57,724,-4192,7107,-1,0,0
-157.44,4.96,-30.57,717,-4194,7099,-1,0,0
-157.44,4.97,-30.58,717,-4192,7103,-1,-1,-1
-157.44,4.97,-30.58,717,-4189,7094,-1,-1,0
-157.44,4.97,-30.58,722,-4192,7096,-1,0,0
-157.44,4.97,-30.59,727,-4200,7089,-1,-1,-1
-157.44,4.97,-30.59,733,-4200,7090,-1,-1,0
-157.44,4.97,-30.59,724,-4197,7086,0,-1,0
-157.44,4.98,-30.58,721,-4199,7097,0,-1,0
-157.44,4.98,-30.58,721,-4195,7101,0,-1,0
-157.44,4.97,-30.58,721,-4189,7098,-1,0,0
-157.45,4.97,-30.58,715,-4190,7093,-1,0,0
-157.45,4.96,-30.58,715,-4194,7102,-1,0,0
-157.45,4.97,-30.58,718,-4197,7089,-1,-1,0
-157.45,4.97,-30.59,724,-4194,7094,0,-1,0
-157.45,4.98,-30.58,734,-4197,7105,-1,-1,0
-157.45,4.98,-30.58,731,-4205,7101,0,0,0
-157.45,4.98,-30.58,738,-4197,7094,0,0,0
-157.46,4.98,-30.59,729,-4186,7094,-1,0,0
-157.46,4.97,-30.59,710,-4184,7098,-1,-1,0
-157.46,4.97,-30.59,698,-4195,7087,-1,-1,0
-157.46,4.98,-30.60,711,-4199,7096,-1,-1,-1
-157.46,4.98,-30.60,715,-4199,7104,-1,-1,-1
-157.46,4.98,-30.60,726,-4202,7100,-1,-1,-1
-157.46,4.99,-30.60,736,-4197,7091,0,-1,0
-157.46,4.99,-30.61,734,-4206,7082,0,0,0
-157.46,4.98,-30.60,734,-4194,7090,0,0,0
-157.46,4.98,-30.60,731,-4191,7093,-1,0,0
-157.46,4.97,-30.60,723,-4194,7098,-1,0,0
-157.47,4.96,-30.60,715,-4192,7098,-1,0,0
-157.48,4.96,-30.61,715,-4194,7099,-1,0,0
-157.48,4.95,-30.62,708,-4198,7105,-1,0,-1
-157.48,4.95,-30.63,708,-4200,7097,-1,-1,0
-157.48,4.95,-30.63,713,-4202,7092,-1,0,0
-157.48,4.95,-30.63,724,-4210,7089,-1,0,0
-157.48,4.96,-30.64,726,-4204,7089,-1,0,0
-157.48,4.95,-30.64,721,-4206,7089,-1,0,0
-157.48,4.94,-30.65,713,-4205,7083,-1,0,0
-157.49,4.94,-30.65,713,-4212,7092,-1,0,0
-157.48,4.95,-30.66,722,-4210,7081,-1,-1,0
-157.48,4.95,-30.66,718,-4203,7089,-1,0,0
-157.48,4.95,-30.66,716,-4202,7094,-1,-1,0
-157.48,4.95,-30.66,722,-4209,7100,-1,-1,0
-157.49,4.94,-30.66,723,-4208,7100,-1,0,0
-157.49,4.94,-30.66,710,-4207,7096,-1,0,0
-157.49,4.95,-30.67,712,-4216,7090,-1,-1,0
-157.49,4.94,-30.66,719,-4208,7099,0,0,-1
-157.49,4.94,-30.66,724,-4203,7105,0,-1,0
-157.49,4.95,-30.66,731,-4208,7098,0,-1,-1
-157.48,4.95,-30.65,737,-4212,7100,0,0,0
-157.48,4.95,-30.64,724,-4208,7102,0,0,-1
-157.48,4.94,-30.64,718,-4200,7099,0,0,0
-157.48,4.94,-30.64,713,-4198,7094,-1,-1,-1
-157.47,4.95,-30.64,714,-4201,7077,0,-1,-1
-157.47,4.96,-30.63,718,-4206,7089,0,-1,-1
-157.47,4.96,-30.63,720,-4208,7092,0,-1,-1
-157.47,4.96,-30.63,725,-4209,7080,0,0,-1
-157.47,4.97,-30.62,731,-4208,7089,0,0,-1
-157.46,4.97,-30.62,726,-4211,7090,0,0,-1
-157.46,4.97,-30.62,722,-4205,7090,0,0,0
-157.46,4.97,-30.60,721,-4194,7092,0,0,-1
-157.46,4.96,-30.60,722,-4193,7100,0,-1,0
-157.46,4.97,-30.59,731,-4182,7103,0,0,0
-157.46,4.97,-30.59,725,-4185,7096,-1,0,0
-157.45,4.96,-30.59,717,-4191,7104,0,0,-1
-157.45,4.96,-30.58,719,-4200,7102,0,0,0
-157.45,4.96,-30.58,713,-4198,7101,0,-1,-1
-157.45,4.97,-30.58,711,-4197,7094,0,-1,-1
-157.45,4.98,-30.58,723,-4199,7095,0,-1,-1
-157.45,4.98,-30.58,736,-4205,7096,0,0,-1
-157.45,4.98,-30.58,733,-4209,7106,0,0,0
-157.44,4.97,-30.58,730,-4201,7094,0,0,0
-157.44,4.96,-30.57,720,-4193,7093,0,0,0
-157.44,4.96,-30.57,710,-4198,7085,0,0,-1
-157.44,4.96,-30.57,708,-4198,7099,-1,0,0
-157.44,4.96,-30.57,708,-4203,7104,0,-1,0
-157.44,4.96,-30.57,709,-4206,7111,0,-1,-1
-157.44,4.96,-30.57,721,-4199,7109,0,-1,-1
-157.44,4.97,-30.56,732,-4194,7092,0,0,-1
-157.44,4.97,-30.56,734,-4190,7090,-1,0,0
-157.44,4.96,-30.55,730,-4189,7095,0,0,0
-157.44,4.96,-30.55,724,-4190,7087,0,0,0
-157.44,4.95,-30.54,720,-4190,7102,0,0,0
-157.44,4.94,-30.54,707,-4184,7102,-1,0,0
-157.45,4.94,-30.54,692,-4183,7095,-1,0,0
-157.46,4.93,-30.55,694,-4193,7089,0,-1,-1
-157.45,4.93,-30.54,712,-4195,7098,0,-1,-1
-157.45,4.93,-30.54,716,-4189,7102,0,-1,0
-157.44,4.94,-30.54,713,-4194,7105,-1,-1,-1
-157.44,4.94,-30.54,727,-4194,7099,0,0,-1
-157.44,4.94,-30.54,725,-4192,7102,0,0,0
-157.45,4.94,-30.53,720,-4191,7103,0,0,-1
-157.45,4.94,-30.53,716,-4195,7098,0,0,0
-157.45,4.93,-30.54,713,-4196,7102,0,0,0
-157.45,4.93,-30.54,715,-4192,7103,0,0,0
-157.45,4.93,-30.53,717,-4185,7109,0,0,0
-157.45,4.92,-30.53,715,-4185,7092,0,0,0
-157.44,4.91,-30.52,702,-4182,7097,0,0,-1
-157.44,4.91,-30.52,702,-4183,7097,0,0,-1
-157.43,4.91,-30.51,707,-4182,7097,0,0,-1
-157.44,4.91,-30.50,709,-4176,7103,0,0,-1
-157.43,4.90,-30.50,704,-4176,7104,-1,0,-1
-157.42,4.90,-30.50,725,-4180,7106,0,0,-1
-157.42,4.89,-30.51,710,-4180,7095,-1,0,-1
-157.42,4.88,-30.49,724,-4164,7136,-1,0,0
-157.43,4.87,-30.52,698,-4191,7079,-1,-1,0
-157.43,4.86,-30.51,701,-4197,7107,0,0,0
-157.43,4.86,-30.51,704,-4207,7100,0,0,0
-157.43,4.87,-30.51,691,-4210,7109,-1,-1,0
-157.43,4.86,-30.50,714,-4178,7098,0,0,0
-157.43,4.86,-30.50,704,-4197,7115,0,-1,0
-157.43,4.86,-30.49,707,-4194,7067,1,0,-1
-157.43,4.85,-30.48,709,-4196,7122,-2,-1,0
-157.42,4.84,-30.46,703,-4203,7100,1,1,-1
-157.42,4.84,-30.44,700,-4151,7171,-1,-1,0
-157.42,4.85,-30.45,722,-4175,7107,0,0,-1
-157.42,4.84,-30.42,693,-4142,7172,-1,-1,0
-157.43,4.86,-30.48,700,-4193,7007,-2,-1,-1
-157.41,4.83,-30.41,683,-4145,7221,1,0,-1
-157.43,4.87,-30.47,734,-4166,7080,-1,-1,0
-157.42,4.88,-30.45,724,-4153,7164,-2,-1,0
-157.43,4.89,-30.50,721,-4191,7079,-1,0,0
-157.43,4.89,-30.50,709,-4198,7097,-1,-1,0
-157.43,4.89,-30.51,704,-4195,7094,-1,-1,0
-157.44,4.89,-30.51,699,-4179,7107,-1,-1,0
-157.44,4.90,-30.52,695,-4184,7092,-1,-1,0
-157.44,4.91,-30.52,704,-4203,7093,-1,-1,0
-157.44,4.92,-30.52,709,-4220,7102,0,-1,-1
-157.44,4.93,-30.51,722,-4204,7116,0,-1,0
-157.44,4.94,-30.50,722,-4189,7104,0,-1,0
-157.43,4.94,-30.49,727,-4181,7090,0,-1,0
-157.43,4.94,-30.49,721,-4173,7089,0,0,0
-157.44,4.94,-30.48,715,-4171,7098,0,0,0
-157.44,4.94,-30.48,713,-4174,7113,0,0,0
-157.44,4.94,-30.48,711,-4181,7118,-1,-1,0
-157.44,4.94,-30.48,705,-4181,7123,-1,-1,0
-157.45,4.94,-30.48,708,-4190,7120,-1,-1,0
-157.45,4.94,-30.49,708,-4185,7107,-1,-1,0
-157.45,4.95,-30.49,721,-4189,7100,-1,-1,0
-157.44,4.95,-30.50,728,-4189,7100,-1,-1,0
-157.44,4.96,-30.50,729,-4195,7093,-1,0,-1
-157.44,4.96,-30.50,728,-4192,7094,-1,0,-1
-157.44,4.95,-30.50,723,-4194,7104,-1,0,-1
-157.45,4.96,-30.51,722,-4192,7105,-1,-1,0
-157.45,4.96,-30.51,721,-4187,7091,-1,0,0
-157.45,4.96,-30.51,720,-4190,7086,-1,-1,0
-157.45,4.95,-30.52,723,-4190,7095,0,0,0
-157.45,4.96,-30.51,714,-4187,7106,0,0,-1
-157.45,4.96,-30.51,718,-4183,7095,-1,0,0
-157.45,4.96,-30.51,719,-4178,7102,-1,-1,0
-157.45,4.96,-30.52,725,-4184,7097,-1,0,0
-157.45,4.96,-30.52,719,-4187,7098,0,0,0
-157.44,4.96,-30.51,724,-4185,7104,-1,-1,0
-157.45,4.96,-30.52,716,-4181,7104,-1,-1,0
-157.44,4.96,-30.52,713,-4174,7103,-1,-1,-1
-157.45,4.96,-30.52,715,-4182,7101,-1,-1,-1
-157.44,4.96,-30.52,719,-4181,7102,-1,-1,-1
-157.44,4.97,-30.53,721,-4188,7097,-1,0,-1
-157.44,4.97,-30.53,729,-4184,7104,-1,0,-1
-157.44,4.97,-30.53,726,-4184,7102,-1,-1,-1
-157.43,4.97,-30.52,720,-4192,7106,0,0,0
-157.43,4.97,-30.52,722,-4190,7093,0,0,-1
-157.43,4.97,-30.52,723,-4188,7107,-1,0,0
-157.43,4.97,-30.52,721,-4192,7101,-1,0,0
-157.44,4.96,-30.52,720,-4188,7109,-1,0,0
-157.44,4.97,-30.53,716,-4193,7110,-1,0,0
-157.44,4.97,-30.53,710,-4197,7106,0,-1,-1
-157.44,4.97,-30.52,714,-4194,7109,0,-1,-1
-157.43,4.97,-30.52,727,-4195,7105,0,0,-1
-157.43,4.97,-30.52,728,-4188,7106,-1,0,0
-157.44,4.97,-30.52,731,-4184,7107,-1,0,0
-157.44,4.97,-30.52,726,-4180,7097,-1,0,0
-157.44,4.96,-30.52,709,-4182,7092,-1,0,0
-157.44,4.95,-30.53,706,-4180,7092,-1,-1,0
-157.44,4.96,-30.54,701,-4177,7095,-1,-1,-1
-157.45,4.96,-30.54,711,-4195,7096,0,-1,-1
-157.44,4.98,-30.54,726,-4204,7102,0,-1,-1
-157.44,4.98,-30.54,731,-4206,7094,0,-1,-1
-157.43,4.98,-30.54,727,-4194,7094,0,-1,0
-157.43,4.98,-30.54,736,-4196,7081,0,0,0
-157.43,4.98,-30.53,738,-4189,7097,0,0,0
-157.44,4.97,-30.53,724,-4180,7097,0,0,0
-157.44,4.97,-30.53,717,-4175,7103,-1,0,0
-157.44,4.97,-30.53,716,-4187,7106,-1,-1,0
-157.44,4.97,-30.53,711,-4195,7115,-1,0,-1
-157.44,4.97,-30.53,716,-4195,7118,-1,-1,0
-157.44,4.98,-30.53,710,-4185,7106,-1,-1,-1
-157.44,4.98,-30.54,713,-4179,7101,-1,-1,0
-157.44,4.98,-30.54,720,-4183,7098,-1,0,-1
-157.44,4.97,-30.55,729,-4189,7105,-1,0,0
-157.44,4.97,-30.55,728,-4196,7102,-1,0,0
-157.44,4.97,-30.55,718,-4195,7097,-1,0,0
-157.44,4.96,-30.55,708,-4207,7109,-1,-1,0
-157.45,4.97,-30.56,704,-4221,7102,0,-1,0
-157.45,4.97,-30.55,706,-4219,7092,0,-1,0
-157.46,4.98,-30.55,717,-4206,7088,0,-1,0
-157.45,4.99,-30.53,726,-4199,7078,0,-1,0
-157.46,4.99,-30.52,732,-4185,7072,0,-1,0
-157.45,5.00,-30.51,735,-4179,7071,0,0,-1
-157.45,4.99,-30.48,734,-4169,7117,0,0,0
-157.44,4.97,-30.47,727,-4164,7126,0,1,0
-157.45,4.95,-30.47,704,-4156,7126,-1,0,0
-157.46,4.94,-30.47,720,-4164,7123,-1,-1,0
-157.46,4.93,-30.48,711,-4170,7128,0,0,0
-157.48,4.92,-30.49,721,-4169,7125,-2,-1,0
-157.49,4.90,-30.51,698,-4207,7084,1,0,-1
-157.50,4.91,-30.52,751,-4204,7082,-2,0,0
-157.50,4.87,-30.51,704,-4203,7115,1,0,0
-157.51,4.86,-30.52,735,-4227,7078,0,1,-1
-157.51,4.84,-30.50,707,-4177,7101,-2,0,0
-157.51,4.82,-30.47,710,-4173,7124,2,0,0
-157.52,4.80,-30.49,666,-4211,7069,0,0,0
-157.53,4.79,-30.49,711,-4183,7172,-3,0,0
-157.53,4.77,-30.49,682,-4186,7097,2,1,0
-157.53,4.76,-30.49,691,-4168,7129,-2,0,0
-157.54,4.74,-30.48,680,-4204,7116,2,0,0
-157.55,4.73,-30.50,675,-4163,7065,-2,0,0
-157.56,4.72,-30.49,694,-4161,7161,-2,0,0
-157.56,4.70,-30.51,674,-4183,7054,2,1,0
-157.57,4.71,-30.52,686,-4193,7083,-4,-1,0
-157.56,4.69,-30.49,675,-4174,7205,1,0,0
-157.58,4.71,-30.55,692,-4224,7015,0,0,-1
-157.56,4.69,-30.48,678,-4156,7196,-1,-1,0
-157.57,4.70,-30.55,709,-4216,6974,0,1,-1
-157.55,4.69,-30.48,662,-4136,7181,-3,-2,0
-157.56,4.70,-30.50,654,-4194,7074,3,0,-1
-157.56,4.70,-30.50,664,-4184,7075,-2,-1,-1
-157.55,4.70,-30.48,677,-4161,7157,-2,-1,0
-157.55,4.70,-30.49,678,-4195,7095,2,0,-1
-157.54,4.73,-30.51,694,-4204,7092,-4,-2,0
-157.52,4.71,-30.47,702,-4202,7152,2,1,-1
-157.52,4.72,-30.51,704,-4228,7015,1,0,-1
-157.51,4.72,-30.46,697,-4153,7149,-4,-1,0
-157.50,4.73,-30.46,693,-4171,7116,1,0,-1
-157.50,4.73,-30.47,691,-4183,7067,0,1,-1
-157.50,4.73,-30.46,652,-4188,7111,-2,-2,0
-157.49,4.73,-30.44,683,-4172,7147,2,0,-1
-157.50,4.75,-30.49,669,-4202,7035,-1,-1,-1
-157.48,4.74,-30.44,685,-4157,7147,-1,0,-1
-157.49,4.75,-30.46,691,-4193,7066,1,0,0
-157.48,4.76,-30.44,675,-4178,7107,-1,-1,-1
-157.47,4.75,-30.44,681,-4166,7133,-2,0,0
-157.47,4.75,-30.45,698,-4180,7093,1,1,-1
-157.47,4.75,-30.44,687,-4162,7111,-2,-1,0
-157.46,4.75,-30.44,696,-4185,7139,1,0,0
-157.47,4.75,-30.45,709,-4188,7058,1,0,-1
-157.47,4.74,-30.43,673,-4176,7146,-2,-1,0
-157.48,4.74,-30.46,697,-4201,7082,0,0,0
-157.47,4.74,-30.44,679,-4179,7094,-1,0,-1
-157.46,4.73,-30.43,664,-4185,7138,0,0,-1
-157.46,4.75,-30.43,684,-4172,7099,0,-1,0
-157.45,4.76,-30.41,687,-4155,7119,0,-1,-1
-157.45,4.77,-30.43,697,-4180,7122,-1,-1,-1
-157.45,4.78,-30.43,702,-4199,7115,0,-1,-1
-157.44,4.78,-30.42,694,-4184,7107,0,-1,-1
-157.45,4.78,-30.42,698,-4183,7119,-1,-1,0
-157.45,4.80,-30.43,700,-4167,7104,-1,-1,0
-157.45,4.79,-30.43,700,-4164,7107,-1,-1,0
-157.46,4.80,-30.44,701,-4172,7109,-1,-1,0
-157.46,4.80,-30.44,696,-4183,7094,0,0,0
-157.46,4.80,-30.44,693,-4190,7085,0,-1,0
-157.47,4.80,-30.43,694,-4184,7095,0,0,0
-157.47,4.80,-30.43,689,-4179,7107,0,-1,0
-157.47,4.80,-30.43,686,-4178,7099,0,-1,0
-157.47,4.79,-30.42,682,-4176,7101,0,0,-1
-157.46,4.80,-30.41,694,-4175,7110,0,0,-1
-157.46,4.80,-30.40,692,-4173,7110,0,0,-1
-157.46,4.79,-30.40,685,-4165,7112,0,-1,-1
-157.46,4.80,-30.39,694,-4164,7102,0,0,-1
-157.45,4.79,-30.38,697,-4159,7099,0,0,-1
-157.45,4.80,-30.38,697,-4159,7118,-1,-1,0
-157.45,4.79,-30.38,692,-4164,7106,0,0,0
-157.45,4.78,-30.39,691,-4157,7098,-1,0,-1
-157.45,4.78,-30.38,688,-4167,7117,0,0,-1
-157.44,4.78,-30.38,700,-4175,7138,-1,0,-1
-157.44,4.78,-30.38,713,-4186,7131,0,-1,-1
-157.44,4.78,-30.39,706,-4186,7134,-1,-1,0
-157.44,4.78,-30.39,704,-4178,7106,0,0,0
-157.44,4.78,-30.39,699,-4160,7112,-1,-1,0
-157.45,4.78,-30.40,688,-4160,7095,-1,0,0
-157.46,4.77,-30.41,673,-4172,7100,-1,-1,0
-157.46,4.78,-30.41,675,-4172,7112,-1,-1,-1
-157.46,4.78,-30.41,687,-4179,7122,-1,-1,-1
-157.45,4.78,-30.42,688,-4182,7122,-1,-1,-1
-157.45,4.80,-30.41,690,-4186,7115,0,-1,-1
-157.45,4.80,-30.41,705,-4182,7114,0,-1,-1
-157.45,4.81,-30.40,700,-4173,7107,0,-1,0
-157.45,4.81,-30.40,699,-4166,7105,0,-1,0
-157.44,4.81,-30.39,694,-4165,7114,0,-1,0
-157.44,4.81,-30.39,704,-4172,7114,0,-1,0
-157.44,4.82,-30.39,701,-4171,7115,0,-1,0
-157.44,4.82,-30.39,698,-4173,7114,0,-1,0
-157.44,4.83,-30.39,698,-4172,7126,0,-1,-1
-157.44,4.83,-30.38,708,-4167,7116,0,-1,-1
-157.44,4.84,-30.38,706,-4163,7111,-1,-1,-1
-157.44,4.84,-30.38,705,-4164,7109,0,0,-1
-157.44,4.85,-30.38,707,-4171,7113,0,-1,0
-157.44,4.85,-30.38,711,-4174,7112,-1,-1,0
-157.43,4.85,-30.38,706,-4173,7120,-1,-1,0
-157.44,4.85,-30.39,707,-4168,7120,-1,-1,0
-157.44,4.85,-30.39,709,-4173,7115,-1,0,0
-157.44,4.85,-30.39,702,-4179,7110,-1,-1,0
-157.44,4.85,-30.39,699,-4173,7110,-1,-1,-1
-157.44,4.85,-30.39,701,-4172,7109,-1,0,0
-157.44,4.85,-30.39,700,-4168,7103,0,0,0
-157.43,4.86,-30.39,698,-4171,7103,-1,-1,0
-157.43,4.86,-30.39,702,-4184,7106,0,-1,0
-157.43,4.87,-30.39,710,-4186,7118,0,-1,-1
-157.43,4.87,-30.38,698,-4181,7109,0,-1,-1
-157.43,4.87,-30.38,701,-4172,7107,-1,-1,-1
-157.43,4.87,-30.39,712,-4173,7107,0,-1,-1
-157.43,4.88,-30.39,719,-4174,7108,-1,-1,-1
-157.43,4.89,-30.39,727,-4174,7111,0,0,0
-157.43,4.89,-30.39,719,-4174,7112,-1,0,0
-157.43,4.89,-30.40,715,-4175,7110,-1,0,0
-157.43,4.88,-30.40,707,-4178,7111,0,0,0
-157.43,4.88,-30.40,709,-4181,7121,-1,0,0
-157.43,4.88,-30.40,703,-4171,7109,-1,-1,0
-157.43,4.89,-30.40,700,-4168,7112,-1,-1,-1
-157.43,4.89,-30.40,703,-4174,7105,-1,-1,-1
-157.43,4.89,-30.40,706,-4177,7102,0,0,0
-157.43,4.89,-30.40,704,-4174,7107,0,-1,0
-157.43,4.90,-30.40,707,-4179,7115,0,-1,-1
-157.43,4.90,-30.39,722,-4179,7121,0,0,-1
-157.42,4.90,-30.39,721,-4174,7117,0,0,0
-157.43,4.90,-30.39,714,-4173,7124,0,0,0
-157.43,4.90,-30.39,704,-4174,7110,-1,0,0
-157.43,4.89,-30.40,704,-4166,7107,-1,0,0
-157.44,4.89,-30.40,699,-4162,7109,-1,0,-1
-157.44,4.89,-30.40,696,-4171,7109,-1,-1,-1
-157.43,4.90,-30.41,707,-4183,7106,-1,-1,-1
-157.43,4.91,-30.41,722,-4189,7114,0,-1,-1
-157.42,4.91,-30.41,723,-4177,7111,-1,-1,-1
-157.42,4.92,-30.41,730,-4175,7100,-1,-1,-1
-157.42,4.93,-30.41,728,-4171,7095,0,0,0
-157.41,4.93,-30.40,734,-4169,7094,0,0,0
-157.41,4.92,-30.40,719,-4168,7109,0,0,0
-157.42,4.91,-30.40,704,-4177,7119,0,0,0
-157.42,4.92,-30.40,708,-4178,7125,0,-1,0
-157.42,4.92,-30.39,707,-4176,7136,0,0,-1
-157.42,4.92,-30.39,706,-4168,7134,-1,-1,-1
-157.42,4.92,-30.39,709,-4170,7129,-1,-1,0
-157.42,4.92,-30.40,705,-4166,7113,0,-1,-1
-157.42,4.92,-30.40,717,-4166,7118,-1,-1,0
-157.42,4.92,-30.40,717,-4170,7118,-1,0,-1
-157.42,4.92,-30.40,717,-4168,7116,-1,0,0
-157.42,4.92,-30.40,718,-4169,7108,-1,0,0
-157.42,4.93,-30.40,719,-4169,7111,-1,-1,0
-157.42,4.93,-30.40,723,-4171,7104,-1,0,0
-157.42,4.93,-30.40,708,-4174,7107,-1,0,0
-157.42,4.93,-30.40,703,-4174,7107,0,-1,-1
-157.42,4.92,-30.40,706,-4174,7112,0,0,0
-157.42,4.93,-30.40,716,-4165,7108,-1,-1,-1
-157.43,4.93,-30.40,708,-4168,7109,-1,-1,0
-157.43,4.93,-30.40,716,-4174,7104,0,-1,0
-157.43,4.93,-30.40,712,-4175,7119,0,0,-1
-157.43,4.93,-30.40,714,-4174,7116,-1,-1,0
-157.43,4.93,-30.41,700,-4171,7113,-1,-1,0
-157.43,4.93,-30.41,706,-4174,7102,-1,-1,0
-157.43,4.94,-30.41,716,-4172,7117,-1,-1,-1
-157.43,4.94,-30.41,721,-4181,7117,-1,0,0
-157.43,4.94,-30.41,722,-4179,7107,0,-1,0
-157.43,4.94,-30.41,721,-4172,7110,0,0,0
-157.43,4.94,-30.41,724,-4179,7115,-1,0,0
-157.43,4.94,-30.41,724,-4175,7121,-1,0,0
-157.43,4.94,-30.41,711,-4172,7111,-1,-1,0
-157.43,4.94,-30.41,712,-4165,7109,0,0,-1
-157.43,4.94,-30.41,722,-4166,7115,0,0,0
-157.43,4.94,-30.41,737,-4157,7117,-1,0,0
-157.43,4.93,-30.41,727,-4158,7121,-1,0,0
-157.44,4.92,-30.42,723,-4159,7117,-1,0,0
-157.44,4.91,-30.43,709,-4171,7109,-1,0,0
-157.44,4.89,-30.43,704,-4164,7114,-1,0,0
-157.45,4.89,-30.44,696,-4160,7111,-1,0,0
-157.46,4.88,-30.45,693,-4177,7110,-1,-1,0
-157.46,4.89,-30.45,704,-4183,7111,-1,-1,0
-157.46,4.89,-30.46,711,-4182,7109,-1,0,0
-157.46,4.88,-30.47,708,-4180,7095,-1,0,0
-157.47,4.88,-30.48,715,-4177,7101,-1,0,0
-157.48,4.86,-30.48,718,-4178,7085,-1,0,0
-157.49,4.85,-30.49,702,-4189,7087,0,0,0
-157.49,4.84,-30.48,701,-4177,7098,0,0,0
-157.50,4.83,-30.48,703,-4180,7118,-1,0,0
-157.50,4.82,-30.48,673,-4184,7106,0,0,-1
-157.49,4.82,-30.48,682,-4181,7112,-1,0,0
-157.50,4.81,-30.48,683,-4189,7095,0,0,-1
-157.49,4.81,-30.48,699,-4177,7120,-1,-1,0
-157.49,4.82,-30.49,706,-4185,7102,0,0,-1
-157.50,4.82,-30.49,707,-4170,7113,-1,-1,0
-157.50,4.81,-30.50,710,-4181,7090,-1,0,0
-157.50,4.81,-30.50,704,-4188,7110,-1,0,0
-157.51,4.80,-30.50,699,-4184,7113,-1,0,0
-157.51,4.79,-30.51,681,-4183,7111,-1,-1,0
-157.52,4.80,-30.52,685,-4185,7089,-1,-1,0
-157.52,4.80,-30.52,688,-4189,7098,-1,-1,-1
-157.51,4.80,-30.52,689,-4192,7093,-1,0,-1
-157.49,4.80,-30.52,687,-4186,7116,0,-1,-1
-157.49,4.81,-30.53,699,-4211,7090,-1,-1,-1
-157.49,4.82,-30.51,695,-4207,7101,0,-1,-1
-157.48,4.83,-30.50,711,-4193,7109,0,0,-1
-157.48,4.83,-30.50,703,-4178,7105,0,0,-1
-157.47,4.82,-30.50,705,-4175,7109,-1,0,-1
-157.47,4.82,-30.50,695,-4186,7104,0,-1,-1
-157.46,4.83,-30.49,698,-4193,7107,0,0,-1
-157.46,4.83,-30.49,696,-4182,7111,-1,-1,-1
-157.45,4.84,-30.49,689,-4178,7107,0,-1,-1
-157.45,4.85,-30.49,707,-4187,7105,-1,-1,-1
-157.44,4.86,-30.49,715,-4188,7099,0,-1,-1
-157.44,4.86,-30.50,717,-4197,7087,-1,-1,0
-157.44,4.86,-30.50,708,-4200,7088,0,0,0
-157.44,4.87,-30.49,699,-4183,7093,0,-1,-1
-157.44,4.87,-30.48,703,-4193,7105,0,-1,-1
-157.43,4.87,-30.47,712,-4191,7118,0,-1,-1
-157.43,4.88,-30.46,715,-4190,7122,0,-1,0
-157.43,4.87,-30.44,711,-4180,7110,0,0,-1
-157.43,4.88,-30.43,708,-4153,7114,0,0,0
-157.43,4.87,-30.42,702,-4149,7106,0,0,0
-157.43,4.87,-30.42,695,-4155,7115,-1,0,0
-157.43,4.87,-30.42,694,-4169,7118,-1,-1,0
-157.43,4.87,-30.42,695,-4176,7115,-1,-1,-1
-157.43,4.88,-30.42,701,-4180,7109,0,-1,-1
-157.43,4.88,-30.43,710,-4181,7109,-1,-1,-1
-157.43,4.88,-30.43,718,-4184,7114,-1,-1,0
-157.42,4.89,-30.43,722,-4189,7100,0,0,0
-157.43,4.88,-30.43,718,-4189,7104,0,0,0
-157.43,4.88,-30.43,720,-4184,7102,0,0,0
-157.43,4.87,-30.41,700,-4175,7117,0,0,0
-157.43,4.87,-30.41,693,-4181,7116,0,0,-1
-157.43,4.87,-30.41,688,-4179,7130,0,-1,-1
-157.43,4.87,-30.41,699,-4174,7121,0,-1,-1
-157.42,4.88,-30.40,701,-4177,7110,0,-1,-1
-157.42,4.88,-30.40,707,-4175,7118,0,0,-1
-157.42,4.88,-30.39,714,-4164,7115,0,0,0
-157.42,4.88,-30.39,719,-4163,7120,-1,0,0
-157.42,4.88,-30.40,716,-4167,7112,-1,0,0
-157.42,4.87,-30.40,712,-4174,7105,-1,0,0
-157.41,4.87,-30.40,709,-4173,7113,0,0,0
-157.41,4.87,-30.40,710,-4178,7118,-1,0,-1
-157.41,4.87,-30.40,711,-4177,7117,0,0,-1
-157.41,4.86,-30.40,711,-4172,7123,-1,0,0
-157.41,4.86,-30.40,704,-4176,7114,-1,0,-1
-157.41,4.86,-30.40,709,-4175,7113,0,0,-1
-157.41,4.86,-30.39,698,-4170,7109,0,0,0
-157.41,4.85,-30.39,698,-4179,7111,0,0,0
-157.41,4.85,-30.38,706,-4172,7115,0,0,0
-157.41,4.85,-30.38,698,-4164,7117,-1,0,0
-157.41,4.84,-30.38,698,-4165,7115,-1,0,-1
-157.41,4.84,-30.39,705,-4169,7110,-1,0,-1
-157.41,4.84,-30.39,705,-4168,7123,-1,0,-1
-157.41,4.84,-30.39,715,-4168,7117,-1,0,0
-157.41,4.84,-30.40,723,-4174,7121,-1,0,0
-157.41,4.84,-30.40,712,-4177,7109,-1,0,0
-157.41,4.85,-30.40,703,-4179,7111,0,0,0
-157.42,4.84,-30.41,699,-4182,7111,-1,0,0
-157.42,4.84,-30.41,698,-4183,7118,0,0,0
-157.41,4.84,-30.40,705,-4171,7121,0,-1,-1
-157.41,4.84,-30.40,703,-4170,7113,0,-1,-1
-157.41,4.85,-30.39,711,-4173,7117,0,-1,-1
-157.41,4.85,-30.39,710,-4175,7120,0,-1,-1
-157.41,4.85,-30.39,708,-4179,7125,0,-1,0
-157.40,4.85,-30.38,706,-4165,7127,0,0,0
-157.41,4.85,-30.38,701,-4158,7123,-1,-1,0
-157.41,4.86,-30.38,697,-4167,7109,0,0,0
-157.41,4.86,-30.38,701,-4167,7119,-1,-1,-1
-157.41,4.87,-30.38,698,-4164,7118,-1,-1,-1
-157.41,4.87,-30.38,697,-4166,7099,-1,-1,-1
-157.41,4.87,-30.38,698,-4171,7096,-1,-1,-1
-157.40,4.88,-30.39,702,-4182,7094,0,-1,-1
-157.40,4.88,-30.39,713,-4186,7107,0,-1,-1
-157.40,4.90,-30.39,727,-4188,7105,0,-1,-1
-157.40,4.89,-30.38,729,-4182,7115,0,0,0
-157.40,4.89,-30.37,733,-4170,7119,0,0,0
-157.40,4.89,-30.36,713,-4162,7128,-1,0,0
-157.40,4.88,-30.37,703,-4162,7120,-1,0,0
-157.40,4.88,-30.37,686,-4161,7115,-1,-1,0
-157.40,4.88,-30.37,675,-4158,7117,-1,-1,-1
-157.40,4.89,-30.37,688,-4168,7117,-1,-1,-1
-157.40,4.89,-30.38,705,-4180,7120,-1,-1,-1
-157.40,4.91,-30.38,714,-4178,7121,0,-1,-1
-157.40,4.91,-30.38,719,-4179,7118,0,-1,0
-157.39,4.92,-30.38,730,-4163,7106,-1,0,0
-157.39,4.92,-30.38,731,-4169,7093,-1,0,0
-157.40,4.91,-30.38,728,-4168,7097,0,0,0
-157.40,4.90,-30.38,714,-4174,7110,0,0,0
-157.40,4.90,-30.37,698,-4168,7121,0,-1,0
-157.40,4.90,-30.37,690,-4168,7121,-1,-1,-1
-157.40,4.91,-30.37,699,-4167,7120,0,-1,-1
-157.39,4.92,-30.37,706,-4163,7105,0,-1,-1
-157.39,4.93,-30.36,713,-4158,7116,0,-1,-1
-157.39,4.93,-30.36,720,-4159,7110,-1,-1,0
-157.39,4.93,-30.36,719,-4157,7114,0,0,0
-157.39,4.93,-30.36,711,-4162,7117,-1,0,0
-157.40,4.92,-30.36,713,-4168,7114,-1,0,0
-157.40,4.92,-30.37,712,-4174,7124,-1,0,0
-157.40,4.92,-30.37,711,-4180,7126,-1,-1,-1
-157.39,4.93,-30.36,718,-4173,7123,-1,-1,-1
-157.39,4.94,-30.37,722,-4167,7110,-1,-1,-1
-157.39,4.94,-30.37,718,-4162,7108,-1,-1,0
-157.39,4.94,-30.37,725,-4169,7105,-1,0,0
-157.40,4.94,-30.37,716,-4174,7111,0,0,0
-157.40,4.94,-30.37,714,-4167,7118,0,0,0
-157.40,4.94,-30.36,714,-4174,7121,0,0,0
-157.40,4.94,-30.36,716,-4169,7117,-1,-1,0
-157.40,4.94,-30.37,706,-4172,7108,0,-1,-1
-157.40,4.94,-30.37,711,-4157,7101,-1,-1,-1
-157.40,4.94,-30.37,714,-4159,7103,-1,-1,0
-157.40,4.95,-30.38,723,-4161,7097,-1,-1,0
-157.40,4.95,-30.38,728,-4174,7107,-1,0,0
-157.40,4.95,-30.38,729,-4172,7112,-1,0,0
-157.40,4.95,-30.38,717,-4168,7106,-1,0,0
-157.40,4.95,-30.38,713,-4174,7109,-1,-1,0
-157.41,4.95,-30.38,712,-4178,7106,0,-1,-1
-157.40,4.96,-30.38,715,-4175,7104,0,-1,-1
-157.40,4.96,-30.37,721,-4161,7120,0,-1,0
-157.40,4.96,-30.37,722,-4170,7122,0,-1,0
-157.39,4.96,-30.36,724,-4171,7123,0,0,0
-157.40,4.96,-30.37,722,-4167,7113,0,0,0
-157.39,4.96,-30.36,718,-4166,7113,0,-1,0
-157.40,4.96,-30.37,722,-4166,7122,0,-1,0
-157.40,4.97,-30.36,726,-4162,7130,0,-1,0
-157.39,4.97,-30.36,732,-4161,7130,-1,0,0
-157.39,4.97,-30.36,733,-4161,7115,-1,0,0
-157.40,4.96,-30.37,722,-4156,7108,-1,0,0
-157.40,4.96,-30.37,708,-4162,7095,-1,0,0
-157.40,4.96,-30.38,703,-4167,7091,-1,-1,-1
-157.40,4.96,-30.38,706,-4171,7103,-1,-1,-1
-157.40,4.97,-30.39,705,-4181,7109,-1,-1,-1
-157.40,4.97,-30.39,721,-4182,7113,0,-1,-1
-157.39,4.98,-30.38,731,-4181,7115,0,-1,-1
-157.39,4.98,-30.38,736,-4175,7112,-1,0,0
-157.40,4.98,-30.38,730,-4168,7116,0,0,0
-157.40,4.97,-30.37,718,-4160,7114,0,0,0
-157.40,4.96,-30.37,706,-4169,7127,0,0,0
-157.40,4.96,-30.37,709,-4168,7121,-1,-1,0
-157.41,4.96,-30.37,697,-4162,7125,-1,-1,0
-157.41,4.96,-30.37,701,-4166,7114,-1,-1,-1
-157.41,4.97,-30.38,704,-4166,7108,-1,-1,-1
-157.41,4.97,-30.38,716,-4163,7110,-1,-1,-1
-157.41,4.98,-30.38,721,-4160,7113,-1,-1,0
-157.41,4.98,-30.38,727,-4164,7102,-1,-1,0
-157.41,4.98,-30.39,724,-4169,7105,-1,0,0
-157.41,4.98,-30.38,720,-4164,7114,0,0,0
-157.41,4.97,-30.38,721,-4165,7106,-1,0,0
-157.41,4.98,-30.39,719,-4169,7106,-1,0,0
-157.41,4.98,-30.39,721,-4169,7110,-1,-1,0
-157.41,4.98,-30.39,723,-4169,7111,-1,-1,0
-157.41,4.98,-30.39,733,-4166,7105,0,0,0
-157.41,4.98,-30.39,727,-4161,7108,-1,0,0
-157.42,4.97,-30.39,725,-4167,7103,0,0,0
-157.42,4.96,-30.39,730,-4170,7107,-1,0,0
-157.42,4.96,-30.39,727,-4179,7107,-1,0,0
-157.42,4.95,-30.40,726,-4172,7116,-1,0,0
-157.42,4.94,-30.40,711,-4158,7108,-1,0,0
-157.43,4.93,-30.40,711,-4159,7124,-1,0,0
-157.43,4.93,-30.41,713,-4176,7099,-1,0,0
-157.43,4.91,-30.41,713,-4175,7109,0,0,0
-157.43,4.91,-30.41,724,-4165,7102,-1,0,0
