Yaw,Pitch,Roll,AX,AY,AZ,GX,GY,GZ
-158.90,4.42,-27.34,633,-3777,7328,-1,-1,0
-158.91,4.43,-27.35,640,-3778,7328,-1,-1,0
-158.91,4.44,-27.35,640,-3780,7322,-1,-1,0
-158.91,4.44,-27.35,644,-3783,7320,-1,-1,0
-158.91,4.44,-27.35,644,-3788,7329,-1,-1,0
-158.91,4.44,-27.36,645,-3794,7332,-1,-1,0
-158.91,4.44,-27.37,637,-3796,7331,-1,-1,0
-158.91,4.44,-27.36,634,-3793,7320,0,-1,0
-158.92,4.44,-27.36,635,-3793,7315,0,-1,0
-158.92,4.44,-27.37,642,-3785,7317,-1,-1,0
-158.92,4.44,-27.37,649,-3794,7313,-1,-1,0
-158.92,4.44,-27.37,643,-3796,7316,-1,-1,0
-158.93,4.44,-27.37,645,-3803,7319,0,0,0
-158.93,4.44,-27.37,632,-3797,7336,0,-1,0
-158.93,4.43,-27.37,629,-3787,7330,-1,-1,0
-158.93,4.44,-27.37,630,-3795,7327,-1,-1,0
-158.93,4.44,-27.37,638,-3783,7326,-1,0,-1
-158.93,4.45,-27.37,644,-3776,7320,-1,-1,0
-158.93,4.45,-27.38,654,-3777,7326,-1,-1,0
-158.93,4.46,-27.38,655,-3788,7326,-1,-1,0
-158.93,4.45,-27.39,647,-3795,7319,-1,-1,0
-158.94,4.45,-27.39,642,-3798,7327,-1,-1,0
-158.94,4.45,-27.40,637,-3805,7328,-1,-1,0
-158.94,4.45,-27.40,642,-3805,7319,-1,-1,0
-158.94,4.46,-27.40,635,-3802,7319,0,-1,-1
-158.94,4.45,-27.40,634,-3804,7317,0,0,-1
-158.94,4.45,-27.40,646,-3798,7308,0,0,-1
-158.93,4.44,-27.39,641,-3794,7315,0,0,-1
-158.94,4.44,-27.38,628,-3798,7318,0,0,-1
-158.93,4.44,-27.37,630,-3797,7319,0,-1,-1
-158.93,4.44,-27.37,640,-3798,7322,0,-1,-1
-158.93,4.44,-27.36,642,-3792,7324,0,0,-1
-158.93,4.44,-27.35,641,-3780,7334,0,0,0
-158.92,4.43,-27.35,641,-3774,7324,0,0,0
-158.92,4.42,-27.34,637,-3768,7315,-1,0,0
-158.92,4.42,-27.35,631,-3769,7319,-1,-1,-1
-158.92,4.42,-27.35,625,-3777,7303,-1,-1,0
-158.92,4.43,-27.35,628,-3799,7318,0,-1,-1
-158.92,4.43,-27.35,629,-3796,7336,-1,-1,-1
-158.91,4.43,-27.35,633,-3798,7334,0,-1,-1
-158.91,4.44,-27.35,653,-3800,7320,0,-1,-1
-158.91,4.44,-27.34,652,-3796,7309,0,0,-1
-158.90,4.44,-27.33,653,-3787,7317,0,0,0
-158.91,4.43,-27.32,649,-3783,7320,0,0,0
-158.91,4.42,-27.32,635,-3778,7322,0,0,0
-158.91,4.41,-27.31,626,-3782,7325,0,0,0
-158.91,4.41,-27.31,622,-3780,7334,0,-1,0
-158.91,4.41,-27.31,619,-3781,7337,-1,-1,-1
-158.91,4.42,-27.32,619,-3794,7328,-1,-1,-1
-158.91,4.42,-27.32,629,-3784,7329,0,-1,-1
-158.91,4.42,-27.31,644,-3778,7317,0,0,-1
-158.91,4.42,-27.31,646,-3776,7317,-1,0,0
-158.91,4.42,-27.32,640,-3782,7316,-1,0,0
-158.90,4.41,-27.33,640,-3798,7317,0,0,-1
-158.90,4.40,-27.32,640,-3800,7329,0,0,0
-158.90,4.40,-27.32,639,-3790,7337,0,0,0
-158.91,4.40,-27.32,634,-3787,7335,-1,0,0
-158.91,4.39,-27.32,636,-3779,7336,-1,0,-1
-158.91,4.39,-27.32,633,-3777,7325,0,0,-1
-158.91,4.39,-27.31,640,-3772,7326,0,0,0
-158.91,4.39,-27.31,642,-3787,7335,0,0,-1
-158.90,4.38,-27.30,635,-3788,7345,0,0,0
-158.90,4.38,-27.30,626,-3785,7340,0,0,-1
-158.90,4.38,-27.30,630,-3781,7332,-1,0,-1
-158.90,4.37,-27.30,631,-3776,7338,-1,0,-1
-158.90,4.37,-27.30,627,-3774,7336,-1,0,-1
-158.89,4.38,-27.30,632,-3776,7338,-1,0,0
-158.90,4.37,-27.30,631,-3776,7324,-1,0,0
-158.90,4.37,-27.30,631,-3788,7322,-1,0,0
-158.90,4.36,-27.30,628,-3790,7331,0,0,0
-158.90,4.36,-27.30,626,-3782,7332,-1,0,0
-158.91,4.35,-27.30,620,-3785,7319,0,0,-1
-158.90,4.35,-27.29,624,-3787,7319,0,0,-1
-158.90,4.35,-27.29,630,-3785,7318,0,0,-1
-158.90,4.35,-27.29,634,-3780,7324,0,0,0
-158.90,4.34,-27.29,619,-3778,7334,-1,0,0
-158.90,4.33,-27.29,616,-3781,7330,0,0,0
-158.90,4.33,-27.28,623,-3791,7334,0,-1,-1
-158.90,4.33,-27.28,634,-3787,7337,0,0,-1
-158.90,4.33,-27.28,640,-3780,7345,-1,0,0
-158.90,4.32,-27.28,636,-3767,7334,-1,0,0
-158.91,4.32,-27.29,632,-3776,7322,0,0,0
-158.91,4.31,-27.28,620,-3776,7338,-1,0,0
-158.91,4.30,-27.29,598,-3772,7335,-1,0,-1
-158.91,4.30,-27.30,594,-3785,7331,-1,-1,-1
-158.91,4.31,-27.30,603,-3791,7339,-1,-1,-1
-158.91,4.31,-27.30,620,-3785,7335,0,-1,-1
-158.90,4.32,-27.30,628,-3785,7327,0,-1,-1
-158.90,4.33,-27.30,643,-3788,7329,0,-1,0
-158.90,4.33,-27.30,640,-3779,7322,0,0,0
-158.90,4.32,-27.29,640,-3779,7325,0,0,0
-158.91,4.31,-27.29,628,-3778,7329,0,0,0
-158.91,4.30,-27.28,611,-3778,7334,-1,0,0
-158.91,4.31,-27.29,608,-3778,7328,-1,-1,-1
-158.91,4.31,-27.29,615,-3779,7323,-1,-1,-1
-158.91,4.31,-27.29,619,-3773,7324,-1,-1,-1
-158.91,4.32,-27.29,629,-3777,7324,-1,-1,-1
-158.91,4.33,-27.30,629,-3784,7309,0,-1,-1
-158.90,4.33,-27.30,634,-3780,7322,-1,0,0
-158.90,4.33,-27.30,631,-3775,7332,-1,0,0
-158.91,4.33,-27.30,632,-3775,7333,-1,-1,0
-158.91,4.33,-27.31,622,-3793,7321,0,-1,-1
-158.90,4.33,-27.30,625,-3789,7330,0,-1,0
-158.90,4.33,-27.30,617,-3778,7333,0,-1,-1
-158.90,4.34,-27.30,619,-3782,7330,-1,-1,-1
-158.90,4.35,-27.30,630,-3780,7323,0,-1,-1
-158.90,4.35,-27.30,632,-3780,7332,0,-1,0
-158.90,4.35,-27.29,630,-3778,7326,0,-1,0
-158.90,4.35,-27.29,628,-3784,7338,-1,-1,0
-158.91,4.35,-27.29,619,-3781,7340,0,-1,0
-158.91,4.35,-27.28,629,-3784,7344,0,-1,0
-158.90,4.36,-27.28,628,-3770,7339,-1,-1,0
-158.90,4.36,-27.29,630,-3777,7338,-1,-1,0
-158.90,4.37,-27.29,636,-3782,7328,-1,-1,-1
-158.90,4.37,-27.29,638,-3785,7319,-1,-1,0
-158.90,4.37,-27.29,639,-3782,7326,-1,-1,0
-158.90,4.37,-27.29,632,-3785,7325,-1,-1,0
-158.90,4.37,-27.30,629,-3799,7325,0,-1,0
-158.90,4.37,-27.30,630,-3794,7320,0,-1,0
-158.90,4.37,-27.29,629,-3777,7334,-1,-1,0
-158.90,4.37,-27.29,624,-3778,7330,-1,-1,-1
-158.91,4.37,-27.30,623,-3782,7324,-1,-1,0
-158.91,4.37,-27.30,629,-3790,7313,0,-1,-1
-158.91,4.38,-27.29,636,-3782,7332,0,-1,0
-158.91,4.38,-27.28,631,-3777,7347,-1,-1,-1
-158.90,4.38,-27.28,632,-3779,7336,-1,-1,0
-158.91,4.38,-27.29,628,-3777,7327,-1,-1,-1
-158.91,4.38,-27.29,624,-3778,7320,-1,-1,0
-158.91,4.38,-27.29,638,-3783,7312,-1,-1,0
-158.90,4.40,-27.29,642,-3786,7323,0,-1,-1
-158.90,4.40,-27.29,649,-3785,7335,0,-1,0
-158.90,4.40,-27.29,641,-3789,7329,0,0,0
-158.90,4.39,-27.29,630,-3786,7320,-1,0,0
-158.91,4.38,-27.30,616,-3783,7307,-1,0,0
-158.91,4.38,-27.30,613,-3785,7320,-1,-1,-1
-158.91,4.38,-27.30,610,-3786,7327,-1,-1,-1
-158.91,4.39,-27.30,616,-3786,7331,-1,-1,-1
-158.90,4.40,-27.30,635,-3787,7331,0,-1,-1
-158.90,4.41,-27.30,649,-3792,7327,0,-1,-1
-158.90,4.41,-27.30,658,-3792,7321,0,-1,0
-158.90,4.41,-27.29,662,-3782,7330,0,0,0
-158.91,4.41,-27.29,655,-3777,7324,0,0,0
-158.91,4.40,-27.29,650,-3776,7325,-1,0,0
-158.91,4.40,-27.29,636,-3778,7328,-1,0,0
-158.92,4.40,-27.29,628,-3776,7331,-1,-1,0
-158.92,4.40,-27.30,628,-3782,7334,-1,-1,-1
-158.92,4.40,-27.30,632,-3777,7322,-1,-1,0
-158.92,4.40,-27.30,637,-3792,7323,0,-1,-1
-158.91,4.41,-27.30,641,-3794,7331,0,-1,0
-158.91,4.41,-27.30,638,-3788,7323,0,-1,-1
-158.91,4.41,-27.30,639,-3789,7329,0,0,-1
-158.91,4.41,-27.29,644,-3788,7332,0,0,-1
-158.91,4.41,-27.29,637,-3785,7338,0,-1,0
-158.91,4.41,-27.29,640,-3782,7338,-1,-1,0
-158.91,4.41,-27.30,650,-3779,7329,-1,0,0
-158.91,4.41,-27.29,651,-3775,7339,-1,0,0
-158.92,4.41,-27.31,641,-3782,7323,-1,-1,0
-158.92,4.40,-27.31,626,-3783,7318,-1,0,-1
-158.92,4.39,-27.32,631,-3783,7320,-1,0,0
-158.92,4.39,-27.32,623,-3796,7308,0,0,-1
-158.91,4.39,-27.32,624,-3802,7310,-1,0,-1
-158.92,4.38,-27.32,634,-3797,7304,-1,0,-1
-158.91,4.37,-27.31,622,-3796,7330,0,0,-1
-158.91,4.36,-27.31,630,-3791,7323,-1,0,0
-158.92,4.35,-27.31,635,-3769,7337,0,0,0
-158.92,4.34,-27.31,628,-3768,7330,-1,0,0
-158.93,4.34,-27.33,613,-3800,7314,0,-1,0
-158.95,4.34,-27.32,639,-3754,7352,-2,-1,0
-158.96,4.34,-27.33,611,-3761,7337,0,-1,0
-158.98,4.35,-27.35,652,-3752,7327,-2,-1,0
-158.99,4.35,-27.37,625,-3773,7320,-1,-1,0
-159.00,4.35,-27.38,628,-3771,7327,-1,-1,0
-159.01,4.34,-27.40,654,-3810,7305,-1,0,0
-159.01,4.33,-27.39,628,-3772,7333,-1,0,0
-159.02,4.31,-27.40,629,-3767,7345,-2,0,0
-159.03,4.31,-27.43,623,-3792,7319,-1,0,0
-159.05,4.28,-27.45,605,-3795,7317,-1,0,0
-159.06,4.29,-27.47,624,-3819,7301,-1,-1,0
-159.06,4.28,-27.47,613,-3816,7304,-1,-1,0
-159.06,4.28,-27.48,625,-3817,7312,-1,0,0
-159.07,4.27,-27.48,619,-3825,7318,-1,0,0
-159.07,4.27,-27.49,624,-3819,7316,0,0,0
-159.08,4.26,-27.50,632,-3826,7307,-1,0,0
-159.08,4.25,-27.50,604,-3826,7303,0,0,-1
-159.08,4.24,-27.49,615,-3832,7297,0,0,0
-159.08,4.22,-27.49,596,-3834,7298,0,0,-1
-159.07,4.21,-27.47,595,-3803,7311,0,0,-1
-159.06,4.21,-27.45,622,-3805,7322,0,0,-1
-159.06,4.21,-27.44,615,-3783,7305,-1,0,0
-159.06,4.20,-27.45,621,-3802,7328,-1,0,-1
-159.06,4.20,-27.43,628,-3761,7334,-1,-1,0
-159.07,4.19,-27.44,618,-3782,7333,0,0,0
-159.08,4.18,-27.44,626,-3810,7326,-1,0,0
-159.07,4.16,-27.44,612,-3791,7291,0,1,-1
-159.07,4.14,-27.43,599,-3784,7370,-2,-1,0
-159.07,4.13,-27.44,590,-3813,7331,0,1,-1
-159.07,4.13,-27.44,589,-3833,7284,0,0,-1
-159.07,4.12,-27.42,587,-3780,7365,-2,-2,0
-159.07,4.12,-27.44,606,-3809,7288,2,1,-1
-159.06,4.10,-27.44,593,-3827,7305,0,0,-1
-159.06,4.10,-27.42,590,-3810,7300,-1,-1,0
-159.05,4.08,-27.39,608,-3786,7348,1,1,-1
-159.05,4.09,-27.41,604,-3819,7274,-1,-1,0
-159.04,4.05,-27.37,567,-3808,7366,1,0,-1
-159.04,4.06,-27.38,602,-3796,7306,-1,0,0
-159.04,4.05,-27.36,578,-3781,7353,-1,-1,-1
-159.03,4.05,-27.36,580,-3779,7358,-1,-1,0
-159.03,4.04,-27.36,584,-3793,7327,1,1,-1
-159.02,4.03,-27.36,585,-3781,7317,-2,0,0
-159.02,4.02,-27.36,579,-3787,7316,0,0,-1
-159.01,4.02,-27.35,577,-3816,7365,0,0,-1
-159.01,4.01,-27.36,574,-3805,7310,-1,0,-1
-159.01,4.01,-27.36,586,-3787,7351,-2,-1,0
-159.01,4.01,-27.35,598,-3808,7314,1,1,-1
-159.01,4.00,-27.36,581,-3803,7283,-1,-1,0
-159.00,3.99,-27.32,580,-3782,7352,0,0,-1
-159.01,3.99,-27.33,571,-3781,7333,-1,-1,0
-159.00,3.97,-27.31,586,-3764,7346,0,1,-1
-159.00,3.98,-27.31,588,-3764,7382,-2,-1,0
-159.00,3.97,-27.33,588,-3785,7284,2,1,-1
-159.00,3.97,-27.34,589,-3794,7343,-3,-2,0
-158.99,3.96,-27.33,554,-3802,7332,1,0,-1
-159.00,3.95,-27.35,572,-3802,7282,-1,0,-1
-159.00,3.95,-27.33,577,-3793,7365,-1,-1,0
-159.00,3.95,-27.34,574,-3801,7327,-1,0,-1
-158.99,3.94,-27.33,576,-3806,7342,0,0,-1
-158.99,3.93,-27.33,586,-3774,7334,-1,0,0
-158.99,3.93,-27.34,565,-3803,7333,0,0,-1
-158.99,3.92,-27.33,585,-3799,7323,0,0,0
-159.00,3.91,-27.33,575,-3784,7321,-1,-1,0
-158.98,3.90,-27.32,549,-3777,7340,0,0,-1
-158.99,3.90,-27.33,566,-3791,7322,-1,-1,0
-158.99,3.89,-27.32,560,-3763,7339,-1,0,0
-158.99,3.89,-27.33,560,-3790,7328,0,0,-1
-158.99,3.87,-27.33,553,-3787,7331,-1,-1,0
-158.99,3.88,-27.34,560,-3797,7336,0,0,0
-159.00,3.86,-27.34,542,-3765,7313,-1,0,0
-159.00,3.85,-27.35,560,-3779,7351,-1,0,-1
-159.01,3.85,-27.38,538,-3805,7289,-2,-1,0
-159.00,3.84,-27.37,569,-3775,7359,-1,0,0
-159.00,3.84,-27.39,543,-3828,7323,1,0,-1
-159.00,3.84,-27.39,553,-3797,7296,-1,-1,0
-159.00,3.84,-27.37,540,-3784,7374,-1,-1,0
-159.00,3.84,-27.37,616,-3793,7316,1,2,-1
-159.01,3.82,-27.37,550,-3785,7357,-1,-2,0
-159.01,3.81,-27.36,557,-3783,7329,0,1,-1
-159.02,3.81,-27.39,545,-3793,7305,-2,-1,0
-159.01,3.78,-27.37,534,-3784,7349,0,0,0
-159.03,3.78,-27.37,520,-3801,7340,1,0,0
-159.03,3.78,-27.39,552,-3790,7309,-2,-1,-1
-159.03,3.76,-27.37,516,-3779,7394,-2,-1,0
-159.03,3.77,-27.40,558,-3819,7288,2,1,-1
-159.03,3.76,-27.38,541,-3769,7343,-2,-1,0
-159.03,3.76,-27.39,568,-3793,7336,1,0,0
-159.04,3.75,-27.39,535,-3808,7322,0,0,-1
-159.03,3.73,-27.38,526,-3783,7318,0,0,0
-159.03,3.74,-27.39,542,-3792,7335,-1,-1,-1
-159.03,3.73,-27.39,529,-3800,7321,0,0,-1
-159.02,3.74,-27.38,547,-3796,7331,-1,0,-1
-159.02,3.74,-27.38,539,-3783,7344,-1,-1,0
-159.03,3.74,-27.39,539,-3780,7314,0,0,-1
-159.02,3.74,-27.39,538,-3787,7326,-1,-1,0
-159.03,3.74,-27.39,541,-3805,7323,-1,-1,0
-159.02,3.75,-27.41,533,-3816,7336,-1,-1,-1
-159.02,3.76,-27.41,542,-3826,7301,0,-1,-1
-159.02,3.77,-27.41,545,-3821,7312,0,-1,-1
-159.01,3.77,-27.40,552,-3809,7334,0,0,-1
-159.00,3.77,-27.39,555,-3795,7338,0,0,-1
-159.00,3.77,-27.39,546,-3799,7329,0,-1,-1
-159.00,3.78,-27.39,551,-3801,7321,0,-1,-1
-159.00,3.78,-27.39,550,-3796,7323,0,-1,-1
-158.99,3.79,-27.38,552,-3794,7327,-1,-1,0
-159.00,3.78,-27.38,554,-3798,7333,0,0,-1
-159.00,3.79,-27.38,547,-3794,7342,0,-1,0
-158.99,3.79,-27.38,538,-3795,7334,0,-1,-1
-158.99,3.80,-27.38,540,-3804,7321,0,-1,-1
-158.99,3.81,-27.38,551,-3803,7311,0,-1,-1
-158.98,3.81,-27.37,557,-3797,7324,0,-1,-1
-158.98,3.82,-27.37,559,-3800,7329,0,-1,-1
-158.98,3.83,-27.37,565,-3798,7331,0,-1,0
-158.98,3.83,-27.36,560,-3795,7329,0,-1,0
-158.98,3.84,-27.35,558,-3789,7340,0,-1,0
-158.97,3.84,-27.35,551,-3785,7330,0,-1,-1
-158.97,3.84,-27.35,554,-3785,7327,-1,-1,-1
-158.97,3.84,-27.35,550,-3788,7326,0,0,-1
-158.97,3.84,-27.35,546,-3792,7324,0,0,-1
-158.97,3.84,-27.35,554,-3789,7320,0,-1,-1
-158.97,3.84,-27.35,560,-3788,7326,0,-1,-1
-158.96,3.85,-27.34,573,-3795,7330,0,-1,-1
-158.96,3.86,-27.34,573,-3801,7335,0,-1,-1
-158.96,3.86,-27.33,569,-3788,7338,0,0,0
-158.95,3.86,-27.33,561,-3781,7334,-1,0,0
-158.96,3.85,-27.33,551,-3776,7317,-1,0,0
-158.96,3.85,-27.33,542,-3780,7324,-1,-1,-1
-158.96,3.85,-27.33,542,-3786,7326,-1,-1,0
-158.96,3.86,-27.33,548,-3809,7338,0,-1,-1
-158.95,3.86,-27.33,559,-3805,7354,0,-1,-1
-158.95,3.86,-27.33,559,-3793,7346,0,-1,-1
-158.95,3.87,-27.33,572,-3788,7337,-1,-1,-1
-158.94,3.87,-27.32,569,-3776,7326,0,0,0
-158.94,3.87,-27.32,564,-3777,7326,-1,0,0
-158.95,3.86,-27.32,564,-3785,7325,-1,0,0
-158.95,3.86,-27.32,558,-3783,7318,-1,0,0
-158.95,3.86,-27.32,555,-3787,7333,-1,-1,0
-158.95,3.86,-27.32,549,-3796,7334,0,-1,-1
-158.95,3.86,-27.32,547,-3796,7329,-1,-1,-1
-158.95,3.87,-27.32,553,-3801,7325,0,-1,-1
-158.95,3.87,-27.32,558,-3797,7322,0,-1,-1
-158.95,3.88,-27.32,566,-3789,7320,0,0,-1
-158.95,3.88,-27.32,565,-3788,7332,-1,-1,0
-158.95,3.88,-27.32,566,-3792,7335,-1,-1,0
-158.95,3.88,-27.32,568,-3794,7333,-1,0,0
-158.95,3.88,-27.32,564,-3786,7337,-1,-1,0
-158.95,3.88,-27.32,567,-3779,7323,-1,-1,0
-158.95,3.88,-27.32,548,-3781,7325,-1,-1,-1
-158.95,3.88,-27.32,551,-3782,7322,0,-1,-1
-158.95,3.88,-27.32,560,-3784,7326,-1,0,0
-158.95,3.88,-27.32,561,-3790,7326,-1,-1,-1
-158.95,3.88,-27.32,561,-3787,7331,0,-1,0
-158.95,3.88,-27.32,562,-3796,7333,0,-1,-1
-158.95,3.88,-27.32,567,-3796,7348,0,0,-1
-158.94,3.88,-27.31,555,-3786,7345,0,-1,-1
-158.94,3.89,-27.31,564,-3778,7337,-1,-1,-1
-158.94,3.90,-27.31,571,-3777,7330,-1,-1,-1
-158.94,3.90,-27.31,569,-3770,7342,-1,-1,0
-158.94,3.90,-27.31,567,-3769,7341,-1,-1,0
-158.94,3.90,-27.31,567,-3777,7335,-1,0,0
-158.95,3.90,-27.31,560,-3791,7332,-1,0,0
-158.95,3.89,-27.31,552,-3784,7333,0,-1,0
-158.95,3.89,-27.31,561,-3785,7331,-1,-1,0
-158.95,3.90,-27.32,560,-3792,7328,-1,-1,-1
-158.94,3.90,-27.32,562,-3794,7329,0,-1,-1
-158.94,3.90,-27.31,569,-3790,7329,0,-1,0
-158.94,3.90,-27.31,579,-3791,7342,-1,0,-1
-158.94,3.90,-27.31,579,-3782,7337,-1,0,0
-158.94,3.90,-27.31,564,-3778,7329,-1,0,0
-158.94,3.89,-27.31,555,-3789,7331,-1,0,0
-158.94,3.89,-27.31,560,-3787,7330,0,-1,-1
-158.94,3.90,-27.31,566,-3786,7334,0,-1,-1
-158.94,3.90,-27.31,579,-3782,7335,-1,-1,0
-158.94,3.90,-27.31,577,-3779,7331,-1,0,0
-158.94,3.90,-27.31,563,-3783,7325,-1,0,0
-158.94,3.89,-27.32,546,-3785,7323,-1,-1,0
-158.94,3.89,-27.32,551,-3786,7325,-1,-1,0
-158.94,3.89,-27.33,552,-3786,7331,-1,-1,-1
-158.94,3.89,-27.33,553,-3797,7338,-1,-1,-1
-158.94,3.90,-27.33,566,-3796,7337,-1,-1,0
-158.94,3.91,-27.33,573,-3810,7333,0,-1,-1
-158.94,3.91,-27.33,578,-3789,7334,0,-1,0
-158.94,3.91,-27.32,574,-3778,7339,0,0,0
-158.94,3.91,-27.32,569,-3785,7326,0,-1,0
-158.94,3.91,-27.32,572,-3780,7322,-1,-1,0
-158.94,3.91,-27.32,571,-3778,7326,0,0,0
-158.95,3.91,-27.32,564,-3785,7332,-1,-1,0
-158.95,3.91,-27.32,563,-3789,7323,-1,-1,0
-158.96,3.91,-27.33,561,-3796,7324,-1,-1,0
-158.96,3.92,-27.34,568,-3801,7323,0,-1,0
-158.96,3.92,-27.34,570,-3792,7316,-1,-1,0
-158.96,3.92,-27.34,571,-3791,7316,-1,-1,0
-158.96,3.92,-27.34,569,-3786,7328,-1,-1,0
-158.96,3.92,-27.34,568,-3788,7329,-1,-1,0
-158.96,3.92,-27.35,567,-3799,7331,-1,-1,0
-158.97,3.92,-27.35,569,-3799,7317,-1,-1,0
-158.97,3.92,-27.35,574,-3797,7327,-1,-1,0
-158.98,3.92,-27.35,576,-3791,7321,-1,0,0
-158.98,3.92,-27.35,566,-3798,7325,-1,0,0
-158.98,3.92,-27.35,568,-3799,7318,-1,0,0
-158.98,3.92,-27.35,559,-3794,7325,0,0,0
-158.99,3.91,-27.35,558,-3794,7316,-1,-1,0
-158.98,3.91,-27.35,555,-3789,7324,0,-1,0
-158.98,3.91,-27.35,556,-3785,7341,-1,-1,0
-158.98,3.91,-27.35,566,-3791,7344,0,0,0
-158.98,3.91,-27.35,568,-3781,7341,0,-1,0
-158.99,3.91,-27.35,564,-3780,7329,-1,-1,0
-158.99,3.91,-27.35,563,-3786,7325,-1,0,0
-158.99,3.90,-27.35,570,-3791,7326,-1,0,-1
-158.99,3.90,-27.36,570,-3797,7308,0,0,0
-158.99,3.89,-27.36,570,-3800,7318,0,0,-1
-158.98,3.88,-27.35,560,-3791,7329,0,0,-1
-158.99,3.87,-27.35,564,-3806,7323,0,0,-1
-158.98,3.87,-27.35,559,-3801,7331,0,0,-1
-158.97,3.86,-27.33,554,-3789,7328,0,0,-1
-158.97,3.86,-27.33,544,-3792,7336,-1,-1,-1
-158.97,3.87,-27.34,555,-3797,7326,0,-1,-1
-158.96,3.88,-27.34,570,-3794,7339,0,0,-1
-158.97,3.87,-27.33,559,-3795,7335,0,0,-1
-158.97,3.87,-27.33,562,-3780,7329,-1,0,-1
-158.96,3.87,-27.33,564,-3791,7329,0,0,-1
-158.96,3.87,-27.33,566,-3798,7337,0,0,-1
-158.95,3.87,-27.32,566,-3794,7345,0,-1,-1
-158.94,3.87,-27.31,563,-3786,7350,0,0,-1
-158.94,3.87,-27.31,559,-3786,7336,0,0,-1
-158.94,3.87,-27.30,563,-3782,7332,0,0,0
-158.94,3.87,-27.30,560,-3787,7330,0,0,0
-158.95,3.86,-27.30,548,-3783,7328,0,0,0
-158.95,3.86,-27.30,542,-3781,7320,-1,-1,0
-158.94,3.87,-27.30,540,-3794,7317,0,-1,-1
-158.94,3.87,-27.30,544,-3793,7315,0,-1,-1
-158.94,3.87,-27.30,555,-3787,7327,0,-1,-1
-158.93,3.88,-27.29,580,-3782,7343,-1,-1,-1
-158.93,3.88,-27.30,591,-3786,7333,-1,0,0
-158.93,3.88,-27.30,587,-3796,7318,0,0,0
-158.93,3.88,-27.30,571,-3787,7323,0,0,-1
-158.93,3.87,-27.29,561,-3776,7333,-1,0,0
-158.93,3.86,-27.29,554,-3787,7333,-1,0,0
-158.93,3.86,-27.29,548,-3796,7340,0,0,-1
-158.93,3.86,-27.29,536,-3790,7337,0,-1,-1
-158.93,3.86,-27.29,538,-3793,7337,0,-1,-1
-158.93,3.87,-27.28,548,-3790,7339,0,-1,-1
-158.93,3.87,-27.28,566,-3785,7340,0,-1,-1
-158.92,3.87,-27.27,567,-3781,7336,0,0,0
-158.92,3.87,-27.27,564,-3780,7329,0,0,-1
-158.92,3.87,-27.27,559,-3774,7330,0,0,0
-158.93,3.87,-27.27,558,-3783,7324,-1,-1,0
-158.92,3.87,-27.27,564,-3782,7339,0,-1,-1
-158.92,3.87,-27.27,555,-3781,7333,0,0,0
-158.92,3.87,-27.27,552,-3778,7335,-1,-1,-1
-158.92,3.87,-27.27,558,-3781,7329,-1,-1,-1
-158.92,3.87,-27.27,564,-3781,7323,0,0,-1
-158.92,3.87,-27.27,566,-3780,7321,-1,-1,0
-158.92,3.87,-27.27,567,-3784,7329,0,0,0
-158.93,3.86,-27.27,563,-3788,7337,0,-1,0
-158.92,3.87,-27.27,558,-3794,7343,0,0,-1
-158.92,3.86,-27.26,557,-3783,7347,-1,0,0
-158.93,3.86,-27.26,558,-3780,7331,0,-1,0
-158.93,3.86,-27.26,557,-3785,7331,0,-1,0
-158.93,3.85,-27.26,561,-3784,7331,0,0,-1
-158.92,3.86,-27.26,563,-3785,7332,-1,0,0
-158.93,3.86,-27.26,558,-3793,7334,-1,0,0
-158.93,3.85,-27.26,562,-3786,7333,-1,0,0
-158.93,3.84,-27.27,554,-3780,7332,-1,0,0
-158.93,3.84,-27.27,554,-3770,7333,-1,0,0
-158.93,3.84,-27.27,560,-3787,7329,-1,-1,0
-158.93,3.84,-27.27,558,-3790,7336,0,0,0
-158.93,3.84,-27.27,556,-3789,7330,0,0,0
-158.93,3.84,-27.27,554,-3784,7329,-1,-1,-1
-158.93,3.84,-27.27,557,-3783,7321,0,0,-1
-158.93,3.84,-27.27,569,-3781,7322,0,0,-1
-158.92,3.85,-27.26,570,-3775,7339,0,0,0
-158.93,3.84,-27.26,565,-3768,7335,-1,0,0
-158.93,3.84,-27.27,561,-3770,7331,-1,0,0
-158.93,3.84,-27.27,545,-3780,7320,-1,-1,0
-158.93,3.84,-27.27,553,-3788,7329,-1,-1,-1
-158.93,3.84,-27.27,554,-3797,7335,-1,-1,-1
-158.93,3.85,-27.27,566,-3792,7339,-1,-1,0
-158.93,3.85,-27.27,571,-3785,7328,0,-1,-1
-158.93,3.85,-27.27,567,-3782,7336,0,0,0
-158.93,3.85,-27.27,559,-3781,7333,-1,0,0
-158.93,3.84,-27.27,551,-3782,7334,-1,0,0
-158.93,3.85,-27.28,544,-3781,7338,-1,-1,0
-158.93,3.85,-27.29,551,-3795,7327,-1,-1,-1
-158.93,3.86,-27.29,562,-3803,7349,0,-1,-1
-158.93,3.87,-27.28,561,-3797,7347,0,-1,-1
-158.93,3.87,-27.29,566,-3790,7342,-1,-1,-1
-158.92,3.89,-27.29,580,-3785,7326,0,-1,-1
-158.92,3.89,-27.29,582,-3787,7320,0,0,0
-158.92,3.88,-27.28,570,-3776,7325,-1,0,0
-158.92,3.88,-27.28,564,-3777,7327,-1,-1,0
-158.93,3.88,-27.28,558,-3777,7343,-1,-1,0
-158.93,3.88,-27.28,556,-3781,7345,0,-1,-1
-158.93,3.88,-27.28,556,-3782,7350,-1,-1,-1
-158.92,3.89,-27.28,556,-3783,7351,-1,-1,0
-158.92,3.89,-27.28,555,-3782,7338,-1,-1,-1
-158.92,3.89,-27.28,567,-3775,7330,-1,-1,0
-158.92,3.90,-27.28,566,-3781,7334,0,0,0
-158.92,3.90,-27.28,561,-3784,7337,0,-1,0
-158.91,3.90,-27.28,568,-3786,7345,-1,-1,0
-158.91,3.90,-27.28,567,-3778,7332,-1,-1,0
-158.92,3.90,-27.28,563,-3781,7331,-1,-1,0
-158.92,3.91,-27.29,572,-3784,7315,-1,-1,0
-158.92,3.91,-27.29,569,-3796,7328,-1,-1,-1
-158.92,3.91,-27.29,565,-3784,7331,0,-1,0
-158.92,3.91,-27.29,559,-3790,7331,-1,-1,-1
-158.92,3.91,-27.29,561,-3791,7334,0,-1,-1
-158.92,3.91,-27.29,568,-3792,7332,0,-1,-1
-158.92,3.92,-27.28,561,-3790,7334,0,-1,-1
-158.92,3.92,-27.28,564,-3784,7337,0,-1,0
-158.92,3.92,-27.28,566,-3783,7330,0,-1,0
-158.92,3.92,-27.28,567,-3781,7322,0,-1,0
-158.92,3.92,-27.28,564,-3767,7333,-1,-1,0
-158.92,3.92,-27.28,566,-3769,7339,-1,-1,0
-158.92,3.92,-27.28,567,-3780,7342,-1,-1,0
-158.92,3.92,-27.29,565,-3782,7336,-1,-1,0
-158.92,3.92,-27.29,567,-3786,7332,-1,-1,0
-158.92,3.92,-27.29,567,-3788,7334,-1,-1,0
-158.92,3.92,-27.29,568,-3790,7332,-1,-1,0
-158.92,3.92,-27.29,574,-3787,7335,0,-1,0
-158.92,3.92,-27.29,559,-3782,7337,0,-1,0
-158.92,3.93,-27.29,563,-3779,7336,0,-1,-1
-158.92,3.93,-27.29,573,-3774,7328,-1,-1,0
-158.92,3.93,-27.29,575,-3779,7324,-1,0,-1
-158.92,3.93,-27.29,578,-3780,7309,-1,-1,0
-158.92,3.93,-27.29,570,-3789,7320,0,0,-1
-158.92,3.93,-27.29,565,-3781,7327,0,-1,-1
-158.92,3.93,-27.29,567,-3777,7343,-1,-1,-1
-158.92,3.94,-27.29,577,-3777,7333,-1,-1,-1
-158.92,3.94,-27.29,583,-3774,7333,-1,0,0
-158.92,3.94,-27.29,571,-3767,7327,-1,0,0
-158.92,3.93,-27.30,567,-3773,7314,-1,0,0
-158.92,3.93,-27.31,562,-3785,7320,-1,-1,0
-158.92,3.93,-27.31,567,-3798,7319,-1,-1,-1
-158.92,3.93,-27.31,568,-3808,7337,-1,-1,-1
-158.92,3.94,-27.31,572,-3805,7343,0,-1,-1
-158.92,3.95,-27.31,580,-3801,7335,0,-1,-1
-158.92,3.95,-27.31,583,-3795,7334,0,0,0
-158.92,3.95,-27.30,586,-3787,7328,0,0,0
-158.92,3.95,-27.30,583,-3783,7329,0,0,0
-158.92,3.94,-27.30,574,-3791,7334,-1,0,0
-158.92,3.93,-27.31,565,-3791,7338,-1,0,0
-158.93,3.92,-27.31,566,-3794,7327,-1,0,0
-158.93,3.93,-27.32,564,-3797,7335,-1,-1,0
-158.93,3.93,-27.32,562,-3795,7332,-1,-1,-1
-158.93,3.93,-27.33,567,-3799,7323,-1,-1,-1
-158.92,3.94,-27.33,576,-3803,7324,0,-1,-1
-158.92,3.94,-27.33,590,-3791,7315,-1,0,0
-158.92,3.94,-27.33,586,-3790,7331,0,0,0
-158.92,3.94,-27.32,581,-3785,7331,-1,0,0
-158.93,3.93,-27.32,570,-3789,7347,0,0,0
-158.93,3.93,-27.31,563,-3779,7345,0,0,0
-158.93,3.92,-27.31,561,-3774,7333,-1,-1,0
-158.93,3.93,-27.31,560,-3782,7326,-1,-1,-1
-158.93,3.93,-27.32,577,-3787,7321,-1,-1,-1
-158.93,3.93,-27.33,577,-3782,7319,-1,0,0
-158.93,3.94,-27.33,572,-3784,7323,-1,0,0
-158.93,3.94,-27.33,571,-3791,7331,0,-1,0
-158.94,3.93,-27.34,582,-3794,7338,-1,0,0
-158.94,3.93,-27.33,573,-3784,7344,0,0,0
-158.94,3.92,-27.33,560,-3784,7326,-1,0,0
-158.94,3.92,-27.34,561,-3790,7325,-1,-1,0
-158.94,3.92,-27.34,570,-3793,7323,0,-1,0
-158.94,3.92,-27.34,568,-3787,7334,0,-1,0
-158.95,3.93,-27.34,575,-3779,7337,-1,-1,0
-158.95,3.93,-27.34,572,-3791,7326,-1,-1,0
-158.95,3.93,-27.35,571,-3799,7325,-1,0,0
-158.95,3.93,-27.35,573,-3794,7317,0,0,-1
-158.95,3.93,-27.35,569,-3787,7314,-1,-1,0
-158.95,3.93,-27.35,568,-3787,7323,-1,-1,0
-158.95,3.93,-27.35,567,-3791,7321,0,-1,-1
-158.95,3.93,-27.35,569,-3789,7336,-1,0,-1
-158.95,3.93,-27.34,568,-3779,7341,-1,-1,0
-158.95,3.93,-27.35,567,-3779,7334,-1,-1,0
-158.95,3.94,-27.36,565,-3803,7325,0,0,0
-158.95,3.93,-27.35,564,-3797,7322,0,-1,-1
-158.95,3.94,-27.35,563,-3790,7327,0,-1,-1
-158.95,3.94,-27.35,571,-3797,7335,-1,-1,-1
-158.94,3.95,-27.35,576,-3790,7333,-1,-1,0
-158.95,3.94,-27.35,569,-3786,7324,-1,0,0
-158.95,3.94,-27.36,572,-3788,7328,-1,-1,0
-158.95,3.94,-27.36,562,-3780,7317,-1,-1,0
-158.95,3.94,-27.37,557,-3794,7316,-1,-1,0
-158.95,3.94,-27.37,562,-3800,7330,-1,-1,-1
-158.95,3.95,-27.38,564,-3811,7321,0,-1,-1
-158.95,3.97,-27.37,577,-3810,7320,0,-1,-1
-158.95,3.97,-27.37,584,-3809,7324,0,-1,-1
-158.95,3.98,-27.37,595,-3807,7324,0,-1,0
-158.94,3.99,-27.37,598,-3795,7329,0,0,0
-158.94,3.98,-27.36,585,-3788,7336,0,0,0
-158.95,3.98,-27.36,580,-3778,7334,-1,0,0
-158.95,3.98,-27.36,570,-3780,7334,-1,0,0
-158.95,3.98,-27.36,570,-3793,7333,-1,-1,0
-158.95,3.98,-27.37,571,-3795,7332,-1,-1,-1
-158.95,3.99,-27.37,571,-3794,7328,-1,-1,-1
-158.94,3.99,-27.38,582,-3794,7325,-1,-1,0
-158.94,4.00,-27.37,588,-3790,7321,-1,-1,-1
-158.94,4.00,-27.37,594,-3795,7323,-1,0,0
-158.94,3.99,-27.38,591,-3794,7323,-1,0,0
-158.95,3.99,-27.38,577,-3788,7324,-1,0,0
-158.95,3.99,-27.38,574,-3797,7306,0,-1,0
-158.95,3.98,-27.38,571,-3810,7331,0,0,-1
-158.95,3.98,-27.36,565,-3797,7339,0,0,-1
-158.95,3.98,-27.36,563,-3796,7335,0,-1,-1
-158.94,3.98,-27.36,576,-3794,7326,0,0,-1
-158.94,3.98,-27.36,579,-3793,7325,0,0,-1
-158.94,3.98,-27.36,586,-3782,7327,0,0,0
-158.94,3.98,-27.36,589,-3795,7335,0,0,0
-158.94,3.98,-27.35,582,-3794,7335,0,0,0
-158.94,3.98,-27.35,574,-3799,7330,0,0,0
-158.94,3.98,-27.35,572,-3793,7333,-1,0,-1
-158.94,3.98,-27.35,564,-3793,7332,-1,0,0
-158.94,3.98,-27.35,572,-3797,7330,-1,-1,-1
-158.93,3.98,-27.35,583,-3796,7332,-1,-1,-1
-158.93,3.98,-27.35,585,-3801,7337,0,0,-1
-158.93,3.98,-27.35,579,-3799,7325,0,0,0
-158.93,3.98,-27.35,582,-3801,7328,-1,0,0
-158.93,3.98,-27.35,575,-3796,7330,0,0,0
-158.93,3.97,-27.34,570,-3792,7327,0,0,0
-158.93,3.97,-27.34,572,-3791,7332,0,0,-1
-158.93,3.97,-27.34,565,-3790,7321,0,-1,-1
-158.92,3.97,-27.34,570,-3795,7326,0,0,-1
-158.92,3.97,-27.34,580,-3790,7331,0,0,0
-158.92,3.97,-27.34,582,-3785,7326,0,0,0
-158.92,3.97,-27.33,575,-3785,7327,0,0,0
-158.93,3.96,-27.33,576,-3792,7325,-1,0,0
-158.93,3.96,-27.32,573,-3789,7335,0,0,0
-158.93,3.96,-27.32,557,-3778,7325,0,-1,-1
-158.93,3.96,-27.32,558,-3781,7329,0,-1,-1
-158.92,3.97,-27.31,577,-3784,7341,0,-1,-1
-158.92,3.97,-27.31,587,-3782,7351,0,0,0
-158.92,3.97,-27.31,587,-3774,7346,-1,0,0
-158.92,3.96,-27.32,584,-3780,7331,-1,0,0
-158.92,3.95,-27.32,571,-3778,7325,-1,0,0
-158.92,3.95,-27.33,554,-3789,7330,-1,0,-1
-158.92,3.95,-27.33,558,-3790,7332,-1,-1,-1
-158.92,3.96,-27.33,552,-3796,7325,-1,-1,-1
-158.92,3.96,-27.33,566,-3798,7326,0,-1,-1
-158.91,3.96,-27.32,583,-3793,7328,0,-1,-1
-158.91,3.97,-27.31,589,-3788,7323,0,0,-1
-158.91,3.97,-27.31,598,-3777,7322,0,0,0
-158.91,3.97,-27.30,596,-3777,7319,0,0,0
-158.91,3.96,-27.29,591,-3775,7325,0,0,0
-158.91,3.95,-27.29,575,-3770,7327,-1,0,0
-158.91,3.94,-27.29,562,-3776,7337,-1,0,0
-158.92,3.94,-27.30,555,-3774,7348,-1,-1,-1
-158.92,3.94,-27.30,559,-3779,7337,-1,-1,0
-158.92,3.95,-27.30,564,-3787,7320,-1,-1,0
-158.92,3.95,-27.30,572,-3800,7324,0,0,0
-158.92,3.94,-27.30,571,-3793,7322,-1,0,-1
-158.92,3.94,-27.30,572,-3796,7328,0,0,-1
-158.92,3.94,-27.31,562,-3798,7321,0,0,-1
-158.92,3.93,-27.31,563,-3792,7322,0,0,0
-158.91,3.94,-27.30,562,-3785,7335,0,-1,0
-158.91,3.94,-27.29,572,-3784,7345,0,-1,0
-158.92,3.94,-27.29,574,-3780,7337,-1,0,0
-158.92,3.94,-27.29,578,-3783,7337,0,0,0
-158.92,3.93,-27.29,582,-3790,7342,0,0,0
-158.92,3.93,-27.29,573,-3789,7342,0,0,0
-158.92,3.92,-27.29,570,-3786,7338,0,0,0
-158.92,3.92,-27.29,572,-3783,7336,0,0,0
-158.92,3.92,-27.29,564,-3776,7340,-1,0,0
-158.93,3.91,-27.29,558,-3775,7341,-1,-1,0
-158.93,3.92,-27.30,562,-3785,7339,-1,0,0
-158.93,3.92,-27.30,571,-3789,7335,-1,-1,0
-158.93,3.92,-27.30,568,-3791,7335,-1,0,0
-158.93,3.92,-27.31,578,-3797,7327,-1,0,0
-158.93,3.91,-27.31,573,-3800,7330,-1,0,0
-158.93,3.91,-27.31,570,-3807,7322,0,0,0
-158.93,3.90,-27.30,557,-3796,7328,0,0,0
-158.93,3.90,-27.30,545,-3790,7329,0,-1,-1
-158.92,3.91,-27.29,550,-3780,7343,0,-1,-1
-158.92,3.92,-27.29,559,-3774,7331,0,-1,-1
-158.92,3.92,-27.29,567,-3798,7329,-1,-1,-1
-158.91,3.92,-27.29,573,-3810,7324,0,0,-1
-158.91,3.91,-27.28,570,-3787,7331,0,0,-1
-158.91,3.91,-27.27,569,-3758,7354,-1,0,0
-158.91,3.91,-27.28,575,-3769,7344,-1,0,0
-158.91,3.91,-27.30,561,-3776,7343,-1,-1,0
-158.92,3.91,-27.31,562,-3792,7332,-1,-1,0
-158.91,3.92,-27.31,565,-3788,7324,-1,-1,-1
-158.91,3.92,-27.32,577,-3793,7333,-1,-1,-1
-158.91,3.93,-27.32,587,-3796,7347,-1,0,-1
-158.91,3.92,-27.32,575,-3798,7339,0,0,0
-158.91,3.92,-27.32,566,-3788,7345,-1,0,0
-158.91,3.92,-27.32,558,-3787,7321,-1,0,0
-158.92,3.91,-27.33,552,-3787,7324,-1,-1,0
-158.93,3.92,-27.33,548,-3792,7325,-1,-1,0
-158.93,3.93,-27.33,550,-3811,7328,0,-1,-1
-158.92,3.94,-27.32,562,-3808,7335,0,-1,-1
-158.91,3.95,-27.30,569,-3794,7344,0,-1,-1
-158.91,3.95,-27.30,585,-3786,7330,0,-1,-1
-158.90,3.95,-27.29,598,-3776,7323,0,0,0
-158.91,3.96,-27.28,591,-3770,7345,0,0,0
-158.91,3.95,-27.28,573,-3778,7350,-1,0,0
-158.92,3.95,-27.28,566,-3775,7337,-1,-1,0
-158.92,3.95,-27.29,561,-3774,7340,-1,-1,0
-158.92,3.95,-27.30,559,-3787,7346,-1,-1,0
-158.92,3.95,-27.30,559,-3792,7337,-1,-1,-1
-158.92,3.96,-27.31,564,-3789,7323,-1,-1,-1
-158.92,3.97,-27.31,572,-3790,7312,-1,-1,-1
-158.92,3.97,-27.31,577,-3787,7317,-1,-1,0
-158.92,3.97,-27.32,582,-3794,7326,0,0,0
-158.92,3.97,-27.31,586,-3800,7338,0,0,0
-158.92,3.97,-27.31,570,-3795,7340,0,-1,0
-158.92,3.96,-27.31,565,-3784,7344,0,-1,0
-158.92,3.97,-27.30,566,-3772,7340,0,-1,0
-158.92,3.97,-27.30,569,-3771,7339,0,-1,-1
-158.92,3.97,-27.30,569,-3764,7326,-1,-1,0
-158.92,3.97,-27.30,576,-3781,7331,-1,0,-1
-158.92,3.97,-27.30,573,-3779,7340,-1,-1,0
-158.92,3.97,-27.30,563,-3785,7344,-1,-1,-1
-158.92,3.97,-27.31,561,-3794,7334,-1,-1,-1
-158.92,3.97,-27.31,571,-3791,7327,0,-1,-1
-158.91,3.98,-27.31,573,-3782,7336,-1,-1,-1
-158.91,3.98,-27.31,575,-3783,7333,-1,-1,0
-158.91,3.98,-27.31,585,-3787,7321,-1,-1,0
-158.92,3.98,-27.31,578,-3784,7323,-1,0,0
-158.92,3.98,-27.31,570,-3787,7340,-1,0,0
-158.92,3.97,-27.31,566,-3787,7335,-1,-1,0
-158.92,3.97,-27.31,562,-3788,7335,-1,-1,-1
-158.92,3.98,-27.32,565,-3791,7330,-1,-1,-1
-158.92,3.98,-27.32,570,-3794,7320,0,-1,-1
-158.92,3.99,-27.32,573,-3788,7321,0,-1,-1
-158.92,3.99,-27.31,587,-3791,7322,0,-1,0
-158.92,3.99,-27.31,592,-3786,7323,-1,0,0
-158.92,3.99,-27.31,578,-3786,7327,0,0,0
-158.93,3.99,-27.31,573,-3785,7326,-1,0,0
-158.93,3.99,-27.31,569,-3786,7323,0,-1,0
-158.93,3.98,-27.31,578,-3784,7336,0,-1,-1
-158.92,3.99,-27.30,588,-3785,7339,0,0,-1
-158.92,3.99,-27.30,590,-3772,7334,-1,0,0
-158.92,3.98,-27.30,576,-3763,7332,-1,0,0
-158.92,3.98,-27.30,561,-3763,7329,-1,0,0
-158.93,3.97,-27.32,554,-3787,7327,-1,0,0
-158.93,3.97,-27.32,561,-3796,7331,-1,-1,-1
-158.93,3.98,-27.33,556,-3801,7331,-1,-1,-1
-158.93,4.00,-27.33,569,-3804,7325,-1,-1,-1
-158.92,4.00,-27.33,581,-3801,7322,0,-1,-1
-158.92,4.01,-27.32,595,-3794,7318,0,-1,-1
-158.92,4.01,-27.32,595,-3786,7323,0,0,0
-158.92,4.01,-27.31,600,-3785,7325,0,0,0
-158.92,4.00,-27.31,587,-3782,7337,0,0,0
-158.92,3.99,-27.30,569,-3781,7340,0,0,0
-158.93,3.98,-27.30,566,-3778,7345,-1,-1,0
-158.93,3.98,-27.31,555,-3789,7345,-1,-1,-1
-158.93,3.99,-27.32,559,-3788,7344,-1,-1,-1
-158.92,4.00,-27.32,572,-3790,7328,-1,-1,-1
-158.92,4.01,-27.33,581,-3791,7316,-1,-1,-1
-158.92,4.01,-27.33,585,-3794,7323,-1,-1,0
-158.92,4.01,-27.33,583,-3788,7315,-1,0,0
-158.92,4.00,-27.34,583,-3795,7310,0,0,0
-158.92,4.00,-27.33,571,-3788,7322,0,0,0
-158.92,4.00,-27.33,571,-3788,7326,-1,-1,0
-158.92,4.00,-27.33,565,-3788,7330,0,-1,0
-158.92,4.00,-27.33,567,-3791,7333,-1,-1,0
-158.93,4.00,-27.33,568,-3782,7337,-1,-1,0
-158.93,4.01,-27.33,571,-3778,7339,-1,-1,0
-158.93,4.01,-27.34,576,-3781,7324,-1,0,0
-158.93,4.00,-27.34,575,-3796,7324,-1,0,0
-158.93,4.01,-27.34,570,-3797,7321,-1,-1,0
-158.94,4.01,-27.34,573,-3801,7326,0,0,-1
-158.93,4.01,-27.34,577,-3791,7340,0,-1,-1
-158.93,4.01,-27.34,570,-3781,7330,-1,-1,0
-158.93,4.02,-27.33,569,-3788,7335,-1,-1,-1
-158.93,4.02,-27.33,576,-3790,7331,-1,-1,-1
-158.93,4.02,-27.33,578,-3786,7333,-1,-1,0
-158.93,4.02,-27.34,589,-3788,7331,-1,-1,0
-158.94,4.02,-27.35,587,-3788,7327,-1,0,0
-158.93,4.02,-27.35,580,-3792,7330,-1,-1,0
-158.94,4.02,-27.36,572,-3803,7328,-1,-1,0
-158.94,4.02,-27.36,578,-3803,7322,-1,-1,0
-158.95,4.02,-27.36,579,-3801,7321,0,0,0
-158.95,4.02,-27.36,582,-3799,7321,0,0,0
-158.94,4.02,-27.36,583,-3796,7325,0,0,0
-158.95,4.01,-27.36,581,-3792,7327,-1,0,0
-158.95,4.01,-27.36,576,-3785,7329,-1,-1,0
-158.96,4.01,-27.36,575,-3794,7332,-1,-1,0
-158.97,4.01,-27.37,575,-3795,7338,0,-1,0
-158.97,4.01,-27.36,583,-3791,7350,-1,-1,0
-158.98,4.00,-27.37,580,-3792,7349,-1,0,0
-158.99,4.00,-27.38,579,-3787,7336,-1,0,0
-158.99,3.99,-27.38,577,-3779,7341,-1,0,0
-159.00,3.97,-27.39,563,-3781,7334,-1,0,0
-159.00,3.96,-27.40,551,-3794,7324,-1,0,0
-159.01,3.96,-27.41,549,-3808,7306,-1,0,-1
-159.01,3.95,-27.41,549,-3813,7322,0,-1,-1
-159.00,3.95,-27.41,573,-3797,7306,0,0,-1
-158.99,3.95,-27.40,588,-3798,7346,0,0,-1
-158.99,3.95,-27.40,590,-3797,7343,-1,0,0
-158.99,3.95,-27.39,591,-3794,7331,0,0,0
-158.99,3.93,-27.39,578,-3796,7320,0,0,0
-158.99,3.91,-27.38,553,-3780,7320,0,0,-1
-158.99,3.90,-27.38,548,-3784,7344,-1,-1,0
-158.99,3.91,-27.38,558,-3789,7338,-1,-1,-1
-158.98,3.91,-27.38,557,-3793,7338,0,0,-1
-158.98,3.91,-27.38,558,-3804,7335,-1,-1,-1
-158.97,3.92,-27.38,568,-3805,7333,0,-1,-1
-158.97,3.92,-27.38,579,-3801,7319,-1,-1,-1
-158.97,3.92,-27.37,578,-3810,7328,0,0,-1
-158.97,3.91,-27.37,573,-3801,7321,0,0,-1
-158.96,3.92,-27.37,562,-3795,7319,0,-1,-1
-158.96,3.92,-27.36,558,-3795,7324,0,-1,-1
-158.96,3.92,-27.35,553,-3792,7336,0,-1,-1
-158.96,3.92,-27.35,554,-3789,7333,0,-1,-1
-158.96,3.93,-27.34,557,-3794,7333,0,-1,-1
-158.95,3.93,-27.34,553,-3796,7339,0,-1,-1
-158.95,3.93,-27.34,564,-3788,7328,0,-1,-1
-158.95,3.93,-27.34,553,-3791,7324,0,-1,-1
-158.95,3.94,-27.33,561,-3797,7327,0,-1,0
-158.95,3.94,-27.33,571,-3808,7325,0,0,0
-158.94,3.94,-27.32,562,-3789,7339,0,0,0
-158.94,3.94,-27.32,544,-3777,7342,-1,-1,0
-158.95,3.94,-27.32,551,-3782,7336,-1,-1,-1
-158.94,3.94,-27.33,558,-3788,7327,0,-1,-1
-158.94,3.94,-27.33,560,-3782,7329,0,-1,-1
-158.94,3.94,-27.33,563,-3785,7332,-1,-1,0
-158.94,3.94,-27.33,565,-3784,7325,-1,0,0
-158.94,3.94,-27.33,564,-3796,7331,0,0,0
-158.94,3.94,-27.33,561,-3796,7340,0,0,0
-158.95,3.94,-27.33,559,-3795,7322,0,0,0
-158.95,3.93,-27.32,553,-3785,7326,0,0,0
-158.95,3.93,-27.32,552,-3790,7333,0,-1,0
-158.95,3.93,-27.32,560,-3783,7325,0,-1,-1
-158.95,3.93,-27.31,562,-3779,7326,0,0,0
-158.95,3.93,-27.31,568,-3791,7328,-1,0,-1
-158.95,3.93,-27.31,571,-3785,7322,0,0,-1
-158.95,3.93,-27.31,565,-3782,7323,0,0,-1
-158.95,3.93,-27.31,571,-3783,7329,-1,0,0
-158.95,3.92,-27.32,569,-3785,7330,-1,0,0
-158.95,3.91,-27.32,556,-3776,7327,-1,0,-1
-158.94,3.91,-27.32,545,-3774,7327,-1,0,-1
-158.94,3.91,-27.33,563,-3798,7330,-1,-1,-1
-158.94,3.91,-27.34,572,-3795,7323,-1,0,-1
-158.95,3.91,-27.33,564,-3789,7343,-1,0,0
-158.95,3.91,-27.35,574,-3781,7327,-1,0,0
-158.96,3.89,-27.36,556,-3786,7315,-1,0,0
-158.97,3.88,-27.37,557,-3797,7319,-1,0,0
-158.98,3.87,-27.38,549,-3819,7324,0,0,0
-158.99,3.85,-27.37,545,-3795,7340,0,0,0
-159.01,3.85,-27.39,558,-3794,7322,-1,-1,0
-159.02,3.83,-27.39,528,-3834,7342,-1,0,-1
-159.02,3.84,-27.40,562,-3819,7321,0,-1,0
-159.03,3.82,-27.38,568,-3808,7305,0,1,0
-159.03,3.81,-27.37,574,-3790,7348,-1,-1,0
-159.05,3.80,-27.37,545,-3771,7317,0,0,0
-159.05,3.78,-27.37,548,-3772,7344,-1,0,0
-159.08,3.77,-27.39,549,-3772,7307,-1,0,0
-159.09,3.75,-27.39,510,-3788,7356,-2,-1,0
-159.10,3.74,-27.41,558,-3759,7359,-1,0,0
-159.12,3.73,-27.45,469,-3803,7311,-1,-1,0
-159.14,3.75,-27.46,529,-3788,7316,-2,-1,0
-159.13,3.74,-27.47,531,-3812,7318,0,0,-1
-159.14,3.74,-27.48,507,-3820,7286,0,-1,0
-159.13,3.75,-27.49,544,-3845,7343,-1,0,-1
-159.14,3.74,-27.49,530,-3812,7305,-1,-1,0
-159.14,3.76,-27.48,545,-3830,7331,0,-1,-1
-159.12,3.75,-27.46,538,-3805,7330,0,0,-1
-159.12,3.78,-27.47,538,-3805,7305,0,-1,-1
-159.11,3.79,-27.45,535,-3786,7317,-1,-1,-1
-159.11,3.81,-27.45,546,-3830,7307,0,-1,-1
-159.08,3.82,-27.43,550,-3832,7319,0,0,-1
-159.08,3.83,-27.42,548,-3809,7312,0,-1,-1
-159.07,3.84,-27.40,534,-3783,7336,0,-1,-1
-159.05,3.85,-27.39,550,-3791,7355,-1,-1,-1
-159.04,3.87,-27.39,572,-3804,7335,0,-1,-1
-159.04,3.87,-27.38,563,-3811,7345,0,-1,-1
-159.03,3.89,-27.38,563,-3789,7330,0,-1,-1
-159.03,3.90,-27.39,562,-3784,7328,-1,-1,0
-159.03,3.90,-27.39,567,-3787,7319,-1,-1,-1
-159.03,3.91,-27.39,575,-3796,7319,-1,-1,-1
-159.02,3.91,-27.39,569,-3807,7329,0,0,-1
-159.02,3.91,-27.39,572,-3807,7337,0,-1,-1
-159.02,3.91,-27.39,564,-3786,7324,-1,-1,-1
-159.01,3.92,-27.39,560,-3786,7323,-1,-1,-1
-159.01,3.93,-27.39,570,-3792,7320,-1,-1,-1
-159.01,3.93,-27.39,562,-3794,7328,0,-1,-1
-159.00,3.94,-27.39,570,-3797,7314,0,-1,-1
-159.00,3.94,-27.38,574,-3796,7322,0,-1,-1
-159.00,3.95,-27.38,573,-3798,7329,0,-1,-1
-159.00,3.95,-27.38,573,-3799,7336,0,-1,-1
-159.00,3.95,-27.37,572,-3800,7340,0,-1,0
-159.00,3.95,-27.37,567,-3800,7335,0,0,0
-159.00,3.95,-27.38,558,-3793,7324,-1,0,0
-159.00,3.95,-27.38,557,-3798,7322,-1,-1,0
-159.00,3.95,-27.38,558,-3797,7322,0,-1,-1
-159.00,3.95,-27.38,572,-3798,7330,0,-1,-1
-159.00,3.96,-27.37,582,-3799,7336,0,0,0
-159.00,3.96,-27.37,573,-3796,7333,-1,0,0
-159.00,3.96,-27.38,567,-3790,7325,-1,0,0
-159.00,3.96,-27.38,558,-3787,7317,-1,0,0
-159.00,3.95,-27.39,553,-3790,7316,-1,-1,-1
-159.01,3.95,-27.39,551,-3792,7314,-1,-1,-1
-159.01,3.96,-27.40,565,-3792,7317,-1,-1,0
-159.00,3.96,-27.40,566,-3816,7333,0,-1,-1
-159.00,3.97,-27.39,575,-3809,7345,0,-1,-1
-159.00,3.98,-27.39,578,-3795,7324,0,-1,-1
-159.00,3.98,-27.39,580,-3791,7325,-1,-1,0
-158.99,3.98,-27.39,578,-3792,7324,0,0,-1
-158.99,3.98,-27.39,589,-3794,7322,0,0,0
-159.00,3.97,-27.39,579,-3796,7325,-1,-1,0
-159.00,3.97,-27.39,571,-3798,7330,-1,-1,-1
-159.00,3.98,-27.39,569,-3799,7335,-1,-1,0
-159.00,3.98,-27.38,567,-3797,7338,0,-1,-1
-159.00,3.98,-27.38,566,-3796,7328,-1,-1,-1
-159.00,3.98,-27.39,569,-3801,7311,-1,-1,-1
-158.99,3.98,-27.39,578,-3794,7315,-1,0,-1
-158.99,3.99,-27.40,569,-3793,7325,-1,-1,0
-158.99,3.99,-27.40,569,-3808,7334,-1,-1,-1
-158.99,3.99,-27.40,570,-3810,7348,0,-1,0
-158.99,3.99,-27.40,574,-3801,7344,0,-1,0
-158.99,3.99,-27.39,574,-3787,7335,0,0,0
-158.99,3.98,-27.39,567,-3792,7321,-1,0,0
-158.99,3.98,-27.39,571,-3800,7314,0,0,0
-158.99,3.98,-27.39,570,-3797,7315,0,-1,0
-158.99,3.98,-27.39,572,-3794,7320,0,-1,0
-158.99,3.98,-27.38,577,-3789,7329,0,-1,0
-159.00,3.99,-27.39,581,-3786,7326,0,0,0
-159.00,3.99,-27.38,571,-3791,7333,0,-1,0
-159.00,3.99,-27.38,577,-3794,7329,-1,-1,0
-159.00,3.99,-27.39,579,-3799,7329,0,0,0
-159.00,3.99,-27.39,571,-3793,7315,-1,0,0
-159.00,3.98,-27.39,571,-3795,7321,-1,-1,-1
-159.00,3.98,-27.39,574,-3790,7312,-1,0,-1
-159.00,3.98,-27.39,576,-3789,7313,-1,-1,0
-159.00,3.98,-27.40,577,-3791,7312,-1,-1,0
-159.00,3.99,-27.41,575,-3801,7310,-1,-1,0
-159.01,3.98,-27.41,569,-3804,7315,0,0,0
-159.01,3.98,-27.41,566,-3807,7316,0,-1,0
-159.01,3.98,-27.41,570,-3805,7327,0,0,0
-159.01,3.98,-27.40,564,-3798,7330,0,0,0
-159.01,3.98,-27.40,572,-3794,7327,0,0,0
-159.01,3.98,-27.40,574,-3793,7335,-1,0,0
-159.01,3.98,-27.40,578,-3785,7325,-1,0,0
-159.01,3.98,-27.40,571,-3784,7326,-1,0,0
-159.01,3.98,-27.40,574,-3783,7327,-1,-1,0
-159.01,3.98,-27.41,571,-3789,7315,-1,-1,0
-159.01,3.99,-27.41,577,-3800,7319,0,-1,0
-159.02,3.98,-27.41,580,-3799,7320,-1,-1,0
-159.02,3.98,-27.41,578,-3792,7308,-1,0,0
-159.02,3.98,-27.41,570,-3793,7321,-1,0,0
-159.02,3.98,-27.42,571,-3796,7319,-1,0,0
-159.02,3.97,-27.42,557,-3796,7315,-1,-1,0
-159.02,3.98,-27.42,560,-3793,7329,-1,-1,0
-159.02,3.98,-27.43,566,-3812,7326,-1,-1,0
-159.02,3.99,-27.43,571,-3819,7338,0,-1,-1
-159.03,4.00,-27.42,574,-3803,7339,0,-1,0
-159.03,4.00,-27.43,579,-3801,7329,-1,-1,0
-159.03,4.00,-27.43,581,-3806,7318,0,-1,-1
-159.02,4.01,-27.42,584,-3801,7318,0,0,0
-159.03,4.01,-27.42,578,-3791,7322,-1,-1,0
-159.03,4.01,-27.42,574,-3792,7329,-1,-1,0
-159.04,4.00,-27.42,576,-3800,7331,-1,-1,0
-159.04,4.01,-27.42,578,-3809,7326,-1,-1,0
-159.04,4.01,-27.43,576,-3806,7326,-1,-1,0
-159.04,4.02,-27.44,580,-3802,7322,-1,-1,0
-159.05,4.03,-27.44,577,-3803,7312,-1,-1,0
-159.05,4.03,-27.45,575,-3803,7321,-1,-1,0
-159.05,4.03,-27.45,576,-3808,7327,-1,-1,0
-159.05,4.03,-27.46,572,-3810,7316,-1,0,0
-159.05,4.03,-27.46,572,-3814,7317,-1,-1,0
-159.06,4.03,-27.46,575,-3810,7312,-1,-1,0
-159.06,4.03,-27.46,576,-3810,7321,-1,-1,0
-159.07,4.03,-27.46,576,-3810,7328,-1,-1,0
-159.07,4.03,-27.46,570,-3806,7330,-1,-1,0
-159.07,4.03,-27.46,573,-3801,7313,-1,-1,0
-159.08,4.03,-27.47,570,-3800,7310,-1,-1,0
-159.08,4.03,-27.47,583,-3792,7307,-1,0,0
-159.08,4.02,-27.46,579,-3799,7312,0,0,-1
-159.08,4.02,-27.47,581,-3801,7304,0,0,0
-159.07,4.02,-27.46,588,-3811,7319,0,0,-1
-159.07,4.01,-27.45,583,-3804,7331,0,0,-1
-159.07,4.00,-27.45,577,-3806,7325,0,0,-1
-159.06,4.00,-27.45,566,-3806,7310,0,-1,-1
-159.06,4.00,-27.45,561,-3801,7311,0,-1,-1
-159.05,4.01,-27.44,572,-3798,7320,0,0,-1
-159.05,4.01,-27.44,583,-3806,7319,0,-1,-1
-159.04,4.01,-27.44,587,-3808,7322,0,0,-1
-159.04,4.01,-27.43,584,-3812,7318,0,0,-1
-159.04,4.01,-27.42,573,-3806,7319,0,0,-1
-159.04,4.00,-27.42,582,-3799,7323,0,0,0
-159.04,4.00,-27.42,569,-3810,7325,0,-1,-1
-159.04,4.00,-27.41,568,-3807,7335,0,0,-1
-159.03,4.00,-27.41,577,-3800,7319,0,0,-1
-159.03,4.00,-27.40,582,-3799,7329,0,0,-1
-159.02,4.00,-27.40,583,-3789,7340,-1,0,0
-159.02,4.00,-27.40,575,-3781,7333,-1,0,0
-159.03,3.99,-27.40,567,-3786,7315,0,0,0
-159.03,3.99,-27.40,566,-3797,7332,-1,-1,0
-159.03,3.99,-27.40,573,-3808,7335,0,-1,-1
-159.02,3.99,-27.40,581,-3806,7333,0,-1,0
-159.02,3.99,-27.39,579,-3791,7333,0,0,-1
-159.02,3.99,-27.38,570,-3789,7329,-1,0,0
-159.03,3.97,-27.39,568,-3804,7321,-1,0,-1
-159.03,3.97,-27.39,560,-3799,7326,0,0,-1
-159.03,3.96,-27.39,541,-3802,7329,-1,-1,-1
-159.02,3.97,-27.39,548,-3808,7335,-1,-1,-1
-159.02,3.98,-27.38,566,-3808,7332,0,-1,-1
-159.01,3.98,-27.38,577,-3808,7323,0,-1,-1
-159.01,3.99,-27.38,586,-3808,7329,0,-1,-1
-159.01,4.00,-27.37,591,-3801,7320,0,0,0
-159.01,4.00,-27.37,591,-3793,7309,0,0,0
-159.01,3.99,-27.36,573,-3792,7325,0,0,0
-159.02,3.98,-27.36,558,-3792,7320,0,0,0
-159.02,3.97,-27.36,552,-3797,7327,-1,0,0
-159.02,3.97,-27.37,546,-3795,7331,-1,-1,0
-159.02,3.97,-27.36,559,-3793,7326,-1,-1,-1
-159.02,3.98,-27.37,567,-3788,7315,-1,-1,-1
-159.02,3.98,-27.37,573,-3787,7314,0,-1,-1
-159.01,3.99,-27.37,583,-3792,7326,0,0,-1
-159.01,3.98,-27.36,590,-3796,7332,-1,0,0
-159.01,3.98,-27.36,586,-3789,7328,-1,0,0
-159.02,3.97,-27.37,571,-3791,7321,-1,0,0
-159.02,3.97,-27.37,579,-3799,7323,-1,0,0
-159.02,3.97,-27.37,569,-3800,7339,0,0,0
-159.02,3.97,-27.37,558,-3788,7342,-1,-1,0
-159.02,3.97,-27.37,561,-3787,7338,-1,-1,0
-159.02,3.97,-27.38,572,-3790,7321,-1,-1,-1
-159.02,3.97,-27.38,574,-3789,7319,-1,0,0
-159.02,3.97,-27.38,573,-3794,7331,-1,0,0
-159.02,3.97,-27.38,570,-3790,7329,0,0,0
-159.02,3.97,-27.38,568,-3795,7333,-1,0,0
-159.02,3.96,-27.38,572,-3802,7325,0,0,0
-159.02,3.96,-27.37,568,-3788,7323,-1,0,0
-159.02,3.95,-27.38,571,-3791,7322,-1,0,0
-159.02,3.95,-27.38,568,-3794,7325,0,0,-1
-159.02,3.95,-27.38,566,-3791,7316,0,0,0
-159.02,3.95,-27.37,568,-3786,7322,0,0,0
-159.02,3.95,-27.37,572,-3790,7325,-1,0,0
-159.02,3.95,-27.38,574,-3790,7332,-1,0,0
-159.03,3.95,-27.38,570,-3791,7334,-1,0,0
-159.03,3.94,-27.38,562,-3798,7330,-1,0,0
-159.03,3.94,-27.38,563,-3790,7320,-1,0,0
-159.03,3.94,-27.38,562,-3790,7320,-1,0,0
-159.03,3.94,-27.38,558,-3792,7315,-1,-1,0
-159.03,3.94,-27.39,565,-3806,7324,0,-1,0
-159.03,3.94,-27.38,565,-3793,7329,0,-1,0
-159.03,3.95,-27.38,558,-3787,7335,0,-1,0
-159.03,3.95,-27.38,563,-3786,7324,-1,-1,0
-159.03,3.95,-27.38,564,-3790,7324,-1,0,0
-159.03,3.95,-27.38,557,-3791,7322,-1,-1,0
-159.03,3.95,-27.38,565,-3787,7318,-1,-1,0
-159.03,3.95,-27.38,564,-3785,7323,0,-1,-1
-159.03,3.97,-27.38,580,-3795,7342,-1,-1,-1
-159.03,3.97,-27.38,583,-3792,7349,-1,-1,-1
-159.03,3.97,-27.39,579,-3789,7334,-1,-1,0
-159.03,3.97,-27.39,579,-3793,7318,-1,0,0
-159.03,3.97,-27.39,563,-3788,7312,-1,-1,0
-159.04,3.97,-27.40,548,-3789,7309,-1,-1,0
-159.04,3.97,-27.40,552,-3794,7314,-1,-1,-1
-159.04,3.98,-27.41,564,-3804,7324,0,-1,0
-159.03,3.98,-27.41,575,-3817,7331,0,-1,-1
-159.03,4.00,-27.40,590,-3806,7327,0,-1,-1
-159.03,4.00,-27.40,590,-3796,7324,0,0,0
-159.02,4.00,-27.39,588,-3790,7326,0,0,0
-159.03,4.00,-27.39,591,-3780,7325,-1,0,0
-159.03,3.99,-27.39,580,-3790,7319,0,0,0
-159.03,3.99,-27.38,566,-3791,7339,-1,0,0
-159.04,3.99,-27.39,563,-3789,7337,-1,-1,0
-159.04,3.99,-27.40,556,-3795,7339,-1,0,-1
-159.05,3.98,-27.41,562,-3807,7330,0,-1,0
-159.05,3.99,-27.41,578,-3781,7318,-1,-1,0
-159.05,3.98,-27.41,581,-3799,7323,-1,0,0
-159.06,3.97,-27.42,582,-3787,7315,-1,-1,0
-159.06,3.97,-27.42,580,-3780,7339,-1,-1,0
-159.08,3.96,-27.45,587,-3818,7284,0,0,0
-159.08,3.95,-27.44,568,-3796,7364,-1,-1,0
-159.10,3.94,-27.46,578,-3793,7304,-1,0,0
-159.12,3.94,-27.47,574,-3837,7328,-1,-1,0
-159.13,3.93,-27.48,574,-3812,7297,0,0,0
-159.14,3.92,-27.49,567,-3808,7319,-2,0,0
-159.15,3.89,-27.49,545,-3834,7323,1,0,0
-159.15,3.89,-27.49,572,-3811,7294,-1,0,0
-159.16,3.86,-27.46,553,-3802,7368,0,0,0
-159.17,3.86,-27.47,551,-3796,7334,0,0,0
-159.18,3.86,-27.46,530,-3777,7319,-1,-1,0
-159.20,3.86,-27.48,563,-3783,7344,-1,-1,0
-159.21,3.86,-27.49,554,-3792,7302,0,0,0
-159.23,3.85,-27.50,572,-3796,7317,-1,-1,0
-159.24,3.86,-27.52,557,-3817,7287,-1,-1,0
-159.25,3.83,-27.51,586,-3809,7379,-1,0,0
-159.25,3.82,-27.54,527,-3829,7285,1,1,-1
-159.26,3.81,-27.54,531,-3820,7297,-2,-1,0
-159.26,3.80,-27.54,542,-3803,7344,-2,-1,0
-159.26,3.81,-27.57,530,-3855,7262,1,0,-1
-159.26,3.82,-27.54,537,-3787,7332,-2,-1,0
-159.25,3.84,-27.56,558,-3852,7312,0,-1,-1
-159.24,3.84,-27.54,529,-3818,7269,0,0,-1
-159.23,3.86,-27.51,568,-3817,7347,0,-1,-1
-159.22,3.88,-27.51,555,-3808,7317,0,-1,-1
-159.20,3.90,-27.51,569,-3805,7323,-1,-1,-1
-159.19,3.90,-27.51,557,-3816,7321,0,-1,-1
-159.17,3.91,-27.51,561,-3796,7305,0,-1,-1
-159.16,3.92,-27.50,568,-3798,7329,-1,-1,-1
-159.15,3.93,-27.50,573,-3815,7335,-1,-1,-1
-159.14,3.93,-27.50,578,-3813,7329,-1,0,-1
-159.13,3.93,-27.51,571,-3813,7321,-1,-1,-1
-159.14,3.94,-27.51,569,-3817,7298,0,-1,0
-159.14,3.94,-27.51,562,-3817,7291,0,0,0
-159.14,3.93,-27.51,562,-3822,7303,0,0,0
-159.13,3.93,-27.51,555,-3824,7309,0,0,-1
-159.13,3.94,-27.50,554,-3822,7315,0,-1,-1
-159.13,3.94,-27.50,565,-3829,7312,0,0,-1
-159.12,3.95,-27.48,572,-3818,7343,0,0,-1
-159.11,3.95,-27.48,569,-3803,7334,0,-1,-1
-159.10,3.96,-27.47,574,-3796,7331,-1,-1,-1
-159.10,3.97,-27.47,584,-3791,7324,-1,0,0
-159.11,3.96,-27.48,588,-3787,7324,-1,0,0
-159.11,3.96,-27.48,580,-3788,7329,-1,0,0
-159.11,3.95,-27.48,569,-3804,7326,-1,-1,0
-159.12,3.95,-27.48,558,-3811,7322,-1,0,0
-159.12,3.95,-27.49,562,-3810,7318,-1,0,-1
-159.12,3.95,-27.49,555,-3808,7314,-1,-1,0
-159.11,3.95,-27.49,555,-3805,7314,-1,-1,-1
-159.11,3.95,-27.50,567,-3808,7319,-1,-1,-1
-159.11,3.96,-27.50,572,-3806,7313,-1,-1,-1
-159.11,3.96,-27.50,578,-3816,7314,-1,0,0
-159.12,3.96,-27.51,578,-3817,7319,-1,0,0
-159.12,3.96,-27.51,568,-3815,7316,-1,0,0
-159.12,3.96,-27.51,570,-3813,7320,-1,0,0
-159.12,3.96,-27.51,575,-3809,7326,-1,0,0
-159.12,3.96,-27.51,571,-3799,7325,-1,-1,-1
-159.12,3.96,-27.51,571,-3810,7321,-1,-1,0
-159.13,3.95,-27.51,570,-3809,7332,-1,-1,0
-159.13,3.96,-27.51,577,-3814,7322,-1,-1,0
-159.13,3.96,-27.51,578,-3814,7318,-1,-1,0
-159.13,3.97,-27.51,574,-3815,7307,-1,-1,0
-159.14,3.97,-27.52,574,-3823,7306,0,0,0
-159.14,3.97,-27.51,572,-3806,7313,-1,-1,0
-159.15,3.96,-27.51,561,-3799,7304,-1,-1,0
-159.15,3.97,-27.52,566,-3812,7303,-1,-1,-1
-159.15,3.97,-27.52,572,-3811,7313,0,-1,-1
-159.14,3.98,-27.52,582,-3807,7307,-1,-1,-1
-159.14,3.98,-27.52,584,-3816,7314,-1,-1,0
-159.14,3.99,-27.52,590,-3816,7307,-1,-1,0
-159.14,3.99,-27.52,591,-3810,7306,0,-1,0
-159.14,3.99,-27.52,589,-3809,7308,-1,0,0
-159.14,3.98,-27.52,575,-3808,7311,-1,0,0
-159.14,3.98,-27.52,572,-3814,7311,0,0,-1
-159.14,3.98,-27.52,566,-3824,7309,0,-1,-1
-159.13,3.99,-27.51,577,-3816,7309,0,0,-1
-159.13,3.99,-27.50,580,-3811,7319,0,0,-1
-159.12,3.99,-27.49,587,-3810,7320,0,0,-1
-159.12,3.99,-27.49,583,-3811,7312,0,0,0
-159.12,3.98,-27.49,574,-3799,7308,0,0,0
-159.13,3.96,-27.49,566,-3796,7317,-1,0,0
-159.13,3.96,-27.48,556,-3800,7313,-1,0,-1
-159.12,3.96,-27.49,552,-3818,7332,-1,-1,-1
-159.12,3.97,-27.49,554,-3822,7328,0,-1,-1
-159.12,3.97,-27.48,560,-3818,7329,0,-1,-1
-159.11,3.97,-27.47,578,-3808,7318,0,0,-1
-159.11,3.98,-27.47,583,-3808,7318,0,-1,-1
-159.10,3.98,-27.47,591,-3810,7305,0,0,0
-159.11,3.98,-27.47,588,-3816,7305,0,0,0
-159.11,3.97,-27.45,580,-3808,7325,0,0,0
-159.10,3.96,-27.45,565,-3803,7332,0,0,0
-159.10,3.96,-27.44,555,-3808,7334,-1,0,-1
-159.10,3.96,-27.44,555,-3809,7325,0,-1,-1
-159.10,3.96,-27.44,562,-3805,7327,0,-1,-1
-159.09,3.97,-27.44,575,-3801,7328,0,-1,-1
-159.09,3.98,-27.44,578,-3805,7335,0,-1,-1
-159.09,3.97,-27.43,578,-3803,7329,-1,0,0
-159.09,3.98,-27.44,581,-3809,7324,0,0,-1
-159.09,3.97,-27.43,577,-3811,7329,0,0,0
-159.09,3.97,-27.43,573,-3814,7326,0,0,0
-159.09,3.96,-27.43,570,-3814,7317,0,0,0
-159.09,3.96,-27.43,570,-3811,7322,0,0,0
-159.09,3.96,-27.43,566,-3809,7329,0,0,-1
-159.09,3.96,-27.42,570,-3811,7322,0,0,-1
-159.09,3.96,-27.42,569,-3808,7328,0,0,0
-159.10,3.95,-27.43,571,-3807,7331,0,0,0
-159.10,3.95,-27.42,566,-3807,7329,0,0,0
-159.09,3.95,-27.42,578,-3803,7327,0,0,-1
-159.09,3.95,-27.41,573,-3796,7324,0,0,0
-159.09,3.95,-27.41,571,-3788,7323,-1,-1,-1
-159.09,3.95,-27.41,576,-3787,7321,-1,-1,0
-159.09,3.95,-27.41,571,-3797,7320,0,0,-1
-159.09,3.95,-27.41,574,-3793,7330,-1,0,0
-159.09,3.95,-27.41,565,-3793,7331,-1,0,0
-159.09,3.94,-27.41,564,-3799,7322,-1,0,-1
-159.09,3.94,-27.41,568,-3804,7324,0,0,0
-159.09,3.94,-27.41,574,-3800,7321,0,0,0
-159.09,3.94,-27.41,578,-3801,7325,0,0,0
-159.09,3.94,-27.41,572,-3803,7327,0,0,0
-159.09,3.94,-27.41,569,-3808,7322,0,0,0
-159.09,3.94,-27.41,570,-3807,7327,0,0,0
-159.10,3.94,-27.41,570,-3804,7330,0,0,0
-159.10,3.94,-27.41,570,-3805,7331,0,-1,-1
-159.10,3.94,-27.41,572,-3803,7327,0,0,0
-159.09,3.95,-27.40,574,-3801,7328,0,0,0
-159.10,3.94,-27.40,581,-3796,7330,-1,0,0
-159.10,3.93,-27.40,575,-3793,7330,-1,0,0
-159.10,3.93,-27.40,564,-3786,7323,-1,0,0
-159.10,3.92,-27.40,556,-3790,7327,-1,0,0
-159.10,3.92,-27.41,551,-3798,7331,-1,0,0
-159.10,3.92,-27.42,556,-3807,7327,-1,-1,-1
-159.10,3.92,-27.42,560,-3811,7330,-1,-1,-1
-159.10,3.93,-27.42,575,-3814,7328,0,-1,-1
-159.10,3.93,-27.42,582,-3807,7327,0,0,0
-159.10,3.94,-27.41,581,-3792,7331,0,0,0
-159.10,3.93,-27.41,574,-3796,7330,0,0,0
-159.10,3.93,-27.41,569,-3797,7320,0,0,0
-159.10,3.92,-27.40,564,-3802,7322,0,0,0
-159.10,3.92,-27.40,559,-3793,7335,-1,0,0
-159.10,3.92,-27.40,563,-3797,7339,-1,-1,-1
-159.10,3.92,-27.41,568,-3801,7330,-1,-1,-1
-159.10,3.93,-27.41,567,-3808,7331,0,-1,-1
-159.10,3.94,-27.41,567,-3798,7328,-1,-1,0
-159.10,3.94,-27.41,576,-3794,7325,-1,0,0
-159.10,3.94,-27.41,572,-3793,7326,-1,-1,0
-159.10,3.94,-27.41,565,-3803,7326,-1,-1,-1
-159.10,3.94,-27.41,564,-3809,7323,-1,0,0
-159.10,3.94,-27.42,563,-3803,7321,-1,-1,-1
-159.10,3.94,-27.42,565,-3809,7329,-1,-1,0
-159.10,3.94,-27.42,569,-3811,7323,0,-1,-1
-159.10,3.94,-27.42,577,-3803,7324,-1,0,0
-159.10,3.95,-27.43,572,-3798,7306,-1,-1,-1
-159.10,3.95,-27.43,574,-3797,7308,-1,-1,0
-159.10,3.95,-27.43,570,-3813,7317,0,-1,-1
-159.09,3.96,-27.42,569,-3809,7324,0,-1,-1
-159.09,3.96,-27.42,560,-3804,7327,0,-1,-1
-159.09,3.96,-27.42,561,-3799,7323,0,-1,-1
-159.09,3.96,-27.42,563,-3796,7317,-1,0,-1
-159.08,3.96,-27.42,575,-3786,7316,-1,-1,-1
-159.08,3.97,-27.42,572,-3790,7322,-1,-1,-1
-159.08,3.96,-27.42,579,-3799,7322,0,0,0
-159.08,3.96,-27.42,572,-3799,7316,-1,0,0
-159.08,3.95,-27.42,569,-3804,7327,0,0,0
-159.08,3.94,-27.42,562,-3785,7318,-1,0,0
-159.09,3.93,-27.42,557,-3798,7330,-1,0,0
-159.09,3.93,-27.43,548,-3800,7336,-1,0,0
-159.09,3.93,-27.44,559,-3816,7316,0,-1,0
-159.10,3.94,-27.44,593,-3809,7338,-1,0,0
-159.10,3.93,-27.44,564,-3815,7306,0,0,-1
-159.09,3.93,-27.43,579,-3806,7337,-1,0,-1
-159.10,3.93,-27.44,580,-3814,7300,0,0,0
-159.10,3.92,-27.42,582,-3820,7329,0,0,-1
-159.10,3.91,-27.41,575,-3790,7321,0,0,-1
-159.10,3.91,-27.40,568,-3791,7335,-1,-1,0
-159.10,3.92,-27.39,570,-3796,7346,0,0,0
-159.10,3.92,-27.39,577,-3784,7320,0,0,0
-159.10,3.92,-27.37,573,-3783,7364,-1,-1,0
-159.11,3.93,-27.39,582,-3773,7323,-1,0,0
-159.12,3.92,-27.39,542,-3797,7320,-1,-1,-1
-159.12,3.93,-27.41,546,-3809,7302,-1,-1,-1
-159.11,3.93,-27.42,558,-3806,7310,-1,-1,-1
-159.11,3.95,-27.43,567,-3811,7323,-1,-1,-1
-159.11,3.96,-27.43,576,-3817,7325,-1,-1,-1
-159.11,3.97,-27.44,585,-3813,7310,-1,-1,-1
-159.10,3.98,-27.44,594,-3816,7313,0,0,0
-159.11,3.98,-27.44,593,-3805,7312,0,0,0
-159.11,3.98,-27.44,582,-3801,7309,-1,0,0
-159.12,3.97,-27.44,569,-3810,7305,0,0,0
-159.12,3.97,-27.44,567,-3815,7316,0,0,0
-159.12,3.97,-27.43,565,-3811,7326,0,-1,-1
-159.11,3.98,-27.43,567,-3804,7327,0,-1,-1
-159.11,3.98,-27.43,573,-3799,7319,0,-1,-1
-159.11,3.98,-27.43,581,-3797,7319,0,-1,-1
-159.11,3.99,-27.43,583,-3794,7306,-1,-1,0
-159.11,3.99,-27.43,586,-3801,7314,-1,-1,0
-159.11,4.00,-27.43,588,-3803,7326,-1,0,0
-159.12,3.99,-27.44,587,-3803,7337,-1,0,0
-159.12,3.99,-27.45,585,-3808,7328,-1,0,0
-159.11,4.00,-27.45,580,-3802,7310,-1,-1,0
-159.12,4.00,-27.45,577,-3814,7311,-1,0,0
-159.12,4.00,-27.45,579,-3814,7316,0,0,0
-159.12,4.00,-27.45,574,-3804,7319,0,-1,-1
-159.11,4.00,-27.45,576,-3810,7314,-1,0,-1
-159.12,4.00,-27.45,578,-3816,7310,0,-1,0
-159.12,4.00,-27.45,583,-3804,7310,0,0,-1
-159.12,4.00,-27.45,587,-3796,7315,0,0,0
-159.12,4.00,-27.44,585,-3800,7315,-1,0,0
-159.12,4.00,-27.44,584,-3795,7311,-1,0,0
-159.12,4.00,-27.45,570,-3804,7317,-1,0,0
-159.13,3.99,-27.46,571,-3801,7328,-1,0,0
-159.13,3.99,-27.46,574,-3802,7320,-1,0,0
-159.13,3.99,-27.46,572,-3806,7319,-1,-1,0
-159.13,3.99,-27.47,567,-3814,7314,-1,-1,-1
-159.13,3.99,-27.47,570,-3815,7317,-1,0,0
-159.13,3.99,-27.47,576,-3813,7314,0,0,0
-159.13,3.99,-27.47,580,-3807,7313,0,0,0
-159.13,3.98,-27.47,581,-3812,7319,0,0,0
-159.14,3.98,-27.47,581,-3813,7325,0,0,0
-159.14,3.98,-27.47,572,-3808,7323,0,0,0
-159.14,3.98,-27.47,570,-3811,7320,-1,-1,0
-159.14,3.98,-27.47,587,-3804,7328,-1,-1,0
-159.15,3.98,-27.46,590,-3792,7326,-1,0,0
-159.15,3.97,-27.47,591,-3797,7320,-1,0,0
-159.15,3.97,-27.47,576,-3801,7306,-1,0,0
-159.16,3.96,-27.48,568,-3811,7309,-1,0,0
-159.17,3.95,-27.49,556,-3814,7312,-1,0,0
-159.18,3.93,-27.49,552,-3790,7342,-1,0,0
-159.19,3.93,-27.52,569,-3814,7319,-2,0,0
-159.20,3.91,-27.53,538,-3836,7303,1,-1,0
-159.23,3.95,-27.53,587,-3864,7369,-2,-4,1
-159.23,3.97,-27.53,580,-3840,7280,2,1,-1
-159.20,3.96,-27.51,534,-3793,7312,-1,-1,-1
-159.18,3.97,-27.52,578,-3816,7277,0,-1,-1
-159.17,3.99,-27.51,614,-3839,7264,1,0,-1
-159.14,3.96,-27.47,595,-3811,7345,1,1,-1
-159.14,3.95,-27.45,575,-3769,7383,-1,0,0
-159.15,3.95,-27.46,565,-3774,7347,-1,-1,0
-159.15,3.95,-27.47,562,-3788,7332,-1,-1,0
-159.16,3.95,-27.48,554,-3801,7332,-1,-1,0
-159.17,3.95,-27.49,557,-3802,7306,-1,-1,0
-159.17,3.96,-27.50,564,-3816,7291,-1,-1,-1
-159.17,3.97,-27.51,578,-3825,7303,0,0,-1
-159.16,3.96,-27.51,580,-3826,7319,0,0,-1
-159.16,3.96,-27.51,572,-3826,7326,0,0,0
-159.16,3.96,-27.50,569,-3810,7324,0,-1,0
-159.17,3.96,-27.50,563,-3803,7309,-1,-1,0
-159.17,3.96,-27.50,566,-3801,7292,0,-1,0
-159.17,3.97,-27.50,576,-3803,7298,0,-1,0
-159.17,3.98,-27.50,582,-3825,7313,0,-1,0
-159.17,3.97,-27.49,591,-3819,7322,0,0,0
-159.17,3.98,-27.49,585,-3812,7323,0,0,0
-159.17,3.98,-27.49,585,-3808,7316,-1,0,-1
-159.16,3.97,-27.49,584,-3799,7307,-1,0,-1
-159.16,3.97,-27.49,574,-3793,7304,-1,0,-1
-159.16,3.97,-27.49,569,-3803,7313,-1,-1,0
-159.16,3.97,-27.49,569,-3810,7315,0,-1,-1
-159.16,3.98,-27.49,573,-3815,7320,0,-1,-1
-159.15,3.98,-27.48,576,-3824,7334,0,-1,-1
-159.15,3.98,-27.47,574,-3815,7335,0,0,-1
-159.15,3.98,-27.46,578,-3811,7314,0,0,-1
-159.14,3.98,-27.46,579,-3801,7307,0,0,-1
-159.14,3.98,-27.46,579,-3802,7305,-1,0,-1
-159.13,3.97,-27.45,583,-3798,7331,0,0,-1
-159.13,3.98,-27.45,590,-3789,7340,-1,0,0
-159.13,3.98,-27.46,581,-3799,7329,-1,0,0
-159.14,3.97,-27.47,575,-3813,7324,-1,-1,0
-159.14,3.97,-27.47,578,-3818,7317,-1,0,-1
-159.14,3.97,-27.48,570,-3813,7306,-1,0,-1
-159.14,3.97,-27.49,569,-3809,7306,-1,-1,0
-159.14,3.97,-27.50,567,-3818,7295,0,-1,-1
-159.14,3.97,-27.49,574,-3820,7314,0,-1,0
-159.14,3.97,-27.48,584,-3829,7323,0,0,-1
-159.14,3.97,-27.47,576,-3814,7337,0,0,0
-159.14,3.97,-27.46,571,-3810,7335,0,0,0
-159.13,3.96,-27.46,571,-3810,7325,0,0,-1
-159.13,3.96,-27.45,565,-3789,7317,0,0,-1
-159.13,3.96,-27.44,566,-3789,7327,-1,0,-1
-159.13,3.96,-27.45,569,-3798,7323,-1,0,-1
-159.12,3.96,-27.45,585,-3805,7327,-1,0,0
-159.13,3.96,-27.46,593,-3817,7319,-1,0,0
-159.12,3.96,-27.46,585,-3818,7320,-1,0,0
-159.13,3.95,-27.46,578,-3816,7309,-1,0,0
-159.14,3.94,-27.47,565,-3813,7298,0,0,0
-159.13,3.94,-27.47,556,-3819,7304,0,0,-1
-159.13,3.94,-27.46,562,-3817,7316,0,0,-1
-159.13,3.95,-27.46,570,-3816,7329,0,0,-1
-159.12,3.95,-27.46,578,-3818,7330,0,0,-1
-159.12,3.95,-27.45,584,-3816,7333,0,0,-1
-159.12,3.95,-27.44,583,-3806,7324,0,0,0
-159.12,3.95,-27.44,588,-3788,7315,0,0,0
-159.12,3.94,-27.43,578,-3782,7315,0,0,0
-159.13,3.93,-27.43,568,-3784,7308,0,0,0
-159.13,3.93,-27.42,569,-3797,7326,0,0,0
-159.13,3.92,-27.42,557,-3800,7338,-1,0,0
-159.12,3.93,-27.43,552,-3800,7330,-1,-1,-1
-159.12,3.93,-27.43,555,-3805,7321,-1,-1,-1
-159.12,3.93,-27.43,568,-3803,7322,0,-1,0
-159.12,3.93,-27.43,575,-3806,7320,0,-1,0
-159.12,3.93,-27.43,580,-3803,7320,0,0,0
-159.12,3.93,-27.43,582,-3805,7315,-1,0,0
-159.12,3.93,-27.43,574,-3812,7309,0,0,0
-159.12,3.92,-27.42,562,-3803,7324,0,0,0
-159.12,3.92,-27.42,561,-3797,7326,-1,0,0
-159.12,3.91,-27.43,558,-3803,7311,-1,0,0
-159.12,3.91,-27.43,560,-3807,7315,-1,0,0
-159.12,3.91,-27.43,568,-3808,7307,-1,0,0
-159.13,3.91,-27.43,563,-3806,7310,0,0,0
-159.13,3.90,-27.43,564,-3808,7311,0,0,0
-159.13,3.90,-27.43,562,-3807,7320,0,0,0
-159.13,3.90,-27.43,563,-3803,7321,0,0,0
-159.13,3.90,-27.43,568,-3800,7323,0,0,-1
-159.13,3.89,-27.43,566,-3803,7314,-1,-1,0
-159.13,3.89,-27.43,565,-3812,7328,0,0,-1
-159.13,3.89,-27.42,565,-3794,7329,0,0,0
-159.13,3.89,-27.42,557,-3794,7322,-1,0,-1
-159.13,3.89,-27.43,565,-3807,7317,-1,-1,0
-159.13,3.89,-27.44,564,-3804,7316,-1,-1,-1
-159.13,3.89,-27.44,571,-3796,7327,-1,0,0
-159.13,3.89,-27.44,571,-3800,7320,-1,0,0
-159.13,3.90,-27.44,571,-3801,7314,-1,0,0
-159.13,3.90,-27.44,564,-3811,7318,-1,-1,0
-159.13,3.90,-27.44,559,-3808,7318,0,-1,-1
-159.13,3.90,-27.44,561,-3808,7317,-1,-1,0
-159.13,3.90,-27.44,561,-3805,7329,0,-1,-1
-159.13,3.91,-27.43,572,-3800,7316,0,-1,0
-159.13,3.91,-27.43,570,-3804,7316,-1,0,0
-159.13,3.91,-27.43,569,-3802,7330,-1,0,-1
-159.13,3.91,-27.43,562,-3799,7323,-1,-1,-1
-159.13,3.91,-27.43,564,-3798,7314,0,-1,-1
-159.13,3.91,-27.44,563,-3802,7320,-1,-1,-1
-159.12,3.92,-27.44,575,-3801,7328,-1,-1,-1
-159.12,3.93,-27.44,583,-3802,7323,-1,-1,0
-159.12,3.93,-27.44,581,-3810,7324,0,0,0
-159.12,3.93,-27.44,572,-3807,7319,0,0,0
-159.12,3.92,-27.44,555,-3802,7313,-1,0,-1
-159.12,3.92,-27.45,548,-3804,7311,-1,-1,-1
-159.12,3.92,-27.45,556,-3807,7312,0,-1,-1
-159.12,3.93,-27.44,565,-3810,7322,-1,-1,-1
-159.12,3.95,-27.45,575,-3813,7325,-1,-1,-1
-159.11,3.95,-27.45,594,-3812,7333,0,-1,-1
-159.11,3.96,-27.44,587,-3804,7328,0,0,0
-159.11,3.96,-27.43,588,-3788,7337,0,0,0
-159.11,3.95,-27.43,585,-3789,7326,0,0,0
-159.12,3.95,-27.43,572,-3794,7317,0,0,0
-159.12,3.94,-27.42,566,-3791,7317,-1,0,0
-159.12,3.93,-27.43,559,-3799,7324,-1,0,0
-159.12,3.94,-27.43,558,-3800,7328,-1,-1,-1
-159.12,3.94,-27.44,569,-3807,7318,-1,-1,0
-159.12,3.95,-27.44,576,-3810,7313,-1,-1,0
-159.12,3.96,-27.45,575,-3812,7323,-1,-1,-1
-159.12,3.96,-27.44,578,-3806,7330,-1,0,-1
-159.12,3.95,-27.44,572,-3805,7326,-1,0,0
-159.12,3.95,-27.45,568,-3807,7322,-1,0,0
-159.12,3.95,-27.45,566,-3801,7330,-1,-1,0
-159.12,3.95,-27.45,568,-3806,7317,-1,-1,0
-159.12,3.95,-27.45,566,-3818,7330,0,0,-1
-159.13,3.95,-27.45,566,-3810,7329,-1,-1,0
-159.13,3.95,-27.45,565,-3809,7315,-1,-1,-1
-159.12,3.96,-27.45,570,-3803,7324,-1,-1,0
-159.12,3.96,-27.45,572,-3805,7325,0,0,0
-159.12,3.96,-27.45,577,-3804,7333,0,0,0
-159.12,3.96,-27.45,579,-3805,7329,-1,0,0
-159.12,3.96,-27.45,578,-3804,7330,0,0,0
-159.12,3.96,-27.45,580,-3810,7329,-1,-1,-1
-159.12,3.96,-27.45,580,-3806,7335,0,0,-1
-159.12,3.96,-27.45,578,-3794,7331,-1,-1,0
-159.11,3.97,-27.45,576,-3795,7322,-1,-1,-1
-159.11,3.97,-27.45,573,-3808,7327,-1,0,-1
-159.11,3.97,-27.45,577,-3806,7328,-1,-1,0
-159.11,3.97,-27.45,570,-3815,7335,-1,0,0
-159.12,3.96,-27.45,570,-3807,7322,-1,-1,0
-159.12,3.96,-27.45,574,-3805,7332,-1,0,0
-159.12,3.96,-27.45,566,-3805,7323,0,0,0
-159.12,3.96,-27.45,568,-3803,7327,0,-1,-1
-159.12,3.96,-27.45,571,-3801,7333,-1,0,0
-159.12,3.96,-27.45,581,-3800,7327,-1,0,0
-159.12,3.96,-27.45,580,-3798,7332,-1,-1,0
-159.13,3.96,-27.46,589,-3814,7315,-1,0,0
-159.13,3.96,-27.46,588,-3818,7323,0,0,0
-159.13,3.95,-27.46,567,-3797,7323,-1,0,0
-159.13,3.95,-27.46,564,-3808,7321,-1,-1,0
-159.13,3.95,-27.46,573,-3811,7323,-1,0,-1
-159.13,3.94,-27.46,569,-3808,7319,0,0,0
-159.13,3.94,-27.46,568,-3802,7319,-1,-1,-1
-159.13,3.95,-27.47,578,-3819,7313,-1,-1,-1
-159.13,3.96,-27.46,585,-3823,7316,0,-1,0
-159.13,3.96,-27.46,590,-3822,7324,0,-1,0
-159.13,3.96,-27.46,592,-3815,7323,0,0,0
-159.13,3.96,-27.45,586,-3804,7327,0,0,0
-159.13,3.96,-27.45,573,-3803,7325,-1,0,0
-159.13,3.95,-27.46,560,-3799,7326,-1,0,0
-159.13,3.95,-27.46,559,-3802,7327,-1,-1,0
-159.13,3.96,-27.46,570,-3801,7324,-1,-1,-1
-159.14,3.96,-27.47,575,-3809,7326,-1,-1,-1
-159.14,3.97,-27.47,573,-3814,7313,-1,-1,-1
-159.14,3.97,-27.47,582,-3810,7329,-1,0,-1
-159.14,3.97,-27.47,585,-3813,7321,-1,0,0
-159.14,3.97,-27.47,590,-3809,7314,-1,0,0
-159.14,3.97,-27.47,587,-3809,7309,0,0,0
-159.15,3.96,-27.48,582,-3800,7313,-1,0,0
-159.15,3.96,-27.47,570,-3796,7319,-1,0,0
-159.15,3.96,-27.48,566,-3809,7321,-1,-1,0
-159.15,3.96,-27.48,562,-3825,7317,0,-1,-1
-159.15,3.96,-27.48,558,-3821,7320,-1,-1,0
-159.16,3.96,-27.48,564,-3812,7318,-1,-1,0
-159.16,3.96,-27.49,579,-3807,7308,-1,-1,0
-159.16,3.97,-27.49,588,-3809,7308,-1,0,0
-159.16,3.96,-27.50,584,-3808,7311,-1,0,0
-159.17,3.96,-27.50,581,-3810,7314,-1,-1,0
-159.17,3.96,-27.50,580,-3812,7316,-1,-1,0
-159.18,3.96,-27.50,582,-3806,7309,-1,0,0
-159.18,3.95,-27.51,572,-3808,7325,-1,0,0
-159.18,3.95,-27.51,564,-3816,7314,-1,0,0
-159.19,3.94,-27.52,568,-3815,7318,-1,0,0
-159.20,3.94,-27.52,575,-3811,7314,-1,0,0
-159.20,3.93,-27.53,568,-3812,7332,-1,0,0
-159.22,3.93,-27.55,573,-3839,7313,-1,-1,0
-159.21,3.92,-27.54,575,-3820,7340,-1,0,0
-159.23,3.91,-27.55,576,-3820,7325,-1,-1,0
-159.23,3.91,-27.56,569,-3824,7315,-1,0,0
-159.24,3.89,-27.57,570,-3822,7314,0,0,0
-159.25,3.89,-27.58,570,-3822,7289,-1,0,0
-159.26,3.88,-27.58,568,-3819,7331,-1,-1,0
-159.26,3.86,-27.59,564,-3809,7318,-1,1,0
-159.27,3.85,-27.60,557,-3821,7295,-1,-1,0
-159.27,3.85,-27.60,557,-3857,7311,0,0,0
-159.28,3.85,-27.59,572,-3820,7303,-1,0,0
-159.29,3.84,-27.58,555,-3841,7305,0,0,0
-159.29,3.83,-27.57,543,-3826,7305,-1,0,0
-159.29,3.83,-27.56,552,-3826,7317,1,0,-1
-159.30,3.83,-27.55,546,-3817,7310,-1,-2,0
-159.29,3.82,-27.54,540,-3828,7308,1,1,-1
-159.31,3.83,-27.53,552,-3804,7334,-1,-2,0
-159.30,3.82,-27.52,542,-3812,7330,0,0,-1
-159.31,3.83,-27.52,576,-3800,7334,0,0,0
-159.31,3.83,-27.53,574,-3820,7271,-1,-1,-1
-159.31,3.81,-27.51,539,-3802,7388,-1,0,0
-159.33,3.81,-27.54,550,-3830,7259,1,0,0
-159.33,3.81,-27.54,537,-3793,7379,-3,-2,0
-159.34,3.82,-27.55,566,-3836,7335,2,1,-1
-159.35,3.82,-27.57,531,-3838,7264,-2,-1,-1
-159.35,3.82,-27.55,566,-3836,7375,-1,-1,0
-159.35,3.83,-27.58,588,-3843,7234,0,1,-1
-159.35,3.80,-27.55,542,-3778,7373,-2,-1,0
-159.36,3.80,-27.56,535,-3822,7320,2,0,0
-159.37,3.81,-27.60,543,-3818,7257,-2,-1,0
-159.37,3.80,-27.58,519,-3817,7328,-1,-1,-1
-159.37,3.80,-27.61,546,-3834,7283,0,0,-1
-159.36,3.81,-27.60,554,-3817,7333,-2,-1,0
-159.36,3.82,-27.60,572,-3849,7319,1,0,-1
-159.36,3.81,-27.62,548,-3822,7279,-2,0,0
-159.36,3.80,-27.60,559,-3813,7364,0,-1,0
-159.37,3.81,-27.64,561,-3827,7255,0,1,-1
-159.37,3.79,-27.62,533,-3839,7359,-1,-1,0
-159.39,3.79,-27.64,542,-3841,7258,-1,0,-1
-159.39,3.78,-27.62,538,-3830,7379,0,-1,0
-159.39,3.78,-27.64,545,-3839,7280,0,0,-1
-159.40,3.78,-27.64,535,-3852,7312,-1,-1,0
-159.40,3.78,-27.64,547,-3825,7303,-2,0,0
-159.41,3.76,-27.63,536,-3816,7328,0,-1,0
-159.41,3.77,-27.66,558,-3852,7276,0,-1,0
-159.42,3.76,-27.64,557,-3812,7304,-1,-1,0
-159.42,3.75,-27.65,530,-3844,7299,0,0,-1
-159.42,3.76,-27.65,570,-3808,7305,-1,0,0
-159.42,3.75,-27.64,528,-3841,7325,1,0,0
-159.42,3.75,-27.65,546,-3817,7287,-2,-1,-1
-159.41,3.73,-27.64,520,-3829,7349,0,0,0
-159.42,3.75,-27.66,550,-3844,7248,-1,-1,-1
