Yaw,Pitch,Roll,AX,AY,AZ,GX,GY,GZ
84.41,179.76,-132.40,36,-6226,-5680,-1,-1,0
84.42,179.76,-132.41,35,-6223,-5685,-1,-1,0
84.42,179.76,-132.41,32,-6224,-5696,0,-1,0
84.42,179.76,-132.41,37,-6222,-5695,0,-1,0
84.42,179.76,-132.41,39,-6228,-5687,0,-1,0
84.42,179.76,-132.41,36,-6227,-5687,-1,-1,0
84.42,179.77,-132.40,41,-6230,-5681,-1,-1,0
84.42,179.77,-132.40,40,-6232,-5684,-1,-1,0
84.42,179.77,-132.40,38,-6235,-5692,-1,-1,0
84.42,179.76,-132.41,38,-6234,-5700,-1,0,-1
84.42,179.76,-132.41,36,-6232,-5693,-1,0,-1
84.42,179.76,-132.41,40,-6227,-5686,-1,-1,0
84.42,179.76,-132.41,39,-6232,-5688,-1,-1,0
84.42,179.76,-132.41,42,-6228,-5673,-1,0,0
84.42,179.76,-132.41,38,-6227,-5687,-1,0,0
84.42,179.76,-132.41,32,-6227,-5681,-1,0,0
84.42,179.76,-132.41,28,-6227,-5688,-1,0,0
84.41,179.76,-132.40,27,-6222,-5683,0,0,0
84.41,179.76,-132.40,32,-6217,-5675,-1,-1,0
84.41,179.76,-132.41,30,-6218,-5679,-1,-1,0
84.41,179.76,-132.41,34,-6212,-5683,0,-1,0
84.41,179.76,-132.41,30,-6214,-5698,0,0,-1
84.41,179.76,-132.41,26,-6217,-5703,0,0,0
84.41,179.76,-132.41,24,-6218,-5693,0,0,-1
84.41,179.76,-132.41,28,-6221,-5685,-1,0,-1
84.41,179.76,-132.41,42,-6219,-5689,-1,0,0
84.41,179.75,-132.42,32,-6214,-5697,-1,-1,0
84.41,179.76,-132.41,39,-6217,-5694,0,-1,0
84.41,179.76,-132.41,32,-6217,-5692,0,-1,0
84.41,179.76,-132.41,31,-6233,-5687,0,-1,-1
84.40,179.76,-132.40,28,-6233,-5678,-1,0,-1
84.40,179.76,-132.40,35,-6239,-5683,-1,0,-1
84.41,179.76,-132.41,38,-6229,-5688,-1,-1,-1
84.41,179.76,-132.41,23,-6225,-5688,-1,-1,0
84.41,179.75,-132.42,24,-6219,-5685,0,0,-1
84.39,179.76,-132.42,23,-6213,-5694,0,0,-1
84.41,179.75,-132.42,34,-6211,-5687,0,0,0
84.41,179.76,-132.42,38,-6220,-5693,0,0,0
84.40,179.76,-132.41,35,-6220,-5687,0,0,0
84.40,179.76,-132.41,31,-6225,-5683,0,0,0
84.40,179.76,-132.41,31,-6229,-5676,0,0,0
84.39,179.75,-132.40,31,-6230,-5674,0,0,-1
84.39,179.76,-132.40,36,-6223,-5668,-1,-1,0
84.39,179.75,-132.40,36,-6222,-5680,-1,0,0
84.39,179.75,-132.40,42,-6222,-5678,-1,-1,0
84.39,179.75,-132.40,44,-6234,-5692,0,0,0
84.39,179.75,-132.40,42,-6234,-5695,-1,0,-1
84.39,179.75,-132.40,32,-6239,-5694,-1,0,-1
84.39,179.75,-132.40,35,-6228,-5690,-1,-1,0
84.39,179.75,-132.40,36,-6223,-5690,-1,0,0
84.40,179.75,-132.41,39,-6222,-5685,-1,0,0
84.40,179.75,-132.41,35,-6216,-5692,0,0,0
84.40,179.75,-132.41,37,-6222,-5690,0,0,0
84.39,179.75,-132.40,34,-6224,-5691,0,-1,0
84.39,179.75,-132.40,41,-6221,-5694,0,0,0
84.39,179.75,-132.41,44,-6229,-5699,0,0,0
84.39,179.75,-132.41,36,-6228,-5688,-1,0,0
84.39,179.75,-132.41,33,-6226,-5687,-1,0,0
84.39,179.75,-132.41,35,-6228,-5686,-1,0,0
84.39,179.75,-132.41,30,-6228,-5687,0,0,-1
84.39,179.75,-132.41,31,-6229,-5691,0,0,-1
84.39,179.75,-132.41,31,-6225,-5688,-1,-1,-1
84.39,179.75,-132.41,32,-6222,-5689,-1,-1,-1
84.39,179.75,-132.41,28,-6223,-5696,-1,-1,-1
84.38,179.75,-132.41,29,-6230,-5700,0,0,0
84.39,179.75,-132.41,33,-6223,-5690,0,0,0
84.39,179.75,-132.41,36,-6215,-5693,-1,-1,-1
84.38,179.75,-132.41,36,-6219,-5683,-1,-1,0
84.38,179.75,-132.41,33,-6219,-5685,0,-1,0
84.38,179.75,-132.41,33,-6223,-5696,0,-1,0
84.38,179.75,-132.41,35,-6223,-5693,0,0,0
84.39,179.75,-132.41,32,-6223,-5675,-1,0,-1
84.39,179.75,-132.41,35,-6222,-5673,0,0,-1
84.39,179.75,-132.41,38,-6231,-5674,-1,0,0
84.39,179.74,-132.40,41,-6223,-5688,0,0,0
84.39,179.75,-132.41,38,-6216,-5686,-1,-1,0
84.39,179.75,-132.41,38,-6212,-5679,0,-1,0
84.38,179.75,-132.41,38,-6212,-5680,0,-1,0
84.39,179.74,-132.40,40,-6225,-5667,-1,0,-1
84.39,179.75,-132.40,31,-6228,-5669,-1,-1,-1
84.39,179.74,-132.40,34,-6224,-5667,-1,0,-1
84.39,179.75,-132.41,32,-6219,-5673,-1,-1,-1
84.39,179.75,-132.41,37,-6216,-5673,-1,0,-1
84.39,179.74,-132.41,41,-6220,-5673,0,0,-1
84.39,179.74,-132.41,43,-6222,-5691,0,0,-1
84.39,179.74,-132.41,39,-6220,-5702,0,0,0
84.39,179.74,-132.40,34,-6218,-5696,0,0,0
84.38,179.74,-132.40,29,-6226,-5683,0,0,0
84.38,179.74,-132.40,26,-6231,-5673,0,0,-1
84.37,179.74,-132.39,23,-6227,-5672,0,0,-1
84.37,179.74,-132.39,29,-6226,-5675,-1,0,0
84.37,179.74,-132.39,30,-6222,-5674,-1,0,0
84.37,179.74,-132.39,28,-6220,-5679,-1,-1,0
84.37,179.74,-132.39,29,-6225,-5689,0,-1,0
84.37,179.74,-132.39,37,-6227,-5693,0,0,-1
84.37,179.74,-132.39,41,-6231,-5693,-1,-1,0
84.37,179.74,-132.39,43,-6231,-5686,-1,-1,0
84.38,179.74,-132.40,36,-6225,-5684,-1,0,0
84.38,179.74,-132.40,37,-6219,-5689,-1,0,0
84.38,179.74,-132.40,39,-6222,-5690,0,0,0
84.38,179.74,-132.40,41,-6223,-5693,0,0,0
84.37,179.74,-132.39,42,-6224,-5691,0,0,0
84.37,179.74,-132.39,36,-6221,-5687,0,0,0
84.37,179.73,-132.38,33,-6223,-5689,0,0,0
84.37,179.74,-132.38,39,-6231,-5684,0,-1,0
84.37,179.74,-132.38,36,-6232,-5681,-1,0,0
84.37,179.74,-132.38,35,-6229,-5670,-1,0,-1
84.35,179.74,-132.38,29,-6233,-5678,-1,0,0
84.35,179.74,-132.39,38,-6236,-5686,-1,0,0
84.35,179.74,-132.39,41,-6231,-5680,-1,0,-1
84.35,179.74,-132.39,45,-6231,-5687,-1,0,-1
84.35,179.74,-132.39,43,-6229,-5683,0,0,0
84.35,179.74,-132.39,39,-6228,-5682,0,0,0
84.35,179.74,-132.39,39,-6229,-5683,-1,-1,0
84.35,179.74,-132.38,34,-6230,-5682,-1,-1,0
84.35,179.74,-132.38,33,-6229,-5689,0,0,-1
84.35,179.73,-132.38,43,-6225,-5695,0,0,0
84.35,179.73,-132.38,37,-6229,-5697,0,0,0
84.35,179.73,-132.38,38,-6225,-5703,-1,0,-1
84.35,179.73,-132.38,40,-6225,-5702,0,0,0
84.35,179.73,-132.38,39,-6221,-5692,0,0,0
84.35,179.73,-132.38,32,-6216,-5679,0,0,0
84.34,179.73,-132.38,40,-6209,-5673,0,0,-1
84.34,179.73,-132.38,43,-6222,-5672,-1,0,-1
84.34,179.73,-132.38,40,-6227,-5669,-1,-1,-1
84.35,179.73,-132.38,35,-6228,-5678,-1,-1,0
84.35,179.73,-132.39,33,-6215,-5687,-1,-1,0
84.35,179.73,-132.39,32,-6219,-5686,0,0,-1
84.35,179.73,-132.40,42,-6225,-5680,0,0,-1
84.35,179.72,-132.39,41,-6224,-5673,0,0,0
84.35,179.72,-132.39,38,-6223,-5679,0,0,0
84.35,179.73,-132.38,43,-6229,-5678,-1,-1,0
84.35,179.73,-132.38,39,-6226,-5676,0,0,-1
84.35,179.73,-132.38,44,-6227,-5680,0,0,-1
84.34,179.72,-132.38,38,-6228,-5675,0,0,0
84.34,179.72,-132.38,35,-6229,-5682,0,-1,-1
84.34,179.73,-132.38,37,-6225,-5673,0,-1,0
84.34,179.73,-132.38,35,-6225,-5668,0,-1,0
84.34,179.73,-132.38,44,-6232,-5674,0,-1,-1
84.33,179.72,-132.38,42,-6234,-5685,0,-1,-1
84.34,179.73,-132.38,37,-6229,-5685,-1,-1,0
84.35,179.73,-132.38,35,-6226,-5673,-1,-1,0
84.35,179.73,-132.38,33,-6227,-5676,0,-1,-1
84.35,179.73,-132.38,36,-6228,-5686,-1,-1,0
84.36,179.73,-132.38,37,-6229,-5682,0,0,-1
84.35,179.73,-132.37,40,-6230,-5681,0,-1,0
84.35,179.73,-132.37,35,-6233,-5684,0,-1,0
84.35,179.73,-132.37,38,-6225,-5672,0,0,0
84.34,179.74,-132.37,36,-6229,-5686,0,0,-1
84.33,179.73,-132.36,46,-6226,-5682,0,0,0
84.33,179.73,-132.37,42,-6227,-5676,-1,0,0
84.33,179.73,-132.37,40,-6229,-5688,-1,0,-1
84.33,179.73,-132.37,36,-6233,-5679,-1,0,-1
84.33,179.72,-132.37,39,-6240,-5683,-1,0,-1
84.33,179.72,-132.38,49,-6225,-5676,-1,0,-1
84.34,179.72,-132.38,48,-6223,-5683,-1,-1,0
84.34,179.72,-132.38,49,-6219,-5680,-1,-1,0
84.34,179.72,-132.38,44,-6220,-5673,-1,-1,0
84.34,179.73,-132.38,39,-6224,-5676,0,-1,0
84.35,179.73,-132.38,34,-6227,-5678,0,-1,0
84.35,179.73,-132.38,30,-6229,-5681,-1,0,0
84.35,179.73,-132.38,38,-6228,-5685,-1,0,0
84.35,179.73,-132.38,33,-6228,-5686,0,0,0
84.34,179.73,-132.37,34,-6228,-5681,0,-1,0
84.34,179.73,-132.37,34,-6225,-5678,0,0,0
84.33,179.74,-132.38,28,-6227,-5679,-1,-1,-1
84.35,179.74,-132.38,33,-6228,-5679,-1,0,-1
84.35,179.74,-132.38,36,-6230,-5680,-1,-1,-1
84.34,179.74,-132.38,37,-6230,-5683,-1,-1,0
84.34,179.74,-132.38,24,-6226,-5691,-1,-1,0
84.34,179.74,-132.39,28,-6211,-5687,-1,0,-1
84.34,179.74,-132.39,38,-6215,-5693,0,0,-1
84.34,179.74,-132.39,43,-6219,-5691,0,-1,0
84.34,179.74,-132.39,43,-6219,-5681,-1,-1,0
84.34,179.74,-132.38,36,-6223,-5683,0,0,0
84.34,179.74,-132.38,32,-6222,-5681,-1,0,0
84.33,179.74,-132.38,25,-6226,-5685,0,0,-1
84.33,179.74,-132.38,30,-6230,-5683,0,0,0
84.33,179.74,-132.38,29,-6235,-5681,-1,0,0
84.33,179.74,-132.38,30,-6225,-5682,-1,-1,0
84.33,179.74,-132.39,38,-6222,-5675,-1,-1,0
84.34,179.74,-132.39,46,-6218,-5680,-1,-1,-1
84.34,179.74,-132.39,42,-6230,-5696,0,-1,0
84.34,179.74,-132.39,41,-6224,-5692,-1,0,-1
84.34,179.73,-132.40,46,-6218,-5687,-1,-1,0
84.33,179.74,-132.40,47,-6225,-5683,-1,-1,0
84.33,179.74,-132.40,42,-6225,-5689,-1,0,0
84.33,179.74,-132.40,42,-6224,-5699,0,0,0
84.33,179.74,-132.40,41,-6222,-5691,0,0,0
84.33,179.74,-132.40,31,-6226,-5686,0,-1,0
84.33,179.74,-132.40,36,-6227,-5690,-1,-1,0
84.33,179.74,-132.40,38,-6231,-5692,-1,-1,0
84.33,179.74,-132.40,34,-6231,-5690,-1,-1,-1
84.33,179.74,-132.40,36,-6230,-5687,0,-1,0
84.33,179.74,-132.40,32,-6227,-5686,-1,0,0
84.33,179.74,-132.40,37,-6220,-5675,-1,0,0
84.33,179.74,-132.40,41,-6224,-5682,-1,-1,-1
84.33,179.74,-132.40,41,-6224,-5683,-1,-1,0
84.33,179.74,-132.40,35,-6220,-5683,0,0,0
84.33,179.74,-132.40,34,-6216,-5681,0,-1,0
84.33,179.75,-132.41,33,-6219,-5690,-1,-1,0
84.33,179.75,-132.41,37,-6223,-5689,-1,-1,0
84.33,179.75,-132.40,31,-6229,-5688,-1,-1,0
84.33,179.75,-132.41,26,-6228,-5685,-1,-1,0
84.33,179.75,-132.41,27,-6228,-5681,-1,-1,-1
84.33,179.75,-132.41,28,-6221,-5681,-1,0,0
84.33,179.75,-132.41,40,-6223,-5675,-1,0,-1
84.33,179.75,-132.41,34,-6223,-5678,0,-1,0
84.33,179.75,-132.41,38,-6222,-5679,0,-1,0
84.33,179.75,-132.41,32,-6221,-5686,0,-1,0
84.33,179.75,-132.40,33,-6219,-5677,0,-1,-1
84.33,179.75,-132.41,32,-6221,-5692,-1,0,-1
84.33,179.75,-132.41,38,-6226,-5697,-1,-1,-1
84.33,179.75,-132.41,37,-6224,-5696,-1,-1,-1
84.33,179.75,-132.41,31,-6214,-5692,-1,0,-1
84.33,179.75,-132.41,35,-6209,-5680,0,-1,-1
84.33,179.75,-132.41,33,-6210,-5676,0,0,0
84.33,179.75,-132.41,40,-6222,-5682,0,-1,0
84.33,179.75,-132.41,37,-6232,-5688,0,-1,0
84.33,179.75,-132.40,33,-6231,-5689,0,0,-1
84.33,179.75,-132.40,34,-6226,-5695,0,0,0
84.33,179.75,-132.40,29,-6227,-5689,0,0,-1
84.32,179.75,-132.40,33,-6235,-5672,-1,0,0
84.32,179.75,-132.40,35,-6232,-5675,-1,-1,0
84.32,179.75,-132.40,29,-6225,-5672,0,-1,0
84.32,179.75,-132.40,22,-6222,-5673,0,-1,0
84.32,179.75,-132.40,32,-6221,-5668,0,-1,0
84.32,179.75,-132.39,34,-6224,-5676,0,-1,-1
84.32,179.75,-132.39,31,-6226,-5686,0,-1,0
84.32,179.76,-132.40,25,-6231,-5692,-1,-1,0
84.32,179.76,-132.40,24,-6231,-5692,-1,-1,0
84.33,179.76,-132.41,27,-6227,-5689,-1,0,0
84.32,179.75,-132.40,39,-6224,-5687,0,0,-1
84.32,179.75,-132.40,37,-6216,-5689,0,0,-1
84.32,179.75,-132.40,31,-6223,-5688,0,-1,0
84.32,179.76,-132.40,33,-6216,-5686,0,0,0
84.32,179.75,-132.39,37,-6223,-5685,0,0,0
84.32,179.75,-132.40,36,-6225,-5689,0,0,-1
84.32,179.75,-132.40,39,-6218,-5689,-1,0,0
84.32,179.75,-132.40,37,-6218,-5692,-1,0,0
84.32,179.75,-132.40,37,-6219,-5692,-1,0,-1
84.32,179.74,-132.40,33,-6222,-5689,-1,-1,0
84.31,179.75,-132.40,37,-6217,-5685,-1,-1,0
84.32,179.74,-132.40,40,-6226,-5675,-1,-1,0
84.32,179.74,-132.40,36,-6228,-5680,0,0,0
84.32,179.74,-132.40,38,-6227,-5677,-1,-1,0
84.32,179.74,-132.40,37,-6221,-5691,-1,-1,0
84.31,179.75,-132.41,37,-6220,-5698,0,0,0
84.31,179.75,-132.41,35,-6227,-5699,0,0,0
84.31,179.75,-132.40,41,-6220,-5687,-1,-1,0
84.31,179.75,-132.41,32,-6218,-5695,0,-1,-1
84.31,179.75,-132.41,28,-6220,-5696,0,-1,0
84.31,179.75,-132.41,28,-6224,-5695,-1,0,-1
84.31,179.75,-132.41,31,-6223,-5698,0,-1,0
84.31,179.75,-132.41,31,-6225,-5698,0,-1,0
84.31,179.75,-132.41,28,-6222,-5689,0,0,-1
84.31,179.75,-132.40,26,-6228,-5686,-1,-1,-1
84.31,179.75,-132.40,36,-6239,-5688,-1,-1,-1
84.31,179.75,-132.41,37,-6237,-5687,-1,-1,0
84.31,179.75,-132.41,32,-6233,-5684,-1,-1,0
84.32,179.75,-132.41,26,-6224,-5675,-1,0,-1
84.32,179.75,-132.41,26,-6217,-5681,-1,0,0
84.32,179.75,-132.41,33,-6215,-5687,0,0,-1
84.32,179.75,-132.41,35,-6218,-5685,0,-1,0
84.32,179.75,-132.41,39,-6220,-5689,0,0,0
84.31,179.75,-132.41,44,-6220,-5683,0,0,0
84.31,179.75,-132.41,40,-6223,-5688,-1,0,0
84.31,179.75,-132.40,33,-6227,-5682,0,0,-1
84.31,179.74,-132.41,35,-6229,-5680,0,0,-1
84.31,179.74,-132.41,41,-6221,-5682,-1,-1,0
84.31,179.74,-132.41,38,-6219,-5688,-1,-1,0
84.31,179.75,-132.41,36,-6219,-5693,0,-1,0
84.31,179.75,-132.41,40,-6223,-5706,0,0,-1
84.31,179.75,-132.41,42,-6225,-5701,0,-1,-1
84.31,179.75,-132.41,34,-6223,-5693,0,-1,0
84.31,179.75,-132.41,24,-6226,-5689,-1,-1,0
84.32,179.75,-132.42,27,-6221,-5688,-1,-1,-1
84.32,179.75,-132.42,31,-6223,-5689,-1,0,0
84.31,179.75,-132.41,36,-6224,-5695,0,0,0
84.31,179.75,-132.41,31,-6225,-5696,0,0,0
84.31,179.74,-132.41,37,-6229,-5692,0,0,0
84.31,179.74,-132.41,38,-6227,-5683,-1,0,-1
84.31,179.74,-132.41,35,-6225,-5685,0,0,-1
84.30,179.74,-132.40,35,-6223,-5682,0,0,0
84.31,179.74,-132.41,35,-6220,-5692,0,0,0
84.30,179.74,-132.40,38,-6219,-5679,-1,-1,0
84.31,179.74,-132.41,35,-6222,-5683,-1,0,0
84.31,179.74,-132.41,42,-6227,-5686,-1,-1,-1
84.31,179.74,-132.41,41,-6228,-5699,-1,-1,0
84.31,179.74,-132.41,38,-6226,-5692,0,-1,0
84.31,179.74,-132.41,38,-6224,-5684,0,0,0
84.30,179.74,-132.40,41,-6227,-5692,0,0,0
84.30,179.74,-132.40,40,-6224,-5689,0,-1,0
84.29,179.74,-132.41,34,-6224,-5695,0,-1,0
84.29,179.74,-132.41,30,-6220,-5704,0,-1,0
84.29,179.75,-132.40,31,-6222,-5692,-1,0,0
84.29,179.74,-132.40,33,-6222,-5690,-1,0,0
84.29,179.74,-132.40,31,-6224,-5688,-1,0,0
84.29,179.74,-132.41,36,-6219,-5697,-1,0,0
84.29,179.74,-132.41,39,-6220,-5694,0,0,0
84.28,179.74,-132.40,39,-6216,-5691,0,0,0
84.28,179.75,-132.40,31,-6218,-5681,0,0,-1
84.28,179.75,-132.40,37,-6224,-5680,0,0,-1
84.28,179.75,-132.40,36,-6229,-5679,-1,-1,-1
84.29,179.74,-132.40,40,-6230,-5684,-1,-1,0
84.29,179.74,-132.41,35,-6228,-5689,-1,-1,0
84.29,179.74,-132.41,31,-6224,-5680,-1,-1,0
84.29,179.74,-132.41,33,-6215,-5675,0,0,-1
84.29,179.74,-132.41,42,-6220,-5689,0,0,-1
84.29,179.74,-132.40,46,-6231,-5692,0,0,0
84.28,179.74,-132.40,40,-6229,-5686,0,0,0
84.28,179.75,-132.40,35,-6230,-5691,0,0,0
84.28,179.74,-132.39,34,-6227,-5684,0,0,-1
84.28,179.74,-132.39,35,-6229,-5680,-1,0,-1
84.28,179.74,-132.40,41,-6229,-5688,-1,0,0
84.28,179.74,-132.40,45,-6221,-5681,-1,-1,0
84.28,179.74,-132.40,39,-6221,-5687,0,-1,0
84.28,179.74,-132.40,35,-6225,-5691,-1,0,-1
84.28,179.74,-132.39,32,-6224,-5692,0,0,-1
84.28,179.74,-132.40,38,-6222,-5675,-1,-1,0
84.28,179.74,-132.40,37,-6222,-5680,-1,-1,0
84.29,179.75,-132.41,31,-6222,-5683,-1,-1,0
84.29,179.75,-132.41,29,-6220,-5685,-1,-1,0
84.29,179.75,-132.41,36,-6215,-5683,0,-1,-1
84.29,179.75,-132.41,36,-6215,-5674,0,0,-1
84.29,179.75,-132.40,35,-6219,-5669,0,0,0
84.29,179.75,-132.40,35,-6219,-5683,0,0,0
84.28,179.74,-132.40,41,-6227,-5686,-1,-1,0
84.29,179.75,-132.41,37,-6228,-5700,0,0,0
84.28,179.74,-132.40,41,-6221,-5692,0,0,0
84.28,179.74,-132.40,43,-6230,-5679,0,0,0
84.28,179.74,-132.40,35,-6230,-5679,-1,0,-1
84.28,179.74,-132.40,37,-6234,-5680,-1,-1,-1
84.28,179.74,-132.40,34,-6236,-5680,-1,0,-1
84.28,179.74,-132.40,35,-6226,-5683,-1,0,-1
84.29,179.74,-132.41,33,-6225,-5688,-1,0,-1
84.29,179.74,-132.41,35,-6225,-5688,-1,-1,0
84.29,179.74,-132.41,36,-6222,-5679,-1,-1,0
84.29,179.74,-132.41,35,-6220,-5691,-1,-1,-1
84.29,179.74,-132.41,30,-6222,-5690,-1,0,-1
84.29,179.74,-132.41,34,-6223,-5691,-1,-1,0
84.28,179.74,-132.41,36,-6220,-5684,0,0,0
84.29,179.74,-132.41,37,-6219,-5678,0,-1,0
84.29,179.75,-132.41,45,-6225,-5674,0,0,0
84.28,179.74,-132.40,42,-6227,-5676,0,0,-1
84.28,179.74,-132.40,42,-6224,-5674,-1,-1,-1
84.28,179.74,-132.40,40,-6228,-5682,-1,-1,-1
84.29,179.74,-132.41,45,-6230,-5690,-1,-1,-1
84.29,179.74,-132.41,41,-6229,-5691,-1,-1,0
84.30,179.74,-132.42,34,-6218,-5700,-1,0,-1
84.30,179.74,-132.42,41,-6213,-5693,0,0,-1
84.30,179.74,-132.42,42,-6215,-5701,0,0,-1
84.30,179.74,-132.42,42,-6225,-5703,0,0,0
84.30,179.74,-132.42,35,-6220,-5692,0,-1,0
84.29,179.74,-132.41,26,-6222,-5686,-1,0,0
84.29,179.74,-132.41,28,-6224,-5689,0,0,-1
84.29,179.75,-132.42,26,-6236,-5689,-1,0,-1
84.28,179.74,-132.41,35,-6234,-5681,-1,0,0
84.29,179.75,-132.42,35,-6235,-5689,-1,-1,0
84.29,179.75,-132.42,34,-6233,-5691,-1,-1,-1
84.29,179.75,-132.42,38,-6230,-5686,-1,-1,0
84.30,179.74,-132.42,42,-6225,-5676,-1,-1,0
84.30,179.75,-132.41,41,-6231,-5676,0,-1,0
84.30,179.75,-132.41,37,-6227,-5687,-1,-1,0
84.30,179.75,-132.42,34,-6225,-5698,-1,-1,0
84.29,179.76,-132.42,32,-6225,-5692,0,-1,0
84.29,179.76,-132.42,36,-6218,-5694,0,0,0
84.30,179.75,-132.42,44,-6225,-5690,0,-1,0
84.30,179.75,-132.41,41,-6222,-5682,-1,-1,0
84.30,179.75,-132.41,33,-6223,-5684,-1,-1,0
84.29,179.76,-132.42,34,-6228,-5691,-1,0,0
84.29,179.76,-132.42,37,-6219,-5697,-1,0,0
84.29,179.76,-132.42,33,-6219,-5704,-1,0,-1
84.29,179.76,-132.42,38,-6222,-5694,-1,0,-1
84.29,179.75,-132.42,35,-6226,-5684,-1,0,-1
84.29,179.75,-132.42,36,-6223,-5686,-1,0,-1
84.29,179.75,-132.42,38,-6217,-5678,-1,-1,0
84.29,179.75,-132.42,37,-6219,-5684,0,-1,0
84.29,179.75,-132.42,34,-6226,-5692,0,-1,0
84.30,179.76,-132.42,34,-6223,-5684,0,-1,0
84.30,179.76,-132.42,37,-6223,-5683,0,-1,0
84.30,179.76,-132.42,43,-6227,-5691,0,-1,0
84.30,179.76,-132.42,41,-6225,-5693,-1,-1,0
84.30,179.76,-132.43,43,-6224,-5692,-1,-1,0
84.30,179.76,-132.43,42,-6222,-5687,-1,-1,0
84.30,179.77,-132.43,37,-6218,-5678,-1,-1,0
84.31,179.76,-132.43,37,-6215,-5680,-1,-1,0
84.31,179.76,-132.43,42,-6212,-5687,0,-1,0
84.31,179.76,-132.43,40,-6219,-5693,0,0,0
84.30,179.77,-132.42,31,-6234,-5692,-1,-1,0
84.30,179.77,-132.42,34,-6240,-5693,-1,0,-1
84.31,179.76,-132.43,45,-6231,-5687,-1,-1,-1
84.31,179.77,-132.43,30,-6219,-5686,-1,-1,-1
84.31,179.76,-132.44,31,-6211,-5681,-1,-1,0
84.32,179.76,-132.45,26,-6211,-5683,-1,-1,-1
84.32,179.76,-132.45,38,-6209,-5687,0,-1,-1
84.32,179.77,-132.44,42,-6214,-5688,0,-1,0
84.31,179.77,-132.43,37,-6219,-5685,0,0,0
84.31,179.77,-132.43,27,-6221,-5686,0,-1,0
84.31,179.77,-132.43,26,-6221,-5687,0,0,-1
84.31,179.77,-132.43,24,-6220,-5683,0,0,-1
84.31,179.77,-132.43,36,-6222,-5679,0,0,-1
84.31,179.77,-132.43,38,-6220,-5682,-1,-1,0
84.31,179.77,-132.43,34,-6223,-5686,-1,-1,0
84.31,179.77,-132.43,36,-6224,-5683,-1,-1,0
84.31,179.77,-132.43,39,-6230,-5700,0,0,-1
84.31,179.77,-132.43,36,-6229,-5687,0,0,0
84.31,179.77,-132.43,40,-6231,-5694,-1,0,-1
84.31,179.77,-132.43,36,-6228,-5689,-1,-1,0
84.32,179.77,-132.44,31,-6225,-5700,-1,0,-1
84.32,179.76,-132.45,23,-6221,-5702,-1,-1,-1
84.32,179.76,-132.45,34,-6217,-5696,0,0,0
84.31,179.76,-132.44,38,-6217,-5691,0,0,0
84.31,179.76,-132.44,32,-6219,-5683,0,-1,0
84.31,179.77,-132.43,28,-6220,-5690,0,0,0
84.31,179.77,-132.43,35,-6219,-5695,0,-1,0
84.31,179.77,-132.43,33,-6222,-5702,-1,0,0
84.32,179.77,-132.44,30,-6220,-5690,-1,0,0
84.30,179.77,-132.44,28,-6219,-5688,-1,0,0
84.32,179.77,-132.44,31,-6220,-5684,0,0,0
84.32,179.77,-132.44,31,-6220,-5689,-1,0,-1
84.32,179.77,-132.44,36,-6221,-5694,-1,-1,0
84.32,179.77,-132.44,31,-6228,-5687,-1,-1,0
84.31,179.77,-132.43,30,-6227,-5686,-1,-1,-1
84.32,179.77,-132.44,31,-6223,-5691,-1,-1,0
84.32,179.77,-132.44,31,-6223,-5689,-1,0,0
84.32,179.77,-132.44,39,-6224,-5697,-1,0,0
84.31,179.76,-132.44,44,-6223,-5693,0,0,0
84.31,179.76,-132.44,44,-6224,-5683,0,0,-1
84.31,179.77,-132.43,33,-6229,-5688,0,0,-1
84.31,179.77,-132.43,28,-6228,-5692,-1,0,0
84.31,179.77,-132.43,28,-6225,-5682,0,0,-1
84.31,179.76,-132.43,33,-6220,-5675,-1,0,0
84.31,179.76,-132.43,34,-6217,-5676,0,0,0
84.31,179.76,-132.43,30,-6213,-5675,0,-1,0
84.31,179.76,-132.43,29,-6214,-5667,0,-1,0
84.30,179.76,-132.42,34,-6220,-5660,0,-1,0
84.31,179.76,-132.42,32,-6228,-5676,-1,-1,-1
84.32,179.76,-132.42,33,-6231,-5682,-1,-1,-1
84.32,179.76,-132.43,33,-6224,-5690,-1,-1,-1
84.31,179.77,-132.43,32,-6218,-5685,-1,-1,-1
84.31,179.76,-132.43,37,-6216,-5679,-1,0,-1
84.32,179.76,-132.43,38,-6215,-5673,0,0,-1
84.31,179.76,-132.42,48,-6217,-5678,0,0,0
84.31,179.76,-132.42,45,-6224,-5687,0,0,0
84.31,179.76,-132.42,38,-6212,-5686,0,0,0
84.31,179.76,-132.42,33,-6210,-5686,-1,0,0
84.31,179.75,-132.42,36,-6222,-5686,0,0,-1
84.31,179.75,-132.42,38,-6227,-5678,-1,-1,0
84.31,179.75,-132.42,40,-6225,-5684,-1,-1,0
84.31,179.75,-132.43,39,-6219,-5689,-1,-1,0
84.30,179.75,-132.43,40,-6217,-5687,-1,-1,0
84.31,179.75,-132.43,38,-6221,-5688,-1,0,-1
84.31,179.75,-132.42,46,-6225,-5691,0,0,-1
84.31,179.75,-132.42,40,-6227,-5688,0,-1,0
84.31,179.75,-132.42,27,-6226,-5682,-1,-1,0
84.31,179.76,-132.42,27,-6221,-5678,-1,-1,0
84.31,179.75,-132.43,30,-6212,-5679,-1,0,0
84.31,179.75,-132.43,33,-6215,-5681,0,0,0
84.31,179.75,-132.43,34,-6222,-5695,0,0,0
84.31,179.75,-132.42,38,-6225,-5700,0,0,0
84.31,179.75,-132.42,47,-6225,-5696,0,0,0
84.30,179.74,-132.42,42,-6221,-5699,0,0,-1
84.30,179.74,-132.42,36,-6223,-5686,-1,0,0
84.30,179.74,-132.42,39,-6217,-5684,-1,0,-1
84.30,179.74,-132.42,39,-6221,-5677,0,0,-1
84.30,179.74,-132.42,36,-6225,-5676,-1,0,-1
84.30,179.74,-132.42,36,-6220,-5673,-1,-1,-1
84.30,179.74,-132.42,33,-6219,-5685,-1,0,0
84.31,179.75,-132.42,36,-6228,-5689,-1,-1,-1
84.30,179.74,-132.42,38,-6221,-5685,0,-1,0
84.31,179.75,-132.42,38,-6219,-5687,-1,0,0
84.30,179.74,-132.42,41,-6225,-5677,-1,-1,0
84.30,179.74,-132.42,45,-6224,-5680,0,0,0
84.30,179.74,-132.42,40,-6221,-5677,0,-1,0
84.30,179.74,-132.42,38,-6223,-5690,0,0,-1
84.30,179.74,-132.42,39,-6222,-5685,0,0,0
84.30,179.74,-132.42,31,-6222,-5683,0,0,0
84.30,179.74,-132.42,31,-6221,-5677,0,0,0
84.29,179.74,-132.41,34,-6224,-5684,-1,0,-1
84.29,179.74,-132.41,37,-6229,-5676,-1,0,-1
84.29,179.74,-132.41,39,-6226,-5685,-1,0,-1
84.29,179.74,-132.41,43,-6224,-5687,-1,0,-1
84.29,179.74,-132.41,39,-6225,-5689,0,0,0
84.29,179.74,-132.41,37,-6221,-5689,0,0,0
84.29,179.74,-132.41,34,-6221,-5687,0,0,-1
84.29,179.74,-132.41,33,-6216,-5673,-1,-1,-1
84.29,179.74,-132.41,39,-6223,-5684,-1,-1,-1
84.29,179.74,-132.41,43,-6225,-5689,-1,-1,-1
84.30,179.74,-132.42,36,-6222,-5690,-1,-1,-1
84.30,179.74,-132.42,37,-6215,-5692,0,0,-1
84.30,179.74,-132.42,35,-6214,-5688,0,0,-1
84.29,179.73,-132.42,45,-6217,-5685,0,0,0
84.29,179.73,-132.42,48,-6220,-5685,0,0,0
84.29,179.73,-132.42,35,-6222,-5684,0,-1,0
84.29,179.74,-132.41,34,-6227,-5672,0,0,0
84.29,179.74,-132.41,34,-6229,-5674,0,0,-1
84.29,179.74,-132.41,35,-6235,-5672,0,0,-1
84.28,179.73,-132.40,36,-6231,-5661,-1,-1,0
84.29,179.74,-132.41,42,-6222,-5669,-1,-1,0
84.29,179.74,-132.41,41,-6223,-5665,-1,-1,0
84.28,179.73,-132.40,39,-6227,-5672,0,0,0
84.28,179.73,-132.40,39,-6223,-5678,-1,0,-1
84.29,179.73,-132.40,36,-6223,-5677,-1,-1,-1
84.29,179.74,-132.41,33,-6219,-5679,-1,-1,-1
84.29,179.74,-132.41,33,-6223,-5692,-1,-1,0
84.29,179.74,-132.42,35,-6221,-5702,0,0,-1
84.29,179.74,-132.42,34,-6222,-5694,0,-1,0
84.29,179.74,-132.41,36,-6223,-5686,0,0,-1
84.29,179.74,-132.41,40,-6221,-5692,-1,-1,0
84.29,179.74,-132.41,37,-6222,-5693,0,-1,0
84.29,179.74,-132.41,37,-6223,-5690,0,0,0
84.29,179.74,-132.41,39,-6217,-5689,0,0,0
84.29,179.74,-132.41,35,-6221,-5687,0,0,0
84.29,179.74,-132.41,34,-6223,-5679,-1,0,0
84.29,179.74,-132.41,31,-6227,-5679,-1,-1,-1
84.29,179.74,-132.41,32,-6228,-5685,-1,0,-1
84.29,179.74,-132.41,35,-6229,-5685,-1,0,-1
84.29,179.73,-132.41,34,-6231,-5687,-1,0,-1
84.29,179.74,-132.42,35,-6222,-5685,-1,-1,-1
84.29,179.73,-132.41,41,-6216,-5692,0,0,-1
84.29,179.73,-132.41,37,-6219,-5688,-1,0,0
84.29,179.73,-132.41,38,-6224,-5679,0,-1,0
84.29,179.73,-132.41,35,-6222,-5673,0,0,0
84.29,179.74,-132.41,38,-6234,-5677,0,0,0
84.29,179.74,-132.41,34,-6230,-5671,0,-1,0
84.29,179.74,-132.41,33,-6223,-5678,-1,-1,-1
84.29,179.74,-132.41,36,-6221,-5688,-1,-1,-1
84.29,179.74,-132.41,38,-6231,-5684,0,0,-1
84.28,179.73,-132.40,39,-6232,-5679,0,0,0
84.28,179.74,-132.40,35,-6224,-5678,0,0,0
84.28,179.74,-132.40,39,-6230,-5681,-1,-1,-1
84.29,179.73,-132.40,41,-6234,-5685,-1,-1,-1
84.29,179.74,-132.41,36,-6230,-5693,-1,-1,0
84.29,179.74,-132.41,36,-6222,-5686,-1,-1,-1
84.29,179.74,-132.41,39,-6218,-5684,-1,-1,-1
84.29,179.74,-132.41,39,-6214,-5691,0,-1,0
84.30,179.74,-132.42,35,-6217,-5685,-1,-1,0
84.30,179.74,-132.42,34,-6218,-5692,-1,-1,-1
84.30,179.74,-132.42,38,-6218,-5699,0,-1,0
84.30,179.74,-132.42,31,-6222,-5699,0,-1,0
84.30,179.74,-132.42,32,-6218,-5684,0,0,-1
84.29,179.74,-132.41,36,-6217,-5678,-1,0,0
84.29,179.74,-132.41,45,-6224,-5677,-1,-1,0
84.29,179.74,-132.41,36,-6224,-5679,-1,-1,0
84.30,179.74,-132.42,32,-6221,-5678,0,-1,0
84.30,179.74,-132.42,35,-6221,-5678,0,-1,-1
84.30,179.74,-132.42,40,-6226,-5685,0,-1,-1
84.30,179.74,-132.42,35,-6230,-5686,0,-1,0
84.30,179.75,-132.41,39,-6236,-5686,-1,-1,0
84.30,179.75,-132.41,34,-6229,-5680,-1,-1,0
84.31,179.75,-132.42,28,-6226,-5684,-1,-1,-1
84.31,179.75,-132.42,28,-6226,-5688,-1,0,-1
84.31,179.75,-132.42,36,-6226,-5699,0,0,0
84.31,179.75,-132.42,37,-6224,-5684,0,-1,0
84.31,179.75,-132.42,28,-6221,-5693,0,-1,0
84.31,179.75,-132.42,33,-6224,-5681,-1,-1,0
84.31,179.75,-132.42,32,-6227,-5688,-1,0,0
84.31,179.75,-132.42,34,-6227,-5689,-1,0,-1
84.31,179.75,-132.42,39,-6224,-5688,0,0,-1
84.31,179.75,-132.42,41,-6220,-5692,-1,-1,0
84.31,179.75,-132.42,45,-6217,-5686,-1,-1,0
84.31,179.75,-132.42,39,-6221,-5686,-1,0,0
84.31,179.75,-132.42,43,-6226,-5687,-1,-1,0
84.31,179.76,-132.42,26,-6224,-5688,-1,-1,0
84.31,179.76,-132.42,28,-6220,-5693,-1,-1,0
84.31,179.76,-132.42,33,-6214,-5691,-1,-1,0
84.31,179.76,-132.42,32,-6219,-5689,-1,0,0
84.31,179.76,-132.42,34,-6219,-5686,-1,-1,0
84.32,179.76,-132.43,30,-6219,-5676,-1,0,0
84.31,179.76,-132.43,31,-6222,-5686,-1,0,0
84.31,179.76,-132.43,33,-6225,-5693,-1,0,0
84.31,179.76,-132.43,25,-6226,-5693,-1,0,-1
84.31,179.76,-132.43,25,-6222,-5695,-1,-1,-1
84.31,179.76,-132.43,32,-6224,-5701,-1,0,-1
84.31,179.76,-132.43,39,-6223,-5696,0,0,0
84.31,179.76,-132.43,39,-6215,-5696,0,-1,0
84.31,179.76,-132.43,37,-6221,-5685,0,0,0
84.31,179.76,-132.43,32,-6221,-5680,-1,-1,-1
84.31,179.76,-132.43,37,-6227,-5684,-1,-1,-1
84.31,179.76,-132.43,35,-6226,-5695,-1,0,-1
84.31,179.76,-132.44,32,-6222,-5688,-1,-1,0
84.32,179.76,-132.45,31,-6212,-5696,-1,0,-1
84.31,179.75,-132.45,37,-6208,-5695,0,0,-1
84.31,179.75,-132.45,46,-6215,-5696,0,-1,0
84.31,179.76,-132.44,42,-6220,-5682,0,-1,0
84.31,179.76,-132.44,42,-6223,-5689,-1,0,0
84.31,179.76,-132.43,34,-6221,-5679,0,0,0
84.31,179.76,-132.43,35,-6225,-5678,-1,0,-1
84.31,179.76,-132.43,31,-6224,-5681,-1,0,0
84.31,179.76,-132.43,38,-6227,-5672,-1,0,0
84.31,179.76,-132.43,41,-6227,-5675,-1,-1,0
84.31,179.76,-132.43,36,-6223,-5681,-1,-1,0
84.31,179.76,-132.43,32,-6227,-5677,-1,-1,-1
84.31,179.76,-132.43,40,-6225,-5684,0,-1,-1
84.31,179.76,-132.43,43,-6231,-5686,0,-1,-1
84.31,179.76,-132.43,39,-6225,-5686,-1,-1,-1
84.31,179.76,-132.44,27,-6226,-5691,-1,-1,0
84.31,179.76,-132.44,34,-6219,-5687,-1,0,0
84.31,179.76,-132.44,30,-6218,-5682,-1,0,0
84.31,179.76,-132.44,26,-6216,-5689,0,-1,0
84.31,179.76,-132.44,34,-6218,-5699,0,0,0
84.31,179.76,-132.44,43,-6226,-5689,0,0,0
84.31,179.76,-132.44,34,-6222,-5687,0,0,0
84.31,179.76,-132.43,36,-6219,-5676,-1,-1,-1
84.31,179.76,-132.44,36,-6226,-5686,-1,-1,0
84.31,179.77,-132.43,35,-6226,-5689,-1,-1,0
84.31,179.76,-132.44,30,-6223,-5692,-1,0,0
84.31,179.76,-132.44,26,-6221,-5695,-1,0,0
84.30,179.76,-132.44,29,-6217,-5679,-1,-1,0
84.31,179.77,-132.45,27,-6214,-5681,-1,-1,0
84.31,179.77,-132.45,30,-6211,-5693,0,-1,0
84.31,179.77,-132.45,30,-6213,-5691,-1,-1,0
84.31,179.78,-132.45,22,-6222,-5699,0,-1,0
84.31,179.78,-132.45,29,-6218,-5690,-1,-1,0
84.31,179.78,-132.45,32,-6225,-5690,-1,-1,0
84.32,179.78,-132.45,29,-6218,-5687,-1,-1,0
84.32,179.78,-132.45,28,-6224,-5696,0,-1,0
84.32,179.78,-132.45,31,-6215,-5696,0,-1,0
84.32,179.78,-132.45,26,-6221,-5699,-1,0,-1
84.32,179.78,-132.45,22,-6224,-5699,0,0,0
84.32,179.78,-132.45,26,-6220,-5694,-1,0,0
84.30,179.78,-132.45,27,-6220,-5692,-1,0,0
84.30,179.78,-132.45,20,-6221,-5702,-1,-1,0
84.31,179.79,-132.46,23,-6215,-5703,-1,-1,0
84.30,179.79,-132.45,22,-6219,-5690,0,-1,0
84.30,179.79,-132.45,24,-6215,-5686,0,-1,0
84.30,179.79,-132.45,31,-6224,-5680,-1,-1,-1
84.30,179.79,-132.45,35,-6225,-5680,-1,-1,-1
84.30,179.78,-132.45,36,-6226,-5690,-1,-1,0
84.31,179.79,-132.46,35,-6215,-5689,-1,-1,0
84.31,179.79,-132.46,35,-6208,-5679,-1,0,-1
84.32,179.79,-132.46,37,-6204,-5675,0,0,0
84.32,179.78,-132.45,39,-6208,-5680,0,0,0
84.32,179.78,-132.45,41,-6217,-5695,0,0,0
84.32,179.78,-132.45,38,-6215,-5688,0,0,0
84.31,179.78,-132.45,34,-6217,-5681,0,0,0
84.31,179.78,-132.45,26,-6218,-5684,0,0,-1
84.31,179.78,-132.44,28,-6222,-5680,0,-1,0
84.31,179.78,-132.44,30,-6225,-5689,-1,0,0
84.31,179.78,-132.44,37,-6220,-5683,-1,-1,0
84.31,179.78,-132.44,40,-6220,-5689,-1,-1,0
84.31,179.78,-132.44,43,-6222,-5687,0,-1,0
84.31,179.78,-132.45,42,-6225,-5696,0,0,-1
84.30,179.77,-132.44,45,-6237,-5697,-1,0,-1
84.30,179.77,-132.44,39,-6233,-5685,-1,-1,-1
84.30,179.77,-132.44,36,-6221,-5679,-1,-1,0
84.31,179.78,-132.45,28,-6210,-5685,-1,-1,0
84.31,179.78,-132.45,30,-6215,-5686,0,0,-1
84.30,179.77,-132.44,30,-6218,-5690,0,0,-1
84.32,179.77,-132.44,29,-6218,-5687,0,0,0
84.31,179.77,-132.43,30,-6215,-5677,0,0,0
84.31,179.77,-132.43,31,-6217,-5678,0,0,0
84.31,179.77,-132.43,32,-6222,-5684,0,0,0
84.31,179.77,-132.43,33,-6224,-5689,0,-1,-1
84.31,179.77,-132.43,36,-6220,-5689,0,-1,0
84.31,179.77,-132.43,35,-6223,-5689,0,-1,-1
84.31,179.77,-132.43,34,-6220,-5678,-1,-1,0
84.31,179.77,-132.43,30,-6225,-5682,-1,0,0
84.31,179.77,-132.43,28,-6223,-5681,-1,0,0
84.31,179.77,-132.43,25,-6222,-5685,-1,0,-1
84.31,179.77,-132.43,34,-6224,-5693,0,0,-1
84.31,179.77,-132.43,28,-6224,-5689,0,0,0
84.30,179.77,-132.42,31,-6219,-5676,0,-1,0
84.30,179.77,-132.42,34,-6219,-5683,0,0,0
84.30,179.77,-132.42,37,-6224,-5690,0,-1,0
84.30,179.77,-132.42,33,-6223,-5689,0,0,0
84.30,179.77,-132.42,32,-6228,-5688,0,0,0
84.30,179.77,-132.42,30,-6223,-5695,0,0,0
84.30,179.77,-132.42,39,-6218,-5691,0,0,0
84.30,179.77,-132.42,28,-6219,-5684,-1,0,-1
84.29,179.77,-132.43,26,-6221,-5698,-1,-1,0
84.29,179.77,-132.43,35,-6227,-5697,-1,0,0
84.29,179.77,-132.42,33,-6221,-5709,0,0,0
84.29,179.77,-132.42,35,-6222,-5699,0,0,0
84.28,179.77,-132.42,33,-6225,-5680,0,0,-1
84.30,179.77,-132.41,36,-6227,-5672,-1,-1,-1
84.30,179.77,-132.42,37,-6226,-5677,-1,-1,-1
84.29,179.77,-132.43,30,-6218,-5682,-1,-1,0
84.30,179.78,-132.43,31,-6213,-5682,-1,-1,0
84.30,179.77,-132.43,30,-6208,-5692,0,0,0
84.29,179.77,-132.43,37,-6213,-5691,0,0,-1
84.29,179.77,-132.43,42,-6212,-5693,0,0,0
84.29,179.77,-132.43,38,-6219,-5689,0,0,0
84.29,179.77,-132.43,42,-6217,-5691,0,0,0
84.28,179.76,-132.42,37,-6215,-5693,0,0,0
84.28,179.76,-132.42,35,-6220,-5688,-1,0,0
84.28,179.76,-132.42,29,-6224,-5691,0,0,0
84.28,179.76,-132.42,34,-6219,-5685,-1,0,0
84.28,179.76,-132.42,39,-6214,-5681,-1,0,-1
84.28,179.76,-132.42,38,-6207,-5679,-1,-1,-1
84.28,179.76,-132.42,34,-6215,-5686,0,-1,-1
84.28,179.76,-132.42,37,-6221,-5681,-1,-1,0
84.28,179.76,-132.42,37,-6221,-5676,-1,-1,0
84.28,179.76,-132.42,31,-6224,-5683,-1,-1,0
84.29,179.77,-132.43,37,-6221,-5683,0,-1,-1
84.29,179.77,-132.43,37,-6220,-5686,-1,-1,0
84.28,179.76,-132.42,38,-6222,-5684,0,0,-1
84.28,179.77,-132.42,35,-6218,-5679,-1,-1,0
84.28,179.77,-132.42,36,-6219,-5674,0,-1,0
84.28,179.77,-132.42,36,-6228,-5686,0,0,-1
84.28,179.77,-132.42,39,-6230,-5690,0,0,0
84.28,179.77,-132.42,39,-6230,-5689,0,0,-1
84.29,179.76,-132.41,39,-6225,-5683,0,0,0
84.28,179.76,-132.41,32,-6223,-5687,-1,-1,0
84.28,179.76,-132.41,34,-6224,-5685,-1,0,-1
84.28,179.76,-132.42,32,-6229,-5686,-1,0,-1
84.28,179.76,-132.42,36,-6228,-5676,0,0,-1
84.29,179.76,-132.42,38,-6226,-5669,0,0,-1
84.28,179.75,-132.41,42,-6223,-5667,-1,-1,-1
84.28,179.75,-132.41,46,-6224,-5673,-1,-1,0
84.28,179.75,-132.41,43,-6226,-5685,0,0,0
84.28,179.75,-132.41,37,-6223,-5690,0,-1,0
84.28,179.76,-132.41,31,-6223,-5700,0,0,0
84.28,179.76,-132.41,32,-6215,-5695,0,0,0
84.28,179.76,-132.41,26,-6218,-5692,0,0,0
84.28,179.76,-132.41,27,-6219,-5686,0,0,-1
84.28,179.76,-132.41,30,-6224,-5694,0,0,0
84.27,179.76,-132.41,34,-6228,-5694,0,0,0
84.28,179.76,-132.40,39,-6229,-5687,0,0,-1
84.27,179.75,-132.40,41,-6232,-5677,0,-1,-1
84.27,179.75,-132.40,40,-6230,-5680,-1,-1,-1
84.28,179.76,-132.40,40,-6232,-5677,-1,-1,-1
84.28,179.75,-132.40,39,-6225,-5675,-1,-1,0
84.28,179.76,-132.41,32,-6218,-5688,-1,-1,0
84.29,179.76,-132.41,30,-6222,-5699,-1,0,-1
84.29,179.76,-132.41,37,-6220,-5695,0,0,0
84.29,179.76,-132.41,34,-6218,-5700,-1,0,0
84.29,179.76,-132.41,31,-6222,-5690,-1,-1,0
84.28,179.76,-132.41,23,-6225,-5688,-1,-1,0
84.28,179.77,-132.42,25,-6229,-5693,-1,0,-1
84.28,179.77,-132.41,22,-6228,-5696,-1,0,-1
84.28,179.76,-132.42,26,-6225,-5699,-1,0,-1
84.28,179.76,-132.42,27,-6224,-5698,0,0,0
84.28,179.76,-132.42,30,-6217,-5685,0,-1,0
84.28,179.76,-132.42,36,-6219,-5681,-1,-1,0
84.28,179.76,-132.42,43,-6221,-5682,-1,-1,-1
84.28,179.76,-132.42,42,-6221,-5679,-1,-1,0
84.28,179.76,-132.42,41,-6222,-5683,-1,-1,0
84.28,179.76,-132.42,28,-6214,-5678,-1,-1,0
84.29,179.77,-132.43,26,-6217,-5682,-1,-1,0
84.29,179.77,-132.43,31,-6218,-5686,-1,-1,0
84.29,179.77,-132.43,25,-6213,-5685,0,0,0
84.29,179.77,-132.43,33,-6214,-5682,0,0,0
84.29,179.77,-132.43,36,-6218,-5678,0,0,0
84.29,179.77,-132.43,38,-6221,-5679,-1,0,0
84.28,179.76,-132.42,32,-6230,-5673,-1,-1,0
84.28,179.76,-132.42,35,-6229,-5677,-1,0,0
84.28,179.76,-132.42,36,-6229,-5682,-1,0,0
84.28,179.76,-132.42,38,-6221,-5679,-1,-1,0
84.29,179.77,-132.43,32,-6220,-5685,-1,0,0
84.28,179.76,-132.42,29,-6227,-5680,-1,-1,0
84.29,179.77,-132.43,31,-6225,-5688,-1,-1,-1
84.29,179.77,-132.43,41,-6226,-5677,-1,-1,0
84.29,179.77,-132.43,39,-6217,-5680,0,-1,0
84.29,179.77,-132.43,41,-6217,-5679,-1,-1,0
84.29,179.77,-132.42,36,-6219,-5677,-1,-1,0
84.29,179.77,-132.42,32,-6218,-5694,-1,-1,0
84.28,179.78,-132.43,35,-6215,-5699,-1,-1,0
84.28,179.77,-132.43,35,-6213,-5691,-1,0,0
84.28,179.77,-132.43,33,-6215,-5687,-1,0,0
84.28,179.77,-132.43,37,-6221,-5690,-1,0,0
84.30,179.77,-132.43,38,-6227,-5687,-1,0,-1
84.30,179.77,-132.43,36,-6223,-5683,-1,0,-1
84.30,179.77,-132.43,35,-6220,-5695,0,0,-1
84.28,179.77,-132.44,40,-6211,-5705,0,-1,0
84.28,179.77,-132.43,40,-6215,-5698,0,-1,0
84.28,179.77,-132.43,38,-6216,-5689,0,-1,0
84.30,179.78,-132.43,26,-6228,-5682,-1,-1,-1
84.30,179.78,-132.43,27,-6225,-5686,-1,-1,-1
84.30,179.78,-132.43,28,-6229,-5692,-1,-1,0
84.29,179.78,-132.44,30,-6219,-5684,-1,-1,-1
84.29,179.78,-132.44,30,-6212,-5677,-1,-1,-1
84.29,179.78,-132.44,29,-6215,-5680,0,0,-1
84.30,179.77,-132.44,35,-6218,-5674,0,-1,0
84.29,179.78,-132.44,30,-6224,-5696,0,-1,0
84.29,179.78,-132.43,35,-6224,-5695,0,-1,0
84.29,179.78,-132.43,29,-6225,-5688,0,0,0
84.29,179.78,-132.43,30,-6221,-5688,0,0,-1
84.29,179.78,-132.43,29,-6223,-5683,-1,0,0
84.29,179.78,-132.43,28,-6221,-5682,-1,0,0
84.29,179.78,-132.43,30,-6220,-5685,-1,-1,0
84.29,179.78,-132.43,28,-6220,-5684,-1,-1,0
84.29,179.78,-132.43,40,-6216,-5676,-1,-1,0
84.29,179.78,-132.43,39,-6219,-5686,-1,0,-1
84.29,179.78,-132.43,41,-6226,-5697,-1,-1,-1
84.29,179.78,-132.44,39,-6228,-5693,-1,-1,0
84.30,179.79,-132.44,30,-6223,-5692,-1,-1,-1
84.30,179.79,-132.44,30,-6217,-5684,-1,-1,0
84.30,179.79,-132.44,32,-6219,-5682,-1,-1,0
84.30,179.79,-132.44,41,-6216,-5686,0,0,-1
84.30,179.79,-132.44,33,-6219,-5691,0,0,0
84.30,179.79,-132.44,33,-6222,-5686,0,0,0
84.30,179.78,-132.43,34,-6226,-5684,0,0,0
84.29,179.78,-132.43,36,-6223,-5688,-1,-1,0
84.30,179.79,-132.44,34,-6221,-5690,-1,0,0
84.29,179.78,-132.43,33,-6218,-5680,-1,0,0
84.30,179.79,-132.44,32,-6213,-5683,-1,-1,0
84.30,179.79,-132.44,32,-6215,-5682,-1,0,0
84.30,179.79,-132.44,34,-6215,-5679,-1,-1,0
84.30,179.79,-132.44,32,-6217,-5681,-1,-1,0
84.30,179.79,-132.44,35,-6218,-5692,-1,-1,0
84.30,179.79,-132.45,34,-6212,-5697,-1,-1,0
84.31,179.79,-132.45,35,-6213,-5695,-1,-1,0
84.31,179.79,-132.45,40,-6214,-5697,-1,-1,0
84.30,179.80,-132.45,31,-6215,-5697,0,-1,0
84.30,179.80,-132.45,31,-6216,-5687,-1,-1,0
84.30,179.80,-132.46,24,-6214,-5685,0,-1,0
84.30,179.81,-132.45,30,-6210,-5697,0,0,0
84.30,179.80,-132.46,33,-6211,-5696,-1,0,0
84.30,179.80,-132.46,31,-6225,-5686,-1,0,-1
84.30,179.80,-132.45,36,-6224,-5670,-1,-1,-1
84.31,179.79,-132.45,38,-6225,-5683,-1,-1,0
84.31,179.79,-132.45,39,-6223,-5687,-1,0,0
84.31,179.79,-132.45,42,-6218,-5693,0,-1,0
84.31,179.80,-132.44,38,-6219,-5683,0,0,0
84.30,179.80,-132.44,31,-6227,-5675,0,-1,-1
84.30,179.79,-132.44,34,-6229,-5679,-1,0,-1
84.30,179.79,-132.45,32,-6230,-5687,-1,0,0
84.30,179.79,-132.45,31,-6220,-5689,-1,0,-1
84.30,179.79,-132.45,30,-6204,-5685,0,0,-1
84.30,179.79,-132.45,29,-6206,-5684,0,0,-1
84.30,179.79,-132.45,35,-6212,-5687,0,0,0
84.30,179.79,-132.45,33,-6209,-5691,-1,-1,0
84.30,179.79,-132.45,27,-6221,-5704,0,0,0
84.30,179.79,-132.44,30,-6222,-5696,0,0,0
84.30,179.79,-132.44,27,-6222,-5692,0,0,-1
84.29,179.78,-132.43,32,-6219,-5686,0,0,-1
84.29,179.78,-132.43,27,-6220,-5684,0,0,0
84.29,179.78,-132.43,34,-6214,-5681,-1,-1,0
84.29,179.78,-132.43,30,-6216,-5681,-1,-1,0
84.29,179.78,-132.43,32,-6214,-5693,-1,0,0
84.29,179.78,-132.43,31,-6221,-5703,0,0,-1
84.29,179.78,-132.43,33,-6226,-5699,-1,0,-1
84.29,179.78,-132.44,35,-6225,-5693,-1,-1,-1
84.30,179.78,-132.43,39,-6230,-5688,-1,-1,0
84.29,179.78,-132.44,34,-6221,-5692,-1,0,0
84.29,179.78,-132.44,32,-6219,-5702,0,0,-1
84.29,179.78,-132.44,37,-6217,-5695,0,0,0
84.30,179.78,-132.43,34,-6222,-5692,0,0,0
84.30,179.78,-132.43,33,-6225,-5677,0,0,0
84.30,179.78,-132.43,31,-6219,-5686,0,0,-1
84.30,179.78,-132.43,37,-6223,-5688,0,0,0
84.29,179.77,-132.42,39,-6223,-5698,0,0,-1
84.29,179.77,-132.42,35,-6221,-5692,0,0,0
84.29,179.77,-132.42,39,-6228,-5683,-1,0,0
84.29,179.77,-132.43,39,-6226,-5698,-1,0,-1
84.29,179.77,-132.43,36,-6229,-5699,0,0,-1
84.29,179.77,-132.43,32,-6222,-5690,-1,-1,0
84.29,179.77,-132.43,35,-6218,-5688,0,-1,-1
84.29,179.77,-132.43,38,-6218,-5678,-1,-1,0
84.29,179.77,-132.42,28,-6223,-5677,0,-1,0
84.29,179.77,-132.42,26,-6225,-5694,-1,-1,0
84.30,179.78,-132.43,28,-6224,-5699,-1,-1,0
84.29,179.77,-132.42,28,-6219,-5692,0,0,0
84.29,179.77,-132.42,29,-6214,-5690,0,0,0
84.29,179.77,-132.42,29,-6221,-5685,0,0,0
84.29,179.77,-132.42,35,-6220,-5690,-1,-1,0
84.29,179.77,-132.42,35,-6220,-5693,-1,0,-1
84.29,179.77,-132.42,36,-6219,-5698,0,0,-1
84.28,179.76,-132.42,34,-6221,-5702,0,0,0
84.28,179.77,-132.42,37,-6224,-5693,0,0,0
84.28,179.77,-132.41,32,-6219,-5675,0,0,-1
84.28,179.76,-132.41,35,-6227,-5663,-1,-1,-1
84.28,179.76,-132.41,34,-6226,-5678,-1,-1,-1
84.29,179.77,-132.43,31,-6228,-5689,-1,-1,0
84.29,179.77,-132.43,34,-6223,-5694,-1,-1,0
84.30,179.77,-132.43,31,-6214,-5689,-1,0,-1
84.29,179.77,-132.43,34,-6219,-5686,0,0,0
84.29,179.77,-132.43,42,-6216,-5689,0,0,0
84.29,179.77,-132.43,44,-6218,-5690,0,-1,0
84.28,179.76,-132.42,37,-6216,-5695,0,0,0
84.28,179.76,-132.42,30,-6220,-5690,0,0,0
84.28,179.76,-132.42,32,-6228,-5690,0,0,-1
84.28,179.76,-132.42,34,-6225,-5696,0,0,0
84.28,179.75,-132.42,37,-6222,-5687,0,0,0
84.28,179.76,-132.42,32,-6214,-5679,-1,-1,0
84.28,179.76,-132.42,29,-6218,-5684,0,-1,-1
84.28,179.76,-132.42,36,-6218,-5686,0,-1,0
84.28,179.76,-132.42,36,-6221,-5688,-1,-1,-1
84.28,179.76,-132.42,38,-6222,-5682,-1,-1,0
84.28,179.76,-132.42,35,-6217,-5675,-1,-1,0
84.28,179.76,-132.42,35,-6219,-5686,-1,-1,0
84.29,179.76,-132.43,41,-6221,-5698,0,0,-1
84.28,179.76,-132.43,36,-6216,-5700,0,0,0
84.28,179.76,-132.43,35,-6217,-5693,0,0,0
84.28,179.76,-132.43,38,-6217,-5692,0,0,0
84.28,179.76,-132.43,43,-6213,-5693,0,0,0
84.28,179.76,-132.43,42,-6222,-5698,0,0,-1
84.28,179.75,-132.42,36,-6226,-5692,0,0,-1
84.28,179.75,-132.42,32,-6220,-5678,0,0,0
84.28,179.76,-132.42,30,-6225,-5680,-1,0,0
84.28,179.76,-132.42,33,-6225,-5683,-1,-1,-1
84.28,179.75,-132.42,31,-6225,-5685,-1,0,-1
84.28,179.75,-132.43,35,-6223,-5681,-1,0,-1
84.28,179.75,-132.43,35,-6221,-5677,-1,0,-1
84.28,179.75,-132.43,38,-6217,-5681,0,-1,0
84.28,179.75,-132.42,31,-6219,-5674,0,-1,0
84.28,179.75,-132.42,35,-6221,-5677,0,-1,0
84.28,179.75,-132.42,35,-6216,-5691,0,0,0
84.28,179.76,-132.42,34,-6214,-5686,0,0,0
84.28,179.76,-132.42,35,-6218,-5688,-1,0,0
84.28,179.76,-132.42,37,-6224,-5687,0,0,-1
84.27,179.75,-132.42,42,-6220,-5690,0,0,0
84.27,179.75,-132.42,44,-6219,-5685,0,0,0
84.27,179.75,-132.42,32,-6224,-5682,0,-1,0
84.27,179.76,-132.41,30,-6230,-5676,-1,-1,-1
84.27,179.76,-132.41,28,-6230,-5677,-1,0,-1
84.27,179.75,-132.42,34,-6228,-5686,-1,-1,0
84.28,179.75,-132.42,38,-6227,-5693,-1,-1,0
84.28,179.75,-132.42,46,-6220,-5696,0,-1,0
84.28,179.75,-132.42,46,-6218,-5696,0,-1,-1
84.28,179.75,-132.43,43,-6222,-5702,0,0,0
84.28,179.75,-132.42,41,-6220,-5703,0,-1,0
84.28,179.75,-132.42,30,-6229,-5703,0,0,0
84.27,179.75,-132.42,34,-6237,-5689,0,0,0
84.27,179.75,-132.42,38,-6229,-5679,0,0,0
84.27,179.75,-132.42,29,-6221,-5679,-1,0,0
84.26,179.75,-132.41,36,-6228,-5677,-1,0,0
84.26,179.75,-132.41,37,-6225,-5681,-1,0,0
84.26,179.75,-132.41,36,-6218,-5675,-1,-1,0
84.27,179.75,-132.42,33,-6214,-5670,-1,-1,-1
84.26,179.75,-132.41,37,-6217,-5668,0,0,-1
84.26,179.75,-132.41,35,-6219,-5670,-1,-1,0
84.27,179.75,-132.42,37,-6213,-5683,-1,-1,0
84.27,179.75,-132.42,32,-6222,-5689,-1,-1,0
84.28,179.75,-132.42,36,-6218,-5698,-1,0,0
84.28,179.75,-132.42,33,-6218,-5695,-1,0,-1
84.28,179.75,-132.42,35,-6217,-5692,0,0,0
84.28,179.75,-132.42,29,-6215,-5682,0,-1,0
84.28,179.75,-132.42,32,-6220,-5690,0,-1,0
84.26,179.76,-132.42,28,-6222,-5696,-1,0,0
84.26,179.76,-132.42,36,-6220,-5695,-1,-1,0
84.27,179.76,-132.43,38,-6219,-5698,-1,-1,-1
84.27,179.75,-132.43,41,-6221,-5689,-1,0,-1
84.27,179.75,-132.43,45,-6215,-5679,-1,0,-1
84.27,179.75,-132.43,42,-6225,-5678,-1,0,-1
84.28,179.75,-132.43,37,-6216,-5682,-1,-1,0
84.27,179.75,-132.43,32,-6218,-5690,0,0,0
84.27,179.75,-132.43,42,-6218,-5682,-1,-1,0
84.27,179.75,-132.43,39,-6222,-5690,0,-1,0
84.27,179.76,-132.43,39,-6211,-5685,0,-1,0
84.27,179.76,-132.43,37,-6213,-5700,0,0,0
84.27,179.76,-132.43,39,-6217,-5686,-1,-1,0
84.28,179.76,-132.44,38,-6219,-5689,-1,-1,0
84.27,179.76,-132.43,40,-6220,-5688,0,-1,-1
84.27,179.76,-132.43,38,-6220,-5685,-1,0,-1
84.27,179.76,-132.43,37,-6222,-5690,-1,-1,0
84.27,179.76,-132.43,44,-6224,-5672,-1,-1,0
84.28,179.76,-132.44,33,-6222,-5686,-1,-1,0
84.29,179.76,-132.45,36,-6213,-5695,-1,-1,0
84.29,179.76,-132.45,35,-6214,-5702,0,-1,0
84.28,179.76,-132.44,31,-6215,-5694,0,-1,0
84.28,179.77,-132.43,31,-6220,-5681,0,0,0
84.28,179.77,-132.43,31,-6230,-5680,-1,-1,-1
84.28,179.77,-132.44,31,-6235,-5694,-1,-1,-1
84.28,179.76,-132.44,28,-6225,-5693,-1,0,0
84.29,179.77,-132.45,29,-6217,-5697,-1,0,-1
84.29,179.76,-132.45,30,-6210,-5690,0,0,-1
84.29,179.76,-132.45,37,-6217,-5692,0,0,-1
84.29,179.76,-132.45,43,-6227,-5696,0,-1,0
84.29,179.76,-132.45,37,-6221,-5702,0,0,0
84.28,179.77,-132.45,28,-6217,-5703,0,0,0
84.27,179.77,-132.45,26,-6216,-5697,0,0,-1
84.27,179.77,-132.45,25,-6217,-5691,0,0,0
84.27,179.77,-132.45,26,-6218,-5683,0,0,-1
84.27,179.77,-132.44,26,-6216,-5679,-1,-1,0
84.27,179.77,-132.44,30,-6218,-5675,-1,-1,0
84.28,179.78,-132.45,36,-6218,-5667,-1,-1,0
84.28,179.78,-132.45,38,-6226,-5685,0,-1,0
84.28,179.78,-132.45,36,-6226,-5696,0,0,-1
84.28,179.78,-132.45,29,-6231,-5694,-1,0,-1
84.28,179.78,-132.45,30,-6224,-5694,-1,-1,-1
84.28,179.78,-132.45,26,-6216,-5690,-1,-1,0
84.29,179.79,-132.45,23,-6212,-5689,-1,-1,0
84.29,179.78,-132.46,33,-6210,-5699,-1,-1,0
84.29,179.78,-132.46,33,-6217,-5705,0,-1,0
84.29,179.79,-132.45,33,-6213,-5709,0,0,0
84.29,179.79,-132.45,33,-6211,-5696,0,-1,0
84.28,179.78,-132.45,31,-6212,-5685,-1,0,-1
84.29,179.79,-132.45,29,-6218,-5692,0,-1,0
84.29,179.79,-132.45,30,-6218,-5685,0,-1,0
84.29,179.79,-132.45,28,-6218,-5676,0,-1,0
84.28,179.79,-132.44,31,-6214,-5685,0,-1,0
84.29,179.79,-132.45,30,-6208,-5685,-1,0,-1
84.29,179.79,-132.45,34,-6214,-5691,-1,-1,-1
84.29,179.79,-132.45,35,-6220,-5688,-1,-1,0
84.29,179.79,-132.45,35,-6219,-5689,-1,0,-1
84.30,179.79,-132.44,32,-6220,-5689,0,-1,0
84.30,179.79,-132.44,30,-6221,-5685,-1,0,0
84.30,179.79,-132.44,26,-6214,-5681,0,0,-1
84.30,179.79,-132.44,27,-6217,-5685,0,-1,0
84.30,179.80,-132.44,20,-6215,-5684,0,-1,0
84.30,179.80,-132.44,24,-6217,-5692,0,-1,0
84.30,179.80,-132.44,31,-6221,-5689,-1,0,0
84.30,179.80,-132.43,29,-6225,-5672,-1,0,0
84.30,179.79,-132.42,28,-6226,-5689,0,0,-1
84.30,179.79,-132.42,30,-6223,-5682,-1,0,-1
84.30,179.79,-132.43,37,-6219,-5695,-1,0,-1
84.30,179.78,-132.43,41,-6217,-5683,-1,0,-1
84.30,179.78,-132.43,39,-6223,-5694,0,0,0
84.30,179.78,-132.43,35,-6223,-5686,0,0,0
84.28,179.78,-132.43,27,-6217,-5683,0,-1,0
84.29,179.79,-132.43,23,-6226,-5685,-1,-1,0
84.29,179.79,-132.43,18,-6226,-5691,-1,-1,0
84.30,179.79,-132.44,22,-6229,-5697,-1,-1,0
84.30,179.80,-132.44,26,-6229,-5692,-1,0,0
84.30,179.79,-132.44,22,-6221,-5677,-1,0,-1
84.30,179.79,-132.45,34,-6214,-5685,-1,0,0
84.30,179.79,-132.45,39,-6212,-5681,0,0,0
84.28,179.78,-132.45,42,-6215,-5675,-1,0,0
84.28,179.79,-132.44,33,-6222,-5687,0,0,0
84.28,179.79,-132.44,31,-6218,-5687,-1,0,0
84.28,179.78,-132.45,35,-6220,-5684,-1,0,0
84.28,179.78,-132.45,34,-6231,-5689,0,0,-1
84.28,179.78,-132.44,31,-6229,-5691,-1,0,-1
84.28,179.78,-132.44,33,-6219,-5682,0,0,-1
84.28,179.78,-132.44,34,-6213,-5684,-1,-1,0
84.28,179.78,-132.44,33,-6209,-5678,-1,-1,0
84.28,179.78,-132.44,36,-6216,-5675,-1,0,-1
84.28,179.78,-132.44,34,-6221,-5687,-1,0,-1
84.28,179.78,-132.45,36,-6220,-5685,-1,0,-1
84.28,179.78,-132.45,32,-6220,-5690,-1,0,0
84.28,179.78,-132.45,30,-6216,-5691,-1,0,0
84.28,179.78,-132.45,36,-6215,-5699,-1,0,-1
84.28,179.77,-132.45,38,-6211,-5703,0,0,-1
84.28,179.77,-132.45,33,-6212,-5699,0,0,0
84.28,179.78,-132.45,33,-6216,-5695,0,0,0
84.28,179.77,-132.45,31,-6220,-5695,-1,0,0
84.28,179.77,-132.45,33,-6215,-5696,0,0,-1
84.27,179.77,-132.45,34,-6213,-5697,0,0,-1
84.27,179.77,-132.44,32,-6213,-5683,0,-1,0
84.27,179.77,-132.44,29,-6218,-5676,-1,0,0
84.27,179.77,-132.44,27,-6221,-5681,-1,0,-1
84.27,179.77,-132.44,22,-6226,-5694,-1,0,-1
84.27,179.77,-132.44,25,-6227,-5688,-1,0,-1
84.27,179.77,-132.44,29,-6225,-5694,-1,0,-1
84.27,179.77,-132.45,33,-6218,-5695,-1,-1,0
84.27,179.77,-132.45,37,-6220,-5686,0,-1,0
84.27,179.77,-132.45,34,-6220,-5686,0,-1,0
84.27,179.77,-132.45,43,-6219,-5688,0,0,-1
84.27,179.77,-132.45,38,-6220,-5691,0,0,-1
84.28,179.77,-132.43,38,-6212,-5680,0,0,-1
84.28,179.77,-132.43,43,-6219,-5687,0,0,0
84.28,179.77,-132.43,39,-6221,-5679,-1,-1,-1
84.28,179.76,-132.44,37,-6216,-5678,-1,0,0
84.28,179.76,-132.44,40,-6226,-5686,0,0,0
84.27,179.76,-132.43,30,-6222,-5683,0,0,-1
84.27,179.76,-132.43,30,-6220,-5688,0,0,0
84.26,179.76,-132.42,40,-6221,-5684,0,0,-1
84.26,179.76,-132.42,36,-6225,-5684,-1,-1,-1
84.26,179.76,-132.42,31,-6230,-5686,-1,-1,-1
84.27,179.76,-132.43,34,-6221,-5691,-1,-1,-1
84.28,179.76,-132.44,40,-6220,-5689,-1,-1,-1
84.28,179.76,-132.44,38,-6220,-5691,0,0,-1
84.28,179.76,-132.44,38,-6214,-5695,0,0,-1
84.27,179.75,-132.44,43,-6216,-5696,0,0,0
84.27,179.76,-132.43,39,-6217,-5696,0,0,0
84.27,179.76,-132.43,29,-6228,-5696,0,0,-1
84.26,179.75,-132.43,33,-6223,-5682,-1,0,0
84.26,179.75,-132.43,29,-6224,-5678,-1,0,-1
84.27,179.76,-132.43,33,-6218,-5683,-1,-1,0
84.27,179.76,-132.43,35,-6219,-5687,-1,0,0
84.27,179.76,-132.43,29,-6215,-5693,0,0,-1
84.26,179.75,-132.43,31,-6216,-5687,0,0,0
84.26,179.75,-132.43,36,-6209,-5686,0,0,-1
84.27,179.75,-132.43,41,-6214,-5682,-1,0,-1
84.27,179.75,-132.44,40,-6213,-5689,-1,-1,0
84.27,179.75,-132.44,36,-6213,-5688,-1,0,-1
84.27,179.75,-132.44,32,-6219,-5683,-1,-1,-1
84.27,179.75,-132.44,35,-6211,-5690,0,0,-1
84.27,179.75,-132.44,38,-6207,-5687,0,-1,-1
84.27,179.75,-132.44,39,-6212,-5687,0,-1,0
84.27,179.75,-132.44,40,-6213,-5691,0,-1,0
84.27,179.75,-132.44,38,-6218,-5695,0,0,0
84.27,179.75,-132.44,39,-6218,-5686,0,0,0
84.27,179.75,-132.43,42,-6227,-5680,0,0,0
84.27,179.75,-132.43,43,-6221,-5690,0,0,0
84.27,179.75,-132.43,50,-6218,-5690,-1,0,0
84.27,179.75,-132.43,46,-6228,-5689,-1,0,-1
84.27,179.74,-132.44,40,-6220,-5691,-1,0,-1
84.27,179.74,-132.44,37,-6219,-5683,-1,0,-1
84.27,179.74,-132.44,43,-6211,-5684,-1,0,0
84.27,179.74,-132.44,38,-6211,-5689,0,0,0
84.27,179.74,-132.44,35,-6217,-5695,0,-1,0
84.27,179.74,-132.44,37,-6210,-5680,0,-1,0
84.27,179.75,-132.43,31,-6212,-5682,0,-1,-1
84.27,179.75,-132.43,35,-6215,-5676,-1,-1,0
84.27,179.75,-132.43,32,-6218,-5685,-1,-1,0
84.25,179.75,-132.43,32,-6225,-5695,-1,-1,0
84.25,179.75,-132.43,36,-6218,-5690,0,0,0
84.25,179.76,-132.43,35,-6217,-5692,0,0,-1
84.26,179.75,-132.43,33,-6217,-5684,0,0,-1
84.26,179.75,-132.42,33,-6224,-5677,-1,-1,-1
84.26,179.75,-132.43,34,-6213,-5677,-1,-1,0
84.27,179.76,-132.44,37,-6215,-5677,-1,-1,0
84.27,179.76,-132.44,39,-6213,-5694,-1,-1,0
84.27,179.77,-132.45,36,-6218,-5703,0,-1,-1
84.27,179.76,-132.44,36,-6215,-5693,0,0,0
84.26,179.76,-132.44,30,-6212,-5692,0,0,0
84.26,179.76,-132.43,37,-6223,-5696,0,0,0
84.26,179.76,-132.43,37,-6227,-5694,0,0,0
84.26,179.77,-132.42,27,-6230,-5680,0,0,-1
84.25,179.77,-132.42,19,-6230,-5672,-1,0,-1
84.25,179.77,-132.42,24,-6232,-5682,-1,0,0
84.25,179.77,-132.42,24,-6224,-5683,-1,0,-1
84.26,179.77,-132.42,31,-6217,-5683,-1,0,0
84.26,179.77,-132.42,39,-6214,-5678,-1,-1,0
84.25,179.77,-132.42,42,-6228,-5683,0,-1,-1
84.27,179.77,-132.42,42,-6220,-5687,-1,-1,0
84.27,179.77,-132.42,33,-6218,-5683,-1,-1,0
84.26,179.77,-132.42,27,-6218,-5690,-1,-1,0
84.26,179.78,-132.43,25,-6222,-5688,-1,-1,0
84.26,179.77,-132.42,27,-6225,-5689,0,0,0
84.26,179.77,-132.42,39,-6223,-5692,0,0,0
84.26,179.77,-132.42,38,-6226,-5687,0,0,0
84.25,179.77,-132.42,31,-6226,-5681,0,0,0
84.26,179.77,-132.41,32,-6227,-5686,0,0,-1
84.25,179.77,-132.42,27,-6228,-5694,-1,0,0
84.25,179.77,-132.42,39,-6231,-5687,-1,0,0
84.25,179.77,-132.42,30,-6227,-5691,-1,0,0
84.25,179.77,-132.42,35,-6225,-5690,-1,0,-1
84.25,179.76,-132.42,41,-6217,-5682,-1,0,-1
84.25,179.76,-132.42,40,-6214,-5680,-1,0,-1
84.25,179.76,-132.42,36,-6218,-5685,-1,0,0
84.25,179.76,-132.42,33,-6219,-5692,0,0,-1
84.25,179.76,-132.42,30,-6222,-5683,0,0,0
84.25,179.76,-132.42,34,-6219,-5681,-1,-1,0
84.25,179.76,-132.42,36,-6215,-5677,-1,-1,0
84.26,179.77,-132.43,33,-6215,-5682,-1,-1,0
84.25,179.76,-132.42,35,-6220,-5680,0,0,-1
84.25,179.76,-132.42,33,-6217,-5688,-1,0,0
84.26,179.77,-132.43,33,-6213,-5678,-1,-1,0
84.26,179.77,-132.43,35,-6215,-5683,-1,-1,-1
84.26,179.77,-132.43,51,-6218,-5685,-1,-1,-1
84.26,179.77,-132.43,52,-6216,-5691,0,0,0
84.25,179.76,-132.42,39,-6216,-5680,0,-1,0
84.25,179.76,-132.42,29,-6220,-5678,-1,-1,-1
84.25,179.76,-132.42,33,-6225,-5680,-1,0,-1
84.26,179.77,-132.43,36,-6224,-5696,-1,0,0
84.26,179.76,-132.43,38,-6220,-5692,-1,0,0
84.25,179.76,-132.45,34,-6215,-5703,-1,0,-1
84.25,179.76,-132.45,32,-6209,-5698,0,0,-1
84.25,179.76,-132.45,37,-6204,-5693,0,0,-1
84.25,179.76,-132.45,31,-6202,-5689,0,-1,0
84.25,179.77,-132.44,28,-6213,-5692,0,-1,0
84.25,179.77,-132.44,24,-6220,-5697,0,0,0
84.25,179.77,-132.44,26,-6222,-5694,0,0,-1
84.25,179.77,-132.44,30,-6223,-5698,0,0,-1
84.25,179.77,-132.44,31,-6223,-5697,-1,0,0
84.25,179.77,-132.44,28,-6222,-5683,-1,-1,-1
84.25,179.77,-132.44,24,-6221,-5684,-1,-1,0
84.26,179.77,-132.44,33,-6226,-5684,-1,-1,0
84.26,179.77,-132.44,37,-6228,-5689,0,-1,0
84.26,179.78,-132.44,38,-6231,-5694,0,-1,-1
84.26,179.78,-132.44,30,-6227,-5689,0,0,-1
84.26,179.78,-132.44,29,-6228,-5689,-1,-1,0
84.26,179.77,-132.44,32,-6219,-5690,-1,-1,0
84.26,179.78,-132.45,31,-6214,-5705,-1,-1,-1
84.26,179.78,-132.45,31,-6212,-5691,0,-1,0
84.26,179.78,-132.45,38,-6214,-5682,0,0,-1
84.26,179.77,-132.44,36,-6219,-5687,0,0,0
84.26,179.77,-132.44,42,-6220,-5689,0,0,0
84.26,179.77,-132.44,35,-6220,-5690,-1,0,0
84.26,179.77,-132.44,33,-6222,-5695,0,0,0
84.26,179.77,-132.44,38,-6220,-5697,-1,0,0
84.26,179.77,-132.44,33,-6222,-5694,0,0,-1
84.25,179.77,-132.44,31,-6218,-5687,0,0,0
84.26,179.77,-132.44,34,-6217,-5692,-1,0,-1
84.24,179.77,-132.45,32,-6217,-5689,-1,0,-1
84.26,179.77,-132.45,35,-6217,-5693,0,-1,0
84.24,179.77,-132.45,35,-6218,-5693,-1,-1,0
84.24,179.77,-132.45,31,-6221,-5687,-1,0,0
84.24,179.77,-132.45,31,-6225,-5675,-1,-1,0
84.24,179.77,-132.45,30,-6222,-5677,-1,0,0
84.26,179.77,-132.44,36,-6218,-5682,-1,-1,0
84.24,179.77,-132.45,38,-6215,-5692,-1,0,0
84.24,179.77,-132.45,30,-6213,-5694,-1,-1,0
84.24,179.77,-132.45,27,-6219,-5695,0,0,-1
84.24,179.77,-132.45,29,-6222,-5689,-1,0,0
84.24,179.77,-132.45,41,-6223,-5683,-1,0,0
84.24,179.77,-132.45,49,-6215,-5688,-1,-1,0
84.24,179.77,-132.45,48,-6211,-5686,0,0,0
84.24,179.77,-132.45,36,-6213,-5687,0,-1,0
84.24,179.78,-132.44,35,-6216,-5685,0,0,-1
84.24,179.77,-132.44,36,-6227,-5680,-1,-1,-1
84.25,179.77,-132.44,34,-6234,-5681,-1,-1,-1
84.24,179.77,-132.45,28,-6222,-5696,-1,-1,0
84.25,179.78,-132.45,32,-6214,-5689,-1,0,-1
84.25,179.77,-132.45,37,-6210,-5696,-1,0,-1
84.24,179.77,-132.45,37,-6213,-5697,0,0,-1
84.24,179.77,-132.45,38,-6217,-5693,0,0,-1
84.24,179.77,-132.45,40,-6222,-5690,0,0,0
84.24,179.77,-132.45,37,-6224,-5693,0,0,0
84.24,179.77,-132.45,38,-6228,-5687,0,0,-1
84.23,179.76,-132.44,35,-6224,-5685,0,0,-1
84.23,179.76,-132.44,33,-6223,-5685,-1,0,-1
84.23,179.76,-132.44,30,-6222,-5683,-1,0,0
84.23,179.76,-132.44,34,-6218,-5686,0,0,0
84.23,179.76,-132.44,41,-6211,-5691,-1,-1,0
84.24,179.77,-132.45,38,-6215,-5696,-1,0,0
84.24,179.77,-132.44,35,-6217,-5688,0,-1,0
84.24,179.77,-132.44,36,-6223,-5686,-1,-1,0
84.24,179.77,-132.45,42,-6223,-5691,-1,-1,0
84.24,179.77,-132.45,38,-6218,-5685,-1,-1,0
84.24,179.77,-132.45,38,-6218,-5692,-1,-1,-1
84.24,179.77,-132.45,38,-6210,-5696,0,0,0
84.24,179.77,-132.45,38,-6212,-5699,0,0,0
84.24,179.77,-132.45,40,-6217,-5698,-1,-1,0
84.24,179.77,-132.45,40,-6222,-5693,0,-1,0
84.24,179.77,-132.45,36,-6222,-5687,0,0,0
84.24,179.77,-132.44,43,-6224,-5688,0,0,0
84.24,179.77,-132.44,43,-6218,-5691,0,0,0
84.24,179.77,-132.44,39,-6216,-5679,0,-1,-1
84.24,179.77,-132.44,31,-6221,-5680,-1,-1,0
84.24,179.77,-132.44,29,-6227,-5675,-1,-1,-1
84.24,179.77,-132.44,26,-6226,-5680,-1,-1,-1
84.24,179.77,-132.44,32,-6218,-5686,-1,-1,-1
84.24,179.77,-132.44,31,-6215,-5678,-1,-1,0
84.24,179.77,-132.45,30,-6211,-5693,-1,0,0
84.24,179.77,-132.45,31,-6213,-5701,-1,-1,-1
84.23,179.77,-132.45,35,-6212,-5701,0,-1,0
84.24,179.78,-132.44,35,-6212,-5694,0,-1,0
84.24,179.78,-132.44,37,-6215,-5694,0,-1,0
84.24,179.78,-132.45,25,-6219,-5697,-1,0,-1
84.23,179.77,-132.45,40,-6220,-5688,-1,0,-1
84.23,179.77,-132.45,48,-6217,-5700,0,-1,0
84.23,179.77,-132.45,42,-6215,-5708,0,0,0
84.22,179.77,-132.45,42,-6218,-5694,0,0,0
84.24,179.77,-132.44,38,-6222,-5679,0,0,-1
84.24,179.77,-132.44,40,-6219,-5672,-1,-1,-1
84.24,179.77,-132.45,32,-6219,-5687,-1,-1,-1
84.23,179.77,-132.45,33,-6216,-5697,-1,-1,0
84.24,179.77,-132.46,28,-6212,-5703,-1,0,0
84.24,179.77,-132.46,23,-6206,-5707,0,0,-1
84.24,179.77,-132.46,32,-6213,-5713,0,0,0
84.24,179.77,-132.46,39,-6216,-5713,0,0,0
84.24,179.77,-132.46,37,-6219,-5705,0,-1,0
84.24,179.78,-132.45,30,-6214,-5704,0,-1,0
84.24,179.78,-132.45,26,-6216,-5692,0,0,0
84.23,179.77,-132.45,29,-6221,-5687,0,0,-1
84.23,179.77,-132.45,34,-6221,-5684,-1,0,0
84.22,179.77,-132.45,41,-6222,-5684,0,0,-1
84.22,179.76,-132.45,42,-6218,-5670,0,-1,0
84.23,179.76,-132.44,37,-6218,-5672,0,0,-1
84.23,179.76,-132.44,35,-6222,-5672,0,-1,0
84.23,179.76,-132.44,31,-6218,-5674,-1,-1,0
84.22,179.77,-132.45,25,-6221,-5682,-1,-1,0
84.23,179.77,-132.45,22,-6216,-5690,-1,-1,0
84.23,179.77,-132.45,25,-6211,-5692,0,0,-1
84.23,179.77,-132.45,28,-6206,-5696,0,0,0
84.23,179.77,-132.45,26,-6209,-5695,0,0,-1
84.23,179.77,-132.45,34,-6215,-5687,0,0,0
84.22,179.77,-132.44,32,-6215,-5688,0,0,0
84.22,179.77,-132.44,29,-6213,-5689,0,0,0
84.22,179.78,-132.44,31,-6216,-5692,0,0,0
84.22,179.78,-132.44,23,-6219,-5684,0,0,0
84.22,179.78,-132.44,27,-6215,-5682,-1,-1,-1
84.22,179.78,-132.44,31,-6214,-5692,-1,-1,-1
84.22,179.77,-132.44,31,-6219,-5694,-1,0,-1
84.22,179.77,-132.44,29,-6220,-5695,0,0,-1
84.22,179.77,-132.44,36,-6219,-5690,-1,0,-1
84.22,179.77,-132.45,39,-6218,-5693,-1,0,0
84.22,179.77,-132.44,38,-6226,-5698,0,0,0
84.22,179.77,-132.44,40,-6227,-5691,-1,-1,-1
84.22,179.77,-132.44,31,-6225,-5689,-1,-1,0
84.22,179.77,-132.44,27,-6221,-5687,-1,-1,-1
84.22,179.77,-132.44,43,-6219,-5688,-1,-1,0
84.22,179.77,-132.45,40,-6218,-5691,-1,0,0
84.22,179.77,-132.44,32,-6216,-5701,0,0,0
84.22,179.77,-132.44,35,-6220,-5692,0,0,0
84.22,179.77,-132.43,33,-6223,-5685,0,0,-1
84.22,179.77,-132.44,37,-6226,-5692,-1,-1,-1
84.23,179.76,-132.44,46,-6232,-5690,-1,-1,-1
84.22,179.77,-132.45,38,-6226,-5692,-1,-1,0
84.22,179.77,-132.45,36,-6213,-5681,-1,-1,0
84.23,179.77,-132.45,36,-6213,-5687,0,-1,0
84.23,179.77,-132.45,33,-6219,-5689,0,-1,-1
84.22,179.77,-132.45,36,-6222,-5702,0,-1,0
84.22,179.77,-132.45,43,-6222,-5706,0,-1,0
84.22,179.77,-132.44,34,-6226,-5695,0,0,0
84.22,179.77,-132.44,31,-6217,-5684,0,0,-1
84.22,179.77,-132.44,31,-6216,-5679,0,0,-1
84.22,179.77,-132.44,31,-6224,-5676,-1,0,-1
84.22,179.77,-132.44,41,-6220,-5680,-1,-1,0
84.22,179.77,-132.44,31,-6213,-5681,-1,-1,0
84.22,179.77,-132.44,29,-6212,-5681,-1,-1,0
84.22,179.77,-132.45,33,-6207,-5683,-1,-1,-1
84.22,179.77,-132.45,31,-6213,-5690,0,-1,-1
84.22,179.77,-132.45,32,-6217,-5690,0,-1,-1
84.22,179.77,-132.45,34,-6218,-5685,-1,-1,0
84.23,179.77,-132.45,27,-6221,-5680,-1,-1,0
84.23,179.77,-132.45,36,-6222,-5697,-1,-1,0
84.23,179.77,-132.45,37,-6222,-5705,0,0,0
84.22,179.77,-132.45,40,-6226,-5706,0,-1,0
84.22,179.77,-132.44,34,-6226,-5685,0,-1,0
84.24,179.78,-132.43,32,-6225,-5681,0,-1,0
84.24,179.78,-132.43,33,-6224,-5684,-1,-1,0
84.22,179.78,-132.43,38,-6222,-5685,-1,0,0
84.22,179.78,-132.44,33,-6225,-5682,0,0,-1
84.24,179.77,-132.44,33,-6226,-5688,-1,0,-1
84.24,179.77,-132.44,41,-6212,-5689,0,0,-1
84.24,179.77,-132.44,29,-6208,-5687,-1,-1,0
84.24,179.77,-132.44,30,-6213,-5685,-1,-1,0
84.24,179.77,-132.44,37,-6220,-5678,-1,-1,0
84.24,179.78,-132.44,28,-6224,-5693,0,-1,0
84.24,179.78,-132.44,27,-6225,-5689,0,-1,0
84.24,179.78,-132.44,29,-6223,-5700,0,-1,0
84.23,179.78,-132.44,33,-6213,-5698,-1,-1,0
84.23,179.79,-132.44,33,-6219,-5694,-1,-1,0
84.23,179.79,-132.44,37,-6225,-5683,0,-1,0
84.24,179.78,-132.44,36,-6226,-5691,-1,0,0
84.24,179.78,-132.44,29,-6230,-5696,-1,0,-1
84.24,179.78,-132.44,34,-6221,-5685,-1,-1,0
84.24,179.78,-132.44,38,-6215,-5687,-1,-1,0
84.24,179.78,-132.43,48,-6215,-5692,0,-1,0
84.24,179.78,-132.44,40,-6217,-5693,0,0,0
84.22,179.78,-132.43,36,-6208,-5684,0,-1,0
84.24,179.78,-132.43,31,-6211,-5681,0,-1,0
84.24,179.78,-132.43,31,-6221,-5686,-1,-1,-1
84.24,179.78,-132.43,37,-6230,-5696,-1,-1,-1
84.23,179.78,-132.44,29,-6219,-5694,-1,-1,-1
84.24,179.79,-132.45,29,-6214,-5700,0,-1,0
84.23,179.78,-132.44,29,-6212,-5689,0,0,-1
84.23,179.79,-132.44,28,-6220,-5697,0,0,0
84.23,179.79,-132.44,33,-6220,-5703,0,0,0
84.23,179.79,-132.44,30,-6224,-5707,0,0,0
84.23,179.79,-132.44,27,-6218,-5698,0,0,0
84.23,179.79,-132.44,27,-6218,-5691,0,0,-1
84.22,179.78,-132.43,32,-6225,-5686,-1,0,-1
84.22,179.78,-132.43,29,-6224,-5687,-1,0,-1
84.22,179.78,-132.43,34,-6220,-5682,-1,-1,0
84.22,179.79,-132.43,30,-6217,-5675,0,-1,0
84.22,179.79,-132.43,35,-6221,-5675,0,-1,0
84.23,179.79,-132.44,32,-6224,-5694,0,-1,-1
84.23,179.79,-132.44,37,-6223,-5697,-1,-1,0
84.23,179.79,-132.44,35,-6224,-5685,-1,-1,-1
84.23,179.79,-132.44,35,-6226,-5678,-1,-1,-1
84.23,179.79,-132.44,30,-6222,-5683,-1,-1,0
84.23,179.79,-132.44,33,-6221,-5681,-1,0,-1
84.23,179.79,-132.44,34,-6225,-5681,0,0,0
84.23,179.79,-132.44,32,-6223,-5687,0,0,0
84.24,179.78,-132.43,30,-6215,-5680,0,0,0
84.24,179.78,-132.43,24,-6209,-5683,0,-1,0
84.24,179.78,-132.43,25,-6217,-5678,0,-1,-1
84.24,179.78,-132.43,30,-6217,-5684,-1,0,0
84.24,179.78,-132.43,31,-6217,-5677,-1,0,0
84.22,179.79,-132.43,33,-6212,-5687,-1,0,0
84.22,179.79,-132.43,33,-6218,-5693,-1,0,-1
84.23,179.79,-132.44,34,-6216,-5698,-1,0,-1
84.23,179.79,-132.44,34,-6211,-5695,-1,0,0
84.23,179.79,-132.44,34,-6210,-5690,-1,-1,0
84.23,179.79,-132.44,36,-6212,-5688,-1,-1,0
84.23,179.78,-132.45,40,-6210,-5695,-1,-1,0
84.24,179.78,-132.45,34,-6209,-5694,0,-1,0
84.24,179.78,-132.45,34,-6210,-5695,-1,-1,0
84.24,179.78,-132.45,36,-6207,-5697,0,-1,0
84.24,179.78,-132.45,36,-6204,-5692,0,0,0
84.24,179.79,-132.45,32,-6213,-5694,0,0,-1
84.24,179.78,-132.45,33,-6212,-5691,-1,-1,0
84.24,179.78,-132.45,34,-6212,-5695,0,0,-1
84.24,179.78,-132.45,36,-6213,-5689,-1,-1,0
84.24,179.78,-132.45,35,-6215,-5696,-1,0,-1
84.24,179.78,-132.45,40,-6212,-5693,-1,0,-1
84.22,179.78,-132.46,42,-6214,-5704,0,0,0
84.23,179.77,-132.45,43,-6210,-5695,0,0,0
84.22,179.77,-132.44,43,-6216,-5683,0,0,0
84.22,179.77,-132.44,33,-6226,-5681,-1,-1,0
84.22,179.78,-132.44,29,-6229,-5681,-1,-1,-1
84.23,179.78,-132.44,34,-6229,-5678,-1,-1,0
84.23,179.78,-132.45,27,-6226,-5686,-1,-1,0
84.24,179.78,-132.45,24,-6221,-5695,-1,-1,0
84.24,179.78,-132.45,34,-6213,-5697,0,0,-1
84.24,179.78,-132.45,38,-6206,-5695,0,0,-1
84.23,179.77,-132.45,47,-6217,-5692,0,0,0
84.23,179.77,-132.45,45,-6215,-5688,0,0,0
84.22,179.77,-132.45,39,-6216,-5681,0,-1,0
84.22,179.77,-132.44,36,-6215,-5680,0,0,0
84.22,179.77,-132.44,27,-6219,-5678,0,0,-1
84.22,179.77,-132.44,29,-6222,-5688,-1,0,0
84.22,179.77,-132.44,23,-6223,-5688,0,-1,0
84.22,179.78,-132.44,28,-6221,-5695,-1,-1,0
84.23,179.78,-132.44,28,-6215,-5688,-1,-1,0
84.23,179.78,-132.44,34,-6215,-5697,0,-1,0
84.23,179.78,-132.44,33,-6216,-5700,0,0,-1
84.23,179.78,-132.44,31,-6222,-5696,-1,-1,0
84.23,179.79,-132.44,27,-6217,-5685,-1,-1,0
84.22,179.79,-132.45,31,-6213,-5683,-1,-1,0
84.22,179.79,-132.45,34,-6220,-5695,-1,-1,-1
84.22,179.79,-132.45,33,-6212,-5681,0,0,0
84.23,179.78,-132.44,38,-6219,-5679,0,0,0
84.23,179.79,-132.44,39,-6224,-5679,0,0,0
84.22,179.78,-132.43,27,-6231,-5683,0,0,0
84.22,179.78,-132.43,32,-6220,-5680,0,0,0
84.22,179.78,-132.43,33,-6213,-5687,-1,0,0
84.21,179.79,-132.43,35,-6213,-5684,-1,0,0
84.21,179.79,-132.43,34,-6215,-5676,0,0,-1
84.21,179.78,-132.44,44,-6219,-5685,-1,-1,0
84.21,179.78,-132.44,40,-6217,-5698,-1,-1,-1
84.21,179.78,-132.44,40,-6215,-5688,-1,0,-1
84.22,179.78,-132.44,34,-6216,-5685,-1,0,-1
84.22,179.78,-132.44,37,-6216,-5684,-1,0,-1
84.22,179.77,-132.44,34,-6217,-5693,-1,-1,-1
84.22,179.77,-132.44,35,-6217,-5699,-1,-1,0
84.22,179.77,-132.44,37,-6219,-5697,0,0,0
84.22,179.78,-132.44,31,-6224,-5692,0,-1,0
84.21,179.78,-132.44,31,-6219,-5704,0,0,0
84.21,179.78,-132.44,27,-6214,-5690,0,0,-1
84.22,179.78,-132.44,29,-6212,-5684,-1,0,0
84.21,179.78,-132.44,26,-6212,-5684,-1,0,0
84.21,179.78,-132.44,31,-6215,-5687,-1,-1,0
84.21,179.78,-132.44,31,-6221,-5702,0,0,-1
84.21,179.78,-132.44,38,-6215,-5694,0,0,0
84.21,179.78,-132.44,35,-6219,-5695,0,0,0
84.20,179.78,-132.43,41,-6219,-5687,0,0,-1
84.22,179.77,-132.44,35,-6219,-5690,-1,-1,0
84.21,179.77,-132.45,36,-6218,-5695,-1,-1,0
84.22,179.78,-132.45,33,-6213,-5700,-1,-1,0
84.22,179.78,-132.46,32,-6213,-5703,-1,-1,0
84.22,179.78,-132.46,32,-6210,-5703,0,0,-1
84.22,179.78,-132.46,35,-6212,-5704,0,0,-1
84.22,179.78,-132.46,34,-6212,-5703,0,0,0
84.22,179.77,-132.45,35,-6209,-5687,0,0,0
84.22,179.78,-132.45,40,-6219,-5683,0,0,0
84.21,179.77,-132.45,31,-6221,-5680,0,0,-1
84.21,179.77,-132.45,32,-6221,-5682,0,0,-1
84.21,179.78,-132.44,33,-6223,-5684,0,0,0
84.21,179.78,-132.44,34,-6219,-5685,-1,0,0
84.21,179.78,-132.44,34,-6223,-5676,-1,-1,0
84.21,179.78,-132.44,31,-6219,-5678,-1,0,-1
84.21,179.77,-132.45,31,-6218,-5677,-1,0,-1
84.21,179.77,-132.45,40,-6219,-5673,-1,-1,0
84.21,179.77,-132.45,41,-6217,-5691,-1,-1,0
84.21,179.77,-132.45,42,-6213,-5677,0,-1,0
84.22,179.78,-132.45,39,-6213,-5678,-1,-1,0
84.22,179.78,-132.45,36,-6215,-5690,-1,-1,-1
84.22,179.78,-132.45,34,-6221,-5704,0,-1,0
84.22,179.78,-132.45,26,-6220,-5698,0,0,0
84.22,179.78,-132.45,28,-6218,-5694,0,0,0
84.21,179.78,-132.44,31,-6217,-5689,0,-1,0
84.21,179.78,-132.44,31,-6220,-5685,0,-1,0
84.22,179.78,-132.44,37,-6223,-5691,0,-1,0
84.22,179.78,-132.43,31,-6228,-5687,0,0,0
84.22,179.78,-132.43,27,-6229,-5682,0,0,-1
84.22,179.77,-132.43,41,-6227,-5687,-1,0,-1
84.22,179.77,-132.43,34,-6220,-5693,-1,0,-1
84.22,179.77,-132.43,36,-6218,-5693,-1,-1,-1
84.22,179.77,-132.44,38,-6213,-5699,-1,0,0
84.22,179.77,-132.44,36,-6211,-5690,0,-1,0
84.22,179.78,-132.44,34,-6208,-5692,0,-1,0
84.22,179.78,-132.44,33,-6216,-5691,0,-1,0
84.22,179.78,-132.44,26,-6213,-5681,0,-1,0
84.22,179.78,-132.43,29,-6218,-5683,0,-1,0
84.22,179.78,-132.43,31,-6223,-5696,-1,-1,0
84.22,179.78,-132.44,33,-6216,-5697,0,0,0
84.22,179.78,-132.43,30,-6214,-5693,0,0,-1
84.22,179.78,-132.43,36,-6219,-5693,0,-1,0
84.22,179.78,-132.42,33,-6218,-5677,0,-1,0
84.22,179.78,-132.42,31,-6223,-5680,-1,-1,-1
84.23,179.78,-132.42,41,-6226,-5680,-1,-1,-1
84.24,179.78,-132.43,41,-6229,-5697,-1,-1,0
84.22,179.78,-132.43,42,-6227,-5703,-1,-1,0
84.22,179.78,-132.44,40,-6213,-5699,-1,0,-1
84.22,179.78,-132.44,41,-6210,-5698,0,0,0
84.22,179.78,-132.44,45,-6207,-5688,0,0,0
84.22,179.78,-132.44,45,-6208,-5703,0,0,0
84.22,179.77,-132.43,41,-6215,-5703,0,-1,0
84.22,179.77,-132.43,34,-6215,-5700,0,0,0
84.22,179.77,-132.43,28,-6213,-5688,0,0,-1
84.22,179.77,-132.43,26,-6219,-5682,-1,0,-1
84.22,179.77,-132.43,29,-6221,-5676,-1,0,-1
84.22,179.77,-132.43,31,-6214,-5693,-1,0,0
84.22,179.77,-132.43,30,-6214,-5683,-1,-1,0
84.22,179.77,-132.44,36,-6217,-5690,-1,0,-1
84.22,179.77,-132.44,36,-6222,-5685,-1,0,0
84.22,179.77,-132.44,37,-6225,-5681,-1,0,0
84.22,179.77,-132.44,37,-6223,-5683,-1,-1,0
84.22,179.77,-132.44,35,-6223,-5691,-1,-1,0
84.22,179.77,-132.44,32,-6224,-5691,-1,0,-1
84.22,179.77,-132.44,34,-6217,-5688,0,-1,0
84.22,179.77,-132.44,33,-6218,-5693,0,0,-1
84.22,179.77,-132.43,31,-6219,-5681,0,-1,0
84.22,179.77,-132.43,28,-6221,-5686,0,0,-1
84.22,179.77,-132.43,28,-6224,-5682,-1,0,0
84.22,179.77,-132.43,31,-6222,-5687,-1,0,0
84.22,179.77,-132.44,31,-6219,-5697,0,0,-1
84.22,179.77,-132.44,33,-6220,-5686,-1,0,-1
84.22,179.77,-132.44,35,-6222,-5669,-1,0,-1
84.21,179.76,-132.43,38,-6219,-5670,-1,0,0
84.21,179.76,-132.43,40,-6225,-5674,-1,-1,-1
84.21,179.76,-132.43,36,-6225,-5676,0,0,0
84.21,179.76,-132.43,29,-6220,-5678,0,0,-1
84.21,179.76,-132.43,29,-6214,-5686,-1,-1,0
84.22,179.77,-132.44,31,-6206,-5687,-1,-1,0
84.22,179.77,-132.44,35,-6209,-5696,-1,-1,-1
84.22,179.77,-132.44,30,-6206,-5698,-1,0,0
84.22,179.77,-132.44,26,-6207,-5696,0,-1,0
84.22,179.77,-132.44,23,-6211,-5689,0,0,0
84.22,179.77,-132.43,28,-6214,-5682,0,0,-1
84.22,179.77,-132.44,30,-6214,-5687,-1,0,-1
