Yaw,Pitch,Roll,AX,AY,AZ,GX,GY,GZ
-159.23,6.23,-30.12,908,-4133,7113,0,0,-1
-159.23,6.22,-30.11,906,-4119,7114,0,0,0
-159.23,6.22,-30.11,906,-4113,7113,-1,0,0
-159.23,6.22,-30.11,903,-4114,7119,-1,0,0
-159.23,6.22,-30.11,896,-4113,7106,0,0,0
-159.23,6.22,-30.11,890,-4118,7112,-1,-1,-1
-159.24,6.22,-30.11,889,-4120,7112,-1,-1,0
-159.24,6.22,-30.12,891,-4125,7111,-1,-1,-1
-159.24,6.22,-30.11,898,-4121,7122,-1,0,-1
-159.23,6.23,-30.12,909,-4115,7116,0,0,-1
-159.23,6.23,-30.12,899,-4106,7104,-1,-1,-1
-159.24,6.23,-30.12,899,-4131,7102,0,-1,-1
-159.24,6.23,-30.11,900,-4133,7120,0,0,0
-159.24,6.23,-30.11,896,-4121,7127,0,-1,0
-159.23,6.24,-30.11,890,-4119,7120,-1,-1,-1
-159.23,6.24,-30.12,894,-4128,7096,-1,-1,-1
-159.23,6.24,-30.12,897,-4127,7097,0,-1,-1
-159.23,6.24,-30.12,896,-4115,7111,-1,-1,0
-159.23,6.24,-30.12,898,-4120,7105,-1,-1,0
-159.23,6.25,-30.13,899,-4134,7103,0,0,0
-159.24,6.24,-30.13,898,-4145,7105,0,0,0
-159.24,6.24,-30.13,897,-4139,7117,-1,-1,-1
-159.24,6.24,-30.13,895,-4139,7116,0,-1,-1
-159.24,6.24,-30.13,895,-4127,7111,0,-1,-1
-159.23,6.25,-30.13,903,-4130,7115,-1,-1,-1
-159.23,6.25,-30.13,898,-4129,7117,-1,-1,0
-159.23,6.25,-30.13,897,-4123,7115,-1,0,-1
-159.23,6.25,-30.13,897,-4117,7116,-1,0,0
-159.23,6.25,-30.13,900,-4126,7120,-1,-1,0
-159.24,6.25,-30.14,893,-4153,7100,0,0,-1
-159.24,6.24,-30.13,912,-4129,7124,0,0,0
-159.24,6.24,-30.13,901,-4087,7115,-1,-1,0
-159.25,6.24,-30.14,901,-4114,7122,-1,-1,-1
-159.24,6.24,-30.16,902,-4164,7093,0,0,-1
-159.24,6.23,-30.15,893,-4146,7098,0,0,-1
-159.24,6.23,-30.13,893,-4116,7146,0,0,0
-159.25,6.22,-30.15,888,-4115,7111,-1,-1,0
-159.25,6.22,-30.16,888,-4132,7116,-1,-1,-1
-159.25,6.22,-30.17,894,-4154,7121,0,-1,0
-159.25,6.23,-30.16,916,-4139,7100,0,0,0
-159.25,6.21,-30.15,899,-4107,7116,-1,0,0
-159.25,6.20,-30.16,886,-4115,7099,0,0,0
-159.26,6.20,-30.17,875,-4119,7102,-2,-1,0
-159.27,6.18,-30.17,863,-4129,7112,0,0,-1
-159.28,6.17,-30.18,859,-4118,7123,-1,-1,0
-159.28,6.18,-30.19,869,-4145,7098,0,0,-1
-159.28,6.18,-30.20,877,-4129,7149,-2,-1,0
-159.29,6.17,-30.23,885,-4148,7089,-1,0,0
-159.29,6.18,-30.22,907,-4144,7108,0,0,0
-159.31,6.18,-30.25,899,-4154,7069,-1,-1,0
-159.31,6.18,-30.25,916,-4146,7074,-2,0,0
-159.32,6.16,-30.22,880,-4129,7125,0,0,0
-159.33,6.15,-30.24,887,-4180,7074,1,0,0
-159.32,6.14,-30.21,870,-4125,7102,-1,0,-1
-159.32,6.12,-30.20,872,-4149,7149,-1,0,-1
-159.32,6.12,-30.20,874,-4119,7083,1,0,0
-159.32,6.11,-30.18,841,-4104,7168,-2,-1,-1
-159.32,6.13,-30.19,878,-4110,7131,0,-1,0
-159.33,6.14,-30.22,891,-4139,7111,-1,-1,-1
-159.32,6.14,-30.22,875,-4133,7106,-1,-1,-1
-159.32,6.15,-30.23,875,-4138,7111,-1,-1,-1
-159.32,6.16,-30.24,890,-4141,7111,-1,-1,0
-159.32,6.17,-30.25,908,-4150,7112,-1,-1,0
-159.32,6.16,-30.26,892,-4165,7089,0,0,-1
-159.31,6.17,-30.25,884,-4162,7101,-1,-1,0
-159.32,6.17,-30.25,871,-4151,7081,0,0,-1
-159.32,6.17,-30.24,873,-4151,7092,0,-1,0
-159.32,6.18,-30.24,883,-4160,7086,0,-1,-1
-159.32,6.18,-30.23,882,-4154,7093,0,-1,-1
-159.32,6.19,-30.22,892,-4137,7109,0,-1,-1
-159.31,6.21,-30.20,901,-4125,7102,0,-1,-1
-159.31,6.21,-30.20,903,-4117,7101,0,-1,-1
-159.31,6.21,-30.19,896,-4118,7118,0,-1,-1
-159.31,6.21,-30.19,890,-4120,7129,-1,-1,-1
-159.31,6.21,-30.19,893,-4118,7126,-1,0,0
-159.31,6.21,-30.20,891,-4121,7113,-1,-1,0
-159.31,6.21,-30.21,886,-4127,7111,-1,-1,0
-159.32,6.21,-30.22,889,-4143,7101,-1,0,-1
-159.31,6.21,-30.23,892,-4152,7117,0,0,-1
-159.31,6.21,-30.22,885,-4149,7109,0,-1,-1
-159.31,6.22,-30.22,886,-4153,7094,0,-1,-1
-159.31,6.22,-30.22,894,-4154,7085,0,-1,-1
-159.30,6.23,-30.21,899,-4149,7090,0,-1,-1
-159.30,6.23,-30.19,907,-4137,7100,0,-1,-1
-159.29,6.23,-30.19,897,-4141,7098,0,-1,-1
-159.29,6.23,-30.18,896,-4134,7096,0,0,-1
-159.29,6.23,-30.16,888,-4135,7112,0,-1,-1
-159.28,6.24,-30.16,890,-4129,7118,0,-1,-1
-159.28,6.24,-30.15,902,-4126,7116,0,-1,-1
-159.27,6.24,-30.14,906,-4124,7128,0,0,-1
-159.27,6.24,-30.14,907,-4120,7127,-1,0,0
-159.28,6.24,-30.14,899,-4113,7115,-1,0,0
-159.28,6.23,-30.14,882,-4116,7111,-1,0,0
-159.28,6.22,-30.14,881,-4122,7118,-1,0,-1
-159.28,6.23,-30.15,875,-4126,7116,-1,-1,-1
-159.28,6.23,-30.15,875,-4130,7110,-1,-1,-1
-159.28,6.23,-30.16,884,-4134,7101,-1,-1,-1
-159.28,6.24,-30.16,898,-4138,7102,0,-1,-1
-159.27,6.25,-30.16,914,-4134,7092,0,-1,0
-159.27,6.25,-30.14,913,-4135,7119,0,0,-1
-159.27,6.24,-30.13,907,-4126,7119,0,0,-1
-159.27,6.24,-30.12,894,-4116,7122,0,0,0
-159.27,6.23,-30.11,887,-4111,7121,0,0,0
-159.27,6.23,-30.11,881,-4114,7114,0,0,-1
-159.26,6.23,-30.11,888,-4116,7118,0,-1,-1
-159.26,6.23,-30.10,892,-4118,7120,-1,-1,-1
-159.26,6.24,-30.11,898,-4120,7116,-1,-1,-1
-159.26,6.24,-30.11,895,-4133,7115,0,-1,-1
-159.26,6.24,-30.11,902,-4124,7107,-1,0,-1
-159.26,6.24,-30.11,901,-4127,7103,-1,0,0
-159.26,6.24,-30.12,887,-4132,7104,-1,0,0
-159.26,6.23,-30.12,887,-4137,7106,-1,0,-1
-159.26,6.23,-30.12,886,-4134,7104,0,0,-1
-159.26,6.23,-30.11,893,-4135,7118,0,0,-1
-159.26,6.23,-30.11,898,-4131,7118,0,0,-1
-159.26,6.23,-30.11,892,-4126,7120,0,-1,-1
-159.26,6.22,-30.11,891,-4125,7120,0,0,0
-159.26,6.22,-30.11,889,-4117,7117,0,0,-1
-159.26,6.22,-30.10,885,-4116,7120,0,0,-1
-159.26,6.21,-30.09,877,-4120,7117,0,0,-1
-159.25,6.21,-30.09,887,-4127,7128,0,0,-1
-159.25,6.21,-30.07,884,-4114,7152,0,0,-1
-159.25,6.21,-30.08,901,-4108,7145,-1,-1,-1
-159.24,6.22,-30.09,900,-4112,7130,-1,-1,-1
-159.24,6.22,-30.10,897,-4119,7128,-1,0,0
-159.25,6.22,-30.12,897,-4126,7113,-1,-1,0
-159.25,6.21,-30.12,886,-4114,7118,-1,0,-1
-159.26,6.22,-30.14,898,-4124,7096,-1,0,0
-159.26,6.21,-30.15,895,-4125,7120,-1,-1,0
-159.26,6.21,-30.16,889,-4123,7119,-1,0,0
-159.26,6.20,-30.17,889,-4127,7117,-1,0,0
-159.27,6.19,-30.19,871,-4153,7079,-1,-1,0
-159.27,6.19,-30.17,891,-4135,7143,0,0,-1
-159.27,6.19,-30.19,886,-4149,7091,0,-1,0
-159.29,6.19,-30.19,891,-4130,7151,-2,-1,0
-159.30,6.17,-30.20,898,-4107,7125,-1,0,0
-159.31,6.17,-30.23,883,-4147,7133,-1,-1,0
-159.34,6.17,-30.26,899,-4144,7108,-2,0,0
-159.35,6.14,-30.28,912,-4113,7170,0,-1,0
-159.39,6.16,-30.38,898,-4217,7006,-2,0,0
-159.39,6.12,-30.31,881,-4088,7181,-2,-2,0
-159.42,6.13,-30.37,880,-4207,7019,3,1,0
-159.44,6.11,-30.37,871,-4114,7079,-4,-1,0
-159.45,6.10,-30.35,868,-4144,7125,2,0,0
-159.45,6.08,-30.38,818,-4127,7058,-1,0,-1
-159.44,6.09,-30.40,864,-4202,7108,-1,-1,0
-159.43,6.08,-30.38,836,-4144,7063,1,1,-1
-159.44,6.10,-30.40,860,-4167,7069,-3,-1,0
-159.42,6.09,-30.37,853,-4156,7106,1,0,-1
-159.42,6.12,-30.40,904,-4221,7089,-2,-1,0
-159.40,6.11,-30.34,887,-4139,7081,2,0,-1
-159.40,6.12,-30.33,881,-4148,7135,-2,-2,0
-159.39,6.14,-30.33,884,-4167,7076,1,0,-1
-159.37,6.14,-30.31,880,-4211,7083,1,0,-1
-159.36,6.14,-30.28,885,-4175,7105,0,0,-1
-159.34,6.14,-30.24,879,-4130,7130,1,0,-1
-159.34,6.15,-30.22,869,-4108,7123,-1,-1,-1
-159.34,6.15,-30.22,872,-4107,7126,-1,-1,-1
-159.33,6.16,-30.23,883,-4125,7110,-1,-1,0
-159.35,6.17,-30.24,877,-4140,7092,-1,-1,0
-159.35,6.17,-30.24,882,-4160,7079,0,0,-1
-159.35,6.17,-30.23,883,-4148,7082,0,0,-1
-159.34,6.17,-30.22,880,-4138,7101,0,0,-1
-159.34,6.17,-30.22,874,-4143,7113,0,-1,-1
-159.33,6.18,-30.21,883,-4142,7103,0,-1,-1
-159.33,6.18,-30.20,886,-4136,7110,0,-1,-1
-159.32,6.19,-30.19,886,-4124,7111,0,-1,-1
-159.33,6.19,-30.19,889,-4120,7102,0,-1,0
-159.33,6.20,-30.18,894,-4128,7110,0,-1,0
-159.33,6.20,-30.18,896,-4131,7106,0,-1,-1
-159.33,6.20,-30.18,892,-4131,7099,0,-1,0
-159.33,6.20,-30.18,888,-4132,7109,0,-1,0
-159.33,6.20,-30.18,886,-4132,7123,-1,-1,-1
-159.33,6.21,-30.18,893,-4143,7112,-1,-1,-1
-159.33,6.22,-30.18,898,-4134,7113,-1,-1,-1
-159.33,6.22,-30.17,895,-4129,7113,-1,-1,-1
-159.33,6.22,-30.18,896,-4131,7115,-1,-1,-1
-159.33,6.22,-30.18,890,-4130,7112,-1,-1,0
-159.33,6.22,-30.18,888,-4136,7116,-1,-1,-1
-159.33,6.22,-30.18,892,-4136,7112,0,0,-1
-159.33,6.22,-30.18,887,-4137,7112,0,-1,-1
-159.33,6.22,-30.18,891,-4136,7104,0,-1,-1
-159.33,6.22,-30.17,891,-4140,7105,0,-1,-1
-159.33,6.23,-30.17,893,-4139,7102,-1,-1,-1
-159.33,6.23,-30.18,896,-4142,7099,0,0,-1
-159.33,6.23,-30.17,894,-4138,7124,0,-1,-1
-159.33,6.23,-30.17,891,-4136,7117,0,-1,-1
-159.32,6.24,-30.16,892,-4123,7112,0,-1,-1
-159.32,6.25,-30.15,894,-4132,7111,0,-1,-1
-159.32,6.25,-30.15,905,-4132,7115,0,0,-1
-159.32,6.25,-30.15,900,-4128,7113,-1,0,0
-159.33,6.24,-30.16,894,-4129,7117,-1,0,0
-159.33,6.24,-30.16,884,-4119,7110,-1,0,0
-159.33,6.23,-30.16,878,-4122,7111,-1,-1,-1
-159.33,6.24,-30.16,881,-4133,7121,-1,-1,-1
-159.33,6.25,-30.17,881,-4136,7113,-1,-1,-1
-159.33,6.25,-30.18,883,-4149,7111,-1,-1,-1
-159.33,6.26,-30.18,897,-4141,7119,0,-1,-1
-159.32,6.26,-30.17,907,-4136,7108,0,0,-1
-159.32,6.26,-30.17,907,-4130,7112,0,0,0
-159.32,6.26,-30.16,906,-4121,7105,0,0,0
-159.32,6.25,-30.16,898,-4123,7108,0,0,0
-159.33,6.24,-30.15,888,-4129,7112,0,0,0
-159.33,6.24,-30.15,882,-4131,7116,-1,-1,-1
-159.33,6.24,-30.15,881,-4134,7116,-1,-1,-1
-159.33,6.24,-30.15,885,-4126,7109,-1,-1,-1
-159.32,6.25,-30.16,891,-4118,7101,-1,-1,-1
-159.33,6.26,-30.16,897,-4120,7107,-1,-1,-1
-159.33,6.26,-30.17,905,-4127,7100,-1,-1,0
-159.33,6.26,-30.17,900,-4141,7106,0,0,0
-159.33,6.26,-30.17,900,-4142,7116,-1,-1,0
-159.33,6.26,-30.17,889,-4142,7104,0,-1,0
-159.33,6.27,-30.17,895,-4134,7113,-1,-1,-1
-159.34,6.26,-30.17,891,-4135,7107,-1,-1,-1
-159.33,6.27,-30.17,899,-4131,7107,0,-1,-1
-159.33,6.27,-30.17,901,-4129,7104,-1,-1,-1
-159.33,6.27,-30.17,901,-4132,7099,0,-1,0
-159.33,6.28,-30.16,901,-4128,7111,-1,-1,0
-159.34,6.28,-30.16,900,-4131,7117,0,-1,0
-159.34,6.28,-30.16,899,-4135,7119,-1,-1,-1
-159.34,6.28,-30.17,905,-4135,7112,-1,0,-1
-159.34,6.28,-30.16,902,-4122,7120,0,-1,-1
-159.34,6.28,-30.16,901,-4125,7120,-1,-1,-1
-159.34,6.28,-30.17,904,-4127,7112,-1,-1,-1
-159.34,6.28,-30.17,907,-4131,7112,-1,0,0
-159.34,6.28,-30.18,895,-4129,7101,-1,0,0
-159.35,6.28,-30.18,901,-4136,7109,-1,-1,0
-159.35,6.28,-30.19,899,-4140,7121,-1,-1,0
-159.35,6.28,-30.19,899,-4138,7104,-1,-1,-1
-159.34,6.28,-30.19,896,-4135,7097,0,-1,-1
-159.35,6.28,-30.19,893,-4132,7116,-1,-1,0
-159.35,6.28,-30.19,893,-4129,7095,-1,-1,0
-159.36,6.28,-30.19,893,-4127,7101,-1,-1,0
-159.36,6.29,-30.20,890,-4140,7095,-1,-1,0
-159.36,6.29,-30.20,902,-4151,7112,0,-1,-1
-159.37,6.29,-30.19,908,-4137,7119,0,-1,0
-159.37,6.29,-30.19,908,-4135,7116,0,-1,0
-159.37,6.30,-30.19,908,-4126,7102,-1,0,0
-159.37,6.28,-30.19,908,-4123,7097,-1,0,0
-159.37,6.28,-30.20,905,-4118,7100,-1,0,0
-159.38,6.27,-30.21,898,-4126,7101,-1,0,0
-159.39,6.26,-30.22,882,-4136,7103,-1,0,0
-159.39,6.26,-30.23,880,-4145,7109,-1,-1,0
-159.39,6.26,-30.23,886,-4146,7112,-1,-1,-1
-159.39,6.27,-30.24,895,-4143,7104,-1,-1,-1
-159.39,6.27,-30.25,904,-4148,7092,-1,-1,-1
-159.39,6.28,-30.25,914,-4147,7100,0,0,-1
-159.39,6.27,-30.24,916,-4143,7095,0,0,-1
-159.39,6.26,-30.23,906,-4133,7097,0,0,-1
-159.39,6.25,-30.22,895,-4133,7112,0,0,-1
-159.38,6.25,-30.21,887,-4131,7115,0,0,-1
-159.38,6.24,-30.21,873,-4137,7117,0,-1,-1
-159.38,6.24,-30.20,871,-4139,7121,0,-1,-1
-159.37,6.25,-30.20,876,-4134,7121,-1,-1,-1
-159.37,6.25,-30.20,887,-4126,7107,0,-1,-1
-159.37,6.25,-30.20,898,-4120,7108,-1,0,-1
-159.37,6.26,-30.20,901,-4134,7092,0,0,-1
-159.37,6.26,-30.20,907,-4141,7105,0,0,-1
-159.37,6.25,-30.19,894,-4135,7105,0,0,-1
-159.37,6.25,-30.19,887,-4131,7117,0,-1,-1
-159.37,6.25,-30.19,892,-4134,7118,-1,-1,-1
-159.36,6.26,-30.19,894,-4136,7113,0,-1,-1
-159.36,6.26,-30.18,895,-4134,7099,0,-1,-1
-159.36,6.27,-30.18,903,-4133,7098,0,-1,-1
-159.36,6.26,-30.17,904,-4131,7102,0,-1,-1
-159.35,6.27,-30.17,896,-4136,7103,0,0,-1
-159.36,6.26,-30.17,893,-4131,7117,0,0,0
-159.36,6.26,-30.16,894,-4130,7120,0,0,-1
-159.36,6.26,-30.16,891,-4118,7126,-1,-1,-1
-159.36,6.26,-30.16,888,-4117,7113,-1,-1,0
-159.36,6.26,-30.16,890,-4126,7116,-1,-1,-1
-159.36,6.26,-30.16,898,-4131,7115,-1,0,-1
-159.36,6.26,-30.16,898,-4132,7113,-1,0,-1
-159.36,6.26,-30.16,898,-4131,7117,0,0,-1
-159.36,6.26,-30.16,899,-4135,7127,-1,0,-1
-159.36,6.25,-30.16,895,-4135,7113,-1,0,0
-159.36,6.25,-30.16,891,-4128,7114,-1,0,-1
-159.36,6.24,-30.16,891,-4133,7102,-1,-1,0
-159.36,6.24,-30.16,902,-4136,7114,0,0,-1
-159.36,6.25,-30.15,902,-4136,7117,-1,0,-1
-159.35,6.25,-30.15,887,-4135,7111,0,-1,-1
-159.35,6.25,-30.15,894,-4129,7108,0,-1,-1
-159.35,6.25,-30.15,892,-4130,7114,0,0,-1
-159.35,6.24,-30.15,891,-4127,7120,-1,0,0
-159.35,6.24,-30.15,891,-4125,7113,-1,0,-1
-159.35,6.24,-30.15,889,-4123,7102,0,0,0
-159.35,6.24,-30.15,895,-4133,7104,-1,-1,-1
-159.35,6.24,-30.15,898,-4132,7117,0,-1,-1
-159.35,6.24,-30.15,905,-4128,7114,-1,0,0
-159.35,6.24,-30.14,903,-4127,7117,0,0,-1
-159.35,6.24,-30.14,902,-4123,7114,-1,0,0
-159.36,6.23,-30.14,894,-4118,7106,-1,0,0
-159.36,6.22,-30.14,885,-4113,7105,-1,0,0
-159.36,6.22,-30.15,878,-4124,7104,-1,0,-1
-159.36,6.22,-30.15,878,-4138,7116,-1,-1,-1
-159.36,6.22,-30.15,892,-4136,7123,-1,-1,-1
-159.35,6.23,-30.15,901,-4126,7127,-1,-1,-1
-159.35,6.23,-30.15,914,-4120,7112,-1,-1,-1
-159.35,6.24,-30.15,917,-4139,7101,0,0,0
-159.35,6.23,-30.14,917,-4139,7108,0,0,0
-159.35,6.22,-30.14,901,-4125,7110,0,0,0
-159.35,6.21,-30.13,887,-4125,7122,-1,0,0
-159.35,6.21,-30.13,877,-4130,7117,-1,0,0
-159.35,6.20,-30.13,872,-4136,7119,-1,0,-1
-159.36,6.20,-30.13,876,-4138,7109,-1,-1,0
-159.36,6.20,-30.13,883,-4129,7105,-1,-1,-1
-159.36,6.20,-30.13,885,-4127,7105,-1,-1,-1
-159.36,6.20,-30.13,888,-4131,7115,0,0,-1
-159.36,6.20,-30.13,894,-4126,7127,-1,0,0
-159.36,6.19,-30.14,887,-4126,7115,-1,0,0
-159.36,6.19,-30.14,883,-4124,7113,-1,0,0
-159.36,6.19,-30.14,880,-4132,7114,-1,-1,0
-159.36,6.19,-30.14,884,-4136,7112,0,-1,0
-159.37,6.19,-30.15,883,-4140,7108,-1,-1,-1
-159.37,6.19,-30.15,877,-4137,7117,0,0,-1
-159.37,6.19,-30.15,884,-4129,7112,-1,-1,0
-159.37,6.19,-30.15,883,-4128,7116,-1,0,-1
-159.37,6.19,-30.15,888,-4127,7110,-1,-1,0
-159.37,6.19,-30.14,883,-4133,7109,0,0,-1
-159.37,6.19,-30.14,879,-4130,7111,0,-1,-1
-159.37,6.19,-30.14,874,-4134,7112,-1,-1,-1
-159.37,6.19,-30.14,882,-4134,7117,-1,-1,-1
-159.36,6.20,-30.15,888,-4135,7109,0,-1,-1
-159.36,6.21,-30.15,902,-4129,7103,-1,-1,-1
-159.36,6.22,-30.15,911,-4133,7100,-1,-1,-1
-159.36,6.22,-30.16,904,-4133,7096,0,-1,-1
-159.36,6.22,-30.15,893,-4139,7107,0,-1,0
-159.36,6.22,-30.15,894,-4134,7116,0,-1,-1
-159.36,6.22,-30.15,887,-4126,7115,-1,-1,0
-159.36,6.22,-30.15,879,-4133,7117,0,-1,-1
-159.36,6.22,-30.15,879,-4134,7117,0,-1,-1
-159.36,6.23,-30.15,882,-4139,7112,0,-1,-1
-159.36,6.23,-30.15,896,-4128,7109,0,-1,-1
-159.36,6.23,-30.15,898,-4120,7116,-1,-1,-1
-159.36,6.23,-30.14,900,-4129,7120,0,-1,-1
-159.36,6.24,-30.13,901,-4128,7135,0,-1,-1
-159.35,6.24,-30.13,906,-4117,7126,0,0,0
-159.36,6.23,-30.13,894,-4111,7119,-1,0,0
-159.36,6.23,-30.14,895,-4122,7121,-1,-1,0
-159.36,6.24,-30.15,897,-4138,7098,-1,-1,-1
-159.36,6.25,-30.15,906,-4137,7124,0,-1,-1
-159.35,6.26,-30.15,914,-4129,7122,-1,-1,0
-159.36,6.26,-30.15,907,-4120,7122,-1,-1,0
-159.36,6.26,-30.15,901,-4122,7104,-1,0,0
-159.37,6.25,-30.15,887,-4118,7100,-1,0,0
-159.37,6.24,-30.15,874,-4124,7095,0,0,0
-159.37,6.24,-30.14,862,-4133,7106,0,-1,-1
-159.37,6.24,-30.13,866,-4135,7120,0,-1,-1
-159.37,6.25,-30.13,885,-4142,7128,0,-1,-1
-159.36,6.26,-30.12,898,-4135,7136,0,0,-1
-159.36,6.26,-30.12,901,-4121,7129,0,0,-1
-159.35,6.26,-30.11,910,-4110,7114,-1,0,-1
-159.35,6.26,-30.12,896,-4105,7109,-1,0,-1
-159.35,6.26,-30.12,897,-4111,7109,-1,0,-1
-159.36,6.25,-30.13,890,-4120,7104,-1,0,0
-159.36,6.25,-30.15,891,-4123,7121,-1,-1,-1
-159.36,6.26,-30.16,910,-4134,7118,-1,-1,0
-159.36,6.26,-30.18,899,-4142,7113,-1,-1,0
-159.36,6.26,-30.20,914,-4150,7098,-1,0,0
-159.36,6.26,-30.20,909,-4145,7088,-1,0,0
-159.37,6.25,-30.21,909,-4142,7093,-1,0,0
-159.37,6.24,-30.21,887,-4144,7095,-1,0,0
-159.37,6.23,-30.20,870,-4152,7109,0,0,-1
-159.37,6.23,-30.19,861,-4149,7124,0,-1,-1
-159.37,6.23,-30.18,860,-4143,7124,0,-1,-1
-159.37,6.24,-30.17,873,-4139,7123,0,-1,-1
-159.36,6.26,-30.16,903,-4123,7113,0,-1,-1
-159.35,6.27,-30.16,928,-4109,7112,0,-1,-1
-159.34,6.28,-30.16,934,-4107,7111,-1,0,0
-159.34,6.28,-30.16,932,-4104,7116,-1,0,0
-159.35,6.27,-30.17,913,-4107,7111,-1,0,0
-159.35,6.27,-30.18,897,-4114,7124,-1,0,0
-159.36,6.26,-30.20,878,-4129,7115,-1,-1,0
-159.37,6.26,-30.22,881,-4140,7108,-1,-1,0
-159.37,6.27,-30.23,883,-4155,7095,-1,-1,-1
-159.37,6.28,-30.24,893,-4163,7080,0,-1,-1
-159.37,6.29,-30.24,906,-4171,7093,0,-1,-1
-159.37,6.29,-30.23,917,-4165,7094,0,0,-1
-159.36,6.29,-30.21,913,-4162,7095,0,0,0
-159.37,6.28,-30.19,905,-4151,7099,0,0,0
-159.36,6.27,-30.16,894,-4131,7112,0,0,0
-159.36,6.27,-30.15,888,-4107,7119,0,-1,-1
-159.36,6.27,-30.14,882,-4103,7126,0,-1,-1
-159.36,6.27,-30.14,880,-4094,7130,-1,-1,-1
-159.36,6.28,-30.15,884,-4092,7127,-1,-1,-1
-159.36,6.28,-30.16,894,-4098,7103,-1,-1,0
-159.36,6.29,-30.18,903,-4125,7110,-1,-1,0
-159.37,6.29,-30.20,908,-4136,7103,-1,-1,0
-159.37,6.29,-30.21,908,-4149,7102,-1,-1,0
-159.38,6.30,-30.23,906,-4155,7102,-1,0,0
-159.38,6.30,-30.23,903,-4153,7102,0,0,0
-159.38,6.30,-30.23,895,-4158,7091,0,0,0
-159.38,6.29,-30.22,888,-4158,7093,0,-1,-1
-159.38,6.29,-30.21,888,-4153,7097,0,-1,-1
-159.37,6.30,-30.19,887,-4152,7117,0,-1,-1
-159.37,6.30,-30.18,905,-4149,7132,0,-1,-1
-159.37,6.30,-30.17,908,-4128,7129,0,0,-1
-159.36,6.30,-30.16,912,-4115,7119,-1,0,0
-159.36,6.30,-30.16,918,-4107,7122,-1,0,0
-159.37,6.30,-30.17,909,-4107,7112,-1,0,0
-159.37,6.29,-30.18,897,-4110,7112,-1,-1,0
-159.38,6.30,-30.20,899,-4126,7104,-1,-1,0
-159.38,6.30,-30.21,896,-4145,7107,-1,-1,0
-159.39,6.30,-30.23,908,-4151,7101,-1,-1,0
-159.39,6.29,-30.24,905,-4155,7095,-1,0,0
-159.40,6.28,-30.25,900,-4153,7100,-1,0,0
-159.40,6.27,-30.25,891,-4158,7096,0,0,0
-159.41,6.27,-30.26,895,-4158,7101,0,0,0
-159.41,6.26,-30.25,896,-4158,7111,0,0,0
-159.41,6.26,-30.24,902,-4150,7107,0,0,0
-159.42,6.25,-30.23,892,-4141,7089,0,0,0
-159.42,6.24,-30.22,894,-4135,7134,0,0,0
-159.42,6.24,-30.22,894,-4124,7119,-1,0,0
-159.42,6.23,-30.22,902,-4128,7108,-1,0,0
-159.42,6.22,-30.22,887,-4124,7128,-1,-1,0
-159.43,6.23,-30.23,895,-4113,7110,-1,0,0
-159.44,6.21,-30.25,883,-4121,7116,-2,-1,0
-159.45,6.21,-30.27,886,-4141,7103,-1,-1,0
-159.45,6.21,-30.29,871,-4159,7097,-1,-1,0
-159.46,6.21,-30.30,875,-4166,7083,-1,-1,-1
-159.45,6.21,-30.31,882,-4168,7089,-1,0,-1
-159.45,6.21,-30.30,880,-4166,7093,0,-1,-1
-159.45,6.21,-30.30,881,-4167,7102,-1,-1,-1
-159.44,6.22,-30.30,879,-4164,7093,0,-1,-1
-159.44,6.23,-30.28,899,-4159,7099,0,-1,-1
-159.44,6.23,-30.28,912,-4146,7105,0,0,-1
-159.44,6.23,-30.26,901,-4130,7117,0,0,-1
-159.44,6.23,-30.26,889,-4130,7105,-1,-1,0
-159.44,6.23,-30.26,883,-4129,7111,-1,-1,-1
-159.44,6.23,-30.26,886,-4135,7116,-1,-1,0
-159.44,6.23,-30.27,891,-4138,7115,-1,-1,-1
-159.44,6.23,-30.27,893,-4133,7109,-1,-1,-1
-159.44,6.24,-30.28,896,-4133,7101,-1,-1,-1
-159.43,6.24,-30.28,897,-4144,7099,-1,0,-1
-159.43,6.24,-30.29,897,-4151,7094,0,0,-1
-159.43,6.24,-30.29,886,-4161,7094,0,-1,-1
-159.43,6.25,-30.28,884,-4159,7083,0,-1,-1
-159.42,6.25,-30.27,894,-4161,7093,0,-1,-1
-159.41,6.27,-30.26,910,-4155,7109,0,-1,-1
-159.41,6.26,-30.24,907,-4143,7115,0,0,-1
-159.40,6.27,-30.23,907,-4131,7109,0,0,-1
-159.40,6.26,-30.22,894,-4127,7108,0,0,-1
-159.40,6.26,-30.21,888,-4130,7119,0,0,-1
-159.40,6.25,-30.21,880,-4125,7112,-1,-1,-1
-159.40,6.25,-30.21,878,-4126,7111,-1,-1,-1
-159.40,6.26,-30.22,888,-4138,7107,-1,-1,-1
-159.40,6.27,-30.23,899,-4146,7103,0,-1,-1
-159.39,6.28,-30.22,907,-4144,7112,-1,0,-1
-159.39,6.28,-30.22,909,-4140,7105,0,0,-1
-159.39,6.27,-30.22,907,-4137,7107,0,0,-1
-159.39,6.27,-30.22,900,-4138,7094,0,0,-1
-159.39,6.26,-30.20,889,-4145,7106,0,0,-1
-159.39,6.25,-30.20,888,-4140,7111,0,0,-1
-159.38,6.26,-30.20,894,-4135,7114,0,0,-1
-159.38,6.26,-30.19,895,-4132,7113,-1,-1,-1
-159.38,6.26,-30.20,897,-4140,7097,0,0,-1
-159.38,6.26,-30.19,896,-4132,7105,0,0,0
-159.38,6.25,-30.18,886,-4125,7109,0,0,-1
-159.38,6.25,-30.18,884,-4118,7109,-1,-1,-1
-159.38,6.26,-30.18,893,-4118,7108,-1,-1,-1
-159.38,6.27,-30.18,897,-4133,7107,-1,-1,-1
-159.38,6.27,-30.19,908,-4142,7107,-1,0,0
-159.38,6.26,-30.19,900,-4132,7107,0,0,0
-159.38,6.25,-30.19,894,-4135,7113,-1,0,0
-159.38,6.25,-30.18,894,-4143,7117,0,0,0
-159.39,6.24,-30.18,885,-4145,7120,0,0,0
-159.39,6.24,-30.18,875,-4139,7113,0,0,-1
-159.39,6.24,-30.17,880,-4136,7111,0,-1,-1
-159.39,6.24,-30.16,889,-4135,7112,0,-1,-1
-159.38,6.25,-30.16,896,-4132,7106,0,-1,-1
-159.38,6.25,-30.16,903,-4120,7112,0,0,-1
-159.37,6.25,-30.15,905,-4127,7115,0,0,-1
-159.37,6.25,-30.15,900,-4132,7107,-1,0,-1
-159.37,6.25,-30.16,897,-4137,7113,-1,0,-1
-159.37,6.25,-30.16,899,-4133,7122,-1,0,0
-159.37,6.24,-30.16,900,-4124,7124,-1,0,0
-159.38,6.23,-30.17,894,-4128,7102,-1,0,0
-159.38,6.23,-30.17,896,-4138,7107,-1,0,-1
-159.38,6.23,-30.17,881,-4132,7106,-1,0,0
-159.39,6.22,-30.17,873,-4127,7106,-1,0,0
-159.39,6.22,-30.18,880,-4132,7094,-1,-1,-1
-159.39,6.22,-30.18,893,-4138,7096,0,0,-1
-159.39,6.22,-30.17,897,-4145,7101,0,0,-1
-159.39,6.22,-30.17,889,-4136,7099,0,-1,-1
-159.38,6.22,-30.16,881,-4132,7101,0,-1,-1
-159.38,6.22,-30.14,893,-4133,7101,0,0,-1
-159.37,6.23,-30.14,902,-4124,7125,0,0,-1
-159.37,6.22,-30.13,901,-4123,7121,0,0,-1
-159.37,6.22,-30.13,895,-4118,7119,-1,0,0
-159.37,6.22,-30.13,883,-4121,7118,-1,0,0
-159.38,6.21,-30.13,881,-4119,7118,-1,-1,0
-159.38,6.21,-30.14,883,-4120,7129,-1,-1,-1
-159.38,6.22,-30.15,888,-4123,7120,-1,-1,0
-159.38,6.22,-30.15,890,-4135,7111,-1,0,0
-159.39,6.21,-30.16,888,-4128,7101,-1,0,0
-159.39,6.20,-30.16,877,-4126,7102,-1,0,0
-159.39,6.19,-30.18,869,-4135,7085,-1,0,0
-159.39,6.19,-30.18,862,-4149,7091,0,-1,-1
-159.39,6.20,-30.18,873,-4152,7098,0,-1,-1
-159.39,6.21,-30.18,868,-4152,7103,0,-1,-1
-159.39,6.22,-30.17,886,-4151,7098,0,-1,-1
-159.38,6.23,-30.16,905,-4140,7104,0,-1,-1
-159.37,6.23,-30.15,918,-4129,7111,0,0,-1
-159.37,6.23,-30.14,913,-4119,7116,0,0,0
-159.37,6.23,-30.14,904,-4113,7114,0,0,0
-159.38,6.22,-30.14,889,-4116,7132,-1,0,0
-159.38,6.21,-30.14,888,-4115,7140,-1,-1,-1
-159.38,6.21,-30.15,886,-4124,7129,-1,-1,0
-159.38,6.22,-30.15,887,-4132,7118,-1,-1,-1
-159.38,6.22,-30.16,893,-4128,7113,-1,-1,-1
-159.38,6.23,-30.17,898,-4127,7094,-1,-1,-1
-159.38,6.23,-30.17,900,-4136,7089,-1,0,-1
-159.38,6.23,-30.17,895,-4140,7092,0,0,-1
-159.38,6.22,-30.17,884,-4140,7104,0,0,-1
-159.39,6.22,-30.17,888,-4144,7103,0,-1,-1
-159.39,6.22,-30.16,887,-4137,7105,0,-1,0
-159.38,6.22,-30.16,889,-4126,7110,-1,-1,-1
-159.38,6.22,-30.16,891,-4120,7108,-1,-1,-1
-159.38,6.23,-30.16,893,-4122,7088,0,-1,-1
-159.38,6.23,-30.16,895,-4129,7103,0,-1,0
-159.38,6.23,-30.15,893,-4123,7113,-1,-1,0
-159.38,6.23,-30.16,884,-4128,7113,-1,-1,-1
-159.38,6.23,-30.16,876,-4131,7111,-1,-1,-1
-159.38,6.23,-30.16,878,-4131,7102,0,-1,-1
-159.38,6.23,-30.16,891,-4127,7104,0,-1,-1
-159.38,6.24,-30.16,901,-4128,7109,0,-1,0
-159.38,6.24,-30.15,899,-4118,7105,-1,0,-1
-159.38,6.24,-30.16,898,-4130,7101,-1,0,0
-159.38,6.24,-30.15,896,-4129,7116,-1,0,0
-159.38,6.23,-30.16,885,-4133,7109,-1,0,0
-159.38,6.23,-30.16,885,-4133,7098,-1,-1,-1
-159.38,6.23,-30.17,885,-4131,7105,-1,-1,-1
-159.38,6.23,-30.17,889,-4141,7108,-1,-1,-1
-159.38,6.23,-30.17,894,-4142,7103,-1,-1,-1
-159.38,6.24,-30.18,898,-4141,7105,-1,-1,-1
-159.39,6.23,-30.18,891,-4141,7102,0,-1,-1
-159.38,6.24,-30.17,896,-4130,7093,0,0,-1
-159.38,6.24,-30.17,896,-4132,7096,0,0,-1
-159.38,6.23,-30.17,894,-4133,7102,-1,0,0
-159.38,6.22,-30.16,892,-4129,7110,0,0,0
-159.38,6.22,-30.16,885,-4126,7099,0,0,0
-159.38,6.21,-30.14,885,-4125,7143,0,0,-1
-159.38,6.21,-30.13,897,-4122,7133,0,0,0
-159.38,6.21,-30.13,891,-4130,7156,-1,-1,0
-159.39,6.20,-30.15,888,-4134,7111,-1,0,0
-159.40,6.20,-30.14,898,-4114,7120,-1,-1,0
-159.41,6.18,-30.15,908,-4122,7112,0,1,0
-159.41,6.16,-30.16,867,-4129,7096,-1,0,0
-159.42,6.15,-30.17,867,-4119,7129,-2,0,0
-159.43,6.14,-30.17,898,-4125,7125,0,1,0
-159.44,6.13,-30.21,878,-4184,7114,-1,-1,0
-159.44,6.11,-30.20,879,-4149,7104,0,1,-1
-159.45,6.08,-30.21,871,-4152,7120,0,0,0
-159.45,6.07,-30.21,893,-4119,7096,-1,0,-1
-159.44,6.06,-30.22,876,-4156,7068,0,1,-1
-159.44,6.04,-30.20,855,-4142,7129,-1,-1,0
-159.44,6.03,-30.20,856,-4163,7049,2,0,-1
-159.43,6.03,-30.18,840,-4150,7135,-1,-1,-1
-159.42,6.04,-30.15,851,-4121,7123,1,0,-1
-159.42,6.06,-30.15,888,-4126,7123,-1,-1,0
-159.42,6.06,-30.15,870,-4109,7133,-1,-1,0
-159.43,6.08,-30.16,889,-4117,7103,-1,-1,-1
-159.43,6.09,-30.15,879,-4117,7148,-1,-1,0
-159.43,6.09,-30.17,875,-4123,7118,0,0,-1
-159.43,6.11,-30.18,867,-4142,7132,-2,-2,0
-159.42,6.11,-30.18,870,-4140,7108,0,0,-1
-159.42,6.12,-30.19,880,-4134,7111,-1,-1,-1
-159.42,6.14,-30.19,878,-4129,7112,-1,-1,-1
-159.43,6.14,-30.20,880,-4130,7113,-1,-1,0
-159.43,6.16,-30.21,880,-4140,7101,-1,-1,0
-159.43,6.16,-30.21,881,-4145,7104,-1,-1,0
-159.43,6.16,-30.21,887,-4151,7102,0,-1,0
-159.43,6.17,-30.21,893,-4156,7115,0,-1,0
-159.43,6.17,-30.21,886,-4148,7113,0,-1,-1
-159.43,6.17,-30.20,888,-4145,7110,0,-1,-1
-159.42,6.17,-30.19,888,-4144,7117,0,-1,-1
-159.42,6.17,-30.19,893,-4147,7108,0,-1,-1
-159.42,6.18,-30.18,888,-4132,7109,0,-1,0
-159.43,6.18,-30.17,887,-4132,7111,0,-1,0
-159.43,6.18,-30.17,888,-4134,7112,0,-1,0
-159.43,6.18,-30.17,887,-4132,7122,-1,-1,0
-159.43,6.19,-30.17,887,-4137,7122,-1,-1,0
-159.43,6.19,-30.17,881,-4135,7114,-1,-1,0
-159.43,6.19,-30.18,884,-4131,7119,-1,-1,0
-159.43,6.19,-30.18,887,-4127,7131,-1,0,0
-159.44,6.19,-30.19,887,-4126,7114,-1,-1,0
-159.45,6.18,-30.20,876,-4144,7100,-1,0,0
-159.45,6.18,-30.20,877,-4143,7114,0,-1,0
-159.45,6.18,-30.20,874,-4143,7111,0,-1,-1
-159.44,6.19,-30.19,888,-4134,7120,0,-1,-1
-159.44,6.20,-30.19,900,-4134,7107,0,-1,0
-159.44,6.21,-30.18,911,-4128,7115,0,0,0
-159.44,6.20,-30.18,901,-4126,7117,0,0,0
-159.44,6.20,-30.18,898,-4124,7115,-1,0,0
-159.45,6.20,-30.18,885,-4124,7113,-1,0,0
-159.45,6.19,-30.18,874,-4127,7110,-1,-1,0
-159.46,6.19,-30.19,871,-4135,7110,-1,-1,0
-159.46,6.20,-30.19,878,-4138,7119,-1,-1,-1
-159.46,6.20,-30.20,892,-4137,7116,-1,-1,-1
-159.45,6.22,-30.20,905,-4138,7106,-1,-1,-1
-159.45,6.22,-30.21,908,-4142,7101,0,-1,0
-159.45,6.22,-30.20,913,-4138,7110,0,0,0
-159.46,6.22,-30.20,903,-4128,7110,0,0,0
-159.46,6.21,-30.19,894,-4128,7115,0,0,0
-159.46,6.20,-30.19,888,-4131,7115,-1,0,0
-159.46,6.20,-30.20,883,-4142,7118,0,0,0
-159.47,6.19,-30.20,881,-4141,7116,0,-1,0
-159.47,6.19,-30.20,884,-4133,7105,-1,-1,0
-159.47,6.20,-30.20,893,-4130,7091,-1,-1,0
-159.47,6.20,-30.20,900,-4125,7097,-1,-1,0
-159.47,6.21,-30.21,904,-4140,7085,-1,0,0
-159.48,6.20,-30.21,909,-4151,7100,0,0,0
-159.47,6.20,-30.21,898,-4135,7104,-1,0,0
-159.47,6.20,-30.21,886,-4127,7107,-1,-1,-1
-159.47,6.20,-30.21,890,-4144,7104,-1,-1,-1
-159.46,6.20,-30.21,897,-4151,7097,0,0,-1
-159.46,6.20,-30.20,892,-4139,7111,-1,0,-1
-159.46,6.20,-30.21,894,-4137,7105,-1,0,-1
-159.46,6.20,-30.20,897,-4135,7098,0,0,-1
-159.46,6.20,-30.20,884,-4145,7099,0,0,-1
-159.46,6.20,-30.19,891,-4140,7119,0,0,-1
-159.45,6.20,-30.18,888,-4137,7119,0,0,-1
-159.45,6.20,-30.18,895,-4135,7115,0,0,-1
-159.44,6.20,-30.17,897,-4138,7115,0,-1,-1
-159.44,6.20,-30.17,888,-4141,7118,0,-1,-1
-159.44,6.20,-30.16,893,-4142,7112,0,0,0
-159.44,6.20,-30.16,895,-4132,7112,0,0,-1
-159.44,6.19,-30.16,895,-4132,7111,0,0,0
-159.44,6.19,-30.15,886,-4138,7123,-1,0,-1
-159.44,6.19,-30.16,887,-4142,7125,-1,0,0
-159.44,6.19,-30.15,893,-4130,7118,0,0,0
-159.43,6.19,-30.15,888,-4128,7117,0,0,-1
-159.44,6.19,-30.15,886,-4133,7109,0,-1,-1
-159.43,6.19,-30.15,898,-4130,7101,0,0,-1
-159.44,6.19,-30.14,888,-4133,7110,0,0,-1
-159.44,6.19,-30.14,886,-4135,7119,-1,-1,0
-159.44,6.19,-30.14,884,-4140,7104,0,0,-1
-159.43,6.19,-30.14,890,-4143,7111,0,0,-1
-159.43,6.19,-30.14,893,-4138,7113,0,0,-1
-159.43,6.18,-30.14,890,-4131,7100,-1,0,0
-159.43,6.17,-30.14,879,-4132,7104,-1,0,0
-159.43,6.17,-30.14,882,-4132,7098,0,0,-1
-159.43,6.17,-30.14,884,-4136,7113,-1,-1,-1
-159.43,6.18,-30.14,897,-4144,7118,0,0,-1
-159.43,6.18,-30.13,900,-4140,7120,0,0,0
-159.42,6.17,-30.13,898,-4131,7107,0,0,0
-159.43,6.17,-30.12,885,-4123,7104,0,0,0
-159.43,6.16,-30.13,877,-4121,7108,-1,0,0
-159.43,6.15,-30.13,871,-4127,7109,-1,0,0
-159.43,6.15,-30.13,869,-4129,7113,-1,-1,-1
-159.43,6.15,-30.14,872,-4139,7117,-1,-1,-1
-159.43,6.16,-30.14,883,-4138,7121,0,-1,-1
-159.43,6.16,-30.14,892,-4133,7111,-1,-1,0
-159.43,6.16,-30.14,893,-4139,7114,0,0,-1
-159.43,6.15,-30.13,900,-4127,7125,0,0,0
-159.43,6.15,-30.13,894,-4120,7112,0,0,0
-159.43,6.15,-30.13,880,-4116,7112,-1,0,0
-159.43,6.14,-30.12,877,-4123,7116,0,0,0
-159.44,6.13,-30.12,876,-4121,7115,0,0,0
-159.44,6.13,-30.12,872,-4126,7098,0,0,-1
-159.44,6.13,-30.12,875,-4124,7106,-1,-1,-1
-159.44,6.13,-30.12,877,-4134,7107,-1,-1,-1
-159.44,6.13,-30.12,891,-4130,7117,0,0,0
-159.43,6.13,-30.12,895,-4129,7115,-1,0,0
-159.43,6.13,-30.12,890,-4131,7120,-1,0,0
-159.43,6.12,-30.12,893,-4129,7117,-1,0,0
-159.44,6.12,-30.13,889,-4129,7119,-1,0,0
-159.44,6.11,-30.12,883,-4127,7133,0,0,0
-159.44,6.11,-30.12,876,-4131,7126,-1,0,0
-159.44,6.10,-30.12,880,-4134,7117,-1,0,0
-159.44,6.11,-30.13,879,-4132,7113,-1,0,-1
-159.44,6.11,-30.13,876,-4129,7108,-1,-1,0
-159.44,6.11,-30.13,881,-4130,7099,-1,-1,0
-159.44,6.10,-30.13,879,-4138,7102,0,0,-1
-159.44,6.10,-30.12,870,-4129,7116,0,0,0
-159.44,6.10,-30.12,865,-4126,7119,-1,-1,-1
-159.44,6.10,-30.12,868,-4129,7108,-1,-1,-1
-159.44,6.10,-30.12,869,-4134,7106,-1,-1,-1
-159.44,6.11,-30.12,879,-4131,7104,0,-1,-1
-159.43,6.11,-30.13,882,-4128,7102,-1,-1,-1
-159.43,6.12,-30.12,889,-4128,7102,-1,-1,-1
-159.43,6.12,-30.13,891,-4135,7108,-1,-1,0
-159.43,6.12,-30.13,889,-4138,7116,0,-1,0
-159.44,6.12,-30.13,881,-4135,7114,-1,-1,-1
-159.44,6.12,-30.13,876,-4133,7112,-1,-1,-1
-159.44,6.13,-30.13,874,-4136,7106,-1,-1,-1
-159.44,6.13,-30.13,875,-4132,7112,-1,-1,-1
-159.43,6.13,-30.13,883,-4137,7120,0,-1,-1
-159.43,6.14,-30.13,888,-4134,7113,0,-1,-1
-159.43,6.14,-30.13,888,-4129,7114,0,-1,-1
-159.43,6.13,-30.12,884,-4119,7121,0,0,0
-159.43,6.14,-30.12,888,-4115,7121,-1,-1,-1
-159.43,6.14,-30.12,886,-4117,7121,-1,-1,0
-159.43,6.14,-30.13,881,-4124,7108,-1,-1,0
-159.43,6.14,-30.13,879,-4129,7120,0,0,-1
-159.43,6.14,-30.13,881,-4126,7120,-1,-1,-1
-159.42,6.15,-30.13,877,-4124,7120,-1,-1,-1
-159.43,6.15,-30.13,889,-4128,7116,0,-1,-1
-159.42,6.16,-30.13,904,-4133,7118,0,-1,-1
-159.42,6.17,-30.12,910,-4129,7119,0,0,0
-159.42,6.17,-30.12,899,-4120,7111,0,0,0
-159.42,6.16,-30.12,878,-4120,7103,-1,0,0
-159.42,6.16,-30.13,883,-4131,7098,-1,0,-1
-159.42,6.16,-30.12,885,-4133,7124,0,-1,-1
-159.42,6.16,-30.12,879,-4130,7132,0,-1,-1
-159.42,6.17,-30.12,892,-4135,7124,-1,-1,-1
-159.42,6.18,-30.12,905,-4134,7122,-1,-1,-1
-159.42,6.18,-30.12,911,-4132,7106,0,-1,-1
-159.42,6.18,-30.12,911,-4126,7101,0,0,0
-159.42,6.18,-30.12,912,-4127,7103,-1,0,0
-159.42,6.18,-30.12,901,-4125,7107,-1,0,0
-159.42,6.17,-30.12,890,-4125,7115,-1,0,0
-159.42,6.17,-30.12,881,-4132,7115,-1,-1,-1
-159.42,6.18,-30.13,881,-4135,7116,-1,-1,-1
-159.42,6.18,-30.13,877,-4135,7119,0,-1,-1
-159.42,6.18,-30.13,887,-4129,7111,-1,-1,-1
-159.42,6.18,-30.13,897,-4125,7104,0,-1,0
-159.41,6.19,-30.13,902,-4128,7090,0,-1,0
-159.41,6.19,-30.13,903,-4145,7108,0,0,0
-159.41,6.19,-30.12,901,-4133,7108,0,0,0
-159.41,6.19,-30.12,891,-4125,7122,-1,-1,0
-159.42,6.19,-30.12,888,-4125,7114,-1,-1,-1
-159.42,6.19,-30.13,895,-4128,7106,-1,-1,0
-159.42,6.19,-30.13,897,-4127,7118,-1,-1,0
-159.42,6.19,-30.13,900,-4131,7121,-1,-1,0
-159.42,6.20,-30.13,902,-4124,7119,-1,-1,0
-159.42,6.20,-30.13,899,-4127,7114,-1,0,0
-159.42,6.20,-30.13,899,-4136,7128,0,0,0
-159.42,6.19,-30.13,897,-4140,7129,0,0,0
-159.42,6.20,-30.13,893,-4138,7117,-1,0,0
-159.42,6.19,-30.13,888,-4132,7118,0,-1,-1
-159.42,6.19,-30.13,890,-4126,7112,0,-1,-1
-159.42,6.19,-30.13,894,-4125,7117,0,-1,0
-159.42,6.20,-30.13,896,-4121,7124,-1,-1,0
-159.42,6.20,-30.13,901,-4118,7130,-1,-1,0
-159.42,6.20,-30.13,900,-4120,7131,-1,0,0
-159.43,6.19,-30.13,898,-4130,7122,-1,0,0
-159.43,6.19,-30.13,893,-4137,7118,-1,-1,0
-159.43,6.19,-30.13,892,-4134,7121,-1,-1,0
-159.43,6.19,-30.13,887,-4134,7125,0,-1,0
-159.43,6.20,-30.14,888,-4128,7115,-1,-1,0
-159.43,6.20,-30.13,889,-4140,7117,0,-1,-1
-159.43,6.21,-30.13,900,-4136,7137,0,-1,0
-159.43,6.20,-30.13,898,-4125,7130,0,0,0
-159.43,6.21,-30.13,897,-4129,7113,-1,-1,-1
-159.43,6.21,-30.13,895,-4134,7103,0,-1,-1
-159.43,6.21,-30.13,901,-4130,7107,0,-1,-1
-159.43,6.22,-30.12,914,-4123,7110,0,-1,0
-159.42,6.22,-30.12,921,-4112,7118,0,-1,0
-159.42,6.22,-30.12,917,-4116,7114,-1,0,0
-159.43,6.22,-30.12,901,-4117,7119,-1,0,0
-159.44,6.21,-30.13,886,-4118,7107,-1,0,0
-159.44,6.21,-30.13,877,-4124,7117,-1,-1,0
-159.44,6.21,-30.14,875,-4132,7107,-1,-1,-1
-159.44,6.22,-30.15,882,-4140,7104,-1,-1,-1
-159.44,6.23,-30.15,901,-4144,7100,0,-1,-1
-159.44,6.24,-30.15,919,-4140,7104,0,-1,-1
-159.44,6.24,-30.15,925,-4134,7107,0,0,0
-159.44,6.24,-30.14,924,-4127,7112,0,0,0
-159.44,6.24,-30.14,917,-4124,7118,0,0,0
-159.44,6.23,-30.13,896,-4124,7125,0,0,0
-159.45,6.22,-30.13,886,-4127,7117,-1,0,0
-159.45,6.21,-30.13,876,-4129,7127,-1,-1,0
-159.45,6.21,-30.14,881,-4125,7131,-1,-1,-1
-159.45,6.22,-30.15,889,-4127,7124,-1,-1,0
-159.45,6.22,-30.16,896,-4135,7110,-1,-1,0
-159.46,6.22,-30.17,898,-4133,7097,-1,-1,0
-159.46,6.22,-30.17,903,-4131,7089,-1,-1,0
-159.46,6.22,-30.18,905,-4153,7103,-1,0,0
-159.46,6.21,-30.18,897,-4152,7113,-1,0,0
-159.46,6.21,-30.18,884,-4140,7109,-1,-1,0
-159.46,6.21,-30.18,880,-4141,7100,0,-1,0
-159.47,6.22,-30.18,889,-4136,7100,-1,-1,-1
-159.47,6.22,-30.18,900,-4128,7103,-1,-1,0
-159.47,6.22,-30.18,900,-4131,7105,-1,-1,0
-159.48,6.22,-30.19,892,-4140,7106,-1,-1,0
-159.48,6.22,-30.19,891,-4142,7107,-1,0,0
-159.49,6.21,-30.19,892,-4142,7113,0,0,0
-159.49,6.21,-30.19,889,-4134,7111,-1,-1,0
-159.49,6.21,-30.19,888,-4135,7098,-1,-1,0
-159.49,6.21,-30.20,897,-4140,7098,-1,-1,0
-159.49,6.21,-30.21,902,-4136,7098,-1,-1,0
-159.50,6.21,-30.21,899,-4136,7114,-1,0,0
-159.50,6.21,-30.21,905,-4130,7107,-1,-1,0
-159.51,6.21,-30.22,904,-4139,7104,-1,0,0
-159.51,6.20,-30.23,892,-4143,7106,-1,0,0
-159.51,6.20,-30.23,880,-4144,7099,-1,0,-1
-159.51,6.19,-30.23,874,-4143,7105,0,0,-1
-159.51,6.20,-30.22,877,-4150,7104,0,-1,-1
-159.50,6.20,-30.22,882,-4151,7102,0,-1,-1
-159.49,6.20,-30.21,895,-4145,7115,0,-1,-1
-159.49,6.21,-30.21,915,-4132,7108,0,-1,-1
-159.49,6.21,-30.20,903,-4142,7119,0,0,-1
-159.48,6.21,-30.19,905,-4139,7122,0,0,-1
-159.48,6.21,-30.19,887,-4138,7119,0,-1,-1
-159.48,6.21,-30.18,887,-4135,7114,0,-1,-1
-159.47,6.22,-30.18,899,-4135,7125,0,-1,-1
-159.47,6.23,-30.17,915,-4131,7134,0,-1,-1
-159.47,6.23,-30.17,910,-4129,7132,0,0,-1
-159.46,6.22,-30.17,898,-4127,7111,-1,0,0
-159.46,6.22,-30.17,894,-4126,7117,-1,0,0
-159.47,6.20,-30.16,884,-4120,7112,0,0,-1
-159.47,6.20,-30.17,872,-4131,7118,-1,-1,-1
-159.46,6.20,-30.17,870,-4141,7112,-1,-1,-1
-159.46,6.20,-30.17,889,-4153,7111,0,-1,-1
-159.46,6.22,-30.17,908,-4150,7107,0,-1,-1
-159.45,6.22,-30.17,915,-4143,7103,0,0,-1
-159.44,6.22,-30.16,921,-4130,7103,0,0,0
-159.44,6.21,-30.15,914,-4126,7103,0,0,0
-159.44,6.20,-30.15,909,-4118,7111,0,0,0
-159.45,6.20,-30.14,890,-4117,7109,0,0,0
-159.45,6.19,-30.14,884,-4120,7119,-1,0,-1
-159.45,6.19,-30.14,884,-4131,7125,-1,-1,-1
-159.45,6.20,-30.14,889,-4130,7110,-1,-1,-1
-159.45,6.20,-30.14,898,-4121,7106,-1,-1,-1
-159.44,6.20,-30.15,900,-4131,7090,-1,-1,0
-159.44,6.20,-30.15,910,-4137,7099,0,0,-1
-159.44,6.20,-30.15,902,-4133,7103,-1,0,0
-159.44,6.18,-30.14,883,-4134,7116,-1,0,0
-159.44,6.18,-30.14,880,-4141,7116,0,0,-1
-159.44,6.18,-30.14,885,-4137,7123,-1,-1,-1
-159.44,6.18,-30.14,892,-4133,7121,0,-1,-1
-159.44,6.19,-30.14,900,-4131,7114,-1,0,-1
-159.44,6.18,-30.14,904,-4125,7101,0,0,0
-159.44,6.19,-30.14,896,-4123,7106,0,0,-1
-159.44,6.18,-30.13,894,-4121,7113,0,0,0
-159.44,6.17,-30.13,889,-4123,7115,0,0,0
-159.44,6.16,-30.13,881,-4130,7119,0,0,-1
-159.43,6.16,-30.12,882,-4122,7127,0,0,-1
-159.43,6.16,-30.13,884,-4126,7117,-1,-1,0
-159.43,6.16,-30.13,887,-4130,7115,0,0,-1
-159.43,6.16,-30.12,881,-4126,7114,0,0,-1
-159.43,6.15,-30.13,900,-4136,7105,0,0,0
-159.43,6.15,-30.12,893,-4129,7138,-1,0,0
-159.43,6.14,-30.13,891,-4133,7092,0,0,-1
-159.43,6.13,-30.13,903,-4129,7124,-1,0,0
-159.42,6.12,-30.14,891,-4139,7122,0,0,-1
-159.43,6.12,-30.14,880,-4127,7122,-1,-1,0
-159.43,6.11,-30.15,860,-4129,7112,-1,0,-1
-159.43,6.11,-30.15,892,-4138,7139,-1,-1,0
-159.42,6.11,-30.17,881,-4144,7094,0,0,-1
-159.43,6.10,-30.16,890,-4136,7171,-1,0,0
-159.44,6.10,-30.18,871,-4120,7096,-1,-1,0
-159.44,6.09,-30.17,892,-4140,7101,-1,0,0
-159.44,6.08,-30.18,897,-4154,7129,-1,0,0
-159.44,6.07,-30.18,895,-4130,7109,-1,0,0
-159.45,6.06,-30.17,867,-4142,7160,0,-1,0
-159.45,6.06,-30.21,884,-4170,7058,0,0,-1
-159.45,6.05,-30.17,866,-4145,7129,-1,-1,0
-159.45,6.05,-30.17,898,-4138,7108,0,0,0
-159.45,6.05,-30.16,874,-4125,7145,-1,-1,0
-159.45,6.03,-30.17,870,-4131,7115,0,0,0
-159.46,6.03,-30.17,849,-4104,7127,-2,-1,0
-159.46,6.02,-30.16,867,-4115,7133,0,0,-1
-159.46,6.02,-30.18,846,-4125,7106,-1,-1,0
-159.46,6.03,-30.21,855,-4168,7097,-1,-1,-1
-159.46,6.04,-30.19,855,-4148,7125,-1,-1,-1
-159.46,6.05,-30.20,878,-4150,7097,-1,-1,-1
-159.45,6.06,-30.19,872,-4145,7128,-1,-1,-1
-159.45,6.07,-30.21,895,-4158,7087,0,0,-1
-159.44,6.07,-30.20,897,-4147,7104,-1,-1,0
-159.44,6.07,-30.18,888,-4143,7136,-1,-1,0
-159.46,6.08,-30.19,876,-4141,7103,0,-1,0
-159.46,6.07,-30.18,859,-4149,7122,0,-1,-1
-159.46,6.07,-30.18,863,-4154,7130,0,-1,0
-159.46,6.09,-30.18,869,-4150,7126,0,-1,0
-159.45,6.10,-30.18,873,-4144,7121,0,-1,-1
-159.45,6.11,-30.18,879,-4138,7108,0,-1,-1
-159.45,6.11,-30.17,881,-4136,7106,0,-1,-1
-159.45,6.12,-30.16,881,-4130,7122,0,-1,-1
-159.45,6.12,-30.15,884,-4130,7122,0,-1,0
-159.45,6.12,-30.15,884,-4120,7116,0,-1,0
-159.45,6.12,-30.15,887,-4116,7113,-1,-1,0
-159.45,6.12,-30.15,883,-4125,7123,0,0,0
-159.45,6.12,-30.14,877,-4122,7130,-1,-1,0
-159.45,6.12,-30.15,870,-4120,7118,-1,-1,0
-159.45,6.13,-30.15,877,-4124,7103,-1,-1,-1
-159.45,6.13,-30.15,874,-4132,7116,-1,-1,-1
-159.45,6.14,-30.15,882,-4131,7118,-1,-1,-1
-159.45,6.14,-30.15,886,-4136,7116,0,-1,-1
-159.45,6.15,-30.15,894,-4131,7116,0,0,0
-159.45,6.15,-30.14,891,-4139,7121,0,0,0
-159.45,6.14,-30.14,888,-4133,7123,0,-1,0
-159.45,6.14,-30.14,884,-4131,7126,0,0,-1
-159.45,6.14,-30.14,880,-4124,7122,0,-1,-1
-159.45,6.14,-30.14,886,-4123,7109,0,-1,-1
-159.44,6.15,-30.13,885,-4128,7116,-1,-1,0
-159.44,6.15,-30.13,893,-4127,7120,-1,0,0
-159.44,6.15,-30.13,894,-4127,7115,-1,-1,0
-159.44,6.16,-30.13,897,-4126,7117,-1,0,-1
-159.44,6.16,-30.14,896,-4130,7115,-1,-1,0
-159.44,6.16,-30.15,886,-4132,7112,0,-1,0
-159.45,6.16,-30.15,889,-4127,7105,-1,-1,0
-159.45,6.16,-30.15,884,-4133,7103,0,0,-1
-159.45,6.16,-30.14,883,-4133,7118,-1,-1,0
-159.45,6.16,-30.15,876,-4134,7110,-1,-1,-1
-159.45,6.16,-30.15,872,-4139,7114,0,-1,-1
-159.45,6.16,-30.14,879,-4133,7109,0,-1,-1
-159.45,6.17,-30.13,894,-4126,7110,0,-1,-1
-159.44,6.18,-30.13,902,-4122,7118,0,-1,0
-159.44,6.17,-30.12,904,-4118,7108,0,0,0
-159.44,6.17,-30.12,889,-4108,7113,-1,0,0
-159.44,6.17,-30.12,878,-4108,7115,-1,0,0
-159.45,6.17,-30.12,858,-4116,7123,-1,-1,0
-159.45,6.17,-30.13,856,-4135,7110,-1,-1,-1
-159.46,6.17,-30.15,866,-4145,7104,-1,-1,-1
-159.45,6.19,-30.14,886,-4139,7113,0,-1,-1
-159.45,6.20,-30.14,904,-4133,7112,0,-1,-1
-159.44,6.20,-30.13,915,-4126,7102,0,0,0
-159.45,6.20,-30.14,916,-4122,7112,0,0,0
-159.45,6.19,-30.13,899,-4121,7121,0,0,0
-159.45,6.18,-30.12,890,-4122,7120,0,0,0
-159.45,6.17,-30.12,874,-4119,7131,0,-1,0
-159.45,6.17,-30.12,870,-4116,7128,-1,-1,0
-159.46,6.17,-30.12,878,-4124,7117,-1,-1,-1
-159.46,6.18,-30.13,882,-4125,7099,-1,-1,0
-159.46,6.18,-30.14,893,-4137,7108,-1,-1,0
-159.46,6.18,-30.14,896,-4136,7109,-1,-1,-1
-159.45,6.19,-30.14,895,-4129,7107,-1,-1,0
-159.45,6.19,-30.14,889,-4137,7101,-1,-1,0
-159.45,6.19,-30.14,885,-4139,7102,0,-1,0
-159.45,6.19,-30.14,891,-4132,7107,0,-1,0
-159.45,6.19,-30.14,896,-4135,7103,-1,-1,0
-159.45,6.19,-30.14,901,-4128,7105,-1,-1,0
-159.46,6.19,-30.15,901,-4126,7109,-1,0,0
-159.46,6.19,-30.14,901,-4125,7123,0,0,0
-159.46,6.19,-30.14,896,-4121,7112,0,0,0
-159.46,6.19,-30.14,893,-4128,7121,-1,-1,0
-159.46,6.19,-30.14,885,-4131,7122,-1,-1,0
-159.46,6.19,-30.14,894,-4126,7111,-1,-1,0
-159.46,6.19,-30.14,891,-4129,7110,-1,-1,0
-159.46,6.19,-30.15,893,-4130,7115,-1,0,0
-159.46,6.19,-30.14,897,-4128,7118,-1,0,0
-159.46,6.18,-30.15,887,-4125,7118,-1,0,0
-159.47,6.18,-30.15,885,-4124,7129,-1,-1,0
-159.47,6.18,-30.15,885,-4130,7115,-1,-1,0
-159.47,6.18,-30.16,889,-4134,7110,-1,-1,0
-159.47,6.19,-30.16,893,-4132,7112,-1,0,0
-159.48,6.18,-30.16,893,-4127,7113,0,0,0
-159.48,6.18,-30.16,898,-4125,7116,-1,-1,0
-159.48,6.19,-30.17,897,-4142,7109,-1,0,0
-159.48,6.18,-30.16,896,-4140,7126,-1,0,0
-159.49,6.17,-30.17,884,-4144,7114,-1,0,0
-159.49,6.17,-30.17,878,-4139,7108,-1,-1,-1
-159.49,6.18,-30.17,888,-4142,7110,0,-1,-1
-159.48,6.19,-30.17,901,-4142,7110,0,0,0
-159.49,6.18,-30.17,908,-4133,7115,-1,-1,0
-159.49,6.18,-30.17,905,-4127,7108,-1,0,0
-159.49,6.18,-30.18,903,-4128,7097,-1,0,0
-159.49,6.18,-30.18,887,-4132,7099,-1,0,0
-159.50,6.17,-30.19,873,-4134,7110,-1,0,0
-159.50,6.17,-30.20,871,-4140,7108,-1,-1,0
-159.50,6.17,-30.21,879,-4150,7119,-1,-1,-1
-159.51,6.18,-30.22,890,-4154,7110,-1,-1,-1
-159.51,6.19,-30.22,902,-4153,7119,0,-1,-1
-159.50,6.19,-30.22,902,-4151,7105,0,0,-1
-159.50,6.19,-30.22,910,-4146,7095,0,0,0
-159.50,6.19,-30.21,905,-4136,7102,0,0,0
-159.51,6.18,-30.20,889,-4123,7111,0,0,0
-159.51,6.18,-30.20,883,-4127,7125,-1,-1,0
-159.51,6.18,-30.20,874,-4128,7120,0,0,0
-159.52,6.17,-30.20,876,-4130,7120,-1,-1,-1
-159.52,6.17,-30.20,879,-4128,7113,-1,-1,0
-159.52,6.18,-30.20,885,-4133,7101,-1,-1,-1
-159.52,6.19,-30.21,902,-4127,7102,-1,-1,0
-159.53,6.19,-30.22,911,-4143,7108,-1,-1,0
-159.52,6.20,-30.22,907,-4144,7116,-1,0,0
-159.53,6.19,-30.22,896,-4143,7114,-1,0,-1
-159.53,6.19,-30.23,893,-4141,7106,-1,-1,-1
-159.53,6.19,-30.24,891,-4142,7091,-1,-1,-1
-159.53,6.19,-30.24,898,-4142,7091,0,0,-1
-159.53,6.19,-30.23,904,-4141,7100,0,0,-1
-159.52,6.19,-30.23,904,-4140,7098,0,0,-1
-159.52,6.19,-30.23,904,-4150,7103,0,0,-1
-159.51,6.18,-30.21,903,-4149,7122,0,0,-1
-159.51,6.18,-30.20,885,-4147,7120,0,0,-1
-159.51,6.17,-30.21,885,-4142,7110,0,0,-1
-159.50,6.17,-30.19,880,-4143,7118,0,-1,-1
-159.50,6.18,-30.19,894,-4131,7116,0,0,-1
-159.49,6.19,-30.19,904,-4123,7111,0,0,-1
-159.48,6.19,-30.18,906,-4116,7116,-1,0,-1
-159.48,6.19,-30.18,911,-4131,7115,0,0,-1
-159.48,6.17,-30.17,899,-4119,7128,-1,0,-1
-159.48,6.17,-30.18,881,-4131,7111,0,-1,-1
-159.48,6.17,-30.18,892,-4135,7134,-1,0,-1
-159.48,6.16,-30.18,869,-4137,7076,1,0,-1
-159.48,6.16,-30.17,874,-4137,7142,-1,-1,0
-159.48,6.16,-30.19,885,-4123,7118,-1,0,0
-159.49,6.16,-30.20,872,-4143,7090,-1,-1,0
-159.48,6.16,-30.19,895,-4133,7114,-1,0,0
-159.49,6.16,-30.21,906,-4128,7119,-2,-1,0
-159.49,6.16,-30.22,888,-4143,7064,1,0,-1
-159.49,6.15,-30.21,894,-4105,7152,-3,-1,0
-159.51,6.15,-30.26,884,-4170,7024,2,1,-1
-159.49,6.14,-30.23,881,-4142,7107,-2,-1,0
-159.49,6.13,-30.23,889,-4143,7109,1,0,-1
-159.49,6.14,-30.23,894,-4145,7117,-1,-1,0
-159.48,6.15,-30.22,908,-4146,7128,1,0,-1
-159.49,6.15,-30.24,903,-4154,7080,-1,0,-1
-159.48,6.13,-30.21,884,-4123,7133,-1,-1,0
-159.49,6.12,-30.22,900,-4145,7088,1,1,-1
-159.49,6.11,-30.22,846,-4147,7110,-1,-1,0
-159.49,6.11,-30.22,876,-4147,7124,-1,-1,-1
-159.48,6.11,-30.22,870,-4164,7095,1,0,-1
-159.48,6.12,-30.21,879,-4151,7129,-1,-1,-1
-159.48,6.12,-30.21,886,-4152,7092,0,0,-1
-159.47,6.13,-30.21,877,-4135,7088,-1,-1,-1
-159.47,6.13,-30.21,902,-4137,7121,0,0,-1
-159.46,6.12,-30.21,893,-4134,7102,0,0,-1
-159.47,6.11,-30.21,886,-4142,7094,0,0,0
-159.46,6.11,-30.18,874,-4141,7116,0,0,-1
-159.47,6.10,-30.18,870,-4117,7119,-1,0,0
-159.47,6.10,-30.19,870,-4118,7115,-2,-1,0
-159.46,6.10,-30.19,869,-4147,7122,0,0,-1
-159.47,6.10,-30.20,881,-4138,7103,-1,-1,0
-159.47,6.11,-30.19,899,-4119,7106,-1,0,0
-159.47,6.10,-30.19,891,-4136,7146,0,-1,0
-159.47,6.11,-30.21,912,-4158,7090,-1,0,-1
-159.46,6.09,-30.20,889,-4140,7108,0,0,-1
-159.47,6.09,-30.20,873,-4142,7113,-1,-1,0
-159.47,6.08,-30.20,873,-4144,7115,0,0,-1
-159.47,6.09,-30.20,886,-4146,7121,-1,-1,0
-159.47,6.09,-30.20,884,-4133,7122,-1,-1,0
-159.47,6.09,-30.21,886,-4145,7103,0,0,-1
-159.47,6.09,-30.22,875,-4150,7084,0,-1,-1
-159.47,6.09,-30.22,874,-4157,7097,0,-1,-1
-159.47,6.10,-30.22,884,-4147,7090,0,0,0
-159.46,6.09,-30.20,878,-4133,7105,0,0,-1
-159.47,6.10,-30.21,870,-4144,7107,-1,-1,0
-159.47,6.10,-30.20,869,-4145,7108,0,0,-1
-159.47,6.11,-30.19,878,-4138,7110,0,-1,-1
-159.47,6.10,-30.19,871,-4127,7101,0,-1,-1
-159.46,6.11,-30.19,872,-4127,7097,-1,-1,-1
-159.46,6.12,-30.19,892,-4132,7097,0,-1,-1
-159.46,6.13,-30.19,890,-4134,7109,0,-1,-1
-159.46,6.13,-30.19,889,-4138,7112,-1,-1,-1
-159.46,6.13,-30.19,880,-4141,7107,0,0,-1
-159.46,6.13,-30.19,876,-4141,7097,0,0,-1
-159.45,6.12,-30.18,874,-4147,7105,0,-1,-1
-159.45,6.12,-30.18,874,-4144,7101,0,-1,0
-159.46,6.13,-30.18,878,-4140,7097,0,-1,-1
-159.45,6.14,-30.17,879,-4137,7105,0,-1,-1
-159.45,6.14,-30.17,891,-4130,7114,0,-1,-1
-159.45,6.14,-30.16,891,-4119,7122,0,-1,-1
-159.45,6.15,-30.15,890,-4119,7129,0,-1,0
-159.45,6.15,-30.14,890,-4119,7122,0,0,0
-159.45,6.15,-30.14,889,-4114,7118,-1,0,0
-159.45,6.14,-30.15,885,-4118,7118,-1,-1,0
-159.45,6.15,-30.16,884,-4137,7099,0,-1,-1
-159.45,6.15,-30.15,884,-4134,7129,-1,-1,-1
-159.45,6.17,-30.15,895,-4135,7129,0,-1,-1
-159.45,6.17,-30.16,900,-4143,7116,-1,-1,0
-159.45,6.17,-30.16,903,-4143,7102,0,0,0
-159.45,6.17,-30.16,895,-4136,7099,0,0,-1
-159.45,6.16,-30.15,890,-4127,7100,0,0,-1
-159.45,6.16,-30.15,878,-4122,7100,0,0,0
-159.45,6.16,-30.15,873,-4133,7115,-1,-1,-1
-159.45,6.17,-30.15,880,-4139,7108,0,-1,-1
-159.45,6.17,-30.15,885,-4138,7121,-1,-1,-1
-159.44,6.19,-30.15,899,-4140,7120,0,-1,-1
-159.44,6.19,-30.15,907,-4132,7105,0,-1,-1
-159.44,6.19,-30.15,910,-4128,7100,-1,0,0
-159.44,6.19,-30.15,909,-4122,7110,0,0,0
-159.44,6.18,-30.14,904,-4126,7112,0,0,0
-159.44,6.18,-30.14,883,-4131,7115,0,0,-1
-159.44,6.18,-30.14,881,-4131,7121,-1,-1,0
-159.44,6.18,-30.14,884,-4126,7121,-1,-1,-1
-159.45,6.18,-30.14,880,-4127,7109,-1,-1,0
-159.45,6.19,-30.15,879,-4143,7111,0,-1,-1
-159.45,6.20,-30.14,899,-4134,7112,0,-1,-1
-159.45,6.20,-30.14,899,-4131,7113,0,-1,-1
-159.44,6.20,-30.14,905,-4131,7112,0,0,-1
-159.44,6.20,-30.14,895,-4132,7116,0,-1,-1
-159.44,6.20,-30.14,895,-4132,7124,0,-1,-1
-159.44,6.21,-30.14,895,-4130,7132,0,-1,0
-159.45,6.21,-30.14,896,-4128,7123,-1,-1,0
-159.45,6.21,-30.14,906,-4128,7117,-1,-1,0
-159.45,6.21,-30.14,911,-4132,7116,0,0,-1
-159.45,6.21,-30.14,913,-4131,7117,-1,0,0
-159.45,6.21,-30.14,906,-4122,7122,0,0,0
-159.45,6.21,-30.14,903,-4129,7114,0,0,-1
-159.45,6.21,-30.14,900,-4132,7114,0,-1,-1
-159.45,6.21,-30.13,901,-4131,7121,0,-1,-1
-159.45,6.22,-30.13,900,-4133,7117,0,-1,-1
-159.45,6.22,-30.13,900,-4130,7112,-1,0,-1
-159.45,6.22,-30.13,902,-4121,7119,-1,0,0
-159.45,6.22,-30.13,899,-4127,7108,0,0,-1
-159.45,6.21,-30.13,896,-4135,7120,-1,0,-1
-159.45,6.21,-30.13,890,-4130,7117,-1,0,0
-159.45,6.21,-30.14,893,-4127,7111,-1,-1,0
-159.45,6.21,-30.14,888,-4132,7115,-1,0,0
-159.45,6.22,-30.15,896,-4141,7097,-1,0,-1
-159.45,6.21,-30.15,891,-4144,7113,0,0,-1
-159.45,6.22,-30.15,893,-4132,7121,-1,-1,0
-159.45,6.22,-30.15,889,-4131,7115,-1,-1,0
-159.45,6.21,-30.15,895,-4132,7094,0,0,-1
-159.45,6.21,-30.15,893,-4134,7096,0,-1,-1
-159.45,6.22,-30.14,907,-4138,7100,0,-1,-1
-159.44,6.23,-30.14,915,-4134,7111,0,0,-1
-159.44,6.23,-30.13,924,-4127,7124,0,0,0
-159.44,6.23,-30.13,916,-4122,7130,0,0,0
-159.45,6.22,-30.13,903,-4117,7132,-1,0,0
-159.45,6.21,-30.14,888,-4121,7120,-1,0,0
-159.46,6.21,-30.15,871,-4129,7109,-1,-1,-1
-159.45,6.22,-30.16,874,-4138,7116,-1,-1,-1
-159.45,6.22,-30.17,884,-4143,7119,-1,-1,-1
-159.45,6.23,-30.17,894,-4146,7107,-1,-1,-1
-159.45,6.24,-30.17,906,-4156,7109,0,-1,-1
-159.45,6.25,-30.17,921,-4153,7100,0,0,-1
-159.45,6.24,-30.16,919,-4146,7107,0,0,0
-159.45,6.24,-30.16,926,-4139,7111,0,0,0
-159.45,6.23,-30.14,905,-4128,7115,0,0,0
-159.45,6.23,-30.14,898,-4120,7128,-1,0,0
-159.46,6.22,-30.14,889,-4125,7124,0,0,-1
-159.46,6.23,-30.15,891,-4129,7118,-1,-1,0
-159.46,6.23,-30.15,885,-4134,7105,-1,-1,-1
-159.46,6.23,-30.16,894,-4137,7118,-1,-1,-1
-159.46,6.23,-30.17,881,-4134,7108,-1,-1,0
-159.46,6.24,-30.17,895,-4138,7097,-1,-1,0
-159.46,6.24,-30.18,899,-4151,7091,-1,-1,-1
-159.46,6.24,-30.19,902,-4150,7094,-1,-1,0
-159.46,6.24,-30.19,901,-4145,7102,0,-1,0
-159.47,6.24,-30.19,901,-4142,7095,0,-1,0
-159.47,6.24,-30.19,898,-4143,7097,-1,-1,0
-159.47,6.24,-30.19,901,-4139,7092,0,0,0
-159.47,6.24,-30.19,897,-4132,7100,-1,-1,0
-159.48,6.24,-30.19,888,-4131,7113,-1,-1,0
-159.48,6.24,-30.19,890,-4135,7117,0,-1,-1
-159.48,6.25,-30.19,897,-4142,7121,0,-1,-1
-159.47,6.25,-30.18,905,-4136,7118,0,0,-1
-159.48,6.24,-30.18,905,-4133,7126,-1,0,0
-159.48,6.24,-30.18,899,-4133,7124,-1,0,0
-159.48,6.25,-30.19,902,-4139,7115,-1,0,0
-159.48,6.24,-30.19,894,-4142,7112,-1,0,0
-159.49,6.23,-30.20,892,-4139,7113,-1,0,0
-159.49,6.23,-30.20,893,-4140,7116,-1,0,-1
-159.49,6.23,-30.20,892,-4142,7121,-1,0,0
-159.49,6.23,-30.21,904,-4137,7116,-1,-1,0
-159.49,6.24,-30.22,906,-4138,7113,0,0,-1
-159.49,6.24,-30.22,901,-4133,7108,-1,-1,0
-159.50,6.23,-30.22,902,-4151,7113,0,0,-1
-159.50,6.22,-30.22,902,-4145,7105,0,0,-1
-159.49,6.22,-30.21,883,-4139,7099,0,0,-1
-159.49,6.22,-30.21,883,-4145,7104,0,-1,-1
-159.49,6.23,-30.20,904,-4144,7113,0,-1,-1
-159.48,6.23,-30.19,916,-4137,7111,0,-1,-1
-159.48,6.24,-30.18,922,-4134,7108,0,0,-1
-159.48,6.24,-30.17,914,-4125,7101,0,0,0
-159.47,6.23,-30.17,908,-4127,7098,0,0,0
-159.47,6.23,-30.17,897,-4128,7105,0,0,0
-159.47,6.22,-30.17,888,-4127,7118,-1,0,-1
-159.47,6.22,-30.17,883,-4140,7120,-1,-1,-1
-159.47,6.23,-30.17,896,-4145,7120,-1,-1,-1
-159.46,6.24,-30.18,911,-4154,7106,0,-1,-1
-159.46,6.24,-30.18,921,-4146,7102,0,0,-1
-159.45,6.25,-30.18,931,-4140,7101,0,0,-1
-159.45,6.25,-30.17,933,-4143,7094,0,0,0
-159.45,6.24,-30.16,928,-4136,7099,0,0,0
-159.45,6.24,-30.16,907,-4135,7102,0,0,0
-159.45,6.23,-30.15,900,-4136,7110,0,0,-1
-159.45,6.22,-30.15,889,-4132,7118,-1,0,-1
-159.45,6.22,-30.15,885,-4127,7109,-1,-1,-1
-159.45,6.23,-30.15,895,-4130,7095,-1,-1,-1
-159.45,6.23,-30.15,900,-4137,7103,0,0,-1
-159.44,6.24,-30.15,906,-4134,7103,0,0,-1
-159.44,6.23,-30.14,902,-4127,7106,-1,0,-1
-159.45,6.23,-30.15,901,-4128,7094,-1,0,-1
-159.44,6.23,-30.16,896,-4142,7105,0,0,-1
-159.44,6.23,-30.15,896,-4142,7107,0,0,-1
-159.44,6.23,-30.15,893,-4146,7115,0,0,-1
-159.44,6.23,-30.15,898,-4138,7115,0,0,-1
-159.44,6.23,-30.15,907,-4145,7114,0,0,-1
-159.44,6.22,-30.15,900,-4126,7115,0,0,-1
-159.44,6.21,-30.15,897,-4124,7116,0,0,0
-159.44,6.20,-30.14,888,-4126,7112,0,0,-1
-159.44,6.20,-30.14,890,-4127,7126,0,0,-1
-159.43,6.21,-30.14,893,-4133,7116,0,0,-1
-159.43,6.20,-30.13,894,-4130,7121,0,0,-1
-159.43,6.20,-30.13,892,-4134,7115,-1,0,-1
-159.43,6.19,-30.13,888,-4124,7113,0,0,-1
-159.43,6.19,-30.14,889,-4127,7107,0,0,-1
-159.42,6.19,-30.13,892,-4120,7119,-1,0,-1
-159.42,6.19,-30.13,895,-4130,7111,0,0,-1
-159.42,6.18,-30.13,891,-4121,7122,-1,0,-1
-159.42,6.18,-30.14,890,-4142,7106,0,0,-1
-159.42,6.17,-30.12,891,-4133,7142,-1,0,-1
-159.42,6.16,-30.13,893,-4136,7100,0,0,-1
-159.41,6.16,-30.12,892,-4135,7136,0,0,-1
-159.41,6.17,-30.12,892,-4128,7088,0,-1,-1
-159.40,6.15,-30.12,894,-4128,7108,-1,0,-1
-159.41,6.15,-30.12,896,-4150,7111,0,0,-1
-159.41,6.15,-30.12,899,-4129,7096,-1,0,-1
-159.40,6.13,-30.10,900,-4135,7152,0,0,0
-159.41,6.12,-30.12,883,-4132,7071,-1,0,0
-159.41,6.10,-30.10,879,-4122,7158,-1,0,-1
-159.42,6.10,-30.11,865,-4128,7097,0,0,0
-159.41,6.09,-30.11,876,-4114,7130,-2,0,-1
-159.42,6.10,-30.12,884,-4126,7132,-1,-1,0
-159.42,6.11,-30.13,892,-4150,7103,0,0,-1
-159.42,6.11,-30.14,879,-4148,7086,-1,-1,0
-159.42,6.11,-30.13,894,-4142,7121,0,0,-1
-159.42,6.11,-30.13,884,-4139,7112,0,0,0
-159.42,6.11,-30.13,881,-4113,7136,-1,-1,0
-159.42,6.10,-30.14,878,-4157,7109,0,0,-1
-159.42,6.09,-30.12,885,-4131,7153,-1,0,0
-159.42,6.08,-30.12,849,-4134,7127,0,0,-1
-159.42,6.09,-30.13,860,-4103,7120,-2,-1,0
-159.42,6.08,-30.14,858,-4146,7065,1,0,-1
-159.41,6.09,-30.13,874,-4147,7129,-2,-2,0
-159.41,6.10,-30.14,883,-4155,7065,1,0,-1
-159.40,6.09,-30.11,883,-4121,7124,-1,-1,-1
-159.39,6.10,-30.11,911,-4147,7085,0,0,-1
-159.39,6.08,-30.09,881,-4118,7089,0,0,-1
-159.38,6.07,-30.07,893,-4112,7147,0,0,0
-159.39,6.05,-30.08,866,-4099,7125,-1,0,0
-159.39,6.05,-30.08,866,-4132,7123,-1,0,-1
-159.39,6.04,-30.08,857,-4121,7107,0,0,-1
-159.39,6.03,-30.09,854,-4153,7079,0,0,-1
-159.38,6.03,-30.06,876,-4113,7158,-2,-1,0
-159.38,6.02,-30.06,857,-4130,7108,1,0,-1
-159.38,6.02,-30.05,857,-4087,7151,-2,-1,0
-159.39,6.03,-30.07,875,-4126,7117,0,0,0
-159.39,6.03,-30.09,875,-4134,7100,-2,-1,0
-159.39,6.03,-30.10,884,-4137,7115,-2,-1,0
-159.40,6.02,-30.09,851,-4129,7112,0,0,-1
-159.41,6.02,-30.11,861,-4137,7098,-1,0,0
-159.41,6.02,-30.11,852,-4124,7127,-1,-1,0
-159.41,6.02,-30.13,850,-4149,7108,-1,0,-1
-159.41,6.02,-30.12,881,-4138,7134,-1,-1,0
-159.41,6.03,-30.13,869,-4165,7106,1,0,-1
-159.41,6.03,-30.13,869,-4134,7094,-1,-1,0
-159.41,6.03,-30.12,882,-4139,7119,-1,-1,-1
-159.41,6.02,-30.12,872,-4168,7092,2,1,-1
-159.41,6.02,-30.11,873,-4129,7097,-1,0,0
-159.41,6.00,-30.08,836,-4120,7155,0,-1,-1
-159.41,6.02,-30.10,883,-4106,7120,-1,-1,0
-159.41,6.02,-30.10,885,-4121,7137,-1,-1,0
-159.42,6.02,-30.10,847,-4132,7117,0,-1,-1
-159.42,6.03,-30.11,875,-4127,7117,-1,0,0
-159.42,6.03,-30.11,874,-4115,7106,0,0,-1
-159.42,6.03,-30.12,868,-4124,7114,-1,-1,0
-159.42,6.03,-30.12,878,-4147,7107,0,0,-1
-159.42,6.03,-30.12,865,-4156,7131,0,-1,-1
-159.42,6.03,-30.12,860,-4135,7124,0,0,-1
-159.42,6.03,-30.12,864,-4121,7122,-1,-1,0
-159.43,6.04,-30.12,866,-4122,7117,-1,-1,0
-159.43,6.04,-30.12,858,-4131,7111,0,-1,-1
-159.42,6.04,-30.12,869,-4128,7118,0,-1,0
-159.42,6.04,-30.12,872,-4136,7110,0,-1,-1
-159.42,6.04,-30.12,877,-4131,7115,-1,0,0
-159.42,6.04,-30.12,874,-4133,7123,0,0,0
-159.43,6.04,-30.12,873,-4126,7103,-1,0,0
-159.43,6.04,-30.12,866,-4127,7124,-1,0,-1
-159.43,6.04,-30.13,875,-4138,7112,-1,-1,0
-159.42,6.05,-30.12,873,-4145,7115,0,-1,-1
-159.42,6.05,-30.13,891,-4138,7106,-1,-1,-1
-159.42,6.05,-30.12,887,-4132,7104,0,0,-1
-159.43,6.04,-30.12,868,-4124,7111,0,0,0
-159.43,6.03,-30.12,858,-4119,7105,-1,0,0
-159.43,6.03,-30.12,852,-4111,7119,-1,0,-1
-159.43,6.02,-30.12,855,-4109,7114,-1,-1,-1
-159.43,6.03,-30.12,851,-4123,7126,-1,-1,-1
-159.43,6.04,-30.14,869,-4139,7107,-1,-1,-1
-159.43,6.05,-30.14,883,-4154,7113,0,-1,-1
-159.42,6.06,-30.14,896,-4140,7112,-1,-1,-1
-159.42,6.06,-30.14,886,-4121,7107,-1,0,0
-159.42,6.06,-30.15,881,-4124,7096,-1,0,0
-159.43,6.05,-30.15,875,-4138,7100,0,0,0
-159.43,6.05,-30.15,863,-4140,7111,0,0,0
-159.43,6.05,-30.15,861,-4142,7117,0,-1,-1
-159.43,6.05,-30.15,860,-4141,7118,0,-1,-1
-159.43,6.06,-30.15,866,-4137,7104,0,-1,-1
-159.43,6.05,-30.14,863,-4138,7111,0,-1,-1
-159.43,6.06,-30.14,865,-4138,7110,0,-1,-1
-159.43,6.07,-30.14,873,-4132,7116,0,-1,-1
-159.43,6.07,-30.14,875,-4126,7123,0,-1,-1
-159.43,6.07,-30.14,875,-4116,7120,-1,-1,-1
-159.43,6.07,-30.14,881,-4122,7112,-1,-1,0
-159.43,6.08,-30.15,879,-4123,7107,-1,-1,0
-159.43,6.07,-30.15,887,-4129,7104,-1,0,0
-159.43,6.07,-30.15,884,-4132,7108,-1,0,0
-159.43,6.07,-30.16,868,-4135,7105,-1,0,-1
-159.43,6.07,-30.16,875,-4133,7102,-1,-1,-1
-159.43,6.07,-30.16,872,-4137,7111,-1,-1,-1
-159.43,6.08,-30.17,878,-4142,7100,0,-1,-1
-159.43,6.08,-30.17,873,-4139,7104,-1,-1,0
-159.43,6.08,-30.17,875,-4150,7106,0,0,-1
-159.43,6.08,-30.17,886,-4145,7133,0,-1,-1
-159.43,6.08,-30.17,882,-4135,7110,0,-1,0
-159.44,6.09,-30.17,884,-4133,7112,-1,-1,-1
-159.44,6.09,-30.17,888,-4132,7110,0,0,0
-159.44,6.09,-30.17,885,-4123,7104,-1,0,0
-159.44,6.09,-30.17,884,-4127,7106,-1,-1,0
-159.44,6.10,-30.17,877,-4135,7109,-1,-1,0
-159.44,6.10,-30.18,879,-4139,7109,-1,-1,0
-159.44,6.10,-30.18,872,-4136,7104,-1,-1,0
-159.44,6.10,-30.19,875,-4135,7106,-1,-1,0
-159.44,6.10,-30.19,878,-4150,7104,-1,-1,0
-159.44,6.10,-30.19,876,-4144,7109,0,-1,-1
-159.45,6.10,-30.19,884,-4138,7114,0,-1,0
-159.45,6.10,-30.19,888,-4141,7105,0,0,0
-159.45,6.10,-30.19,891,-4144,7097,-1,0,0
-159.45,6.10,-30.19,875,-4141,7100,0,-1,0
-159.45,6.11,-30.19,879,-4137,7105,0,-1,0
-159.45,6.11,-30.19,889,-4139,7124,0,-1,0
-159.45,6.12,-30.18,891,-4147,7117,-1,-1,0
-159.45,6.12,-30.19,890,-4145,7114,-1,-1,0
-159.46,6.12,-30.19,881,-4143,7099,-1,0,0
-159.46,6.11,-30.20,880,-4133,7089,-1,-1,0
-159.46,6.12,-30.21,869,-4133,7093,-1,-1,-1
-159.47,6.11,-30.21,869,-4136,7099,-1,-1,0
-159.47,6.12,-30.22,873,-4153,7102,0,-1,-1
-159.46,6.13,-30.22,892,-4150,7108,0,-1,-1
-159.46,6.14,-30.22,884,-4149,7113,0,-1,-1
-159.46,6.15,-30.22,892,-4153,7107,0,-1,-1
-159.46,6.16,-30.22,898,-4146,7106,0,-1,-1
-159.46,6.15,-30.21,900,-4140,7108,0,0,0
-159.46,6.15,-30.20,898,-4137,7115,0,0,0
-159.46,6.15,-30.20,889,-4134,7112,0,0,0
-159.46,6.14,-30.20,878,-4138,7125,0,0,0
-159.46,6.14,-30.20,883,-4131,7134,-1,-1,-1
-159.46,6.14,-30.20,884,-4136,7127,-1,0,-1
-159.46,6.14,-30.20,886,-4138,7115,-1,0,-1
-159.46,6.14,-30.20,885,-4135,7112,0,0,-1
-159.46,6.14,-30.20,896,-4143,7115,-1,0,-1
-159.46,6.13,-30.20,893,-4142,7118,-1,0,-1
-159.45,6.14,-30.20,889,-4142,7109,-1,0,-1
-159.46,6.13,-30.21,882,-4152,7101,-1,0,-1
-159.46,6.13,-30.21,880,-4155,7092,0,0,-1
-159.46,6.13,-30.21,881,-4149,7103,0,0,-1
-159.45,6.12,-30.20,881,-4148,7115,0,0,-1
-159.45,6.12,-30.20,889,-4148,7106,0,0,-1
-159.45,6.12,-30.20,883,-4148,7105,0,0,-1
-159.45,6.12,-30.20,881,-4140,7109,-1,0,-1
-159.45,6.12,-30.19,883,-4135,7120,0,0,-1
-159.45,6.12,-30.19,888,-4130,7115,0,0,0
-159.44,6.12,-30.18,874,-4142,7116,0,0,-1
-159.44,6.11,-30.18,882,-4136,7117,0,0,-1
-159.44,6.11,-30.18,881,-4129,7110,0,0,-1
-159.44,6.11,-30.18,875,-4125,7106,-1,-1,-1
-159.44,6.11,-30.17,882,-4121,7105,0,0,-1
-159.44,6.11,-30.18,879,-4131,7103,0,0,-1
-159.44,6.11,-30.17,885,-4138,7119,-1,-1,-1
-159.44,6.11,-30.18,885,-4141,7117,0,-1,0
-159.44,6.11,-30.18,883,-4139,7108,-1,0,0
-159.44,6.11,-30.18,883,-4152,7110,0,0,-1
-159.44,6.12,-30.18,885,-4142,7109,0,0,0
-159.44,6.11,-30.17,889,-4141,7116,0,0,-1
-159.44,6.11,-30.17,885,-4141,7115,0,0,-1
-159.43,6.11,-30.16,880,-4133,7119,0,0,-1
-159.43,6.11,-30.16,884,-4133,7122,0,0,-1
-159.43,6.11,-30.15,887,-4132,7118,0,0,-1
-159.43,6.10,-30.15,876,-4122,7112,0,0,-1
-159.43,6.09,-30.14,869,-4119,7123,-1,0,0
-159.43,6.09,-30.15,868,-4124,7122,-1,0,-1
-159.44,6.08,-30.15,868,-4130,7111,-1,0,0
-159.43,6.08,-30.15,863,-4131,7108,-1,-1,-1
-159.43,6.08,-30.16,873,-4139,7090,-1,-1,-1
-159.43,6.09,-30.16,881,-4152,7108,0,0,-1
-159.43,6.09,-30.15,894,-4148,7119,0,0,0
-159.43,6.09,-30.15,890,-4133,7121,0,0,0
-159.43,6.08,-30.15,882,-4131,7100,-1,0,0
-159.43,6.07,-30.15,876,-4126,7099,0,0,-1
-159.43,6.07,-30.15,856,-4119,7100,-1,0,-1
-159.44,6.06,-30.15,856,-4118,7100,-1,0,-1
-159.43,6.07,-30.15,864,-4124,7101,-1,-1,-1
-159.43,6.07,-30.15,874,-4140,7112,0,-1,-1
-159.43,6.08,-30.15,886,-4143,7125,0,0,-1
-159.42,6.08,-30.15,898,-4138,7123,-1,0,0
-159.43,6.08,-30.15,893,-4131,7113,-1,0,0
-159.43,6.07,-30.15,893,-4131,7092,0,0,0
-159.43,6.07,-30.15,885,-4135,7110,0,0,0
-159.44,6.06,-30.14,877,-4131,7111,0,0,0
-159.44,6.05,-30.14,865,-4135,7117,-1,0,0
-159.44,6.05,-30.14,863,-4137,7127,-1,0,-1
-159.44,6.05,-30.14,864,-4139,7130,-1,0,-1
-159.44,6.05,-30.15,867,-4133,7116,0,0,-1
-159.44,6.05,-30.14,867,-4126,7111,-1,0,0
-159.44,6.05,-30.15,875,-4141,7104,0,0,-1
-159.44,6.05,-30.14,883,-4138,7116,0,0,-1
-159.44,6.05,-30.14,873,-4133,7112,-1,0,0
-159.44,6.04,-30.14,858,-4133,7110,-1,-1,0
-159.45,6.04,-30.15,855,-4139,7105,0,-1,0
-159.45,6.04,-30.15,861,-4138,7123,0,-1,0
-159.45,6.04,-30.15,872,-4144,7119,-1,-1,-1
-159.45,6.04,-30.15,875,-4137,7122,0,-1,0
-159.45,6.04,-30.15,874,-4137,7104,0,0,-1
-159.45,6.04,-30.14,872,-4136,7109,0,0,-1
-159.45,6.04,-30.14,868,-4132,7116,-1,-1,-1
-159.45,6.04,-30.14,863,-4136,7106,0,0,-1
-159.44,6.05,-30.14,866,-4136,7104,0,0,-1
-159.44,6.05,-30.14,864,-4133,7115,0,-1,-1
-159.44,6.05,-30.14,873,-4134,7108,-1,-1,-1
-159.44,6.05,-30.15,872,-4130,7108,-1,-1,-1
-159.44,6.05,-30.15,873,-4135,7102,0,-1,-1
-159.44,6.05,-30.15,872,-4130,7104,-1,-1,-1
-159.44,6.05,-30.15,874,-4122,7109,-1,-1,-1
-159.44,6.05,-30.16,874,-4127,7098,-1,-1,0
-159.44,6.06,-30.16,872,-4150,7094,0,0,-1
-159.44,6.06,-30.16,869,-4144,7107,0,-1,-1
-159.44,6.06,-30.15,863,-4135,7109,0,0,-1
-159.44,6.06,-30.15,867,-4132,7109,0,-1,-1
-159.43,6.07,-30.15,876,-4132,7108,0,-1,-1
-159.43,6.07,-30.14,880,-4131,7102,0,0,-1
-159.43,6.07,-30.14,891,-4134,7115,0,-1,-1
-159.42,6.08,-30.13,887,-4131,7109,0,-1,0
-159.42,6.08,-30.13,888,-4134,7110,0,0,-1
-159.42,6.08,-30.13,885,-4139,7119,0,0,-1
-159.42,6.08,-30.13,880,-4132,7125,-1,0,0
-159.43,6.08,-30.14,874,-4131,7116,-1,-1,0
-159.43,6.08,-30.14,882,-4133,7103,-1,-1,-1
-159.43,6.08,-30.15,876,-4137,7102,-1,0,0
-159.43,6.08,-30.15,875,-4136,7101,-1,0,-1
-159.43,6.08,-30.16,875,-4142,7098,0,-1,-1
-159.43,6.09,-30.16,879,-4151,7096,0,-1,-1
-159.43,6.09,-30.15,884,-4143,7110,0,-1,-1
-159.43,6.09,-30.15,889,-4134,7107,0,0,0
-159.43,6.09,-30.14,884,-4127,7108,0,0,0
-159.43,6.09,-30.15,882,-4129,7096,0,0,0
-159.43,6.08,-30.14,871,-4126,7121,0,0,0
-159.43,6.08,-30.14,855,-4118,7124,-1,0,-1
-159.43,6.08,-30.14,849,-4125,7127,-1,-1,-1
-159.43,6.09,-30.15,864,-4138,7116,-1,-1,-1
-159.42,6.10,-30.15,882,-4143,7110,-1,-1,-1
-159.42,6.10,-30.15,896,-4133,7111,-1,-1,-1
-159.42,6.11,-30.15,908,-4136,7112,-1,0,-1
-159.42,6.10,-30.16,909,-4132,7106,0,0,0
-159.42,6.10,-30.15,893,-4135,7108,0,0,0
-159.42,6.10,-30.15,883,-4130,7116,0,0,0
-159.43,6.09,-30.15,867,-4130,7123,0,0,0
-159.43,6.09,-30.15,860,-4137,7115,-1,-1,-1
-159.43,6.09,-30.15,868,-4133,7117,-1,-1,-1
-159.43,6.09,-30.15,873,-4137,7104,0,-1,-1
-159.43,6.09,-30.15,880,-4140,7105,0,0,-1
-159.43,6.09,-30.14,884,-4132,7105,0,0,-1
-159.42,6.09,-30.14,890,-4129,7101,0,0,-1
-159.42,6.09,-30.14,886,-4129,7116,-1,0,0
-159.42,6.08,-30.14,883,-4129,7111,0,0,-1
-159.42,6.08,-30.14,895,-4125,7102,-1,0,0
-159.42,6.06,-30.14,876,-4150,7093,0,1,-1
-159.43,6.04,-30.12,854,-4111,7200,-1,-2,0
-159.44,6.08,-30.15,896,-4145,7098,0,-1,-1
-159.42,6.07,-30.14,886,-4145,7097,0,0,-1
-159.43,6.06,-30.13,866,-4112,7098,-1,-1,0
-159.44,6.07,-30.13,895,-4104,7101,0,-1,0
-159.44,6.07,-30.14,888,-4124,7127,-2,-1,0
-159.44,6.06,-30.15,867,-4170,7147,0,0,-1
-159.45,6.07,-30.16,876,-4163,7108,-1,-1,-1
-159.44,6.06,-30.14,865,-4146,7122,0,0,-1
-159.44,6.07,-30.14,879,-4128,7110,-1,-1,-1
-159.43,6.07,-30.15,885,-4132,7118,-1,-1,-1
-159.44,6.07,-30.15,874,-4136,7085,0,-1,0
-159.44,6.08,-30.15,890,-4139,7096,0,0,0
-159.44,6.07,-30.14,892,-4133,7137,-1,0,0
-159.44,6.06,-30.15,873,-4131,7106,-1,0,0
-159.44,6.06,-30.15,862,-4138,7104,-1,0,-1
-159.44,6.06,-30.14,861,-4137,7127,0,0,-1
-159.44,6.06,-30.15,864,-4132,7126,-1,-1,-1
-159.44,6.06,-30.15,863,-4122,7127,-1,-1,-1
-159.44,6.07,-30.16,866,-4124,7107,-1,-1,0
-159.44,6.08,-30.17,881,-4152,7092,-1,-1,0
-159.44,6.08,-30.18,888,-4152,7104,-1,-1,-1
-159.44,6.08,-30.17,881,-4147,7126,-1,0,0
-159.45,6.08,-30.18,865,-4142,7109,-1,-1,0
-159.45,6.08,-30.18,858,-4140,7103,-1,-1,-1
-159.44,6.08,-30.18,871,-4146,7107,0,-1,-1
-159.44,6.08,-30.18,888,-4147,7118,0,-1,-1
-159.44,6.09,-30.18,889,-4141,7118,0,-1,-1
-159.44,6.09,-30.17,891,-4134,7119,0,0,0
-159.44,6.09,-30.17,890,-4128,7121,0,0,0
-159.44,6.08,-30.17,882,-4120,7129,-1,0,0
-159.45,6.07,-30.18,861,-4123,7115,-1,0,0
-159.45,6.07,-30.18,856,-4124,7109,-1,-1,0
-159.46,6.07,-30.18,858,-4132,7111,-1,-1,-1
-159.45,6.08,-30.19,871,-4143,7125,-1,-1,-1
-159.45,6.09,-30.20,884,-4151,7119,-1,-1,-1
-159.45,6.10,-30.20,898,-4148,7118,-1,-1,-1
-159.44,6.11,-30.19,899,-4136,7110,0,0,0
-159.44,6.11,-30.19,899,-4128,7112,0,0,0
-159.45,6.10,-30.19,890,-4123,7101,-1,0,0
-159.46,6.10,-30.20,881,-4129,7107,0,0,0
-159.47,6.09,-30.20,871,-4138,7116,-1,-1,0
-159.46,6.09,-30.20,869,-4155,7109,0,-1,-1
-159.47,6.09,-30.20,873,-4149,7125,-1,-1,0
-159.47,6.10,-30.21,868,-4142,7113,-1,-1,-1
-159.47,6.11,-30.21,878,-4144,7105,-1,-1,-1
-159.46,6.12,-30.21,894,-4145,7097,0,-1,-1
-159.46,6.12,-30.21,893,-4142,7096,0,0,-1
-159.46,6.13,-30.21,897,-4149,7103,-1,-1,0
-159.46,6.13,-30.21,894,-4147,7106,0,0,0
-159.46,6.13,-30.20,883,-4142,7108,0,-1,0
-159.46,6.13,-30.20,884,-4143,7117,-1,-1,0
-159.47,6.13,-30.21,883,-4144,7109,-1,-1,0
-159.47,6.13,-30.22,882,-4145,7099,-1,-1,-1
-159.47,6.13,-30.22,892,-4137,7110,-1,0,0
-159.47,6.14,-30.23,894,-4143,7103,-1,0,0
-159.47,6.14,-30.23,892,-4149,7111,0,0,0
-159.47,6.13,-30.23,884,-4150,7119,0,0,-1
-159.47,6.12,-30.22,887,-4151,7118,0,0,-1
-159.47,6.12,-30.22,887,-4142,7122,0,0,-1
