Yaw,Pitch,Roll,AX,AY,AZ,GX,GY,GZ
-159.69,6.38,-30.54,920,-4176,7085,-1,-1,0
-159.69,6.37,-30.54,911,-4173,7073,-1,0,0
-159.69,6.37,-30.55,900,-4173,7076,-1,-1,0
-159.69,6.38,-30.54,899,-4184,7075,-1,-1,-1
-159.70,6.37,-30.55,909,-4191,7078,-1,-1,-1
-159.69,6.39,-30.55,926,-4193,7089,0,-1,-1
-159.69,6.40,-30.55,933,-4184,7088,0,-1,-1
-159.69,6.40,-30.54,942,-4173,7084,0,0,0
-159.69,6.39,-30.53,938,-4165,7096,-1,0,0
-159.69,6.39,-30.54,937,-4163,7076,0,0,0
-159.69,6.38,-30.54,924,-4156,7078,-1,0,0
-159.69,6.37,-30.53,923,-4175,7085,0,0,0
-159.69,6.37,-30.53,922,-4187,7101,0,0,0
-159.69,6.37,-30.53,915,-4181,7104,0,-1,-1
-159.69,6.37,-30.53,903,-4174,7100,-1,-1,-1
-159.69,6.38,-30.53,906,-4167,7076,0,-1,-1
-159.68,6.38,-30.53,913,-4171,7076,0,-1,-1
-159.68,6.39,-30.52,922,-4173,7072,0,0,-1
-159.67,6.39,-30.52,929,-4179,7072,0,0,-1
-159.67,6.39,-30.51,930,-4171,7085,0,0,0
-159.67,6.38,-30.51,928,-4181,7095,0,0,0
-159.67,6.38,-30.50,921,-4167,7104,0,0,0
-159.67,6.37,-30.49,914,-4164,7098,-1,0,0
-159.67,6.37,-30.49,911,-4167,7089,0,-1,-1
-159.67,6.37,-30.49,913,-4165,7090,0,0,-1
-159.67,6.37,-30.48,912,-4175,7091,0,0,0
-159.67,6.36,-30.49,920,-4172,7090,0,0,0
-159.67,6.36,-30.49,912,-4173,7087,0,0,0
-159.67,6.36,-30.49,912,-4180,7087,-1,0,0
-159.67,6.36,-30.49,916,-4179,7085,0,0,0
-159.67,6.36,-30.49,918,-4167,7086,-1,0,-1
-159.67,6.35,-30.48,918,-4164,7085,0,0,-1
-159.67,6.35,-30.48,910,-4162,7086,-1,0,0
-159.67,6.34,-30.48,907,-4176,7089,0,0,-1
-159.67,6.34,-30.48,912,-4171,7107,0,0,-1
-159.66,6.34,-30.47,902,-4160,7101,0,0,-1
-159.66,6.34,-30.47,912,-4160,7090,-1,-1,-1
-159.66,6.35,-30.47,910,-4166,7079,0,-1,-1
-159.66,6.34,-30.47,916,-4166,7088,0,0,-1
-159.65,6.35,-30.47,916,-4167,7084,-1,0,0
-159.65,6.35,-30.47,918,-4168,7074,0,0,0
-159.66,6.34,-30.47,919,-4169,7076,0,0,-1
-159.66,6.33,-30.46,915,-4179,7088,0,0,-1
-159.65,6.33,-30.46,905,-4173,7079,0,0,-1
-159.65,6.32,-30.45,906,-4160,7070,0,0,-1
-159.64,6.31,-30.44,899,-4163,7090,0,0,-1
-159.63,6.31,-30.43,908,-4147,7115,-1,-1,0
-159.63,6.31,-30.44,917,-4178,7082,0,0,-1
-159.63,6.30,-30.43,926,-4165,7134,-1,0,0
-159.64,6.29,-30.44,916,-4156,7117,-1,0,0
-159.64,6.28,-30.45,898,-4161,7065,-1,0,-1
-159.63,6.27,-30.46,888,-4168,7068,-1,0,-1
-159.63,6.27,-30.46,891,-4177,7050,0,0,0
-159.63,6.26,-30.44,903,-4178,7091,-1,-1,0
-159.64,6.27,-30.44,911,-4167,7102,0,-1,0
-159.65,6.27,-30.44,893,-4169,7084,0,-1,0
-159.65,6.27,-30.45,896,-4174,7105,-1,-1,0
-159.65,6.28,-30.45,908,-4180,7062,0,0,-1
-159.65,6.28,-30.43,916,-4152,7064,0,0,0
-159.66,6.27,-30.43,904,-4145,7076,0,0,0
-159.66,6.27,-30.43,900,-4153,7078,0,0,0
-159.66,6.27,-30.42,904,-4161,7080,0,0,0
-159.66,6.26,-30.41,894,-4163,7106,0,0,0
-159.67,6.26,-30.42,881,-4158,7116,-1,-1,0
-159.67,6.25,-30.42,875,-4154,7098,-1,-1,0
-159.67,6.26,-30.42,883,-4156,7101,-1,-1,0
-159.67,6.26,-30.43,888,-4163,7096,-1,-1,0
-159.67,6.26,-30.43,897,-4168,7088,-1,-1,0
-159.67,6.26,-30.44,901,-4165,7095,-1,-1,0
-159.67,6.26,-30.44,908,-4169,7101,-1,0,0
-159.67,6.26,-30.44,915,-4160,7101,-1,0,0
-159.67,6.26,-30.44,898,-4156,7091,-1,-1,0
-159.68,6.26,-30.44,895,-4172,7082,-1,-1,0
-159.68,6.26,-30.44,903,-4172,7088,0,-1,-1
-159.68,6.27,-30.43,901,-4160,7092,0,-1,-1
-159.67,6.28,-30.43,897,-4160,7096,-1,-1,0
-159.67,6.28,-30.43,895,-4165,7088,0,-1,-1
-159.67,6.28,-30.43,905,-4176,7092,0,-1,-1
-159.67,6.29,-30.43,911,-4170,7099,0,-1,-1
-159.67,6.29,-30.42,906,-4153,7103,-1,-1,0
-159.67,6.29,-30.42,903,-4153,7094,-1,0,0
-159.67,6.28,-30.43,896,-4161,7098,-1,-1,0
-159.67,6.28,-30.43,895,-4161,7100,-1,-1,0
-159.67,6.28,-30.43,901,-4160,7102,-1,-1,0
-159.67,6.29,-30.43,909,-4156,7101,-1,-1,-1
-159.67,6.30,-30.44,911,-4169,7106,-1,-1,0
-159.67,6.30,-30.44,920,-4180,7106,-1,-1,-1
-159.67,6.30,-30.44,914,-4167,7097,0,-1,0
-159.67,6.30,-30.43,905,-4155,7098,0,0,-1
-159.67,6.30,-30.43,899,-4154,7098,-1,0,0
-159.67,6.30,-30.43,901,-4160,7096,0,-1,0
-159.67,6.30,-30.43,907,-4163,7090,-1,-1,0
-159.68,6.29,-30.43,895,-4177,7083,0,-1,-1
-159.67,6.30,-30.43,896,-4173,7087,0,-1,-1
-159.67,6.31,-30.42,906,-4167,7091,0,-1,-1
-159.66,6.31,-30.42,927,-4160,7080,0,-1,-1
-159.66,6.32,-30.41,929,-4166,7086,0,-1,0
-159.66,6.33,-30.40,928,-4158,7085,0,0,-1
-159.66,6.32,-30.40,915,-4138,7097,-1,0,0
-159.66,6.31,-30.40,918,-4138,7096,-1,0,0
-159.67,6.30,-30.41,907,-4152,7107,-1,0,0
-159.67,6.31,-30.41,892,-4164,7097,-1,-1,-1
-159.67,6.31,-30.41,889,-4158,7104,-1,-1,-1
-159.67,6.31,-30.43,887,-4162,7099,-1,-1,-1
-159.67,6.31,-30.43,902,-4164,7095,-1,-1,-1
-159.67,6.33,-30.43,925,-4170,7090,0,-1,-1
-159.67,6.34,-30.43,926,-4173,7092,0,0,-1
-159.67,6.33,-30.43,930,-4165,7077,0,0,0
-159.67,6.32,-30.42,919,-4158,7083,0,0,0
-159.67,6.32,-30.41,907,-4156,7093,0,0,0
-159.67,6.31,-30.41,897,-4152,7090,-1,0,0
-159.68,6.31,-30.41,894,-4152,7092,0,-1,0
-159.68,6.31,-30.41,887,-4150,7102,-1,-1,0
-159.68,6.32,-30.41,907,-4171,7079,0,-1,0
-159.67,6.32,-30.41,916,-4168,7100,0,-1,-1
-159.67,6.33,-30.41,909,-4157,7091,-1,-1,0
-159.68,6.32,-30.42,907,-4157,7084,-1,-1,-1
-159.67,6.32,-30.42,901,-4159,7079,0,0,-1
-159.67,6.32,-30.42,911,-4163,7091,-1,0,-1
-159.67,6.32,-30.41,912,-4152,7103,-1,0,0
-159.67,6.32,-30.42,916,-4158,7094,-1,-1,0
-159.67,6.32,-30.42,916,-4168,7096,0,0,0
-159.68,6.32,-30.42,912,-4163,7102,-1,-1,0
-159.68,6.32,-30.43,916,-4164,7095,0,-1,0
-159.69,6.32,-30.43,914,-4170,7090,0,0,0
-159.69,6.32,-30.42,911,-4159,7092,0,0,0
-159.69,6.32,-30.42,907,-4156,7084,0,-1,-1
-159.69,6.32,-30.42,918,-4162,7087,-1,-1,-1
-159.68,6.32,-30.41,923,-4166,7096,0,0,-1
-159.68,6.32,-30.41,911,-4162,7099,-1,-1,0
-159.68,6.32,-30.42,911,-4165,7091,-1,-1,0
-159.69,6.33,-30.43,914,-4165,7086,-1,-1,0
-159.69,6.33,-30.43,913,-4165,7090,-1,-1,0
-159.69,6.33,-30.43,919,-4162,7100,-1,-1,0
-159.69,6.33,-30.43,915,-4155,7094,-1,0,-1
-159.69,6.33,-30.43,907,-4156,7082,-1,-1,0
-159.69,6.33,-30.44,905,-4172,7083,0,0,-1
-159.69,6.33,-30.43,906,-4176,7089,0,-1,0
-159.69,6.33,-30.43,897,-4168,7104,-1,-1,-1
-159.69,6.34,-30.44,900,-4171,7082,0,-1,0
-159.69,6.34,-30.43,906,-4168,7087,0,-1,0
-159.69,6.35,-30.43,908,-4167,7093,-1,-1,0
-159.69,6.35,-30.44,914,-4181,7075,0,-1,0
-159.69,6.35,-30.44,913,-4172,7078,0,-1,0
-159.69,6.35,-30.43,919,-4161,7093,-1,-1,0
-159.69,6.35,-30.43,911,-4161,7098,-1,0,0
-159.70,6.34,-30.43,893,-4158,7086,-1,0,0
-159.71,6.33,-30.44,886,-4167,7082,-1,-1,0
-159.70,6.34,-30.43,895,-4163,7100,0,-1,-1
-159.70,6.34,-30.43,908,-4162,7093,0,-1,-1
-159.70,6.35,-30.43,920,-4162,7107,-1,-1,0
-159.70,6.35,-30.43,928,-4157,7094,-1,0,0
-159.70,6.35,-30.44,923,-4161,7085,-1,0,0
-159.71,6.34,-30.44,909,-4159,7083,-1,0,0
-159.71,6.34,-30.44,896,-4161,7083,-1,-1,0
-159.71,6.34,-30.45,892,-4172,7091,-1,-1,0
-159.71,6.34,-30.45,901,-4176,7102,-1,-1,-1
-159.71,6.34,-30.44,915,-4177,7111,-1,-1,-1
-159.71,6.36,-30.45,933,-4175,7092,-1,-1,-1
-159.71,6.36,-30.45,934,-4173,7089,-1,-1,0
-159.71,6.37,-30.46,937,-4174,7075,0,-1,0
-159.71,6.36,-30.45,934,-4170,7088,0,0,0
-159.71,6.36,-30.45,919,-4163,7087,-1,0,0
-159.72,6.36,-30.45,909,-4162,7081,-1,-1,0
-159.72,6.36,-30.45,907,-4169,7092,-1,-1,0
-159.72,6.37,-30.45,920,-4165,7095,0,-1,-1
-159.71,6.38,-30.45,923,-4159,7097,-1,-1,-1
-159.71,6.38,-30.45,922,-4158,7085,-1,-1,0
-159.71,6.38,-30.45,926,-4162,7080,0,-1,-1
-159.71,6.38,-30.45,923,-4165,7090,0,-1,-1
-159.71,6.38,-30.45,918,-4164,7094,-1,0,0
-159.71,6.38,-30.45,907,-4165,7095,-1,0,0
-159.71,6.38,-30.45,911,-4167,7088,-1,-1,0
-159.72,6.38,-30.45,911,-4164,7082,-1,-1,0
-159.72,6.39,-30.45,924,-4166,7085,-1,-1,-1
-159.72,6.39,-30.45,928,-4165,7089,-1,-1,0
-159.72,6.40,-30.46,928,-4167,7085,-1,-1,0
-159.72,6.40,-30.46,925,-4164,7074,-1,-1,0
-159.72,6.40,-30.46,923,-4164,7077,-1,-1,0
-159.72,6.40,-30.46,918,-4175,7085,0,0,0
-159.72,6.39,-30.46,914,-4173,7092,0,-1,0
-159.72,6.40,-30.45,918,-4166,7090,0,-1,0
-159.72,6.40,-30.45,925,-4173,7093,0,-1,0
-159.72,6.40,-30.46,930,-4170,7090,-1,0,0
-159.72,6.40,-30.45,927,-4163,7090,-1,0,-1
-159.71,6.39,-30.45,928,-4155,7080,0,0,0
-159.71,6.38,-30.45,926,-4165,7087,0,0,0
-159.71,6.38,-30.45,923,-4169,7100,0,0,0
-159.72,6.37,-30.45,911,-4166,7098,-1,0,-1
-159.72,6.36,-30.45,908,-4165,7086,-1,-1,-1
-159.71,6.37,-30.46,906,-4166,7083,-1,-1,-1
-159.71,6.37,-30.46,909,-4173,7079,0,0,-1
-159.70,6.37,-30.46,915,-4179,7080,-1,-1,-1
-159.70,6.37,-30.45,927,-4174,7071,0,0,-1
-159.70,6.37,-30.45,929,-4178,7083,0,0,-1
-159.70,6.37,-30.44,933,-4172,7091,0,0,0
-159.70,6.36,-30.44,916,-4169,7084,0,0,0
-159.70,6.35,-30.43,910,-4166,7097,0,0,-1
-159.70,6.35,-30.42,917,-4171,7108,0,-1,-1
-159.69,6.36,-30.42,923,-4171,7107,0,-1,-1
-159.69,6.36,-30.41,925,-4163,7104,0,0,-1
-159.69,6.35,-30.42,926,-4156,7095,-1,0,0
-159.69,6.35,-30.42,921,-4147,7084,-1,0,0
-159.70,6.33,-30.43,903,-4159,7079,-1,0,0
-159.69,6.33,-30.43,895,-4167,7087,-1,0,0
-159.69,6.33,-30.43,898,-4168,7088,-1,-1,-1
-159.69,6.33,-30.43,905,-4172,7085,-1,-1,-1
-159.69,6.33,-30.43,919,-4170,7082,-1,-1,-1
-159.68,6.34,-30.43,922,-4180,7085,0,-1,-1
-159.68,6.34,-30.42,925,-4174,7088,0,0,-1
-159.68,6.33,-30.41,925,-4165,7097,0,0,0
-159.68,6.33,-30.40,909,-4158,7103,0,0,0
-159.68,6.32,-30.40,905,-4160,7107,0,0,-1
-159.68,6.32,-30.39,901,-4155,7103,0,0,-1
-159.68,6.32,-30.39,911,-4153,7106,-1,0,-1
-159.68,6.31,-30.39,906,-4164,7106,-1,0,0
-159.68,6.31,-30.39,902,-4155,7096,-1,0,-1
-159.68,6.31,-30.40,901,-4155,7087,-1,0,-1
-159.67,6.31,-30.39,905,-4154,7088,-1,0,-1
-159.67,6.31,-30.40,909,-4162,7093,0,0,0
-159.68,6.31,-30.40,913,-4166,7093,-1,0,0
-159.67,6.30,-30.39,909,-4164,7100,-1,0,-1
-159.67,6.29,-30.39,907,-4164,7092,0,0,-1
-159.67,6.29,-30.39,909,-4160,7101,0,0,0
-159.67,6.29,-30.39,911,-4159,7098,-1,0,0
-159.68,6.28,-30.39,903,-4162,7085,0,0,0
-159.68,6.27,-30.39,903,-4160,7098,-1,0,0
-159.67,6.27,-30.38,907,-4156,7106,0,0,0
-159.67,6.27,-30.38,902,-4152,7091,-1,0,0
-159.67,6.26,-30.38,902,-4166,7096,0,0,-1
-159.67,6.26,-30.38,913,-4168,7099,0,0,-1
-159.67,6.26,-30.38,905,-4156,7092,0,0,-1
-159.67,6.25,-30.37,900,-4156,7091,-1,0,-1
-159.67,6.25,-30.37,902,-4156,7088,-1,0,-1
-159.67,6.25,-30.37,903,-4159,7092,0,0,0
-159.67,6.25,-30.37,901,-4163,7101,0,0,0
-159.67,6.25,-30.37,899,-4160,7097,-1,0,0
-159.67,6.24,-30.37,905,-4161,7100,-1,0,0
-159.67,6.24,-30.37,904,-4166,7102,0,0,0
-159.67,6.24,-30.37,897,-4153,7090,-1,0,0
-159.67,6.24,-30.37,893,-4149,7086,-1,0,0
-159.67,6.23,-30.37,896,-4152,7089,-1,0,-1
-159.67,6.23,-30.38,893,-4165,7092,-1,0,-1
-159.67,6.23,-30.38,897,-4166,7088,-1,-1,0
-159.67,6.23,-30.38,892,-4171,7079,0,-1,-1
-159.67,6.23,-30.38,900,-4167,7086,0,-1,0
-159.67,6.24,-30.37,910,-4158,7094,0,-1,-1
-159.67,6.24,-30.37,902,-4152,7100,0,0,0
-159.67,6.23,-30.37,899,-4152,7100,0,0,0
-159.67,6.23,-30.37,895,-4148,7116,-1,0,0
-159.68,6.23,-30.37,880,-4143,7108,-1,0,0
-159.68,6.22,-30.37,873,-4145,7101,-1,-1,0
-159.68,6.23,-30.38,878,-4162,7094,-1,-1,-1
-159.68,6.24,-30.39,893,-4169,7097,-1,-1,-1
-159.68,6.26,-30.39,906,-4177,7105,-1,-1,-1
-159.67,6.26,-30.39,919,-4179,7103,0,-1,0
-159.67,6.27,-30.39,931,-4182,7093,0,-1,-1
-159.67,6.27,-30.38,924,-4178,7082,0,0,0
-159.67,6.27,-30.38,915,-4163,7081,0,0,0
-159.67,6.26,-30.38,908,-4153,7091,0,0,0
-159.67,6.26,-30.37,900,-4154,7103,0,-1,0
-159.67,6.26,-30.37,890,-4153,7105,-1,-1,-1
-159.67,6.26,-30.37,897,-4155,7106,-1,-1,-1
-159.67,6.27,-30.38,901,-4154,7100,-1,-1,-1
-159.67,6.27,-30.38,907,-4153,7097,-1,-1,-1
-159.67,6.27,-30.38,908,-4159,7097,0,0,0
-159.67,6.27,-30.38,913,-4157,7101,-1,0,0
-159.67,6.27,-30.38,904,-4155,7098,-1,0,0
-159.67,6.28,-30.39,904,-4169,7083,-1,0,0
-159.67,6.27,-30.39,908,-4178,7102,0,-1,0
-159.67,6.28,-30.39,902,-4170,7100,0,-1,-1
-159.67,6.28,-30.39,899,-4166,7108,-1,-1,-1
-159.67,6.28,-30.39,906,-4164,7094,-1,-1,-1
-159.67,6.28,-30.39,914,-4160,7087,-1,-1,-1
-159.67,6.29,-30.39,917,-4157,7084,0,0,-1
-159.67,6.29,-30.39,919,-4151,7089,0,0,0
-159.67,6.29,-30.38,909,-4148,7088,0,0,0
-159.67,6.29,-30.38,907,-4164,7093,0,-1,0
-159.67,6.29,-30.38,909,-4161,7107,-1,-1,0
-159.67,6.29,-30.38,903,-4154,7101,-1,-1,-1
-159.67,6.29,-30.38,900,-4147,7093,-1,-1,0
-159.67,6.29,-30.38,906,-4142,7091,-1,-1,0
-159.67,6.29,-30.38,910,-4155,7083,-1,-1,0
-159.67,6.30,-30.39,914,-4157,7089,-1,0,0
-159.67,6.29,-30.39,908,-4160,7101,-1,-1,0
-159.67,6.29,-30.39,909,-4165,7089,0,0,0
-159.67,6.29,-30.39,907,-4160,7095,-1,0,0
-159.67,6.29,-30.39,906,-4155,7089,-1,0,-1
-159.67,6.29,-30.39,908,-4159,7089,-1,-1,0
-159.67,6.29,-30.39,905,-4170,7073,0,0,-1
-159.67,6.29,-30.39,911,-4178,7100,0,0,-1
-159.67,6.29,-30.39,914,-4166,7096,0,-1,0
-159.67,6.29,-30.39,901,-4156,7101,-1,-1,0
-159.67,6.29,-30.39,912,-4154,7099,-1,-1,0
-159.67,6.30,-30.38,921,-4152,7095,0,0,-1
-159.66,6.30,-30.38,922,-4144,7112,-1,0,0
-159.67,6.29,-30.38,907,-4142,7102,-1,0,0
-159.67,6.29,-30.39,907,-4150,7101,-1,-1,0
-159.67,6.29,-30.39,906,-4161,7078,0,-1,-1
-159.67,6.30,-30.39,915,-4160,7090,-1,-1,-1
-159.67,6.31,-30.39,910,-4156,7092,-1,-1,0
-159.68,6.30,-30.39,910,-4151,7085,0,0,0
-159.68,6.30,-30.39,908,-4147,7088,-1,0,0
-159.68,6.30,-30.39,907,-4150,7083,0,0,0
-159.68,6.29,-30.39,901,-4146,7087,-1,-1,0
-159.68,6.29,-30.39,902,-4156,7086,-1,-1,0
-159.68,6.30,-30.40,899,-4171,7088,-1,-1,-1
-159.68,6.30,-30.40,895,-4179,7092,0,-1,-1
-159.68,6.31,-30.39,901,-4162,7088,0,-1,-1
-159.67,6.31,-30.39,912,-4150,7098,-1,-1,0
-159.68,6.32,-30.38,916,-4151,7091,0,-1,0
-159.68,6.32,-30.39,921,-4157,7069,0,-1,0
-159.68,6.31,-30.38,912,-4160,7076,0,0,0
-159.68,6.31,-30.37,905,-4142,7098,0,0,0
-159.69,6.30,-30.37,886,-4143,7105,-1,-1,0
-159.69,6.31,-30.38,883,-4153,7098,-1,-1,0
-159.69,6.30,-30.38,889,-4163,7092,-1,-1,-1
-159.69,6.31,-30.38,901,-4159,7093,-1,-1,-1
-159.69,6.32,-30.38,920,-4160,7102,-1,-1,-1
-159.69,6.33,-30.39,922,-4161,7088,0,0,0
-159.69,6.32,-30.39,915,-4170,7086,0,0,0
-159.69,6.32,-30.38,914,-4166,7098,-1,0,0
-159.69,6.32,-30.39,906,-4165,7095,-1,0,0
-159.69,6.31,-30.39,903,-4161,7101,-1,-1,0
-159.69,6.32,-30.39,906,-4165,7098,-1,-1,0
-159.70,6.32,-30.40,909,-4162,7097,-1,-1,0
-159.70,6.32,-30.40,914,-4161,7088,-1,-1,0
-159.70,6.32,-30.40,915,-4155,7083,-1,0,0
-159.70,6.32,-30.40,913,-4159,7084,-1,0,0
-159.70,6.32,-30.40,909,-4153,7081,0,0,0
-159.71,6.31,-30.40,907,-4159,7104,0,-1,0
-159.70,6.32,-30.40,908,-4157,7104,0,-1,0
-159.70,6.32,-30.40,910,-4160,7096,-1,-1,0
-159.71,6.32,-30.41,906,-4162,7092,-1,-1,0
-159.71,6.33,-30.41,914,-4164,7072,-1,-1,0
-159.71,6.33,-30.41,914,-4157,7076,-1,-1,0
-159.72,6.32,-30.41,920,-4165,7078,0,0,0
-159.72,6.33,-30.41,918,-4161,7097,-1,-1,0
-159.72,6.33,-30.41,912,-4158,7094,0,0,0
-159.72,6.33,-30.41,904,-4156,7079,-1,-1,0
-159.72,6.33,-30.41,900,-4153,7078,0,-1,0
-159.73,6.33,-30.41,916,-4150,7082,-1,-1,0
-159.73,6.33,-30.42,915,-4153,7084,-1,-1,0
-159.73,6.34,-30.42,922,-4163,7085,-1,-1,0
-159.73,6.34,-30.42,921,-4173,7098,0,0,0
-159.73,6.33,-30.42,924,-4166,7094,0,0,0
-159.73,6.33,-30.42,920,-4161,7096,-1,-1,0
-159.74,6.33,-30.42,918,-4161,7084,-1,0,0
-159.74,6.33,-30.42,914,-4160,7101,-1,0,0
-159.74,6.33,-30.42,915,-4158,7094,-1,0,0
-159.74,6.33,-30.43,910,-4159,7085,-1,0,0
-159.74,6.32,-30.43,909,-4158,7088,-1,-1,0
-159.74,6.32,-30.43,911,-4170,7074,-1,-1,0
-159.74,6.33,-30.43,914,-4171,7087,0,-1,0
-159.74,6.33,-30.43,921,-4168,7096,0,-1,0
-159.74,6.33,-30.43,931,-4165,7092,0,0,0
-159.74,6.33,-30.43,922,-4150,7095,-1,0,0
-159.74,6.32,-30.43,908,-4156,7083,0,0,-1
-159.74,6.31,-30.42,901,-4158,7070,-1,0,-1
-159.73,6.31,-30.41,892,-4152,7080,0,0,-1
-159.73,6.31,-30.41,893,-4153,7096,0,-1,-1
-159.73,6.31,-30.41,901,-4168,7104,0,-1,-1
-159.72,6.32,-30.40,910,-4162,7099,0,-1,-1
-159.72,6.33,-30.40,908,-4161,7099,0,-1,-1
-159.71,6.34,-30.40,924,-4161,7070,0,-1,-1
-159.71,6.34,-30.39,928,-4160,7078,0,0,-1
-159.71,6.34,-30.39,931,-4159,7078,0,0,0
-159.71,6.33,-30.39,921,-4163,7078,-1,0,0
-159.71,6.33,-30.38,912,-4161,7100,0,0,0
-159.71,6.33,-30.37,905,-4161,7109,0,0,0
-159.71,6.32,-30.37,900,-4160,7130,0,-1,-1
-159.71,6.32,-30.37,898,-4157,7117,-1,-1,0
-159.71,6.33,-30.37,901,-4156,7097,0,-1,-1
-159.71,6.32,-30.37,914,-4163,7091,0,-1,-1
-159.70,6.33,-30.37,916,-4166,7083,0,0,-1
-159.70,6.33,-30.37,920,-4164,7084,0,0,0
-159.70,6.33,-30.37,921,-4159,7094,0,0,0
-159.70,6.32,-30.36,919,-4158,7096,0,0,0
-159.70,6.32,-30.35,919,-4156,7103,0,0,0
-159.70,6.32,-30.35,917,-4161,7106,0,0,-1
-159.70,6.32,-30.35,922,-4146,7099,-1,-1,0
-159.70,6.32,-30.35,915,-4146,7096,-1,0,-1
-159.70,6.32,-30.35,916,-4151,7083,-1,-1,0
-159.70,6.31,-30.35,909,-4165,7102,0,0,-1
-159.70,6.31,-30.35,908,-4157,7105,0,0,0
-159.70,6.31,-30.34,902,-4145,7104,-1,0,0
-159.70,6.30,-30.34,901,-4149,7093,0,0,0
-159.70,6.30,-30.34,900,-4157,7091,-1,0,-1
-159.70,6.30,-30.34,905,-4151,7101,-1,0,0
-159.70,6.30,-30.34,912,-4160,7098,0,0,-1
-159.70,6.30,-30.34,909,-4158,7094,0,0,0
-159.70,6.30,-30.34,910,-4160,7101,0,0,0
-159.69,6.30,-30.33,915,-4149,7121,-1,0,0
-159.69,6.29,-30.33,912,-4156,7109,-1,0,0
-159.70,6.28,-30.34,902,-4159,7099,-1,0,0
-159.70,6.28,-30.34,899,-4158,7109,0,0,0
-159.70,6.28,-30.34,902,-4160,7104,0,0,-1
-159.70,6.28,-30.33,903,-4156,7095,0,0,-1
-159.70,6.28,-30.33,910,-4155,7095,0,0,0
-159.70,6.27,-30.32,911,-4157,7105,0,0,0
-159.70,6.27,-30.32,912,-4156,7094,0,0,0
-159.70,6.26,-30.33,902,-4142,7098,-1,0,0
-159.69,6.26,-30.32,904,-4133,7103,0,0,0
-159.70,6.26,-30.32,906,-4140,7105,-1,0,0
-159.70,6.26,-30.32,904,-4156,7101,0,0,-1
-159.69,6.26,-30.31,907,-4153,7107,0,0,-1
-159.69,6.25,-30.31,901,-4148,7106,0,0,-1
-159.69,6.25,-30.30,902,-4140,7095,0,0,-1
-159.69,6.24,-30.30,899,-4135,7102,-1,0,-1
-159.68,6.23,-30.30,897,-4138,7089,0,0,-1
-159.68,6.22,-30.30,880,-4145,7102,-1,0,-1
-159.68,6.22,-30.31,876,-4158,7093,0,0,-1
-159.69,6.22,-30.31,894,-4159,7106,-1,0,-1
-159.68,6.22,-30.31,902,-4171,7095,0,0,-1
-159.67,6.21,-30.31,905,-4155,7112,-1,0,-1
-159.67,6.21,-30.32,913,-4169,7094,0,0,0
-159.67,6.21,-30.31,911,-4157,7077,-1,0,0
-159.68,6.20,-30.31,906,-4168,7071,0,0,-1
-159.67,6.19,-30.29,883,-4138,7128,-1,0,0
-159.67,6.18,-30.30,883,-4144,7094,0,0,-1
-159.68,6.17,-30.30,885,-4149,7100,-1,-1,0
-159.68,6.17,-30.29,886,-4141,7144,-1,-1,0
-159.69,6.17,-30.32,886,-4143,7091,0,0,0
-159.69,6.19,-30.34,894,-4165,7092,-1,-1,0
-159.70,6.19,-30.34,904,-4173,7082,0,0,-1
-159.69,6.19,-30.34,899,-4165,7099,0,-1,-1
-159.69,6.20,-30.34,903,-4158,7103,-1,-1,0
-159.69,6.20,-30.35,911,-4163,7079,0,-1,-1
-159.69,6.21,-30.35,896,-4168,7090,0,-1,-1
-159.69,6.21,-30.34,896,-4165,7099,0,-1,0
-159.69,6.22,-30.34,892,-4153,7097,-1,-1,0
-159.69,6.22,-30.33,902,-4154,7101,0,-1,0
-159.69,6.22,-30.33,902,-4163,7097,0,-1,0
-159.69,6.22,-30.33,896,-4161,7103,-1,-1,0
-159.70,6.22,-30.33,892,-4159,7095,0,-1,0
-180.00,-0.04,0.04,-1,-1,-1,-1,-1,-1
-159.70,6.23,-30.33,893,-4151,7095,-1,-1,-1
-159.70,6.23,-30.33,892,-4153,7100,-1,-1,-1
-159.70,6.23,-30.33,892,-4155,7107,-1,-1,-1
-159.70,6.23,-30.33,895,-4161,7101,0,-1,-1
-159.70,6.23,-30.33,900,-4148,7102,-1,-1,-1
-159.69,6.24,-30.33,900,-4147,7106,-1,-1,0
-159.70,6.24,-30.34,901,-4160,7083,-1,-1,0
-159.70,6.24,-30.34,902,-4169,7100,0,-1,-1
-159.70,6.24,-30.34,900,-4166,7106,0,-1,0
-159.70,6.24,-30.34,889,-4155,7100,-1,-1,-1
-159.70,6.24,-30.34,885,-4155,7088,-1,-1,-1
-159.70,6.25,-30.34,888,-4161,7081,0,-1,-1
-159.70,6.26,-30.33,905,-4161,7100,0,-1,-1
-159.69,6.26,-30.33,912,-4154,7104,0,-1,0
-159.69,6.26,-30.33,916,-4156,7108,0,0,0
-159.69,6.26,-30.33,910,-4152,7110,0,0,0
-159.69,6.26,-30.32,906,-4156,7117,-1,0,0
-159.70,6.26,-30.32,901,-4147,7114,-1,0,0
-159.70,6.26,-30.32,895,-4139,7099,-1,0,0
-159.70,6.26,-30.32,889,-4140,7093,-1,-1,-1
-159.70,6.26,-30.33,897,-4152,7095,-1,-1,-1
-159.69,6.27,-30.32,913,-4157,7100,-1,-1,-1
-159.69,6.28,-30.32,918,-4155,7107,0,-1,0
-159.69,6.28,-30.32,914,-4152,7120,0,-1,0
-159.69,6.28,-30.32,913,-4149,7096,0,0,0
-159.69,6.27,-30.32,903,-4150,7092,-1,0,0
-159.70,6.26,-30.33,894,-4151,7096,0,0,0
-159.70,6.25,-30.33,892,-4149,7096,-1,-1,0
-159.70,6.26,-30.33,886,-4168,7095,0,-1,-1
-159.70,6.27,-30.33,899,-4172,7102,0,-1,-1
-159.70,6.28,-30.33,905,-4166,7107,0,-1,-1
-159.69,6.29,-30.33,919,-4161,7101,0,-1,-1
-159.69,6.30,-30.33,925,-4155,7086,0,-1,-1
-159.68,6.30,-30.33,936,-4144,7086,0,0,0
-159.69,6.30,-30.33,922,-4151,7082,0,0,0
-159.69,6.29,-30.32,910,-4151,7087,0,0,0
-159.70,6.28,-30.32,897,-4152,7107,-1,-1,0
-159.70,6.28,-30.32,892,-4146,7104,-1,-1,0
-159.70,6.28,-30.33,886,-4158,7109,-1,-1,-1
-159.70,6.29,-30.33,897,-4153,7098,-1,-1,-1
-159.70,6.30,-30.33,903,-4157,7094,0,-1,-1
-159.70,6.30,-30.33,912,-4150,7102,-1,-1,0
-159.70,6.30,-30.33,929,-4156,7108,0,0,0
-159.70,6.30,-30.33,929,-4157,7099,-1,0,0
-159.70,6.30,-30.33,914,-4149,7101,0,0,0
-159.70,6.30,-30.33,912,-4162,7095,-1,-1,0
-159.70,6.30,-30.33,909,-4160,7104,0,-1,-1
-159.70,6.31,-30.33,911,-4153,7101,0,-1,0
-159.70,6.31,-30.33,913,-4138,7096,-1,-1,0
-159.70,6.31,-30.33,919,-4146,7104,-1,-1,0
-159.71,6.31,-30.33,921,-4151,7101,-1,-1,0
-159.71,6.31,-30.34,916,-4154,7088,0,0,0
-159.72,6.31,-30.33,913,-4152,7111,-1,-1,0
-159.71,6.31,-30.33,902,-4144,7105,0,0,0
-159.72,6.31,-30.33,898,-4149,7112,-1,-1,0
-159.72,6.31,-30.34,898,-4150,7107,-1,-1,-1
-159.73,6.32,-30.35,905,-4153,7096,-1,-1,-1
-159.73,6.32,-30.35,913,-4154,7084,-1,-1,0
-159.72,6.32,-30.35,920,-4149,7083,-1,0,0
-159.73,6.32,-30.35,922,-4152,7086,-1,-1,0
-159.73,6.32,-30.35,923,-4154,7089,0,0,0
-159.73,6.32,-30.35,915,-4154,7105,-1,-1,0
-159.73,6.32,-30.35,908,-4148,7108,-1,0,0
-159.73,6.32,-30.35,906,-4153,7106,-1,-1,0
-159.73,6.32,-30.35,905,-4153,7099,-1,-1,0
-159.73,6.32,-30.35,909,-4155,7097,0,-1,-1
-159.73,6.33,-30.34,914,-4153,7098,-1,-1,0
-159.72,6.33,-30.34,916,-4155,7089,0,-1,-1
-159.73,6.33,-30.34,918,-4157,7100,0,-1,0
-159.73,6.33,-30.34,916,-4153,7097,0,0,0
-159.73,6.33,-30.34,910,-4154,7095,0,0,0
-159.73,6.32,-30.34,910,-4155,7096,-1,0,0
-159.74,6.32,-30.35,907,-4152,7095,-1,-1,0
-159.74,6.32,-30.35,897,-4158,7082,-1,-1,0
-159.75,6.32,-30.36,902,-4162,7073,-1,-1,0
-159.75,6.32,-30.37,911,-4169,7081,0,-1,0
-159.75,6.33,-30.37,924,-4175,7106,-1,0,0
-159.75,6.33,-30.37,917,-4160,7096,0,0,0
-159.75,6.31,-30.36,916,-4141,7095,-1,0,0
-159.76,6.30,-30.37,910,-4148,7086,0,0,0
-159.76,6.30,-30.37,909,-4149,7094,-1,0,0
-159.76,6.29,-30.37,898,-4150,7099,-1,0,0
-159.77,6.29,-30.38,908,-4153,7100,-1,-1,0
-159.77,6.29,-30.38,905,-4157,7102,-1,0,0
-159.77,6.29,-30.39,904,-4168,7098,0,-1,-1
-159.77,6.29,-30.39,912,-4163,7100,-1,-1,0
-159.77,6.29,-30.39,926,-4163,7090,0,0,-1
-159.76,6.29,-30.38,926,-4164,7094,0,0,0
-159.76,6.29,-30.37,923,-4146,7100,0,0,0
-159.77,6.27,-30.38,907,-4149,7088,-1,0,0
-159.77,6.27,-30.38,901,-4155,7099,-1,0,0
-159.77,6.27,-30.38,888,-4158,7100,-1,-1,-1
-159.77,6.27,-30.38,891,-4160,7103,0,-1,-1
-159.76,6.28,-30.37,897,-4152,7093,-1,-1,-1
-159.76,6.28,-30.37,898,-4152,7089,0,-1,-1
-159.75,6.29,-30.37,910,-4161,7085,0,-1,-1
-159.75,6.29,-30.37,915,-4158,7079,0,0,-1
-159.74,6.29,-30.36,915,-4168,7097,0,0,-1
-159.73,6.29,-30.34,916,-4166,7108,0,0,-1
-159.73,6.29,-30.34,903,-4171,7098,0,-1,-1
-159.72,6.29,-30.33,903,-4159,7099,0,-1,-1
-159.72,6.29,-30.33,904,-4161,7100,0,-1,-1
-159.72,6.30,-30.33,916,-4152,7098,0,0,-1
-159.72,6.30,-30.33,917,-4151,7105,-1,0,-1
-159.72,6.30,-30.32,919,-4149,7100,0,0,0
-159.72,6.29,-30.32,920,-4155,7107,0,0,-1
-159.71,6.29,-30.31,908,-4155,7107,0,0,-1
-159.71,6.29,-30.31,906,-4151,7120,-1,0,-1
-159.71,6.28,-30.31,904,-4153,7120,0,0,-1
-159.71,6.28,-30.30,913,-4149,7113,0,0,-1
-159.70,6.28,-30.31,907,-4158,7098,-1,0,-1
-159.70,6.28,-30.30,907,-4155,7093,0,0,-1
-159.70,6.28,-30.30,907,-4147,7088,0,0,-1
-159.70,6.28,-30.30,907,-4152,7097,0,0,-1
-159.69,6.28,-30.29,906,-4155,7097,0,0,-1
-159.70,6.27,-30.30,911,-4156,7095,0,0,-1
-159.69,6.27,-30.30,892,-4154,7088,0,0,-1
-159.69,6.27,-30.30,897,-4152,7089,-1,0,-1
-159.69,6.27,-30.30,903,-4152,7087,-1,0,-1
-159.68,6.27,-30.29,904,-4164,7080,0,0,-1
-159.67,6.25,-30.27,905,-4151,7125,0,0,-1
-159.68,6.24,-30.28,882,-4136,7097,-1,-1,-1
-159.67,6.23,-30.27,920,-4145,7119,-1,0,0
-159.68,6.22,-30.29,889,-4124,7080,-1,0,0
-159.67,6.20,-30.27,921,-4146,7164,-1,1,0
-159.68,6.20,-30.32,937,-4164,7064,-1,0,0
-159.69,6.18,-30.30,911,-4141,7110,-1,0,0
-159.69,6.16,-30.33,916,-4175,7064,0,1,-1
-159.70,6.13,-30.32,893,-4146,7093,-2,0,0
-159.71,6.11,-30.31,882,-4152,7126,0,0,0
-159.72,6.10,-30.34,849,-4176,7065,-1,-1,0
-159.72,6.09,-30.32,873,-4188,7108,0,0,-1
-159.71,6.08,-30.32,864,-4180,7060,0,0,-1
-159.70,6.07,-30.27,886,-4151,7140,0,0,-1
-159.70,6.06,-30.28,869,-4144,7091,1,0,-1
-159.69,6.07,-30.27,886,-4129,7099,-1,0,0
-159.69,6.06,-30.26,898,-4120,7127,1,1,0
-159.71,6.05,-30.28,889,-4131,7095,-1,-1,0
-159.72,6.03,-30.28,854,-4116,7163,-1,0,0
-159.74,6.04,-30.35,900,-4201,7069,0,1,0
-159.75,6.01,-30.34,871,-4139,7139,-4,-1,0
-159.76,6.00,-30.33,844,-4174,7169,2,0,0
-159.77,6.00,-30.39,879,-4218,7021,1,1,-1
-159.77,5.97,-30.36,844,-4118,7103,-5,-2,0
-159.77,5.98,-30.34,857,-4189,7141,3,0,0
-159.76,5.98,-30.36,861,-4161,7000,2,2,-1
-159.76,5.98,-30.33,851,-4151,7153,-5,-3,0
-159.75,5.97,-30.31,845,-4169,7087,6,1,-1
-159.76,6.00,-30.32,865,-4136,7080,-4,-2,0
-159.74,6.00,-30.28,883,-4125,7164,0,0,-1
-159.74,6.02,-30.31,846,-4198,7039,2,-1,-1
-159.73,6.02,-30.28,871,-4147,7107,-2,-1,-1
-159.72,6.03,-30.27,872,-4138,7117,1,0,-1
-159.73,6.04,-30.28,873,-4139,7125,-2,-1,0
-159.73,6.05,-30.30,875,-4166,7106,0,-1,-1
-159.72,6.05,-30.29,862,-4162,7113,0,-1,-1
-159.72,6.07,-30.30,867,-4173,7100,-1,-1,-1
-159.72,6.07,-30.30,886,-4178,7103,0,0,-1
-159.71,6.08,-30.29,891,-4165,7097,0,-1,-1
-159.71,6.08,-30.29,880,-4158,7092,0,-1,0
-159.71,6.09,-30.28,874,-4157,7099,0,-1,0
-159.71,6.09,-30.27,874,-4151,7089,0,-1,-1
-159.71,6.10,-30.26,881,-4139,7109,0,-1,-1
-159.70,6.10,-30.25,882,-4146,7114,0,-1,-1
-159.70,6.11,-30.25,879,-4143,7107,0,-1,-1
-159.70,6.11,-30.24,881,-4146,7105,0,-1,-1
-159.70,6.11,-30.24,885,-4140,7103,0,0,-1
-159.70,6.11,-30.24,882,-4141,7094,-1,-1,0
-159.70,6.12,-30.24,877,-4144,7104,0,-1,-1
-159.69,6.13,-30.23,884,-4141,7108,0,-1,-1
-159.69,6.13,-30.23,893,-4147,7112,0,-1,-1
-159.69,6.13,-30.23,894,-4150,7116,0,0,-1
-159.69,6.13,-30.23,887,-4149,7107,-1,0,-1
-159.69,6.13,-30.23,882,-4144,7113,-1,0,0
-159.69,6.13,-30.24,874,-4142,7099,-1,0,-1
-159.69,6.12,-30.24,868,-4149,7103,-1,-1,-1
-159.69,6.13,-30.25,874,-4156,7101,-1,-1,-1
-159.69,6.14,-30.25,877,-4163,7110,0,-1,-1
-159.69,6.14,-30.25,887,-4160,7115,-1,-1,-1
-159.68,6.15,-30.25,885,-4150,7112,0,-1,-1
-159.68,6.16,-30.24,894,-4146,7106,0,-1,-1
-159.67,6.17,-30.24,902,-4142,7098,0,-1,-1
-159.66,6.17,-30.24,899,-4144,7094,0,0,-1
-159.66,6.17,-30.24,891,-4150,7105,0,0,-1
-159.67,6.16,-30.22,889,-4137,7123,0,0,-1
-159.66,6.17,-30.21,887,-4141,7125,0,0,0
-159.66,6.17,-30.21,888,-4143,7124,-1,-1,-1
-159.66,6.17,-30.21,884,-4140,7114,0,-1,-1
-159.66,6.17,-30.21,883,-4132,7114,0,-1,-1
-159.66,6.18,-30.21,893,-4137,7108,-1,-1,-1
-159.66,6.19,-30.21,902,-4143,7105,-1,-1,-1
-159.66,6.19,-30.22,904,-4143,7106,-1,0,-1
-159.65,6.19,-30.22,909,-4143,7111,-1,0,-1
-159.65,6.19,-30.22,905,-4146,7108,0,0,0
-159.65,6.19,-30.22,901,-4145,7121,-1,-1,0
-159.65,6.20,-30.22,895,-4139,7104,-1,-1,-1
-159.66,6.20,-30.22,890,-4140,7102,-1,-1,0
-159.66,6.20,-30.22,892,-4143,7094,0,-1,-1
-159.66,6.20,-30.22,896,-4143,7093,-1,-1,-1
-159.65,6.21,-30.22,898,-4155,7093,0,0,-1
-159.65,6.20,-30.22,903,-4153,7108,0,-1,0
-159.65,6.21,-30.21,898,-4144,7112,0,-1,-1
-159.65,6.21,-30.21,895,-4145,7108,0,-1,-1
-159.65,6.22,-30.21,899,-4135,7103,0,-1,-1
-159.64,6.22,-30.21,900,-4131,7106,0,-1,-1
-159.64,6.23,-30.21,906,-4136,7113,-1,-1,-1
-159.64,6.23,-30.21,907,-4137,7118,-1,-1,-1
-159.64,6.23,-30.21,900,-4141,7115,-1,0,0
-159.64,6.23,-30.21,900,-4149,7105,-1,-1,-1
-159.64,6.22,-30.21,892,-4144,7103,-1,-1,0
-159.65,6.22,-30.21,890,-4144,7106,-1,-1,0
-159.64,6.22,-30.21,888,-4145,7103,-1,-1,-1
-159.64,6.23,-30.22,894,-4146,7097,-1,-1,-1
-159.63,6.23,-30.22,896,-4137,7108,0,-1,-1
-159.63,6.23,-30.22,904,-4147,7105,0,0,-1
-159.64,6.23,-30.22,900,-4143,7099,-1,0,0
-159.64,6.22,-30.21,893,-4139,7095,0,0,-1
-159.64,6.22,-30.21,888,-4137,7102,-1,-1,-1
-159.64,6.23,-30.21,890,-4142,7101,0,-1,-1
-159.63,6.23,-30.20,905,-4128,7121,-1,-1,0
-159.63,6.23,-30.20,915,-4125,7122,-1,0,0
-159.63,6.23,-30.20,919,-4125,7114,-1,0,0
-159.64,6.23,-30.21,905,-4139,7107,-1,0,0
-159.64,6.22,-30.21,890,-4143,7109,-1,0,0
-159.65,6.21,-30.22,872,-4147,7100,-1,-1,0
-159.65,6.21,-30.23,872,-4150,7096,-1,-1,-1
-159.64,6.22,-30.23,879,-4151,7099,-1,-1,-1
-159.64,6.22,-30.23,889,-4144,7100,0,-1,-1
-159.63,6.23,-30.23,901,-4138,7100,-1,-1,-1
-159.63,6.23,-30.23,905,-4155,7103,0,-1,-1
-159.63,6.24,-30.23,918,-4151,7085,0,0,0
-159.63,6.24,-30.23,912,-4143,7087,0,0,0
-159.63,6.23,-30.21,924,-4131,7084,0,0,0
-159.64,6.22,-30.21,886,-4119,7107,-1,-1,0
-159.65,6.21,-30.23,892,-4139,7114,-1,0,0
-159.65,6.21,-30.24,888,-4166,7094,0,0,0
-159.66,6.21,-30.24,898,-4149,7096,-1,-1,0
-159.66,6.21,-30.25,896,-4165,7106,-1,-1,0
-159.66,6.20,-30.25,897,-4156,7069,0,0,-1
-159.66,6.19,-30.23,900,-4126,7130,-1,0,0
-159.66,6.19,-30.24,907,-4147,7099,0,0,0
-159.67,6.17,-30.25,902,-4150,7107,-2,-1,0
-159.68,6.16,-30.24,887,-4155,7111,1,0,0
-159.68,6.15,-30.25,889,-4136,7086,-1,0,0
-159.69,6.14,-30.25,878,-4154,7116,0,0,0
-159.69,6.14,-30.25,890,-4141,7114,0,0,0
-159.70,6.14,-30.25,878,-4150,7113,0,-1,0
-159.69,6.14,-30.24,878,-4132,7117,-1,0,0
-159.71,6.14,-30.25,879,-4142,7116,-1,-1,0
-159.71,6.15,-30.26,884,-4135,7087,-1,-1,0
-159.71,6.14,-30.24,888,-4140,7123,0,0,0
-159.71,6.14,-30.26,891,-4143,7089,-1,-1,0
-159.71,6.13,-30.23,888,-4129,7153,0,0,-1
-159.72,6.15,-30.28,891,-4149,7072,-2,-1,0
-159.71,6.14,-30.26,885,-4153,7146,0,0,0
-159.73,6.14,-30.30,906,-4168,7076,-1,-1,0
-159.73,6.13,-30.29,871,-4147,7101,-1,-1,0
-159.73,6.15,-30.30,898,-4149,7109,-1,-1,0
-159.74,6.14,-30.31,892,-4167,7075,0,0,-1
-159.74,6.13,-30.32,874,-4161,7116,-1,-1,0
-159.75,6.14,-30.32,889,-4171,7107,0,0,0
-159.76,6.14,-30.34,879,-4176,7092,-1,-1,0
-159.75,6.13,-30.33,873,-4173,7085,0,0,-1
-159.75,6.13,-30.33,865,-4159,7100,-1,-1,-1
-159.75,6.14,-30.32,879,-4152,7098,0,-1,-1
-159.76,6.14,-30.32,887,-4154,7090,0,-1,0
-159.75,6.14,-30.31,886,-4167,7094,0,-1,-1
-159.75,6.15,-30.31,887,-4153,7097,0,-1,-1
-159.74,6.16,-30.30,888,-4145,7108,0,-1,-1
-159.74,6.17,-30.30,890,-4141,7097,0,-1,-1
-159.73,6.18,-30.30,904,-4138,7076,-1,-1,-1
-159.72,6.19,-30.29,899,-4137,7081,0,0,-1
-159.72,6.19,-30.29,888,-4137,7078,0,-1,-1
-159.71,6.19,-30.29,892,-4145,7085,0,-1,-1
-159.71,6.19,-30.28,898,-4148,7104,0,-1,-1
-159.70,6.21,-30.27,901,-4141,7119,0,-1,-1
-159.70,6.22,-30.27,906,-4147,7112,-1,-1,-1
-159.70,6.22,-30.27,898,-4157,7098,0,0,-1
-159.69,6.21,-30.27,891,-4151,7093,0,0,-1
-159.69,6.20,-30.27,881,-4147,7084,0,0,-1
-159.69,6.20,-30.27,870,-4154,7089,0,0,-1
-159.69,6.20,-30.26,870,-4164,7094,0,-1,-1
-159.69,6.20,-30.26,886,-4168,7100,0,0,-1
-159.68,6.20,-30.25,888,-4157,7104,0,-1,-1
-159.67,6.20,-30.24,894,-4147,7106,0,-1,-1
-159.66,6.21,-30.24,911,-4142,7111,-1,-1,-1
-159.66,6.22,-30.24,922,-4135,7098,0,0,-1
-159.66,6.21,-30.23,918,-4128,7101,0,0,0
-159.66,6.20,-30.23,897,-4136,7088,0,0,0
-159.66,6.19,-30.22,891,-4137,7116,0,0,-1
-159.66,6.19,-30.22,884,-4144,7114,-1,0,-1
-159.66,6.19,-30.23,880,-4148,7113,-1,-1,-1
-159.66,6.19,-30.23,888,-4149,7102,0,-1,-1
-159.65,6.20,-30.22,886,-4146,7093,0,-1,-1
-159.65,6.20,-30.22,896,-4138,7105,-1,-1,-1
-159.64,6.21,-30.22,909,-4139,7102,0,0,-1
-159.64,6.21,-30.21,906,-4136,7099,0,0,-1
-159.64,6.21,-30.21,903,-4141,7110,0,0,-1
-159.64,6.20,-30.20,897,-4151,7116,0,0,-1
-159.64,6.19,-30.19,886,-4140,7114,0,0,0
-159.64,6.19,-30.19,883,-4142,7117,0,0,-1
-159.64,6.19,-30.19,887,-4137,7114,-1,0,-1
-159.64,6.19,-30.20,894,-4137,7107,-1,0,-1
-159.63,6.19,-30.20,903,-4135,7105,-1,0,-1
-159.63,6.19,-30.20,893,-4140,7108,0,0,-1
-159.63,6.18,-30.20,885,-4141,7106,0,0,-1
-159.63,6.18,-30.20,885,-4139,7104,-1,0,-1
-159.63,6.18,-30.20,887,-4140,7114,-1,0,-1
-159.63,6.18,-30.20,889,-4150,7097,-1,-1,0
-159.63,6.17,-30.19,884,-4152,7109,0,0,-1
-159.63,6.17,-30.18,887,-4135,7108,0,0,-1
-159.63,6.17,-30.18,888,-4130,7103,0,-1,-1
-159.62,6.18,-30.18,892,-4136,7105,-1,-1,-1
-159.62,6.18,-30.18,890,-4144,7101,0,0,0
-159.62,6.17,-30.18,894,-4140,7105,0,0,0
-159.62,6.17,-30.18,882,-4130,7111,-1,0,0
-159.62,6.17,-30.18,885,-4133,7104,-1,0,0
-159.62,6.17,-30.18,888,-4146,7110,0,0,-1
-159.62,6.17,-30.18,891,-4143,7122,-1,0,0
-159.62,6.16,-30.18,892,-4143,7126,-1,0,0
-159.62,6.16,-30.18,887,-4143,7119,0,0,-1
-159.62,6.16,-30.18,884,-4142,7113,-1,-1,-1
-159.62,6.16,-30.18,893,-4141,7103,0,0,-1
-159.62,6.16,-30.18,895,-4133,7103,0,0,-1
-159.62,6.15,-30.18,893,-4136,7102,0,0,-1
-159.62,6.15,-30.18,891,-4135,7114,-1,0,0
-159.62,6.15,-30.18,888,-4125,7106,-1,0,0
-159.62,6.15,-30.18,877,-4123,7104,-1,0,0
-159.62,6.15,-30.19,880,-4144,7098,0,-1,-1
-159.62,6.15,-30.18,889,-4141,7119,0,0,-1
-159.62,6.15,-30.18,893,-4141,7116,-1,0,0
-159.62,6.14,-30.18,885,-4135,7104,-1,0,0
-159.62,6.14,-30.19,884,-4140,7096,-1,0,0
-159.62,6.14,-30.19,882,-4142,7092,-1,0,-1
-159.62,6.14,-30.19,875,-4140,7100,-1,-1,-1
-159.62,6.14,-30.19,879,-4140,7105,0,-1,-1
-159.61,6.15,-30.19,881,-4148,7108,-1,-1,-1
-159.61,6.15,-30.19,888,-4153,7113,0,-1,-1
-159.61,6.16,-30.19,901,-4149,7115,0,-1,-1
-159.60,6.17,-30.18,905,-4136,7117,0,0,-1
-159.60,6.17,-30.18,899,-4130,7105,-1,0,-1
-159.60,6.17,-30.18,897,-4130,7096,-1,0,0
-159.61,6.16,-30.19,882,-4131,7104,-1,0,0
-159.61,6.16,-30.19,883,-4132,7100,-1,0,0
-159.61,6.16,-30.19,882,-4130,7111,-1,-1,-1
-159.61,6.16,-30.19,882,-4138,7114,-1,-1,-1
-159.60,6.17,-30.19,884,-4139,7112,-1,-1,-1
-159.60,6.17,-30.19,891,-4138,7116,0,-1,-1
-159.60,6.17,-30.19,903,-4139,7100,-1,-1,-1
-159.59,6.18,-30.19,907,-4151,7103,0,0,-1
-159.59,6.18,-30.18,901,-4146,7105,0,0,-1
-159.59,6.18,-30.18,888,-4133,7114,0,-1,-1
-159.59,6.18,-30.18,894,-4135,7120,0,-1,-1
-159.58,6.19,-30.17,897,-4138,7121,-1,0,-1
-159.58,6.19,-30.17,899,-4142,7119,0,0,0
-159.58,6.19,-30.17,892,-4135,7112,-1,-1,0
-159.58,6.19,-30.17,893,-4130,7096,0,0,0
-159.59,6.18,-30.18,892,-4134,7106,-1,0,0
-159.59,6.18,-30.17,890,-4133,7121,-1,0,-1
-159.59,6.18,-30.18,896,-4132,7117,-1,-1,0
-159.58,6.19,-30.18,893,-4140,7112,0,-1,-1
-159.58,6.19,-30.18,893,-4139,7112,-1,-1,-1
-159.58,6.19,-30.18,890,-4136,7110,0,-1,-1
-159.58,6.20,-30.17,893,-4140,7111,-1,-1,-1
-159.58,6.20,-30.17,896,-4143,7108,0,0,-1
-159.58,6.20,-30.18,900,-4144,7105,0,-1,0
-159.58,6.20,-30.17,888,-4138,7109,0,0,-1
-159.58,6.20,-30.17,887,-4136,7114,0,0,-1
-159.58,6.19,-30.17,883,-4138,7119,-1,0,0
-159.58,6.19,-30.18,880,-4137,7113,0,-1,-1
-159.59,6.19,-30.18,881,-4140,7101,-1,-1,0
-159.58,6.20,-30.19,890,-4149,7100,0,-1,-1
-159.58,6.20,-30.19,903,-4146,7111,0,-1,-1
-159.58,6.21,-30.19,902,-4139,7108,0,0,-1
-159.58,6.20,-30.18,902,-4136,7108,0,-1,-1
-159.58,6.21,-30.18,902,-4135,7114,0,0,-1
-159.57,6.21,-30.18,901,-4134,7106,-1,0,0
-159.57,6.21,-30.18,898,-4132,7102,-1,0,-1
-159.57,6.21,-30.18,895,-4125,7094,0,-1,-1
-159.57,6.21,-30.18,894,-4133,7106,-1,-1,-1
-159.57,6.21,-30.18,899,-4143,7106,0,-1,-1
-159.57,6.22,-30.17,901,-4140,7110,-1,0,-1
-159.57,6.21,-30.17,898,-4136,7116,-1,0,0
-159.57,6.21,-30.18,894,-4135,7117,-1,0,0
-159.58,6.21,-30.18,884,-4135,7115,-1,0,0
-159.58,6.20,-30.19,873,-4134,7101,-1,0,-1
-159.58,6.20,-30.19,873,-4140,7102,-1,-1,-1
-159.58,6.21,-30.19,886,-4135,7110,-1,-1,-1
-159.57,6.21,-30.18,897,-4140,7104,0,-1,-1
-159.57,6.22,-30.19,909,-4141,7101,-1,-1,-1
-159.56,6.22,-30.19,914,-4147,7102,0,-1,-1
-159.56,6.23,-30.18,921,-4142,7102,0,0,-1
-159.56,6.23,-30.17,916,-4126,7112,0,0,0
-159.56,6.22,-30.17,901,-4122,7113,0,0,0
-159.56,6.22,-30.17,886,-4123,7116,-1,0,0
-159.57,6.21,-30.17,885,-4139,7109,-1,0,0
-159.57,6.21,-30.18,886,-4145,7129,-1,-1,-1
-159.57,6.21,-30.18,873,-4134,7124,-1,-1,-1
-159.57,6.22,-30.18,883,-4140,7121,-1,-1,-1
-159.57,6.23,-30.18,896,-4146,7115,-1,-1,-1
-159.57,6.23,-30.19,904,-4144,7101,-1,-1,-1
-159.57,6.23,-30.18,909,-4137,7101,0,0,0
-159.57,6.23,-30.18,907,-4143,7102,0,0,0
-159.57,6.23,-30.17,910,-4140,7115,0,-1,0
-159.57,6.23,-30.17,897,-4143,7116,0,-1,-1
-159.57,6.23,-30.17,894,-4148,7112,0,-1,0
-159.57,6.24,-30.17,904,-4142,7113,0,-1,-1
-159.57,6.24,-30.17,899,-4138,7107,-1,-1,-1
-159.57,6.25,-30.18,902,-4134,7103,-1,-1,-1
-159.57,6.25,-30.18,907,-4127,7090,-1,0,-1
-159.57,6.25,-30.18,906,-4125,7107,0,0,0
-159.57,6.25,-30.18,906,-4131,7101,-1,0,0
-159.57,6.25,-30.18,904,-4133,7083,-1,0,-1
-159.57,6.25,-30.18,899,-4137,7100,0,0,0
-159.57,6.25,-30.18,897,-4140,7101,-1,-1,-1
-159.57,6.25,-30.19,896,-4136,7108,-1,-1,-1
-159.57,6.25,-30.19,897,-4135,7108,-1,-1,-1
-159.57,6.25,-30.19,908,-4129,7106,-1,-1,0
-159.57,6.25,-30.19,904,-4130,7115,-1,-1,0
-159.58,6.26,-30.18,904,-4133,7105,0,0,0
-159.58,6.25,-30.19,905,-4142,7104,0,0,0
-159.58,6.26,-30.18,899,-4134,7105,-1,-1,-1
-159.58,6.26,-30.18,894,-4138,7099,-1,-1,-1
-159.58,6.26,-30.19,891,-4143,7093,0,-1,-1
-159.58,6.26,-30.19,896,-4133,7098,0,-1,-1
-159.58,6.26,-30.19,902,-4131,7108,-1,-1,-1
-159.58,6.27,-30.19,911,-4133,7110,-1,0,0
-159.58,6.27,-30.19,910,-4129,7103,0,0,0
-159.58,6.27,-30.19,911,-4137,7112,-1,0,0
-159.58,6.26,-30.19,915,-4137,7117,-1,0,0
-159.58,6.26,-30.19,899,-4135,7117,-1,0,0
-159.59,6.24,-30.20,880,-4140,7112,-1,0,-1
-159.59,6.24,-30.21,882,-4144,7112,-1,-1,-1
-159.59,6.25,-30.21,897,-4143,7113,-1,-1,-1
-159.59,6.26,-30.21,910,-4140,7111,-1,-1,-1
-159.59,6.26,-30.21,917,-4132,7097,-1,0,0
-159.59,6.26,-30.22,923,-4134,7096,-1,0,0
-159.59,6.25,-30.22,912,-4136,7090,0,0,0
-159.59,6.25,-30.22,893,-4130,7093,-1,0,0
-159.60,6.24,-30.22,884,-4138,7103,-1,-1,-1
-159.59,6.25,-30.22,888,-4149,7114,-1,-1,-1
-159.59,6.25,-30.22,895,-4148,7113,-1,-1,-1
-159.59,6.26,-30.23,900,-4150,7102,0,-1,-1
-159.59,6.27,-30.23,914,-4141,7101,-1,-1,0
-159.59,6.27,-30.23,920,-4152,7101,0,0,0
-159.59,6.27,-30.23,924,-4141,7109,0,0,0
-159.59,6.27,-30.22,905,-4137,7106,0,0,0
-159.59,6.27,-30.22,896,-4133,7107,-1,0,0
-159.59,6.26,-30.22,886,-4145,7104,-1,0,-1
-159.59,6.26,-30.23,885,-4153,7107,-1,-1,-1
-159.59,6.26,-30.23,886,-4147,7110,-1,-1,-1
-159.59,6.27,-30.23,895,-4147,7102,-1,-1,-1
-159.59,6.27,-30.24,901,-4150,7107,-1,-1,0
-159.59,6.27,-30.23,909,-4141,7109,0,0,-1
-159.59,6.27,-30.24,909,-4141,7106,-1,0,-1
-159.58,6.27,-30.23,900,-4145,7103,0,0,-1
-159.58,6.26,-30.22,905,-4146,7113,0,0,-1
-159.58,6.26,-30.21,900,-4144,7121,0,0,-1
-159.58,6.26,-30.21,905,-4148,7120,0,-1,-1
-159.57,6.27,-30.21,896,-4151,7110,0,-1,-1
-159.57,6.27,-30.21,903,-4146,7100,0,0,-1
-159.57,6.27,-30.21,913,-4143,7099,0,0,-1
-159.57,6.28,-30.20,913,-4137,7093,0,0,-1
-159.57,6.27,-30.20,904,-4144,7094,0,0,-1
-159.57,6.27,-30.19,910,-4142,7107,0,0,-1
-159.56,6.26,-30.19,907,-4142,7107,0,0,-1
-159.55,6.26,-30.18,909,-4127,7100,0,0,-1
-159.55,6.26,-30.18,906,-4135,7092,-1,-1,-1
-159.55,6.26,-30.18,912,-4146,7102,0,0,-1
-159.55,6.26,-30.18,914,-4140,7102,0,0,-1
-159.55,6.26,-30.18,913,-4131,7108,-1,0,-1
-159.54,6.27,-30.17,909,-4130,7106,-1,-1,-1
-159.54,6.27,-30.17,910,-4136,7108,0,0,-1
-159.54,6.27,-30.17,911,-4129,7113,-1,0,-1
-159.54,6.27,-30.17,905,-4135,7107,0,0,-1
-159.54,6.27,-30.17,900,-4136,7098,-1,0,0
-159.54,6.26,-30.18,901,-4141,7111,0,0,-1
-159.53,6.26,-30.17,901,-4144,7114,0,0,-1
-159.53,6.26,-30.17,898,-4142,7101,0,0,-1
-159.53,6.26,-30.16,902,-4137,7108,0,0,-1
-159.53,6.26,-30.16,907,-4143,7107,0,0,-1
-159.53,6.26,-30.15,910,-4140,7114,0,0,-1
-159.53,6.25,-30.15,911,-4135,7122,-1,0,-1
-159.52,6.25,-30.15,902,-4136,7120,0,0,-1
-159.53,6.24,-30.15,893,-4128,7123,-1,0,0
-159.53,6.24,-30.15,892,-4127,7125,-1,-1,0
-159.52,6.25,-30.15,904,-4129,7123,-1,-1,-1
-159.52,6.25,-30.15,918,-4134,7106,-1,-1,-1
-159.52,6.25,-30.15,916,-4141,7101,0,0,-1
-159.53,6.24,-30.15,912,-4143,7111,0,0,0
-159.52,6.23,-30.14,893,-4134,7115,-1,0,-1
-159.52,6.23,-30.15,880,-4139,7103,0,0,-1
-159.52,6.22,-30.15,877,-4140,7115,0,0,-1
-159.52,6.22,-30.14,883,-4136,7119,0,-1,-1
-159.51,6.23,-30.14,891,-4141,7116,0,-1,-1
-159.51,6.23,-30.14,901,-4136,7121,0,0,-1
-159.51,6.23,-30.14,918,-4141,7112,0,0,-1
-159.51,6.23,-30.14,929,-4131,7114,-1,0,0
-159.51,6.22,-30.13,913,-4123,7109,0,0,0
-159.51,6.21,-30.13,903,-4115,7109,-1,0,0
-159.51,6.19,-30.12,886,-4109,7114,-1,0,-1
-159.51,6.19,-30.13,883,-4116,7115,-1,0,-1
-159.51,6.18,-30.13,886,-4126,7115,-1,0,0
-159.51,6.18,-30.14,878,-4127,7108,-1,0,-1
-159.51,6.17,-30.13,879,-4127,7118,-1,0,-1
-159.51,6.17,-30.13,889,-4127,7125,-1,0,-1
-159.51,6.17,-30.14,897,-4132,7099,-1,0,0
-159.50,6.17,-30.14,883,-4142,7098,0,0,-1
-159.51,6.16,-30.13,890,-4144,7116,0,0,-1
-159.51,6.15,-30.13,882,-4134,7118,0,0,-1
-159.51,6.15,-30.13,885,-4134,7118,-1,-1,-1
-159.51,6.16,-30.13,889,-4128,7110,0,0,0
-159.51,6.16,-30.13,890,-4125,7105,0,-1,-1
-159.50,6.16,-30.13,895,-4124,7100,-1,0,0
-159.51,6.16,-30.13,898,-4119,7106,-1,0,0
-159.51,6.16,-30.14,897,-4138,7108,-1,0,0
-159.51,6.15,-30.14,893,-4136,7115,-1,0,-1
-159.51,6.15,-30.14,877,-4139,7112,-1,0,0
-159.51,6.15,-30.15,883,-4147,7112,-1,0,-1
-159.51,6.15,-30.15,878,-4136,7111,-1,0,-1
-159.50,6.16,-30.15,883,-4135,7109,-1,-1,-1
-159.50,6.16,-30.15,883,-4144,7111,-1,-1,-1
-159.50,6.16,-30.15,895,-4141,7113,0,-1,-1
-159.50,6.16,-30.15,899,-4136,7112,0,0,-1
-159.50,6.16,-30.14,891,-4128,7119,-1,-1,0
-159.50,6.16,-30.15,889,-4138,7094,0,0,-1
-159.50,6.16,-30.15,882,-4135,7113,-1,-1,0
-159.50,6.16,-30.15,873,-4132,7115,0,-1,-1
-159.51,6.16,-30.15,875,-4139,7105,-1,-1,-1
-159.50,6.18,-30.15,878,-4135,7102,0,-1,-1
-159.50,6.18,-30.15,884,-4133,7090,0,-1,-1
-159.49,6.18,-30.15,889,-4134,7096,-1,-1,-1
-159.49,6.18,-30.15,889,-4133,7095,-1,0,-1
-159.49,6.18,-30.15,888,-4133,7096,-1,-1,-1
-159.49,6.18,-30.14,893,-4139,7114,0,0,-1
-159.49,6.18,-30.14,892,-4130,7125,0,-1,-1
-159.48,6.19,-30.13,897,-4128,7120,0,0,-1
-159.48,6.19,-30.13,893,-4121,7109,-1,0,-1
-159.49,6.18,-30.14,896,-4122,7108,-1,0,0
-159.49,6.18,-30.14,888,-4116,7102,-1,0,0
-159.49,6.19,-30.15,882,-4123,7091,-1,-1,-1
-159.49,6.19,-30.15,882,-4132,7116,-1,-1,-1
-159.49,6.19,-30.16,886,-4143,7109,-1,-1,-1
-159.49,6.20,-30.16,883,-4140,7133,-1,-1,-1
-159.49,6.20,-30.17,894,-4154,7103,0,-1,-1
-159.49,6.20,-30.16,903,-4161,7111,0,0,-1
-159.48,6.21,-30.16,902,-4148,7103,0,0,-1
-159.48,6.21,-30.15,898,-4130,7105,0,0,0
-159.48,6.20,-30.14,889,-4125,7103,0,0,-1
-159.48,6.20,-30.14,882,-4128,7109,0,0,-1
-159.48,6.20,-30.14,878,-4128,7128,0,-1,-1
-159.48,6.21,-30.14,885,-4132,7134,-1,-1,-1
-159.48,6.21,-30.14,879,-4123,7120,-1,-1,-1
-159.48,6.21,-30.14,887,-4127,7114,-1,-1,-1
-159.48,6.21,-30.14,893,-4124,7113,-1,-1,-1
-159.48,6.21,-30.14,888,-4128,7115,-1,0,0
-159.48,6.21,-30.15,892,-4136,7111,-1,-1,-1
-159.48,6.21,-30.15,891,-4132,7111,-1,-1,-1
-159.48,6.21,-30.15,893,-4141,7105,-1,-1,-1
-159.47,6.22,-30.15,900,-4132,7106,-1,0,-1
-159.47,6.22,-30.15,898,-4132,7109,-1,-1,-1
-159.47,6.22,-30.15,900,-4139,7110,0,0,-1
-159.47,6.22,-30.15,897,-4136,7110,-1,-1,0
-159.47,6.22,-30.15,897,-4134,7095,-1,0,0
-159.48,6.21,-30.15,894,-4129,7105,0,0,-1
-159.47,6.22,-30.15,894,-4131,7097,-1,-1,0
-159.47,6.22,-30.15,895,-4148,7114,0,0,-1
-159.47,6.21,-30.15,897,-4139,7119,0,-1,-1
-159.47,6.21,-30.15,886,-4135,7118,-1,-1,-1
-159.47,6.22,-30.15,888,-4125,7101,-1,-1,-1
-159.47,6.22,-30.15,900,-4115,7096,-1,-1,-1
-159.47,6.22,-30.15,903,-4120,7101,-1,0,-1
-159.47,6.22,-30.15,904,-4129,7107,-1,0,0
-159.47,6.22,-30.15,905,-4134,7110,0,0,0
-159.47,6.22,-30.16,900,-4141,7113,-1,0,-1
-159.47,6.22,-30.15,901,-4140,7121,0,0,-1
-159.47,6.22,-30.16,892,-4136,7117,-1,-1,-1
-159.47,6.22,-30.16,896,-4129,7106,-1,-1,-1
-159.47,6.22,-30.16,897,-4139,7106,0,-1,-1
-159.47,6.23,-30.16,894,-4132,7103,0,0,-1
-159.46,6.23,-30.15,899,-4130,7112,0,0,-1
-159.46,6.23,-30.15,908,-4133,7114,-1,0,0
-159.46,6.23,-30.15,907,-4127,7116,-1,0,0
-159.47,6.22,-30.15,902,-4130,7115,-1,0,0
-159.47,6.22,-30.15,886,-4127,7105,0,-1,-1
-159.47,6.22,-30.15,893,-4130,7110,-1,-1,-1
-159.46,6.23,-30.15,902,-4134,7116,-1,-1,-1
-159.46,6.24,-30.15,913,-4130,7109,-1,-1,-1
-159.46,6.24,-30.15,915,-4135,7119,-1,0,0
-159.46,6.24,-30.15,910,-4130,7107,-1,0,0
-159.46,6.23,-30.15,901,-4136,7115,-1,0,0
-159.47,6.22,-30.15,882,-4129,7108,-1,0,0
-159.47,6.22,-30.16,868,-4134,7107,-1,-1,-1
-159.47,6.23,-30.17,878,-4149,7105,-1,-1,-1
-159.47,6.24,-30.17,891,-4154,7110,0,-1,-1
-159.46,6.26,-30.17,907,-4149,7107,0,-1,-1
-159.46,6.26,-30.17,916,-4144,7099,0,-1,-1
-159.46,6.26,-30.16,925,-4135,7096,0,0,0
-159.46,6.26,-30.15,920,-4132,7105,0,0,0
-159.46,6.25,-30.15,911,-4121,7112,0,0,0
-159.47,6.25,-30.14,895,-4117,7119,0,0,0
-159.47,6.24,-30.14,879,-4128,7121,-1,-1,0
-159.47,6.24,-30.15,889,-4136,7123,-1,-1,0
-159.47,6.25,-30.16,892,-4136,7119,-1,-1,-1
-159.47,6.26,-30.16,902,-4136,7103,-1,-1,0
-159.47,6.27,-30.17,914,-4134,7098,-1,-1,0
-159.47,6.28,-30.17,913,-4129,7101,-1,-1,0
-159.47,6.27,-30.17,914,-4138,7105,0,0,-1
-159.47,6.27,-30.17,912,-4132,7119,-1,0,0
-159.47,6.27,-30.17,903,-4134,7114,-1,0,0
-159.47,6.27,-30.16,899,-4137,7116,0,-1,0
-159.47,6.27,-30.16,906,-4136,7109,0,-1,0
-159.47,6.28,-30.16,907,-4135,7112,-1,-1,0
-159.47,6.28,-30.16,910,-4130,7114,-1,-1,0
-159.48,6.29,-30.16,912,-4126,7100,0,-1,0
-159.48,6.29,-30.17,908,-4126,7094,-1,-1,0
-159.48,6.29,-30.17,901,-4131,7104,-1,-1,0
-159.49,6.29,-30.17,895,-4142,7121,-1,-1,0
-159.49,6.29,-30.18,900,-4144,7112,0,-1,-1
-159.49,6.29,-30.17,890,-4143,7109,0,-1,-1
-159.49,6.30,-30.18,904,-4142,7101,0,-1,-1
-159.49,6.31,-30.17,911,-4128,7102,0,-1,-1
-159.48,6.31,-30.17,923,-4128,7101,-1,-1,0
-159.48,6.32,-30.18,922,-4137,7107,-1,-1,0
-159.49,6.32,-30.18,920,-4139,7107,-1,0,0
-159.49,6.32,-30.18,912,-4137,7117,-1,-1,0
-159.50,6.32,-30.18,903,-4132,7121,-1,-1,0
-159.50,6.32,-30.19,899,-4133,7110,-1,-1,0
-159.50,6.32,-30.20,892,-4138,7105,-1,-1,-1
-159.50,6.32,-30.20,900,-4152,7103,-1,-1,0
-159.50,6.33,-30.21,906,-4159,7094,0,-1,-1
-159.50,6.33,-30.21,907,-4148,7099,0,0,0
-159.50,6.32,-30.21,910,-4148,7089,-1,0,-1
-159.50,6.32,-30.21,910,-4143,7096,-1,0,0
-159.51,6.31,-30.21,903,-4142,7100,0,0,0
-159.51,6.31,-30.21,906,-4133,7109,-1,0,0
-159.51,6.31,-30.21,899,-4134,7114,0,0,-1
-159.50,6.31,-30.21,924,-4135,7122,-1,0,0
-159.50,6.30,-30.21,920,-4125,7125,-1,0,0
-159.51,6.29,-30.22,915,-4120,7114,-1,0,0
-159.52,6.28,-30.24,906,-4135,7094,-1,0,0
-159.51,6.27,-30.24,907,-4132,7105,-1,0,-1
-159.52,6.25,-30.25,882,-4140,7101,-1,0,0
-159.52,6.25,-30.26,882,-4151,7106,-1,-1,0
-159.52,6.24,-30.27,896,-4172,7098,0,0,-1
-159.51,6.25,-30.27,902,-4167,7102,0,0,-1
-159.51,6.24,-30.27,896,-4164,7114,-1,-1,-1
-159.51,6.26,-30.28,926,-4167,7087,0,0,-1
-159.51,6.26,-30.27,936,-4164,7081,0,0,-1
-159.50,6.24,-30.26,918,-4156,7085,0,0,0
-159.50,6.23,-30.25,912,-4136,7089,0,0,0
-159.50,6.21,-30.24,892,-4131,7092,-1,0,-1
-159.51,6.20,-30.24,893,-4151,7106,0,-1,0
-159.50,6.20,-30.24,891,-4141,7086,0,0,-1
-159.50,6.20,-30.23,888,-4135,7108,-1,-1,-1
-159.50,6.20,-30.23,894,-4133,7107,-1,-1,-1
-159.49,6.21,-30.23,899,-4140,7096,0,0,-1
-159.49,6.21,-30.24,888,-4150,7106,-1,0,-1
-159.49,6.21,-30.24,908,-4144,7102,0,0,-1
-159.49,6.21,-30.24,912,-4146,7113,0,0,-1
-159.49,6.21,-30.24,895,-4157,7099,0,0,-1
-159.48,6.21,-30.24,902,-4154,7100,0,0,-1
-159.48,6.21,-30.23,901,-4145,7101,0,0,0
-159.48,6.21,-30.22,895,-4147,7114,0,-1,0
-159.48,6.21,-30.22,890,-4152,7097,0,-1,-1
-159.48,6.21,-30.22,892,-4154,7089,0,-1,-1
-159.47,6.21,-30.21,905,-4165,7089,0,0,-1
-159.47,6.21,-30.20,901,-4148,7097,0,0,-1
-159.47,6.21,-30.18,904,-4140,7112,0,0,0
-159.47,6.21,-30.18,910,-4148,7117,0,0,-1
-159.46,6.20,-30.18,892,-4144,7110,0,0,0
-159.46,6.20,-30.17,894,-4138,7117,0,0,0
-159.46,6.19,-30.17,891,-4128,7122,-1,0,0
-159.47,6.19,-30.17,884,-4124,7110,-1,0,0
-159.46,6.18,-30.17,889,-4127,7105,-1,0,-1
-159.46,6.19,-30.18,887,-4138,7101,-1,0,0
-159.47,6.18,-30.18,888,-4139,7099,-1,0,-1
-159.47,6.17,-30.19,887,-4141,7110,-1,0,-1
-159.47,6.17,-30.18,890,-4135,7114,0,0,-1
-159.47,6.17,-30.18,885,-4137,7111,-1,-1,0
-159.47,6.17,-30.18,887,-4153,7115,0,0,-1
-159.47,6.17,-30.18,883,-4155,7113,0,0,-1
-159.46,6.16,-30.17,886,-4148,7112,0,0,-1
-159.46,6.16,-30.16,890,-4138,7103,0,0,-1
-159.46,6.16,-30.16,892,-4134,7112,0,0,0
-159.47,6.15,-30.15,890,-4133,7117,0,0,0
-159.47,6.15,-30.16,890,-4130,7111,-1,0,0
-159.47,6.14,-30.15,890,-4127,7110,0,0,0
-159.47,6.14,-30.16,903,-4135,7113,0,0,-1
-159.46,6.14,-30.15,898,-4129,7117,-1,0,0
-159.46,6.14,-30.15,895,-4130,7117,-1,0,0
-159.46,6.13,-30.15,881,-4127,7120,-1,0,0
-159.47,6.13,-30.17,881,-4135,7100,-1,0,0
-159.47,6.12,-30.17,867,-4144,7099,-1,0,-1
-159.47,6.11,-30.18,863,-4148,7102,0,-1,-1
-159.48,6.12,-30.18,870,-4151,7118,-1,-1,-1
-159.47,6.13,-30.18,888,-4152,7114,0,-1,-1
-159.46,6.13,-30.17,893,-4138,7114,-1,-1,-1
-159.46,6.14,-30.18,912,-4139,7092,0,0,-1
-159.46,6.14,-30.17,915,-4138,7112,0,0,-1
-159.46,6.14,-30.17,903,-4136,7107,0,0,0
-159.46,6.13,-30.16,889,-4131,7114,0,0,0
-159.46,6.13,-30.16,887,-4125,7115,-1,-1,-1
-159.45,6.14,-30.16,890,-4131,7117,-1,-1,-1
-159.46,6.14,-30.17,894,-4133,7123,-1,-1,-1
-159.45,6.15,-30.16,889,-4127,7105,-1,-1,-1
-159.45,6.16,-30.17,889,-4134,7099,-1,-1,-1
-159.45,6.16,-30.17,889,-4144,7090,0,-1,-1
-159.45,6.16,-30.17,888,-4140,7105,-1,-1,-1
-159.45,6.16,-30.17,884,-4147,7106,0,-1,-1
-159.45,6.16,-30.17,881,-4147,7105,0,-1,-1
-159.45,6.16,-30.17,884,-4148,7111,0,-1,-1
-159.45,6.17,-30.17,885,-4140,7117,0,-1,-1
-159.45,6.17,-30.16,891,-4135,7114,0,-1,-1
-159.44,6.17,-30.16,890,-4126,7110,-1,-1,-1
-159.44,6.17,-30.16,891,-4122,7103,0,0,-1
-159.45,6.17,-30.16,893,-4125,7109,-1,-1,0
-159.45,6.18,-30.17,893,-4146,7095,0,0,-1
-159.44,6.18,-30.16,889,-4148,7114,0,-1,-1
-159.44,6.17,-30.16,880,-4143,7117,0,-1,-1
-159.44,6.18,-30.16,881,-4141,7114,-1,-1,-1
-159.44,6.18,-30.17,895,-4139,7100,0,-1,-1
-159.44,6.18,-30.16,898,-4132,7105,0,-1,-1
-159.44,6.19,-30.16,905,-4127,7110,0,-1,-1
-159.44,6.19,-30.16,901,-4137,7114,-1,-1,-1
-159.44,6.19,-30.16,899,-4138,7110,0,0,0
-159.44,6.19,-30.16,897,-4138,7106,0,0,-1
-159.44,6.19,-30.16,899,-4129,7111,-1,-1,0
-159.44,6.19,-30.16,892,-4135,7105,-1,-1,-1
-159.43,6.20,-30.16,899,-4142,7109,0,-1,-1
-159.43,6.20,-30.16,907,-4141,7104,0,-1,-1
-159.43,6.20,-30.15,910,-4132,7106,0,-1,-1
-159.43,6.21,-30.16,909,-4143,7101,-1,0,0
-159.43,6.20,-30.16,906,-4152,7106,0,0,0
-159.43,6.20,-30.16,896,-4149,7102,0,-1,-1
-159.43,6.20,-30.15,894,-4137,7108,0,-1,-1
-159.43,6.20,-30.15,903,-4134,7105,0,-1,-1
-159.42,6.21,-30.15,911,-4134,7104,0,0,-1
-159.42,6.21,-30.15,915,-4134,7096,-1,0,0
-159.42,6.21,-30.15,912,-4130,7099,0,0,0
-159.43,6.20,-30.15,899,-4124,7093,-1,0,0
-159.43,6.20,-30.16,879,-4120,7099,-1,-1,0
-159.43,6.21,-30.17,879,-4133,7092,-1,-1,-1
-159.43,6.21,-30.18,882,-4137,7106,-1,-1,-1
-159.42,6.22,-30.18,902,-4144,7110,0,-1,-1
-159.42,6.23,-30.18,908,-4145,7113,0,-1,-1
-159.42,6.24,-30.18,920,-4141,7109,0,0,-1
-159.42,6.23,-30.17,917,-4150,7111,0,0,-1
-159.42,6.23,-30.17,916,-4140,7114,0,0,0
-159.42,6.23,-30.16,905,-4138,7104,0,0,0
-159.42,6.22,-30.15,899,-4127,7100,0,0,0
-159.42,6.22,-30.15,897,-4124,7116,-1,-1,-1
-159.42,6.22,-30.15,891,-4124,7121,-1,-1,-1
-159.42,6.22,-30.15,896,-4129,7121,-1,-1,-1
-159.41,6.23,-30.16,893,-4122,7109,-1,-1,-1
-159.42,6.23,-30.16,902,-4121,7098,-1,-1,0
-159.42,6.23,-30.16,904,-4127,7110,-1,0,0
-159.42,6.23,-30.17,907,-4132,7116,-1,0,0
-159.41,6.23,-30.17,906,-4138,7115,-1,0,-1
-159.41,6.23,-30.17,896,-4137,7109,-1,0,-1
-159.42,6.22,-30.17,893,-4137,7104,-1,-1,0
-159.42,6.23,-30.17,895,-4139,7104,0,-1,0
-159.42,6.23,-30.17,905,-4139,7093,-1,-1,0
-159.42,6.23,-30.17,907,-4150,7100,0,0,-1
-159.42,6.23,-30.17,909,-4145,7107,0,0,-1
-159.42,6.23,-30.17,896,-4142,7098,0,-1,-1
-159.42,6.23,-30.17,896,-4141,7096,0,-1,0
-159.42,6.23,-30.17,903,-4136,7099,0,0,-1
-159.42,6.23,-30.17,903,-4129,7104,-1,-1,-1
-159.42,6.23,-30.17,906,-4130,7116,-1,-1,0
-159.42,6.23,-30.17,905,-4134,7114,0,0,-1
-159.42,6.24,-30.18,904,-4131,7108,-1,-1,0
-159.42,6.23,-30.17,899,-4135,7106,0,-1,0
-159.42,6.24,-30.18,894,-4136,7109,-1,0,0
-159.43,6.23,-30.18,896,-4133,7116,-1,0,0
-159.43,6.23,-30.19,892,-4143,7107,-1,-1,-1
-159.43,6.23,-30.20,891,-4153,7104,-1,-1,0
-159.43,6.24,-30.19,895,-4149,7105,-1,-1,-1
-159.43,6.24,-30.19,893,-4140,7104,0,-1,0
-159.43,6.24,-30.19,900,-4141,7099,-1,-1,0
-159.43,6.24,-30.20,909,-4148,7083,0,-1,-1
-159.43,6.24,-30.19,907,-4148,7096,0,0,0
-159.43,6.24,-30.19,908,-4148,7099,0,-1,-1
-159.43,6.24,-30.19,906,-4137,7111,0,-1,-1
-159.42,6.25,-30.18,909,-4130,7112,0,0,0
-159.42,6.25,-30.18,905,-4130,7109,-1,0,0
-159.43,6.24,-30.19,898,-4128,7104,-1,0,-1
-159.43,6.24,-30.19,886,-4131,7085,0,-1,0
-159.43,6.24,-30.19,900,-4142,7102,0,-1,-1
-159.42,6.25,-30.19,905,-4141,7104,0,-1,-1
-159.42,6.25,-30.19,907,-4137,7109,-1,-1,-1
-159.42,6.26,-30.20,918,-4138,7108,-1,0,-1
-159.42,6.25,-30.19,902,-4133,7107,0,0,-1
-159.42,6.25,-30.19,898,-4124,7109,-1,0,0
-159.43,6.24,-30.19,897,-4126,7103,-1,0,-1
-159.43,6.24,-30.19,896,-4134,7104,-1,-1,-1
-159.43,6.24,-30.20,891,-4146,7098,0,-1,-1
-159.42,6.25,-30.19,901,-4139,7117,0,-1,-1
-159.42,6.26,-30.20,911,-4144,7121,0,-1,-1
-159.41,6.27,-30.19,920,-4137,7113,0,0,-1
-159.41,6.27,-30.19,926,-4136,7088,0,0,-1
-159.42,6.26,-30.18,920,-4126,7092,0,0,0
-159.41,6.25,-30.18,912,-4123,7103,0,0,0
-159.41,6.24,-30.16,900,-4127,7118,0,0,0
-159.41,6.23,-30.16,887,-4124,7127,0,0,0
-159.42,6.22,-30.17,888,-4137,7122,-1,0,-1
-159.42,6.22,-30.17,881,-4138,7116,-1,-1,-1
-159.41,6.23,-30.17,894,-4146,7103,0,-1,-1
-159.41,6.23,-30.17,901,-4141,7103,0,0,-1
-159.40,6.23,-30.16,901,-4131,7109,-1,0,-1
-159.40,6.22,-30.16,917,-4129,7106,0,0,-1
-159.39,6.23,-30.16,915,-4126,7110,-1,0,-1
-159.40,6.22,-30.16,905,-4134,7098,0,0,-1
-159.40,6.22,-30.15,905,-4137,7107,0,0,-1
-159.40,6.22,-30.15,896,-4130,7103,0,0,-1
-159.39,6.22,-30.15,891,-4134,7109,-1,-1,-1
-159.39,6.22,-30.15,899,-4139,7103,0,0,-1
-159.38,6.22,-30.14,903,-4140,7086,0,0,-1
-159.38,6.22,-30.14,904,-4137,7094,0,0,-1
-159.38,6.21,-30.14,903,-4143,7104,0,0,-1
-159.38,6.21,-30.12,903,-4134,7120,0,0,0
-159.38,6.20,-30.13,897,-4146,7127,0,0,-1
-159.38,6.20,-30.12,892,-4143,7126,-1,0,0
-159.37,6.19,-30.13,887,-4140,7119,-1,0,-1
-159.38,6.19,-30.12,892,-4137,7113,0,0,-1
-159.38,6.19,-30.13,897,-4136,7117,-1,0,-1
-159.37,6.19,-30.13,903,-4129,7112,-1,0,-1
-159.37,6.19,-30.13,908,-4136,7102,0,0,-1
-159.37,6.19,-30.13,909,-4132,7101,0,0,0
-159.36,6.18,-30.13,901,-4133,7108,0,0,-1
-159.37,6.18,-30.13,902,-4137,7108,0,0,-1
-159.37,6.17,-30.12,893,-4141,7114,0,0,-1
-159.37,6.17,-30.12,891,-4144,7110,0,0,-1
-159.36,6.17,-30.12,892,-4135,7107,0,0,0
-159.36,6.16,-30.12,894,-4145,7106,0,0,-1
-159.36,6.16,-30.11,899,-4139,7120,0,0,-1
-159.35,6.16,-30.10,892,-4127,7118,0,0,-1
-159.36,6.16,-30.10,889,-4126,7115,-1,0,-1
-159.36,6.16,-30.10,896,-4132,7101,0,0,-1
-159.36,6.16,-30.10,896,-4129,7102,0,0,-1
-159.36,6.15,-30.10,894,-4129,7111,-1,0,0
-159.36,6.14,-30.11,886,-4122,7099,-1,0,0
-159.36,6.14,-30.11,881,-4129,7096,-1,0,0
-159.36,6.14,-30.11,887,-4139,7104,0,0,-1
-159.36,6.13,-30.12,891,-4141,7111,-1,0,0
-159.36,6.13,-30.12,900,-4143,7110,0,0,0
-159.36,6.13,-30.12,902,-4135,7109,0,0,0
-159.36,6.13,-30.12,894,-4131,7099,0,0,0
-159.36,6.12,-30.12,893,-4126,7105,0,0,0
-159.36,6.11,-30.11,881,-4128,7112,0,0,0
-159.36,6.10,-30.11,874,-4134,7101,0,0,-1
-159.36,6.10,-30.10,871,-4133,7115,0,0,-1
-159.36,6.10,-30.11,881,-4134,7115,0,0,-1
-159.36,6.11,-30.11,891,-4125,7116,-1,-1,-1
-159.36,6.11,-30.12,899,-4136,7102,0,0,-1
-159.35,6.11,-30.11,905,-4135,7117,0,0,-1
-159.35,6.11,-30.11,893,-4128,7115,-1,0,0
-159.36,6.11,-30.11,885,-4129,7106,-1,0,0
-159.36,6.11,-30.11,875,-4129,7113,-1,0,-1
-159.36,6.11,-30.11,878,-4130,7110,0,-1,-1
-159.36,6.11,-30.11,876,-4129,7114,-1,-1,-1
-159.36,6.12,-30.12,883,-4130,7114,-1,-1,-1
-159.36,6.12,-30.12,888,-4133,7115,-1,-1,-1
-159.35,6.12,-30.12,890,-4142,7105,0,-1,-1
-159.35,6.12,-30.12,885,-4140,7116,0,-1,-1
-159.35,6.12,-30.11,886,-4138,7113,0,0,-1
-159.35,6.12,-30.11,879,-4140,7121,0,-1,-1
-159.35,6.13,-30.11,884,-4139,7120,0,-1,-1
-159.35,6.13,-30.11,892,-4136,7126,0,-1,-1
-159.34,6.14,-30.11,901,-4130,7112,-1,-1,0
-159.34,6.14,-30.11,897,-4135,7110,-1,-1,-1
-159.34,6.14,-30.11,902,-4125,7112,-1,0,0
-159.34,6.14,-30.11,901,-4119,7116,-1,0,0
-159.34,6.14,-30.12,895,-4125,7113,-1,-1,0
-159.34,6.15,-30.13,897,-4142,7104,0,-1,-1
-159.34,6.14,-30.13,896,-4147,7112,0,-1,-1
-159.34,6.15,-30.13,894,-4143,7113,0,-1,-1
-159.34,6.15,-30.13,885,-4131,7108,-1,-1,-1
-159.34,6.15,-30.13,894,-4123,7102,0,-1,-1
-159.34,6.16,-30.13,899,-4128,7104,0,-1,-1
-159.33,6.16,-30.12,903,-4125,7104,0,-1,-1
-159.33,6.17,-30.12,907,-4126,7096,0,-1,0
-159.33,6.17,-30.12,901,-4131,7091,0,0,-1
-159.33,6.17,-30.12,898,-4143,7096,0,0,-1
-159.33,6.17,-30.12,898,-4127,7109,-1,-1,0
-159.33,6.17,-30.12,897,-4130,7111,-1,-1,-1
-159.33,6.17,-30.12,897,-4139,7108,-1,-1,-1
-159.33,6.18,-30.13,894,-4138,7099,0,-1,-1
-159.33,6.18,-30.13,897,-4134,7098,0,-1,0
-159.33,6.18,-30.12,905,-4124,7111,0,-1,0
-159.33,6.18,-30.12,907,-4127,7118,-1,-1,-1
-159.33,6.18,-30.12,902,-4132,7120,0,0,-1
-159.33,6.17,-30.12,902,-4130,7117,0,0,0
-159.33,6.18,-30.12,901,-4125,7112,0,0,-1
-159.33,6.18,-30.11,901,-4125,7125,0,-1,-1
-159.32,6.19,-30.12,905,-4131,7104,0,-1,-1
-159.32,6.19,-30.11,910,-4137,7128,0,0,-1
-159.32,6.19,-30.11,908,-4130,7126,0,0,-1
-159.32,6.19,-30.10,888,-4124,7128,-1,0,0
-159.32,6.18,-30.11,886,-4119,7111,-1,0,0
-159.33,6.18,-30.12,885,-4126,7119,-1,-1,-1
-159.32,6.18,-30.12,883,-4136,7125,-1,-1,-1
-159.32,6.19,-30.13,894,-4136,7116,-1,-1,-1
-159.32,6.20,-30.13,903,-4140,7111,0,-1,-1
-159.31,6.20,-30.12,901,-4139,7110,0,-1,-1
-159.31,6.20,-30.12,910,-4139,7112,0,0,-1
-159.31,6.20,-30.11,914,-4131,7117,0,0,-1
-159.31,6.20,-30.11,907,-4123,7113,0,0,0
-159.31,6.19,-30.10,894,-4120,7117,0,0,0
-159.31,6.19,-30.10,889,-4120,7115,0,0,0
-159.31,6.19,-30.10,883,-4127,7124,-1,0,-1
-159.32,6.19,-30.10,882,-4128,7116,-1,-1,0
-159.32,6.19,-30.11,886,-4128,7106,-1,-1,-1
-159.32,6.19,-30.11,892,-4131,7101,0,-1,-1
-159.32,6.20,-30.11,901,-4132,7114,0,0,-1
-159.32,6.20,-30.11,899,-4130,7116,0,0,-1
-159.32,6.20,-30.12,903,-4136,7109,-1,-1,-1
-159.31,6.20,-30.12,899,-4134,7114,-1,0,-1
-159.32,6.20,-30.12,900,-4132,7096,0,-1,0
-159.32,6.20,-30.12,905,-4135,7102,0,0,-1
-159.31,6.20,-30.11,902,-4132,7107,0,0,-1
-159.31,6.20,-30.11,892,-4123,7114,-1,-1,-1
-159.31,6.20,-30.11,893,-4121,7108,-1,0,-1
-159.31,6.19,-30.12,891,-4133,7104,-1,0,-1
-159.31,6.20,-30.12,904,-4133,7099,0,0,-1
-159.31,6.19,-30.12,900,-4133,7112,-1,-1,0
-159.31,6.19,-30.13,905,-4134,7110,0,0,-1
-159.31,6.19,-30.13,897,-4143,7107,0,0,0
-159.31,6.19,-30.12,897,-4140,7115,0,-1,-1
-159.31,6.19,-30.12,896,-4129,7109,0,0,-1
-159.31,6.19,-30.12,900,-4123,7104,-1,-1,-1
-159.31,6.20,-30.12,898,-4122,7104,-1,-1,-1
-159.31,6.20,-30.12,902,-4136,7102,0,-1,-1
-159.31,6.20,-30.12,900,-4131,7111,0,0,-1
-159.31,6.20,-30.12,893,-4121,7112,-1,-1,0
-159.31,6.20,-30.13,898,-4125,7102,-1,-1,0
-159.31,6.19,-30.13,891,-4135,7099,-1,-1,0
-159.31,6.20,-30.13,893,-4139,7104,0,-1,-1
-159.31,6.20,-30.14,893,-4135,7104,-1,-1,0
-159.32,6.21,-30.14,904,-4133,7095,0,-1,-1
-159.32,6.21,-30.14,912,-4135,7109,0,-1,0
-159.32,6.21,-30.14,908,-4140,7113,0,0,0
-159.32,6.21,-30.14,902,-4147,7114,0,0,-1
-159.32,6.20,-30.14,895,-4134,7113,0,0,0
-159.32,6.19,-30.14,882,-4134,7104,-1,-1,0
-159.32,6.20,-30.15,879,-4136,7102,-1,-1,-1
-159.32,6.21,-30.15,894,-4135,7107,-1,-1,0
-159.31,6.22,-30.15,908,-4132,7107,0,-1,-1
-159.32,6.21,-30.15,914,-4138,7117,-1,0,0
-159.32,6.21,-30.15,920,-4124,7110,-1,0,0
-159.32,6.21,-30.15,901,-4130,7109,-1,0,0
-159.32,6.20,-30.15,891,-4130,7110,-1,0,0
-159.33,6.19,-30.16,876,-4132,7102,-1,-1,0
-159.33,6.20,-30.17,886,-4136,7103,-1,-1,-1
-159.33,6.20,-30.17,885,-4141,7112,0,-1,-1
-159.33,6.21,-30.17,898,-4147,7118,0,-1,-1
-159.33,6.22,-30.17,914,-4144,7119,0,-1,-1
-159.32,6.22,-30.17,924,-4137,7101,0,0,-1
-159.32,6.22,-30.16,920,-4125,7104,0,0,0
-159.32,6.22,-30.15,915,-4119,7110,0,0,0
-159.33,6.21,-30.15,908,-4129,7108,0,0,0
-159.33,6.21,-30.14,901,-4131,7117,0,0,-1
-159.33,6.21,-30.14,890,-4130,7118,-1,-1,0
-159.33,6.21,-30.15,899,-4129,7114,-1,-1,-1
-159.33,6.22,-30.15,902,-4130,7111,-1,-1,-1
-159.33,6.22,-30.16,904,-4137,7096,0,0,-1
-159.32,6.22,-30.15,910,-4134,7108,0,0,-1
-159.32,6.22,-30.15,911,-4130,7102,0,0,-1
-159.31,6.21,-30.15,901,-4128,7106,-1,0,-1
-159.32,6.21,-30.15,901,-4137,7087,0,0,-1
-159.31,6.21,-30.15,898,-4142,7101,0,0,-1
-159.31,6.21,-30.14,896,-4135,7109,0,0,-1
-159.31,6.21,-30.14,892,-4140,7110,0,-1,-1
-159.30,6.21,-30.13,904,-4134,7110,0,0,-1
-159.30,6.21,-30.13,907,-4140,7106,0,0,-1
-159.29,6.21,-30.13,906,-4137,7106,0,0,-1
-159.30,6.20,-30.13,904,-4128,7110,0,0,-1
-159.29,6.20,-30.13,898,-4132,7111,0,0,-1
-159.29,6.19,-30.12,894,-4128,7124,0,0,-1
-159.29,6.19,-30.11,901,-4128,7111,0,0,-1
-159.29,6.19,-30.11,902,-4125,7126,0,0,-1
-159.29,6.19,-30.11,903,-4128,7120,0,0,-1
-159.28,6.19,-30.11,908,-4129,7104,0,0,-1
-159.28,6.20,-30.11,916,-4130,7107,0,0,-1
-159.28,6.19,-30.11,900,-4126,7112,0,0,-1
-159.28,6.19,-30.11,894,-4132,7110,-1,0,0
-159.28,6.18,-30.11,893,-4136,7109,0,0,0
-159.28,6.18,-30.11,893,-4134,7124,-1,0,-1
-159.27,6.18,-30.11,891,-4137,7119,0,0,-1
-159.27,6.18,-30.11,899,-4128,7127,0,0,-1
-159.27,6.18,-30.10,893,-4134,7125,0,0,-1
-159.27,6.18,-30.10,891,-4132,7128,0,-1,-1
-159.27,6.17,-30.10,897,-4136,7114,0,0,-1
-159.27,6.17,-30.09,906,-4132,7114,0,0,-1
-159.26,6.17,-30.08,907,-4126,7131,0,0,-1
-159.26,6.17,-30.08,901,-4128,7119,0,0,0
-159.26,6.17,-30.09,896,-4128,7112,0,0,-1
-159.26,6.17,-30.08,888,-4129,7114,0,0,-1
-159.26,6.16,-30.09,889,-4134,7118,-1,0,0
-159.27,6.15,-30.09,882,-4134,7109,-1,0,0
-159.27,6.15,-30.10,884,-4137,7100,0,-1,-1
-159.26,6.16,-30.10,895,-4137,7105,0,-1,-1
-159.26,6.16,-30.10,901,-4138,7104,0,-1,-1
-159.26,6.16,-30.09,914,-4132,7113,0,0,-1
-159.25,6.16,-30.08,917,-4127,7122,0,0,0
-159.26,6.15,-30.08,907,-4134,7103,0,0,0
-159.26,6.14,-30.08,896,-4128,7099,-1,0,0
-159.27,6.13,-30.09,883,-4117,7101,0,0,0
-159.27,6.13,-30.09,878,-4119,7109,-1,-1,-1
-159.27,6.13,-30.09,880,-4143,7103,0,-1,-1
-159.26,6.14,-30.09,895,-4145,7119,0,-1,-1
-159.26,6.14,-30.09,901,-4142,7116,0,-1,-1
-159.26,6.14,-30.09,911,-4135,7118,0,0,-1
-159.26,6.14,-30.09,913,-4125,7115,0,0,0
-159.25,6.14,-30.08,905,-4124,7114,0,0,0
-159.25,6.13,-30.09,891,-4130,7119,0,0,0
-159.26,6.12,-30.09,879,-4126,7109,0,0,0
-159.26,6.11,-30.08,880,-4130,7111,-1,0,0
-159.26,6.11,-30.08,878,-4139,7112,0,0,-1
-159.26,6.11,-30.09,874,-4131,7115,-1,0,-1
-159.26,6.11,-30.09,878,-4137,7103,0,-1,-1
-159.26,6.11,-30.09,879,-4135,7111,0,-1,-1
-159.26,6.11,-30.09,891,-4128,7103,0,0,-1
-159.26,6.11,-30.09,899,-4128,7102,-1,0,-1
-159.26,6.11,-30.09,892,-4131,7109,-1,0,0
-159.26,6.11,-30.09,891,-4129,7112,0,0,-1
-159.26,6.11,-30.09,881,-4134,7118,-1,-1,-1
-159.26,6.11,-30.10,884,-4124,7108,-1,-1,-1
-159.26,6.11,-30.10,882,-4121,7116,-1,-1,-1
-159.26,6.12,-30.10,894,-4123,7105,-1,-1,0
-159.26,6.12,-30.11,884,-4131,7098,0,0,-1
-159.26,6.12,-30.11,883,-4137,7114,-1,-1,-1
-159.26,6.12,-30.11,879,-4137,7112,0,-1,-1
-159.25,6.13,-30.11,876,-4136,7117,-1,-1,-1
-159.25,6.13,-30.11,875,-4132,7115,0,-1,-1
-159.25,6.13,-30.11,886,-4133,7112,0,-1,-1
-159.25,6.14,-30.10,891,-4128,7107,0,-1,-1
-159.25,6.15,-30.10,901,-4115,7103,0,-1,-1
-159.25,6.15,-30.10,902,-4121,7107,-1,0,0
-159.25,6.15,-30.10,901,-4119,7109,-1,0,0
-159.25,6.15,-30.10,899,-4126,7117,-1,0,0
-159.25,6.15,-30.10,889,-4129,7120,-1,-1,-1
-159.25,6.16,-30.10,879,-4128,7120,-1,-1,0
-159.25,6.16,-30.11,882,-4130,7116,-1,-1,-1
-159.25,6.16,-30.11,882,-4131,7115,-1,-1,-1
-159.25,6.16,-30.12,893,-4133,7101,-1,-1,-1
-159.25,6.17,-30.12,898,-4139,7100,-1,-1,-1
-159.25,6.17,-30.12,891,-4141,7096,0,-1,-1
-159.24,6.18,-30.11,896,-4134,7109,0,-1,-1
-159.24,6.18,-30.11,895,-4116,7120,-1,-1,0
-159.24,6.18,-30.11,895,-4118,7127,-1,0,-1
-159.24,6.18,-30.11,892,-4125,7118,-1,-1,0
-159.24,6.18,-30.11,890,-4129,7120,0,0,-1
-159.24,6.18,-30.11,899,-4128,7119,0,-1,-1
-159.24,6.19,-30.11,903,-4132,7127,-1,-1,-1
-159.24,6.20,-30.11,910,-4130,7122,-1,-1,-1
-159.24,6.20,-30.11,916,-4130,7112,0,0,0
-159.24,6.20,-30.11,909,-4126,7110,-1,0,0
-159.24,6.20,-30.12,889,-4125,7100,-1,-1,0
-159.24,6.20,-30.12,881,-4124,7116,-1,-1,0
-159.25,6.20,-30.12,877,-4135,7120,-1,-1,-1
-159.24,6.21,-30.13,880,-4150,7119,0,-1,-1
-159.24,6.21,-30.13,890,-4152,7120,-1,-1,-1
-159.23,6.22,-30.13,897,-4143,7115,0,-1,-1
