Yaw,Pitch,Roll,AX,AY,AZ,GX,GY,GZ
85.13,179.46,-133.19,82,-6140,-5770,0,0,0
85.13,179.46,-133.19,79,-6143,-5763,0,0,-1
85.13,179.46,-133.19,75,-6148,-5762,-1,0,-1
85.13,179.46,-133.19,79,-6147,-5769,-1,-1,-1
85.13,179.46,-133.19,83,-6147,-5775,-1,-1,0
85.13,179.46,-133.19,80,-6150,-5764,-1,-1,0
85.14,179.46,-133.19,81,-6144,-5773,0,0,0
85.13,179.46,-133.19,81,-6147,-5770,0,0,-1
85.13,179.45,-133.19,79,-6143,-5766,0,0,0
85.13,179.46,-133.19,74,-6142,-5765,0,-1,0
85.13,179.46,-133.19,79,-6143,-5765,0,-1,0
85.14,179.45,-133.18,82,-6151,-5771,-1,-1,0
85.14,179.45,-133.18,85,-6151,-5773,0,0,0
85.14,179.45,-133.18,90,-6144,-5774,0,-1,0
85.14,179.45,-133.18,92,-6144,-5768,-1,0,-1
85.14,179.45,-133.19,86,-6145,-5765,-1,0,0
85.14,179.45,-133.19,74,-6140,-5774,-1,-1,0
85.14,179.45,-133.19,74,-6143,-5769,-1,0,0
85.13,179.45,-133.19,70,-6149,-5772,0,0,0
85.13,179.45,-133.19,78,-6143,-5772,-1,0,-1
85.14,179.45,-133.19,86,-6148,-5766,0,-1,0
85.14,179.45,-133.19,90,-6142,-5769,0,0,0
85.14,179.45,-133.19,86,-6139,-5767,-1,-1,-1
85.14,179.45,-133.19,82,-6142,-5767,0,0,0
85.13,179.44,-133.18,88,-6144,-5758,0,0,0
85.13,179.44,-133.18,87,-6148,-5756,0,0,0
85.12,179.44,-133.18,87,-6146,-5764,0,0,-1
85.12,179.44,-133.18,86,-6144,-5760,0,-1,0
85.13,179.44,-133.18,77,-6145,-5771,0,-1,0
85.13,179.44,-133.18,77,-6141,-5767,-1,-1,0
85.13,179.44,-133.18,78,-6145,-5776,-1,0,0
85.12,179.44,-133.19,80,-6149,-5773,-1,0,0
85.12,179.44,-133.19,85,-6142,-5777,0,-1,0
85.12,179.45,-133.18,82,-6138,-5772,0,-1,0
85.12,179.45,-133.18,83,-6140,-5776,0,0,-1
85.12,179.45,-133.18,90,-6144,-5770,-1,0,-1
85.13,179.44,-133.18,84,-6150,-5761,-1,-1,-1
85.12,179.44,-133.19,76,-6146,-5773,-1,-1,-1
85.13,179.45,-133.20,71,-6140,-5783,-1,-1,0
85.13,179.45,-133.20,69,-6139,-5782,0,0,-1
85.13,179.44,-133.20,76,-6133,-5782,0,0,0
85.12,179.44,-133.19,77,-6137,-5772,0,0,0
85.12,179.44,-133.19,78,-6140,-5776,0,-1,0
85.12,179.44,-133.19,80,-6140,-5772,0,0,0
85.11,179.45,-133.19,78,-6140,-5769,0,0,0
85.12,179.44,-133.19,76,-6147,-5771,0,0,-1
85.12,179.44,-133.19,84,-6139,-5766,-1,0,-1
85.10,179.44,-133.19,84,-6139,-5769,-1,0,0
85.10,179.44,-133.19,78,-6139,-5765,-1,0,0
85.11,179.44,-133.20,78,-6142,-5767,-1,0,0
85.11,179.44,-133.20,81,-6147,-5772,-1,0,-1
85.11,179.44,-133.20,75,-6141,-5765,-1,-1,-1
85.11,179.44,-133.20,75,-6146,-5770,-1,-1,0
85.12,179.44,-133.21,77,-6147,-5781,-1,-1,0
85.12,179.44,-133.21,72,-6141,-5780,-1,-1,-1
85.12,179.45,-133.21,78,-6138,-5790,0,0,0
85.12,179.44,-133.21,78,-6136,-5788,0,0,0
85.12,179.44,-133.21,81,-6139,-5791,0,0,0
85.12,179.44,-133.21,80,-6143,-5780,0,-1,0
85.12,179.45,-133.20,74,-6143,-5771,0,-1,0
85.12,179.45,-133.20,80,-6143,-5774,-1,-1,-1
85.12,179.45,-133.20,86,-6143,-5782,0,0,0
85.12,179.45,-133.21,82,-6137,-5781,-1,0,-1
85.12,179.44,-133.21,90,-6144,-5774,0,0,-1
85.12,179.44,-133.21,88,-6145,-5770,-1,0,-1
85.12,179.44,-133.21,81,-6144,-5777,-1,0,0
85.12,179.44,-133.21,74,-6143,-5773,-1,0,0
85.11,179.45,-133.22,76,-6143,-5777,0,0,-1
85.12,179.44,-133.21,77,-6147,-5769,0,0,-1
85.12,179.44,-133.21,84,-6143,-5767,0,0,0
85.12,179.44,-133.21,86,-6138,-5769,0,-1,0
85.12,179.44,-133.21,77,-6136,-5762,0,0,0
85.12,179.44,-133.21,82,-6140,-5762,-1,-1,0
85.12,179.44,-133.21,73,-6140,-5768,-1,-1,0
85.12,179.45,-133.20,74,-6149,-5766,0,0,0
85.12,179.45,-133.20,74,-6151,-5769,0,-1,-1
85.12,179.44,-133.21,77,-6147,-5770,-1,0,-1
85.12,179.44,-133.21,74,-6144,-5772,-1,-1,0
85.12,179.45,-133.20,80,-6138,-5775,0,-1,0
85.12,179.45,-133.20,81,-6131,-5775,0,-1,0
85.12,179.45,-133.20,77,-6142,-5768,0,0,0
85.11,179.45,-133.19,76,-6147,-5769,-1,0,-1
85.12,179.45,-133.20,76,-6147,-5768,-1,0,-1
85.12,179.45,-133.20,73,-6143,-5765,-1,-1,0
85.11,179.45,-133.21,83,-6143,-5765,-1,0,0
85.11,179.45,-133.21,83,-6140,-5770,-1,0,0
85.11,179.45,-133.21,77,-6143,-5764,0,0,-1
85.11,179.45,-133.21,82,-6141,-5766,0,0,0
85.11,179.45,-133.21,85,-6145,-5767,-1,-1,0
85.11,179.45,-133.21,79,-6141,-5766,-1,-1,0
85.11,179.45,-133.21,75,-6145,-5768,-1,0,0
85.11,179.45,-133.21,75,-6141,-5770,0,0,0
85.12,179.45,-133.20,70,-6146,-5769,0,0,-1
85.10,179.45,-133.20,76,-6140,-5768,-1,0,0
85.12,179.45,-133.20,85,-6140,-5766,-1,-1,0
85.10,179.45,-133.20,78,-6141,-5767,0,-1,0
85.10,179.45,-133.20,77,-6147,-5767,-1,-1,0
85.12,179.45,-133.20,80,-6145,-5776,-1,-1,-1
85.12,179.46,-133.20,79,-6143,-5769,-1,-1,0
85.12,179.46,-133.20,74,-6146,-5758,-1,-1,0
85.11,179.46,-133.21,76,-6150,-5762,-1,-1,0
85.12,179.46,-133.21,75,-6150,-5769,-1,0,-1
85.12,179.46,-133.21,72,-6146,-5782,0,0,-1
85.12,179.46,-133.21,75,-6141,-5776,0,-1,0
85.11,179.46,-133.21,77,-6144,-5769,0,-1,0
85.12,179.46,-133.21,72,-6135,-5762,-1,-1,0
85.12,179.47,-133.21,69,-6132,-5765,-1,-1,-1
85.12,179.47,-133.21,69,-6135,-5765,-1,-1,0
85.12,179.47,-133.21,76,-6143,-5770,-1,0,0
85.12,179.47,-133.21,80,-6140,-5762,0,-1,0
85.12,179.47,-133.21,77,-6144,-5775,0,0,0
85.12,179.47,-133.21,77,-6140,-5776,-1,0,-1
85.12,179.47,-133.21,75,-6138,-5770,-1,-1,-1
85.12,179.47,-133.21,76,-6136,-5773,-1,-1,0
85.12,179.47,-133.21,72,-6143,-5772,-1,0,-1
85.12,179.47,-133.21,72,-6137,-5772,-1,-1,0
85.12,179.47,-133.21,74,-6141,-5772,-1,-1,-1
85.12,179.47,-133.21,78,-6145,-5773,0,-1,-1
85.12,179.47,-133.21,76,-6142,-5780,0,0,-1
85.12,179.46,-133.22,82,-6139,-5790,-1,0,0
85.12,179.46,-133.22,80,-6132,-5782,0,-1,0
85.12,179.46,-133.22,81,-6141,-5769,-1,-1,0
85.12,179.46,-133.22,82,-6140,-5775,-1,-1,0
85.13,179.47,-133.22,79,-6141,-5773,-1,0,0
85.13,179.47,-133.22,73,-6144,-5784,-1,-1,-1
85.13,179.47,-133.22,78,-6142,-5775,0,-1,0
85.12,179.47,-133.21,77,-6149,-5761,0,-1,-1
85.12,179.47,-133.21,84,-6142,-5763,-1,-1,0
85.13,179.47,-133.22,82,-6140,-5773,-1,-1,0
85.13,179.48,-133.22,80,-6133,-5778,0,-1,0
85.13,179.48,-133.22,79,-6138,-5772,0,-1,0
85.12,179.48,-133.21,75,-6143,-5766,0,-1,0
85.12,179.48,-133.21,77,-6146,-5755,-1,-1,-1
85.12,179.47,-133.21,75,-6140,-5766,-1,-1,-1
85.13,179.47,-133.22,78,-6133,-5775,-1,-1,0
85.13,179.48,-133.22,63,-6137,-5786,-1,-1,-1
85.14,179.47,-133.23,70,-6140,-5778,0,0,-1
85.13,179.47,-133.22,76,-6138,-5780,0,0,-1
85.13,179.47,-133.22,76,-6136,-5771,0,0,0
85.13,179.47,-133.22,72,-6139,-5770,0,0,0
85.13,179.48,-133.22,73,-6134,-5770,0,0,0
85.13,179.48,-133.22,76,-6141,-5774,0,-1,0
85.13,179.48,-133.22,75,-6145,-5775,0,0,0
85.12,179.47,-133.21,78,-6150,-5772,-1,0,-1
85.13,179.48,-133.21,73,-6145,-5770,-1,-1,0
85.13,179.48,-133.21,75,-6145,-5770,0,-1,0
85.13,179.48,-133.21,76,-6142,-5770,-1,0,-1
85.13,179.48,-133.21,71,-6148,-5774,0,0,-1
85.13,179.48,-133.21,77,-6144,-5773,0,0,0
85.13,179.48,-133.21,72,-6130,-5764,0,-1,0
85.13,179.48,-133.21,70,-6130,-5768,-1,-1,0
85.13,179.48,-133.21,76,-6130,-5767,0,-1,0
85.11,179.48,-133.21,78,-6136,-5777,0,-1,0
85.11,179.48,-133.21,79,-6136,-5776,0,0,0
85.11,179.48,-133.21,84,-6134,-5778,0,0,0
85.13,179.48,-133.21,86,-6143,-5778,0,-1,-1
85.12,179.48,-133.21,80,-6138,-5769,0,-1,-1
85.12,179.48,-133.21,82,-6143,-5772,0,0,0
85.12,179.47,-133.21,76,-6144,-5771,-1,0,-1
85.12,179.47,-133.21,72,-6140,-5778,-1,-1,-1
85.13,179.48,-133.22,75,-6131,-5780,0,0,0
85.13,179.48,-133.22,76,-6136,-5768,-1,0,-1
85.13,179.48,-133.22,76,-6133,-5772,-1,-1,-1
85.13,179.47,-133.22,76,-6140,-5770,-1,0,-1
85.13,179.48,-133.22,74,-6140,-5770,0,-1,-1
85.13,179.48,-133.22,74,-6140,-5761,0,-1,0
85.13,179.48,-133.22,75,-6145,-5775,-1,-1,0
85.12,179.48,-133.22,76,-6142,-5780,0,-1,0
85.12,179.48,-133.22,81,-6151,-5781,0,0,0
85.12,179.47,-133.21,79,-6151,-5776,0,0,-1
85.12,179.47,-133.21,82,-6138,-5771,0,0,0
85.12,179.47,-133.21,80,-6142,-5773,-1,-1,0
85.11,179.47,-133.21,76,-6147,-5776,-1,-1,0
85.12,179.47,-133.21,84,-6142,-5774,0,0,-1
85.12,179.47,-133.21,80,-6143,-5772,-1,0,-1
85.12,179.47,-133.21,79,-6143,-5766,0,0,-1
85.12,179.47,-133.21,77,-6148,-5779,0,0,0
85.12,179.47,-133.21,80,-6145,-5765,0,0,0
85.12,179.47,-133.21,74,-6139,-5770,-1,-1,0
85.12,179.47,-133.21,74,-6135,-5774,-1,-1,-1
85.12,179.47,-133.21,84,-6142,-5777,0,0,0
85.12,179.46,-133.21,79,-6141,-5777,0,0,0
85.12,179.47,-133.20,78,-6138,-5782,0,-1,0
85.12,179.47,-133.20,79,-6147,-5777,0,0,0
85.11,179.46,-133.20,78,-6152,-5769,0,0,-1
85.11,179.46,-133.20,74,-6152,-5765,-1,0,-1
85.11,179.46,-133.20,80,-6149,-5757,-1,0,-1
85.12,179.46,-133.21,76,-6139,-5758,-1,-1,-1
85.12,179.46,-133.21,80,-6127,-5769,0,0,-1
85.12,179.46,-133.21,81,-6135,-5768,0,0,-1
85.11,179.46,-133.21,88,-6139,-5779,0,0,0
85.11,179.46,-133.21,85,-6143,-5782,0,0,0
85.11,179.46,-133.21,77,-6143,-5784,0,-1,0
85.11,179.46,-133.20,74,-6148,-5786,0,-1,0
85.10,179.46,-133.19,71,-6152,-5778,0,0,0
85.12,179.46,-133.19,72,-6153,-5767,0,0,-1
85.12,179.46,-133.19,72,-6150,-5763,-1,0,-1
85.12,179.46,-133.19,76,-6147,-5762,-1,0,-1
85.11,179.45,-133.19,80,-6146,-5753,-1,0,-1
85.11,179.45,-133.19,87,-6146,-5759,-1,0,-1
85.11,179.45,-133.19,90,-6146,-5771,0,-1,-1
85.11,179.45,-133.19,82,-6140,-5770,-1,-1,-1
85.12,179.45,-133.20,85,-6138,-5767,-1,-1,0
85.12,179.45,-133.20,81,-6138,-5769,-1,-1,0
85.12,179.46,-133.20,79,-6135,-5777,0,-1,0
85.11,179.46,-133.21,73,-6137,-5782,0,0,0
85.12,179.45,-133.20,74,-6133,-5766,0,-1,0
85.11,179.46,-133.20,70,-6141,-5764,0,-1,0
85.11,179.46,-133.20,67,-6145,-5767,0,0,-1
85.10,179.46,-133.19,75,-6154,-5778,0,0,-1
85.10,179.46,-133.19,71,-6150,-5781,0,0,-1
85.11,179.45,-133.19,74,-6149,-5776,0,0,-1
85.11,179.45,-133.19,85,-6147,-5763,-1,0,0
85.10,179.46,-133.19,81,-6151,-5761,-1,-1,0
85.10,179.45,-133.19,76,-6149,-5766,-1,0,-1
85.10,179.45,-133.21,81,-6144,-5780,-1,0,-1
85.10,179.45,-133.21,79,-6141,-5782,0,0,0
85.10,179.45,-133.21,75,-6136,-5774,0,0,-1
85.10,179.45,-133.20,79,-6136,-5768,0,0,-1
85.10,179.45,-133.19,77,-6141,-5771,0,-1,0
85.10,179.45,-133.19,78,-6138,-5770,-1,-1,0
85.10,179.45,-133.19,81,-6137,-5768,0,-1,0
85.11,179.45,-133.19,88,-6142,-5774,0,-1,-1
85.11,179.45,-133.19,89,-6141,-5774,0,0,-1
85.11,179.45,-133.19,90,-6141,-5772,0,0,0
85.10,179.44,-133.19,85,-6137,-5770,0,-1,0
85.10,179.44,-133.19,80,-6136,-5763,0,0,-1
85.10,179.44,-133.19,83,-6146,-5766,0,0,0
85.10,179.44,-133.19,81,-6151,-5768,-1,-1,0
85.10,179.44,-133.19,78,-6153,-5779,-1,0,-1
85.10,179.44,-133.19,89,-6144,-5779,0,0,-1
85.10,179.44,-133.19,92,-6137,-5778,0,0,0
85.10,179.44,-133.19,86,-6142,-5774,0,0,0
85.10,179.44,-133.19,80,-6145,-5777,0,0,0
85.10,179.44,-133.19,78,-6151,-5777,-1,-1,-1
85.10,179.44,-133.19,80,-6150,-5773,-1,-1,-1
85.10,179.44,-133.19,78,-6151,-5766,-1,-1,-1
85.09,179.44,-133.20,78,-6144,-5765,-1,-1,0
85.09,179.43,-133.20,81,-6144,-5774,0,0,-1
85.09,179.44,-133.20,81,-6145,-5771,0,0,-1
85.09,179.43,-133.20,84,-6140,-5778,0,0,-1
85.09,179.43,-133.20,88,-6141,-5781,0,-1,0
85.09,179.43,-133.20,90,-6137,-5775,0,-1,0
85.09,179.43,-133.19,83,-6146,-5771,0,0,0
85.09,179.43,-133.19,87,-6146,-5775,0,-1,0
85.09,179.43,-133.19,82,-6144,-5770,-1,0,0
85.09,179.43,-133.19,77,-6144,-5765,-1,0,0
85.09,179.43,-133.19,81,-6139,-5763,-1,-1,0
85.09,179.43,-133.19,87,-6146,-5763,-1,-1,-1
85.09,179.43,-133.19,82,-6152,-5774,-1,0,0
85.09,179.43,-133.20,80,-6141,-5776,-1,0,-1
85.09,179.43,-133.20,75,-6143,-5762,-1,-1,-1
85.10,179.44,-133.21,72,-6137,-5763,-1,-1,0
85.08,179.44,-133.21,73,-6134,-5761,-1,-1,0
85.08,179.44,-133.21,76,-6136,-5762,-1,0,0
85.08,179.44,-133.21,76,-6133,-5766,0,0,-1
85.08,179.44,-133.21,75,-6129,-5764,0,-1,0
85.08,179.44,-133.21,78,-6138,-5765,0,-1,0
85.08,179.44,-133.21,80,-6145,-5770,0,0,0
85.08,179.44,-133.21,82,-6145,-5768,0,0,0
85.08,179.44,-133.20,82,-6150,-5771,0,0,0
85.08,179.44,-133.20,84,-6151,-5773,-1,0,-1
85.08,179.44,-133.20,85,-6145,-5769,-1,-1,-1
85.08,179.44,-133.20,86,-6145,-5780,-1,0,-1
85.09,179.43,-133.19,90,-6144,-5767,-1,0,-1
85.09,179.43,-133.20,86,-6137,-5767,0,0,-1
85.09,179.43,-133.20,83,-6138,-5770,-1,-1,0
85.09,179.43,-133.20,76,-6137,-5767,0,-1,-1
85.09,179.43,-133.20,82,-6136,-5771,0,-1,-1
85.09,179.43,-133.19,82,-6143,-5768,0,-1,0
85.09,179.43,-133.19,81,-6143,-5771,0,-1,0
85.09,179.43,-133.19,83,-6141,-5763,0,0,-1
85.08,179.44,-133.19,80,-6145,-5765,-1,0,-1
85.08,179.43,-133.18,82,-6144,-5767,0,0,0
85.08,179.43,-133.18,82,-6136,-5768,0,0,-1
85.08,179.43,-133.19,86,-6136,-5776,0,-1,-1
85.08,179.43,-133.19,85,-6132,-5765,0,0,0
85.08,179.43,-133.19,85,-6135,-5772,0,0,0
85.08,179.43,-133.18,86,-6139,-5775,0,-1,0
85.09,179.43,-133.18,86,-6147,-5761,0,-1,-1
85.08,179.43,-133.17,82,-6155,-5756,-1,-1,0
85.08,179.43,-133.17,80,-6150,-5756,-1,-1,-1
85.09,179.43,-133.18,82,-6146,-5771,-1,0,-1
85.09,179.43,-133.19,86,-6143,-5771,-1,-1,-1
85.09,179.43,-133.19,82,-6135,-5774,-1,0,0
85.09,179.43,-133.19,78,-6136,-5780,0,0,0
85.09,179.44,-133.20,76,-6134,-5785,-1,0,-1
85.09,179.43,-133.20,81,-6137,-5789,-1,-1,0
85.09,179.43,-133.20,85,-6142,-5784,-1,-1,0
85.09,179.43,-133.20,84,-6142,-5772,0,0,0
85.09,179.43,-133.19,81,-6146,-5762,0,0,0
85.09,179.43,-133.19,85,-6146,-5765,-1,0,-1
85.09,179.43,-133.19,84,-6144,-5760,-1,-1,0
85.09,179.44,-133.20,80,-6147,-5763,-1,-1,0
85.09,179.44,-133.20,86,-6145,-5769,-1,-1,0
85.09,179.44,-133.20,83,-6152,-5766,0,0,-1
85.09,179.44,-133.20,86,-6149,-5775,0,0,-1
85.09,179.44,-133.19,86,-6147,-5774,0,-1,0
85.09,179.44,-133.19,85,-6144,-5783,-1,-1,0
85.10,179.45,-133.20,87,-6150,-5789,-1,-1,0
85.10,179.44,-133.20,86,-6141,-5773,-1,0,-1
85.08,179.44,-133.21,79,-6142,-5780,0,0,-1
85.10,179.44,-133.20,84,-6141,-5776,0,0,-1
85.10,179.44,-133.20,88,-6143,-5774,-1,0,0
85.10,179.44,-133.20,86,-6143,-5767,-1,-1,0
85.10,179.44,-133.20,83,-6143,-5769,-1,-1,0
85.09,179.45,-133.21,83,-6138,-5776,-1,-1,0
85.09,179.45,-133.21,78,-6143,-5783,-1,0,0
85.09,179.45,-133.21,76,-6147,-5777,-1,0,0
85.09,179.45,-133.21,79,-6143,-5775,-1,-1,0
85.10,179.45,-133.21,88,-6144,-5768,-1,-1,0
85.10,179.45,-133.21,88,-6142,-5768,-1,-1,0
85.10,179.46,-133.21,83,-6137,-5765,-1,-1,0
85.09,179.46,-133.22,76,-6140,-5769,-1,-1,0
85.10,179.46,-133.23,81,-6135,-5770,-1,-1,0
85.10,179.47,-133.22,80,-6133,-5760,-1,-1,0
85.10,179.47,-133.22,82,-6138,-5757,-1,-1,0
85.10,179.47,-133.22,83,-6142,-5773,0,0,0
85.10,179.47,-133.22,85,-6137,-5766,-1,-1,0
85.10,179.47,-133.22,85,-6134,-5774,-1,-1,0
85.10,179.47,-133.22,84,-6136,-5779,0,-1,0
85.10,179.47,-133.22,80,-6137,-5771,-1,-1,0
85.10,179.47,-133.22,81,-6139,-5762,-1,-1,0
85.10,179.47,-133.23,80,-6138,-5768,-1,-1,0
85.10,179.47,-133.23,82,-6141,-5761,-1,0,-1
85.10,179.47,-133.23,85,-6139,-5756,-1,-1,0
85.10,179.47,-133.22,87,-6133,-5765,0,-1,0
85.10,179.47,-133.22,82,-6141,-5764,0,-1,0
85.10,179.47,-133.22,74,-6144,-5765,-1,-1,0
85.10,179.48,-133.22,71,-6146,-5769,-1,-1,0
85.10,179.47,-133.23,76,-6141,-5771,-1,-1,-1
85.10,179.48,-133.23,76,-6135,-5774,-1,-1,0
85.10,179.48,-133.24,73,-6132,-5769,-1,-1,0
85.10,179.48,-133.24,73,-6121,-5774,-1,-1,0
85.11,179.48,-133.24,78,-6123,-5782,-1,0,-1
85.11,179.48,-133.24,76,-6129,-5775,0,-1,0
85.11,179.48,-133.24,82,-6138,-5784,0,-1,0
85.10,179.48,-133.24,79,-6137,-5782,0,0,0
85.10,179.48,-133.24,77,-6146,-5784,0,-1,0
85.10,179.48,-133.24,78,-6147,-5779,0,0,-1
85.10,179.48,-133.24,76,-6149,-5781,-1,0,-1
85.11,179.48,-133.24,83,-6143,-5781,-1,-1,-1
85.11,179.48,-133.24,80,-6142,-5771,-1,-1,0
85.11,179.48,-133.24,74,-6141,-5773,-1,-1,0
85.11,179.48,-133.24,79,-6141,-5763,0,0,-1
85.10,179.48,-133.24,80,-6140,-5773,0,0,0
85.10,179.48,-133.24,79,-6139,-5764,-1,-1,0
85.11,179.48,-133.24,75,-6140,-5775,-1,-1,0
85.11,179.48,-133.24,75,-6139,-5783,0,-1,0
85.11,179.48,-133.24,80,-6138,-5790,0,0,0
85.11,179.48,-133.24,79,-6142,-5785,0,0,0
85.10,179.48,-133.24,87,-6138,-5772,0,-1,0
85.10,179.49,-133.23,79,-6143,-5766,0,-1,0
85.10,179.49,-133.23,71,-6138,-5772,0,0,0
85.10,179.49,-133.23,75,-6142,-5763,0,-1,0
85.09,179.49,-133.22,75,-6145,-5771,0,0,0
85.11,179.49,-133.22,77,-6146,-5768,0,-1,0
85.11,179.49,-133.22,66,-6151,-5766,-1,0,-1
85.11,179.49,-133.22,67,-6149,-5773,-1,-1,-1
85.11,179.50,-133.22,67,-6151,-5763,-1,0,-1
85.11,179.49,-133.22,77,-6142,-5760,-1,0,-1
85.11,179.49,-133.22,86,-6145,-5763,0,0,0
85.11,179.49,-133.22,82,-6142,-5768,0,0,0
85.11,179.49,-133.22,78,-6141,-5761,-1,0,0
85.11,179.49,-133.22,77,-6139,-5765,-1,0,0
85.10,179.49,-133.21,81,-6140,-5759,0,0,-1
85.10,179.49,-133.21,74,-6143,-5763,0,0,0
85.10,179.49,-133.21,79,-6138,-5765,0,0,0
85.09,179.48,-133.21,80,-6133,-5774,0,0,0
85.09,179.48,-133.21,76,-6138,-5768,0,-1,0
85.09,179.48,-133.21,76,-6142,-5770,-1,0,-1
85.09,179.48,-133.21,80,-6144,-5768,0,0,-1
85.09,179.48,-133.21,80,-6142,-5777,0,0,0
85.09,179.48,-133.21,77,-6138,-5781,-1,0,0
85.09,179.48,-133.21,80,-6141,-5783,-1,-1,0
85.09,179.48,-133.21,82,-6139,-5777,0,-1,0
85.09,179.48,-133.21,84,-6141,-5770,0,-1,0
85.09,179.49,-133.20,83,-6146,-5772,0,-1,0
85.10,179.48,-133.19,77,-6150,-5773,0,0,-1
85.10,179.48,-133.20,76,-6157,-5761,-1,0,-1
85.10,179.48,-133.20,84,-6144,-5758,-1,-1,0
85.09,179.48,-133.21,86,-6140,-5768,-1,-1,0
85.09,179.48,-133.21,87,-6139,-5774,-1,0,-1
85.09,179.48,-133.21,85,-6139,-5778,0,0,-1
85.09,179.48,-133.21,85,-6142,-5776,0,-1,-1
85.09,179.47,-133.21,82,-6140,-5779,0,0,0
85.10,179.47,-133.20,82,-6139,-5771,-1,-1,0
85.09,179.47,-133.21,80,-6147,-5774,0,0,0
85.09,179.48,-133.20,69,-6147,-5768,-1,0,0
85.09,179.48,-133.20,70,-6140,-5766,0,0,0
85.09,179.48,-133.20,70,-6140,-5776,-1,0,-1
85.09,179.47,-133.21,80,-6134,-5774,-1,-1,0
85.09,179.48,-133.20,83,-6143,-5773,0,-1,0
85.09,179.48,-133.20,85,-6150,-5768,0,0,-1
85.09,179.47,-133.19,82,-6156,-5780,0,0,0
85.10,179.47,-133.19,83,-6150,-5767,-1,0,-1
85.10,179.47,-133.20,85,-6150,-5776,-1,0,-1
85.10,179.47,-133.20,81,-6146,-5768,-1,0,0
85.10,179.47,-133.20,82,-6145,-5759,0,0,-1
85.10,179.47,-133.20,85,-6141,-5759,0,0,0
85.09,179.46,-133.19,87,-6137,-5765,0,0,0
85.09,179.47,-133.19,82,-6136,-5764,0,-1,0
85.09,179.47,-133.19,84,-6138,-5754,0,-1,0
85.09,179.47,-133.19,86,-6138,-5768,0,0,0
85.08,179.47,-133.18,81,-6143,-5770,0,-1,0
85.08,179.47,-133.18,81,-6134,-5762,0,0,0
85.08,179.47,-133.18,76,-6135,-5764,0,0,0
85.08,179.47,-133.18,78,-6138,-5760,-1,-1,-1
85.09,179.47,-133.19,75,-6134,-5761,-1,0,0
85.09,179.47,-133.19,65,-6132,-5768,-1,0,-1
85.09,179.47,-133.19,73,-6140,-5777,-1,0,0
85.09,179.47,-133.19,72,-6138,-5772,-1,0,-1
85.09,179.47,-133.19,71,-6144,-5774,0,0,0
85.09,179.47,-133.19,73,-6148,-5774,0,-1,0
85.09,179.47,-133.19,81,-6151,-5776,-1,0,0
85.09,179.47,-133.19,84,-6156,-5778,0,0,0
85.08,179.46,-133.19,85,-6154,-5781,0,0,-1
85.08,179.46,-133.19,81,-6147,-5772,0,0,0
85.08,179.47,-133.18,84,-6142,-5776,0,-1,0
85.08,179.47,-133.18,77,-6145,-5764,-1,-1,0
85.07,179.47,-133.18,72,-6144,-5765,-1,-1,0
85.07,179.47,-133.19,70,-6138,-5765,-1,0,-1
85.08,179.47,-133.19,75,-6137,-5773,0,0,-1
85.07,179.47,-133.19,80,-6138,-5773,0,0,0
85.07,179.47,-133.18,83,-6144,-5774,0,0,0
85.07,179.47,-133.18,83,-6147,-5767,0,0,-1
85.08,179.47,-133.18,85,-6142,-5772,-1,0,-1
85.07,179.47,-133.18,84,-6140,-5769,-1,-1,0
85.08,179.47,-133.19,86,-6140,-5775,-1,-1,0
85.08,179.46,-133.20,81,-6141,-5769,-1,0,-1
85.08,179.46,-133.20,83,-6136,-5766,0,0,-1
85.07,179.46,-133.19,87,-6137,-5766,0,0,-1
85.07,179.46,-133.19,89,-6140,-5765,0,0,0
85.07,179.46,-133.19,87,-6142,-5766,0,0,0
85.07,179.46,-133.19,83,-6152,-5766,-1,-1,0
85.08,179.46,-133.18,85,-6148,-5761,0,0,0
85.08,179.46,-133.18,86,-6149,-5761,0,0,-1
85.08,179.46,-133.18,81,-6144,-5772,0,0,-1
85.08,179.45,-133.19,80,-6146,-5777,-1,-1,0
85.06,179.46,-133.19,83,-6145,-5774,-1,0,0
85.06,179.46,-133.19,82,-6145,-5774,0,-1,0
85.06,179.46,-133.19,82,-6144,-5760,0,0,-1
85.08,179.46,-133.18,82,-6142,-5752,-1,-1,0
85.08,179.45,-133.19,83,-6142,-5762,-1,-1,0
85.08,179.46,-133.18,80,-6142,-5748,-1,-1,0
85.07,179.47,-133.19,77,-6146,-5765,-1,0,-1
85.07,179.46,-133.19,77,-6137,-5768,-1,0,-1
85.06,179.46,-133.19,85,-6145,-5760,0,-1,0
85.06,179.46,-133.18,80,-6140,-5761,0,-1,0
85.06,179.46,-133.18,78,-6136,-5761,0,-1,0
85.06,179.46,-133.18,78,-6134,-5769,-1,0,0
85.06,179.46,-133.19,83,-6136,-5773,-1,0,-1
85.06,179.46,-133.19,85,-6134,-5765,-1,0,0
85.06,179.46,-133.19,87,-6133,-5763,-1,0,0
85.06,179.46,-133.19,91,-6138,-5761,-1,0,-1
85.06,179.45,-133.19,83,-6143,-5768,-1,0,-1
85.06,179.45,-133.19,83,-6142,-5767,-1,-1,-1
85.06,179.45,-133.19,83,-6146,-5774,-1,0,0
85.07,179.45,-133.20,81,-6141,-5777,-1,-1,0
85.07,179.45,-133.20,84,-6138,-5781,0,0,0
85.07,179.45,-133.20,76,-6141,-5775,-1,0,0
85.07,179.45,-133.20,81,-6143,-5771,0,-1,0
85.07,179.45,-133.20,76,-6135,-5778,0,-1,0
85.06,179.45,-133.21,74,-6137,-5782,0,-1,0
85.06,179.46,-133.20,74,-6140,-5784,0,0,-1
85.06,179.45,-133.21,77,-6142,-5778,-1,0,-1
85.06,179.45,-133.21,81,-6142,-5778,0,0,-1
85.06,179.46,-133.20,75,-6137,-5768,0,-1,0
85.06,179.45,-133.19,84,-6139,-5758,0,-1,0
85.06,179.46,-133.19,82,-6148,-5754,0,-1,0
85.06,179.46,-133.19,81,-6148,-5762,-1,-1,0
85.07,179.46,-133.19,81,-6145,-5772,-1,-1,-1
85.08,179.46,-133.20,83,-6142,-5779,-1,-1,-1
85.08,179.46,-133.21,83,-6137,-5786,-1,-1,-1
85.08,179.46,-133.21,82,-6131,-5783,0,0,-1
85.08,179.46,-133.21,81,-6133,-5777,0,0,0
85.08,179.46,-133.20,76,-6136,-5768,0,0,-1
85.08,179.46,-133.20,78,-6136,-5773,0,0,0
85.08,179.46,-133.20,82,-6139,-5771,0,-1,0
85.08,179.46,-133.20,76,-6146,-5774,0,0,-1
85.07,179.45,-133.20,76,-6150,-5779,0,0,0
85.07,179.45,-133.20,79,-6149,-5780,-1,-1,-1
85.08,179.46,-133.20,84,-6153,-5779,-1,-1,0
85.08,179.46,-133.20,81,-6144,-5774,-1,-1,0
85.08,179.46,-133.20,86,-6143,-5768,-1,-1,-1
85.08,179.46,-133.20,79,-6143,-5766,-1,0,-1
85.08,179.46,-133.20,81,-6145,-5772,0,0,-1
85.08,179.46,-133.20,78,-6140,-5767,-1,-1,0
85.08,179.46,-133.21,75,-6143,-5765,-1,-1,0
85.08,179.46,-133.21,66,-6149,-5773,-1,-1,0
85.08,179.46,-133.21,69,-6144,-5778,0,-1,0
85.08,179.46,-133.21,76,-6141,-5776,0,-1,0
85.08,179.46,-133.21,83,-6141,-5781,0,-1,0
85.08,179.47,-133.20,77,-6147,-5769,0,-1,0
85.07,179.47,-133.21,77,-6144,-5774,-1,0,0
85.08,179.47,-133.21,81,-6144,-5779,-1,0,-1
85.08,179.47,-133.21,77,-6148,-5781,-1,-1,0
85.08,179.47,-133.21,78,-6142,-5771,0,-1,0
85.08,179.47,-133.21,80,-6140,-5770,-1,-1,-1
85.08,179.47,-133.21,77,-6141,-5774,-1,-1,-1
85.08,179.47,-133.22,79,-6140,-5768,-1,-1,0
85.08,179.47,-133.22,80,-6142,-5776,-1,0,0
85.08,179.47,-133.22,78,-6141,-5780,-1,0,0
85.08,179.47,-133.22,78,-6139,-5773,-1,0,0
85.08,179.47,-133.22,80,-6131,-5762,0,0,0
85.08,179.47,-133.22,79,-6136,-5763,0,-1,0
85.08,179.47,-133.22,77,-6141,-5775,-1,-1,0
85.08,179.47,-133.22,76,-6141,-5781,-1,-1,0
85.08,179.48,-133.22,72,-6137,-5774,0,-1,0
85.08,179.47,-133.22,83,-6137,-5779,0,0,-1
85.08,179.47,-133.22,81,-6141,-5773,0,0,-1
85.08,179.47,-133.22,82,-6136,-5766,-1,0,-1
85.08,179.47,-133.22,82,-6144,-5779,-1,0,-1
85.08,179.47,-133.22,76,-6140,-5774,-1,-1,0
85.08,179.47,-133.22,85,-6137,-5771,0,-1,0
85.08,179.48,-133.22,78,-6145,-5765,0,-1,0
85.08,179.48,-133.21,79,-6145,-5766,-1,0,-1
85.08,179.48,-133.21,75,-6143,-5766,-1,-1,-1
85.08,179.48,-133.22,82,-6147,-5774,-1,-1,-1
85.09,179.48,-133.22,76,-6145,-5767,-1,-1,0
85.09,179.48,-133.23,71,-6138,-5772,-1,-1,0
85.09,179.48,-133.23,74,-6137,-5777,-1,0,-1
85.09,179.48,-133.23,82,-6141,-5775,-1,0,-1
85.09,179.48,-133.23,84,-6140,-5778,0,0,0
85.09,179.48,-133.23,78,-6140,-5776,0,0,0
85.09,179.48,-133.22,77,-6137,-5763,0,0,0
85.09,179.48,-133.22,73,-6137,-5765,0,-1,0
85.08,179.48,-133.22,75,-6139,-5777,0,0,-1
85.08,179.48,-133.22,81,-6134,-5782,-1,0,-1
85.08,179.47,-133.22,82,-6134,-5781,-1,-1,0
85.08,179.47,-133.22,77,-6139,-5775,-1,-1,0
85.08,179.48,-133.23,77,-6143,-5780,-1,-1,0
85.08,179.48,-133.23,78,-6142,-5787,-1,0,-1
85.09,179.48,-133.23,85,-6138,-5782,0,-1,0
85.08,179.48,-133.22,83,-6140,-5795,0,-1,0
85.08,179.49,-133.20,86,-6132,-5773,0,-1,0
85.07,179.49,-133.19,74,-6146,-5774,0,-1,0
85.08,179.49,-133.18,67,-6146,-5783,0,0,-1
85.07,179.49,-133.17,75,-6144,-5776,0,0,-1
85.07,179.48,-133.16,81,-6141,-5795,0,0,0
85.07,179.49,-133.13,80,-6141,-5791,1,-1,0
85.07,179.49,-133.10,79,-6160,-5806,1,-1,0
85.06,179.51,-133.04,84,-6161,-5788,2,-1,0
85.06,179.52,-132.96,77,-6142,-5751,3,-1,0
85.05,179.52,-132.90,65,-6155,-5728,1,0,-1
85.04,179.50,-132.87,60,-6202,-5764,0,0,-1
85.03,179.46,-132.85,77,-6209,-5745,1,0,-1
85.02,179.45,-132.82,93,-6189,-5738,1,-1,0
85.02,179.46,-132.77,81,-6154,-5683,1,-1,0
85.01,179.48,-132.73,74,-6158,-5699,1,0,0
85.00,179.47,-132.68,72,-6197,-5750,2,0,-1
84.98,179.46,-132.60,77,-6219,-5776,3,0,-1
84.98,179.45,-132.50,86,-6238,-5788,4,-1,0
84.96,179.46,-132.38,80,-6245,-5746,4,-1,0
84.94,179.46,-132.25,76,-6227,-5707,4,0,-1
84.94,179.45,-132.14,77,-6201,-5647,3,0,-1
84.92,179.42,-132.06,88,-6204,-5575,2,0,-1
84.90,179.41,-132.01,97,-6202,-5561,1,0,0
84.89,179.40,-131.97,100,-6235,-5617,1,-1,0
84.89,179.42,-131.91,102,-6286,-5678,2,-1,0
84.90,179.47,-131.80,95,-6288,-5718,5,-2,1
84.89,179.53,-131.62,80,-6289,-5675,6,-2,1
84.89,179.55,-131.46,45,-6329,-5675,5,-1,-1
84.88,179.53,-131.32,82,-6330,-5574,4,-1,-1
84.88,179.55,-131.21,85,-6315,-5539,3,-1,0
84.86,179.57,-131.09,70,-6298,-5523,4,-1,0
84.84,179.57,-130.99,60,-6298,-5484,2,0,-1
84.82,179.55,-130.91,53,-6317,-5479,2,0,-1
84.80,179.53,-130.85,51,-6358,-5531,3,1,-1
84.77,179.49,-130.78,70,-6389,-5559,2,1,-1
84.74,179.45,-130.71,86,-6400,-5541,2,1,-1
84.71,179.42,-130.62,93,-6396,-5558,3,0,0
84.66,179.40,-130.52,84,-6408,-5552,3,1,-1
84.61,179.36,-130.40,85,-6408,-5489,2,1,-1
84.55,179.33,-130.30,105,-6425,-5506,4,1,-1
84.50,179.31,-130.18,119,-6440,-5510,4,0,0
84.45,179.31,-130.04,102,-6440,-5459,5,0,0
84.41,179.30,-129.91,91,-6449,-5438,4,0,-1
84.35,179.25,-129.78,88,-6437,-5395,4,2,-2
84.28,179.17,-129.69,104,-6419,-5249,1,3,-2
84.24,179.07,-129.77,127,-6448,-5264,-5,3,-3
84.19,178.97,-129.90,162,-6478,-5350,-5,3,-2
84.16,178.92,-129.98,171,-6463,-5429,-1,0,-1
84.15,178.95,-130.00,164,-6487,-5549,1,-2,1
84.14,179.01,-129.89,139,-6448,-5469,4,-1,1
84.12,179.05,-129.79,150,-6457,-5447,3,-1,1
84.10,179.09,-129.67,160,-6523,-5544,6,-2,1
84.08,179.16,-129.48,157,-6528,-5437,7,-2,1
84.02,179.18,-129.35,75,-6452,-5249,2,0,0
83.99,179.14,-129.36,65,-6449,-5225,-4,2,-2
83.97,179.10,-129.34,159,-6441,-5214,0,0,0
83.98,179.13,-129.38,160,-6450,-5260,-2,-2,1
83.98,179.19,-129.37,136,-6468,-5337,2,-1,1
83.96,179.19,-129.37,102,-6536,-5421,0,0,-1
83.96,179.18,-129.35,100,-6616,-5508,0,0,-1
83.92,179.16,-129.23,111,-6589,-5475,5,1,-1
83.85,179.11,-129.15,202,-6495,-5168,-3,0,0
83.87,179.20,-129.20,182,-6565,-5473,3,-4,3
83.86,179.33,-129.02,120,-6533,-5412,8,-3,3
83.83,179.43,-128.83,78,-6563,-5436,6,-3,2
83.79,179.49,-128.53,41,-6591,-5418,12,-1,1
83.72,179.47,-128.27,35,-6639,-5321,8,1,-1
83.62,179.41,-128.03,89,-6593,-5096,7,2,-1
83.57,179.39,-127.99,127,-6568,-4964,-5,-1,0
83.60,179.46,-128.02,97,-6608,-5203,2,-3,2
83.62,179.53,-127.93,58,-6529,-5040,0,-2,0
83.66,179.59,-127.94,71,-6611,-5210,2,-2,1
83.65,179.64,-127.83,31,-6633,-5239,5,-1,0
83.63,179.62,-127.74,55,-6680,-5215,1,0,-1
83.62,179.63,-127.66,88,-6749,-5287,5,-1,0
83.61,179.68,-127.55,65,-6697,-5136,1,-2,1
83.64,179.72,-127.53,19,-6657,-5125,1,-1,0
83.65,179.74,-127.49,44,-6619,-5054,-1,-1,0
83.68,179.76,-127.50,61,-6656,-5140,-1,-2,0
83.70,179.81,-127.42,15,-6590,-5019,2,-1,0
83.71,179.82,-127.48,37,-6701,-5185,-2,-1,0
83.72,179.83,-127.47,16,-6710,-5191,0,-1,-1
83.73,179.81,-127.46,-8,-6650,-5013,-4,1,-2
83.75,179.76,-127.57,5,-6700,-5167,-1,1,-2
83.74,179.68,-127.66,12,-6587,-5004,-6,2,-3
83.74,179.57,-127.82,57,-6570,-5001,-7,2,-3
83.73,179.48,-128.03,80,-6564,-5051,-9,2,-3
83.75,179.42,-128.26,106,-6588,-5117,-9,1,-1
83.73,179.35,-128.51,103,-6575,-5151,-10,1,-2
83.73,179.31,-128.81,126,-6566,-5114,-12,0,-1
83.76,179.30,-129.20,87,-6479,-5066,-17,0,-1
83.85,179.29,-129.69,53,-6570,-5458,-15,0,-2
83.88,179.23,-129.87,57,-6604,-5710,-2,1,-3
83.87,179.16,-129.90,111,-6569,-5621,-2,1,-2
83.86,179.11,-129.94,124,-6566,-5561,-1,1,-2
83.86,179.06,-129.97,120,-6531,-5481,-2,1,-2
83.82,178.99,-129.99,124,-6438,-5366,-1,1,-2
83.81,178.94,-130.05,131,-6386,-5294,-4,1,-2
83.82,178.89,-130.16,151,-6390,-5332,-5,1,-2
83.83,178.83,-130.30,156,-6432,-5411,-6,1,-2
83.85,178.77,-130.44,171,-6460,-5486,-4,1,-2
83.84,178.73,-130.54,179,-6427,-5451,-5,1,-1
83.85,178.70,-130.63,187,-6421,-5507,-3,0,-1
83.86,178.68,-130.70,197,-6405,-5524,-3,0,-1
83.86,178.67,-130.75,195,-6409,-5549,-1,0,-1
83.87,178.66,-130.76,197,-6397,-5544,-1,0,-1
83.87,178.65,-130.77,198,-6390,-5514,-1,0,-1
83.87,178.65,-130.77,199,-6398,-5526,-1,0,-1
83.87,178.64,-130.78,197,-6385,-5479,-1,0,-1
83.86,178.63,-130.79,196,-6372,-5463,-2,0,-1
83.84,178.60,-130.84,193,-6376,-5484,-2,1,-1
83.83,178.56,-130.88,202,-6387,-5516,-2,1,-1
83.82,178.52,-130.92,203,-6378,-5524,-2,0,-1
83.81,178.49,-130.94,205,-6369,-5513,-2,1,-1
83.81,178.45,-130.98,216,-6369,-5513,-2,1,-1
83.79,178.42,-131.02,236,-6365,-5527,-2,1,-1
83.77,178.39,-131.04,230,-6358,-5518,-2,0,-1
83.76,178.36,-131.07,236,-6352,-5519,-1,0,-1
83.76,178.33,-131.11,244,-6347,-5540,-2,0,-1
83.75,178.31,-131.13,238,-6348,-5536,-1,0,-1
83.75,178.29,-131.16,242,-6343,-5511,-2,0,-1
83.76,178.26,-131.20,260,-6346,-5534,-2,0,-1
83.74,178.25,-131.23,264,-6331,-5537,-2,0,-1
83.75,178.23,-131.27,270,-6341,-5554,-2,0,-1
83.74,178.24,-131.30,262,-6333,-5555,-2,0,0
83.75,178.24,-131.32,257,-6333,-5557,-1,-1,0
83.76,178.24,-131.34,251,-6334,-5555,-1,-1,0
83.77,178.24,-131.35,267,-6341,-5563,-1,0,-1
83.76,178.24,-131.36,267,-6319,-5552,-1,-1,0
83.77,178.24,-131.38,268,-6317,-5565,-1,-1,0
83.79,178.25,-131.40,256,-6308,-5558,-1,-1,0
83.79,178.26,-131.41,244,-6305,-5547,-1,-1,0
83.79,178.27,-131.43,232,-6313,-5561,-1,-1,0
83.81,178.28,-131.44,253,-6309,-5554,-1,-1,-1
83.82,178.28,-131.47,269,-6312,-5573,-1,-1,0
83.83,178.29,-131.50,265,-6320,-5602,-1,-1,0
83.84,178.30,-131.52,262,-6314,-5609,-1,-1,0
83.84,178.33,-131.52,250,-6298,-5593,0,-1,0
83.85,178.35,-131.52,249,-6296,-5574,-1,-1,0
83.86,178.38,-131.54,239,-6299,-5575,-2,-1,0
83.86,178.39,-131.57,223,-6314,-5585,-2,-1,0
83.87,178.40,-131.59,228,-6329,-5622,-1,-1,0
83.88,178.40,-131.60,233,-6323,-5619,-1,0,-1
83.87,178.38,-131.61,246,-6315,-5620,-1,0,-1
83.87,178.38,-131.62,244,-6304,-5616,-1,0,-1
83.87,178.38,-131.63,240,-6304,-5608,-1,-1,0
83.89,178.38,-131.65,242,-6296,-5591,-1,0,-1
83.88,178.37,-131.67,239,-6294,-5588,-1,0,-1
83.89,178.38,-131.69,240,-6289,-5584,-1,0,-1
83.90,178.38,-131.73,235,-6291,-5603,-2,-1,-1
83.91,178.38,-131.75,241,-6290,-5615,-1,-1,0
83.91,178.38,-131.77,244,-6280,-5607,-1,-1,0
83.91,178.39,-131.79,242,-6269,-5602,-1,-1,0
83.90,178.40,-131.79,241,-6273,-5611,-1,-1,0
83.92,178.40,-131.80,239,-6276,-5608,-1,-1,0
83.92,178.41,-131.82,235,-6283,-5618,-1,-1,0
83.91,178.42,-131.82,234,-6287,-5630,-1,-1,0
83.92,178.42,-131.83,231,-6284,-5625,0,-1,0
83.93,178.43,-131.83,232,-6288,-5627,-1,-1,0
83.93,178.43,-131.83,237,-6287,-5607,-1,-1,0
83.93,178.44,-131.84,230,-6277,-5607,-1,-1,0
83.93,178.45,-131.85,224,-6269,-5616,-1,-1,0
83.94,178.45,-131.87,223,-6268,-5632,-1,-1,0
83.93,178.46,-131.88,223,-6273,-5628,-1,-1,0
83.94,178.46,-131.88,227,-6273,-5627,-1,-1,0
83.94,178.46,-131.88,233,-6268,-5623,-1,-1,0
83.96,178.47,-131.89,224,-6269,-5627,-1,-1,0
83.95,178.47,-131.90,227,-6271,-5638,-1,-1,0
83.96,178.48,-131.90,229,-6270,-5631,-1,-1,0
83.95,178.49,-131.90,222,-6263,-5625,-1,-1,0
83.95,178.50,-131.90,220,-6273,-5630,-1,-1,0
83.96,178.51,-131.91,219,-6267,-5634,-1,-1,0
83.96,178.51,-131.92,219,-6273,-5643,-1,-1,0
83.96,178.51,-131.93,219,-6280,-5640,-1,-1,0
83.96,178.51,-131.93,223,-6273,-5630,-1,-1,-1
83.97,178.51,-131.93,222,-6269,-5631,-1,-1,0
83.97,178.51,-131.93,222,-6265,-5624,-1,0,0
83.98,178.52,-131.94,219,-6268,-5622,-1,-1,0
83.98,178.52,-131.94,215,-6263,-5630,0,-1,-1
83.98,178.52,-131.94,212,-6269,-5619,-1,0,0
83.98,178.52,-131.94,216,-6280,-5636,0,0,-1
83.98,178.52,-131.94,217,-6279,-5631,-1,0,-1
83.98,178.51,-131.94,221,-6265,-5626,-1,0,-1
83.98,178.51,-131.94,216,-6263,-5621,-1,0,-1
83.98,178.51,-131.94,215,-6268,-5626,0,-1,0
83.96,178.52,-131.94,220,-6266,-5629,0,-1,0
83.97,178.53,-131.94,221,-6266,-5619,0,-1,0
83.98,178.53,-131.94,214,-6270,-5627,-1,-1,0
83.97,178.54,-131.95,212,-6270,-5628,-1,-1,0
83.98,178.55,-131.95,208,-6264,-5634,-1,-1,-1
83.99,178.55,-131.97,210,-6260,-5631,-1,-1,-1
83.99,178.55,-131.97,216,-6271,-5629,-1,-1,-1
83.99,178.55,-131.97,217,-6272,-5628,-1,-1,0
84.00,178.55,-131.97,220,-6261,-5627,-1,-1,0
84.00,178.56,-131.98,220,-6257,-5632,-1,-1,0
84.00,178.57,-131.98,217,-6256,-5642,-1,-1,0
84.00,178.57,-131.99,221,-6258,-5635,-1,-1,0
84.00,178.58,-131.98,225,-6263,-5639,-1,-1,0
84.01,178.59,-131.98,219,-6266,-5633,0,-1,0
84.01,178.60,-131.98,212,-6272,-5635,-1,-1,0
84.01,178.61,-131.98,207,-6273,-5643,-1,-1,0
84.01,178.61,-131.99,209,-6278,-5650,-1,-1,0
84.01,178.61,-131.99,201,-6268,-5647,-1,-1,-1
84.02,178.61,-132.00,202,-6260,-5641,-1,-1,0
84.01,178.61,-132.00,209,-6254,-5633,-1,-1,0
84.02,178.61,-132.01,211,-6255,-5630,-1,-1,0
84.02,178.61,-132.01,214,-6260,-5640,-1,-1,0
84.02,178.62,-132.01,203,-6265,-5646,-1,-1,0
84.02,178.62,-132.01,195,-6267,-5642,-1,-1,0
84.03,178.62,-132.02,195,-6264,-5643,-1,-1,0
84.02,178.62,-132.02,191,-6264,-5634,-1,-1,0
84.02,178.63,-132.02,204,-6255,-5631,-1,-1,-1
84.02,178.62,-132.03,206,-6248,-5641,-1,-1,0
84.03,178.62,-132.04,206,-6247,-5632,-1,-1,0
84.03,178.63,-132.03,208,-6254,-5644,-1,-1,0
84.04,178.63,-132.04,207,-6266,-5653,0,-1,-1
84.04,178.63,-132.04,211,-6264,-5643,-1,-1,0
84.04,178.64,-132.04,208,-6258,-5648,-1,-1,0
84.04,178.64,-132.04,205,-6252,-5630,-1,-1,0
84.04,178.64,-132.05,199,-6249,-5642,-1,-1,0
84.04,178.64,-132.06,202,-6250,-5658,-1,-1,0
84.04,178.64,-132.06,204,-6253,-5652,0,-1,0
84.04,178.65,-132.05,203,-6251,-5658,0,-1,0
84.04,178.65,-132.05,204,-6253,-5657,0,-1,0
84.04,178.65,-132.05,203,-6254,-5649,-1,-1,0
84.04,178.65,-132.05,193,-6258,-5640,-1,-1,0
84.04,178.65,-132.05,196,-6261,-5634,-1,-1,0
84.05,178.66,-132.05,201,-6261,-5639,-1,0,0
84.04,178.66,-132.05,197,-6259,-5637,-1,-1,0
84.04,178.66,-132.05,196,-6261,-5644,-1,-1,0
84.04,178.66,-132.05,195,-6255,-5642,0,-1,-1
84.04,178.66,-132.05,201,-6259,-5643,0,0,-1
84.05,178.66,-132.05,198,-6259,-5642,-1,-1,-1
84.06,178.67,-132.05,195,-6258,-5641,-1,-1,0
84.06,178.67,-132.05,196,-6258,-5634,-1,-1,0
84.06,178.66,-132.06,202,-6255,-5627,-1,-1,0
84.05,178.67,-132.06,190,-6251,-5648,-1,-1,0
84.06,178.68,-132.05,197,-6251,-5639,0,-1,0
84.05,178.68,-132.06,196,-6256,-5647,0,-1,0
84.06,178.68,-132.05,200,-6254,-5649,0,-1,0
84.06,178.68,-132.05,201,-6258,-5654,0,-1,0
84.06,178.68,-132.05,199,-6254,-5654,0,-1,0
84.06,178.69,-132.04,199,-6252,-5656,0,-1,0
84.06,178.69,-132.04,202,-6250,-5642,0,-1,0
84.06,178.69,-132.04,198,-6256,-5633,-1,-1,0
84.06,178.69,-132.04,192,-6263,-5637,0,-1,0
84.06,178.69,-132.04,195,-6266,-5633,-1,0,-1
84.06,178.69,-132.04,195,-6261,-5647,-1,0,-1
84.06,178.69,-132.04,192,-6261,-5645,-1,0,-1
84.06,178.69,-132.04,194,-6253,-5643,-1,0,-1
84.06,178.69,-132.04,197,-6248,-5642,-1,0,-1
84.07,178.69,-132.04,197,-6247,-5634,-1,-1,-1
84.07,178.69,-132.05,199,-6252,-5641,-1,-1,0
84.07,178.69,-132.05,193,-6255,-5640,0,-1,0
84.07,178.69,-132.05,189,-6258,-5630,0,-1,0
84.07,178.70,-132.04,196,-6249,-5629,0,-1,0
84.06,178.69,-132.04,197,-6253,-5632,0,-1,0
84.06,178.70,-132.03,202,-6256,-5636,0,-1,0
84.06,178.70,-132.03,192,-6264,-5643,0,0,0
84.05,178.70,-132.03,200,-6262,-5652,0,0,-1
84.05,178.70,-132.03,200,-6263,-5650,-1,0,-1
84.07,178.69,-132.03,201,-6262,-5647,-1,0,-1
84.07,178.69,-132.03,192,-6259,-5640,-1,-1,-1
84.06,178.69,-132.04,194,-6256,-5638,-1,0,-1
84.06,178.69,-132.04,194,-6253,-5641,-1,0,-1
84.06,178.69,-132.04,193,-6253,-5635,0,0,0
84.06,178.69,-132.04,198,-6258,-5637,0,-1,0
84.06,178.69,-132.04,201,-6251,-5642,0,-1,0
84.06,178.70,-132.03,193,-6261,-5644,0,-1,0
84.05,178.70,-132.03,185,-6266,-5636,0,0,0
84.07,178.69,-132.02,184,-6270,-5633,0,0,0
84.07,178.70,-132.02,187,-6262,-5632,0,0,0
84.07,178.70,-132.02,193,-6264,-5640,-1,-1,0
84.06,178.69,-132.02,199,-6262,-5633,-1,-1,0
84.07,178.70,-132.02,200,-6269,-5648,0,-1,0
84.06,178.70,-132.01,199,-6266,-5636,0,0,-1
84.06,178.70,-132.01,194,-6260,-5632,0,-1,0
84.07,178.70,-132.02,191,-6262,-5644,-1,-1,0
84.07,178.70,-132.02,203,-6256,-5638,-1,-1,0
84.07,178.70,-132.02,197,-6250,-5637,-1,-1,-1
84.05,178.70,-132.02,199,-6257,-5641,-1,0,0
84.05,178.70,-132.03,195,-6249,-5643,0,0,-1
84.05,178.70,-132.03,197,-6251,-5655,0,-1,0
84.05,178.70,-132.02,187,-6252,-5642,0,-1,0
84.06,178.71,-132.03,188,-6250,-5646,-1,-1,0
84.06,178.71,-132.03,184,-6256,-5640,-1,-1,-1
84.06,178.71,-132.03,185,-6260,-5644,-1,-1,-1
84.07,178.70,-132.02,188,-6261,-5644,0,-1,-1
84.09,178.71,-132.02,190,-6262,-5649,0,-1,-1
84.08,178.70,-132.01,198,-6254,-5647,0,0,-1
84.09,178.69,-132.02,196,-6254,-5651,-1,0,-1
84.09,178.68,-132.02,199,-6264,-5664,0,0,-1
84.09,178.67,-132.01,203,-6269,-5659,0,0,-1
84.10,178.64,-132.00,197,-6265,-5654,0,0,-1
84.09,178.62,-131.99,207,-6260,-5640,0,0,-1
84.10,178.59,-131.99,205,-6253,-5647,0,0,-1
84.10,178.57,-131.98,199,-6256,-5643,0,0,-1
84.09,178.55,-131.97,196,-6261,-5636,0,0,-1
84.10,178.53,-131.96,200,-6275,-5634,0,0,-1
84.09,178.50,-131.96,212,-6270,-5639,0,0,-1
84.10,178.46,-131.96,219,-6260,-5623,-1,0,-1
84.10,178.43,-131.96,225,-6242,-5616,0,0,-1
84.10,178.40,-131.96,198,-6271,-5622,0,0,-1
84.09,178.39,-131.94,225,-6261,-5632,0,0,-1
84.09,178.37,-131.92,225,-6254,-5630,0,0,-1
84.08,178.35,-131.90,236,-6254,-5634,0,0,-1
84.08,178.33,-131.90,255,-6254,-5639,0,0,-1
84.07,178.29,-131.88,269,-6284,-5661,0,0,-1
84.07,178.26,-131.86,282,-6284,-5664,1,0,-1
84.06,178.24,-131.81,277,-6282,-5649,1,0,-1
84.07,178.25,-131.76,256,-6251,-5584,1,-1,-1
84.07,178.26,-131.72,246,-6261,-5585,1,-1,0
84.07,178.29,-131.68,231,-6274,-5614,2,-1,0
84.06,178.31,-131.59,218,-6297,-5650,4,-1,0
84.04,178.33,-131.48,190,-6336,-5612,2,0,-1
84.04,178.32,-131.41,196,-6354,-5599,2,0,-1
84.06,178.30,-131.35,222,-6334,-5558,1,0,-1
84.07,178.27,-131.32,252,-6311,-5501,0,0,-1
84.06,178.24,-131.34,274,-6299,-5502,-1,0,-1
84.07,178.22,-131.36,283,-6283,-5508,-1,0,-1
84.07,178.22,-131.37,283,-6282,-5544,-1,-1,-1
84.07,178.22,-131.38,282,-6307,-5588,-1,-1,-1
84.08,178.22,-131.38,278,-6326,-5587,0,-1,0
84.09,178.23,-131.37,266,-6345,-5589,0,-1,-1
84.11,178.23,-131.38,258,-6332,-5551,-1,-1,-1
84.13,178.21,-131.41,253,-6318,-5547,-1,0,-1
84.16,178.19,-131.43,255,-6310,-5530,-2,0,-1
84.18,178.18,-131.46,263,-6297,-5527,-2,-1,-1
84.20,178.17,-131.50,259,-6299,-5542,-2,-1,-1
84.23,178.18,-131.54,254,-6295,-5555,-2,-1,-1
84.25,178.18,-131.58,263,-6297,-5581,-2,-1,-1
84.27,178.18,-131.62,271,-6297,-5607,-2,-1,-1
84.28,178.18,-131.66,285,-6292,-5634,-2,-1,-1
84.30,178.18,-131.69,298,-6296,-5652,-1,-1,-1
84.31,178.18,-131.70,302,-6288,-5642,-1,-1,0
84.31,178.18,-131.70,304,-6279,-5621,0,-1,0
84.31,178.19,-131.70,292,-6279,-5578,-1,-1,0
84.33,178.19,-131.71,287,-6286,-5597,-1,-1,0
84.32,178.21,-131.72,287,-6280,-5594,-1,-1,0
84.32,178.24,-131.71,269,-6277,-5603,0,-1,1
84.32,178.29,-131.70,265,-6282,-5601,0,-2,1
84.32,178.34,-131.70,260,-6311,-5649,0,-2,1
84.33,178.39,-131.67,250,-6320,-5621,0,-2,1
84.34,178.45,-131.66,235,-6294,-5569,-1,-2,1
84.35,178.52,-131.68,218,-6270,-5547,-1,-2,1
84.38,178.57,-131.70,200,-6256,-5541,-2,-2,1
84.40,178.62,-131.75,196,-6253,-5581,-2,-2,0
84.44,178.66,-131.80,199,-6280,-5619,-2,-2,0
84.47,178.71,-131.84,203,-6296,-5656,-2,-2,0
84.50,178.75,-131.89,199,-6305,-5663,-2,-2,0
84.54,178.80,-131.94,182,-6293,-5652,-2,-2,0
84.57,178.85,-131.99,161,-6279,-5625,-2,-2,0
84.60,178.89,-132.03,152,-6260,-5611,-2,-2,0
84.63,178.92,-132.08,162,-6243,-5615,-2,-2,0
84.66,178.94,-132.12,171,-6252,-5655,-2,-2,0
84.67,178.97,-132.15,183,-6250,-5683,-1,-1,0
84.67,179.00,-132.16,179,-6260,-5709,-1,-1,0
84.66,179.02,-132.17,173,-6259,-5723,0,-1,0
84.66,179.04,-132.14,161,-6254,-5717,1,-1,0
84.67,179.06,-132.12,152,-6249,-5693,1,-1,0
84.67,179.10,-132.09,130,-6241,-5656,0,-2,0
84.69,179.14,-132.05,132,-6231,-5609,0,-2,0
84.68,179.17,-132.04,128,-6219,-5610,0,-1,0
84.67,179.18,-132.02,121,-6224,-5608,0,-1,0
84.67,179.20,-131.99,107,-6250,-5626,1,-1,0
84.68,179.20,-131.95,105,-6280,-5638,1,-1,0
84.68,179.21,-131.92,104,-6307,-5654,0,-1,0
84.67,179.21,-131.91,120,-6316,-5668,0,0,-1
84.68,179.20,-131.90,128,-6300,-5656,0,-1,-1
84.70,179.20,-131.90,127,-6271,-5624,0,-1,-1
84.71,179.20,-131.90,125,-6271,-5606,-1,-1,-1
84.72,179.21,-131.90,107,-6280,-5589,-1,-1,-1
84.74,179.22,-131.91,103,-6283,-5596,-1,-1,0
84.75,179.24,-131.94,98,-6271,-5611,-1,-1,0
84.77,179.27,-131.95,96,-6248,-5625,-1,-1,0
84.77,179.30,-131.95,97,-6239,-5643,0,-1,0
84.77,179.33,-131.95,106,-6239,-5650,0,-1,0
84.78,179.35,-131.91,122,-6255,-5624,1,-1,0
84.77,179.38,-131.88,124,-6274,-5608,0,-1,0
84.78,179.41,-131.87,126,-6279,-5608,0,-1,0
84.79,179.45,-131.87,115,-6281,-5624,-1,-1,0
84.80,179.48,-131.88,101,-6276,-5635,-1,-1,0
84.81,179.50,-131.89,97,-6271,-5642,-1,-1,0
84.81,179.54,-131.89,94,-6272,-5648,0,-1,0
84.83,179.57,-131.88,74,-6273,-5645,0,-1,0
84.84,179.61,-131.88,54,-6273,-5639,-1,-1,0
84.86,179.64,-131.90,46,-6275,-5641,-1,-1,0
84.86,179.66,-131.91,39,-6280,-5632,-1,-1,0
84.86,179.67,-131.92,32,-6280,-5656,-1,0,0
84.84,179.68,-131.92,37,-6282,-5653,0,-1,0
84.84,179.69,-131.90,52,-6282,-5637,0,-1,0
84.85,179.72,-131.89,52,-6274,-5626,0,-1,0
84.84,179.74,-131.88,49,-6269,-5612,0,-1,0
84.84,179.75,-131.88,44,-6261,-5599,-1,-1,0
84.84,179.76,-131.88,46,-6262,-5623,-1,-1,0
84.83,179.77,-131.88,40,-6256,-5618,0,-1,0
84.82,179.79,-131.88,35,-6258,-5621,0,-1,0
84.82,179.80,-131.86,35,-6262,-5623,0,-1,0
84.81,179.83,-131.85,24,-6262,-5614,0,-1,0
84.81,179.86,-131.85,21,-6258,-5612,0,-1,0
84.79,179.86,-131.84,21,-6261,-5613,0,0,0
84.78,179.87,-131.84,22,-6261,-5614,0,-1,0
84.78,179.88,-131.83,21,-6261,-5613,0,-1,0
84.77,179.90,-131.83,13,-6270,-5605,0,-1,0
84.77,179.92,-131.83,8,-6290,-5607,-1,-1,0
84.76,179.93,-131.83,19,-6307,-5626,-1,-1,0
84.75,179.93,-131.85,14,-6314,-5620,-1,0,-1
84.74,179.91,-131.87,20,-6312,-5625,-1,0,-1
84.76,179.90,-131.89,14,-6291,-5627,-2,0,-1
84.76,179.90,-131.91,7,-6264,-5616,-1,0,-1
84.75,179.89,-131.94,2,-6262,-5642,-1,0,-1
84.76,179.87,-131.94,-4,-6258,-5640,-1,0,-1
84.76,179.84,-131.94,10,-6269,-5649,-1,0,-1
84.77,179.82,-131.96,40,-6284,-5682,-1,0,-1
84.79,179.82,-131.96,42,-6268,-5710,0,-1,-1
84.79,179.82,-131.92,38,-6260,-5676,2,-1,0
84.80,179.83,-131.88,14,-6261,-5651,1,-1,-1
84.86,179.86,-131.83,17,-6254,-5552,0,-2,-1
84.91,179.88,-131.84,24,-6270,-5575,0,-2,0
84.99,179.94,-131.86,29,-6287,-5589,-2,-3,0
85.04,179.99,-131.86,14,-6292,-5666,2,-3,0
85.07,-179.97,-131.82,14,-6284,-5639,0,-2,0
85.10,-179.95,-131.78,35,-6270,-5637,1,-1,0
85.09,-179.94,-131.72,16,-6262,-5638,2,-1,0
85.08,-179.93,-131.64,16,-6253,-5602,3,-1,0
85.07,-179.89,-131.55,-17,-6284,-5584,2,-2,0
85.05,-179.89,-131.46,-36,-6358,-5672,3,0,-1
85.03,-179.90,-131.35,-7,-6367,-5648,3,0,0
85.02,-179.89,-131.26,-3,-6374,-5673,4,-1,0
84.98,-179.87,-131.14,-11,-6365,-5631,3,0,0
84.94,-179.87,-131.01,-26,-6363,-5573,5,0,0
84.93,-179.89,-130.87,18,-6354,-5493,4,0,-1
84.89,-179.93,-130.75,37,-6314,-5477,4,0,-1
84.86,-179.94,-130.66,27,-6329,-5414,2,0,0
84.82,-179.95,-130.59,9,-6338,-5429,2,0,0
84.82,-179.93,-130.53,7,-6328,-5422,2,-1,0
84.81,-179.88,-130.48,-17,-6359,-5490,2,-1,1
84.77,-179.82,-130.40,-38,-6373,-5478,3,-2,2
84.75,-179.74,-130.31,-90,-6388,-5394,1,-1,1
84.72,-179.70,-130.26,-94,-6435,-5422,2,0,1
84.68,-179.68,-130.21,-80,-6487,-5461,1,0,0
84.64,-179.69,-130.18,-77,-6523,-5491,0,1,-1
84.61,-179.73,-130.16,-41,-6554,-5531,0,1,-1
84.59,-179.77,-130.15,-16,-6500,-5505,-1,0,-1
84.59,-179.79,-130.17,14,-6484,-5555,0,0,-1
84.60,-179.80,-130.14,18,-6457,-5543,1,-1,0
84.61,-179.78,-130.10,13,-6437,-5513,1,-1,0
84.61,-179.76,-130.03,2,-6406,-5483,2,-1,0
84.62,-179.75,-129.93,-22,-6403,-5427,3,-1,-1
84.62,-179.75,-129.83,-30,-6396,-5350,3,-1,-1
84.62,-179.76,-129.76,-31,-6393,-5304,1,0,-1
84.62,-179.76,-129.73,-35,-6391,-5226,-1,-1,-1
84.63,-179.77,-129.74,-31,-6420,-5258,-2,-1,-1
84.63,-179.78,-129.79,-36,-6445,-5291,-3,0,-1
84.65,-179.79,-129.85,-42,-6466,-5343,-3,0,-1
84.65,-179.81,-129.94,-41,-6497,-5420,-4,0,-1
84.66,-179.82,-129.99,-46,-6520,-5462,-2,0,-1
84.66,-179.85,-130.03,-47,-6483,-5410,-3,0,-1
84.66,-179.87,-130.12,-36,-6468,-5441,-2,0,-1
84.66,-179.90,-130.16,-37,-6439,-5420,-3,0,-1
84.66,-179.94,-130.23,-29,-6435,-5432,-3,1,-2
84.66,-179.99,-130.29,-12,-6421,-5419,-3,1,-1
84.65,179.97,-130.37,8,-6409,-5438,-3,0,-1
84.65,179.96,-130.43,16,-6397,-5450,-2,0,-1
84.65,179.95,-130.49,25,-6406,-5495,-2,0,0
84.64,179.95,-130.53,23,-6413,-5525,-2,0,0
84.64,179.95,-130.55,14,-6447,-5572,-1,0,0
84.63,179.96,-130.54,24,-6428,-5533,0,0,0
84.63,179.97,-130.53,24,-6389,-5475,0,-1,0
84.62,-180.00,-130.53,7,-6407,-5474,-1,-1,0
84.63,-179.99,-130.53,-6,-6424,-5478,0,-1,0
84.64,-179.99,-130.54,-2,-6389,-5442,-1,-1,-1
84.65,-179.99,-130.56,4,-6398,-5465,-1,0,-1
84.64,-179.99,-130.57,6,-6408,-5510,-1,-1,0
84.65,-179.99,-130.58,15,-6415,-5515,-1,-1,0
84.66,-179.98,-130.58,15,-6415,-5528,0,-1,0
84.66,-179.95,-130.56,7,-6420,-5523,0,-1,0
84.67,-179.94,-130.54,-3,-6403,-5484,0,-1,0
84.67,-179.93,-130.53,-9,-6381,-5443,0,-1,0
84.67,-179.93,-130.54,-13,-6376,-5431,-1,0,-1
84.67,-179.94,-130.56,-15,-6390,-5440,-1,0,-1
84.66,-179.96,-130.58,-18,-6404,-5451,-1,0,-1
84.65,-179.98,-130.62,-11,-6413,-5493,-1,0,-1
84.66,180.00,-130.63,0,-6392,-5481,-1,0,-1
84.65,179.98,-130.67,-7,-6398,-5501,-1,0,-1
84.63,179.95,-130.68,3,-6403,-5486,-2,0,-1
84.63,179.93,-130.70,7,-6392,-5491,-1,0,-1
84.61,179.91,-130.71,9,-6382,-5473,-1,0,-1
84.60,179.90,-130.74,14,-6383,-5480,-1,0,-1
84.60,179.87,-130.75,19,-6391,-5498,-1,0,-1
84.59,179.84,-130.76,21,-6392,-5487,-1,0,-1
84.57,179.83,-130.77,30,-6380,-5488,-1,0,-1
84.58,179.81,-130.80,36,-6382,-5506,-2,0,-1
84.57,179.80,-130.83,37,-6401,-5539,-1,0,-1
84.56,179.79,-130.83,46,-6370,-5513,-1,0,-1
84.56,179.78,-130.84,46,-6352,-5500,-1,0,-1
84.56,179.77,-130.87,45,-6367,-5530,-1,0,-1
84.54,179.75,-130.88,41,-6388,-5554,-1,0,-1
84.55,179.74,-130.90,38,-6401,-5546,-1,0,-1
84.53,179.72,-130.91,42,-6401,-5547,-1,0,-1
84.53,179.72,-130.92,39,-6398,-5541,-1,0,-1
84.53,179.71,-130.94,29,-6374,-5526,-1,0,-1
84.52,179.70,-130.96,24,-6367,-5527,-1,0,-1
84.53,179.68,-130.98,21,-6363,-5531,-1,0,-1
84.53,179.66,-131.00,38,-6367,-5537,-1,0,-1
84.52,179.65,-131.00,50,-6351,-5518,-1,0,-1
84.52,179.64,-131.02,44,-6357,-5526,-1,0,-1
84.52,179.63,-131.03,36,-6347,-5497,-1,0,-1
84.51,179.62,-131.06,50,-6350,-5507,-1,0,-1
84.51,179.61,-131.08,59,-6339,-5519,-1,0,-1
84.51,179.60,-131.08,60,-6330,-5518,-1,0,-1
84.50,179.60,-131.09,61,-6333,-5527,-1,0,0
84.50,179.60,-131.10,64,-6345,-5561,-1,0,-1
84.50,179.59,-131.10,66,-6350,-5568,0,-1,0
84.50,179.61,-131.10,65,-6343,-5554,-1,-1,0
84.50,179.61,-131.11,60,-6350,-5554,-1,-1,0
84.49,179.61,-131.12,55,-6358,-5553,-1,0,-1
84.49,179.60,-131.12,59,-6362,-5547,-1,0,-1
84.49,179.60,-131.13,52,-6353,-5543,-1,0,-1
84.50,179.60,-131.14,55,-6363,-5553,-1,0,-1
84.50,179.59,-131.15,54,-6367,-5563,-1,0,-1
84.49,179.57,-131.16,56,-6353,-5552,-1,0,-1
84.49,179.56,-131.17,57,-6338,-5542,-1,0,-1
84.48,179.56,-131.19,61,-6330,-5545,-1,0,-1
84.48,179.56,-131.19,69,-6325,-5543,-1,0,-1
84.48,179.55,-131.19,65,-6340,-5542,-1,0,-1
84.48,179.54,-131.19,72,-6338,-5545,-1,0,-1
84.48,179.55,-131.21,74,-6337,-5541,-1,-1,0
84.49,179.54,-131.23,63,-6354,-5562,-1,0,-1
84.49,179.54,-131.24,62,-6345,-5557,-1,0,-1
84.49,179.54,-131.25,65,-6331,-5541,-1,0,-1
84.49,179.54,-131.26,71,-6335,-5555,-1,0,0
84.50,179.54,-131.27,72,-6326,-5562,-1,-1,0
84.49,179.54,-131.28,70,-6328,-5562,-1,-1,0
84.50,179.55,-131.28,71,-6328,-5567,-1,-1,0
84.50,179.55,-131.30,65,-6332,-5574,-1,-1,0
84.50,179.55,-131.31,63,-6331,-5579,-1,0,0
84.50,179.55,-131.32,54,-6334,-5578,-1,0,-1
84.50,179.54,-131.33,54,-6339,-5581,-1,0,-1
84.50,179.53,-131.34,62,-6336,-5571,-1,0,-1
84.50,179.53,-131.35,68,-6332,-5575,-1,0,-1
84.50,179.53,-131.35,68,-6324,-5572,-1,0,0
84.50,179.52,-131.36,76,-6317,-5544,-1,0,-1
84.49,179.51,-131.36,74,-6314,-5556,0,0,-1
84.49,179.51,-131.36,77,-6315,-5559,-1,0,0
84.50,179.51,-131.37,74,-6320,-5564,-1,-1,0
84.50,179.51,-131.37,75,-6326,-5573,-1,-1,0
84.49,179.52,-131.38,71,-6328,-5573,-1,0,0
84.50,179.51,-131.38,71,-6331,-5573,-1,0,-1
84.50,179.51,-131.39,72,-6331,-5576,-1,0,0
84.50,179.51,-131.39,68,-6317,-5567,-1,-1,0
84.50,179.51,-131.39,73,-6319,-5570,-1,0,0
84.50,179.51,-131.39,70,-6326,-5571,-1,-1,0
84.50,179.51,-131.40,69,-6333,-5579,-1,0,-1
84.50,179.51,-131.41,70,-6327,-5586,-1,0,0
84.51,179.51,-131.42,67,-6324,-5591,-1,0,-1
84.50,179.51,-131.43,72,-6325,-5590,-1,0,-1
84.50,179.50,-131.43,72,-6324,-5590,-1,0,-1
84.51,179.50,-131.45,73,-6329,-5586,-1,0,-1
84.51,179.50,-131.45,73,-6325,-5569,-1,0,-1
84.52,179.49,-131.47,68,-6317,-5576,-1,0,-1
84.51,179.49,-131.48,70,-6307,-5584,-1,0,-1
84.52,179.49,-131.49,78,-6305,-5576,-1,-1,0
84.52,179.49,-131.50,85,-6298,-5589,-1,-1,0
84.51,179.48,-131.50,79,-6305,-5588,-1,-1,0
84.52,179.49,-131.51,80,-6308,-5577,-1,-1,-1
84.52,179.49,-131.51,82,-6313,-5574,-1,-1,-1
84.53,179.48,-131.53,79,-6311,-5578,-1,-1,-1
84.55,179.49,-131.54,78,-6303,-5589,-1,0,-1
84.54,179.49,-131.56,76,-6302,-5587,-1,0,-1
84.54,179.47,-131.57,74,-6301,-5579,-1,0,-1
84.54,179.47,-131.57,85,-6303,-5583,-1,0,-1
84.55,179.47,-131.58,78,-6305,-5587,-1,0,0
84.55,179.47,-131.58,78,-6309,-5596,-1,-1,0
84.54,179.47,-131.59,71,-6307,-5599,-1,0,-1
84.54,179.47,-131.59,70,-6308,-5602,-1,0,-1
84.54,179.47,-131.59,78,-6305,-5596,-1,0,-1
84.55,179.47,-131.61,79,-6306,-5605,-1,0,-1
84.55,179.47,-131.61,81,-6304,-5597,-1,-1,-1
84.56,179.47,-131.61,83,-6305,-5592,-1,-1,0
84.56,179.47,-131.62,77,-6304,-5583,-1,0,-1
84.56,179.46,-131.63,81,-6307,-5585,-1,0,-1
84.57,179.46,-131.63,83,-6307,-5593,-1,-1,-1
84.57,179.46,-131.64,84,-6305,-5592,-1,-1,0
84.57,179.47,-131.64,69,-6297,-5597,0,-1,-1
84.57,179.47,-131.65,77,-6295,-5601,-1,-1,-1
84.58,179.47,-131.66,86,-6293,-5599,-1,-1,-1
84.58,179.46,-131.67,93,-6286,-5604,-1,-1,0
84.58,179.47,-131.68,89,-6279,-5607,-1,-1,0
84.59,179.47,-131.69,80,-6286,-5607,-1,-1,0
84.59,179.47,-131.69,83,-6297,-5607,-1,-1,0
84.58,179.47,-131.70,81,-6291,-5599,-1,-1,0
84.58,179.47,-131.70,87,-6290,-5601,-1,-1,0
84.59,179.47,-131.71,88,-6296,-5613,-1,-1,0
84.60,179.48,-131.71,78,-6294,-5611,-1,0,-1
84.60,179.47,-131.72,79,-6289,-5623,-1,0,-1
84.59,179.47,-131.73,73,-6288,-5620,-1,0,-1
84.59,179.47,-131.74,76,-6293,-5619,-1,0,-1
84.59,179.46,-131.74,83,-6291,-5615,-1,0,-1
84.60,179.46,-131.75,77,-6282,-5613,-1,0,-1
84.60,179.46,-131.75,68,-6279,-5610,-1,0,-1
84.60,179.46,-131.76,70,-6280,-5619,-1,-1,0
84.59,179.46,-131.76,75,-6282,-5615,-1,0,0
84.59,179.46,-131.76,74,-6279,-5615,-1,-1,0
84.59,179.46,-131.76,78,-6282,-5616,0,-1,0
84.59,179.47,-131.75,79,-6283,-5602,-1,-1,0
84.59,179.47,-131.75,70,-6287,-5602,0,0,0
84.59,179.48,-131.75,77,-6289,-5605,-1,-1,0
84.59,179.48,-131.75,75,-6280,-5599,-1,-1,0
84.60,179.47,-131.76,75,-6277,-5611,-1,-1,0
84.60,179.47,-131.77,78,-6280,-5613,-1,0,0
84.59,179.48,-131.77,78,-6279,-5622,-1,0,0
84.59,179.48,-131.77,79,-6280,-5618,0,0,0
84.59,179.48,-131.77,81,-6285,-5612,-1,0,0
84.59,179.47,-131.77,79,-6287,-5610,-1,-1,-1
84.59,179.47,-131.77,74,-6291,-5603,-1,-1,-1
84.60,179.47,-131.78,77,-6290,-5618,-1,-1,-1
84.61,179.47,-131.79,76,-6286,-5625,-1,0,0
84.61,179.47,-131.79,78,-6277,-5625,-1,0,-1
84.61,179.47,-131.79,84,-6273,-5619,0,-1,-1
84.61,179.47,-131.79,86,-6272,-5630,0,0,0
84.59,179.47,-131.80,83,-6274,-5626,0,-1,0
84.59,179.47,-131.80,86,-6282,-5630,0,-1,0
84.59,179.47,-131.80,79,-6281,-5627,0,-1,0
84.60,179.47,-131.80,76,-6278,-5628,-1,-1,0
84.60,179.47,-131.80,70,-6280,-5626,-1,-1,0
84.60,179.47,-131.80,78,-6283,-5628,-1,0,-1
84.60,179.47,-131.80,81,-6282,-5622,-1,-1,0
84.60,179.47,-131.81,79,-6281,-5618,-1,0,0
84.60,179.47,-131.81,79,-6287,-5624,-1,0,-1
84.60,179.47,-131.81,80,-6287,-5628,-1,-1,0
84.61,179.47,-131.81,85,-6281,-5625,0,-1,0
84.61,179.48,-131.81,80,-6291,-5618,-1,-1,0
84.61,179.47,-131.81,84,-6284,-5621,-1,-1,0
84.61,179.48,-131.82,81,-6281,-5621,-1,-1,0
84.60,179.48,-131.82,76,-6283,-5624,-1,-1,0
84.60,179.48,-131.82,78,-6280,-5626,0,0,0
84.60,179.48,-131.82,82,-6286,-5629,0,0,0
84.60,179.48,-131.82,78,-6276,-5628,0,0,0
84.60,179.48,-131.82,83,-6272,-5624,-1,-1,0
84.60,179.48,-131.82,79,-6273,-5618,-1,-1,0
84.60,179.48,-131.82,79,-6276,-5620,-1,0,-1
84.60,179.48,-131.82,77,-6283,-5625,-1,-1,0
84.60,179.48,-131.82,78,-6287,-5626,-1,0,0
84.60,179.48,-131.82,82,-6286,-5626,-1,0,0
84.60,179.47,-131.82,76,-6288,-5634,-1,0,-1
84.60,179.47,-131.82,80,-6286,-5625,0,0,-1
84.60,179.47,-131.82,75,-6274,-5620,0,0,-1
84.60,179.47,-131.82,72,-6275,-5608,0,-1,0
84.60,179.47,-131.82,69,-6279,-5625,-1,0,-1
84.60,179.47,-131.82,73,-6283,-5627,-1,-1,0
84.61,179.48,-131.83,81,-6280,-5623,-1,0,0
84.61,179.48,-131.83,85,-6278,-5609,-1,-1,0
84.60,179.47,-131.82,80,-6278,-5614,0,0,-1
84.60,179.47,-131.82,84,-6282,-5614,-1,-1,0
84.60,179.48,-131.82,79,-6282,-5614,0,0,0
84.60,179.47,-131.82,89,-6283,-5618,-1,-1,-1
84.60,179.47,-131.82,79,-6281,-5625,-1,-1,0
84.60,179.47,-131.82,79,-6285,-5620,-1,0,0
84.61,179.48,-131.83,85,-6278,-5629,-1,0,0
84.61,179.47,-131.83,85,-6278,-5629,-1,0,0
84.61,179.47,-131.83,85,-6277,-5623,0,-1,0
84.60,179.47,-131.82,79,-6280,-5608,-1,-1,0
84.60,179.47,-131.82,75,-6288,-5613,0,-1,-1
84.60,179.47,-131.82,77,-6295,-5607,-1,0,-1
84.61,179.48,-131.83,77,-6284,-5619,-1,-1,-1
84.60,179.48,-131.84,75,-6278,-5632,-1,-1,0
84.61,179.48,-131.85,76,-6270,-5636,-1,0,0
84.61,179.48,-131.85,78,-6268,-5641,-1,0,0
84.61,179.48,-131.85,77,-6269,-5630,0,0,0
84.61,179.48,-131.85,76,-6272,-5628,0,0,0
84.61,179.48,-131.85,72,-6270,-5624,0,0,0
84.61,179.48,-131.85,76,-6275,-5622,0,0,0
84.59,179.49,-131.85,78,-6283,-5622,-1,-1,0
84.60,179.48,-131.84,77,-6283,-5615,0,0,0
84.59,179.49,-131.85,74,-6293,-5623,-1,0,0
84.59,179.49,-131.85,67,-6285,-5616,-1,-1,0
84.59,179.49,-131.85,69,-6276,-5614,-1,-1,0
84.60,179.49,-131.85,68,-6273,-5614,-1,-1,0
84.60,179.49,-131.85,73,-6274,-5621,-1,0,0
84.60,179.49,-131.85,76,-6278,-5623,-1,-1,0
84.61,179.49,-131.85,73,-6283,-5619,-1,-1,0
84.60,179.50,-131.86,68,-6283,-5617,-1,-1,0
84.60,179.50,-131.86,68,-6278,-5621,-1,-1,0
84.61,179.50,-131.87,68,-6275,-5613,-1,-1,0
84.61,179.50,-131.87,68,-6275,-5618,-1,0,0
84.61,179.51,-131.87,74,-6278,-5620,0,0,0
84.60,179.50,-131.86,78,-6277,-5619,0,0,0
84.60,179.50,-131.86,82,-6282,-5633,0,-1,0
84.61,179.51,-131.87,71,-6287,-5632,-1,-1,0
84.61,179.51,-131.87,74,-6284,-5633,-1,-1,0
84.61,179.51,-131.87,75,-6274,-5630,-1,0,0
84.61,179.51,-131.87,72,-6274,-5630,0,0,-1
84.61,179.50,-131.87,71,-6270,-5639,-1,-1,0
84.61,179.50,-131.88,75,-6269,-5636,-1,-1,-1
84.60,179.50,-131.88,78,-6273,-5641,-1,-1,0
84.60,179.50,-131.88,77,-6275,-5634,-1,-1,0
84.61,179.50,-131.89,73,-6274,-5622,-1,-1,0
84.61,179.50,-131.89,81,-6267,-5626,-1,-1,0
84.61,179.51,-131.89,74,-6267,-5626,-1,-1,0
84.61,179.51,-131.89,72,-6267,-5637,0,-1,0
84.61,179.51,-131.89,75,-6264,-5627,-1,0,0
84.61,179.52,-131.90,72,-6267,-5626,-1,-1,0
84.61,179.52,-131.90,70,-6266,-5627,-1,-1,0
84.61,179.52,-131.90,70,-6263,-5629,-1,0,-1
84.61,179.52,-131.90,71,-6264,-5632,-1,0,0
84.61,179.52,-131.90,71,-6269,-5641,0,0,0
84.61,179.52,-131.90,69,-6274,-5636,0,0,0
84.61,179.52,-131.90,77,-6278,-5626,0,0,-1
84.61,179.52,-131.90,69,-6272,-5623,-1,-1,0
84.61,179.52,-131.90,68,-6274,-5623,-1,-1,0
84.61,179.52,-131.90,66,-6276,-5623,-1,-1,-1
84.62,179.52,-131.92,71,-6274,-5628,-1,-1,0
84.61,179.52,-131.92,71,-6268,-5627,-1,0,0
84.61,179.52,-131.92,68,-6264,-5631,-1,-1,0
84.61,179.52,-131.92,74,-6269,-5630,-1,-1,0
84.61,179.52,-131.92,69,-6258,-5639,-1,-1,0
84.62,179.53,-131.93,74,-6267,-5642,-1,-1,0
84.61,179.53,-131.93,69,-6271,-5641,0,-1,0
84.61,179.54,-131.92,66,-6276,-5634,0,0,0
84.61,179.54,-131.92,65,-6277,-5633,-1,0,-1
84.61,179.54,-131.92,69,-6270,-5630,0,0,0
84.61,179.54,-131.92,73,-6276,-5626,-1,-1,0
84.61,179.53,-131.93,72,-6269,-5631,-1,-1,-1
84.61,179.53,-131.93,70,-6274,-5632,-1,-1,-1
84.61,179.53,-131.93,74,-6271,-5629,-1,-1,-1
84.61,179.53,-131.93,65,-6269,-5626,-1,-1,0
84.62,179.54,-131.93,67,-6272,-5630,-1,-1,0
84.63,179.55,-131.94,71,-6271,-5631,-1,-1,0
84.63,179.54,-131.94,66,-6271,-5640,-1,-1,0
84.63,179.55,-131.94,70,-6264,-5630,0,-1,0
84.63,179.55,-131.94,67,-6251,-5634,0,-1,0
84.63,179.56,-131.94,61,-6254,-5628,0,-1,0
84.63,179.56,-131.94,66,-6260,-5631,0,-1,0
84.63,179.56,-131.95,64,-6260,-5635,-1,-1,0
84.63,179.56,-131.95,69,-6264,-5637,-1,-1,0
84.63,179.57,-131.94,71,-6268,-5640,0,0,0
84.63,179.56,-131.95,75,-6277,-5639,-1,-1,-1
84.63,179.56,-131.95,70,-6275,-5645,-1,-1,-1
84.63,179.56,-131.95,69,-6268,-5642,-1,-1,-1
84.63,179.56,-131.95,72,-6270,-5644,-1,-1,0
84.64,179.57,-131.96,66,-6265,-5636,-1,-1,0
84.63,179.57,-131.97,66,-6263,-5640,-1,-1,0
84.63,179.57,-131.97,61,-6263,-5632,-1,-1,0
84.65,179.59,-131.97,64,-6261,-5642,-1,-1,0
84.65,179.59,-131.97,63,-6261,-5642,-1,-1,0
84.64,179.59,-131.98,72,-6252,-5641,-1,-1,0
84.65,179.60,-131.98,64,-6256,-5650,0,-1,0
84.65,179.61,-131.97,56,-6263,-5646,0,-1,0
84.65,179.61,-131.98,57,-6274,-5646,-1,-1,0
84.65,179.62,-131.97,63,-6274,-5650,-1,-1,0
84.66,179.61,-131.98,61,-6283,-5655,-1,-1,0
84.65,179.62,-131.99,55,-6271,-5648,-1,-1,0
84.66,179.62,-132.00,60,-6269,-5654,-1,0,-1
84.66,179.62,-132.00,63,-6263,-5646,0,0,0
84.66,179.62,-132.00,61,-6263,-5647,-1,-1,0
84.66,179.62,-132.00,61,-6263,-5650,0,-1,0
84.66,179.62,-132.00,62,-6265,-5649,0,-1,0
84.66,179.63,-131.99,59,-6264,-5642,0,-1,0
84.66,179.64,-131.99,53,-6269,-5643,0,-1,0
84.66,179.64,-131.98,50,-6259,-5638,0,-1,0
84.66,179.65,-131.98,53,-6261,-5646,0,-1,0
84.66,179.65,-131.98,52,-6264,-5644,0,-1,0
84.66,179.65,-131.96,53,-6268,-5632,0,-1,0
84.66,179.66,-131.95,59,-6267,-5633,0,-1,0
84.67,179.65,-131.95,56,-6267,-5643,0,-1,0
84.67,179.66,-131.94,53,-6269,-5652,0,-1,-1
84.68,179.67,-131.93,49,-6269,-5646,0,-1,0
84.67,179.67,-131.91,57,-6266,-5638,0,-1,0
84.68,179.68,-131.91,48,-6272,-5640,0,-1,0
84.68,179.68,-131.90,47,-6275,-5644,0,-1,0
84.69,179.69,-131.88,44,-6274,-5641,0,-1,0
84.69,179.70,-131.87,42,-6275,-5637,0,-1,0
84.69,179.71,-131.85,51,-6281,-5629,0,-1,0
84.71,179.73,-131.83,44,-6295,-5620,0,-1,0
84.72,179.74,-131.81,41,-6289,-5623,0,-1,0
84.73,179.76,-131.79,38,-6290,-5615,0,-1,0
84.73,179.79,-131.78,36,-6286,-5622,0,-1,0
84.75,179.81,-131.76,34,-6292,-5623,0,-1,0
84.76,179.82,-131.74,36,-6296,-5637,1,-1,0
84.78,179.85,-131.71,34,-6285,-5618,0,-1,0
84.81,179.88,-131.69,33,-6288,-5611,1,-2,0
84.82,179.91,-131.65,28,-6287,-5611,1,-2,0
84.85,179.94,-131.62,20,-6293,-5610,1,-2,0
84.87,179.98,-131.59,15,-6302,-5600,1,-2,0
84.90,-179.98,-131.56,9,-6304,-5609,1,-2,0
84.93,-179.94,-131.52,9,-6308,-5584,0,-2,0
84.95,-179.91,-131.50,-3,-6313,-5596,1,-2,0
84.98,-179.87,-131.47,-5,-6305,-5587,1,-2,0
85.01,-179.84,-131.43,-14,-6306,-5571,1,-2,0
85.03,-179.82,-131.40,-15,-6323,-5575,1,-2,0
85.04,-179.80,-131.37,-19,-6315,-5527,0,-1,0
85.05,-179.78,-131.38,-18,-6300,-5511,-1,-1,0
85.07,-179.77,-131.41,-27,-6304,-5543,-1,-1,0
85.06,-179.76,-131.43,-23,-6317,-5558,-1,-1,0
85.08,-179.75,-131.46,-29,-6320,-5573,-2,-1,0
85.08,-179.73,-131.49,-26,-6306,-5593,-1,-1,0
85.08,-179.73,-131.51,-35,-6295,-5583,-1,-1,0
85.09,-179.72,-131.52,-39,-6299,-5580,-1,-1,0
85.08,-179.72,-131.53,-36,-6306,-5600,-1,-1,0
85.08,-179.72,-131.54,-47,-6300,-5590,-1,0,-1
85.08,-179.73,-131.56,-51,-6305,-5571,-1,0,-1
85.08,-179.73,-131.57,-46,-6310,-5603,-1,0,-1
85.07,-179.73,-131.59,-47,-6305,-5592,-1,0,-1
85.07,-179.74,-131.61,-34,-6305,-5585,-1,0,-1
85.05,-179.76,-131.63,-31,-6297,-5587,-1,0,-1
85.05,-179.77,-131.66,-33,-6291,-5593,-1,0,-1
85.05,-179.79,-131.67,-30,-6292,-5607,-1,0,-1
85.04,-179.80,-131.69,-31,-6303,-5610,-1,0,-1
85.05,-179.81,-131.70,-27,-6291,-5612,-1,0,-1
85.04,-179.82,-131.72,-28,-6282,-5606,-1,0,-1
85.03,-179.82,-131.74,-26,-6283,-5609,-1,0,-1
85.03,-179.83,-131.76,-24,-6280,-5604,-1,0,-1
85.03,-179.85,-131.78,-28,-6286,-5619,-1,0,-1
85.02,-179.86,-131.79,-21,-6292,-5626,-1,0,-1
85.01,-179.86,-131.79,-15,-6290,-5611,-1,0,-1
85.01,-179.87,-131.81,-16,-6286,-5601,-1,0,-1
85.01,-179.88,-131.81,-14,-6281,-5606,-1,0,-1
84.99,-179.89,-131.82,-11,-6278,-5611,-1,0,-1
84.99,-179.90,-131.85,-15,-6277,-5619,-1,0,-1
84.97,-179.90,-131.86,-6,-6278,-5618,-1,0,-1
84.98,-179.92,-131.88,-7,-6284,-5633,-1,0,-1
84.97,-179.93,-131.90,-4,-6284,-5639,-1,0,-1
84.96,-179.95,-131.92,-4,-6278,-5624,-1,0,-1
84.96,-179.96,-131.92,-8,-6268,-5628,-1,0,-1
84.95,-179.96,-131.94,-7,-6268,-5636,-1,0,-1
84.94,-179.97,-131.95,-4,-6264,-5632,-1,0,-1
84.94,-179.98,-131.96,-2,-6262,-5637,-1,0,-1
84.93,-179.99,-131.97,2,-6269,-5641,-1,0,-1
84.93,-179.99,-131.98,0,-6265,-5636,-1,0,-1
84.92,-180.00,-131.99,3,-6267,-5644,-1,0,-1
84.92,180.00,-132.00,-2,-6268,-5636,-1,0,-1
84.91,179.99,-132.01,2,-6271,-5643,-1,0,-1
84.91,179.98,-132.02,-6,-6267,-5643,-1,0,-1
84.90,179.98,-132.03,-10,-6268,-5643,-1,0,-1
84.90,179.97,-132.04,0,-6264,-5647,-1,0,-1
84.89,179.95,-132.04,6,-6266,-5657,-1,0,-1
84.90,179.95,-132.05,12,-6261,-5657,-1,0,0
84.88,179.95,-132.05,15,-6255,-5639,-1,0,0
84.88,179.94,-132.05,6,-6265,-5640,-1,0,-1
84.88,179.94,-132.05,7,-6267,-5651,-1,0,-1
84.88,179.93,-132.06,11,-6264,-5656,-1,0,-1
84.86,179.92,-132.07,10,-6255,-5655,-1,0,-1
84.86,179.92,-132.07,14,-6255,-5648,-1,0,-1
84.86,179.91,-132.08,18,-6254,-5648,-1,0,-1
84.86,179.90,-132.08,18,-6254,-5654,-1,0,-1
84.86,179.90,-132.08,18,-6257,-5651,-1,0,-1
84.85,179.89,-132.08,21,-6260,-5657,-1,0,-1
84.85,179.89,-132.09,15,-6254,-5651,0,0,-1
84.85,179.88,-132.08,17,-6254,-5652,0,0,-1
84.84,179.87,-132.08,9,-6251,-5656,0,0,-1
84.83,179.87,-132.08,8,-6250,-5651,0,0,-1
84.83,179.87,-132.08,19,-6248,-5648,0,0,-1
84.83,179.86,-132.07,23,-6250,-5649,0,0,-1
84.83,179.86,-132.08,21,-6250,-5654,0,0,-1
84.82,179.86,-132.07,19,-6254,-5655,0,0,-1
84.82,179.85,-132.08,16,-6257,-5659,-1,0,-1
84.81,179.85,-132.07,13,-6257,-5654,0,0,-1
84.82,179.85,-132.07,16,-6258,-5658,0,0,-1
84.82,179.84,-132.08,19,-6249,-5652,-1,0,-1
84.82,179.84,-132.08,28,-6242,-5654,-1,0,-1
84.82,179.83,-132.08,26,-6239,-5665,-1,0,-1
84.81,179.83,-132.08,31,-6251,-5673,0,0,-1
84.81,179.82,-132.08,32,-6260,-5678,0,0,-1
84.80,179.82,-132.08,29,-6256,-5673,0,0,-1
84.80,179.82,-132.07,25,-6248,-5658,0,0,-1
84.79,179.81,-132.07,28,-6243,-5653,-1,0,-1
84.79,179.81,-132.07,24,-6247,-5649,0,0,-1
84.79,179.81,-132.07,20,-6250,-5654,0,0,-1
84.78,179.80,-132.07,20,-6253,-5659,0,0,-1
84.78,179.80,-132.07,21,-6253,-5658,0,0,-1
84.78,179.80,-132.07,23,-6248,-5653,0,0,-1
84.78,179.79,-132.07,19,-6252,-5643,-1,0,-1
84.77,179.79,-132.06,23,-6258,-5651,0,0,-1
84.77,179.79,-132.06,28,-6248,-5653,0,0,-1
84.78,179.79,-132.06,30,-6245,-5651,0,-1,0
84.78,179.79,-132.06,29,-6247,-5658,0,0,-1
84.78,179.79,-132.05,23,-6252,-5661,0,-1,0
84.78,179.79,-132.05,28,-6254,-5665,0,0,-1
84.78,179.78,-132.06,26,-6258,-5651,0,0,-1
84.77,179.78,-132.05,24,-6255,-5656,0,0,-1
84.77,179.78,-132.05,19,-6252,-5659,0,0,-1
84.77,179.77,-132.06,21,-6256,-5664,0,0,-1
84.77,179.77,-132.06,27,-6255,-5662,-1,0,-1
84.77,179.77,-132.06,31,-6248,-5657,0,0,-1
84.76,179.76,-132.06,41,-6243,-5658,0,0,-1
84.75,179.75,-132.05,47,-6244,-5658,0,0,-1
84.75,179.75,-132.04,48,-6244,-5645,0,0,-1
84.75,179.75,-132.04,42,-6252,-5640,-1,0,-1
84.75,179.74,-132.05,35,-6264,-5649,-1,0,-1
84.75,179.74,-132.06,34,-6262,-5658,-1,0,-1
84.76,179.74,-132.07,36,-6255,-5664,-1,0,-1
84.76,179.73,-132.07,37,-6252,-5668,-1,0,-1
84.76,179.73,-132.07,40,-6250,-5666,0,0,-1
84.75,179.72,-132.07,40,-6245,-5656,0,0,-1
84.74,179.72,-132.07,41,-6247,-5657,-1,-1,0
84.74,179.72,-132.06,31,-6248,-5658,0,0,0
84.74,179.72,-132.06,35,-6257,-5663,0,0,-1
84.74,179.72,-132.06,31,-6257,-5666,-1,0,-1
84.74,179.71,-132.06,38,-6253,-5658,-1,0,-1
84.73,179.71,-132.06,42,-6251,-5657,0,0,-1
84.73,179.70,-132.06,41,-6249,-5666,0,0,-1
84.72,179.70,-132.06,41,-6249,-5659,0,0,-1
84.72,179.69,-132.05,46,-6247,-5652,0,0,-1
84.72,179.69,-132.05,50,-6245,-5650,0,0,-1
84.72,179.69,-132.06,50,-6247,-5651,-1,-1,-1
84.72,179.69,-132.06,47,-6249,-5661,-1,0,-1
84.72,179.69,-132.07,47,-6240,-5662,-1,0,-1
84.72,179.68,-132.07,44,-6239,-5669,0,0,-1
84.72,179.68,-132.07,41,-6239,-5668,0,0,-1
84.72,179.68,-132.07,38,-6239,-5661,0,0,-1
84.72,179.68,-132.07,40,-6242,-5652,0,0,-1
84.71,179.67,-132.06,43,-6239,-5647,0,0,-1
84.71,179.67,-132.06,40,-6239,-5661,0,0,-1
84.71,179.67,-132.06,47,-6245,-5655,0,0,-1
84.71,179.67,-132.06,40,-6250,-5647,0,0,-1
84.71,179.67,-132.06,41,-6248,-5648,0,0,-1
84.71,179.67,-132.06,41,-6251,-5653,-1,0,-1
84.71,179.67,-132.06,40,-6251,-5657,0,0,-1
84.71,179.66,-132.06,51,-6253,-5663,-1,0,-1
84.71,179.66,-132.06,44,-6246,-5658,0,0,-1
84.70,179.66,-132.06,42,-6244,-5660,-1,0,-1
84.71,179.66,-132.07,42,-6239,-5661,-1,0,-1
84.71,179.66,-132.07,46,-6235,-5656,-1,0,-1
84.71,179.66,-132.07,49,-6233,-5660,0,0,-1
84.71,179.66,-132.07,46,-6241,-5656,0,0,-1
84.71,179.66,-132.06,44,-6249,-5658,0,0,-1
84.70,179.66,-132.06,43,-6240,-5654,0,0,-1
84.70,179.65,-132.06,50,-6242,-5660,0,0,-1
84.70,179.65,-132.06,44,-6247,-5666,0,0,0
84.70,179.66,-132.06,47,-6244,-5670,0,0,-1
84.70,179.66,-132.06,51,-6248,-5667,0,0,-1
84.71,179.65,-132.05,52,-6246,-5650,0,0,-1
84.71,179.65,-132.06,50,-6249,-5647,-1,0,-1
84.71,179.64,-132.06,43,-6252,-5655,-1,0,-1
84.70,179.65,-132.07,42,-6249,-5665,-1,-1,-1
84.70,179.64,-132.07,46,-6243,-5667,-1,0,-1
84.70,179.64,-132.07,51,-6239,-5671,0,0,-1
84.70,179.64,-132.08,51,-6239,-5671,0,0,-1
84.70,179.64,-132.08,47,-6242,-5663,0,0,0
84.70,179.64,-132.08,53,-6243,-5669,0,0,-1
84.69,179.64,-132.07,41,-6247,-5668,0,0,0
84.69,179.64,-132.07,35,-6245,-5666,0,0,-1
84.69,179.64,-132.07,31,-6247,-5663,0,0,-1
84.69,179.64,-132.07,33,-6249,-5660,0,0,-1
84.69,179.64,-132.06,41,-6239,-5656,0,0,-1
84.69,179.64,-132.06,46,-6236,-5652,0,-1,0
84.69,179.64,-132.07,44,-6236,-5656,0,0,-1
84.69,179.64,-132.06,52,-6243,-5655,-1,-1,-1
84.69,179.64,-132.07,50,-6240,-5666,0,0,-1
84.69,179.64,-132.07,49,-6240,-5669,-1,-1,-1
84.70,179.64,-132.08,43,-6248,-5668,-1,-1,0
84.69,179.64,-132.08,35,-6241,-5666,-1,0,-1
84.69,179.64,-132.08,46,-6241,-5674,0,0,-1
84.69,179.64,-132.08,45,-6241,-5668,0,0,-1
84.68,179.64,-132.07,48,-6245,-5654,0,0,0
84.69,179.64,-132.07,51,-6246,-5649,0,-1,0
84.68,179.65,-132.07,46,-6245,-5654,0,0,0
84.68,179.65,-132.07,41,-6242,-5659,0,0,-1
84.68,179.65,-132.07,43,-6245,-5662,0,0,-1
84.68,179.65,-132.07,40,-6248,-5660,0,0,-1
84.67,179.64,-132.06,39,-6243,-5658,0,0,-1
84.67,179.64,-132.07,43,-6240,-5651,-1,0,-1
84.67,179.64,-132.07,49,-6243,-5652,-1,0,-1
84.67,179.64,-132.07,45,-6243,-5659,0,0,0
