Yaw,Pitch,Roll,AX,AY,AZ,GX,GY,GZ
-159.41,3.75,-27.64,555,-3817,7328,-1,0,-1
-159.40,3.75,-27.63,525,-3815,7309,1,-1,-1
-159.39,3.76,-27.63,543,-3841,7303,-1,0,-1
-159.37,3.76,-27.62,558,-3822,7314,0,-1,-1
-159.36,3.77,-27.61,547,-3831,7308,0,0,-1
-159.35,3.78,-27.60,537,-3822,7340,-1,-1,-1
-159.34,3.79,-27.61,552,-3819,7316,-1,0,-1
-159.33,3.80,-27.63,555,-3826,7306,-1,0,-1
-159.32,3.81,-27.63,558,-3836,7321,-1,-1,-1
-159.32,3.82,-27.64,563,-3831,7296,-1,-1,-1
-159.32,3.82,-27.65,559,-3839,7299,-1,0,-1
-159.32,3.82,-27.66,550,-3836,7302,-1,0,-1
-159.32,3.82,-27.67,553,-3853,7297,-1,-1,-1
-159.32,3.82,-27.67,557,-3863,7297,0,0,-1
-159.31,3.82,-27.67,555,-3853,7308,0,0,0
-159.32,3.82,-27.66,555,-3842,7302,0,0,-1
-159.31,3.82,-27.65,552,-3828,7294,0,0,-1
-159.31,3.82,-27.65,561,-3824,7312,0,0,0
-159.31,3.82,-27.65,563,-3829,7293,-1,0,0
-159.31,3.80,-27.64,545,-3827,7306,0,0,0
-159.32,3.80,-27.64,542,-3814,7339,-1,-1,0
-159.33,3.79,-27.64,553,-3820,7328,-1,0,0
-159.34,3.78,-27.65,535,-3849,7333,-1,0,0
-159.33,3.79,-27.67,551,-3858,7286,0,0,-1
-159.34,3.79,-27.65,542,-3812,7355,-1,-1,0
-159.36,3.80,-27.68,553,-3847,7277,0,0,-1
-159.36,3.80,-27.69,557,-3813,7276,-2,-1,0
-159.36,3.78,-27.69,535,-3847,7359,-1,0,0
-159.37,3.79,-27.72,538,-3856,7236,0,0,-1
-159.37,3.79,-27.70,549,-3853,7326,-1,-1,0
-159.37,3.80,-27.71,529,-3844,7290,-1,-1,0
-159.37,3.82,-27.70,559,-3848,7297,0,-1,-1
-159.37,3.82,-27.70,563,-3846,7296,-1,0,-1
-159.36,3.83,-27.69,577,-3840,7288,0,0,-1
-159.34,3.82,-27.67,559,-3845,7301,0,0,-1
-159.34,3.82,-27.66,546,-3828,7303,0,0,-1
-159.32,3.82,-27.64,564,-3820,7336,0,0,-1
-159.32,3.81,-27.64,534,-3797,7327,-1,-1,-1
-159.32,3.83,-27.66,533,-3810,7322,-1,-1,-1
-159.32,3.84,-27.68,537,-3847,7298,-1,-1,-1
-159.32,3.85,-27.68,530,-3857,7300,0,-1,-1
-159.32,3.87,-27.68,540,-3863,7301,0,-1,-1
-159.30,3.89,-27.68,568,-3868,7286,0,-1,-1
-159.29,3.91,-27.67,580,-3870,7293,0,-1,-1
-159.28,3.91,-27.64,587,-3847,7309,0,0,-1
-159.28,3.91,-27.62,587,-3823,7307,0,0,0
-159.28,3.91,-27.60,578,-3817,7305,0,0,0
-159.28,3.91,-27.59,565,-3812,7335,0,-1,0
-159.28,3.91,-27.59,563,-3811,7327,-1,-1,0
-159.28,3.91,-27.59,550,-3814,7329,-1,-1,0
-159.28,3.91,-27.59,557,-3817,7326,-1,-1,0
-159.28,3.92,-27.59,562,-3810,7317,-1,-1,-1
-159.28,3.93,-27.60,568,-3811,7311,-1,-1,-1
-159.28,3.92,-27.61,568,-3807,7245,0,1,-1
-159.27,3.91,-27.59,560,-3809,7359,-1,-1,0
-159.28,3.91,-27.61,551,-3843,7325,-1,-1,0
-159.29,3.92,-27.63,550,-3841,7323,-1,-1,0
-159.29,3.94,-27.63,569,-3842,7313,-1,-1,0
-159.29,3.96,-27.64,579,-3851,7291,0,-1,-1
-159.29,3.97,-27.63,575,-3843,7295,0,-1,-1
-159.28,3.97,-27.62,575,-3828,7296,0,0,-1
-159.28,3.97,-27.61,574,-3818,7296,0,0,0
-159.28,3.97,-27.60,574,-3818,7296,0,0,-1
-159.28,3.97,-27.60,569,-3818,7304,0,-1,0
-159.28,3.97,-27.59,569,-3815,7319,0,-1,0
-159.28,3.97,-27.60,570,-3808,7317,-1,-1,0
-159.28,3.98,-27.60,574,-3815,7319,-1,-1,0
-159.29,3.99,-27.61,582,-3820,7315,-1,-1,0
-159.29,3.99,-27.61,575,-3828,7312,-1,-1,0
-159.29,3.99,-27.62,570,-3829,7309,-1,0,0
-159.29,3.99,-27.62,565,-3831,7307,0,0,-1
-159.29,3.99,-27.62,573,-3834,7315,0,0,0
-159.29,3.99,-27.62,577,-3834,7323,-1,0,-1
-159.29,3.99,-27.62,577,-3829,7306,-1,0,0
-159.29,3.99,-27.62,575,-3837,7300,0,-1,0
-159.29,3.99,-27.61,583,-3834,7306,0,-1,-1
-159.29,3.99,-27.61,575,-3835,7315,0,-1,-1
-159.29,4.00,-27.61,584,-3834,7314,0,-1,0
-159.29,4.00,-27.61,588,-3830,7307,0,0,0
-159.29,4.00,-27.61,583,-3825,7305,-1,0,0
-159.29,3.99,-27.61,582,-3821,7296,-1,0,0
-159.30,3.99,-27.61,574,-3810,7297,-1,-1,0
-159.30,3.99,-27.61,561,-3824,7308,0,-1,-1
-159.29,4.00,-27.61,569,-3833,7314,-1,-1,-1
-159.29,4.01,-27.61,571,-3829,7316,-1,-1,-1
-159.29,4.02,-27.61,577,-3824,7322,-1,-1,-1
-159.28,4.03,-27.61,592,-3818,7309,0,-1,-1
-159.28,4.03,-27.61,601,-3820,7314,0,0,0
-159.29,4.03,-27.61,600,-3826,7299,0,0,0
-159.29,4.03,-27.61,592,-3824,7314,0,0,0
-159.29,4.02,-27.60,579,-3823,7317,0,0,0
-159.29,4.02,-27.60,574,-3821,7314,-1,-1,0
-159.30,4.02,-27.60,562,-3828,7318,-1,-1,0
-159.29,4.02,-27.61,564,-3831,7313,0,-1,-1
-159.29,4.03,-27.61,577,-3825,7318,0,-1,-1
-159.28,4.04,-27.60,594,-3824,7317,0,-1,-1
-159.28,4.05,-27.60,595,-3819,7317,-1,0,-1
-159.28,4.05,-27.60,588,-3816,7315,-1,0,0
-159.28,4.04,-27.60,588,-3820,7303,-1,0,0
-159.29,4.04,-27.61,580,-3826,7306,-1,-1,0
-159.29,4.04,-27.61,583,-3827,7305,-1,-1,0
-159.29,4.04,-27.60,585,-3830,7301,-1,-1,0
-159.29,4.05,-27.61,593,-3830,7302,-1,-1,-1
-159.29,4.05,-27.61,582,-3830,7305,0,-1,-1
-159.30,4.05,-27.61,585,-3823,7306,-1,0,0
-159.30,4.05,-27.61,583,-3833,7309,-1,-1,0
-159.30,4.05,-27.61,581,-3825,7307,-1,-1,0
-159.30,4.05,-27.62,582,-3836,7306,-1,0,0
-159.30,4.05,-27.61,588,-3824,7321,0,0,0
-159.29,4.06,-27.61,587,-3819,7314,-1,-1,-1
-159.29,4.06,-27.62,577,-3823,7307,-1,-1,-1
-159.30,4.06,-27.62,588,-3826,7300,0,0,-1
-159.29,4.07,-27.62,588,-3817,7310,-1,-1,0
-159.29,4.07,-27.62,597,-3825,7304,-1,-1,0
-159.29,4.07,-27.62,595,-3830,7300,-1,0,0
-159.30,4.07,-27.62,594,-3834,7306,-1,0,0
-159.30,4.06,-27.62,590,-3832,7309,0,0,0
-159.30,4.06,-27.62,583,-3826,7306,-1,0,0
-159.30,4.05,-27.63,579,-3839,7309,0,-1,0
-159.30,4.05,-27.63,577,-3833,7312,0,-1,-1
-159.30,4.06,-27.62,579,-3823,7317,-1,-1,0
-159.30,4.06,-27.62,588,-3821,7305,-1,-1,0
-159.31,4.07,-27.63,586,-3826,7313,-1,-1,0
-159.31,4.07,-27.63,590,-3821,7311,-1,0,0
-159.32,4.06,-27.63,594,-3816,7304,-1,0,0
-159.32,4.06,-27.63,596,-3812,7305,-1,-1,0
-159.32,4.06,-27.64,593,-3819,7308,-1,0,0
-159.32,4.06,-27.65,588,-3831,7310,-1,0,0
-159.32,4.06,-27.65,579,-3830,7307,-1,-1,0
-159.33,4.06,-27.66,576,-3830,7315,-1,-1,0
-159.33,4.07,-27.67,593,-3835,7310,-1,-1,0
-159.33,4.07,-27.66,600,-3834,7300,0,0,0
-159.34,4.07,-27.66,611,-3837,7303,0,0,0
-159.34,4.06,-27.66,607,-3833,7299,0,0,0
-159.35,4.05,-27.66,588,-3816,7294,-1,0,0
-159.35,4.05,-27.67,584,-3819,7296,-1,0,0
-159.37,4.03,-27.68,565,-3820,7295,-1,0,0
-159.37,4.03,-27.69,566,-3830,7311,-1,-1,0
-159.37,4.04,-27.69,572,-3839,7308,-1,-1,0
-159.38,4.04,-27.71,581,-3855,7305,-1,-1,0
-159.38,4.05,-27.71,607,-3846,7289,-1,-1,0
-159.38,4.06,-27.71,614,-3841,7280,0,0,0
-159.38,4.05,-27.70,608,-3833,7286,0,0,0
-159.38,4.03,-27.69,594,-3835,7279,0,0,-1
-159.37,4.03,-27.69,586,-3834,7285,0,0,-1
-159.37,4.02,-27.68,576,-3836,7301,0,0,-1
-159.36,4.01,-27.67,570,-3837,7312,0,0,-1
-159.36,4.01,-27.67,564,-3837,7302,0,-1,-1
-159.35,4.02,-27.67,569,-3840,7293,0,-1,-1
-159.35,4.03,-27.66,579,-3837,7297,0,-1,-1
-159.34,4.03,-27.65,583,-3831,7296,0,0,-1
-159.34,4.03,-27.64,589,-3824,7308,0,0,-1
-159.34,4.03,-27.64,589,-3832,7314,0,0,-1
-159.33,4.04,-27.64,592,-3830,7321,0,0,-1
-159.33,4.04,-27.64,588,-3830,7317,0,-1,-1
-159.33,4.04,-27.63,585,-3825,7301,0,-1,0
-159.33,4.04,-27.63,586,-3829,7304,0,0,-1
-159.32,4.04,-27.63,583,-3823,7312,0,0,-1
-159.32,4.04,-27.63,585,-3824,7310,0,0,-1
-159.32,4.04,-27.63,580,-3838,7308,0,0,-1
-159.31,4.04,-27.62,590,-3830,7310,0,0,-1
-159.30,4.05,-27.61,591,-3827,7306,0,0,-1
-159.30,4.05,-27.60,592,-3825,7308,0,0,-1
-159.30,4.05,-27.60,590,-3822,7322,0,-1,0
-159.30,4.05,-27.60,585,-3824,7322,0,0,-1
-159.30,4.05,-27.59,585,-3820,7331,0,0,0
-159.30,4.05,-27.59,582,-3824,7323,-1,-1,-1
-159.30,4.05,-27.60,582,-3831,7317,0,0,-1
-159.29,4.05,-27.59,590,-3828,7310,0,0,-1
-159.29,4.05,-27.59,584,-3823,7309,0,0,0
-159.29,4.05,-27.59,577,-3824,7315,0,0,0
-159.29,4.05,-27.58,579,-3825,7317,0,0,0
-159.29,4.05,-27.58,583,-3827,7323,0,0,0
-159.30,4.04,-27.58,584,-3824,7321,0,0,-1
-159.30,4.04,-27.58,581,-3823,7310,0,0,0
-159.30,4.04,-27.58,587,-3823,7318,-1,0,0
-159.30,4.04,-27.58,595,-3818,7308,-1,-1,-1
-159.29,4.04,-27.57,592,-3816,7310,-1,-1,0
-159.29,4.04,-27.57,597,-3825,7317,0,0,-1
-159.29,4.04,-27.57,591,-3816,7327,-1,0,0
-159.29,4.04,-27.57,578,-3817,7318,-1,0,0
-159.29,4.03,-27.58,574,-3827,7296,-1,0,-1
-159.29,4.04,-27.58,580,-3828,7300,0,-1,-1
-159.29,4.05,-27.57,594,-3819,7304,0,-1,-1
-159.29,4.05,-27.57,602,-3822,7307,0,-1,0
-159.28,4.05,-27.57,605,-3820,7317,0,0,0
-159.29,4.04,-27.57,607,-3815,7317,0,0,0
-159.28,4.04,-27.56,590,-3812,7311,-1,0,0
-159.28,4.03,-27.57,568,-3818,7310,-1,0,0
-159.28,4.03,-27.57,554,-3827,7311,-1,-1,-1
-159.28,4.03,-27.57,561,-3833,7320,0,-1,-1
-159.28,4.03,-27.57,577,-3830,7320,0,-1,-1
-159.28,4.04,-27.57,584,-3830,7326,-1,-1,-1
-159.28,4.04,-27.58,596,-3827,7311,-1,0,0
-159.27,4.04,-27.57,603,-3823,7302,0,0,0
-159.28,4.03,-27.57,603,-3813,7304,0,0,0
-159.28,4.03,-27.56,588,-3809,7316,-1,0,0
-159.29,4.01,-27.57,578,-3816,7311,-1,0,0
-159.29,4.01,-27.57,570,-3823,7319,-1,-1,-1
-159.29,4.01,-27.57,568,-3823,7323,-1,-1,-1
-159.29,4.01,-27.57,569,-3815,7304,-1,-1,-1
-159.29,4.02,-27.57,582,-3816,7301,-1,-1,0
-159.28,4.03,-27.58,596,-3831,7302,0,0,-1
-159.28,4.03,-27.57,590,-3816,7314,0,-1,0
-159.28,4.03,-27.56,594,-3815,7319,-1,-1,0
-159.28,4.03,-27.56,594,-3819,7317,-1,-1,0
-159.27,4.04,-27.56,594,-3819,7318,0,-1,-1
-159.27,4.05,-27.56,591,-3815,7318,-1,-1,0
-159.28,4.05,-27.57,598,-3821,7312,-1,-1,0
-159.28,4.05,-27.57,599,-3816,7306,-1,-1,0
-159.28,4.05,-27.57,597,-3817,7308,-1,-1,0
-159.28,4.05,-27.57,591,-3820,7308,-1,-1,0
-159.29,4.05,-27.58,585,-3820,7308,-1,0,0
-159.29,4.05,-27.58,576,-3828,7316,0,-1,-1
-159.29,4.05,-27.58,577,-3829,7313,0,-1,-1
-159.28,4.06,-27.57,580,-3829,7314,0,-1,-1
-159.28,4.07,-27.57,586,-3831,7312,0,-1,-1
-159.28,4.07,-27.57,594,-3831,7305,0,0,-1
-159.27,4.07,-27.57,597,-3830,7312,0,0,0
-159.27,4.07,-27.57,603,-3821,7309,-1,0,0
-159.28,4.07,-27.57,599,-3813,7319,-1,0,0
-159.28,4.07,-27.58,592,-3819,7315,-1,0,0
-159.28,4.07,-27.58,585,-3821,7316,-1,0,0
-159.28,4.07,-27.58,577,-3817,7319,-1,-1,-1
-159.28,4.07,-27.59,577,-3822,7306,-1,-1,-1
-159.28,4.08,-27.58,590,-3820,7300,-1,-1,-1
-159.27,4.08,-27.58,596,-3829,7309,-1,0,-1
-159.28,4.08,-27.59,590,-3829,7301,-1,0,0
-159.28,4.07,-27.59,578,-3841,7307,0,0,0
-159.28,4.07,-27.59,575,-3837,7316,0,-1,0
-159.28,4.08,-27.58,577,-3833,7319,0,-1,-1
-159.28,4.08,-27.58,581,-3822,7325,0,-1,-1
-159.28,4.08,-27.58,591,-3816,7318,-1,0,-1
-159.27,4.08,-27.57,596,-3802,7327,-1,0,0
-159.28,4.07,-27.58,590,-3800,7314,-1,0,0
-159.28,4.07,-27.58,574,-3807,7299,-1,0,0
-159.28,4.06,-27.59,574,-3818,7296,-1,-1,0
-159.28,4.07,-27.60,578,-3830,7313,-1,-1,-1
-159.28,4.08,-27.60,583,-3835,7311,-1,-1,-1
-159.28,4.09,-27.61,590,-3841,7300,0,-1,-1
-159.28,4.09,-27.60,607,-3840,7303,0,-1,-1
-159.28,4.10,-27.60,612,-3836,7299,0,-1,-1
-159.28,4.10,-27.59,615,-3825,7305,0,0,0
-159.28,4.09,-27.59,597,-3815,7304,0,0,0
-159.28,4.08,-27.58,585,-3812,7299,0,0,0
-159.28,4.08,-27.58,575,-3814,7306,0,0,0
-159.29,4.07,-27.59,573,-3816,7312,-1,-1,0
-159.29,4.08,-27.59,581,-3822,7319,-1,-1,-1
-159.28,4.09,-27.59,585,-3816,7317,-1,-1,-1
-159.29,4.09,-27.60,597,-3818,7301,-1,-1,0
-159.28,4.10,-27.59,607,-3823,7310,-1,-1,-1
-159.28,4.10,-27.60,607,-3827,7309,-1,0,0
-159.28,4.10,-27.60,604,-3823,7303,-1,0,0
-159.28,4.10,-27.60,601,-3820,7303,-1,0,0
-159.29,4.09,-27.60,591,-3826,7290,-1,0,0
-159.29,4.09,-27.61,591,-3840,7299,0,0,-1
-159.28,4.10,-27.60,587,-3832,7313,0,-1,-1
-159.28,4.10,-27.60,584,-3820,7309,-1,-1,-1
-159.28,4.10,-27.60,590,-3818,7308,-1,-1,0
-159.28,4.10,-27.60,597,-3817,7297,0,0,0
-159.28,4.10,-27.60,608,-3816,7295,-1,0,0
-159.28,4.10,-27.60,608,-3821,7306,-1,-1,0
-159.28,4.10,-27.60,607,-3828,7303,0,0,0
-159.28,4.10,-27.60,606,-3822,7308,-1,0,0
-159.28,4.11,-27.61,595,-3822,7309,-1,0,-1
-159.28,4.11,-27.61,591,-3818,7304,-1,-1,0
-159.28,4.11,-27.61,588,-3827,7302,-1,-1,0
-159.28,4.11,-27.62,595,-3826,7303,-1,-1,0
-159.28,4.11,-27.61,597,-3827,7308,0,0,0
-159.28,4.11,-27.61,595,-3833,7303,-1,-1,0
-159.28,4.11,-27.62,594,-3830,7314,0,0,0
-159.28,4.11,-27.62,596,-3819,7308,0,0,0
-159.28,4.11,-27.61,598,-3820,7306,0,0,0
-159.28,4.11,-27.61,591,-3820,7311,0,0,0
-159.28,4.11,-27.61,590,-3824,7310,0,-1,-1
-159.28,4.11,-27.60,601,-3818,7313,0,-1,0
-159.28,4.11,-27.60,598,-3817,7323,-1,-1,0
-159.28,4.11,-27.60,598,-3821,7330,-1,0,0
-159.28,4.11,-27.61,588,-3817,7304,-1,-1,0
-159.28,4.11,-27.61,591,-3827,7299,-1,-1,0
-159.28,4.12,-27.61,599,-3832,7299,-1,-1,-1
-159.28,4.12,-27.61,602,-3827,7307,0,-1,-1
-159.28,4.13,-27.61,607,-3828,7309,0,-1,0
-159.28,4.13,-27.60,612,-3819,7306,0,0,0
-159.29,4.12,-27.60,603,-3810,7301,-1,0,0
-159.29,4.11,-27.61,583,-3806,7300,-1,0,0
-159.29,4.11,-27.61,580,-3813,7300,-1,-1,-1
-159.29,4.12,-27.61,584,-3821,7301,-1,-1,-1
-159.28,4.13,-27.62,591,-3822,7302,-1,-1,-1
-159.28,4.14,-27.62,602,-3830,7298,-1,-1,-1
-159.28,4.14,-27.62,606,-3834,7295,0,-1,0
-159.28,4.14,-27.62,609,-3832,7301,-1,0,0
-159.28,4.14,-27.62,611,-3829,7304,0,0,0
-159.28,4.14,-27.61,606,-3817,7306,0,0,0
-159.28,4.13,-27.60,596,-3814,7317,-1,0,0
-159.29,4.12,-27.60,588,-3821,7323,-1,-1,0
-159.29,4.13,-27.61,581,-3820,7315,-1,-1,-1
-159.29,4.13,-27.61,584,-3817,7314,-1,-1,-1
-159.29,4.13,-27.62,597,-3820,7310,-1,-1,-1
-159.28,4.14,-27.62,609,-3824,7295,0,-1,0
-159.28,4.14,-27.62,610,-3824,7297,0,0,0
-159.28,4.15,-27.62,612,-3824,7302,0,0,0
-159.28,4.14,-27.61,605,-3820,7307,0,0,0
-159.29,4.13,-27.61,590,-3816,7310,-1,0,0
-159.28,4.14,-27.62,593,-3817,7313,-1,-1,0
-159.28,4.14,-27.62,598,-3826,7313,-1,-1,0
-159.29,4.15,-27.62,602,-3830,7308,-1,-1,0
-159.29,4.15,-27.62,602,-3825,7307,-1,-1,0
-159.29,4.15,-27.62,603,-3821,7310,-1,0,0
-159.29,4.15,-27.62,598,-3827,7307,0,0,0
-159.30,4.15,-27.62,596,-3837,7304,-1,0,0
-159.30,4.14,-27.62,600,-3837,7320,0,0,0
-159.30,4.14,-27.62,594,-3826,7311,0,0,0
-159.30,4.14,-27.62,583,-3829,7308,-1,-1,-1
-159.30,4.15,-27.62,585,-3823,7309,-1,-1,-1
-159.30,4.15,-27.62,594,-3818,7317,-1,-1,-1
-159.30,4.15,-27.62,598,-3817,7320,-1,-1,0
-159.30,4.15,-27.63,603,-3824,7321,-1,0,0
-159.30,4.14,-27.63,609,-3829,7318,-1,0,0
-159.30,4.15,-27.64,610,-3827,7306,-1,0,0
-159.30,4.14,-27.63,602,-3831,7309,-1,0,0
-159.30,4.15,-27.64,597,-3829,7305,-1,0,0
-159.30,4.15,-27.64,589,-3830,7293,-1,-1,0
-159.30,4.15,-27.64,587,-3830,7300,-1,-1,-1
-159.30,4.15,-27.64,597,-3831,7299,0,-1,0
-159.30,4.15,-27.64,601,-3824,7307,0,-1,0
-159.30,4.15,-27.64,608,-3828,7309,-1,0,0
-159.30,4.15,-27.64,604,-3831,7309,0,0,0
-159.30,4.15,-27.64,603,-3826,7306,0,0,0
-159.30,4.14,-27.63,601,-3824,7305,-1,0,0
-159.31,4.14,-27.63,595,-3827,7309,-1,0,0
-159.31,4.13,-27.63,593,-3828,7314,-1,0,0
-159.31,4.14,-27.64,595,-3828,7304,-1,-1,-1
-159.31,4.14,-27.64,602,-3834,7312,-1,-1,-1
-159.30,4.15,-27.64,606,-3829,7313,0,-1,-1
-159.30,4.15,-27.63,611,-3827,7304,0,0,0
-159.30,4.15,-27.63,614,-3838,7305,0,0,0
-159.30,4.14,-27.63,608,-3831,7313,0,0,0
-159.30,4.13,-27.63,585,-3816,7309,-1,0,0
-159.30,4.12,-27.63,568,-3827,7305,-1,-1,-1
-159.30,4.13,-27.63,572,-3831,7300,-1,-1,-1
-159.30,4.13,-27.63,590,-3830,7305,0,-1,-1
-159.29,4.14,-27.63,606,-3829,7312,0,-1,-1
-159.29,4.15,-27.63,624,-3834,7308,0,-1,-1
-159.29,4.15,-27.62,628,-3825,7297,0,0,0
-159.29,4.15,-27.61,626,-3818,7304,0,0,0
-159.29,4.14,-27.61,609,-3817,7314,0,0,0
-159.29,4.13,-27.60,594,-3817,7319,0,0,0
-159.29,4.12,-27.60,593,-3825,7323,-1,0,0
-159.29,4.12,-27.60,586,-3822,7320,-1,-1,0
-159.29,4.12,-27.61,584,-3829,7331,-1,-1,-1
-159.29,4.13,-27.61,598,-3832,7322,-1,-1,-1
-159.29,4.14,-27.62,604,-3835,7308,-1,-1,0
-159.29,4.13,-27.62,603,-3828,7295,0,0,0
-159.29,4.13,-27.61,609,-3830,7301,0,0,0
-159.29,4.12,-27.61,604,-3830,7298,-1,0,0
-159.29,4.13,-27.61,595,-3827,7310,0,0,0
-159.29,4.12,-27.60,594,-3820,7312,0,-1,0
-159.28,4.13,-27.60,602,-3829,7313,0,0,-1
-159.28,4.13,-27.60,598,-3821,7323,0,-1,0
-159.28,4.13,-27.60,592,-3819,7321,-1,0,0
-159.28,4.13,-27.60,595,-3819,7309,-1,0,0
-159.29,4.12,-27.60,594,-3818,7307,0,0,0
-159.29,4.12,-27.60,591,-3814,7313,-1,0,0
-159.29,4.12,-27.60,585,-3818,7324,-1,0,0
-159.29,4.11,-27.60,587,-3829,7324,0,0,0
-159.29,4.11,-27.60,591,-3826,7321,0,0,0
-159.29,4.11,-27.59,597,-3826,7316,0,0,-1
-159.28,4.12,-27.59,603,-3821,7315,-1,0,0
-159.28,4.12,-27.59,601,-3821,7318,-1,-1,-1
-159.28,4.12,-27.59,600,-3815,7322,0,0,-1
-159.28,4.12,-27.59,605,-3821,7313,-1,0,0
-159.28,4.11,-27.59,605,-3826,7313,-1,0,0
-159.28,4.11,-27.59,597,-3822,7305,-1,0,0
-159.28,4.10,-27.59,599,-3826,7309,-1,0,0
-159.28,4.10,-27.59,594,-3821,7304,0,0,-1
-159.28,4.10,-27.59,585,-3829,7307,-1,0,-1
-159.28,4.10,-27.59,589,-3828,7311,-1,0,0
-159.28,4.10,-27.59,592,-3821,7306,-1,-1,0
-159.28,4.10,-27.59,598,-3830,7308,0,0,0
-159.28,4.10,-27.59,596,-3827,7312,0,0,0
-159.28,4.09,-27.59,588,-3823,7310,0,0,-1
-159.28,4.09,-27.58,587,-3819,7315,0,0,0
-159.28,4.08,-27.58,589,-3813,7310,-1,0,0
-159.28,4.08,-27.58,590,-3819,7304,-1,0,0
-159.28,4.08,-27.58,580,-3823,7297,-1,0,0
-159.28,4.08,-27.59,586,-3827,7301,-1,-1,0
-159.28,4.08,-27.59,592,-3827,7315,0,-1,-1
-159.28,4.08,-27.59,595,-3826,7311,0,0,-1
-159.27,4.08,-27.58,598,-3824,7322,0,0,0
-159.28,4.07,-27.59,589,-3823,7308,-1,0,0
-159.28,4.06,-27.59,587,-3820,7302,-1,0,0
-159.29,4.05,-27.59,578,-3818,7305,-1,0,0
-159.28,4.05,-27.59,573,-3829,7313,0,0,-1
-159.28,4.05,-27.59,566,-3835,7321,0,-1,-1
-159.28,4.05,-27.59,578,-3835,7323,0,-1,-1
-159.27,4.06,-27.58,596,-3825,7316,0,0,-1
-159.27,4.06,-27.58,600,-3813,7312,0,0,-1
-159.27,4.06,-27.58,609,-3808,7306,-1,0,0
-159.27,4.05,-27.58,597,-3819,7309,0,0,-1
-159.27,4.04,-27.58,588,-3807,7313,-1,0,0
-159.27,4.03,-27.58,582,-3808,7322,-1,0,-1
-159.27,4.01,-27.59,564,-3829,7325,-1,-1,0
-159.27,4.02,-27.60,566,-3829,7328,-1,0,-1
-159.26,4.01,-27.60,566,-3813,7319,-1,0,-1
-159.26,4.01,-27.61,577,-3822,7319,-1,-1,0
-159.27,4.01,-27.62,585,-3816,7293,-1,0,-1
-159.27,4.01,-27.63,581,-3834,7302,0,0,0
-159.27,4.01,-27.63,591,-3845,7314,-1,-1,0
-159.28,4.01,-27.63,602,-3816,7280,-1,0,0
-159.28,4.00,-27.64,572,-3841,7318,0,-1,0
-159.29,4.00,-27.64,573,-3838,7291,0,0,0
-159.29,4.00,-27.64,575,-3836,7288,0,-1,0
-159.30,4.00,-27.63,581,-3828,7303,0,0,-1
-159.29,3.99,-27.61,579,-3812,7340,-1,-1,0
-159.30,3.99,-27.62,589,-3820,7308,0,0,0
-159.30,3.99,-27.62,595,-3824,7312,-1,0,0
-159.30,3.99,-27.62,582,-3825,7321,-1,-1,0
-159.30,3.99,-27.62,560,-3835,7301,0,0,-1
-159.30,3.99,-27.62,575,-3809,7323,-1,-1,0
-159.30,3.99,-27.62,562,-3843,7314,0,-1,-1
-159.30,4.00,-27.62,569,-3842,7349,-1,-1,-1
-159.29,4.01,-27.62,558,-3824,7310,0,-1,-1
-159.30,4.03,-27.62,603,-3838,7306,0,-1,-1
-159.29,4.04,-27.62,596,-3834,7310,-1,-1,-1
-159.29,4.04,-27.62,600,-3829,7314,0,-1,0
-159.29,4.05,-27.62,599,-3829,7300,0,-1,0
-159.28,4.05,-27.61,590,-3824,7319,0,0,-1
-159.28,4.05,-27.60,583,-3816,7315,-1,-1,0
-159.28,4.05,-27.60,573,-3828,7323,0,-1,-1
-159.28,4.05,-27.60,566,-3829,7318,0,-1,-1
-159.27,4.06,-27.60,573,-3824,7298,0,-1,-1
-159.27,4.07,-27.60,581,-3821,7298,0,-1,-1
-159.28,4.07,-27.61,583,-3822,7308,-1,-1,0
-159.28,4.07,-27.61,590,-3826,7308,-1,-1,0
-159.28,4.07,-27.61,586,-3829,7296,0,0,0
-159.29,4.06,-27.60,573,-3824,7301,0,-1,0
-159.28,4.07,-27.59,577,-3829,7321,0,0,-1
-159.28,4.07,-27.59,590,-3822,7324,0,-1,-1
-159.28,4.08,-27.58,597,-3814,7319,0,0,0
-159.28,4.08,-27.59,601,-3816,7311,0,-1,0
-159.28,4.08,-27.58,599,-3818,7325,0,0,0
-159.29,4.08,-27.58,589,-3808,7318,-1,-1,0
-159.29,4.08,-27.59,574,-3816,7311,-1,-1,0
-159.29,4.08,-27.60,569,-3828,7299,-1,-1,-1
-159.28,4.10,-27.60,582,-3831,7304,0,-1,-1
-159.28,4.10,-27.60,592,-3835,7306,0,-1,-1
-159.28,4.11,-27.60,597,-3833,7315,0,-1,-1
-159.28,4.11,-27.60,604,-3826,7310,0,-1,0
-159.28,4.12,-27.59,606,-3826,7312,0,0,0
-159.28,4.11,-27.59,602,-3821,7304,0,0,0
-159.29,4.11,-27.59,586,-3810,7306,-1,0,0
-159.29,4.10,-27.59,574,-3813,7300,-1,-1,0
-159.30,4.10,-27.59,575,-3819,7311,-1,-1,0
-159.30,4.11,-27.59,580,-3820,7316,-1,-1,-1
-159.30,4.11,-27.60,582,-3823,7307,-1,-1,-1
-159.29,4.11,-27.60,586,-3820,7300,-1,-1,-1
-159.29,4.12,-27.60,594,-3827,7296,0,-1,0
-159.29,4.12,-27.60,603,-3829,7299,0,0,0
-159.29,4.12,-27.60,606,-3831,7299,0,0,0
-159.29,4.12,-27.60,606,-3829,7301,0,-1,0
-159.29,4.13,-27.60,603,-3830,7304,0,-1,0
-159.29,4.13,-27.60,602,-3821,7309,0,-1,-1
-159.29,4.13,-27.60,602,-3816,7314,-1,-1,0
-159.29,4.13,-27.60,607,-3813,7319,-1,-1,0
-159.30,4.14,-27.59,600,-3813,7314,-1,-1,0
-159.30,4.14,-27.59,598,-3828,7315,0,0,0
-159.30,4.14,-27.59,598,-3824,7316,0,0,0
-159.30,4.14,-27.59,592,-3830,7316,-1,-1,-1
-159.29,4.15,-27.59,592,-3830,7313,0,-1,-1
-159.29,4.15,-27.59,591,-3821,7312,0,-1,-1
-159.29,4.15,-27.59,590,-3817,7308,0,-1,-1
-159.29,4.15,-27.59,598,-3816,7308,-1,-1,0
-159.29,4.15,-27.58,599,-3817,7313,0,-1,0
-159.29,4.15,-27.58,599,-3819,7308,-1,0,0
-159.29,4.15,-27.58,596,-3820,7319,0,-1,0
-159.29,4.15,-27.58,594,-3822,7308,-1,-1,0
-159.30,4.16,-27.59,592,-3825,7305,0,-1,-1
-159.30,4.16,-27.59,597,-3824,7306,0,-1,-1
-159.30,4.16,-27.59,597,-3826,7301,0,-1,-1
-159.29,4.17,-27.59,601,-3826,7301,0,-1,-1
-159.29,4.17,-27.59,604,-3826,7296,0,-1,0
-159.29,4.17,-27.58,600,-3822,7312,0,0,0
-159.29,4.17,-27.58,597,-3828,7305,0,0,0
-159.29,4.17,-27.58,601,-3827,7311,0,0,-1
-159.29,4.17,-27.58,603,-3820,7320,-1,-1,0
-159.30,4.17,-27.58,600,-3820,7311,-1,-1,0
-159.30,4.17,-27.59,593,-3821,7300,-1,-1,0
-159.30,4.18,-27.59,589,-3829,7299,-1,-1,0
-159.31,4.18,-27.60,602,-3831,7302,-1,-1,0
-159.31,4.18,-27.60,601,-3837,7301,0,-1,0
-159.30,4.19,-27.60,605,-3839,7303,0,-1,0
-159.31,4.19,-27.60,612,-3834,7310,0,0,0
-159.31,4.19,-27.60,599,-3827,7311,0,0,0
-159.31,4.18,-27.60,594,-3817,7306,-1,0,0
-159.32,4.17,-27.60,584,-3826,7298,-1,-1,0
-159.32,4.18,-27.61,588,-3826,7307,0,-1,0
-159.32,4.19,-27.61,586,-3826,7310,-1,-1,-1
-159.32,4.19,-27.61,589,-3846,7319,-1,-1,-1
-159.32,4.21,-27.62,603,-3840,7311,0,-1,-1
-159.31,4.22,-27.61,622,-3827,7313,0,-1,-1
-159.31,4.22,-27.61,629,-3817,7312,-1,-1,0
-159.32,4.22,-27.61,623,-3820,7307,0,0,0
-159.32,4.21,-27.60,611,-3816,7317,0,0,0
-159.32,4.21,-27.60,602,-3825,7307,0,0,0
-159.33,4.21,-27.61,590,-3823,7317,-1,-1,0
-159.33,4.21,-27.61,586,-3829,7309,-1,-1,0
-159.33,4.21,-27.62,593,-3828,7309,-1,-1,-1
-159.33,4.22,-27.62,595,-3830,7304,0,-1,-1
-159.33,4.23,-27.62,606,-3824,7303,0,-1,-1
-159.33,4.23,-27.61,610,-3825,7300,0,0,0
-159.33,4.23,-27.61,616,-3822,7293,0,0,0
-159.33,4.23,-27.61,614,-3830,7302,0,0,0
-159.32,4.22,-27.62,608,-3823,7311,0,0,0
-159.32,4.22,-27.61,606,-3817,7307,0,0,0
-159.33,4.22,-27.61,604,-3821,7309,-1,0,0
-159.32,4.22,-27.61,608,-3823,7298,0,0,-1
-159.33,4.21,-27.61,606,-3819,7296,0,0,0
-159.33,4.21,-27.61,605,-3820,7300,0,0,-1
-159.33,4.21,-27.60,597,-3825,7302,0,0,0
-159.33,4.21,-27.60,596,-3838,7297,0,0,-1
-159.33,4.20,-27.60,600,-3829,7295,0,0,-1
-159.32,4.20,-27.60,602,-3831,7304,0,0,-1
-159.32,4.20,-27.59,590,-3829,7307,0,0,-1
-159.32,4.20,-27.58,596,-3827,7303,0,0,-1
-159.32,4.19,-27.58,605,-3817,7304,0,0,-1
-159.32,4.19,-27.58,607,-3810,7310,0,0,-1
-159.32,4.19,-27.58,609,-3817,7312,0,0,0
-159.32,4.19,-27.58,603,-3827,7325,0,0,0
-159.32,4.18,-27.57,590,-3823,7320,0,0,0
-159.32,4.18,-27.58,588,-3821,7320,-1,-1,-1
-159.32,4.18,-27.57,583,-3823,7304,0,0,-1
-159.32,4.18,-27.57,590,-3823,7314,0,-1,-1
-159.32,4.18,-27.56,595,-3822,7306,0,0,0
-159.32,4.18,-27.56,598,-3834,7305,0,0,-1
-159.31,4.18,-27.56,596,-3826,7302,0,0,0
-159.32,4.18,-27.56,598,-3816,7313,0,0,0
-159.31,4.17,-27.55,600,-3818,7313,0,0,-1
-159.31,4.17,-27.55,596,-3808,7304,-1,0,0
-159.31,4.17,-27.55,584,-3810,7298,-1,0,0
-159.31,4.16,-27.55,580,-3821,7300,-1,0,-1
-159.31,4.16,-27.55,588,-3825,7308,0,-1,-1
-159.31,4.17,-27.55,602,-3826,7315,0,-1,-1
-159.31,4.17,-27.55,615,-3826,7318,0,0,0
-159.31,4.16,-27.55,616,-3827,7321,0,0,0
-159.32,4.15,-27.56,605,-3819,7310,0,0,0
-159.32,4.14,-27.55,590,-3810,7308,-1,0,0
-159.32,4.14,-27.56,578,-3818,7305,-1,0,0
-159.32,4.13,-27.56,576,-3824,7295,0,0,-1
-159.31,4.13,-27.56,579,-3828,7302,0,-1,-1
-159.31,4.14,-27.56,590,-3831,7310,0,-1,-1
-159.31,4.15,-27.56,605,-3827,7319,0,0,-1
-159.31,4.15,-27.55,612,-3807,7313,0,0,0
-159.31,4.15,-27.54,608,-3806,7304,0,0,0
-159.31,4.14,-27.54,604,-3815,7302,0,0,0
-159.31,4.13,-27.54,595,-3814,7301,0,0,0
-159.32,4.12,-27.54,585,-3814,7323,0,0,0
-159.31,4.12,-27.54,584,-3821,7335,-1,0,0
-159.32,4.12,-27.54,578,-3828,7320,0,-1,0
-159.32,4.12,-27.55,575,-3831,7310,0,-1,0
-159.32,4.12,-27.54,588,-3821,7316,0,-1,0
-159.32,4.12,-27.54,585,-3819,7312,0,0,0
-159.32,4.12,-27.54,589,-3819,7310,0,0,0
-159.32,4.12,-27.54,587,-3821,7313,0,0,0
-159.32,4.11,-27.53,593,-3822,7314,0,0,0
-159.32,4.11,-27.53,590,-3820,7310,0,0,0
-159.32,4.11,-27.53,595,-3818,7311,-1,0,0
-159.32,4.11,-27.53,587,-3812,7316,0,0,0
-159.32,4.10,-27.54,588,-3816,7308,-1,0,0
-159.33,4.10,-27.54,588,-3819,7310,-1,0,0
-159.33,4.09,-27.54,580,-3819,7311,-1,0,0
-159.33,4.09,-27.54,586,-3825,7296,0,0,0
-159.33,4.09,-27.54,584,-3830,7314,0,0,0
-159.33,4.09,-27.54,577,-3824,7312,0,-1,-1
-159.33,4.09,-27.54,578,-3827,7310,0,-1,-1
-159.33,4.09,-27.54,584,-3833,7304,0,-1,0
-159.33,4.09,-27.54,584,-3827,7312,0,0,0
-159.33,4.08,-27.53,584,-3814,7311,0,0,-1
-159.33,4.08,-27.52,584,-3815,7317,-1,0,-1
-159.33,4.08,-27.52,586,-3825,7322,0,0,-1
-159.34,4.08,-27.52,586,-3825,7329,0,0,0
-159.34,4.08,-27.52,583,-3816,7326,0,0,-1
-159.33,4.07,-27.51,574,-3812,7317,0,0,-1
-159.33,4.07,-27.51,569,-3811,7322,-1,-1,-1
-159.33,4.07,-27.51,575,-3818,7311,0,0,-1
-159.33,4.07,-27.51,579,-3812,7328,0,0,-1
-159.33,4.06,-27.52,576,-3803,7315,-1,-1,0
-159.34,4.07,-27.53,574,-3824,7312,-1,-1,0
-159.34,4.07,-27.53,568,-3826,7316,-1,-1,0
-159.34,4.08,-27.53,597,-3818,7323,0,0,-1
-159.34,4.08,-27.54,588,-3830,7300,-1,-1,0
-159.34,4.08,-27.55,593,-3843,7298,0,-1,0
-159.34,4.07,-27.55,597,-3837,7301,0,0,0
-159.35,4.06,-27.53,589,-3815,7343,0,0,0
-159.35,4.05,-27.54,574,-3806,7330,-1,0,0
-159.36,4.05,-27.54,550,-3815,7307,-1,-1,0
-159.36,4.06,-27.55,549,-3837,7315,-1,-1,-1
-159.35,4.06,-27.56,580,-3843,7310,0,0,-1
-159.36,4.07,-27.55,598,-3843,7337,0,-1,0
-159.36,4.08,-27.55,589,-3819,7298,-1,-1,-1
-159.36,4.08,-27.54,604,-3823,7305,-1,-1,0
-159.36,4.07,-27.53,611,-3810,7303,0,0,-1
-159.37,4.06,-27.53,560,-3808,7321,0,-1,0
-159.37,4.05,-27.52,597,-3808,7330,-1,0,0
-159.37,4.04,-27.52,558,-3816,7307,1,0,-1
-159.38,4.04,-27.52,567,-3797,7318,-2,-1,0
-159.37,4.04,-27.52,555,-3811,7346,-1,0,-1
-159.38,4.05,-27.54,573,-3814,7287,0,-1,0
-159.38,4.04,-27.54,558,-3821,7315,0,-1,-1
-159.38,4.05,-27.54,591,-3790,7278,-1,0,0
-159.37,4.06,-27.54,589,-3826,7330,-1,-1,-1
-159.38,4.05,-27.55,582,-3823,7308,0,0,-1
-159.37,4.06,-27.55,585,-3832,7311,0,-1,-1
-159.37,4.06,-27.55,580,-3811,7299,0,0,-1
-159.37,4.06,-27.55,572,-3821,7304,0,-1,-1
-159.37,4.06,-27.55,576,-3818,7293,0,-1,-1
-159.37,4.07,-27.54,583,-3816,7317,0,0,-1
-159.37,4.07,-27.54,567,-3815,7320,0,-1,-1
-159.36,4.07,-27.55,583,-3825,7314,-1,-1,-1
-159.36,4.08,-27.55,589,-3827,7307,0,0,-1
-159.36,4.08,-27.55,583,-3825,7319,-1,-1,0
-159.36,4.08,-27.55,589,-3818,7311,-1,-1,0
-159.36,4.08,-27.56,592,-3823,7315,0,-1,-1
-159.36,4.08,-27.55,591,-3823,7323,0,0,-1
-159.36,4.08,-27.55,579,-3815,7326,0,-1,-1
-159.36,4.08,-27.55,583,-3820,7314,0,0,-1
-159.36,4.08,-27.55,578,-3814,7316,-1,0,-1
-159.36,4.08,-27.55,581,-3815,7311,-1,-1,0
-159.36,4.08,-27.55,582,-3808,7304,-1,-1,0
-159.36,4.09,-27.55,577,-3824,7320,0,-1,0
-159.36,4.09,-27.55,584,-3823,7327,-1,-1,0
-159.36,4.09,-27.55,580,-3826,7323,-1,-1,-1
-159.36,4.10,-27.56,576,-3822,7317,-1,-1,-1
-159.36,4.10,-27.56,588,-3826,7319,-1,-1,-1
-159.36,4.10,-27.56,582,-3829,7308,0,-1,0
-159.37,4.10,-27.56,594,-3827,7302,0,0,0
-159.36,4.09,-27.55,578,-3814,7301,0,0,0
-159.37,4.09,-27.55,588,-3830,7309,0,-1,0
-159.37,4.09,-27.55,586,-3840,7315,0,0,-1
-159.37,4.09,-27.54,584,-3832,7327,0,-1,0
-159.38,4.09,-27.54,582,-3825,7306,-1,-1,0
-159.38,4.09,-27.53,592,-3803,7316,0,0,0
-159.38,4.09,-27.53,582,-3823,7311,0,0,0
-159.38,4.08,-27.53,577,-3819,7309,0,0,0
-159.38,4.07,-27.53,570,-3808,7317,-1,0,0
-159.39,4.07,-27.53,570,-3810,7317,-1,-1,0
-159.39,4.07,-27.54,574,-3812,7328,-1,-1,-1
-159.39,4.08,-27.55,593,-3827,7317,-1,-1,-1
-159.38,4.09,-27.56,592,-3830,7316,-1,0,-1
-159.38,4.09,-27.56,596,-3826,7322,-1,0,0
-159.38,4.09,-27.57,596,-3824,7313,-1,0,0
-159.39,4.08,-27.57,591,-3821,7302,0,0,0
-159.40,4.08,-27.57,580,-3809,7292,-1,0,0
-159.40,4.07,-27.58,572,-3836,7316,0,0,0
-159.40,4.07,-27.58,570,-3837,7325,-1,-1,-1
-159.40,4.08,-27.58,564,-3835,7312,0,-1,-1
-159.40,4.08,-27.57,579,-3825,7302,0,-1,-1
-159.39,4.10,-27.57,591,-3816,7308,0,-1,-1
-159.39,4.10,-27.56,596,-3808,7320,0,-1,-1
-159.39,4.10,-27.56,603,-3812,7310,-1,0,-1
-159.38,4.10,-27.56,594,-3818,7319,-1,0,0
-159.39,4.09,-27.56,576,-3819,7323,-1,-1,0
-159.39,4.09,-27.56,576,-3819,7332,-1,-1,0
-159.39,4.10,-27.57,577,-3824,7328,-1,-1,0
-159.39,4.10,-27.58,581,-3825,7311,-1,-1,0
-159.40,4.12,-27.58,584,-3824,7303,-1,-1,0
-159.40,4.13,-27.59,595,-3831,7295,0,-1,0
-159.40,4.12,-27.59,596,-3822,7293,0,-1,0
-159.40,4.13,-27.58,594,-3826,7315,0,-1,0
-159.40,4.13,-27.58,589,-3833,7324,0,-1,0
-159.40,4.12,-27.58,582,-3832,7310,0,0,0
-159.40,4.13,-27.58,584,-3825,7315,-1,-1,0
-159.41,4.13,-27.58,579,-3827,7312,-1,-1,-1
-159.41,4.14,-27.59,588,-3812,7317,-1,-1,-1
-159.41,4.14,-27.59,589,-3817,7307,-1,-1,0
-159.41,4.14,-27.59,584,-3829,7305,-1,0,0
-159.41,4.14,-27.60,587,-3821,7310,-1,-1,0
-159.42,4.14,-27.61,591,-3828,7311,-1,-1,0
-159.41,4.15,-27.61,594,-3838,7316,0,-1,0
-159.42,4.14,-27.61,585,-3837,7315,-1,-1,0
-159.42,4.15,-27.62,586,-3839,7301,-1,-1,-1
-159.42,4.15,-27.62,595,-3838,7309,0,-1,-1
-159.42,4.16,-27.62,594,-3834,7301,0,-1,-1
-159.42,4.17,-27.62,601,-3831,7303,0,-1,-1
-159.41,4.17,-27.62,604,-3827,7312,0,-1,0
-159.41,4.17,-27.61,602,-3823,7314,0,-1,0
-159.41,4.18,-27.61,604,-3821,7315,0,-1,0
-159.42,4.17,-27.60,599,-3822,7310,-1,-1,0
-159.42,4.18,-27.61,593,-3824,7303,-1,-1,0
-159.42,4.18,-27.62,587,-3832,7298,-1,-1,0
-159.42,4.18,-27.62,586,-3832,7307,-1,-1,-1
-159.42,4.18,-27.61,597,-3825,7308,0,-1,-1
-159.42,4.19,-27.61,607,-3829,7310,0,-1,-1
-159.42,4.20,-27.61,613,-3829,7308,0,0,0
-159.42,4.19,-27.61,603,-3827,7314,0,0,0
-159.42,4.18,-27.61,593,-3823,7307,-1,0,0
-159.43,4.18,-27.61,578,-3819,7299,-1,0,0
-159.43,4.17,-27.62,574,-3831,7309,-1,0,0
-159.43,4.16,-27.62,572,-3831,7301,0,0,-1
-159.43,4.16,-27.62,588,-3838,7310,0,-1,-1
-159.42,4.17,-27.62,597,-3840,7308,0,-1,-1
-159.42,4.17,-27.61,605,-3830,7304,0,0,-1
-159.42,4.17,-27.61,610,-3827,7299,0,0,-1
-159.41,4.17,-27.60,612,-3819,7291,0,0,-1
-159.41,4.17,-27.59,607,-3817,7295,0,0,0
-159.42,4.16,-27.59,600,-3814,7302,0,0,0
-159.42,4.15,-27.59,589,-3815,7308,0,0,0
-159.42,4.15,-27.58,579,-3823,7314,0,-1,-1
-159.42,4.15,-27.59,574,-3828,7326,0,-1,-1
-159.42,4.15,-27.58,573,-3819,7317,0,-1,-1
-159.41,4.16,-27.58,584,-3818,7304,0,-1,-1
-159.41,4.17,-27.57,597,-3819,7297,0,-1,-1
-159.40,4.16,-27.57,598,-3813,7304,0,0,-1
-159.40,4.16,-27.57,603,-3813,7313,-1,0,-1
-159.40,4.16,-27.57,598,-3818,7313,0,0,0
-159.40,4.16,-27.57,595,-3820,7316,0,0,0
-159.40,4.16,-27.56,591,-3822,7311,0,0,-1
-159.41,4.16,-27.56,591,-3828,7325,0,-1,0
-159.41,4.16,-27.56,589,-3818,7322,-1,-1,0
-159.41,4.16,-27.56,585,-3820,7314,0,-1,-1
-159.41,4.16,-27.56,596,-3819,7313,0,0,0
-159.41,4.16,-27.55,601,-3813,7312,0,0,0
-159.41,4.16,-27.55,594,-3819,7306,0,0,0
-159.41,4.16,-27.55,597,-3823,7302,0,0,0
-159.41,4.15,-27.55,588,-3814,7304,0,0,-1
-159.41,4.15,-27.55,585,-3809,7311,0,0,-1
-159.41,4.15,-27.54,591,-3814,7315,-1,-1,-1
-159.41,4.15,-27.54,595,-3811,7302,0,-1,-1
-159.40,4.16,-27.54,598,-3814,7303,0,0,-1
-159.40,4.15,-27.54,599,-3816,7311,0,0,-1
-159.40,4.15,-27.54,589,-3821,7312,0,0,-1
-159.40,4.14,-27.54,581,-3819,7310,-1,0,0
-159.40,4.14,-27.54,590,-3824,7308,0,0,0
-159.40,4.14,-27.54,598,-3824,7312,0,0,-1
-159.41,4.14,-27.54,592,-3824,7296,0,-1,0
-159.41,4.14,-27.54,596,-3830,7298,0,0,-1
-159.40,4.14,-27.53,594,-3818,7307,0,0,0
-159.40,4.14,-27.53,586,-3819,7309,0,0,-1
-159.40,4.14,-27.53,599,-3816,7301,0,0,-1
-159.40,4.14,-27.53,600,-3814,7301,0,0,0
-159.40,4.14,-27.53,603,-3808,7305,0,-1,0
-159.40,4.15,-27.53,604,-3815,7309,-1,0,0
-159.40,4.14,-27.53,595,-3815,7304,-1,0,0
-159.41,4.13,-27.54,594,-3824,7309,-1,0,0
-159.41,4.13,-27.54,588,-3822,7307,0,0,0
-159.41,4.13,-27.54,586,-3823,7314,0,-1,0
-159.41,4.13,-27.54,585,-3832,7316,0,-1,-1
-159.41,4.14,-27.53,593,-3824,7322,0,0,-1
-159.41,4.13,-27.53,597,-3814,7318,0,0,0
-159.41,4.13,-27.53,591,-3814,7308,0,0,0
-159.41,4.12,-27.53,586,-3814,7304,-1,0,0
-159.41,4.11,-27.53,578,-3814,7295,-1,0,0
-159.42,4.10,-27.53,568,-3817,7307,-1,0,0
-159.42,4.10,-27.53,568,-3821,7309,-1,-1,-1
-159.41,4.11,-27.54,577,-3831,7318,0,-1,-1
-159.41,4.11,-27.54,593,-3827,7315,0,-1,-1
-159.41,4.12,-27.53,608,-3816,7314,0,0,-1
-159.41,4.12,-27.53,607,-3802,7310,0,0,0
-159.41,4.12,-27.53,605,-3801,7298,-1,0,0
-159.41,4.11,-27.53,593,-3814,7303,0,0,0
-159.42,4.10,-27.53,582,-3819,7325,0,0,0
-159.42,4.10,-27.53,567,-3818,7323,-1,0,-1
-159.42,4.09,-27.53,565,-3824,7319,-1,-1,-1
-159.42,4.10,-27.53,566,-3825,7308,0,-1,-1
-159.42,4.10,-27.53,582,-3821,7304,0,-1,-1
-159.42,4.10,-27.53,592,-3809,7303,-1,-1,0
-159.42,4.10,-27.53,596,-3807,7301,-1,-1,0
-159.42,4.10,-27.53,600,-3819,7305,-1,0,0
-159.42,4.10,-27.53,594,-3826,7320,0,0,0
-159.42,4.10,-27.53,587,-3818,7317,-1,0,0
-159.42,4.10,-27.53,580,-3810,7318,-1,-1,0
-159.42,4.10,-27.53,583,-3813,7322,-1,-1,0
-159.42,4.10,-27.53,584,-3814,7311,-1,-1,0
-159.42,4.11,-27.54,585,-3818,7306,-1,-1,0
-159.43,4.11,-27.54,592,-3819,7311,-1,-1,0
-159.43,4.11,-27.54,582,-3821,7312,0,0,0
-159.43,4.11,-27.54,580,-3819,7305,0,-1,0
-159.43,4.11,-27.54,577,-3818,7308,0,-1,-1
-159.43,4.11,-27.54,580,-3809,7312,0,-1,-1
-159.43,4.12,-27.54,585,-3809,7316,0,-1,-1
-159.43,4.12,-27.54,587,-3817,7307,-1,-1,0
-159.43,4.12,-27.54,588,-3817,7311,-1,-1,-1
-159.43,4.12,-27.54,592,-3813,7307,-1,-1,0
-159.42,4.13,-27.54,596,-3820,7302,0,-1,0
-159.42,4.13,-27.54,590,-3822,7315,0,-1,0
-159.42,4.13,-27.54,586,-3820,7322,-1,-1,-1
-159.42,4.13,-27.54,588,-3825,7307,-1,-1,-1
-159.42,4.14,-27.54,594,-3823,7307,0,-1,-1
-159.42,4.14,-27.54,592,-3821,7318,0,-1,-1
-159.42,4.14,-27.54,593,-3817,7317,-1,-1,0
-159.42,4.14,-27.55,595,-3826,7317,-1,-1,0
-159.43,4.14,-27.55,596,-3827,7305,0,-1,0
-159.43,4.15,-27.54,598,-3819,7314,0,0,-1
-159.43,4.14,-27.54,589,-3815,7315,-1,0,0
-159.43,4.14,-27.54,589,-3821,7307,-1,0,0
-159.43,4.13,-27.54,585,-3819,7300,-1,0,-1
-159.43,4.14,-27.55,581,-3821,7301,-1,-1,-1
-159.43,4.14,-27.55,591,-3818,7298,-1,-1,-1
-159.43,4.14,-27.56,596,-3823,7303,-1,-1,0
-159.43,4.14,-27.56,599,-3823,7311,-1,-1,0
-159.43,4.14,-27.56,604,-3828,7318,-1,0,0
-159.43,4.14,-27.56,597,-3818,7312,-1,0,0
-159.43,4.13,-27.56,587,-3827,7293,-1,0,0
-159.44,4.12,-27.57,576,-3833,7293,-1,0,0
-159.44,4.13,-27.57,573,-3827,7284,-1,-1,-1
-159.44,4.13,-27.57,570,-3823,7294,-1,-1,-1
-159.44,4.13,-27.58,587,-3838,7305,-1,-1,-1
-159.44,4.14,-27.58,604,-3839,7320,0,-1,-1
-159.43,4.15,-27.57,605,-3818,7311,0,-1,0
-159.43,4.15,-27.57,597,-3815,7296,0,-1,0
-159.44,4.14,-27.57,594,-3811,7294,0,0,0
-159.44,4.13,-27.57,592,-3806,7302,0,0,0
-159.44,4.12,-27.57,581,-3804,7318,-1,0,0
-159.45,4.12,-27.57,575,-3819,7320,-1,-1,0
-159.45,4.12,-27.58,575,-3829,7322,-1,-1,0
-159.45,4.12,-27.58,574,-3828,7322,-1,-1,0
-159.45,4.13,-27.59,587,-3822,7317,-1,-1,0
-159.45,4.13,-27.59,587,-3827,7302,-1,-1,-1
-159.45,4.13,-27.59,594,-3829,7309,0,-1,-1
-159.45,4.13,-27.59,599,-3830,7313,0,0,0
-159.45,4.13,-27.59,603,-3826,7315,0,0,0
-159.45,4.13,-27.58,603,-3821,7317,-1,0,0
-159.45,4.13,-27.58,602,-3821,7319,-1,-1,-1
-159.45,4.13,-27.59,591,-3826,7317,-1,-1,0
-159.45,4.13,-27.59,597,-3823,7312,-1,-1,0
-159.45,4.13,-27.59,591,-3819,7310,-1,-1,0
-159.45,4.13,-27.60,596,-3821,7305,-1,-1,0
-159.45,4.13,-27.60,589,-3830,7304,-1,-1,0
-159.46,4.13,-27.61,590,-3839,7301,-1,-1,0
-159.46,4.13,-27.61,591,-3835,7316,0,0,0
-159.46,4.13,-27.61,581,-3822,7310,-1,-1,0
-159.47,4.12,-27.61,581,-3828,7314,-1,-1,0
-159.47,4.13,-27.62,587,-3829,7311,-1,-1,0
-159.48,4.12,-27.61,591,-3816,7307,0,-1,0
-159.48,4.12,-27.61,594,-3818,7313,-1,0,0
-159.48,4.12,-27.62,593,-3826,7312,-1,-1,0
-159.48,4.12,-27.62,592,-3827,7306,-1,-1,0
-159.49,4.12,-27.63,589,-3821,7307,-1,0,0
-159.49,4.12,-27.63,588,-3827,7307,-1,-1,0
-159.50,4.11,-27.64,587,-3838,7299,-1,0,0
-159.50,4.11,-27.66,588,-3840,7291,-1,-1,0
-159.51,4.11,-27.66,592,-3841,7285,-1,-1,0
-159.51,4.11,-27.66,588,-3828,7287,0,-1,0
-159.52,4.11,-27.66,594,-3821,7304,-1,-1,0
-159.52,4.11,-27.66,598,-3827,7307,-1,0,0
-159.53,4.10,-27.66,601,-3826,7317,-1,0,0
-159.53,4.10,-27.66,595,-3824,7322,-1,0,0
-159.54,4.09,-27.67,593,-3820,7311,-1,0,0
-159.54,4.09,-27.67,585,-3822,7311,-1,0,0
-159.56,4.08,-27.68,587,-3823,7298,-1,-1,0
-159.57,4.08,-27.69,582,-3843,7302,-1,-1,0
-159.57,4.08,-27.69,582,-3835,7299,-1,0,0
-159.57,4.08,-27.70,579,-3834,7309,-1,-1,0
-159.58,4.08,-27.71,581,-3831,7297,-1,0,0
-159.58,4.08,-27.71,591,-3837,7309,-1,-1,0
-159.59,4.07,-27.72,594,-3835,7289,-1,0,0
-159.60,4.05,-27.73,581,-3824,7310,-1,0,0
-159.61,4.04,-27.74,581,-3830,7286,-1,0,0
-159.62,4.03,-27.74,574,-3831,7312,-1,0,0
-159.63,4.02,-27.75,560,-3848,7305,-1,0,0
-159.63,4.01,-27.75,576,-3860,7317,-1,0,-1
-159.62,4.02,-27.75,586,-3855,7303,0,0,-1
-159.62,4.02,-27.75,580,-3860,7308,0,-1,-1
-159.61,4.02,-27.75,606,-3861,7284,0,0,-1
-159.60,4.01,-27.72,592,-3851,7275,1,0,-1
-159.61,4.00,-27.70,580,-3829,7311,0,0,-1
-159.60,3.99,-27.69,597,-3836,7282,1,0,0
-159.60,3.97,-27.67,555,-3811,7303,-1,-1,-1
-159.60,3.97,-27.66,564,-3846,7336,0,0,0
-159.59,3.96,-27.65,585,-3814,7325,-1,0,-1
-159.59,3.96,-27.65,552,-3828,7307,0,-1,0
-159.59,3.98,-27.64,576,-3827,7328,-1,-1,0
-159.59,3.97,-27.66,564,-3857,7302,0,-1,-1
-159.58,3.98,-27.65,608,-3824,7289,-1,0,-1
-159.58,3.97,-27.64,564,-3815,7351,-1,-1,0
-159.58,3.98,-27.66,576,-3851,7278,0,0,-1
-159.57,3.97,-27.65,559,-3838,7295,0,0,-1
-159.57,3.97,-27.63,592,-3827,7373,-1,-1,0
-159.58,3.98,-27.65,584,-3830,7292,0,0,-1
-159.58,3.98,-27.64,561,-3838,7318,-1,-1,0
-159.57,3.98,-27.64,579,-3830,7311,-1,-1,-1
-159.57,3.98,-27.64,586,-3836,7286,0,0,-1
-159.56,3.97,-27.62,568,-3821,7310,0,0,-1
-159.56,3.97,-27.61,553,-3817,7336,-1,-1,0
-159.55,3.98,-27.62,549,-3820,7303,-1,-1,-1
-159.54,3.99,-27.63,575,-3844,7306,0,-1,-1
-159.53,4.00,-27.62,574,-3848,7309,0,-1,-1
-159.52,4.00,-27.62,568,-3829,7305,0,-1,-1
-159.52,4.00,-27.62,580,-3811,7307,-1,-1,-1
-159.51,4.02,-27.62,576,-3824,7299,0,-1,-1
-159.51,4.02,-27.62,583,-3825,7313,-1,-1,-1
-159.51,4.03,-27.63,584,-3833,7303,-1,-1,0
-159.51,4.03,-27.63,585,-3850,7308,0,0,-1
-159.51,4.03,-27.62,587,-3849,7316,0,0,-1
-159.51,4.03,-27.61,575,-3831,7311,0,0,-1
-159.50,4.03,-27.60,576,-3821,7304,0,-1,-1
-159.50,4.03,-27.58,577,-3819,7307,0,0,-1
-159.49,4.03,-27.58,581,-3820,7307,0,-1,-1
-159.49,4.03,-27.57,588,-3812,7321,0,0,-1
-159.49,4.03,-27.57,588,-3807,7336,-1,-1,0
-159.50,4.03,-27.58,588,-3811,7326,-1,0,0
-159.50,4.03,-27.58,585,-3808,7323,-1,0,0
-159.50,4.03,-27.58,586,-3810,7314,-1,-1,0
-159.50,4.03,-27.59,592,-3817,7316,-1,-1,-1
-159.50,4.03,-27.59,592,-3820,7310,-1,-1,-1
-159.50,4.03,-27.59,593,-3823,7312,0,0,0
-159.50,4.03,-27.59,594,-3822,7312,-1,0,0
-159.50,4.02,-27.59,586,-3821,7309,-1,0,0
-159.51,4.01,-27.59,568,-3818,7305,-1,0,0
-159.51,4.01,-27.59,552,-3822,7306,0,-1,0
-159.51,4.01,-27.59,566,-3825,7306,-1,-1,0
-159.51,4.01,-27.59,571,-3828,7316,0,-1,-1
-159.51,4.01,-27.59,577,-3837,7305,0,-1,0
-159.51,4.01,-27.59,586,-3838,7318,0,-1,-1
-159.50,4.02,-27.58,586,-3822,7321,0,0,0
-159.50,4.01,-27.57,582,-3813,7325,0,0,0
-159.50,4.01,-27.57,581,-3807,7324,0,0,0
-159.51,4.00,-27.57,574,-3810,7317,0,0,0
-159.51,3.99,-27.57,573,-3810,7322,-1,0,0
-159.51,3.99,-27.57,564,-3824,7324,-1,0,-1
-159.51,3.98,-27.58,555,-3823,7313,-1,-1,-1
-159.51,3.98,-27.58,555,-3825,7313,-1,-1,-1
-159.51,3.99,-27.58,562,-3823,7313,-1,-1,-1
-159.51,3.99,-27.58,572,-3821,7310,-1,0,0
-159.51,3.99,-27.58,584,-3830,7316,0,0,-1
-159.51,3.99,-27.58,582,-3822,7315,0,0,0
-159.51,3.99,-27.58,579,-3823,7309,0,-1,0
-159.51,3.99,-27.58,574,-3817,7306,-1,-1,-1
-159.51,3.99,-27.58,573,-3818,7316,-1,-1,0
-159.51,3.99,-27.58,566,-3817,7309,-1,-1,0
-159.51,3.99,-27.58,560,-3814,7311,0,-1,-1
-159.51,3.99,-27.58,563,-3814,7316,-1,-1,-1
-159.51,3.99,-27.58,569,-3816,7322,-1,-1,-1
-159.51,4.00,-27.57,578,-3812,7323,0,-1,0
-159.51,4.00,-27.57,581,-3813,7309,-1,-1,0
-159.50,4.01,-27.57,580,-3825,7322,0,-1,-1
-159.50,4.01,-27.57,576,-3823,7328,0,-1,-1
-159.50,4.01,-27.58,566,-3829,7304,-1,0,-1
-159.49,4.01,-27.58,567,-3833,7314,-1,-1,-1
-159.48,4.02,-27.58,590,-3831,7323,0,0,-1
-159.48,4.02,-27.58,596,-3824,7312,-1,0,0
-159.48,4.02,-27.57,567,-3824,7326,0,-1,-1
-159.48,4.02,-27.57,582,-3816,7315,0,-1,0
-159.48,4.02,-27.57,590,-3834,7310,0,-1,0
-159.48,4.03,-27.57,593,-3833,7325,0,0,0
-159.48,4.03,-27.57,583,-3814,7316,-1,-1,-1
-159.48,4.03,-27.56,581,-3806,7319,-1,-1,-1
-159.48,4.03,-27.58,591,-3828,7323,-1,-1,0
-159.48,4.04,-27.57,593,-3823,7311,-1,-1,0
-159.49,4.04,-27.58,580,-3820,7305,-1,-1,0
-159.49,4.04,-27.58,584,-3821,7294,-1,-1,0
-159.48,4.05,-27.59,591,-3829,7299,0,-1,-1
-159.48,4.05,-27.58,595,-3831,7315,0,-1,-1
-159.48,4.05,-27.58,595,-3828,7326,0,0,0
-159.48,4.05,-27.57,586,-3815,7331,0,0,0
-159.48,4.05,-27.56,580,-3804,7319,-1,0,0
-159.48,4.04,-27.57,565,-3805,7308,-1,-1,0
-159.49,4.04,-27.58,561,-3808,7307,-1,-1,0
-159.49,4.06,-27.59,574,-3822,7291,-1,-1,0
-159.49,4.06,-27.58,584,-3832,7316,0,-1,-1
-159.49,4.07,-27.58,590,-3820,7324,-1,-1,-1
-159.49,4.08,-27.58,596,-3825,7314,-1,-1,-1
-159.48,4.08,-27.59,607,-3835,7307,0,-1,-1
-159.48,4.08,-27.58,595,-3820,7295,0,0,-1
-159.48,4.08,-27.57,590,-3805,7318,0,0,0
-159.48,4.07,-27.57,585,-3813,7316,-1,0,0
-159.49,4.07,-27.56,577,-3818,7317,0,0,0
-159.49,4.05,-27.56,567,-3813,7302,0,0,0
-159.50,4.05,-27.56,578,-3819,7329,-1,0,0
-159.51,4.04,-27.57,567,-3808,7316,-1,0,0
-159.51,4.03,-27.56,605,-3799,7341,-1,0,0
-159.51,4.02,-27.58,560,-3824,7281,0,-1,0
-159.51,4.00,-27.57,620,-3808,7370,-1,1,0
-159.53,3.99,-27.60,569,-3801,7267,-1,-1,0
-159.54,3.98,-27.61,588,-3860,7363,-1,0,0
-159.56,3.98,-27.63,604,-3877,7301,0,0,0
-159.57,3.96,-27.63,556,-3853,7304,-1,-1,0
-159.59,3.96,-27.62,608,-3873,7279,1,1,0
-159.60,3.94,-27.60,533,-3818,7306,-1,-1,0
-159.60,3.94,-27.58,603,-3819,7334,1,1,0
-159.61,3.91,-27.58,535,-3796,7281,0,0,0
-159.62,3.90,-27.57,562,-3783,7369,-2,-2,0
-159.62,3.90,-27.57,573,-3836,7309,2,1,-1
-159.63,3.89,-27.56,580,-3797,7333,-2,-1,0
-159.63,3.88,-27.57,581,-3788,7350,-1,0,0
-159.63,3.88,-27.59,560,-3818,7307,-1,0,-1
-159.64,3.86,-27.58,550,-3779,7378,0,0,0
-159.65,3.87,-27.64,553,-3841,7246,-1,-1,0
-159.65,3.87,-27.63,541,-3799,7346,-4,-2,0
-159.65,3.87,-27.65,567,-3854,7346,3,1,0
-159.66,3.88,-27.67,576,-3851,7264,-2,-1,-1
-159.66,3.87,-27.66,536,-3841,7370,-1,-1,0
-159.66,3.88,-27.69,560,-3858,7226,0,0,-1
-159.65,3.88,-27.67,544,-3834,7324,-1,-1,0
-159.64,3.89,-27.66,544,-3847,7288,0,-1,-1
-159.64,3.90,-27.66,542,-3839,7327,-1,-1,-1
-159.64,3.92,-27.67,570,-3843,7306,-1,-1,-1
-159.62,3.93,-27.67,568,-3861,7289,0,0,-1
-159.61,3.93,-27.66,570,-3862,7283,0,-1,-1
-159.60,3.93,-27.63,577,-3820,7319,0,0,-1
-159.59,3.93,-27.62,571,-3801,7320,0,0,-1
-159.59,3.94,-27.63,567,-3808,7325,-1,-1,-1
-159.58,3.94,-27.63,565,-3828,7308,-1,-1,-1
-159.58,3.95,-27.64,556,-3834,7304,0,-1,-1
-159.59,3.96,-27.64,566,-3827,7323,-1,-1,-1
-159.58,3.98,-27.64,584,-3825,7310,0,-1,-1
-159.58,3.99,-27.64,594,-3822,7315,0,-1,-1
-159.58,3.99,-27.64,579,-3825,7310,-1,-1,-1
-159.58,3.99,-27.64,582,-3828,7311,-1,-1,0
-159.58,3.99,-27.64,569,-3821,7298,0,0,-1
-159.58,3.99,-27.65,556,-3830,7311,-1,-1,-1
-159.58,4.00,-27.65,560,-3824,7307,-1,-1,-1
-159.58,4.01,-27.65,568,-3827,7311,-1,-1,-1
-159.58,4.02,-27.65,582,-3837,7315,-1,-1,-1
-159.58,4.04,-27.66,589,-3843,7318,-1,-1,0
-159.58,4.04,-27.66,603,-3840,7308,-1,-1,0
-159.58,4.05,-27.67,600,-3838,7313,0,-1,0
-159.58,4.05,-27.67,598,-3834,7319,-1,0,0
-159.59,4.04,-27.67,587,-3828,7303,-1,0,0
-159.59,4.04,-27.67,571,-3824,7301,-1,-1,0
-159.59,4.03,-27.68,571,-3837,7302,-1,-1,0
-159.59,4.04,-27.68,574,-3838,7307,-1,-1,0
-159.59,4.05,-27.68,574,-3839,7307,-1,-1,-1
-159.59,4.06,-27.68,585,-3840,7312,-1,-1,-1
-159.59,4.06,-27.68,586,-3840,7303,0,-1,-1
-159.59,4.06,-27.68,594,-3830,7310,-1,-1,-1
-159.59,4.06,-27.68,590,-3828,7307,-1,0,0
-159.59,4.06,-27.68,590,-3832,7303,-1,-1,0
-159.60,4.06,-27.69,580,-3832,7293,-1,-1,0
-159.60,4.06,-27.69,579,-3839,7306,-1,-1,0
-159.60,4.06,-27.69,589,-3840,7315,-1,0,0
-159.60,4.06,-27.69,599,-3832,7313,0,0,-1
-159.59,4.06,-27.68,596,-3828,7296,0,0,-1
-159.59,4.05,-27.68,591,-3840,7287,0,0,-1
-159.59,4.04,-27.67,588,-3844,7306,0,0,-1
-159.59,4.04,-27.66,583,-3829,7312,0,0,-1
-159.58,4.03,-27.66,574,-3823,7318,0,0,-1
-159.58,4.04,-27.65,576,-3829,7308,0,-1,-1
-159.57,4.04,-27.65,586,-3828,7302,0,-1,-1
-159.56,4.05,-27.64,595,-3824,7299,0,-1,-1
-159.56,4.06,-27.64,605,-3826,7303,0,0,-1
-159.56,4.05,-27.64,604,-3825,7294,0,0,-1
-159.55,4.04,-27.63,595,-3821,7299,0,0,-1
-159.54,4.04,-27.62,588,-3809,7315,-1,0,0
-159.55,4.03,-27.62,582,-3811,7317,-1,0,0
-159.55,4.01,-27.61,571,-3830,7306,0,0,-1
-159.54,4.01,-27.61,564,-3826,7326,-1,0,0
-159.55,4.00,-27.62,568,-3831,7315,0,0,-1
-159.55,4.01,-27.62,580,-3831,7309,-1,-1,0
-159.56,4.01,-27.62,586,-3846,7296,0,0,0
-159.55,4.00,-27.62,590,-3849,7307,-1,0,0
-159.55,3.99,-27.61,589,-3842,7283,1,0,-1
-159.55,3.98,-27.60,590,-3855,7310,0,0,0
-159.56,3.96,-27.58,568,-3810,7314,0,0,0
-159.56,3.94,-27.57,564,-3785,7327,-1,0,0
-159.57,3.94,-27.58,549,-3806,7300,0,-1,-1
-159.56,3.93,-27.57,567,-3803,7326,-2,0,0
-159.58,3.93,-27.59,572,-3828,7302,0,-1,0
-159.57,3.94,-27.59,553,-3811,7307,-1,-1,0
-159.57,3.95,-27.60,574,-3827,7334,-1,-1,-1
-159.57,3.96,-27.62,584,-3845,7304,-1,-1,-1
-159.57,3.96,-27.60,581,-3816,7325,0,0,-1
-159.57,3.96,-27.61,589,-3809,7300,-1,-1,0
-159.57,3.95,-27.62,578,-3822,7318,-1,0,0
-159.58,3.94,-27.63,553,-3804,7313,-1,-1,0
-159.58,3.94,-27.63,559,-3827,7294,-1,-1,-1
-159.58,3.94,-27.64,549,-3841,7322,-1,-1,0
-159.58,3.95,-27.65,553,-3852,7305,0,-1,-1
-159.57,3.96,-27.64,572,-3840,7299,0,0,-1
-159.56,3.96,-27.63,581,-3830,7300,0,-1,-1
-159.55,3.98,-27.63,591,-3837,7303,0,0,-1
-159.55,3.98,-27.62,592,-3845,7318,0,0,0
-159.55,3.97,-27.61,596,-3825,7313,0,0,0
-159.55,3.96,-27.59,581,-3804,7321,0,0,0
-159.55,3.95,-27.60,556,-3794,7312,-1,0,-1
-159.56,3.94,-27.61,551,-3809,7304,-1,-1,0
-159.56,3.95,-27.61,554,-3839,7289,0,-1,-1
-159.56,3.95,-27.61,555,-3841,7297,0,-1,-1
-159.55,3.95,-27.60,568,-3823,7313,0,-1,-1
-159.55,3.95,-27.61,575,-3826,7310,-1,-1,-1
-159.55,3.96,-27.61,577,-3834,7309,-1,0,-1
-159.55,3.96,-27.61,581,-3827,7306,0,0,0
-159.55,3.95,-27.61,580,-3814,7311,-1,0,0
-159.56,3.95,-27.62,576,-3822,7310,-1,0,0
-159.56,3.94,-27.63,563,-3840,7308,-1,0,0
-159.57,3.93,-27.63,562,-3840,7316,-1,0,0
-159.57,3.93,-27.63,564,-3848,7317,-1,0,0
-159.57,3.93,-27.63,557,-3840,7311,0,0,0
-159.57,3.93,-27.63,556,-3831,7300,0,0,-1
-159.57,3.92,-27.62,557,-3825,7304,0,0,0
-159.57,3.92,-27.62,559,-3822,7319,0,0,0
-159.57,3.92,-27.62,561,-3813,7332,-1,0,0
-159.57,3.91,-27.62,557,-3819,7330,-1,-1,0
-159.57,3.91,-27.63,570,-3820,7315,-1,0,0
-159.58,3.91,-27.63,565,-3817,7311,-1,-1,0
-159.58,3.91,-27.64,567,-3832,7296,-1,-1,-1
-159.58,3.92,-27.65,568,-3834,7300,-1,-1,0
-159.58,3.92,-27.65,565,-3829,7305,-1,-1,-1
-159.58,3.92,-27.65,560,-3838,7303,0,-1,-1
-159.58,3.92,-27.65,566,-3835,7301,0,-1,-1
-159.57,3.93,-27.64,573,-3829,7303,0,-1,-1
-159.57,3.93,-27.64,570,-3833,7300,0,-1,-1
-159.57,3.94,-27.64,569,-3836,7310,0,-1,-1
-159.57,3.94,-27.63,574,-3832,7302,0,-1,0
-159.56,3.94,-27.63,567,-3833,7312,0,-1,-1
-159.56,3.94,-27.63,564,-3825,7309,-1,-1,-1
-159.56,3.94,-27.63,569,-3828,7300,0,-1,-1
-159.56,3.95,-27.63,567,-3818,7297,0,-1,-1
-159.56,3.95,-27.63,569,-3822,7300,-1,0,-1
-159.56,3.95,-27.63,571,-3829,7309,-1,0,-1
-159.56,3.95,-27.63,565,-3834,7309,-1,-1,-1
-159.56,3.95,-27.64,565,-3833,7306,-1,-1,-1
-159.55,3.96,-27.64,571,-3836,7308,0,-1,-1
-159.56,3.97,-27.64,585,-3832,7296,-1,-1,0
-159.56,3.97,-27.64,585,-3840,7306,0,0,-1
-159.56,3.97,-27.63,579,-3828,7313,0,0,0
-159.56,3.97,-27.63,564,-3823,7306,-1,0,-1
-159.56,3.96,-27.63,552,-3825,7290,-1,-1,-1
-159.56,3.96,-27.64,547,-3830,7282,0,-1,-1
-159.55,3.97,-27.63,555,-3824,7300,0,-1,-1
-159.55,3.98,-27.63,571,-3822,7306,-1,-1,-1
-159.55,3.99,-27.63,582,-3821,7299,0,-1,-1
-159.55,3.99,-27.63,590,-3829,7292,0,0,-1
-159.54,3.99,-27.63,591,-3820,7298,0,0,0
-159.55,3.99,-27.63,588,-3823,7302,-1,0,0
-159.55,3.98,-27.63,579,-3825,7318,-1,0,0
-159.55,3.98,-27.63,563,-3823,7318,-1,0,0
-159.56,3.98,-27.64,561,-3824,7312,-1,-1,0
-159.56,3.98,-27.64,561,-3827,7319,-1,-1,0
-159.56,3.98,-27.64,565,-3841,7316,-1,-1,-1
-159.56,3.98,-27.64,570,-3845,7317,0,-1,-1
-159.56,3.99,-27.64,576,-3832,7314,0,-1,-1
-159.56,3.98,-27.63,588,-3823,7313,0,-1,0
-159.55,3.99,-27.63,587,-3822,7306,0,-1,-1
-159.55,3.99,-27.63,587,-3815,7314,-1,-1,0
-159.55,4.00,-27.62,585,-3823,7313,0,0,-1
-159.55,4.00,-27.62,584,-3823,7316,0,-1,-1
-159.55,4.00,-27.62,577,-3813,7312,-1,-1,-1
-159.55,4.00,-27.62,576,-3821,7301,-1,-1,0
-159.55,4.01,-27.62,585,-3822,7301,-1,-1,-1
-159.55,4.02,-27.62,591,-3819,7300,-1,-1,0
-159.55,4.02,-27.63,590,-3831,7302,-1,-1,0
-159.55,4.02,-27.64,582,-3831,7296,-1,-1,0
-159.56,4.02,-27.64,579,-3835,7303,-1,-1,0
-159.56,4.02,-27.64,580,-3832,7308,0,-1,0
-159.55,4.02,-27.64,577,-3824,7303,-1,-1,-1
-159.56,4.02,-27.64,569,-3829,7295,-1,-1,-1
-159.55,4.02,-27.64,581,-3833,7300,0,-1,0
-159.55,4.03,-27.63,578,-3836,7305,0,-1,0
-159.56,4.03,-27.63,588,-3829,7308,0,-1,0
-159.56,4.03,-27.63,589,-3831,7309,-1,-1,0
-159.56,4.03,-27.64,587,-3830,7311,-1,-1,0
-159.56,4.03,-27.64,584,-3841,7311,-1,0,0
-159.56,4.03,-27.64,578,-3836,7314,-1,-1,0
-159.56,4.03,-27.64,574,-3826,7309,0,-1,-1
-159.56,4.04,-27.64,582,-3830,7308,-1,-1,0
-159.56,4.04,-27.65,587,-3837,7305,-1,-1,-1
-159.56,4.04,-27.65,589,-3842,7305,0,-1,-1
-159.56,4.04,-27.65,597,-3837,7302,-1,-1,0
-159.56,4.04,-27.65,592,-3840,7321,0,0,0
-159.57,4.04,-27.64,581,-3829,7323,-1,0,0
-159.57,4.04,-27.65,566,-3830,7307,-1,-1,0
-159.57,4.04,-27.65,576,-3830,7301,-1,-1,-1
-159.56,4.04,-27.65,585,-3831,7300,0,-1,-1
-159.56,4.05,-27.64,591,-3822,7309,-1,-1,-1
-159.56,4.06,-27.64,600,-3824,7311,-1,-1,0
-159.56,4.05,-27.64,589,-3821,7303,0,0,0
-159.56,4.04,-27.65,577,-3820,7297,-1,0,0
-159.57,4.04,-27.65,568,-3826,7307,-1,0,0
-159.57,4.03,-27.66,560,-3831,7312,-1,-1,0
-159.57,4.04,-27.66,570,-3840,7306,-1,-1,-1
-159.57,4.05,-27.67,575,-3838,7315,0,-1,-1
-159.57,4.06,-27.66,591,-3840,7317,0,-1,-1
-159.57,4.06,-27.66,599,-3834,7310,0,-1,-1
-159.57,4.06,-27.66,597,-3830,7307,-1,0,0
-159.57,4.06,-27.66,600,-3831,7308,0,0,0
-159.58,4.05,-27.65,589,-3827,7310,0,0,0
-159.58,4.04,-27.65,577,-3828,7309,-1,0,0
-159.59,4.04,-27.66,573,-3833,7312,-1,-1,0
-159.59,4.04,-27.67,570,-3829,7319,-1,-1,0
-159.59,4.04,-27.67,574,-3826,7309,-1,-1,-1
-159.58,4.05,-27.68,575,-3835,7309,-1,-1,-1
-159.58,4.06,-27.68,592,-3830,7296,-1,-1,0
-159.59,4.06,-27.68,601,-3840,7305,0,-1,0
-159.59,4.06,-27.68,600,-3835,7317,0,0,0
-159.59,4.06,-27.68,586,-3836,7303,-1,0,0
-159.60,4.06,-27.68,589,-3839,7306,-1,0,0
-159.60,4.06,-27.68,590,-3839,7319,-1,0,0
-159.60,4.05,-27.68,585,-3834,7309,-1,-1,0
-159.60,4.06,-27.69,586,-3828,7308,-1,-1,0
-159.61,4.06,-27.69,588,-3831,7317,-1,-1,0
-159.61,4.05,-27.69,587,-3832,7312,-1,0,0
-159.62,4.05,-27.69,582,-3836,7313,-1,0,0
-159.63,4.04,-27.70,576,-3839,7303,-1,-1,0
-159.63,4.04,-27.71,576,-3847,7297,-1,-1,0
-159.64,4.04,-27.71,577,-3840,7289,0,0,0
-159.64,4.04,-27.71,576,-3835,7309,-1,0,0
-159.64,4.04,-27.71,578,-3830,7309,-1,-1,0
-159.64,4.04,-27.72,575,-3834,7304,-1,-1,-1
-159.64,4.04,-27.72,578,-3837,7301,-1,-1,0
-159.63,4.05,-27.72,584,-3828,7302,0,-1,0
-159.63,4.05,-27.72,582,-3830,7305,-1,-1,0
-159.63,4.05,-27.72,583,-3828,7307,-1,0,-1
-159.63,4.05,-27.72,585,-3832,7306,-1,-1,-1
-159.64,4.05,-27.73,581,-3844,7296,-1,-1,-1
-159.63,4.05,-27.72,584,-3847,7304,0,-1,0
-159.63,4.06,-27.72,587,-3835,7303,0,-1,-1
-159.63,4.06,-27.71,594,-3817,7309,0,-1,0
-159.64,4.06,-27.72,583,-3829,7306,-1,-1,0
-159.64,4.06,-27.72,588,-3839,7307,0,0,0
-159.64,4.06,-27.72,580,-3835,7311,0,0,0
-159.64,4.06,-27.72,582,-3835,7312,0,-1,-1
-159.64,4.06,-27.71,583,-3834,7300,0,0,-1
-159.63,4.05,-27.71,592,-3825,7301,0,0,-1
-159.63,4.05,-27.70,585,-3828,7298,-1,0,0
-159.63,4.04,-27.71,583,-3839,7307,-1,-1,-1
-159.63,4.05,-27.70,593,-3842,7304,0,-1,-1
-159.62,4.06,-27.70,602,-3845,7316,0,0,-1
-159.62,4.06,-27.69,600,-3838,7327,0,-1,-1
-159.62,4.06,-27.69,601,-3840,7319,0,0,0
-159.62,4.06,-27.68,590,-3832,7299,0,0,-1
-159.62,4.05,-27.67,573,-3827,7294,0,0,-1
-159.62,4.05,-27.67,571,-3822,7298,0,-1,-1
-159.61,4.06,-27.66,570,-3834,7300,0,-1,-1
-159.61,4.07,-27.66,580,-3829,7303,0,-1,-1
-159.60,4.08,-27.65,594,-3828,7309,0,-1,-1
-159.60,4.09,-27.65,606,-3833,7306,0,-1,-1
-159.60,4.11,-27.65,614,-3833,7304,0,-1,-1
-159.60,4.11,-27.64,619,-3834,7299,0,0,0
-159.60,4.11,-27.64,617,-3822,7297,0,0,0
-159.60,4.10,-27.63,599,-3824,7303,0,0,0
-159.60,4.10,-27.63,594,-3826,7302,-1,-1,0
-159.60,4.10,-27.64,593,-3841,7308,0,0,-1
-159.60,4.10,-27.63,589,-3835,7313,-1,-1,-1
-159.60,4.11,-27.64,588,-3831,7304,-1,-1,-1
-159.60,4.12,-27.64,590,-3832,7295,0,-1,-1
-159.59,4.12,-27.64,598,-3828,7300,0,-1,-1
-159.59,4.12,-27.63,600,-3822,7311,0,0,-1
-159.59,4.12,-27.62,602,-3820,7308,0,0,0
-159.59,4.12,-27.62,594,-3833,7321,0,0,0
-159.59,4.11,-27.63,593,-3837,7318,0,0,0
-159.59,4.11,-27.63,589,-3822,7317,-1,-1,0
-159.59,4.11,-27.63,591,-3824,7315,-1,-1,0
-159.59,4.11,-27.63,593,-3836,7304,0,-1,-1
-159.59,4.11,-27.63,596,-3831,7307,0,0,-1
-159.59,4.11,-27.63,606,-3831,7308,0,0,-1
-159.59,4.11,-27.63,603,-3826,7310,-1,-1,0
-159.59,4.11,-27.63,603,-3824,7307,0,0,0
-159.59,4.11,-27.63,600,-3830,7304,0,0,0
-159.59,4.11,-27.63,593,-3826,7300,0,0,0
-159.59,4.11,-27.63,592,-3827,7303,0,-1,0
-159.59,4.11,-27.63,593,-3832,7311,0,-1,-1
-159.59,4.11,-27.63,600,-3830,7311,-1,-1,0
-159.59,4.11,-27.63,597,-3829,7301,0,-1,-1
-159.59,4.12,-27.62,601,-3822,7297,-1,0,0
-159.59,4.11,-27.63,605,-3826,7305,-1,0,0
-159.59,4.11,-27.63,598,-3829,7301,-1,-1,0
-159.59,4.11,-27.63,598,-3841,7298,0,0,-1
-159.59,4.10,-27.63,590,-3828,7308,0,0,0
-159.59,4.10,-27.63,588,-3827,7301,-1,-1,-1
-159.59,4.11,-27.63,590,-3828,7303,-1,-1,-1
-159.59,4.11,-27.63,589,-3825,7302,0,-1,-1
-159.59,4.11,-27.62,601,-3823,7309,0,-1,-1
-159.58,4.12,-27.62,603,-3823,7320,0,0,0
-159.59,4.11,-27.61,605,-3823,7313,0,0,0
-159.59,4.11,-27.61,603,-3824,7314,-1,0,0
-159.59,4.11,-27.61,598,-3825,7310,0,0,0
-159.59,4.10,-27.61,589,-3820,7315,-1,0,0
-159.59,4.10,-27.62,578,-3822,7305,-1,0,-1
-159.59,4.10,-27.62,581,-3826,7313,0,-1,-1
-159.58,4.10,-27.61,585,-3828,7309,0,-1,-1
-159.58,4.10,-27.61,599,-3820,7312,-1,-1,-1
-159.58,4.10,-27.61,601,-3814,7313,-1,0,0
-159.58,4.09,-27.61,599,-3810,7316,-1,0,0
-159.58,4.08,-27.62,585,-3827,7307,0,0,0
-159.58,4.07,-27.61,578,-3817,7314,-1,0,-1
-159.58,4.06,-27.62,556,-3821,7319,-1,-1,-1
-159.58,4.06,-27.62,573,-3815,7324,-1,0,-1
-159.58,4.06,-27.63,571,-3834,7323,-1,-1,-1
-159.58,4.07,-27.65,594,-3843,7316,-1,0,-1
-159.57,4.07,-27.65,603,-3833,7317,-1,0,0
-159.58,4.07,-27.66,596,-3826,7307,-1,-1,0
-159.58,4.06,-27.66,599,-3830,7313,-1,0,0
-159.59,4.05,-27.68,571,-3832,7275,-1,-1,0
-159.59,4.03,-27.68,577,-3836,7319,0,0,0
-159.59,4.04,-27.68,591,-3835,7308,-1,0,0
-159.60,4.03,-27.69,563,-3860,7290,0,-1,-1
-159.60,4.03,-27.68,583,-3847,7307,-1,0,0
-159.60,4.03,-27.68,564,-3846,7287,0,-1,0
-159.60,4.03,-27.67,582,-3818,7306,-1,0,0
-159.60,4.02,-27.67,578,-3824,7319,-1,-1,0
-159.60,4.03,-27.67,583,-3842,7315,0,-1,0
-159.60,4.02,-27.67,574,-3826,7301,-1,0,0
-159.60,4.01,-27.67,569,-3815,7317,0,-1,0
-159.61,4.02,-27.68,585,-3830,7308,-1,0,0
-159.61,4.00,-27.68,578,-3835,7311,0,0,-1
-159.61,4.00,-27.68,572,-3831,7296,0,0,0
-159.61,4.00,-27.68,563,-3823,7320,-1,-1,0
-159.62,4.01,-27.70,572,-3823,7264,-1,0,-1
-159.62,4.01,-27.69,594,-3855,7298,0,-1,0
-159.62,4.00,-27.69,579,-3856,7315,0,0,-1
-159.62,4.00,-27.68,573,-3828,7321,0,-1,0
-159.62,4.01,-27.68,584,-3833,7287,0,0,-1
-159.62,4.00,-27.68,569,-3840,7314,0,0,-1
-159.62,4.00,-27.67,564,-3803,7292,-1,-1,0
-159.62,4.00,-27.68,584,-3817,7322,-1,0,0
-159.62,4.00,-27.69,574,-3827,7296,0,0,-1
-159.62,4.00,-27.70,584,-3832,7293,-1,-1,0
-159.62,4.01,-27.70,580,-3856,7291,0,-1,-1
-159.62,4.00,-27.70,578,-3822,7281,0,0,0
-159.63,4.00,-27.69,577,-3823,7298,0,-1,0
-159.63,4.00,-27.70,566,-3832,7284,-1,-1,-1
-159.62,4.00,-27.69,586,-3843,7310,0,0,-1
-159.62,4.01,-27.69,579,-3827,7283,0,-1,0
-159.62,4.01,-27.67,580,-3842,7323,0,0,0
-159.62,4.01,-27.67,590,-3833,7326,0,0,-1
-159.62,4.01,-27.66,592,-3817,7321,0,0,-1
-159.61,4.01,-27.66,585,-3812,7308,-1,-1,0
-159.62,4.01,-27.67,579,-3827,7288,-1,-1,0
-159.61,4.01,-27.67,579,-3838,7315,0,0,-1
-159.61,4.01,-27.66,575,-3825,7315,0,0,-1
-159.60,4.01,-27.66,570,-3815,7312,-1,-1,-1
-159.60,4.02,-27.66,578,-3835,7310,-1,-1,-1
-159.60,4.03,-27.67,591,-3840,7304,-1,-1,0
-159.60,4.03,-27.68,595,-3828,7293,0,0,0
-159.61,4.03,-27.68,589,-3826,7291,-1,-1,0
-159.61,4.03,-27.68,578,-3831,7276,0,-1,0
-159.61,4.03,-27.69,564,-3844,7280,0,0,-1
-159.60,4.03,-27.67,566,-3841,7298,0,-1,-1
-159.60,4.03,-27.67,570,-3836,7303,0,-1,-1
-159.60,4.04,-27.67,578,-3835,7308,0,-1,-1
-159.60,4.05,-27.67,586,-3821,7309,-1,-1,-1
-159.60,4.05,-27.67,600,-3820,7300,0,-1,0
-159.60,4.05,-27.66,604,-3819,7301,-1,0,0
-159.60,4.04,-27.67,594,-3821,7303,-1,0,0
-159.60,4.04,-27.67,585,-3816,7299,-1,0,0
-159.61,4.04,-27.66,577,-3818,7312,-1,-1,0
-159.61,4.04,-27.67,573,-3821,7311,-1,-1,0
-159.61,4.05,-27.67,574,-3825,7311,-1,-1,0
-159.62,4.06,-27.68,583,-3841,7297,-1,-1,-1
-159.62,4.06,-27.69,588,-3849,7302,0,-1,-1
-159.61,4.07,-27.68,584,-3838,7303,0,-1,0
-159.61,4.07,-27.68,589,-3833,7306,0,-1,0
-159.60,4.08,-27.67,596,-3833,7302,0,0,-1
-159.60,4.08,-27.67,598,-3831,7303,0,0,-1
-159.60,4.08,-27.66,599,-3836,7305,0,-1,0
-159.61,4.07,-27.67,593,-3833,7302,-1,-1,0
-159.61,4.07,-27.67,590,-3826,7297,-1,-1,0
-159.61,4.07,-27.67,587,-3832,7302,-1,-1,0
-159.61,4.08,-27.67,585,-3838,7307,-1,-1,-1
-159.62,4.08,-27.68,583,-3841,7298,-1,-1,0
-159.62,4.09,-27.68,594,-3837,7302,-1,-1,-1
-159.61,4.09,-27.68,596,-3833,7308,-1,-1,0
-159.62,4.10,-27.68,598,-3832,7314,0,-1,0
-159.61,4.10,-27.68,598,-3831,7315,-1,-1,-1
-159.61,4.10,-27.68,596,-3827,7302,0,-1,0
-159.61,4.09,-27.67,597,-3820,7307,0,0,0
-159.61,4.09,-27.67,591,-3820,7304,-1,-1,0
-159.61,4.09,-27.67,600,-3819,7304,-1,-1,0
-159.61,4.10,-27.68,594,-3835,7308,0,-1,-1
-159.61,4.10,-27.68,593,-3838,7309,0,-1,-1
-159.61,4.10,-27.68,588,-3840,7314,-1,-1,-1
-159.61,4.10,-27.68,594,-3833,7299,-1,-1,0
-159.61,4.10,-27.68,596,-3827,7311,0,-1,0
-159.61,4.11,-27.68,598,-3833,7311,-1,-1,0
-159.62,4.11,-27.68,599,-3838,7310,0,-1,0
-159.62,4.11,-27.67,591,-3827,7304,0,0,-1
-159.61,4.11,-27.67,586,-3835,7302,0,-1,-1
-159.61,4.11,-27.67,594,-3831,7295,0,-1,-1
-159.61,4.11,-27.67,599,-3828,7294,-1,0,0
-159.61,4.11,-27.67,596,-3824,7286,-1,0,0
-159.61,4.12,-27.68,595,-3833,7295,-1,-1,0
-159.61,4.12,-27.68,600,-3835,7296,0,-1,0
-159.61,4.12,-27.67,599,-3843,7307,0,-1,0
-159.61,4.12,-27.67,607,-3836,7323,0,0,0
-159.61,4.12,-27.67,605,-3826,7318,-1,0,0
-159.61,4.12,-27.68,608,-3832,7297,-1,0,0
-159.61,4.12,-27.68,589,-3833,7295,-1,0,0
-159.61,4.11,-27.68,588,-3837,7304,-1,0,0
-159.61,4.11,-27.68,588,-3843,7308,0,-1,-1
-159.61,4.12,-27.68,599,-3847,7308,0,-1,-1
-159.61,4.12,-27.68,601,-3839,7308,0,0,0
-159.61,4.11,-27.68,602,-3831,7301,0,0,0
-159.61,4.11,-27.68,611,-3833,7302,-1,0,0
-159.61,4.11,-27.68,602,-3829,7302,-1,0,0
-159.61,4.10,-27.69,600,-3830,7291,-1,0,0
-159.62,4.10,-27.69,593,-3824,7305,-1,0,0
-159.63,4.10,-27.70,592,-3825,7302,-1,-1,0
-159.64,4.09,-27.71,577,-3832,7317,-1,-1,0
-159.65,4.09,-27.72,585,-3836,7306,-1,-1,0
-159.65,4.09,-27.73,579,-3845,7306,-1,-1,0
-159.65,4.09,-27.74,587,-3848,7301,-1,-1,0
-159.65,4.09,-27.74,597,-3862,7318,0,0,0
-159.65,4.09,-27.74,598,-3853,7309,0,-1,0
-159.65,4.09,-27.74,588,-3854,7300,0,0,0
-159.65,4.09,-27.74,585,-3853,7291,0,-1,0
-159.66,4.09,-27.74,584,-3837,7297,0,0,0
-159.66,4.09,-27.73,591,-3834,7300,-1,-1,0
-159.66,4.09,-27.74,595,-3834,7300,-1,-1,0
-159.66,4.09,-27.74,597,-3834,7299,0,0,0
-159.67,4.09,-27.74,590,-3845,7294,-1,0,0
-159.67,4.08,-27.74,590,-3847,7294,-1,0,0
-159.66,4.08,-27.74,587,-3851,7292,0,0,-1
-159.66,4.08,-27.74,591,-3850,7298,0,0,-1
-159.66,4.08,-27.73,589,-3841,7308,0,0,-1
-159.66,4.08,-27.73,591,-3834,7313,0,0,-1
-159.65,4.08,-27.72,592,-3837,7311,0,0,-1
-159.65,4.09,-27.71,594,-3839,7303,0,0,-1
-159.65,4.09,-27.71,593,-3838,7292,0,-1,-1
-159.65,4.09,-27.71,588,-3838,7294,0,-1,-1
-159.64,4.09,-27.70,588,-3842,7292,0,-1,-1
-159.64,4.09,-27.70,590,-3849,7302,0,0,-1
-159.64,4.09,-27.70,599,-3842,7300,0,0,-1
-159.64,4.09,-27.69,598,-3834,7298,0,0,-1
-159.64,4.09,-27.69,597,-3838,7302,0,-1,0
-159.63,4.10,-27.69,596,-3843,7309,0,0,-1
-159.63,4.10,-27.69,593,-3833,7309,0,-1,-1
-159.63,4.10,-27.68,592,-3835,7307,0,-1,-1
-159.63,4.11,-27.68,594,-3836,7305,0,-1,-1
-159.62,4.11,-27.67,600,-3839,7314,0,0,-1
-159.62,4.10,-27.66,602,-3831,7305,0,0,-1
-159.62,4.10,-27.66,606,-3829,7298,0,0,-1
-159.62,4.10,-27.66,605,-3820,7298,0,0,0
-159.62,4.10,-27.66,594,-3826,7293,-1,0,0
-159.62,4.09,-27.67,583,-3826,7296,-1,0,-1
-159.62,4.09,-27.67,578,-3838,7297,-1,-1,-1
-159.62,4.10,-27.67,593,-3849,7300,0,-1,-1
-159.61,4.10,-27.66,604,-3836,7296,0,0,-1
-159.61,4.10,-27.66,605,-3835,7307,0,0,0
-159.61,4.09,-27.66,597,-3838,7306,0,0,0
-159.62,4.08,-27.65,596,-3832,7305,0,0,0
-159.61,4.07,-27.65,583,-3835,7304,0,0,0
-159.61,4.06,-27.65,567,-3838,7307,0,-1,-1
-159.61,4.07,-27.65,570,-3841,7311,0,-1,-1
-159.61,4.07,-27.66,580,-3842,7319,0,-1,-1
-159.61,4.08,-27.65,598,-3835,7320,0,-1,-1
-159.61,4.08,-27.65,611,-3830,7295,-1,-1,0
-159.60,4.08,-27.65,605,-3840,7303,0,0,0
-159.60,4.07,-27.64,599,-3827,7312,0,0,0
-159.60,4.06,-27.63,581,-3824,7304,0,0,0
-159.61,4.05,-27.64,573,-3825,7301,-1,0,0
-159.61,4.05,-27.64,569,-3830,7298,0,0,-1
-159.61,4.05,-27.64,571,-3833,7304,0,-1,-1
-159.61,4.05,-27.64,579,-3832,7300,-1,0,-1
-159.61,4.06,-27.64,587,-3836,7300,0,-1,-1
-159.61,4.06,-27.64,595,-3840,7295,0,0,0
-159.61,4.06,-27.64,602,-3834,7300,0,0,0
-159.60,4.04,-27.63,593,-3832,7300,0,0,-1
-159.60,4.04,-27.63,587,-3828,7304,0,0,-1
-159.60,4.04,-27.63,582,-3815,7294,-1,0,0
-159.60,4.03,-27.63,593,-3831,7300,0,0,0
-159.60,4.03,-27.63,579,-3825,7296,-1,0,0
-159.61,4.02,-27.62,591,-3819,7324,0,0,0
-159.61,4.02,-27.64,589,-3818,7292,-1,0,0
-159.61,3.99,-27.63,584,-3806,7346,-1,0,0
-159.62,4.00,-27.65,590,-3819,7272,-1,0,0
-159.63,3.98,-27.66,583,-3833,7308,-1,0,0
-159.63,3.97,-27.67,582,-3821,7305,0,0,-1
-159.64,3.96,-27.68,588,-3836,7336,0,0,0
-159.65,3.95,-27.69,558,-3828,7301,-2,-1,0
-159.64,3.94,-27.71,555,-3820,7309,-1,0,0
-159.67,3.94,-27.72,553,-3863,7307,0,-1,0
-159.67,3.94,-27.74,567,-3852,7274,-1,0,0
-159.69,3.93,-27.75,600,-3850,7277,-1,-1,0
-159.68,3.92,-27.75,583,-3821,7340,-1,0,0
-159.71,3.93,-27.78,588,-3848,7262,0,0,0
-159.72,3.91,-27.79,566,-3842,7283,-3,-2,0
-159.72,3.89,-27.77,545,-3863,7337,1,0,0
-159.74,3.91,-27.80,567,-3874,7263,0,-1,0
-159.74,3.90,-27.78,560,-3818,7360,-3,-1,0
-159.75,3.90,-27.80,554,-3868,7278,3,0,-1
-159.76,3.91,-27.82,584,-3829,7288,-4,-2,0
-159.76,3.90,-27.79,548,-3821,7338,1,0,0
-159.78,3.90,-27.83,579,-3846,7237,-1,0,0
-159.79,3.88,-27.83,555,-3832,7342,-3,-1,0
-159.80,3.88,-27.85,545,-3840,7288,1,1,0
-159.81,3.88,-27.89,575,-3873,7255,-2,-1,0
-159.82,3.85,-27.87,523,-3853,7318,-1,-1,-1
-159.80,3.86,-27.90,517,-3916,7247,0,0,-1
-159.78,3.88,-27.86,561,-3867,7359,-2,-1,0
-159.78,3.89,-27.89,567,-3878,7244,1,0,-1
-159.77,3.90,-27.86,589,-3859,7312,-1,-1,0
-159.76,3.90,-27.86,594,-3860,7279,1,0,-1
-159.77,3.90,-27.85,539,-3850,7259,-1,-1,0
-159.77,3.90,-27.85,559,-3883,7289,0,0,-1
-159.75,3.89,-27.84,560,-3871,7290,1,0,-1
-159.74,3.89,-27.82,554,-3841,7321,-1,-1,-1
-159.72,3.90,-27.80,538,-3835,7296,1,0,-1
-159.72,3.91,-27.81,569,-3868,7276,-1,-1,-1
-159.70,3.93,-27.79,584,-3838,7314,0,-1,-1
-159.70,3.94,-27.79,609,-3841,7315,0,-1,-1
-159.70,3.95,-27.79,594,-3865,7309,0,0,-1
-159.69,3.95,-27.79,575,-3867,7310,0,-1,-1
-159.69,3.95,-27.79,574,-3836,7278,0,0,-1
-159.68,3.95,-27.79,563,-3832,7322,-1,-1,-1
-159.69,3.96,-27.80,570,-3855,7300,-1,-1,-1
-159.68,3.98,-27.80,574,-3874,7287,0,-1,-1
-159.67,3.99,-27.79,574,-3866,7283,0,-1,-1
-159.67,3.99,-27.77,565,-3856,7289,0,-1,-1
-159.66,4.00,-27.77,584,-3853,7290,0,-1,-1
