Yaw,Pitch,Roll,AX,AY,AZ,GX,GY,GZ
175.92,3.65,-36.39,98,-5096,6373,3,0,-3
176.04,3.69,-36.25,54,-5085,6329,9,0,-9
176.30,3.80,-35.93,245,-4881,6506,10,3,-11
176.58,3.94,-35.65,287,-4839,6519,10,-1,-13
176.84,4.14,-35.33,647,-4836,6725,9,-1,-8
176.96,4.31,-35.13,842,-4926,6754,7,-3,-5
177.03,4.39,-34.90,1014,-4913,6873,6,0,-1
177.02,4.43,-34.73,1078,-4850,6813,8,1,0
176.95,4.38,-34.54,1037,-4655,6858,4,2,3
176.87,4.29,-34.41,977,-4516,6922,2,3,3
176.74,4.13,-34.40,898,-4413,7031,-5,3,5
176.61,3.97,-34.51,717,-4444,7038,-7,4,5
176.47,3.77,-34.71,426,-4555,6920,-8,1,4
176.37,3.67,-34.86,327,-4709,6799,-4,1,3
176.28,3.56,-35.02,207,-4814,6849,-6,-1,2
176.28,3.54,-35.13,274,-4717,6846,-4,1,-1
176.32,3.55,-35.32,277,-4743,6903,-13,-3,-1
176.39,3.59,-35.76,379,-4666,7060,-22,-3,-1
176.48,3.78,-36.65,586,-4590,6872,-37,-9,1
176.58,3.91,-37.56,678,-4815,6718,-31,-4,1
176.62,3.99,-38.40,727,-4947,6482,-27,-7,4
176.54,3.97,-38.86,750,-5293,5985,-2,2,3
176.46,3.84,-38.73,672,-5318,6035,9,3,1
176.37,3.72,-38.36,602,-5330,5922,20,3,1
176.27,3.53,-37.64,526,-5250,6181,29,9,-2
176.19,3.40,-37.18,477,-4959,6849,0,-1,2
176.13,3.40,-37.21,466,-5000,6642,1,0,0
176.11,3.35,-37.15,439,-4968,6714,0,0,0
176.09,3.33,-37.17,442,-4984,6684,-1,0,0
176.08,3.31,-37.19,424,-4984,6630,-1,0,-1
176.09,3.31,-37.19,430,-4969,6604,-1,0,-1
176.11,3.32,-37.22,469,-4958,6580,-2,-1,-1
176.13,3.34,-37.24,500,-4950,6597,-2,-1,-1
176.14,3.36,-37.28,514,-4965,6596,-2,-1,-1
176.15,3.37,-37.32,533,-4996,6601,-2,-1,0
176.14,3.37,-37.37,512,-5016,6576,-2,-1,0
176.14,3.36,-37.42,522,-5047,6581,-2,0,0
176.13,3.36,-37.46,489,-5060,6551,-1,-1,0
176.11,3.35,-37.48,482,-5071,6547,-1,-1,0
176.12,3.35,-37.48,451,-5073,6530,0,-1,-1
176.11,3.34,-37.48,441,-5055,6546,0,-1,-1
176.13,3.36,-37.46,452,-5049,6559,0,-1,-1
176.13,3.37,-37.46,463,-5035,6570,0,-1,-1
176.15,3.39,-37.43,502,-5053,6583,0,0,-1
176.17,3.41,-37.42,500,-5051,6567,1,-1,-1
176.18,3.42,-37.39,532,-5024,6596,0,0,-1
176.19,3.43,-37.37,511,-5017,6594,0,-1,-1
176.19,3.42,-37.36,527,-4993,6611,-1,0,0
176.20,3.42,-37.37,509,-5002,6596,-1,0,-1
176.20,3.41,-37.38,495,-4995,6598,-2,0,0
176.21,3.41,-37.40,490,-5009,6597,-1,0,-1
176.20,3.41,-37.43,487,-5019,6583,-2,-1,0
176.21,3.41,-37.46,510,-5024,6576,-1,0,0
176.22,3.42,-37.50,497,-5035,6548,-2,-1,-1
176.23,3.43,-37.51,517,-5022,6572,-2,0,0
176.23,3.44,-37.54,510,-5030,6551,-1,-1,-1
176.24,3.45,-37.56,530,-5020,6550,-2,0,0
176.25,3.46,-37.58,521,-5036,6538,-1,-1,-1
176.25,3.46,-37.59,524,-5045,6555,-2,0,0
176.25,3.45,-37.61,519,-5065,6562,0,0,-1
176.25,3.45,-37.61,508,-5060,6566,-1,0,0
176.25,3.44,-37.61,511,-5047,6571,0,0,-1
176.25,3.44,-37.62,492,-5041,6560,-1,-1,-1
176.25,3.44,-37.63,512,-5043,6565,-1,0,0
176.25,3.44,-37.64,490,-5059,6558,-1,-1,-1
176.25,3.44,-37.65,515,-5049,6565,-1,0,0
176.26,3.44,-37.66,495,-5058,6538,0,-1,-1
176.26,3.44,-37.67,506,-5062,6560,-1,0,0
176.27,3.44,-37.68,498,-5071,6544,0,-1,-1
176.27,3.44,-37.69,521,-5072,6549,-1,-1,0
176.28,3.45,-37.68,518,-5066,6555,0,0,-1
176.28,3.45,-37.69,520,-5060,6551,-1,-1,0
176.29,3.45,-37.68,542,-5054,6555,0,0,0
176.28,3.45,-37.69,530,-5049,6547,-1,0,0
176.28,3.42,-37.69,540,-5045,6557,-1,1,0
176.27,3.40,-37.71,509,-5058,6538,-1,0,0
176.27,3.37,-37.73,511,-5061,6551,-1,0,0
176.25,3.35,-37.73,478,-5060,6539,-1,0,0
176.25,3.32,-37.74,477,-5059,6549,-1,0,0
176.24,3.32,-37.75,487,-5063,6542,-1,0,0
176.24,3.31,-37.76,479,-5081,6527,-1,0,0
176.24,3.30,-37.76,492,-5071,6547,0,0,0
176.24,3.30,-37.76,498,-5065,6534,0,0,-1
176.23,3.28,-37.75,519,-5056,6557,-1,0,0
176.23,3.27,-37.74,512,-5056,6539,0,1,-1
176.22,3.23,-37.74,486,-5048,6546,-1,0,0
176.22,3.21,-37.74,472,-5069,6535,0,1,0
176.20,3.19,-37.73,471,-5062,6536,-1,0,0
176.20,3.17,-37.72,459,-5074,6557,0,0,0
176.19,3.16,-37.73,461,-5076,6540,-1,0,0
176.19,3.14,-37.71,469,-5064,6563,0,0,0
176.18,3.13,-37.72,467,-5069,6537,0,0,0
176.17,3.11,-37.70,472,-5059,6570,-1,0,0
176.17,3.11,-37.71,478,-5056,6543,0,0,-1
176.16,3.09,-37.70,480,-5045,6566,-1,0,0
176.15,3.07,-37.70,464,-5056,6549,0,1,-1
176.14,3.03,-37.70,442,-5041,6573,-1,0,0
176.13,3.02,-37.70,431,-5064,6558,0,0,-1
176.11,3.00,-37.71,442,-5061,6569,-1,-1,0
176.12,3.00,-37.71,451,-5072,6550,0,1,0
176.11,2.99,-37.71,444,-5072,6544,-1,-1,0
176.10,2.97,-37.70,448,-5064,6568,0,0,0
176.09,2.97,-37.71,446,-5067,6551,-1,-1,0
176.09,2.96,-37.70,453,-5054,6582,-1,0,0
176.08,2.94,-37.70,438,-5065,6529,0,0,0
176.07,2.92,-37.69,435,-5057,6565,-1,0,0
176.05,2.91,-37.69,430,-5065,6526,0,0,-1
176.05,2.89,-37.68,432,-5048,6579,-1,0,0
176.03,2.87,-37.68,416,-5064,6546,1,0,-1
176.02,2.86,-37.67,419,-5048,6579,-1,-1,0
176.01,2.85,-37.67,425,-5063,6550,1,0,-1
176.00,2.84,-37.67,434,-5054,6572,-1,0,0
176.00,2.83,-37.65,435,-5054,6573,0,0,-1
175.99,2.81,-37.65,420,-5036,6572,-1,0,0
175.98,2.80,-37.65,415,-5044,6564,0,0,0
175.97,2.78,-37.66,404,-5056,6550,-1,-1,0
175.97,2.78,-37.65,416,-5062,6566,0,0,0
175.96,2.77,-37.67,407,-5057,6538,-1,-1,0
175.96,2.76,-37.66,413,-5048,6562,-1,0,0
175.96,2.77,-37.68,404,-5066,6530,-1,-1,-1
175.96,2.77,-37.68,399,-5061,6559,-1,-1,0
175.96,2.78,-37.70,396,-5076,6545,0,-1,-1
175.96,2.78,-37.69,392,-5055,6568,-1,-1,0
175.96,2.80,-37.70,406,-5057,6567,-1,-1,-1
175.97,2.81,-37.70,422,-5040,6563,-1,-1,-1
175.97,2.81,-37.71,412,-5053,6557,-1,0,-1
175.98,2.82,-37.71,430,-5061,6561,-1,0,-1
175.99,2.83,-37.71,415,-5071,6554,-1,-1,-1
175.99,2.85,-37.71,434,-5067,6547,-1,-1,0
176.00,2.86,-37.72,416,-5073,6531,0,-1,-1
176.00,2.87,-37.71,440,-5049,6545,-1,-1,0
176.00,2.87,-37.71,421,-5055,6542,0,-1,-1
176.00,2.88,-37.71,431,-5061,6546,-1,-1,0
176.00,2.89,-37.70,432,-5067,6550,0,0,-1
176.00,2.89,-37.71,431,-5061,6539,-1,-1,-1
176.02,2.89,-37.70,441,-5051,6551,-1,0,-1
176.02,2.90,-37.71,429,-5053,6544,0,-1,-1
176.03,2.90,-37.70,445,-5048,6557,-1,0,0
176.03,2.90,-37.71,414,-5056,6550,0,-1,-1
176.02,2.90,-37.71,427,-5050,6570,-1,-1,0
176.02,2.90,-37.71,411,-5054,6549,0,-1,-1
176.02,2.90,-37.73,409,-5047,6565,-1,-1,0
176.03,2.92,-37.73,417,-5065,6558,-1,-1,-1
176.03,2.93,-37.75,424,-5072,6542,-1,-1,-1
176.04,2.94,-37.76,448,-5080,6545,-1,0,0
176.03,2.94,-37.78,442,-5092,6532,-1,-1,0
176.03,2.94,-37.78,466,-5088,6532,-1,0,0
176.03,2.93,-37.79,440,-5091,6530,0,0,-1
176.03,2.91,-37.79,446,-5077,6545,-1,0,0
176.03,2.90,-37.78,419,-5089,6542,0,0,-1
176.02,2.89,-37.77,453,-5077,6547,-1,0,0
176.02,2.87,-37.77,429,-5082,6537,0,0,-1
176.01,2.85,-37.77,434,-5061,6557,-1,0,0
176.01,2.83,-37.76,436,-5042,6554,0,0,0
176.00,2.81,-37.76,423,-5053,6554,-1,0,0
175.98,2.79,-37.77,428,-5055,6550,-1,0,0
175.97,2.78,-37.78,400,-5054,6542,-1,0,-1
175.96,2.76,-37.79,405,-5058,6560,-2,0,0
175.95,2.75,-37.80,405,-5080,6538,0,0,0
175.94,2.73,-37.82,418,-5068,6554,-1,0,0
175.93,2.72,-37.82,405,-5074,6545,0,0,0
175.91,2.70,-37.83,395,-5069,6537,-1,-1,0
175.90,2.69,-37.84,405,-5071,6540,0,0,0
175.89,2.68,-37.85,388,-5082,6532,-1,0,0
175.88,2.67,-37.84,403,-5072,6549,-1,0,0
175.88,2.65,-37.86,378,-5073,6533,0,0,-1
175.88,2.64,-37.86,396,-5064,6534,-1,0,0
175.87,2.63,-37.87,369,-5093,6528,0,-1,-1
175.87,2.63,-37.87,389,-5086,6538,-1,0,0
175.86,2.62,-37.88,395,-5098,6545,0,0,0
175.86,2.61,-37.88,404,-5088,6528,-1,0,0
175.87,2.61,-37.88,390,-5073,6524,0,0,0
175.86,2.60,-37.89,378,-5082,6521,0,-1,-1
175.87,2.61,-37.88,388,-5082,6523,0,-1,-1
175.87,2.61,-37.88,383,-5089,6529,0,0,-1
175.87,2.61,-37.88,390,-5087,6544,-1,0,0
175.86,2.60,-37.88,381,-5079,6541,0,0,-1
175.86,2.60,-37.88,397,-5068,6552,-1,0,0
175.86,2.60,-37.89,394,-5070,6541,0,0,0
175.86,2.59,-37.90,389,-5082,6545,-1,-1,0
175.86,2.59,-37.90,384,-5088,6538,0,0,0
175.86,2.59,-37.90,396,-5084,6526,-1,0,0
175.86,2.59,-37.90,381,-5086,6529,0,0,-1
175.85,2.59,-37.90,385,-5093,6540,-1,-1,0
175.85,2.59,-37.90,387,-5096,6552,0,0,-1
175.84,2.59,-37.89,390,-5087,6539,-1,0,0
175.85,2.58,-37.88,377,-5072,6544,0,0,-1
175.84,2.58,-37.88,381,-5064,6511,-1,0,0
175.85,2.57,-37.87,371,-5060,6537,0,0,-1
175.84,2.58,-37.88,393,-5081,6535,-1,-1,0
175.85,2.58,-37.87,396,-5092,6554,0,0,0
175.84,2.57,-37.87,397,-5093,6533,0,-1,0
175.84,2.57,-37.86,383,-5085,6554,0,0,0
175.83,2.57,-37.86,388,-5081,6532,0,-1,0
175.83,2.57,-37.85,383,-5065,6554,-1,0,0
175.83,2.57,-37.85,380,-5073,6546,0,0,-1
175.83,2.56,-37.85,375,-5080,6560,-1,0,0
175.83,2.57,-37.86,381,-5095,6539,0,-1,-1
175.83,2.57,-37.86,381,-5084,6568,-1,-1,0
175.82,2.57,-37.86,379,-5091,6553,0,-1,-1
175.82,2.58,-37.85,383,-5062,6565,-1,-1,0
175.81,2.58,-37.86,385,-5071,6538,0,-1,-1
175.80,2.57,-37.87,379,-5055,6564,-2,-1,0
175.80,2.59,-37.89,378,-5070,6547,-1,-1,0
175.78,2.60,-37.91,371,-5060,6570,-2,-2,1
175.77,2.62,-37.95,378,-5057,6555,-2,-2,0
175.75,2.63,-38.01,386,-5091,6528,-3,-2,0
175.75,2.65,-38.05,385,-5153,6487,-1,-1,-1
175.75,2.66,-38.06,386,-5186,6478,0,-1,0
175.76,2.66,-38.04,394,-5183,6490,1,0,-1
175.76,2.67,-38.00,400,-5134,6504,1,-1,-1
175.77,2.67,-37.96,403,-5103,6522,1,0,-1
175.77,2.68,-37.93,399,-5082,6533,0,-1,-1
175.78,2.69,-37.90,402,-5061,6539,0,0,0
175.77,2.68,-37.90,408,-5057,6525,0,-1,-1
175.78,2.68,-37.87,395,-5076,6544,0,0,-1
175.79,2.69,-37.86,394,-5088,6543,0,0,-1
175.79,2.68,-37.84,381,-5073,6563,0,0,-1
175.81,2.68,-37.83,396,-5050,6560,-1,0,-1
175.82,2.69,-37.83,391,-5038,6565,0,-1,-1
175.82,2.70,-37.83,399,-5048,6557,-1,-1,0
175.82,2.70,-37.84,390,-5064,6559,-1,-1,-1
175.83,2.71,-37.86,403,-5069,6558,-1,-1,0
175.83,2.72,-37.87,399,-5070,6558,-1,-1,0
175.82,2.74,-37.90,404,-5073,6548,-1,-1,0
175.83,2.75,-37.91,418,-5078,6554,-1,-1,0
175.83,2.76,-37.93,404,-5102,6526,-1,-1,-1
175.83,2.77,-37.94,410,-5085,6544,-1,-1,0
175.83,2.78,-37.95,400,-5107,6522,0,-1,-1
175.83,2.78,-37.95,415,-5095,6525,-1,-1,0
175.84,2.79,-37.95,401,-5128,6521,0,0,-1
175.84,2.79,-37.94,428,-5091,6535,-1,-1,0
175.86,2.81,-37.93,415,-5093,6524,0,0,-1
175.86,2.81,-37.92,414,-5067,6536,-1,-1,0
175.87,2.82,-37.92,408,-5087,6537,0,-1,-1
175.87,2.83,-37.91,423,-5083,6538,-1,-1,-1
175.89,2.84,-37.90,412,-5071,6550,0,-1,-1
175.89,2.85,-37.91,412,-5082,6538,-1,-1,-1
175.90,2.86,-37.90,424,-5072,6549,0,-1,-1
175.91,2.88,-37.91,421,-5071,6543,-1,-1,-1
175.91,2.89,-37.92,440,-5080,6559,-1,-1,0
175.92,2.89,-37.94,425,-5104,6522,-1,-1,-1
175.93,2.90,-37.94,450,-5092,6540,-1,0,0
175.93,2.91,-37.95,420,-5095,6513,0,-1,-1
175.93,2.91,-37.94,427,-5072,6534,-1,0,0
175.93,2.91,-37.95,416,-5093,6535,0,-1,-1
175.94,2.91,-37.95,422,-5091,6531,-1,-1,0
175.95,2.93,-37.94,419,-5092,6540,0,-1,-1
175.95,2.94,-37.94,443,-5091,6542,-1,-1,-1
175.96,2.95,-37.93,445,-5093,6542,0,0,-1
175.96,2.95,-37.94,449,-5089,6531,-1,0,-1
175.97,2.95,-37.93,449,-5082,6547,0,0,-1
175.97,2.95,-37.93,445,-5083,6521,-1,0,-1
175.98,2.95,-37.92,442,-5069,6540,-1,0,0
175.97,2.94,-37.94,418,-5090,6537,-1,-1,-1
175.98,2.95,-37.94,434,-5085,6559,-1,0,0
175.97,2.95,-37.95,427,-5092,6527,-1,-1,-1
175.97,2.95,-37.96,448,-5092,6529,-1,0,0
175.98,2.95,-37.97,446,-5106,6517,0,0,0
175.97,2.94,-37.97,446,-5105,6541,-1,0,0
175.96,2.93,-37.97,442,-5103,6541,0,0,-1
175.96,2.93,-37.97,445,-5093,6519,-1,0,0
175.96,2.92,-37.97,437,-5081,6535,0,0,0
175.96,2.92,-37.97,444,-5100,6525,-1,0,0
175.96,2.90,-37.95,441,-5098,6554,0,0,0
175.95,2.89,-37.96,439,-5096,6532,0,0,0
175.94,2.87,-37.95,428,-5081,6544,-1,0,0
175.94,2.87,-37.96,438,-5087,6524,-1,0,0
175.94,2.85,-37.95,432,-5072,6557,-1,0,0
175.93,2.85,-37.96,423,-5091,6532,-1,0,0
175.93,2.84,-37.95,418,-5101,6551,-1,0,0
175.92,2.84,-37.95,425,-5112,6503,0,-1,0
175.92,2.83,-37.93,423,-5098,6546,0,0,0
175.91,2.82,-37.92,433,-5091,6523,0,0,-1
175.91,2.82,-37.90,438,-5067,6569,-1,0,0
175.90,2.80,-37.91,423,-5084,6536,0,0,0
175.89,2.77,-37.89,411,-5069,6568,-1,0,0
175.89,2.76,-37.90,398,-5079,6513,0,0,-1
175.88,2.75,-37.90,392,-5062,6542,-1,0,0
175.88,2.75,-37.91,385,-5100,6498,0,-1,-1
175.87,2.75,-37.90,407,-5089,6558,-1,-1,0
175.88,2.76,-37.90,416,-5107,6524,0,0,-1
175.87,2.75,-37.89,422,-5071,6557,-1,-1,0
175.87,2.75,-37.89,429,-5081,6522,1,0,-1
175.86,2.73,-37.88,420,-5066,6549,-1,-1,0
175.87,2.73,-37.87,408,-5089,6539,1,0,-1
175.85,2.72,-37.87,403,-5083,6534,-1,-1,0
175.85,2.72,-37.86,395,-5083,6550,0,0,-1
175.84,2.70,-37.86,393,-5076,6540,-1,-1,0
175.84,2.70,-37.85,391,-5077,6553,0,0,-1
175.84,2.70,-37.86,391,-5077,6527,-1,-1,0
175.84,2.70,-37.84,389,-5060,6560,-1,0,0
175.84,2.70,-37.86,385,-5099,6519,-1,-1,-1
175.84,2.69,-37.85,399,-5088,6556,-1,0,0
175.84,2.70,-37.86,397,-5104,6532,0,0,-1
175.83,2.69,-37.84,396,-5073,6550,-1,-1,0
175.83,2.70,-37.85,388,-5076,6526,0,-1,-1
175.83,2.70,-37.84,389,-5064,6554,-1,-1,0
175.84,2.72,-37.84,389,-5076,6544,0,-1,-1
175.85,2.74,-37.84,398,-5069,6543,0,-1,-1
175.86,2.74,-37.84,398,-5071,6548,-1,-1,-1
175.87,2.77,-37.84,424,-5055,6557,-1,-1,-1
175.88,2.78,-37.85,420,-5072,6556,-1,-1,-1
175.88,2.80,-37.86,432,-5084,6562,-1,-1,0
175.88,2.81,-37.86,418,-5102,6535,0,-1,-1
175.89,2.82,-37.86,430,-5085,6534,-1,-1,0
175.90,2.83,-37.86,412,-5094,6530,0,-1,-1
175.90,2.83,-37.85,431,-5067,6547,-1,-1,0
175.91,2.84,-37.84,426,-5077,6557,0,0,-1
175.91,2.84,-37.85,426,-5075,6554,-1,-1,0
175.92,2.85,-37.84,426,-5079,6558,0,0,-1
175.91,2.84,-37.85,426,-5084,6529,-1,-1,-1
175.93,2.85,-37.84,431,-5071,6536,0,0,-1
175.93,2.85,-37.84,418,-5082,6525,0,0,-1
175.94,2.85,-37.83,434,-5058,6547,-1,0,0
175.93,2.84,-37.84,418,-5072,6535,0,-1,-1
175.93,2.84,-37.84,432,-5044,6556,-1,0,0
175.93,2.85,-37.85,418,-5073,6536,-1,-1,-1
175.93,2.85,-37.87,423,-5076,6538,-1,-1,0
175.93,2.86,-37.87,412,-5085,6530,0,0,-1
175.93,2.86,-37.88,413,-5082,6525,-1,-1,0
175.95,2.86,-37.87,423,-5088,6532,0,0,-1
175.94,2.87,-37.87,433,-5096,6543,0,-1,-1
175.96,2.88,-37.86,433,-5085,6548,0,-1,-1
175.95,2.88,-37.86,419,-5092,6539,-1,-1,-1
175.96,2.88,-37.85,430,-5079,6539,0,0,-1
175.96,2.88,-37.85,426,-5091,6526,0,0,-1
175.97,2.88,-37.84,439,-5082,6549,0,0,0
175.97,2.87,-37.84,423,-5101,6543,0,0,-1
175.97,2.85,-37.83,446,-5066,6562,-1,1,0
175.97,2.84,-37.83,417,-5072,6550,0,0,-1
175.96,2.82,-37.83,421,-5046,6561,-1,-1,0
175.95,2.82,-37.85,405,-5062,6548,-1,-1,0
175.93,2.81,-37.87,414,-5056,6552,-2,-1,0
175.92,2.81,-37.89,400,-5076,6546,-1,0,0
175.92,2.80,-37.92,417,-5073,6535,-2,-1,0
175.91,2.81,-37.94,409,-5083,6521,-1,-1,0
175.90,2.81,-37.97,410,-5105,6507,-1,-1,0
175.91,2.81,-37.97,420,-5107,6520,-1,0,0
175.91,2.81,-37.98,425,-5111,6510,-1,0,-1
175.92,2.80,-37.97,428,-5097,6533,-1,0,0
175.91,2.80,-37.99,421,-5102,6516,-1,-1,0
175.91,2.79,-37.99,412,-5118,6526,0,0,0
175.91,2.79,-37.99,399,-5141,6512,0,0,-1
175.91,2.77,-37.96,397,-5127,6528,0,0,-1
175.92,2.77,-37.94,387,-5101,6529,0,0,-1
175.93,2.78,-37.91,402,-5067,6544,0,-1,-1
175.93,2.79,-37.90,412,-5047,6553,0,-1,-1
175.93,2.79,-37.90,438,-5062,6564,-1,0,0
175.94,2.79,-37.90,436,-5069,6561,-1,0,0
175.93,2.78,-37.90,440,-5087,6562,-1,0,0
175.93,2.76,-37.90,411,-5083,6552,0,0,-1
175.92,2.75,-37.92,408,-5083,6542,-1,-1,0
175.92,2.75,-37.92,394,-5087,6545,0,0,-1
175.91,2.74,-37.92,405,-5082,6539,-1,-1,0
175.92,2.75,-37.92,407,-5097,6537,0,0,-1
175.91,2.75,-37.92,419,-5110,6533,-1,-1,0
175.91,2.74,-37.92,408,-5111,6534,0,0,-1
175.91,2.74,-37.90,420,-5104,6537,0,0,0
175.91,2.73,-37.89,411,-5085,6522,0,0,-1
175.90,2.71,-37.88,400,-5063,6538,-1,0,0
175.90,2.71,-37.88,395,-5072,6526,0,0,-1
175.88,2.70,-37.87,394,-5083,6554,-1,-1,0
175.88,2.70,-37.87,396,-5095,6552,0,0,-1
175.88,2.69,-37.86,398,-5078,6558,-1,-1,0
175.88,2.70,-37.85,405,-5082,6536,0,-1,-1
175.88,2.70,-37.85,415,-5063,6551,-1,-1,0
175.88,2.70,-37.84,412,-5073,6531,0,0,-1
175.87,2.69,-37.84,414,-5066,6554,-1,0,0
175.87,2.68,-37.84,401,-5079,6544,0,0,-1
175.86,2.67,-37.84,390,-5069,6539,-1,-1,0
175.87,2.67,-37.84,378,-5082,6534,0,0,-1
175.85,2.66,-37.84,371,-5082,6534,-1,-1,0
175.86,2.67,-37.83,376,-5079,6564,0,0,-1
175.85,2.67,-37.82,379,-5078,6538,0,-1,0
175.86,2.68,-37.81,396,-5068,6568,0,0,0
175.86,2.69,-37.81,397,-5063,6540,0,-1,-1
175.86,2.69,-37.81,408,-5063,6562,-1,0,0
175.86,2.69,-37.82,399,-5066,6544,-1,-1,-1
175.87,2.70,-37.81,394,-5061,6552,-1,-1,-1
175.87,2.71,-37.82,394,-5068,6533,-1,-1,-1
175.88,2.72,-37.82,385,-5073,6541,0,-1,-1
175.89,2.74,-37.81,406,-5071,6537,0,-1,-1
175.90,2.77,-37.81,411,-5070,6538,0,-1,-1
175.91,2.78,-37.81,419,-5077,6538,-1,-1,-1
175.92,2.79,-37.81,422,-5079,6553,0,-1,-1
175.92,2.81,-37.82,419,-5076,6537,-1,-1,-1
175.93,2.82,-37.81,426,-5060,6536,-1,-1,0
175.93,2.82,-37.83,404,-5078,6523,0,-1,-1
175.94,2.84,-37.83,424,-5077,6541,-1,-1,0
175.94,2.85,-37.83,412,-5097,6547,0,-1,-1
175.94,2.85,-37.83,433,-5091,6548,-1,-1,0
175.95,2.86,-37.83,438,-5081,6551,0,0,-1
175.95,2.86,-37.83,437,-5075,6542,-1,-1,-1
175.96,2.86,-37.82,443,-5069,6561,0,0,-1
175.97,2.86,-37.83,424,-5080,6547,-1,0,-1
175.97,2.86,-37.83,432,-5050,6566,-1,0,0
175.96,2.85,-37.84,414,-5078,6545,-1,-1,-1
175.97,2.86,-37.84,431,-5069,6551,-1,0,0
175.97,2.86,-37.85,413,-5087,6544,0,0,-1
175.96,2.85,-37.86,425,-5065,6549,-1,0,0
175.97,2.85,-37.86,418,-5080,6541,0,0,-1
175.96,2.85,-37.87,412,-5075,6538,-1,-1,0
175.97,2.85,-37.87,408,-5078,6539,0,0,-1
175.97,2.85,-37.89,408,-5091,6517,-1,-1,-1
175.97,2.85,-37.88,427,-5085,6532,-1,-1,0
175.98,2.86,-37.88,423,-5100,6522,0,-1,-1
175.98,2.87,-37.87,432,-5084,6553,-1,0,0
175.98,2.87,-37.87,427,-5083,6547,0,0,-1
175.98,2.86,-37.87,437,-5066,6558,-1,0,0
175.99,2.87,-37.87,424,-5074,6544,0,0,-1
175.99,2.86,-37.87,424,-5072,6543,-1,-1,0
175.99,2.87,-37.88,415,-5075,6538,0,-1,-1
175.98,2.86,-37.89,419,-5091,6527,-1,-1,0
175.99,2.88,-37.90,432,-5084,6537,0,-1,-1
176.00,2.88,-37.90,430,-5098,6525,-1,-1,-1
176.00,2.88,-37.90,446,-5085,6535,-1,0,0
176.00,2.88,-37.90,431,-5094,6535,0,-1,-1
176.00,2.89,-37.90,436,-5079,6542,-1,0,0
176.00,2.88,-37.90,421,-5100,6533,0,-1,-1
176.00,2.89,-37.90,440,-5090,6548,-1,0,0
176.00,2.89,-37.90,433,-5108,6544,0,0,-1
176.00,2.88,-37.90,442,-5091,6555,-1,0,0
176.00,2.88,-37.89,437,-5083,6552,0,0,-1
176.00,2.87,-37.88,435,-5074,6549,-1,0,0
176.00,2.86,-37.89,428,-5072,6548,-1,0,-1
176.00,2.86,-37.89,411,-5079,6538,-1,0,0
176.00,2.85,-37.91,424,-5080,6525,-1,0,0
176.00,2.85,-37.92,421,-5089,6511,-1,0,-1
176.01,2.86,-37.92,424,-5094,6521,-1,-1,0
176.01,2.86,-37.92,422,-5116,6529,0,-1,-1
176.00,2.86,-37.92,435,-5104,6534,0,0,0
176.01,2.86,-37.91,428,-5084,6533,0,0,-1
176.00,2.85,-37.90,430,-5075,6532,0,0,0
176.00,2.84,-37.89,419,-5079,6540,0,0,-1
176.00,2.84,-37.89,423,-5085,6528,-1,0,0
176.00,2.83,-37.88,412,-5089,6541,0,0,0
175.99,2.82,-37.88,414,-5074,6528,-1,0,0
175.99,2.82,-37.87,408,-5066,6545,0,0,0
175.99,2.81,-37.87,420,-5081,6529,-1,0,0
175.99,2.80,-37.86,418,-5079,6556,-1,0,0
175.98,2.80,-37.89,417,-5104,6536,-1,-1,0
175.98,2.79,-37.87,413,-5083,6564,0,0,0
175.98,2.79,-37.88,425,-5099,6527,0,0,0
175.97,2.77,-37.86,419,-5081,6556,-1,0,0
175.96,2.77,-37.86,410,-5097,6519,0,-1,0
175.96,2.76,-37.84,415,-5071,6574,-1,0,0
175.95,2.75,-37.85,409,-5082,6535,0,0,-1
175.95,2.74,-37.83,412,-5055,6551,-1,0,0
175.95,2.74,-37.84,402,-5086,6527,0,0,-1
175.94,2.73,-37.82,401,-5072,6573,-1,0,0
175.94,2.72,-37.84,403,-5102,6529,0,0,-1
175.93,2.71,-37.82,394,-5068,6557,-1,-1,0
175.93,2.71,-37.83,387,-5088,6526,0,0,-1
175.92,2.70,-37.82,394,-5066,6554,-1,-1,0
175.92,2.70,-37.83,390,-5086,6530,0,0,-1
175.91,2.69,-37.82,404,-5080,6549,-1,-1,0
175.91,2.69,-37.82,403,-5089,6531,1,0,-1
175.91,2.69,-37.81,407,-5067,6557,-1,-1,0
175.91,2.69,-37.80,403,-5073,6553,1,0,-1
175.89,2.67,-37.79,402,-5060,6553,-1,-1,0
175.89,2.66,-37.78,384,-5072,6543,0,0,-1
175.89,2.65,-37.78,393,-5058,6546,-1,-1,0
175.89,2.65,-37.78,394,-5054,6538,0,0,-1
175.88,2.65,-37.79,397,-5062,6534,-1,-1,0
175.88,2.64,-37.78,386,-5071,6539,0,0,-1
175.87,2.65,-37.79,407,-5081,6532,-1,-1,0
175.88,2.64,-37.78,406,-5077,6549,0,0,0
175.87,2.64,-37.79,406,-5076,6532,-1,-1,0
175.87,2.64,-37.77,397,-5068,6552,0,0,0
175.86,2.64,-37.79,399,-5084,6536,0,0,0
175.86,2.63,-37.77,388,-5073,6573,0,0,0
175.85,2.62,-37.78,385,-5086,6530,0,-1,0
175.85,2.61,-37.76,367,-5068,6556,-1,0,0
175.84,2.61,-37.77,368,-5074,6537,0,-1,-1
175.85,2.62,-37.76,377,-5061,6563,-1,-1,0
175.85,2.63,-37.77,376,-5081,6541,0,-1,-1
175.86,2.64,-37.76,403,-5074,6560,-1,-1,0
175.86,2.64,-37.76,415,-5071,6546,0,0,-1
175.85,2.64,-37.75,395,-5062,6556,-1,-1,0
175.86,2.64,-37.76,383,-5071,6537,0,0,-1
175.85,2.63,-37.76,379,-5067,6545,-1,-1,0
175.85,2.63,-37.75,378,-5070,6547,0,-1,-1
175.85,2.64,-37.74,380,-5064,6543,0,-1,-1
175.86,2.66,-37.75,382,-5060,6544,0,-1,-1
175.87,2.67,-37.74,393,-5058,6552,-1,-1,-1
175.88,2.69,-37.74,390,-5061,6546,-1,-1,-1
175.88,2.70,-37.73,406,-5048,6554,-1,-1,-1
175.90,2.71,-37.74,408,-5062,6549,-1,-1,-1
175.91,2.73,-37.74,418,-5055,6566,-1,-1,-1
175.92,2.74,-37.75,397,-5070,6560,0,-1,-1
175.93,2.75,-37.75,406,-5065,6565,-1,-1,0
175.94,2.77,-37.76,385,-5082,6554,0,-1,-1
175.94,2.78,-37.76,414,-5068,6557,-1,-1,0
175.95,2.80,-37.76,409,-5078,6544,0,-1,-1
175.95,2.80,-37.77,422,-5073,6548,-1,-1,0
175.97,2.82,-37.76,416,-5068,6551,0,-1,-1
175.97,2.83,-37.77,431,-5066,6550,-1,-1,0
175.98,2.83,-37.75,420,-5062,6557,0,0,-1
175.98,2.83,-37.75,416,-5066,6552,-1,-1,-1
175.99,2.83,-37.75,419,-5058,6558,-1,0,0
175.99,2.83,-37.76,412,-5079,6541,-1,-1,-1
175.99,2.83,-37.75,425,-5057,6569,-1,0,0
175.99,2.84,-37.77,408,-5077,6555,0,-1,-1
175.99,2.84,-37.76,419,-5054,6560,-1,-1,0
176.00,2.86,-37.77,415,-5076,6554,0,-1,-1
176.00,2.86,-37.77,428,-5064,6559,-1,-1,0
176.01,2.86,-37.77,431,-5069,6554,0,0,-1
176.01,2.86,-37.77,434,-5051,6544,-1,-1,0
176.01,2.86,-37.77,422,-5066,6544,0,0,-1
176.01,2.86,-37.79,416,-5084,6548,-1,-1,-1
176.02,2.87,-37.78,413,-5069,6554,-1,-1,-1
176.02,2.87,-37.79,404,-5081,6544,-1,-1,-1
176.02,2.88,-37.78,429,-5056,6555,-1,-1,0
176.03,2.89,-37.79,422,-5078,6540,0,-1,-1
176.03,2.89,-37.79,448,-5058,6548,-1,0,0
176.04,2.90,-37.79,435,-5079,6552,0,0,-1
176.04,2.90,-37.79,448,-5065,6549,-1,0,0
176.04,2.90,-37.79,427,-5080,6543,0,0,-1
176.04,2.89,-37.79,420,-5072,6549,-1,-1,0
176.04,2.89,-37.78,418,-5061,6559,0,0,-1
176.04,2.89,-37.79,421,-5062,6554,-1,-1,-1
176.04,2.90,-37.78,430,-5058,6558,0,0,-1
176.05,2.91,-37.79,444,-5076,6550,-1,-1,-1
176.05,2.91,-37.78,449,-5062,6558,-1,0,0
176.05,2.90,-37.80,442,-5080,6544,-1,-1,-1
176.06,2.91,-37.79,445,-5059,6554,-1,0,0
176.06,2.91,-37.81,428,-5071,6538,0,-1,-1
176.05,2.91,-37.80,439,-5054,6555,-1,0,0
176.06,2.91,-37.81,422,-5074,6538,0,-1,-1
176.06,2.91,-37.81,432,-5068,6551,-1,0,0
176.06,2.91,-37.82,434,-5092,6541,0,0,-1
176.06,2.91,-37.81,440,-5075,6543,-1,0,0
176.07,2.91,-37.81,426,-5075,6539,0,0,-1
176.07,2.91,-37.81,437,-5069,6546,-1,0,0
176.08,2.92,-37.82,444,-5077,6546,-1,0,-1
176.08,2.91,-37.82,446,-5082,6534,-1,0,0
176.07,2.91,-37.82,434,-5090,6536,0,0,-1
176.07,2.91,-37.82,434,-5078,6528,-1,0,0
176.07,2.90,-37.82,426,-5079,6551,0,0,0
176.07,2.91,-37.82,443,-5084,6536,-1,0,0
176.07,2.90,-37.81,431,-5073,6547,0,0,0
176.07,2.90,-37.81,437,-5071,6539,0,0,0
176.07,2.90,-37.81,432,-5068,6550,0,0,0
176.06,2.90,-37.81,440,-5079,6533,0,0,0
176.07,2.89,-37.80,431,-5066,6535,0,0,0
176.06,2.89,-37.80,445,-5059,6542,-1,0,0
176.06,2.88,-37.80,434,-5061,6556,-1,0,0
176.05,2.87,-37.80,422,-5062,6543,-1,0,0
176.05,2.86,-37.80,417,-5070,6538,0,0,0
176.05,2.86,-37.80,424,-5067,6544,-1,-1,0
176.05,2.86,-37.80,427,-5070,6545,0,0,-1
176.04,2.85,-37.80,431,-5080,6546,-1,0,0
176.04,2.86,-37.80,424,-5082,6543,0,0,0
176.04,2.85,-37.81,419,-5075,6528,-1,-1,0
176.03,2.85,-37.79,409,-5078,6530,0,-1,-1
176.03,2.85,-37.79,426,-5077,6536,0,-1,0
176.04,2.86,-37.78,439,-5073,6542,0,0,-1
176.04,2.86,-37.77,440,-5065,6550,-1,0,0
176.03,2.84,-37.76,425,-5062,6553,0,0,-1
176.02,2.83,-37.76,421,-5056,6556,-1,0,0
176.03,2.83,-37.76,411,-5071,6557,0,0,-1
176.02,2.83,-37.77,402,-5067,6551,-1,-1,0
176.02,2.83,-37.77,411,-5076,6556,0,0,-1
176.02,2.83,-37.77,426,-5074,6549,-1,-1,0
176.02,2.83,-37.76,417,-5060,6555,0,0,0
176.01,2.82,-37.77,422,-5060,6532,-1,0,0
176.02,2.82,-37.77,407,-5058,6542,0,0,0
176.01,2.81,-37.77,407,-5068,6530,0,-1,0
176.01,2.81,-37.76,406,-5067,6559,0,-1,-1
176.01,2.82,-37.75,417,-5074,6552,0,-1,-1
176.02,2.82,-37.75,415,-5056,6562,0,-1,-1
176.02,2.83,-37.75,424,-5051,6550,0,0,-1
176.03,2.83,-37.74,419,-5037,6560,-1,-1,-1
176.03,2.83,-37.75,414,-5050,6557,-1,-1,-1
176.04,2.84,-37.76,407,-5065,6556,-1,-1,-1
176.05,2.85,-37.76,416,-5073,6555,-1,-1,-1
176.06,2.87,-37.76,425,-5066,6559,-1,-1,-1
176.05,2.87,-37.76,423,-5072,6547,-1,-1,-1
176.06,2.88,-37.76,427,-5071,6541,0,-1,-1
176.06,2.88,-37.77,421,-5080,6538,0,-1,-1
176.07,2.89,-37.76,427,-5069,6551,-1,0,-1
176.08,2.90,-37.77,423,-5077,6538,0,-1,-1
176.09,2.90,-37.77,432,-5070,6552,-1,0,0
176.09,2.91,-37.77,425,-5086,6547,0,-1,-1
176.09,2.92,-37.76,444,-5076,6567,-1,-1,0
176.10,2.93,-37.76,437,-5069,6562,0,-1,-1
176.09,2.92,-37.77,447,-5068,6549,-1,0,0
176.09,2.92,-37.77,437,-5068,6541,0,0,-1
176.09,2.91,-37.78,422,-5072,6527,-1,0,0
176.09,2.91,-37.78,417,-5082,6530,0,-1,-1
176.09,2.92,-37.79,410,-5089,6534,0,-1,-1
176.10,2.94,-37.78,440,-5070,6547,-1,-1,0
176.10,2.94,-37.78,439,-5079,6541,0,0,-1
176.10,2.94,-37.78,452,-5055,6542,-1,0,0
176.11,2.94,-37.79,443,-5067,6537,0,0,-1
176.10,2.93,-37.80,454,-5061,6541,-1,0,0
176.09,2.92,-37.80,435,-5071,6527,0,0,-1
176.09,2.91,-37.80,424,-5071,6534,-1,0,0
176.09,2.91,-37.80,415,-5070,6546,0,0,-1
176.08,2.90,-37.81,419,-5076,6553,-1,-1,0
176.09,2.90,-37.80,435,-5052,6551,-1,0,0
176.09,2.90,-37.82,424,-5077,6535,-1,0,-1
176.09,2.89,-37.82,439,-5076,6542,-1,0,0
176.09,2.89,-37.84,428,-5086,6533,0,0,-1
176.08,2.88,-37.84,431,-5072,6542,-1,0,0
176.08,2.88,-37.85,417,-5091,6518,0,-1,-1
176.07,2.87,-37.86,425,-5092,6531,-1,0,0
176.08,2.87,-37.86,433,-5088,6536,0,0,-1
176.07,2.87,-37.87,424,-5091,6536,-1,0,0
176.07,2.86,-37.86,430,-5074,6541,0,0,0
176.07,2.86,-37.85,424,-5085,6540,0,0,-1
176.07,2.86,-37.84,424,-5067,6558,0,0,0
176.07,2.86,-37.84,417,-5075,6550,0,0,-1
176.08,2.86,-37.84,433,-5065,6554,-1,0,0
176.07,2.85,-37.83,428,-5061,6548,0,0,-1
176.07,2.85,-37.83,425,-5068,6548,-1,-1,0
176.07,2.85,-37.83,417,-5076,6549,0,0,0
176.07,2.85,-37.83,424,-5080,6541,-1,0,-1
176.07,2.85,-37.83,419,-5075,6549,-1,0,0
176.08,2.85,-37.84,424,-5086,6529,-1,-1,-1
176.08,2.85,-37.84,425,-5086,6547,-1,0,0
176.08,2.85,-37.84,433,-5093,6517,0,0,-1
176.08,2.85,-37.83,421,-5085,6551,0,0,0
176.07,2.85,-37.82,424,-5091,6534,0,0,-1
176.07,2.85,-37.81,433,-5071,6566,-1,0,0
176.07,2.84,-37.81,421,-5074,6536,0,0,-1
176.06,2.83,-37.80,405,-5055,6553,-1,0,0
176.06,2.83,-37.80,405,-5077,6527,0,0,-1
176.06,2.83,-37.80,414,-5073,6557,-1,-1,0
176.06,2.83,-37.80,424,-5081,6539,0,0,-1
176.06,2.83,-37.80,422,-5074,6544,-1,-1,0
176.05,2.83,-37.80,416,-5089,6514,0,0,-1
176.04,2.82,-37.80,422,-5079,6536,-1,-1,0
176.05,2.82,-37.79,419,-5083,6542,0,0,-1
176.04,2.81,-37.77,416,-5067,6551,-1,-1,0
176.05,2.82,-37.77,424,-5074,6543,0,0,-1
176.04,2.80,-37.77,424,-5068,6547,-1,-1,0
176.04,2.80,-37.75,411,-5066,6546,0,0,-1
176.03,2.79,-37.76,414,-5053,6534,-1,-1,0
176.04,2.79,-37.75,412,-5064,6539,0,0,-1
176.02,2.79,-37.76,418,-5066,6531,-1,-1,0
176.03,2.79,-37.74,407,-5060,6555,0,0,-1
176.02,2.79,-37.75,419,-5077,6540,-1,-1,0
176.03,2.80,-37.74,423,-5079,6560,0,0,0
176.02,2.79,-37.74,422,-5084,6535,0,-1,-1
176.02,2.78,-37.72,411,-5046,6573,-1,0,0
176.01,2.78,-37.74,414,-5066,6528,0,-1,0
176.01,2.77,-37.73,412,-5063,6559,-1,0,0
176.01,2.78,-37.74,410,-5085,6532,0,0,-1
176.00,2.77,-37.72,406,-5072,6580,-1,-1,0
175.99,2.77,-37.73,411,-5086,6553,0,0,-1
175.99,2.77,-37.71,406,-5054,6573,-1,-1,0
175.99,2.77,-37.71,404,-5073,6543,0,0,-1
175.98,2.77,-37.70,415,-5059,6566,-1,0,0
175.98,2.77,-37.71,411,-5076,6547,0,0,-1
175.98,2.76,-37.70,416,-5055,6567,-1,0,0
175.98,2.76,-37.70,400,-5077,6540,0,0,-1
175.98,2.75,-37.70,391,-5056,6548,-1,-1,0
175.98,2.75,-37.70,390,-5056,6540,0,0,-1
175.96,2.74,-37.70,393,-5052,6538,-1,-1,0
175.97,2.75,-37.70,389,-5075,6562,0,0,-1
175.97,2.76,-37.70,402,-5067,6562,-1,-1,0
175.97,2.76,-37.69,398,-5060,6565,0,-1,-1
175.97,2.77,-37.70,416,-5059,6545,-1,-1,-1
175.98,2.77,-37.69,396,-5059,6545,0,-1,-1
175.98,2.79,-37.69,417,-5056,6546,-1,-1,-1
175.98,2.79,-37.69,405,-5065,6553,0,-1,-1
175.98,2.79,-37.69,427,-5058,6577,-1,0,0
175.98,2.79,-37.69,411,-5067,6577,0,-1,-1
175.99,2.80,-37.70,439,-5069,6572,-1,0,0
175.99,2.79,-37.70,410,-5067,6563,0,0,-1
175.97,2.77,-37.72,411,-5064,6544,-1,0,0
175.98,2.78,-37.72,402,-5067,6558,0,0,-1
175.98,2.77,-37.74,406,-5070,6539,-1,0,0
175.98,2.77,-37.73,407,-5062,6565,-1,0,-1
175.97,2.76,-37.76,395,-5083,6535,-1,-1,0
175.97,2.77,-37.75,421,-5063,6547,-1,0,0
175.97,2.77,-37.77,405,-5101,6528,0,-1,-1
175.96,2.77,-37.76,439,-5076,6558,-1,0,0
175.97,2.76,-37.77,409,-5078,6555,0,0,-1
175.96,2.75,-37.77,418,-5051,6568,-1,0,0
175.96,2.75,-37.78,388,-5076,6551,-1,0,-1
175.95,2.74,-37.79,397,-5082,6556,-1,0,0
175.96,2.75,-37.80,381,-5086,6537,0,-1,-1
175.95,2.75,-37.80,413,-5086,6537,-1,-1,0
175.96,2.76,-37.80,406,-5053,6543,0,0,-1
175.96,2.76,-37.80,404,-5076,6544,-1,-1,-1
175.96,2.77,-37.80,416,-5062,6546,-1,0,0
175.96,2.77,-37.82,404,-5098,6533,0,-1,-1
175.97,2.78,-37.81,426,-5083,6551,-1,0,0
175.97,2.78,-37.81,390,-5079,6559,0,-1,-1
175.97,2.78,-37.81,393,-5071,6545,-1,-1,0
175.99,2.80,-37.81,384,-5082,6529,0,-1,-1
175.99,2.81,-37.81,411,-5073,6541,-1,-1,-1
176.00,2.82,-37.80,415,-5069,6552,0,-1,-1
176.01,2.84,-37.80,424,-5077,6552,-1,-1,-1
176.01,2.85,-37.79,435,-5077,6562,0,0,0
176.01,2.84,-37.80,423,-5079,6549,-1,-1,-1
176.01,2.84,-37.80,430,-5061,6553,-1,0,0
176.01,2.84,-37.81,408,-5080,6543,0,-1,-1
176.01,2.84,-37.81,416,-5079,6543,-1,0,0
176.01,2.84,-37.82,403,-5088,6535,0,-1,-1
176.01,2.84,-37.82,418,-5086,6546,-1,0,0
176.02,2.84,-37.81,421,-5069,6544,0,0,-1
176.02,2.84,-37.82,415,-5073,6540,-1,-1,0
176.02,2.85,-37.81,417,-5063,6544,0,-1,-1
176.02,2.85,-37.82,413,-5077,6532,-1,-1,-1
176.02,2.85,-37.81,422,-5070,6537,-1,0,0
176.02,2.85,-37.82,406,-5084,6530,0,-1,-1
176.02,2.85,-37.82,426,-5073,6538,-1,0,0
176.03,2.85,-37.82,415,-5079,6529,0,-1,-1
176.03,2.85,-37.82,433,-5078,6539,-1,0,0
176.04,2.86,-37.82,429,-5082,6541,0,0,-1
176.04,2.85,-37.81,426,-5067,6544,-1,0,0
176.04,2.85,-37.81,412,-5077,6551,0,0,-1
176.04,2.85,-37.82,418,-5076,6531,-1,0,0
176.04,2.85,-37.82,413,-5086,6540,-1,-1,0
176.04,2.85,-37.82,404,-5093,6538,0,0,-1
176.04,2.85,-37.82,411,-5085,6543,-1,-1,0
176.04,2.85,-37.82,404,-5072,6534,0,0,-1
176.04,2.85,-37.82,420,-5075,6524,-1,-1,0
176.04,2.85,-37.81,423,-5081,6532,0,0,-1
176.04,2.86,-37.81,446,-5079,6528,0,0,0
176.05,2.85,-37.79,438,-5066,6540,0,0,0
176.04,2.84,-37.79,431,-5082,6528,0,0,0
176.04,2.83,-37.78,412,-5071,6547,0,0,0
176.03,2.82,-37.78,414,-5082,6534,0,0,0
176.03,2.82,-37.78,410,-5066,6560,-1,0,0
176.03,2.82,-37.78,417,-5078,6529,0,-1,-1
176.03,2.82,-37.78,420,-5065,6552,-1,-1,0
176.02,2.82,-37.78,429,-5083,6543,0,0,-1
176.03,2.81,-37.77,417,-5063,6561,-1,0,0
176.02,2.81,-37.78,417,-5077,6537,0,0,-1
176.02,2.80,-37.77,422,-5056,6559,-1,0,0
176.02,2.80,-37.77,419,-5072,6535,0,0,-1
176.02,2.80,-37.77,418,-5069,6541,-1,-1,0
176.02,2.80,-37.77,410,-5098,6544,0,0,-1
176.01,2.79,-37.75,410,-5076,6561,-1,-1,0
176.01,2.79,-37.74,409,-5070,6549,0,0,-1
176.00,2.78,-37.74,414,-5054,6551,-1,-1,0
176.00,2.79,-37.73,414,-5063,6547,0,0,-1
176.00,2.78,-37.73,430,-5060,6557,-1,-1,0
176.00,2.78,-37.71,425,-5067,6561,0,0,-1
175.99,2.77,-37.71,426,-5070,6551,-1,-1,0
175.99,2.77,-37.71,402,-5074,6559,0,0,-1
175.98,2.76,-37.71,427,-5065,6551,-1,-1,0
175.98,2.76,-37.70,409,-5054,6575,0,0,0
175.97,2.76,-37.71,405,-5068,6534,0,-1,0
175.97,2.75,-37.69,409,-5064,6571,0,0,0
175.96,2.75,-37.70,413,-5075,6529,0,-1,0
175.96,2.74,-37.67,417,-5047,6573,-1,0,0
175.95,2.74,-37.68,403,-5064,6530,0,0,-1
175.95,2.73,-37.67,404,-5044,6580,-1,0,0
175.95,2.73,-37.67,410,-5070,6551,0,0,-1
175.94,2.71,-37.66,402,-5048,6577,-1,-1,0
175.93,2.71,-37.65,407,-5066,6538,1,0,-1
175.92,2.69,-37.65,412,-5058,6583,-1,-1,0
175.92,2.69,-37.63,406,-5064,6560,1,0,-1
175.90,2.67,-37.63,404,-5046,6566,-2,-1,1
175.89,2.66,-37.63,384,-5069,6558,1,1,-1
175.88,2.65,-37.64,383,-5058,6541,-1,-2,0
175.89,2.66,-37.62,388,-5063,6570,1,1,-1
175.87,2.65,-37.62,396,-5068,6551,-1,-1,0
175.87,2.64,-37.61,387,-5063,6560,1,1,-1
175.86,2.64,-37.62,379,-5054,6536,-1,-1,0
175.86,2.63,-37.60,384,-5047,6577,0,0,0
175.85,2.63,-37.62,369,-5055,6542,-1,-1,0
175.85,2.63,-37.61,375,-5044,6579,-1,-1,0
175.84,2.64,-37.62,369,-5057,6529,0,-1,-1
175.85,2.65,-37.62,374,-5047,6566,-1,-1,0
175.85,2.66,-37.63,397,-5065,6545,0,0,-1
175.86,2.67,-37.61,390,-5040,6582,-1,-1,-1
175.87,2.69,-37.63,420,-5061,6552,-1,0,-1
175.88,2.69,-37.62,406,-5047,6566,0,-1,-1
175.88,2.70,-37.62,402,-5050,6558,-1,-1,-1
175.90,2.70,-37.62,409,-5052,6558,-1,0,-1
175.90,2.71,-37.63,392,-5066,6551,-1,-1,-1
175.91,2.72,-37.63,408,-5058,6565,-1,-1,-1
175.91,2.73,-37.63,394,-5072,6556,0,-1,-1
175.92,2.74,-37.62,406,-5049,6561,-1,-1,0
175.93,2.75,-37.63,393,-5062,6562,0,-1,-1
175.93,2.76,-37.63,410,-5052,6565,-1,-1,0
175.94,2.77,-37.64,399,-5067,6555,0,-1,-1
175.93,2.78,-37.65,409,-5062,6556,-1,-1,0
175.94,2.79,-37.65,401,-5069,6536,0,-1,-1
175.95,2.80,-37.66,424,-5071,6542,-1,-1,-1
175.96,2.81,-37.65,427,-5061,6559,0,0,-1
175.96,2.81,-37.66,422,-5076,6552,-1,-1,-1
175.96,2.81,-37.65,418,-5060,6564,-1,0,0
175.97,2.82,-37.67,413,-5073,6541,0,-1,-1
175.97,2.81,-37.66,424,-5042,6561,-1,0,0
175.97,2.82,-37.68,416,-5070,6544,0,-1,-1
175.98,2.82,-37.67,427,-5058,6569,-1,0,0
175.98,2.82,-37.68,417,-5066,6548,0,0,-1
175.98,2.82,-37.68,423,-5060,6562,-1,-1,0
175.98,2.83,-37.69,416,-5074,6550,0,-1,-1
175.98,2.83,-37.69,427,-5063,6556,-1,0,0
175.99,2.84,-37.70,417,-5073,6545,-1,-1,-1
175.99,2.84,-37.70,422,-5056,6551,-1,0,0
176.00,2.84,-37.70,414,-5066,6550,-1,-1,-1
176.00,2.84,-37.71,426,-5071,6535,-1,-1,-1
176.01,2.85,-37.71,419,-5080,6549,0,-1,-1
176.01,2.86,-37.71,434,-5071,6556,-1,-1,-1
176.01,2.86,-37.71,418,-5063,6551,0,-1,-1
176.01,2.86,-37.70,421,-5053,6559,-1,-1,0
176.02,2.87,-37.71,416,-5067,6562,0,-1,-1
176.02,2.87,-37.71,416,-5066,6559,-1,-1,-1
176.02,2.88,-37.71,419,-5072,6554,0,-1,-1
176.02,2.88,-37.70,426,-5057,6567,-1,-1,0
176.03,2.88,-37.70,418,-5057,6553,0,-1,-1
176.03,2.88,-37.70,425,-5062,6556,-1,-1,0
176.03,2.88,-37.70,418,-5068,6558,0,-1,-1
176.04,2.89,-37.71,430,-5068,6558,-1,-1,0
176.04,2.90,-37.71,426,-5070,6550,0,-1,-1
176.04,2.90,-37.72,435,-5064,6549,-1,-1,0
176.05,2.91,-37.72,433,-5057,6544,0,-1,-1
176.05,2.91,-37.72,439,-5058,6542,-1,-1,0
176.05,2.91,-37.73,430,-5071,6542,0,-1,-1
176.05,2.91,-37.73,428,-5078,6550,-1,-1,0
176.05,2.91,-37.73,414,-5073,6546,0,-1,-1
176.05,2.92,-37.73,428,-5075,6550,-1,-1,0
176.06,2.92,-37.73,429,-5060,6549,0,-1,-1
176.06,2.93,-37.73,432,-5061,6541,-1,0,-1
176.07,2.93,-37.73,439,-5058,6538,0,0,-1
176.07,2.93,-37.73,438,-5063,6549,-1,0,-1
176.07,2.93,-37.72,432,-5054,6555,-1,0,-1
176.07,2.93,-37.73,423,-5063,6551,-1,0,0
176.07,2.93,-37.73,420,-5056,6540,-1,-1,-1
176.07,2.92,-37.73,423,-5068,6541,-1,-1,0
176.08,2.93,-37.74,430,-5064,6545,-1,-1,-1
176.08,2.93,-37.74,425,-5075,6543,-1,0,-1
176.08,2.93,-37.74,431,-5081,6553,-1,0,0
176.08,2.93,-37.75,415,-5079,6538,0,0,-1
176.08,2.93,-37.74,422,-5073,6539,-1,-1,0
176.08,2.94,-37.74,431,-5075,6542,0,-1,-1
176.08,2.94,-37.73,456,-5071,6554,0,0,0
176.08,2.94,-37.73,457,-5068,6552,0,0,-1
176.08,2.93,-37.72,447,-5058,6551,-1,0,0
176.08,2.93,-37.72,433,-5054,6548,0,0,0
176.07,2.92,-37.72,422,-5058,6536,-1,0,0
176.08,2.92,-37.72,412,-5062,6546,-1,0,-1
176.07,2.91,-37.73,417,-5068,6550,-1,-1,0
176.07,2.91,-37.74,411,-5083,6550,0,-1,-1
176.06,2.92,-37.74,424,-5088,6548,0,-1,0
176.07,2.92,-37.73,427,-5088,6548,0,-1,-1
176.07,2.93,-37.73,449,-5073,6547,0,0,0
176.07,2.92,-37.72,445,-5055,6551,0,0,-1
176.07,2.91,-37.72,435,-5051,6550,-1,0,0
176.06,2.90,-37.71,426,-5066,6548,0,0,-1
176.06,2.90,-37.71,426,-5064,6556,-1,-1,0
176.06,2.90,-37.71,422,-5067,6570,0,-1,-1
176.06,2.90,-37.71,430,-5059,6574,-1,-1,0
176.06,2.90,-37.70,431,-5061,6566,0,0,-1
176.06,2.90,-37.70,434,-5052,6547,-1,-1,0
176.06,2.90,-37.70,436,-5046,6538,0,0,-1
176.06,2.90,-37.70,428,-5048,6549,-1,0,0
176.05,2.89,-37.70,419,-5053,6549,0,0,-1
176.05,2.89,-37.70,425,-5066,6557,-1,-1,0
176.05,2.89,-37.69,418,-5071,6557,0,0,0
176.05,2.89,-37.69,419,-5060,6557,-1,-1,0
176.05,2.89,-37.69,418,-5056,6550,0,0,-1
176.04,2.89,-37.69,427,-5055,6550,-1,-1,0
176.04,2.88,-37.69,421,-5058,6550,0,0,-1
176.04,2.88,-37.69,420,-5052,6555,-1,-1,0
176.04,2.88,-37.68,428,-5054,6559,0,0,-1
176.04,2.89,-37.68,437,-5060,6561,0,-1,0
176.04,2.89,-37.67,425,-5061,6563,0,0,0
176.03,2.88,-37.67,429,-5059,6563,-1,0,0
176.03,2.87,-37.66,415,-5058,6561,0,0,-1
176.02,2.87,-37.66,412,-5049,6557,-1,-1,0
176.02,2.87,-37.67,414,-5056,6553,-1,0,-1
176.03,2.87,-37.67,420,-5071,6558,-1,-1,0
176.03,2.87,-37.68,420,-5075,6555,0,-1,-1
176.03,2.87,-37.67,418,-5069,6547,0,-1,0
176.03,2.88,-37.66,425,-5066,6547,0,-1,-1
176.03,2.89,-37.66,441,-5059,6557,0,-1,0
176.03,2.89,-37.65,445,-5056,6571,0,0,-1
176.04,2.89,-37.64,445,-5050,6565,0,0,0
176.03,2.88,-37.64,423,-5049,6560,-1,0,0
176.03,2.87,-37.65,412,-5041,6558,-1,0,0
176.02,2.87,-37.65,401,-5040,6550,-1,-1,-1
176.03,2.87,-37.66,411,-5050,6542,-1,-1,0
176.03,2.88,-37.67,400,-5078,6547,-1,-1,-1
176.03,2.89,-37.67,421,-5070,6552,-1,-1,-1
176.04,2.90,-37.67,427,-5071,6546,0,-1,-1
176.04,2.91,-37.66,436,-5061,6541,0,-1,-1
176.04,2.91,-37.66,429,-5059,6538,0,0,-1
176.05,2.91,-37.66,428,-5060,6546,0,0,-1
176.06,2.91,-37.66,422,-5062,6552,0,0,-1
176.05,2.91,-37.65,423,-5053,6561,0,-1,-1
176.06,2.91,-37.65,422,-5052,6559,-1,-1,-1
176.06,2.92,-37.66,426,-5047,6564,-1,-1,0
176.06,2.92,-37.67,421,-5058,6550,-1,-1,-1
176.06,2.93,-37.68,428,-5059,6544,-1,-1,0
176.07,2.94,-37.69,431,-5068,6543,0,-1,-1
176.07,2.94,-37.69,447,-5069,6554,-1,-1,0
176.08,2.95,-37.68,431,-5066,6558,0,0,-1
176.08,2.95,-37.69,432,-5076,6553,-1,0,0
176.08,2.95,-37.68,433,-5062,6554,0,0,-1
176.08,2.95,-37.69,432,-5064,6545,-1,-1,-1
176.08,2.95,-37.68,435,-5052,6548,-1,0,0
176.08,2.95,-37.69,427,-5073,6542,0,-1,-1
176.09,2.96,-37.68,439,-5062,6567,0,-1,0
176.08,2.97,-37.68,436,-5063,6558,0,-1,-1
176.08,2.97,-37.68,444,-5051,6563,-1,-1,0
176.09,2.97,-37.68,443,-5058,6564,0,0,-1
176.09,2.96,-37.68,451,-5048,6557,-1,0,0
176.09,2.96,-37.69,432,-5058,6542,0,0,-1
176.08,2.95,-37.70,427,-5061,6551,-1,-1,0
176.07,2.95,-37.71,421,-5071,6553,0,-1,0
176.08,2.96,-37.71,435,-5075,6553,-1,-1,0
176.08,2.96,-37.71,438,-5079,6550,0,-1,-1
176.08,2.96,-37.71,453,-5074,6547,-1,0,-1
176.08,2.96,-37.71,445,-5070,6550,0,0,-1
176.08,2.96,-37.70,444,-5063,6558,-1,0,0
176.08,2.95,-37.70,434,-5062,6560,0,0,-1
176.08,2.94,-37.70,423,-5059,6554,-1,0,0
176.08,2.94,-37.70,415,-5059,6561,-1,-1,0
176.07,2.94,-37.70,416,-5071,6554,-1,-1,-1
176.07,2.95,-37.71,436,-5075,6552,0,-1,-1
176.08,2.96,-37.71,447,-5075,6558,0,-1,0
176.08,2.96,-37.70,448,-5062,6554,0,0,-1
176.08,2.95,-37.70,445,-5049,6546,-1,0,0
176.08,2.94,-37.70,430,-5052,6540,-1,0,0
176.07,2.93,-37.70,425,-5058,6547,-1,0,0
176.07,2.93,-37.70,418,-5070,6554,0,-1,-1
176.08,2.94,-37.70,429,-5072,6553,-1,-1,0
176.08,2.95,-37.70,423,-5073,6552,0,-1,-1
176.07,2.95,-37.70,438,-5073,6560,0,-1,-1
176.08,2.95,-37.69,449,-5061,6566,0,0,-1
176.08,2.95,-37.68,448,-5053,6566,0,0,0
176.08,2.95,-37.68,439,-5043,6564,-1,0,0
176.07,2.93,-37.68,422,-5052,6553,-1,0,0
176.07,2.93,-37.69,424,-5058,6551,-1,-1,0
176.08,2.94,-37.70,418,-5072,6555,-1,-1,-1
176.07,2.94,-37.70,426,-5073,6557,-1,-1,0
176.07,2.95,-37.70,434,-5075,6551,0,-1,-1
176.07,2.95,-37.70,450,-5067,6552,0,0,0
176.07,2.95,-37.69,444,-5064,6545,0,0,-1
176.08,2.95,-37.69,445,-5069,6541,0,0,0
176.08,2.95,-37.69,436,-5063,6549,0,0,-1
176.08,2.95,-37.68,430,-5062,6554,0,0,-1
176.08,2.95,-37.68,432,-5062,6559,-1,-1,0
176.08,2.95,-37.68,423,-5057,6553,-1,-1,-1
176.08,2.95,-37.68,426,-5053,6561,-1,-1,0
176.08,2.95,-37.69,431,-5057,6567,-1,-1,-1
176.08,2.95,-37.69,437,-5057,6557,-1,0,-1
176.09,2.96,-37.70,431,-5071,6550,0,-1,-1
176.09,2.96,-37.70,437,-5066,6551,-1,-1,0
176.09,2.96,-37.70,436,-5071,6557,0,-1,-1
176.09,2.96,-37.70,433,-5071,6549,-1,-1,-1
176.10,2.96,-37.70,434,-5070,6546,0,-1,-1
176.10,2.97,-37.70,443,-5064,6552,-1,0,0
176.10,2.97,-37.69,447,-5057,6544,-1,0,-1
176.10,2.97,-37.70,431,-5059,6547,-1,0,-1
176.10,2.97,-37.70,428,-5060,6547,-1,-1,0
176.11,2.98,-37.71,428,-5072,6539,-1,-1,-1
176.11,2.98,-37.71,437,-5063,6535,-1,-1,-1
176.11,2.99,-37.71,439,-5067,6543,-1,-1,-1
176.12,2.99,-37.71,447,-5060,6553,-1,-1,0
176.12,2.99,-37.71,445,-5074,6547,0,0,-1
176.12,2.99,-37.71,444,-5059,6546,-1,0,0
176.12,2.99,-37.72,438,-5070,6545,0,0,-1
176.12,2.99,-37.72,444,-5069,6545,-1,0,0
176.12,2.99,-37.72,437,-5065,6550,0,-1,-1
176.12,2.99,-37.72,441,-5064,6545,-1,-1,0
176.12,3.00,-37.72,439,-5068,6554,0,-1,-1
176.12,3.01,-37.72,454,-5069,6559,-1,-1,-1
176.13,3.01,-37.72,452,-5050,6569,0,-1,-1
176.11,3.02,-37.72,452,-5003,6574,-1,-1,0
176.10,3.03,-37.74,461,-4976,6573,-2,-2,0
176.09,3.04,-37.80,437,-5030,6571,-3,-1,0
176.10,3.04,-37.87,392,-5155,6545,-2,-1,-1
176.12,3.06,-37.89,389,-5205,6521,0,-1,-1
176.14,3.08,-37.88,423,-5178,6485,1,-1,-2
176.17,3.11,-37.84,458,-5141,6476,1,0,-2
176.19,3.12,-37.79,485,-5104,6494,1,0,-1
176.20,3.14,-37.73,487,-5041,6539,1,-1,-1
176.19,3.15,-37.70,470,-4999,6589,0,-2,0
176.16,3.17,-37.69,477,-4988,6620,-1,-2,0
176.14,3.19,-37.73,477,-4986,6634,-3,-2,1
176.13,3.21,-37.78,455,-5011,6604,-3,-2,0
176.12,3.24,-37.85,453,-5041,6579,-3,-3,0
176.09,3.27,-37.92,449,-5025,6551,-3,-3,1
176.08,3.31,-38.01,458,-5053,6538,-4,-3,0
176.08,3.36,-38.09,459,-5076,6540,-3,-3,0
176.06,3.42,-38.19,467,-5049,6569,-4,-5,1
176.05,3.51,-38.32,516,-5142,6509,-4,-4,0
176.05,3.56,-38.42,511,-5166,6473,-3,-4,0
176.05,3.62,-38.49,531,-5160,6472,-3,-3,0
176.05,3.68,-38.58,527,-5161,6439,-3,-3,0
176.05,3.73,-38.65,528,-5161,6464,-3,-4,0
176.05,3.79,-38.72,536,-5146,6488,-3,-4,0
176.05,3.87,-38.82,563,-5154,6468,-4,-4,0
176.05,3.93,-38.92,550,-5169,6460,-4,-4,-1
176.06,4.01,-39.02,558,-5202,6434,-4,-4,0
176.09,4.08,-39.12,569,-5234,6399,-4,-3,-2
176.12,4.14,-39.20,571,-5210,6430,-4,-4,-1
176.15,4.22,-39.29,580,-5244,6389,-3,-3,-2
176.19,4.30,-39.38,623,-5260,6385,-3,-3,-1
176.23,4.37,-39.45,647,-5266,6375,-2,-3,-1
176.24,4.43,-39.51,688,-5237,6403,-4,-3,0
176.26,4.49,-39.59,706,-5303,6323,-2,-1,-1
176.28,4.51,-39.64,685,-5301,6320,-1,-1,-1
176.27,4.53,-39.66,689,-5274,6365,-1,-2,0
176.27,4.55,-39.70,658,-5284,6365,-2,-2,-1
176.28,4.57,-39.75,666,-5326,6351,-2,-1,0
176.29,4.59,-39.77,644,-5319,6321,-1,-2,-1
176.29,4.61,-39.79,668,-5310,6337,-1,-2,0
176.30,4.65,-39.80,667,-5322,6317,0,-1,-1
176.30,4.66,-39.80,694,-5321,6370,-1,-1,0
176.31,4.68,-39.80,683,-5325,6362,0,-1,-2
176.32,4.68,-39.79,683,-5286,6380,-1,-1,-1
176.33,4.71,-39.79,690,-5272,6385,-1,-1,-1
176.34,4.73,-39.82,710,-5254,6356,-2,-1,0
176.35,4.74,-39.83,704,-5279,6368,-1,-1,-1
176.35,4.75,-39.87,692,-5279,6336,-2,-1,0
176.36,4.77,-39.89,705,-5296,6343,-1,-1,0
176.34,4.77,-39.93,690,-5309,6314,-1,-1,-1
176.34,4.77,-39.95,704,-5313,6345,-1,-1,0
176.33,4.78,-39.96,694,-5312,6328,-1,-1,-1
176.33,4.78,-39.98,693,-5321,6332,-1,-1,0
176.34,4.80,-39.99,691,-5328,6330,0,-1,-1
176.33,4.80,-40.00,707,-5311,6317,-1,-1,0
176.32,4.81,-40.00,707,-5317,6325,0,-1,0
176.31,4.82,-40.00,725,-5306,6329,-1,-1,0
176.31,4.81,-39.99,720,-5312,6348,0,-1,0
176.30,4.81,-40.00,705,-5329,6325,-1,0,0
176.30,4.80,-40.00,691,-5342,6330,0,0,0
176.29,4.80,-40.00,682,-5323,6305,0,-1,-1
176.29,4.80,-39.99,690,-5314,6308,0,-1,-1
176.30,4.82,-39.97,693,-5329,6314,0,-1,-1
176.30,4.83,-39.95,696,-5312,6349,0,-1,-1
176.31,4.84,-39.94,696,-5313,6338,0,-1,-1
176.32,4.87,-39.93,709,-5302,6334,0,-1,-1
176.32,4.89,-39.92,739,-5292,6327,0,-1,-1
176.33,4.89,-39.90,737,-5290,6345,0,0,-1
176.33,4.89,-39.91,723,-5292,6344,-1,-1,0
176.34,4.89,-39.91,718,-5287,6350,-1,-1,-1
176.34,4.90,-39.92,715,-5301,6329,-1,-1,-1
176.34,4.90,-39.92,715,-5291,6350,-1,-1,-1
176.35,4.91,-39.93,722,-5296,6339,-1,-1,-1
176.35,4.92,-39.94,724,-5295,6340,-1,-1,0
176.35,4.92,-39.94,720,-5305,6328,-1,0,-1
176.35,4.92,-39.95,722,-5311,6343,-1,-1,0
176.34,4.91,-39.96,724,-5309,6336,-1,-1,-1
176.34,4.91,-39.96,731,-5299,6337,-1,0,0
176.34,4.91,-39.97,718,-5303,6327,-1,0,0
176.34,4.90,-39.97,712,-5301,6325,-1,0,0
176.35,4.91,-39.98,709,-5311,6329,-1,-1,-1
176.36,4.93,-39.98,719,-5325,6335,-1,-1,-1
176.36,4.95,-39.98,719,-5334,6342,0,-1,-1
176.36,4.96,-39.98,740,-5318,6344,-1,-1,0
176.37,4.97,-39.97,740,-5305,6339,0,0,-1
176.37,4.96,-39.97,735,-5289,6327,-1,0,0
176.38,4.97,-39.98,717,-5283,6322,-1,-1,-1
176.37,4.97,-39.99,715,-5296,6307,-1,-1,0
176.38,4.98,-40.00,710,-5313,6334,-1,-1,-1
176.37,5.00,-40.01,721,-5329,6331,-1,-1,-1
176.38,5.02,-40.00,743,-5324,6339,0,-1,-1
176.38,5.03,-40.01,749,-5327,6327,0,-1,-1
176.38,5.03,-40.00,752,-5311,6326,-1,-1,0
176.38,5.03,-40.01,737,-5310,6313,0,0,-1
176.38,5.03,-40.00,740,-5308,6330,-1,-1,0
176.39,5.04,-40.01,728,-5321,6326,0,-1,-1
176.38,5.05,-40.01,744,-5316,6329,-1,-1,0
176.39,5.05,-40.01,732,-5317,6326,0,-1,-1
176.38,5.06,-40.02,748,-5307,6322,-1,-1,0
176.39,5.07,-40.02,738,-5305,6320,-1,-1,-1
176.38,5.07,-40.03,738,-5304,6311,-1,-1,0
176.39,5.08,-40.04,731,-5313,6310,-1,-1,-1
176.39,5.09,-40.05,747,-5329,6316,-1,-1,0
176.39,5.10,-40.06,740,-5336,6322,0,-1,-1
176.39,5.10,-40.06,752,-5327,6324,-1,-1,0
176.39,5.10,-40.05,742,-5317,6321,0,-1,-1
176.39,5.11,-40.06,742,-5319,6308,-1,-1,0
176.39,5.12,-40.05,734,-5315,6326,0,-1,-1
176.39,5.13,-40.06,749,-5318,6330,-1,-1,0
176.39,5.13,-40.06,752,-5320,6325,0,-1,-1
176.39,5.14,-40.06,758,-5322,6311,0,-1,-1
176.39,5.14,-40.05,762,-5305,6331,-1,0,0
176.39,5.13,-40.06,758,-5309,6325,-1,0,0
176.39,5.13,-40.06,759,-5308,6328,-1,0,0
176.39,5.13,-40.07,754,-5307,6314,-1,-1,0
176.38,5.13,-40.07,742,-5319,6321,-1,-1,0
176.38,5.13,-40.08,740,-5333,6322,0,-1,0
176.38,5.14,-40.08,753,-5336,6318,0,-1,0
176.38,5.14,-40.07,760,-5326,6317,0,0,0
176.38,5.13,-40.08,764,-5317,6306,-1,0,0
176.38,5.12,-40.07,754,-5317,6317,0,0,0
176.37,5.11,-40.08,737,-5319,6314,-1,0,0
176.37,5.11,-40.08,747,-5320,6313,-1,-1,0
176.37,5.11,-40.08,752,-5327,6317,0,-1,0
176.37,5.11,-40.07,759,-5319,6318,0,-1,0
176.37,5.12,-40.07,754,-5326,6319,0,-1,-1
176.37,5.12,-40.07,766,-5326,6316,0,0,0
176.37,5.12,-40.06,754,-5327,6318,0,0,-1
176.36,5.12,-40.07,759,-5326,6322,-1,0,0
176.36,5.11,-40.06,746,-5318,6317,0,0,-1
176.36,5.10,-40.05,747,-5304,6323,-1,0,0
176.35,5.10,-40.05,740,-5305,6321,0,0,-1
176.35,5.10,-40.06,740,-5313,6311,-1,-1,0
176.35,5.09,-40.06,740,-5320,6314,0,-1,0
176.34,5.09,-40.05,744,-5320,6312,0,-1,0
176.34,5.09,-40.05,747,-5314,6322,0,0,-1
176.34,5.09,-40.04,757,-5317,6322,0,0,0
176.34,5.09,-40.03,745,-5316,6332,0,0,-1
176.33,5.07,-40.03,746,-5310,6331,-1,0,0
176.33,5.07,-40.02,734,-5297,6332,-1,0,-1
176.32,5.06,-40.04,733,-5297,6330,-1,0,0
176.32,5.06,-40.04,730,-5310,6332,0,-1,-1
176.32,5.07,-40.05,740,-5326,6323,-1,-1,0
176.32,5.07,-40.05,751,-5327,6333,0,0,-1
176.32,5.07,-40.05,749,-5332,6321,-1,0,0
176.32,5.06,-40.05,742,-5323,6311,0,0,-1
179.77,152.19,-99.36,-258,-258,-258,-258,-258,-258
176.31,5.06,-40.04,734,-5317,6319,0,-1,-1
176.31,5.05,-40.05,734,-5324,6311,0,-1,0
176.31,5.05,-40.03,737,-5324,6335,0,-1,-1
176.30,5.06,-40.02,745,-5320,6337,0,-1,0
176.31,5.06,-40.01,742,-5310,6337,0,0,0
176.30,5.05,-40.01,737,-5299,6326,0,-1,0
176.30,5.06,-40.00,745,-5290,6336,-1,-1,0
176.30,5.05,-40.01,730,-5310,6315,0,-1,-1
176.30,5.05,-40.01,733,-5313,6320,-1,0,0
176.29,5.05,-40.02,720,-5319,6331,0,-1,0
176.29,5.05,-40.02,722,-5319,6336,-1,-1,0
176.28,5.06,-40.02,725,-5322,6331,0,-1,-1
176.29,5.06,-40.03,733,-5321,6324,-1,-1,-1
176.29,5.07,-40.03,736,-5324,6318,0,-1,-1
176.29,5.08,-40.03,743,-5316,6312,0,-1,-1
176.30,5.09,-40.03,746,-5322,6310,0,-1,-1
176.30,5.09,-40.02,753,-5311,6323,-1,-1,0
176.30,5.10,-40.02,743,-5310,6316,0,-1,-1
176.30,5.10,-40.02,748,-5303,6317,-1,-1,0
176.30,5.10,-40.02,733,-5305,6323,0,-1,-1
176.30,5.10,-40.03,738,-5310,6325,-1,-1,0
176.30,5.11,-40.03,738,-5305,6323,0,-1,-1
176.30,5.12,-40.05,742,-5310,6315,-1,-1,-1
176.31,5.13,-40.05,764,-5312,6328,-1,-1,0
176.31,5.13,-40.06,749,-5335,6309,0,-1,-1
176.31,5.13,-40.06,761,-5325,6316,-1,-1,0
176.31,5.14,-40.07,748,-5335,6324,0,-1,-1
176.32,5.15,-40.07,776,-5320,6315,-1,0,0
176.32,5.14,-40.06,765,-5310,6322,0,0,-1
176.32,5.13,-40.07,757,-5311,6318,-1,0,0
176.32,5.13,-40.07,757,-5314,6326,-1,0,0
176.32,5.12,-40.08,742,-5315,6324,-1,0,-1
176.31,5.11,-40.08,736,-5318,6335,-1,-1,0
176.31,5.12,-40.09,724,-5325,6325,-1,-1,-1
176.31,5.12,-40.09,742,-5320,6328,-1,0,0
176.31,5.12,-40.09,737,-5325,6323,0,-1,-1
176.32,5.12,-40.09,751,-5318,6314,-1,-1,0
176.32,5.13,-40.09,754,-5317,6323,0,0,-1
176.31,5.12,-40.09,751,-5325,6313,-1,0,0
176.32,5.11,-40.08,751,-5311,6323,0,0,0
176.31,5.11,-40.09,747,-5314,6315,-1,0,-1
176.32,5.11,-40.09,770,-5303,6334,-1,0,0
176.31,5.11,-40.10,746,-5317,6313,-1,-1,-1
176.31,5.12,-40.10,744,-5318,6317,-1,-1,0
176.32,5.12,-40.11,734,-5333,6316,0,-1,-1
176.32,5.14,-40.11,746,-5325,6307,-1,-1,0
176.33,5.15,-40.10,739,-5326,6311,0,-1,-1
176.33,5.16,-40.10,752,-5315,6311,-1,-1,0
176.34,5.17,-40.09,754,-5318,6313,0,-1,-1
176.34,5.18,-40.09,773,-5323,6314,0,-1,0
176.35,5.19,-40.08,771,-5326,6331,0,0,-1
176.35,5.19,-40.08,759,-5325,6326,0,-1,-1
176.35,5.19,-40.07,751,-5321,6335,0,-1,-1
176.34,5.19,-40.06,743,-5316,6333,-1,-1,-1
176.34,5.20,-40.06,757,-5309,6324,-1,-1,0
176.35,5.20,-40.07,754,-5312,6326,-1,-1,-1
176.35,5.21,-40.07,762,-5316,6329,-1,-1,0
176.35,5.21,-40.08,764,-5324,6313,0,-1,-1
176.35,5.21,-40.09,761,-5327,6306,-1,-1,0
176.35,5.22,-40.10,753,-5332,6311,0,-1,0
176.35,5.22,-40.10,763,-5330,6315,-1,-1,0
176.35,5.22,-40.10,769,-5319,6305,-1,0,0
176.35,5.22,-40.10,770,-5315,6308,0,0,0
176.35,5.22,-40.09,757,-5323,6314,0,0,0
176.34,5.22,-40.09,754,-5312,6319,0,0,0
176.34,5.21,-40.08,754,-5311,6325,0,0,0
176.34,5.21,-40.08,754,-5305,6312,0,-1,-1
176.34,5.21,-40.08,764,-5318,6320,0,0,0
176.34,5.21,-40.08,758,-5319,6312,0,-1,-1
176.33,5.21,-40.07,766,-5312,6324,-1,0,0
176.33,5.21,-40.07,761,-5310,6323,0,-1,-1
176.33,5.21,-40.07,769,-5310,6315,-1,0,0
176.32,5.20,-40.07,750,-5304,6305,0,-1,-1
176.31,5.19,-40.08,761,-5311,6316,-1,0,0
176.31,5.19,-40.08,738,-5313,6319,0,-1,-1
176.30,5.18,-40.09,758,-5321,6313,-1,0,0
176.30,5.18,-40.09,747,-5328,6320,0,-1,-1
176.30,5.17,-40.10,757,-5331,6316,-1,0,0
176.29,5.16,-40.09,758,-5318,6333,0,0,0
176.29,5.15,-40.11,759,-5321,6303,-1,0,0
176.29,5.15,-40.10,752,-5317,6318,0,-1,0
176.28,5.15,-40.11,766,-5324,6300,-1,0,0
176.28,5.14,-40.11,761,-5319,6312,-1,0,0
176.27,5.13,-40.11,760,-5334,6300,-1,0,0
176.26,5.12,-40.11,761,-5322,6315,-1,0,0
176.25,5.11,-40.11,747,-5334,6307,0,0,0
176.25,5.10,-40.10,752,-5312,6312,-1,0,0
176.24,5.10,-40.11,738,-5325,6299,0,-1,-1
176.24,5.09,-40.11,761,-5313,6329,-1,0,0
176.23,5.08,-40.12,722,-5325,6309,0,0,-1
176.22,5.08,-40.12,733,-5320,6312,-1,-1,0
176.22,5.08,-40.13,724,-5323,6313,0,-1,-1
176.21,5.07,-40.13,750,-5317,6314,-1,0,0
176.20,5.06,-40.13,722,-5334,6304,0,-1,-1
176.20,5.06,-40.13,747,-5330,6309,-1,0,0
176.20,5.06,-40.12,743,-5342,6303,0,0,-1
176.20,5.05,-40.11,752,-5326,6309,-1,0,0
176.19,5.04,-40.10,729,-5319,6329,0,0,-1
176.19,5.04,-40.11,742,-5323,6310,-1,0,0
176.18,5.03,-40.09,730,-5315,6336,0,0,-1
176.18,5.03,-40.10,735,-5318,6307,-1,0,0
176.18,5.04,-40.08,728,-5312,6338,-1,-1,0
176.17,5.03,-40.10,727,-5321,6318,-1,-1,0
176.17,5.04,-40.09,744,-5308,6324,-1,-1,0
176.18,5.04,-40.10,727,-5321,6296,0,-1,-1
176.18,5.05,-40.10,742,-5319,6317,-1,-1,0
176.18,5.05,-40.10,731,-5320,6320,0,-1,-1
176.18,5.06,-40.10,737,-5326,6321,-1,-1,0
176.18,5.06,-40.10,730,-5331,6315,0,-1,-1
176.18,5.07,-40.09,732,-5315,6316,0,-1,-1
176.19,5.07,-40.08,723,-5309,6310,0,-1,-1
176.19,5.09,-40.08,726,-5300,6311,0,-1,-1
176.20,5.11,-40.08,742,-5309,6307,-1,-1,-1
176.21,5.13,-40.08,756,-5317,6320,-1,-1,-1
176.21,5.14,-40.08,753,-5328,6312,0,-1,-1
176.22,5.15,-40.08,765,-5326,6322,-1,-1,0
176.21,5.15,-40.07,750,-5320,6329,0,-1,-1
176.21,5.16,-40.07,771,-5312,6330,-1,-1,0
176.22,5.17,-40.06,747,-5326,6332,0,-1,-1
176.22,5.17,-40.06,767,-5323,6329,-1,0,0
176.22,5.17,-40.06,762,-5325,6335,0,0,-1
176.21,5.16,-40.06,769,-5310,6330,-1,0,0
176.22,5.16,-40.06,765,-5300,6341,-1,0,0
176.22,5.15,-40.08,756,-5313,6310,-1,0,-1
176.22,5.14,-40.09,760,-5310,6317,-1,0,0
176.21,5.14,-40.12,741,-5329,6311,-1,-1,0
176.20,5.14,-40.14,761,-5314,6324,-2,0,0
176.20,5.14,-40.16,718,-5336,6314,-1,-1,-1
176.19,5.13,-40.17,735,-5348,6317,-2,-1,0
176.20,5.14,-40.18,732,-5337,6300,0,-1,-1
176.19,5.15,-40.19,749,-5333,6311,-1,-1,0
176.20,5.15,-40.20,765,-5333,6321,-1,-1,-1
176.19,5.15,-40.22,756,-5332,6290,-1,-1,0
176.20,5.16,-40.22,752,-5324,6299,-1,-1,0
176.20,5.16,-40.24,743,-5341,6297,-1,-1,-1
176.19,5.16,-40.24,764,-5323,6319,-2,0,0
176.19,5.16,-40.26,744,-5350,6288,0,0,-1
176.19,5.15,-40.27,753,-5352,6292,-1,-1,0
176.20,5.17,-40.27,747,-5353,6286,0,-1,-1
176.21,5.18,-40.26,764,-5354,6291,-1,0,0
176.22,5.19,-40.26,752,-5343,6292,0,-1,-1
176.22,5.19,-40.26,769,-5336,6285,-1,0,0
176.22,5.20,-40.25,759,-5322,6285,0,-1,-1
176.22,5.20,-40.26,755,-5324,6297,-1,-1,0
176.22,5.20,-40.26,747,-5332,6307,-1,-1,-1
176.22,5.20,-40.27,758,-5343,6308,-1,-1,-1
176.23,5.21,-40.27,764,-5334,6307,-1,0,-1
176.23,5.21,-40.28,756,-5348,6285,-1,-1,-1
176.24,5.22,-40.28,783,-5329,6306,-1,-1,0
176.24,5.23,-40.30,770,-5351,6283,-1,-1,-1
176.24,5.22,-40.31,765,-5347,6288,-1,0,0
176.24,5.22,-40.31,745,-5350,6291,0,-1,-1
176.24,5.22,-40.32,753,-5358,6292,-1,-1,0
176.24,5.23,-40.32,758,-5355,6313,0,-1,-1
176.25,5.24,-40.32,773,-5352,6302,-1,0,0
176.25,5.24,-40.32,767,-5350,6298,0,0,0
176.24,5.23,-40.32,776,-5348,6298,-1,0,0
176.24,5.23,-40.32,786,-5342,6291,0,0,0
176.24,5.22,-40.33,763,-5342,6292,0,0,0
176.23,5.21,-40.32,763,-5337,6297,-1,0,0
176.23,5.20,-40.33,750,-5339,6302,-1,0,0
176.22,5.19,-40.33,745,-5345,6295,-1,-1,0
176.22,5.19,-40.34,741,-5350,6298,-1,-1,0
176.21,5.21,-40.34,764,-5356,6289,-1,-1,0
176.22,5.21,-40.34,778,-5347,6289,-1,0,0
176.21,5.20,-40.35,752,-5369,6263,0,-1,0
176.21,5.20,-40.34,772,-5347,6308,-1,0,0
176.21,5.19,-40.33,758,-5346,6287,0,0,-1
176.20,5.17,-40.33,741,-5348,6285,-1,-1,0
176.19,5.17,-40.34,722,-5354,6277,0,-1,-1
176.19,5.18,-40.35,761,-5353,6290,-1,-1,0
176.20,5.19,-40.34,766,-5354,6308,0,-1,-1
176.20,5.19,-40.36,769,-5362,6282,-1,-1,0
176.20,5.20,-40.34,764,-5359,6283,0,-1,0
176.19,5.20,-40.34,774,-5351,6283,0,0,0
176.20,5.20,-40.33,777,-5338,6302,-1,0,0
176.19,5.18,-40.34,751,-5353,6279,0,0,0
176.19,5.18,-40.32,752,-5342,6301,0,-1,0
176.18,5.18,-40.33,741,-5350,6280,0,-1,-1
176.18,5.19,-40.31,761,-5347,6299,-1,-1,0
176.18,5.19,-40.31,750,-5353,6286,0,-1,-1
176.18,5.19,-40.31,772,-5350,6301,-1,0,0
176.18,5.19,-40.30,768,-5351,6290,0,0,-1
176.18,5.19,-40.29,784,-5333,6302,-1,0,0
176.17,5.18,-40.28,754,-5326,6288,0,0,-1
176.16,5.18,-40.28,769,-5338,6308,-1,-1,0
176.16,5.18,-40.28,756,-5333,6309,0,-1,-1
176.15,5.17,-40.28,758,-5339,6308,-1,0,0
176.15,5.16,-40.28,730,-5337,6305,0,-1,-1
176.14,5.17,-40.29,754,-5340,6297,-1,-1,0
176.14,5.17,-40.29,758,-5332,6306,0,-1,-1
176.14,5.17,-40.30,764,-5348,6293,-1,0,0
176.14,5.17,-40.29,762,-5354,6315,0,-1,0
176.12,5.16,-40.31,762,-5365,6280,-1,0,0
176.12,5.16,-40.28,765,-5352,6305,0,0,0
176.12,5.15,-40.29,738,-5355,6288,0,0,0
176.11,5.14,-40.28,738,-5345,6307,-1,0,0
176.10,5.14,-40.28,724,-5351,6292,0,-1,0
176.10,5.14,-40.28,751,-5342,6303,-1,0,0
176.09,5.13,-40.27,732,-5330,6300,0,0,-1
176.09,5.13,-40.27,745,-5322,6296,-1,0,0
176.09,5.13,-40.28,729,-5329,6298,0,-1,-1
176.09,5.13,-40.28,745,-5330,6285,-1,-1,0
176.09,5.14,-40.28,746,-5338,6288,0,-1,-1
176.08,5.14,-40.28,751,-5347,6293,0,0,0
176.09,5.15,-40.28,747,-5352,6303,0,-1,-1
176.09,5.15,-40.28,736,-5360,6289,0,0,-1
176.09,5.15,-40.28,732,-5348,6284,0,-1,-1
176.10,5.16,-40.26,747,-5332,6297,-1,-1,-1
176.10,5.16,-40.27,743,-5327,6297,-1,-1,-1
176.10,5.16,-40.27,755,-5332,6296,-1,-1,0
176.11,5.17,-40.28,742,-5344,6299,0,-1,-1
176.11,5.18,-40.27,766,-5338,6294,-1,-1,0
176.11,5.19,-40.27,767,-5335,6312,0,-1,-1
176.11,5.19,-40.27,780,-5324,6305,-1,0,0
176.12,5.18,-40.27,759,-5333,6313,0,0,-1
176.11,5.17,-40.28,746,-5339,6291,-1,-1,0
176.11,5.18,-40.27,760,-5335,6313,0,-1,0
176.11,5.18,-40.29,752,-5348,6316,-1,-1,-1
176.11,5.18,-40.29,782,-5339,6312,-1,0,0
176.11,5.18,-40.30,749,-5341,6289,0,-1,-1
176.11,5.17,-40.30,755,-5333,6307,-1,0,0
176.11,5.17,-40.32,748,-5342,6297,0,-1,-1
176.11,5.18,-40.32,769,-5331,6287,-1,-1,0
176.11,5.18,-40.33,749,-5351,6303,0,0,-1
176.11,5.17,-40.33,766,-5358,6294,-1,-1,0
176.11,5.17,-40.32,771,-5350,6307,0,0,-1
176.10,5.16,-40.33,751,-5352,6293,-1,0,-1
176.11,5.16,-40.32,756,-5335,6314,0,0,0
176.10,5.15,-40.34,734,-5354,6287,-1,-1,-1
176.10,5.15,-40.33,737,-5347,6307,-1,-1,0
176.10,5.16,-40.34,730,-5351,6279,0,-1,-1
176.11,5.17,-40.33,755,-5349,6288,-1,-1,0
176.12,5.18,-40.34,755,-5349,6286,0,-1,-1
176.12,5.19,-40.34,772,-5346,6287,-1,0,0
176.12,5.19,-40.34,762,-5353,6312,0,0,-1
176.13,5.19,-40.34,757,-5358,6291,-1,0,-1
176.13,5.19,-40.34,750,-5354,6284,0,-1,-1
176.13,5.20,-40.34,744,-5355,6289,0,-1,-1
176.14,5.21,-40.33,752,-5346,6301,0,-1,-1
176.14,5.22,-40.33,762,-5355,6305,0,-1,-1
176.15,5.23,-40.32,779,-5343,6303,-1,-1,-1
176.16,5.24,-40.32,774,-5343,6301,0,-1,-1
176.16,5.25,-40.31,775,-5333,6311,-1,0,0
176.17,5.26,-40.30,765,-5334,6305,0,-1,-1
176.18,5.26,-40.30,766,-5344,6312,-1,0,0
176.18,5.26,-40.30,755,-5346,6316,0,-1,-1
176.18,5.26,-40.31,753,-5330,6306,-1,-1,0
176.19,5.27,-40.31,764,-5345,6285,0,-1,-1
176.19,5.27,-40.32,772,-5348,6278,-1,-1,0
176.19,5.28,-40.32,776,-5340,6289,0,-1,0
176.18,5.28,-40.32,765,-5345,6295,0,-1,0
176.18,5.28,-40.31,770,-5346,6294,0,0,0
176.18,5.27,-40.31,768,-5343,6298,0,0,0
176.18,5.27,-40.31,767,-5336,6302,-1,0,0
176.17,5.27,-40.31,764,-5345,6308,-1,-1,0
176.17,5.26,-40.32,775,-5349,6309,-1,0,0
176.17,5.26,-40.31,777,-5349,6318,-1,0,0
176.16,5.25,-40.32,772,-5359,6295,0,0,0
176.16,5.25,-40.31,765,-5351,6310,0,0,0
176.16,5.25,-40.31,764,-5352,6301,0,0,-1
176.17,5.25,-40.30,767,-5337,6300,-1,0,0
176.16,5.24,-40.30,753,-5350,6286,0,-1,0
176.16,5.25,-40.30,777,-5343,6289,-1,-1,0
176.16,5.25,-40.29,764,-5345,6285,0,0,-1
176.16,5.24,-40.28,771,-5327,6303,-1,0,0
176.15,5.24,-40.28,750,-5339,6305,0,-1,-1
176.14,5.23,-40.28,762,-5337,6299,-1,0,0
176.14,5.22,-40.28,744,-5335,6301,0,0,-1
176.14,5.22,-40.28,756,-5333,6297,-1,0,0
176.14,5.22,-40.28,748,-5334,6313,0,-1,-1
176.14,5.22,-40.28,769,-5354,6304,-1,0,0
176.14,5.22,-40.28,763,-5354,6312,0,0,-1
176.13,5.21,-40.28,765,-5351,6300,-1,0,0
176.14,5.22,-40.26,765,-5340,6307,0,-1,-1
176.13,5.21,-40.26,774,-5341,6297,0,0,0
176.13,5.20,-40.24,767,-5333,6318,0,0,0
176.12,5.19,-40.25,760,-5343,6299,0,0,0
176.13,5.19,-40.24,762,-5337,6316,0,0,0
176.12,5.18,-40.24,752,-5347,6303,0,0,0
176.12,5.18,-40.23,761,-5325,6314,-1,0,0
176.11,5.18,-40.24,765,-5334,6294,0,0,0
176.11,5.18,-40.23,761,-5329,6309,-1,0,0
176.11,5.17,-40.24,744,-5343,6288,0,0,-1
176.11,5.17,-40.23,752,-5334,6310,-1,0,0
176.10,5.17,-40.24,743,-5345,6288,0,-1,-1
176.10,5.17,-40.23,767,-5349,6303,-1,0,0
176.10,5.16,-40.23,760,-5347,6310,0,0,-1
176.09,5.15,-40.22,760,-5336,6309,-1,0,0
176.09,5.15,-40.22,746,-5330,6312,0,0,-1
176.09,5.15,-40.21,754,-5321,6307,-1,0,0
176.09,5.15,-40.21,742,-5322,6310,0,-1,-1
176.08,5.14,-40.21,752,-5339,6315,-1,0,0
176.09,5.13,-40.21,747,-5331,6306,0,0,-1
176.09,5.13,-40.21,760,-5338,6294,-1,0,0
176.09,5.14,-40.20,753,-5338,6301,0,-1,-1
176.08,5.13,-40.20,761,-5342,6305,0,0,0
176.08,5.13,-40.18,750,-5330,6312,0,-1,-1
176.08,5.13,-40.18,756,-5336,6299,0,0,0
176.08,5.12,-40.16,757,-5325,6315,0,0,0
176.08,5.12,-40.17,730,-5317,6298,-1,0,-1
176.08,5.12,-40.17,731,-5320,6304,-1,-1,0
176.08,5.14,-40.18,727,-5337,6302,0,-1,-1
176.09,5.15,-40.18,734,-5339,6311,-1,-1,-1
176.09,5.16,-40.18,755,-5330,6310,-1,-1,-1
176.10,5.18,-40.18,762,-5316,6295,0,-1,-1
176.11,5.20,-40.17,768,-5317,6306,-1,-1,-1
176.13,5.21,-40.16,777,-5325,6328,0,-1,-1
176.13,5.21,-40.16,772,-5331,6305,0,0,-1
176.14,5.22,-40.16,768,-5316,6316,-1,0,0
176.14,5.21,-40.16,748,-5330,6303,0,0,-1
176.14,5.21,-40.16,767,-5317,6309,-1,0,0
176.15,5.23,-40.16,755,-5330,6314,0,-1,-1
176.15,5.23,-40.18,782,-5337,6308,-1,0,0
176.16,5.23,-40.17,762,-5325,6307,0,0,-1
176.16,5.23,-40.18,754,-5332,6301,-1,-1,-1
176.17,5.24,-40.17,779,-5326,6321,-1,0,-1
176.17,5.24,-40.19,775,-5351,6302,0,0,-1
176.17,5.24,-40.18,800,-5339,6319,-1,0,0
176.17,5.22,-40.18,770,-5345,6317,0,0,-1
176.16,5.21,-40.19,768,-5330,6311,-1,0,0
176.17,5.21,-40.19,747,-5329,6316,0,0,-1
176.17,5.21,-40.20,748,-5324,6314,-1,-1,0
176.17,5.21,-40.20,747,-5323,6313,0,-1,-1
176.17,5.21,-40.21,757,-5332,6291,-1,-1,-1
176.18,5.22,-40.21,758,-5328,6314,0,-1,0
176.18,5.22,-40.21,756,-5336,6304,0,-1,-1
176.18,5.23,-40.21,781,-5327,6315,-1,0,0
176.18,5.23,-40.22,768,-5341,6301,0,0,-1
176.18,5.21,-40.22,770,-5329,6294,-1,0,0
176.19,5.21,-40.23,753,-5333,6280,0,0,-1
176.18,5.21,-40.24,766,-5341,6287,-1,0,0
176.18,5.21,-40.24,750,-5344,6309,0,-1,-1
176.18,5.20,-40.26,759,-5356,6298,-1,0,0
176.18,5.20,-40.25,765,-5341,6301,0,0,0
176.18,5.19,-40.25,757,-5345,6291,0,0,-1
176.17,5.19,-40.24,766,-5338,6317,-1,0,0
176.17,5.18,-40.25,759,-5336,6306,0,0,-1
176.16,5.17,-40.26,777,-5326,6319,-2,0,0
176.16,5.16,-40.28,747,-5347,6304,0,0,0
176.15,5.15,-40.29,756,-5336,6283,-2,0,0
176.15,5.15,-40.30,730,-5344,6286,0,-1,-1
176.15,5.15,-40.31,742,-5357,6309,-1,-1,0
176.16,5.17,-40.31,778,-5345,6296,0,-1,-1
176.17,5.18,-40.31,768,-5342,6279,-1,0,-1
176.17,5.18,-40.30,735,-5341,6281,0,0,-1
176.18,5.18,-40.30,732,-5354,6269,0,-1,-1
176.19,5.20,-40.29,732,-5360,6294,0,-1,-1
176.20,5.21,-40.28,741,-5351,6291,0,-1,-1
176.22,5.23,-40.28,742,-5340,6289,0,-1,-1
176.22,5.25,-40.27,765,-5338,6288,0,-1,-1
176.23,5.27,-40.26,797,-5343,6301,0,-1,-1
176.24,5.28,-40.25,805,-5343,6311,0,0,-1
176.24,5.27,-40.25,799,-5343,6311,0,0,0
176.24,5.26,-40.25,771,-5334,6296,0,0,0
176.23,5.24,-40.24,761,-5330,6300,0,0,0
176.22,5.24,-40.23,749,-5327,6313,-1,0,0
176.22,5.23,-40.24,753,-5332,6314,-1,0,0
176.22,5.24,-40.25,753,-5337,6318,-1,-1,0
176.22,5.24,-40.26,764,-5356,6298,-1,-1,-1
176.22,5.25,-40.26,778,-5357,6297,0,0,0
176.23,5.25,-40.26,783,-5351,6296,0,0,-1
176.23,5.24,-40.25,791,-5345,6306,0,0,0
176.23,5.25,-40.24,784,-5346,6302,0,0,-1
176.23,5.24,-40.23,776,-5343,6298,-1,0,0
176.23,5.23,-40.23,762,-5341,6297,0,0,-1
176.22,5.23,-40.23,761,-5335,6296,-1,0,0
176.22,5.23,-40.23,747,-5340,6300,0,-1,-1
176.22,5.23,-40.22,764,-5339,6304,-1,-1,0
176.22,5.24,-40.22,762,-5343,6305,0,-1,-1
176.22,5.24,-40.21,782,-5349,6304,-1,-1,0
176.22,5.25,-40.20,774,-5339,6304,0,0,-1
176.22,5.23,-40.20,776,-5335,6302,-1,0,0
176.22,5.24,-40.20,773,-5325,6323,0,0,-1
176.21,5.23,-40.20,777,-5337,6304,-1,0,0
176.21,5.22,-40.19,767,-5330,6318,-1,0,0
176.20,5.21,-40.21,758,-5338,6310,-1,0,0
176.20,5.20,-40.20,754,-5335,6325,-1,0,0
176.19,5.20,-40.22,742,-5344,6301,0,-1,0
176.19,5.20,-40.21,761,-5348,6320,-1,0,0
176.19,5.19,-40.22,753,-5349,6293,0,0,-1
176.19,5.19,-40.21,768,-5345,6307,-1,0,0
176.19,5.19,-40.21,761,-5348,6307,0,0,-1
