Yaw,Pitch,Roll,AX,AY,AZ,GX,GY,GZ
83.89,179.80,-132.48,29,-6219,-5686,-1,0,0
83.89,179.80,-132.48,28,-6224,-5691,-1,-1,0
83.89,179.80,-132.48,28,-6224,-5684,-1,0,0
83.89,179.79,-132.48,34,-6220,-5681,-1,0,0
83.89,179.79,-132.48,29,-6213,-5682,0,0,-1
83.89,179.80,-132.48,34,-6213,-5679,0,-1,0
83.89,179.79,-132.48,34,-6211,-5688,-1,-1,0
83.89,179.79,-132.48,36,-6207,-5696,-1,-1,0
83.90,179.80,-132.48,34,-6205,-5699,-1,-1,0
83.90,179.80,-132.48,35,-6214,-5691,0,-1,0
83.89,179.80,-132.48,31,-6208,-5690,0,0,0
83.89,179.80,-132.48,28,-6210,-5693,-1,-1,0
83.89,179.80,-132.48,30,-6220,-5701,0,-1,0
83.90,179.80,-132.48,28,-6220,-5706,0,-1,0
83.90,179.80,-132.48,26,-6215,-5708,-1,-1,0
83.88,179.81,-132.49,29,-6211,-5706,-1,0,0
83.89,179.81,-132.50,20,-6211,-5706,0,0,0
83.88,179.81,-132.49,26,-6213,-5706,0,0,0
83.88,179.81,-132.48,20,-6208,-5689,0,0,0
83.88,179.81,-132.48,15,-6216,-5687,-1,-1,-1
83.90,179.81,-132.48,26,-6223,-5692,-1,-1,-1
83.89,179.81,-132.49,25,-6216,-5704,-1,-1,-1
83.89,179.81,-132.49,24,-6210,-5696,-1,0,0
83.90,179.81,-132.50,23,-6208,-5695,-1,0,-1
83.90,179.81,-132.50,26,-6202,-5686,0,-1,0
83.89,179.81,-132.50,29,-6207,-5694,0,0,-1
83.89,179.81,-132.49,36,-6210,-5689,0,-1,0
83.89,179.81,-132.49,27,-6214,-5694,0,-1,0
83.90,179.81,-132.50,26,-6215,-5703,0,-1,0
83.89,179.81,-132.49,22,-6219,-5703,0,0,-1
83.89,179.81,-132.49,22,-6215,-5704,0,0,-1
83.89,179.81,-132.50,26,-6215,-1,-1,0,-1
83.89,179.81,-132.50,27,-6211,-5696,0,0,-1
83.89,179.81,-132.50,32,-6209,-5693,-1,-1,0
83.89,179.81,-132.50,29,-6210,-5694,-1,-1,0
83.89,179.81,-132.49,33,-6221,-5692,0,-1,0
83.88,179.81,-132.49,33,-6223,-5698,0,0,0
83.88,179.81,-132.49,27,-6218,-5699,-1,0,-1
83.89,179.81,-132.49,24,-6210,-5701,-1,-1,-1
83.89,179.81,-132.50,22,-6209,-5706,-1,-1,-1
83.89,179.81,-132.50,20,-6205,-5705,-1,0,0
83.89,179.81,-132.50,28,-6209,-5705,0,0,-1
83.89,179.81,-132.50,33,-6209,-5717,0,0,0
83.89,179.80,-132.49,27,-6216,-5701,0,0,0
83.88,179.81,-132.49,30,-6216,-5682,-1,0,0
83.88,179.81,-132.48,29,-6213,-5685,-1,-1,0
83.88,179.81,-132.49,31,-6214,-5685,-1,-1,-1
83.89,179.80,-132.48,27,-6213,-5693,0,0,0
83.89,179.80,-132.48,25,-6212,-5690,0,-1,0
83.89,179.80,-132.48,28,-6210,-5683,0,0,-1
83.89,179.80,-132.48,33,-6205,-5687,-1,-1,0
83.89,179.80,-132.48,29,-6214,-5687,-1,-1,0
83.88,179.80,-132.48,26,-6214,-5692,-1,0,0
83.89,179.80,-132.48,31,-6212,-5700,0,0,-1
83.89,179.80,-132.48,30,-6209,-5688,-1,-1,0
83.89,179.80,-132.48,38,-6205,-5694,0,-1,0
83.89,179.80,-132.48,37,-6212,-5696,-1,0,0
83.89,179.80,-132.48,33,-6219,-5705,-1,0,0
83.89,179.80,-132.48,32,-6218,-5696,0,0,-1
83.88,179.80,-132.47,26,-6221,-5687,-1,0,-1
83.88,179.80,-132.47,29,-6221,-5685,-1,-1,-1
83.88,179.80,-132.47,33,-6215,-5685,-1,0,-1
83.88,179.80,-132.47,34,-6220,-5694,0,0,0
83.88,179.80,-132.47,38,-6213,-5701,0,0,0
83.88,179.79,-132.47,35,-6211,-5699,0,0,0
83.88,179.80,-132.46,32,-6218,-5682,-1,-1,-1
83.88,179.79,-132.47,35,-6220,-5685,-1,0,-1
83.88,179.80,-132.47,34,-6225,-5695,-1,-1,0
83.89,179.79,-132.48,29,-6219,-5698,-1,-1,-1
83.89,179.79,-132.48,20,-6209,-5690,-1,-1,-1
83.89,179.79,-132.48,33,-6207,-5689,-1,-1,0
83.89,179.79,-132.48,38,-6213,-5688,0,-1,-1
83.89,179.79,-132.48,36,-6222,-5700,0,0,0
83.89,179.79,-132.48,34,-6210,-5705,0,0,0
83.89,179.79,-132.48,24,-6215,-5706,0,0,0
83.88,179.79,-132.48,26,-6216,-5696,0,0,0
83.88,179.79,-132.48,22,-6219,-5695,-1,0,0
83.88,179.79,-132.48,23,-6218,-5692,-1,-1,-1
83.88,179.79,-132.48,26,-6208,-5698,-1,0,-1
83.88,179.79,-132.48,28,-6212,-5690,0,-1,-1
83.89,179.79,-132.48,31,-6214,-5691,0,-1,-1
83.88,179.79,-132.47,35,-6216,-5696,0,0,0
83.88,179.79,-132.47,32,-6218,-5699,-1,-1,0
83.89,179.79,-132.48,33,-6213,-5699,-1,-1,0
83.89,179.79,-132.48,28,-6209,-5692,-1,-1,0
83.89,179.79,-132.48,24,-6213,-5692,-1,-1,0
83.89,179.79,-132.48,28,-6220,-5695,-1,-1,-1
83.89,179.79,-132.48,29,-6213,-5694,0,0,-1
83.89,179.79,-132.48,29,-6215,-5703,0,0,0
83.88,179.79,-132.48,30,-6215,-5700,0,0,0
83.88,179.78,-132.48,37,-6220,-5697,0,0,-1
83.88,179.78,-132.48,35,-6216,-5693,0,0,-1
83.88,179.78,-132.48,33,-6208,-5697,0,0,-1
83.88,179.78,-132.48,35,-6209,-5696,0,0,0
83.88,179.78,-132.48,32,-6210,-5692,0,0,-1
83.87,179.78,-132.47,28,-6217,-5685,-1,0,0
83.87,179.78,-132.47,35,-6220,-5696,-1,0,-1
83.88,179.78,-132.48,29,-6221,-5698,-1,0,0
83.87,179.78,-132.47,33,-6215,-5695,0,0,0
83.87,179.78,-132.47,30,-6212,-5691,0,0,0
83.87,179.78,-132.47,26,-6212,-5700,0,0,0
83.88,179.78,-132.48,26,-6214,-5703,0,-1,0
83.87,179.78,-132.47,24,-6215,-5699,0,0,0
83.87,179.78,-132.47,25,-6221,-5695,0,0,0
83.87,179.79,-132.48,25,-6218,-5708,-1,0,-1
83.86,179.78,-132.47,33,-6217,-5705,0,0,-1
83.86,179.78,-132.47,24,-6212,-5705,0,0,-1
83.86,179.78,-132.47,25,-6212,-5689,-1,0,0
83.86,179.78,-132.47,27,-6210,-5691,-1,0,0
83.86,179.78,-132.47,34,-6211,-5706,-1,0,0
83.87,179.78,-132.48,34,-6210,-5713,0,-1,0
83.86,179.78,-132.47,40,-6208,-5709,0,0,0
83.86,179.78,-132.47,41,-6207,-5693,0,-1,0
83.86,179.78,-132.47,37,-6212,-5685,-1,-1,-1
83.86,179.78,-132.47,40,-6217,-5693,-1,-1,-1
83.87,179.79,-132.48,32,-6220,-5694,-1,-1,-1
83.87,179.79,-132.49,32,-6225,-5712,-1,-1,0
83.87,179.78,-132.49,32,-6227,-5705,-1,0,0
83.87,179.78,-132.49,32,-6220,-5709,0,0,-1
83.87,179.78,-132.49,30,-6219,-5705,0,0,-1
83.87,179.78,-132.49,29,-6218,-5709,0,0,0
83.87,179.78,-132.48,24,-6220,-5703,0,-1,0
83.87,179.78,-132.48,26,-6220,-5697,0,0,0
83.87,179.78,-132.48,25,-6215,-5690,0,0,0
83.86,179.78,-132.48,33,-6220,-5693,0,0,-1
83.86,179.78,-132.48,41,-6218,-5697,-1,0,-1
83.86,179.77,-132.48,44,-6212,-5695,-1,-1,0
83.86,179.78,-132.48,40,-6219,-5700,-1,-1,0
83.86,179.77,-132.48,44,-6218,-5690,-1,-1,0
83.86,179.77,-132.48,46,-6219,-5696,-1,-1,-1
83.86,179.77,-132.48,42,-6217,-5693,-1,-1,0
83.87,179.78,-132.49,41,-6212,-5694,-1,-1,0
83.87,179.78,-132.49,39,-6213,-5697,-1,-1,0
83.87,179.78,-132.49,30,-6208,-5698,-1,-1,0
83.86,179.78,-132.49,29,-6206,-5705,0,0,0
83.86,179.78,-132.49,30,-6211,-5707,0,0,0
83.86,179.78,-132.49,30,-6213,-5691,0,0,0
83.86,179.79,-132.49,26,-6212,-5690,-1,0,0
83.85,179.78,-132.49,27,-6217,-5697,0,0,-1
83.85,179.78,-132.49,31,-6222,-5702,0,0,0
83.87,179.78,-132.48,39,-6228,-5703,-1,0,0
83.85,179.78,-132.48,36,-6222,-5690,-1,0,0
83.85,179.78,-132.49,33,-6220,-5691,-1,0,0
83.85,179.78,-132.49,33,-6222,-5687,-1,-1,0
83.85,179.78,-132.49,35,-6219,-5686,-1,0,-1
83.85,179.78,-132.49,35,-6218,-5685,-1,0,-1
83.85,179.78,-132.49,43,-6219,-5688,-1,0,-1
83.85,179.77,-132.49,42,-6217,-5692,-1,-1,-1
83.85,179.78,-132.49,37,-6219,-5691,0,-1,0
83.85,179.78,-132.49,39,-6216,-5696,-1,-1,0
83.85,179.78,-132.49,38,-6223,-5698,-1,0,0
83.85,179.78,-132.49,35,-6219,-5691,-1,0,-1
83.85,179.78,-132.49,35,-6215,-5703,-1,0,0
83.85,179.77,-132.49,35,-6217,-5699,0,0,0
83.85,179.78,-132.49,37,-6220,-5697,0,0,0
83.85,179.78,-132.48,37,-6219,-5695,0,0,0
83.84,179.77,-132.48,29,-6220,-5684,0,0,-1
83.85,179.77,-132.47,30,-6226,-5679,-1,-1,-1
83.86,179.77,-132.48,26,-6221,-5693,-1,-1,-1
83.87,179.78,-132.49,31,-6217,-5689,-1,-1,0
83.85,179.78,-132.49,35,-6214,-5693,-1,-1,-1
83.86,179.78,-132.49,23,-6213,-5709,-1,0,-1
83.86,179.78,-132.49,22,-6210,-5705,0,-1,0
83.86,179.78,-132.50,28,-6198,-5705,0,0,0
83.86,179.78,-132.49,30,-6208,-5712,0,-1,0
83.86,179.78,-132.49,27,-6215,-5713,0,0,0
83.86,179.78,-132.49,24,-6216,-5708,-1,0,0
83.85,179.78,-132.49,26,-6217,-5700,0,0,-1
83.85,179.78,-132.49,26,-6222,-5696,-1,0,-1
83.85,179.78,-132.49,28,-6217,-5693,-1,0,0
83.85,179.78,-132.49,35,-6208,-5687,-1,-1,0
83.86,179.78,-132.50,30,-6206,-5686,-1,-1,-1
83.86,179.78,-132.50,39,-6213,-5690,-1,-1,-1
83.86,179.78,-132.49,38,-6219,-5689,-1,-1,0
83.86,179.78,-132.49,37,-6211,-5693,-1,-1,0
83.87,179.79,-132.50,28,-6207,-5693,-1,-1,0
83.87,179.79,-132.50,18,-6213,-5692,-1,-1,0
83.87,179.80,-132.50,15,-6213,-5696,-1,-1,0
83.86,179.80,-132.50,12,-6209,-5698,0,0,-1
83.87,179.80,-132.50,21,-6208,-5705,0,0,0
83.86,179.80,-132.50,18,-6209,-5700,0,-1,0
83.86,179.80,-132.50,26,-6207,-5708,-1,-1,0
83.86,179.80,-132.50,30,-6213,-5710,-1,0,-1
83.86,179.80,-132.50,33,-6215,-5702,-1,0,0
83.86,179.79,-132.51,25,-6211,-5708,-1,0,-1
83.86,179.79,-132.51,26,-6214,-5705,-1,0,-1
83.86,179.79,-132.51,29,-6213,-5697,-1,0,-1
83.86,179.79,-132.51,26,-6216,-5696,0,0,0
83.86,179.79,-132.51,27,-6220,-5702,0,-1,0
83.87,179.80,-132.51,30,-6217,-5705,-1,-1,0
83.87,179.80,-132.51,32,-6219,-5703,-1,-1,0
83.87,179.80,-132.51,34,-6215,-5694,-1,-1,0
83.87,179.80,-132.51,31,-6215,-5697,0,-1,0
83.87,179.80,-132.51,29,-6217,-5695,0,-1,0
83.87,179.80,-132.51,28,-6220,-5697,0,-1,0
83.87,179.80,-132.51,31,-6211,-5696,-1,0,0
83.87,179.80,-132.51,30,-6208,-5701,0,-1,0
83.86,179.81,-132.51,24,-6211,-5683,-1,-1,0
83.86,179.81,-132.51,18,-6216,-5690,-1,-1,-1
83.87,179.81,-132.51,26,-6212,-5694,-1,-1,0
83.87,179.81,-132.51,35,-6211,-5698,0,-1,0
83.86,179.81,-132.51,31,-6208,-5701,0,0,0
83.86,179.81,-132.51,25,-6209,-5693,0,-1,0
83.87,179.81,-132.50,29,-6213,-5690,-1,-1,-1
83.87,179.81,-132.51,35,-6217,-5691,-1,-1,0
83.87,179.81,-132.52,33,-6214,-5698,-1,-1,0
83.87,179.82,-132.52,25,-6213,-5699,-1,-1,0
83.87,179.82,-132.52,26,-6209,-5696,0,0,-1
83.87,179.82,-132.52,28,-6208,-5706,0,0,0
83.87,179.81,-132.52,35,-6216,-5703,-1,0,0
83.87,179.82,-132.52,27,-6217,-5713,-1,-1,0
83.87,179.82,-132.52,24,-6208,-5717,-1,0,0
83.88,179.82,-132.53,21,-6203,-5721,-1,-1,0
83.86,179.82,-132.53,23,-6212,-5717,-1,0,-1
83.86,179.82,-132.52,26,-6207,-5705,-1,0,-1
83.87,179.81,-132.53,37,-6206,-5705,-1,0,-1
83.87,179.81,-132.53,34,-6205,-5684,0,0,0
83.86,179.81,-132.53,28,-6207,-5690,-1,-1,0
83.86,179.81,-132.53,24,-6208,-5701,-1,0,0
83.86,179.82,-132.52,31,-6216,-5701,-1,0,-1
83.87,179.82,-132.52,29,-6218,-5697,-1,0,-1
83.86,179.81,-132.53,27,-6214,-5691,-1,0,0
83.87,179.82,-132.53,25,-6210,-5692,-1,-1,0
83.87,179.82,-132.53,20,-6207,-5702,-1,0,-1
83.87,179.82,-132.53,29,-6203,-5710,0,0,-1
83.87,179.82,-132.53,27,-6204,-5699,0,0,0
83.87,179.81,-132.53,29,-6215,-5696,0,0,0
83.87,179.81,-132.53,29,-6212,-5700,0,0,0
83.87,179.81,-132.52,31,-6216,-5698,0,-1,0
83.87,179.81,-132.52,30,-6218,-5698,0,0,0
83.87,179.81,-132.52,37,-6209,-5695,-1,-1,0
83.87,179.81,-132.52,34,-6207,-5689,-1,-1,0
83.87,179.81,-132.52,31,-6214,-5693,-1,0,0
83.87,179.81,-132.52,27,-6212,-5690,0,-1,0
83.87,179.81,-132.52,27,-6208,-5696,0,0,-1
83.86,179.81,-132.52,25,-6204,-5697,0,-1,0
83.86,179.81,-132.52,25,-6203,-5692,0,-1,0
83.86,179.81,-132.52,29,-6213,-5704,0,0,-1
83.86,179.81,-132.51,31,-6214,-5708,0,0,0
83.86,179.81,-132.51,39,-6216,-5703,0,0,-1
83.85,179.81,-132.51,35,-6213,-5696,0,0,0
83.85,179.81,-132.51,40,-6208,-5686,-1,-1,0
83.85,179.81,-132.51,33,-6208,-5680,-1,-1,0
83.85,179.81,-132.51,39,-6217,-5679,0,-1,0
83.86,179.80,-132.50,35,-6229,-5688,-1,0,-1
83.86,179.80,-132.50,31,-6223,-5688,0,0,-1
83.86,179.80,-132.50,31,-6220,-5680,-1,0,0
83.86,179.80,-132.50,23,-6211,-5679,-1,-1,0
83.86,179.80,-132.50,19,-6216,-5682,-1,-1,0
83.86,179.81,-132.50,23,-6221,-5705,-1,-1,0
83.85,179.81,-132.50,26,-6219,-5714,0,0,0
83.86,179.81,-132.49,29,-6217,-5708,0,-1,0
83.86,179.81,-132.49,24,-6219,-5706,-1,-1,-1
83.86,179.81,-132.49,33,-6228,-5695,-1,-1,-1
83.86,179.80,-132.50,36,-6235,-5697,-1,-1,-1
83.86,179.81,-132.50,36,-6225,-5697,-1,-1,0
83.87,179.80,-132.51,32,-6213,-5698,-1,0,-1
83.87,179.80,-132.51,24,-6205,-5697,0,0,0
83.87,179.80,-132.51,28,-6201,-5696,0,0,0
83.86,179.80,-132.50,33,-6205,-5698,0,-1,0
83.86,179.80,-132.50,26,-6212,-5707,0,-1,0
83.86,179.81,-132.50,20,-6210,-5702,0,0,0
83.85,179.81,-132.50,18,-6213,-5697,0,-1,0
83.84,179.81,-132.50,19,-6221,-5699,0,0,-1
83.86,179.80,-132.50,25,-6220,-5696,-1,0,-1
83.86,179.80,-132.50,28,-6220,-5694,-1,-1,0
83.84,179.81,-132.50,30,-6217,-5686,-1,-1,0
83.85,179.81,-132.50,25,-6210,-5683,-1,-1,0
83.85,179.81,-132.50,27,-6213,-5687,-1,0,-1
83.85,179.81,-132.50,24,-6220,-5696,0,0,-1
83.86,179.81,-132.50,27,-6216,-5708,-1,-1,-1
83.85,179.81,-132.50,27,-6210,-5703,-1,-1,0
83.86,179.81,-132.51,22,-6207,-5694,-1,-1,0
83.86,179.81,-132.51,22,-6201,-5690,-1,-1,0
83.86,179.81,-132.51,23,-6203,-5698,-1,-1,-1
83.86,179.81,-132.51,24,-6210,-5715,0,0,0
83.86,179.81,-132.51,26,-6215,-5710,0,0,-1
83.85,179.81,-132.50,27,-6213,-5698,0,0,0
83.85,179.81,-132.50,31,-6212,-5705,0,0,0
83.85,179.81,-132.50,36,-6206,-5698,-1,-1,0
83.85,179.81,-132.50,32,-6211,-5702,0,-1,0
83.86,179.81,-132.51,31,-6207,-5701,-1,0,0
83.86,179.81,-132.51,26,-6207,-5696,-1,0,0
83.85,179.81,-132.51,31,-6213,-5695,-1,0,0
83.85,179.81,-132.51,27,-6210,-5695,0,0,-1
83.85,179.81,-132.51,28,-6212,-5695,-1,0,-1
83.85,179.81,-132.51,27,-6214,-5694,-1,0,-1
83.85,179.81,-132.51,32,-6211,-5688,-1,0,-1
83.85,179.81,-132.51,37,-6213,-5681,0,-1,0
83.85,179.81,-132.51,32,-6212,-5692,0,-1,0
83.85,179.81,-132.51,30,-6218,-5691,0,-1,0
83.85,179.81,-132.50,32,-6220,-5691,-1,-1,0
83.85,179.81,-132.50,30,-6221,-5699,0,0,0
83.85,179.81,-132.50,29,-6214,-5690,-1,0,0
83.85,179.81,-132.50,33,-6215,-5693,0,-1,-1
83.84,179.81,-132.50,36,-6210,-5707,-1,0,0
83.85,179.80,-132.50,40,-6213,-5698,0,0,0
83.85,179.80,-132.50,38,-6214,-5696,-1,0,0
83.85,179.80,-132.50,29,-6214,-5698,-1,-1,0
83.85,179.81,-132.51,35,-6207,-5696,-1,0,0
83.85,179.80,-132.51,35,-6206,-5696,0,0,0
83.84,179.80,-132.50,34,-6215,-5694,0,0,0
83.84,179.80,-132.50,29,-6212,-5689,0,0,-1
83.84,179.80,-132.50,32,-6215,-5687,0,-1,-1
83.84,179.80,-132.50,21,-6214,-5700,-1,-1,-1
83.84,179.80,-132.50,29,-6219,-5698,-1,-1,0
83.85,179.81,-132.51,22,-6214,-5703,-1,-1,0
83.85,179.80,-132.51,23,-6202,-5692,-1,0,-1
83.85,179.80,-132.51,28,-6201,-5689,0,-1,-1
83.85,179.80,-132.51,24,-6200,-5694,0,-1,0
83.85,179.81,-132.51,23,-6210,-5700,0,0,0
83.85,179.81,-132.50,29,-6210,-5712,0,-1,0
83.85,179.81,-132.50,21,-6213,-5705,0,0,0
83.84,179.80,-132.50,21,-6212,-5699,0,0,0
83.84,179.80,-132.50,23,-6214,-5699,0,-1,-1
83.84,179.80,-132.50,25,-6210,-5691,-1,0,0
83.85,179.81,-132.50,27,-6210,-5694,-1,-1,0
83.85,179.81,-132.50,33,-6214,-5701,-1,-1,0
83.84,179.80,-132.51,34,-6215,-5705,-1,-1,-1
83.85,179.80,-132.51,29,-6216,-5704,-1,-1,-1
83.85,179.80,-132.51,27,-6212,-5699,-1,-1,0
83.85,179.81,-132.52,27,-6209,-5705,-1,-1,0
83.85,179.81,-132.52,30,-6209,-5686,-1,-1,0
83.85,179.81,-132.52,31,-6207,-5691,-1,-1,0
83.85,179.81,-132.52,30,-6203,-5700,0,0,0
83.85,179.81,-132.52,28,-6207,-5706,0,0,-1
83.85,179.81,-132.52,34,-6210,-5696,0,-1,0
83.85,179.81,-132.52,30,-6205,-5692,0,-1,0
83.85,179.81,-132.52,29,-6206,-5697,0,0,-1
83.85,179.81,-132.52,29,-6206,-5698,-1,-1,0
83.85,179.81,-132.52,25,-6211,-5706,0,0,-1
83.85,179.82,-132.52,21,-6209,-5689,-1,-1,0
83.85,179.82,-132.52,27,-6212,-5685,-1,-1,-1
83.85,179.82,-132.52,28,-6209,-5682,-1,-1,0
83.86,179.82,-132.52,23,-6214,-5684,-1,0,0
83.86,179.82,-132.53,16,-6213,-5692,-1,0,-1
83.86,179.82,-132.53,20,-6208,-5704,0,0,-1
83.86,179.81,-132.53,27,-6204,-5697,0,0,-1
83.86,179.81,-132.53,25,-6202,-5692,-1,-1,0
83.86,179.82,-132.53,28,-6204,-5690,-1,-1,0
83.86,179.82,-132.53,29,-6207,-5686,-1,0,0
83.86,179.82,-132.53,32,-6209,-5704,0,0,0
83.86,179.82,-132.53,31,-6206,-5707,0,0,0
83.86,179.82,-132.53,30,-6210,-5705,0,0,-1
83.85,179.81,-132.52,31,-6215,-5705,0,0,-1
83.86,179.82,-132.53,29,-6210,-5706,-1,0,-1
83.86,179.82,-132.53,31,-6208,-5705,-1,0,-1
83.86,179.81,-132.53,33,-6207,-5711,-1,0,0
83.86,179.81,-132.53,34,-6210,-5712,0,0,0
83.85,179.81,-132.53,24,-6200,-5703,0,0,0
83.85,179.81,-132.52,18,-6207,-5687,0,0,-1
83.85,179.81,-132.52,19,-6215,-5695,-1,0,-1
83.86,179.81,-132.53,20,-6220,-5704,-1,-1,0
83.86,179.81,-132.53,23,-6217,-5713,-1,-1,0
83.85,179.82,-132.54,23,-6210,-5704,-1,-1,0
83.85,179.82,-132.54,27,-6204,-5707,-1,0,-1
83.85,179.81,-132.54,28,-6209,-5712,-1,0,0
83.85,179.82,-132.54,23,-6210,-5724,0,0,0
83.85,179.82,-132.54,22,-6205,-5710,0,0,0
83.85,179.82,-132.54,18,-6208,-5707,0,0,0
83.85,179.82,-132.54,17,-6203,-5705,0,0,0
83.85,179.81,-132.53,19,-6213,-5693,-1,0,-1
83.85,179.81,-132.54,22,-6216,-5698,0,0,-1
83.85,179.81,-132.54,28,-6209,-5697,-1,0,-1
83.84,179.80,-132.54,31,-6207,-5691,-1,-1,0
83.85,179.81,-132.54,31,-6208,-5692,-1,-1,0
83.86,179.80,-132.54,30,-6220,-5691,-1,-1,-1
83.86,179.80,-132.54,28,-6213,-5690,-1,-1,-1
83.86,179.80,-132.54,27,-6209,-5692,-1,-1,0
83.85,179.81,-132.54,19,-6199,-5703,-1,-1,0
83.86,179.82,-132.55,24,-6203,-5698,-1,-1,0
83.86,179.82,-132.55,24,-6207,-5695,-1,-1,0
83.86,179.82,-132.55,32,-6206,-5702,-1,0,-1
83.86,179.82,-132.55,27,-6203,-5700,0,0,-1
83.85,179.82,-132.54,28,-6205,-5699,0,-1,0
83.85,179.82,-132.54,32,-6207,-5705,0,0,0
83.85,179.82,-132.54,30,-6212,-5702,-1,-1,0
83.85,179.82,-132.54,27,-6209,-5709,-1,-1,0
83.86,179.82,-132.54,26,-6207,-5705,-1,-1,0
83.86,179.82,-132.54,23,-6207,-5701,-1,-1,0
83.86,179.82,-132.54,25,-6208,-5704,-1,-1,-1
83.86,179.82,-132.55,25,-6202,-5706,-1,0,0
83.86,179.82,-132.55,31,-6200,-5706,-1,0,0
83.86,179.82,-132.55,29,-6206,-5700,-1,-1,-1
83.87,179.82,-132.55,22,-6207,-5699,-1,0,0
83.85,179.82,-132.56,21,-6210,-5694,-1,-1,0
83.85,179.82,-132.56,20,-6210,-5701,-1,-1,0
83.85,179.82,-132.56,23,-6210,-5698,-1,-1,0
83.85,179.83,-132.55,25,-6206,-5700,0,0,0
83.85,179.83,-132.55,24,-6208,-5698,0,-1,0
83.85,179.83,-132.55,28,-6207,-5699,0,0,0
83.85,179.83,-132.55,29,-6207,-5701,0,0,0
83.85,179.82,-132.55,33,-6202,-5693,-1,-1,0
83.85,179.83,-132.55,31,-6203,-5704,-1,-1,-1
83.85,179.82,-132.56,33,-6201,-5703,-1,0,0
83.85,179.82,-132.56,35,-6198,-5696,-1,-1,0
83.85,179.83,-132.55,31,-6199,-5696,0,0,0
83.85,179.83,-132.55,25,-6200,-5690,0,-1,0
83.84,179.83,-132.54,23,-6204,-5685,0,-1,0
83.85,179.83,-132.55,21,-6215,-5706,-1,-1,-1
83.86,179.83,-132.56,22,-6203,-5716,-1,-1,-1
83.86,179.84,-132.56,18,-6197,-5703,-1,-1,0
83.86,179.84,-132.57,16,-6194,-5702,-1,0,-1
83.85,179.83,-132.57,21,-6196,-5705,-1,0,-1
83.87,179.83,-132.57,25,-6202,-5709,0,-1,0
83.87,179.83,-132.57,26,-6207,-5705,0,0,0
83.85,179.83,-132.57,28,-6206,-5702,0,-1,0
83.85,179.84,-132.56,26,-6205,-5698,0,0,0
83.84,179.83,-132.56,23,-6209,-5696,0,0,0
83.86,179.83,-132.55,24,-6210,-5692,0,0,-1
83.86,179.83,-132.55,24,-6205,-5700,-1,-1,-1
83.86,179.83,-132.55,20,-6207,-5693,0,-1,0
83.86,179.83,-132.55,21,-6201,-5701,-1,-1,0
83.86,179.84,-132.56,21,-6205,-5704,-1,-1,0
83.86,179.83,-132.56,25,-6214,-5716,0,-1,0
83.86,179.83,-132.55,24,-6214,-5707,0,-1,-1
83.86,179.83,-132.56,31,-6213,-5713,-1,-1,-1
83.86,179.83,-132.56,26,-6206,-5693,-1,-1,0
83.86,179.83,-132.56,20,-6206,-5688,-1,0,0
83.86,179.83,-132.56,23,-6200,-5690,-1,-1,0
83.86,179.83,-132.56,25,-6199,-5693,0,0,-1
83.86,179.84,-132.55,24,-6201,-5702,-1,-1,0
83.85,179.83,-132.55,22,-6208,-5699,0,0,0
83.85,179.83,-132.55,27,-6209,-5706,-1,-1,0
83.85,179.83,-132.55,25,-6213,-5711,0,0,-1
83.85,179.83,-132.55,33,-6212,-5705,0,0,0
83.85,179.83,-132.55,24,-6209,-5700,0,0,0
83.85,179.83,-132.55,16,-6207,-5701,0,-1,-1
83.85,179.83,-132.55,20,-6210,-5694,-1,0,-1
83.86,179.83,-132.54,16,-6210,-5699,0,0,-1
83.86,179.83,-132.54,14,-6212,-5699,-1,-1,-1
83.85,179.83,-132.55,8,-6213,-5699,-1,0,0
83.85,179.83,-132.55,19,-6211,-5711,-1,-1,0
83.85,179.83,-132.55,22,-6207,-5714,0,-1,-1
83.85,179.83,-132.55,30,-6202,-5710,-1,0,0
83.85,179.83,-132.55,31,-6201,-5711,-1,0,-1
83.86,179.83,-132.55,36,-6207,-5706,0,-1,0
83.86,179.82,-132.54,31,-6210,-5704,0,0,0
83.86,179.83,-132.54,32,-6211,-5700,-1,0,0
83.86,179.83,-132.54,28,-6214,-5700,0,0,0
83.86,179.83,-132.54,34,-6214,-5698,0,0,-1
83.85,179.82,-132.53,32,-6214,-5694,0,0,0
83.85,179.82,-132.53,29,-6213,-5692,-1,-1,0
83.86,179.82,-132.54,26,-6207,-5699,-1,-1,-1
83.86,179.82,-132.54,32,-6198,-5700,-1,0,-1
83.85,179.82,-132.54,39,-6195,-5700,0,-1,0
83.86,179.82,-132.54,34,-6202,-5707,0,-1,0
83.85,179.82,-132.53,27,-6202,-5696,0,-1,0
83.86,179.83,-132.54,21,-6217,-5698,-1,-1,0
83.86,179.83,-132.54,22,-6224,-5699,-1,-1,-1
83.86,179.83,-132.54,20,-6211,-5712,-1,-1,-1
83.85,179.83,-132.55,21,-6208,-5705,-1,0,-1
83.85,179.83,-132.55,24,-6202,-5704,-1,0,-1
83.85,179.82,-132.56,27,-6202,-5697,-1,0,-1
83.85,179.82,-132.56,25,-6198,-5699,0,0,-1
83.85,179.82,-132.56,22,-6201,-5708,0,-1,0
83.84,179.82,-132.54,23,-6207,-5699,0,0,-1
83.84,179.82,-132.54,20,-6209,-5704,0,0,0
83.84,179.82,-132.54,23,-6210,-5692,-1,-1,0
83.84,179.82,-132.54,20,-6205,-5686,-1,-1,0
83.84,179.83,-132.54,18,-6212,-5692,0,0,-1
83.85,179.82,-132.53,22,-6218,-5690,-1,0,-1
83.85,179.82,-132.54,26,-6211,-5689,-1,0,0
83.85,179.82,-132.54,29,-6203,-5692,-1,-1,0
83.85,179.82,-132.53,25,-6208,-5691,-1,-1,0
83.84,179.83,-132.54,24,-6212,-5705,-1,0,-1
83.84,179.82,-132.54,27,-6208,-5706,-1,-1,0
83.84,179.82,-132.54,26,-6205,-5704,-1,-1,0
83.84,179.82,-132.54,25,-6206,-5695,-1,-1,0
83.85,179.83,-132.55,22,-6200,-5699,-1,0,0
83.85,179.82,-132.55,23,-6201,-5706,-1,0,0
83.85,179.83,-132.55,24,-6199,-5687,0,-1,0
83.85,179.83,-132.55,25,-6206,-5698,0,0,0
83.84,179.82,-132.54,33,-6206,-5700,-1,-1,0
83.85,179.83,-132.55,23,-6212,-5699,-1,-1,-1
83.85,179.83,-132.55,26,-6208,-5699,-1,-1,0
83.85,179.83,-132.55,23,-6210,-5691,-1,-1,0
83.84,179.83,-132.56,18,-6208,-5687,-1,-1,0
83.85,179.84,-132.56,18,-6206,-5692,-1,-1,0
83.86,179.84,-132.57,14,-6207,-5705,-1,-1,0
83.86,179.84,-132.57,13,-6203,-5704,-1,-1,0
83.86,179.85,-132.57,15,-6203,-5706,-1,-1,0
83.86,179.85,-132.58,17,-6209,-5703,-1,-1,0
84.97,157.97,-151.00,-258,-258,-258,-258,-258,-258
83.86,179.85,-132.59,21,-6201,-5707,-1,-1,0
83.86,179.85,-132.59,18,-6204,-5697,-1,-1,0
83.86,179.85,-132.59,13,-6206,-5696,-1,-1,0
83.87,179.86,-132.59,21,-6205,-5699,-1,-1,0
83.86,179.86,-132.60,22,-6203,-5704,-1,-1,0
83.87,179.86,-132.61,24,-6204,-5705,-1,-1,0
83.87,179.86,-132.61,24,-6203,-5712,-1,-1,0
83.87,179.86,-132.61,19,-6201,-5718,-1,-1,0
83.88,179.86,-132.62,20,-6204,-5720,-1,-1,0
83.89,179.86,-132.63,23,-6199,-5715,-1,-1,0
83.87,179.86,-132.63,28,-6202,-5722,-1,0,0
83.88,179.86,-132.64,29,-6199,-5733,-1,0,0
83.88,179.86,-132.64,32,-6197,-5724,0,-1,-1
83.87,179.86,-132.63,23,-6200,-5717,0,0,-1
83.87,179.86,-132.63,24,-6206,-5710,-1,-1,-1
83.88,179.86,-132.64,22,-6211,-5701,-1,-1,0
83.89,179.87,-132.64,14,-6212,-5707,-1,-1,0
83.89,179.87,-132.65,11,-6200,-5715,-1,-1,0
83.89,179.87,-132.66,8,-6189,-5717,-1,0,-1
83.89,179.87,-132.66,18,-6189,-5717,0,0,-1
83.89,179.86,-132.66,25,-6191,-5724,0,0,-1
83.88,179.86,-132.66,25,-6194,-5729,0,0,0
83.89,179.86,-132.66,27,-6201,-5724,0,0,0
83.88,179.86,-132.66,24,-6202,-5716,-1,0,0
83.87,179.86,-132.65,21,-6203,-5712,0,0,0
83.87,179.86,-132.65,22,-6203,-5713,-1,0,-1
83.87,179.86,-132.65,31,-6199,-5712,-1,0,-1
83.87,179.85,-132.66,35,-6196,-5715,-1,-1,-1
83.87,179.85,-132.66,30,-6197,-5708,-1,-1,0
83.87,179.85,-132.66,27,-6200,-5711,-1,0,-1
83.87,179.85,-132.66,24,-6200,-5708,-1,-1,-1
83.89,179.85,-132.66,28,-6201,-5707,-1,-1,-1
83.89,179.85,-132.66,27,-6201,-5709,-1,-1,0
83.88,179.86,-132.67,23,-6194,-5717,-1,-1,0
83.88,179.86,-132.67,12,-6192,-5719,-1,-1,0
83.89,179.86,-132.67,18,-6187,-5721,0,-1,-1
83.88,179.86,-132.67,23,-6194,-5717,0,-1,0
83.88,179.86,-132.67,21,-6191,-5716,0,-1,0
83.89,179.86,-132.67,19,-6195,-5722,0,0,0
83.88,179.86,-132.66,23,-6190,-5710,-1,-1,0
83.89,179.86,-132.67,16,-6203,-5719,0,-1,0
83.89,179.86,-132.67,16,-6199,-5718,-1,-1,0
83.89,179.86,-132.67,11,-6200,-5715,-1,-1,0
83.89,179.86,-132.68,10,-6199,-5709,-1,-1,-1
83.89,179.86,-132.68,13,-6199,-5712,-1,0,-1
83.89,179.86,-132.68,8,-6200,-5705,-1,0,-1
83.89,179.86,-132.68,15,-6194,-5717,-1,0,0
83.89,179.87,-132.69,12,-6192,-5715,-1,0,0
83.89,179.87,-132.69,10,-6188,-5708,-1,-1,0
83.89,179.87,-132.68,10,-6192,-5713,0,-1,0
83.89,179.87,-132.68,19,-6194,-5718,0,-1,0
83.89,179.87,-132.68,19,-6195,-5727,0,-1,0
83.89,179.87,-132.68,21,-6196,-5720,-1,0,0
83.89,179.87,-132.68,16,-6195,-5715,0,-1,0
83.89,179.88,-132.68,17,-6201,-5701,0,-1,0
83.89,179.88,-132.68,13,-6198,-5698,-1,-1,0
83.89,179.88,-132.68,16,-6196,-5699,-1,0,0
83.89,179.88,-132.68,21,-6195,-5721,0,0,0
83.89,179.88,-132.68,19,-6190,-5719,0,0,0
83.89,179.88,-132.68,14,-6195,-5715,0,0,-1
83.89,179.88,-132.67,14,-6198,-5711,0,-1,-1
83.90,179.88,-132.67,17,-6201,-5708,-1,-1,0
83.89,179.88,-132.67,20,-6207,-5720,-1,-1,-1
83.89,179.88,-132.68,22,-6201,-5720,-1,-1,0
83.90,179.88,-132.69,22,-6189,-5715,-1,-1,0
83.91,179.88,-132.70,20,-6180,-5726,0,0,-1
83.91,179.88,-132.70,20,-6182,-5730,0,0,0
83.90,179.88,-132.69,18,-6192,-5730,0,-1,0
83.90,179.88,-132.69,16,-6191,-5723,0,0,0
83.90,179.88,-132.69,16,-6192,-5720,0,0,0
83.90,179.88,-132.69,17,-6193,-5720,0,0,0
83.90,179.88,-132.69,11,-6200,-5723,-1,0,0
83.90,179.88,-132.69,13,-6197,-5717,-1,0,0
83.90,179.88,-132.69,19,-6189,-5712,-1,-1,0
83.90,179.88,-132.69,11,-6189,-5701,-1,-1,0
83.90,179.88,-132.69,11,-6196,-5708,-1,-1,0
83.90,179.88,-132.69,17,-6189,-5710,-1,-1,-1
83.90,179.88,-132.69,20,-6193,-5719,0,-1,0
83.91,179.89,-132.69,16,-6194,-5717,-1,-1,0
83.91,179.89,-132.69,15,-6191,-5710,-1,-1,0
83.89,179.88,-132.70,15,-6188,-5715,-1,-1,0
83.90,179.89,-132.70,10,-6185,-5723,0,0,-1
83.90,179.89,-132.70,19,-6181,-5735,0,-1,0
83.89,179.88,-132.70,20,-6183,-5729,0,0,0
83.89,179.89,-132.70,11,-6186,-5719,-1,-1,0
83.89,179.89,-132.69,14,-6189,-5709,-1,-1,0
83.90,179.89,-132.70,18,-6190,-5719,-1,-1,0
83.90,179.89,-132.70,19,-6196,-5720,0,0,0
83.90,179.89,-132.70,24,-6194,-5720,0,0,0
83.89,179.89,-132.70,17,-6196,-5716,-1,0,0
83.89,179.89,-132.70,16,-6189,-5707,-1,0,0
83.90,179.89,-132.70,14,-6193,-5714,-1,0,0
83.90,179.89,-132.70,12,-6192,-5714,-1,-1,0
83.90,179.89,-132.70,8,-6196,-5717,-1,-1,0
83.90,179.89,-132.70,12,-6190,-5719,-1,-1,0
83.90,179.89,-132.70,13,-6192,-5718,-1,0,0
83.89,179.90,-132.70,10,-6191,-5711,-1,-1,0
83.89,179.90,-132.70,10,-6193,-5711,0,0,0
83.89,179.90,-132.71,11,-6189,-5722,-1,-1,0
83.89,179.90,-132.70,17,-6188,-5724,0,0,0
83.89,179.90,-132.70,15,-6192,-5721,0,-1,0
83.88,179.90,-132.69,11,-6194,-5717,0,-1,0
83.89,179.91,-132.70,6,-6191,-5722,-1,-1,-1
83.89,179.90,-132.70,7,-6186,-5721,0,0,-1
83.89,179.90,-132.70,13,-6191,-5729,0,-1,0
83.88,179.90,-132.69,15,-6186,-5720,0,-1,0
83.88,179.90,-132.69,17,-6183,-5706,-1,-1,0
83.88,179.91,-132.69,15,-6195,-5701,-1,-1,0
83.88,179.91,-132.69,9,-6192,-5705,-1,-1,-1
83.89,179.91,-132.70,12,-6194,-5719,-1,0,-1
83.89,179.91,-132.70,13,-6196,-5725,-1,0,-1
83.89,179.90,-132.71,15,-6189,-5731,-1,0,-1
83.89,179.90,-132.71,13,-6187,-5723,-1,0,-1
83.89,179.90,-132.71,14,-6185,-5721,0,0,-1
83.89,179.90,-132.70,15,-6188,-5716,0,0,0
83.88,179.90,-132.69,11,-6195,-5724,0,0,0
83.88,179.90,-132.69,6,-6195,-5719,0,0,0
83.88,179.90,-132.69,11,-6193,-5709,0,0,0
83.88,179.90,-132.69,13,-6195,-5707,-1,0,0
83.88,179.90,-132.69,11,-6199,-5702,-1,-1,0
83.88,179.90,-132.69,18,-6205,-5714,-1,-1,0
83.88,179.90,-132.69,13,-6192,-5710,-1,-1,0
83.88,179.90,-132.69,11,-6188,-5708,-1,-1,0
83.88,179.91,-132.69,10,-6188,-5718,-1,-1,0
83.88,179.91,-132.69,12,-6193,-5720,-1,-1,-1
83.88,179.91,-132.69,9,-6195,-5720,-1,-1,-1
83.89,179.91,-132.69,6,-6198,-5715,-1,-1,0
83.89,179.91,-132.69,4,-6195,-5718,-1,-1,0
83.90,179.91,-132.70,7,-6191,-5713,-1,0,0
83.88,179.91,-132.71,10,-6190,-5725,0,0,0
83.89,179.91,-132.69,8,-6185,-5725,0,0,0
83.88,179.92,-132.69,19,-6189,-5727,0,0,0
83.89,179.91,-132.69,12,-6192,-5713,0,-1,0
83.88,179.92,-132.69,11,-6193,-5720,-1,-1,0
83.88,179.92,-132.69,10,-6189,-5721,-1,-1,-1
83.88,179.92,-132.70,13,-6186,-5721,-1,-1,0
83.88,179.92,-132.70,9,-6192,-5724,-1,0,0
83.88,179.92,-132.70,6,-6193,-5722,0,0,0
83.88,179.92,-132.70,11,-6194,-5728,0,-1,0
83.88,179.92,-132.70,12,-6190,-5729,-1,0,0
83.88,179.92,-132.70,14,-6188,-5728,-1,-1,0
83.88,179.92,-132.70,8,-6183,-5720,-1,0,0
83.88,179.92,-132.70,15,-6189,-5720,-1,-1,0
83.88,179.92,-132.70,12,-6193,-5730,0,-1,0
83.89,179.92,-132.71,9,-6191,-5725,0,-1,0
83.89,179.93,-132.70,9,-6188,-5723,0,-1,0
83.89,179.93,-132.70,10,-6197,-5723,-1,-1,0
83.89,179.93,-132.70,9,-6199,-5734,0,0,0
83.88,179.92,-132.70,7,-6200,-5719,0,0,0
83.88,179.92,-132.70,6,-6196,-5719,0,0,0
83.88,179.92,-132.70,7,-6193,-5714,-1,-1,0
83.88,179.93,-132.71,7,-6196,-5721,-1,0,-1
83.88,179.92,-132.71,14,-6196,-5724,-1,-1,0
83.88,179.93,-132.71,17,-6196,-5714,0,0,0
83.88,179.93,-132.71,14,-6190,-5711,0,-1,0
83.87,179.93,-132.70,10,-6198,-5705,0,-1,0
83.87,179.93,-132.70,10,-6204,-5710,-1,-1,-1
83.87,179.93,-132.70,7,-6209,-5721,-1,0,-1
83.88,179.92,-132.71,11,-6201,-5729,-1,0,-1
83.88,179.92,-132.71,13,-6197,-5717,-1,0,-1
83.89,179.92,-132.71,10,-6189,-5714,-1,0,-1
83.89,179.92,-132.71,9,-6182,-5718,0,0,-1
83.88,179.92,-132.70,12,-6179,-5716,0,-1,0
83.88,179.92,-132.71,9,-6190,-5728,0,-1,0
83.88,179.92,-132.71,10,-6191,-5723,0,0,0
83.87,179.92,-132.70,4,-6191,-5717,-1,0,0
83.88,179.92,-132.71,10,-6185,-5720,0,0,-1
83.87,179.92,-132.70,7,-6192,-5715,-1,0,-1
83.87,179.92,-132.71,17,-6189,-5712,-1,0,-1
83.87,179.92,-132.71,17,-6183,-5705,-1,-1,0
83.87,179.92,-132.71,16,-6188,-5713,-1,-1,0
83.87,179.92,-132.71,15,-6192,-5723,-1,-1,0
83.88,179.92,-132.71,13,-6194,-5733,0,0,-1
83.88,179.92,-132.71,14,-6196,-5726,-1,-1,0
83.86,179.92,-132.71,5,-6190,-5720,-1,-1,0
83.87,179.92,-132.72,0,-6185,-5721,-1,-1,0
83.87,179.92,-132.72,3,-6185,-5723,-1,-1,0
83.88,179.93,-132.73,4,-6187,-5719,-1,-1,0
83.87,179.92,-132.72,7,-6183,-5724,0,0,-1
83.87,179.93,-132.72,10,-6187,-5717,0,-1,0
83.87,179.93,-132.72,6,-6190,-5712,-1,-1,0
83.87,179.93,-132.72,5,-6188,-5717,-1,-1,0
83.88,179.94,-132.72,7,-6185,-5716,-1,0,0
83.87,179.93,-132.72,8,-6188,-5714,-1,0,0
83.86,179.93,-132.72,9,-6183,-5717,-1,0,0
83.86,179.93,-132.73,8,-6194,-5717,-1,-1,-1
83.86,179.93,-132.73,12,-6190,-5723,-1,0,-1
83.86,179.93,-132.73,12,-6195,-5729,-1,0,0
83.86,179.93,-132.73,4,-6195,-5733,-1,0,-1
83.87,179.93,-132.74,-2,-6187,-5730,-1,0,0
83.87,179.93,-132.74,5,-6181,-5729,-1,0,0
83.87,179.93,-132.74,8,-6188,-5725,0,0,0
83.87,179.93,-132.74,11,-6186,-5726,-1,-1,0
83.87,179.93,-132.74,10,-6180,-5731,0,0,0
83.86,179.94,-132.74,4,-6180,-5740,0,-1,0
83.86,179.93,-132.74,9,-6180,-5729,0,-1,0
83.86,179.94,-132.74,6,-6193,-5732,-1,0,0
83.86,179.93,-132.74,6,-6183,-5716,-1,0,0
83.86,179.94,-132.74,-1,-6185,-5718,-1,-1,0
83.86,179.94,-132.74,8,-6187,-5722,-1,-1,0
83.86,179.94,-132.74,13,-6187,-5723,-1,0,-1
83.86,179.94,-132.74,14,-6188,-5729,0,0,-1
83.86,179.93,-132.74,9,-6190,-5729,0,0,0
83.87,179.93,-132.74,9,-6195,-5716,0,0,-1
83.87,179.93,-132.74,7,-6195,-5715,-1,0,-1
83.87,179.93,-132.74,10,-6194,-5710,-1,-1,-1
83.88,179.93,-132.75,5,-6192,-5727,-1,-1,0
83.87,179.93,-132.76,4,-6188,-5732,-1,-1,-1
83.87,179.93,-132.76,5,-6176,-5730,-1,0,-1
83.87,179.93,-132.76,6,-6182,-5724,0,0,-1
83.87,179.92,-132.75,15,-6183,-5730,0,0,-1
83.87,179.92,-132.75,13,-6181,-5735,0,0,0
83.86,179.93,-132.75,10,-6184,-5736,0,0,0
83.86,179.93,-132.74,7,-6187,-5740,0,0,0
83.86,179.93,-132.74,4,-6193,-5725,0,0,-1
83.86,179.93,-132.74,0,-6195,-5722,-1,0,0
83.86,179.93,-132.74,-1,-6190,-5718,-1,-1,0
83.86,179.93,-132.74,8,-6188,-5719,-1,-1,0
83.86,179.93,-132.74,9,-6189,-5720,0,-1,-1
83.86,179.93,-132.74,19,-6195,-5727,-1,-1,0
83.87,179.93,-132.74,18,-6194,-5716,0,-1,-1
83.87,179.93,-132.74,18,-6186,-5715,-1,-1,0
83.88,179.92,-132.75,11,-6184,-5714,-1,-1,0
83.87,179.93,-132.76,8,-6181,-5726,-1,-1,0
83.88,179.93,-132.76,5,-6185,-5726,-1,-1,0
83.87,179.93,-132.76,6,-6186,-5723,0,0,-1
83.87,179.93,-132.76,8,-6181,-5733,0,0,-1
83.87,179.93,-132.76,16,-6180,-5720,-1,-1,0
83.87,179.93,-132.76,19,-6188,-5719,-1,0,-1
83.87,179.92,-132.75,18,-6192,-5725,-1,0,0
83.87,179.92,-132.75,9,-6190,-5724,-1,0,0
83.87,179.92,-132.75,5,-6186,-5726,0,0,0
83.87,179.92,-132.75,11,-6178,-5719,-1,-1,0
83.87,179.92,-132.75,14,-6180,-5729,-1,-1,0
83.87,179.92,-132.76,15,-6187,-5734,-1,0,0
83.87,179.92,-132.76,20,-6186,-5736,-1,0,-1
83.87,179.92,-132.76,19,-6184,-5725,-1,0,-1
83.87,179.92,-132.76,14,-6190,-5732,-1,0,0
83.87,179.92,-132.76,13,-6185,-5727,-1,-1,0
83.87,179.92,-132.76,14,-6186,-5736,-1,-1,0
83.87,179.92,-132.76,17,-6192,-5739,0,-1,0
83.87,179.92,-132.77,15,-6179,-5731,0,0,-1
83.87,179.92,-132.77,5,-6181,-5725,-1,-1,0
83.87,179.92,-132.77,11,-6184,-5729,-1,0,-1
83.87,179.92,-132.77,9,-6178,-5726,-1,-1,0
83.87,179.92,-132.77,14,-6178,-5724,0,-1,0
83.86,179.92,-132.77,14,-6175,-5722,0,-1,0
83.86,179.92,-132.77,7,-6187,-5720,0,-1,0
83.87,179.92,-132.76,6,-6188,-5722,0,0,-1
83.87,179.92,-132.76,-1,-6190,-5719,-1,-1,-1
83.88,179.92,-132.77,9,-6187,-5718,-1,-1,-1
83.87,179.92,-132.78,9,-6186,-5722,-1,-1,0
83.87,179.93,-132.78,9,-6180,-5718,-1,-1,0
83.87,179.93,-132.78,6,-6178,-5722,0,-1,0
83.87,179.93,-132.78,15,-6173,-5725,0,-1,0
83.87,179.93,-132.78,10,-6178,-5729,0,-1,0
83.87,179.93,-132.78,7,-6184,-5732,0,0,0
83.87,179.93,-132.78,4,-6181,-5723,0,0,-1
83.87,179.93,-132.77,8,-6187,-5724,-1,0,-1
83.87,179.93,-132.77,4,-6186,-5720,0,0,-1
83.87,179.93,-132.77,5,-6182,-5714,-1,0,-1
83.87,179.92,-132.78,10,-6175,-5718,-1,-1,0
83.87,179.92,-132.78,12,-6176,-5723,-1,-1,0
83.86,179.93,-132.79,13,-6179,-5729,-1,-1,0
83.87,179.93,-132.78,16,-6182,-5729,0,-1,-1
83.87,179.93,-132.78,16,-6180,-5725,0,0,0
83.87,179.93,-132.77,15,-6181,-5722,0,-1,0
83.87,179.93,-132.78,7,-6180,-5723,-1,-1,0
83.87,179.93,-132.79,4,-6185,-5728,-1,-1,0
83.87,179.93,-132.79,4,-6187,-5732,-1,-1,0
83.86,179.94,-132.79,11,-6187,-5726,0,0,0
83.86,179.93,-132.78,12,-6182,-5735,0,0,0
83.86,179.93,-132.78,12,-6182,-5734,0,0,0
83.85,179.93,-132.78,17,-6186,-5736,0,0,0
83.87,179.92,-132.78,24,-6182,-5735,0,0,-1
83.85,179.92,-132.78,19,-6185,-5742,0,0,0
83.85,179.92,-132.78,17,-6187,-5739,0,0,-1
83.86,179.92,-132.77,14,-6177,-5738,0,0,-1
83.86,179.92,-132.77,13,-6168,-5729,0,0,-1
83.86,179.92,-132.77,12,-6179,-5724,0,-1,-1
83.85,179.91,-132.77,15,-6183,-5732,0,-1,0
83.85,179.91,-132.77,14,-6188,-5727,0,0,-1
83.85,179.91,-132.77,10,-6189,-5739,0,0,0
83.85,179.91,-132.77,16,-6192,-5735,0,0,-1
83.85,179.91,-132.77,11,-6191,-5723,0,-1,0
83.85,179.91,-132.77,9,-6190,-5725,0,-1,0
83.85,179.92,-132.76,8,-6192,-5723,0,-1,0
83.85,179.92,-132.76,10,-6190,-5708,0,0,0
83.85,179.92,-132.76,5,-6183,-5708,0,-1,0
83.85,179.92,-132.76,14,-6193,-5721,0,0,0
83.84,179.91,-132.75,17,-6187,-5717,0,0,0
83.85,179.92,-132.76,7,-6180,-5718,0,0,0
83.85,179.92,-132.76,14,-6179,-5725,-1,-1,-1
83.85,179.92,-132.76,9,-6177,-5730,-1,-1,0
83.85,179.92,-132.76,18,-6178,-5728,0,0,0
83.84,179.92,-132.76,16,-6178,-5721,0,-1,0
83.84,179.92,-132.75,13,-6184,-5715,0,-1,0
83.84,179.92,-132.75,12,-6191,-5721,-1,-1,-1
83.84,179.92,-132.75,12,-6200,-5725,-1,-1,0
83.84,179.92,-132.76,2,-6190,-5732,-1,-1,-1
83.85,179.92,-132.76,2,-6186,-5744,0,-1,-1
83.84,179.92,-132.77,1,-6178,-5727,0,0,-1
83.84,179.92,-132.77,4,-6182,-5721,0,0,0
83.83,179.92,-132.76,11,-6185,-5727,0,-1,0
83.83,179.92,-132.76,12,-6189,-5728,0,0,0
83.83,179.92,-132.75,11,-6189,-5725,0,0,0
83.83,179.93,-132.75,7,-6189,-5718,0,0,0
83.82,179.92,-132.75,8,-6190,-5722,0,0,0
83.82,179.92,-132.75,7,-6198,-5726,0,0,0
83.83,179.93,-132.75,9,-6193,-5726,-1,-1,0
83.83,179.93,-132.75,9,-6190,-5726,-1,-1,0
83.83,179.92,-132.75,11,-6185,-5729,-1,-1,0
83.84,179.93,-132.76,8,-6187,-5731,0,-1,0
83.84,179.93,-132.76,15,-6186,-5733,0,0,-1
83.83,179.92,-132.76,17,-6179,-5729,0,-1,-1
83.84,179.92,-132.76,13,-6189,-5728,0,0,0
83.84,179.93,-132.76,13,-6185,-5716,-1,-1,0
83.84,179.93,-132.77,11,-6183,-5735,-1,-1,0
83.84,179.93,-132.77,8,-6185,-5732,-1,-1,0
83.84,179.93,-132.77,6,-6189,-5735,0,-1,0
83.84,179.93,-132.76,3,-6192,-5735,0,0,-1
83.84,179.93,-132.76,0,-6196,-5726,0,0,-1
83.84,179.93,-132.76,8,-6194,-5735,0,0,0
83.84,179.93,-132.76,11,-6190,-5735,-1,-1,0
83.83,179.93,-132.77,14,-6188,-5726,-1,-1,0
83.83,179.93,-132.77,7,-6183,-5728,-1,0,0
83.83,179.93,-132.77,8,-6187,-5729,-1,0,0
83.83,179.93,-132.77,13,-6189,-5733,-1,0,-1
83.84,179.93,-132.78,12,-6190,-5736,-1,0,0
83.84,179.93,-132.78,8,-6192,-5732,-1,-1,0
83.84,179.93,-132.78,-2,-6189,-5732,-1,0,-1
83.84,179.93,-132.78,8,-6195,-5734,-1,0,0
83.84,179.93,-132.78,8,-6192,-5733,-1,-1,0
83.84,179.93,-132.78,3,-6188,-5734,0,-1,0
83.84,179.93,-132.78,6,-6183,-5740,0,-1,0
83.83,179.94,-132.79,8,-6182,-5735,0,-1,0
83.83,179.94,-132.79,5,-6183,-5736,0,-1,0
83.84,179.94,-132.79,5,-6181,-5734,-1,-1,0
83.84,179.94,-132.79,2,-6181,-5727,0,0,-1
83.84,179.94,-132.79,3,-6182,-5723,0,0,-1
83.84,179.94,-132.79,6,-6177,-5732,0,-1,0
83.84,179.94,-132.79,13,-6179,-5733,0,-1,0
83.84,179.95,-132.79,9,-6179,-5726,0,-1,0
83.84,179.95,-132.79,0,-6185,-5724,0,-1,0
83.84,179.95,-132.79,1,-6191,-5727,0,-1,-1
83.84,179.95,-132.78,6,-6192,-5735,-1,-1,-1
83.84,179.95,-132.79,5,-6194,-5732,-1,-1,-1
83.85,179.95,-132.80,1,-6189,-5734,-1,-1,0
83.85,179.95,-132.80,3,-6183,-5733,-1,0,-1
83.85,179.95,-132.80,6,-6182,-5730,-1,0,-1
83.85,179.95,-132.80,10,-6177,-5741,0,0,-1
83.85,179.95,-132.80,14,-6180,-5740,0,0,0
83.85,179.94,-132.80,10,-6181,-5739,0,0,0
83.85,179.94,-132.80,7,-6181,-5738,0,0,-1
83.84,179.93,-132.80,8,-6179,-5730,0,0,-1
83.84,179.93,-132.80,11,-6185,-5721,0,0,-1
83.84,179.93,-132.80,7,-6184,-5722,-1,0,-1
83.84,179.93,-132.80,13,-6178,-5729,-1,0,0
83.84,179.93,-132.80,10,-6177,-5727,0,-1,0
83.84,179.93,-132.80,14,-6176,-5728,-1,-1,0
83.85,179.93,-132.81,16,-6180,-5731,-1,-1,0
83.85,179.93,-132.81,13,-6183,-5728,-1,-1,0
83.85,179.93,-132.81,12,-6187,-5737,0,-1,-1
83.85,179.93,-132.81,5,-6186,-5731,-1,0,-1
83.83,179.93,-132.81,0,-6176,-5734,-1,-1,0
83.84,179.93,-132.82,4,-6173,-5742,0,0,-1
83.84,179.94,-132.81,8,-6172,-5731,0,-1,0
83.83,179.93,-132.81,13,-6174,-5735,0,0,-1
83.83,179.93,-132.81,19,-6170,-5738,0,0,-1
83.83,179.93,-132.81,19,-6176,-5737,0,0,-1
83.83,179.93,-132.81,18,-6176,-5743,0,0,-1
83.83,179.93,-132.81,17,-6179,-5736,0,0,0
83.82,179.92,-132.80,15,-6180,-5732,0,0,-1
83.83,179.91,-132.81,12,-6183,-5735,0,0,-1
83.83,179.92,-132.80,6,-6183,-5731,0,0,-1
83.82,179.91,-132.79,13,-6179,-5738,0,0,-1
83.82,179.91,-132.80,10,-6175,-5734,0,0,-1
83.82,179.91,-132.80,10,-6169,-5732,0,0,-1
83.82,179.91,-132.80,14,-6173,-5730,0,0,0
83.82,179.91,-132.80,14,-6177,-5738,0,0,-1
83.82,179.91,-132.80,16,-6171,-5743,0,0,0
83.82,179.91,-132.79,13,-6170,-5736,0,0,0
83.82,179.91,-132.79,4,-6175,-5736,0,-1,0
83.82,179.91,-132.79,2,-6180,-5745,0,0,0
83.82,179.91,-132.79,3,-6183,-5728,-1,-1,0
83.82,179.91,-132.79,4,-6181,-5728,-1,-1,0
83.81,179.91,-132.80,9,-6182,-5732,-1,0,0
83.81,179.91,-132.80,9,-6178,-5746,0,0,0
83.81,179.91,-132.80,7,-6180,-5733,0,0,0
83.81,179.91,-132.79,7,-6187,-5719,0,0,-1
83.81,179.91,-132.79,17,-6185,-5708,-1,-1,0
83.82,179.91,-132.79,13,-6184,-5712,-1,-1,-1
83.83,179.92,-132.79,13,-6184,-5725,-1,-1,0
83.82,179.92,-132.80,8,-6179,-5735,-1,-1,-1
83.82,179.92,-132.80,8,-6179,-5734,-1,-1,-1
83.83,179.92,-132.81,9,-6176,-5739,0,-1,0
83.82,179.92,-132.81,9,-6175,-5744,0,0,0
83.82,179.92,-132.81,7,-6177,-5742,0,0,0
83.82,179.92,-132.80,10,-6187,-5738,0,0,0
83.81,179.92,-132.80,5,-6187,-5733,0,0,-1
83.81,179.92,-132.80,6,-6178,-5735,0,0,-1
83.81,179.91,-132.80,9,-6182,-5730,0,0,-1
83.81,179.91,-132.80,8,-6175,-5722,-1,0,0
83.81,179.91,-132.80,5,-6176,-5719,0,0,-1
83.81,179.91,-132.80,10,-6173,-5725,0,-1,0
83.81,179.91,-132.80,16,-6175,-5728,0,-1,0
83.81,179.91,-132.80,16,-6175,-5731,0,-1,-1
83.81,179.91,-132.80,12,-6181,-5733,-1,-1,0
83.82,179.92,-132.81,11,-6179,-5731,-1,-1,0
83.82,179.92,-132.81,14,-6176,-5733,-1,-1,0
83.83,179.92,-132.81,16,-6175,-5733,-1,-1,-1
83.83,179.92,-132.82,14,-6174,-5732,0,0,-1
83.82,179.92,-132.81,14,-6180,-5737,0,-1,0
83.82,179.92,-132.81,20,-6182,-5729,0,-1,0
83.82,179.92,-132.81,16,-6184,-5742,-1,-1,0
83.82,179.91,-132.81,13,-6181,-5743,0,0,-1
83.82,179.91,-132.81,8,-6185,-5745,0,0,-1
83.82,179.91,-132.81,12,-6189,-5744,-1,-1,0
83.82,179.91,-132.81,7,-6185,-5742,0,0,-1
83.82,179.91,-132.81,9,-6179,-5742,-1,-1,0
83.81,179.92,-132.82,8,-6181,-5750,-1,-1,-1
83.81,179.91,-132.82,15,-6175,-5746,-1,-1,-1
83.81,179.91,-132.82,14,-6179,-5743,-1,0,-1
83.81,179.91,-132.83,15,-6181,-5743,0,0,-1
83.82,179.91,-132.83,16,-6181,-5743,0,0,-1
83.82,179.91,-132.83,13,-6175,-5740,0,-1,0
83.82,179.91,-132.83,16,-6178,-5730,-1,-1,0
83.82,179.91,-132.83,16,-6184,-5725,-1,-1,0
83.82,179.91,-132.83,11,-6178,-5733,-1,0,0
83.82,179.91,-132.83,19,-6175,-5733,0,0,-1
83.82,179.91,-132.83,14,-6172,-5743,0,-1,0
83.82,179.91,-132.83,15,-6169,-5727,0,-1,0
83.82,179.91,-132.83,14,-6171,-5727,0,0,-1
83.82,179.91,-132.83,18,-6179,-5733,-1,-1,-1
83.82,179.91,-132.84,15,-6182,-5746,-1,0,-1
83.82,179.90,-132.84,12,-6183,-5742,-1,0,-1
83.83,179.90,-132.85,8,-6175,-5741,-1,-1,-1
83.83,179.90,-132.85,11,-6180,-5733,-1,0,0
83.83,179.90,-132.85,18,-6177,-5738,0,0,0
83.83,179.90,-132.85,16,-6175,-5740,0,-1,0
83.83,179.90,-132.85,17,-6178,-5745,0,-1,0
83.83,179.90,-132.85,10,-6179,-5735,0,0,0
83.83,179.90,-132.85,7,-6174,-5732,0,0,-1
83.82,179.90,-132.84,5,-6179,-5732,0,0,-1
83.82,179.90,-132.84,16,-6178,-5723,0,0,-1
83.82,179.90,-132.84,17,-6177,-5717,-1,-1,0
83.82,179.90,-132.85,17,-6170,-5723,-1,-1,0
83.83,179.90,-132.85,19,-6165,-5724,-1,-1,0
83.83,179.90,-132.85,20,-6173,-5734,0,-1,0
83.83,179.90,-132.85,23,-6180,-5742,-1,0,-1
83.83,179.90,-132.85,17,-6179,-5740,0,-1,0
83.83,179.90,-132.85,9,-6181,-5738,-1,0,-1
83.84,179.90,-132.86,-1,-6177,-5739,-1,-1,-1
83.82,179.91,-132.86,4,-6173,-5752,-1,0,0
83.82,179.90,-132.87,5,-6175,-5756,-1,0,0
83.82,179.90,-132.86,10,-6170,-5751,0,0,-1
83.82,179.91,-132.86,8,-6176,-5740,0,0,0
83.82,179.90,-132.86,6,-6181,-5737,0,-1,0
83.82,179.90,-132.86,8,-6183,-5746,0,0,-1
83.82,179.90,-132.86,11,-6186,-5743,0,0,-1
83.83,179.90,-132.85,14,-6181,-5734,0,0,0
83.82,179.90,-132.85,15,-6178,-5747,0,0,-1
83.82,179.90,-132.85,9,-6174,-5735,0,0,-1
83.82,179.89,-132.84,16,-6175,-5728,0,0,-1
83.82,179.89,-132.84,11,-6168,-5728,0,0,-1
83.81,179.89,-132.84,18,-6174,-5724,0,-1,0
83.81,179.89,-132.84,12,-6170,-5737,0,-1,-1
83.81,179.89,-132.83,12,-6172,-5730,0,-1,0
83.80,179.89,-132.83,19,-6177,-5725,0,0,-1
83.82,179.89,-132.82,19,-6176,-5729,-1,-1,0
83.81,179.90,-132.83,11,-6181,-5737,0,-1,0
83.81,179.90,-132.83,18,-6181,-5740,0,-1,0
83.81,179.90,-132.83,18,-6183,-5743,0,-1,0
83.81,179.90,-132.83,17,-6187,-5744,0,0,-1
83.81,179.90,-132.83,10,-6182,-5735,-1,0,-1
83.81,179.89,-132.83,15,-6174,-5732,-1,0,0
83.81,179.89,-132.83,21,-6178,-5736,0,0,0
83.81,179.90,-132.83,21,-6175,-5743,0,-1,0
83.81,179.90,-132.83,19,-6175,-5737,0,-1,0
83.81,179.90,-132.83,16,-6179,-5727,-1,-1,-1
83.81,179.89,-132.83,20,-6187,-5738,-1,-1,-1
83.81,179.89,-132.83,23,-6181,-5742,-1,-1,-1
83.82,179.89,-132.84,15,-6175,-5743,-1,-1,-1
83.82,179.89,-132.84,13,-6168,-5736,0,-1,-1
83.82,179.89,-132.84,20,-6172,-5741,0,0,-1
83.82,179.89,-132.84,17,-6172,-5748,0,-1,0
83.82,179.89,-132.84,20,-6176,-5747,0,-1,0
83.82,179.89,-132.84,15,-6178,-5747,0,0,0
83.82,179.89,-132.84,14,-6173,-5731,0,0,-1
83.81,179.89,-132.84,12,-6174,-5728,0,0,0
83.81,179.89,-132.83,11,-6176,-5724,0,0,0
83.82,179.90,-132.84,8,-6175,-5732,-1,-1,-1
83.82,179.89,-132.84,17,-6171,-5727,0,-1,0
83.82,179.89,-132.84,17,-6168,-5728,0,-1,0
83.82,179.90,-132.84,13,-6174,-5739,0,-1,0
83.82,179.90,-132.84,9,-6178,-5732,0,-1,0
83.82,179.90,-132.84,14,-6184,-5738,-1,-1,0
83.81,179.90,-132.84,6,-6182,-5730,-1,-1,0
83.81,179.90,-132.84,8,-6173,-5729,-1,-1,0
83.82,179.91,-132.85,6,-6171,-5731,-1,-1,0
83.82,179.91,-132.85,12,-6177,-5732,0,-1,0
83.82,179.91,-132.85,14,-6171,-5738,0,0,-1
83.81,179.90,-132.84,10,-6172,-5734,0,0,0
83.81,179.91,-132.84,15,-6180,-5734,0,0,0
83.81,179.90,-132.84,21,-6184,-5727,-1,0,0
83.81,179.90,-132.84,17,-6185,-5728,-1,0,-1
83.81,179.90,-132.84,15,-6178,-5731,-1,0,0
83.81,179.90,-132.84,14,-6175,-5730,-1,0,0
83.82,179.90,-132.85,9,-6174,-5741,-1,-1,-1
83.82,179.90,-132.86,5,-6171,-5746,-1,0,-1
83.82,179.90,-132.86,18,-6172,-5747,0,0,-1
83.82,179.90,-132.86,17,-6173,-5730,-1,0,0
83.82,179.90,-132.86,11,-6172,-5731,0,-1,0
83.82,179.90,-132.86,15,-6173,-5745,-1,0,0
83.81,179.90,-132.87,11,-6170,-5746,-1,-1,0
83.81,179.90,-132.87,0,-6177,-5749,0,-1,-1
83.81,179.90,-132.87,-6,-6173,-5742,0,0,-1
83.81,179.91,-132.86,0,-6174,-5738,0,0,0
83.81,179.91,-132.86,1,-6173,-5727,0,0,-1
83.81,179.91,-132.86,2,-6177,-5733,-1,-1,0
83.81,179.91,-132.86,3,-6179,-5734,-1,0,0
83.81,179.90,-132.87,8,-6176,-5743,0,0,-1
83.81,179.90,-132.87,18,-6173,-5740,-1,0,-1
83.81,179.90,-132.87,17,-6166,-5744,0,0,0
83.81,179.90,-132.87,22,-6162,-5740,0,-1,0
83.81,179.91,-132.86,16,-6172,-5743,0,-1,0
83.81,179.91,-132.86,12,-6176,-5738,0,-1,0
83.82,179.91,-132.87,12,-6181,-5745,-1,-1,-1
83.82,179.91,-132.87,13,-6185,-5753,-1,0,-1
83.82,179.91,-132.87,12,-6177,-5745,-1,0,0
83.82,179.90,-132.88,16,-6172,-5748,-1,0,-1
83.82,179.91,-132.88,10,-6162,-5745,0,0,-1
83.82,179.90,-132.89,15,-6165,-5751,0,0,-1
83.82,179.90,-132.88,19,-6170,-5748,0,-1,0
83.82,179.90,-132.88,19,-6177,-5743,0,0,0
83.82,179.90,-132.88,13,-6172,-5743,0,0,0
83.82,179.90,-132.88,5,-6170,-5740,0,0,0
83.81,179.90,-132.87,8,-6179,-5729,0,0,-1
83.81,179.89,-132.88,10,-6172,-5735,-1,0,0
83.81,179.89,-132.88,7,-6168,-5735,-1,-1,0
83.80,179.90,-132.88,11,-6169,-5737,-1,-1,0
83.80,179.90,-132.88,9,-6166,-5738,-1,-1,0
83.80,179.90,-132.88,14,-6175,-5743,-1,0,-1
83.80,179.90,-132.88,14,-6183,-5751,0,0,-1
83.80,179.90,-132.88,13,-6178,-5747,-1,0,-1
83.80,179.90,-132.88,7,-6183,-5735,-1,0,0
83.80,179.90,-132.88,6,-6178,-5741,0,0,0
83.80,179.90,-132.88,11,-6166,-5735,-1,-1,0
83.81,179.90,-132.89,12,-6169,-5741,0,0,0
83.80,179.90,-132.88,7,-6166,-5733,0,-1,0
83.80,179.91,-132.88,4,-6173,-5733,0,0,0
83.80,179.91,-132.88,9,-6171,-5732,0,0,-1
83.80,179.90,-132.87,14,-6178,-5735,0,0,-1
83.80,179.90,-132.86,24,-6179,-5724,0,0,-1
83.80,179.89,-132.86,22,-6179,-5727,0,0,-1
83.80,179.89,-132.86,18,-6180,-5729,0,0,0
83.80,179.89,-132.86,16,-6177,-5725,-1,0,0
83.78,179.89,-132.87,9,-6172,-5730,0,0,0
83.78,179.89,-132.86,12,-6172,-5741,0,0,0
83.79,179.90,-132.87,11,-6173,-5744,0,0,0
83.78,179.89,-132.86,13,-6164,-5740,0,0,-1
83.78,179.89,-132.86,14,-6162,-5739,0,0,-1
83.78,179.89,-132.86,16,-6169,-5735,0,0,0
83.78,179.89,-132.86,22,-6170,-5744,0,0,0
83.78,179.89,-132.86,20,-6169,-5745,0,0,0
83.78,179.88,-132.86,18,-6167,-5755,0,0,0
83.78,179.88,-132.86,19,-6170,-5754,0,0,0
83.78,179.88,-132.86,17,-6178,-5747,0,0,-1
83.78,179.88,-132.86,20,-6178,-5745,0,0,0
83.78,179.88,-132.86,20,-6178,-5743,-1,-1,0
83.78,179.88,-132.86,19,-6166,-5736,-1,-1,0
83.78,179.88,-132.87,21,-6164,-5743,-1,0,0
83.78,179.88,-132.87,22,-6167,-5753,0,-1,0
83.78,179.88,-132.86,17,-6171,-5736,0,0,0
83.78,179.88,-132.86,9,-6175,-5738,0,-1,0
83.78,179.88,-132.86,5,-6174,-5738,-1,-1,-1
83.78,179.89,-132.87,8,-6178,-5736,-1,-1,0
83.78,179.89,-132.88,7,-6174,-5738,-1,-1,0
83.78,179.90,-132.88,6,-6166,-5744,-1,-1,0
83.78,179.89,-132.88,5,-6165,-5745,0,0,-1
83.78,179.90,-132.88,10,-6167,-5737,0,0,-1
83.78,179.89,-132.88,14,-6169,-5739,0,0,0
83.78,179.89,-132.88,13,-6164,-5738,0,0,0
83.78,179.89,-132.88,12,-6170,-5745,0,0,0
83.77,179.89,-132.87,13,-6177,-5738,0,0,0
83.77,179.89,-132.87,10,-6183,-5735,0,0,0
83.77,179.89,-132.87,11,-6185,-5739,0,0,0
83.77,179.89,-132.87,20,-6180,-5737,-1,-1,0
83.77,179.89,-132.87,24,-6175,-5730,0,-1,0
83.77,179.89,-132.87,20,-6173,-5734,0,-1,0
83.77,179.89,-132.87,15,-6173,-5742,0,-1,-1
83.77,179.89,-132.87,16,-6177,-5736,0,-1,-1
83.77,179.89,-132.87,19,-6181,-5737,-1,-1,0
83.77,179.89,-132.87,18,-6176,-5738,-1,-1,0
83.78,179.89,-132.88,9,-6166,-5738,-1,-1,0
83.78,179.90,-132.88,10,-6164,-5741,0,0,0
83.78,179.90,-132.88,9,-6167,-5741,0,0,0
83.78,179.89,-132.88,5,-6168,-5745,0,0,0
83.78,179.89,-132.88,12,-6170,-5741,0,-1,0
83.78,179.89,-132.88,12,-6170,-5738,0,0,0
83.78,179.89,-132.87,12,-6172,-5747,0,0,0
83.78,179.89,-132.87,12,-6177,-5751,0,0,0
83.77,179.89,-132.87,18,-6176,-5740,0,0,0
83.76,179.90,-132.88,15,-6172,-5749,0,-1,0
83.76,179.90,-132.88,19,-6174,-5743,-1,-1,0
83.76,179.90,-132.88,15,-6176,-5743,-1,-1,-1
83.76,179.89,-132.88,17,-6170,-5735,-1,0,-1
83.76,179.89,-132.88,19,-6168,-5746,0,0,0
83.76,179.89,-132.88,17,-6169,-5737,-1,0,0
83.77,179.89,-132.89,15,-6163,-5737,0,-1,-1
83.77,179.89,-132.89,10,-6168,-5747,0,-1,0
83.77,179.89,-132.89,20,-6164,-5749,0,-1,0
83.77,179.89,-132.89,17,-6172,-5751,0,0,-1
83.77,179.89,-132.89,11,-6177,-5746,0,0,0
83.77,179.89,-132.89,13,-6175,-5747,0,0,0
83.77,179.90,-132.88,4,-6172,-5740,0,0,0
83.77,179.90,-132.88,8,-6174,-5739,-1,0,-1
83.77,179.89,-132.89,15,-6174,-5743,0,0,-1
83.77,179.89,-132.89,22,-6172,-5752,0,0,0
83.76,179.89,-132.88,16,-6173,-5747,0,0,0
83.76,179.89,-132.88,16,-6177,-5739,0,0,-1
83.76,179.89,-132.88,19,-6174,-5739,-1,-1,-1
83.77,179.88,-132.89,16,-6182,-5748,-1,-1,-1
83.77,179.89,-132.89,18,-6179,-5752,-1,-1,0
83.78,179.89,-132.90,15,-6169,-5757,-1,-1,0
83.77,179.90,-132.91,12,-6165,-5742,0,0,0
83.77,179.89,-132.90,15,-6157,-5742,0,0,0
83.77,179.89,-132.90,18,-6165,-5754,0,0,-1
83.77,179.89,-132.90,11,-6168,-5752,0,0,0
83.77,179.89,-132.90,9,-6178,-5746,0,0,0
83.76,179.89,-132.89,17,-6178,-5731,0,0,0
83.75,179.88,-132.89,17,-6181,-5739,0,0,-1
83.77,179.88,-132.89,22,-6174,-5735,0,-1,0
83.75,179.88,-132.89,21,-6174,-5740,0,0,0
83.75,179.88,-132.89,22,-6167,-5734,-1,-1,0
83.75,179.88,-132.89,23,-6171,-5732,-1,-1,0
83.76,179.89,-132.90,16,-6175,-5738,0,-1,-1
83.77,179.88,-132.90,20,-6180,-5743,0,-1,-1
83.77,179.88,-132.90,12,-6180,-5743,0,-1,0
83.77,179.88,-132.90,6,-6174,-5738,-1,-1,0
83.78,179.89,-132.90,11,-6173,-5740,-1,-1,0
83.77,179.89,-132.90,8,-6172,-5747,-1,-1,0
83.77,179.89,-132.90,10,-6170,-5748,0,-1,0
83.78,179.89,-132.90,14,-6171,-5744,0,0,0
83.77,179.89,-132.89,16,-6174,-5736,0,-1,0
83.77,179.89,-132.89,13,-6174,-5723,0,0,-1
83.76,179.89,-132.88,20,-6175,-5732,0,0,-1
83.77,179.88,-132.89,22,-6176,-5745,-1,0,-1
83.77,179.88,-132.89,20,-6172,-5733,-1,0,-1
83.77,179.88,-132.89,17,-6170,-5726,-1,0,-1
83.77,179.88,-132.89,16,-6166,-5735,0,-1,-1
83.77,179.88,-132.89,12,-6175,-5738,0,-1,0
83.77,179.89,-132.89,8,-6173,-5746,0,-1,0
83.77,179.89,-132.89,10,-6175,-5747,0,-1,0
83.77,179.89,-132.89,11,-6171,-5738,-1,-1,0
83.77,179.89,-132.89,12,-6175,-5740,-1,-1,0
83.77,179.89,-132.89,16,-6174,-5740,0,-1,0
83.77,179.89,-132.89,19,-6170,-5735,0,-1,0
83.77,179.89,-132.89,18,-6172,-5735,0,-1,0
83.77,179.89,-132.89,18,-6167,-5728,-1,-1,0
83.77,179.89,-132.89,15,-6169,-5742,-1,0,-1
83.77,179.89,-132.89,20,-6163,-5742,-1,-1,-1
83.78,179.89,-132.90,21,-6161,-5741,-1,0,0
83.77,179.88,-132.90,27,-6160,-5736,0,0,0
83.77,179.88,-132.90,18,-6159,-5741,0,0,0
83.77,179.89,-132.89,16,-6165,-5736,0,-1,0
83.77,179.89,-132.89,12,-6169,-5748,0,-1,0
83.78,179.89,-132.90,16,-6182,-5750,-1,-1,-1
83.78,179.89,-132.90,16,-6181,-5749,-1,-1,-1
83.79,179.89,-132.91,15,-6171,-5745,-1,-1,-1
83.77,179.89,-132.91,15,-6166,-5747,-1,-1,-1
83.78,179.90,-132.91,13,-6165,-5742,-1,0,-1
83.78,179.89,-132.92,22,-6165,-5747,-1,0,-1
83.78,179.89,-132.92,17,-6166,-5750,0,0,-1
83.78,179.89,-132.92,15,-6169,-5744,0,0,0
83.77,179.89,-132.91,20,-6169,-5739,0,0,0
83.77,179.89,-132.91,22,-6171,-5737,0,0,-1
83.77,179.88,-132.91,21,-6167,-5731,0,0,-1
83.77,179.88,-132.91,20,-6170,-5727,-1,0,0
83.77,179.88,-132.91,21,-6171,-5728,-1,-1,0
83.77,179.88,-132.91,20,-6169,-5743,-1,-1,0
83.77,179.89,-132.91,10,-6169,-5736,-1,-1,0
83.77,179.90,-132.91,15,-6170,-5730,-1,0,0
83.77,179.89,-132.90,18,-6176,-5730,0,-1,0
83.77,179.89,-132.90,18,-6175,-5738,0,0,0
83.77,179.89,-132.90,22,-6170,-5734,-1,-1,0
83.77,179.90,-132.91,12,-6172,-5730,-1,-1,0
83.77,179.90,-132.91,11,-6167,-5739,-1,-1,0
83.78,179.90,-132.91,13,-6167,-5750,0,-1,0
83.78,179.90,-132.91,13,-6175,-5750,0,0,0
83.76,179.90,-132.91,4,-6176,-5750,0,0,0
83.76,179.90,-132.90,7,-6181,-5738,0,0,-1
83.76,179.90,-132.90,4,-6181,-5740,0,0,-1
83.76,179.90,-132.90,9,-6179,-5747,-1,0,-1
83.76,179.90,-132.90,10,-6175,-5751,-1,-1,0
83.76,179.90,-132.90,11,-6175,-5736,-1,-1,-1
83.76,179.90,-132.90,13,-6173,-5741,0,-1,-1
83.76,179.90,-132.90,11,-6175,-5732,0,0,-1
83.77,179.90,-132.90,14,-6171,-5744,-1,-1,0
83.76,179.90,-132.90,13,-6174,-5742,-1,-1,0
83.76,179.90,-132.90,11,-6173,-5739,-1,-1,0
83.77,179.90,-132.90,15,-6177,-5744,0,0,-1
83.77,179.90,-132.90,15,-6178,-5748,0,-1,0
83.77,179.90,-132.90,20,-6172,-5737,-1,-1,0
83.77,179.90,-132.90,21,-6170,-5737,0,-1,0
83.77,179.91,-132.90,13,-6175,-5747,0,-1,0
83.76,179.91,-132.90,8,-6171,-5753,0,-1,0
83.77,179.91,-132.90,6,-6173,-5747,0,0,0
83.77,179.91,-132.90,4,-6172,-5736,0,0,-1
83.77,179.91,-132.90,7,-6173,-5741,-1,-1,0
83.77,179.91,-132.90,11,-6173,-5744,-1,-1,-1
83.77,179.91,-132.89,14,-6171,-5744,-1,-1,0
83.77,179.91,-132.89,19,-6166,-5739,-1,-1,0
83.76,179.92,-132.90,22,-6159,-5747,0,-1,0
83.76,179.92,-132.90,14,-6166,-5745,0,-1,0
83.76,179.92,-132.89,12,-6173,-5728,-1,-1,0
83.76,179.92,-132.89,17,-6178,-5731,-1,-1,-1
83.78,179.92,-132.89,21,-6178,-5734,-1,-1,0
83.77,179.92,-132.90,16,-6169,-5735,-1,-1,0
83.78,179.92,-132.91,13,-6167,-5750,-1,-1,-1
83.76,179.92,-132.90,35,-6170,-5790,1,0,0
83.74,179.91,-132.86,11,-6176,-5750,0,0,-1
83.74,179.90,-132.86,13,-6172,-5750,-1,0,0
83.72,179.90,-132.86,13,-6155,-5708,-1,-1,0
83.74,179.90,-132.88,17,-6165,-5721,-1,-1,0
83.74,179.91,-132.88,14,-6182,-5749,0,-1,0
83.75,179.91,-132.89,12,-6178,-5743,-1,-1,0
83.74,179.92,-132.89,5,-6181,-5744,-1,-1,0
83.75,179.92,-132.90,12,-6179,-5744,-1,-1,-1
83.76,179.92,-132.91,16,-6170,-5741,-1,-1,0
83.76,179.92,-132.91,20,-6168,-5741,-1,-1,0
83.77,179.93,-132.92,15,-6175,-5756,-1,-1,0
83.77,179.93,-132.92,20,-6172,-5767,-1,0,-1
83.76,179.92,-132.91,23,-6174,-5765,0,0,-1
83.76,179.92,-132.91,9,-6166,-5745,0,0,0
83.74,179.92,-132.91,8,-6165,-5748,-1,0,0
83.74,179.92,-132.91,7,-6150,-5722,-1,0,0
83.76,179.92,-132.93,17,-6144,-5727,-1,-1,0
83.76,179.92,-132.94,18,-6150,-5733,-1,-1,0
83.76,179.92,-132.95,19,-6155,-5745,-1,-1,0
83.77,179.93,-132.96,9,-6162,-5768,-1,-1,0
83.76,179.93,-132.97,8,-6162,-5751,-1,0,0
83.76,179.93,-132.97,13,-6160,-5759,-1,0,-1
83.76,179.93,-132.97,11,-6145,-5721,-1,0,-1
83.77,179.92,-133.00,9,-6160,-5747,-1,0,-1
83.77,179.92,-133.02,15,-6165,-5750,-1,0,-1
83.78,179.92,-133.04,14,-6160,-5761,-1,0,-1
83.79,179.92,-133.05,14,-6153,-5750,-1,-1,-1
83.79,179.92,-133.06,10,-6157,-5759,-1,-1,0
83.79,179.92,-133.06,17,-6157,-5767,0,0,-1
83.78,179.91,-133.05,18,-6165,-5774,0,0,-1
83.78,179.90,-133.04,14,-6166,-5772,0,0,-1
83.78,179.90,-133.03,18,-6161,-5773,0,0,-1
83.76,179.89,-133.00,17,-6165,-5776,1,0,-1
83.74,179.88,-132.99,20,-6164,-5746,0,0,-1
83.74,179.86,-132.98,21,-6166,-5731,0,0,-1
83.74,179.86,-132.98,20,-6165,-5724,-1,0,-1
83.74,179.86,-132.98,15,-6164,-5743,-1,0,-1
83.75,179.86,-132.99,12,-6166,-5750,-1,0,-1
83.74,179.86,-132.98,12,-6171,-5733,0,0,-1
83.74,179.86,-132.98,14,-6166,-5732,-1,-1,0
83.74,179.86,-132.98,14,-6161,-5751,0,0,0
83.74,179.86,-132.98,21,-6160,-5759,0,-1,0
83.74,179.86,-132.98,11,-6153,-5743,0,-1,0
83.74,179.86,-132.98,19,-6166,-5750,-1,-1,-1
83.74,179.86,-132.98,19,-6172,-5749,-1,-1,0
83.74,179.86,-132.98,28,-6175,-5752,-1,-1,-1
83.75,179.86,-132.99,21,-6176,-5774,0,0,-1
83.74,179.85,-132.98,20,-6171,-5752,-1,0,-1
83.73,179.84,-132.98,23,-6161,-5739,0,0,-1
83.74,179.84,-132.99,26,-6153,-5732,-1,-1,0
83.75,179.85,-133.00,25,-6154,-5746,-1,-1,0
83.75,179.86,-133.01,22,-6165,-5756,-1,-1,0
83.75,179.86,-133.01,21,-6170,-5761,-1,-1,0
83.75,179.86,-133.01,26,-6181,-5792,0,0,-1
83.73,179.85,-132.98,24,-6188,-5784,1,0,-1
83.72,179.83,-132.95,23,-6175,-5749,0,0,-1
83.71,179.83,-132.95,31,-6157,-5712,-1,0,-1
83.71,179.82,-132.95,24,-6147,-5714,0,-1,-1
83.71,179.82,-132.95,27,-6158,-5727,-1,-1,0
83.72,179.83,-132.96,24,-6165,-5736,-1,-1,0
83.73,179.83,-132.97,30,-6169,-5744,-1,-1,0
83.74,179.84,-132.97,28,-6165,-5740,-1,-1,0
83.74,179.84,-132.99,25,-6162,-5732,-1,-1,0
83.75,179.85,-133.00,32,-6161,-5740,-1,-1,0
83.76,179.86,-133.01,20,-6160,-5752,-1,-1,0
83.77,179.86,-133.01,25,-6162,-5755,-1,-1,0
83.77,179.86,-133.01,25,-6164,-5769,0,-1,0
83.77,179.86,-133.01,30,-6164,-5762,0,-1,0
83.76,179.87,-133.01,21,-6162,-5748,-1,-1,0
83.76,179.87,-133.01,27,-6159,-5742,-1,-1,0
83.76,179.88,-133.01,24,-6161,-5756,-1,-1,0
83.76,179.88,-133.01,22,-6160,-5760,-1,-1,0
83.76,179.88,-133.01,21,-6168,-5759,-1,-1,0
83.76,179.88,-133.01,25,-6172,-5749,-1,-1,0
83.76,179.88,-133.01,21,-6169,-5752,-1,-1,0
83.77,179.88,-133.02,20,-6169,-5748,-1,-1,-1
83.77,179.88,-133.02,21,-6167,-5741,-1,-1,-1
83.76,179.88,-133.01,21,-6163,-5744,-1,0,0
83.76,179.88,-133.01,18,-6162,-5741,0,0,0
83.76,179.88,-133.01,17,-6159,-5752,0,-1,0
83.76,179.88,-133.01,13,-6156,-5752,0,0,-1
83.76,179.88,-133.01,22,-6160,-5750,0,0,0
83.76,179.88,-133.01,22,-6158,-5749,0,-1,-1
83.77,179.87,-133.00,17,-6163,-5740,0,0,-1
83.77,179.87,-133.00,16,-6161,-5752,0,-1,-1
83.77,179.87,-133.00,20,-6164,-5754,0,0,-1
83.76,179.87,-133.00,21,-6164,-5753,0,-1,-1
83.77,179.87,-133.00,17,-6160,-5754,-1,-1,0
83.77,179.87,-133.00,17,-6157,-5751,-1,-1,-1
83.77,179.87,-133.01,20,-6157,-5754,-1,0,-1
83.77,179.87,-133.01,21,-6158,-5764,0,-1,0
83.76,179.88,-133.01,18,-6155,-5758,0,0,0
83.77,179.87,-133.00,17,-6159,-5760,0,0,-1
83.77,179.87,-133.00,16,-6166,-5755,-1,-1,-1
83.77,179.87,-133.00,17,-6168,-5760,-1,-1,0
83.76,179.88,-133.01,14,-6160,-5762,-1,-1,0
83.77,179.88,-133.02,9,-6160,-5759,-1,-1,0
83.77,179.88,-133.02,11,-6159,-5759,-1,0,-1
83.77,179.87,-133.03,23,-6154,-5757,0,0,-1
83.77,179.87,-133.03,27,-6154,-5760,0,0,-1
83.76,179.87,-133.02,26,-6155,-5760,0,-1,0
83.76,179.88,-133.01,21,-6159,-5757,0,-1,0
83.76,179.88,-133.01,21,-6162,-5759,0,0,0
83.76,179.88,-133.01,15,-6160,-5748,-1,0,0
83.76,179.88,-133.01,6,-6160,-5748,-1,0,-1
83.76,179.88,-133.01,17,-6163,-5746,-1,-1,0
83.76,179.88,-133.01,21,-6161,-5743,-1,-1,0
83.76,179.88,-133.01,23,-6157,-5739,-1,-1,0
83.76,179.88,-133.01,19,-6160,-5749,-1,-1,-1
83.76,179.88,-133.01,17,-6161,-5743,-1,-1,-1
83.77,179.88,-133.02,14,-6159,-5750,-1,-1,0
83.77,179.88,-133.01,9,-6159,-5749,-1,-1,0
83.78,179.89,-133.02,5,-6159,-5749,-1,-1,0
83.77,179.89,-133.03,10,-6154,-5747,-1,-1,0
83.77,179.89,-133.03,17,-6159,-5751,0,-1,0
83.77,179.89,-133.03,15,-6156,-5748,0,-1,0
83.77,179.89,-133.03,5,-6149,-5746,0,-1,0
83.77,179.89,-133.03,11,-6159,-5753,0,-1,0
83.77,179.90,-133.02,13,-6160,-5758,0,-1,0
83.77,179.89,-133.03,15,-6159,-5762,0,0,0
83.77,179.89,-133.03,22,-6159,-5761,-1,0,-1
83.76,179.89,-133.02,22,-6155,-5741,-1,0,0
83.77,179.89,-133.03,13,-6161,-5744,-1,-1,0
83.77,179.89,-133.03,17,-6160,-5744,-1,0,-1
83.77,179.89,-133.03,17,-6157,-5752,-1,0,-1
83.77,179.89,-133.03,14,-6155,-5758,-1,0,-1
83.77,179.89,-133.03,20,-6154,-5761,-1,-1,0
83.77,179.89,-133.03,19,-6154,-5764,0,-1,0
83.78,179.89,-133.04,10,-6147,-5760,-1,-1,0
83.78,179.90,-133.03,20,-6158,-5760,0,-1,0
83.77,179.89,-133.03,21,-6157,-5760,0,0,0
83.77,179.89,-133.03,16,-6160,-5755,0,-1,0
83.77,179.89,-133.03,15,-6158,-5752,-1,0,0
83.77,179.89,-133.03,20,-6155,-5749,-1,0,0
83.77,179.89,-133.03,23,-6151,-5759,-1,0,-1
83.77,179.89,-133.03,23,-6154,-5761,0,0,-1
83.76,179.89,-133.03,19,-6156,-5764,0,0,0
83.76,179.89,-133.03,17,-6156,-5763,-1,-1,-1
83.77,179.89,-133.03,16,-6167,-5753,-1,-1,-1
83.77,179.89,-133.03,19,-6165,-5754,-1,-1,-1
83.78,179.89,-133.04,15,-6164,-5750,-1,-1,-1
83.77,179.89,-133.05,10,-6161,-5758,-1,-1,0
83.77,179.89,-133.05,16,-6157,-5754,-1,-1,0
83.77,179.89,-133.05,12,-6145,-5751,-1,-1,0
83.77,179.89,-133.05,12,-6153,-5762,0,-1,0
83.77,179.89,-133.05,13,-6156,-5769,0,-1,0
83.77,179.90,-133.04,2,-6157,-5769,0,0,0
83.77,179.90,-133.04,3,-6160,-5751,0,0,-1
83.76,179.90,-133.04,4,-6167,-5750,0,0,-1
83.76,179.90,-133.04,10,-6172,-5753,-1,0,-1
83.76,179.90,-133.04,7,-6167,-5738,-1,0,0
83.76,179.90,-133.04,7,-6159,-5748,0,-1,-1
83.76,179.90,-133.04,20,-6155,-5755,0,-1,0
83.77,179.90,-133.04,20,-6161,-5756,-1,-1,0
83.76,179.90,-133.04,20,-6165,-5759,-1,-1,0
83.77,179.90,-133.04,16,-6165,-5757,-1,-1,0
83.77,179.90,-133.04,7,-6168,-5750,-1,-1,0
83.77,179.90,-133.04,8,-6160,-5755,-1,-1,0
83.78,179.90,-133.05,8,-6157,-5753,-1,-1,-1
83.78,179.90,-133.05,5,-6147,-5745,-1,0,0
83.78,179.90,-133.05,13,-6142,-5752,0,0,0
83.78,179.90,-133.05,12,-6146,-5759,0,0,0
83.78,179.91,-133.05,8,-6151,-5761,0,-1,0
83.78,179.91,-133.05,7,-6155,-5746,-1,0,-1
83.78,179.91,-133.05,12,-6158,-5758,-1,0,-1
83.78,179.91,-133.05,12,-6163,-5762,0,0,-1
83.78,179.90,-133.05,19,-6160,-5756,-1,0,0
83.77,179.89,-133.05,17,-6159,-5763,-1,0,-1
83.78,179.90,-133.05,20,-6152,-5761,-1,-1,0
83.78,179.90,-133.05,21,-6158,-5752,-1,-1,0
83.78,179.90,-133.05,16,-6151,-5747,0,-1,0
83.78,179.90,-133.05,12,-6156,-5746,-1,-1,0
83.78,179.90,-133.05,11,-6158,-5746,-1,-1,-1
83.78,179.90,-133.05,13,-6153,-5758,-1,-1,0
83.78,179.90,-133.05,16,-6155,-5753,0,-1,-1
83.78,179.91,-133.05,18,-6150,-5752,-1,-1,0
83.78,179.91,-133.05,19,-6150,-5749,0,-1,0
83.78,179.90,-133.06,22,-6151,-5761,0,-1,-1
83.78,179.90,-133.06,17,-6157,-5762,0,-1,0
83.78,179.90,-133.06,16,-6159,-5759,-1,0,-1
83.78,179.90,-133.05,13,-6157,-5751,-1,0,-1
83.78,179.90,-133.05,14,-6158,-5752,-1,0,0
83.78,179.90,-133.05,16,-6161,-5757,-1,-1,-1
83.78,179.90,-133.05,23,-6153,-5769,-1,-1,0
83.78,179.90,-133.05,22,-6150,-5764,0,-1,0
83.78,179.90,-133.05,19,-6156,-5761,0,-1,0
83.78,179.90,-133.05,15,-6165,-5755,-1,-1,0
83.78,179.90,-133.05,16,-6164,-5753,-1,-1,-1
83.78,179.90,-133.05,12,-6167,-5756,-1,0,-1
83.78,179.90,-133.06,15,-6165,-5763,-1,-1,0
83.78,179.90,-133.06,15,-6154,-5750,-1,0,-1
83.78,179.90,-133.06,21,-6156,-5747,-1,-1,0
83.78,179.90,-133.06,21,-6153,-5755,0,0,-1
83.78,179.89,-133.07,23,-6155,-5760,0,-1,0
83.78,179.90,-133.06,9,-6158,-5760,0,0,0
83.77,179.90,-133.06,7,-6153,-5762,0,0,0
83.77,179.90,-133.06,8,-6156,-5753,0,0,-1
83.76,179.90,-133.06,13,-6159,-5754,0,0,0
83.76,179.90,-133.06,17,-6151,-5761,-1,-1,0
83.76,179.89,-133.06,20,-6157,-5757,-1,-1,0
83.77,179.89,-133.07,14,-6150,-5771,-1,-1,0
83.78,179.90,-133.08,12,-6157,-5769,-1,-1,0
83.78,179.90,-133.08,16,-6164,-5772,-1,-1,0
83.78,179.90,-133.08,15,-6166,-5774,-1,0,-1
83.78,179.90,-133.08,15,-6161,-5767,-1,-1,0
83.78,179.90,-133.08,6,-6158,-5760,-1,-1,0
83.78,179.90,-133.08,8,-6156,-5758,-1,-1,0
83.78,179.91,-133.09,10,-6148,-5766,-1,-1,0
83.78,179.91,-133.09,12,-6148,-5770,0,0,0
83.77,179.90,-133.08,20,-6157,-5773,0,0,0
83.77,179.91,-133.08,12,-6162,-5770,0,0,0
83.78,179.90,-133.07,14,-6162,-5755,0,0,0
83.77,179.90,-133.06,14,-6164,-5767,0,0,-1
83.77,179.90,-133.06,15,-6156,-5756,0,-1,0
83.77,179.90,-133.06,12,-6158,-5763,-1,0,-1
83.77,179.90,-133.06,16,-6152,-5759,-1,-1,-1
83.77,179.90,-133.06,5,-6152,-5755,0,0,0
83.77,179.90,-133.06,9,-6163,-5759,0,0,-1
83.77,179.90,-133.06,11,-6162,-5759,0,0,-1
83.76,179.90,-133.06,13,-6162,-5763,-1,-1,-1
83.77,179.90,-133.06,16,-6165,-5763,-1,-1,0
83.76,179.90,-133.06,19,-6162,-5761,0,0,-1
83.76,179.90,-133.06,20,-6156,-5762,0,0,0
83.76,179.90,-133.06,18,-6157,-5758,0,-1,0
83.76,179.90,-133.06,20,-6150,-5758,-1,-1,0
83.76,179.90,-133.06,17,-6154,-5764,0,-1,0
83.76,179.90,-133.06,13,-6153,-5774,0,0,0
83.76,179.90,-133.06,7,-6157,-5772,0,0,0
83.75,179.90,-133.06,11,-6162,-5765,0,0,-1
83.76,179.90,-133.06,13,-6160,-5759,-1,0,0
83.75,179.90,-133.06,11,-6166,-5751,-1,-1,0
83.75,179.90,-133.06,9,-6157,-5747,-1,-1,-1
83.76,179.90,-133.06,11,-6155,-5745,0,-1,0
83.76,179.91,-133.06,12,-6156,-5746,0,-1,0
83.75,179.92,-133.05,8,-6154,-5757,0,-1,0
83.75,179.92,-133.05,12,-6163,-5756,0,-1,0
83.75,179.92,-133.05,12,-6169,-5753,-1,0,-1
83.76,179.91,-133.05,16,-6167,-5755,-1,0,-1
83.76,179.91,-133.06,13,-6166,-5767,-1,-1,0
83.76,179.91,-133.06,14,-6159,-5760,-1,-1,0
83.76,179.91,-133.06,6,-6154,-5763,-1,-1,-1
83.76,179.91,-133.06,7,-6150,-5762,-1,0,-1
83.76,179.91,-133.06,11,-6154,-5770,0,-1,0
83.76,179.92,-133.06,9,-6154,-5764,0,-1,0
83.75,179.92,-133.05,14,-6161,-5765,0,0,0
83.75,179.92,-133.05,14,-6161,-5764,0,0,0
83.75,179.92,-133.05,7,-6158,-5761,-1,0,0
83.75,179.92,-133.05,7,-6168,-5764,-1,-1,0
83.75,179.92,-133.05,8,-6160,-5763,-1,-1,0
83.76,179.92,-133.06,5,-6156,-5755,-1,-1,0
83.76,179.92,-133.06,11,-6156,-5753,-1,-1,0
83.76,179.92,-133.06,13,-6159,-5758,-1,-1,0
83.76,179.92,-133.06,16,-6160,-5761,0,0,-1
83.76,179.92,-133.06,17,-6168,-5759,-1,-1,0
83.76,179.92,-133.06,7,-6161,-5759,-1,-1,0
83.76,179.92,-133.06,11,-6151,-5753,-1,-1,-1
83.75,179.93,-133.07,6,-6150,-5754,-1,-1,0
83.75,179.93,-133.07,11,-6149,-5752,0,-1,0
83.75,179.93,-133.06,10,-6152,-5754,0,-1,0
83.75,179.93,-133.06,10,-6163,-5764,0,-1,0
83.75,179.93,-133.05,8,-6161,-5762,0,0,0
83.75,179.93,-133.05,8,-6157,-5772,-1,-1,0
83.75,179.93,-133.05,19,-6155,-5763,-1,0,-1
83.75,179.92,-133.06,31,-6148,-5769,-1,0,0
83.75,179.92,-133.06,26,-6148,-5763,-1,-1,0
83.75,179.93,-133.07,18,-6146,-5768,-1,-1,0
83.75,179.93,-133.07,-2,-6152,-5780,0,0,0
83.75,179.93,-133.06,-11,-6157,-5772,0,-1,0
83.75,179.94,-133.05,-20,-6159,-5759,0,0,-1
83.75,179.94,-133.05,-12,-6162,-5754,0,0,0
83.75,179.94,-133.05,9,-6163,-5745,-1,-1,0
83.75,179.94,-133.05,21,-6157,-5743,-1,-1,0
83.75,179.95,-133.06,21,-6160,-5755,-1,-1,0
83.75,179.95,-133.07,24,-6166,-5752,-1,-1,0
83.76,179.95,-133.07,18,-6167,-5774,-1,-1,-1
83.77,179.95,-133.08,9,-6173,-5783,-1,0,-1
83.77,179.94,-133.09,5,-6162,-5782,-1,0,-1
83.77,179.94,-133.09,6,-6153,-5771,-1,0,-1
83.76,179.93,-133.09,10,-6142,-5764,0,0,-1
83.76,179.93,-133.09,13,-6139,-5760,0,0,0
83.75,179.93,-133.08,20,-6139,-5761,0,-1,0
83.75,179.93,-133.08,20,-6150,-5768,0,-1,0
83.75,179.93,-133.07,21,-6164,-5776,0,0,0
83.74,179.93,-133.07,9,-6169,-5779,0,0,0
83.74,179.93,-133.07,2,-6172,-5780,0,0,0
83.73,179.92,-133.07,-4,-6163,-5761,-1,0,-1
83.73,179.92,-133.07,0,-6159,-5738,-1,0,-1
83.74,179.91,-133.07,9,-6157,-5747,-1,0,-1
83.74,179.91,-133.08,13,-6154,-5746,-1,-1,-1
83.74,179.91,-133.08,14,-6148,-5748,-1,-1,0
83.75,179.91,-133.09,9,-6139,-5752,-1,-1,0
81.97,-163.19,-114.16,-258,-258,-258,-258,-258,-258
83.76,179.92,-133.09,16,-6149,-5763,0,-1,0
83.76,179.93,-133.09,17,-6159,-5764,0,-1,0
83.75,179.93,-133.09,18,-6165,-5766,0,-1,0
