Yaw,Pitch,Roll,AX,AY,AZ,GX,GY,GZ
-157.28,4.83,-30.13,692,-4143,7118,0,-1,0
-157.28,4.82,-30.12,690,-4139,7125,0,-1,0
-157.28,4.83,-30.12,695,-4144,7139,-1,-1,0
-157.28,4.84,-30.11,694,-4146,7150,0,-1,-1
-157.28,4.84,-30.11,701,-4142,7144,0,-1,-1
-157.28,4.85,-30.10,704,-4123,7146,0,-1,-1
-157.27,4.85,-30.10,706,-4113,7141,-1,-1,0
-157.27,4.86,-30.11,709,-4117,7134,-1,-1,0
-157.28,4.85,-30.11,706,-4140,7130,-1,0,0
-157.28,4.85,-30.11,702,-4142,7125,-1,-1,0
-157.28,4.86,-30.12,690,-4138,7139,-1,-1,0
-157.28,4.86,-30.12,696,-4142,7136,-1,-1,-1
-157.28,4.87,-30.12,708,-4138,7133,-1,-1,-1
-157.28,4.88,-30.12,714,-4136,7128,-1,-1,-1
-157.27,4.88,-30.12,715,-4135,7121,-1,-1,0
-157.27,4.88,-30.12,710,-4144,7121,0,0,-1
-157.27,4.88,-30.12,705,-4140,7133,0,0,0
-157.28,4.87,-30.11,700,-4136,7144,0,0,0
-157.28,4.87,-30.11,699,-4137,7145,-1,0,0
-157.28,4.87,-30.11,699,-4136,7140,0,-1,-1
-157.28,4.87,-30.11,700,-4131,7132,-1,-1,0
-157.27,4.88,-30.11,703,-4121,7138,-1,-1,-1
-157.27,4.88,-30.11,705,-4121,7131,-1,-1,0
-157.27,4.88,-30.12,712,-4131,7129,-1,0,0
-157.27,4.88,-30.12,709,-4144,7133,-1,0,0
-157.27,4.88,-30.12,710,-4139,7134,-1,0,0
-157.28,4.88,-30.12,702,-4149,7128,-1,0,0
-157.28,4.88,-30.12,705,-4147,7125,0,-1,0
-157.28,4.88,-30.12,698,-4142,7123,0,-1,0
-157.27,4.88,-30.12,707,-4128,7127,-1,-1,-1
-157.27,4.88,-30.12,709,-4136,7130,0,-1,0
-157.27,4.89,-30.12,716,-4137,7131,0,-1,0
-157.27,4.89,-30.11,715,-4147,7138,0,0,-1
-157.27,4.89,-30.11,717,-4135,7145,0,0,0
-157.27,4.89,-30.10,713,-4121,7154,0,0,0
-157.27,4.89,-30.11,709,-4121,7133,-1,0,0
-157.27,4.89,-30.11,712,-4124,7122,-1,0,0
-157.27,4.90,-30.11,710,-4132,7118,-1,-1,-1
-157.26,4.90,-30.11,712,-4138,7126,-1,-1,-1
-157.26,4.90,-30.11,716,-4138,7128,-1,-1,-1
-157.26,4.91,-30.12,731,-4145,7134,-1,0,0
-157.26,4.91,-30.12,726,-4142,7129,0,0,0
-157.26,4.90,-30.11,715,-4132,7134,-1,0,0
-157.27,4.89,-30.11,700,-4129,7127,-1,0,0
-157.27,4.88,-30.12,691,-4128,7132,-1,0,0
-157.27,4.88,-30.12,688,-4132,7135,-1,-1,-1
-157.27,4.88,-30.12,690,-4141,7119,0,-1,-1
-157.27,4.89,-30.12,701,-4138,7132,0,-1,-1
-157.27,4.90,-30.12,711,-4134,7134,-1,-1,-1
-157.26,4.91,-30.13,721,-4143,7125,-1,-1,0
-157.26,4.91,-30.13,727,-4144,7118,0,0,0
-157.27,4.91,-30.13,724,-4143,7119,0,0,0
-157.27,4.90,-30.12,721,-4137,7125,0,0,0
-157.27,4.89,-30.12,708,-4130,7140,-1,0,0
-157.27,4.89,-30.12,704,-4136,7137,0,0,0
-157.27,4.89,-30.12,701,-4136,7130,-1,-1,0
-157.27,4.89,-30.12,697,-4143,7128,0,-1,-1
-157.27,4.89,-30.12,702,-4137,7143,0,-1,-1
-157.27,4.90,-30.12,703,-4131,7141,0,-1,-1
-157.27,4.90,-30.12,705,-4129,7132,-1,-1,-1
-157.27,4.90,-30.12,714,-4129,7126,-1,-1,0
-157.27,4.90,-30.12,713,-4131,7136,-1,0,0
-157.27,4.90,-30.12,710,-4131,7140,-1,-1,0
-157.28,4.90,-30.12,705,-4133,7127,0,-1,0
-157.28,4.91,-30.12,707,-4139,7128,-1,-1,0
-157.28,4.91,-30.12,710,-4134,7137,0,0,0
-157.28,4.91,-30.12,714,-4130,7137,-1,0,0
-157.28,4.91,-30.12,716,-4144,7131,-1,-1,0
-157.28,4.91,-30.12,712,-4139,7130,-1,-1,0
-157.28,4.91,-30.12,712,-4137,7128,0,0,0
-157.28,4.91,-30.12,710,-4133,7142,0,0,0
-157.28,4.91,-30.12,710,-4129,7145,-1,-1,0
-157.28,4.91,-30.12,711,-4128,7130,-1,-1,0
-157.28,4.91,-30.12,713,-4131,7141,-1,-1,0
-157.28,4.91,-30.12,712,-4131,7129,-1,-1,0
-157.29,4.92,-30.12,713,-4132,7125,-1,-1,0
-157.29,4.92,-30.13,713,-4136,7120,-1,-1,0
-157.29,4.93,-30.13,717,-4142,7128,-1,-1,0
-157.29,4.93,-30.14,718,-4141,7120,-1,-1,0
-157.29,4.93,-30.14,718,-4136,7128,-1,-1,0
-157.29,4.93,-30.15,712,-4137,7118,-1,-1,0
-157.30,4.93,-30.16,705,-4143,7116,-1,-1,0
-157.30,4.93,-30.16,708,-4158,7125,-1,-1,0
-157.31,4.93,-30.16,709,-4148,7128,0,-1,0
-157.31,4.93,-30.16,701,-4142,7128,0,-1,0
-157.31,4.94,-30.15,701,-4138,7127,0,-1,0
-157.31,4.95,-30.15,712,-4137,7120,0,-1,0
-157.31,4.95,-30.15,731,-4134,7126,-1,0,0
-157.31,4.95,-30.15,727,-4135,7129,-1,0,0
-157.31,4.94,-30.16,716,-4136,7122,-1,0,0
-157.32,4.94,-30.16,724,-4141,7124,-1,0,0
-157.32,4.94,-30.16,728,-4147,7127,0,0,0
-157.32,4.94,-30.16,722,-4148,7138,-1,0,0
-157.32,4.93,-30.17,712,-4145,7118,-1,0,0
-157.32,4.93,-30.18,714,-4140,7122,-1,0,0
-157.32,4.92,-30.18,708,-4135,7122,-1,0,-1
-157.33,4.92,-30.18,705,-4146,7121,-1,0,-1
-157.32,4.92,-30.18,705,-4150,7119,0,-1,-1
-157.32,4.92,-30.17,707,-4152,7121,0,-1,-1
-157.32,4.92,-30.17,705,-4154,7134,0,-1,-1
-157.31,4.93,-30.17,711,-4147,7125,0,-1,-1
-157.31,4.94,-30.16,720,-4148,7122,0,-1,-1
-157.30,4.94,-30.16,727,-4149,7118,0,0,-1
-157.30,4.95,-30.15,728,-4138,7127,0,0,0
-157.30,4.94,-30.14,730,-4135,7131,0,0,0
-157.30,4.94,-30.14,719,-4132,7124,0,0,0
-157.30,4.94,-30.13,714,-4148,7130,0,0,-1
-157.30,4.94,-30.13,715,-4145,7143,0,0,-1
-157.30,4.93,-30.13,703,-4138,7141,0,-1,-1
-157.29,4.94,-30.13,701,-4138,7128,-1,-1,-1
-157.29,4.95,-30.13,709,-4138,7117,0,-1,-1
-157.29,4.95,-30.13,721,-4137,7116,0,0,-1
-157.28,4.95,-30.12,726,-4141,7133,-1,0,-1
-157.28,4.95,-30.12,729,-4145,7137,0,0,-1
-157.28,4.95,-30.12,727,-4141,7130,0,0,0
-157.28,4.95,-30.12,723,-4143,7132,0,0,0
-157.28,4.94,-30.11,718,-4133,7141,-1,0,0
-157.28,4.94,-30.11,701,-4136,7127,-1,0,-1
-157.28,4.94,-30.12,700,-4138,7130,-1,0,-1
-157.28,4.93,-30.11,695,-4134,7114,0,0,-1
-157.27,4.93,-30.11,709,-4131,7120,0,0,-1
-157.26,4.94,-30.11,720,-4131,7122,0,0,-1
-157.26,4.92,-30.10,714,-4134,7134,0,0,-1
-157.25,4.91,-30.10,697,-4140,7112,0,0,-1
-157.25,4.90,-30.09,697,-4136,7156,0,0,0
-157.24,4.89,-30.09,710,-4142,7157,0,0,-1
-157.24,4.88,-30.08,708,-4105,7155,-1,0,0
-157.25,4.88,-30.09,716,-4117,7116,-1,0,0
-157.24,4.87,-30.10,712,-4157,7105,0,0,-1
-157.24,4.86,-30.09,731,-4136,7106,0,0,0
-157.24,4.83,-30.08,667,-4132,7148,0,0,-1
-157.24,4.83,-30.09,723,-4139,7141,-1,0,0
-157.24,4.82,-30.08,662,-4136,7155,-1,-1,-1
-157.25,4.84,-30.10,717,-4166,7118,0,0,-1
-157.23,4.83,-30.10,710,-4156,7113,0,0,-1
-157.23,4.82,-30.09,698,-4134,7105,-1,-1,0
-157.23,4.82,-30.08,705,-4132,7136,0,0,-1
-157.23,4.81,-30.08,716,-4143,7110,0,1,0
-157.23,4.79,-30.06,695,-4139,7171,0,-1,0
-157.23,4.78,-30.06,702,-4119,7144,0,1,-1
-157.24,4.78,-30.06,690,-4128,7146,-2,-1,0
-157.23,4.77,-30.04,689,-4116,7189,0,0,0
-157.24,4.77,-30.07,714,-4120,7084,-1,0,0
-157.24,4.75,-30.05,685,-4080,7186,-2,-1,0
-157.25,4.75,-30.09,719,-4143,7110,0,1,-1
-157.26,4.72,-30.09,666,-4106,7143,-1,0,0
-157.26,4.73,-30.12,664,-4146,7104,-1,-1,-1
-157.27,4.72,-30.12,685,-4130,7145,-2,0,0
-157.26,4.72,-30.14,668,-4155,7123,0,0,-1
-157.27,4.72,-30.14,704,-4152,7168,-1,0,0
-157.28,4.71,-30.16,698,-4158,7119,-1,0,0
-157.29,4.70,-30.15,682,-4113,7131,-2,0,0
-157.29,4.68,-30.17,695,-4189,7124,1,1,0
-157.30,4.68,-30.18,685,-4113,7109,-4,-1,0
-157.30,4.65,-30.16,673,-4154,7149,2,1,-1
-157.32,4.64,-30.19,684,-4159,7079,0,0,0
-157.32,4.64,-30.16,666,-4129,7150,-1,-1,0
-157.31,4.62,-30.16,674,-4134,7140,1,0,0
-157.32,4.62,-30.16,621,-4170,7123,2,-1,-1
-157.31,4.62,-30.16,671,-4166,7115,-1,0,0
-157.32,4.63,-30.15,667,-4120,7125,-1,-1,0
-157.30,4.62,-30.14,653,-4129,7149,-1,0,-1
-157.31,4.63,-30.15,671,-4148,7115,0,-1,0
-157.30,4.62,-30.15,678,-4141,7102,0,0,-1
-157.30,4.63,-30.14,683,-4132,7152,-1,-1,-1
-157.29,4.64,-30.14,655,-4152,7096,0,-1,-1
-157.29,4.66,-30.13,690,-4135,7133,-2,-1,0
-157.29,4.66,-30.13,674,-4133,7124,0,0,-1
-157.29,4.67,-30.12,682,-4129,7185,-2,-2,0
-157.28,4.68,-30.13,664,-4160,7121,1,-1,-1
-157.28,4.69,-30.13,666,-4150,7131,-1,-1,-1
-157.27,4.70,-30.13,662,-4157,7130,0,-1,-1
-157.27,4.72,-30.13,687,-4139,7145,-1,-1,0
-157.27,4.73,-30.13,687,-4152,7141,0,-1,-1
-157.27,4.74,-30.14,686,-4152,7137,-1,-1,0
-157.28,4.75,-30.14,698,-4159,7120,0,-1,0
-157.27,4.75,-30.13,694,-4148,7113,0,-1,0
-157.28,4.75,-30.13,685,-4138,7125,0,-1,0
-157.28,4.75,-30.12,685,-4141,7122,0,-1,0
-157.28,4.75,-30.11,676,-4140,7136,0,-1,0
-157.28,4.76,-30.11,670,-4138,7136,0,-1,0
-157.28,4.76,-30.11,667,-4140,7137,0,-1,0
-157.29,4.76,-30.10,668,-4130,7137,0,-1,-1
-157.28,4.77,-30.09,680,-4120,7136,0,-1,0
-157.28,4.78,-30.10,693,-4125,7118,-1,-1,0
-157.28,4.79,-30.10,702,-4132,7136,0,-1,-1
-157.28,4.79,-30.10,704,-4133,7131,0,0,0
-157.29,4.79,-30.10,684,-4134,7132,-1,-1,0
-157.29,4.79,-30.10,683,-4130,7127,0,-1,-1
-157.29,4.80,-30.10,686,-4128,7127,-1,-1,0
-157.28,4.81,-30.10,696,-4126,7131,-1,-1,-1
-157.28,4.82,-30.11,710,-4130,7135,-1,-1,0
-157.28,4.82,-30.11,709,-4129,7136,-1,0,0
-157.28,4.82,-30.11,700,-4129,7124,-1,0,0
-157.28,4.82,-30.12,695,-4138,7131,-1,-1,0
-157.29,4.82,-30.13,690,-4147,7134,-1,-1,0
-157.29,4.82,-30.13,683,-4143,7134,-1,-1,-1
-157.29,4.82,-30.13,688,-4141,7134,-1,-1,-1
-157.29,4.84,-30.13,697,-4142,7141,0,-1,-1
-157.29,4.84,-30.13,705,-4143,7135,-1,-1,-1
-157.28,4.85,-30.13,713,-4135,7126,0,-1,-1
-157.27,4.86,-30.13,716,-4135,7134,0,-1,-1
-157.28,4.85,-30.12,711,-4122,7130,0,0,0
-157.28,4.85,-30.12,704,-4118,7139,0,0,0
-157.28,4.85,-30.12,697,-4122,7120,0,0,0
-157.28,4.84,-30.12,688,-4137,7133,0,-1,0
-157.28,4.84,-30.12,686,-4142,7142,0,-1,-1
-157.28,4.85,-30.11,682,-4131,7142,-1,-1,-1
-157.28,4.85,-30.11,692,-4129,7138,-1,-1,-1
-157.28,4.86,-30.11,697,-4129,7135,-1,-1,-1
-157.28,4.87,-30.11,706,-4129,7132,-1,-1,-1
-157.28,4.87,-30.11,706,-4126,7131,-1,0,0
-157.28,4.87,-30.11,706,-4122,7129,-1,0,0
-157.28,4.87,-30.12,702,-4135,7130,0,0,0
-157.28,4.87,-30.12,700,-4139,7142,-1,-1,0
-157.28,4.87,-30.12,701,-4138,7132,-1,-1,0
-157.28,4.87,-30.12,696,-4142,7131,-1,-1,-1
-157.28,4.87,-30.13,699,-4141,7125,-1,-1,-1
-157.28,4.87,-30.13,703,-4132,7119,0,-1,-1
-157.28,4.87,-30.13,694,-4141,7123,0,-1,-1
-157.28,4.87,-30.12,695,-4141,7136,0,0,0
-157.28,4.87,-30.12,702,-4140,7139,0,0,0
-157.28,4.87,-30.12,697,-4140,7129,0,0,-1
-157.28,4.88,-30.12,705,-4134,7135,-1,-1,0
-157.28,4.88,-30.12,706,-4138,7129,0,-1,0
-157.28,4.88,-30.12,712,-4129,7129,-1,-1,-1
-157.27,4.88,-30.12,712,-4126,7135,-1,-1,0
-157.27,4.88,-30.12,713,-4136,7121,-1,-1,0
-157.27,4.88,-30.12,714,-4145,7135,0,0,-1
-157.28,4.89,-30.12,711,-4146,7134,-1,-1,0
-157.28,4.89,-30.12,708,-4134,7136,-1,-1,-1
-157.27,4.89,-30.13,707,-4131,7119,-1,-1,-1
-157.27,4.90,-30.13,708,-4131,7116,0,0,-1
-157.27,4.90,-30.13,717,-4140,7125,0,-1,0
-157.27,4.91,-30.13,721,-4144,7125,0,-1,0
-157.27,4.90,-30.12,724,-4142,7133,0,0,0
-157.27,4.90,-30.12,719,-4142,7125,0,-1,0
-157.27,4.91,-30.12,716,-4138,7132,-1,-1,0
-157.27,4.91,-30.11,713,-4133,7134,0,-1,0
-157.27,4.91,-30.11,709,-4131,7137,0,-1,-1
-157.27,4.91,-30.11,710,-4131,7140,-1,-1,-1
-157.27,4.91,-30.12,706,-4131,7141,-1,0,0
-157.27,4.91,-30.12,705,-4135,7126,-1,-1,0
-157.27,4.91,-30.13,705,-4139,7120,-1,-1,-1
-157.27,4.92,-30.12,714,-4139,7131,0,-1,-1
-157.26,4.92,-30.12,724,-4139,7130,0,-1,0
-157.26,4.92,-30.12,728,-4140,7122,0,0,0
-157.27,4.92,-30.12,720,-4134,7124,0,0,0
-157.27,4.92,-30.12,710,-4131,7125,-1,0,0
-157.28,4.91,-30.12,701,-4127,7128,-1,0,0
-157.28,4.91,-30.12,693,-4136,7131,-1,-1,0
-157.28,4.91,-30.12,695,-4142,7137,-1,-1,0
-157.29,4.91,-30.13,706,-4140,7124,-1,-1,0
-157.29,4.92,-30.14,713,-4141,7139,-1,-1,0
-157.28,4.94,-30.14,729,-4151,7130,0,-1,-1
-157.28,4.94,-30.14,741,-4154,7143,0,0,0
-157.28,4.94,-30.13,731,-4142,7133,0,0,0
-157.29,4.93,-30.13,718,-4144,7130,-1,0,0
-157.29,4.93,-30.14,701,-4138,7121,0,0,0
-157.30,4.93,-30.14,698,-4135,7125,-1,-1,0
-157.30,4.93,-30.14,704,-4140,7138,-1,-1,0
-157.30,4.93,-30.14,701,-4138,7147,0,-1,-1
-157.30,4.94,-30.13,706,-4131,7144,-1,-1,0
-157.30,4.94,-30.14,716,-4130,7135,0,-1,0
-157.30,4.94,-30.14,721,-4130,7133,-1,0,0
-157.30,4.94,-30.14,725,-4132,7138,-1,0,0
-157.31,4.93,-30.15,722,-4141,7140,-1,0,0
-157.31,4.93,-30.16,714,-4148,7135,-1,0,0
-157.31,4.93,-30.17,721,-4146,7132,-1,0,0
-157.31,4.92,-30.17,723,-4146,7126,-1,0,0
-157.32,4.92,-30.18,720,-4148,7129,-1,0,0
-157.32,4.92,-30.19,715,-4151,7119,-1,0,0
-157.32,4.92,-30.20,715,-4156,7116,-1,0,0
-157.32,4.91,-30.20,710,-4156,7122,-1,0,0
-157.32,4.91,-30.21,704,-4159,7120,0,0,0
-157.32,4.91,-30.20,715,-4154,7129,0,0,-1
-157.32,4.90,-30.18,706,-4143,7140,0,0,-1
-157.32,4.90,-30.18,705,-4143,7130,0,0,-1
-157.32,4.90,-30.17,704,-4140,7126,0,0,-1
-157.31,4.90,-30.16,697,-4141,7135,0,0,-1
-157.31,4.90,-30.16,704,-4134,7136,0,0,-1
-157.30,4.90,-30.15,696,-4125,7135,0,-1,-1
-157.30,4.90,-30.15,699,-4128,7125,-1,-1,-1
-157.29,4.91,-30.14,707,-4121,7115,0,0,-1
-157.29,4.91,-30.14,723,-4124,7121,0,0,-1
-157.28,4.90,-30.13,707,-4129,7136,0,0,-1
-157.28,4.89,-30.13,703,-4135,7119,0,0,-1
-157.27,4.88,-30.11,700,-4144,7107,1,0,-1
-157.26,4.88,-30.10,694,-4130,7127,0,0,-1
-157.26,4.86,-30.08,686,-4113,7143,-1,0,-1
-157.25,4.86,-30.10,700,-4152,7137,-1,0,-1
-157.25,4.85,-30.09,701,-4139,7159,-1,0,0
-157.25,4.84,-30.12,707,-4161,7089,0,0,-1
-157.24,4.83,-30.10,723,-4166,7128,-1,0,-1
-157.24,4.81,-30.07,710,-4106,7123,0,1,-1
-157.24,4.81,-30.06,716,-4131,7178,-1,-1,0
-157.23,4.81,-30.04,683,-4133,7105,2,1,-1
-157.23,4.79,-30.03,715,-4119,7195,-3,0,0
-157.23,4.78,-30.03,686,-4113,7128,2,0,-1
-157.23,4.78,-30.02,675,-4127,7169,-1,-1,0
-157.23,4.77,-30.02,673,-4113,7091,0,0,-1
-157.22,4.77,-30.01,675,-4089,7170,-2,-1,0
-157.22,4.78,-30.02,695,-4128,7135,0,0,-1
-157.22,4.78,-30.03,688,-4145,7177,-1,0,-1
-157.21,4.77,-30.04,705,-4160,7124,1,0,-1
-157.21,4.76,-30.02,698,-4105,7150,-1,0,0
-157.21,4.75,-30.04,718,-4107,7162,-2,0,0
-157.22,4.74,-30.05,680,-4159,7124,1,0,-1
-157.22,4.72,-30.07,701,-4121,7124,-2,0,0
-157.23,4.72,-30.06,674,-4141,7148,0,-1,0
-157.23,4.73,-30.06,665,-4143,7097,0,0,0
-157.23,4.72,-30.04,666,-4130,7178,0,0,-1
-157.23,4.72,-30.05,674,-4134,7093,0,-1,-1
-157.22,4.73,-30.01,680,-4116,7194,0,-1,-1
-157.22,4.74,-30.03,696,-4121,7101,0,0,-1
-157.21,4.74,-30.00,685,-4103,7149,0,-1,-1
-157.21,4.75,-30.00,710,-4118,7152,0,0,-1
-157.20,4.75,-30.00,703,-4119,7143,-1,0,-1
-157.20,4.73,-29.99,703,-4090,7160,-1,0,-1
-157.20,4.73,-30.00,696,-4106,7158,-1,0,0
-157.21,4.72,-30.02,667,-4140,7120,-1,-1,0
-157.21,4.71,-30.01,687,-4128,7134,1,0,0
-157.21,4.71,-30.02,665,-4149,7116,-1,-1,0
-157.21,4.71,-30.03,665,-4147,7104,0,0,-1
-157.20,4.70,-30.01,695,-4128,7139,1,0,-1
-157.20,4.70,-30.01,680,-4143,7121,-1,-1,0
-157.20,4.70,-29.99,681,-4112,7157,0,-1,-1
-157.20,4.68,-30.00,699,-4131,7087,0,1,-1
-157.19,4.68,-29.97,686,-4116,7215,-3,-1,0
-157.20,4.67,-29.98,689,-4133,7128,2,1,0
-157.19,4.65,-29.97,674,-4119,7122,-1,0,-1
-157.19,4.64,-29.97,651,-4124,7160,-1,-1,0
-157.18,4.62,-29.96,678,-4131,7136,2,2,-1
-157.18,4.62,-29.96,684,-4134,7130,-2,-1,0
-157.17,4.60,-29.93,645,-4105,7152,1,0,-1
-157.17,4.60,-29.92,686,-4070,7191,-2,0,0
-157.16,4.59,-29.93,683,-4105,7142,0,0,-1
-157.17,4.58,-29.93,657,-4086,7153,-1,-1,0
-157.18,4.58,-29.96,668,-4128,7103,-1,0,-1
-157.17,4.56,-29.92,652,-4097,7183,0,0,0
-157.18,4.55,-29.96,670,-4151,7115,-1,1,-1
-157.16,4.54,-29.93,656,-4134,7140,-1,0,-1
-157.16,4.52,-29.90,668,-4121,7181,1,0,0
-157.16,4.52,-29.91,658,-4113,7124,0,0,0
-157.17,4.50,-29.88,646,-4074,7182,-2,0,0
-157.18,4.49,-29.91,651,-4121,7137,0,0,0
-157.18,4.48,-29.89,661,-4107,7143,1,1,0
-157.19,4.46,-29.91,654,-4119,7120,-1,0,0
-157.18,4.45,-29.89,636,-4138,7129,1,0,0
-157.19,4.43,-29.88,633,-4103,7162,-2,0,-1
-157.18,4.42,-29.89,634,-4131,7164,0,0,0
-157.19,4.42,-29.86,647,-4124,7188,0,-1,0
-157.18,4.41,-29.86,645,-4091,7133,0,0,-1
-157.19,4.40,-29.86,640,-4085,7135,-2,-1,0
-157.19,4.38,-29.83,634,-4103,7166,1,1,0
-157.20,4.37,-29.84,658,-4093,7151,-1,0,0
-157.21,4.35,-29.84,627,-4135,7158,0,0,-1
-157.21,4.34,-29.82,635,-4117,7156,-1,0,0
-157.20,4.30,-29.81,610,-4112,7172,0,0,-1
-157.20,4.29,-29.79,621,-4108,7194,0,0,0
-157.19,4.28,-29.80,622,-4115,7144,1,1,-1
-157.19,4.28,-29.77,627,-4115,7132,0,0,0
-157.18,4.25,-29.74,614,-4072,7182,-1,0,0
-157.18,4.23,-29.75,604,-4100,7170,0,0,-1
-157.17,4.23,-29.73,612,-4094,7181,-1,-1,0
-157.18,4.22,-29.73,617,-4113,7142,1,1,-1
-157.18,4.20,-29.71,614,-4078,7217,-2,0,0
-157.18,4.18,-29.71,618,-4087,7155,1,0,-1
-157.19,4.17,-29.71,604,-4080,7161,-1,-1,0
-157.19,4.16,-29.70,602,-4090,7176,0,0,-1
-157.19,4.14,-29.71,594,-4108,7170,-1,0,0
-157.19,4.13,-29.70,627,-4074,7204,-2,0,0
-157.20,4.12,-29.72,612,-4104,7147,0,0,0
-157.21,4.09,-29.71,603,-4103,7207,-1,0,0
-157.22,4.08,-29.71,601,-4085,7157,1,0,0
-157.23,4.07,-29.71,589,-4098,7192,-1,-1,0
-157.24,4.06,-29.71,607,-4079,7136,-1,1,0
-157.24,4.04,-29.69,581,-4074,7199,0,0,0
-157.26,4.03,-29.71,582,-4085,7151,0,0,0
-157.27,4.02,-29.70,565,-4066,7169,-2,-1,0
-157.28,4.01,-29.70,572,-4072,7204,0,-1,0
-157.30,4.01,-29.72,593,-4097,7167,0,0,0
-157.30,4.00,-29.73,588,-4099,7154,-1,0,0
-157.32,3.97,-29.72,580,-4084,7174,0,0,0
-157.33,3.97,-29.73,569,-4087,7163,-1,-1,0
-157.34,3.96,-29.74,588,-4088,7156,-1,0,0
-157.35,3.94,-29.75,563,-4106,7181,0,0,0
-157.36,3.93,-29.76,577,-4102,7159,-1,0,0
-157.37,3.91,-29.75,562,-4085,7200,-1,0,0
-157.40,3.90,-29.78,565,-4113,7158,-1,0,0
-157.41,3.89,-29.78,569,-4104,7193,-1,0,0
-157.42,3.88,-29.79,568,-4096,7163,-1,0,0
-157.43,3.87,-29.80,563,-4102,7179,-1,0,0
-157.44,3.86,-29.81,570,-4094,7145,-1,0,0
-157.45,3.84,-29.82,547,-4101,7185,-1,-1,0
-157.48,3.84,-29.84,558,-4098,7173,-1,-1,0
-157.50,3.83,-29.85,588,-4108,7183,-1,0,0
-157.52,3.81,-29.87,568,-4106,7160,-1,0,0
-157.54,3.79,-29.89,569,-4102,7167,-2,0,0
-157.57,3.77,-29.91,549,-4095,7158,-1,0,0
-157.60,3.75,-29.93,548,-4106,7170,-2,0,1
-157.63,3.73,-29.97,538,-4126,7138,-1,0,0
-157.65,3.70,-29.98,544,-4127,7150,-1,1,0
-157.68,3.67,-30.01,537,-4129,7149,-1,0,0
-157.70,3.65,-30.03,528,-4134,7152,-1,-1,0
-157.72,3.64,-30.05,539,-4141,7123,-1,0,0
-157.75,3.62,-30.06,540,-4164,7147,-1,0,0
-157.77,3.60,-30.06,555,-4141,7140,0,1,1
-157.81,3.56,-30.07,540,-4142,7147,-1,1,1
-157.84,3.51,-30.06,521,-4122,7164,0,0,1
-157.89,3.48,-30.08,526,-4148,7152,-1,0,1
-157.92,3.44,-30.08,512,-4149,7142,0,1,1
-157.96,3.39,-30.08,508,-4127,7126,0,1,1
-157.99,3.33,-30.07,468,-4094,7165,-1,0,1
-158.04,3.30,-30.09,467,-4130,7141,-1,0,1
-158.07,3.27,-30.10,440,-4147,7138,0,0,0
-158.09,3.25,-30.09,469,-4121,7171,-1,0,0
-158.11,3.23,-30.11,460,-4154,7144,0,0,0
-158.14,3.20,-30.11,456,-4140,7140,-1,0,0
-158.16,3.18,-30.10,479,-4135,7152,0,0,0
-158.17,3.15,-30.10,465,-4128,7137,-1,0,0
-158.20,3.12,-30.10,437,-4130,7127,0,0,0
-158.21,3.10,-30.09,411,-4141,7118,0,0,0
-158.21,3.08,-30.06,403,-4119,7114,0,0,-1
-158.18,3.08,-30.02,410,-4109,7094,1,0,-1
-158.16,3.08,-29.98,449,-4124,7115,1,0,-1
-158.14,3.07,-29.94,458,-4155,7134,1,0,-1
-158.12,3.06,-29.89,450,-4143,7139,2,1,-1
-158.09,3.04,-29.83,451,-4118,7164,1,1,-1
-158.07,3.02,-29.79,438,-4127,7186,1,1,-1
-158.06,3.01,-29.75,414,-4115,7203,1,0,-1
-158.04,3.00,-29.71,408,-4085,7200,1,0,-1
-158.03,3.01,-29.69,421,-4055,7183,0,0,-1
-158.02,3.01,-29.68,433,-4081,7178,0,0,-1
-158.01,3.02,-29.66,444,-4091,7181,0,0,-1
-158.00,3.02,-29.65,452,-4076,7175,0,0,-1
-157.99,3.02,-29.64,462,-4087,7170,0,0,-1
-157.99,3.00,-29.63,453,-4108,7183,0,0,-1
-157.97,3.00,-29.61,450,-4094,7193,0,0,-1
-157.97,2.99,-29.60,438,-4091,7201,0,0,-1
-157.96,2.98,-29.59,430,-4092,7194,0,0,-1
-157.95,2.98,-29.57,423,-4090,7187,0,0,-1
-157.94,2.97,-29.55,422,-4075,7197,0,0,-1
-157.92,2.97,-29.54,433,-4069,7201,0,0,-1
-157.92,2.97,-29.52,445,-4079,7198,0,0,-1
-157.91,2.96,-29.51,441,-4079,7197,0,0,-1
-157.90,2.95,-29.50,435,-4063,7207,0,0,0
-157.90,2.94,-29.48,419,-4058,7213,-1,0,0
-157.91,2.93,-29.49,422,-4064,7200,0,0,0
-157.90,2.93,-29.49,427,-4065,7200,0,0,-1
-157.89,2.92,-29.48,427,-4056,7210,0,0,-1
-157.89,2.92,-29.47,418,-4053,7208,-1,-1,-1
-157.89,2.93,-29.48,440,-4065,7196,-1,0,-1
-157.88,2.92,-29.47,435,-4068,7211,0,0,-1
-157.87,2.91,-29.48,423,-4076,7201,-1,0,-1
-157.87,2.90,-29.49,406,-4072,7177,-1,0,-1
-157.87,2.90,-29.48,406,-4077,7180,0,0,-1
-157.86,2.89,-29.48,401,-4078,7190,0,0,-1
-157.85,2.90,-29.47,394,-4069,7202,0,-1,-1
-157.85,2.91,-29.47,400,-4064,7192,0,-1,-1
-157.84,2.92,-29.47,423,-4072,7191,0,-1,-1
-157.82,2.94,-29.47,436,-4084,7196,0,-1,-1
-157.81,2.95,-29.46,442,-4074,7192,0,-1,-1
-157.80,2.96,-29.45,448,-4062,7191,0,0,-1
-157.79,2.97,-29.44,456,-4058,7208,0,0,-1
-157.78,2.96,-29.44,450,-4056,7198,0,0,-1
-157.77,2.96,-29.42,438,-4066,7199,0,0,-1
-157.77,2.96,-29.42,427,-4068,7196,0,0,-1
-157.76,2.95,-29.40,429,-4066,7204,0,0,-1
-157.75,2.95,-29.39,425,-4057,7206,0,0,-1
-157.74,2.95,-29.38,419,-4046,7191,0,0,-1
-157.73,2.95,-29.37,419,-4045,7191,0,0,-1
-157.72,2.95,-29.36,424,-4044,7192,0,0,-1
-157.71,2.95,-29.35,430,-4041,7198,0,-1,-1
-157.70,2.96,-29.34,428,-4055,7195,0,0,-1
-157.70,2.96,-29.33,436,-4048,7209,0,0,-1
-157.69,2.97,-29.32,435,-4043,7207,0,-1,-1
-157.68,2.98,-29.32,432,-4044,7197,0,-1,-1
-157.68,2.97,-29.31,441,-4055,7196,0,0,-1
-157.67,2.98,-29.30,444,-4045,7210,0,0,-1
-157.66,2.98,-29.29,438,-4041,7210,0,0,-1
-157.66,2.98,-29.28,433,-4037,7201,0,-1,0
-157.65,2.97,-29.27,432,-4037,7201,0,0,-1
-157.65,2.96,-29.26,425,-4031,7196,0,0,-1
-157.64,2.95,-29.24,424,-4026,7220,0,0,-1
-157.63,2.95,-29.22,423,-4023,7226,0,0,-1
-157.62,2.95,-29.22,424,-4020,7218,0,0,-1
-157.62,2.95,-29.22,429,-4031,7204,-1,0,-1
-157.62,2.96,-29.22,421,-4029,7197,0,-1,-1
-157.62,2.96,-29.22,433,-4028,7216,-1,0,-1
-157.62,2.96,-29.22,435,-4022,7216,-1,0,-1
-157.61,2.96,-29.22,425,-4023,7208,-1,0,-1
-157.61,2.97,-29.23,426,-4044,7209,-1,-1,-1
-157.60,2.97,-29.23,432,-4048,7221,0,0,-1
-157.60,2.97,-29.22,430,-4044,7214,0,0,-1
-157.59,2.97,-29.21,429,-4035,7220,0,-1,-1
-157.59,2.97,-29.21,435,-4030,7210,0,0,-1
-157.58,2.98,-29.20,436,-4025,7207,0,0,-1
-157.58,2.98,-29.20,438,-4034,7211,0,0,-1
-157.57,2.98,-29.19,437,-4021,7218,0,0,-1
-157.57,2.98,-29.19,439,-4022,7222,0,0,-1
-157.56,2.98,-29.19,434,-4025,7236,-1,0,-1
-157.56,2.98,-29.19,432,-4032,7226,-1,0,-1
-157.56,2.98,-29.19,434,-4032,7224,-1,0,-1
-157.55,2.98,-29.20,429,-4032,7214,0,0,-1
-157.54,2.98,-29.19,422,-4023,7209,0,-1,-1
-157.53,2.99,-29.19,435,-4029,7202,0,0,-1
-157.53,2.99,-29.18,436,-4029,7218,0,0,-1
-157.52,2.99,-29.17,447,-4026,7227,0,0,-1
-157.52,2.99,-29.17,445,-4023,7224,0,0,0
-157.52,2.99,-29.17,438,-4020,7214,0,0,0
-157.53,2.98,-29.16,436,-4020,7213,-1,0,0
-157.53,2.97,-29.16,421,-4020,7219,-1,0,-1
-157.52,2.96,-29.16,408,-4017,7218,0,0,-1
-157.52,2.96,-29.16,404,-4020,7222,0,-1,-1
-157.51,2.97,-29.16,414,-4025,7221,-1,-1,-1
-157.51,2.98,-29.15,424,-4029,7219,0,-1,-1
-157.50,2.98,-29.15,436,-4022,7231,-1,-1,-1
-157.50,2.99,-29.14,449,-4023,7217,0,0,-1
-157.50,2.98,-29.15,449,-4027,7209,0,0,0
-157.50,2.98,-29.14,441,-4034,7211,0,0,0
-157.50,2.97,-29.14,432,-4020,7207,0,0,0
-157.50,2.96,-29.13,422,-4021,7213,0,0,0
-157.49,2.96,-29.12,412,-4026,7220,0,0,-1
-157.49,2.96,-29.11,414,-4025,7226,0,0,-1
-157.49,2.96,-29.11,411,-4015,7228,0,-1,-1
-157.49,2.96,-29.10,416,-4016,7217,0,-1,-1
-157.49,2.96,-29.10,425,-4018,7213,0,-1,-1
-157.48,2.96,-29.09,432,-4010,7221,0,0,0
-157.48,2.96,-29.09,437,-4006,7213,0,0,0
-157.49,2.96,-29.09,433,-4017,7218,-1,0,0
-157.48,2.96,-29.09,439,-4024,7227,0,0,-1
-157.48,2.95,-29.09,422,-4020,7225,0,0,0
-157.48,2.95,-29.09,416,-4016,7222,0,-1,-1
-157.48,2.95,-29.09,418,-4017,7217,0,0,-1
-157.48,2.96,-29.09,428,-4013,7222,-1,0,-1
-157.48,2.96,-29.09,432,-4010,7229,-1,0,-1
-157.48,2.96,-29.09,428,-4013,7218,0,0,0
-157.48,2.96,-29.09,433,-4023,7220,0,0,0
-157.47,2.95,-29.08,439,-4021,7227,0,0,-1
-157.47,2.96,-29.08,436,-4016,7229,0,0,-1
-157.47,2.95,-29.08,426,-4019,7224,-1,0,-1
-157.47,2.95,-29.08,424,-4024,7224,0,0,-1
-157.46,2.96,-29.08,426,-4017,7232,0,0,-1
-157.46,2.96,-29.07,430,-4006,7229,-1,0,-1
-157.46,2.96,-29.08,433,-4014,7224,-1,0,-1
-157.46,2.95,-29.08,433,-4017,7225,0,0,-1
-157.46,2.95,-29.08,432,-4016,7222,0,0,-1
-157.45,2.95,-29.07,427,-4014,7218,0,0,-1
-157.46,2.95,-29.07,425,-4009,7215,-1,0,0
-157.46,2.95,-29.07,423,-4013,7219,0,0,-1
-157.46,2.95,-29.07,434,-4015,7217,0,0,-1
-157.45,2.95,-29.07,433,-4024,7231,0,0,-1
-157.44,2.95,-29.07,428,-4019,7229,0,0,-1
-157.44,2.95,-29.06,419,-4014,7223,0,0,-1
-157.44,2.95,-29.06,423,-4011,7213,0,0,-1
-157.43,2.95,-29.05,426,-4006,7217,0,0,-1
-157.43,2.95,-29.05,427,-4007,7227,-1,-1,0
-157.43,2.95,-29.06,432,-4007,7229,-1,-1,0
-157.43,2.95,-29.05,429,-4008,7230,-1,0,0
-157.43,2.95,-29.05,430,-4011,7234,0,0,0
-157.43,2.95,-29.05,423,-4007,7231,-1,0,0
-157.43,2.95,-29.05,419,-4011,7221,-1,-1,0
-157.43,2.95,-29.05,427,-4017,7231,0,0,-1
-157.43,2.95,-29.05,421,-4010,7223,0,0,0
-157.43,2.95,-29.05,412,-4010,7225,-1,-1,0
-157.43,2.95,-29.05,412,-4021,7213,0,-1,-1
-157.43,2.95,-29.05,424,-4021,7221,0,-1,-1
-157.43,2.95,-29.04,438,-4020,7222,0,0,0
-157.43,2.95,-29.04,442,-4008,7227,0,0,-1
-157.43,2.95,-29.04,430,-3996,7230,-1,0,0
-157.43,2.94,-29.04,421,-3991,7218,-1,0,0
-157.44,2.93,-29.04,413,-3986,7219,-1,0,0
-157.44,2.93,-29.05,403,-4006,7220,-1,0,0
-157.44,2.93,-29.06,403,-4016,7227,-1,-1,-1
-157.43,2.93,-29.06,413,-4021,7224,-1,-1,-1
-157.43,2.94,-29.06,416,-4023,7231,-1,-1,-1
-157.43,2.95,-29.06,426,-4027,7226,-1,-1,-1
-157.42,2.96,-29.06,439,-4025,7221,0,0,-1
-157.42,2.96,-29.06,453,-4019,7229,0,0,0
-157.42,2.96,-29.05,443,-4011,7227,0,0,0
-157.42,2.95,-29.04,441,-4006,7232,0,0,0
-157.42,2.94,-29.04,428,-4008,7230,0,0,0
-157.42,2.93,-29.03,419,-4005,7236,-1,0,-1
-157.41,2.93,-29.04,415,-4010,7237,-1,-1,-1
-157.42,2.94,-29.04,414,-4012,7229,-1,-1,-1
-157.41,2.94,-29.04,424,-4007,7228,0,-1,-1
-157.41,2.95,-29.04,432,-4005,7231,0,-1,-1
-157.41,2.96,-29.04,442,-4004,7234,-1,0,0
-157.40,2.95,-29.04,439,-4004,7227,-1,0,0
-157.41,2.95,-29.04,431,-4018,7223,-1,0,-1
-157.41,2.94,-29.05,423,-4022,7213,0,0,-1
-157.41,2.94,-29.05,419,-4020,7223,0,0,-1
-157.41,2.94,-29.04,426,-4017,7230,0,-1,-1
-157.40,2.95,-29.04,429,-4015,7236,0,0,-1
-157.40,2.95,-29.04,434,-4009,7222,-1,0,-1
-157.40,2.95,-29.04,432,-3998,7219,-1,0,-1
-157.40,2.95,-29.04,434,-3992,7207,-1,0,0
-157.40,2.95,-29.04,435,-4013,7211,0,0,-1
-157.39,2.95,-29.03,434,-4009,7238,0,0,-1
-157.39,2.95,-29.03,417,-4015,7236,0,-1,-1
-157.39,2.95,-29.03,420,-4015,7233,-1,-1,-1
-157.39,2.96,-29.03,432,-4010,7222,0,-1,-1
-157.38,2.96,-29.03,432,-4003,7223,-1,0,-1
-157.38,2.96,-29.03,431,-4001,7212,-1,0,-1
-157.38,2.96,-29.03,438,-4001,7220,0,0,0
-157.38,2.96,-29.03,439,-4014,7218,0,0,0
-157.38,2.96,-29.03,440,-4016,7229,0,0,0
-157.38,2.96,-29.03,433,-4019,7235,-1,0,-1
-157.38,2.96,-29.03,430,-4014,7217,-1,0,-1
-157.38,2.96,-29.03,425,-4017,7220,0,0,-1
-157.37,2.96,-29.03,429,-4012,7221,0,0,-1
-157.37,2.96,-29.03,434,-4003,7216,-1,-1,0
-157.37,2.97,-29.03,439,-4003,7225,-1,-1,0
-157.37,2.97,-29.03,436,-4009,7222,-1,0,-1
-157.37,2.97,-29.03,440,-4002,7209,0,0,0
-157.37,2.97,-29.03,432,-3995,7222,-1,0,0
-157.37,2.96,-29.03,428,-4004,7230,-1,0,-1
-157.37,2.96,-29.02,428,-4003,7240,0,0,0
-157.37,2.97,-29.02,435,-3995,7242,-1,-1,-1
-157.37,2.97,-29.03,434,-4001,7240,-1,0,-1
-157.37,2.97,-29.03,429,-4011,7217,-1,-1,0
-157.37,2.97,-29.03,426,-4034,7226,0,-1,-1
-157.37,2.98,-29.03,432,-4025,7224,0,-1,-1
-157.37,2.98,-29.02,431,-4015,7230,0,-1,0
-157.37,2.98,-29.02,438,-4008,7233,0,0,-1
-157.37,2.98,-29.02,439,-4002,7219,0,0,0
-157.36,2.98,-29.01,436,-3994,7221,-1,0,0
-157.36,2.98,-29.02,425,-3995,7222,-1,0,0
-157.37,2.97,-29.02,422,-3996,7217,-1,0,0
-157.37,2.97,-29.02,415,-4007,7226,0,-1,-1
-157.36,2.98,-29.02,420,-4010,7239,-1,-1,-1
-157.36,2.98,-29.02,433,-4014,7236,-1,-1,-1
-157.36,2.98,-29.02,444,-4018,7226,-1,-1,-1
-157.36,2.99,-29.03,448,-4009,7224,-1,0,-1
-157.36,2.99,-29.03,458,-4008,7224,-1,0,-1
-157.36,2.99,-29.03,453,-4010,7217,0,0,0
-157.36,2.99,-29.03,443,-4009,7211,-1,0,0
-157.37,2.98,-29.03,431,-4013,7210,0,0,0
-157.37,2.98,-29.03,421,-4014,7226,0,-1,0
-157.37,2.98,-29.03,416,-4014,7230,-1,-1,0
-157.37,2.98,-29.03,416,-4008,7221,0,-1,-1
-157.36,2.98,-29.02,422,-4007,7219,0,-1,-1
-157.36,2.98,-29.02,427,-3997,7224,0,-1,-1
-157.36,2.98,-29.02,431,-3985,7234,-1,-1,-1
-157.36,2.99,-29.01,437,-3997,7231,-1,-1,0
-157.36,2.99,-29.02,437,-4013,7231,-1,0,-1
-157.35,2.99,-29.02,437,-4008,7225,0,0,0
-157.35,2.99,-29.02,428,-4002,7227,-1,-1,0
-157.36,2.99,-29.02,429,-4000,7220,-1,-1,-1
-157.36,2.99,-29.03,432,-4010,7211,0,0,-1
-157.36,2.99,-29.03,432,-4008,7225,-1,0,0
-157.36,2.99,-29.03,434,-4013,7222,-1,-1,0
-157.36,2.99,-29.03,431,-4007,7227,0,0,0
-157.36,2.99,-29.03,430,-4013,7232,0,0,0
-157.35,2.99,-29.02,433,-4012,7234,0,0,0
-157.35,2.99,-29.02,431,-4008,7224,-1,0,-1
-157.35,2.99,-29.02,431,-4009,7225,0,0,-1
-157.35,3.00,-29.02,439,-4004,7223,-1,-1,-1
-157.35,3.00,-29.02,440,-4004,7230,-1,0,-1
-157.35,3.00,-29.02,442,-4004,7230,-1,0,-1
-157.35,3.00,-29.02,436,-4004,7218,-1,0,-1
-157.35,3.00,-29.03,442,-4009,7219,-1,0,0
-157.35,3.00,-29.03,438,-4010,7222,-1,0,-1
-157.35,3.00,-29.03,439,-4008,7220,-1,0,0
-157.35,3.00,-29.03,438,-4014,7226,0,-1,0
-157.35,3.00,-29.03,434,-4015,7234,-1,-1,-1
-157.35,3.00,-29.03,436,-4006,7230,0,-1,-1
-157.35,3.00,-29.03,437,-4002,7233,0,-1,0
-157.34,3.01,-29.03,442,-4010,7233,0,0,-1
-157.34,3.01,-29.02,443,-4003,7229,0,0,0
-157.35,3.00,-29.02,433,-3999,7223,-1,0,0
-157.35,3.00,-29.02,431,-4001,7225,-1,-1,-1
-157.34,3.01,-29.02,435,-4001,7223,0,-1,-1
-157.34,3.01,-29.02,441,-4001,7227,0,-1,-1
-157.34,3.01,-29.02,435,-4003,7228,0,0,0
-157.34,3.01,-29.01,435,-3995,7229,0,0,0
-157.34,3.01,-29.01,427,-3997,7230,-1,0,0
-157.35,3.00,-29.01,420,-3992,7234,-1,0,0
-157.35,2.99,-29.02,416,-3998,7225,-1,-1,-1
-157.35,3.00,-29.02,417,-4012,7227,-1,-1,-1
-157.34,3.01,-29.03,429,-4023,7237,0,-1,-1
-157.34,3.02,-29.02,442,-4023,7237,0,-1,-1
-157.34,3.02,-29.02,447,-4011,7238,0,0,-1
-157.34,3.02,-29.02,461,-4013,7235,0,0,0
-157.34,3.02,-29.02,459,-4000,7230,0,0,0
-157.34,3.01,-29.01,452,-3998,7221,0,0,0
-157.34,3.00,-29.01,435,-3997,7231,-1,0,0
-157.34,2.99,-29.01,430,-3998,7231,0,0,0
-157.34,2.99,-29.02,430,-4001,7230,-1,-1,-1
-157.34,3.00,-29.02,431,-4014,7223,-1,-1,0
-157.34,3.00,-29.03,446,-4021,7224,-1,-1,-1
-157.34,3.00,-29.03,439,-4019,7226,0,0,-1
-157.34,3.00,-29.03,432,-4013,7214,-1,0,-1
-157.33,3.00,-29.03,432,-4009,7219,0,0,-1
-157.33,3.00,-29.02,435,-4012,7225,0,0,-1
-157.33,2.99,-29.02,436,-4011,7226,0,0,0
-157.33,2.99,-29.02,434,-4006,7221,0,0,-1
-157.33,2.98,-29.02,435,-4004,7219,-1,0,0
-157.33,2.98,-29.02,432,-4004,7227,-1,0,0
-157.33,2.98,-29.02,425,-4002,7236,-1,0,0
-157.33,2.98,-29.02,426,-4001,7233,-1,0,-1
-157.33,2.97,-29.03,425,-4009,7227,-1,-1,-1
-157.33,2.98,-29.03,425,-4017,7227,-1,-1,0
-157.33,2.98,-29.03,429,-4019,7230,0,-1,0
-157.33,2.98,-29.03,430,-4015,7226,0,-1,-1
-157.33,2.99,-29.03,441,-4017,7229,0,0,0
-157.33,2.99,-29.02,441,-4010,7226,0,0,-1
-157.33,2.98,-29.02,433,-4002,7222,-1,-1,-1
-157.33,2.98,-29.02,430,-3997,7227,-1,-1,-1
-157.33,2.98,-29.02,429,-3994,7217,-1,-1,0
-157.33,2.99,-29.02,436,-4014,7230,0,0,0
-157.33,2.98,-29.02,434,-4006,7234,0,0,-1
-157.33,2.98,-29.02,422,-4004,7222,-1,-1,0
-157.33,2.99,-29.03,425,-4014,7219,-1,-1,-1
-157.33,2.99,-29.02,429,-4010,7213,0,-1,-1
-157.32,2.99,-29.02,442,-4010,7221,-1,0,-1
-157.32,3.00,-29.03,445,-4017,7224,-1,-1,0
-157.32,3.00,-29.02,444,-4017,7230,0,-1,0
-157.32,3.00,-29.02,442,-4013,7231,0,0,0
-157.32,3.00,-29.01,438,-4007,7240,0,0,0
-157.32,2.99,-29.02,426,-4004,7230,-1,0,0
-157.32,2.99,-29.02,419,-4007,7223,-1,-1,0
-157.32,2.99,-29.02,430,-4010,7227,0,-1,-1
-157.32,3.00,-29.02,443,-4008,7227,0,-1,-1
-157.32,3.01,-29.02,447,-4012,7236,0,-1,-1
-157.32,3.01,-29.02,452,-4009,7227,-1,0,0
-157.32,3.01,-29.02,444,-4012,7219,-1,0,0
-157.32,3.00,-29.02,436,-4001,7223,-1,0,0
-157.32,3.00,-29.03,421,-4001,7216,-1,0,0
-157.32,2.99,-29.03,406,-4003,7213,-1,-1,-1
-157.32,3.00,-29.04,419,-4015,7223,-1,-1,-1
-157.32,3.00,-29.04,435,-4033,7228,0,-1,-1
-157.31,3.01,-29.03,438,-4022,7234,0,-1,-1
-157.31,3.02,-29.03,440,-4016,7232,0,-1,-1
-157.31,3.02,-29.03,448,-4012,7221,0,-1,-1
-157.31,3.02,-29.02,451,-4003,7230,0,0,0
-157.31,3.01,-29.01,448,-3999,7229,0,0,0
-157.31,3.01,-29.01,436,-4004,7234,0,0,0
-157.31,3.01,-29.00,429,-3997,7235,0,0,0
-157.31,3.01,-29.01,422,-4002,7232,-1,0,0
-157.31,3.00,-29.01,424,-4004,7231,-1,-1,-1
-157.31,3.01,-29.02,422,-4011,7220,-1,-1,0
-157.31,3.01,-29.02,430,-4010,7217,-1,-1,-1
-157.31,3.02,-29.03,436,-4013,7216,0,-1,0
-157.31,3.02,-29.03,436,-4014,7205,-1,0,-1
-157.31,3.02,-29.03,437,-4007,7217,-1,0,-1
-157.31,3.01,-29.03,435,-4005,7214,0,0,0
-157.31,3.01,-29.03,438,-4009,7224,0,-1,0
-157.31,3.02,-29.02,436,-4009,7225,0,-1,0
-157.31,3.02,-29.02,447,-4005,7224,0,-1,0
-157.31,3.01,-29.01,435,-3996,7228,0,0,0
-157.31,3.02,-29.01,437,-4002,7232,-1,0,0
-157.31,3.02,-29.01,445,-4010,7232,0,0,0
-157.31,3.01,-29.01,429,-4004,7225,0,0,0
-157.31,3.01,-29.01,430,-4006,7227,-1,-1,0
-157.31,3.02,-29.01,435,-4005,7224,-1,-1,-1
-157.31,3.02,-29.01,439,-3998,7234,0,0,-1
-157.30,3.02,-29.01,437,-4004,7225,0,-1,0
-157.30,3.02,-29.01,442,-4001,7227,-1,0,0
-157.30,3.02,-29.01,445,-3999,7222,-1,0,-1
-157.30,3.02,-29.01,449,-4003,7223,0,0,0
-157.30,3.02,-29.00,444,-4004,7229,0,0,0
-157.30,3.02,-29.01,433,-4010,7228,-1,0,0
-157.31,3.02,-29.01,435,-4010,7235,0,-1,0
-157.31,3.02,-29.00,434,-4010,7232,0,0,-1
-157.31,3.02,-29.00,437,-3997,7213,0,0,-1
-157.30,3.02,-29.00,440,-3999,7220,0,0,0
-157.30,3.03,-29.00,443,-4001,7218,0,0,0
-157.30,3.02,-29.00,440,-4005,7226,0,0,0
-157.30,3.02,-28.99,438,-4011,7236,0,0,0
-157.30,3.02,-28.99,438,-4010,7236,-1,0,0
-157.30,3.02,-28.99,436,-4002,7226,-1,0,0
-157.30,3.02,-28.99,434,-4001,7223,-1,0,0
-157.31,3.02,-29.00,432,-4008,7226,-1,0,-1
-157.30,3.02,-29.00,442,-4008,7233,0,-1,-1
-157.30,3.02,-28.99,434,-4000,7237,-1,-1,-1
-157.30,3.03,-29.00,432,-4009,7238,-1,-1,-1
-157.30,3.03,-29.01,437,-4017,7227,-1,0,-1
-157.30,3.03,-29.01,437,-4020,7219,0,-1,-1
-157.30,3.03,-29.01,435,-4015,7219,0,-1,-1
-157.30,3.04,-29.01,445,-4013,7220,0,-1,-1
-157.30,3.04,-29.01,460,-4010,7227,0,-1,0
-157.29,3.04,-29.00,459,-4008,7234,0,0,0
-157.29,3.04,-28.99,455,-3993,7234,0,0,0
-157.30,3.03,-28.99,442,-3996,7224,-1,0,0
-157.30,3.02,-28.99,438,-3999,7233,-1,0,0
-157.30,3.02,-28.99,430,-3994,7237,-1,0,0
-157.29,3.02,-29.00,422,-3992,7236,-1,-1,-1
-157.29,3.02,-29.00,428,-3996,7230,-1,-1,-1
-157.30,3.02,-29.02,435,-4010,7219,-1,-1,-1
-157.30,3.03,-29.02,450,-4019,7221,0,-1,-1
-157.29,3.04,-29.01,450,-4025,7218,0,0,0
-157.29,3.04,-29.01,451,-4016,7230,0,0,-1
-157.29,3.03,-28.99,442,-4009,7230,0,0,0
-157.29,3.03,-28.98,441,-4002,7233,0,0,-1
-157.28,3.03,-28.97,434,-3991,7234,0,0,0
-157.28,3.02,-28.96,429,-3997,7232,0,-1,-1
-157.28,3.03,-28.95,433,-3998,7242,0,-1,-1
-157.27,3.04,-28.94,440,-3998,7247,0,-1,-1
-157.27,3.05,-28.94,449,-3996,7241,0,-1,-1
-157.27,3.05,-28.93,456,-4002,7226,0,-1,-1
-157.27,3.05,-28.93,462,-3995,7219,0,0,0
-157.26,3.05,-28.92,452,-4002,7211,0,0,0
-157.26,3.05,-28.92,451,-4007,7213,0,0,0
-157.26,3.05,-28.90,454,-4006,7218,0,0,0
-157.26,3.04,-28.88,450,-4007,7228,0,0,0
-157.27,3.03,-28.87,443,-4004,7237,0,0,0
-157.27,3.02,-28.85,442,-4006,7247,0,0,0
-157.27,3.02,-28.83,432,-3999,7236,0,0,0
-157.27,3.01,-28.82,440,-3973,7238,0,0,0
-157.26,3.01,-28.80,436,-3949,7242,0,0,-1
-157.26,3.01,-28.80,428,-3939,7239,-1,0,-1
-157.24,3.01,-28.79,411,-3894,7244,-1,0,-1
-157.23,3.01,-28.81,384,-3887,7255,-2,-1,-1
-157.21,3.02,-28.84,385,-3908,7281,-3,-1,-1
-157.20,3.04,-28.90,401,-3926,7279,-3,-1,-2
-157.18,3.08,-28.97,450,-3942,7283,-3,-1,-2
-157.17,3.11,-29.06,472,-3961,7294,-4,-1,-1
-157.18,3.14,-29.17,480,-3996,7237,-4,-1,-1
-157.18,3.16,-29.27,488,-4001,7159,-4,-1,-1
-157.18,3.18,-29.36,441,-4066,7128,-2,-1,-1
-157.19,3.19,-29.42,391,-4126,7165,-2,-2,-1
-157.20,3.25,-29.48,417,-4197,7141,-1,-3,-1
-157.20,3.29,-29.49,449,-4226,7169,1,-2,-1
-157.19,3.35,-29.46,483,-4198,7165,1,-3,-1
-157.17,3.42,-29.42,517,-4163,7096,2,-2,-1
-157.15,3.45,-29.34,520,-4131,7095,3,-1,-1
-157.12,3.47,-29.23,505,-4092,7144,3,-1,-1
-157.07,3.48,-29.13,508,-4065,7178,3,0,-1
-157.03,3.48,-29.01,499,-4028,7213,3,0,-2
-156.97,3.49,-28.90,524,-4006,7277,4,0,-1
-156.93,3.48,-28.84,522,-3994,7272,2,0,-2
-156.89,3.47,-28.77,501,-3974,7212,2,2,-2
-156.83,3.45,-28.70,464,-3966,7231,1,1,-2
-156.79,3.45,-28.66,426,-4020,7185,2,0,-3
-156.70,3.45,-28.56,389,-4034,7176,5,0,-4
-156.58,3.48,-28.39,385,-3935,7280,4,-1,-4
-156.46,3.56,-28.26,435,-3826,7311,2,-2,-4
-156.36,3.67,-28.16,501,-3775,7314,1,-4,-3
-156.28,3.78,-28.10,574,-3760,7322,1,-3,-3
-156.21,3.87,-28.06,624,-3786,7348,0,-2,-3
-156.17,3.93,-28.04,642,-3791,7367,-1,-2,-2
-156.14,3.99,-28.05,608,-3816,7322,-1,-2,-1
-156.13,4.05,-28.06,616,-3848,7281,-1,-2,-1
-156.11,4.09,-28.05,633,-3880,7283,0,-2,-1
-156.11,4.13,-28.06,632,-3918,7280,0,-1,-1
-156.09,4.15,-28.05,651,-3919,7268,0,-1,-1
-156.08,4.16,-28.02,667,-3924,7244,1,0,-1
-156.07,4.14,-27.99,629,-3953,7226,1,1,-1
-156.04,4.11,-27.93,613,-3937,7246,2,1,-1
-156.03,4.09,-27.86,571,-3926,7256,3,0,-1
-156.01,4.08,-27.77,559,-3910,7265,3,0,-1
-155.98,4.07,-27.67,552,-3901,7241,4,0,-1
-155.96,4.07,-27.54,568,-3884,7258,4,0,-1
-155.93,4.08,-27.40,580,-3840,7304,4,-1,-1
-155.90,4.09,-27.26,584,-3800,7341,4,-1,-1
-155.86,4.10,-27.12,575,-3744,7347,4,-1,-1
-155.82,4.13,-26.99,581,-3701,7382,4,-1,-1
-155.80,4.16,-26.87,606,-3678,7378,3,-1,-1
-155.77,4.18,-26.78,604,-3690,7393,3,-1,-1
-155.75,4.22,-26.69,625,-3690,7378,3,-1,-1
-155.73,4.25,-26.59,607,-3671,7386,3,-2,-1
-155.72,4.28,-26.50,614,-3671,7360,3,-2,0
-155.72,4.31,-26.41,629,-3668,7369,3,-1,0
-155.71,4.33,-26.32,625,-3672,7390,3,-1,0
-155.70,4.34,-26.23,626,-3655,7420,3,-1,-1
-155.68,4.35,-26.14,618,-3616,7427,3,0,-1
-155.65,4.36,-26.05,615,-3574,7458,2,0,-1
-155.61,4.36,-25.98,639,-3518,7481,1,0,-1
-155.58,4.36,-25.95,653,-3500,7496,0,0,-1
-155.56,4.35,-25.93,672,-3468,7489,-1,1,-1
-155.54,4.33,-25.95,686,-3444,7476,-3,1,-1
-155.54,4.29,-26.00,661,-3457,7470,-3,1,-1
-155.55,4.24,-26.08,641,-3477,7462,-4,1,0
-155.57,4.20,-26.18,592,-3531,7444,-5,1,0
-155.59,4.16,-26.30,555,-3594,7430,-5,0,0
-155.61,4.15,-26.43,558,-3661,7401,-5,0,-1
-155.62,4.14,-26.54,550,-3699,7395,-4,0,-1
-155.63,4.14,-26.65,563,-3734,7374,-4,0,-1
-155.62,4.14,-26.74,590,-3748,7353,-3,0,-1
-155.62,4.14,-26.81,595,-3756,7326,-3,0,-1
-155.62,4.15,-26.88,603,-3775,7307,-2,-1,-1
-155.62,4.17,-26.94,620,-3813,7297,-2,-1,-1
-155.63,4.17,-26.96,628,-3823,7285,0,0,0
-155.64,4.16,-26.95,628,-3815,7293,0,0,0
-155.63,4.15,-26.93,614,-3794,7316,1,0,0
-155.63,4.14,-26.89,600,-3765,7339,1,0,0
-155.63,4.13,-26.84,594,-3741,7358,1,0,-1
-155.62,4.11,-26.80,583,-3711,7383,1,0,-1
-155.61,4.09,-26.77,571,-3688,7391,0,0,-1
-155.61,4.08,-26.74,571,-3665,7379,0,-1,0
-155.60,4.09,-26.72,566,-3670,7371,0,-1,0
-155.61,4.09,-26.71,571,-3680,7360,0,-1,0
-155.61,4.10,-26.70,574,-3699,7352,0,-1,0
-155.62,4.12,-26.67,571,-3723,7360,1,-1,0
-155.62,4.13,-26.64,593,-3741,7357,1,-1,0
-155.61,4.14,-26.60,600,-3736,7366,1,-1,-1
-155.60,4.15,-26.54,607,-3723,7373,2,-1,-1
-155.59,4.15,-26.48,610,-3696,7374,2,0,0
-155.59,4.15,-26.41,608,-3678,7377,2,0,0
-155.58,4.14,-26.35,608,-3642,7400,2,0,0
-155.58,4.13,-26.29,586,-3612,7402,1,0,0
-155.57,4.13,-26.23,576,-3605,7417,1,0,-1
-155.56,4.13,-26.19,576,-3591,7425,1,-1,-1
-155.56,4.13,-26.16,576,-3574,7449,0,-1,-1
-155.54,4.13,-26.14,585,-3566,7463,0,0,-1
-155.53,4.13,-26.13,600,-3562,7451,-1,0,-1
-155.53,4.14,-26.14,612,-3550,7440,-1,0,-1
-155.52,4.13,-26.16,614,-3544,7437,-2,0,-1
-155.52,4.12,-26.19,606,-3543,7429,-2,0,-1
-155.52,4.10,-26.24,597,-3560,7429,-3,0,-1
-155.52,4.09,-26.30,590,-3582,7423,-3,0,-1
-155.54,4.07,-26.37,571,-3611,7426,-3,0,-1
-155.54,4.06,-26.44,554,-3636,7413,-3,0,-1
-155.53,4.05,-26.51,558,-3659,7403,-3,0,-1
-155.53,4.06,-26.58,583,-3684,7390,-3,0,-1
-155.53,4.05,-26.65,598,-3709,7378,-2,0,-1
-155.53,4.05,-26.70,599,-3716,7371,-2,0,-1
-155.54,4.05,-26.75,598,-3728,7336,-2,0,0
-155.55,4.03,-26.79,591,-3744,7312,-1,0,0
-155.56,4.03,-26.81,585,-3765,7315,-1,0,0
-155.57,4.03,-26.81,573,-3780,7326,0,0,0
-155.57,4.03,-26.81,572,-3781,7339,0,-1,-1
-155.57,4.03,-26.78,571,-3769,7349,1,-1,-1
-155.56,4.03,-26.75,560,-3749,7354,1,-1,-1
-155.54,4.04,-26.70,579,-3722,7351,1,-1,-1
-155.54,4.05,-26.66,586,-3687,7360,1,-1,-1
-155.53,4.05,-26.62,594,-3673,7372,1,-1,0
-155.54,4.05,-26.60,594,-3676,7371,1,-1,0
-155.55,4.06,-26.57,597,-3684,7365,1,-1,0
-155.55,4.07,-26.54,592,-3697,7369,1,-1,0
-155.57,4.06,-26.50,584,-3697,7373,1,-1,0
-155.57,4.06,-26.47,569,-3694,7381,1,-1,0
-155.57,4.05,-26.41,557,-3689,7376,1,-1,0
-155.56,4.05,-26.36,560,-3678,7377,2,-1,-1
-155.55,4.06,-26.30,574,-3660,7400,2,-1,-1
-155.54,4.06,-26.24,583,-3638,7415,1,0,-1
-155.52,4.06,-26.19,588,-3601,7420,1,0,-1
-155.51,4.06,-26.15,586,-3577,7431,0,0,-1
-155.51,4.05,-26.11,586,-3563,7432,0,0,0
-155.51,4.04,-26.10,576,-3564,7434,0,0,0
-155.51,4.04,-26.10,568,-3556,7431,-1,0,0
-155.51,4.04,-26.10,562,-3558,7425,-1,-1,-1
-155.51,4.04,-26.12,566,-3577,7438,-1,-1,-1
-155.51,4.05,-26.14,576,-3579,7441,-2,0,-1
-155.51,4.04,-26.17,575,-3584,7435,-2,0,-1
-155.50,4.05,-26.20,583,-3584,7425,-2,0,-1
-155.50,4.04,-26.24,594,-3579,7412,-2,0,-1
-155.50,4.03,-26.29,593,-3593,7403,-2,0,-1
-155.50,4.03,-26.35,590,-3617,7394,-2,0,0
-155.52,4.01,-26.40,577,-3640,7394,-2,0,0
-155.52,4.00,-26.46,564,-3665,7399,-2,0,-1
-155.52,4.00,-26.50,564,-3686,7389,-2,0,-1
-155.53,4.00,-26.54,563,-3704,7384,-2,0,-1
-155.52,4.00,-26.58,569,-3728,7370,-1,-1,-1
-155.52,4.01,-26.60,575,-3724,7356,-1,-1,-1
-155.53,4.01,-26.61,587,-3719,7338,-1,0,0
-155.53,4.01,-26.61,587,-3714,7329,0,0,0
-155.53,4.01,-26.60,585,-3701,7336,0,0,0
-155.53,4.00,-26.59,576,-3695,7358,0,-1,0
-155.53,4.00,-26.56,581,-3697,7375,0,0,0
-155.53,4.00,-26.54,584,-3691,7393,0,0,0
-155.53,4.00,-26.51,578,-3681,7400,0,-1,0
-155.53,4.00,-26.49,574,-3668,7391,0,-1,0
-155.53,4.00,-26.46,563,-3653,7389,0,-1,0
-155.53,4.01,-26.44,573,-3650,7376,0,-1,0
-155.53,4.02,-26.42,583,-3653,7375,0,-1,0
-155.53,4.02,-26.39,587,-3665,7386,0,-1,0
-155.54,4.03,-26.36,592,-3662,7398,1,-1,0
-155.54,4.03,-26.33,582,-3652,7396,1,-1,0
-155.54,4.03,-26.30,576,-3656,7400,1,-1,0
-155.53,4.03,-26.27,578,-3641,7389,1,-1,0
-155.53,4.03,-26.24,578,-3630,7396,1,-1,0
-155.53,4.03,-26.21,577,-3612,7405,0,-1,-1
-155.52,4.04,-26.18,578,-3609,7419,0,-1,-1
-155.52,4.04,-26.15,580,-3599,7426,0,0,-1
-155.52,4.04,-26.14,581,-3585,7431,0,0,-1
-155.52,4.03,-26.13,580,-3584,7441,-1,0,0
-155.51,4.03,-26.13,584,-3580,7432,-1,0,-1
-155.51,4.03,-26.14,579,-3578,7428,-1,0,-1
-155.52,4.02,-26.16,580,-3582,7429,-1,0,0
-155.52,4.02,-26.18,580,-3591,7429,-2,0,0
-155.52,4.00,-26.20,578,-3601,7421,-2,0,-1
-155.52,3.99,-26.24,576,-3609,7413,-2,0,-1
-155.53,3.99,-26.28,572,-3617,7402,-2,0,-1
-155.53,3.99,-26.31,573,-3633,7405,-2,0,0
-155.54,3.97,-26.36,572,-3646,7392,-2,0,0
-155.54,3.97,-26.39,566,-3661,7378,-2,0,0
-155.55,3.97,-26.42,563,-3674,7374,-1,-1,0
-155.56,3.97,-26.44,567,-3690,7371,-1,-1,0
-155.56,3.97,-26.45,575,-3697,7379,-1,0,-1
-155.56,3.97,-26.45,579,-3682,7372,0,0,0
-155.56,3.97,-26.46,585,-3676,7387,0,0,-1
-155.55,3.96,-26.44,571,-3669,7393,0,0,-1
-155.55,3.94,-26.45,565,-3661,7393,-1,0,-1
-155.56,3.94,-26.44,550,-3658,7390,0,0,0
-155.56,3.94,-26.43,556,-3653,7393,-1,-1,0
-155.56,3.94,-26.43,560,-3651,7386,-1,-1,-1
-155.55,3.94,-26.44,568,-3654,7385,-1,-1,0
-155.56,3.95,-26.43,567,-3653,7386,0,-1,0
-155.56,3.95,-26.43,580,-3658,7385,0,-1,0
-155.56,3.95,-26.43,576,-3655,7392,0,0,0
-155.57,3.94,-26.42,572,-3663,7390,0,0,0
-155.57,3.94,-26.42,569,-3669,7388,0,0,0
-155.57,3.93,-26.41,567,-3667,7386,0,0,0
-155.57,3.93,-26.41,562,-3667,7386,0,0,0
-155.57,3.93,-26.39,562,-3660,7386,0,0,0
-155.57,3.92,-26.38,554,-3658,7384,0,0,0
-155.57,3.92,-26.36,557,-3662,7387,0,0,0
-155.58,3.92,-26.35,555,-3666,7396,0,0,0
-155.58,3.91,-26.33,566,-3655,7408,0,0,0
-155.58,3.91,-26.32,566,-3646,7402,0,0,0
-155.58,3.90,-26.30,564,-3638,7407,0,0,0
-155.59,3.90,-26.29,566,-3637,7398,0,-1,0
-155.58,3.90,-26.26,572,-3629,7406,0,0,0
-155.58,3.90,-26.24,567,-3625,7409,0,0,0
-155.58,3.90,-26.22,556,-3630,7413,0,0,0
-155.58,3.89,-26.20,551,-3623,7418,0,0,-1
-155.58,3.89,-26.19,552,-3612,7429,0,0,-1
-155.58,3.89,-26.18,555,-3603,7420,0,0,-1
-155.57,3.89,-26.16,565,-3598,7430,-1,0,-1
-155.57,3.89,-26.16,559,-3599,7423,-1,0,-1
-155.57,3.88,-26.16,568,-3597,7422,-1,0,0
-155.56,3.87,-26.17,572,-3597,7441,-1,0,0
-155.57,3.86,-26.18,558,-3604,7426,-1,0,-1
-155.57,3.85,-26.20,555,-3610,7432,-1,0,-1
-155.57,3.85,-26.22,558,-3613,7421,-1,0,-1
-155.57,3.84,-26.24,552,-3631,7409,-1,0,-1
-155.58,3.83,-26.27,550,-3641,7408,-1,0,-1
-155.57,3.82,-26.29,552,-3646,7397,-1,0,0
-155.58,3.82,-26.30,554,-3651,7396,-1,0,0
-155.58,3.81,-26.32,559,-3657,7389,-1,0,0
-155.58,3.80,-26.33,551,-3658,7390,-1,0,0
-155.58,3.79,-26.33,545,-3656,7399,-1,0,0
-155.59,3.78,-26.33,545,-3661,7404,0,0,-1
-155.58,3.78,-26.33,544,-3660,7406,0,0,-1
-155.58,3.77,-26.32,542,-3654,7403,-1,0,-1
-155.58,3.76,-26.32,540,-3642,7407,-1,0,0
-155.58,3.75,-26.32,533,-3640,7397,-1,0,0
-155.58,3.74,-26.32,536,-3637,7396,-1,0,0
-155.58,3.74,-26.32,544,-3638,7418,-1,0,-1
-155.58,3.74,-26.32,552,-3644,7412,-1,0,0
-155.58,3.72,-26.33,545,-3635,7403,-1,0,0
-155.59,3.71,-26.33,536,-3627,7405,-1,0,0
-155.59,3.70,-26.33,526,-3633,7400,-1,0,0
-155.59,3.68,-26.34,520,-3650,7392,-1,0,0
-155.59,3.68,-26.34,517,-3657,7402,-1,0,0
-155.59,3.67,-26.34,523,-3656,7401,-1,0,0
-155.59,3.67,-26.34,524,-3659,7408,-1,0,-1
-155.59,3.67,-26.34,543,-3662,7403,0,0,-1
-155.59,3.67,-26.34,544,-3651,7403,0,0,-1
-155.59,3.66,-26.33,550,-3636,7404,-1,0,0
-155.59,3.65,-26.33,543,-3632,7398,-1,0,0
-155.59,3.63,-26.33,528,-3632,7377,-1,0,0
-155.60,3.62,-26.33,518,-3638,7395,-1,0,0
-155.60,3.61,-26.33,518,-3637,7413,-1,0,0
-155.61,3.60,-26.33,503,-3641,7416,-1,0,0
-155.61,3.59,-26.34,502,-3645,7410,-1,0,-1
-155.61,3.59,-26.34,509,-3650,7405,-1,0,0
-155.61,3.59,-26.34,509,-3647,7404,-1,-1,0
-155.61,3.59,-26.35,515,-3650,7396,-1,0,0
-155.61,3.59,-26.35,513,-3646,7398,-1,0,0
-155.62,3.59,-26.36,522,-3655,7401,-1,-1,0
-155.62,3.59,-26.36,519,-3649,7415,-1,0,0
-155.63,3.58,-26.36,520,-3652,7413,-1,0,0
-155.63,3.58,-26.36,516,-3649,7415,-1,-1,0
-155.63,3.58,-26.36,518,-3649,7415,-1,0,0
-155.63,3.58,-26.36,515,-3647,7407,-1,-1,0
-155.63,3.58,-26.36,510,-3645,7392,0,-1,-1
-155.62,3.59,-26.36,515,-3645,7397,0,-1,0
-155.62,3.58,-26.35,512,-3643,7387,-1,-1,-1
-155.62,3.59,-26.35,511,-3641,7393,-1,-1,0
-155.63,3.59,-26.36,516,-3646,7388,-1,-1,0
-155.63,3.60,-26.35,514,-3647,7408,-1,-1,-1
-155.63,3.60,-26.35,511,-3640,7412,-1,-1,0
-155.63,3.61,-26.36,506,-3644,7410,-1,-1,-1
-155.63,3.61,-26.36,515,-3649,7398,-1,-1,-1
-155.63,3.61,-26.36,522,-3651,7391,-1,-1,-1
-155.63,3.62,-26.36,519,-3655,7387,-1,-1,-1
-155.62,3.63,-26.37,526,-3663,7394,0,-1,-1
-155.62,3.63,-26.36,519,-3657,7402,-1,-1,-1
-155.62,3.63,-26.36,520,-3657,7405,0,-1,-1
-155.62,3.63,-26.35,519,-3656,7405,-1,0,0
-155.63,3.63,-26.35,521,-3655,7404,-1,-1,0
-155.63,3.63,-26.35,522,-3656,7405,0,-1,0
-155.63,3.64,-26.34,528,-3656,7404,0,-1,-1
-155.63,3.64,-26.34,533,-3643,7414,-1,-1,-1
-155.62,3.65,-26.34,536,-3647,7409,-1,-1,0
-155.62,3.65,-26.34,539,-3645,7414,-1,0,0
-155.62,3.65,-26.33,533,-3633,7418,-1,0,0
-155.63,3.64,-26.34,523,-3628,7400,-1,0,0
-155.63,3.64,-26.35,521,-3637,7387,-1,-1,0
-155.64,3.64,-26.37,514,-3652,7381,-1,-1,0
-155.64,3.65,-26.36,513,-3668,7396,-1,-1,-1
-155.63,3.65,-26.36,509,-3661,7403,-1,-1,-1
-155.64,3.67,-26.37,520,-3660,7400,0,-1,-1
-155.63,3.67,-26.37,541,-3663,7388,0,-1,-1
-155.63,3.68,-26.36,547,-3654,7396,0,-1,-1
-155.63,3.68,-26.35,552,-3643,7393,0,0,0
-155.63,3.68,-26.34,545,-3634,7399,0,0,0
-155.63,3.67,-26.34,534,-3635,7402,0,0,0
-155.63,3.67,-26.33,530,-3636,7413,0,-1,0
-155.63,3.67,-26.33,521,-3643,7413,-1,-1,0
-155.64,3.67,-26.33,518,-3646,7417,-1,-1,-1
-155.64,3.68,-26.33,522,-3644,7414,-1,-1,-1
-155.64,3.68,-26.33,524,-3636,7418,-1,-1,-1
-155.63,3.69,-26.32,533,-3635,7415,-1,-1,-1
-155.63,3.69,-26.33,541,-3637,7412,-1,0,-1
-155.64,3.69,-26.33,528,-3642,7415,-1,-1,0
-155.64,3.69,-26.34,532,-3646,7401,-1,-1,0
-155.64,3.69,-26.34,528,-3649,7402,-1,-1,0
-155.64,3.69,-26.35,530,-3653,7403,-1,-1,0
-155.64,3.69,-26.34,531,-3649,7402,-1,-1,0
-155.64,3.69,-26.34,527,-3657,7398,-1,-1,-1
-155.64,3.69,-26.34,531,-3646,7410,0,-1,0
-155.64,3.70,-26.33,527,-3638,7401,0,-1,-1
-155.64,3.70,-26.33,526,-3635,7386,0,-1,-1
-155.64,3.71,-26.32,533,-3640,7387,0,-1,-1
-155.64,3.71,-26.32,543,-3639,7399,-1,-1,0
-155.64,3.71,-26.32,543,-3638,7421,-1,-1,0
-155.64,3.71,-26.32,535,-3636,7414,-1,-1,0
-155.64,3.72,-26.33,530,-3631,7412,-1,-1,0
-155.65,3.71,-26.33,531,-3645,7411,-1,-1,0
-155.65,3.72,-26.33,537,-3642,7402,-1,-1,0
-155.65,3.72,-26.33,532,-3646,7395,-1,-1,0
-155.64,3.72,-26.33,533,-3649,7396,-1,-1,0
-155.64,3.72,-26.33,534,-3647,7396,-1,-1,-1
-155.64,3.73,-26.33,538,-3646,7397,-1,-1,-1
-155.64,3.73,-26.33,538,-3646,7396,-1,-1,0
-155.65,3.73,-26.33,538,-3647,7405,-1,-1,0
-155.65,3.73,-26.33,534,-3644,7404,-1,0,0
-155.65,3.73,-26.33,532,-3642,7404,-1,-1,-1
-155.64,3.74,-26.33,538,-3639,7409,-1,0,-1
-155.64,3.73,-26.33,543,-3633,7407,-1,0,-1
-155.64,3.73,-26.33,544,-3633,7401,-1,0,0
-155.65,3.73,-26.34,534,-3636,7385,-1,-1,0
-155.65,3.73,-26.34,542,-3651,7393,-1,-1,0
-155.65,3.74,-26.34,552,-3642,7399,0,-1,-1
-155.65,3.74,-26.33,549,-3641,7409,-1,-1,-1
-155.64,3.74,-26.33,544,-3643,7399,0,0,-1
-155.64,3.74,-26.33,545,-3636,7392,-1,0,0
-155.64,3.74,-26.33,536,-3633,7396,-1,0,-1
-155.64,3.73,-26.34,532,-3630,7394,-1,0,0
-155.64,3.73,-26.34,522,-3632,7382,-1,-1,0
-155.64,3.73,-26.35,516,-3646,7379,-1,-1,-1
-155.64,3.73,-26.34,527,-3652,7397,-1,-1,-1
-155.64,3.74,-26.34,536,-3659,7409,-1,-1,-1
-155.64,3.74,-26.34,541,-3655,7401,-1,-1,-1
-155.63,3.75,-26.34,550,-3648,7403,-1,0,-1
-155.63,3.75,-26.34,548,-3642,7404,-1,0,0
-155.64,3.74,-26.34,554,-3639,7400,-1,0,0
-155.63,3.74,-26.33,545,-3627,7400,-1,0,0
-155.64,3.72,-26.33,544,-3632,7409,-1,0,0
-155.65,3.72,-26.33,528,-3643,7399,-1,0,0
-155.65,3.71,-26.33,521,-3646,7390,-1,0,-1
-155.65,3.70,-26.34,512,-3643,7400,-1,0,-1
-155.65,3.70,-26.34,516,-3642,7404,-1,-1,-1
-155.64,3.70,-26.34,522,-3640,7403,-1,-1,-1
-155.64,3.71,-26.33,528,-3644,7400,-1,-1,-1
-155.64,3.71,-26.33,542,-3639,7402,-1,0,-1
-155.64,3.70,-26.34,537,-3629,7398,-1,0,-1
-155.63,3.70,-26.34,521,-3640,7407,-1,0,-1
-155.63,3.70,-26.33,529,-3644,7407,-1,0,-1
-155.64,3.69,-26.33,533,-3645,7402,-1,0,0
-155.64,3.69,-26.33,535,-3639,7394,-1,0,0
-155.64,3.69,-26.33,530,-3635,7395,0,0,0
-155.64,3.68,-26.33,527,-3642,7390,-1,0,0
-155.64,3.68,-26.33,529,-3646,7395,0,0,0
-155.64,3.68,-26.32,535,-3638,7411,0,0,-1
-155.64,3.67,-26.31,526,-3638,7415,-1,0,-1
-155.63,3.67,-26.32,527,-3641,7414,-1,0,-1
-155.63,3.66,-26.32,526,-3640,7412,-1,0,0
-155.63,3.65,-26.32,523,-3640,7408,-1,0,0
-155.63,3.65,-26.32,529,-3637,7403,-1,0,0
-155.64,3.65,-26.32,524,-3649,7414,-1,0,0
-155.64,3.65,-26.33,524,-3654,7409,-1,0,0
-155.65,3.64,-26.32,524,-3648,7411,-1,0,0
-155.65,3.63,-26.32,525,-3648,7402,-1,0,0
-155.64,3.63,-26.32,518,-3640,7392,-1,0,0
-155.64,3.62,-26.33,516,-3652,7395,-1,0,0
-155.64,3.62,-26.32,512,-3648,7412,0,0,0
-155.64,3.61,-26.31,508,-3630,7414,-1,0,0
-155.64,3.61,-26.31,503,-3640,7407,-1,0,-1
-155.64,3.61,-26.31,511,-3648,7402,0,0,0
-155.64,3.61,-26.31,521,-3638,7405,-1,0,0
-155.64,3.61,-26.31,529,-3640,7413,-1,0,0
-155.65,3.60,-26.32,524,-3638,7406,-1,0,0
-155.65,3.59,-26.32,522,-3642,7410,-1,0,0
-155.64,3.58,-26.32,520,-3636,7406,-1,0,0
-155.65,3.57,-26.32,518,-3638,7408,-1,0,0
-155.65,3.57,-26.32,503,-3646,7396,-1,0,0
-155.65,3.56,-26.32,499,-3648,7397,0,0,0
-155.65,3.56,-26.32,508,-3640,7398,0,0,0
-155.65,3.56,-26.31,525,-3640,7410,0,0,0
-155.65,3.56,-26.31,530,-3641,7401,0,0,0
-155.65,3.55,-26.30,524,-3629,7404,0,0,0
-155.66,3.53,-26.29,525,-3628,7406,-1,0,0
-155.66,3.52,-26.29,511,-3625,7405,-1,0,0
-155.67,3.50,-26.29,496,-3627,7403,-1,0,0
-155.67,3.49,-26.29,487,-3632,7394,-1,0,0
-155.67,3.49,-26.30,493,-3648,7411,-1,0,0
-155.67,3.49,-26.30,490,-3643,7427,-1,-1,0
-155.67,3.49,-26.30,497,-3640,7427,-1,-1,-1
-155.67,3.49,-26.30,517,-3637,7414,-1,0,-1
-155.67,3.49,-26.30,518,-3624,7405,-1,0,0
-155.67,3.49,-26.29,522,-3630,7407,-1,0,0
-155.67,3.48,-26.29,519,-3627,7395,-1,0,0
-155.68,3.46,-26.29,505,-3631,7394,-1,0,0
-155.68,3.46,-26.30,498,-3633,7403,-1,0,0
-155.68,3.45,-26.29,490,-3634,7409,-1,0,0
-155.69,3.44,-26.29,481,-3637,7408,-1,0,0
-155.69,3.44,-26.29,485,-3638,7404,-1,-1,-1
-155.69,3.44,-26.29,484,-3638,7410,-1,-1,0
-155.69,3.44,-26.28,494,-3638,7406,-1,-1,0
-155.69,3.44,-26.29,499,-3633,7401,-1,-1,0
-155.70,3.44,-26.29,494,-3639,7400,-1,-1,0
-155.70,3.44,-26.29,497,-3640,7408,-1,-1,0
-155.71,3.44,-26.29,498,-3635,7411,-1,0,0
-155.71,3.44,-26.29,495,-3637,7402,-1,-1,0
-155.71,3.44,-26.29,492,-3647,7421,-1,0,0
-155.71,3.44,-26.28,492,-3639,7422,0,-1,0
-155.71,3.44,-26.29,482,-3640,7419,-1,-1,-1
-155.71,3.44,-26.28,488,-3637,7402,-1,-1,-1
-155.71,3.45,-26.28,489,-3628,7404,-1,-1,-1
-155.70,3.45,-26.27,494,-3624,7412,-1,-1,-1
-155.70,3.46,-26.27,500,-3631,7417,-1,-1,0
-155.70,3.46,-26.28,498,-3638,7410,-1,-1,-1
-155.70,3.47,-26.28,499,-3640,7406,-1,-1,0
-155.70,3.47,-26.28,502,-3639,7402,-1,-1,-1
-155.70,3.48,-26.28,497,-3630,7408,-1,-1,0
-155.70,3.47,-26.28,503,-3638,7405,-1,-1,0
-155.70,3.48,-26.27,504,-3639,7397,-1,-1,-1
-155.70,3.48,-26.27,500,-3640,7401,-1,-1,0
-155.70,3.49,-26.27,503,-3635,7406,0,-1,-1
-155.70,3.49,-26.27,504,-3640,7413,0,-1,0
-155.70,3.49,-26.26,505,-3637,7412,-1,-1,-1
-155.70,3.49,-26.26,507,-3640,7416,-1,-1,-1
-155.70,3.50,-26.26,502,-3642,7416,0,-1,-1
-155.70,3.50,-26.26,501,-3635,7413,-1,-1,-1
-155.70,3.50,-26.26,504,-3623,7397,-1,-1,0
-155.70,3.50,-26.25,508,-3618,7403,-1,-1,-1
-155.69,3.51,-26.25,514,-3620,7399,-1,-1,0
-155.69,3.51,-26.26,510,-3634,7411,-1,0,-1
-155.70,3.51,-26.26,498,-3634,7407,-1,-1,0
-155.69,3.51,-26.26,490,-3636,7415,-1,-1,-1
-155.69,3.52,-26.26,492,-3640,7401,0,-1,-1
-155.69,3.53,-26.26,510,-3641,7414,0,-1,-1
-155.69,3.53,-26.25,522,-3634,7411,0,-1,-1
-155.69,3.53,-26.24,521,-3632,7411,0,0,0
-155.69,3.53,-26.24,511,-3624,7407,-1,0,0
-155.69,3.52,-26.24,501,-3629,7394,-1,0,0
-155.69,3.52,-26.24,494,-3629,7395,-1,0,0
-155.69,3.52,-26.25,486,-3635,7400,-1,-1,0
-155.70,3.52,-26.25,489,-3637,7402,-1,-1,-1
-155.69,3.53,-26.25,497,-3634,7412,-1,-1,-1
-155.69,3.54,-26.25,508,-3632,7412,-1,-1,-1
-155.69,3.54,-26.25,524,-3629,7407,0,-1,-1
-155.69,3.55,-26.24,528,-3614,7404,-1,0,0
-155.69,3.54,-26.24,530,-3618,7403,-1,0,0
-155.70,3.53,-26.24,514,-3629,7403,-1,0,0
-155.70,3.53,-26.23,503,-3633,7409,0,0,0
-155.70,3.53,-26.23,493,-3636,7412,-1,0,0
-155.70,3.53,-26.23,490,-3625,7409,-1,-1,-1
-155.70,3.53,-26.23,497,-3637,7411,-1,-1,0
-155.70,3.53,-26.24,500,-3644,7415,0,-1,-1
-155.69,3.54,-26.23,505,-3630,7423,0,-1,-1
-155.69,3.55,-26.22,512,-3611,7418,-1,-1,-1
-155.69,3.55,-26.23,516,-3625,7410,-1,-1,-1
-155.69,3.56,-26.23,526,-3630,7407,0,0,-1
-155.69,3.56,-26.22,521,-3621,7417,-1,0,0
-155.69,3.55,-26.22,517,-3622,7415,-1,0,0
-155.70,3.55,-26.23,510,-3629,7400,-1,0,0
-155.70,3.55,-26.23,510,-3635,7406,-1,0,0
-155.70,3.55,-26.23,505,-3634,7404,-1,-1,0
-155.70,3.55,-26.23,500,-3628,7402,-1,-1,0
-155.70,3.55,-26.22,504,-3631,7399,0,-1,-1
-155.70,3.55,-26.22,506,-3637,7398,0,-1,-1
-155.70,3.55,-26.21,515,-3633,7411,0,0,-1
-155.69,3.56,-26.21,520,-3627,7415,0,0,-1
-155.69,3.55,-26.21,517,-3630,7415,-1,0,0
-155.70,3.55,-26.21,513,-3630,7409,-1,-1,0
-155.70,3.55,-26.21,507,-3624,7403,-1,0,0
-155.70,3.55,-26.21,506,-3627,7410,-1,-1,0
-155.70,3.55,-26.21,498,-3630,7409,-1,0,0
-155.70,3.55,-26.21,506,-3640,7408,-1,0,-1
-155.70,3.55,-26.21,514,-3633,7408,-1,0,-1
-155.69,3.54,-26.22,508,-3639,7423,-1,0,-1
-155.69,3.54,-26.21,502,-3629,7420,0,0,0
-155.69,3.54,-26.21,506,-3635,7421,0,-1,-1
-155.69,3.54,-26.20,509,-3622,7427,0,0,0
-155.69,3.54,-26.20,505,-3621,7435,-1,0,0
-155.69,3.53,-26.20,500,-3626,7414,-1,-1,0
-155.69,3.53,-26.20,506,-3626,7410,-1,0,0
-155.70,3.54,-26.20,505,-3617,7408,-1,-1,0
-155.69,3.54,-26.20,517,-3621,7421,-1,-1,-1
-155.69,3.54,-26.19,522,-3622,7432,-1,0,-1
-155.69,3.54,-26.19,520,-3622,7437,-1,0,0
-155.69,3.54,-26.19,518,-3622,7421,-1,0,0
-155.69,3.53,-26.20,505,-3616,7418,-1,0,0
-155.70,3.53,-26.21,493,-3623,7410,-1,0,0
-155.70,3.53,-26.21,493,-3626,7402,-1,-1,0
-155.70,3.53,-26.22,492,-3637,7402,-1,-1,-1
-155.70,3.53,-26.22,497,-3639,7409,-1,-1,-1
-155.70,3.54,-26.22,511,-3640,7414,-1,-1,-1
-155.69,3.55,-26.21,511,-3646,7412,-1,-1,-1
-155.69,3.55,-26.21,513,-3640,7404,0,-1,0
-155.70,3.55,-26.21,520,-3625,7408,0,-1,0
-155.70,3.55,-26.20,515,-3608,7416,-1,0,0
-155.70,3.54,-26.20,507,-3614,7422,-1,0,0
-155.71,3.54,-26.20,502,-3616,7421,-1,-1,0
-155.71,3.54,-26.21,502,-3629,7408,-1,-1,-1
-155.71,3.54,-26.21,509,-3623,7413,-1,-1,-1
-155.71,3.55,-26.21,503,-3623,7411,-1,-1,-1
-155.71,3.55,-26.21,501,-3625,7403,-1,-1,-1
-155.70,3.55,-26.22,510,-3629,7414,-1,-1,-1
-155.70,3.56,-26.22,514,-3639,7403,-1,-1,0
-155.70,3.55,-26.22,532,-3631,7404,-1,0,0
-155.71,3.54,-26.23,526,-3624,7404,-1,0,0
-155.71,3.54,-26.23,508,-3637,7403,-1,0,0
-155.71,3.52,-26.24,498,-3639,7417,-1,0,0
-155.71,3.51,-26.24,492,-3645,7415,-1,0,0
-155.72,3.49,-26.25,499,-3639,7428,-1,0,0
-155.72,3.47,-26.26,496,-3648,7409,-1,0,0
-155.73,3.45,-26.26,493,-3642,7401,-1,0,0
-155.72,3.44,-26.27,503,-3627,7405,-1,1,-1
-155.73,3.42,-26.26,485,-3625,7393,0,-1,0
-155.72,3.41,-26.26,505,-3659,7422,0,0,-1
-155.71,3.39,-26.24,510,-3631,7386,0,1,-1
-155.70,3.39,-26.23,506,-3658,7425,0,0,0
-155.70,3.37,-26.20,481,-3631,7427,0,0,0
-155.69,3.36,-26.17,458,-3612,7429,0,0,-1
-155.69,3.35,-26.16,477,-3610,7418,0,0,0
-155.69,3.35,-26.14,472,-3606,7439,0,0,-1
-155.68,3.35,-26.14,480,-3618,7397,0,-1,-1
-155.67,3.36,-26.12,492,-3611,7437,-1,0,-1
-155.65,3.34,-26.12,475,-3642,7405,0,0,-1
-155.63,3.33,-26.11,492,-3629,7421,-1,0,-1
-155.62,3.32,-26.11,481,-3649,7409,0,0,-1
-155.60,3.31,-26.07,490,-3616,7440,0,0,-1
-155.59,3.30,-26.06,485,-3622,7400,0,0,-1
-155.58,3.29,-26.03,497,-3621,7413,1,0,-1
-155.57,3.27,-26.00,460,-3611,7409,1,-1,-1
-155.55,3.27,-25.95,493,-3573,7446,0,0,-1
-155.55,3.25,-25.94,495,-3575,7427,0,0,-1
-155.55,3.24,-25.91,465,-3579,7438,0,0,0
-155.56,3.23,-25.89,480,-3573,7420,0,0,0
-155.55,3.21,-25.87,443,-3547,7435,-1,0,-1
-155.56,3.22,-25.87,452,-3566,7463,0,-1,0
-155.56,3.21,-25.85,448,-3549,7460,-1,-1,-1
-155.57,3.22,-25.86,451,-3597,7469,0,-1,0
-155.57,3.21,-25.84,440,-3574,7472,-1,0,0
-155.58,3.21,-25.86,460,-3582,7442,-1,-1,0
-155.59,3.21,-25.85,442,-3564,7416,-1,-1,-1
-155.58,3.20,-25.87,460,-3602,7433,-1,-1,-1
-155.58,3.21,-25.87,480,-3609,7421,0,0,-1
-155.58,3.20,-25.86,445,-3607,7445,0,-1,0
-155.58,3.19,-25.86,429,-3598,7418,0,-1,-1
-155.57,3.19,-25.85,465,-3598,7463,0,0,-1
-155.57,3.19,-25.83,470,-3582,7430,1,-1,-1
-155.57,3.19,-25.82,472,-3570,7439,0,-1,0
-155.58,3.19,-25.81,471,-3566,7429,0,0,0
-155.59,3.18,-25.81,469,-3563,7446,-1,0,0
-155.59,3.17,-25.80,458,-3566,7445,0,-1,0
-155.60,3.15,-25.81,432,-3578,7435,0,0,0
-155.60,3.15,-25.81,456,-3574,7431,-1,0,0
-155.60,3.14,-25.81,423,-3594,7441,0,-1,0
-155.61,3.15,-25.81,436,-3567,7436,-1,-1,0
-155.61,3.15,-25.80,450,-3570,7455,-1,0,-1
-155.61,3.15,-25.80,441,-3580,7443,0,-1,0
-155.61,3.16,-25.80,446,-3587,7449,-1,-1,0
-155.62,3.16,-25.81,451,-3586,7412,-1,-1,0
-155.63,3.17,-25.81,456,-3579,7419,-1,-1,0
-155.63,3.17,-25.81,454,-3595,7449,-1,-1,0
-155.64,3.17,-25.80,449,-3585,7454,0,-1,0
-155.65,3.16,-25.80,449,-3581,7447,0,-1,0
-155.65,3.16,-25.80,439,-3583,7441,0,-1,0
-155.66,3.17,-25.79,432,-3582,7437,0,-1,0
-155.67,3.17,-25.79,442,-3576,7442,-1,-1,0
-155.66,3.17,-25.79,436,-3575,7451,0,-1,0
-155.67,3.18,-25.79,436,-3569,7458,-1,-1,0
-155.67,3.18,-25.79,439,-3570,7450,-1,-1,0
-155.68,3.18,-25.79,445,-3575,7446,-1,-1,0
-155.68,3.19,-25.80,447,-3574,7448,-1,-1,0
-155.68,3.19,-25.81,445,-3583,7436,-1,-1,0
-155.68,3.19,-25.81,447,-3583,7432,-1,-1,0
-155.68,3.20,-25.82,447,-3584,7431,-1,-1,0
-155.69,3.19,-25.82,447,-3588,7435,-1,-1,0
-155.69,3.20,-25.81,450,-3592,7429,-1,-1,0
-155.69,3.20,-25.81,447,-3592,7425,0,-1,-1
-155.69,3.21,-25.81,443,-3584,7434,0,-1,0
-155.69,3.21,-25.80,445,-3578,7429,-1,-1,-1
-155.69,3.21,-25.80,445,-3574,7441,-1,-1,0
-155.69,3.22,-25.81,449,-3586,7443,-1,-1,0
-155.69,3.22,-25.80,453,-3582,7456,-1,-1,0
-155.69,3.22,-25.80,456,-3581,7454,-1,-1,0
-155.70,3.22,-25.80,446,-3583,7452,-1,-1,0
-155.70,3.23,-25.81,451,-3586,7447,-1,-1,-1
-155.70,3.23,-25.81,457,-3575,7449,-1,-1,0
-155.70,3.24,-25.81,464,-3581,7443,-1,-1,0
-155.70,3.24,-25.81,459,-3581,7433,-1,-1,0
-155.70,3.24,-25.81,453,-3585,7429,-1,-1,0
-155.70,3.24,-25.81,441,-3596,7429,0,-1,-1
-155.70,3.25,-25.81,450,-3595,7438,0,-1,-1
-155.70,3.26,-25.80,460,-3591,7442,0,-1,-1
-155.70,3.26,-25.80,472,-3587,7446,0,-1,-1
-155.70,3.26,-25.79,470,-3582,7432,0,-1,0
-155.70,3.26,-25.79,468,-3572,7431,0,0,0
-155.70,3.26,-25.79,459,-3572,7426,-1,0,0
-155.70,3.26,-25.79,452,-3579,7422,0,-1,0
-155.71,3.25,-25.78,447,-3585,7422,0,-1,0
-155.71,3.25,-25.78,447,-3606,7417,0,-1,-1
-155.71,3.26,-25.77,452,-3598,7428,0,-1,-1
-155.71,3.27,-25.76,454,-3582,7433,0,-1,-1
-155.71,3.27,-25.75,465,-3564,7431,0,-1,-1
-155.71,3.28,-25.74,471,-3563,7426,0,-1,0
-155.71,3.28,-25.74,475,-3568,7404,0,-1,0
-155.71,3.28,-25.74,462,-3571,7429,0,0,0
-155.72,3.27,-25.73,451,-3565,7443,-1,0,0
-155.72,3.27,-25.74,443,-3570,7447,-1,-1,-1
-155.72,3.27,-25.74,442,-3576,7444,-1,-1,-1
-155.72,3.28,-25.74,442,-3572,7440,-1,-1,-1
-155.71,3.28,-25.74,447,-3568,7440,-1,-1,-1
-155.71,3.29,-25.74,462,-3573,7448,-1,-1,-1
-155.72,3.30,-25.74,469,-3578,7444,0,-1,-1
-155.72,3.30,-25.74,472,-3586,7442,0,-1,0
-155.72,3.30,-25.73,474,-3579,7445,0,0,0
-155.72,3.29,-25.73,465,-3574,7444,0,-1,0
-155.72,3.29,-25.72,461,-3582,7441,0,-1,0
-155.72,3.29,-25.71,451,-3581,7447,0,-1,0
-155.73,3.28,-25.70,453,-3577,7451,0,-1,0
-155.73,3.28,-25.69,448,-3580,7442,0,-1,0
-155.73,3.28,-25.68,450,-3573,7444,0,-1,0
-155.73,3.28,-25.68,449,-3564,7437,0,-1,0
-155.73,3.28,-25.67,457,-3558,7445,0,-1,0
-155.73,3.28,-25.66,457,-3560,7442,0,-1,0
-155.73,3.28,-25.66,457,-3566,7447,0,-1,0
-155.73,3.28,-25.65,461,-3567,7459,0,-1,0
-155.73,3.29,-25.65,459,-3569,7454,0,-1,0
-155.74,3.28,-25.65,459,-3561,7442,0,-1,0
-155.74,3.29,-25.65,464,-3562,7437,0,-1,0
-155.74,3.29,-25.65,467,-3565,7432,0,-1,0
-155.75,3.29,-25.64,466,-3579,7440,0,-1,0
-155.75,3.28,-25.64,458,-3568,7448,0,-1,0
-155.76,3.28,-25.63,451,-3567,7445,0,-1,0
-155.76,3.29,-25.63,457,-3570,7444,0,-1,-1
-155.76,3.29,-25.62,465,-3567,7444,0,-1,0
-155.75,3.29,-25.61,466,-3554,7457,0,-1,0
-155.75,3.28,-25.61,464,-3542,7464,-1,0,-1
-155.76,3.28,-25.61,448,-3530,7467,-1,0,-1
-155.75,3.27,-25.62,433,-3537,7467,-1,-1,-1
-155.75,3.28,-25.64,453,-3530,7459,-1,0,-1
-155.75,3.28,-25.66,451,-3520,7468,-2,0,-1
-155.75,3.28,-25.70,463,-3541,7467,-2,-1,-1
-155.75,3.28,-25.74,448,-3561,7429,-2,0,-1
-155.75,3.28,-25.78,463,-3549,7444,-2,0,-1
-155.75,3.28,-25.83,476,-3562,7429,-2,-1,-1
-155.75,3.28,-25.87,482,-3610,7418,-1,-1,0
-155.77,3.28,-25.90,454,-3619,7419,-1,-1,0
-155.77,3.28,-25.92,465,-3619,7414,-1,0,0
-155.78,3.28,-25.94,489,-3632,7396,-1,-1,0
-155.78,3.28,-25.94,468,-3625,7411,0,0,0
-155.79,3.27,-25.94,456,-3636,7413,0,0,0
-155.78,3.27,-25.93,453,-3630,7411,0,-1,-1
-155.77,3.28,-25.91,462,-3630,7424,0,-1,-1
-155.77,3.28,-25.89,479,-3617,7416,0,-1,0
-155.77,3.27,-25.86,479,-3584,7447,0,0,-1
-155.77,3.27,-25.84,481,-3550,7459,0,0,0
-155.77,3.27,-25.84,465,-3552,7453,-1,0,0
-155.77,3.26,-25.84,448,-3571,7446,-1,-1,0
-155.78,3.26,-25.86,442,-3571,7437,-1,-1,0
-155.78,3.26,-25.86,445,-3559,7462,-1,-1,0
-155.79,3.27,-25.89,459,-3568,7442,-1,-1,0
-155.79,3.27,-25.91,454,-3591,7422,-1,-1,0
-155.80,3.28,-25.93,459,-3615,7403,-1,-1,0
-155.80,3.29,-25.94,464,-3626,7404,-1,-1,0
-155.80,3.29,-25.95,466,-3629,7409,-1,-1,0
-155.80,3.29,-25.95,470,-3637,7413,0,0,0
-155.81,3.28,-25.94,462,-3632,7420,0,0,0
-155.81,3.27,-25.92,459,-3616,7429,0,0,0
-155.81,3.27,-25.91,460,-3598,7432,0,0,0
-155.82,3.26,-25.89,450,-3585,7441,0,-1,0
-155.81,3.26,-25.87,446,-3573,7442,0,-1,0
-155.82,3.26,-25.86,452,-3578,7447,0,-1,0
-155.82,3.26,-25.86,452,-3589,7444,0,-1,0
-155.82,3.27,-25.85,450,-3581,7440,0,-1,0
-155.82,3.27,-25.84,452,-3570,7449,0,-1,0
-155.82,3.26,-25.84,458,-3576,7446,-1,0,0
-155.82,3.26,-25.84,453,-3580,7450,-1,-1,0
-155.82,3.26,-25.85,457,-3592,7433,-1,-1,0
-155.83,3.27,-25.85,460,-3592,7440,0,-1,0
-155.83,3.27,-25.84,461,-3576,7441,0,-1,0
-155.83,3.27,-25.84,449,-3585,7436,-1,-1,-1
-155.83,3.27,-25.84,447,-3592,7427,0,-1,-1
-155.83,3.27,-25.84,450,-3589,7436,0,-1,-1
-155.83,3.27,-25.83,452,-3586,7432,-1,-1,0
-155.83,3.27,-25.83,443,-3586,7431,-1,-1,0
-155.83,3.28,-25.83,468,-3587,7427,-1,-1,0
-155.86,3.27,-25.83,467,-3538,7429,-1,-1,0
-155.88,3.27,-25.84,458,-3507,7461,-2,-1,0
