Yaw,Pitch,Roll,AX,AY,AZ,GX,GY,GZ
64.00,12.15,-1.44,1685,-306,7976,0,0,-1
64.02,12.15,-1.42,1692,-266,7996,1,-1,-1
64.01,12.15,-1.40,1701,-291,8009,1,0,0
64.02,12.15,-1.35,1680,-229,8030,1,-1,0
63.99,12.14,-1.33,1693,-198,8016,1,0,0
63.99,12.15,-1.29,1666,-128,8016,0,-1,0
63.97,12.15,-1.29,1689,-142,8042,0,-1,0
63.94,12.19,-1.32,1737,-169,8012,-1,-1,0
63.94,12.19,-1.32,1737,-169,8012,-1,-1,0
63.93,12.20,-1.33,1754,-207,7991,0,-1,-1
63.93,12.21,-1.32,1731,-232,7962,0,-1,0
63.93,12.22,-1.31,1726,-209,7967,0,-1,-1
63.93,12.23,-1.31,1731,-259,7981,0,-1,0
63.93,12.23,-1.28,1746,-207,7999,1,-1,-1
63.92,12.23,-1.27,1738,-215,8011,0,0,0
63.91,12.23,-1.24,1720,-173,8030,0,-1,0
63.90,12.22,-1.23,1723,-164,8028,0,0,0
63.90,12.22,-1.21,1707,-132,8021,-1,0,0
63.89,12.21,-1.22,1742,-154,8011,0,0,0
63.89,12.21,-1.21,1741,-156,7996,-1,0,0
63.88,12.21,-1.20,1769,-165,8011,0,0,-1
63.88,12.20,-1.20,1753,-167,8023,-1,0,0
63.88,12.18,-1.19,1739,-172,8013,0,0,-1
63.88,12.18,-1.19,1704,-179,7988,0,0,0
63.88,12.17,-1.18,1707,-179,7996,0,0,-1
63.87,12.16,-1.17,1678,-167,7999,-1,0,0
63.87,12.16,-1.16,1686,-152,8004,0,0,0
63.86,12.15,-1.17,1681,-164,8005,-1,0,0
63.85,12.15,-1.16,1696,-146,8005,0,-1,0
63.83,12.15,-1.17,1703,-161,7995,-1,-1,0
63.83,12.16,-1.16,1716,-145,8000,0,-1,-1
63.83,12.16,-1.17,1714,-185,7990,-1,-1,0
63.83,12.17,-1.16,1718,-172,7990,0,-1,0
63.82,12.17,-1.16,1724,-176,7992,0,-1,0
63.83,12.19,-1.13,1719,-144,8018,0,-1,0
63.82,12.19,-1.12,1733,-124,8034,0,-1,-1
63.83,12.19,-1.11,1716,-111,8028,-1,-1,-1
63.85,12.19,-1.12,1708,-143,8027,-1,-1,-1
63.86,12.20,-1.13,1726,-175,8025,-1,-1,-1
63.86,12.21,-1.15,1745,-234,7996,-1,-1,-1
63.86,12.22,-1.13,1750,-199,7988,0,-1,-1
63.86,12.22,-1.14,1776,-232,7988,0,0,0
63.85,12.22,-1.12,1740,-185,7999,0,-1,0
63.85,12.21,-1.11,1734,-169,7996,1,0,-1
63.84,12.22,-1.10,1688,-146,8010,-1,-1,0
63.83,12.22,-1.10,1710,-136,8014,0,-1,0
63.83,12.23,-1.11,1701,-158,8011,-1,-1,0
63.83,12.23,-1.10,1727,-122,8015,0,-1,-1
63.83,12.23,-1.12,1727,-153,7991,-1,0,-1
63.83,12.23,-1.13,1719,-140,7996,-1,-1,0
63.83,12.24,-1.16,1734,-200,7992,0,-1,-1
63.83,12.25,-1.15,1713,-176,7988,-1,-1,0
63.81,12.25,-1.17,1719,-202,7988,0,-1,0
63.81,12.26,-1.17,1696,-174,8005,-1,-1,0
63.81,12.26,-1.17,1703,-170,8009,0,-1,-1
63.81,12.26,-1.17,1687,-163,8005,-1,-1,-1
63.81,12.28,-1.17,1733,-164,8016,0,-1,0
63.79,12.30,-1.18,1790,-212,8023,-1,-1,0
63.79,12.32,-1.16,1811,-159,8002,0,-1,0
63.78,12.32,-1.16,1790,-178,7996,0,0,-1
63.78,12.32,-1.14,1752,-141,8015,-1,-1,-1
63.80,12.31,-1.13,1732,-167,7987,1,0,-1
63.80,12.30,-1.10,1670,-130,7971,-1,-1,-1
63.82,12.31,-1.09,1672,-97,7988,0,-1,-1
63.84,12.31,-1.09,1673,-113,8011,-1,-1,-1
63.84,12.32,-1.09,1712,-104,8031,-1,-1,-1
63.85,12.32,-1.14,1728,-185,8008,-2,0,-1
63.84,12.33,-1.15,1743,-191,7995,-1,-1,0
63.83,12.34,-1.19,1781,-247,7970,0,-1,0
63.83,12.35,-1.18,1753,-229,7962,-1,-1,0
63.81,12.36,-1.18,1780,-233,7967,1,-1,0
63.80,12.37,-1.14,1743,-193,7972,0,-1,0
63.80,12.38,-1.10,1743,-143,7992,1,-1,0
63.80,12.39,-1.07,1730,-119,8012,0,-1,0
63.81,12.39,-1.05,1735,-77,8050,-1,-1,0
63.81,12.39,-1.07,1726,-133,8033,-1,0,-1
63.82,12.39,-1.07,1715,-106,8039,-1,-1,-1
63.83,12.39,-1.10,1735,-168,8032,-1,0,-1
63.84,12.38,-1.11,1730,-180,8011,-1,-1,-1
63.85,12.39,-1.13,1770,-209,7979,0,0,-1
63.85,12.40,-1.13,1782,-212,7960,-1,-1,-1
63.86,12.41,-1.12,1806,-198,7975,1,0,0
63.85,12.41,-1.10,1790,-194,7967,0,0,0
63.85,12.41,-1.07,1778,-135,7976,0,0,0
63.83,12.40,-1.07,1745,-170,7989,0,0,0
63.83,12.40,-1.04,1716,-118,8004,0,-1,0
63.84,12.40,-1.05,1734,-161,8003,0,0,-1
63.84,12.39,-1.05,1688,-153,8009,-1,-1,-1
63.85,12.40,-1.05,1733,-167,8026,0,-1,-1
63.85,12.40,-1.05,1721,-175,8011,-1,-1,-1
63.85,12.40,-1.03,1736,-156,7988,0,-1,-1
63.85,12.42,-1.03,1746,-169,7967,0,-1,0
63.85,12.43,-1.00,1774,-135,7991,0,-1,0
63.85,12.45,-1.00,1796,-175,7984,0,-1,0
63.85,12.46,-0.98,1811,-116,8011,0,-1,0
63.85,12.46,-0.98,1802,-134,8006,0,0,0
63.85,12.46,-0.97,1779,-92,8001,-1,-1,0
63.85,12.46,-0.98,1761,-117,7987,-1,0,-1
63.83,12.46,-0.98,1727,-108,8001,-1,-1,0
63.84,12.45,-0.99,1727,-128,8003,-1,-1,-1
63.83,12.45,-1.00,1713,-132,7992,-1,-1,0
63.84,12.45,-1.01,1728,-154,7974,0,-1,-1
63.84,12.47,-1.01,1750,-151,7986,-1,-1,-1
63.84,12.48,-1.02,1738,-171,7990,-1,-1,0
63.83,12.49,-1.02,1757,-178,8001,0,-1,0
63.83,12.50,-1.01,1755,-164,7996,0,-1,0
63.83,12.51,-1.02,1777,-169,8016,0,-1,-1
63.83,12.51,-1.01,1789,-156,8006,0,0,0
63.82,12.51,-1.00,1800,-134,8008,0,0,0
63.82,12.51,-0.98,1780,-104,7996,-1,0,0
63.82,12.50,-0.99,1780,-115,8002,-1,0,-1
63.82,12.49,-1.00,1764,-142,7987,-1,0,-1
63.83,12.49,-1.00,1762,-162,7989,0,0,-1
63.83,12.49,-1.01,1734,-161,7971,-1,0,-1
63.83,12.48,-1.00,1740,-146,8000,0,0,-1
63.83,12.47,-1.01,1748,-152,8005,-1,0,0
63.83,12.46,-1.01,1766,-154,8013,-1,0,0
63.82,12.45,-1.02,1762,-174,8006,-1,0,0
63.82,12.45,-1.02,1767,-171,8014,0,0,0
63.81,12.44,-1.02,1780,-187,7996,0,0,0
63.80,12.42,-1.01,1775,-173,7982,0,0,0
63.79,12.40,-0.99,1757,-159,7982,1,0,0
63.79,12.39,-0.95,1732,-116,7991,0,0,0
63.78,12.38,-0.94,1712,-106,7975,0,-1,-1
63.80,12.38,-0.91,1695,-81,7980,-1,-1,-1
63.81,12.38,-0.90,1710,-92,7998,0,-1,-1
63.82,12.38,-0.91,1722,-87,8020,-1,0,-1
63.82,12.38,-0.91,1762,-88,8027,-1,0,-1
63.83,12.38,-0.95,1760,-105,8001,-2,0,0
63.83,12.38,-0.98,1759,-126,8014,-1,-1,-1
63.83,12.38,-1.02,1749,-162,7998,-1,0,0
63.83,12.38,-1.03,1733,-180,7985,-1,-1,-1
63.82,12.38,-1.04,1723,-217,7964,0,-1,-1
63.84,12.39,-1.02,1732,-199,7972,0,-1,-1
63.84,12.40,-1.00,1752,-175,7981,1,-1,-1
63.84,12.41,-0.97,1766,-114,8024,0,-1,-1
63.84,12.41,-0.97,1774,-122,8031,0,0,0
63.84,12.40,-0.98,1764,-122,8032,-1,0,0
63.84,12.40,-0.98,1764,-140,8019,-1,0,-1
63.84,12.38,-0.99,1745,-134,8013,-1,0,-1
63.85,12.37,-1.00,1741,-147,8005,-1,0,-1
63.86,12.35,-1.00,1726,-153,7986,-1,0,-1
63.86,12.34,-0.99,1733,-158,7989,0,0,-1
63.87,12.33,-0.99,1727,-153,7996,0,0,-1
63.87,12.33,-0.98,1730,-140,7996,0,0,-1
63.86,12.32,-1.00,1742,-164,7991,-1,0,0
63.87,12.31,-0.99,1748,-159,8001,0,0,-1
63.86,12.30,-0.99,1745,-165,7992,0,0,0
63.86,12.29,-0.98,1733,-145,8006,0,0,-1
63.85,12.27,-0.98,1733,-149,8011,0,0,-1
63.86,12.26,-0.97,1707,-143,7998,0,0,0
63.86,12.25,-0.97,1725,-146,8002,0,0,-1
63.87,12.24,-0.95,1716,-143,8001,0,0,0
63.87,12.23,-0.94,1742,-138,8011,0,0,-1
63.87,12.21,-0.94,1725,-134,8004,-1,0,0
63.87,12.19,-0.93,1734,-121,8026,0,0,-1
63.88,12.16,-0.93,1716,-115,8024,-1,0,-1
63.90,12.15,-0.93,1730,-102,8026,-1,0,-1
63.91,12.12,-0.94,1713,-124,7997,-1,0,-1
63.92,12.11,-0.95,1712,-120,7995,-1,0,-1
63.92,12.10,-0.97,1713,-162,7997,-1,0,0
63.92,12.10,-0.99,-258,-258,-258,-1,-2,-258
63.90,12.10,-1.02,1695,-196,8002,-1,-1,0
63.90,12.11,-1.04,1695,-204,7985,-1,-1,0
63.89,12.11,-1.04,1693,-184,7993,0,-1,-1
63.89,12.12,-1.03,1672,-177,7998,0,-1,0
63.89,12.14,-1.02,1670,-167,7998,0,-1,-1
63.90,12.16,-0.99,1678,-136,7995,0,-1,-1
63.90,12.17,-0.98,1700,-147,8007,0,-1,-1
63.91,12.19,-0.96,1709,-114,8006,0,-1,-1
63.91,12.20,-0.95,1741,-102,8000,0,-1,-1
63.92,12.21,-0.96,1711,-84,7995,-2,-1,0
63.92,12.23,-0.99,1744,-116,8008,-1,-1,0
63.92,12.25,-1.02,1747,-149,8015,-2,-1,0
63.91,12.25,-1.04,1762,-137,8030,-1,0,0
63.91,12.24,-1.08,1743,-188,8002,-1,0,0
63.91,12.24,-1.08,1743,-167,8004,-1,-1,0
63.91,12.24,-1.11,1736,-210,7995,0,0,-1
63.90,12.24,-1.10,1714,-180,8015,-1,-1,0
63.88,12.23,-1.11,1719,-192,8013,0,0,0
63.88,12.23,-1.11,1714,-183,8007,-1,-1,0
63.89,12.23,-1.08,1744,-139,8008,0,-1,0
63.87,12.23,-1.09,1724,-176,8000,-1,0,0
63.88,12.23,-1.06,1720,-133,8011,0,-1,-1
63.88,12.22,-1.06,1722,-172,8003,0,0,-1
63.88,12.22,-1.04,1697,-120,8007,-1,-1,0
63.88,12.22,-1.05,1744,-162,8006,0,0,-1
63.88,12.23,-1.04,1719,-152,7994,-1,-1,-1
63.88,12.22,-1.03,1735,-151,7996,0,0,0
63.87,12.22,-1.04,1702,-166,7992,-1,-1,0
63.86,12.23,-1.03,1717,-138,7997,0,-1,0
63.85,12.23,-1.04,1710,-162,7988,-1,-1,0
63.85,12.25,-1.03,1717,-117,8001,0,-1,0
63.83,12.26,-1.05,1740,-165,7990,-1,-1,0
63.81,12.28,-1.07,1736,-158,8019,-1,-1,0
63.80,12.29,-1.08,1766,-180,8009,0,-1,0
63.80,12.30,-1.08,1711,-165,8009,-1,-1,0
63.80,12.30,-1.07,1716,-161,8010,1,-1,-1
63.80,12.32,-1.06,1708,-163,8003,0,-1,-1
63.81,12.33,-1.03,1699,-133,7988,1,-1,-1
63.83,12.35,-1.02,1757,-143,8007,-1,-1,-1
63.83,12.36,-1.01,1762,-116,8026,-1,-1,0
63.83,12.37,-1.01,1781,-132,8003,0,0,-1
63.84,12.37,-0.99,1769,-88,8011,-1,0,0
63.84,12.35,-1.02,1760,-147,8003,0,0,-1
63.84,12.35,-1.02,1764,-132,7992,-2,0,0
63.84,12.34,-1.04,1749,-147,7974,-1,0,0
63.83,12.34,-1.06,1715,-167,7976,-1,-1,0
63.83,12.33,-1.07,1727,-159,7999,0,0,0
63.82,12.33,-1.09,1704,-212,7997,-1,-1,0
63.81,12.33,-1.08,1719,-182,8005,0,-1,0
63.81,12.33,-1.09,1728,-220,8007,0,0,0
63.80,12.34,-1.05,1739,-160,8022,0,-1,0
63.80,12.34,-1.05,1756,-166,8003,0,0,-1
63.80,12.34,-1.03,1743,-126,8014,-1,-1,0
63.80,12.34,-1.04,1754,-140,8005,0,0,-1
63.80,12.34,-1.01,1754,-95,7998,-1,0,0
63.80,12.33,-1.01,1733,-119,7998,0,-1,0
63.80,12.34,-1.02,1728,-137,7993,-1,-1,0
63.80,12.35,-1.01,1760,-143,8010,1,-1,-1
63.80,12.35,-1.01,1728,-149,7990,-1,-1,0
63.79,12.34,-1.01,1748,-111,8013,0,0,0
63.79,12.34,-1.03,1726,-158,7978,-2,-1,0
63.79,12.35,-1.04,1742,-132,7994,-1,-1,0
63.77,12.35,-1.05,1708,-159,7977,-1,-1,-1
63.78,12.37,-1.04,1728,-151,8005,-1,-1,0
63.78,12.38,-1.05,1724,-187,8003,0,-1,-1
63.78,12.40,-1.03,1754,-184,8020,0,-1,-1
63.80,12.40,-1.02,1781,-156,8023,0,0,-1
63.80,12.39,-1.00,1764,-135,8015,0,0,-1
63.80,12.39,-0.98,1757,-103,8016,0,-1,-1
63.80,12.38,-0.98,1771,-108,8019,-1,0,0
63.81,12.37,-0.99,1778,-112,8015,0,0,-1
63.82,12.36,-0.98,1768,-106,8000,-1,0,0
63.82,12.36,-0.99,1745,-107,7978,-1,0,0
63.81,12.35,-1.00,1739,-129,7971,-1,0,-1
63.81,12.34,-1.00,1723,-145,7978,-1,-1,0
63.80,12.33,-1.03,1732,-190,7993,-1,0,0
63.80,12.33,-1.02,1710,-192,7995,0,-1,0
63.80,12.33,-1.01,1717,-199,7992,1,-1,-1
63.81,12.34,-0.97,1720,-161,7996,0,-1,0
63.81,12.35,-0.94,1765,-155,8002,1,-1,-1
63.80,12.35,-0.92,1764,-131,8014,0,-1,0
63.80,12.36,-0.90,1775,-133,8023,0,-1,0
63.78,12.37,-0.89,1749,-133,8026,0,-1,0
63.76,12.38,-0.88,1783,-114,8020,0,0,0
63.74,12.37,-0.87,1759,-84,7994,-1,0,0
63.73,12.36,-0.86,1744,-38,7993,-1,0,0
63.72,12.35,-0.89,1730,-44,7995,-2,0,0
63.73,12.35,-0.91,1735,-59,8006,-2,-1,-1
63.73,12.35,-0.95,1745,-133,7998,-1,-1,-1
63.74,12.36,-0.95,1748,-164,8009,0,-1,-1
63.74,12.35,-0.95,1755,-195,7983,0,0,-1
63.76,12.34,-0.93,1739,-142,7948,0,0,-1
63.76,12.34,-0.93,1741,-139,7966,-1,0,-1
63.76,12.32,-0.93,1719,-120,7987,-1,0,0
63.75,12.32,-0.96,1719,-136,7983,-1,-1,-1
63.75,12.33,-0.99,1722,-166,7984,-2,-1,0
63.74,12.34,-1.02,1780,-208,8023,-1,-1,-1
63.73,12.34,-1.03,1805,-244,8035,0,0,0
63.72,12.34,-1.02,1800,-237,8030,1,0,-1
63.73,12.32,-1.01,1774,-236,8014,0,0,0
63.72,12.32,-0.97,1742,-192,8019,1,-1,-1
63.72,12.30,-0.92,1733,-154,8009,1,0,-1
63.72,12.30,-0.87,1704,-87,7990,1,-1,0
63.70,12.30,-0.84,1717,-77,7991,1,-1,0
63.71,12.30,-0.79,1723,-41,7984,0,-1,0
63.71,12.31,-0.77,1739,-51,8003,0,-1,-1
63.70,12.32,-0.76,1766,-55,8034,-1,0,0
63.70,12.32,-0.75,1783,-66,8049,0,0,-1
63.69,12.32,-0.74,1774,-74,8032,0,0,0
63.70,12.30,-0.73,1750,-33,8007,0,0,-1
63.70,12.28,-0.74,1719,-67,7990,-1,0,0
63.71,12.27,-0.75,1695,-51,7981,-1,-1,-1
63.71,12.26,-0.75,1698,-54,7968,-1,-1,-1
63.71,12.27,-0.75,1708,-31,7982,-1,-1,0
63.71,12.27,-0.78,1761,-34,7984,-1,0,-1
63.72,12.27,-0.80,1769,-30,7987,-3,0,0
63.73,12.27,-0.86,1782,-63,8007,-2,0,-1
63.74,12.26,-0.92,1769,-110,8000,-3,0,-1
63.73,12.25,-1.00,1771,-189,7975,-2,0,-1
63.74,12.24,-1.06,1748,-249,7959,-2,0,0
63.74,12.23,-1.11,1729,-259,7987,-1,0,-1
63.72,12.22,-1.14,1704,-279,7999,-1,0,0
63.72,12.22,-1.16,1701,-291,8019,0,-1,0
63.70,12.24,-1.18,1711,-327,8011,0,-1,0
63.68,12.28,-1.17,1746,-349,8011,1,-2,0
63.64,12.32,-1.13,1768,-341,8012,2,-2,1
63.59,12.35,-1.08,1753,-332,7988,3,-2,1
63.55,12.38,-0.97,1724,-252,7964,4,-2,0
63.52,12.42,-0.86,1738,-175,7972,4,-2,1
63.47,12.46,-0.77,1738,-137,7989,2,-3,1
63.42,12.53,-0.68,1760,-39,8009,2,-3,2
63.35,12.58,-0.61,1772,-3,7988,2,-2,2
63.29,12.63,-0.55,1778,78,7959,0,-3,2
63.21,12.69,-0.55,1809,22,7967,0,-2,3
63.11,12.74,-0.59,1802,-19,7992,-1,-2,3
63.05,12.79,-0.59,1800,-23,7963,1,-2,2
63.01,12.84,-0.55,1770,-15,7928,0,-3,1
62.99,12.88,-0.51,1788,-19,7916,1,-2,0
63.00,12.92,-0.46,1829,-26,7961,1,-1,-1
63.00,12.95,-0.38,1864,51,8010,1,-1,0
62.99,12.98,-0.38,1865,56,7996,-1,-1,0
62.98,13.00,-0.39,1815,56,7914,-2,-2,0
63.00,13.04,-0.39,1907,22,7945,0,-1,-1
63.00,13.07,-0.40,1891,-4,8046,-2,-1,0
62.97,13.09,-0.46,1870,-66,8053,-2,-2,1
62.95,13.13,-0.54,1840,-164,8004,-2,-2,0
62.95,13.15,-0.54,1837,-205,7990,1,-1,-1
62.98,13.15,-0.51,1829,-203,7982,2,-1,-2
63.00,13.18,-0.47,1829,-164,7972,0,-2,-1
63.00,13.23,-0.47,1861,-185,7939,0,-3,0
62.96,13.31,-0.47,1903,-169,7957,0,-3,1
62.92,13.38,-0.46,1930,-162,7975,2,-3,1
62.89,13.43,-0.39,1926,-95,7975,2,-2,1
62.85,13.47,-0.32,1943,1,7993,1,-2,2
62.79,13.52,-0.31,1930,18,7971,0,-2,2
62.72,13.58,-0.29,1947,59,7952,0,-3,2
62.66,13.65,-0.28,2018,81,7985,0,-2,2
62.57,13.71,-0.27,2019,140,8016,-1,-2,2
62.53,13.74,-0.29,2014,152,8085,-2,-2,1
62.53,13.75,-0.30,1964,155,8041,-2,0,-1
62.57,13.71,-0.33,1848,108,7922,-1,0,-3
62.66,13.65,-0.33,1754,84,7826,-2,1,-4
62.76,13.59,-0.35,1716,77,7882,-3,0,-4
62.87,13.56,-0.41,1774,52,7925,-4,0,-5
62.98,13.53,-0.48,1836,25,8002,-5,0,-3
63.03,13.55,-0.62,1934,-48,8030,-6,-1,-2
63.05,13.59,-0.80,2015,-101,8030,-7,-1,0
63.06,13.63,-0.98,2072,-157,7998,-6,-1,0
63.07,13.64,-1.14,2102,-236,7948,-5,0,-1
63.10,13.62,-1.25,2117,-295,7922,-3,1,-1
63.13,13.58,-1.34,2070,-354,7958,-2,2,-2
63.17,13.53,-1.36,1961,-334,7936,0,1,-2
63.20,13.48,-1.36,1930,-286,7913,-1,1,-2
63.23,13.45,-1.35,1853,-245,7873,-1,0,-2
63.29,13.42,-1.33,1847,-211,7875,0,0,-2
63.32,13.40,-1.33,1839,-162,7933,-2,0,-1
63.31,13.40,-1.36,1854,-168,7946,-2,-1,0
63.31,13.42,-1.40,1857,-189,7961,-2,-1,0
63.31,13.42,-1.41,1861,-160,7973,-1,-1,-1
63.31,13.42,-1.45,1878,-164,7996,-2,0,0
63.30,13.43,-1.50,1879,-157,8004,-3,-1,0
63.29,13.44,-1.57,1860,-236,7878,-1,-1,0
63.28,13.47,-1.60,1875,-286,7858,-1,-1,0
63.26,13.50,-1.63,1930,-343,7928,0,-2,0
63.22,13.55,-1.63,1963,-342,7982,0,-2,1
63.19,13.60,-1.60,1999,-295,7986,1,-2,1
63.17,13.63,-1.55,2012,-245,8014,1,-1,1
63.14,13.63,-1.52,1977,-201,8012,1,0,0
63.13,13.62,-1.49,1947,-164,7983,0,0,0
63.12,13.62,-1.46,1935,-137,7961,-1,0,0
63.12,13.61,-1.46,1881,-166,7924,0,-1,0
63.11,13.62,-1.46,1874,-188,7892,0,-1,0
63.10,13.64,-1.45,1882,-214,7909,0,-2,0
63.08,13.67,-1.43,1932,-204,7957,0,-1,0
63.06,13.70,-1.41,1928,-187,7986,0,-1,0
63.03,13.71,-1.41,1948,-183,7985,0,-1,0
63.01,13.72,-1.40,1913,-197,7960,0,-1,0
63.00,13.72,-1.39,1925,-225,7956,0,-1,0
62.99,13.74,-1.37,1902,-219,7926,0,-1,0
62.97,13.76,-1.35,1927,-215,7913,1,-1,0
62.96,13.80,-1.30,1942,-174,7935,1,-1,0
62.95,13.82,-1.26,1963,-160,7950,1,-1,0
62.92,13.85,-1.23,1994,-136,7973,0,-1,0
62.91,13.87,-1.20,2019,-105,7998,0,-1,0
62.90,13.87,-1.18,1984,-114,7972,0,0,0
62.90,13.87,-1.18,1966,-128,7976,0,-1,-1
62.90,13.86,-1.18,1978,-142,8002,-1,0,-1
62.91,13.86,-1.17,1972,-146,7967,0,0,-1
62.92,13.85,-1.16,2014,-149,7950,0,0,-1
62.92,13.83,-1.16,2000,-132,7952,-1,0,0
62.92,13.81,-1.17,1999,-133,7968,-1,0,0
62.90,13.79,-1.19,1939,-138,7965,-1,0,0
62.91,13.77,-1.20,1919,-149,7942,-1,0,-1
62.91,13.76,-1.22,1901,-170,7916,-1,0,0
62.91,13.75,-1.22,1926,-175,7916,0,-1,-1
62.90,13.75,-1.23,1944,-187,7925,-1,0,0
62.90,13.76,-1.22,1947,-183,7930,0,-1,0
62.89,13.76,-1.23,1976,-174,7943,-1,0,0
62.88,13.75,-1.25,1926,-185,7954,-1,-1,0
62.86,13.76,-1.26,1947,-202,7955,-1,0,0
62.85,13.77,-1.28,1936,-197,7950,-1,-1,0
62.83,13.77,-1.28,1964,-211,7956,0,0,0
62.82,13.78,-1.27,1948,-193,7929,0,-1,0
62.80,13.79,-1.26,1979,-181,7947,0,-1,0
62.78,13.80,-1.25,1961,-154,7947,0,-1,0
62.76,13.81,-1.25,1983,-145,7963,0,-1,0
62.75,13.81,-1.25,1964,-143,7950,-1,0,0
62.74,13.81,-1.24,1952,-125,7946,0,-1,-1
62.74,13.81,-1.24,1966,-117,7934,-1,0,0
62.74,13.81,-1.25,1966,-147,7926,-1,-1,0
62.73,13.80,-1.27,1966,-185,7921,-1,0,0
62.74,13.80,-1.27,1950,-183,7956,-1,-1,0
62.73,13.81,-1.28,1966,-189,7966,-1,-1,0
62.72,13.81,-1.29,1939,-204,7951,-1,-1,0
62.71,13.82,-1.30,1948,-216,7938,0,-1,0
62.70,13.83,-1.29,1951,-183,7942,0,-1,0
62.69,13.85,-1.29,1963,-154,7976,-1,-1,0
62.67,13.86,-1.30,1956,-162,7944,-1,-1,0
62.67,13.87,-1.30,1946,-196,7899,0,-1,-1
62.68,13.88,-1.28,1934,-181,7899,0,-1,-1
62.69,13.91,-1.27,1953,-170,7927,0,-2,-1
62.69,13.95,-1.25,1975,-149,7946,0,-2,0
62.69,13.98,-1.25,2018,-170,7948,0,-1,0
62.68,13.99,-1.25,1994,-173,7941,0,-1,0
62.68,14.00,-1.23,2010,-147,7982,0,-1,-1
62.69,14.01,-1.23,2003,-126,8003,-1,-1,-1
62.69,14.02,-1.23,2006,-117,7982,-1,-1,0
62.69,14.03,-1.26,1998,-155,7915,-1,0,-1
62.70,14.03,-1.26,1982,-164,7904,-1,-1,0
62.70,14.04,-1.28,1974,-208,7903,-1,-1,-1
62.69,14.05,-1.29,1960,-208,7921,-1,-1,0
62.69,14.06,-1.30,1981,-230,7942,0,-1,-1
62.69,14.07,-1.30,1968,-230,7949,0,-1,0
62.69,14.09,-1.28,2005,-204,7976,0,-1,0
62.69,14.12,-1.28,2015,-200,7951,0,-1,0
62.68,14.13,-1.26,2008,-163,7941,0,-1,0
62.67,14.14,-1.27,2011,-184,7934,0,-1,0
62.67,14.16,-1.25,2017,-158,7945,0,-1,0
62.66,14.17,-1.24,2037,-158,7963,0,-1,0
62.66,14.18,-1.23,2015,-134,7958,-1,-1,0
62.65,14.18,-1.23,2023,-141,7965,0,0,0
62.65,14.19,-1.23,1992,-142,7936,-1,-1,-1
62.65,14.18,-1.22,1997,-116,7933,0,-1,0
62.65,14.18,-1.23,1986,-137,7920,-1,-1,-1
62.66,14.20,-1.23,2002,-133,7944,-1,-1,0
62.66,14.20,-1.25,2021,-166,7940,-1,0,-1
62.65,14.20,-1.27,2006,-164,7956,-2,-1,0
62.66,14.20,-1.29,2021,-193,7951,-1,0,-1
62.67,14.19,-1.30,1976,-213,7904,-1,0,-1
62.68,14.18,-1.31,1978,-225,7882,0,0,-1
62.68,14.19,-1.31,1985,-250,7898,0,-1,0
62.68,14.23,-1.29,2057,-214,7963,0,-1,0
62.66,14.25,-1.28,2075,-211,7968,0,-1,0
62.64,14.27,-1.27,2047,-170,7955,0,-1,0
62.63,14.27,-1.26,2043,-183,7957,0,0,-1
62.64,14.26,-1.23,2006,-148,7954,0,-1,0
62.64,14.27,-1.21,2005,-144,7922,1,-1,-1
62.65,14.28,-1.18,1996,-124,7910,0,-1,-1
62.67,14.29,-1.15,2015,-109,7920,0,-1,-1
62.67,14.31,-1.15,2018,-120,7902,-1,-1,0
62.67,14.31,-1.15,2037,-109,7933,-1,-1,0
62.65,14.31,-1.17,2035,-135,7953,-1,0,0
62.65,14.32,-1.18,2048,-135,7957,-1,-1,0
62.65,14.32,-1.21,2053,-148,7932,-2,-1,0
62.64,14.33,-1.25,2037,-165,7948,-2,-1,0
62.63,14.33,-1.30,2037,-230,7924,-1,0,0
62.61,14.33,-1.32,2012,-241,7885,-1,-1,0
62.58,14.34,-1.33,2024,-264,7878,0,-1,0
62.57,14.36,-1.30,2038,-211,7890,1,-1,0
62.56,14.37,-1.27,2065,-165,7930,1,-1,0
62.56,14.39,-1.23,2061,-123,7956,0,-1,0
62.56,14.39,-1.21,2062,-104,7987,0,-1,-1
62.56,14.39,-1.22,2038,-130,7977,-2,0,0
62.56,14.37,-1.25,2023,-170,7954,-1,0,-1
62.57,14.36,-1.27,2013,-189,7946,-1,0,-1
62.57,14.34,-1.28,2021,-175,7961,-1,0,-1
62.57,14.34,-1.30,2030,-181,7947,-1,-1,-1
62.57,14.34,-1.32,2025,-210,7890,-1,0,0
62.55,14.34,-1.33,2035,-249,7859,0,0,0
62.54,14.35,-1.32,2037,-234,7885,0,-1,0
62.52,14.36,-1.30,2040,-195,7916,1,-1,0
62.52,14.37,-1.26,2038,-154,7913,1,-1,0
62.52,14.39,-1.22,2031,-133,7909,0,-1,-1
62.52,14.38,-1.20,2013,-134,7902,0,-1,-1
62.54,14.39,-1.18,2019,-124,7906,0,-1,-1
62.54,14.40,-1.17,2030,-123,7918,-1,-1,0
62.55,14.40,-1.18,2042,-121,7956,-1,-1,0
62.54,14.40,-1.19,2067,-135,7963,-1,0,0
62.54,14.40,-1.22,2059,-168,7968,-1,-1,0
62.53,14.40,-1.25,2068,-209,7949,-1,0,0
62.53,14.40,-1.25,2044,-220,7935,0,-1,0
62.53,14.41,-1.24,2064,-214,7926,0,0,-1
62.53,14.40,-1.22,2032,-187,7910,0,0,0
62.53,14.39,-1.20,2037,-157,7927,0,0,-1
62.54,14.39,-1.17,2007,-124,7913,0,-1,0
62.54,14.39,-1.16,2035,-101,7922,0,0,-1
62.54,14.38,-1.16,2013,-106,7923,-1,-1,0
62.55,14.39,-1.17,2049,-121,7938,-1,0,-1
62.55,14.38,-1.19,2043,-160,7935,-1,0,0
62.55,14.37,-1.20,2061,-175,7921,-1,0,-1
62.55,14.36,-1.22,2032,-208,7899,-1,0,0
62.55,14.36,-1.24,2041,-239,7914,0,0,-1
62.55,14.35,-1.23,2035,-234,7926,0,0,0
62.54,14.35,-1.21,2025,-199,7942,0,-1,0
62.53,14.35,-1.20,2024,-175,7928,0,0,0
62.53,14.35,-1.18,2038,-145,7942,0,-1,0
62.51,14.35,-1.18,2041,-134,7940,0,0,0
62.51,14.35,-1.17,2031,-124,7940,-1,-1,0
62.51,14.34,-1.18,2031,-138,7927,-1,0,0
62.51,14.34,-1.18,2013,-158,7907,0,-1,-1
62.50,14.34,-1.19,2022,-181,7909,0,0,-1
62.50,14.34,-1.19,2010,-187,7927,0,-1,0
62.50,14.34,-1.18,2039,-184,7931,0,-1,0
62.50,14.35,-1.17,2036,-187,7930,0,-1,0
62.49,14.35,-1.17,2054,-180,7946,0,0,0
62.48,14.35,-1.16,2041,-171,7943,0,0,0
62.47,14.35,-1.16,2041,-148,7937,0,-1,0
62.46,14.36,-1.16,2038,-140,7925,0,-1,0
62.45,14.36,-1.17,2041,-163,7926,0,-1,0
62.45,14.36,-1.16,2036,-165,7906,0,-1,0
62.44,14.37,-1.14,2045,-140,7920,0,-1,0
62.44,14.37,-1.12,2030,-136,7915,0,-1,0
62.44,14.37,-1.10,2053,-135,7912,0,0,-1
62.44,14.38,-1.09,2048,-139,7919,0,0,0
62.45,14.38,-1.08,2046,-137,7944,0,0,-1
62.45,14.38,-1.07,2033,-133,7949,-1,-1,0
62.45,14.38,-1.08,2051,-151,7949,-1,-1,-1
62.47,14.38,-1.08,2046,-157,7936,0,0,-1
62.47,14.39,-1.06,2048,-153,7928,0,-1,-1
62.47,14.39,-1.05,2029,-140,7916,0,-1,0
62.47,14.39,-1.04,2028,-139,7917,0,-1,0
62.47,14.40,-1.03,2022,-121,7914,0,-1,0
62.45,14.41,-1.04,2020,-140,7900,-1,-1,0
62.45,14.42,-1.03,2012,-132,7908,0,-1,0
62.45,14.44,-1.03,2031,-145,7915,0,-1,-1
62.45,14.46,-1.02,2024,-126,7913,-1,-1,0
62.45,14.48,-1.03,2072,-149,7939,0,-1,-1
62.45,14.50,-1.03,2053,-162,7935,-1,-1,0
62.44,14.51,-1.02,2085,-155,7949,0,-1,0
62.44,14.52,-1.01,2072,-154,7947,0,-1,0
62.44,14.54,-1.00,2088,-116,7961,0,-1,0
62.44,14.54,-1.00,2054,-134,7894,-1,0,-1
62.44,14.54,-0.99,2043,-110,7879,-1,-1,0
62.44,14.56,-1.00,2077,-144,7906,0,-1,0
62.44,14.58,-1.01,2066,-137,7934,-1,-1,0
62.44,14.58,-1.00,2102,-122,7958,0,-1,0
62.42,14.59,-1.00,2092,-125,7959,-1,0,0
62.43,14.58,-1.01,2070,-113,7949,-1,0,0
62.42,14.57,-1.03,2060,-148,7919,-1,0,-1
62.42,14.57,-1.03,2047,-137,7910,-1,-1,0
62.43,14.57,-1.04,2070,-161,7897,0,-1,-1
62.42,14.57,-1.04,2022,-141,7877,-1,-1,0
62.42,14.57,-1.05,2024,-143,7895,0,0,-1
62.42,14.57,-1.05,2023,-142,7912,-1,-1,0
62.42,14.58,-1.05,2081,-115,7959,0,-1,0
62.42,14.59,-1.07,2097,-139,7965,-1,-1,0
62.41,14.60,-1.08,2105,-137,7962,-1,-1,0
62.41,14.59,-1.09,2113,-168,7939,-1,0,-1
62.41,14.58,-1.09,2046,-144,7889,-1,0,-1
62.42,14.58,-1.09,2058,-153,7876,0,0,-1
62.42,14.58,-1.10,2021,-167,7884,-1,-1,0
62.42,14.59,-1.09,2073,-166,7911,0,-1,-1
62.41,14.61,-1.09,2072,-171,7934,-1,-1,0
62.40,14.61,-1.08,2041,-162,7908,0,-1,0
62.40,14.61,-1.07,2051,-171,7905,0,0,-1
62.41,14.62,-1.05,2084,-142,7966,0,-1,0
62.41,14.62,-1.05,2125,-127,7979,-1,0,-1
62.41,14.62,-1.05,2100,-96,7961,-1,0,0
62.42,14.61,-1.06,2085,-109,7904,-1,0,-1
62.42,14.60,-1.07,2041,-123,7868,-1,0,0
62.43,14.58,-1.07,2017,-154,7846,0,-1,-1
62.43,14.59,-1.06,2022,-141,7889,-1,-1,-1
62.43,14.59,-1.05,2047,-133,7937,0,-1,0
62.43,14.62,-1.05,2074,-137,7913,-1,-1,-1
62.43,14.62,-1.06,2107,-138,7925,-1,0,0
62.41,14.63,-1.10,2089,-187,7934,-1,-1,0
62.40,14.64,-1.10,2098,-177,7939,-1,-1,0
62.38,14.64,-1.12,2089,-197,7918,0,-1,0
62.38,14.66,-1.11,2074,-184,7888,0,-1,0
62.37,14.66,-1.09,2091,-176,7900,1,-1,0
62.35,14.66,-1.07,2070,-142,7930,0,-1,0
62.35,14.68,-1.06,2093,-118,7942,0,-1,0
62.34,14.69,-1.06,2093,-135,7918,-1,-1,0
62.33,14.69,-1.05,2101,-138,7907,0,-1,0
62.32,14.70,-1.05,2093,-156,7901,0,0,0
62.31,14.70,-1.03,2094,-109,7926,0,-1,0
62.33,14.70,-1.02,2084,-122,7926,0,0,-1
62.33,14.70,-1.01,2074,-112,7913,-1,-1,-1
62.34,14.70,-1.02,2078,-160,7892,0,0,-1
62.34,14.70,-1.02,2054,-156,7891,-1,-1,0
62.33,14.71,-1.03,2072,-153,7928,0,-1,0
62.31,14.71,-1.04,2068,-156,7926,-1,-1,0
62.30,14.72,-1.03,2105,-150,7914,0,0,0
62.29,14.72,-1.02,2092,-148,7896,0,-1,0
62.27,14.73,-1.02,2109,-143,7933,0,-1,0
62.26,14.73,-1.02,2101,-134,7937,0,-1,0
62.24,14.74,-1.01,2090,-117,7930,0,-1,0
62.23,14.75,-1.02,2077,-134,7909,-1,-1,0
62.21,14.76,-1.02,2090,-134,7923,0,-1,0
62.19,14.76,-1.02,2092,-129,7955,0,-1,0
62.17,14.76,-1.02,2061,-129,7925,0,-1,0
62.16,14.77,-1.02,2045,-170,7856,0,-1,0
62.13,14.79,-1.01,2063,-212,7805,1,-1,0
62.12,14.82,-0.96,2090,-212,7825,2,-2,0
62.11,14.86,-0.89,2106,-172,7868,3,-2,0
62.10,14.89,-0.80,2115,-118,7912,3,-2,-1
62.10,14.92,-0.71,2127,-64,7941,2,-1,-1
62.11,14.94,-0.65,2132,-9,7981,1,-1,-1
62.11,14.95,-0.62,2139,21,7995,-1,-1,0
62.11,14.94,-0.62,2120,35,7992,-1,0,0
62.11,14.91,-0.64,2121,17,7982,-2,1,-1
62.12,14.89,-0.67,2089,0,7936,-2,0,-1
62.14,14.87,-0.70,2116,-64,7887,-2,0,-1
62.14,14.87,-0.74,2103,-120,7857,-1,0,-1
62.15,14.87,-0.76,2115,-144,7846,-1,0,-1
62.14,14.87,-0.77,2097,-150,7842,0,0,0
62.15,14.87,-0.75,2101,-134,7872,0,-1,-1
62.14,14.88,-0.74,2098,-123,7883,0,-1,-1
62.16,14.88,-0.71,2108,-110,7921,0,-1,-1
62.16,14.89,-0.70,2121,-97,7933,0,0,0
62.16,14.89,-0.70,2117,-90,7951,-1,-1,0
62.14,14.89,-0.72,2121,-106,7930,-1,0,0
62.13,14.89,-0.72,2111,-108,7934,-1,0,0
62.12,14.87,-0.74,2096,-109,7921,-1,0,0
62.11,14.87,-0.74,2079,-119,7903,-1,-1,0
62.10,14.87,-0.74,2096,-124,7906,0,0,0
62.09,14.87,-0.72,2069,-114,7888,0,-1,0
62.09,14.87,-0.71,2104,-109,7922,0,-1,-1
62.09,14.88,-0.68,2097,-82,7926,0,-1,0
62.10,14.89,-0.64,2123,-41,7904,0,-1,-1
62.10,14.90,-0.62,2115,-21,7863,0,0,0
62.10,14.90,-0.62,2125,-24,7868,-1,0,-1
62.10,14.88,-0.62,2106,-49,7884,-1,0,0
62.10,14.87,-0.63,2089,-82,7911,-1,0,-1
62.10,14.87,-0.66,2117,-103,7949,-1,0,0
62.10,14.87,-0.66,2140,-102,7989,-1,-1,0
62.09,14.86,-0.69,2141,-113,7959,-1,0,-1
62.10,14.84,-0.69,2115,-75,7944,-1,0,-1
62.10,14.81,-0.72,2107,-98,7917,-1,1,-1
62.10,14.80,-0.74,2060,-117,7889,-1,-1,-1
62.11,14.80,-0.74,2091,-129,7884,0,0,-1
62.11,14.81,-0.72,2072,-125,7855,0,-1,-1
62.12,14.81,-0.70,2112,-100,7882,1,0,-1
62.13,14.81,-0.66,2101,-65,7895,0,0,-1
62.15,14.81,-0.64,2114,-48,7937,0,0,-1
62.15,14.81,-0.63,2104,-33,7936,-1,0,0
62.16,14.80,-0.63,2108,-33,7925,-1,0,-1
62.16,14.80,-0.65,2093,-54,7906,-1,0,0
62.16,14.79,-0.68,2099,-106,7891,-1,0,-1
62.16,14.79,-0.69,2082,-120,7865,0,0,0
62.16,14.79,-0.69,2072,-108,7875,0,-1,-1
62.16,14.78,-0.69,2054,-109,7901,-1,-1,0
62.16,14.78,-0.69,2060,-109,7913,-1,-1,-1
62.16,14.79,-0.69,2074,-93,7918,-1,-1,0
62.16,14.80,-0.70,2105,-90,7935,-1,-1,0
62.15,14.83,-0.70,2122,-85,7907,-1,-1,0
62.15,14.84,-0.71,2152,-92,7905,0,-1,0
62.15,14.85,-0.71,2126,-103,7902,-1,-1,0
62.14,14.85,-0.71,2130,-89,7921,-1,0,0
62.14,14.85,-0.73,2112,-110,7913,-1,0,-1
62.15,14.85,-0.72,2094,-83,7909,-1,-1,0
62.15,14.85,-0.73,2097,-99,7912,-1,0,-1
62.15,14.85,-0.72,2090,-63,7907,-1,-1,0
62.16,14.85,-0.72,2102,-79,7889,0,0,-1
62.16,14.85,-0.72,2085,-70,7908,-1,-1,0
62.16,14.85,-0.74,2103,-94,7919,0,-1,0
62.15,14.86,-0.75,2087,-106,7891,-1,-1,0
62.16,14.86,-0.76,2102,-104,7881,-1,-1,0
62.16,14.86,-0.78,2099,-130,7883,-1,0,-1
62.15,14.88,-0.77,2108,-96,7905,-1,-1,0
62.14,14.88,-0.78,2111,-126,7902,-1,-1,0
62.13,14.89,-0.78,2096,-102,7904,-1,-1,0
62.13,14.90,-0.78,2117,-110,7912,0,-1,0
62.12,14.90,-0.78,2081,-95,7912,-1,-1,0
62.11,14.90,-0.78,2118,-88,7918,0,-1,-1
62.11,14.91,-0.78,2102,-87,7910,-1,-1,0
62.11,14.92,-0.78,2143,-87,7924,0,-1,0
62.11,14.92,-0.79,2140,-110,7933,-1,0,0
62.11,14.92,-0.79,2129,-119,7952,0,0,0
62.11,14.92,-0.80,2127,-141,7925,0,0,-1
62.11,14.91,-0.78,2101,-107,7901,0,0,-1
62.12,14.90,-0.78,2111,-133,7897,0,0,-1
62.13,14.91,-0.76,2101,-114,7889,0,-1,0
62.13,14.91,-0.75,2119,-93,7903,0,-1,-1
62.12,14.91,-0.74,2094,-79,7898,-1,-1,0
62.12,14.92,-0.74,2125,-66,7904,0,-1,0
62.11,14.92,-0.75,2100,-82,7893,-1,-1,0
62.11,14.93,-0.74,2111,-70,7915,-1,-1,0
62.11,14.93,-0.75,2109,-98,7903,-1,0,-1
62.11,14.94,-0.76,2110,-82,7905,-1,-1,0
62.11,14.94,-0.77,2113,-113,7907,-1,0,-1
62.11,14.94,-0.77,2098,-106,7911,-1,-1,0
62.11,14.94,-0.79,2121,-125,7911,0,-1,-1
62.09,14.95,-0.79,2090,-116,7900,-1,-1,0
62.09,14.95,-0.79,2137,-121,7929,0,-1,0
62.08,14.96,-0.79,2127,-129,7896,-1,-1,0
62.07,14.98,-0.79,2132,-121,7870,0,-1,0
62.06,14.98,-0.79,2132,-135,7893,0,-1,0
62.06,14.99,-0.76,2116,-113,7912,0,-1,0
62.05,15.00,-0.75,2131,-109,7902,0,-1,-1
62.05,15.00,-0.72,2126,-76,7908,0,-1,0
62.07,15.00,-0.70,2133,-74,7918,0,0,-1
62.06,15.00,-0.68,2114,-51,7911,-1,-1,0
62.07,15.00,-0.69,2132,-54,7923,0,0,-1
62.07,15.00,-0.68,2114,-60,7909,-1,-1,-1
62.08,15.00,-0.69,2126,-73,7897,-1,0,-1
62.08,15.00,-0.71,2111,-116,7868,-1,-1,-1
62.08,15.00,-0.70,2103,-115,7891,0,-1,0
62.08,15.00,-0.71,2115,-124,7897,0,-1,-1
62.08,15.01,-0.70,2126,-85,7919,0,-1,0
62.07,15.00,-0.70,2109,-97,7892,0,-1,-1
62.07,15.01,-0.67,2102,-61,7898,0,-1,-1
62.08,15.01,-0.68,2119,-88,7898,-1,-1,-1
62.08,15.03,-0.68,2141,-96,7898,0,-1,0
62.08,15.04,-0.67,2153,-120,7921,0,-1,0
62.06,15.04,-0.68,2166,-132,7952,0,-1,0
62.06,15.06,-0.68,2162,-130,7945,0,-1,0
62.07,15.05,-0.65,2152,-103,7943,0,0,-1
62.07,15.05,-0.62,2122,-72,7914,0,0,-1
62.08,15.04,-0.61,2113,-71,7896,0,0,-1
62.09,15.04,-0.58,2113,-65,7892,0,0,0
62.09,15.05,-0.55,2122,-17,7893,0,-1,-1
62.09,15.06,-0.53,2142,24,7897,-1,-1,0
62.10,15.05,-0.52,2103,18,7855,-1,0,-1
62.12,15.04,-0.52,2115,12,7866,-1,0,-1
62.14,15.03,-0.54,2137,-32,7929,-1,0,-1
62.16,15.03,-0.56,2186,-52,7976,-2,0,-1
62.16,15.02,-0.59,2169,-49,7990,-2,0,-1
62.16,14.99,-0.64,2130,-87,7933,-2,0,-1
62.17,14.97,-0.67,2116,-115,7895,-2,0,-1
62.17,14.93,-0.71,2080,-179,7813,-1,0,-1
62.18,14.93,-0.71,2063,-194,7815,0,-1,-1
62.17,14.94,-0.70,2089,-188,7894,1,-1,-1
62.17,14.97,-0.65,2095,-126,7899,1,-2,0
62.16,15.00,-0.62,2134,-86,7891,1,-1,0
62.14,15.00,-0.59,2130,-62,7893,0,0,0
62.15,15.00,-0.56,2160,-25,7914,0,0,-1
62.14,14.99,-0.54,2193,12,7992,-1,0,-1
62.16,14.99,-0.52,2200,56,8038,-1,0,-1
62.18,14.96,-0.55,2153,29,7971,-2,1,-1
62.22,14.91,-0.60,2098,-15,7908,-3,1,-2
62.24,14.85,-0.66,2068,-129,7858,-2,1,-1
62.25,14.84,-0.70,2038,-194,7826,-1,-1,-1
62.24,14.84,-0.72,2056,-217,7825,0,-1,0
62.22,14.85,-0.70,2030,-212,7818,1,-2,0
62.21,14.88,-0.64,2084,-132,7863,2,-1,0
62.20,14.90,-0.60,2105,-106,7909,1,-1,0
62.18,14.92,-0.56,2182,-42,7958,1,-1,-1
62.18,14.93,-0.52,2177,1,7963,-1,0,0
62.18,14.92,-0.53,2158,-11,7979,-1,0,0
62.17,14.90,-0.55,2124,-26,7937,-1,0,-1
62.19,14.88,-0.56,2092,-46,7912,-1,0,-1
62.19,14.86,-0.57,2084,-81,7911,-1,0,-1
62.20,14.85,-0.57,2072,-82,7906,0,0,0
62.19,14.84,-0.57,2088,-104,7891,0,0,0
62.18,14.85,-0.56,2082,-91,7892,0,-1,0
62.16,14.86,-0.56,2116,-103,7908,0,-1,0
62.15,14.88,-0.55,2105,-101,7890,0,-1,0
62.13,14.89,-0.54,2141,-111,7888,1,-1,-1
62.14,14.90,-0.50,2115,-83,7893,0,-1,0
62.14,14.90,-0.47,2128,-47,7918,1,0,-1
62.14,14.89,-0.44,2110,-22,7899,0,0,0
62.15,14.88,-0.43,2112,-28,7911,0,0,-1
62.14,14.87,-0.42,2085,-39,7907,-1,0,0
62.13,14.87,-0.42,2073,-23,7899,0,-1,0
62.13,14.88,-0.42,2119,-25,7913,-1,-1,0
62.14,14.90,-0.42,2157,-5,7964,0,-1,-1
62.16,14.88,-0.40,2161,37,7941,-1,1,-1
62.19,14.86,-0.40,2126,64,7935,-2,1,-1
62.22,14.82,-0.46,2084,14,7921,-3,0,-2
62.25,14.81,-0.51,2063,-50,7908,-3,0,-1
62.26,14.79,-0.57,2057,-117,7878,-2,0,-1
62.27,14.80,-0.62,2062,-158,7889,-2,-1,-1
62.27,14.80,-0.67,2064,-227,7872,-1,-1,0
62.27,14.81,-0.67,2057,-233,7878,1,-1,0
62.25,14.83,-0.64,2049,-211,7875,1,-1,-1
62.24,14.86,-0.60,2037,-137,7892,1,-2,0
62.23,14.90,-0.58,2071,-137,7892,1,-2,0
62.21,14.93,-0.55,2090,-115,7890,0,-2,0
62.19,14.97,-0.54,2174,-113,7940,1,-1,0
62.16,15.00,-0.52,2164,-77,7953,0,-1,1
62.14,15.02,-0.48,2171,-17,7939,1,-1,0
62.14,15.02,-0.45,2148,7,7910,0,0,0
62.14,15.02,-0.42,2136,37,7927,0,-1,0
62.14,15.03,-0.43,2138,4,7885,-1,-1,-1
62.14,15.05,-0.42,2117,9,7891,-1,-1,0
62.15,15.06,-0.44,2124,-42,7885,0,-1,-1
62.15,15.07,-0.43,2128,-42,7894,-1,-1,-1
62.17,15.07,-0.43,2164,-30,7928,0,0,-1
62.18,15.07,-0.42,2131,-31,7915,-1,-1,0
62.17,15.08,-0.42,2153,-19,7915,0,-1,0
62.16,15.08,-0.44,2142,-51,7892,-1,0,0
62.16,15.09,-0.45,2126,-50,7882,-1,-1,0
62.14,15.09,-0.48,2130,-93,7872,-1,0,0
62.14,15.10,-0.48,2118,-75,7909,0,-1,0
62.14,15.10,-0.47,2150,-64,7914,0,-1,-1
62.15,15.10,-0.47,2123,-53,7923,-1,-1,0
62.15,15.10,-0.49,2144,-78,7909,0,0,-1
62.14,15.10,-0.49,2146,-72,7883,-1,-1,0
62.14,15.10,-0.49,2142,-66,7887,0,-1,0
62.13,15.11,-0.51,2144,-106,7878,-1,-1,0
62.13,15.12,-0.49,2149,-79,7899,0,-1,0
62.13,15.13,-0.48,2155,-81,7921,0,0,-1
62.13,15.13,-0.45,2132,-31,7918,0,-1,0
62.13,15.14,-0.45,2164,-33,7922,0,0,-1
62.13,15.14,-0.43,2145,-15,7918,-1,0,-1
62.14,15.14,-0.42,2141,-21,7896,0,-1,-1
62.13,15.13,-0.42,2130,-35,7894,-1,0,0
62.13,15.14,-0.43,2153,-12,7891,-1,-1,-1
62.14,15.14,-0.44,2152,-43,7892,-1,0,-1
62.14,15.13,-0.44,2134,-20,7901,-1,0,-1
62.16,15.12,-0.47,2145,-68,7888,-1,0,-1
62.15,15.12,-0.48,2115,-80,7895,-1,-1,0
62.15,15.12,-0.50,2141,-101,7903,0,-1,0
62.14,15.13,-0.51,2113,-106,7893,0,-1,0
62.15,15.15,-0.50,2157,-54,7900,0,-1,0
62.14,15.15,-0.50,2150,-66,7889,-1,-1,0
62.14,15.16,-0.50,2158,-45,7892,-1,-1,0
62.13,15.16,-0.51,2151,-72,7874,-1,-1,-1
62.13,15.17,-0.52,2157,-75,7906,0,-1,0
62.13,15.17,-0.52,2158,-80,7899,0,0,-1
62.13,15.17,-0.49,2158,-53,7908,-1,0,-1
62.14,15.17,-0.50,2156,-94,7906,0,0,-1
62.15,15.16,-0.49,2141,-84,7898,0,-1,-1
62.15,15.16,-0.48,2154,-83,7901,0,0,-1
62.15,15.16,-0.46,2133,-59,7888,0,0,0
62.14,15.16,-0.46,2133,-48,7873,0,-1,0
62.13,15.16,-0.45,2119,-48,7885,0,-1,0
62.12,15.16,-0.44,2111,-42,7877,0,-1,0
62.12,15.17,-0.44,2131,-31,7887,0,-1,0
62.11,15.19,-0.43,2148,-17,7887,0,-1,0
62.11,15.20,-0.42,2177,-24,7899,-1,-1,0
62.10,15.20,-0.42,2169,-23,7896,-1,0,0
62.09,15.20,-0.43,2179,-26,7908,-1,0,0
62.07,15.21,-0.45,2163,-15,7895,-1,-1,1
62.03,15.22,-0.48,2182,-38,7897,-1,-1,1
62.00,15.24,-0.51,2194,-52,7887,-1,0,1
61.97,15.24,-0.53,2175,-59,7891,-1,0,0
61.95,15.21,-0.55,2150,-79,7907,-1,0,0
61.95,15.18,-0.58,2105,-115,7941,-1,0,-1
61.96,15.16,-0.60,2091,-156,7942,0,0,-1
61.99,15.14,-0.59,2078,-154,7919,0,-1,-1
62.01,15.14,-0.56,2110,-134,7896,1,0,-1
62.03,15.15,-0.52,2134,-91,7864,1,-1,-1
62.02,15.16,-0.49,2192,-46,7882,0,0,0
62.01,15.18,-0.48,2171,-46,7869,0,-1,0
62.00,15.18,-0.47,2176,-31,7897,0,-1,0
61.98,15.18,-0.47,2167,-56,7903,0,0,0
61.97,15.20,-0.47,2169,-67,7900,0,-1,0
61.94,15.20,-0.47,2159,-79,7889,0,-1,0
61.94,15.19,-0.46,2142,-77,7881,0,-1,0
61.93,15.19,-0.43,2126,-63,7877,1,0,-1
61.95,15.18,-0.38,2101,-14,7899,0,-1,-1
61.96,15.18,-0.36,2135,9,7916,0,-1,-1
61.97,15.19,-0.35,2159,23,7930,-1,-1,0
61.96,15.20,-0.37,2206,-14,7957,-1,0,0
61.96,15.19,-0.40,2182,-39,7941,-2,0,0
61.95,15.18,-0.42,2188,-72,7908,-1,0,-1
61.95,15.17,-0.45,2140,-114,7873,-1,0,0
61.95,15.15,-0.45,2153,-141,7869,0,0,-1
61.96,15.15,-0.41,2131,-118,7870,1,0,-1
61.97,15.15,-0.36,2158,-46,7912,1,0,-1
61.97,15.14,-0.31,2141,13,7914,0,0,0
61.98,15.14,-0.29,2164,58,7939,-1,0,-1
61.98,15.13,-0.30,2130,41,7930,-1,0,0
61.98,15.12,-0.32,2127,18,7904,-1,0,-1
61.98,15.10,-0.35,2119,-31,7878,-1,0,-1
61.99,15.09,-0.36,2112,-58,7865,-1,0,-1
61.99,15.08,-0.38,2123,-81,7870,-1,0,-1
62.00,15.08,-0.37,2126,-78,7890,0,-1,-1
62.00,15.08,-0.37,2135,-89,7892,0,0,-1
62.00,15.09,-0.36,2132,-81,7900,0,-1,0
61.99,15.08,-0.36,2128,-69,7908,0,-1,0
61.99,15.10,-0.34,2131,-45,7919,0,-1,-1
62.00,15.11,-0.33,2126,-34,7919,0,-1,-1
62.01,15.11,-0.31,2153,-4,7926,0,0,-1
62.02,15.12,-0.29,2155,15,7915,-1,-1,-1
62.02,15.12,-0.31,2160,18,7926,-1,0,0
62.02,15.12,-0.33,2150,-15,7901,-1,0,-1
62.01,15.13,-0.35,2145,-18,7889,-2,-1,0
62.01,15.13,-0.40,2150,-80,7893,-2,0,-1
62.01,15.13,-0.42,2116,-88,7892,-1,-1,0
62.02,15.13,-0.43,2146,-106,7888,0,0,-1
62.02,15.13,-0.44,2112,-88,7871,-1,-1,0
62.02,15.14,-0.44,2165,-76,7893,1,-1,0
61.97,15.15,-0.46,2212,-189,7804,-1,1,0
61.99,15.06,-0.39,1999,-217,7928,3,0,-2
61.99,15.09,-0.32,2033,-89,7953,2,-3,-1
62.01,15.14,-0.25,2220,104,7899,0,-1,-1
62.03,15.14,-0.25,2258,128,7853,-2,1,-1
62.05,15.13,-0.29,2178,35,7890,-2,-1,-1
62.04,15.14,-0.33,2102,-66,7915,-1,-2,0
62.02,15.17,-0.34,2066,-95,7908,0,-2,0
62.01,15.20,-0.32,2124,-57,7907,1,-1,0
62.01,15.22,-0.29,2140,7,7884,-1,-1,0
62.02,15.24,-0.30,2161,21,7916,-1,-1,-1
62.02,15.25,-0.31,2162,-9,7881,-1,-1,-1
62.03,15.26,-0.31,2167,-19,7882,-1,-1,-1
62.03,15.27,-0.33,2164,-59,7887,-1,-1,-1
62.03,15.28,-0.33,2145,-37,7877,-1,-1,0
62.03,15.27,-0.34,2159,-40,7884,-1,-1,-1
62.04,15.28,-0.35,2140,-39,7885,-1,-1,0
62.04,15.29,-0.37,2189,-50,7917,-1,-1,-1
62.03,15.30,-0.39,2180,-82,7921,-1,-1,0
62.03,15.30,-0.39,2169,-68,7902,0,0,0
62.03,15.29,-0.40,2147,-86,7865,0,0,-1
62.04,15.29,-0.38,2127,-59,7865,0,-1,0
62.03,15.31,-0.38,2154,-66,7871,0,-1,0
62.02,15.33,-0.37,2151,-46,7873,0,-1,0
62.02,15.34,-0.35,2173,-40,7897,1,-1,-1
62.03,15.34,-0.33,2179,-15,7935,0,-1,-1
62.03,15.34,-0.31,2195,17,7937,-1,-1,-1
62.05,15.34,-0.32,2193,-10,7904,-1,0,-1
62.04,15.35,-0.34,2185,-26,7896,-1,0,0
62.05,15.33,-0.36,2179,-73,7886,0,0,-1
62.05,15.33,-0.35,2168,-53,7886,-1,0,0
62.05,15.33,-0.36,2171,-63,7889,0,0,-1
62.05,15.33,-0.35,2153,-61,7870,0,-1,-1
62.06,15.33,-0.34,2164,-51,7891,0,0,-1
62.05,15.32,-0.33,2136,-61,7875,0,0,-1
62.06,15.33,-0.31,2146,-39,7871,0,-1,0
62.06,15.33,-0.32,2161,-53,7885,-1,-1,-1
62.08,15.33,-0.30,2167,-45,7912,0,-1,-1
62.09,15.34,-0.28,2183,-56,7901,0,-1,-1
62.09,15.35,-0.26,2176,-33,7906,0,-1,-1
62.10,15.35,-0.25,2198,-18,7909,0,-1,-1
62.10,15.36,-0.24,2193,-19,7902,-1,-1,0
62.09,15.36,-0.23,2191,1,7904,0,-1,0
62.09,15.36,-0.24,2169,-12,7894,-1,0,-1
62.09,15.35,-0.21,2154,29,7898,0,-1,-1
62.10,15.35,-0.22,2157,7,7881,-1,-1,-1
62.10,15.35,-0.23,2160,-5,7883,-1,0,0
62.11,15.35,-0.23,2175,-25,7878,0,-1,-1
62.11,15.35,-0.22,2187,-4,7903,-1,0,0
62.11,15.35,-0.24,2179,-22,7913,-1,0,0
62.11,15.34,-0.26,2171,-27,7897,-1,0,-1
62.11,15.33,-0.29,2149,-66,7882,-1,0,-1
62.09,15.32,-0.31,2157,-93,7890,-1,0,0
62.09,15.33,-0.31,2147,-95,7882,0,-1,0
62.08,15.33,-0.30,2179,-64,7887,0,-1,0
62.08,15.34,-0.29,2175,-41,7891,0,-1,0
62.07,15.33,-0.27,2179,-22,7899,0,0,0
62.07,15.33,-0.26,2174,-14,7899,0,0,0
62.07,15.32,-0.26,2170,-12,7905,0,0,-1
62.07,15.32,-0.25,2163,-7,7893,0,-1,0
62.07,15.32,-0.25,2176,0,7902,-1,0,-1
62.08,15.32,-0.25,2169,-9,7893,-1,0,-1
62.09,15.31,-0.25,2182,-15,7893,-1,0,-1
62.10,15.31,-0.25,2151,-17,7862,-1,0,0
62.10,15.30,-0.26,2171,-47,7886,-1,0,-1
62.10,15.29,-0.27,2155,-60,7886,-1,0,0
62.10,15.29,-0.28,2175,-65,7909,0,0,-1
62.08,15.28,-0.28,2144,-56,7882,0,0,0
62.08,15.28,-0.27,2158,-53,7895,0,0,-1
62.09,15.28,-0.25,2142,-44,7876,0,0,0
62.09,15.29,-0.24,2163,-16,7887,0,-1,-1
62.08,15.28,-0.23,2160,-7,7886,0,0,0
62.08,15.29,-0.23,2186,5,7918,-1,0,-1
62.08,15.28,-0.23,2173,-19,7921,-1,0,0
62.09,15.27,-0.23,2165,-34,7926,0,0,-1
62.09,15.27,-0.23,2150,-51,7892,0,0,-1
62.10,15.27,-0.22,2166,-44,7891,0,0,-1
62.10,15.26,-0.20,2166,-44,7878,0,0,-1
62.11,15.27,-0.18,2152,-16,7869,0,-1,-1
62.09,15.26,-0.17,2161,-7,7883,0,0,0
62.10,15.27,-0.15,2157,39,7908,0,-1,0
62.10,15.26,-0.15,2163,36,7893,-1,0,0
62.10,15.26,-0.16,2151,13,7896,-1,-1,-1
62.11,15.25,-0.16,2191,5,7892,-1,0,-1
62.11,15.25,-0.17,2168,5,7893,-1,0,0
62.11,15.24,-0.19,2183,-20,7908,-1,0,-1
62.11,15.23,-0.21,2136,-30,7890,-1,0,0
62.11,15.21,-0.23,2154,-56,7899,-1,0,-1
62.12,15.20,-0.24,2130,-63,7883,-1,0,-1
62.12,15.20,-0.24,2152,-76,7893,0,0,-1
62.11,15.19,-0.23,2144,-60,7855,0,0,0
62.11,15.20,-0.22,2196,-39,7881,0,0,0
62.10,15.20,-0.22,2164,-39,7897,0,0,0
62.09,15.20,-0.22,2182,-18,7920,-1,0,0
62.09,15.18,-0.22,2148,-23,7899,-1,0,0
62.07,15.18,-0.22,2149,-23,7908,0,0,-1
62.07,15.18,-0.21,2147,-29,7891,0,0,0
62.08,15.17,-0.20,2157,-14,7892,0,0,-1
62.06,15.16,-0.19,2157,8,7878,0,0,-1
62.08,15.16,-0.18,2154,0,7906,-1,0,-1
62.07,15.15,-0.19,2149,-4,7894,-1,0,0
62.08,15.15,-0.19,2134,-14,7893,-1,0,-1
62.06,15.14,-0.20,2131,-41,7902,-1,0,0
62.06,15.13,-0.20,2124,-42,7913,0,-1,-1
62.07,15.12,-0.19,2129,-37,7896,0,0,-1
62.08,15.12,-0.17,2124,-26,7916,0,-1,-1
62.08,15.12,-0.16,2120,-12,7890,0,-1,-1
62.09,15.13,-0.13,2123,4,7876,0,-1,-1
62.09,15.14,-0.13,2138,2,7877,-1,-1,0
62.09,15.17,-0.12,2174,2,7893,0,-1,0
62.08,15.18,-0.12,2167,-9,7895,-1,-1,0
62.08,15.19,-0.12,2180,9,7924,0,-1,0
62.08,15.19,-0.14,2147,-39,7909,-1,-1,-1
62.08,15.20,-0.13,2149,-13,7922,0,-1,0
62.08,15.20,-0.14,2154,-30,7903,-1,0,-1
62.09,15.21,-0.12,2150,22,7890,0,-1,-1
62.09,15.22,-0.13,2170,-8,7880,-1,0,0
62.07,15.23,-0.15,2130,-5,7857,-1,-1,0
62.06,15.25,-0.17,2170,-32,7870,0,-1,0
62.04,15.26,-0.17,2148,-19,7880,-1,-1,0
62.03,15.27,-0.18,2148,-14,7892,0,-1,0
62.03,15.27,-0.18,2139,-28,7871,-1,-1,-1
62.04,15.28,-0.17,2153,-9,7871,0,-1,-1
62.04,15.29,-0.17,2164,-42,7866,0,-1,-1
62.03,15.31,-0.16,2164,-7,7875,-1,-1,0
62.03,15.31,-0.17,2181,-20,7877,0,0,0
62.02,15.33,-0.17,2148,-2,7901,-1,-1,0
62.00,15.33,-0.18,2192,-27,7918,0,-1,0
61.99,15.34,-0.19,2164,-45,7899,-1,-1,0
61.99,15.34,-0.19,2174,-37,7903,0,-1,0
61.99,15.34,-0.18,2164,-35,7898,0,0,-1
61.99,15.35,-0.16,2166,-4,7907,0,-1,0
61.98,15.35,-0.16,2157,-20,7868,0,-1,-1
61.98,15.36,-0.15,2169,2,7895,-1,-1,0
61.98,15.36,-0.16,2171,-32,7893,0,-1,0
61.97,15.37,-0.14,2165,2,7890,0,-1,0
61.96,15.37,-0.14,2176,-13,7886,0,0,-1
61.97,15.37,-0.12,2152,17,7889,-1,-1,-1
61.98,15.38,-0.11,2176,35,7894,0,0,-1
61.98,15.37,-0.11,2148,17,7870,-1,-1,-1
61.99,15.37,-0.11,2187,16,7895,-1,0,-1
61.99,15.37,-0.13,2168,-17,7884,-1,-1,-1
61.99,15.38,-0.13,2191,-4,7883,-1,-1,0
61.99,15.39,-0.15,2190,-33,7888,-1,0,0
61.99,15.39,-0.16,2183,-15,7899,-1,-1,0
61.98,15.39,-0.17,2184,-39,7892,0,0,-1
61.97,15.39,-0.16,2169,-24,7887,-1,-1,0
61.97,15.40,-0.17,2195,-43,7903,0,0,-1
61.98,15.41,-0.16,2165,-17,7893,0,-1,-1
61.99,15.40,-0.15,2208,-16,7919,0,0,-1
61.99,15.40,-0.15,2167,-6,7899,-1,0,-1
62.00,15.39,-0.14,2187,7,7894,0,0,-1
62.00,15.40,-0.15,2168,-12,7890,-1,-1,-1
62.01,15.40,-0.14,2183,7,7890,0,-1,-1
62.01,15.40,-0.15,2178,-12,7868,-1,0,-1
62.01,15.40,-0.15,2165,8,7875,-1,-1,-1
62.03,15.40,-0.16,2180,-8,7882,-1,0,-1
62.03,15.40,-0.16,2169,9,7886,-1,-1,0
62.03,15.40,-0.17,2176,-17,7874,0,-1,-1
62.03,15.41,-0.16,2166,-8,7875,-1,-1,0
62.02,15.41,-0.19,2195,-20,7885,-1,0,-1
62.02,15.41,-0.20,2177,-28,7877,-1,-1,0
62.02,15.41,-0.20,2187,-38,7897,0,0,-1
62.02,15.41,-0.21,2163,-51,7896,-1,-1,0
62.02,15.42,-0.21,2194,-54,7905,0,-1,0
62.02,15.42,-0.21,2192,-50,7885,0,-1,-1
62.02,15.43,-0.19,2198,-25,7887,0,-1,0
62.02,15.43,-0.19,2194,-30,7902,0,-1,-1
62.02,15.43,-0.18,2205,-23,7908,0,0,0
62.02,15.43,-0.17,2197,-16,7912,0,0,-1
62.03,15.42,-0.16,2191,-3,7899,0,0,0
62.03,15.42,-0.16,2193,-7,7910,-1,0,-1
62.03,15.42,-0.16,2187,-7,7894,0,0,0
62.03,15.41,-0.16,2182,-12,7893,0,0,-1
62.03,15.40,-0.16,2161,-9,7874,-1,0,0
62.03,15.40,-0.16,2158,-27,7880,-1,0,-1
62.03,15.40,-0.16,2158,-40,7858,-1,0,0
62.03,15.40,-0.16,2167,-37,7878,0,-1,-1
62.02,15.41,-0.15,2176,-23,7875,0,0,0
62.02,15.41,-0.15,2176,-23,7882,0,-1,-1
62.01,15.41,-0.14,2184,-16,7879,0,-1,0
62.01,15.42,-0.13,2183,-10,7885,0,-1,-1
62.01,15.42,-0.13,2191,-3,7886,0,0,0
62.01,15.42,-0.13,2198,1,7895,-1,0,-1
62.01,15.40,-0.14,2196,7,7905,-1,0,0
62.02,15.40,-0.13,2188,5,7913,-1,0,-1
62.02,15.40,-0.15,2192,-21,7914,-1,0,-1
62.03,15.39,-0.15,2181,-31,7912,0,0,-1
62.03,15.37,-0.14,2186,-22,7888,0,0,-1
62.04,15.37,-0.14,2159,-7,7875,-1,-1,-1
62.04,15.35,-0.14,2180,-29,7886,-1,0,-1
62.05,15.35,-0.14,2161,-22,7883,0,-1,0
62.04,15.35,-0.15,2180,-14,7897,-1,0,0
62.03,15.35,-0.15,2150,-11,7884,-1,-1,0
62.04,15.34,-0.15,2184,-16,7897,0,0,-1
62.05,15.34,-0.14,2154,-8,7886,-1,0,0
62.05,15.32,-0.14,2185,-9,7899,-1,0,-1
62.04,15.31,-0.15,2150,-12,7870,-1,0,0
62.04,15.30,-0.16,2173,-11,7895,-1,0,-1
62.04,15.30,-0.16,2124,-15,7886,-1,-1,0
62.04,15.30,-0.17,2164,-37,7914,-1,0,-1
62.04,15.30,-0.17,2152,-40,7898,0,-1,0
62.04,15.30,-0.16,2198,-30,7913,0,0,-1
62.04,15.29,-0.16,2167,-21,7885,-1,0,0
62.04,15.29,-0.15,2187,-15,7903,0,0,-1
62.04,15.28,-0.14,2165,-15,7895,0,0,0
62.04,15.27,-0.14,2175,-9,7918,0,0,-1
62.04,15.26,-0.13,2154,6,7874,-1,0,0
62.05,15.26,-0.13,2160,3,7890,-1,0,-1
62.05,15.25,-0.14,2149,-22,7892,0,0,0
62.06,15.25,-0.13,2158,-29,7890,0,0,-1
62.05,15.24,-0.13,2143,-34,7870,0,0,-1
62.06,15.24,-0.13,2142,-31,7889,0,-1,-1
62.05,15.23,-0.11,2151,-28,7897,0,0,-1
62.06,15.23,-0.10,2138,-5,7901,0,-1,-1
62.05,15.22,-0.09,2144,-24,7897,0,0,0
62.05,15.23,-0.08,2137,-34,7880,0,-1,0
62.05,15.23,-0.06,2148,-16,7889,0,-1,-1
62.05,15.23,-0.05,2136,12,7893,0,-1,0
62.05,15.24,-0.04,2164,20,7901,0,-1,-1
62.05,15.25,-0.03,2185,45,7916,0,0,0
62.05,15.25,-0.04,2185,36,7917,-1,0,-1
62.05,15.25,-0.04,2180,34,7924,-1,0,0
62.05,15.24,-0.05,2164,-7,7918,-1,0,-1
62.06,15.24,-0.05,2146,1,7915,0,-1,-1
62.07,15.25,-0.06,2152,-12,7885,-1,-1,-1
62.07,15.26,-0.06,2145,-7,7892,-1,-1,0
62.07,15.26,-0.08,2158,-10,7888,0,-1,-1
62.07,15.28,-0.08,2137,16,7878,-1,-1,0
62.07,15.28,-0.10,2164,-5,7885,-1,-1,-1
62.08,15.30,-0.11,2148,-13,7878,-1,-1,0
62.08,15.30,-0.11,2171,-7,7903,0,-1,-1
62.08,15.30,-0.12,2151,-16,7893,-1,-1,0
62.08,15.31,-0.13,2164,4,7899,-1,-1,0
62.08,15.32,-0.16,2175,-56,7877,-1,0,-1
62.08,15.32,-0.16,2165,-33,7884,-1,-1,0
62.09,15.32,-0.16,2171,-43,7887,0,0,-1
62.08,15.33,-0.15,2166,-5,7898,-1,-1,0
62.07,15.34,-0.17,2186,-17,7887,0,-1,0
62.06,15.35,-0.17,2167,-1,7874,-1,-1,0
62.06,15.35,-0.19,2191,-14,7895,0,0,0
62.05,15.34,-0.19,2145,-35,7893,-1,0,-1
62.06,15.34,-0.18,2158,-5,7900,0,-1,-1
62.06,15.34,-0.19,2152,-46,7879,-1,0,-1
62.06,15.35,-0.18,2169,-25,7895,0,-1,0
62.07,15.36,-0.17,2189,-31,7889,0,0,-1
62.07,15.36,-0.17,2156,-25,7882,-1,-1,0
62.07,15.36,-0.17,2200,-21,7903,0,-1,-1
62.06,15.37,-0.18,2165,-35,7898,0,-1,0
62.05,15.38,-0.17,2204,-18,7894,0,-1,0
62.05,15.38,-0.17,2164,-21,7863,-1,-1,0
62.04,15.38,-0.17,2187,-31,7891,0,-1,0
62.03,15.39,-0.17,2180,-38,7870,0,0,0
62.03,15.39,-0.14,2156,1,7881,0,-1,0
62.03,15.40,-0.14,2157,10,7873,-1,-1,0
62.03,15.41,-0.12,2173,28,7890,0,-1,0
62.03,15.41,-0.13,2199,-1,7901,0,-1,-1
62.03,15.41,-0.12,2193,14,7912,-1,-1,0
62.02,15.41,-0.14,2198,-12,7919,0,-1,-1
62.02,15.41,-0.14,2175,-31,7903,-1,-1,-1
62.02,15.41,-0.14,2186,-49,7895,0,0,-1
62.03,15.41,-0.12,2182,-32,7883,-1,0,-1
62.03,15.41,-0.11,2185,-15,7870,0,-1,0
62.03,15.42,-0.10,2182,-18,7870,0,-1,-1
62.03,15.43,-0.08,2188,26,7883,0,-1,0
62.03,15.44,-0.09,2182,-2,7889,-1,-1,0
62.03,15.45,-0.07,2183,29,7884,0,-1,-1
62.04,15.44,-0.06,2207,31,7881,-1,0,-1
62.03,15.43,-0.07,2160,9,7869,-1,-1,0
62.04,15.44,-0.08,2196,10,7886,0,-1,-1
62.04,15.44,-0.10,2171,-36,7870,-1,0,-1
62.03,15.44,-0.11,2192,-35,7903,-1,-1,0
62.03,15.44,-0.13,2180,-60,7880,-1,-1,0
62.02,15.44,-0.13,2197,-51,7901,0,0,0
62.01,15.44,-0.12,2180,-64,7875,0,-1,0
62.00,15.46,-0.11,2194,-50,7892,0,-1,0
62.00,15.46,-0.10,2200,-45,7877,0,-1,0
61.98,15.46,-0.08,2190,-20,7871,0,0,0
61.98,15.46,-0.05,2170,15,7888,1,-1,0
61.97,15.46,-0.03,2191,27,7896,0,0,0
61.98,15.46,0.00,2185,43,7896,0,-1,0
61.96,15.47,0.02,2211,76,7899,-1,0,0
61.96,15.47,0.01,2191,68,7896,-1,-1,0
61.96,15.47,0.00,2213,35,7883,-1,0,-1
61.96,15.46,-0.01,2189,19,7864,-1,0,-1
61.96,15.44,-0.03,2206,-9,7878,-1,0,-1
61.97,15.44,-0.03,2181,-28,7876,0,0,0
61.96,15.43,-0.04,2196,-52,7879,0,0,0
61.95,15.42,-0.02,2155,-50,7867,0,0,0
61.95,15.42,-0.00,2147,-20,7896,0,-1,-1
61.96,15.42,0.03,2127,8,7894,0,-1,-1
61.96,15.42,0.06,2163,25,7920,0,-1,-1
61.97,15.43,0.08,2167,41,7909,0,0,-1
61.98,15.43,0.10,2192,45,7906,0,0,-1
61.98,15.43,0.11,2180,41,7883,0,0,0
61.99,15.43,0.12,2194,52,7899,0,-1,-1
61.99,15.44,0.13,2193,40,7883,0,0,0
61.99,15.44,0.14,2192,45,7875,0,-1,-1
61.99,15.44,0.13,2193,27,7863,0,-1,0
61.99,15.45,0.14,2184,45,7866,0,-1,0
61.97,15.45,0.13,2198,8,7881,-1,0,0
61.97,15.45,0.14,2170,21,7878,0,-1,0
61.97,15.45,0.14,2202,30,7885,0,0,-1
61.98,15.45,0.13,2165,32,7861,-1,-1,0
61.99,15.45,0.12,2203,6,7895,-1,0,-1
61.99,15.44,0.12,2176,-6,7896,-1,0,0
61.99,15.43,0.12,2206,-2,7916,0,0,-1
61.98,15.43,0.12,2201,3,7885,-1,0,0
61.99,15.43,0.12,2223,0,7903,0,0,-1
61.98,15.43,0.13,2202,10,7880,0,0,0
61.98,15.42,0.14,2194,30,7886,0,0,-1
61.97,15.41,0.14,2174,32,7881,0,0,0
61.98,15.41,0.14,2178,45,7892,-1,0,-1
61.97,15.40,0.14,2175,41,7885,-1,0,0
61.97,15.39,0.13,2156,47,7895,0,-1,-1
61.97,15.38,0.13,2158,41,7894,-1,0,-1
61.97,15.36,0.13,2145,44,7904,-1,0,-1
61.97,15.35,0.12,2165,24,7882,-1,0,-1
61.97,15.35,0.10,2160,1,7877,-1,0,0
61.97,15.34,0.09,2178,-8,7880,0,0,-1
61.97,15.34,0.10,2153,21,7883,0,-1,0
61.97,15.33,0.09,2178,13,7906,-1,0,-1
61.97,15.33,0.09,2161,18,7872,-1,0,0
61.97,15.33,0.08,2188,12,7885,-1,0,-1
61.97,15.33,0.08,2167,11,7893,-1,-1,0
61.96,15.33,0.07,2190,3,7917,-1,0,0
61.96,15.33,0.06,2166,-6,7899,-1,0,0
61.95,15.33,0.06,2179,-19,7903,-1,0,-1
61.96,15.32,0.06,2157,-18,7895,0,0,-1
61.96,15.31,0.08,2172,2,7890,0,0,-1
61.97,15.31,0.10,2166,30,7876,0,0,-1
61.97,15.31,0.11,2167,55,7891,0,-1,-1
61.97,15.32,0.12,2182,59,7882,-1,0,0
61.99,15.31,0.13,2169,62,7892,0,0,-1
61.99,15.29,0.14,2151,68,7874,-1,0,-1
62.01,15.29,0.13,2158,62,7886,-1,0,-1
62.02,15.28,0.12,2136,42,7876,-1,-1,-1
62.02,15.29,0.10,2158,12,7860,-1,0,-1
62.02,15.29,0.07,2127,-10,7864,-1,-1,0
62.01,15.30,0.05,2153,-25,7884,-1,-1,0
62.01,15.30,0.03,2128,-52,7877,-1,-1,0
62.01,15.32,0.04,2149,-26,7887,0,-1,0
61.99,15.34,0.02,2159,-51,7865,-1,-1,0
61.99,15.36,0.04,2173,-6,7879,0,-1,0
61.99,15.39,0.03,2193,-20,7879,0,-1,0
61.97,15.40,0.04,2178,11,7902,0,-1,0
61.97,15.42,0.05,2215,23,7918,0,-1,0
61.97,15.43,0.05,2184,45,7904,-1,-1,0
61.97,15.44,0.06,2214,52,7897,0,-1,0
61.96,15.44,0.05,2187,33,7893,-1,-1,-1
61.96,15.44,0.06,2185,52,7900,0,-1,0
61.96,15.44,0.05,2175,19,7874,-1,0,-1
61.97,15.45,0.06,2187,43,7882,-1,-1,0
61.96,15.45,0.03,2194,-2,7883,-1,0,0
61.95,15.45,0.03,2161,7,7876,-1,-1,0
61.95,15.45,0.01,2185,-14,7871,0,0,0
61.95,15.46,0.02,2166,5,7875,-1,-1,-1
61.96,15.47,0.03,2224,27,7933,0,0,-1
61.98,15.47,0.03,2205,13,7913,-1,0,-1
62.01,15.45,0.05,2181,51,7898,0,0,-1
62.02,15.44,0.03,2158,8,7858,-1,0,-1
62.04,15.45,0.03,2177,12,7864,-1,-1,0
62.03,15.45,0.00,2196,-32,7861,-1,-1,0
62.02,15.47,0.01,2181,-1,7873,-1,-1,0
62.02,15.46,-0.00,2199,-9,7909,0,0,0
62.01,15.46,-0.01,2160,-11,7900,-1,-1,0
62.02,15.46,-0.01,2184,-11,7898,0,-1,-1
62.02,15.46,-0.00,2166,-13,7884,-1,-1,-1
62.02,15.47,0.01,2190,26,7895,0,-1,0
62.02,15.48,0.01,2191,6,7862,-1,-1,0
62.01,15.49,0.00,2213,26,7889,-1,0,0
62.01,15.48,-0.02,2199,-13,7889,-1,0,-1
62.01,15.48,-0.01,2195,4,7905,-1,0,0
62.00,15.47,-0.02,2178,-17,7903,0,-1,-1
62.00,15.48,-0.01,2174,16,7898,-1,-1,0
62.01,15.48,-0.01,2204,10,7894,0,0,-1
62.01,15.49,0.00,2191,21,7888,-1,-1,-1
62.03,15.49,0.01,2210,40,7888,0,0,-1
62.03,15.48,0.00,2177,13,7886,-1,0,-1
62.04,15.48,0.00,2195,19,7890,0,0,-1
62.04,15.48,-0.00,2173,-14,7887,-1,-1,-1
62.04,15.49,0.00,2182,16,7897,0,-1,0
62.03,15.50,-0.01,2187,-20,7883,-1,-1,0
62.03,15.51,-0.00,2182,-3,7883,0,-1,0
62.03,15.50,0.01,2188,-7,7880,0,0,-1
62.03,15.50,0.03,2169,27,7873,0,-1,0
62.03,15.52,0.04,2204,23,7875,0,-1,-1
62.03,15.52,0.05,2185,45,7862,-1,-1,0
62.03,15.53,0.06,2222,48,7882,0,-1,0
62.02,15.53,0.04,2205,24,7891,-1,0,0
62.03,15.53,0.03,2224,15,7903,0,0,-1
62.04,15.53,0.03,2199,-3,7876,-1,0,-1
62.04,15.53,0.04,2208,-2,7883,0,0,-1
62.05,15.52,0.04,2203,-18,7883,0,0,-1
62.05,15.52,0.05,2202,-9,7879,0,0,0
62.04,15.51,0.05,2196,-8,7866,0,0,-1
62.04,15.51,0.07,2178,9,7866,0,0,0
62.04,15.51,0.08,2168,13,7875,0,-1,-1
62.04,15.51,0.09,2177,33,7877,0,0,0
62.05,15.51,0.11,2180,56,7895,0,0,-1
62.05,15.49,0.12,2182,61,7891,-1,0,-1
62.06,15.49,0.12,2191,62,7880,-1,0,-1
62.06,15.49,0.11,2205,47,7894,-1,0,-1
62.06,15.48,0.09,2183,24,7881,-1,0,0
62.05,15.47,0.06,2190,-6,7880,-1,0,0
62.05,15.46,0.05,2168,-24,7871,-1,0,0
62.04,15.45,0.05,2194,-25,7878,0,0,0
62.04,15.44,0.06,2177,-12,7865,0,0,0
62.04,15.44,0.06,2199,3,7885,0,0,-1
62.03,15.45,0.07,2165,9,7882,0,-1,0
62.02,15.45,0.08,2184,24,7904,0,0,-1
62.02,15.44,0.09,2174,49,7895,-1,0,0
62.03,15.44,0.10,2191,65,7918,-1,0,-1
62.03,15.43,0.09,2179,44,7891,-1,0,0
62.03,15.42,0.09,2191,36,7884,-1,0,-1
62.03,15.41,0.08,2167,8,7870,-1,0,0
62.03,15.41,0.07,2173,3,7887,-1,-1,-1
62.03,15.41,0.06,2197,-23,7882,0,0,0
62.03,15.40,0.07,2177,-14,7884,0,-1,0
62.02,15.39,0.07,2184,-6,7893,0,0,0
62.02,15.39,0.09,2139,19,7881,0,-1,0
62.01,15.38,0.10,2178,16,7887,0,0,0
62.00,15.39,0.10,2167,8,7884,0,-1,0
61.99,15.39,0.10,2194,14,7907,0,0,-1
62.01,15.39,0.12,2172,31,7910,-1,0,0
62.01,15.38,0.12,2207,29,7931,0,0,-1
62.01,15.38,0.13,2181,24,7880,0,0,0
62.01,15.38,0.14,2194,13,7880,0,0,-1
62.01,15.37,0.14,2161,17,7867,0,0,0
62.01,15.37,0.15,2177,13,7869,0,-1,-1
62.01,15.37,0.17,2164,16,7878,0,0,0
62.01,15.38,0.18,2175,35,7893,0,-1,-1
62.00,15.38,0.20,2202,43,7892,0,0,0
62.00,15.38,0.20,2189,59,7889,0,-1,0
62.00,15.37,0.20,2190,50,7885,-1,0,0
62.00,15.37,0.19,2174,40,7883,-1,-1,0
62.00,15.37,0.18,2197,10,7882,-1,0,-1
62.00,15.37,0.17,2163,-8,7867,0,-1,0
61.99,15.37,0.18,2184,-7,7885,0,0,-1
62.00,15.37,0.19,2165,14,7894,0,-1,0
61.99,15.37,0.20,2191,24,7900,0,0,-1
61.99,15.37,0.21,2179,24,7878,0,0,0
61.99,15.38,0.22,2189,27,7895,0,0,0
61.97,15.38,0.23,2178,44,7889,0,0,0
61.98,15.38,0.24,2168,59,7884,0,-1,-1
61.97,15.38,0.23,2172,42,7892,0,-1,0
61.97,15.39,0.24,2185,31,7902,0,-1,-1
61.97,15.40,0.27,2167,69,7896,0,-1,0
61.97,15.40,0.26,2183,53,7890,-1,-1,-1
61.96,15.41,0.26,2166,63,7881,-1,-1,0
61.96,15.42,0.25,2195,43,7890,0,-1,0
61.94,15.43,0.24,2161,40,7871,-1,-1,0
61.94,15.44,0.23,2198,32,7889,0,-1,0
61.93,15.46,0.22,2168,17,7888,-1,-1,0
61.92,15.47,0.22,2192,49,7903,0,-1,0
61.92,15.47,0.21,2174,20,7877,-1,-1,0
61.91,15.49,0.21,2185,47,7894,-1,-1,0
61.91,15.49,0.20,2211,15,7891,-1,-1,0
61.90,15.51,0.21,2198,44,7902,-1,-1,0
61.90,15.52,0.20,2216,19,7913,0,0,-1
61.90,15.51,0.21,2180,23,7892,-1,-1,-1
61.92,15.51,0.22,2224,31,7888,0,0,-1
61.92,15.52,0.23,2200,37,7860,-1,-1,-1
61.92,15.54,0.24,2244,58,7894,0,-1,0
61.91,15.55,0.24,2222,66,7861,-1,-1,0
61.92,15.55,0.25,2208,79,7887,-1,0,0
61.91,15.54,0.23,2191,55,7895,-1,0,-1
61.92,15.54,0.23,2190,75,7903,-1,0,-1
61.93,15.54,0.21,2187,27,7879,-1,0,-1
61.94,15.55,0.21,2184,43,7871,-1,-1,-1
61.94,15.55,0.19,2206,-6,7853,-1,0,-1
61.94,15.56,0.19,2193,11,7870,-1,-1,0
61.94,15.56,0.18,2215,6,7883,0,-1,0
61.92,15.58,0.18,2186,18,7871,-1,-1,0
61.92,15.59,0.17,2219,5,7886,0,-1,0
61.92,15.60,0.18,2212,-4,7887,-1,-1,0
61.91,15.62,0.18,2216,8,7913,0,-1,0
61.90,15.63,0.20,2231,30,7876,0,-1,-1
61.90,15.64,0.22,2241,75,7873,0,0,-1
61.92,15.64,0.23,2232,62,7866,0,0,-1
61.92,15.65,0.25,2220,98,7873,-1,-1,0
61.92,15.65,0.22,2233,46,7875,-1,0,-1
61.92,15.65,0.22,2212,37,7877,-1,-1,0
61.92,15.65,0.21,2224,22,7884,0,0,-1
61.92,15.65,0.20,2199,32,7869,-1,-1,0
61.93,15.65,0.19,2228,26,7872,0,0,-1
61.93,15.65,0.19,2194,14,7862,-1,-1,-1
61.93,15.66,0.20,2216,19,7885,0,-1,0
61.93,15.66,0.20,2212,11,7876,-1,-1,0
61.93,15.67,0.21,2233,31,7878,0,0,0
61.92,15.67,0.20,2223,21,7872,-1,0,0
61.93,15.68,0.22,2218,59,7880,0,-1,0
61.92,15.68,0.21,2234,23,7888,0,-1,-1
61.91,15.69,0.22,2217,33,7896,-1,-1,0
61.92,15.69,0.22,2238,22,7893,0,0,-1
61.93,15.69,0.23,2222,54,7887,-1,-1,-1
61.93,15.69,0.24,2235,45,7880,0,0,-1
61.94,15.70,0.25,2230,49,7879,-1,0,-1
61.94,15.69,0.25,2238,57,7872,0,0,-1
61.94,15.69,0.25,2217,64,7854,-1,-1,0
61.94,15.69,0.24,2212,53,7872,-1,0,0
61.94,15.69,0.25,2194,36,7865,0,-1,-1
61.94,15.69,0.25,2199,39,7866,0,-1,-1
61.94,15.70,0.25,2214,28,7872,-1,-1,-1
61.94,15.71,0.25,2226,29,7861,0,-1,0
61.94,15.71,0.25,2231,27,7876,-1,0,-1
61.94,15.71,0.25,2213,29,7888,0,-1,0
61.94,15.71,0.24,2226,19,7892,-1,-1,0
61.94,15.72,0.24,2235,19,7883,0,-1,0
61.94,15.73,0.25,2246,14,7883,0,-1,0
61.93,15.73,0.25,2240,30,7894,0,0,0
61.93,15.72,0.25,2236,27,7908,0,0,-1
61.93,15.72,0.27,2226,48,7891,0,0,0
61.94,15.72,0.27,2231,54,7875,-1,0,-1
61.94,15.71,0.27,2232,55,7878,-1,0,0
61.94,15.72,0.27,2239,43,7887,-1,0,-1
61.93,15.71,0.26,2233,35,7884,-1,0,0
61.93,15.71,0.27,2223,40,7883,0,0,-1
61.93,15.70,0.27,2214,41,7865,0,0,0
61.93,15.69,0.27,2211,24,7855,-1,-1,0
61.92,15.69,0.26,2215,0,7851,0,0,0
61.91,15.70,0.26,2202,-4,7835,0,-1,0
61.89,15.70,0.28,2204,13,7846,0,-1,0
61.89,15.70,0.30,2201,45,7873,1,-1,0
61.89,15.71,0.34,2238,82,7873,0,0,-1
61.89,15.71,0.36,2241,112,7870,0,-1,0
61.89,15.71,0.36,2249,121,7879,-1,0,-1
61.90,15.71,0.36,2235,111,7890,-1,0,0
61.90,15.71,0.34,2254,81,7902,-1,0,-1
61.91,15.69,0.32,2225,48,7888,-1,0,-1
61.91,15.68,0.31,2238,23,7889,-1,0,-1
61.92,15.66,0.31,2205,18,7864,0,0,-1
61.92,15.65,0.31,2229,17,7886,0,0,-1
61.92,15.64,0.32,2189,34,7859,0,0,0
61.91,15.64,0.33,2220,45,7879,0,0,-1
61.91,15.63,0.34,2190,53,7880,0,0,0
61.91,15.63,0.34,2222,59,7906,0,0,-1
61.91,15.62,0.34,2196,68,7883,-1,0,0
61.92,15.61,0.34,2245,78,7891,-1,0,-1
61.91,15.60,0.32,2202,50,7855,-1,0,0
61.91,15.59,0.31,2240,43,7880,-1,0,-1
61.90,15.58,0.30,2190,35,7871,-1,0,0
61.90,15.58,0.28,2218,23,7898,-1,0,-1
61.90,15.56,0.27,2193,7,7862,-1,0,0
61.91,15.55,0.28,2204,7,7865,0,0,-1
61.91,15.55,0.29,2207,9,7861,0,0,-1
61.92,15.54,0.31,2194,34,7871,0,0,-1
61.91,15.54,0.33,2194,50,7865,0,-1,0
61.91,15.55,0.35,2201,64,7892,0,-1,-1
61.91,15.54,0.36,2225,41,7903,0,0,0
61.90,15.53,0.38,2208,102,7897,0,0,0
61.90,15.52,0.38,2212,145,7889,-1,0,0
61.91,15.51,0.37,2204,107,7876,-2,0,-1
61.92,15.50,0.35,2208,45,7878,-1,0,-1
61.93,15.49,0.33,2187,35,7892,-1,0,-1
61.94,15.49,0.32,2185,51,7864,-1,0,-1
61.95,15.49,0.32,2203,41,7853,-1,0,-1
61.95,15.49,0.31,2193,14,7849,-1,0,-1
61.96,15.49,0.32,2176,25,7857,0,-1,0
61.95,15.50,0.32,2167,2,7856,0,-1,-1
61.95,15.53,0.33,2160,42,7865,0,-1,0
61.94,15.55,0.33,2212,24,7865,0,-1,0
61.93,15.57,0.33,2200,41,7856,-1,-1,0
61.92,15.58,0.32,2229,39,7889,0,-1,0
61.90,15.60,0.32,2198,27,7888,-1,-1,0
61.90,15.61,0.32,2214,45,7908,0,-1,0
61.90,15.62,0.33,2190,34,7892,0,-1,-1
61.91,15.63,0.35,2206,68,7887,0,-1,-1
61.91,15.64,0.36,2218,66,7859,0,0,-1
61.92,15.65,0.38,2208,114,7854,-1,-1,0
61.92,15.66,0.38,2231,90,7856,0,-1,-1
61.92,15.66,0.38,2217,99,7866,-1,-1,0
61.92,15.67,0.37,2239,73,7886,0,-1,-1
61.92,15.68,0.37,2222,57,7879,-1,-1,-1
61.94,15.69,0.37,2244,48,7884,0,-1,-1
61.93,15.69,0.36,2229,30,7863,-1,-1,-1
61.93,15.70,0.37,2242,60,7869,0,0,0
61.92,15.70,0.37,2214,40,7855,-1,0,0
61.91,15.71,0.38,2198,74,7872,0,-1,0
61.89,15.72,0.37,2215,53,7877,0,-1,0
61.88,15.73,0.36,2209,72,7874,-1,-1,0
61.88,15.74,0.35,2248,38,7874,0,-1,0
61.86,15.74,0.33,2224,26,7863,-1,-1,0
61.86,15.75,0.31,2261,0,7881,0,-1,0
61.85,15.76,0.31,2241,-16,7855,0,-1,0
61.84,15.77,0.33,2267,8,7868,0,-1,0
61.84,15.78,0.35,2254,26,7863,0,-1,0
61.84,15.79,0.38,2251,83,7869,0,-1,0
61.83,15.79,0.38,2254,87,7879,0,-1,-1
61.83,15.79,0.40,2263,134,7902,-1,0,0
61.83,15.79,0.40,2275,124,7882,-1,0,-1
61.84,15.78,0.40,2241,159,7866,-2,0,0
61.85,15.75,0.36,2241,104,7871,-2,0,-1
61.84,15.74,0.33,2210,61,7845,-2,0,-1
61.85,15.73,0.31,2230,39,7860,-1,0,-1
61.84,15.73,0.28,2198,-7,7836,-1,-1,0
61.84,15.73,0.28,2232,-8,7851,0,0,0
61.83,15.73,0.28,2221,-24,7842,0,0,-1
61.83,15.72,0.30,2233,17,7866,0,0,0
61.83,15.73,0.30,2224,19,7880,0,0,0
61.82,15.73,0.31,2217,52,7903,0,-1,0
61.82,15.73,0.31,2221,31,7903,0,-1,-1
61.82,15.74,0.32,2206,41,7902,0,-1,0
61.81,15.74,0.32,2232,27,7907,0,-1,-1
61.81,15.74,0.35,2219,51,7879,0,-1,0
61.81,15.74,0.36,2243,57,7865,0,0,-1
61.81,15.75,0.38,2223,88,7849,0,-1,0
61.82,15.75,0.39,2246,97,7862,0,0,0
61.81,15.75,0.39,2237,90,7855,-1,0,-1
61.82,15.75,0.39,2240,96,7845,-1,0,0
61.81,15.75,0.37,2243,57,7860,-1,0,0
61.82,15.75,0.36,2246,46,7860,-1,0,-1
61.82,15.74,0.35,2237,24,7856,-1,0,-1
61.82,15.73,0.35,2213,22,7860,0,0,-1
61.82,15.72,0.35,2224,14,7883,0,0,-1
61.81,15.72,0.35,2224,18,7867,0,0,0
61.81,15.72,0.36,2223,44,7869,0,0,-1
61.81,15.71,0.37,2200,35,7862,0,-1,0
61.81,15.72,0.37,2231,43,7874,0,-1,-1
61.80,15.72,0.38,2239,32,7875,0,0,0
61.80,15.73,0.40,2236,66,7863,0,-1,0
61.79,15.73,0.42,2246,69,7863,0,0,0
61.79,15.73,0.43,2241,81,7875,0,-1,0
61.77,15.73,0.43,2261,75,7896,0,0,0
61.77,15.72,0.45,2218,83,7878,0,-1,0
61.77,15.72,0.45,2239,88,7895,0,0,-1
61.77,15.71,0.45,2207,79,7884,-1,-1,0
61.76,15.71,0.45,2231,69,7882,0,0,-1
61.76,15.70,0.46,2206,62,7858,-1,0,0
61.76,15.69,0.45,2223,50,7865,0,0,0
61.75,15.70,0.45,2205,56,7858,0,-1,0
61.75,15.70,0.46,2228,68,7885,0,0,0
61.75,15.70,0.47,2211,83,7869,-1,-1,0
