Yaw,Pitch,Roll,AX,AY,AZ,GX,GY,GZ
175.62,1.97,-33.56,285,-4603,6879,0,0,0
175.62,1.98,-33.55,283,-4597,6875,0,-1,-1
175.62,1.98,-33.54,287,-4586,6892,0,0,0
175.61,1.98,-33.53,275,-4582,6904,0,0,-1
175.61,1.97,-33.52,273,-4570,6911,0,0,0
175.61,1.97,-33.51,258,-4556,6912,0,-1,-1
175.61,1.97,-33.51,268,-4557,6907,-1,-1,-1
175.62,1.99,-33.51,283,-4561,6901,-1,-1,-1
175.62,2.00,-33.52,301,-4575,6882,0,-1,0
175.61,1.99,-33.52,313,-4577,6912,-1,0,0
175.61,1.98,-33.52,291,-4583,6902,0,0,0
175.61,1.96,-33.52,271,-4580,6916,-1,0,0
175.60,1.96,-33.51,255,-4574,6898,0,0,-1
175.60,1.95,-33.51,267,-4555,6901,-1,-1,0
175.61,1.96,-33.51,283,-4550,6888,0,-1,-1
175.60,1.97,-33.51,301,-4557,6901,-1,-1,0
175.60,1.97,-33.51,305,-4574,6917,-1,0,0
175.60,1.97,-33.53,308,-4582,6901,-1,0,0
175.60,1.95,-33.54,295,-4570,6911,-1,0,0
175.59,1.94,-33.55,260,-4586,6892,-1,0,0
175.59,1.93,-33.55,253,-4597,6902,-1,0,0
175.59,1.93,-33.55,248,-4575,6885,0,-1,-1
175.59,1.94,-33.55,265,-4570,6885,-1,-1,-1
175.60,1.96,-33.54,291,-4577,6897,0,-1,-1
175.60,1.97,-33.54,300,-4591,6900,0,-1,0
175.60,1.96,-33.53,300,-4588,6916,0,0,0
175.59,1.96,-33.51,283,-4563,6894,0,0,0
175.58,1.95,-33.51,264,-4565,6914,-1,0,0
175.58,1.95,-33.51,249,-4563,6912,0,-1,-1
175.59,1.96,-33.50,283,-4561,6920,-1,-1,0
175.59,1.97,-33.50,286,-4573,6915,0,-1,-1
175.59,1.98,-33.51,297,-4580,6914,-1,-1,0
175.60,1.99,-33.51,306,-4581,6902,0,0,-1
175.59,1.98,-33.51,302,-4580,6908,-1,0,0
175.59,1.97,-33.51,275,-4555,6917,-1,0,0
175.59,1.96,-33.51,277,-4564,6891,-1,0,0
175.59,1.96,-33.52,268,-4570,6892,-1,0,0
175.59,1.96,-33.53,269,-4572,6888,-1,0,-1
175.58,1.95,-33.53,264,-4574,6884,0,0,-1
175.59,1.96,-33.52,275,-4586,6906,0,-1,0
175.59,1.96,-33.52,295,-4597,6915,0,-1,-1
175.59,1.97,-33.51,299,-4581,6904,0,-1,0
175.59,1.97,-33.50,289,-4557,6906,0,0,0
175.59,1.97,-33.49,290,-4545,6905,0,0,0
175.59,1.96,-33.49,297,-4560,6912,-1,0,0
175.58,1.95,-33.48,277,-4562,6928,-1,0,0
175.57,1.94,-33.50,256,-4572,6909,-1,0,0
175.58,1.94,-33.50,265,-4574,6907,-1,0,-1
175.58,1.94,-33.50,274,-4585,6882,0,0,-1
175.59,1.94,-33.50,275,-4567,6883,-1,0,0
175.58,1.93,-33.50,257,-4566,6881,0,-1,-1
175.59,1.94,-33.49,286,-4569,6908,-1,0,0
175.58,1.93,-33.49,262,-4574,6897,0,0,-1
175.57,1.93,-33.48,276,-4561,6928,-1,0,0
175.57,1.92,-33.48,261,-4558,6906,0,-1,-1
175.57,1.92,-33.48,287,-4554,6913,-1,0,0
175.57,1.91,-33.48,260,-4555,6890,0,0,-1
175.56,1.90,-33.49,267,-4560,6890,-1,-1,0
175.57,1.90,-33.49,274,-4575,6896,0,0,-1
175.56,1.90,-33.49,280,-4611,6919,-1,0,0
175.57,1.89,-33.48,264,-4589,6913,0,0,-1
175.56,1.88,-33.48,254,-4575,6911,-1,0,0
175.56,1.89,-33.47,254,-4554,6912,0,-1,-1
175.56,1.88,-33.48,279,-4569,6902,-1,0,0
175.56,1.88,-33.46,281,-4568,6928,0,0,0
175.56,1.88,-33.47,259,-4572,6907,0,-1,-1
175.56,1.88,-33.46,270,-4564,6918,-1,0,0
175.55,1.88,-33.46,261,-4569,6908,0,0,-1
175.55,1.87,-33.46,267,-4558,6929,-1,0,0
175.55,1.87,-33.46,246,-4567,6904,0,-1,-1
175.55,1.87,-33.46,271,-4565,6926,-1,-1,0
175.55,1.88,-33.46,262,-4571,6906,0,-1,-1
175.55,1.88,-33.46,269,-4572,6915,-1,-1,0
175.55,1.88,-33.46,256,-4575,6906,0,-1,-1
175.56,1.88,-33.45,271,-4569,6912,-1,-1,0
175.56,1.89,-33.44,279,-4559,6927,0,-1,-1
175.56,1.91,-33.44,285,-4541,6920,-1,-1,-1
175.56,1.91,-33.44,281,-4545,6900,0,-1,0
175.56,1.91,-33.44,272,-4574,6919,-1,-1,0
175.56,1.91,-33.44,253,-4573,6907,0,-1,-1
175.56,1.91,-33.44,263,-4567,6916,-1,-1,0
175.56,1.92,-33.44,270,-4559,6895,0,-1,-1
175.56,1.93,-33.44,292,-4563,6898,-1,-1,0
175.56,1.94,-33.43,283,-4568,6901,0,0,-1
175.56,1.94,-33.43,283,-4566,6913,0,-1,0
175.56,1.94,-33.42,279,-4561,6920,0,-1,-1
175.56,1.94,-33.42,279,-4560,6915,0,-1,-1
175.56,1.94,-33.41,279,-4534,6922,-1,0,0
175.56,1.94,-33.42,277,-4543,6903,0,-1,-1
175.56,1.94,-33.42,286,-4556,6917,-1,0,0
175.56,1.94,-33.42,284,-4556,6908,0,0,-1
175.57,1.94,-33.43,280,-4555,6914,-1,-1,0
175.57,1.95,-33.43,270,-4560,6907,0,-1,-1
175.56,1.94,-33.43,265,-4557,6908,-1,-1,0
175.57,1.95,-33.43,262,-4558,6906,0,-1,-1
175.56,1.95,-33.43,273,-4568,6894,-1,-1,-1
175.56,1.96,-33.42,271,-4551,6904,0,-1,-1
175.57,1.97,-33.43,280,-4559,6901,0,-1,-1
175.57,1.97,-33.42,278,-4571,6935,-1,0,0
175.57,1.97,-33.43,274,-4568,6911,0,-1,-1
175.57,1.97,-33.42,274,-4563,6916,-1,0,0
175.57,1.97,-33.42,265,-4561,6901,0,-1,-1
175.57,1.98,-33.41,285,-4570,6924,-1,-1,0
175.57,1.99,-33.41,285,-4570,6917,0,-1,-1
175.57,2.00,-33.40,299,-4552,6924,-1,-1,0
175.57,2.00,-33.39,290,-4539,6915,0,-1,-1
175.57,2.00,-33.39,285,-4541,6918,-1,0,0
175.57,2.00,-33.39,277,-4543,6910,-1,0,0
175.57,2.00,-33.40,278,-4559,6909,-1,0,-1
175.57,1.99,-33.40,284,-4554,6912,0,0,-1
175.57,2.00,-33.41,285,-4554,6905,-1,-1,-1
175.58,2.00,-33.41,288,-4550,6919,-1,-1,0
175.57,2.00,-33.42,284,-4573,6909,-1,-1,0
175.57,2.00,-33.42,290,-4587,6892,0,0,0
175.57,1.99,-33.41,278,-4569,6893,0,0,-1
175.58,2.00,-33.39,289,-4547,6918,0,-1,-1
175.58,2.01,-33.38,292,-4549,6919,0,-1,-1
175.58,2.02,-33.37,299,-4543,6926,-1,-1,0
175.57,2.02,-33.37,297,-4563,6930,0,0,0
175.57,2.01,-33.37,304,-4550,6922,0,0,0
175.56,2.00,-33.36,287,-4531,6890,0,0,0
175.56,1.99,-33.36,261,-4547,6891,0,-1,0
175.56,2.00,-33.36,277,-4567,6904,0,-1,0
175.56,2.00,-33.35,282,-4571,6913,0,0,-1
175.55,1.98,-33.33,280,-4549,6921,0,0,0
175.54,1.98,-33.31,273,-4529,6918,0,-1,0
175.54,1.98,-33.30,283,-4534,6948,0,-1,0
175.54,1.98,-33.29,289,-4531,6950,0,-1,0
175.54,1.98,-33.29,306,-4519,6947,-1,0,0
175.53,1.98,-33.29,286,-4503,6935,-1,0,-1
175.53,1.97,-33.31,287,-4518,6913,-2,0,0
175.52,1.96,-33.33,257,-4549,6900,0,0,0
175.52,1.96,-33.33,271,-4567,6911,-1,0,-1
175.53,1.96,-33.33,261,-4558,6917,0,0,-1
175.53,1.96,-33.33,264,-4550,6939,-1,-1,0
175.52,1.97,-33.33,277,-4545,6924,0,-1,-1
175.52,1.97,-33.34,280,-4546,6916,-1,-1,0
175.53,1.98,-33.34,292,-4543,6900,0,-1,0
175.53,1.98,-33.35,287,-4561,6902,-1,0,0
175.53,1.98,-33.34,280,-4558,6909,0,0,0
175.53,1.98,-33.35,275,-4568,6897,0,-1,-1
175.53,1.98,-33.34,274,-4561,6919,0,-1,-1
175.53,1.99,-33.34,289,-4564,6916,0,-1,-1
175.53,2.00,-33.31,316,-4539,6945,0,-1,0
175.54,2.02,-33.31,321,-4549,6905,0,-1,0
175.53,2.02,-33.30,326,-4539,6914,-1,0,0
175.52,2.02,-33.29,294,-4549,6908,1,-1,0
175.51,2.01,-33.27,308,-4539,6948,-1,0,0
175.51,2.00,-33.27,283,-4536,6938,0,0,-1
175.50,1.99,-33.27,275,-4530,6939,-1,-1,0
175.50,2.00,-33.27,271,-4547,6922,0,-1,-1
175.50,2.00,-33.28,294,-4547,6940,-1,0,0
175.50,2.00,-33.28,286,-4537,6914,0,0,-1
175.50,1.99,-33.29,284,-4543,6913,-1,-1,0
175.50,1.99,-33.28,280,-4547,6917,0,-1,-1
175.49,1.99,-33.28,288,-4541,6927,-1,-1,0
175.49,1.98,-33.27,267,-4540,6941,-1,0,-1
175.49,1.99,-33.28,270,-4546,6924,-1,-1,-1
175.49,1.99,-33.27,283,-4517,6946,-1,-1,-1
175.50,2.00,-33.28,284,-4522,6914,-1,0,-1
175.50,2.00,-33.29,276,-4530,6922,-1,-1,0
175.50,1.99,-33.30,275,-4569,6909,0,-1,-1
175.51,2.00,-33.30,289,-4555,6934,-1,-1,0
175.50,2.00,-33.31,281,-4564,6924,0,-1,-1
175.50,2.01,-33.31,290,-4551,6901,-1,-1,0
175.50,2.01,-33.30,276,-4548,6911,0,-1,-1
175.50,2.01,-33.30,284,-4541,6931,0,-1,-1
175.50,2.03,-33.29,296,-4539,6940,0,-1,0
175.50,2.03,-33.28,301,-4526,6942,-1,-1,0
175.50,2.03,-33.28,301,-4536,6930,0,-1,-1
175.50,2.04,-33.28,309,-4529,6937,-1,-1,0
175.50,2.04,-33.30,301,-4532,6921,-1,0,-1
175.49,2.02,-33.31,296,-4537,6921,-1,0,0
175.50,2.03,-33.32,280,-4535,6902,0,0,-1
175.50,2.03,-33.32,290,-4533,6932,-1,-1,0
175.50,2.03,-33.33,292,-4546,6917,-1,-1,-1
175.50,2.03,-33.34,303,-4560,6910,-1,0,0
175.50,2.03,-33.33,294,-4570,6923,0,0,0
175.50,2.02,-33.32,269,-4539,6921,0,-1,-1
175.50,2.02,-33.32,275,-4531,6917,-1,-1,0
175.50,2.04,-33.33,287,-4524,6908,-1,-1,-1
175.50,2.04,-33.33,297,-4526,6919,-1,0,0
175.50,2.04,-33.34,291,-4550,6911,0,0,-1
175.50,2.03,-33.35,288,-4542,6929,-1,0,0
175.50,2.03,-33.35,290,-4550,6923,-1,0,-1
175.50,2.02,-33.37,277,-4554,6912,-1,-1,0
175.50,2.01,-33.37,284,-4547,6910,-1,0,0
175.50,2.01,-33.38,267,-4561,6885,0,-1,-1
175.50,2.02,-33.38,272,-4554,6926,-1,-1,-1
175.51,2.04,-33.38,293,-4566,6917,0,-1,-1
175.51,2.04,-33.37,291,-4552,6933,-1,-1,0
175.51,2.04,-33.36,288,-4532,6910,0,-1,-1
175.51,2.05,-33.37,293,-4545,6922,-1,-1,0
175.51,2.05,-33.36,289,-4550,6918,0,0,-1
175.51,2.05,-33.37,295,-4544,6921,-1,0,0
175.51,2.05,-33.36,290,-4531,6924,-1,-1,-1
175.51,2.05,-33.37,283,-4520,6928,-1,-1,-1
175.51,2.06,-33.38,288,-4549,6927,-1,0,-1
175.52,2.05,-33.39,282,-4568,6910,0,0,-1
175.52,2.06,-33.39,275,-4564,6906,-1,-1,-1
175.52,2.06,-33.39,275,-4554,6919,0,-1,-1
175.53,2.07,-33.39,294,-4555,6924,-1,-1,0
175.53,2.08,-33.39,296,-4557,6936,-1,-1,-1
175.52,2.08,-33.41,301,-4574,6882,-1,0,0
175.53,2.08,-33.39,281,-4541,6888,0,-1,-1
175.52,2.08,-33.38,283,-4549,6895,0,-1,0
175.52,2.09,-33.35,280,-4538,6941,0,-1,-1
175.52,2.10,-33.35,285,-4543,6949,0,-1,-1
175.52,2.11,-33.33,304,-4529,6950,0,-1,0
175.52,2.12,-33.32,313,-4525,6953,0,-1,0
175.52,2.12,-33.31,319,-4514,6967,-1,0,0
175.51,2.11,-33.31,323,-4503,6959,-1,0,0
175.51,2.11,-33.32,320,-4506,6960,-2,0,0
175.50,2.08,-33.34,283,-4519,6938,-1,0,0
175.50,2.06,-33.37,264,-4534,6910,-2,0,0
175.50,2.04,-33.40,267,-4553,6902,-1,0,-1
175.50,2.04,-33.42,260,-4555,6886,-1,-1,-1
175.50,2.04,-33.43,268,-4566,6895,-1,-1,-1
175.51,2.05,-33.44,300,-4578,6902,0,-1,-1
175.50,2.06,-33.42,314,-4556,6916,0,0,0
175.50,2.05,-33.42,303,-4546,6905,0,0,0
175.49,2.04,-33.41,291,-4530,6909,-1,0,0
175.48,2.03,-33.41,261,-4539,6929,0,0,0
175.48,2.02,-33.42,269,-4538,6924,-1,0,-1
175.48,2.02,-33.43,251,-4542,6926,-1,-1,-1
175.49,2.02,-33.46,261,-4557,6908,-1,-1,-1
175.50,2.03,-33.47,287,-4567,6918,-1,-1,-1
175.50,2.04,-33.48,313,-4590,6945,-1,0,0
175.50,2.04,-33.48,323,-4568,6959,-1,0,0
175.49,2.03,-33.49,347,-4552,6949,-1,0,0
175.48,2.01,-33.49,297,-4537,6907,0,0,0
175.47,1.98,-33.50,271,-4518,6881,-1,0,0
175.47,1.97,-33.49,224,-4552,6874,0,-1,-1
175.48,1.99,-33.48,220,-4570,6895,0,-1,-1
175.49,2.01,-33.45,234,-4577,6938,1,-2,-1
175.50,2.04,-33.43,291,-4564,6967,0,-1,-1
175.51,2.07,-33.41,331,-4537,6971,0,-1,-1
175.51,2.08,-33.40,356,-4515,6943,-1,0,0
175.50,2.06,-33.41,329,-4512,6907,-1,0,0
175.49,2.04,-33.41,287,-4508,6874,-1,0,0
175.49,2.03,-33.42,243,-4519,6891,-1,0,-1
175.50,2.03,-33.43,252,-4552,6918,-1,-1,-1
175.51,2.04,-33.44,264,-4565,6948,-1,-1,-1
175.52,2.05,-33.44,294,-4568,6948,-1,-1,-1
175.52,2.06,-33.45,328,-4554,6935,-1,-1,0
175.51,2.06,-33.46,327,-4559,6892,0,0,0
175.51,2.04,-33.46,315,-4546,6890,-1,0,0
175.50,2.03,-33.45,260,-4550,6881,0,0,-1
175.50,2.02,-33.44,256,-4554,6914,-1,0,-1
175.50,2.02,-33.44,253,-4546,6938,0,-1,-1
175.50,2.02,-33.44,270,-4534,6937,-1,-1,0
175.50,2.03,-33.44,293,-4527,6929,-1,-1,-1
175.51,2.03,-33.47,301,-4544,6901,-1,0,0
175.50,2.02,-33.46,291,-4561,6919,0,0,0
175.50,2.01,-33.46,276,-4572,6914,0,0,0
175.49,2.01,-33.45,275,-4552,6936,0,0,-1
175.49,2.00,-33.45,266,-4539,6929,0,-1,-1
175.49,2.01,-33.44,277,-4528,6932,-1,-1,0
175.49,2.01,-33.44,278,-4536,6919,0,-1,-1
175.49,2.01,-33.44,290,-4534,6919,-1,0,0
175.49,2.01,-33.44,285,-4538,6904,0,0,-1
175.49,2.00,-33.43,279,-4542,6921,-1,0,0
175.49,2.00,-33.43,253,-4554,6934,0,-1,-1
175.49,2.00,-33.43,288,-4558,6950,-1,-1,0
175.49,2.00,-33.43,271,-4545,6907,0,0,-1
175.48,1.99,-33.43,280,-4533,6903,-1,0,0
175.49,2.00,-33.42,267,-4536,6917,0,-1,-1
175.48,2.00,-33.43,293,-4567,6933,-1,0,0
175.48,1.99,-33.43,283,-4558,6927,0,0,-1
175.48,1.99,-33.43,287,-4550,6904,-1,0,0
175.48,1.98,-33.42,268,-4535,6908,0,0,-1
175.47,1.98,-33.42,287,-4536,6931,-1,-1,0
175.47,1.98,-33.42,270,-4541,6934,0,0,-1
175.47,1.97,-33.42,269,-4539,6923,-1,0,0
175.46,1.97,-33.40,247,-4526,6917,0,-1,-1
175.47,1.97,-33.40,278,-4525,6932,-1,-1,0
175.47,1.99,-33.39,277,-4523,6919,0,-1,-1
175.47,1.99,-33.40,310,-4539,6921,-1,0,0
175.48,1.99,-33.38,290,-4527,6919,0,0,-1
175.46,1.97,-33.39,268,-4532,6916,-1,0,0
175.46,1.96,-33.38,235,-4540,6909,0,-1,-1
175.46,1.97,-33.39,233,-4560,6899,-1,-1,-1
175.47,1.98,-33.37,229,-4577,6929,0,-1,-1
175.49,2.00,-33.37,270,-4576,6917,0,-1,-1
175.50,2.02,-33.35,301,-4560,6924,0,-1,-1
175.51,2.04,-33.34,330,-4543,6914,0,0,-1
175.51,2.04,-33.32,327,-4520,6932,0,-1,0
175.50,2.03,-33.30,326,-4516,6965,0,0,0
175.48,2.02,-33.29,299,-4503,6982,0,0,0
175.48,2.01,-33.30,304,-4498,6989,-2,0,0
175.46,1.98,-33.32,270,-4493,6944,-1,0,0
175.46,1.97,-33.34,281,-4508,6934,-2,0,0
175.46,1.95,-33.37,271,-4518,6923,-1,0,0
175.45,1.94,-33.40,265,-4525,6907,-2,0,0
175.46,1.93,-33.43,273,-4548,6910,-2,0,0
175.46,1.92,-33.46,274,-4576,6880,0,0,-1
175.46,1.91,-33.45,280,-4580,6918,-1,0,0
175.45,1.89,-33.45,270,-4575,6922,0,0,0
175.43,1.87,-33.45,260,-4556,6932,-1,0,0
175.42,1.85,-33.44,243,-4544,6916,0,0,0
175.41,1.84,-33.43,235,-4536,6902,0,0,0
175.40,1.83,-33.40,252,-4533,6922,0,0,0
175.40,1.82,-33.38,237,-4520,6936,0,0,0
175.39,1.81,-33.35,205,-4507,6978,0,0,-1
175.39,1.81,-33.35,209,-4518,6974,-1,-1,-1
175.40,1.83,-33.36,236,-4523,6963,-1,-1,-1
175.41,1.84,-33.36,256,-4514,6925,-1,0,-1
175.41,1.84,-33.38,247,-4540,6889,-1,0,-1
175.43,1.84,-33.38,261,-4559,6916,-1,0,-1
175.43,1.84,-33.38,265,-4574,6918,0,0,-1
175.44,1.84,-33.38,287,-4556,6940,-1,0,0
175.44,1.84,-33.38,271,-4552,6924,0,0,-1
175.44,1.83,-33.37,279,-4545,6936,-1,0,0
175.43,1.81,-33.38,247,-4545,6912,0,0,0
175.42,1.80,-33.36,237,-4528,6919,-1,0,0
175.42,1.81,-33.36,221,-4530,6912,0,-1,-1
175.43,1.82,-33.36,257,-4518,6940,-2,-1,-1
175.44,1.84,-33.37,282,-4536,6916,0,-1,-1
175.44,1.85,-33.39,297,-4541,6934,-2,-1,0
175.43,1.84,-33.39,277,-4555,6912,0,0,0
175.42,1.82,-33.40,252,-4552,6907,-1,0,0
175.42,1.82,-33.40,231,-4556,6922,0,0,0
175.41,1.81,-33.39,240,-4536,6913,-1,0,-1
175.41,1.81,-33.39,232,-4530,6918,0,-1,-1
175.42,1.82,-33.38,251,-4517,6926,-1,-1,-1
175.42,1.82,-33.38,263,-4529,6936,0,-1,-1
175.42,1.82,-33.38,279,-4550,6943,-1,0,0
175.41,1.80,-33.38,279,-4555,6910,0,0,0
175.40,1.78,-33.38,235,-4535,6899,-1,0,0
175.39,1.76,-33.38,196,-4571,6923,0,0,-1
175.39,1.76,-33.37,175,-4574,6907,0,-1,-1
175.40,1.76,-33.35,216,-4559,6920,0,-1,-1
175.41,1.78,-33.32,231,-4530,6902,1,-1,-1
175.41,1.80,-33.30,261,-4528,6935,0,-1,0
175.41,1.82,-33.27,286,-4531,6946,1,-1,-1
175.41,1.82,-33.25,317,-4527,6977,-1,0,0
175.40,1.81,-33.24,281,-4504,6960,0,0,0
175.39,1.78,-33.23,260,-4485,6955,-1,0,0
175.38,1.77,-33.23,239,-4520,6934,0,0,0
175.37,1.75,-33.24,241,-4516,6968,-2,0,0
175.37,1.73,-33.27,211,-4535,6933,-1,0,-1
175.37,1.71,-33.28,208,-4518,6941,-2,0,0
175.37,1.71,-33.30,208,-4540,6914,-1,-1,-1
175.38,1.72,-33.31,240,-4538,6935,-2,-1,0
175.38,1.72,-33.33,237,-4560,6912,0,-1,-1
175.38,1.72,-33.34,254,-4547,6918,-1,0,0
175.38,1.71,-33.35,241,-4555,6906,0,0,-1
175.38,1.70,-33.35,243,-4537,6913,-1,0,0
175.38,1.69,-33.34,247,-4536,6930,-1,0,0
175.38,1.69,-33.34,222,-4510,6928,0,0,-1
175.38,1.68,-33.34,210,-4498,6924,-1,-1,-1
175.39,1.70,-33.34,205,-4507,6921,-1,-1,-1
175.39,1.71,-33.35,221,-4522,6924,-1,-1,-1
175.40,1.72,-33.36,232,-4536,6924,-1,-1,-1
175.41,1.74,-33.36,249,-4553,6911,0,-1,-1
175.41,1.74,-33.36,259,-4549,6926,-1,0,0
175.41,1.74,-33.34,235,-4536,6924,0,-1,-1
175.41,1.74,-33.33,239,-4522,6939,-1,-1,0
175.41,1.74,-33.31,222,-4528,6933,0,-1,-1
175.41,1.75,-33.31,246,-4529,6942,-1,-1,0
175.42,1.76,-33.30,255,-4507,6943,0,0,-1
175.41,1.76,-33.30,249,-4498,6945,-1,-1,-1
175.41,1.76,-33.29,260,-4498,6951,-1,0,-1
175.41,1.77,-33.31,267,-4526,6940,-1,-1,-1
175.42,1.76,-33.31,261,-4528,6946,-1,0,0
175.41,1.75,-33.32,237,-4521,6914,-1,0,-1
175.41,1.75,-33.33,236,-4528,6930,-1,0,0
175.41,1.74,-33.33,220,-4546,6926,0,0,-1
175.41,1.73,-33.35,219,-4549,6927,-1,-1,0
175.41,1.73,-33.34,207,-4544,6923,0,-1,-1
175.40,1.74,-33.35,233,-4544,6916,-1,-1,0
175.41,1.76,-33.34,242,-4536,6917,0,-1,-1
175.41,1.76,-33.34,250,-4539,6914,0,-1,-1
175.41,1.77,-33.33,253,-4530,6930,-1,0,0
175.40,1.76,-33.34,248,-4533,6929,0,-1,0
175.40,1.75,-33.33,236,-4528,6943,-1,0,0
175.40,1.75,-33.33,228,-4524,6919,0,-1,-1
175.40,1.75,-33.33,232,-4516,6931,-1,-1,0
175.40,1.76,-33.34,234,-4515,6921,-1,-1,-1
175.40,1.77,-33.34,241,-4525,6930,-1,-1,0
175.41,1.77,-33.36,247,-4551,6920,0,-1,-1
175.41,1.77,-33.36,252,-4533,6913,-1,-1,0
175.41,1.77,-33.36,248,-4534,6916,0,-1,-1
175.41,1.78,-33.36,263,-4543,6923,-1,-1,0
175.41,1.78,-33.36,254,-4540,6923,0,0,-1
175.41,1.78,-33.36,242,-4536,6915,0,-1,-1
175.41,1.78,-33.35,229,-4514,6913,0,-1,-1
175.41,1.79,-33.34,236,-4522,6923,0,-1,-1
175.41,1.79,-33.33,247,-4516,6940,0,-1,-1
175.41,1.79,-33.34,253,-4527,6932,-1,-1,-1
175.42,1.80,-33.34,252,-4526,6932,-1,-1,0
175.41,1.80,-33.35,244,-4542,6914,-1,-1,-1
175.42,1.81,-33.35,250,-4545,6923,-1,0,0
175.42,1.81,-33.35,234,-4541,6914,0,-1,-1
175.42,1.81,-33.35,236,-4544,6935,-1,-1,0
175.42,1.81,-33.34,241,-4546,6929,0,-1,-1
175.42,1.82,-33.34,256,-4550,6935,-1,-1,0
175.42,1.83,-33.33,266,-4530,6939,0,-1,-1
175.42,1.83,-33.33,263,-4532,6946,-1,-1,-1
175.42,1.83,-33.33,255,-4527,6932,-1,0,-1
175.42,1.83,-33.33,253,-4529,6921,-1,-1,-1
175.42,1.83,-33.34,251,-4533,6929,-1,-1,-1
175.43,1.83,-33.33,265,-4527,6937,-1,-1,-1
175.43,1.82,-33.33,262,-4522,6931,-1,0,0
175.43,1.82,-33.34,250,-4531,6917,-1,-1,-1
175.43,1.82,-33.35,244,-4539,6913,-1,-1,-1
175.43,1.82,-33.35,247,-4541,6921,0,0,-1
175.42,1.82,-33.35,250,-4541,6934,-1,-1,-1
175.43,1.83,-33.34,251,-4537,6926,0,-1,-1
175.43,1.83,-33.34,261,-4537,6938,-1,-1,-1
175.43,1.83,-33.33,262,-4524,6939,-1,0,0
175.43,1.82,-33.34,248,-4530,6927,-1,0,0
175.43,1.82,-33.34,249,-4534,6930,-1,0,0
175.43,1.81,-33.33,240,-4531,6933,-1,0,-1
175.43,1.81,-33.34,241,-4527,6926,-1,0,0
175.43,1.81,-33.34,240,-4529,6921,0,0,-1
175.43,1.81,-33.34,249,-4528,6932,-1,0,0
175.43,1.81,-33.34,241,-4532,6934,0,-1,-1
175.42,1.80,-33.34,251,-4531,6941,-1,0,0
175.42,1.80,-33.34,239,-4539,6938,0,-1,-1
175.42,1.79,-33.34,247,-4530,6935,-1,0,0
175.42,1.79,-33.34,237,-4536,6935,0,-1,-1
175.42,1.79,-33.34,244,-4536,6912,-1,-1,0
175.42,1.79,-33.34,239,-4550,6925,0,-1,-1
175.42,1.80,-33.33,258,-4538,6936,0,0,0
175.42,1.79,-33.32,243,-4520,6941,0,-1,-1
175.42,1.80,-33.32,249,-4511,6941,-1,-1,0
175.42,1.80,-33.32,247,-4518,6941,-1,-1,-1
175.42,1.80,-33.32,250,-4531,6944,-1,0,0
175.42,1.79,-33.33,250,-4549,6941,-1,-1,0
175.42,1.80,-33.33,259,-4540,6931,-1,0,-1
175.42,1.80,-33.33,262,-4543,6927,0,0,-1
175.42,1.79,-33.33,250,-4533,6940,-1,-1,0
175.42,1.80,-33.33,256,-4533,6939,-1,-1,0
175.42,1.79,-33.33,260,-4542,6940,-1,0,0
175.42,1.79,-33.33,249,-4531,6940,-1,0,0
175.42,1.79,-33.33,245,-4540,6946,-1,-1,0
175.42,1.79,-33.33,255,-4529,6937,-1,0,-1
175.42,1.78,-33.33,242,-4518,6939,-1,-1,0
175.41,1.78,-33.34,239,-4528,6930,-1,-1,-1
175.41,1.78,-33.34,260,-4551,6927,-1,0,-1
175.42,1.78,-33.34,247,-4540,6927,0,0,-1
175.41,1.78,-33.34,248,-4526,6934,-1,-1,0
175.42,1.79,-33.34,255,-4538,6932,-1,-1,0
175.41,1.78,-33.34,250,-4549,6933,0,0,-1
175.41,1.78,-33.33,242,-4527,6937,-1,-1,0
175.41,1.79,-33.33,245,-4528,6936,-1,-1,0
175.41,1.79,-33.33,241,-4528,6924,0,0,-1
175.40,1.79,-33.33,260,-4530,6937,-1,-1,0
175.40,1.79,-33.34,244,-4544,6921,-1,0,0
175.40,1.79,-33.34,256,-4534,6931,-1,0,0
175.40,1.78,-33.35,254,-4537,6921,-1,-1,0
175.39,1.78,-33.35,266,-4528,6913,-1,0,0
175.38,1.76,-33.34,214,-4523,6944,0,-1,0
175.39,1.77,-33.36,249,-4540,6925,-1,0,0
175.38,1.75,-33.36,225,-4539,6925,0,0,0
175.37,1.74,-33.37,236,-4539,6917,-1,-1,0
175.37,1.75,-33.36,246,-4540,6937,0,0,-1
175.37,1.74,-33.37,249,-4537,6907,-1,0,0
175.36,1.73,-33.36,213,-4530,6913,-1,-1,-1
175.36,1.73,-33.36,254,-4538,6916,0,0,0
175.36,1.72,-33.34,216,-4530,6925,0,-1,-1
175.36,1.74,-33.34,250,-4523,6932,-1,-1,0
175.36,1.74,-33.33,237,-4537,6910,0,0,-1
175.36,1.74,-33.33,251,-4543,6936,-1,0,0
175.36,1.73,-33.32,233,-4521,6928,0,0,-1
175.36,1.73,-33.31,246,-4513,6933,-1,-1,0
175.36,1.73,-33.31,224,-4509,6929,0,-1,-1
175.36,1.73,-33.31,249,-4520,6936,-1,-1,0
175.36,1.73,-33.32,245,-4536,6935,-1,0,-1
175.36,1.72,-33.33,238,-4548,6946,0,0,0
175.35,1.72,-33.32,232,-4529,6923,-1,0,0
175.35,1.70,-33.32,219,-4551,6934,0,0,-1
175.35,1.70,-33.31,232,-4533,6969,-1,-1,0
175.35,1.70,-33.32,238,-4525,6926,0,0,0
175.34,1.70,-33.31,216,-4508,6937,-1,-1,0
175.34,1.70,-33.32,240,-4545,6925,0,0,-1
175.34,1.69,-33.31,256,-4526,6944,-1,0,0
175.33,1.68,-33.30,221,-4519,6928,0,-1,0
175.33,1.68,-33.30,237,-4522,6932,-1,0,0
175.33,1.67,-33.30,209,-4519,6915,0,-1,-1
175.33,1.66,-33.29,232,-4517,6957,-1,0,0
175.33,1.66,-33.29,219,-4520,6922,0,-1,-1
175.33,1.67,-33.29,243,-4533,6947,-1,-1,0
175.33,1.67,-33.29,210,-4547,6922,1,-1,-1
175.33,1.66,-33.29,236,-4509,6953,-2,0,0
175.33,1.66,-33.29,213,-4519,6936,0,-1,-1
175.33,1.67,-33.30,250,-4517,6911,-1,0,0
175.33,1.66,-33.29,215,-4534,6919,0,0,-1
175.33,1.66,-33.29,220,-4522,6923,-1,-1,-1
175.33,1.66,-33.29,227,-4523,6933,-1,0,-1
175.34,1.67,-33.29,242,-4505,6919,-1,0,-1
175.34,1.66,-33.29,222,-4518,6923,0,-1,-1
175.35,1.67,-33.29,227,-4507,6933,-1,-1,0
175.34,1.67,-33.30,222,-4536,6924,0,-1,-1
175.35,1.67,-33.30,230,-4519,6934,-1,-1,0
175.35,1.67,-33.30,215,-4531,6898,0,0,-1
175.35,1.68,-33.30,232,-4521,6919,-1,-1,0
175.35,1.69,-33.30,235,-4535,6924,0,0,-1
175.35,1.68,-33.31,232,-4553,6937,-1,-1,0
175.36,1.68,-33.29,233,-4529,6953,0,0,-1
175.36,1.68,-33.30,225,-4505,6933,-1,-1,0
175.36,1.68,-33.30,218,-4513,6918,-1,-1,-1
175.36,1.69,-33.32,219,-4553,6925,-1,-1,-1
175.36,1.69,-33.30,226,-4543,6929,0,-1,-1
175.36,1.70,-33.30,232,-4537,6926,0,-1,-1
175.36,1.69,-33.30,237,-4525,6925,-1,0,0
175.36,1.69,-33.30,235,-4518,6918,0,-1,-1
175.36,1.69,-33.30,225,-4513,6944,-1,-1,0
175.36,1.70,-33.30,222,-4518,6936,0,-1,-1
175.36,1.70,-33.30,230,-4501,6932,-1,-1,0
175.36,1.70,-33.30,236,-4510,6928,0,0,-1
175.36,1.70,-33.30,246,-4517,6937,-1,-1,0
175.37,1.70,-33.30,226,-4522,6916,0,0,-1
175.36,1.70,-33.31,234,-4532,6917,-1,-1,0
175.36,1.70,-33.31,219,-4528,6924,-1,0,-1
175.36,1.70,-33.31,222,-4542,6921,0,-1,-1
175.36,1.70,-33.30,225,-4527,6932,-1,-1,-1
175.36,1.70,-33.30,240,-4524,6930,-1,-1,-1
175.36,1.70,-33.30,245,-4517,6939,-1,-1,0
175.37,1.71,-33.30,243,-4517,6934,0,-1,-1
175.36,1.70,-33.30,235,-4523,6947,-1,0,0
175.36,1.70,-33.31,237,-4523,6923,-1,-1,-1
175.37,1.71,-33.31,233,-4526,6926,-1,-1,0
175.36,1.71,-33.31,234,-4536,6932,0,-1,-1
175.36,1.72,-33.31,242,-4546,6938,-1,-1,-1
175.36,1.72,-33.30,242,-4521,6929,0,-1,-1
175.36,1.72,-33.30,236,-4519,6942,-1,-1,0
175.37,1.73,-33.30,229,-4517,6932,-1,-1,-1
175.36,1.73,-33.30,237,-4528,6934,-1,-1,0
175.37,1.73,-33.30,236,-4534,6940,0,0,-1
175.37,1.73,-33.30,234,-4519,6928,-1,-1,-1
175.37,1.74,-33.30,234,-4513,6930,-1,-1,0
175.37,1.74,-33.30,244,-4530,6931,0,-1,-1
175.37,1.74,-33.29,244,-4524,6946,-1,-1,0
175.37,1.74,-33.30,237,-4527,6941,0,-1,-1
175.37,1.74,-33.29,232,-4519,6941,-1,-1,0
175.37,1.74,-33.29,237,-4517,6939,0,-1,-1
175.37,1.74,-33.28,241,-4525,6952,-1,0,0
175.37,1.74,-33.28,243,-4520,6932,0,-1,-1
175.37,1.74,-33.28,240,-4523,6937,-1,-1,0
175.37,1.74,-33.29,239,-4531,6931,0,-1,-1
175.37,1.74,-33.28,242,-4534,6934,-1,0,0
175.37,1.74,-33.28,238,-4522,6932,0,0,0
175.36,1.73,-33.28,237,-4520,6934,-1,-1,0
175.36,1.73,-33.28,228,-4523,6930,0,-1,-1
175.36,1.73,-33.27,235,-4524,6931,-1,-1,0
175.36,1.73,-33.27,235,-4535,6933,0,-1,-1
175.36,1.74,-33.26,249,-4526,6949,-1,0,0
175.36,1.74,-33.26,249,-4519,6934,-1,0,0
175.36,1.73,-33.27,245,-4527,6936,-1,-1,0
175.36,1.73,-33.27,248,-4528,6921,0,0,0
175.36,1.74,-33.26,244,-4537,6931,0,-1,0
175.36,1.74,-33.26,246,-4534,6937,0,0,-1
175.35,1.73,-33.25,241,-4526,6941,0,-1,-1
175.35,1.74,-33.24,244,-4515,6944,0,-1,-1
175.36,1.74,-33.24,245,-4521,6937,0,-1,-1
175.36,1.74,-33.24,253,-4513,6925,-1,0,0
175.36,1.74,-33.24,245,-4518,6929,-1,0,-1
175.36,1.74,-33.24,244,-4526,6927,-1,-1,0
175.36,1.74,-33.25,248,-4530,6935,-1,0,-1
175.36,1.74,-33.25,241,-4539,6930,-1,0,0
175.36,1.74,-33.25,245,-4532,6929,0,-1,0
175.36,1.74,-33.24,239,-4531,6929,0,-1,0
175.36,1.74,-33.23,243,-4521,6937,0,-1,0
175.36,1.73,-33.23,241,-4520,6945,-1,0,0
175.36,1.73,-33.23,238,-4518,6945,-1,0,0
175.35,1.72,-33.23,254,-4514,6931,-1,0,0
175.35,1.72,-33.23,242,-4514,6934,-1,-1,-1
175.35,1.72,-33.23,248,-4522,6923,-1,0,0
175.35,1.72,-33.23,233,-4546,6933,0,-1,-1
175.35,1.72,-33.23,250,-4533,6940,-1,-1,0
175.36,1.73,-33.23,245,-4523,6931,0,0,-1
175.36,1.73,-33.22,251,-4523,6930,-1,0,-1
175.36,1.72,-33.21,235,-4523,6929,0,0,-1
175.36,1.72,-33.21,239,-4528,6939,-1,0,0
175.36,1.72,-33.21,235,-4527,6942,0,0,-1
175.36,1.71,-33.21,237,-4514,6930,-1,0,0
175.36,1.72,-33.21,242,-4519,6917,0,-1,-1
175.36,1.71,-33.21,242,-4515,6918,-1,0,-1
175.36,1.70,-33.21,232,-4531,6921,0,-1,-1
175.36,1.70,-33.21,241,-4539,6921,-1,-1,0
175.37,1.71,-33.21,243,-4534,6935,0,-1,-1
175.36,1.70,-33.21,247,-4528,6936,0,0,0
175.36,1.70,-33.20,238,-4516,6940,0,-1,-1
175.37,1.71,-33.20,255,-4519,6936,-1,-1,0
175.37,1.71,-33.20,253,-4522,6933,-1,0,0
175.36,1.70,-33.20,245,-4539,6935,-1,0,0
175.36,1.70,-33.20,242,-4532,6937,0,0,0
175.36,1.70,-33.20,234,-4532,6938,-1,-1,0
175.36,1.70,-33.20,234,-4523,6934,-1,-1,0
175.36,1.70,-33.20,236,-4525,6903,0,-1,-1
175.36,1.71,-33.19,237,-4526,6932,-1,-1,-1
175.36,1.71,-33.19,248,-4527,6942,0,0,0
175.36,1.70,-33.18,246,-4518,6948,-1,0,0
175.36,1.70,-33.18,236,-4515,6950,-1,0,-1
175.36,1.70,-33.18,237,-4511,6933,-1,0,0
175.36,1.69,-33.18,228,-4518,6941,0,-1,-1
175.36,1.70,-33.18,238,-4523,6942,-1,0,-1
175.36,1.70,-33.18,241,-4521,6940,0,-1,0
175.36,1.70,-33.18,247,-4523,6941,0,0,0
175.36,1.69,-33.17,244,-4531,6946,0,0,-1
175.36,1.69,-33.17,246,-4523,6938,-1,0,0
175.36,1.69,-33.17,228,-4516,6930,0,-1,-1
175.36,1.69,-33.17,230,-4524,6927,-1,-1,-1
175.36,1.69,-33.17,233,-4528,6928,0,-1,-1
175.36,1.70,-33.17,242,-4538,6930,0,-1,0
175.36,1.71,-33.16,247,-4529,6933,0,-1,-1
175.36,1.70,-33.16,247,-4528,6939,0,0,0
175.36,1.70,-33.14,238,-4518,6940,0,-1,-1
175.36,1.70,-33.14,244,-4513,6943,-1,0,0
175.36,1.70,-33.13,243,-4503,6945,0,-1,-1
175.35,1.71,-33.14,237,-4500,6927,-1,-1,0
175.36,1.71,-33.14,240,-4515,6935,0,-1,-1
175.36,1.71,-33.14,249,-4527,6945,0,0,-1
175.36,1.71,-33.13,250,-4513,6955,-1,0,0
175.36,1.72,-33.13,231,-4516,6939,-1,-1,0
175.37,1.72,-33.13,246,-4515,6940,-1,-1,-1
175.36,1.72,-33.12,247,-4517,6940,0,0,-1
175.36,1.72,-33.12,249,-4514,6939,-1,-1,-1
175.36,1.72,-33.12,249,-4510,6940,-1,0,0
175.37,1.73,-33.12,255,-4508,6935,0,-1,-1
175.37,1.72,-33.12,247,-4515,6950,-1,0,0
175.37,1.73,-33.12,247,-4512,6932,-1,0,-1
175.37,1.72,-33.13,249,-4523,6938,-1,-1,0
175.37,1.72,-33.14,246,-4534,6928,-1,0,-1
175.37,1.72,-33.14,247,-4540,6926,0,0,-1
175.37,1.72,-33.14,249,-4538,6938,-1,0,0
175.37,1.72,-33.14,241,-4534,6926,0,0,0
175.37,1.72,-33.16,254,-4526,6931,-2,-1,0
175.37,1.73,-33.23,289,-4552,6830,-3,-1,0
175.36,1.73,-33.28,273,-4678,6708,1,0,0
175.36,1.71,-33.18,246,-4701,6753,6,0,-1
175.33,1.69,-32.97,232,-4640,6969,6,0,-1
175.32,1.69,-32.78,225,-4523,7133,5,-1,-1
175.30,1.69,-32.64,239,-4355,7172,2,-1,0
175.28,1.70,-32.58,267,-4241,7131,-1,-2,1
175.25,1.71,-32.60,289,-4237,7037,-2,-1,1
175.24,1.70,-32.66,249,-4334,6966,-3,0,0
175.23,1.67,-32.73,211,-4447,6932,-2,0,0
175.23,1.63,-32.79,181,-4511,6946,-2,1,0
175.23,1.60,-32.84,155,-4551,6960,-1,1,-1
175.24,1.57,-32.86,156,-4570,6985,-1,0,-1
175.26,1.58,-32.84,181,-4511,6980,0,0,-1
175.27,1.60,-32.84,207,-4481,7001,-1,-2,-1
175.27,1.64,-32.84,268,-4484,6964,0,-1,-1
175.28,1.65,-32.83,293,-4459,6948,0,-1,0
175.26,1.65,-32.80,278,-4458,6954,0,0,0
175.25,1.65,-32.79,244,-4452,6985,-1,0,0
175.25,1.63,-32.80,207,-4438,7009,-1,0,0
175.24,1.62,-32.83,189,-4430,7039,-3,-1,-1
175.26,1.63,-32.91,187,-4458,7009,-4,-1,-1
175.27,1.65,-33.00,223,-4495,6944,-4,-1,-1
175.29,1.67,-33.08,238,-4526,6886,-2,0,-1
175.30,1.68,-33.13,253,-4552,6856,-2,-1,-1
175.31,1.69,-33.14,286,-4562,6876,0,0,-1
175.32,1.71,-33.12,305,-4572,6943,0,-1,0
175.31,1.72,-33.09,306,-4542,7017,0,-1,0
175.29,1.70,-33.10,280,-4508,7021,-2,0,0
175.27,1.69,-33.13,257,-4468,7001,-3,-1,0
175.26,1.67,-33.20,215,-4489,6919,-3,0,0
175.26,1.66,-33.26,192,-4513,6888,-2,0,-1
175.27,1.67,-33.31,199,-4536,6841,-2,-1,-1
175.29,1.70,-33.34,208,-4564,6824,-1,-2,-1
175.31,1.72,-33.33,226,-4568,6867,0,-1,-1
175.32,1.75,-33.32,286,-4588,6958,0,-1,-1
175.33,1.77,-33.30,294,-4589,7030,-1,-1,0
175.33,1.79,-33.31,319,-4557,7024,-1,-1,0
175.31,1.78,-33.32,280,-4476,6981,-2,-1,0
175.29,1.77,-33.36,269,-4461,6946,-3,0,0
175.29,1.76,-33.41,221,-4475,6924,-2,0,0
175.28,1.75,-33.47,190,-4505,6941,-4,-1,0
175.29,1.75,-33.56,175,-4561,6947,-4,-1,-1
175.31,1.76,-33.65,199,-4596,6914,-4,-1,-1
175.33,1.77,-33.74,214,-4622,6903,-3,-1,-1
175.35,1.79,-33.82,251,-4604,6891,-4,-1,-1
175.37,1.81,-33.89,263,-4627,6846,-2,-1,-1
175.38,1.84,-33.95,300,-4659,6850,-2,-1,0
175.39,1.85,-33.98,299,-4660,6852,-1,-1,-1
175.39,1.86,-34.02,281,-4627,6854,-2,-1,0
175.39,1.87,-34.05,254,-4627,6854,-2,-1,-1
175.40,1.90,-34.10,276,-4641,6845,-2,-1,-1
175.42,1.92,-34.12,271,-4636,6867,-2,-1,-1
175.42,1.94,-34.15,265,-4638,6869,-2,-1,-1
175.43,1.96,-34.18,270,-4624,6882,-2,-2,-1
175.45,2.00,-34.24,302,-4642,6864,-2,-2,-1
175.46,2.02,-34.28,320,-4661,6861,-2,-1,-1
175.46,2.02,-34.33,304,-4658,6843,-2,-1,-1
175.47,2.03,-34.39,307,-4659,6823,-2,-1,-1
175.49,2.04,-34.43,290,-4679,6809,-2,-1,-1
175.50,2.04,-34.47,291,-4686,6820,-2,0,-1
175.51,2.04,-34.51,282,-4699,6846,-2,-1,-1
175.52,2.06,-34.55,284,-4693,6889,-2,-1,-1
175.54,2.07,-34.60,280,-4692,6865,-3,-1,-1
175.55,2.08,-34.66,292,-4678,6818,-3,-1,-1
175.57,2.10,-34.73,301,-4678,6773,-3,-1,-1
175.59,2.12,-34.80,334,-4727,6731,-2,-1,-1
175.61,2.13,-34.85,350,-4734,6725,-2,0,-1
175.62,2.13,-34.90,350,-4767,6725,-1,0,-1
175.62,2.12,-34.91,347,-4783,6747,-1,0,0
175.63,2.11,-34.91,328,-4781,6779,0,0,0
175.61,2.10,-34.91,307,-4762,6811,-1,0,0
175.61,2.09,-34.90,286,-4739,6813,0,0,-1
175.60,2.08,-34.90,274,-4712,6798,-1,0,0
175.60,2.08,-34.91,274,-4711,6800,-1,-1,-1
175.60,2.07,-34.92,283,-4722,6795,-1,0,0
175.61,2.07,-34.94,280,-4743,6789,-1,0,-1
175.62,2.06,-34.96,292,-4748,6783,-1,0,-1
175.62,2.04,-34.96,281,-4723,6816,-1,0,-1
175.63,2.04,-35.01,277,-4747,6774,-2,0,0
175.62,2.02,-35.05,226,-4753,6772,-2,-1,-1
175.63,2.01,-35.09,215,-4801,6721,-1,-1,-1
175.65,2.06,-35.09,257,-4826,6724,1,-2,-2
175.68,2.11,-35.05,320,-4776,6786,0,-2,-1
175.71,2.16,-35.03,395,-4718,6794,0,-1,-1
175.73,2.20,-35.02,450,-4691,6830,-1,-1,0
175.73,2.21,-35.02,462,-4685,6809,-1,0,0
175.71,2.17,-35.07,423,-4714,6771,-2,1,1
175.68,2.11,-35.10,329,-4737,6742,-2,2,0
175.65,2.04,-35.13,249,-4779,6740,-1,1,0
175.64,1.98,-35.14,183,-4791,6777,-1,1,0
175.63,1.95,-35.15,152,-4793,6795,-1,0,-1
175.63,1.94,-35.17,164,-4786,6754,-1,-1,-1
175.64,1.96,-35.18,190,-4787,6733,0,-1,-1
175.65,2.00,-35.17,235,-4815,6752,0,-2,-1
175.67,2.06,-35.16,355,-4831,6771,0,-1,-1
175.68,2.09,-35.13,398,-4795,6780,1,0,0
175.68,2.08,-35.09,411,-4732,6799,0,0,0
175.67,2.05,-35.07,375,-4699,6796,0,1,0
175.64,2.01,-35.08,338,-4713,6815,-2,1,0
175.62,1.96,-35.09,269,-4729,6795,-1,1,0
175.61,1.91,-35.14,222,-4755,6796,-2,0,0
175.61,1.89,-35.16,200,-4773,6769,-1,0,-1
175.61,1.89,-35.19,204,-4805,6751,-1,-1,-1
175.61,1.92,-35.18,245,-4815,6742,0,-1,-1
175.62,1.94,-35.18,283,-4830,6750,0,-1,-1
175.62,1.95,-35.14,309,-4793,6765,0,0,0
175.61,1.95,-35.12,312,-4771,6761,0,-1,0
175.61,1.95,-35.08,317,-4722,6791,0,0,0
175.60,1.93,-35.07,283,-4718,6793,0,0,0
175.59,1.92,-35.05,275,-4703,6826,-1,0,0
175.59,1.91,-35.08,255,-4731,6792,-1,-1,-1
175.60,1.91,-35.09,261,-4729,6797,-2,0,0
175.60,1.91,-35.11,245,-4780,6757,0,-1,-1
175.60,1.92,-35.13,283,-4793,6772,-1,0,0
175.61,1.92,-35.14,274,-4808,6746,0,0,-1
175.61,1.92,-35.14,286,-4784,6760,-1,-1,0
175.61,1.92,-35.14,292,-4783,6773,0,0,-1
175.60,1.91,-35.13,290,-4750,6778,0,0,0
175.60,1.89,-35.13,286,-4734,6786,-1,0,0
175.59,1.89,-35.13,266,-4726,6768,-1,0,0
175.58,1.87,-35.14,254,-4751,6776,-1,0,-1
175.58,1.86,-35.15,243,-4766,6790,-1,0,0
175.59,1.87,-35.17,252,-4783,6759,0,-1,-1
175.59,1.87,-35.18,271,-4797,6776,-1,0,0
175.59,1.88,-35.17,256,-4783,6758,0,-1,-1
175.59,1.87,-35.18,257,-4782,6757,-1,0,0
175.59,1.88,-35.17,265,-4783,6758,0,-1,-1
175.60,1.88,-35.16,279,-4778,6770,-1,-1,-1
175.60,1.88,-35.16,265,-4764,6784,-1,-1,0
175.59,1.89,-35.16,273,-4768,6781,-1,-1,0
175.59,1.89,-35.16,268,-4761,6776,-1,0,0
175.59,1.89,-35.16,265,-4765,6772,0,-1,-1
175.59,1.89,-35.16,265,-4760,6790,-1,-1,-1
175.59,1.90,-35.16,271,-4761,6779,0,-1,-1
175.60,1.90,-35.15,269,-4753,6791,-1,-1,0
175.60,1.91,-35.15,270,-4760,6783,0,-1,-1
175.60,1.91,-35.15,281,-4765,6788,-1,0,0
175.60,1.91,-35.16,275,-4763,6771,0,0,-1
175.60,1.90,-35.16,259,-4762,6786,-1,-1,0
175.60,1.91,-35.16,268,-4764,6775,0,-1,-1
175.60,1.91,-35.16,273,-4762,6771,-1,0,0
175.61,1.92,-35.17,272,-4766,6762,0,-1,-1
175.61,1.92,-35.17,268,-4766,6771,-1,-1,0
175.61,1.92,-35.17,270,-4764,6762,0,-1,-1
175.61,1.93,-35.17,270,-4779,6775,-1,-1,-1
175.62,1.93,-35.16,277,-4763,6771,0,0,-1
175.62,1.93,-35.16,275,-4750,6766,-1,0,0
175.62,1.93,-35.16,263,-4749,6755,0,-1,-1
175.62,1.93,-35.16,268,-4763,6768,-1,-1,-1
175.63,1.94,-35.16,268,-4769,6769,0,-1,-1
175.63,1.95,-35.17,286,-4776,6767,-1,-1,-1
175.63,1.95,-35.16,279,-4766,6767,0,-1,-1
175.64,1.96,-35.16,279,-4768,6773,0,-1,-1
175.64,1.96,-35.15,278,-4760,6776,-1,-1,-1
175.64,1.96,-35.16,286,-4765,6770,-1,-1,-1
175.64,1.97,-35.15,285,-4768,6770,-1,-1,-1
175.64,1.97,-35.15,288,-4763,6774,0,-1,-1
175.64,1.97,-35.15,284,-4761,6776,-1,0,0
175.64,1.97,-35.15,283,-4762,6772,-1,-1,-1
175.65,1.97,-35.15,281,-4767,6776,-1,0,0
175.65,1.97,-35.16,281,-4765,6769,0,-1,-1
175.65,1.97,-35.16,284,-4761,6785,-1,0,0
175.65,1.97,-35.16,288,-4763,6773,0,0,-1
175.65,1.97,-35.16,287,-4768,6780,-1,0,0
175.65,1.97,-35.16,288,-4759,6770,0,0,-1
175.65,1.97,-35.16,284,-4760,6774,-1,0,0
175.65,1.97,-35.16,276,-4761,6760,0,-1,-1
175.65,1.97,-35.16,282,-4784,6782,-1,-1,0
175.66,1.98,-35.16,283,-4779,6782,0,0,-1
175.65,1.97,-35.15,280,-4759,6778,-1,-1,0
175.66,1.98,-35.16,280,-4751,6769,-1,0,-1
175.66,1.98,-35.16,284,-4766,6780,-1,-1,-1
175.66,1.98,-35.16,278,-4769,6788,-1,0,-1
175.66,1.98,-35.16,283,-4773,6794,-1,-1,-1
175.66,1.98,-35.16,283,-4770,6786,-1,0,-1
175.66,1.98,-35.16,288,-4778,6774,-1,-1,-1
175.66,1.98,-35.16,290,-4776,6776,0,0,0
175.65,1.97,-35.15,281,-4764,6773,-1,0,0
175.65,1.97,-35.15,275,-4757,6781,-1,0,0
175.65,1.97,-35.16,280,-4765,6771,-1,0,0
175.65,1.97,-35.16,276,-4765,6768,-1,0,0
175.65,1.96,-35.16,284,-4767,6767,0,0,0
175.65,1.96,-35.16,284,-4774,6772,-1,0,0
175.65,1.95,-35.15,293,-4768,6776,-1,0,0
175.65,1.95,-35.16,282,-4762,6770,-1,0,0
175.65,1.95,-35.15,287,-4761,6776,-1,0,0
175.65,1.95,-35.15,274,-4766,6772,0,0,0
175.65,1.94,-35.15,285,-4761,6769,-1,0,0
175.65,1.94,-35.16,278,-4766,6776,-1,0,-1
175.65,1.94,-35.16,280,-4761,6768,-1,0,0
175.64,1.93,-35.16,259,-4793,6776,0,-1,-1
175.65,1.93,-35.15,272,-4769,6782,0,0,0
175.65,1.93,-35.15,265,-4766,6776,0,0,-1
175.65,1.93,-35.14,277,-4760,6772,-1,-1,0
175.65,1.94,-35.15,275,-4774,6771,0,-1,-1
175.65,1.94,-35.14,288,-4771,6778,-1,0,0
175.65,1.93,-35.14,280,-4773,6775,0,0,-1
175.65,1.93,-35.14,277,-4746,6775,-1,0,0
175.64,1.92,-35.14,266,-4765,6769,0,-1,-1
175.65,1.93,-35.14,286,-4763,6771,-1,0,0
175.65,1.93,-35.14,277,-4764,6766,0,0,0
175.64,1.92,-35.14,273,-4762,6780,-1,0,0
175.64,1.92,-35.13,276,-4770,6772,0,-1,-1
175.64,1.92,-35.13,275,-4769,6777,-1,0,0
175.64,1.92,-35.13,265,-4768,6779,0,-1,-1
175.64,1.92,-35.12,278,-4755,6780,-1,0,0
175.63,1.93,-35.13,273,-4768,6773,0,-1,-1
175.63,1.93,-35.12,282,-4763,6774,-1,0,0
175.63,1.92,-35.12,274,-4763,6786,0,0,-1
175.63,1.92,-35.11,272,-4754,6783,-1,0,0
175.63,1.92,-35.12,262,-4763,6768,0,-1,-1
175.62,1.93,-35.11,274,-4767,6774,-1,0,0
175.63,1.93,-35.11,270,-4765,6768,0,-1,-1
175.63,1.93,-35.11,271,-4752,6773,-1,0,0
175.63,1.93,-35.10,262,-4751,6782,0,-1,-1
175.63,1.94,-35.11,287,-4764,6779,-1,-1,0
175.63,1.94,-35.10,286,-4772,6791,0,-1,-1
175.63,1.94,-35.10,288,-4752,6772,-1,0,-1
175.63,1.94,-35.10,271,-4756,6781,-1,-1,-1
175.63,1.94,-35.10,285,-4760,6785,0,-1,-1
175.64,1.95,-35.10,286,-4762,6784,-1,-1,-1
175.64,1.95,-35.11,278,-4757,6780,-1,-1,0
175.64,1.95,-35.12,282,-4764,6782,-1,-1,-1
175.64,1.95,-35.12,282,-4762,6779,-1,0,0
175.64,1.95,-35.12,275,-4762,6769,0,-1,-1
175.64,1.95,-35.12,278,-4761,6771,-1,-1,0
175.65,1.96,-35.12,273,-4761,6765,0,-1,-1
175.65,1.96,-35.12,288,-4764,6782,-1,-1,0
175.65,1.96,-35.12,288,-4759,6774,0,0,-1
175.65,1.96,-35.12,283,-4757,6779,-1,-1,0
175.65,1.96,-35.12,283,-4761,6775,-1,0,0
175.65,1.96,-35.13,284,-4771,6768,0,0,-1
175.65,1.96,-35.12,280,-4753,6777,-1,0,0
175.64,1.96,-35.12,278,-4764,6771,0,-1,-1
175.64,1.96,-35.13,275,-4769,6775,-1,-1,0
175.64,1.97,-35.13,279,-4772,6768,0,-1,-1
175.64,1.97,-35.13,286,-4774,6773,-1,-1,0
175.64,1.97,-35.13,277,-4766,6765,0,0,-1
175.64,1.97,-35.13,277,-4771,6776,-1,-1,0
175.64,1.97,-35.12,280,-4762,6787,0,-1,-1
175.64,1.97,-35.13,276,-4768,6780,-1,-1,0
175.64,1.97,-35.13,279,-4766,6780,-1,0,0
175.64,1.97,-35.14,281,-4766,6770,0,0,-1
175.64,1.97,-35.14,287,-4768,6782,-1,-1,0
175.64,1.97,-35.14,288,-4780,6774,0,-1,-1
175.64,1.97,-35.14,286,-4778,6786,-1,-1,0
175.64,1.97,-35.14,283,-4777,6777,0,0,-1
175.64,1.96,-35.15,289,-4774,6774,-1,0,0
175.64,1.96,-35.15,278,-4756,6768,-1,0,0
175.64,1.96,-35.15,276,-4769,6771,-1,-1,0
175.64,1.96,-35.15,273,-4782,6782,0,0,-1
175.64,1.97,-35.15,280,-4770,6771,0,-1,-1
175.64,1.97,-35.14,276,-4760,6769,-1,-1,0
175.64,1.98,-35.15,290,-4771,6765,-1,-1,-1
175.64,1.98,-35.15,298,-4773,6780,-1,0,0
175.64,1.98,-35.15,290,-4772,6773,0,-1,0
175.64,1.98,-35.15,286,-4777,6769,-1,0,0
175.64,1.98,-35.15,283,-4767,6768,0,0,-1
175.64,1.98,-35.15,283,-4769,6774,-1,-1,0
175.64,1.98,-35.15,283,-4755,6775,-1,0,0
175.64,1.97,-35.15,287,-4757,6781,-1,0,-1
175.64,1.97,-35.15,274,-4756,6777,-1,0,0
175.64,1.97,-35.15,278,-4772,6783,-1,-1,-1
175.64,1.97,-35.15,276,-4775,6783,-1,-1,0
175.64,1.98,-35.16,281,-4770,6778,-1,-1,-1
175.64,1.97,-35.15,287,-4770,6778,-1,0,0
175.64,1.97,-35.15,287,-4765,6768,0,-1,-1
175.64,1.97,-35.15,291,-4774,6772,0,0,0
175.64,1.97,-35.15,291,-4769,6767,0,0,0
175.63,1.97,-35.15,272,-4794,6805,-1,-1,0
175.63,1.97,-35.15,289,-4788,6798,0,0,0
175.63,1.96,-35.15,276,-4764,6777,-1,0,-1
175.63,1.96,-35.15,282,-4752,6771,-1,0,0
175.64,1.96,-35.15,272,-4767,6767,0,0,-1
175.64,1.96,-35.15,273,-4771,6772,-1,0,0
175.63,1.96,-35.15,269,-4791,6774,0,-1,-1
175.64,1.96,-35.15,286,-4782,6785,-1,0,0
175.63,1.95,-35.14,282,-4757,6766,0,0,-1
175.63,1.94,-35.14,279,-4753,6765,-1,0,0
175.63,1.94,-35.14,276,-4773,6770,0,-1,-1
175.63,1.94,-35.14,292,-4780,6790,-1,0,0
175.63,1.95,-35.13,279,-4768,6788,0,0,0
175.63,1.94,-35.13,279,-4760,6786,-1,0,0
175.63,1.93,-35.13,279,-4755,6780,-1,0,0
175.63,1.92,-35.14,267,-4767,6764,-1,0,0
175.62,1.92,-35.14,266,-4758,6779,-1,0,0
175.62,1.92,-35.15,268,-4765,6754,-1,-1,-1
175.63,1.93,-35.14,291,-4772,6764,-1,-1,0
175.63,1.93,-35.15,286,-4805,6774,0,0,-1
175.64,1.94,-35.13,306,-4775,6781,-1,-1,0
175.63,1.94,-35.12,280,-4751,6784,0,-1,-1
175.62,1.94,-35.12,290,-4744,6780,-1,0,0
175.62,1.92,-35.11,265,-4750,6797,0,0,-1
175.62,1.93,-35.12,284,-4755,6797,-1,0,0
175.62,1.93,-35.12,270,-4761,6782,0,0,-1
175.63,1.93,-35.13,284,-4769,6775,-1,0,0
175.63,1.92,-35.14,281,-4787,6768,0,-1,-1
175.63,1.93,-35.14,302,-4799,6770,0,0,0
175.62,1.93,-35.12,283,-4774,6772,0,0,0
175.62,1.92,-35.12,259,-4755,6780,0,0,0
175.62,1.92,-35.12,275,-4758,6777,-1,-1,-1
175.62,1.92,-35.12,282,-4764,6781,-1,0,-1
175.62,1.92,-35.12,277,-4764,6792,-1,-1,0
175.62,1.91,-35.12,264,-4780,6777,0,0,-1
175.62,1.91,-35.12,276,-4760,6786,-1,-1,0
175.61,1.91,-35.12,269,-4763,6787,0,-1,-1
175.61,1.91,-35.13,282,-4764,6766,-1,-1,0
175.61,1.91,-35.13,271,-4788,6784,0,-1,-1
175.62,1.92,-35.13,274,-4776,6771,0,0,0
175.61,1.91,-35.12,249,-4758,6790,-1,-1,-1
175.61,1.92,-35.12,271,-4759,6788,0,-1,-1
175.62,1.93,-35.12,291,-4761,6791,-1,-1,-1
175.62,1.93,-35.11,299,-4760,6786,-1,0,0
175.62,1.92,-35.12,286,-4745,6771,-1,0,0
175.62,1.92,-35.13,281,-4752,6795,-1,0,0
175.61,1.91,-35.14,257,-4768,6774,-1,0,-1
175.61,1.90,-35.15,256,-4769,6760,-1,-1,0
175.61,1.90,-35.16,253,-4781,6762,0,-1,-1
175.62,1.91,-35.16,284,-4786,6757,-1,-1,0
175.62,1.92,-35.15,274,-4773,6755,0,-1,-1
175.62,1.92,-35.15,279,-4779,6755,0,0,-1
175.62,1.92,-35.14,289,-4755,6784,-1,0,0
175.62,1.92,-35.16,283,-4782,6768,0,-1,-1
175.62,1.92,-35.17,282,-4777,6769,-1,0,0
175.62,1.91,-35.16,265,-4776,6755,0,0,-1
175.62,1.92,-35.17,280,-4761,6762,-1,-1,0
175.62,1.92,-35.16,276,-4756,6772,-1,-1,-1
175.61,1.92,-35.17,269,-4795,6778,0,0,0
175.62,1.92,-35.17,271,-4778,6779,0,-1,-1
175.62,1.92,-35.17,268,-4759,6768,0,0,0
175.62,1.93,-35.17,268,-4761,6770,-1,-1,-1
175.62,1.93,-35.17,280,-4766,6774,-1,0,-1
175.63,1.92,-35.17,264,-4773,6759,-1,0,-1
175.62,1.93,-35.18,274,-4787,6756,0,-1,-1
175.63,1.94,-35.17,278,-4777,6765,0,-1,-1
175.63,1.94,-35.17,292,-4771,6769,0,-1,-1
175.63,1.94,-35.15,289,-4761,6791,-1,-1,0
175.63,1.94,-35.15,293,-4761,6789,0,0,0
175.63,1.94,-35.14,275,-4750,6801,-1,0,0
175.62,1.93,-35.14,259,-4740,6802,0,0,-1
175.63,1.92,-35.14,249,-4744,6788,-1,-1,-1
175.63,1.93,-35.14,261,-4762,6778,-1,-1,-1
175.64,1.94,-35.16,277,-4781,6773,-1,-1,-1
175.64,1.95,-35.17,287,-4787,6751,-1,-1,-1
175.64,1.95,-35.17,301,-4793,6750,-1,-1,0
175.64,1.96,-35.17,291,-4788,6757,0,0,0
175.64,1.95,-35.17,287,-4789,6756,0,0,0
175.64,1.95,-35.17,271,-4781,6753,0,-1,0
175.64,1.95,-35.17,275,-4761,6758,-1,-1,0
175.64,1.96,-35.17,270,-4768,6768,-1,-1,0
175.63,1.96,-35.16,284,-4765,6767,0,-1,-1
175.63,1.96,-35.16,279,-4759,6770,-1,-1,0
175.63,1.97,-35.16,280,-4755,6773,0,-1,-1
175.64,1.98,-35.16,291,-4759,6788,-1,-1,-1
175.65,1.98,-35.16,288,-4765,6778,0,-1,-1
175.65,1.99,-35.16,301,-4774,6791,-1,-1,-1
175.65,2.00,-35.15,303,-4776,6777,0,0,-1
175.65,1.99,-35.15,296,-4772,6783,-1,0,0
175.64,1.98,-35.15,287,-4761,6767,0,0,0
175.64,1.98,-35.15,285,-4767,6781,-1,-1,0
175.64,1.98,-35.16,271,-4769,6764,-1,0,0
175.64,1.98,-35.16,288,-4766,6769,-1,-1,-1
175.64,1.98,-35.17,285,-4784,6770,-1,-1,0
175.65,1.98,-35.17,296,-4788,6764,-1,0,0
175.64,1.98,-35.17,291,-4789,6771,0,0,0
175.64,1.98,-35.16,284,-4774,6774,0,0,0
175.64,1.96,-35.16,272,-4770,6789,0,0,0
175.64,1.96,-35.15,269,-4768,6784,-1,0,-1
175.63,1.95,-35.15,270,-4758,6786,-1,0,0
175.64,1.95,-35.16,272,-4751,6760,-1,0,0
175.64,1.95,-35.17,264,-4766,6767,-1,-1,-1
175.64,1.95,-35.17,269,-4788,6765,0,0,-1
175.64,1.95,-35.17,270,-4792,6776,0,-1,-1
175.65,1.97,-35.16,289,-4776,6775,0,-1,0
175.65,1.97,-35.15,293,-4768,6771,0,0,-1
175.65,1.97,-35.14,293,-4756,6781,-1,-1,0
175.64,1.97,-35.14,295,-4760,6778,0,0,0
175.64,1.97,-35.13,292,-4758,6788,-1,0,0
175.64,1.96,-35.14,269,-4755,6761,-1,0,-1
175.64,1.96,-35.14,290,-4758,6771,-1,-1,0
175.64,1.96,-35.15,295,-4773,6771,0,0,0
175.64,1.96,-35.14,300,-4771,6779,-1,0,0
175.64,1.96,-35.14,279,-4773,6771,0,0,0
175.63,1.95,-35.13,289,-4758,6791,-1,0,0
175.63,1.94,-35.14,265,-4764,6765,0,0,-1
175.62,1.94,-35.13,277,-4742,6781,-1,-1,0
175.62,1.94,-35.14,268,-4750,6788,0,-1,-1
175.62,1.94,-35.15,277,-4769,6761,-1,-1,0
175.62,1.93,-35.15,266,-4773,6775,0,0,-1
175.62,1.93,-35.16,285,-4771,6762,-1,0,0
175.62,1.93,-35.16,279,-4773,6753,0,-1,-1
175.62,1.93,-35.16,283,-4786,6762,-1,0,0
175.62,1.93,-35.14,278,-4768,6768,0,0,-1
175.61,1.94,-35.14,270,-4762,6770,-1,-1,0
175.61,1.93,-35.14,277,-4761,6786,0,0,-1
175.61,1.93,-35.15,276,-4756,6770,-1,-1,0
175.61,1.92,-35.14,274,-4751,6789,0,0,0
175.61,1.93,-35.16,275,-4778,6778,-1,0,0
175.62,1.93,-35.17,285,-4763,6760,-1,0,-1
175.61,1.92,-35.17,272,-4776,6760,-1,-1,0
175.61,1.92,-35.17,265,-4770,6773,-1,-1,-1
175.61,1.92,-35.18,288,-4797,6771,-1,-1,0
175.61,1.92,-35.18,286,-4769,6766,0,0,0
175.61,1.92,-35.17,277,-4762,6778,-1,-1,0
175.60,1.91,-35.18,273,-4761,6752,-1,0,0
175.60,1.91,-35.17,290,-4771,6790,-1,0,-1
175.60,1.90,-35.18,260,-4774,6771,0,0,0
175.60,1.90,-35.18,290,-4774,6785,-1,0,0
175.59,1.89,-35.18,266,-4762,6767,-1,-1,0
175.59,1.89,-35.19,278,-4780,6770,0,0,0
175.59,1.88,-35.19,275,-4764,6777,-1,-1,0
175.59,1.88,-35.19,287,-4781,6777,0,0,0
175.58,1.88,-35.21,273,-4798,6764,-1,-1,0
175.57,1.87,-35.19,265,-4773,6787,-1,-1,0
175.57,1.87,-35.20,270,-4786,6742,0,0,-1
175.57,1.86,-35.18,274,-4742,6785,-1,0,0
175.56,1.87,-35.21,261,-4779,6758,0,-1,0
175.56,1.86,-35.20,266,-4777,6809,-2,0,0
175.56,1.86,-35.22,263,-4776,6745,0,0,0
175.55,1.86,-35.22,269,-4785,6772,-1,-1,0
175.55,1.85,-35.21,277,-4790,6755,0,0,-1
175.54,1.84,-35.22,244,-4768,6745,-2,0,0
175.54,1.83,-35.21,282,-4778,6823,0,-1,0
175.54,1.84,-35.23,265,-4798,6704,1,0,-1
175.54,1.83,-35.21,280,-4753,6819,-2,-1,0
175.53,1.83,-35.23,271,-4805,6748,1,0,0
175.53,1.81,-35.22,275,-4763,6786,-2,0,0
175.52,1.79,-35.21,242,-4798,6772,1,0,0
175.52,1.79,-35.21,262,-4760,6791,-1,0,0
175.51,1.78,-35.22,253,-4756,6747,-1,0,0
175.51,1.77,-35.21,220,-4766,6772,-1,-1,-1
175.51,1.78,-35.24,263,-4804,6708,-1,-1,-1
175.51,1.78,-35.22,256,-4784,6807,-1,-1,0
175.52,1.79,-35.20,265,-4787,6773,2,1,-1
175.52,1.79,-35.21,261,-4738,6734,-3,-1,0
175.51,1.78,-35.19,258,-4786,6806,1,0,-1
175.52,1.79,-35.20,249,-4789,6744,0,-1,-1
175.51,1.78,-35.18,258,-4749,6799,-1,-1,0
175.52,1.80,-35.19,244,-4748,6753,-1,-1,-1
175.52,1.80,-35.20,257,-4791,6760,0,0,0
175.52,1.79,-35.21,247,-4804,6755,-1,-1,-1
175.52,1.79,-35.20,279,-4785,6759,1,0,0
175.52,1.79,-35.18,231,-4767,6773,0,-1,-1
175.52,1.80,-35.17,284,-4754,6787,0,-1,0
175.51,1.80,-35.17,257,-4761,6763,0,-1,0
175.51,1.80,-35.16,285,-4776,6772,0,0,0
175.51,1.79,-35.14,251,-4749,6804,-1,0,0
175.50,1.78,-35.15,257,-4776,6796,0,0,0
175.50,1.78,-35.14,263,-4728,6807,-2,0,0
175.50,1.76,-35.16,228,-4767,6729,0,0,0
175.50,1.76,-35.16,243,-4768,6749,-1,-1,0
175.50,1.76,-35.16,220,-4810,6785,0,0,-1
175.51,1.78,-35.16,264,-4767,6756,-1,-1,0
175.51,1.77,-35.14,224,-4776,6776,1,-1,-1
175.51,1.79,-35.14,275,-4740,6774,-1,0,0
175.51,1.78,-35.13,225,-4758,6796,0,-1,-1
175.51,1.80,-35.14,259,-4777,6773,-1,-1,0
175.51,1.80,-35.14,253,-4784,6765,0,-1,-1
175.52,1.80,-35.12,268,-4756,6765,-1,0,-1
175.53,1.81,-35.11,263,-4733,6751,0,-1,-1
175.53,1.82,-35.12,269,-4742,6773,-2,-1,0
175.54,1.83,-35.13,264,-4790,6769,0,-1,-1
175.53,1.83,-35.14,296,-4790,6750,-1,0,0
175.53,1.82,-35.12,265,-4785,6780,0,0,0
175.52,1.81,-35.12,269,-4773,6786,-1,0,0
175.52,1.81,-35.11,245,-4756,6782,0,0,-1
175.51,1.81,-35.10,231,-4730,6794,-1,-1,-1
175.52,1.81,-35.12,263,-4744,6786,-1,-1,-1
175.52,1.82,-35.12,261,-4750,6779,-1,0,-1
175.53,1.82,-35.14,260,-4763,6760,-1,-1,-1
175.53,1.82,-35.14,264,-4779,6777,-1,0,0
175.53,1.81,-35.15,252,-4765,6764,-1,-1,-1
175.54,1.81,-35.15,259,-4767,6746,-1,0,0
175.54,1.82,-35.16,246,-4774,6736,-1,-1,-1
175.54,1.84,-35.16,260,-4791,6736,0,-1,-1
175.55,1.85,-35.15,245,-4798,6751,0,-1,-1
175.54,1.86,-35.13,266,-4797,6758,0,-1,-1
175.55,1.86,-35.10,272,-4778,6781,0,-1,-1
175.55,1.86,-35.08,269,-4762,6797,0,-1,-1
175.55,1.86,-35.07,261,-4744,6830,-1,-1,0
175.54,1.87,-35.07,265,-4731,6820,0,-1,0
175.54,1.87,-35.06,261,-4716,6811,-1,-1,0
175.54,1.87,-35.07,269,-4729,6802,-1,-1,-1
175.55,1.87,-35.07,268,-4740,6800,-1,0,-1
175.56,1.86,-35.09,265,-4761,6788,-1,0,-1
175.56,1.87,-35.10,265,-4762,6781,-1,0,-1
175.56,1.87,-35.10,264,-4770,6773,-1,0,-1
175.57,1.87,-35.10,276,-4766,6777,-1,0,0
175.57,1.87,-35.11,270,-4762,6767,-1,0,-1
175.57,1.87,-35.12,265,-4771,6774,-1,-1,0
175.57,1.87,-35.12,258,-4777,6773,0,0,-1
175.57,1.86,-35.12,245,-4765,6770,-1,0,0
175.57,1.86,-35.12,233,-4763,6757,-1,-1,-1
175.57,1.86,-35.13,242,-4770,6775,-1,-1,-1
175.58,1.87,-35.13,260,-4775,6768,0,-1,-1
175.58,1.88,-35.13,272,-4776,6766,-1,-1,-1
175.59,1.89,-35.13,277,-4770,6767,0,-1,-1
175.59,1.90,-35.13,283,-4771,6771,0,-1,-1
175.59,1.90,-35.13,279,-4772,6775,0,0,-1
175.59,1.90,-35.13,270,-4771,6775,0,-1,-1
175.60,1.91,-35.13,281,-4767,6786,-1,-1,0
175.60,1.91,-35.12,278,-4758,6784,0,-1,-1
175.60,1.92,-35.13,281,-4755,6773,-1,-1,0
175.61,1.92,-35.13,287,-4759,6776,-1,0,-1
175.61,1.93,-35.13,294,-4769,6785,-1,0,0
175.61,1.92,-35.14,288,-4767,6763,0,0,0
175.61,1.92,-35.14,284,-4764,6777,-1,0,0
175.61,1.92,-35.14,280,-4765,6783,-1,0,-1
175.60,1.91,-35.14,275,-4766,6771,-1,-1,0
175.60,1.91,-35.14,265,-4762,6770,-1,0,0
175.60,1.91,-35.14,270,-4758,6757,0,0,0
175.59,1.90,-35.14,267,-4751,6776,-1,-1,0
175.60,1.91,-35.14,273,-4759,6776,0,-1,0
175.59,1.90,-35.14,270,-4780,6786,-1,0,0
175.59,1.90,-35.14,267,-4762,6780,0,0,-1
175.59,1.90,-35.14,258,-4769,6781,-1,-1,0
175.59,1.91,-35.14,263,-4773,6766,0,-1,-1
175.59,1.91,-35.14,287,-4775,6777,0,0,0
175.59,1.91,-35.13,281,-4764,6774,0,0,-1
175.59,1.91,-35.13,285,-4765,6784,0,-1,0
175.60,1.92,-35.12,280,-4747,6781,0,0,-1
175.60,1.92,-35.12,278,-4754,6790,-1,0,-1
175.60,1.92,-35.12,276,-4750,6786,-1,0,0
175.60,1.91,-35.14,268,-4764,6774,-1,0,0
175.60,1.91,-35.14,275,-4770,6769,-1,0,0
175.60,1.91,-35.14,277,-4787,6758,0,-1,-1
175.60,1.91,-35.14,274,-4784,6773,0,-1,0
175.60,1.91,-35.13,287,-4769,6770,0,0,0
175.60,1.91,-35.13,277,-4765,6778,-1,0,0
175.60,1.91,-35.13,271,-4758,6778,-1,0,-1
175.60,1.90,-35.13,275,-4765,6778,-1,0,0
175.60,1.90,-35.13,277,-4759,6768,-1,0,0
175.60,1.89,-35.13,281,-4768,6758,-1,0,0
175.60,1.89,-35.13,276,-4760,6756,0,0,0
175.60,1.89,-35.13,250,-4788,6770,0,-1,0
175.60,1.89,-35.12,256,-4775,6783,0,-1,-1
175.60,1.89,-35.12,248,-4770,6781,0,-1,-1
175.60,1.90,-35.11,266,-4752,6789,-1,-1,-1
175.60,1.90,-35.11,278,-4753,6776,0,-1,-1
175.60,1.90,-35.10,285,-4749,6788,-1,0,0
175.60,1.90,-35.11,268,-4774,6784,0,0,-1
175.60,1.90,-35.10,280,-4762,6787,-1,0,0
175.60,1.89,-35.11,260,-4777,6774,0,-1,-1
175.60,1.89,-35.10,267,-4759,6779,-1,0,0
175.60,1.89,-35.11,254,-4768,6768,0,-1,-1
175.60,1.89,-35.10,280,-4765,6781,-1,0,0
175.60,1.89,-35.10,264,-4766,6781,0,-1,-1
175.60,1.90,-35.10,279,-4752,6776,-1,-1,0
175.60,1.89,-35.10,264,-4761,6769,0,-1,-1
175.60,1.90,-35.09,285,-4754,6776,-1,0,0
175.60,1.88,-35.09,265,-4736,6779,0,0,-1
175.59,1.88,-35.09,268,-4743,6785,-1,0,0
175.59,1.88,-35.09,270,-4754,6774,0,0,-1
175.59,1.87,-35.10,272,-4766,6764,-1,0,0
175.59,1.87,-35.10,241,-4760,6768,0,-1,-1
175.58,1.88,-35.10,237,-4774,6792,-1,-2,0
175.56,1.92,-35.09,297,-4722,6818,-1,-2,0
175.58,1.92,-35.14,299,-4819,6712,-1,1,-1
175.59,1.90,-35.11,253,-4820,6736,1,0,-1
175.59,1.90,-35.08,282,-4760,6765,0,0,0
175.58,1.89,-35.05,268,-4717,6826,0,-1,0
175.58,1.90,-35.06,293,-4709,6812,-1,-1,0
175.58,1.90,-35.08,285,-4741,6779,-1,0,0
175.57,1.88,-35.10,262,-4791,6764,0,0,0
175.58,1.87,-35.08,242,-4791,6766,0,-1,-1
175.57,1.89,-35.06,248,-4765,6779,1,-2,0
175.59,1.91,-35.05,291,-4748,6874,-2,0,-1
175.60,1.91,-35.10,267,-4807,6724,0,1,-1
175.61,1.90,-35.07,270,-4752,6778,0,-1,0
175.60,1.91,-35.07,287,-4725,6786,0,-1,0
175.61,1.92,-35.07,318,-4724,6808,-1,0,0
175.61,1.91,-35.09,289,-4747,6801,-1,0,0
175.60,1.90,-35.11,276,-4771,6789,-1,0,0
175.60,1.89,-35.13,261,-4814,6767,0,0,-1
175.61,1.88,-35.12,268,-4767,6756,0,0,-1
175.60,1.88,-35.12,273,-4753,6761,-1,-1,0
175.60,1.89,-35.12,287,-4764,6765,-1,-1,0
175.59,1.89,-35.13,273,-4770,6765,0,-1,0
175.59,1.89,-35.12,257,-4789,6786,0,-1,0
175.59,1.89,-35.11,251,-4797,6772,0,-1,-1
175.59,1.90,-35.10,276,-4769,6774,0,0,0
175.59,1.91,-35.08,270,-4743,6790,0,-1,-1
175.59,1.91,-35.08,279,-4723,6794,-1,-1,0
175.59,1.91,-35.09,284,-4764,6773,-1,0,0
175.59,1.91,-35.09,288,-4778,6780,0,0,0
175.59,1.90,-35.08,272,-4761,6790,-1,0,0
175.58,1.89,-35.09,268,-4758,6773,0,-1,0
175.58,1.89,-35.10,291,-4757,6769,-1,0,0
175.58,1.89,-35.10,263,-4767,6763,0,0,-1
175.58,1.89,-35.10,254,-4759,6786,-1,-1,0
175.57,1.90,-35.11,275,-4783,6771,0,-1,-1
175.57,1.90,-35.11,283,-4794,6784,-1,-1,0
175.57,1.90,-35.09,279,-4758,6777,0,0,-1
175.57,1.89,-35.09,275,-4734,6775,-1,-1,0
175.57,1.90,-35.09,263,-4744,6776,-1,-1,-1
175.57,1.90,-35.10,283,-4770,6788,-1,0,0
175.57,1.90,-35.10,292,-4762,6792,0,0,0
175.56,1.89,-35.10,261,-4760,6773,-1,-1,0
175.56,1.88,-35.10,255,-4757,6776,-1,0,0
175.56,1.89,-35.11,260,-4759,6767,0,-1,-1
175.57,1.90,-35.10,266,-4761,6778,-1,-1,0
175.57,1.90,-35.10,265,-4749,6775,0,-1,-1
175.57,1.90,-35.10,276,-4749,6781,-1,-1,0
175.57,1.90,-35.11,278,-4752,6773,-1,-1,-1
175.57,1.90,-35.11,281,-4762,6797,-1,-1,0
175.57,1.90,-35.11,273,-4757,6781,0,0,-1
175.57,1.90,-35.10,266,-4757,6786,-1,-1,-1
175.57,1.90,-35.10,265,-4747,6781,-1,0,-1
175.58,1.91,-35.10,270,-4758,6788,0,-1,-1
175.58,1.91,-35.10,279,-4754,6790,-1,0,-1
175.58,1.91,-35.11,284,-4760,6775,0,0,0
175.58,1.91,-35.11,277,-4761,6771,-1,0,0
175.58,1.91,-35.11,267,-4759,6769,-1,-1,-1
175.58,1.90,-35.11,268,-4767,6779,-1,-1,0
175.58,1.91,-35.11,269,-4765,6762,0,-1,-1
175.58,1.91,-35.11,273,-4774,6777,-1,-1,0
175.58,1.92,-35.11,275,-4768,6780,0,-1,-1
175.58,1.92,-35.10,271,-4758,6784,-1,0,0
175.59,1.92,-35.10,268,-4747,6782,0,0,-1
175.59,1.92,-35.10,272,-4748,6784,-1,-1,0
175.59,1.92,-35.10,262,-4757,6779,0,-1,-1
175.59,1.92,-35.10,269,-4763,6795,-1,-1,-1
175.59,1.92,-35.10,274,-4763,6780,0,0,-1
175.59,1.92,-35.10,279,-4756,6777,-1,0,-1
175.59,1.92,-35.10,274,-4760,6782,-1,0,-1
175.59,1.92,-35.10,275,-4762,6777,-1,0,-1
175.59,1.92,-35.10,282,-4766,6782,0,0,-1
175.59,1.92,-35.10,275,-4772,6781,0,0,-1
175.59,1.91,-35.10,283,-4768,6773,-1,0,0
175.59,1.91,-35.10,277,-4760,6767,0,0,-1
175.59,1.91,-35.10,274,-4761,6771,-1,0,0
175.59,1.91,-35.10,275,-4763,6770,0,0,-1
175.60,1.91,-35.10,273,-4757,6772,-1,0,0
175.60,1.90,-35.10,270,-4758,6776,-1,-1,0
175.60,1.90,-35.10,258,-4763,6778,-1,-1,-1
175.60,1.90,-35.10,264,-4766,6772,0,-1,-1
175.60,1.91,-35.10,268,-4779,6775,0,0,-1
175.60,1.91,-35.10,271,-4757,6765,0,-1,-1
175.60,1.90,-35.10,271,-4762,6768,-1,0,0
175.60,1.90,-35.10,278,-4767,6772,0,-1,-1
175.60,1.90,-35.10,271,-4770,6782,-1,0,0
175.61,1.91,-35.09,256,-4770,6788,0,-1,-1
175.60,1.91,-35.09,274,-4774,6775,-1,-1,-1
175.61,1.92,-35.09,279,-4767,6762,0,-1,-1
175.61,1.92,-35.09,275,-4765,6770,0,0,-1
175.61,1.92,-35.08,278,-4755,6792,0,-1,-1
175.61,1.92,-35.08,284,-4762,6792,-1,0,0
175.61,1.92,-35.08,281,-4760,6786,0,0,-1
175.61,1.92,-35.08,273,-4749,6782,-1,0,0
175.61,1.92,-35.08,273,-4752,6783,0,-1,-1
175.61,1.92,-35.08,289,-4758,6790,-1,0,0
175.61,1.91,-35.08,277,-4754,6792,0,0,-1
175.60,1.90,-35.08,268,-4764,6780,-1,0,0
175.61,1.91,-35.08,276,-4769,6772,0,0,-1
175.61,1.90,-35.08,274,-4764,6791,-1,0,0
175.61,1.90,-35.08,270,-4749,6783,0,-1,-1
175.61,1.91,-35.08,276,-4770,6790,-1,-1,0
175.61,1.91,-35.08,281,-4774,6793,0,-1,-1
175.61,1.91,-35.07,271,-4759,6787,0,0,0
175.61,1.91,-35.06,269,-4737,6780,0,-1,-1
175.61,1.91,-35.07,264,-4751,6782,-1,-1,0
175.61,1.91,-35.06,269,-4749,6784,0,-1,-1
175.61,1.91,-35.06,268,-4760,6779,0,-1,-1
175.61,1.91,-35.05,282,-4751,6776,0,-1,0
175.61,1.92,-35.05,289,-4758,6782,0,0,-1
175.61,1.91,-35.05,289,-4750,6788,0,0,0
175.61,1.91,-35.05,268,-4743,6776,-1,0,-1
175.61,1.91,-35.05,268,-4743,6785,-1,0,0
175.61,1.91,-35.05,263,-4758,6775,-1,0,-1
175.61,1.91,-35.05,274,-4747,6771,-1,0,0
175.61,1.90,-35.05,265,-4757,6784,0,0,0
175.61,1.90,-35.05,275,-4750,6786,-1,0,0
175.61,1.90,-35.05,269,-4760,6784,0,-1,-1
175.61,1.91,-35.05,274,-4743,6782,-1,-1,-1
175.61,1.91,-35.05,276,-4751,6782,-1,-1,-1
175.61,1.91,-35.05,270,-4742,6780,-1,-1,0
175.61,1.91,-35.05,283,-4755,6782,-1,0,0
175.61,1.91,-35.06,282,-4771,6769,-1,0,-1
175.62,1.91,-35.06,271,-4760,6774,-1,0,0
175.61,1.90,-35.05,273,-4741,6771,-1,0,0
175.61,1.90,-35.06,264,-4754,6779,-1,-1,0
175.60,1.90,-35.06,311,-4757,6794,0,-1,0
175.62,1.88,-35.11,248,-4938,6655,0,2,-1
175.60,1.84,-34.94,146,-4675,6991,3,-3,-1
175.60,1.96,-35.00,324,-4511,6879,-7,-5,0
175.63,2.00,-35.12,304,-4723,6770,-3,-1,-1
175.66,2.01,-35.19,320,-4832,6634,-1,0,-1
175.67,1.99,-35.19,316,-4910,6668,1,1,-1
175.68,1.97,-35.15,298,-4885,6749,2,0,-1
175.68,1.95,-35.08,286,-4765,6801,1,0,0
175.66,1.94,-35.03,246,-4663,6823,-1,-1,0
175.65,1.95,-35.05,255,-4680,6817,-2,-2,0
175.64,1.97,-35.08,264,-4743,6786,-1,-1,0
175.64,1.97,-35.09,271,-4788,6787,-1,-1,-1
175.65,1.98,-35.10,301,-4796,6771,0,0,-1
175.65,1.96,-35.10,315,-4770,6761,0,0,0
175.64,1.95,-35.09,298,-4748,6776,0,0,0
175.62,1.93,-35.09,263,-4750,6802,-1,-1,0
175.62,1.93,-35.11,284,-4761,6790,-1,0,0
175.61,1.92,-35.11,252,-4766,6763,0,-1,-1
175.60,1.92,-35.11,251,-4768,6769,-1,-1,0
175.62,1.94,-35.11,280,-4770,6755,0,0,-1
175.61,1.93,-35.09,284,-4762,6771,0,-1,0
175.60,1.93,-35.09,296,-4753,6785,-1,0,0
175.60,1.93,-35.09,278,-4747,6777,0,0,0
175.59,1.91,-35.09,275,-4741,6788,-1,0,0
175.59,1.91,-35.11,285,-4765,6774,0,0,0
175.58,1.89,-35.11,253,-4768,6782,-1,-1,0
175.59,1.90,-35.11,284,-4762,6765,0,0,-1
175.58,1.90,-35.11,255,-4777,6756,0,-1,0
175.58,1.91,-35.11,287,-4752,6762,0,0,0
175.58,1.90,-35.11,276,-4760,6767,0,0,0
175.58,1.89,-35.09,265,-4751,6785,-1,0,0
175.58,1.89,-35.10,269,-4763,6780,-1,0,-1
175.58,1.89,-35.11,278,-4757,6794,-1,0,0
175.57,1.88,-35.11,275,-4760,6789,-1,0,0
175.57,1.88,-35.12,257,-4760,6771,-1,-1,0
175.57,1.88,-35.13,260,-4755,6750,-1,-1,0
175.57,1.88,-35.13,266,-4792,6771,0,-1,-1
175.58,1.89,-35.13,280,-4784,6758,0,-1,-1
175.58,1.89,-35.11,255,-4745,6792,-1,-1,0
175.58,1.90,-35.11,288,-4755,6766,0,-1,0
175.58,1.91,-35.11,285,-4763,6783,0,0,0
175.57,1.90,-35.11,268,-4748,6786,-1,0,0
175.57,1.89,-35.11,273,-4767,6788,-1,0,0
175.57,1.89,-35.11,281,-4771,6777,-1,0,-1
175.57,1.88,-35.12,258,-4766,6789,-1,0,0
175.57,1.88,-35.13,263,-4769,6777,-1,0,0
175.57,1.88,-35.13,268,-4774,6763,-1,-1,-1
175.57,1.88,-35.13,261,-4784,6780,0,-1,0
175.57,1.88,-35.13,273,-4773,6754,0,0,-1
175.57,1.88,-35.13,274,-4771,6774,0,-1,0
175.57,1.89,-35.12,294,-4762,6795,-1,0,0
175.57,1.88,-35.13,287,-4776,6779,-1,0,0
175.57,1.88,-35.13,265,-4771,6786,-1,0,0
175.56,1.87,-35.13,244,-4765,6761,0,0,-1
175.57,1.87,-35.12,258,-4748,6770,-1,0,-1
175.57,1.87,-35.12,241,-4750,6778,-1,-1,-1
175.57,1.88,-35.12,280,-4769,6785,-1,-1,0
175.57,1.88,-35.12,260,-4788,6775,0,-1,-1
175.57,1.89,-35.11,270,-4759,6770,0,-1,-1
175.58,1.89,-35.11,277,-4750,6767,0,0,-1
175.58,1.89,-35.10,281,-4749,6781,-1,0,0
175.58,1.89,-35.10,272,-4764,6787,0,-1,-1
175.58,1.90,-35.10,278,-4760,6770,-1,0,0
175.58,1.90,-35.10,266,-4761,6768,0,-1,-1
175.58,1.90,-35.11,285,-4773,6752,-1,0,0
175.59,1.90,-35.11,285,-4771,6770,0,0,-1
175.59,1.89,-35.11,276,-4756,6780,-1,0,0
175.58,1.88,-35.11,252,-4765,6775,0,-1,-1
175.58,1.88,-35.11,264,-4766,6768,-1,-1,0
175.59,1.88,-35.11,270,-4761,6770,0,0,-1
175.59,1.88,-35.11,276,-4764,6772,0,-1,0
175.58,1.89,-35.10,281,-4763,6780,0,-1,0
175.58,1.88,-35.10,266,-4765,6778,0,0,0
175.58,1.88,-35.09,268,-4748,6782,0,0,0
175.58,1.88,-35.10,262,-4756,6778,-1,0,0
175.58,1.88,-35.10,267,-4755,6782,-1,0,0
175.58,1.87,-35.10,252,-4776,6771,0,0,-1
175.58,1.87,-35.10,269,-4780,6786,-1,-1,0
175.58,1.87,-35.09,254,-4765,6775,0,0,-1
175.58,1.87,-35.09,259,-4757,6771,-1,-1,0
175.58,1.87,-35.08,259,-4767,6768,0,-1,-1
175.58,1.88,-35.07,280,-4754,6781,-1,-1,0
175.58,1.88,-35.07,269,-4762,6778,0,-1,-1
175.58,1.88,-35.07,287,-4748,6781,-1,0,0
175.58,1.88,-35.07,265,-4754,6774,0,0,-1
175.58,1.88,-35.07,281,-4742,6790,-1,0,0
175.58,1.88,-35.07,259,-4760,6794,-1,0,-1
175.58,1.88,-35.08,270,-4770,6769,-1,0,0
175.58,1.87,-35.08,264,-4774,6761,0,-1,-1
175.58,1.88,-35.09,263,-4770,6761,0,-1,0
175.58,1.88,-35.07,263,-4755,6779,0,-1,-1
175.58,1.88,-35.07,271,-4743,6776,0,0,0
175.58,1.88,-35.07,270,-4755,6790,-1,-1,-1
175.58,1.88,-35.08,274,-4752,6778,-1,0,-1
175.58,1.88,-35.08,280,-4754,6780,0,-1,-1
175.59,1.89,-35.09,274,-4754,6771,-1,-1,0
175.59,1.89,-35.09,268,-4773,6782,0,-1,-1
175.58,1.88,-35.09,260,-4775,6794,-1,0,0
175.58,1.87,-35.09,256,-4773,6793,0,-1,-1
175.58,1.88,-35.09,266,-4765,6781,-1,-1,0
175.59,1.89,-35.09,270,-4754,6762,0,-1,-1
175.59,1.89,-35.10,271,-4760,6778,-1,0,0
175.59,1.89,-35.10,300,-4764,6782,-1,0,0
175.58,1.88,-35.10,234,-4721,6783,0,-1,0
175.57,1.90,-35.10,259,-4756,6777,-2,-2,-1
175.60,1.93,-35.13,302,-4849,6726,1,0,-1
175.60,1.93,-35.09,268,-4772,6757,1,-1,-1
175.59,1.94,-35.06,294,-4722,6758,0,-1,0
175.59,1.95,-35.05,299,-4724,6790,0,-1,0
175.59,1.95,-35.05,294,-4745,6802,-1,-1,-1
175.59,1.94,-35.07,284,-4760,6807,-1,0,0
175.60,1.94,-35.08,274,-4765,6775,-1,0,-1
175.60,1.94,-35.09,276,-4752,6769,-1,0,0
175.60,1.94,-35.09,268,-4755,6758,0,0,-1
175.60,1.94,-35.09,271,-4763,6763,-1,-1,0
175.60,1.94,-35.09,255,-4763,6761,0,-1,-1
175.60,1.95,-35.10,281,-4789,6771,-1,-1,0
175.60,1.96,-35.10,291,-4798,6775,0,0,-1
175.61,1.97,-35.08,306,-4766,6775,0,0,-1
175.60,1.96,-35.07,283,-4734,6776,-1,0,-1
175.60,1.96,-35.07,287,-4730,6777,-1,-1,0
175.61,1.97,-35.08,283,-4743,6778,-1,0,0
175.60,1.96,-35.09,286,-4766,6782,-1,-1,0
175.61,1.97,-35.10,280,-4774,6771,-1,-1,-1
175.61,1.97,-35.10,283,-4769,6765,0,0,-1
175.61,1.96,-35.09,275,-4767,6774,0,0,-1
175.62,1.96,-35.09,280,-4760,6780,0,0,-1
175.62,1.96,-35.09,283,-4754,6781,-1,0,0
175.62,1.97,-35.09,280,-4758,6785,-1,-1,-1
175.62,1.97,-35.10,283,-4765,6785,-1,0,0
175.62,1.97,-35.10,294,-4767,6780,-1,0,0
175.62,1.96,-35.09,287,-4765,6785,-1,0,-1
175.62,1.96,-35.09,288,-4752,6780,-1,0,0
175.62,1.96,-35.09,288,-4761,6782,-1,0,0
175.62,1.95,-35.09,283,-4755,6784,-1,0,0
175.62,1.94,-35.09,269,-4762,6779,-1,0,0
175.62,1.94,-35.09,266,-4759,6776,-1,0,-1
175.62,1.94,-35.09,268,-4764,6783,0,-1,-1
175.62,1.94,-35.09,280,-4754,6774,-1,-1,0
175.62,1.94,-35.09,274,-4771,6786,0,0,-1
175.62,1.94,-35.09,285,-4762,6801,-1,0,0
175.63,1.93,-35.09,274,-4758,6789,0,0,-1
175.63,1.93,-35.08,274,-4756,6775,-1,0,0
175.63,1.94,-35.09,282,-4763,6772,0,-1,-1
175.63,1.94,-35.08,288,-4761,6785,-1,0,0
175.63,1.94,-35.09,279,-4770,6783,0,0,0
175.62,1.93,-35.08,280,-4754,6779,-1,0,0
175.62,1.93,-35.08,262,-4758,6781,0,-1,0
175.62,1.93,-35.08,273,-4748,6789,-1,0,0
175.62,1.93,-35.08,264,-4754,6792,0,0,0
175.62,1.93,-35.07,275,-4759,6789,-1,0,0
175.62,1.93,-35.08,272,-4766,6779,0,-1,-1
175.62,1.93,-35.08,279,-4761,6781,-1,0,0
175.62,1.93,-35.07,277,-4763,6776,0,0,-1
175.62,1.93,-35.07,274,-4752,6774,-1,0,0
175.61,1.92,-35.07,266,-4761,6779,0,-1,-1
175.61,1.92,-35.07,280,-4759,6777,-1,0,0
175.61,1.92,-35.07,268,-4770,6773,0,-1,-1
175.61,1.92,-35.07,267,-4761,6774,-1,0,0
175.61,1.92,-35.07,267,-4768,6785,0,-1,-1
175.62,1.92,-35.06,279,-4745,6784,-1,0,0
175.62,1.92,-35.06,260,-4745,6785,-1,-1,-1
175.61,1.91,-35.07,273,-4755,6772,-1,0,0
175.61,1.91,-35.07,271,-4781,6783,0,-1,-1
175.62,1.92,-35.06,274,-4762,6786,0,0,0
175.62,1.92,-35.05,273,-4753,6785,0,-1,-1
175.62,1.92,-35.05,271,-4751,6786,-1,-1,-1
175.62,1.92,-35.05,284,-4762,6785,0,-1,-1
175.62,1.92,-35.05,285,-4761,6791,-1,0,0
175.62,1.92,-35.05,285,-4760,6792,0,-1,-1
175.63,1.92,-35.05,284,-4753,6784,-1,0,0
175.63,1.93,-35.05,287,-4759,6783,0,-1,0
175.63,1.93,-35.05,277,-4756,6791,0,0,0
175.63,1.93,-35.05,274,-4752,6793,-1,0,0
175.62,1.92,-35.05,272,-4750,6787,-1,0,0
175.62,1.92,-35.05,277,-4756,6779,-1,-1,0
175.62,1.92,-35.05,269,-4762,6772,-1,0,0
175.63,1.92,-35.06,272,-4761,6770,-1,-1,-1
175.63,1.92,-35.06,274,-4764,6774,-1,-1,-1
175.63,1.93,-35.06,279,-4757,6767,0,-1,-1
175.63,1.93,-35.06,283,-4760,6779,-1,0,0
175.63,1.93,-35.06,289,-4750,6775,-1,-1,0
175.63,1.93,-35.07,287,-4755,6794,-1,0,0
175.63,1.93,-35.07,295,-4753,6779,-1,-1,0
175.63,1.92,-35.08,287,-4774,6794,-1,0,0
175.63,1.92,-35.08,275,-4767,6780,0,0,0
175.62,1.91,-35.08,271,-4757,6784,-1,0,0
