Yaw,Pitch,Roll,AX,AY,AZ,GX,GY,GZ
-13.12,6.24,-0.84,893,-113,8145,-1,0,0
-13.12,6.24,-0.84,894,-116,8137,-1,0,0
-13.12,6.23,-0.84,894,-115,8148,-1,0,-1
-13.12,6.22,-0.84,893,-126,8147,0,0,0
-13.12,6.21,-0.84,891,-119,8140,0,0,0
-13.12,6.21,-0.84,895,-120,8140,0,0,0
-13.12,6.21,-0.84,890,-122,8138,0,0,0
-13.12,6.20,-0.84,883,-119,8150,-1,0,0
-13.13,6.19,-0.85,881,-115,8143,-1,0,0
-13.12,6.19,-0.85,877,-119,8145,-1,0,0
-13.12,6.18,-0.85,879,-128,8141,0,0,0
-13.12,6.17,-0.84,875,-122,8138,0,0,-1
-13.12,6.17,-0.84,878,-118,8145,0,0,-1
-13.12,6.16,-0.84,885,-115,8137,-1,0,0
-13.12,6.15,-0.84,872,-110,8152,-1,0,0
-13.12,6.14,-0.84,876,-114,8149,-1,0,0
-13.12,6.13,-0.83,878,-119,8154,0,0,-1
-13.12,6.12,-0.84,869,-125,8154,-1,0,0
-13.12,6.12,-0.84,882,-129,8152,0,0,-1
-13.12,6.12,-0.83,887,-131,8141,0,0,0
-13.12,6.11,-0.83,887,-129,8136,0,0,-1
-13.12,6.10,-0.82,884,-119,8135,0,0,-1
-13.12,6.10,-0.82,873,-105,8148,-1,0,0
-13.12,6.09,-0.83,860,-110,8144,-1,-1,0
-13.12,6.10,-0.82,872,-116,8146,0,-1,-1
-13.12,6.10,-0.82,877,-121,8160,0,0,-1
-13.11,6.10,-0.82,867,-114,8165,0,0,-1
-13.11,6.10,-0.82,870,-120,8148,0,-1,-1
-13.11,6.10,-0.82,868,-127,8147,0,-1,-1
-13.11,6.10,-0.81,877,-132,8147,0,-1,-1
-13.10,6.11,-0.81,882,-121,8148,0,-1,-1
-13.11,6.11,-0.80,862,-106,8152,0,-1,-1
-13.11,6.11,-0.80,866,-95,8151,-1,-1,-1
-13.11,6.12,-0.80,866,-112,8152,-1,-1,0
-13.10,6.13,-0.81,870,-127,8145,-1,-1,0
-13.10,6.14,-0.81,875,-135,8143,0,-1,-1
-13.10,6.14,-0.81,879,-138,8137,0,-1,0
-13.10,6.15,-0.81,877,-133,8138,0,-1,0
-13.11,6.16,-0.81,883,-116,8147,0,-1,0
-13.11,6.16,-0.81,889,-107,8142,-1,-1,-1
-13.11,6.17,-0.81,885,-105,8141,-1,-1,0
-13.11,6.18,-0.81,879,-121,8144,0,-1,0
-13.11,6.18,-0.81,878,-124,8135,0,-1,0
-13.11,6.19,-0.81,889,-128,8139,0,-1,-1
-13.11,6.20,-0.80,892,-109,8142,0,-1,-1
-13.11,6.20,-0.79,882,-94,8146,0,-1,0
-13.11,6.21,-0.79,883,-105,8154,-1,-1,0
-13.11,6.21,-0.80,889,-109,8149,-1,-1,0
-13.11,6.22,-0.80,888,-118,8144,-1,-1,0
-13.11,6.23,-0.80,894,-122,8147,0,-1,0
-13.11,6.23,-0.80,897,-125,8150,0,-1,-1
-13.11,6.23,-0.80,890,-118,8151,-1,-1,0
-13.11,6.24,-0.80,885,-120,8147,-1,-1,0
-13.11,6.24,-0.81,894,-117,8142,-1,-1,-1
-13.11,6.25,-0.81,894,-119,8151,-1,-1,-1
-13.11,6.25,-0.81,893,-121,8150,-1,-1,-1
-13.11,6.26,-0.81,895,-116,8138,0,-1,-1
-13.11,6.26,-0.81,897,-113,8131,0,-1,0
-13.10,6.27,-0.81,899,-113,8133,0,-1,-1
-13.11,6.27,-0.81,897,-108,8127,0,-1,0
-13.11,6.28,-0.80,898,-108,8129,0,-1,0
-13.11,6.28,-0.80,895,-101,8141,-1,-1,0
-13.11,6.29,-0.80,899,-105,8136,-1,-1,0
-13.11,6.29,-0.80,896,-113,8130,0,-1,0
-13.11,6.30,-0.80,898,-115,8139,0,-1,0
-13.11,6.30,-0.80,899,-108,8134,0,-1,-1
-13.11,6.30,-0.80,903,-103,8144,0,-1,0
-13.11,6.31,-0.80,897,-102,8147,-1,-1,-1
-13.11,6.31,-0.80,890,-104,8153,-1,-1,0
-13.11,6.32,-0.80,886,-114,8149,-1,-1,0
-13.11,6.32,-0.81,902,-124,8147,0,-1,0
-13.12,6.33,-0.81,908,-129,8143,0,-1,0
-13.12,6.34,-0.80,907,-123,8137,0,-1,0
-13.12,6.35,-0.79,911,-115,8131,0,-1,-1
-13.12,6.35,-0.79,911,-110,8143,-1,-1,0
-13.12,6.35,-0.80,903,-111,8144,-1,-1,0
-13.12,6.36,-0.80,902,-118,8132,-1,-1,0
-13.12,6.36,-0.80,899,-124,8143,0,-1,0
-13.12,6.37,-0.80,901,-122,8148,0,-1,0
-13.12,6.38,-0.80,905,-126,8147,0,-1,0
-13.12,6.38,-0.80,909,-124,8147,0,-1,0
-13.12,6.38,-0.80,908,-117,8143,-1,-1,0
-13.13,6.39,-0.80,912,-116,8140,0,-1,0
-13.13,6.40,-0.80,913,-114,8148,0,-1,-1
-13.13,6.40,-0.79,916,-103,8142,-1,-1,0
-13.13,6.40,-0.80,918,-111,8140,-1,-1,0
-13.12,6.41,-0.81,915,-117,8137,-1,-1,0
-13.12,6.42,-0.81,915,-124,8138,0,-1,0
-13.12,6.42,-0.81,920,-117,8147,0,-1,-1
-13.13,6.42,-0.80,915,-109,8151,0,-1,-1
-13.13,6.43,-0.80,912,-103,8155,-1,-1,0
-13.13,6.43,-0.80,914,-106,8153,-1,-1,0
-13.13,6.44,-0.81,923,-118,8155,-1,-1,0
-13.13,6.44,-0.81,920,-121,8152,0,-1,0
-13.13,6.44,-0.81,919,-121,8154,0,-1,0
-13.13,6.45,-0.80,921,-104,8149,0,-1,0
-13.13,6.45,-0.79,926,-100,8144,0,-1,0
-13.14,6.45,-0.79,917,-101,8152,-1,-1,0
-13.13,6.46,-0.80,922,-109,8146,-1,-1,0
-13.13,6.47,-0.80,921,-117,8150,0,-1,0
-13.13,6.47,-0.80,923,-119,8142,0,-1,0
-13.13,6.47,-0.80,922,-118,8134,0,-1,-1
-13.14,6.47,-0.80,922,-113,8136,0,-1,0
-13.14,6.48,-0.80,933,-107,8134,-1,-1,-1
-13.13,6.48,-0.80,927,-106,8133,-1,-1,0
-13.13,6.48,-0.80,924,-112,8146,-1,-1,-1
-13.13,6.48,-0.81,923,-121,8145,-1,-1,0
-13.13,6.48,-0.81,924,-125,8137,0,-1,0
-13.13,6.49,-0.81,923,-117,8140,0,-1,0
-13.13,6.49,-0.81,923,-117,8149,0,-1,0
-13.13,6.49,-0.81,926,-112,8147,0,-1,-1
-13.13,6.49,-0.80,927,-111,8148,-1,-1,0
-13.13,6.49,-0.81,924,-120,8138,0,0,0
-13.13,6.49,-0.81,924,-118,8130,0,-1,0
-13.13,6.49,-0.81,921,-120,8145,-1,-1,0
-13.13,6.49,-0.81,927,-116,8150,0,-1,-1
-13.13,6.49,-0.81,922,-107,8148,0,0,-1
-13.13,6.49,-0.80,915,-107,8148,-1,-1,0
-13.13,6.49,-0.81,921,-114,8149,-1,-1,0
-13.13,6.49,-0.82,917,-122,8147,0,-1,0
-13.13,6.50,-0.81,929,-121,8141,0,-1,0
-13.13,6.50,-0.81,938,-121,8142,0,0,-1
-13.13,6.49,-0.81,932,-113,8137,0,0,0
-13.13,6.49,-0.81,930,-109,8145,-1,0,-1
-13.13,6.49,-0.80,924,-114,8144,0,-1,0
-13.13,6.49,-0.80,926,-115,8143,-1,-1,-1
-13.13,6.49,-0.80,925,-113,8141,0,0,0
-13.13,6.49,-0.80,932,-117,8140,0,0,-1
-13.13,6.49,-0.80,932,-116,8138,0,0,-1
-13.13,6.49,-0.80,927,-120,8138,0,0,-1
-13.13,6.49,-0.80,927,-107,8132,0,0,0
-13.13,6.49,-0.80,927,-108,8131,-1,0,0
-13.13,6.49,-0.80,927,-119,8133,0,0,0
-13.13,6.49,-0.80,929,-122,8141,-1,0,0
-13.13,6.49,-0.80,923,-119,8136,-1,0,0
-13.13,6.49,-0.81,921,-122,8137,-1,-1,0
-13.13,6.48,-0.81,927,-128,8127,0,0,-1
-13.13,6.48,-0.81,932,-129,8128,0,0,-1
-13.13,6.48,-0.81,933,-128,8133,-1,0,0
-13.13,6.48,-0.81,929,-120,8135,0,0,-1
-13.13,6.47,-0.81,926,-112,8139,-1,0,0
-13.13,6.47,-0.82,921,-112,8140,-1,-1,-1
-13.12,6.47,-0.82,917,-116,8130,0,0,-1
-13.12,6.46,-0.82,916,-119,8138,0,-1,-1
-13.12,6.46,-0.82,923,-125,8139,0,0,0
-13.12,6.47,-0.81,926,-111,8138,0,0,0
-13.12,6.47,-0.81,929,-107,8139,-1,0,0
-13.12,6.47,-0.81,928,-112,8135,-1,0,0
-13.12,6.46,-0.82,920,-122,8138,0,0,0
-13.12,6.46,-0.82,923,-124,8139,0,-1,0
-13.12,6.46,-0.82,917,-129,8139,0,-1,0
-13.12,6.46,-0.82,923,-122,8137,0,0,-1
-13.12,6.46,-0.81,924,-118,8145,-1,0,0
-13.12,6.45,-0.81,919,-115,8144,-1,0,-1
-13.12,6.45,-0.81,923,-116,8146,-1,0,0
-13.12,6.45,-0.82,920,-116,8143,-1,0,-1
-13.12,6.44,-0.82,927,-122,8136,-1,0,-1
-13.12,6.44,-0.82,924,-122,8140,0,0,-1
-13.12,6.44,-0.82,925,-116,8140,-1,0,0
-13.12,6.44,-0.82,925,-118,8143,-1,0,0
-13.12,6.44,-0.83,917,-113,8148,-1,0,0
-13.12,6.43,-0.82,922,-116,8149,0,0,0
-13.11,6.43,-0.82,920,-119,8147,-1,0,0
-13.12,6.43,-0.82,915,-129,8143,-1,0,0
-13.12,6.42,-0.82,911,-128,8133,0,0,-1
-13.12,6.42,-0.82,908,-124,8139,0,0,0
-13.11,6.42,-0.82,907,-116,8138,0,-1,-1
-13.11,6.42,-0.82,907,-111,8140,-1,0,-1
-13.11,6.42,-0.82,906,-102,8139,-1,0,0
-13.11,6.41,-0.82,908,-110,8136,-1,0,0
-13.11,6.41,-0.82,915,-119,8139,-1,0,0
-13.11,6.41,-0.83,922,-136,8156,0,0,0
-13.11,6.41,-0.82,922,-134,8146,0,0,-1
-13.11,6.41,-0.82,915,-112,8140,0,0,-1
-13.11,6.41,-0.81,915,-96,8144,0,0,0
-13.11,6.40,-0.81,911,-94,8147,-1,0,-1
-13.11,6.40,-0.81,911,-100,8153,-1,0,0
-13.11,6.39,-0.81,907,-119,8159,-1,0,0
-13.11,6.39,-0.82,915,-131,8150,0,0,-1
-13.11,6.39,-0.82,911,-128,8142,0,0,-1
-13.11,6.39,-0.81,908,-120,8136,0,0,-1
-13.11,6.39,-0.81,906,-114,8138,0,0,0
-13.11,6.38,-0.81,906,-107,8135,0,0,0
-13.11,6.38,-0.81,915,-109,8138,-1,0,0
-13.11,6.38,-0.81,909,-120,8130,-1,0,0
-13.11,6.38,-0.81,905,-118,8137,0,-1,0
-13.11,6.38,-0.81,906,-118,8135,0,-1,-1
-13.11,6.38,-0.81,913,-118,8143,-1,0,0
-13.11,6.39,-0.82,917,-127,8138,-1,0,0
-13.11,6.39,-0.82,916,-131,8132,0,0,0
-13.11,6.39,-0.82,919,-122,8134,-1,-1,-1
-13.11,6.39,-0.82,920,-117,8150,0,-1,0
-13.11,6.39,-0.82,913,-112,8152,-1,-1,0
-13.11,6.39,-0.82,908,-110,8156,-1,-1,0
-13.11,6.39,-0.83,914,-127,8149,0,-1,0
-13.11,6.39,-0.83,912,-131,8142,0,-1,-1
-13.11,6.39,-0.82,914,-127,8148,0,-1,0
-13.11,6.39,-0.81,919,-114,8140,0,0,-1
-13.11,6.39,-0.81,913,-102,8141,0,-1,0
-13.11,6.39,-0.81,915,-109,8144,-1,-1,0
-13.12,6.39,-0.81,919,-120,8139,-1,-1,0
-13.12,6.40,-0.82,919,-125,8135,0,-1,0
-13.12,6.40,-0.81,914,-125,8139,0,-1,0
-13.12,6.40,-0.81,916,-124,8140,0,-1,0
-13.12,6.41,-0.82,918,-111,8134,0,-1,-1
-13.12,6.41,-0.82,919,-118,8139,-1,-1,0
-13.12,6.41,-0.82,919,-114,8147,-1,-1,0
-13.12,6.41,-0.82,913,-114,8137,-1,-1,0
-13.12,6.41,-0.82,915,-116,8142,0,-1,0
-13.12,6.42,-0.82,916,-118,8141,0,-1,0
-13.12,6.42,-0.82,922,-116,8146,0,-1,0
-13.12,6.42,-0.82,922,-115,8142,0,-1,0
-13.12,6.42,-0.82,916,-111,8142,0,-1,0
-13.12,6.43,-0.82,918,-117,8146,0,-1,0
-13.12,6.43,-0.82,919,-119,8151,-1,-1,0
-13.12,6.43,-0.82,916,-116,8153,-1,-1,0
-13.12,6.43,-0.82,916,-118,8149,0,-1,0
-13.12,6.44,-0.81,915,-120,8133,0,-1,0
-13.12,6.44,-0.81,921,-115,8139,0,-1,0
-13.12,6.44,-0.81,927,-109,8140,-1,-1,0
-13.12,6.44,-0.81,921,-109,8141,-1,-1,0
-13.12,6.44,-0.81,921,-112,8132,-1,-1,0
-13.12,6.44,-0.82,912,-124,8137,-1,-1,0
-13.13,6.44,-0.82,909,-125,8138,0,-1,0
-13.13,6.44,-0.82,919,-125,8142,0,-1,0
-13.13,6.45,-0.82,928,-118,8137,0,-1,0
-13.13,6.45,-0.81,931,-112,8126,0,-1,0
-13.13,6.46,-0.82,932,-110,8126,0,-1,-1
-13.13,6.46,-0.81,934,-111,8142,-1,-1,-1
-13.13,6.46,-0.82,927,-109,8146,-1,-1,0
-13.13,6.46,-0.82,923,-125,8139,-1,-1,0
-13.13,6.46,-0.82,921,-133,8142,0,-1,-1
-13.13,6.47,-0.82,927,-129,8136,0,-1,-1
-13.13,6.47,-0.81,925,-108,8139,0,-1,0
-13.13,6.47,-0.80,921,-107,8151,0,-1,0
-13.13,6.47,-0.80,917,-109,8147,-1,-1,0
-13.13,6.48,-0.80,928,-113,8133,-1,-1,0
-13.13,6.48,-0.81,933,-125,8144,0,-1,0
-13.13,6.48,-0.81,928,-124,8147,0,0,0
-13.13,6.48,-0.80,928,-106,8140,0,-1,0
-13.13,6.49,-0.80,929,-109,8146,-1,-1,0
-13.13,6.49,-0.81,933,-110,8138,-1,-1,0
-13.13,6.49,-0.81,927,-123,8138,0,-1,-1
-13.13,6.49,-0.81,927,-121,8137,0,-1,0
-13.13,6.49,-0.81,922,-115,8143,-1,0,0
-13.13,6.49,-0.81,921,-107,8134,-1,-1,-1
-13.13,6.49,-0.81,918,-112,8142,-1,0,-1
-13.13,6.49,-0.81,920,-121,8143,0,-1,0
-13.13,6.49,-0.81,927,-125,8144,0,-1,0
-13.13,6.49,-0.81,930,-119,8147,0,-1,-1
-13.13,6.49,-0.81,925,-116,8135,0,-1,-1
-13.13,6.49,-0.81,926,-108,8142,0,-1,0
-13.13,6.49,-0.81,925,-111,8153,-1,-1,0
-13.13,6.49,-0.81,920,-118,8153,-1,-1,0
-13.13,6.49,-0.81,924,-116,8156,0,-1,0
-13.13,6.49,-0.81,929,-124,8146,0,-1,-1
-13.13,6.49,-0.81,928,-114,8142,-1,-1,0
-13.13,6.49,-0.81,921,-110,8142,-1,-1,0
-13.14,6.49,-0.81,921,-114,8147,-1,-1,0
-13.13,6.50,-0.81,925,-115,8160,0,0,0
-13.14,6.49,-0.81,923,-113,8161,-1,-1,0
-13.14,6.50,-0.81,927,-114,8148,0,-1,0
-13.14,6.50,-0.81,923,-116,8147,-1,-1,0
-13.14,6.50,-0.82,927,-130,8144,0,-1,-1
-13.14,6.50,-0.81,915,-108,8145,0,-1,-1
-13.14,6.51,-0.81,923,-107,8126,-1,-1,0
-13.14,6.51,-0.81,909,-116,8150,0,-1,-1
-13.13,6.51,-0.79,925,-120,8129,1,0,-1
-13.12,6.51,-0.77,943,-104,8154,0,0,0
-13.13,6.50,-0.76,929,-119,8147,0,0,0
-13.13,6.50,-0.76,931,-133,8133,0,0,0
-13.13,6.49,-0.75,934,-128,8122,0,0,-1
-13.12,6.50,-0.73,948,-113,8134,0,0,-1
-13.10,6.49,-0.70,937,-96,8118,1,0,-1
-13.09,6.46,-0.66,903,-57,8134,0,0,-1
-13.10,6.46,-0.68,911,-69,8179,-1,-1,0
-13.12,6.48,-0.71,982,-175,8132,0,-1,0
-13.10,6.47,-0.67,969,-112,8138,1,1,-1
-13.08,6.42,-0.63,808,-12,8169,0,0,-1
-13.09,6.44,-0.65,830,-29,8138,-2,-3,0
-13.11,6.49,-0.70,955,-77,8165,-2,-1,0
-13.13,6.49,-0.76,1014,-56,8202,-2,1,1
-13.15,6.43,-0.81,1007,-39,8204,-3,1,1
-13.20,6.41,-0.88,992,-2,8169,-3,0,3
-13.22,6.35,-0.99,820,-195,8109,-4,-1,0
-13.22,6.36,-1.02,876,-278,8101,0,0,-1
-13.20,6.34,-1.03,934,-326,8036,1,1,-2
-13.17,6.29,-0.95,919,-202,8064,2,2,-1
-13.17,6.25,-0.91,894,-60,8149,-1,0,0
-13.17,6.26,-0.91,891,-48,8202,-1,-1,0
-13.18,6.27,-0.93,894,-95,8190,-1,-1,0
-13.17,6.27,-0.95,882,-146,8131,-1,-1,-1
-13.17,6.29,-0.95,872,-164,8096,0,-1,-1
-13.17,6.30,-0.96,886,-166,8086,0,-1,-1
-13.17,6.32,-0.94,905,-161,8121,0,-1,-1
-13.17,6.33,-0.92,920,-140,8149,0,-1,-1
-13.17,6.34,-0.90,913,-112,8171,0,-1,-1
-13.16,6.35,-0.88,895,-104,8172,0,-1,-1
-13.16,6.37,-0.88,899,-118,8153,0,-1,-1
-13.16,6.39,-0.88,911,-141,8127,0,-1,-1
-13.16,6.40,-0.87,906,-141,8122,0,-1,-1
-13.16,6.41,-0.87,914,-126,8133,0,-1,-1
-13.15,6.42,-0.85,918,-122,8148,0,-1,-1
-13.15,6.43,-0.84,922,-116,8156,0,-1,-1
-13.15,6.43,-0.84,919,-113,8150,0,-1,0
-13.15,6.43,-0.84,914,-117,8149,-1,-1,0
-13.15,6.44,-0.84,914,-122,8133,-1,-1,-1
-13.15,6.45,-0.84,920,-128,8132,0,-1,-1
-13.15,6.46,-0.84,927,-116,8141,-1,-1,0
-13.15,6.46,-0.84,920,-105,8146,-1,-1,0
-13.15,6.46,-0.84,931,-106,8145,-1,-1,0
-13.15,6.47,-0.85,920,-117,8148,-1,-1,0
-13.15,6.47,-0.86,911,-145,8141,0,-1,-1
-13.15,6.47,-0.85,912,-122,8149,0,-1,-1
-13.14,6.48,-0.84,924,-111,8139,0,-1,-1
-13.14,6.48,-0.84,923,-113,8139,0,-1,0
-13.15,6.48,-0.83,928,-111,8156,0,-1,-1
-13.15,6.48,-0.84,932,-122,8157,-1,0,0
-13.15,6.48,-0.84,932,-123,8147,0,0,0
-13.15,6.48,-0.83,921,-109,8132,0,0,-1
-13.15,6.48,-0.83,918,-111,8134,0,0,0
-13.15,6.48,-0.83,920,-110,8146,-1,-1,0
-13.14,6.48,-0.83,921,-120,8151,0,-1,-1
-13.14,6.49,-0.83,918,-118,8131,-1,-1,0
-13.14,6.48,-0.83,921,-117,8130,-1,0,0
-13.14,6.48,-0.84,913,-114,8137,-1,0,0
-13.14,6.48,-0.84,911,-122,8147,-1,-1,0
-13.14,6.49,-0.85,924,-131,8147,-1,-1,0
-13.15,6.50,-0.85,933,-134,8136,0,-1,0
-13.15,6.50,-0.83,957,-118,8133,0,0,-1
-13.14,6.49,-0.82,935,-89,8148,0,0,-1
-13.14,6.49,-0.82,919,-104,8139,-1,-1,0
-13.14,6.50,-0.82,950,-110,8156,0,0,-1
-13.14,6.49,-0.82,920,-118,8159,0,0,-1
-13.14,6.49,-0.82,911,-115,8148,0,-1,0
-13.14,6.49,-0.82,919,-119,8144,0,-1,-1
-13.14,6.50,-0.82,923,-123,8144,0,-1,0
-13.14,6.50,-0.81,936,-111,8148,0,0,0
-13.14,6.49,-0.81,929,-109,8148,0,0,0
-13.14,6.49,-0.81,922,-113,8145,0,-1,0
-13.14,6.49,-0.81,919,-120,8128,0,-1,0
-13.14,6.49,-0.80,911,-112,8129,0,-1,0
-13.14,6.49,-0.80,919,-104,8142,-1,-1,0
-13.15,6.50,-0.81,926,-112,8138,-1,-1,0
-13.15,6.51,-0.81,934,-116,8128,-1,-1,0
-13.15,6.51,-0.81,934,-126,8121,0,-1,0
-13.15,6.51,-0.81,938,-125,8136,0,-1,0
-13.15,6.51,-0.81,935,-112,8134,0,-1,-1
-13.15,6.51,-0.81,941,-116,8140,-1,0,0
-13.15,6.51,-0.82,940,-114,8150,-1,0,-1
-13.15,6.51,-0.82,936,-115,8157,-1,-1,-1
-13.15,6.51,-0.82,932,-123,8152,0,0,-1
-13.15,6.51,-0.81,936,-116,8142,0,0,0
-13.15,6.51,-0.81,931,-115,8137,0,0,-1
-13.15,6.50,-0.81,930,-120,8140,0,0,0
-13.15,6.50,-0.81,924,-121,8154,-1,-1,-1
-13.14,6.50,-0.81,926,-115,8151,0,0,-1
-13.14,6.49,-0.80,925,-118,8145,0,0,0
-13.14,6.49,-0.81,924,-111,8128,-1,0,0
-13.14,6.49,-0.81,928,-116,8125,-1,0,0
-13.14,6.49,-0.81,937,-109,8140,-1,0,0
-13.14,6.49,-0.81,936,-114,8138,-1,0,0
-13.14,6.49,-0.81,928,-119,8129,0,0,0
-13.14,6.49,-0.81,928,-113,8133,-1,0,0
-13.14,6.48,-0.82,923,-117,8146,-1,0,0
-13.14,6.48,-0.82,928,-124,8158,0,0,-1
-13.14,6.48,-0.82,924,-118,8152,-1,0,0
-13.14,6.47,-0.82,926,-115,8143,-1,0,-1
-13.14,6.47,-0.82,925,-119,8140,0,0,0
-13.14,6.47,-0.82,923,-121,8146,0,0,-1
-13.14,6.46,-0.82,920,-119,8141,0,0,-1
-13.14,6.46,-0.82,922,-114,8138,0,0,0
-13.13,6.46,-0.81,918,-107,8152,0,0,-1
-13.13,6.46,-0.81,922,-119,8149,0,0,0
-13.13,6.45,-0.81,914,-113,8144,0,0,-1
-13.13,6.45,-0.80,917,-106,8151,0,0,-1
-13.14,6.45,-0.79,922,-91,8146,-1,0,-1
-13.13,6.45,-0.80,919,-93,8154,-1,0,0
-13.13,6.44,-0.80,914,-109,8149,-1,0,0
-13.13,6.43,-0.80,914,-124,8151,0,0,-1
-13.13,6.43,-0.80,908,-130,8145,0,-1,0
-13.13,6.43,-0.80,911,-131,8143,0,-1,0
-13.13,6.43,-0.79,917,-114,8134,0,-1,-1
-13.13,6.43,-0.78,919,-104,8136,0,-1,0
-13.13,6.44,-0.78,922,-99,8136,-1,-1,0
-13.13,6.44,-0.78,921,-107,8134,-1,-1,0
-13.13,6.44,-0.79,917,-122,8145,-1,-1,0
-13.13,6.45,-0.80,915,-135,8145,-1,-1,0
-13.14,6.45,-0.79,916,-129,8132,0,-1,-1
-13.14,6.45,-0.79,914,-122,8139,0,-1,-1
-13.14,6.45,-0.79,923,-109,8143,0,-1,0
-13.14,6.45,-0.79,925,-104,8140,0,-1,0
-13.14,6.45,-0.79,919,-105,8138,-1,-1,0
-13.14,6.45,-0.79,919,-104,8143,-1,-1,0
-13.14,6.45,-0.79,921,-106,8147,-1,-1,0
-13.14,6.46,-0.79,920,-112,8144,0,-1,-1
-13.14,6.46,-0.79,926,-107,8144,0,-1,0
-13.14,6.46,-0.79,929,-114,8149,-1,-1,0
-13.14,6.47,-0.80,928,-119,8151,0,0,0
-13.14,6.47,-0.80,923,-119,8148,0,-1,0
-13.14,6.47,-0.80,921,-111,8148,0,-1,0
-13.14,6.47,-0.80,919,-111,8150,-1,-1,0
-13.14,6.47,-0.80,915,-116,8151,-1,-1,0
-13.14,6.47,-0.80,923,-126,8151,0,-1,0
-13.14,6.47,-0.80,920,-131,8148,0,-1,0
-13.14,6.47,-0.80,917,-124,8146,0,0,-1
-13.14,6.47,-0.80,919,-110,8140,0,-1,-1
-13.14,6.47,-0.79,923,-105,8143,0,-1,0
-13.14,6.47,-0.79,922,-106,8145,-1,-1,0
-13.14,6.47,-0.79,932,-107,8143,-1,-1,0
-13.14,6.48,-0.80,929,-119,8145,-1,-1,0
-13.15,6.48,-0.80,922,-125,8147,0,-1,0
-13.15,6.48,-0.80,925,-116,8141,0,0,0
-13.15,6.48,-0.80,929,-114,8141,-1,-1,0
-13.15,6.49,-0.80,933,-107,8134,-1,-1,0
-13.15,6.49,-0.80,924,-105,8144,-1,0,0
-13.15,6.48,-0.80,918,-111,8143,-1,-1,0
-13.15,6.49,-0.81,923,-118,8135,-1,-1,0
-13.15,6.49,-0.81,919,-125,8138,0,-1,0
-13.15,6.49,-0.81,927,-116,8146,0,-1,0
-13.15,6.49,-0.81,929,-113,8140,0,-1,0
-13.15,6.49,-0.80,933,-107,8130,0,-1,0
-13.15,6.49,-0.80,931,-117,8135,-1,-1,0
-13.15,6.49,-0.81,931,-117,8144,0,-1,-1
-13.15,6.49,-0.80,928,-119,8141,0,-1,-1
-13.15,6.50,-0.79,930,-109,8156,0,-1,-1
-13.15,6.50,-0.79,929,-109,8148,-1,0,0
-13.15,6.49,-0.80,932,-113,8144,-1,0,0
-13.15,6.49,-0.81,927,-124,8147,-1,0,0
-13.15,6.49,-0.80,925,-117,8150,0,-1,-1
-13.15,6.50,-0.79,921,-106,8135,0,-1,-1
-13.15,6.50,-0.79,924,-98,8142,-1,-1,0
-13.15,6.50,-0.79,926,-101,8153,-1,0,0
-13.15,6.49,-0.80,919,-110,8148,-1,-1,0
-13.15,6.49,-0.81,925,-125,8149,-1,-1,0
-13.15,6.49,-0.81,926,-125,8147,0,-1,0
-13.15,6.49,-0.80,930,-113,8144,0,-1,-1
-13.15,6.50,-0.79,933,-104,8138,0,0,-1
-13.15,6.50,-0.79,941,-93,8146,0,0,0
-13.15,6.50,-0.79,939,-97,8141,-1,-1,-1
-13.15,6.50,-0.79,931,-106,8143,-1,-1,0
-13.15,6.50,-0.79,930,-114,8150,-1,-1,-1
-13.15,6.50,-0.79,923,-118,8141,0,-1,-1
-13.15,6.50,-0.79,924,-119,8143,0,-1,-1
-13.15,6.50,-0.78,930,-108,8148,0,0,-1
-13.15,6.50,-0.77,929,-102,8139,-1,0,0
-13.15,6.50,-0.77,928,-107,8140,0,0,0
-13.15,6.50,-0.77,924,-112,8131,-1,-1,0
-13.15,6.50,-0.78,928,-113,8134,-1,0,-1
-13.15,6.50,-0.78,934,-109,8136,-1,-1,0
-13.15,6.50,-0.78,932,-112,8150,-1,0,-1
-13.15,6.50,-0.79,928,-116,8147,-1,0,0
-13.15,6.50,-0.79,926,-119,8141,-1,-1,0
-13.15,6.50,-0.78,926,-117,8139,0,0,-1
-13.15,6.50,-0.78,923,-116,8137,0,0,-1
-13.15,6.50,-0.78,927,-110,8136,-1,0,0
-13.15,6.50,-0.78,924,-117,8138,-1,0,-1
-13.15,6.50,-0.78,929,-116,8138,-1,0,0
-13.14,6.49,-0.79,919,-126,8138,0,-1,-1
-13.14,6.50,-0.78,927,-118,8131,0,0,-1
-13.14,6.49,-0.78,926,-113,8136,0,0,-1
-13.14,6.49,-0.78,927,-111,8141,0,0,0
-13.14,6.49,-0.77,923,-106,8138,0,0,0
-13.14,6.49,-0.78,923,-109,8138,-1,0,0
-13.14,6.49,-0.78,925,-112,8144,-1,-1,0
-13.14,6.49,-0.78,927,-114,8143,0,0,0
-13.14,6.49,-0.78,923,-107,8147,0,0,0
-13.14,6.48,-0.78,921,-107,8140,-1,-1,0
-13.14,6.49,-0.78,930,-110,8138,-1,0,-1
-13.14,6.48,-0.78,928,-113,8142,-1,0,0
-13.14,6.48,-0.78,923,-114,8140,-1,0,0
-13.14,6.47,-0.79,918,-123,8142,-1,0,-1
-13.14,6.47,-0.79,922,-121,8141,0,0,0
-13.14,6.47,-0.79,933,-116,8142,0,0,-1
-13.14,6.48,-0.78,929,-114,8144,0,0,-1
-13.14,6.47,-0.78,929,-108,8154,0,0,-1
-13.14,6.47,-0.78,931,-112,8150,0,0,0
-13.14,6.47,-0.78,931,-116,8145,-1,0,0
-13.14,6.47,-0.78,922,-112,8137,0,0,0
-13.14,6.46,-0.78,920,-110,8141,0,0,0
-13.14,6.46,-0.78,918,-115,8142,0,0,0
-13.14,6.46,-0.78,920,-124,8132,0,0,-1
-13.14,6.45,-0.78,915,-117,8127,0,0,0
-13.14,6.45,-0.78,911,-114,8130,-1,0,-1
-13.14,6.45,-0.78,912,-113,8131,-1,0,0
-13.14,6.45,-0.79,915,-122,8146,-1,0,-1
-13.14,6.44,-0.78,914,-120,8145,0,0,-1
-13.13,6.44,-0.79,911,-111,8151,-1,0,0
-13.13,6.44,-0.79,915,-118,8149,0,-1,0
-13.13,6.44,-0.78,924,-117,8145,0,0,0
-13.13,6.44,-0.78,928,-105,8133,0,0,0
-13.13,6.43,-0.78,929,-106,8133,-1,0,-1
-13.13,6.43,-0.78,929,-104,8130,-1,0,-1
-13.13,6.43,-0.78,923,-110,8138,-1,0,-1
-13.13,6.43,-0.79,917,-114,8143,-1,0,0
-13.13,6.42,-0.79,917,-122,8144,0,0,-1
-13.13,6.42,-0.79,912,-116,8148,0,0,0
-13.13,6.41,-0.79,917,-117,8148,0,0,0
-13.13,6.41,-0.79,925,-116,8141,0,0,0
-13.13,6.40,-0.79,909,-105,8143,-1,0,0
-13.14,6.40,-0.79,912,-102,8137,-1,0,0
-13.14,6.39,-0.79,912,-98,8143,-1,0,0
-13.14,6.38,-0.79,913,-102,8153,-1,0,0
-13.14,6.38,-0.80,917,-112,8146,-1,0,0
-13.14,6.37,-0.81,913,-119,8144,-1,0,0
-13.14,6.36,-0.81,908,-125,8134,-1,0,0
-13.14,6.34,-0.82,912,-126,8139,-1,0,-1
-13.14,6.33,-0.81,908,-124,8145,-1,0,-1
-13.14,6.32,-0.82,903,-120,8132,-1,0,-1
-13.14,6.32,-0.82,906,-114,8134,-1,0,0
-13.14,6.31,-0.83,907,-116,8137,0,0,0
-13.13,6.30,-0.83,899,-118,8139,0,0,-1
-13.13,6.29,-0.82,898,-111,8143,0,0,-1
-13.13,6.28,-0.82,899,-108,8138,0,0,0
-13.14,6.28,-0.81,897,-100,8134,0,0,0
-13.14,6.27,-0.81,902,-101,8133,-1,0,0
-13.13,6.27,-0.81,896,-113,8147,-1,0,0
-13.13,6.26,-0.81,893,-110,8137,-1,0,0
-13.13,6.25,-0.81,895,-119,8138,-1,0,0
-13.13,6.25,-0.81,895,-122,8144,-1,0,0
-13.13,6.25,-0.82,897,-114,8142,-1,0,0
-13.13,6.24,-0.82,893,-113,8151,-1,0,0
-13.13,6.23,-0.82,885,-116,8142,-1,0,-1
-13.13,6.22,-0.82,879,-121,8154,-1,0,-1
-13.13,6.22,-0.82,886,-122,8157,0,0,-1
-13.13,6.22,-0.82,886,-117,8150,0,0,-1
-13.13,6.21,-0.82,879,-118,8152,0,0,-1
-13.12,6.20,-0.81,881,-117,8145,0,0,-1
-13.12,6.20,-0.81,876,-112,8149,0,0,-1
-13.12,6.21,-0.80,880,-115,8142,0,-1,0
-13.12,6.21,-0.79,881,-112,8151,0,-1,-1
-13.12,6.21,-0.79,879,-113,8145,0,-1,-1
-13.11,6.21,-0.79,882,-116,8146,0,-1,-1
-13.11,6.21,-0.79,882,-117,8138,0,-1,-1
-13.11,6.21,-0.79,883,-116,8149,-1,-1,0
-13.11,6.22,-0.79,881,-118,8153,0,-1,-1
-13.11,6.22,-0.78,878,-114,8158,0,-1,0
-13.11,6.23,-0.78,881,-117,8157,0,-1,-1
-13.12,6.24,-0.78,884,-124,8143,0,-1,0
-13.11,6.24,-0.78,892,-126,8132,0,-1,-1
-13.11,6.25,-0.78,897,-115,8128,0,-1,-1
-13.11,6.26,-0.77,897,-107,8132,0,-1,0
-13.11,6.26,-0.76,895,-92,8137,-1,-1,0
-13.11,6.27,-0.76,896,-93,8140,-1,-1,0
-13.12,6.28,-0.77,896,-109,8143,-1,-1,0
-13.12,6.29,-0.77,899,-116,8146,-1,-1,0
-13.12,6.30,-0.77,900,-120,8151,0,-1,0
-13.12,6.31,-0.78,903,-118,8149,0,-1,0
-13.12,6.31,-0.77,906,-112,8152,0,-1,0
-13.12,6.32,-0.76,901,-106,8151,0,-1,0
-13.12,6.33,-0.76,905,-106,8143,-1,-1,0
-13.13,6.34,-0.77,903,-103,8144,0,-1,0
-13.13,6.34,-0.77,906,-109,8143,-1,-1,0
-13.13,6.36,-0.77,905,-111,8142,-1,-1,0
-13.13,6.36,-0.77,905,-114,8144,-1,-1,0
-13.13,6.37,-0.77,911,-114,8143,0,-1,-1
-13.13,6.37,-0.77,915,-115,8145,0,-1,-1
-13.13,6.38,-0.76,913,-102,8138,-1,-1,0
-13.13,6.38,-0.77,907,-97,8142,-1,-1,0
-13.13,6.39,-0.77,902,-105,8145,-1,-1,0
-13.13,6.39,-0.78,905,-110,8160,-1,-1,0
-13.13,6.39,-0.78,912,-118,8160,0,-1,-1
-13.13,6.40,-0.77,916,-116,8159,0,-1,0
-13.14,6.41,-0.77,914,-110,8140,0,-1,0
-13.14,6.41,-0.77,919,-105,8142,0,-1,0
-13.14,6.42,-0.77,919,-104,8145,-1,-1,0
-13.14,6.42,-0.77,922,-108,8144,-1,-1,0
-13.14,6.43,-0.77,916,-108,8144,0,-1,0
-13.14,6.43,-0.77,907,-105,8140,0,-1,0
-13.14,6.43,-0.77,917,-102,8133,-1,-1,0
-13.14,6.44,-0.77,920,-107,8127,-1,-1,0
-13.14,6.44,-0.77,920,-108,8134,-1,-1,0
-13.15,6.44,-0.78,914,-111,8130,-1,-1,0
-13.15,6.45,-0.78,918,-114,8139,-1,-1,0
-13.15,6.45,-0.79,918,-118,8141,0,-1,0
-13.15,6.45,-0.78,919,-113,8144,0,-1,-1
-13.15,6.45,-0.78,918,-112,8140,0,-1,0
-13.15,6.45,-0.78,916,-110,8133,-1,-1,0
-13.15,6.45,-0.78,915,-106,8140,-1,-1,0
-13.15,6.46,-0.78,918,-107,8142,-1,-1,0
-13.15,6.46,-0.78,920,-108,8142,-1,-1,0
-13.15,6.47,-0.79,922,-117,8130,-1,-1,0
-13.16,6.47,-0.79,921,-123,8130,0,-1,0
-13.16,6.48,-0.78,924,-115,8133,0,-1,0
-13.16,6.48,-0.78,923,-109,8138,0,-1,0
-13.16,6.48,-0.78,927,-105,8126,-1,0,0
-13.16,6.48,-0.79,921,-112,8125,-1,-1,0
-13.16,6.48,-0.80,915,-119,8133,-1,-1,0
-13.16,6.48,-0.81,910,-129,8150,-1,-1,0
-13.16,6.49,-0.81,922,-128,8147,0,-1,-1
-13.16,6.49,-0.81,927,-119,8133,0,-1,-1
-13.16,6.49,-0.81,940,-114,8123,0,-1,0
-13.16,6.50,-0.80,947,-111,8114,0,0,0
-13.16,6.50,-0.80,943,-110,8129,-1,0,-1
-13.16,6.49,-0.81,933,-123,8139,-1,0,-1
-13.16,6.49,-0.81,921,-123,8153,0,0,-1
-13.16,6.49,-0.81,922,-117,8155,0,-1,-1
-13.16,6.49,-0.81,924,-121,8161,0,-1,-1
-13.16,6.49,-0.80,923,-117,8151,0,-1,-1
-13.16,6.49,-0.80,923,-117,8140,0,0,0
-13.16,6.49,-0.79,922,-109,8137,0,-1,0
-13.16,6.49,-0.79,924,-109,8144,0,-1,-1
-13.16,6.49,-0.79,918,-117,8141,0,-1,0
-13.16,6.49,-0.79,921,-112,8133,0,-1,-1
-13.16,6.49,-0.79,912,-112,8132,-1,-1,0
-13.16,6.49,-0.79,925,-117,8132,-1,-1,0
-13.16,6.49,-0.80,932,-118,8144,-1,0,0
-13.16,6.49,-0.80,929,-123,8146,0,0,0
-13.16,6.49,-0.80,925,-117,8152,0,0,0
-13.16,6.49,-0.79,933,-109,8142,0,-1,0
-13.16,6.49,-0.79,933,-103,8132,-1,0,0
-13.16,6.49,-0.80,932,-115,8140,-1,-1,0
-13.16,6.49,-0.80,927,-120,8135,0,0,0
-13.16,6.49,-0.81,922,-132,8139,0,0,-1
-13.16,6.48,-0.79,922,-122,8126,0,0,-1
-13.16,6.48,-0.78,924,-99,8133,0,-1,-1
-13.16,6.48,-0.78,931,-96,8135,-1,-1,0
-13.16,6.48,-0.78,931,-105,8132,-1,-1,0
-13.16,6.48,-0.78,928,-115,8124,-1,0,0
-13.16,6.48,-0.78,925,-124,8134,0,0,-1
-13.16,6.48,-0.78,925,-130,8140,0,0,-1
-13.16,6.48,-0.78,921,-120,8133,0,0,0
-13.16,6.48,-0.78,929,-106,8138,0,0,0
-13.16,6.48,-0.78,930,-105,8137,-1,0,0
-13.16,6.48,-0.78,923,-105,8134,-1,0,0
-13.16,6.47,-0.79,920,-112,8135,-1,0,0
-13.16,6.47,-0.80,918,-119,8136,-1,0,-1
-13.16,6.47,-0.80,924,-122,8149,-1,0,0
-13.16,6.47,-0.80,937,-118,8143,0,0,-1
-13.16,6.47,-0.80,945,-110,8139,0,0,0
-13.16,6.47,-0.79,933,-105,8141,0,0,-1
-13.16,6.47,-0.79,929,-108,8150,-1,0,0
-13.16,6.46,-0.79,918,-104,8144,-1,0,0
-13.16,6.46,-0.80,923,-119,8137,-1,0,0
-13.16,6.46,-0.80,923,-122,8133,0,-1,0
-13.16,6.46,-0.79,929,-105,8134,0,0,0
-13.16,6.46,-0.80,924,-109,8132,-1,0,0
-13.16,6.46,-0.80,927,-107,8128,-1,0,0
-13.17,6.45,-0.80,920,-111,8142,-1,0,0
-13.17,6.45,-0.81,924,-111,8138,-1,0,0
-13.17,6.45,-0.81,914,-111,8137,-1,-1,0
-13.18,6.45,-0.81,919,-119,8140,-1,-1,0
-13.17,6.46,-0.82,930,-126,8132,0,0,0
-13.17,6.45,-0.82,925,-118,8135,0,0,0
-13.17,6.44,-0.82,927,-116,8144,-1,0,0
-13.17,6.44,-0.81,926,-111,8143,0,0,0
-13.17,6.42,-0.81,922,-106,8141,-1,0,0
-13.17,6.42,-0.82,912,-117,8146,-1,0,0
-13.17,6.41,-0.83,914,-122,8143,-1,0,0
-13.17,6.41,-0.83,908,-112,8150,0,0,0
-13.17,6.40,-0.82,907,-119,8157,0,0,0
-13.17,6.39,-0.82,901,-116,8156,0,0,0
-13.17,6.38,-0.82,902,-112,8144,0,0,0
-13.17,6.38,-0.82,910,-112,8141,0,0,-1
-13.17,6.37,-0.81,912,-119,8139,0,0,-1
-13.17,6.37,-0.81,910,-122,8138,0,0,-1
-13.17,6.35,-0.81,913,-119,8146,0,0,-1
-13.17,6.35,-0.80,914,-121,8145,0,0,-1
-13.17,6.34,-0.80,920,-127,8150,0,0,-1
-13.17,6.33,-0.79,915,-118,8137,0,0,-1
-13.17,6.31,-0.79,910,-108,8134,0,0,-1
-13.17,6.30,-0.78,905,-95,8136,0,0,0
-13.17,6.28,-0.79,901,-110,8161,-1,0,0
-13.17,6.27,-0.79,897,-114,8153,0,0,0
-13.17,6.26,-0.79,887,-113,8146,0,0,-1
-13.16,6.24,-0.78,889,-112,8144,0,0,0
-13.16,6.24,-0.77,895,-108,8136,0,0,0
-13.16,6.23,-0.77,895,-103,8134,0,0,-1
-13.16,6.22,-0.77,904,-105,8142,0,0,0
-13.16,6.22,-0.77,893,-110,8142,0,0,-1
-13.16,6.20,-0.76,881,-106,8145,0,0,0
-13.16,6.19,-0.76,886,-108,8151,0,0,0
-13.16,6.18,-0.76,888,-109,8146,0,0,-1
-13.16,6.18,-0.76,882,-98,8147,-1,0,-1
-13.16,6.17,-0.75,875,-90,8142,-1,0,0
-13.16,6.16,-0.76,877,-99,8147,-1,0,-1
-13.16,6.16,-0.76,879,-103,8154,-1,0,-1
-13.15,6.15,-0.77,877,-104,8161,-1,0,-1
-13.15,6.15,-0.77,877,-111,8153,-1,0,-1
-13.14,6.15,-0.77,883,-117,8143,0,-1,-1
-13.14,6.15,-0.77,879,-118,8140,-1,-1,-1
-13.13,6.15,-0.76,868,-114,8139,0,-1,-1
-13.13,6.15,-0.76,868,-111,8144,0,-1,-1
-13.13,6.16,-0.75,871,-91,8149,0,-1,-1
-13.13,6.17,-0.75,874,-93,8146,-1,-1,-1
-13.13,6.18,-0.75,877,-96,8141,-1,-1,-1
-13.13,6.18,-0.75,869,-119,8147,-1,-1,-1
-13.12,6.19,-0.76,869,-125,8156,0,-1,-1
-13.12,6.20,-0.76,873,-118,8158,0,-1,-1
-13.12,6.21,-0.75,875,-120,8156,0,-1,-1
-13.12,6.23,-0.74,885,-110,8149,0,-1,-1
-13.12,6.24,-0.74,893,-105,8147,0,-1,-1
-13.12,6.25,-0.74,889,-109,8145,-1,-1,-1
-13.12,6.25,-0.75,883,-113,8149,-1,-1,-1
-13.12,6.26,-0.75,881,-105,8150,-1,-1,-1
-13.12,6.27,-0.75,881,-108,8143,-1,-1,0
-13.12,6.28,-0.75,888,-113,8150,0,-1,0
-13.12,6.29,-0.75,887,-110,8154,-1,-1,0
-13.12,6.30,-0.75,894,-112,8153,-1,-1,0
-13.12,6.31,-0.75,904,-111,8146,0,-1,0
-13.12,6.32,-0.75,898,-97,8145,-1,-1,0
-13.12,6.33,-0.75,899,-102,8150,-1,-1,0
-13.12,6.34,-0.75,902,-109,8140,-1,-1,0
-13.13,6.34,-0.75,898,-110,8137,-1,-1,0
-13.13,6.36,-0.75,902,-114,8134,-1,-1,0
-13.13,6.37,-0.76,906,-112,8140,-1,-1,0
-13.13,6.37,-0.76,907,-111,8147,-1,-1,0
-13.13,6.38,-0.76,912,-108,8149,-1,-1,-1
-13.13,6.39,-0.76,906,-111,8152,-1,-1,0
-13.13,6.39,-0.76,902,-107,8152,-1,-1,0
-13.13,6.40,-0.77,904,-100,8143,-1,-1,0
-13.13,6.41,-0.77,903,-105,8149,-1,-1,-1
-13.13,6.41,-0.77,904,-106,8152,-1,-1,0
-13.13,6.41,-0.77,900,-115,8149,-1,-1,0
-13.13,6.42,-0.78,898,-111,8146,-1,-1,0
-13.14,6.43,-0.78,908,-115,8153,-1,-1,0
-13.14,6.43,-0.78,909,-122,8144,0,-1,0
-13.14,6.44,-0.78,909,-115,8149,0,-1,0
-13.14,6.45,-0.78,906,-116,8149,-1,-1,0
-13.14,6.45,-0.78,903,-116,8147,-1,-1,0
-13.14,6.46,-0.78,908,-115,8146,-1,-1,0
-13.15,6.47,-0.78,922,-114,8153,-1,-1,0
-13.15,6.48,-0.78,924,-116,8144,-1,-1,-1
-13.15,6.48,-0.78,914,-108,8143,-1,-1,0
-13.15,6.48,-0.78,912,-105,8142,-1,-1,0
-13.15,6.49,-0.79,909,-106,8138,-1,-1,0
-13.15,6.49,-0.79,911,-112,8132,-1,-1,0
-13.15,6.50,-0.79,912,-107,8137,-1,-1,0
-13.15,6.50,-0.79,911,-102,8138,-1,-1,0
-13.15,6.50,-0.79,914,-103,8139,-1,-1,-1
-13.16,6.51,-0.79,917,-103,8147,-1,-1,0
-13.16,6.51,-0.79,913,-108,8141,-1,-1,0
-13.16,6.52,-0.80,911,-126,8136,-1,-1,0
-13.16,6.52,-0.80,914,-122,8143,0,-1,0
-13.16,6.52,-0.80,915,-119,8142,0,-1,0
-13.16,6.53,-0.80,923,-108,8142,-1,-1,0
-13.16,6.54,-0.80,920,-105,8137,-1,-1,0
-13.16,6.54,-0.80,919,-106,8141,-1,-1,0
-13.16,6.54,-0.81,913,-109,8151,-1,-1,0
-13.16,6.55,-0.81,914,-116,8149,-1,-1,0
-13.16,6.55,-0.81,919,-120,8150,-1,-1,0
-13.17,6.56,-0.81,925,-124,8134,0,-1,0
-13.17,6.56,-0.82,926,-126,8143,-1,-1,0
-13.17,6.56,-0.81,931,-117,8138,0,-1,-1
-13.16,6.56,-0.81,922,-104,8140,-1,-1,-1
-13.16,6.57,-0.81,924,-107,8149,-1,-1,0
-13.17,6.57,-0.82,923,-121,8143,-1,-1,0
-13.17,6.57,-0.82,921,-130,8151,-1,-1,0
-13.17,6.58,-0.82,922,-130,8159,0,-1,0
-13.17,6.58,-0.82,924,-118,8152,0,-1,-1
-13.17,6.58,-0.82,922,-108,8151,0,-1,-1
-13.17,6.58,-0.82,922,-109,8154,-1,-1,0
-13.17,6.58,-0.82,917,-112,8149,-1,-1,-1
-13.17,6.58,-0.82,924,-106,8143,-1,-1,0
-13.17,6.58,-0.82,916,-107,8144,-1,-1,0
-13.17,6.58,-0.82,915,-111,8145,-1,-1,0
-13.17,6.58,-0.82,917,-111,8146,-1,-1,-1
-13.17,6.58,-0.82,924,-114,8153,-1,-1,0
-13.17,6.58,-0.81,922,-115,8155,0,-1,0
-13.17,6.58,-0.81,921,-114,8141,0,-1,-1
-13.17,6.58,-0.81,919,-109,8146,-1,-1,-1
-13.17,6.58,-0.81,918,-111,8145,-1,-1,0
-13.17,6.58,-0.82,923,-115,8136,-1,-1,0
-13.17,6.58,-0.82,916,-121,8138,0,-1,0
-13.17,6.58,-0.81,921,-123,8137,0,-1,-1
-13.17,6.59,-0.80,923,-115,8145,0,-1,-1
-13.17,6.59,-0.80,925,-97,8134,0,-1,0
-13.17,6.59,-0.80,927,-92,8142,-1,-1,-1
-13.17,6.59,-0.80,919,-110,8143,-1,-1,0
-13.17,6.59,-0.80,925,-124,8152,0,-1,-1
-13.17,6.59,-0.80,925,-124,8144,0,-1,-1
-13.17,6.59,-0.79,926,-117,8144,0,-1,-1
-13.17,6.59,-0.79,929,-109,8145,-1,-1,0
-13.17,6.59,-0.79,939,-105,8144,-1,-1,-1
-13.16,6.59,-0.79,934,-109,8135,-1,0,0
-13.16,6.59,-0.80,931,-117,8141,-1,-1,0
-13.16,6.59,-0.80,914,-119,8140,0,-1,0
-13.16,6.59,-0.80,921,-106,8139,0,-1,-1
-13.16,6.59,-0.79,929,-102,8137,-1,-1,0
-13.16,6.59,-0.79,929,-102,8134,0,-1,0
-13.16,6.59,-0.80,930,-107,8129,-1,-1,0
-13.16,6.59,-0.80,929,-111,8138,-1,-1,0
-13.16,6.59,-0.80,922,-112,8141,-1,-1,0
-13.16,6.59,-0.80,916,-110,8159,-1,-1,0
-13.16,6.59,-0.80,923,-119,8156,-1,-1,0
-13.16,6.59,-0.80,918,-118,8149,0,-1,0
-13.16,6.59,-0.80,922,-103,8148,-1,-1,0
-13.17,6.59,-0.80,924,-95,8141,-1,0,0
-13.17,6.58,-0.80,918,-97,8140,-1,-1,0
-13.17,6.58,-0.80,917,-113,8146,-1,0,0
-13.16,6.57,-0.81,914,-120,8134,-1,-1,0
-13.16,6.57,-0.81,917,-123,8138,-1,0,0
-13.16,6.56,-0.81,916,-122,8135,-1,0,0
-13.17,6.56,-0.82,919,-120,8148,-1,0,0
-13.17,6.56,-0.82,922,-108,8140,0,-1,0
-13.17,6.56,-0.81,921,-97,8133,-1,0,0
-13.17,6.56,-0.81,922,-100,8150,-1,-1,0
-13.17,6.56,-0.81,924,-105,8151,-1,0,0
-13.18,6.55,-0.83,920,-118,8150,-1,0,0
-13.18,6.54,-0.83,919,-128,8150,-1,0,0
-13.18,6.53,-0.83,914,-119,8141,0,0,0
-13.18,6.52,-0.82,914,-105,8149,-1,0,0
-13.18,6.51,-0.83,920,-106,8149,-1,0,0
-13.18,6.51,-0.84,919,-106,8140,-1,0,0
-13.18,6.50,-0.84,915,-111,8146,-1,0,0
-13.18,6.49,-0.85,917,-119,8141,-1,0,0
-13.18,6.48,-0.85,904,-118,8141,-1,0,0
-13.19,6.47,-0.85,907,-109,8144,-1,0,0
-13.19,6.46,-0.86,902,-117,8138,-1,0,0
-13.19,6.45,-0.87,905,-127,8144,-1,0,0
-13.19,6.44,-0.87,904,-137,8142,-1,0,-1
-13.18,6.43,-0.88,904,-137,8139,-1,0,-1
-13.18,6.42,-0.88,901,-124,8147,-1,0,0
-13.18,6.42,-0.88,900,-118,8160,-1,0,0
-13.18,6.41,-0.88,902,-120,8159,-1,0,0
-13.18,6.40,-0.88,895,-127,8137,-1,0,0
-13.18,6.39,-0.89,894,-132,8138,0,0,0
-13.18,6.39,-0.89,896,-134,8147,0,0,-1
-13.18,6.38,-0.87,893,-120,8139,0,0,-1
-13.18,6.37,-0.87,889,-108,8143,0,0,0
-13.18,6.37,-0.87,889,-111,8149,-1,0,0
-13.18,6.37,-0.87,890,-118,8140,-1,0,0
-13.18,6.36,-0.88,882,-124,8148,-1,0,0
-13.18,6.36,-0.88,893,-132,8151,-1,0,0
-13.18,6.35,-0.88,889,-129,8143,0,0,0
-13.18,6.34,-0.88,889,-122,8136,-1,0,0
-13.18,6.34,-0.88,887,-109,8146,-1,0,-1
-13.18,6.33,-0.87,884,-107,8144,-1,0,-1
-13.18,6.32,-0.88,882,-114,8147,-1,0,-1
-13.17,6.32,-0.88,880,-122,8135,-1,0,-1
-13.17,6.32,-0.88,886,-123,8141,0,0,-1
-13.17,6.31,-0.87,878,-123,8144,0,0,-1
-13.16,6.30,-0.86,888,-121,8155,0,0,-1
-13.15,6.30,-0.85,899,-116,8149,0,0,-1
-13.14,6.29,-0.84,886,-122,8142,0,0,-1
-13.13,6.29,-0.83,879,-129,8130,0,0,-1
-13.13,6.28,-0.82,869,-117,8134,0,-1,-1
-13.12,6.28,-0.80,872,-105,8150,0,-1,-1
-13.12,6.29,-0.80,876,-105,8163,0,-1,-1
-13.12,6.30,-0.79,873,-109,8145,0,-1,0
-13.12,6.31,-0.80,877,-121,8144,-1,-1,0
-13.12,6.32,-0.79,880,-123,8134,0,-1,-1
-13.12,6.33,-0.79,887,-110,8143,0,-1,-1
-13.12,6.34,-0.79,871,-104,8149,0,-1,0
-13.12,6.35,-0.78,876,-109,8151,0,-1,0
-13.12,6.36,-0.78,880,-105,8154,-1,-1,0
-13.12,6.38,-0.78,890,-111,8148,-1,-1,-1
-13.12,6.39,-0.78,892,-107,8137,0,-1,0
-13.12,6.41,-0.77,902,-107,8138,0,-1,0
-13.12,6.41,-0.77,898,-102,8148,-1,-1,0
-13.12,6.42,-0.77,901,-108,8153,-1,-1,0
-13.12,6.43,-0.78,898,-115,8149,-1,-1,0
-13.12,6.44,-0.78,897,-119,8147,-1,-1,-1
-13.12,6.45,-0.78,894,-123,8149,0,-1,0
-13.12,6.45,-0.78,899,-118,8153,0,-1,0
-13.12,6.46,-0.77,903,-110,8145,0,-1,0
-13.12,6.47,-0.77,904,-99,8141,0,-1,0
-13.12,6.48,-0.77,906,-99,8142,-1,-1,0
-13.12,6.48,-0.77,904,-106,8138,-1,-1,0
-13.13,6.48,-0.77,901,-103,8141,-1,-1,0
-13.13,6.50,-0.78,906,-105,8137,-1,-1,0
-13.13,6.50,-0.78,915,-109,8141,-1,-1,0
-13.13,6.51,-0.79,911,-119,8138,-1,-1,0
-13.13,6.52,-0.79,909,-115,8138,-1,-1,0
-13.14,6.52,-0.79,908,-120,8136,-1,-1,0
-13.13,6.52,-0.79,916,-109,8143,0,-1,-1
-13.13,6.53,-0.79,913,-101,8146,-1,-1,0
-13.14,6.53,-0.80,915,-107,8152,-1,-1,0
-13.14,6.54,-0.80,910,-109,8140,-1,-1,0
-13.14,6.54,-0.80,906,-117,8146,0,-1,0
-13.14,6.54,-0.80,910,-116,8151,0,-1,0
-13.14,6.54,-0.79,910,-100,8143,0,-1,0
-13.14,6.54,-0.79,913,-100,8135,-1,-1,0
-13.14,6.55,-0.79,913,-103,8138,-1,-1,0
-13.14,6.55,-0.79,917,-108,8142,-1,-1,0
-13.14,6.56,-0.79,918,-110,8135,-1,-1,0
-13.14,6.57,-0.79,918,-110,8135,-1,-1,0
-13.14,6.57,-0.79,926,-108,8142,-1,-1,0
-13.14,6.57,-0.79,923,-105,8146,-1,-1,0
-13.14,6.57,-0.79,924,-110,8139,-1,-1,0
-13.14,6.58,-0.80,919,-116,8136,-1,-1,0
-13.14,6.58,-0.80,917,-125,8133,-1,-1,0
-13.14,6.58,-0.81,918,-115,8136,-1,-1,0
-13.14,6.58,-0.80,920,-114,8138,0,-1,0
-13.14,6.58,-0.80,926,-107,8137,-1,-1,0
-13.14,6.58,-0.80,919,-106,8139,-1,-1,0
-13.14,6.58,-0.80,916,-102,8142,-1,-1,0
-13.14,6.58,-0.80,913,-102,8143,0,-1,-1
-13.15,6.59,-0.80,911,-105,8143,-1,-1,0
-13.15,6.59,-0.80,924,-104,8145,-1,-1,0
-13.15,6.59,-0.80,927,-106,8139,-1,-1,0
-13.14,6.59,-0.80,921,-116,8145,-1,-1,0
-13.14,6.59,-0.80,921,-110,8141,-1,-1,0
-13.14,6.59,-0.80,909,-108,8141,-1,-1,0
-13.15,6.59,-0.80,911,-114,8142,-1,-1,0
-13.15,6.60,-0.80,917,-113,8141,-1,-1,0
-13.15,6.60,-0.80,931,-111,8139,-1,-1,0
-13.15,6.61,-0.80,939,-117,8139,-1,0,-1
-13.15,6.60,-0.81,938,-116,8137,-1,-1,-1
-13.15,6.61,-0.81,933,-116,8140,-1,-1,0
-13.15,6.61,-0.81,924,-117,8144,-1,-1,-1
-13.15,6.61,-0.81,916,-120,8145,-1,-1,-1
-13.15,6.61,-0.81,921,-115,8140,0,-1,-1
-13.15,6.61,-0.81,920,-108,8142,-1,-1,0
-13.14,6.61,-0.81,918,-108,8144,-1,-1,0
-13.14,6.61,-0.81,922,-111,8146,-1,-1,0
-13.14,6.61,-0.81,928,-104,8133,-1,-1,0
-13.15,6.61,-0.81,932,-108,8136,-1,-1,0
-13.15,6.61,-0.82,928,-111,8131,-1,-1,0
-13.15,6.60,-0.83,926,-120,8134,-1,-1,0
-13.15,6.60,-0.83,929,-120,8137,-1,-1,0
-13.15,6.60,-0.84,940,-114,8137,-1,0,0
-13.15,6.59,-0.85,938,-120,8145,-1,0,0
-13.15,6.58,-0.87,933,-124,8134,-1,0,0
-13.15,6.57,-0.87,916,-135,8141,-1,-1,0
-13.15,6.57,-0.87,921,-132,8145,0,-1,-1
-13.15,6.58,-0.87,908,-138,8158,0,-1,0
-13.16,6.59,-0.85,913,-142,8156,0,-1,-1
-13.16,6.61,-0.84,932,-127,8138,0,-1,0
-13.16,6.61,-0.83,933,-115,8145,0,-1,-1
-13.15,6.62,-0.82,940,-96,8141,0,-1,-1
-13.15,6.61,-0.81,927,-92,8134,-1,0,-1
-13.15,6.61,-0.82,917,-90,8140,-1,-1,0
-13.15,6.61,-0.83,917,-108,8141,-1,-1,0
-13.15,6.62,-0.83,920,-118,8142,0,-1,-1
-13.15,6.62,-0.83,922,-126,8147,0,-1,-1
-13.15,6.62,-0.82,920,-119,8137,0,-1,-1
-13.15,6.62,-0.82,926,-111,8133,-1,-1,0
-13.14,6.62,-0.82,930,-114,8131,-1,-1,0
-13.14,6.62,-0.82,923,-111,8135,-1,-1,-1
-13.14,6.62,-0.82,917,-113,8132,-1,-1,0
-13.14,6.62,-0.83,912,-120,8142,-1,-1,-1
-13.14,6.62,-0.83,916,-120,8139,0,-1,0
-13.14,6.62,-0.82,917,-116,8140,0,-1,-1
-13.14,6.61,-0.82,918,-110,8137,-1,-1,0
-13.14,6.61,-0.82,918,-108,8134,-1,-1,0
-13.14,6.61,-0.82,916,-113,8138,0,-1,0
-13.14,6.61,-0.81,921,-104,8134,0,-1,0
-13.15,6.62,-0.81,928,-105,8141,-1,-1,0
-13.15,6.62,-0.81,928,-108,8137,-1,-1,-1
-13.15,6.62,-0.81,929,-115,8143,-1,-1,-1
-13.15,6.62,-0.81,924,-120,8142,-1,-1,0
-13.15,6.62,-0.82,929,-135,8142,-1,-1,0
-13.16,6.63,-0.83,931,-137,8138,-1,-1,0
-13.16,6.63,-0.83,930,-135,8145,0,-1,0
-13.16,6.63,-0.82,935,-120,8143,0,-1,0
-13.16,6.63,-0.82,933,-101,8135,-1,-1,0
-13.16,6.63,-0.82,923,-99,8123,-1,-1,0
-13.16,6.63,-0.83,926,-110,8133,-1,-1,0
-13.17,6.64,-0.84,928,-122,8152,-1,-1,0
-13.17,6.63,-0.84,929,-125,8143,-1,0,0
-13.17,6.63,-0.84,923,-126,8137,-1,0,0
-13.16,6.62,-0.84,921,-116,8148,-1,0,0
-13.16,6.62,-0.84,923,-104,8160,-1,-1,0
-13.17,6.62,-0.84,928,-103,8151,-1,-1,0
-13.17,6.63,-0.85,936,-119,8127,-1,-1,0
-13.17,6.63,-0.86,928,-119,8131,0,0,0
-13.17,6.62,-0.85,928,-113,8139,0,0,0
-13.17,6.62,-0.84,925,-113,8158,0,-1,0
-13.17,6.62,-0.85,922,-112,8157,-1,-1,0
-13.18,6.62,-0.85,914,-117,8153,-1,0,0
-13.18,6.61,-0.86,922,-121,8140,-1,0,0
-13.18,6.61,-0.86,924,-121,8145,-1,0,0
-13.18,6.61,-0.86,926,-120,8141,-1,0,0
-13.18,6.60,-0.86,925,-112,8148,-1,0,-1
-13.18,6.59,-0.86,929,-114,8156,-1,0,0
-13.18,6.59,-0.87,920,-115,8149,-1,0,0
-13.18,6.57,-0.87,920,-123,8154,-1,0,-1
-13.17,6.56,-0.86,919,-125,8153,0,0,-1
-13.17,6.56,-0.86,912,-113,8134,0,0,-1
-13.17,6.55,-0.85,911,-106,8130,-1,0,0
-13.17,6.54,-0.86,917,-112,8136,-1,0,-1
-13.16,6.54,-0.86,919,-128,8145,-1,0,0
-13.16,6.54,-0.86,914,-130,8145,-1,0,-1
-13.16,6.53,-0.86,916,-133,8142,0,0,-1
-13.16,6.52,-0.85,917,-118,8138,0,0,-1
-13.15,6.51,-0.85,911,-111,8136,0,0,-1
-13.15,6.50,-0.84,910,-112,8133,0,0,-1
-13.15,6.49,-0.84,905,-115,8136,-1,0,-1
-13.15,6.48,-0.85,899,-117,8131,0,0,-1
-13.15,6.48,-0.84,903,-120,8141,0,0,-1
-13.15,6.47,-0.84,897,-122,8142,0,0,-1
-13.14,6.46,-0.84,898,-117,8141,0,0,-1
-13.14,6.46,-0.84,906,-115,8141,0,0,-1
-13.13,6.45,-0.83,905,-112,8147,-1,0,-1
-13.13,6.44,-0.83,897,-124,8146,0,0,-1
-13.12,6.44,-0.83,889,-121,8139,0,0,-1
-13.12,6.43,-0.82,895,-115,8139,0,-1,-1
-13.13,6.43,-0.80,896,-99,8136,0,-1,-1
-13.13,6.43,-0.80,904,-100,8128,0,0,-1
-13.12,6.42,-0.80,898,-104,8120,-1,0,0
-13.12,6.42,-0.81,887,-120,8138,-1,-1,-1
-13.12,6.42,-0.81,883,-123,8153,0,-1,0
-13.12,6.43,-0.80,889,-120,8148,0,-1,-1
-13.12,6.44,-0.80,894,-117,8139,0,-1,-1
-13.12,6.45,-0.79,905,-111,8134,0,-1,-1
-13.11,6.45,-0.79,907,-102,8132,-1,-1,-1
-13.11,6.45,-0.79,902,-101,8142,-1,-1,0
-13.11,6.45,-0.79,893,-107,8158,-1,-1,-1
-13.11,6.45,-0.79,885,-109,8167,-1,-1,0
-13.11,6.46,-0.79,891,-116,8155,-1,-1,0
-13.11,6.47,-0.79,897,-113,8158,0,-1,0
-13.11,6.47,-0.79,904,-112,8149,-1,-1,0
-13.12,6.47,-0.79,904,-115,8146,0,-1,0
-13.12,6.48,-0.79,908,-112,8153,-1,-1,0
-13.12,6.49,-0.79,904,-113,8151,0,-1,0
-13.12,6.50,-0.79,908,-114,8142,-1,-1,0
-13.12,6.50,-0.79,904,-111,8131,-1,-1,0
-13.12,6.50,-0.79,901,-116,8131,-1,-1,0
-13.12,6.51,-0.79,913,-120,8135,-1,-1,0
-13.12,6.52,-0.80,915,-125,8148,-1,-1,0
-13.12,6.52,-0.80,907,-121,8149,0,-1,0
-13.13,6.52,-0.79,912,-109,8158,0,-1,0
-13.13,6.52,-0.79,909,-97,8163,-1,-1,-1
-13.13,6.53,-0.79,912,-97,8149,-1,-1,0
-13.13,6.53,-0.80,909,-115,8152,-1,-1,0
-13.13,6.54,-0.80,913,-118,8148,0,-1,0
-13.13,6.54,-0.80,914,-124,8156,0,-1,0
-13.13,6.54,-0.80,920,-113,8149,0,-1,-1
-13.13,6.55,-0.78,916,-99,8143,0,-1,-1
-13.13,6.55,-0.78,915,-95,8142,-1,-1,0
-13.13,6.55,-0.78,919,-98,8141,-1,-1,0
-13.13,6.56,-0.79,920,-110,8138,-1,-1,0
-13.14,6.57,-0.79,920,-121,8131,0,-1,0
-13.14,6.57,-0.79,925,-121,8134,0,-1,-1
-13.14,6.57,-0.79,927,-109,8138,0,-1,0
-13.14,6.57,-0.79,926,-107,8144,-1,-1,0
-13.14,6.58,-0.79,922,-111,8145,-1,-1,0
-13.14,6.58,-0.79,920,-116,8140,-1,-1,0
-13.14,6.58,-0.79,918,-122,8144,-1,-1,0
-13.14,6.59,-0.79,924,-120,8143,-1,-1,0
-13.14,6.59,-0.79,923,-114,8154,0,-1,0
-13.14,6.59,-0.79,921,-101,8159,0,-1,0
-13.14,6.59,-0.79,924,-103,8157,-1,-1,0
-13.14,6.59,-0.79,921,-100,8152,-1,-1,0
-13.15,6.59,-0.79,921,-111,8148,-1,-1,0
-13.15,6.60,-0.79,924,-119,8146,0,-1,0
-13.15,6.60,-0.79,925,-117,8145,0,-1,0
-13.15,6.61,-0.79,934,-112,8144,0,-1,0
-13.15,6.61,-0.78,938,-102,8143,-1,-1,0
-13.15,6.61,-0.79,929,-106,8143,-1,-1,0
-13.15,6.61,-0.79,921,-115,8140,-1,-1,0
-13.15,6.61,-0.80,915,-124,8141,-1,-1,0
-13.15,6.61,-0.80,915,-127,8156,0,-1,0
-13.15,6.62,-0.80,931,-122,8137,0,-1,-1
-13.15,6.62,-0.79,935,-105,8147,0,-1,-1
-13.15,6.62,-0.78,937,-103,8142,-1,-1,0
-13.15,6.62,-0.79,937,-99,8139,-1,-1,0
-13.15,6.62,-0.79,929,-101,8143,-1,-1,0
-13.15,6.62,-0.79,924,-112,8144,-1,-1,0
-13.15,6.62,-0.79,923,-120,8139,0,-1,0
-13.15,6.62,-0.79,927,-110,8134,0,-1,0
-13.15,6.62,-0.79,928,-105,8139,-1,-1,0
-13.15,6.62,-0.79,929,-115,8125,0,-1,-1
-13.15,6.62,-0.79,923,-109,8122,-1,-1,0
-13.15,6.63,-0.79,929,-112,8129,-1,-1,0
-13.15,6.62,-0.79,927,-108,8144,0,0,0
-13.15,6.62,-0.79,921,-105,8144,0,-1,0
-13.15,6.62,-0.79,930,-107,8150,0,-1,0
-13.15,6.62,-0.79,930,-108,8137,-1,0,0
-13.15,6.62,-0.78,928,-114,8127,0,0,-1
-13.15,6.62,-0.79,930,-116,8140,0,0,0
-13.15,6.61,-0.79,930,-115,8152,0,0,-1
-13.15,6.61,-0.79,923,-109,8152,-1,0,0
-13.15,6.61,-0.79,929,-115,8153,-1,0,0
-13.15,6.60,-0.79,932,-121,8144,0,0,0
-13.15,6.60,-0.80,927,-122,8151,0,0,-1
-13.15,6.60,-0.79,935,-113,8148,0,0,0
-13.15,6.60,-0.78,928,-108,8153,0,0,0
-13.15,6.60,-0.78,921,-105,8157,0,0,0
-13.15,6.59,-0.78,925,-96,8154,0,-1,0
-13.15,6.59,-0.78,927,-111,8137,0,-1,0
-13.15,6.59,-0.78,926,-116,8131,0,0,0
-13.15,6.59,-0.78,937,-123,8123,0,0,0
-13.15,6.58,-0.78,925,-116,8126,0,0,0
-13.15,6.57,-0.78,927,-110,8134,0,0,-1
-13.15,6.58,-0.77,931,-101,8140,0,0,-1
-13.15,6.58,-0.77,930,-102,8140,-1,0,-1
-13.15,6.57,-0.77,929,-100,8129,-1,0,0
-13.15,6.57,-0.77,924,-106,8129,-1,0,-1
-13.15,6.56,-0.77,922,-105,8132,0,0,0
-13.15,6.55,-0.77,920,-113,8145,0,0,-1
-13.14,6.55,-0.78,922,-118,8146,0,0,-1
-13.14,6.55,-0.77,918,-106,8143,0,0,-1
-13.14,6.54,-0.77,924,-104,8145,0,0,0
-13.14,6.54,-0.77,923,-102,8133,0,0,-1
-13.14,6.54,-0.77,924,-103,8134,-1,0,0
-13.14,6.53,-0.77,916,-108,8139,-1,0,0
-13.14,6.53,-0.77,915,-113,8138,-1,0,-1
-13.14,6.52,-0.77,917,-115,8140,0,0,0
-13.14,6.52,-0.77,921,-116,8129,0,-1,0
-13.14,6.52,-0.77,928,-110,8122,0,0,0
-13.14,6.52,-0.77,930,-96,8126,0,0,-1
-13.14,6.51,-0.77,928,-99,8131,-1,0,0
-13.14,6.50,-0.77,922,-105,8144,-1,0,-1
-13.14,6.50,-0.78,922,-113,8144,-1,0,-1
-13.14,6.49,-0.78,922,-115,8148,0,0,-1
-13.14,6.49,-0.77,918,-109,8146,0,0,0
-13.14,6.48,-0.78,925,-103,8154,-1,0,0
-13.14,6.48,-0.77,924,-90,8147,-1,0,0
-13.14,6.47,-0.77,915,-97,8165,-1,0,0
-13.14,6.47,-0.77,919,-98,8157,0,0,0
-13.14,6.46,-0.77,917,-97,8146,0,0,-1
-13.14,6.46,-0.77,921,-103,8149,-1,0,0
-13.14,6.46,-0.77,919,-108,8137,-1,0,0
-13.14,6.46,-0.78,922,-116,8149,-1,0,0
-13.14,6.45,-0.78,920,-112,8139,-1,0,0
-13.14,6.45,-0.79,920,-123,8135,0,0,0
-13.14,6.45,-0.79,921,-118,8137,0,0,0
-13.14,6.44,-0.79,922,-114,8146,-1,0,0
-13.14,6.43,-0.78,919,-108,8157,-1,0,0
-13.14,6.42,-0.79,910,-107,8153,-1,0,0
-13.14,6.42,-0.79,905,-119,8148,-1,0,0
-13.14,6.41,-0.79,903,-115,8136,0,0,-1
-13.14,6.40,-0.79,904,-108,8135,0,0,0
-13.14,6.39,-0.79,905,-104,8139,0,0,-1
-13.14,6.39,-0.78,902,-99,8148,-1,0,0
-13.14,6.38,-0.79,905,-98,8136,-1,0,0
-13.14,6.38,-0.78,901,-116,8129,-1,0,0
-13.14,6.38,-0.79,902,-118,8142,-1,0,0
-13.14,6.37,-0.79,901,-117,8141,0,0,0
-13.14,6.36,-0.78,909,-106,8138,0,0,0
-13.14,6.36,-0.78,909,-106,8133,-1,0,0
-13.14,6.35,-0.79,907,-107,8127,-1,0,0
-13.14,6.35,-0.79,907,-106,8138,-1,0,0
-13.14,6.35,-0.79,904,-117,8136,0,0,-1
-13.13,6.34,-0.79,900,-113,8138,0,0,-1
-13.13,6.34,-0.79,903,-111,8131,0,0,-1
-13.13,6.34,-0.79,899,-108,8131,-1,0,-1
-13.13,6.34,-0.79,898,-108,8137,0,0,0
-13.13,6.33,-0.79,897,-110,8133,0,0,-1
-13.13,6.33,-0.78,899,-112,8135,0,0,-1
-13.13,6.33,-0.78,899,-106,8133,0,0,0
-13.13,6.33,-0.78,894,-105,8137,-1,-1,-1
-13.13,6.33,-0.78,888,-111,8140,-1,-1,0
-13.13,6.33,-0.79,891,-112,8149,-1,-1,0
-13.13,6.33,-0.79,898,-127,8152,0,-1,0
-13.13,6.34,-0.79,906,-126,8143,0,-1,0
-13.13,6.35,-0.78,913,-120,8146,0,-1,0
-13.13,6.36,-0.77,916,-114,8137,0,-1,-1
-13.13,6.36,-0.77,912,-97,8135,0,-1,0
-13.13,6.36,-0.77,911,-93,8143,-1,-1,0
-13.13,6.36,-0.78,915,-102,8147,-1,-1,0
-13.13,6.36,-0.78,913,-114,8147,-1,-1,0
-13.13,6.37,-0.78,909,-121,8148,0,-1,-1
-13.13,6.37,-0.78,906,-104,8147,0,-1,0
-13.13,6.37,-0.77,903,-101,8148,0,-1,0
-13.13,6.38,-0.76,905,-92,8150,0,-1,-1
-13.13,6.38,-0.76,903,-86,8147,-1,-1,0
-13.14,6.39,-0.76,907,-96,8132,-1,-1,0
-13.14,6.38,-0.77,909,-108,8138,-1,-1,0
-13.14,6.39,-0.77,909,-113,8146,0,-1,0
-13.14,6.39,-0.77,915,-104,8139,0,-1,0
-13.14,6.40,-0.77,917,-104,8144,-1,-1,0
-13.14,6.40,-0.77,917,-109,8133,-1,-1,0
-13.14,6.41,-0.77,916,-120,8136,0,-1,0
-13.14,6.41,-0.77,917,-113,8141,0,-1,0
-13.14,6.41,-0.77,919,-102,8141,-1,-1,0
-13.14,6.41,-0.77,916,-98,8143,-1,-1,0
-13.14,6.41,-0.77,909,-106,8147,-1,-1,0
-13.14,6.41,-0.77,911,-115,8137,0,-1,0
-13.14,6.41,-0.77,915,-111,8130,0,-1,0
-13.14,6.42,-0.77,916,-108,8135,0,-1,0
-13.14,6.42,-0.77,915,-98,8144,0,-1,0
-13.15,6.42,-0.77,915,-96,8148,-1,-1,0
-13.15,6.43,-0.77,912,-104,8141,-1,-1,0
-13.15,6.43,-0.77,913,-106,8136,0,-1,0
-13.15,6.43,-0.77,918,-102,8134,0,-1,0
-13.15,6.44,-0.76,922,-108,8130,0,-1,-1
-13.15,6.44,-0.76,927,-109,8132,0,-1,0
-13.15,6.44,-0.76,923,-107,8140,-1,-1,0
-13.15,6.44,-0.76,916,-109,8142,-1,0,-1
-13.15,6.44,-0.77,918,-113,8149,-1,-1,0
-13.15,6.44,-0.77,923,-114,8152,-1,-1,0
-13.15,6.44,-0.77,919,-116,8146,-1,0,0
-13.15,6.44,-0.77,919,-110,8151,0,-1,0
-13.15,6.45,-0.77,921,-105,8157,0,-1,0
-13.15,6.45,-0.77,927,-100,8147,0,0,0
-13.15,6.45,-0.77,924,-110,8144,-1,0,0
-13.16,6.45,-0.77,923,-112,8143,0,-1,-1
-13.16,6.45,-0.77,911,-104,8132,-1,-1,0
-13.16,6.45,-0.77,916,-106,8141,-1,-1,0
-13.16,6.45,-0.77,921,-99,8144,0,0,-1
-13.16,6.45,-0.77,921,-99,8147,-1,-1,0
-13.16,6.45,-0.77,916,-113,8147,-1,-1,0
-13.16,6.46,-0.77,921,-117,8139,0,-1,0
-13.16,6.46,-0.77,914,-113,8139,0,-1,0
-13.16,6.46,-0.77,925,-108,8132,0,0,-1
-13.16,6.46,-0.76,928,-100,8129,0,0,-1
-13.16,6.45,-0.76,923,-91,8142,-1,0,0
-13.16,6.45,-0.77,918,-106,8146,-1,0,0
-13.16,6.45,-0.77,916,-112,8152,-1,-1,-1
-13.16,6.46,-0.77,915,-119,8142,0,-1,-1
-13.16,6.46,-0.77,922,-113,8143,0,0,0
-13.16,6.46,-0.77,920,-112,8139,0,-1,-1
-13.16,6.46,-0.77,921,-119,8141,0,0,0
-13.16,6.46,-0.77,925,-107,8143,-1,-1,0
-13.16,6.46,-0.77,933,-117,8147,-1,-1,0
-13.16,6.46,-0.77,932,-113,8139,0,-1,0
-13.16,6.46,-0.77,928,-114,8136,0,-1,0
-13.16,6.46,-0.77,931,-114,8140,-1,0,0
-13.16,6.46,-0.77,931,-116,8150,0,0,-1
-13.16,6.46,-0.77,932,-116,8136,0,0,0
-13.16,6.47,-0.78,934,-116,8137,0,0,0
-13.16,6.46,-0.77,927,-117,8138,0,0,-1
-13.16,6.46,-0.77,921,-102,8131,0,0,0
-13.16,6.46,-0.77,922,-99,8134,-1,-1,0
-13.16,6.46,-0.77,921,-105,8144,-1,0,0
-13.16,6.46,-0.78,921,-116,8141,0,0,0
-13.16,6.46,-0.78,923,-122,8140,0,0,0
-13.16,6.46,-0.77,915,-119,8149,0,0,0
-13.16,6.46,-0.77,919,-106,8151,0,-1,-1
-13.16,6.46,-0.77,921,-100,8142,-1,-1,0
-13.16,6.46,-0.77,923,-100,8138,-1,-1,0
-13.16,6.46,-0.77,925,-108,8140,-1,0,0
-13.16,6.46,-0.77,926,-121,8143,0,-1,0
-13.16,6.46,-0.77,928,-120,8143,0,0,-1
-13.16,6.46,-0.77,932,-110,8143,0,0,-1
-13.16,6.46,-0.77,918,-95,8143,0,0,0
-13.16,6.46,-0.77,928,-102,8141,-1,0,0
-13.16,6.46,-0.77,929,-112,8140,-1,0,0
-13.16,6.46,-0.77,922,-119,8138,-1,0,0
-13.16,6.46,-0.77,916,-118,8145,0,0,0
-13.16,6.46,-0.77,922,-115,8141,0,0,-1
-13.16,6.46,-0.77,923,-113,8144,0,0,-1
-13.16,6.46,-0.77,928,-108,8133,0,0,-1
-13.16,6.46,-0.77,926,-101,8140,-1,0,-1
-13.16,6.46,-0.77,931,-107,8141,-1,0,0
-13.16,6.46,-0.77,930,-109,8136,0,0,-1
-13.16,6.46,-0.77,938,-105,8143,0,0,0
-13.16,6.46,-0.76,940,-99,8140,0,0,0
-13.16,6.46,-0.76,941,-100,8134,-1,0,0
-13.16,6.46,-0.76,925,-95,8141,-1,0,0
-13.16,6.46,-0.77,921,-102,8148,-1,0,0
-13.16,6.46,-0.77,919,-107,8141,-1,0,0
-13.16,6.46,-0.77,925,-117,8146,0,-1,0
-13.16,6.46,-0.77,934,-118,8135,0,0,0
-13.16,6.46,-0.76,932,-114,8137,0,0,-1
-13.16,6.46,-0.75,935,-106,8134,0,0,-1
-13.16,6.46,-0.75,925,-98,8139,-1,0,-1
-13.16,6.46,-0.75,921,-104,8141,-1,-1,0
-13.16,6.46,-0.75,917,-102,8133,-1,-1,0
-13.16,6.46,-0.76,920,-104,8133,-1,-1,-1
-13.16,6.46,-0.76,924,-114,8136,0,0,-1
-13.16,6.46,-0.76,928,-104,8142,0,0,-1
-13.16,6.45,-0.75,928,-93,8141,-1,0,-1
-13.16,6.46,-0.75,930,-96,8135,-1,0,0
-13.16,6.46,-0.75,928,-101,8132,-1,0,0
-13.16,6.45,-0.76,923,-99,8131,-1,0,0
-13.16,6.45,-0.76,920,-102,8139,-1,-1,0
-13.16,6.46,-0.76,927,-99,8136,0,-1,0
-13.16,6.46,-0.76,929,-106,8135,-1,0,0
-13.16,6.46,-0.76,927,-115,8134,0,0,-1
-13.16,6.45,-0.76,928,-106,8125,0,0,-1
-13.16,6.45,-0.76,934,-107,8122,0,0,-1
-13.16,6.45,-0.76,931,-101,8139,-1,0,-1
-13.16,6.44,-0.76,923,-105,8139,-1,0,0
-13.16,6.44,-0.76,923,-114,8138,-1,0,0
-13.16,6.44,-0.76,927,-115,8138,0,0,-1
-13.16,6.44,-0.76,932,-108,8138,0,0,-1
-13.16,6.43,-0.75,925,-98,8151,0,0,0
-13.16,6.43,-0.75,925,-94,8141,0,0,0
-13.16,6.42,-0.76,919,-105,8146,-1,0,0
-13.16,6.42,-0.76,918,-109,8152,-1,-1,0
-13.16,6.42,-0.76,922,-113,8148,0,0,0
-13.16,6.42,-0.76,917,-104,8145,-1,0,0
-13.16,6.42,-0.76,921,-106,8134,0,0,0
-13.16,6.42,-0.76,925,-102,8135,-1,0,0
-13.16,6.41,-0.76,928,-102,8136,-1,0,0
-13.16,6.41,-0.76,930,-124,8141,0,0,0
-13.16,6.41,-0.75,917,-102,8151,0,0,0
-13.16,6.41,-0.76,914,-91,8151,-1,0,0
-13.17,6.41,-0.78,917,-110,8150,-1,-1,0
-13.17,6.40,-0.78,928,-119,8128,-1,0,-1
-13.16,6.39,-0.79,921,-129,8131,-1,0,-1
-13.16,6.38,-0.79,917,-112,8138,0,0,-1
-13.15,6.38,-0.78,918,-94,8152,0,0,-1
-13.15,6.38,-0.77,928,-85,8147,0,0,-1
-13.15,6.37,-0.77,921,-91,8157,-1,0,0
-13.15,6.37,-0.78,914,-100,8157,-1,0,0
-13.15,6.37,-0.78,908,-113,8154,-1,0,0
-13.15,6.37,-0.78,906,-121,8152,0,0,0
-13.15,6.37,-0.78,915,-124,8150,0,0,-1
-13.15,6.37,-0.77,922,-109,8149,0,0,-1
-13.15,6.36,-0.76,921,-97,8136,0,0,0
-13.15,6.36,-0.76,915,-96,8130,-1,0,0
-13.15,6.36,-0.77,906,-112,8134,-1,0,-1
-13.15,6.36,-0.78,907,-116,8135,0,-1,-1
-13.15,6.36,-0.77,910,-109,8131,0,0,-1
-13.15,6.36,-0.77,909,-105,8135,0,0,-1
-13.15,6.36,-0.77,908,-108,8141,0,0,-1
-13.15,6.36,-0.77,908,-107,8148,0,0,0
-13.14,6.36,-0.77,911,-102,8150,-1,-1,0
-13.14,6.36,-0.77,912,-113,8140,-1,0,-1
-13.15,6.36,-0.77,912,-112,8135,0,0,0
-13.15,6.36,-0.77,909,-102,8146,-1,-1,0
-13.15,6.36,-0.77,911,-112,8156,-1,-1,0
-13.15,6.37,-0.77,923,-117,8147,-1,-1,-1
-13.15,6.37,-0.78,921,-122,8134,-1,-1,0
-13.15,6.38,-0.78,921,-126,8124,0,0,0
-13.15,6.38,-0.78,916,-120,8132,0,0,-1
-13.15,6.38,-0.78,916,-112,8137,0,0,-1
-13.15,6.38,-0.77,916,-111,8135,-1,-1,0
-13.15,6.38,-0.78,914,-105,8138,-1,-1,0
-13.15,6.38,-0.78,920,-104,8134,-1,-1,0
-13.15,6.38,-0.78,916,-106,8136,0,-1,-1
-13.15,6.39,-0.78,916,-112,8130,-1,-1,0
-13.15,6.39,-0.78,913,-100,8137,0,-1,0
-13.15,6.39,-0.77,911,-103,8143,0,-1,0
-13.15,6.40,-0.77,914,-100,8142,-1,-1,0
-13.15,6.40,-0.77,913,-105,8142,-1,0,0
-13.15,6.40,-0.78,913,-115,8141,0,-1,0
-13.15,6.40,-0.78,919,-116,8133,0,-1,0
-13.16,6.41,-0.78,926,-115,8146,-1,-1,0
-13.16,6.42,-0.78,928,-108,8139,0,-1,-1
-13.16,6.42,-0.78,920,-104,8134,0,-1,0
-13.16,6.42,-0.78,923,-112,8139,-1,0,0
-13.16,6.42,-0.78,919,-110,8143,0,0,-1
-13.16,6.42,-0.78,918,-107,8144,0,-1,0
-13.16,6.42,-0.78,922,-114,8144,0,0,0
-13.16,6.42,-0.77,922,-118,8148,0,-1,0
-13.16,6.42,-0.77,919,-108,8140,0,0,-1
-13.16,6.42,-0.76,915,-94,8147,0,0,0
-13.16,6.42,-0.76,921,-90,8146,-1,-1,0
-13.16,6.43,-0.76,926,-87,8138,-1,-1,0
-13.16,6.44,-0.76,925,-93,8140,-1,-1,0
-13.16,6.43,-0.77,921,-109,8142,-1,-1,0
-13.16,6.43,-0.78,921,-116,8142,-1,-1,0
-13.16,6.44,-0.78,926,-126,8145,0,-1,0
-13.16,6.44,-0.78,932,-128,8140,0,0,0
-13.16,6.45,-0.77,935,-126,8132,0,-1,-1
-13.16,6.45,-0.77,943,-110,8130,0,0,-1
-13.16,6.45,-0.77,935,-102,8126,-1,0,0
-13.16,6.45,-0.77,925,-91,8137,-1,0,0
-13.16,6.45,-0.77,926,-101,8137,-1,-1,-1
-13.16,6.45,-0.77,924,-108,8143,-1,0,0
-13.16,6.45,-0.77,914,-111,8146,-1,0,0
-13.16,6.45,-0.77,924,-113,8143,0,0,-1
-13.16,6.45,-0.77,925,-123,8140,0,0,-1
-13.16,6.45,-0.77,927,-111,8144,0,-1,-1
-13.16,6.46,-0.77,923,-103,8134,0,-1,-1
-13.16,6.46,-0.77,919,-104,8145,-1,-1,0
-13.16,6.46,-0.77,924,-105,8144,0,-1,0
-13.16,6.46,-0.77,935,-114,8137,0,-1,0
-13.16,6.46,-0.77,932,-119,8151,-1,-1,0
-13.16,6.46,-0.78,931,-123,8148,0,0,0
-13.16,6.46,-0.77,924,-109,8146,0,0,0
-13.16,6.46,-0.77,922,-107,8150,0,0,-1
-13.16,6.46,-0.77,920,-104,8148,0,0,0
-13.16,6.46,-0.77,920,-98,8140,-1,0,0
-13.16,6.46,-0.77,925,-105,8145,-1,0,0
-13.17,6.45,-0.78,919,-110,8141,-1,0,0
-13.17,6.46,-0.78,925,-116,8141,0,0,-1
-13.16,6.46,-0.77,925,-117,8141,0,0,-1
-13.16,6.46,-0.77,930,-99,8135,0,0,0
-13.16,6.46,-0.77,925,-97,8137,-1,0,0
-13.16,6.46,-0.77,930,-104,8131,-1,0,0
-13.17,6.46,-0.78,926,-115,8141,-1,0,0
-13.17,6.45,-0.78,920,-117,8138,0,0,0
-13.17,6.46,-0.78,924,-119,8141,0,-1,0
-13.17,6.46,-0.78,923,-114,8136,0,-1,-1
-13.17,6.46,-0.78,928,-113,8141,0,0,-1
-13.17,6.46,-0.78,929,-104,8139,-1,0,0
-13.17,6.46,-0.78,928,-106,8137,-1,0,0
-13.17,6.45,-0.78,926,-103,8142,-1,0,0
-13.17,6.46,-0.78,926,-112,8141,0,0,0
-13.17,6.46,-0.78,927,-111,8152,0,0,0
-13.17,6.46,-0.78,930,-110,8142,0,0,0
-13.17,6.46,-0.78,933,-107,8137,0,0,0
-13.17,6.46,-0.78,926,-112,8129,-1,0,0
-13.17,6.45,-0.78,920,-109,8144,-1,0,0
-13.17,6.46,-0.78,932,-116,8155,0,-1,0
-13.17,6.46,-0.78,931,-115,8147,0,0,0
-13.18,6.46,-0.77,927,-106,8144,0,-1,0
-13.18,6.46,-0.78,930,-104,8134,-1,0,0
-13.18,6.46,-0.78,922,-106,8135,-1,0,-1
-13.18,6.46,-0.78,924,-112,8136,0,0,-1
-13.18,6.46,-0.77,917,-111,8140,0,0,-1
-13.18,6.45,-0.78,918,-120,8156,-1,0,0
-13.18,6.45,-0.78,926,-122,8148,0,-1,0
-13.18,6.46,-0.78,932,-117,8146,0,-1,-1
-13.18,6.46,-0.77,942,-107,8136,0,0,-1
-13.17,6.46,-0.77,938,-104,8124,0,0,-1
-13.17,6.46,-0.76,927,-98,8119,0,0,0
-13.17,6.46,-0.77,928,-103,8145,-1,0,0
-13.17,6.46,-0.77,921,-114,8152,-1,-1,-1
-13.17,6.46,-0.77,921,-121,8149,0,-1,-1
-13.17,6.46,-0.77,919,-118,8145,0,0,0
-13.17,6.46,-0.77,930,-110,8136,0,0,-1
-13.17,6.45,-0.77,927,-111,8136,0,0,-1
-13.17,6.45,-0.77,926,-108,8138,0,0,0
-13.17,6.45,-0.77,923,-107,8134,0,0,0
-13.17,6.44,-0.77,918,-104,8135,0,0,0
-13.17,6.44,-0.77,917,-105,8143,-1,0,0
-13.17,6.44,-0.77,912,-107,8149,0,0,0
-13.17,6.44,-0.77,919,-114,8141,-1,0,-1
-13.17,6.44,-0.77,924,-119,8129,0,0,-1
-13.17,6.44,-0.76,922,-115,8127,0,0,0
-13.17,6.44,-0.76,918,-103,8133,0,0,0
-13.17,6.43,-0.76,912,-102,8136,0,0,-1
-13.17,6.43,-0.76,915,-98,8141,-1,0,0
-13.17,6.43,-0.77,919,-114,8142,-1,0,0
-13.17,6.42,-0.77,922,-119,8142,0,0,0
-13.17,6.42,-0.77,928,-123,8146,0,0,-1
-13.17,6.42,-0.76,928,-106,8148,0,0,-1
-13.16,6.42,-0.76,924,-96,8155,0,0,-1
-13.16,6.42,-0.76,923,-98,8147,-1,0,0
-13.16,6.41,-0.76,919,-101,8145,-1,0,-1
-13.16,6.41,-0.76,915,-112,8143,-1,0,-1
-13.16,6.41,-0.76,924,-114,8150,0,0,-1
-13.16,6.41,-0.76,925,-113,8146,0,0,0
-13.16,6.41,-0.76,924,-102,8148,0,0,-1
-13.16,6.41,-0.76,927,-97,8160,-1,0,0
-13.16,6.41,-0.76,921,-100,8139,-1,0,-1
-13.16,6.40,-0.77,917,-100,8141,-1,0,0
-13.16,6.40,-0.77,922,-104,8145,-1,0,0
-13.16,6.40,-0.77,920,-107,8146,0,0,-1
-13.16,6.39,-0.77,918,-109,8155,0,0,0
-13.16,6.39,-0.77,916,-102,8153,0,0,-1
-13.16,6.39,-0.77,905,-100,8147,0,0,-1
-13.16,6.38,-0.76,905,-103,8134,0,0,0
-13.16,6.37,-0.76,904,-103,8141,-1,0,0
-13.16,6.37,-0.76,911,-108,8151,0,0,0
-13.16,6.37,-0.76,917,-106,8145,0,0,-1
-13.16,6.37,-0.76,918,-101,8143,0,0,-1
-13.16,6.37,-0.76,921,-94,8140,-1,0,0
-13.16,6.37,-0.76,931,-95,8137,-1,0,0
-13.16,6.36,-0.76,912,-99,8133,-1,0,0
-13.16,6.36,-0.76,895,-106,8148,-1,0,-1
-13.16,6.36,-0.76,900,-116,8149,0,0,0
-13.16,6.36,-0.76,906,-112,8147,0,-1,0
-13.16,6.36,-0.76,917,-112,8134,0,0,0
-13.16,6.36,-0.76,923,-106,8124,0,0,0
-13.17,6.35,-0.76,921,-105,8127,-1,0,0
-13.17,6.35,-0.76,915,-109,8132,-1,0,0
-13.17,6.34,-0.77,911,-112,8140,0,0,0
-13.17,6.34,-0.77,898,-104,8149,-1,0,0
-13.17,6.33,-0.77,901,-101,8148,-1,0,0
-13.17,6.33,-0.77,909,-105,8143,0,0,0
-13.17,6.32,-0.77,905,-110,8140,0,0,0
-13.17,6.32,-0.77,909,-111,8138,0,0,-1
-13.17,6.32,-0.77,911,-104,8130,0,0,-1
-13.17,6.32,-0.77,912,-106,8132,0,0,0
-13.17,6.31,-0.76,906,-105,8135,0,0,0
-13.17,6.31,-0.76,900,-98,8141,-1,0,0
-13.17,6.31,-0.76,905,-108,8143,-1,0,0
-13.17,6.31,-0.77,905,-114,8146,-1,0,0
-13.17,6.31,-0.77,903,-122,8141,0,0,-1
-13.17,6.30,-0.77,906,-116,8135,0,0,-1
-13.17,6.29,-0.77,902,-109,8143,-1,0,0
-13.17,6.29,-0.77,904,-107,8141,-1,0,-1
-13.17,6.29,-0.78,899,-113,8135,-1,0,0
-13.16,6.29,-0.78,894,-122,8142,-1,-1,-1
-13.16,6.29,-0.78,901,-119,8150,0,-1,-1
-13.16,6.29,-0.77,899,-108,8143,0,-1,-1
-13.15,6.29,-0.76,901,-100,8148,0,-1,-1
-13.15,6.30,-0.75,902,-96,8143,0,-1,-1
-13.15,6.30,-0.75,894,-98,8144,0,-1,0
-13.15,6.30,-0.75,900,-103,8150,0,-1,0
-13.15,6.30,-0.76,904,-112,8144,0,-1,-1
-13.15,6.31,-0.75,904,-109,8144,0,-1,0
-13.16,6.31,-0.74,907,-107,8150,0,-1,0
-13.16,6.32,-0.74,906,-95,8141,0,-1,-1
-13.16,6.32,-0.74,907,-96,8144,-1,-1,-1
-13.15,6.32,-0.75,908,-110,8152,-1,-1,0
-13.15,6.32,-0.75,902,-114,8140,-1,-1,-1
-13.15,6.33,-0.76,901,-123,8135,0,-1,0
-13.15,6.33,-0.75,896,-115,8150,0,-1,-1
-13.15,6.34,-0.75,900,-122,8156,0,-1,0
-13.15,6.34,-0.75,898,-114,8148,0,-1,-1
-13.16,6.35,-0.75,900,-103,8147,0,-1,0
-13.16,6.35,-0.75,911,-99,8150,-1,-1,0
-13.16,6.36,-0.75,911,-100,8151,-1,-1,0
-13.16,6.37,-0.75,910,-100,8152,-1,-1,0
-13.16,6.37,-0.76,909,-109,8159,-1,-1,0
-13.16,6.38,-0.76,905,-116,8142,0,-1,0
-13.16,6.39,-0.75,910,-113,8146,0,-1,0
-13.16,6.40,-0.75,916,-105,8135,0,-1,-1
-13.17,6.40,-0.74,914,-95,8133,0,-1,0
-13.17,6.40,-0.74,910,-91,8135,-1,-1,0
-13.17,6.41,-0.74,922,-99,8137,-1,-1,0
-13.17,6.41,-0.75,908,-116,8138,-1,-1,0
-13.17,6.42,-0.76,912,-124,8137,0,-1,-1
-13.16,6.42,-0.75,904,-110,8132,0,-1,-1
-13.17,6.42,-0.74,907,-96,8138,-1,-1,0
-13.17,6.42,-0.74,916,-92,8140,-1,-1,0
-13.17,6.43,-0.74,913,-86,8140,0,-1,0
-13.17,6.43,-0.74,919,-89,8144,-1,-1,0
-13.17,6.44,-0.74,921,-97,8146,-1,-1,0
-13.17,6.44,-0.74,918,-98,8139,0,-1,0
-13.17,6.45,-0.74,919,-99,8142,0,-1,0
-13.17,6.45,-0.74,916,-104,8145,-1,-1,0
-13.17,6.46,-0.74,922,-106,8140,-1,-1,0
-13.18,6.46,-0.75,922,-116,8141,-1,-1,0
-13.18,6.47,-0.75,922,-113,8140,0,-1,0
-13.18,6.47,-0.74,928,-112,8148,0,-1,-1
-13.18,6.47,-0.74,931,-104,8144,0,-1,-1
-13.18,6.47,-0.74,934,-105,8153,-1,-1,0
-13.18,6.47,-0.74,928,-106,8160,-1,-1,0
-13.18,6.47,-0.75,918,-111,8147,-1,-1,0
