Yaw,Pitch,Roll,AX,AY,AZ,GX,GY,GZ
-20.20,2.09,14.56,315,2050,7893,0,0,0
-20.20,2.09,14.56,310,2052,7897,-1,-1,-1
-20.20,2.09,14.56,314,2051,7900,-1,0,-1
-20.20,2.09,14.55,297,2051,7908,-1,0,-1
-20.20,2.09,14.55,300,2050,7901,0,-1,-1
-20.19,2.09,14.56,299,2054,7898,0,-1,-1
-20.20,2.10,14.56,303,2052,7900,0,-1,0
-20.20,2.10,14.56,307,2048,7892,0,-1,-1
-20.20,2.10,14.56,305,2048,7884,0,0,-1
-20.19,2.10,14.56,300,2049,7877,0,-1,-1
-20.19,2.09,14.56,308,2052,7886,0,0,-1
-20.19,2.09,14.56,307,2067,7881,-1,0,-1
-20.19,2.09,14.56,304,2062,7879,-1,0,-1
-20.18,2.09,14.56,308,2045,7896,0,-1,-1
-20.18,2.10,14.57,323,2049,7889,0,0,-1
-20.17,2.10,14.58,315,2065,7868,0,0,-1
-20.17,2.10,14.58,327,2045,7886,0,0,-1
-20.17,2.09,14.58,321,2044,7876,0,0,-1
-20.16,2.09,14.58,316,2045,7889,-1,0,-1
-20.16,2.10,14.58,308,2036,7898,0,-1,-1
-20.16,2.09,14.58,299,2043,7889,0,0,-1
-20.15,2.09,14.59,289,2059,7896,0,-1,-1
-20.15,2.10,14.60,316,2054,7896,0,-1,0
-20.16,2.10,14.61,308,2077,7885,-1,0,0
-20.16,2.10,14.61,319,2060,7907,0,-1,0
-20.16,2.10,14.61,307,2070,7913,0,-1,0
-20.17,2.12,14.61,307,2046,7904,0,-1,0
-20.18,2.12,14.61,308,2058,7888,-1,0,0
-20.18,2.13,14.61,321,2041,7891,-1,-1,0
-20.20,2.12,14.61,288,2047,7888,0,0,0
-20.20,2.13,14.61,313,2055,7876,0,-1,0
-20.20,2.14,14.61,307,2060,7876,-1,-1,-1
-20.21,2.15,14.60,322,2054,7889,-1,-1,0
-20.23,2.15,14.59,320,2045,7874,-1,0,0
-20.23,2.14,14.59,326,2034,7847,0,1,-1
-20.23,2.13,14.59,274,2036,7906,-1,-1,0
-20.24,2.15,14.59,326,2001,7857,0,0,-1
-20.23,2.13,14.61,299,2061,7877,-1,0,-1
-20.23,2.13,14.61,285,2047,7865,0,-1,0
-20.24,2.13,14.61,352,2096,7894,-1,1,-1
-20.23,2.12,14.60,267,2054,7895,-1,-1,0
-20.24,2.13,14.60,349,2054,7897,0,0,-1
-20.23,2.11,14.60,273,2062,7865,-1,0,-1
-20.23,2.10,14.59,326,2027,7863,0,0,-1
-20.21,2.07,14.60,286,2062,7866,-1,0,-1
-20.21,2.07,14.59,301,2043,7853,0,0,-1
-20.20,2.05,14.60,302,2066,7878,-1,0,-1
-20.19,2.04,14.59,303,2062,7873,-1,0,-1
-20.18,2.03,14.59,319,2067,7882,-1,0,-1
-20.17,2.02,14.58,319,2049,7896,-1,0,-1
-20.16,2.01,14.56,288,2032,7903,-1,0,-1
-20.15,1.99,14.56,287,2030,7902,-1,0,-1
-20.15,1.98,14.55,280,2038,7901,0,0,-1
-20.14,1.97,14.56,293,2055,7896,-1,0,-1
-20.13,1.97,14.56,292,2062,7893,-1,0,-1
-20.13,1.96,14.56,288,2055,7906,-1,0,-1
-20.13,1.96,14.55,284,2053,7902,-1,0,-1
-20.12,1.96,14.55,286,2047,7892,-1,0,-1
-20.12,1.96,14.55,292,2049,7876,0,0,-1
-20.12,1.95,14.55,290,2051,7879,-1,0,-1
-20.12,1.94,14.55,286,2046,7879,-1,0,-1
-20.11,1.94,14.53,282,2032,7897,-1,0,-1
-20.11,1.93,14.53,275,2029,7896,0,0,-1
-20.10,1.92,14.54,276,2041,7883,0,0,-1
-20.10,1.92,14.54,284,2049,7887,-1,0,-1
-20.09,1.92,14.54,290,2047,7893,-1,0,-1
-20.09,1.91,14.53,285,2048,7894,-1,0,-1
-20.09,1.91,14.53,275,2046,7894,-1,0,-1
-20.08,1.90,14.53,277,2038,7890,0,0,-1
-20.07,1.89,14.53,271,2048,7891,0,0,-1
-20.07,1.89,14.53,281,2055,7890,0,0,-1
-20.07,1.89,14.54,275,2063,7891,0,0,-1
-20.05,1.88,14.55,275,2066,7897,0,0,-1
-20.04,1.87,14.56,260,2073,7901,-1,-1,-1
-20.03,1.88,14.55,262,2032,7903,0,-1,-1
-20.03,1.89,14.56,303,2028,7904,0,0,-1
-20.03,1.88,14.56,275,2052,7902,-1,-1,0
-20.03,1.89,14.57,254,2053,7872,0,-1,0
-20.04,1.89,14.57,281,2045,7896,-1,-1,0
-20.05,1.90,14.56,280,2037,7889,0,-1,0
-20.05,1.91,14.59,280,2081,7903,0,-1,0
-20.06,1.92,14.58,315,2081,7850,-2,1,0
-20.07,1.89,14.54,259,2045,7887,-1,0,0
-20.09,1.91,14.53,288,1997,7887,0,-1,0
-20.08,1.90,14.55,261,2068,7893,0,-1,-1
-20.08,1.91,14.55,276,2044,7915,-1,0,0
-20.10,1.92,14.54,269,2028,7869,0,0,0
-20.11,1.92,14.56,278,2065,7896,-1,-1,0
-20.12,1.93,14.54,299,2042,7882,-1,0,0
-20.12,1.93,14.55,274,2057,7852,0,0,-1
-20.12,1.91,14.54,242,2031,7869,-1,0,-1
-20.13,1.93,14.54,270,2021,7896,0,-1,0
-20.13,1.93,14.54,294,2035,7866,0,0,-1
-20.12,1.92,14.56,256,2055,7879,0,-1,-1
-20.13,1.93,14.56,290,2027,7875,-1,-1,0
-20.13,1.93,14.56,300,2063,7874,0,0,-1
-20.12,1.92,14.57,283,2076,7870,-1,0,0
-20.12,1.91,14.56,289,2049,7878,-1,0,-1
-20.12,1.91,14.55,262,2040,7881,0,-1,-1
-20.12,1.92,14.56,273,2034,7884,0,-1,0
-20.12,1.92,14.57,269,2066,7881,-1,-1,-1
-20.12,1.92,14.57,282,2061,7876,-1,-1,0
-20.12,1.92,14.56,281,2047,7868,-1,0,0
-20.13,1.92,14.55,279,2048,7890,-1,-1,-1
-20.12,1.92,14.55,271,2042,7887,0,-1,-1
-20.12,1.94,14.56,287,2050,7895,0,-1,-1
-20.11,1.94,14.57,286,2071,7895,-1,-1,-1
-20.11,1.94,14.56,284,2068,7892,-1,-1,0
-20.12,1.94,14.55,287,2054,7893,-1,0,0
-20.12,1.94,14.55,289,2032,7896,-1,-1,0
-20.12,1.94,14.55,287,2034,7880,0,-1,-1
-20.12,1.94,14.55,286,2041,7879,0,0,-1
-20.12,1.94,14.55,282,2062,7891,0,0,-1
-20.11,1.94,14.56,286,2067,7891,-1,0,-1
-20.11,1.94,14.56,282,2061,7899,-1,0,-1
-20.12,1.94,14.55,277,2050,7895,-1,-1,0
-20.12,1.94,14.55,284,2045,7881,-1,-1,0
-20.12,1.94,14.55,282,2038,7879,0,-1,-1
-20.12,1.94,14.55,285,2039,7879,0,-1,-1
-20.12,1.95,14.55,285,2044,7893,-1,0,-1
-20.12,1.95,14.55,290,2045,7900,0,-1,0
-20.12,1.95,14.55,290,2052,7896,-1,-1,0
-20.12,1.95,14.54,285,2047,7888,-1,-1,0
-20.12,1.96,14.54,283,2037,7888,0,-1,0
-20.13,1.96,14.54,286,2042,7886,0,-1,0
-20.13,1.97,14.54,290,2051,7882,0,-1,0
-20.13,1.97,14.55,293,2059,7886,-1,0,-1
-20.13,1.97,14.54,289,2045,7887,-1,0,0
-20.13,1.97,14.54,291,2037,7901,-1,-1,-1
-20.13,1.98,14.53,293,2039,7894,0,-1,-1
-20.13,1.98,14.54,290,2053,7891,0,-1,-1
-20.13,1.98,14.55,295,2062,7886,-1,-1,0
-20.13,1.99,14.55,301,2060,7882,-1,-1,0
-20.13,1.99,14.55,295,2054,7892,-1,-1,0
-20.13,1.99,14.54,301,2052,7893,-1,0,0
-20.14,2.00,14.54,293,2040,7887,0,-1,0
-20.13,2.00,14.54,296,2045,7889,0,-1,0
-20.13,2.00,14.54,294,2044,7894,0,-1,-1
-20.14,2.00,14.54,287,2043,7894,0,-1,0
-20.14,2.01,14.54,289,2045,7886,-1,-1,-1
-20.14,2.01,14.54,283,2049,7886,-1,-1,0
-20.14,2.01,14.54,276,2038,7896,-1,-1,0
-20.14,2.01,14.54,285,2038,7887,0,-1,-1
-20.14,2.01,14.54,286,2040,7881,0,-1,0
-20.14,2.01,14.54,286,2039,7879,0,-1,0
-20.14,2.01,14.55,298,2045,7872,0,-1,0
-20.15,2.02,14.55,295,2057,7877,0,-1,-1
-20.15,2.02,14.55,292,2062,7887,-1,-1,-1
-20.15,2.02,14.55,288,2059,7888,-1,-1,-1
-20.14,2.02,14.55,288,2054,7905,-1,-1,-1
-20.14,2.03,14.55,289,2048,7895,0,-1,-1
-20.15,2.04,14.55,299,2057,7892,0,-1,-1
-20.15,2.04,14.55,298,2048,7885,-1,-1,0
-20.16,2.04,14.55,307,2039,7884,0,-1,0
-20.16,2.04,14.55,305,2044,7898,-1,-1,-1
-20.16,2.05,14.55,300,2038,7897,0,-1,-1
-20.16,2.06,14.56,293,2054,7886,0,-1,-1
-20.16,2.06,14.56,295,2051,7884,-1,-1,0
-20.16,2.06,14.55,295,2051,7882,-1,0,0
-20.16,2.06,14.54,295,2040,7894,-1,0,0
-20.17,2.06,14.54,293,2042,7900,0,-1,0
-20.17,2.06,14.54,301,2047,7894,0,-1,0
-20.17,2.07,14.55,306,2058,7881,-1,-1,0
-20.18,2.07,14.55,311,2058,7885,-1,0,0
-20.18,2.07,14.55,306,2060,7886,-1,-1,0
-20.18,2.08,14.54,306,2048,7891,-1,-1,0
-20.18,2.08,14.54,299,2041,7888,0,-1,0
-20.18,2.09,14.54,306,2044,7892,0,-1,0
-20.19,2.09,14.54,305,2052,7898,0,-1,0
-20.19,2.10,14.55,303,2059,7902,0,-1,0
-20.19,2.10,14.55,305,2057,7892,-1,0,0
-20.19,2.10,14.56,302,2052,7886,0,-1,0
-20.20,2.10,14.55,311,2046,7891,-1,-1,0
-20.20,2.10,14.55,310,2039,7892,0,-1,0
-20.20,2.11,14.55,305,2038,7892,0,-1,0
-20.20,2.11,14.55,305,2036,7894,0,-1,0
-20.20,2.11,14.55,299,2049,7888,0,-1,0
-20.21,2.11,14.55,303,2047,7885,0,-1,0
-20.21,2.11,14.55,305,2050,7894,-1,0,0
-20.21,2.11,14.55,304,2045,7891,-1,0,0
-20.22,2.11,14.54,301,2041,7892,-1,-1,0
-20.22,2.11,14.54,300,2044,7902,0,-1,-1
-20.22,2.11,14.55,302,2055,7895,0,0,-1
-20.22,2.11,14.55,302,2064,7886,0,-1,0
-20.22,2.11,14.55,307,2061,7883,-1,-1,0
-20.22,2.12,14.55,309,2054,7886,0,0,-1
-20.22,2.11,14.55,314,2050,7892,0,0,-1
-20.22,2.11,14.55,309,2048,7895,-1,0,-1
-20.22,2.11,14.55,295,2039,7889,0,0,-1
-20.22,2.11,14.55,295,2028,7879,0,-1,-1
-20.21,2.11,14.55,313,2037,7871,0,0,-1
-20.21,2.11,14.55,309,2045,7877,0,0,-1
-20.20,2.10,14.56,305,2046,7881,-1,0,-1
-20.20,2.10,14.55,305,2040,7891,-1,0,-1
-20.20,2.10,14.54,295,2030,7896,0,0,-1
-20.20,2.09,14.55,299,2043,7890,0,0,-1
-20.20,2.09,14.55,292,2047,7884,0,-1,-1
-20.19,2.09,14.56,303,2042,7873,0,-1,-1
-20.20,2.10,14.56,314,2043,7877,0,0,-1
-20.19,2.10,14.56,318,2049,7878,-1,0,-1
-20.19,2.09,14.56,310,2043,7880,-1,0,-1
-20.19,2.08,14.56,296,2041,7892,0,0,-1
-20.18,2.08,14.56,294,2043,7892,0,-1,-1
-20.18,2.08,14.56,295,2043,7889,0,0,-1
-20.18,2.08,14.55,295,2043,7889,0,0,-1
-20.18,2.08,14.55,294,2041,7885,0,0,-1
-20.17,2.07,14.56,296,2042,7890,0,-1,-1
-20.17,2.07,14.57,294,2054,7890,0,0,-1
-20.16,2.07,14.57,300,2063,7879,0,-1,-1
-20.16,2.07,14.57,300,2066,7874,-1,0,-1
-20.15,2.06,14.57,296,2056,7883,-1,0,-1
-20.16,2.06,14.56,296,2044,7891,-1,-1,-1
-20.16,2.06,14.56,307,2030,7886,0,0,-1
-20.14,2.05,14.58,307,2051,7896,0,0,-1
-20.14,2.06,14.58,307,2040,7887,0,0,-1
-20.13,2.05,14.59,295,2048,7882,0,-1,-1
-20.13,2.05,14.59,317,2050,7890,0,0,-1
-20.12,2.04,14.59,293,2061,7902,0,0,-1
-20.12,2.04,14.59,274,2055,7886,-1,-1,0
-20.13,2.05,14.59,303,2028,7882,0,0,0
-20.13,2.05,14.60,305,2047,7896,0,0,0
-20.12,2.04,14.61,281,2079,7896,0,-1,-1
-20.12,2.05,14.61,306,2041,7885,0,0,0
-20.12,2.04,14.62,280,2064,7902,0,-1,0
-20.13,2.05,14.63,305,2065,7884,0,-1,0
-20.12,2.04,14.63,315,2101,7868,-1,0,-1
-20.12,2.03,14.62,283,2067,7858,-1,0,0
-20.13,2.03,14.61,308,2030,7878,-1,0,-1
-20.12,2.02,14.60,294,2033,7894,0,0,-1
-20.11,2.02,14.63,288,2067,7882,0,0,-1
-20.11,2.01,14.63,287,2077,7883,-1,0,-1
-20.11,2.01,14.61,291,2051,7891,-1,0,0
-20.11,2.00,14.59,275,2039,7902,-1,-1,-1
-20.10,2.00,14.59,290,2027,7899,0,0,-1
-20.10,1.99,14.59,287,2039,7897,0,0,-1
-20.10,1.98,14.60,284,2049,7896,0,0,-1
-20.10,1.98,14.60,293,2054,7896,-1,0,-1
-20.10,1.97,14.59,293,2056,7893,-1,0,-1
-20.09,1.97,14.59,282,2057,7893,-1,0,-1
-20.09,1.96,14.59,281,2061,7893,0,0,-1
-20.09,1.96,14.59,290,2053,7886,0,0,-1
-20.09,1.96,14.59,291,2051,7888,0,0,-1
-20.09,1.96,14.59,291,2044,7895,-1,0,-1
-20.08,1.95,14.59,292,2042,7894,-1,0,-1
-20.08,1.94,14.58,289,2036,7885,-1,0,-1
-20.07,1.93,14.58,283,2041,7889,0,0,-1
-20.07,1.93,14.58,284,2059,7886,-1,0,-1
-20.07,1.93,14.58,281,2049,7884,-1,0,-1
-20.08,1.93,14.58,287,2031,7883,-1,0,0
-20.07,1.93,14.57,287,2041,7889,0,0,-1
-20.07,1.93,14.58,287,2049,7887,0,0,-1
-20.06,1.92,14.58,288,2058,7897,-1,0,-1
-20.06,1.91,14.58,289,2061,7892,-1,0,-1
-20.06,1.90,14.57,276,2055,7892,-1,0,-1
-20.05,1.90,14.58,274,2048,7881,0,0,-1
-20.05,1.90,14.58,274,2045,7884,-1,0,-1
-20.05,1.90,14.58,276,2050,7887,0,0,-1
-20.05,1.89,14.58,271,2058,7887,0,0,-1
-20.04,1.89,14.58,276,2052,7889,0,0,-1
-20.04,1.88,14.59,276,2061,7880,0,0,-1
-20.04,1.87,14.58,269,2063,7888,-1,0,-1
-20.04,1.87,14.58,266,2053,7883,-1,0,-1
-20.03,1.87,14.58,264,2056,7885,-1,0,-1
-20.04,1.87,14.57,273,2046,7898,-1,0,-1
-20.03,1.86,14.58,272,2040,7896,0,0,-1
-20.03,1.86,14.58,276,2040,7896,0,0,-1
-20.02,1.85,14.58,282,2058,7895,0,0,-1
-20.02,1.85,14.58,280,2063,7881,-1,0,-1
-20.02,1.84,14.58,270,2053,7886,-1,0,-1
-20.01,1.84,14.57,268,2043,7897,0,0,-1
-20.01,1.84,14.58,263,2038,7886,0,-1,-1
-20.01,1.84,14.59,264,2055,7884,0,-1,-1
-20.00,1.85,14.60,267,2066,7886,0,-1,-1
-20.00,1.85,14.61,273,2065,7887,0,-1,0
-20.01,1.85,14.60,271,2051,7883,-1,-1,0
-20.01,1.85,14.60,275,2046,7889,0,-1,-1
-20.01,1.86,14.60,272,2045,7893,0,-1,-1
-20.01,1.86,14.60,276,2051,7884,0,-1,0
-20.01,1.87,14.61,274,2055,7888,0,-1,0
-20.01,1.87,14.61,275,2060,7890,-1,-1,0
-20.01,1.87,14.61,279,2062,7891,-1,0,-1
-20.01,1.87,14.60,278,2063,7889,-1,-1,-1
-20.02,1.87,14.59,271,2065,7890,-1,0,0
-20.02,1.87,14.59,270,2051,7898,-1,-1,0
-20.03,1.88,14.59,270,2047,7904,0,-1,0
-20.03,1.88,14.59,278,2046,7904,-1,-1,-1
-20.03,1.88,14.59,275,2048,7898,0,-1,0
-20.03,1.88,14.59,265,2062,7907,0,-1,0
-20.03,1.89,14.61,272,2080,7888,0,-1,0
-20.04,1.90,14.60,281,2077,7877,-1,-1,0
-20.04,1.90,14.59,276,2062,7875,-1,-1,0
-20.05,1.90,14.58,271,2041,7889,-1,0,0
-20.05,1.90,14.57,266,2035,7902,0,-1,0
-20.05,1.91,14.58,267,2032,7902,0,-1,-1
-20.05,1.93,14.59,273,2027,7907,0,-1,0
-20.05,1.94,14.60,289,2048,7880,0,-1,0
-20.06,1.95,14.61,295,2079,7888,-1,-1,0
-20.06,1.96,14.60,292,2035,7900,-1,-1,0
-20.06,1.97,14.61,291,2043,7897,0,-1,-1
-20.07,1.97,14.61,271,2075,7888,-1,-1,0
-20.07,1.97,14.61,288,2068,7890,-1,-1,0
-20.07,1.97,14.60,295,2062,7888,-1,0,-1
-20.07,1.96,14.60,277,2061,7884,-1,0,0
-20.07,1.96,14.59,287,2042,7893,-1,-1,0
-20.07,1.96,14.59,282,2032,7890,0,-1,0
-20.07,1.97,14.59,290,2048,7888,0,-1,0
-20.08,1.98,14.59,288,2053,7881,-1,-1,0
-20.08,1.99,14.60,291,2074,7870,0,-1,0
-20.08,1.99,14.60,294,2074,7869,-1,-1,0
-20.08,1.99,14.59,295,2054,7880,-1,-1,0
-20.08,1.99,14.59,293,2046,7885,0,-1,-1
-20.08,1.99,14.59,294,2033,7892,0,0,-1
-20.08,2.00,14.60,300,2050,7885,0,0,-1
-20.08,2.00,14.60,297,2058,7889,-1,0,-1
-20.08,1.99,14.59,299,2054,7888,-1,0,0
-20.09,1.99,14.59,286,2051,7899,-1,0,-1
-20.09,1.99,14.59,290,2047,7895,0,-1,-1
-20.09,2.00,14.59,293,2050,7888,0,0,-1
-20.09,2.00,14.59,289,2060,7896,0,-1,0
-20.09,2.00,14.59,293,2065,7893,0,-1,0
-20.09,2.01,14.60,304,2069,7892,-1,-1,0
-20.09,2.02,14.59,305,2049,7882,-1,-1,-1
-20.09,2.02,14.59,296,2052,7881,0,0,-1
-20.09,2.02,14.59,296,2048,7887,-1,0,0
-20.10,2.02,14.59,301,2038,7890,0,-1,0
-20.10,2.02,14.59,288,2043,7890,0,-1,-1
-20.10,2.02,14.60,291,2056,7880,0,-1,0
-20.10,2.02,14.60,291,2059,7872,0,-1,0
-20.10,2.02,14.60,295,2054,7871,0,0,-1
-20.10,2.02,14.60,294,2060,7877,-1,0,0
-20.11,2.03,14.60,289,2054,7888,0,-1,0
-20.11,2.03,14.60,293,2050,7887,0,-1,-1
-20.11,2.03,14.60,290,2065,7886,-1,-1,0
-20.11,2.03,14.60,293,2066,7888,-1,-1,0
-20.11,2.03,14.60,299,2064,7882,0,-1,0
-20.12,2.04,14.60,294,2052,7885,-1,-1,0
-20.11,2.04,14.59,301,2050,7888,-1,-1,0
-20.12,2.04,14.59,296,2050,7893,0,-1,0
-20.12,2.05,14.59,305,2044,7888,0,-1,-1
-20.12,2.05,14.60,305,2042,7894,0,-1,0
-20.13,2.06,14.60,302,2048,7885,0,-1,0
-20.13,2.06,14.60,306,2053,7887,0,-1,0
-20.13,2.06,14.60,302,2050,7895,-1,0,0
-20.13,2.06,14.59,299,2045,7896,0,-1,-1
-20.13,2.07,14.60,302,2047,7896,0,-1,-1
-20.13,2.07,14.60,293,2056,7894,-1,-1,0
-20.13,2.07,14.60,299,2053,7883,-1,-1,0
-20.13,2.08,14.59,304,2044,7886,0,-1,0
-20.13,2.08,14.59,310,2042,7882,0,-1,0
-20.14,2.08,14.59,310,2046,7877,0,-1,-1
-20.13,2.09,14.60,314,2057,7878,-1,0,-1
-20.13,2.09,14.60,312,2057,7875,-1,0,-1
-20.14,2.08,14.59,301,2050,7881,-1,0,-1
-20.14,2.08,14.59,294,2044,7887,-1,-1,0
-20.14,2.08,14.59,289,2048,7892,0,-1,-1
-20.14,2.09,14.59,296,2051,7889,0,-1,0
-20.14,2.09,14.59,297,2047,7887,0,-1,0
-20.14,2.09,14.59,308,2055,7884,0,-1,0
-20.14,2.10,14.59,308,2055,7878,-1,-1,-1
-20.14,2.10,14.59,305,2051,7885,-1,-1,0
-20.14,2.10,14.59,309,2041,7891,-1,0,-1
-20.14,2.10,14.58,304,2047,7895,-1,-1,0
-20.15,2.10,14.58,300,2050,7899,-1,-1,0
-20.15,2.10,14.58,297,2043,7899,-1,-1,0
-20.15,2.10,14.58,306,2041,7897,0,-1,-1
-20.15,2.11,14.58,308,2056,7880,0,-1,-1
-20.15,2.11,14.58,314,2067,7882,-1,0,0
-20.15,2.11,14.58,315,2068,7877,-1,0,0
-20.15,2.11,14.57,316,2050,7895,-1,0,0
-20.15,2.11,14.57,307,2040,7906,-1,-1,-1
-20.15,2.12,14.57,317,2040,7900,0,-1,-1
-20.15,2.12,14.57,309,2056,7902,0,-1,-1
-20.15,2.13,14.58,319,2060,7893,0,-1,-1
-20.15,2.13,14.58,310,2065,7882,-1,0,0
-20.15,2.13,14.58,310,2067,7894,-1,-1,0
-20.15,2.13,14.58,313,2052,7889,-1,-1,-1
-20.15,2.13,14.58,318,2051,7889,0,0,-1
-20.15,2.13,14.58,317,2049,7882,0,0,-1
-20.15,2.13,14.58,313,2038,7880,0,0,-1
-20.16,2.13,14.57,311,2040,7878,0,-1,0
-20.16,2.13,14.57,309,2047,7876,-1,0,-1
-20.16,2.13,14.57,314,2052,7881,-1,0,-1
-20.16,2.13,14.57,309,2044,7896,0,0,-1
-20.15,2.12,14.57,309,2051,7898,0,0,-1
-20.15,2.12,14.57,312,2051,7890,0,0,-1
-20.15,2.12,14.57,308,2050,7888,0,0,-1
-20.15,2.12,14.58,308,2053,7887,0,0,-1
-20.15,2.12,14.58,308,2061,7885,0,-1,-1
-20.14,2.13,14.59,311,2063,7885,0,0,-1
-20.14,2.13,14.59,313,2068,7897,0,-1,0
-20.15,2.15,14.60,321,2076,7926,0,-1,0
-20.15,2.17,14.61,283,2075,7870,-1,-1,-1
-20.18,2.19,14.60,336,2011,7917,0,-2,1
-20.19,2.22,14.61,321,2061,7892,0,-1,-1
-20.19,2.24,14.62,306,2023,7848,0,-2,0
-20.23,2.25,14.61,324,2022,7887,-1,0,0
-20.23,2.26,14.63,319,2077,7909,0,-3,0
-20.23,2.28,14.64,344,2061,7861,0,1,-1
-20.24,2.29,14.64,329,2069,7872,-1,-2,0
-20.24,2.29,14.64,342,2079,7865,-1,0,0
-20.25,2.30,14.63,339,2054,7846,-1,0,-1
-20.25,2.29,14.64,339,2037,7875,0,0,0
-20.25,2.28,14.65,354,2088,7868,-1,0,-1
-20.23,2.26,14.64,326,2057,7864,0,0,-1
-20.24,2.26,14.63,373,2036,7847,0,0,-1
-20.21,2.23,14.65,339,2070,7876,0,0,-1
-20.19,2.21,14.65,314,2072,7879,0,0,-1
-20.17,2.19,14.64,330,2066,7865,-1,0,-1
-20.16,2.17,14.62,324,2043,7876,0,0,-1
-20.15,2.15,14.62,309,2046,7902,-1,0,-1
-20.15,2.15,14.61,318,2041,7917,-1,0,-1
-20.14,2.14,14.60,312,2042,7898,0,0,-1
-20.14,2.13,14.61,309,2059,7892,0,0,-1
-20.13,2.13,14.61,321,2066,7881,-1,0,-1
-20.12,2.12,14.61,314,2058,7883,-1,0,-1
-20.12,2.11,14.60,305,2048,7883,-1,0,-1
-20.13,2.10,14.59,306,2040,7899,-1,0,-1
-20.12,2.10,14.58,307,2025,7899,0,-1,-1
-20.12,2.10,14.59,306,2040,7886,0,0,-1
-20.11,2.09,14.59,311,2055,7887,0,0,-1
-20.11,2.09,14.59,314,2069,7883,-1,0,-1
-20.10,2.09,14.59,311,2059,7878,-1,0,-1
-20.10,2.08,14.59,304,2046,7885,-1,0,-1
-20.09,2.07,14.58,295,2036,7889,0,0,-1
-20.09,2.06,14.59,301,2043,7887,0,0,-1
-20.09,2.06,14.59,294,2052,7884,0,0,-1
-20.08,2.05,14.59,289,2057,7895,0,0,-1
-20.08,2.05,14.59,291,2063,7894,-1,0,-1
-20.07,2.04,14.59,293,2057,7892,-1,0,-1
-20.07,2.03,14.59,288,2044,7888,0,0,-1
-20.07,2.03,14.59,286,2046,7887,0,0,-1
-20.07,2.02,14.59,288,2048,7884,0,0,-1
-20.06,2.02,14.59,289,2053,7888,-1,0,-1
-20.06,2.01,14.59,293,2052,7879,0,0,-1
-20.05,2.00,14.59,287,2054,7889,0,0,-1
-20.04,2.00,14.59,287,2060,7884,-1,0,-1
-20.04,1.99,14.59,290,2059,7887,-1,0,-1
-20.04,1.99,14.59,285,2050,7895,-1,0,0
-20.03,1.98,14.58,290,2044,7908,0,0,-1
-20.03,1.97,14.59,288,2047,7902,0,0,-1
-20.02,1.97,14.60,275,2064,7896,0,0,-1
-20.00,1.96,14.61,267,2076,7890,0,-1,-1
-20.00,1.97,14.62,284,2056,7908,0,-1,-1
-19.99,1.97,14.62,296,2058,7895,0,0,-1
-19.98,1.97,14.63,286,2064,7885,0,-1,-1
-19.98,1.97,14.64,296,2039,7877,0,-1,-1
-19.98,1.98,14.65,309,2052,7890,0,0,-1
-19.97,1.96,14.66,266,2074,7871,0,-1,0
-19.98,1.97,14.66,298,2079,7885,-1,-1,0
-19.99,1.97,14.65,298,2076,7906,-1,0,0
-19.99,1.96,14.64,254,2068,7883,-1,-1,-1
-20.00,1.97,14.63,295,2036,7877,-1,-1,0
-20.00,1.97,14.63,289,2046,7895,-1,-1,-1
-20.00,1.97,14.63,304,2060,7891,0,0,-1
-19.99,1.96,14.63,293,2057,7876,-1,0,-1
-20.00,1.95,14.62,275,2029,7898,0,0,-1
-19.99,1.94,14.63,282,2083,7898,-1,-1,-1
-19.99,1.95,14.63,269,2023,7904,0,-1,0
-19.99,1.94,14.63,285,2063,7886,0,0,-1
-19.99,1.93,14.64,280,2082,7838,-1,0,0
-19.99,1.92,14.63,300,2060,7869,-1,1,-1
-19.98,1.88,14.62,260,2059,7861,-1,0,-1
-19.99,1.87,14.62,243,2046,7875,0,0,0
-19.99,1.88,14.62,247,2041,7913,0,-1,0
-19.99,1.91,14.63,281,2065,7907,0,-1,-1
-19.98,1.91,14.64,299,2095,7863,-1,0,-1
-19.98,1.90,14.62,282,2062,7885,-1,0,-1
-19.98,1.89,14.62,269,2056,7882,-1,0,-1
-19.97,1.89,14.61,266,2030,7878,0,-1,-1
-19.97,1.90,14.60,275,2029,7887,0,-1,-1
-19.97,1.90,14.61,271,2043,7883,0,-1,-1
-19.97,1.90,14.62,279,2062,7882,0,0,-1
-19.97,1.90,14.61,269,2066,7891,-1,-1,0
-19.98,1.90,14.61,271,2055,7893,-1,-1,0
-19.98,1.91,14.60,268,2046,7890,0,-1,0
-19.98,1.91,14.61,277,2049,7881,0,-1,-1
-19.98,1.91,14.61,278,2050,7887,0,-1,0
-19.99,1.92,14.62,276,2058,7891,0,-1,0
-19.99,1.92,14.62,271,2068,7897,0,-1,0
-19.99,1.92,14.62,280,2072,7896,-1,-1,0
-20.00,1.93,14.62,279,2066,7889,-1,-1,0
-20.00,1.93,14.61,291,2056,7892,-1,-1,0
-20.00,1.93,14.61,285,2048,7899,-1,0,0
-20.00,1.94,14.60,284,2039,7888,0,-1,-1
-20.00,1.94,14.60,281,2053,7897,0,-1,0
-20.01,1.94,14.60,277,2057,7902,-1,-1,0
-20.01,1.94,14.60,280,2053,7903,-1,-1,0
-20.01,1.94,14.60,281,2056,7895,-1,-1,0
-20.02,1.95,14.59,284,2054,7898,-1,-1,-1
-20.02,1.95,14.59,286,2053,7883,0,-1,-1
-20.02,1.96,14.59,285,2053,7889,-1,-1,0
-20.02,1.96,14.59,280,2046,7893,-1,-1,0
-20.02,1.96,14.59,279,2044,7913,0,-1,0
-20.02,1.96,14.59,281,2047,7898,0,-1,0
-20.02,1.96,14.59,283,2058,7886,-1,-1,0
-20.03,1.97,14.59,284,2053,7888,-1,-1,0
-20.02,1.97,14.58,283,2054,7886,-1,-1,-1
-20.03,1.97,14.58,280,2034,7895,-1,-1,0
-20.03,1.97,14.58,279,2036,7889,0,-1,0
-20.03,1.98,14.58,280,2042,7889,0,-1,0
-20.03,1.98,14.58,282,2045,7883,0,-1,0
-20.03,1.99,14.58,293,2049,7886,0,-1,0
-20.03,1.99,14.58,300,2048,7883,-1,0,0
-20.03,1.99,14.58,293,2055,7888,-1,-1,0
-20.03,1.99,14.58,292,2049,7880,0,0,-1
-20.03,1.99,14.58,287,2051,7890,-1,-1,-1
-20.03,1.99,14.58,284,2050,7897,-1,0,0
-20.04,1.99,14.57,287,2032,7897,0,-1,-1
-20.04,1.99,14.57,289,2029,7899,-1,-1,0
-20.04,2.00,14.57,292,2033,7897,0,-1,0
-20.04,2.00,14.57,291,2049,7891,0,-1,-1
-20.04,2.00,14.58,287,2062,7895,0,-1,0
-20.05,2.01,14.58,292,2067,7884,-1,-1,0
-20.05,2.01,14.58,293,2055,7889,-1,-1,0
-20.05,2.01,14.58,295,2051,7896,0,-1,0
-20.05,2.01,14.58,300,2048,7894,0,-1,0
-20.05,2.02,14.57,295,2049,7888,-1,-1,0
-20.05,2.02,14.57,296,2044,7890,0,-1,-1
-20.05,2.02,14.58,299,2044,7889,0,-1,0
-20.05,2.02,14.58,299,2050,7895,-1,-1,-1
-20.06,2.02,14.57,296,2048,7897,-1,0,0
-20.06,2.03,14.57,296,2046,7894,-1,-1,0
-20.06,2.03,14.56,289,2045,7895,0,-1,0
-20.06,2.03,14.57,290,2043,7893,0,-1,-1
-20.06,2.03,14.57,291,2049,7890,0,-1,0
-20.06,2.04,14.57,299,2053,7890,0,-1,-1
-20.06,2.04,14.57,299,2057,7883,-1,-1,0
-20.06,2.04,14.57,295,2055,7885,-1,-1,0
-20.06,2.04,14.57,297,2043,7894,0,-1,-1
-20.06,2.04,14.57,291,2044,7891,0,-1,0
-20.06,2.04,14.57,293,2045,7904,0,-1,0
-20.07,2.05,14.57,295,2038,7896,0,-1,0
-20.07,2.04,14.57,294,2039,7895,0,0,-1
-20.07,2.05,14.57,298,2045,7885,-1,-1,0
-20.07,2.05,14.58,299,2057,7889,0,-1,-1
-20.07,2.05,14.58,301,2062,7892,-1,0,0
-20.07,2.05,14.57,294,2051,7901,-1,-1,0
-20.08,2.05,14.56,297,2036,7901,-1,0,0
-20.08,2.06,14.56,298,2039,7889,0,-1,0
-20.08,2.06,14.57,295,2057,7887,0,-1,-1
-20.08,2.06,14.58,298,2060,7886,0,-1,0
-20.08,2.07,14.57,304,2061,7890,-1,-1,0
-20.08,2.07,14.57,298,2052,7889,-1,-1,0
-20.09,2.07,14.57,295,2041,7889,0,-1,-1
-20.08,2.07,14.57,312,2038,7887,0,0,-1
-20.08,2.07,14.58,302,2067,7892,0,0,-1
-20.08,2.07,14.57,296,2063,7879,-1,-1,0
-20.09,2.07,14.57,303,2041,7890,-1,0,0
-20.08,2.07,14.56,290,2042,7883,0,-1,-1
-20.08,2.07,14.57,305,2044,7884,-1,0,0
-20.09,2.07,14.56,321,2037,7888,-1,0,-1
-20.08,2.07,14.56,301,2037,7892,0,-1,-1
-20.09,2.08,14.57,307,2040,7883,0,-1,0
-20.09,2.08,14.57,312,2054,7888,0,0,0
-20.09,2.08,14.57,316,2056,7871,0,0,-1
-20.09,2.07,14.57,297,2055,7886,-1,-1,0
-20.09,2.07,14.57,284,2061,7897,-1,-1,-1
-20.09,2.07,14.56,292,2037,7897,0,0,0
-20.09,2.07,14.57,280,2046,7884,0,-1,0
-20.09,2.07,14.57,299,2040,7896,0,0,-1
-20.09,2.07,14.57,298,2073,7888,-1,0,-1
-20.10,2.08,14.57,297,2051,7866,0,-1,0
-20.10,2.09,14.58,327,2059,7891,0,0,-1
-20.10,2.08,14.58,296,2062,7887,-1,-1,-1
-20.11,2.09,14.57,312,2024,7864,0,-1,0
-20.11,2.08,14.57,296,2055,7877,-1,0,-1
-20.10,2.08,14.57,274,2052,7886,0,-1,0
-20.11,2.09,14.57,293,2052,7876,-1,-1,0
-20.12,2.10,14.56,302,2044,7873,-1,-1,0
-20.12,2.10,14.57,322,2054,7881,0,0,0
-20.13,2.10,14.56,302,2055,7901,-1,-1,0
-20.13,2.12,14.55,306,2009,7894,0,-1,0
-20.13,2.12,14.56,322,2053,7916,0,0,-1
-20.13,2.11,14.57,283,2077,7891,0,-1,0
-20.13,2.14,14.58,311,2061,7888,-1,-1,-1
-20.14,2.14,14.57,301,2062,7915,0,0,0
-20.14,2.15,14.58,290,2066,7909,0,-2,0
-20.15,2.17,14.58,327,2040,7916,-1,-1,0
-20.17,2.18,14.58,298,2033,7899,0,-1,0
-20.17,2.20,14.60,327,2071,7910,0,-1,0
-20.19,2.22,14.59,310,2052,7877,-1,-1,0
-20.19,2.23,14.59,336,2036,7887,0,-1,0
-20.20,2.23,14.60,327,2049,7882,0,0,-1
-20.20,2.24,14.61,314,2068,7879,-1,-1,0
-20.22,2.25,14.59,346,2021,7880,0,0,0
-20.21,2.24,14.60,325,2071,7882,0,-1,0
-20.21,2.23,14.60,347,2053,7844,-1,0,-1
-20.20,2.22,14.59,303,2047,7863,-1,0,-1
-20.20,2.22,14.60,325,2054,7864,0,0,-1
-20.19,2.20,14.59,313,2064,7880,-1,0,-1
-20.18,2.20,14.58,308,2050,7889,-1,0,-1
-20.18,2.20,14.58,322,2048,7877,-1,0,-1
-20.17,2.20,14.57,321,2046,7882,-1,-1,-1
-20.16,2.20,14.57,325,2034,7902,-1,0,-1
-20.16,2.19,14.56,323,2033,7907,0,0,-1
-20.16,2.20,14.56,331,2033,7898,0,0,-1
-20.15,2.20,14.57,326,2049,7888,0,-1,-1
-20.14,2.19,14.57,326,2058,7887,-1,0,-1
-20.13,2.19,14.56,320,2053,7878,-1,0,-1
-20.13,2.18,14.56,317,2052,7893,-1,0,-1
-20.13,2.17,14.56,313,2048,7903,-1,0,-1
-20.13,2.17,14.56,316,2037,7893,0,0,-1
-20.12,2.17,14.56,320,2037,7897,0,0,-1
-20.11,2.17,14.56,317,2043,7890,0,0,-1
-20.11,2.17,14.57,323,2056,7889,0,0,-1
-20.10,2.16,14.57,316,2055,7885,0,0,-1
-20.09,2.16,14.57,317,2040,7884,-1,0,-1
-20.09,2.14,14.56,309,2035,7899,-1,0,-1
-20.09,2.13,14.56,306,2033,7904,0,0,-1
-20.08,2.13,14.57,304,2047,7893,0,0,-1
-20.07,2.13,14.57,301,2056,7903,0,0,-1
-20.07,2.12,14.57,302,2057,7895,0,0,-1
-20.08,2.12,14.58,320,2058,7884,0,0,-1
-20.07,2.12,14.58,315,2047,7887,-1,0,-1
-20.07,2.12,14.58,316,2050,7877,0,0,-1
-20.06,2.11,14.58,314,2054,7892,-1,0,-1
-20.06,2.11,14.58,307,2061,7895,0,0,-1
-20.06,2.10,14.58,303,2057,7889,-1,0,-1
-20.06,2.10,14.58,304,2050,7893,-1,0,-1
-20.06,2.09,14.58,303,2049,7889,-1,0,-1
-20.06,2.09,14.58,310,2048,7885,-1,0,-1
-20.05,2.08,14.57,314,2051,7887,-1,0,-1
-20.05,2.08,14.57,307,2046,7899,-1,0,-1
-20.04,2.07,14.57,303,2045,7895,0,0,-1
-20.04,2.08,14.57,305,2048,7884,0,0,-1
-20.04,2.07,14.58,305,2055,7879,0,0,-1
-20.04,2.06,14.58,296,2057,7876,0,0,-1
-20.04,2.06,14.58,298,2047,7881,0,0,-1
-20.03,2.06,14.58,298,2046,7889,0,0,-1
-20.03,2.06,14.58,294,2051,7891,0,0,-1
-20.03,2.05,14.59,287,2052,7892,0,0,-1
-20.03,2.05,14.59,294,2047,7885,0,0,-1
-20.03,2.05,14.59,307,2052,7881,0,0,-1
-20.03,2.05,14.59,303,2044,7880,-1,0,-1
-20.03,2.04,14.59,302,2038,7877,0,0,-1
-20.02,2.03,14.59,299,2053,7880,0,0,-1
-20.02,2.03,14.59,300,2053,7879,-1,0,-1
-20.02,2.03,14.59,292,2055,7880,-1,0,-1
-20.02,2.02,14.58,286,2049,7884,0,0,-1
-20.01,2.01,14.58,289,2048,7886,-1,0,-1
-20.01,2.01,14.58,286,2047,7890,0,0,-1
-20.01,2.00,14.59,284,2051,7898,0,0,-1
-20.01,2.00,14.59,291,2062,7890,0,0,-1
-20.00,2.00,14.59,292,2057,7895,-1,0,-1
-20.00,1.99,14.59,278,2052,7890,0,0,-1
-20.00,1.98,14.59,271,2055,7896,0,0,-1
-20.00,1.98,14.59,270,2059,7892,-1,0,-1
-20.00,1.97,14.59,277,2050,7892,-1,0,-1
-20.00,1.97,14.58,280,2035,7893,-1,0,0
-20.00,1.97,14.58,284,2030,7893,0,-1,-1
-20.00,1.97,14.59,292,2038,7889,0,0,-1
-19.99,1.96,14.59,285,2052,7888,0,0,-1
-19.99,1.96,14.59,288,2047,7896,-1,0,-1
-19.99,1.96,14.59,287,2050,7898,0,0,-1
-19.99,1.95,14.59,285,2042,7890,0,0,-1
-19.98,1.95,14.59,281,2042,7884,0,0,-1
-19.98,1.95,14.60,278,2049,7888,0,0,-1
-19.98,1.94,14.60,278,2051,7894,0,0,-1
-19.98,1.94,14.60,274,2051,7881,0,0,-1
-19.97,1.94,14.60,278,2054,7884,0,0,-1
-19.97,1.94,14.60,274,2045,7880,0,0,-1
-19.97,1.93,14.60,271,2053,7876,0,-1,-1
-19.97,1.93,14.60,272,2054,7887,0,-1,0
-19.97,1.94,14.60,273,2049,7886,-1,-1,-1
-19.97,1.94,14.60,277,2045,7886,0,-1,-1
-19.97,1.94,14.60,297,2046,7890,0,0,-1
-19.96,1.93,14.61,266,2069,7897,0,0,-1
-19.96,1.93,14.61,258,2054,7896,-1,-1,0
-19.97,1.94,14.60,282,2006,7894,0,-1,0
-19.96,1.96,14.61,266,2048,7896,0,-1,0
-19.98,1.98,14.61,298,2052,7885,-1,-1,0
-19.97,1.97,14.61,310,2054,7883,0,0,-1
-19.97,1.96,14.62,287,2085,7892,0,0,-1
-19.97,1.95,14.62,272,2087,7886,-1,-1,0
-19.98,1.96,14.59,276,2043,7894,-1,-1,0
-19.98,1.97,14.58,295,2027,7887,0,-1,-1
-19.98,1.97,14.58,297,2027,7882,0,0,-1
-19.98,1.97,14.58,287,2034,7885,0,0,-1
-19.98,1.97,14.59,277,2051,7900,0,-1,0
-19.99,1.98,14.60,281,2066,7889,-1,-1,0
-19.99,1.98,14.59,285,2065,7889,-1,-1,0
-19.99,1.98,14.59,287,2061,7882,0,-1,-1
-19.99,1.98,14.59,295,2059,7880,-1,0,0
-19.99,1.99,14.58,297,2049,7892,-1,0,0
-19.99,1.99,14.58,298,2042,7890,0,0,-1
-19.99,1.98,14.58,295,2051,7892,0,0,-1
-19.99,1.98,14.59,283,2049,7890,0,-1,0
-19.99,1.99,14.59,287,2056,7888,0,-1,0
-20.00,1.99,14.59,288,2070,7884,0,-1,0
-20.00,2.00,14.59,289,2073,7883,-1,-1,0
-20.00,2.00,14.59,303,2055,7886,-1,0,0
-20.00,2.00,14.59,303,2057,7884,-1,-1,-1
-20.00,2.00,14.59,297,2053,7878,-1,-1,0
-20.00,2.01,14.58,287,2046,7886,0,-1,0
-20.01,2.01,14.58,286,2046,7896,0,-1,0
-20.01,2.01,14.59,288,2067,7902,0,-1,0
-20.01,2.02,14.59,295,2059,7883,-1,-1,0
-20.02,2.03,14.59,302,2048,7878,0,-1,0
-20.02,2.03,14.59,303,2032,7881,0,0,-1
-20.02,2.03,14.59,297,2044,7883,0,-1,-1
-20.01,2.03,14.60,297,2060,7887,0,0,-1
-20.01,2.02,14.60,288,2067,7890,-1,0,-1
-20.02,2.02,14.60,286,2061,7891,-1,-1,0
-20.02,2.02,14.59,285,2051,7892,-1,-1,0
-20.02,2.03,14.59,283,2045,7894,0,-1,0
-20.02,2.03,14.59,290,2050,7890,0,-1,-1
-20.02,2.03,14.60,296,2057,7882,0,-1,0
-20.02,2.03,14.60,298,2058,7894,-1,-1,-1
-20.02,2.03,14.59,293,2048,7878,0,-1,0
-20.02,2.03,14.59,300,2046,7886,0,-1,0
-20.03,2.04,14.59,299,2047,7888,-1,0,0
-20.03,2.04,14.59,292,2046,7894,-1,-1,0
-20.03,2.05,14.59,305,2034,7900,0,0,0
-20.03,2.05,14.59,296,2040,7884,0,-1,-1
-20.03,2.05,14.59,299,2036,7882,0,-1,-1
-20.03,2.05,14.60,297,2050,7883,0,-1,-1
-20.03,2.05,14.60,297,2061,7886,-1,0,0
-20.03,2.05,14.59,297,2054,7890,-1,0,0
-20.03,2.05,14.59,292,2054,7885,-1,-1,0
-20.03,2.05,14.58,300,2041,7895,-1,0,0
-20.03,2.05,14.58,295,2054,7892,0,-1,0
-20.03,2.05,14.59,289,2055,7887,0,-1,0
-20.03,2.06,14.60,300,2062,7881,0,-1,-1
-20.03,2.06,14.60,303,2063,7881,-1,-1,0
-20.04,2.06,14.59,299,2042,7879,-1,-1,0
-20.04,2.06,14.58,302,2032,7887,-1,-1,-1
-20.04,2.07,14.57,299,2029,7893,0,-1,0
-20.04,2.08,14.58,307,2049,7905,0,-1,0
-20.05,2.08,14.59,304,2057,7901,-1,-1,0
-20.05,2.09,14.58,317,2052,7884,-1,-1,0
-20.05,2.09,14.58,319,2051,7886,0,0,-1
-20.05,2.08,14.58,301,2052,7883,-1,0,0
-20.05,2.08,14.58,300,2039,7883,0,-1,0
-20.06,2.09,14.58,299,2036,7887,0,-1,-1
-20.05,2.09,14.58,301,2043,7884,0,-1,0
-20.06,2.10,14.58,310,2051,7897,0,-1,0
-20.06,2.10,14.59,304,2067,7890,-1,-1,0
-20.07,2.11,14.58,309,2048,7906,-1,-1,0
-20.08,2.11,14.57,305,2039,7893,-1,0,0
-20.08,2.12,14.56,304,2032,7878,0,-1,0
-20.09,2.12,14.58,329,2062,7881,-1,0,-1
-20.09,2.12,14.57,306,2064,7868,-1,0,0
-20.09,2.11,14.57,308,2054,7873,-1,0,0
-20.10,2.11,14.55,314,2043,7892,-1,0,0
-20.10,2.11,14.55,292,2038,7907,0,-1,-1
-20.10,2.12,14.54,296,2036,7899,0,-1,0
-20.11,2.12,14.55,301,2040,7896,0,-1,0
-20.11,2.13,14.56,308,2046,7900,0,-1,0
-20.11,2.14,14.56,317,2056,7891,0,-1,-1
-20.11,2.14,14.56,318,2063,7893,0,-1,-1
-20.11,2.14,14.56,320,2060,7903,-1,0,-1
-20.11,2.14,14.55,319,2046,7917,-1,0,-1
-20.11,2.14,14.55,307,2038,7911,0,-1,-1
-20.10,2.14,14.55,301,2046,7903,0,-1,-1
-20.10,2.14,14.56,307,2055,7901,0,-1,0
-20.10,2.15,14.56,313,2055,7896,-1,-1,0
-20.11,2.16,14.56,325,2055,7886,0,0,0
-20.11,2.16,14.56,325,2044,7885,-1,0,-1
-20.10,2.16,14.56,319,2031,7883,0,0,-1
-20.09,2.15,14.56,309,2049,7885,0,0,-1
-20.09,2.14,14.56,313,2051,7888,0,0,-1
-20.09,2.14,14.56,318,2052,7882,0,0,-1
-20.09,2.14,14.56,319,2044,7879,-1,0,-1
-20.09,2.13,14.56,315,2042,7884,0,0,-1
-20.09,2.13,14.56,324,2040,7883,0,0,-1
-20.08,2.13,14.56,316,2049,7887,0,0,-1
-20.07,2.12,14.57,294,2050,7885,-1,0,-1
-20.07,2.12,14.56,301,2048,7898,-1,0,-1
-20.07,2.12,14.56,302,2037,7896,0,0,-1
-20.06,2.12,14.56,301,2037,7894,0,0,-1
-20.06,2.11,14.56,311,2033,7894,0,0,-1
-20.06,2.11,14.57,312,2042,7883,0,0,-1
-20.05,2.11,14.57,313,2059,7881,0,0,-1
-20.05,2.10,14.57,308,2055,7878,-1,0,-1
-20.05,2.10,14.57,311,2047,7884,0,0,-1
-20.05,2.10,14.57,309,2042,7884,-1,0,-1
-20.05,2.09,14.56,305,2040,7882,-1,0,-1
-20.05,2.09,14.56,301,2035,7883,0,0,-1
-20.04,2.09,14.57,296,2043,7875,0,0,-1
-20.04,2.08,14.57,294,2054,7875,-1,0,-1
-20.03,2.08,14.57,304,2055,7897,-1,0,-1
-20.03,2.08,14.57,300,2053,7893,-1,0,-1
-20.03,2.07,14.57,304,2049,7899,-1,0,-1
-20.03,2.07,14.57,305,2038,7896,0,0,-1
-20.02,2.07,14.57,300,2048,7889,0,0,-1
-20.02,2.07,14.57,304,2056,7892,0,0,-1
-20.01,2.07,14.58,292,2058,7887,0,-1,-1
-20.00,2.06,14.58,310,2054,7887,0,0,-1
-20.00,2.06,14.58,294,2043,7885,-1,0,-1
-19.99,2.05,14.58,297,2040,7886,0,0,-1
-19.99,2.04,14.59,292,2050,7892,0,0,-1
-19.98,2.04,14.59,291,2048,7882,0,0,-1
-19.98,2.04,14.59,301,2055,7877,0,-1,-1
-19.98,2.04,14.60,299,2064,7883,-1,0,-1
-19.98,2.04,14.59,291,2052,7890,-1,0,-1
-19.97,2.03,14.60,298,2055,7904,0,0,-1
-19.97,2.02,14.60,282,2044,7899,0,-1,-1
-19.97,2.03,14.60,297,2039,7887,0,0,0
-19.97,2.02,14.60,290,2044,7879,0,0,-1
-19.96,2.02,14.61,289,2053,7875,0,-1,-1
-19.96,2.02,14.60,299,2033,7896,0,0,-1
-19.96,2.02,14.61,296,2046,7906,0,0,-1
-19.96,2.02,14.61,277,2055,7906,0,-1,-1
-19.96,2.02,14.61,296,2046,7909,0,0,-1
-19.95,2.02,14.62,280,2054,7898,0,0,-1
-19.95,2.02,14.62,286,2040,7894,0,-1,0
-19.95,2.01,14.63,288,2062,7885,0,0,-1
-19.95,2.01,14.63,284,2055,7876,0,-1,0
-19.94,2.00,14.64,299,2083,7884,-1,0,-1
-19.94,2.00,14.63,279,2058,7867,0,-1,0
-19.94,1.99,14.64,299,2077,7889,-1,0,-1
-19.93,1.98,14.62,268,2067,7894,-1,0,-1
-19.93,1.97,14.63,280,2053,7890,-1,0,0
-19.93,1.97,14.63,275,2062,7890,0,0,-1
-19.93,1.97,14.63,294,2070,7885,-1,0,-1
-19.93,1.95,14.62,291,2056,7879,-1,0,-1
-19.93,1.94,14.61,282,2057,7890,-1,0,-1
-19.93,1.93,14.61,277,2057,7898,-1,0,-1
-19.93,1.93,14.61,285,2053,7897,-1,0,0
-19.93,1.92,14.59,281,2047,7894,-1,0,0
-19.93,1.92,14.59,279,2038,7893,-1,0,-1
-19.93,1.91,14.59,265,2039,7891,0,0,-1
-19.92,1.90,14.60,274,2054,7885,0,0,-1
-19.92,1.90,14.60,271,2068,7892,-1,0,0
-19.92,1.90,14.60,277,2068,7890,-1,0,0
-19.92,1.90,14.59,269,2056,7888,-1,0,0
-19.92,1.89,14.58,270,2052,7893,-1,0,0
-19.92,1.89,14.58,283,2041,7899,0,0,-1
-19.92,1.88,14.58,279,2050,7887,0,0,-1
-19.92,1.88,14.58,277,2055,7876,-1,0,0
-19.92,1.88,14.58,274,2051,7885,-1,0,-1
-19.92,1.87,14.57,271,2060,7888,-1,0,-1
-19.92,1.86,14.57,268,2047,7888,-1,0,-1
-19.92,1.86,14.57,270,2043,7889,0,0,-1
-19.91,1.86,14.57,273,2050,7895,0,0,-1
-19.91,1.86,14.57,269,2044,7899,-1,0,-1
-19.91,1.86,14.57,258,2045,7896,0,0,-1
-19.91,1.86,14.57,262,2044,7889,0,-1,-1
-19.90,1.86,14.58,266,2051,7899,0,0,-1
-19.90,1.86,14.58,272,2048,7885,0,0,-1
-19.90,1.86,14.58,272,2047,7883,0,-1,0
-19.90,1.86,14.58,274,2035,7889,0,-1,-1
-19.90,1.86,14.59,266,2046,7883,0,-1,-1
-19.90,1.86,14.59,257,2058,7885,0,-1,-1
-19.89,1.86,14.60,253,2062,7886,-1,-1,0
-19.90,1.87,14.59,268,2050,7898,0,-1,0
-19.90,1.87,14.59,272,2054,7892,0,-1,0
-19.90,1.88,14.60,277,2049,7885,0,-1,0
-19.90,1.88,14.60,279,2043,7874,0,0,0
-19.90,1.88,14.60,277,2045,7885,0,-1,0
-19.90,1.88,14.60,271,2046,7891,0,-1,0
-19.90,1.88,14.61,265,2055,7902,0,-1,0
-19.90,1.89,14.60,265,2057,7902,-1,-1,0
-19.90,1.89,14.60,268,2066,7901,-1,-1,0
-19.91,1.90,14.60,278,2060,7898,0,-1,0
-19.91,1.90,14.60,276,2062,7893,-1,-1,0
-19.92,1.91,14.60,287,2058,7891,0,-1,0
-19.92,1.91,14.60,277,2058,7886,-1,-1,0
-19.92,1.91,14.60,273,2057,7892,-1,-1,0
-19.93,1.92,14.60,268,2053,7895,-1,-1,0
-19.93,1.92,14.59,264,2044,7894,0,-1,0
-19.94,1.93,14.59,267,2047,7891,0,-1,0
-19.94,1.93,14.60,270,2046,7894,-1,-1,0
-19.94,1.93,14.60,291,2051,7895,-1,0,0
-19.95,1.94,14.59,291,2047,7893,-1,0,0
-19.95,1.94,14.58,281,2040,7888,-1,0,0
-19.95,1.94,14.58,277,2044,7898,-1,-1,0
-19.95,1.94,14.58,277,2052,7881,0,-1,0
-19.95,1.94,14.58,274,2061,7888,0,-1,0
-19.95,1.95,14.59,275,2064,7881,0,-1,0
-19.95,1.95,14.59,286,2062,7883,0,-1,0
-19.95,1.95,14.59,290,2053,7896,-1,-1,0
-19.96,1.96,14.58,286,2045,7891,-1,-1,0
-19.96,1.96,14.58,281,2050,7887,0,-1,0
-19.96,1.96,14.58,272,2052,7884,-1,-1,0
-19.96,1.96,14.58,270,2051,7887,-1,-1,0
-19.96,1.97,14.58,277,2047,7877,0,-1,0
-19.97,1.97,14.58,279,2053,7882,-1,-1,0
-19.97,1.98,14.58,283,2054,7879,-1,-1,0
-19.97,1.98,14.58,281,2047,7880,-1,-1,0
-19.97,1.98,14.58,283,2045,7883,0,-1,0
-19.97,1.98,14.58,283,2046,7887,0,0,-1
-19.97,1.98,14.58,286,2055,7888,-1,0,0
-19.97,1.98,14.58,287,2046,7886,0,-1,0
-19.97,1.98,14.58,291,2043,7883,0,-1,0
-19.98,1.99,14.59,295,2047,7882,0,-1,0
-19.98,1.99,14.59,291,2047,7883,-1,-1,0
-19.98,2.00,14.58,286,2050,7878,-1,-1,0
-19.98,2.00,14.58,286,2053,7879,-1,-1,0
-19.98,2.01,14.58,288,2055,7880,-1,-1,0
-19.98,2.01,14.58,286,2051,7886,-1,-1,0
-19.99,2.01,14.57,287,2042,7889,0,-1,0
-20.00,2.01,14.57,290,2034,7893,0,-1,0
-20.00,2.02,14.58,299,2030,7884,0,-1,0
-19.99,2.03,14.58,304,2051,7870,0,0,-1
-20.00,2.03,14.59,302,2065,7870,-1,-1,0
-20.00,2.03,14.58,298,2056,7881,-1,0,0
-20.00,2.03,14.58,291,2042,7893,-1,-1,0
-20.00,2.03,14.57,295,2039,7894,0,-1,0
-20.00,2.04,14.58,293,2042,7891,0,-1,0
-20.00,2.04,14.58,293,2055,7885,0,0,0
-20.00,2.04,14.58,287,2056,7895,0,-1,0
-20.00,2.04,14.58,293,2054,7890,-1,-1,0
-20.00,2.04,14.58,292,2058,7888,-1,-1,0
-20.01,2.04,14.58,289,2053,7878,-1,-1,0
-20.02,2.04,14.58,293,2052,7883,-1,-1,0
-20.02,2.05,14.58,293,2047,7881,0,-1,0
-20.02,2.05,14.58,304,2045,7886,0,-1,0
-20.02,2.06,14.58,299,2036,7893,0,0,0
-20.02,2.05,14.57,291,2027,7890,0,0,-1
-20.02,2.05,14.58,292,2045,7892,0,0,-1
-20.02,2.05,14.58,289,2048,7889,0,0,0
-20.02,2.05,14.58,287,2056,7885,-1,0,-1
-20.02,2.05,14.58,295,2052,7891,-1,-1,0
-20.02,2.06,14.58,292,2052,7891,0,0,-1
-20.02,2.05,14.58,287,2054,7897,0,-1,-1
-20.02,2.05,14.58,284,2050,7891,0,0,0
-20.02,2.05,14.58,282,2058,7892,0,-1,0
-20.02,2.06,14.58,297,2053,7886,0,-1,0
-20.02,2.06,14.58,301,2057,7881,-1,0,0
-20.02,2.06,14.58,294,2047,7886,-1,0,0
-20.03,2.07,14.57,290,2031,7880,-1,0,0
-20.03,2.07,14.57,287,2033,7889,0,-1,0
-20.03,2.07,14.57,297,2045,7892,0,-1,-1
-20.03,2.07,14.58,295,2051,7895,0,-1,-1
-20.03,2.07,14.58,302,2057,7883,-1,-1,0
-20.03,2.07,14.58,299,2058,7879,-1,-1,0
-20.03,2.08,14.58,293,2050,7885,0,-1,0
-20.03,2.08,14.58,297,2044,7879,0,-1,0
-20.03,2.08,14.58,295,2042,7886,0,0,0
-20.04,2.08,14.58,299,2048,7878,0,0,0
-20.04,2.08,14.58,299,2048,7878,-1,0,0
-20.04,2.08,14.58,298,2047,7877,-1,-1,0
-20.05,2.09,14.58,296,2048,7879,0,-1,0
-20.05,2.09,14.58,295,2050,7878,0,-1,0
-20.05,2.10,14.58,303,2049,7880,-1,-1,0
-20.05,2.10,14.57,297,2055,7892,-1,-1,0
-20.05,2.10,14.57,300,2055,7881,-1,-1,0
-20.05,2.11,14.57,291,2053,7884,-1,-1,0
-20.05,2.11,14.57,295,2045,7894,-1,-1,0
-20.06,2.11,14.57,292,2040,7892,0,-1,0
-20.07,2.12,14.57,299,2041,7889,0,-1,0
-20.07,2.13,14.57,310,2052,7877,0,-1,0
-20.07,2.13,14.58,314,2055,7874,0,-1,0
-20.07,2.14,14.58,312,2056,7878,-1,0,0
-20.07,2.14,14.58,311,2053,7892,-1,0,-1
-20.07,2.14,14.58,308,2052,7910,-1,-1,-1
-20.07,2.13,14.57,302,2051,7904,-1,0,0
-20.07,2.13,14.57,303,2046,7891,-1,-1,0
-20.08,2.13,14.56,301,2040,7899,-1,0,0
-20.08,2.14,14.56,304,2043,7901,0,-1,0
-20.08,2.14,14.57,307,2050,7890,0,0,0
-20.08,2.14,14.57,302,2058,7887,-1,0,0
-20.08,2.14,14.57,303,2054,7876,-1,0,0
-20.08,2.14,14.56,303,2050,7878,-1,-1,-1
-20.08,2.14,14.56,307,2047,7893,0,0,-1
-20.08,2.14,14.56,313,2041,7899,0,0,-1
-20.07,2.13,14.56,303,2049,7897,0,-1,-1
-20.07,2.14,14.57,309,2039,7907,0,-1,-1
-20.07,2.14,14.57,307,2048,7900,0,0,-1
-20.07,2.15,14.57,291,2036,7893,0,-1,0
-20.08,2.16,14.58,320,2050,7907,0,0,-1
-20.07,2.17,14.59,301,2079,7903,-1,-1,-1
-20.08,2.18,14.59,334,2029,7913,0,-1,0
-20.08,2.18,14.61,298,2065,7877,0,0,-1
-20.09,2.19,14.61,312,2040,7903,0,-1,0
-20.11,2.20,14.61,314,2045,7908,0,0,0
-20.11,2.21,14.63,327,2079,7874,0,-1,-1
-20.13,2.20,14.62,281,2082,7902,-1,0,0
-20.15,2.22,14.61,311,2066,7875,-1,-1,0
-20.17,2.21,14.59,316,2010,7885,0,0,0
-20.17,2.22,14.61,292,2055,7906,0,-1,-1
-20.17,2.23,14.61,331,2040,7843,0,-1,0
-20.18,2.23,14.62,317,2047,7859,0,0,0
-20.18,2.21,14.62,305,2078,7896,-1,0,0
-20.17,2.20,14.62,321,2047,7910,0,0,-1
-20.18,2.21,14.61,303,2033,7887,0,0,-1
-20.17,2.20,14.65,296,2104,7929,0,-1,-1
-20.17,2.22,14.63,334,2062,7856,-1,0,0
-20.17,2.19,14.63,313,2055,7880,1,1,-1
-20.16,2.19,14.63,304,2059,7842,0,0,-1
-20.16,2.19,14.62,318,2041,7862,-1,-1,0
-20.14,2.16,14.64,308,2107,7885,-1,0,-1
-20.14,2.15,14.63,323,2050,7852,0,1,-1
-20.12,2.12,14.64,300,2075,7889,-1,0,-1
-20.11,2.12,14.62,292,2043,7879,-1,-1,-1
-20.10,2.11,14.61,305,2051,7881,-1,0,-1
-20.10,2.11,14.60,286,2056,7882,-1,-1,-1
-20.09,2.11,14.60,304,2045,7877,0,0,-1
-20.08,2.10,14.60,299,2053,7895,-1,0,-1
-20.08,2.09,14.58,293,2040,7914,-1,0,-1
-20.07,2.09,14.58,306,2032,7910,-1,0,-1
-20.07,2.08,14.59,308,2038,7891,0,0,-1
-20.06,2.07,14.59,298,2052,7885,0,0,-1
-20.06,2.07,14.60,303,2063,7881,-1,0,-1
-20.05,2.06,14.59,304,2051,7879,-1,0,-1
-20.04,2.04,14.59,296,2046,7898,-1,0,-1
-20.03,2.03,14.58,287,2046,7895,0,0,-1
-20.03,2.03,14.58,284,2053,7904,0,0,-1
-20.02,2.02,14.58,283,2055,7904,-1,0,-1
-20.02,2.02,14.58,287,2051,7883,0,0,-1
-20.02,2.02,14.58,289,2055,7882,-1,0,-1
-20.01,2.02,14.58,289,2049,7893,0,0,-1
-20.01,2.01,14.58,295,2053,7887,0,0,-1
-20.01,2.00,14.58,292,2054,7888,-1,0,-1
-20.00,2.00,14.59,288,2059,7892,-1,0,-1
-20.00,1.99,14.58,286,2049,7891,-1,0,-1
-20.00,1.99,14.57,276,2044,7891,-1,0,-1
-20.00,1.99,14.57,286,2040,7890,0,0,-1
-20.00,1.98,14.58,286,2052,7882,0,0,-1
-19.99,1.97,14.58,290,2060,7895,-1,0,-1
-19.99,1.97,14.58,282,2054,7881,-1,0,-1
-19.99,1.96,14.57,268,2051,7881,-1,0,-1
-19.99,1.96,14.58,277,2044,7883,0,0,-1
-19.99,1.95,14.58,283,2047,7883,0,0,0
-19.99,1.95,14.58,284,2047,7884,0,0,0
-19.99,1.94,14.57,285,2040,7890,-1,0,-1
-19.98,1.94,14.57,280,2042,7882,0,0,-1
-19.98,1.94,14.58,279,2049,7885,0,0,-1
-19.98,1.94,14.58,283,2049,7886,-1,0,-1
-19.98,1.94,14.58,282,2055,7891,-1,0,0
-19.98,1.94,14.58,278,2053,7894,0,0,-1
-19.98,1.93,14.58,285,2053,7896,-1,0,-1
-19.98,1.93,14.57,283,2047,7888,0,0,-1
-19.98,1.92,14.57,276,2052,7891,-1,0,-1
-19.98,1.91,14.57,279,2047,7889,-1,0,-1
-19.97,1.90,14.57,272,2048,7899,-1,0,-1
-19.97,1.90,14.57,265,2050,7896,-1,0,-1
-19.97,1.90,14.57,267,2047,7897,0,0,-1
-19.96,1.90,14.57,269,2052,7898,0,0,-1
-19.96,1.90,14.57,276,2050,7911,0,0,-1
-19.96,1.89,14.57,271,2049,7898,0,0,-1
-19.95,1.89,14.58,268,2058,7899,0,-1,-1
-19.95,1.89,14.60,278,2074,7886,0,-1,-1
-19.94,1.89,14.60,269,2080,7883,0,-1,-1
-19.93,1.89,14.61,271,2066,7882,0,0,-1
-19.93,1.89,14.61,272,2044,7902,-1,0,-1
-19.93,1.89,14.60,263,2025,7900,0,-1,-1
-19.93,1.89,14.61,260,2036,7899,0,-1,0
-19.93,1.90,14.62,272,2053,7906,0,-1,-1
-19.92,1.91,14.64,267,2074,7902,0,-1,0
-19.93,1.93,14.64,274,2069,7885,-1,-1,0
-19.94,1.94,14.63,295,2042,7880,0,-1,0
-19.94,1.93,14.64,289,2076,7884,0,0,-1
-19.94,1.92,14.64,241,2076,7895,-1,-1,0
-19.95,1.93,14.63,274,2038,7885,-1,-1,0
-19.96,1.93,14.62,268,2063,7898,-1,-1,0
-19.96,1.94,14.62,269,2069,7880,0,-1,0
-19.97,1.96,14.62,298,2075,7873,-1,0,0
-19.97,1.95,14.62,270,2078,7876,-1,-1,0
-19.98,1.95,14.60,282,2040,7899,-1,0,0
-19.99,1.95,14.60,284,2049,7901,0,-1,-1
-19.98,1.96,14.61,275,2062,7882,0,-1,-1
-19.98,1.96,14.60,277,2059,7879,-1,-1,0
-19.99,1.97,14.59,282,2057,7875,-1,0,0
-20.00,1.96,14.58,274,2050,7880,-1,-1,0
-20.00,1.97,14.58,288,2047,7890,-1,0,0
-20.00,1.97,14.58,287,2042,7875,0,0,-1
-20.00,1.96,14.58,286,2058,7879,-1,0,0
-20.00,1.96,14.57,274,2053,7892,-1,-1,0
-20.00,1.96,14.57,278,2047,7885,-1,-1,-1
-20.00,1.96,14.56,276,2039,7892,0,-1,0
-20.00,1.96,14.56,277,2037,7887,0,-1,0
-20.01,1.97,14.56,284,2051,7888,0,-1,0
-20.01,1.98,14.56,289,2051,7891,-1,-1,0
-20.01,1.98,14.56,284,2055,7893,-1,-1,0
-20.01,1.98,14.56,285,2054,7889,-1,0,0
-20.01,1.98,14.56,281,2054,7888,-1,-1,0
-20.01,1.99,14.56,283,2047,7896,0,-1,0
-20.01,1.99,14.56,281,2047,7894,-1,-1,0
-20.02,1.99,14.55,281,2044,7888,-1,-1,0
-20.02,1.99,14.55,281,2046,7886,-1,-1,0
-20.02,1.99,14.55,282,2048,7888,-1,-1,0
-20.02,1.99,14.55,282,2044,7892,-1,0,0
-20.02,1.99,14.55,287,2040,7892,0,0,0
-20.02,1.99,14.54,281,2037,7887,-1,-1,0
-20.02,1.99,14.54,282,2039,7887,0,0,-1
-20.02,1.99,14.55,279,2050,7887,0,-1,0
-20.02,1.99,14.56,287,2059,7885,-1,-1,0
-20.02,2.00,14.56,284,2057,7890,-1,-1,0
-20.02,2.00,14.55,290,2054,7895,-1,-1,0
-20.02,2.01,14.55,287,2056,7899,-1,-1,-1
-20.02,2.01,14.55,290,2051,7898,-1,0,0
-20.03,2.01,14.54,288,2037,7893,-1,-1,0
-20.03,2.01,14.54,293,2024,7893,0,-1,0
-20.04,2.01,14.54,292,2023,7895,0,-1,0
-20.04,2.02,14.55,300,2033,7882,0,-1,-1
-20.04,2.02,14.55,292,2051,7871,0,0,0
-20.04,2.02,14.55,290,2061,7876,-1,0,0
-20.04,2.02,14.55,289,2052,7891,-1,-1,0
-20.04,2.02,14.55,289,2041,7887,-1,-1,0
-20.04,2.03,14.55,288,2038,7888,0,-1,0
-20.04,2.03,14.55,295,2040,7884,0,-1,0
-20.04,2.03,14.55,289,2051,7891,-1,0,0
-20.04,2.03,14.55,291,2052,7897,-1,-1,0
-20.04,2.03,14.55,294,2048,7893,-1,-1,-1
-20.04,2.04,14.54,289,2043,7885,-1,-1,0
-20.05,2.04,14.54,288,2038,7890,-1,-1,0
-20.05,2.04,14.54,291,2043,7886,-1,-1,0
-20.05,2.04,14.54,288,2037,7889,0,-1,0
-20.05,2.04,14.54,292,2042,7886,0,0,0
-20.05,2.04,14.54,288,2034,7886,0,0,-1
-20.05,2.04,14.54,290,2034,7881,0,0,0
-20.05,2.04,14.54,297,2043,7891,0,0,-1
-20.05,2.04,14.54,293,2050,7899,-1,0,0
-20.05,2.04,14.54,290,2049,7907,-1,0,0
-20.05,2.04,14.54,288,2046,7905,0,0,0
-20.05,2.04,14.54,288,2046,7898,0,-1,0
-20.05,2.04,14.54,291,2047,7892,0,-1,0
-20.05,2.04,14.54,287,2047,7886,0,0,0
-20.06,2.04,14.54,285,2053,7886,-1,0,0
-20.06,2.04,14.54,288,2049,7886,-1,-1,0
-20.06,2.05,14.54,295,2040,7880,-1,-1,0
-20.06,2.05,14.54,296,2038,7883,0,0,0
-20.06,2.05,14.54,285,2040,7884,0,-1,0
-20.06,2.06,14.55,292,2048,7886,0,-1,0
-20.06,2.06,14.55,296,2057,7886,0,-1,0
-20.06,2.06,14.55,295,2058,7887,-1,0,0
-20.06,2.06,14.55,294,2043,7886,-1,0,0
-20.07,2.06,14.54,299,2031,7891,0,0,0
-20.06,2.06,14.55,296,2037,7887,0,-1,-1
-20.06,2.07,14.55,296,2052,7889,0,-1,0
-20.06,2.07,14.55,295,2057,7886,-1,-1,0
-20.07,2.07,14.55,293,2051,7888,-1,-1,0
-20.08,2.08,14.55,297,2044,7888,-1,-1,0
-20.08,2.08,14.55,298,2048,7892,-1,-1,0
-20.08,2.08,14.55,299,2039,7893,0,0,0
-20.08,2.08,14.55,298,2041,7900,0,0,0
-20.08,2.08,14.55,295,2047,7897,0,-1,0
-20.08,2.08,14.56,294,2053,7881,-1,-1,0
-20.08,2.08,14.56,296,2059,7877,-1,-1,0
-20.09,2.09,14.56,291,2053,7884,-1,-1,0
-20.09,2.09,14.55,292,2043,7893,-1,-1,0
-20.09,2.08,14.55,299,2041,7900,0,0,-1
-20.08,2.08,14.56,287,2044,7900,0,0,-1
-20.08,2.08,14.56,286,2037,7898,0,-1,0
-20.09,2.08,14.57,296,2031,7882,0,-1,0
-20.09,2.09,14.57,304,2048,7880,0,-1,0
-20.09,2.09,14.57,304,2063,7885,-1,0,-1
-20.09,2.08,14.57,291,2066,7892,-1,-1,-1
-20.09,2.08,14.57,286,2057,7895,-1,-1,0
-20.09,2.09,14.56,293,2049,7893,-1,-1,0
-20.09,2.08,14.57,287,2050,7890,0,-1,0
-20.09,2.09,14.56,291,2048,7885,0,-1,0
-20.10,2.09,14.56,298,2048,7889,0,-1,0
-20.10,2.10,14.57,308,2057,7889,-1,-1,0
-20.10,2.10,14.57,303,2061,7883,-1,0,0
-20.10,2.10,14.55,302,2048,7882,-1,0,0
-20.10,2.09,14.55,284,2039,7892,-1,-1,0
-20.10,2.10,14.55,288,2041,7890,0,-1,0
-20.11,2.11,14.55,288,2048,7888,-1,-1,0
-20.11,2.11,14.55,294,2051,7889,-1,-1,0
-20.12,2.11,14.55,304,2047,7886,0,-1,0
-20.12,2.11,14.55,307,2048,7882,-1,-1,0
-20.12,2.12,14.55,308,2060,7896,-1,-1,0
-20.12,2.13,14.54,311,2057,7893,-1,0,0
-20.12,2.12,14.54,304,2051,7898,-1,0,0
-20.12,2.12,14.54,298,2039,7902,0,-1,-1
-20.12,2.13,14.54,306,2036,7897,0,-1,0
-20.12,2.13,14.55,304,2042,7890,0,0,0
-20.13,2.13,14.55,307,2058,7887,0,0,0
-20.13,2.13,14.56,307,2057,7884,-1,-1,0
-20.13,2.13,14.55,304,2055,7881,-1,0,0
-20.13,2.13,14.55,311,2045,7886,0,0,0
-20.13,2.13,14.55,304,2043,7888,0,0,0
-20.13,2.13,14.55,300,2044,7887,0,-1,-1
-20.13,2.13,14.56,306,2048,7888,0,-1,-1
-20.13,2.13,14.56,314,2055,7892,0,0,-1
-20.13,2.13,14.56,310,2054,7892,-1,0,-1
-20.12,2.13,14.56,310,2046,7891,-1,0,-1
-20.12,2.12,14.55,304,2041,7888,0,-1,-1
-20.12,2.13,14.55,306,2041,7890,0,-1,-1
-20.12,2.12,14.55,295,2047,7878,0,0,-1
-20.11,2.12,14.56,303,2050,7884,0,-1,-1
-20.11,2.12,14.56,300,2058,7880,-1,0,-1
-20.11,2.12,14.56,303,2058,7879,-1,0,-1
-20.11,2.11,14.55,303,2047,7892,-1,0,-1
-20.10,2.11,14.56,306,2051,7895,0,-1,-1
-20.10,2.11,14.56,305,2052,7896,0,0,-1
-20.10,2.11,14.56,310,2045,7891,-1,0,-1
-20.10,2.11,14.56,310,2051,7887,0,0,-1
-20.10,2.11,14.57,304,2050,7883,0,-1,-1
-20.09,2.11,14.57,298,2048,7886,0,-1,-1
-20.09,2.11,14.57,309,2038,7889,0,-1,-1
-20.08,2.12,14.57,299,2064,7878,-1,0,-1
-20.08,2.11,14.57,294,2057,7876,-1,-1,-1
-20.08,2.11,14.57,307,2041,7888,-1,0,-1
-20.08,2.10,14.57,295,2043,7879,0,0,-1
-20.08,2.10,14.57,299,2038,7876,0,-1,-1
-20.08,2.10,14.58,308,2051,7883,0,0,-1
-20.07,2.10,14.58,310,2074,7884,0,-1,-1
-20.07,2.10,14.58,326,2064,7883,-1,0,-1
-20.07,2.09,14.58,308,2056,7886,-1,0,-1
-20.07,2.09,14.58,291,2045,7880,-1,0,-1
-20.06,2.08,14.57,282,2040,7887,0,0,-1
-20.06,2.07,14.58,281,2044,7900,0,0,-1
-20.06,2.07,14.58,296,2054,7899,0,0,-1
-20.06,2.07,14.59,303,2059,7901,0,0,-1
-20.06,2.06,14.59,298,2057,7887,-1,0,-1
-20.05,2.06,14.58,296,2046,7878,-1,0,-1
-20.05,2.05,14.58,296,2042,7888,-1,0,-1
-20.05,2.05,14.58,300,2050,7896,0,-1,-1
-20.04,2.05,14.58,301,2063,7895,-1,0,-1
-20.04,2.05,14.58,296,2054,7895,-1,0,-1
-20.04,2.05,14.58,300,2046,7894,-1,-1,-1
-20.04,2.05,14.58,303,2044,7894,0,0,-1
-20.04,2.05,14.58,304,2047,7889,0,0,-1
-20.03,2.04,14.58,305,2054,7883,0,0,-1
-20.03,2.03,14.57,298,2057,7880,-1,0,-1
-20.03,2.03,14.57,294,2044,7895,-1,0,-1
-20.03,2.02,14.57,288,2039,7888,0,0,-1
-20.03,2.02,14.57,288,2048,7891,0,-1,-1
-20.02,2.02,14.58,285,2060,7895,0,0,-1
-20.02,2.02,14.58,292,2062,7887,-1,0,-1
-20.02,2.02,14.58,299,2059,7892,-1,0,-1
-20.02,2.01,14.58,286,2050,7894,0,0,-1
-20.02,2.00,14.58,283,2050,7891,-1,0,-1
-20.01,2.00,14.58,284,2048,7886,0,0,-1
-20.01,2.00,14.59,285,2047,7883,0,0,-1
-20.00,2.00,14.59,293,2055,7882,0,0,-1
-20.00,1.99,14.59,296,2060,7882,-1,0,-1
-20.00,1.99,14.58,293,2054,7875,-1,0,-1
-20.00,1.98,14.58,292,2047,7889,-1,0,-1
-19.99,1.98,14.58,293,2038,7889,0,0,-1
-19.99,1.97,14.58,288,2047,7881,0,0,-1
-19.99,1.97,14.58,287,2056,7884,-1,0,-1
-19.98,1.96,14.58,282,2059,7888,0,0,-1
-19.98,1.96,14.58,286,2050,7892,0,0,-1
-19.98,1.96,14.58,290,2049,7887,0,0,-1
-19.98,1.95,14.58,288,2051,7888,0,0,-1
-19.98,1.94,14.58,281,2052,7879,0,0,-1
-19.98,1.94,14.58,280,2049,7883,0,0,-1
-19.97,1.94,14.59,283,2057,7888,-1,0,-1
-19.97,1.94,14.58,283,2056,7882,-1,0,-1
-19.96,1.93,14.58,276,2051,7878,-1,0,-1
-19.96,1.92,14.59,272,2058,7896,-1,0,-1
-19.96,1.91,14.58,268,2051,7912,-1,0,-1
-19.96,1.91,14.57,267,2042,7907,0,0,-1
-19.96,1.91,14.58,274,2046,7901,0,-1,-1
-19.96,1.91,14.59,287,2055,7890,0,0,-1
-19.96,1.91,14.59,292,2059,7883,0,0,-1
-19.95,1.90,14.59,282,2054,7878,-1,0,-1
-19.95,1.89,14.58,271,2049,7892,-1,0,-1
-19.94,1.89,14.58,268,2044,7890,0,0,-1
-19.93,1.88,14.59,264,2058,7895,0,0,-1
-19.93,1.88,14.60,265,2065,7890,0,-1,-1
-19.93,1.88,14.60,275,2064,7877,-1,0,0
-19.93,1.88,14.60,270,2058,7884,0,0,-1
-19.93,1.88,14.61,273,2051,7893,0,0,-1
-19.92,1.88,14.61,271,2050,7888,0,0,-1
-19.92,1.87,14.62,266,2059,7888,0,0,-1
-19.92,1.87,14.61,265,2059,7892,0,-1,-1
-19.92,1.87,14.61,268,2051,7898,0,-1,-1
-19.92,1.88,14.61,270,2050,7890,0,-1,0
-19.92,1.88,14.61,277,2041,7881,-1,-1,0
-19.92,1.88,14.61,272,2053,7882,0,0,-1
-19.92,1.88,14.61,278,2060,7884,0,0,-1
-19.92,1.88,14.61,286,2060,7896,-1,0,-1
-19.92,1.88,14.61,276,2055,7893,0,0,0
-19.92,1.88,14.61,267,2050,7889,-1,-1,0
-19.93,1.88,14.61,267,2046,7898,0,-1,-1
-19.93,1.88,14.61,263,2060,7894,0,0,0
-19.93,1.88,14.62,267,2055,7893,0,-1,-1
-19.93,1.88,14.62,267,2050,7895,-1,0,0
-19.93,1.89,14.61,264,2051,7890,-1,-1,0
-19.93,1.89,14.62,270,2060,7886,0,-1,0
-19.94,1.89,14.62,272,2064,7895,0,-1,0
-19.94,1.90,14.62,280,2062,7896,-1,-1,0
-19.95,1.90,14.62,282,2067,7892,-1,-1,0
-19.95,1.90,14.62,285,2063,7884,-1,-1,-1
-19.95,1.91,14.62,288,2053,7885,-1,-1,-1
-19.95,1.91,14.62,281,2051,7881,-1,0,-1
-19.95,1.90,14.61,276,2050,7876,-1,0,0
-19.95,1.91,14.60,282,2049,7883,-1,-1,0
-19.95,1.91,14.60,285,2052,7886,0,-1,0
-19.95,1.92,14.60,283,2054,7893,-1,-1,0
-19.96,1.92,14.60,279,2052,7886,0,-1,0
-19.96,1.92,14.60,277,2051,7890,0,-1,-1
-19.96,1.92,14.60,270,2051,7888,0,-1,0
-19.96,1.92,14.60,266,2054,7896,0,-1,0
-19.96,1.92,14.61,274,2063,7893,0,-1,0
-19.97,1.93,14.61,271,2070,7892,-1,-1,0
-19.97,1.93,14.61,276,2069,7881,-1,-1,0
-19.96,1.93,14.61,282,2070,7878,0,-1,-1
-19.96,1.94,14.61,285,2077,7891,-1,-1,-1
-19.97,1.94,14.60,281,2057,7886,-1,-1,0
-19.97,1.94,14.60,277,2040,7889,0,-1,0
-19.97,1.95,14.60,274,2037,7899,0,-1,0
-19.97,1.95,14.60,286,2039,7883,0,-1,-1
-19.97,1.95,14.61,288,2048,7873,0,0,0
-19.97,1.95,14.61,289,2055,7874,-1,0,0
-19.97,1.95,14.60,288,2052,7878,-1,0,0
-19.97,1.95,14.60,289,2051,7888,-1,0,-1
-19.97,1.95,14.59,286,2051,7899,0,-1,0
-19.98,1.96,14.60,284,2048,7895,0,-1,0
-19.98,1.96,14.60,288,2062,7889,-1,-1,0
-19.98,1.96,14.60,285,2060,7882,-1,-1,0
-19.98,1.96,14.60,287,2049,7881,0,-1,0
-19.98,1.97,14.60,286,2052,7883,-1,-1,-1
-19.98,1.97,14.60,284,2049,7878,-1,-1,0
-19.98,1.97,14.60,285,2049,7883,-1,-1,0
-19.98,1.97,14.60,288,2054,7885,0,-1,0
-19.98,1.97,14.60,286,2052,7891,0,-1,0
-19.98,1.98,14.60,287,2044,7893,-1,-1,0
-19.99,1.98,14.60,288,2047,7889,0,-1,-1
-19.99,1.98,14.60,294,2046,7895,0,0,-1
-19.98,1.98,14.60,289,2049,7896,0,0,-1
-19.99,1.98,14.60,289,2057,7895,-1,-1,0
-19.99,1.98,14.59,283,2061,7899,-1,-1,0
-19.99,1.98,14.59,282,2051,7895,0,-1,-1
-19.99,1.99,14.59,288,2048,7892,0,-1,0
-19.99,1.99,14.59,290,2044,7881,0,-1,0
-19.99,2.00,14.59,294,2053,7874,0,-1,0
-19.99,2.00,14.60,293,2064,7876,0,-1,-1
-20.00,2.00,14.60,299,2067,7877,-1,0,0
-20.00,2.00,14.59,295,2054,7887,-1,-1,0
-20.00,2.01,14.59,287,2041,7880,-1,0,0
-20.00,2.01,14.59,286,2042,7887,0,-1,0
-20.00,2.02,14.60,293,2050,7886,0,-1,-1
-20.00,2.02,14.60,295,2060,7894,-1,-1,0
-20.00,2.03,14.60,294,2053,7894,-1,-1,0
-20.01,2.03,14.59,290,2053,7892,-1,-1,0
-20.01,2.02,14.58,291,2049,7887,-1,-1,0
-20.01,2.03,14.58,292,2044,7891,0,0,-1
-20.01,2.03,14.58,288,2052,7882,0,-1,0
-20.01,2.03,14.59,285,2053,7891,-1,0,0
-20.01,2.03,14.58,281,2056,7883,-1,-1,0
-20.01,2.03,14.58,287,2053,7888,0,-1,0
-20.01,2.03,14.59,286,2062,7889,0,-1,0
-20.02,2.04,14.59,295,2054,7887,-1,-1,0
-20.02,2.04,14.59,298,2053,7880,0,-1,0
-20.02,2.05,14.59,300,2048,7885,0,-1,0
-20.02,2.05,14.59,299,2044,7894,0,-1,-1
-20.02,2.05,14.59,296,2038,7886,0,-1,0
-20.02,2.05,14.59,296,2048,7881,0,-1,0
-20.02,2.05,14.59,302,2054,7878,-1,-1,0
-20.03,2.06,14.59,303,2065,7878,-1,-1,0
-20.02,2.06,14.59,304,2063,7890,-1,0,-1
-20.02,2.06,14.58,300,2059,7898,-1,-1,0
-20.03,2.06,14.58,295,2050,7891,-1,-1,0
-20.03,2.07,14.58,296,2050,7882,0,-1,0
-20.03,2.07,14.58,298,2046,7890,0,-1,0
-20.03,2.08,14.59,305,2051,7884,0,-1,0
-20.04,2.08,14.59,306,2059,7878,-1,-1,0
-20.04,2.08,14.59,307,2055,7878,-1,0,0
-20.04,2.08,14.58,299,2045,7891,-1,-1,-1
-20.04,2.08,14.58,301,2035,7885,0,-1,-1
-20.04,2.08,14.58,302,2042,7898,0,-1,-1
-20.04,2.09,14.58,306,2048,7888,0,-1,0
-20.04,2.09,14.58,308,2053,7891,-1,-1,0
-20.04,2.09,14.58,308,2058,7890,0,-1,0
-20.05,2.10,14.58,309,2054,7894,0,0,-1
-20.05,2.10,14.58,309,2049,7886,0,0,-1
-20.05,2.10,14.58,308,2065,7883,-1,0,0
-20.04,2.09,14.58,306,2061,7891,-1,0,0
-20.05,2.10,14.58,301,2055,7889,0,-1,-1
-20.05,2.10,14.58,308,2054,7890,0,-1,-1
-20.05,2.10,14.58,305,2050,7889,-1,0,-1
-20.05,2.10,14.58,306,2042,7891,0,-1,-1
-20.04,2.10,14.58,308,2045,7892,0,0,-1
-20.04,2.10,14.58,305,2051,7892,0,-1,-1
-20.04,2.10,14.58,314,2051,7899,-1,0,-1
-20.03,2.09,14.57,306,2037,7907,0,0,-1
-20.03,2.09,14.57,305,2041,7909,0,0,-1
-20.03,2.09,14.58,303,2044,7900,0,0,-1
-20.03,2.09,14.58,310,2055,7895,0,0,-1
-20.02,2.09,14.59,308,2075,7889,0,0,-1
-20.02,2.08,14.60,305,2068,7875,0,0,-1
-20.02,2.09,14.59,303,2060,7873,-1,0,-1
-20.02,2.08,14.59,304,2052,7886,-1,0,-1
-20.02,2.08,14.59,304,2056,7889,0,0,-1
-20.02,2.08,14.60,301,2061,7885,0,0,-1
-20.01,2.08,14.59,307,2054,7886,-1,0,-1
-20.01,2.07,14.59,308,2054,7896,-1,0,-1
-20.01,2.07,14.59,311,2046,7890,-1,-1,-1
-20.00,2.07,14.59,311,2039,7892,0,0,-1
-19.99,2.07,14.59,300,2052,7901,0,0,-1
-19.99,2.07,14.59,307,2043,7906,0,-1,-1
-19.99,2.07,14.59,313,2049,7908,0,0,-1
-19.98,2.07,14.60,304,2063,7905,0,0,-1
-19.97,2.06,14.60,306,2056,7882,0,0,-1
-19.97,2.06,14.61,299,2052,7887,0,-1,-1
-19.97,2.07,14.62,309,2057,7897,0,0,-1
-19.95,2.06,14.63,296,2060,7892,0,0,-1
-19.94,2.06,14.63,289,2068,7886,0,-1,-1
-19.94,2.06,14.63,308,2055,7888,0,0,-1
-19.94,2.06,14.64,289,2058,7887,0,-1,-1
-19.94,2.07,14.65,300,2059,7881,0,-1,0
-19.94,2.07,14.65,316,2049,7872,0,0,-1
-19.94,2.05,14.65,295,2062,7871,0,0,-1
-19.94,2.05,14.65,296,2063,7882,-1,-1,0
-19.93,2.05,14.65,298,2058,7888,-1,0,-1
-19.93,2.04,14.64,276,2053,7883,-1,-1,0
-19.94,2.05,14.64,307,2048,7869,0,0,-1
-19.93,2.04,14.64,304,2055,7877,-1,0,0
-19.93,2.04,14.64,301,2048,7878,0,0,-1
-19.92,2.03,14.64,307,2052,7876,-1,0,-1
-19.92,2.02,14.64,301,2055,7881,0,0,-1
-19.92,2.02,14.64,292,2058,7884,0,0,-1
-19.92,2.01,14.64,283,2061,7892,-1,0,-1
-19.91,2.01,14.63,286,2053,7891,0,0,-1
-19.91,2.00,14.64,278,2059,7885,-1,0,-1
-19.91,2.00,14.64,288,2052,7886,0,0,-1
-19.91,2.00,14.64,292,2051,7891,0,0,-1
-19.91,2.00,14.64,295,2076,7881,0,0,-1
-19.91,2.00,14.65,303,2072,7879,-1,0,-1
-19.90,1.99,14.64,291,2064,7886,-1,0,-1
-19.90,1.99,14.65,285,2063,7888,0,0,-1
-19.90,1.98,14.64,270,2064,7885,-1,-1,-1
-19.90,1.98,14.64,294,2046,7878,-1,0,-1
-19.90,1.98,14.63,295,2055,7869,-1,0,-1
-19.90,1.97,14.63,296,2056,7870,-1,0,-1
-19.89,1.96,14.64,286,2061,7868,-1,0,-1
-19.89,1.95,14.63,291,2061,7886,-1,0,-1
-19.89,1.95,14.62,279,2060,7901,-1,0,-1
-19.89,1.95,14.62,284,2058,7897,0,0,-1
-19.88,1.94,14.62,286,2047,7884,-1,0,-1
-19.88,1.93,14.62,279,2045,7880,0,0,-1
-19.88,1.92,14.62,271,2047,7887,0,0,-1
-19.88,1.92,14.63,279,2060,7892,0,0,-1
-19.87,1.92,14.63,272,2059,7888,-1,0,-1
-19.87,1.92,14.63,276,2058,7883,-1,0,-1
-19.87,1.91,14.62,271,2051,7900,0,0,-1
-19.87,1.91,14.62,272,2054,7897,0,-1,-1
-19.87,1.91,14.62,290,2054,7902,-1,0,-1
-19.87,1.91,14.62,285,2058,7889,0,0,-1
-19.85,1.89,14.63,284,2057,7894,-1,0,-1
-19.85,1.89,14.62,279,2060,7888,-1,0,-1
-19.85,1.88,14.61,277,2052,7887,-1,0,-1
-19.85,1.88,14.61,276,2048,7889,-1,0,-1
-19.85,1.87,14.61,273,2053,7892,0,0,-1
-19.85,1.87,14.61,264,2057,7882,0,0,-1
-19.85,1.86,14.61,274,2063,7898,-1,0,-1
-19.85,1.86,14.60,269,2051,7899,-1,0,-1
-19.85,1.85,14.60,266,2046,7897,-1,0,-1
-19.84,1.85,14.60,272,2050,7889,0,0,-1
-19.84,1.85,14.61,277,2059,7884,0,0,-1
-19.84,1.85,14.61,272,2062,7882,-1,0,-1
-19.83,1.85,14.60,278,2046,7890,-1,0,-1
-19.83,1.84,14.60,262,2047,7890,0,-1,-1
-19.83,1.84,14.60,263,2056,7893,-1,0,-1
-19.83,1.84,14.60,258,2056,7891,-1,0,0
-19.83,1.84,14.60,253,2056,7887,0,-1,0
-19.83,1.84,14.61,267,2062,7882,0,-1,-1
-19.83,1.84,14.61,276,2053,7876,0,-1,-1
-19.82,1.84,14.62,286,2056,7871,0,0,-1
-19.82,1.83,14.63,273,2062,7872,0,0,-1
-19.81,1.83,14.63,258,2064,7878,-1,-1,-1
-19.81,1.83,14.63,257,2049,7883,0,-1,-1
-19.80,1.83,14.64,257,2047,7880,0,-1,-1
-19.81,1.84,14.65,261,2069,7887,0,-1,-1
-19.80,1.84,14.66,251,2069,7882,0,-1,-1
-19.81,1.84,14.66,265,2067,7883,0,0,0
-19.81,1.84,14.66,263,2068,7875,-1,-1,0
-19.82,1.85,14.65,279,2045,7867,-1,0,0
-19.82,1.85,14.65,272,2051,7872,0,-1,-1
-19.81,1.85,14.65,261,2066,7886,-1,-1,0
-19.82,1.85,14.65,265,2062,7897,-1,-1,0
-19.83,1.86,14.64,267,2061,7894,-1,-1,0
-19.83,1.87,14.64,273,2070,7890,-1,-1,0
-19.83,1.87,14.64,277,2058,7884,-1,-1,0
-19.84,1.88,14.63,275,2047,7874,0,-1,0
-19.84,1.88,14.63,276,2050,7886,-1,0,0
-19.84,1.88,14.62,272,2046,7879,-1,-1,0
-19.84,1.88,14.63,271,2059,7888,0,-1,0
-19.85,1.89,14.63,266,2061,7886,-1,-1,0
-19.85,1.89,14.63,266,2056,7872,-1,-1,0
-19.85,1.90,14.62,280,2054,7872,0,-1,0
-19.86,1.91,14.62,287,2048,7874,0,-1,-1
-19.86,1.92,14.63,283,2046,7878,0,-1,-1
-19.85,1.91,14.63,282,2058,7876,0,0,-1
-19.85,1.91,14.63,269,2055,7879,-1,-1,0
-19.86,1.92,14.63,283,2045,7881,0,-1,0
-19.85,1.93,14.64,274,2051,7889,0,-1,-1
-19.85,1.95,14.65,289,2063,7884,0,-1,0
-19.86,1.95,14.64,282,2077,7882,-1,-1,0
-19.86,1.95,14.64,295,2071,7886,-1,0,0
-19.86,1.95,14.64,279,2067,7880,-1,-1,0
-19.87,1.96,14.64,295,2056,7888,-1,-1,0
-19.87,1.96,14.64,289,2055,7886,0,-1,0
-19.87,1.96,14.64,291,2066,7887,-1,0,-1
-19.87,1.96,14.63,281,2047,7889,-1,-1,0
-19.88,1.96,14.63,291,2056,7887,-1,0,0
-19.88,1.96,14.63,284,2068,7880,0,0,-1
-19.88,1.96,14.63,290,2065,7888,-1,-1,0
-19.88,1.97,14.63,293,2066,7889,-1,0,0
-19.88,1.96,14.62,284,2054,7887,-1,-1,0
-19.88,1.96,14.61,289,2040,7893,-1,0,0
-19.89,1.97,14.62,290,2047,7897,0,-1,0
-19.89,1.98,14.62,286,2071,7880,0,-1,-1
-19.88,1.98,14.63,288,2075,7885,-1,-1,0
-19.89,1.99,14.62,295,2066,7878,-1,-1,0
-19.89,1.99,14.62,288,2059,7890,-1,-1,-1
-19.89,1.99,14.62,286,2055,7904,0,-1,0
-19.89,1.99,14.62,292,2054,7901,0,-1,0
-19.89,2.00,14.62,292,2043,7894,0,-1,0
-19.90,2.01,14.63,306,2041,7883,0,-1,0
-19.90,2.01,14.63,290,2067,7878,0,-1,-1
-19.90,2.02,14.63,301,2065,7874,-1,-1,0
-19.91,2.02,14.63,308,2067,7879,-1,0,-1
