Yaw,Pitch,Roll,AX,AY,AZ,GX,GY,GZ
-19.95,1.41,14.26,211,2016,7899,0,-1,-1
-19.95,1.41,14.26,211,2021,7899,-1,0,0
-19.96,1.42,14.26,209,2014,7890,-1,-1,0
-19.96,1.42,14.26,204,2013,7895,0,-1,0
-19.96,1.42,14.27,202,2013,7907,0,-1,0
-19.96,1.42,14.26,213,2011,7913,0,-1,0
-19.96,1.43,14.27,211,2014,7903,0,-1,0
-19.96,1.43,14.27,211,2016,7902,0,-1,0
-19.96,1.43,14.27,211,2017,7904,-1,-1,0
-19.97,1.43,14.27,218,2016,7906,-1,0,0
-19.97,1.43,14.27,211,2009,7899,-1,-1,0
-19.97,1.44,14.26,205,1998,7903,0,-1,-1
-19.97,1.44,14.27,203,2005,7899,0,-1,0
-19.97,1.45,14.27,203,2012,7903,0,-1,0
-19.97,1.45,14.27,207,2015,7903,-1,-1,0
-19.98,1.46,14.27,212,2021,7903,-1,-1,0
-19.98,1.46,14.27,213,2015,7896,-1,-1,0
-19.98,1.46,14.27,211,1994,7901,0,-1,-1
-19.97,1.46,14.27,214,1990,7893,0,0,-1
-19.96,1.46,14.28,192,2023,7894,0,-1,-1
-19.96,1.46,14.28,195,2033,7887,-1,-1,0
-19.97,1.46,14.27,221,1991,7907,0,-1,0
-19.96,1.46,14.28,208,2003,7904,0,0,-1
-19.96,1.46,14.29,189,2013,7885,0,-1,0
-19.97,1.47,14.29,220,2011,7879,-1,0,0
-19.97,1.46,14.29,212,2025,7881,-1,-1,-1
-19.98,1.47,14.29,217,2019,7889,-1,0,0
-19.98,1.46,14.27,208,2018,7899,-1,-1,0
-19.99,1.46,14.27,208,2004,7908,-1,-1,0
-19.99,1.47,14.26,212,1989,7902,0,-1,0
-19.99,1.47,14.26,216,1995,7899,0,-1,0
-19.99,1.48,14.27,220,1994,7902,0,-1,0
-20.00,1.49,14.28,230,2011,7896,0,0,0
-20.00,1.49,14.28,218,2022,7885,-1,0,0
-20.00,1.48,14.26,211,2014,7897,-1,0,0
-20.00,1.48,14.25,205,1992,7914,-1,-1,0
-20.00,1.48,14.25,200,1995,7909,0,-1,0
-20.00,1.48,14.25,199,2015,7902,0,-1,0
-20.01,1.49,14.26,202,2014,7903,-1,-1,0
-20.01,1.50,14.26,214,2010,7894,0,-1,0
-20.02,1.50,14.26,218,2019,7900,-1,-1,0
-20.02,1.51,14.26,226,2011,7900,-1,-1,0
-20.02,1.51,14.26,226,2008,7900,0,0,-1
-20.02,1.51,14.26,223,2011,7906,-1,0,0
-20.03,1.51,14.26,217,2011,7913,-1,-1,0
-20.03,1.51,14.25,227,2004,7910,-1,-1,0
-20.03,1.52,14.26,221,2010,7904,0,-1,0
-20.03,1.52,14.26,222,2012,7899,0,-1,0
-20.03,1.52,14.26,221,2013,7895,0,-1,0
-20.03,1.52,14.26,215,2028,7900,-1,0,0
-20.03,1.52,14.26,210,2017,7905,-1,0,-1
-20.03,1.52,14.26,215,2006,7897,-1,0,0
-20.03,1.52,14.26,210,2008,7895,0,-1,0
-20.03,1.52,14.26,213,2012,7902,0,-1,0
-20.03,1.52,14.26,222,2015,7901,0,-1,0
-20.04,1.53,14.27,220,2018,7903,-1,-1,0
-20.04,1.53,14.27,220,2012,7901,-1,-1,0
-20.04,1.53,14.27,219,2017,7906,-1,-1,-1
-20.04,1.53,14.26,216,2007,7907,-1,-1,0
-20.04,1.53,14.26,218,1997,7905,-1,-1,0
-20.04,1.53,14.25,220,1997,7906,-1,0,0
-20.04,1.54,14.25,215,1994,7912,0,-1,-1
-20.04,1.55,14.26,229,1992,7909,0,-1,-1
-20.04,1.55,14.27,225,2020,7904,-1,0,-1
-20.03,1.54,14.27,218,2035,7905,-1,-1,-1
-20.03,1.54,14.27,217,2011,7896,-1,0,0
-20.03,1.54,14.26,220,2003,7922,0,0,-1
-20.03,1.55,14.27,209,1989,7930,0,-1,0
-20.04,1.56,14.27,227,2001,7928,0,-1,0
-20.05,1.58,14.27,212,1993,7914,0,-2,0
-20.06,1.58,14.29,265,2020,7894,0,1,0
-20.06,1.57,14.28,204,2027,7918,-1,-1,0
-20.09,1.58,14.27,227,1970,7906,-1,0,0
-20.10,1.59,14.25,207,1955,7890,-1,-1,0
-20.11,1.60,14.28,224,1982,7908,1,-1,0
-20.11,1.60,14.30,240,2049,7926,-1,0,0
-20.12,1.60,14.30,219,2066,7867,-1,-1,0
-20.13,1.62,14.28,262,2023,7920,-1,0,0
-20.15,1.61,14.26,256,1987,7893,-1,1,0
-20.15,1.59,14.27,210,2037,7933,0,-1,0
-20.16,1.61,14.26,235,1978,7921,-1,0,0
-20.18,1.62,14.25,272,2007,7938,0,-1,0
-20.20,1.63,14.27,206,2009,7913,0,-1,0
-20.23,1.67,14.25,272,2001,7874,-1,-1,1
-20.24,1.66,14.26,223,2013,7918,0,-1,0
-20.27,1.68,14.25,253,2016,7904,0,0,0
-20.28,1.68,14.24,230,1971,7885,-1,0,0
-20.28,1.69,14.26,250,2001,7896,0,-1,0
-20.29,1.69,14.27,218,2023,7929,-1,-1,0
-20.32,1.72,14.25,229,1971,7866,0,-1,0
-20.33,1.73,14.27,270,1986,7890,0,0,-1
-20.33,1.72,14.29,231,2041,7891,0,-1,0
-20.32,1.73,14.30,226,2050,7890,-1,-1,0
-20.36,1.76,14.28,247,1989,7859,-1,-1,0
-20.35,1.75,14.29,238,2034,7893,-2,-1,0
-20.36,1.76,14.28,274,2016,7872,0,1,0
-20.37,1.76,14.27,237,1988,7933,-1,-2,0
-20.36,1.76,14.27,247,2015,7896,-1,1,-1
-20.37,1.78,14.26,283,1962,7877,0,-1,0
-20.36,1.76,14.27,241,2029,7907,-1,0,-1
-20.36,1.77,14.26,260,1994,7882,-1,-1,0
-20.36,1.77,14.27,267,2007,7884,0,0,-1
-20.36,1.76,14.28,227,2065,7960,-1,-1,0
-20.36,1.79,14.25,287,1996,7905,0,-1,0
-20.37,1.77,14.26,259,2010,7951,0,0,-1
-20.37,1.78,14.27,245,2027,7916,0,0,0
-20.38,1.82,14.28,297,1968,7809,0,0,-1
-20.37,1.79,14.29,230,2042,7931,-1,-3,1
-20.36,1.81,14.29,288,2033,7882,0,1,-1
-20.38,1.80,14.27,255,1973,7889,0,0,-1
-20.36,1.79,14.29,204,2066,7930,-1,-2,0
-20.36,1.82,14.28,248,1987,7864,0,-1,-1
-20.36,1.84,14.29,279,2025,7946,0,-1,0
-20.36,1.84,14.30,248,2032,7892,-1,-1,-1
-20.35,1.85,14.30,299,2047,7866,-1,0,-1
-20.35,1.84,14.27,259,2007,7874,-1,0,-1
-20.34,1.83,14.27,274,1989,7886,0,0,-1
-20.32,1.81,14.28,261,2001,7909,0,0,-1
-20.30,1.81,14.29,249,2011,7925,-1,-1,-1
-20.29,1.80,14.29,257,2026,7895,-1,-1,-1
-20.27,1.80,14.28,262,2032,7893,-1,0,-1
-20.27,1.80,14.27,274,2027,7905,-1,0,-1
-20.26,1.78,14.26,267,2007,7913,-1,0,-1
-20.25,1.78,14.25,259,1987,7920,0,0,-1
-20.24,1.79,14.26,262,1987,7918,0,-1,-1
-20.23,1.79,14.27,264,2012,7904,0,-1,-1
-20.23,1.79,14.27,260,2017,7891,-1,-1,-1
-20.23,1.79,14.27,267,2015,7905,-1,0,-1
-20.23,1.79,14.27,255,2010,7905,0,-1,-1
-20.22,1.79,14.28,261,2013,7917,0,0,-1
-20.22,1.78,14.28,256,2017,7906,-1,0,0
-20.22,1.78,14.28,259,2002,7888,-1,0,0
-20.22,1.77,14.28,258,2002,7893,0,0,-1
-20.21,1.77,14.28,257,2019,7895,0,-1,-1
-20.20,1.77,14.29,262,2034,7894,-1,0,-1
-20.20,1.75,14.29,246,2048,7909,-1,0,-1
-20.20,1.75,14.29,260,2024,7911,-1,0,-1
-20.20,1.74,14.28,257,2021,7914,-1,0,-1
-20.19,1.73,14.28,239,2015,7908,-1,0,-1
-20.18,1.72,14.28,243,2008,7893,-1,0,-1
-20.18,1.72,14.27,249,2006,7893,-1,0,-1
-20.17,1.71,14.27,248,2012,7899,-1,0,-1
-20.17,1.70,14.27,244,2013,7908,-1,0,-1
-20.16,1.70,14.27,245,2024,7899,-1,0,-1
-20.16,1.70,14.27,236,2018,7901,-1,0,-1
-20.15,1.70,14.27,243,2011,7911,-1,-1,-1
-20.14,1.70,14.26,248,2008,7907,-1,0,-1
-20.14,1.70,14.25,253,1998,7902,-1,0,-1
-20.14,1.69,14.26,250,2000,7901,-1,0,-1
-20.13,1.68,14.26,249,2011,7900,-1,0,-1
-20.13,1.68,14.26,253,2020,7908,0,0,-1
-20.12,1.67,14.25,255,2013,7902,-1,0,-1
-20.11,1.66,14.25,250,2008,7904,-1,0,-1
-20.11,1.66,14.24,246,1992,7911,-1,0,-1
-20.11,1.65,14.24,236,1994,7910,0,0,-1
-20.09,1.64,14.24,234,2012,7902,0,0,-1
-20.09,1.63,14.25,233,2020,7913,-1,0,-1
-20.09,1.63,14.25,237,2022,7916,-1,0,-1
-20.09,1.63,14.25,235,2021,7902,-1,0,-1
-20.07,1.62,14.25,220,2013,7916,0,-1,-1
-20.07,1.62,14.25,231,2008,7902,0,0,-1
-20.06,1.60,14.26,233,1998,7893,-1,0,-1
-20.05,1.59,14.26,222,1989,7907,0,0,-1
-20.04,1.58,14.26,231,1999,7906,0,0,-1
-20.02,1.57,14.27,191,2004,7920,-1,-1,-1
-20.03,1.58,14.27,250,1973,7914,0,0,-1
-20.02,1.55,14.28,218,2028,7923,0,0,-1
-20.02,1.55,14.29,216,2031,7904,-1,0,0
-20.03,1.53,14.27,249,2008,7923,-1,1,0
-20.03,1.52,14.27,216,1992,7924,0,0,0
-20.02,1.50,14.28,215,2037,7924,0,0,-1
-20.03,1.50,14.27,206,2007,7902,-1,-1,0
-20.04,1.48,14.26,214,2008,7891,-1,0,-1
-20.03,1.47,14.28,216,2045,7891,0,0,-1
-20.04,1.47,14.25,207,1999,7926,-2,-1,0
-20.04,1.46,14.24,257,1990,7921,0,1,-1
-20.04,1.43,14.24,153,2015,7935,-1,-1,0
-20.05,1.44,14.23,226,1967,7889,0,0,0
-20.05,1.43,14.24,143,2030,7915,-1,-2,0
-20.06,1.45,14.24,262,1969,7862,1,1,-1
-20.07,1.43,14.26,175,2037,7896,-1,-1,0
-20.07,1.45,14.26,234,2008,7865,0,-1,-1
-20.07,1.45,14.26,222,2027,7880,-1,0,-1
-20.07,1.45,14.26,189,2012,7884,0,-1,0
-20.06,1.45,14.27,229,2015,7900,-1,0,-1
-20.06,1.44,14.26,163,2023,7893,0,-1,0
-20.06,1.44,14.26,198,2008,7874,-1,-1,0
-20.06,1.46,14.25,204,1979,7898,0,-1,0
-20.06,1.47,14.27,229,2006,7911,0,0,-1
-20.06,1.46,14.27,195,2029,7898,-1,-1,-1
-20.06,1.48,14.26,217,1994,7896,0,-1,-1
-20.06,1.48,14.27,221,2042,7917,-1,-1,-1
-20.06,1.49,14.27,205,2013,7911,-1,-1,0
-20.06,1.51,14.26,234,1992,7923,0,-1,-1
-20.06,1.51,14.27,217,2007,7928,0,-1,0
-20.06,1.52,14.26,230,2011,7898,-1,-1,0
-20.06,1.52,14.26,235,2001,7885,-1,0,0
-20.06,1.51,14.25,219,1994,7890,0,0,-1
-20.06,1.50,14.25,209,2005,7906,-1,0,-1
-20.05,1.50,14.25,198,2020,7906,-1,-1,-1
-20.06,1.51,14.26,209,2010,7899,0,-1,-1
-20.05,1.52,14.26,220,2008,7908,-1,-1,-1
-20.05,1.52,14.25,213,2006,7904,-1,-1,-1
-20.05,1.53,14.25,215,2003,7896,0,-1,-1
-20.05,1.53,14.25,213,1998,7891,-1,-1,0
-20.05,1.54,14.25,219,2002,7894,0,-1,0
-20.05,1.54,14.24,224,2007,7908,0,-1,-1
-20.05,1.55,14.25,225,2016,7916,0,-1,-1
-20.05,1.55,14.25,221,2022,7910,-1,-1,0
-20.05,1.55,14.25,222,2014,7903,-1,-1,0
-20.05,1.56,14.25,230,2012,7897,-1,-1,0
-20.05,1.56,14.24,225,2003,7894,-1,-1,0
-20.05,1.57,14.25,230,2009,7903,-1,-1,0
-20.05,1.56,14.24,225,2010,7910,-1,0,0
-20.05,1.56,14.24,221,2011,7905,-1,-1,0
-20.06,1.57,14.24,226,2008,7903,-1,-1,0
-20.06,1.57,14.24,220,2008,7902,-1,-1,0
-20.06,1.57,14.24,222,2012,7907,-1,-1,0
-20.06,1.57,14.25,224,2014,7898,-1,-1,-1
-20.07,1.57,14.25,224,2024,7895,0,0,0
-20.07,1.58,14.25,236,2019,7900,-1,-1,0
-20.08,1.58,14.24,236,2018,7910,-1,0,0
-20.08,1.59,14.24,230,2017,7911,-1,-1,-1
-20.08,1.59,14.24,223,2015,7911,0,-1,0
-20.08,1.59,14.24,220,2014,7904,-1,-1,0
-20.08,1.59,14.24,226,2005,7904,-1,-1,0
-20.08,1.60,14.24,230,2002,7898,0,-1,0
-20.08,1.60,14.24,235,2003,7898,0,-1,0
-20.09,1.61,14.25,238,2001,7896,0,-1,0
-20.09,1.61,14.25,240,2013,7897,-1,0,0
-20.09,1.61,14.25,240,2010,7896,-1,0,-1
-20.09,1.61,14.25,230,2009,7907,-1,0,-1
-20.08,1.60,14.24,226,2006,7910,-1,-1,0
-20.09,1.61,14.25,222,2012,7906,-1,-1,0
-20.09,1.61,14.25,228,2021,7910,0,-1,0
-20.09,1.61,14.25,229,2019,7909,-1,-1,0
-20.10,1.62,14.25,232,2024,7905,-1,-1,0
-20.10,1.62,14.25,234,2021,7903,-1,-1,0
-20.10,1.62,14.25,228,2012,7892,-1,-1,0
-20.10,1.62,14.25,228,2014,7899,-1,-1,0
-20.10,1.63,14.25,230,2011,7901,-1,-1,0
-20.11,1.63,14.24,226,2004,7898,-1,-1,0
-20.11,1.63,14.24,227,1996,7898,0,-1,0
-20.11,1.64,14.25,231,2004,7897,0,-1,0
-20.11,1.64,14.25,240,2008,7893,0,0,-1
-20.11,1.64,14.25,245,2013,7892,-1,0,-1
-20.11,1.63,14.24,239,2013,7901,-1,0,-1
-20.11,1.63,14.24,238,1999,7911,-1,-1,-1
-20.10,1.63,14.24,231,2005,7916,0,-1,-1
-20.11,1.64,14.25,237,2009,7914,-1,-1,0
-20.11,1.64,14.25,239,2011,7911,-1,0,0
-20.11,1.64,14.25,232,2011,7895,-1,-1,0
-20.12,1.65,14.24,241,2003,7906,-1,-1,0
-20.12,1.65,14.24,233,2002,7908,0,-1,-1
-20.12,1.65,14.24,236,2006,7909,-1,0,0
-20.12,1.65,14.24,233,1996,7907,-1,0,0
-20.12,1.65,14.24,234,2002,7895,0,-1,0
-20.12,1.66,14.24,239,1997,7891,-1,-1,0
-20.13,1.66,14.23,244,1999,7897,-1,-1,0
-20.13,1.66,14.23,237,2004,7904,-1,-1,0
-20.13,1.66,14.23,245,2002,7906,0,0,0
-20.13,1.66,14.23,242,2006,7905,0,0,0
-20.13,1.66,14.24,232,2012,7906,0,-1,0
-20.13,1.67,14.24,241,2008,7896,0,-1,0
-20.13,1.68,14.24,240,2011,7911,0,-1,0
-20.13,1.68,14.25,244,2021,7899,-1,-1,0
-20.14,1.69,14.24,250,2009,7896,-1,-1,0
-20.14,1.69,14.24,238,2006,7906,0,-1,0
-20.14,1.69,14.25,237,2014,7900,0,-1,0
-20.14,1.70,14.25,241,2023,7895,-1,-1,0
-20.15,1.70,14.25,246,2017,7889,-1,-1,0
-20.15,1.70,14.25,249,1999,7907,-1,0,0
-20.16,1.71,14.24,241,1996,7914,-1,-1,0
-20.16,1.71,14.24,233,1996,7913,0,-1,0
-20.16,1.71,14.24,228,2005,7898,0,-1,0
-20.17,1.72,14.25,241,2007,7898,0,-1,0
-20.17,1.73,14.25,246,2010,7905,0,-1,0
-20.17,1.73,14.26,253,2017,7899,0,-1,0
-20.18,1.74,14.26,260,2015,7894,-1,-1,0
-20.18,1.74,14.26,257,2017,7890,-1,0,0
-20.18,1.73,14.26,246,2007,7898,-1,0,0
-20.18,1.73,14.26,241,2002,7912,0,-1,0
-20.18,1.73,14.26,238,2012,7901,0,-1,0
-20.18,1.74,14.26,240,2022,7894,-1,-1,0
-20.19,1.74,14.26,246,2019,7890,0,-1,0
-20.19,1.74,14.27,252,2017,7883,0,-1,0
-20.19,1.75,14.27,253,2018,7888,-1,-1,0
-20.20,1.75,14.27,253,2024,7901,-1,-1,0
-20.20,1.75,14.27,258,2015,7911,-1,-1,0
-20.20,1.75,14.27,258,2013,7915,-1,-1,0
-20.20,1.76,14.26,251,2012,7914,-1,-1,0
-20.20,1.76,14.26,261,2007,7907,-1,-1,0
-20.20,1.76,14.26,256,1999,7910,-1,-1,0
-20.21,1.77,14.26,258,1997,7897,0,-1,0
-20.21,1.77,14.26,258,2007,7892,-1,0,-1
-20.21,1.76,14.26,251,2019,7904,0,0,-1
-20.20,1.76,14.26,251,2027,7915,0,0,-1
-20.20,1.76,14.26,252,2019,7920,-1,0,-1
-20.20,1.75,14.26,259,2000,7920,0,0,-1
-20.20,1.75,14.27,255,2004,7914,0,0,-1
-20.19,1.74,14.27,241,2014,7893,0,-1,-1
-20.19,1.74,14.28,238,2024,7892,0,-1,-1
-20.18,1.74,14.29,250,2027,7902,0,-1,-1
-20.17,1.74,14.30,249,2049,7912,-1,0,-1
-20.17,1.74,14.29,248,2015,7912,-1,-1,-1
-20.17,1.74,14.28,262,1982,7924,0,0,-1
-20.16,1.73,14.29,245,1999,7907,0,0,-1
-20.15,1.73,14.30,248,2001,7886,0,0,-1
-20.15,1.73,14.30,260,1992,7903,0,0,0
-20.15,1.73,14.31,257,2009,7922,0,0,-1
-20.15,1.73,14.31,253,2036,7905,-1,0,0
-20.16,1.72,14.30,238,1995,7898,-1,0,0
-20.16,1.71,14.30,250,1992,7910,0,0,-1
-20.15,1.71,14.32,232,2025,7896,0,-1,-1
-20.14,1.71,14.32,259,2023,7901,-1,0,-1
-20.14,1.70,14.32,231,2024,7904,-1,-1,0
-20.15,1.71,14.32,266,2013,7906,0,0,0
-20.14,1.69,14.33,233,2025,7902,-1,0,-1
-20.14,1.70,14.33,243,2012,7897,0,-1,-1
-20.13,1.69,14.33,258,2038,7899,0,0,-1
-20.13,1.69,14.33,242,2019,7903,-1,-1,0
-20.13,1.68,14.33,256,2022,7909,-1,0,-1
-20.12,1.67,14.34,231,2027,7921,-1,0,-1
-20.13,1.66,14.33,235,2026,7928,0,0,0
-20.14,1.67,14.34,231,2006,7904,0,-1,0
-20.14,1.67,14.37,245,2016,7910,1,0,0
-20.14,1.67,14.39,240,2003,7902,0,-1,0
-20.15,1.68,14.41,257,2013,7888,0,0,-1
-20.13,1.66,14.43,259,2040,7872,0,0,-1
-20.13,1.67,14.43,223,2025,7874,-1,-1,0
-20.13,1.67,14.44,266,2014,7896,0,0,-1
-20.12,1.65,14.45,234,2043,7896,0,0,-1
-20.12,1.66,14.46,221,2057,7879,0,-1,0
-20.12,1.67,14.47,253,2063,7872,-1,0,-1
-20.12,1.67,14.46,246,2056,7887,-1,-1,0
-20.12,1.67,14.45,247,2033,7880,-1,0,-1
-20.12,1.66,14.45,247,2029,7891,-1,0,-1
-20.12,1.67,14.45,242,2029,7880,-1,-1,-1
-20.11,1.66,14.44,250,2031,7880,-1,0,-1
-20.10,1.65,14.43,255,2043,7900,-1,0,-1
-20.10,1.63,14.42,225,2033,7905,-1,0,-1
-20.10,1.64,14.41,233,1999,7890,-1,-1,0
-20.10,1.65,14.39,260,2004,7892,-1,0,-1
-20.09,1.63,14.39,239,2030,7874,-1,0,-1
-20.09,1.62,14.38,230,2023,7884,-1,0,-1
-20.09,1.60,14.38,226,2030,7909,-1,0,-1
-20.08,1.60,14.36,233,2025,7907,-1,0,-1
-20.08,1.59,14.36,231,2022,7917,-1,0,-1
-20.07,1.58,14.35,228,2021,7900,-1,0,-1
-20.07,1.57,14.36,225,2016,7902,0,0,-1
-20.06,1.55,14.35,223,2025,7914,-1,0,-1
-20.06,1.54,14.34,212,2033,7907,-1,0,-1
-20.06,1.53,14.34,217,2030,7914,-1,0,-1
-20.05,1.52,14.34,216,2030,7907,-1,0,-1
-20.05,1.51,14.33,215,2024,7899,-1,0,-1
-20.04,1.50,14.33,220,2016,7896,-1,0,-1
-20.04,1.50,14.33,222,2015,7900,-1,0,-1
-20.04,1.50,14.33,223,2023,7903,-1,0,-1
-20.04,1.49,14.33,217,2031,7899,0,0,-1
-20.03,1.48,14.33,218,2036,7901,-1,0,-1
-20.02,1.48,14.33,209,2041,7905,-1,0,-1
-20.02,1.48,14.32,206,2011,7899,-1,-1,-1
-20.02,1.47,14.32,211,2007,7902,0,0,-1
-20.01,1.47,14.33,193,2012,7882,0,-1,-1
-20.00,1.48,14.34,237,2023,7899,0,0,-1
-19.99,1.46,14.35,193,2061,7905,0,0,-1
-20.00,1.47,14.35,218,2034,7904,-1,-1,0
-20.00,1.46,14.34,240,2012,7924,-1,1,-1
-19.99,1.45,14.35,197,2022,7908,0,-1,-1
-19.99,1.45,14.36,188,2034,7905,-1,-1,0
-20.01,1.46,14.33,194,1977,7896,-1,-1,0
-20.01,1.46,14.34,274,1988,7903,1,1,-1
-20.01,1.44,14.36,164,2050,7872,-1,-1,-1
-20.02,1.47,14.37,255,2001,7850,0,0,0
-20.01,1.44,14.37,209,2071,7922,0,0,-1
-20.02,1.45,14.36,196,2032,7897,-1,-2,0
-20.04,1.45,14.34,223,2041,7912,-1,0,0
-20.03,1.45,14.33,209,1989,7905,0,-1,-1
-20.04,1.46,14.34,211,1993,7913,0,0,0
-20.04,1.46,14.35,210,2038,7897,-1,-1,0
-20.04,1.46,14.34,175,2031,7872,0,-2,0
-20.07,1.48,14.33,235,1989,7895,-1,0,0
-20.07,1.47,14.34,195,2029,7916,0,-1,-1
-20.06,1.49,14.36,201,2030,7889,0,-1,0
-20.07,1.49,14.35,220,2064,7918,-2,0,0
-20.08,1.50,14.34,197,2018,7883,0,-1,0
-20.09,1.52,14.35,242,2020,7888,0,0,0
-20.09,1.50,14.34,196,2039,7898,-1,-1,0
-20.10,1.52,14.33,231,1991,7881,0,-1,-1
-20.10,1.52,14.34,219,2029,7903,-1,0,-1
-20.10,1.53,14.35,224,2027,7892,0,-1,0
-20.11,1.53,14.33,240,2036,7913,-1,0,-1
-20.12,1.55,14.32,223,2024,7883,-1,-1,0
-20.12,1.54,14.33,228,1983,7892,0,0,-1
-20.11,1.54,14.35,201,2065,7880,-1,-1,0
-20.13,1.56,14.33,253,1999,7876,0,0,0
-20.12,1.55,14.35,209,2067,7902,0,-1,0
-20.13,1.58,14.34,237,2030,7912,-2,-1,0
-20.15,1.56,14.33,213,2039,7904,0,0,0
-20.16,1.60,14.32,240,1998,7902,0,-2,0
-20.16,1.59,14.33,233,2015,7874,-1,0,-1
-20.17,1.60,14.33,231,2016,7876,0,-1,0
-20.18,1.60,14.33,218,2010,7909,0,-1,0
-20.17,1.61,14.33,234,2012,7893,-1,-1,-1
-20.18,1.63,14.33,236,2054,7916,-1,-1,1
-20.19,1.62,14.32,227,2004,7927,-1,-1,-1
-20.21,1.64,14.32,247,1999,7891,0,0,0
-20.20,1.63,14.32,226,2026,7889,0,-1,-1
-20.20,1.63,14.33,216,2035,7889,-1,-1,0
-20.20,1.65,14.33,246,2034,7919,0,-1,-1
-20.21,1.66,14.33,244,2012,7855,0,0,-1
-20.21,1.65,14.33,212,2063,7963,-1,-1,0
-20.22,1.66,14.32,244,2028,7923,-1,0,0
-20.23,1.66,14.32,204,2054,7917,-1,0,-1
-20.25,1.69,14.31,248,1963,7882,0,-2,0
-20.24,1.67,14.33,255,2045,7941,-1,1,-1
-20.25,1.70,14.33,250,2012,7862,1,-1,0
-20.24,1.69,14.34,252,2052,7903,-1,0,0
-20.24,1.69,14.33,213,2023,7893,-1,-1,-1
-20.25,1.71,14.34,298,2010,7859,0,1,-1
-20.24,1.68,14.33,194,2030,7926,-1,-1,0
-20.25,1.70,14.33,251,2001,7879,0,0,0
-20.24,1.69,14.33,224,2021,7885,-1,-1,0
-20.25,1.71,14.32,239,2027,7882,-1,-1,0
-20.26,1.71,14.30,249,2007,7899,-1,0,-1
-20.24,1.71,14.32,253,2023,7890,0,-1,-1
-20.25,1.71,14.32,226,2020,7900,0,-1,0
-20.24,1.72,14.31,227,2036,7910,-1,-1,-1
-20.25,1.73,14.31,256,2042,7907,-1,0,0
-20.26,1.74,14.30,258,2008,7886,-1,0,0
-20.25,1.73,14.29,270,1997,7887,-1,0,-1
-20.25,1.71,14.29,227,1972,7878,0,0,0
-20.24,1.71,14.30,242,1986,7861,0,-1,-1
-20.23,1.71,14.30,247,2028,7878,0,-1,-1
-20.23,1.71,14.31,239,2030,7900,-1,-1,-1
-20.23,1.72,14.30,249,2033,7909,-1,-1,0
-20.24,1.71,14.29,244,2025,7919,-1,-1,0
-20.24,1.72,14.27,245,2000,7922,-1,-1,0
-20.24,1.73,14.27,252,1986,7918,0,-1,-1
-20.24,1.73,14.28,252,2008,7906,0,-1,-1
-20.24,1.73,14.28,250,2015,7909,-1,-1,0
-20.24,1.74,14.29,254,2021,7898,-1,-1,-1
-20.23,1.74,14.29,254,2022,7900,-1,-1,0
-20.23,1.74,14.29,251,2034,7905,-1,-1,-1
-20.23,1.75,14.29,248,2032,7907,-1,-1,0
-20.23,1.75,14.28,258,2011,7901,-1,-1,0
-20.23,1.76,14.28,265,2003,7898,-1,0,-1
-20.23,1.76,14.28,251,2006,7896,0,-1,-1
-20.23,1.77,14.28,261,2009,7895,0,-1,-1
-20.23,1.77,14.28,261,2027,7902,-1,-1,-1
-20.24,1.77,14.28,255,2023,7912,-1,0,0
-20.24,1.77,14.28,248,2010,7905,-1,-1,0
-20.24,1.77,14.28,249,2014,7906,0,-1,0
-20.24,1.78,14.28,259,2020,7901,0,-1,0
-20.23,1.78,14.29,260,2017,7894,-1,0,0
-20.24,1.78,14.28,266,2017,7887,-1,0,0
-20.24,1.78,14.28,261,2015,7906,-1,0,-1
-20.24,1.78,14.28,259,2019,7910,-1,-1,0
-20.24,1.78,14.28,255,2011,7916,-1,-1,0
-20.24,1.79,14.28,258,2003,7908,0,-1,0
-20.25,1.80,14.28,266,1997,7903,0,-1,0
-20.25,1.80,14.29,260,2006,7898,0,-1,0
-20.25,1.80,14.29,265,2020,7895,-1,0,0
-20.25,1.80,14.29,267,2025,7896,-1,0,-1
-20.25,1.80,14.29,260,2024,7909,-1,0,-1
-20.25,1.80,14.29,255,2018,7908,-1,0,-1
-20.25,1.80,14.29,256,2007,7906,-1,-1,0
-20.25,1.80,14.29,255,2010,7905,0,-1,0
-20.25,1.80,14.29,254,2006,7909,-1,0,0
-20.25,1.80,14.29,259,2009,7899,0,0,0
-20.25,1.80,14.29,251,2012,7903,0,-1,0
-20.25,1.80,14.29,258,2018,7904,0,-1,0
-20.26,1.80,14.29,259,2019,7903,0,0,0
-20.26,1.80,14.29,262,2015,7904,-1,0,0
-20.26,1.80,14.29,264,2001,7912,-1,0,0
-20.26,1.81,14.28,258,1998,7909,-1,-1,0
-20.26,1.81,14.28,273,2002,7888,0,-1,0
-20.27,1.82,14.29,274,2012,7892,0,-1,0
-20.27,1.82,14.29,276,2019,7890,-1,-1,0
-20.27,1.82,14.29,271,2028,7891,-1,0,0
-20.28,1.82,14.28,262,2017,7903,-1,-1,0
-20.28,1.82,14.28,258,2009,7913,0,-1,-1
-20.28,1.82,14.28,263,2013,7907,-1,0,0
-20.28,1.82,14.28,263,2009,7904,0,0,0
-20.27,1.82,14.29,260,2007,7898,0,0,-1
-20.28,1.83,14.30,259,2030,7898,0,-1,0
-20.28,1.82,14.30,252,2036,7909,-1,0,0
-20.28,1.82,14.30,257,2020,7905,-1,0,0
-20.28,1.82,14.29,257,2008,7902,-1,0,0
-20.28,1.82,14.29,265,2003,7906,0,-1,0
-20.28,1.82,14.29,271,2004,7900,0,-1,-1
-20.28,1.83,14.30,273,2010,7894,-1,0,-1
-20.27,1.82,14.29,270,2012,7896,-1,0,-1
-20.27,1.82,14.29,269,2007,7895,-1,0,-1
-20.27,1.82,14.29,262,2017,7904,-1,0,-1
-20.27,1.82,14.29,265,2023,7908,0,0,-1
-20.27,1.82,14.30,263,2020,7905,0,0,-1
-20.27,1.82,14.30,264,2019,7906,-1,0,-1
-20.27,1.81,14.29,261,2009,7913,-1,0,0
-20.26,1.81,14.29,257,1997,7907,0,0,-1
-20.26,1.80,14.30,257,2012,7906,0,-1,-1
-20.25,1.80,14.31,265,2033,7898,-1,0,-1
-20.25,1.80,14.30,261,2032,7892,-1,0,-1
-20.25,1.80,14.30,263,2019,7886,-1,0,-1
-20.25,1.80,14.29,257,2018,7896,-1,0,-1
-20.24,1.80,14.29,263,2001,7905,-1,0,-1
-20.24,1.79,14.29,256,1998,7910,0,0,-1
-20.24,1.79,14.29,264,1998,7903,0,0,-1
-20.24,1.79,14.30,270,2011,7896,0,0,-1
-20.23,1.79,14.30,265,2013,7890,-1,0,-1
-20.23,1.79,14.30,263,2027,7898,-1,0,-1
-20.23,1.77,14.31,251,2023,7904,-1,0,-1
-20.23,1.77,14.30,257,2014,7910,-1,0,-1
-20.22,1.77,14.30,259,2005,7909,0,0,-1
-20.22,1.76,14.30,258,2015,7910,0,0,-1
-20.22,1.76,14.30,257,2021,7904,0,0,-1
-20.22,1.76,14.31,262,2025,7904,-1,0,-1
-20.22,1.76,14.31,265,2026,7898,-1,0,-1
-20.21,1.75,14.31,265,2019,7893,-1,0,-1
-20.21,1.75,14.31,262,2017,7894,0,0,-1
-20.21,1.75,14.31,250,2024,7908,-1,0,-1
-20.21,1.74,14.30,246,2019,7896,-1,0,-1
-20.21,1.74,14.30,249,2011,7897,-1,0,-1
-20.20,1.73,14.30,243,2003,7896,0,0,-1
-20.19,1.73,14.31,243,2013,7897,0,0,-1
-20.19,1.72,14.31,246,2029,7900,0,0,-1
-20.18,1.72,14.31,247,2028,7900,-1,0,-1
-20.18,1.71,14.31,244,2033,7905,-1,0,-1
-20.18,1.70,14.30,240,2015,7907,-1,0,-1
-20.18,1.70,14.30,242,2001,7902,0,0,-1
-20.18,1.69,14.31,239,2005,7902,0,0,-1
-20.17,1.68,14.31,246,2014,7900,0,0,-1
-20.17,1.68,14.31,250,2027,7900,0,0,-1
-20.17,1.68,14.32,246,2033,7902,-1,0,-1
-20.16,1.67,14.32,234,2020,7909,-1,0,-1
-20.16,1.66,14.31,239,2010,7908,-1,0,-1
-20.16,1.66,14.31,239,2008,7902,0,0,-1
-20.16,1.65,14.31,237,2012,7899,0,0,-1
-20.16,1.65,14.31,244,2025,7891,0,0,-1
-20.15,1.64,14.31,237,2020,7887,-1,0,-1
-20.15,1.63,14.32,233,2014,7889,-1,0,-1
-20.15,1.63,14.32,232,2012,7895,0,0,-1
-20.14,1.62,14.32,237,2017,7901,0,0,-1
-20.14,1.61,14.32,234,2023,7898,-1,0,-1
-20.14,1.61,14.32,233,2019,7894,-1,0,-1
-20.13,1.60,14.31,230,2014,7899,0,0,-1
-20.13,1.59,14.32,224,2016,7903,-1,0,-1
-20.12,1.59,14.32,219,2020,7905,-1,0,-1
-20.12,1.58,14.32,223,2020,7906,0,0,-1
-20.12,1.58,14.32,227,2024,7906,0,0,0
-20.12,1.57,14.33,231,2031,7896,-1,0,-1
-20.11,1.57,14.32,238,2023,7892,-1,0,-1
-20.11,1.57,14.32,232,2029,7894,0,0,-1
-20.10,1.56,14.32,233,2029,7909,-1,0,-1
-20.09,1.56,14.31,224,2006,7908,-1,0,-1
-20.08,1.55,14.31,221,2006,7914,0,-1,-1
-20.07,1.55,14.32,229,2017,7908,0,0,-1
-20.07,1.54,14.33,198,2007,7883,0,-1,-1
-20.06,1.55,14.34,235,2004,7891,0,0,-1
-20.06,1.54,14.34,239,2036,7902,-1,0,-1
-20.04,1.53,14.35,207,2039,7900,-1,-1,-1
-20.04,1.53,14.35,245,2002,7919,0,0,-1
-20.04,1.51,14.34,198,2024,7934,-1,0,0
-20.04,1.52,14.36,174,2026,7902,0,-1,0
-20.06,1.54,14.34,235,2048,7921,-2,-1,0
-20.07,1.55,14.33,242,2001,7897,0,0,0
-20.08,1.54,14.35,210,2048,7907,-1,-1,0
-20.08,1.56,14.34,233,2001,7908,-1,-1,0
-20.10,1.56,14.33,214,2012,7912,0,0,0
-20.10,1.55,14.34,215,2063,7903,-1,0,-1
-20.13,1.57,14.31,228,1979,7879,-1,-1,1
-20.13,1.56,14.32,222,2038,7923,1,0,-1
-20.15,1.57,14.32,222,1978,7905,-1,-1,1
-20.15,1.56,14.32,249,2053,7900,0,1,-1
-20.16,1.56,14.33,195,2016,7881,-1,-1,0
-20.20,1.58,14.30,245,1991,7898,-1,-1,0
-20.19,1.59,14.30,253,2003,7893,-1,-1,0
-20.20,1.57,14.30,196,2025,7885,-1,-1,1
-20.21,1.59,14.30,239,2012,7908,0,-1,-1
-20.22,1.58,14.30,216,2013,7888,-1,1,0
-20.22,1.60,14.30,265,2012,7900,0,-1,-1
-20.23,1.59,14.32,178,2028,7894,-1,-1,0
-20.24,1.61,14.30,278,1998,7863,-1,0,0
-20.25,1.61,14.30,234,2004,7890,0,0,-1
-20.24,1.59,14.33,196,2051,7895,-1,-1,0
-20.24,1.61,14.31,266,1992,7868,0,0,-1
-20.24,1.60,14.32,187,2029,7897,-1,-1,-1
-20.23,1.61,14.31,248,1994,7879,0,-1,-1
-20.23,1.60,14.31,233,2020,7887,-1,0,-1
-20.23,1.60,14.31,201,1994,7877,0,-1,0
-20.23,1.62,14.32,241,2031,7897,0,0,-1
-20.23,1.62,14.31,231,2024,7873,-1,-1,-1
-20.23,1.63,14.31,255,2015,7903,0,0,-1
-20.22,1.61,14.31,237,2029,7910,-1,0,-1
-20.21,1.61,14.31,228,2016,7902,-1,0,-1
-20.21,1.61,14.30,228,1999,7908,0,-1,-1
-20.20,1.62,14.31,238,2012,7906,0,-1,-1
-20.19,1.62,14.31,226,2027,7896,-1,-1,-1
-20.19,1.62,14.31,219,2018,7893,0,-1,-1
-20.19,1.62,14.31,225,2016,7912,0,-1,-1
-20.19,1.62,14.31,221,2021,7908,-1,-1,0
-20.19,1.63,14.31,223,2026,7910,-1,-1,0
-20.19,1.64,14.31,240,2021,7907,-1,-1,0
-20.19,1.64,14.31,245,2019,7903,0,-1,-1
-20.19,1.64,14.31,247,2013,7900,0,-1,-1
-20.19,1.64,14.31,250,2028,7905,0,0,0
-20.19,1.64,14.31,241,2025,7903,-1,0,-1
-20.19,1.64,14.31,244,2014,7898,-1,0,0
-20.18,1.64,14.30,233,2002,7903,-1,0,-1
-20.18,1.64,14.31,226,2005,7895,0,-1,-1
-20.18,1.64,14.31,224,2012,7905,-1,-1,0
-20.18,1.65,14.31,236,2009,7896,-1,-1,0
-20.19,1.64,14.31,232,2024,7897,-1,0,0
-20.19,1.65,14.31,235,2026,7904,-1,-1,0
-20.19,1.66,14.30,241,2015,7918,-1,-1,0
-20.20,1.66,14.30,237,2012,7914,-1,-1,0
-20.20,1.66,14.30,239,2008,7904,-1,-1,0
-20.20,1.65,14.29,239,2007,7899,0,-1,0
-20.20,1.66,14.30,241,2011,7890,-1,-1,0
-20.20,1.66,14.29,239,2011,7892,-1,-1,0
-20.21,1.66,14.29,244,2002,7899,0,-1,0
-20.21,1.67,14.29,240,2009,7893,0,-1,0
-20.20,1.67,14.30,241,2021,7902,-1,-1,0
-20.21,1.67,14.29,246,2020,7908,-1,0,0
-20.21,1.67,14.29,241,2014,7893,-1,-1,0
-20.21,1.67,14.29,241,2017,7899,-1,-1,0
-20.21,1.67,14.29,233,2015,7901,0,0,0
-20.21,1.67,14.29,229,2015,7902,0,-1,0
-20.21,1.67,14.30,236,2025,7901,0,-1,0
-20.22,1.68,14.30,245,2027,7909,-1,-1,0
-20.22,1.68,14.30,245,2015,7906,-1,-1,0
-20.23,1.69,14.29,244,2005,7900,-1,0,0
-20.22,1.68,14.28,240,1992,7910,-1,-1,0
-20.23,1.69,14.29,241,1997,7894,0,-1,-1
-20.22,1.69,14.30,244,2021,7888,0,-1,0
-20.23,1.69,14.30,247,2032,7890,-1,-1,0
-20.23,1.70,14.30,257,2030,7896,-1,0,0
-20.23,1.70,14.30,252,2026,7897,-1,0,-1
-20.23,1.70,14.30,249,2018,7896,-1,0,-1
-20.23,1.70,14.30,247,2016,7898,0,0,0
-20.23,1.69,14.29,241,2002,7909,0,0,-1
-20.23,1.69,14.29,245,2005,7911,0,0,0
-20.23,1.70,14.30,240,2016,7903,0,-1,0
-20.23,1.70,14.30,239,2031,7895,-1,-1,0
-20.24,1.70,14.30,240,2027,7900,-1,-1,0
-20.24,1.70,14.30,242,2022,7896,-1,-1,0
-20.24,1.70,14.29,234,2019,7902,-1,-1,0
-20.24,1.70,14.29,237,2006,7907,0,-1,0
-20.25,1.71,14.29,243,1995,7914,0,-1,0
-20.25,1.71,14.29,242,1999,7910,0,-1,0
-20.25,1.72,14.30,250,2014,7892,0,-1,0
-20.25,1.72,14.31,250,2026,7889,0,-1,0
-20.25,1.72,14.31,248,2021,7892,-1,0,0
-20.26,1.72,14.31,252,2023,7897,-1,0,0
-20.26,1.72,14.30,243,2013,7901,-1,0,0
-20.26,1.72,14.30,232,2008,7902,-1,-1,0
-20.26,1.72,14.30,235,2010,7903,0,-1,0
-20.26,1.73,14.31,245,2021,7904,-1,-1,0
-20.26,1.73,14.31,256,2023,7900,-1,-1,0
-20.26,1.73,14.31,252,2026,7895,-1,0,0
-20.26,1.73,14.30,245,2019,7910,-1,-1,-1
-20.26,1.74,14.31,246,2022,7898,0,-1,-1
-20.26,1.74,14.31,246,2021,7899,0,-1,0
-20.26,1.74,14.30,248,2015,7905,-1,-1,0
-20.27,1.75,14.30,260,2011,7896,-1,-1,0
-20.27,1.76,14.30,262,2004,7898,0,-1,0
-20.27,1.76,14.30,263,1998,7903,0,0,0
-20.27,1.76,14.31,256,2005,7904,0,0,0
-20.27,1.75,14.31,256,2015,7901,-1,0,0
-20.28,1.75,14.31,250,2028,7898,-1,0,0
-20.28,1.75,14.31,249,2022,7906,-1,-1,0
-20.28,1.75,14.30,247,2013,7906,-1,-1,0
-20.28,1.76,14.30,249,2011,7908,0,-1,0
-20.28,1.76,14.31,250,2010,7906,0,-1,0
-20.28,1.76,14.32,257,2023,7902,0,0,0
-20.29,1.76,14.32,266,2022,7908,-1,0,0
-20.29,1.76,14.32,260,2019,7899,-1,0,0
-20.29,1.76,14.32,251,2014,7902,-1,-1,0
-20.29,1.77,14.31,251,2008,7902,0,-1,0
-20.29,1.77,14.31,255,2013,7910,0,-1,0
-20.30,1.78,14.31,260,2012,7909,-1,-1,0
-20.30,1.78,14.31,261,2015,7897,0,-1,0
-20.30,1.78,14.32,257,2014,7894,0,-1,-1
-20.30,1.78,14.32,253,2018,7897,-1,-1,0
-20.30,1.78,14.32,252,2019,7895,-1,-1,0
-20.30,1.78,14.32,252,2020,7893,-1,0,0
-20.30,1.78,14.31,252,2008,7902,0,0,-1
-20.29,1.78,14.32,253,2011,7901,0,-1,-1
-20.29,1.78,14.33,249,2026,7901,0,-1,-1
-20.29,1.78,14.33,254,2038,7905,-1,-1,0
-20.29,1.78,14.33,256,2030,7908,-1,0,-1
-20.28,1.78,14.32,258,2012,7907,-1,0,-1
-20.28,1.78,14.32,256,2011,7901,0,-1,-1
-20.28,1.78,14.33,260,2019,7902,0,0,-1
-20.27,1.78,14.33,263,2032,7900,-1,0,-1
-20.26,1.77,14.33,262,2022,7887,-1,0,-1
-20.26,1.77,14.33,254,2021,7895,-1,0,-1
-20.26,1.76,14.33,254,2017,7893,-1,0,-1
-20.25,1.75,14.33,252,2013,7896,0,0,-1
-20.24,1.75,14.33,237,2017,7905,0,-1,-1
-20.24,1.75,14.34,262,2014,7900,0,0,-1
-20.22,1.74,14.35,249,2028,7897,0,0,-1
-20.21,1.74,14.36,255,2029,7890,-1,-1,-1
-20.20,1.74,14.36,278,2015,7900,-1,0,-1
-20.21,1.72,14.35,262,2004,7892,-1,0,0
-20.21,1.69,14.35,235,1998,7906,0,0,0
-20.21,1.70,14.35,229,2025,7914,0,-1,-1
-20.21,1.70,14.36,230,2050,7897,-1,-1,0
-20.22,1.70,14.36,227,2061,7887,-1,-1,0
-20.22,1.70,14.35,239,2029,7889,-1,-1,0
-20.22,1.71,14.33,241,2008,7891,-1,0,0
-20.22,1.71,14.33,247,2001,7899,0,-1,-1
-20.22,1.71,14.34,246,2011,7895,0,-1,-1
-20.22,1.71,14.35,250,2030,7898,0,0,0
-20.21,1.70,14.35,245,2039,7907,-1,0,-1
-20.22,1.70,14.34,244,2020,7913,-1,0,-1
-20.22,1.70,14.33,243,2010,7908,-1,0,-1
-20.22,1.69,14.33,235,2012,7894,0,0,-1
-20.21,1.69,14.33,245,2018,7895,0,0,-1
-20.21,1.68,14.34,250,2019,7888,-1,0,-1
-20.21,1.68,14.33,244,2018,7897,-1,0,-1
-20.20,1.68,14.33,241,2011,7894,-1,0,-1
-20.20,1.67,14.33,233,2014,7892,0,0,-1
-20.20,1.67,14.33,237,2019,7884,0,0,-1
-20.19,1.66,14.33,235,2018,7889,0,0,-1
-20.19,1.66,14.33,234,2013,7893,-1,0,-1
-20.19,1.66,14.33,229,2015,7893,-1,0,-1
-20.19,1.65,14.33,233,2018,7899,-1,0,-1
-20.19,1.65,14.33,239,2023,7903,-1,0,-1
-20.19,1.65,14.34,231,2015,7902,-1,0,-1
-20.19,1.64,14.33,225,2011,7899,-1,0,0
-20.18,1.64,14.33,236,2015,7905,-1,0,-1
-20.18,1.63,14.33,235,2024,7898,0,0,-1
-20.18,1.63,14.33,236,2030,7898,-1,0,-1
-20.18,1.63,14.33,246,2027,7905,-1,0,-1
-20.18,1.63,14.33,242,2025,7902,-1,0,-1
-20.17,1.62,14.33,245,2021,7901,-1,0,-1
-20.17,1.62,14.32,243,2008,7903,0,0,-1
-20.17,1.62,14.33,244,2012,7903,0,0,-1
-20.17,1.62,14.33,237,2016,7896,-1,0,-1
-20.17,1.61,14.33,238,2015,7903,-1,0,-1
-20.17,1.60,14.33,234,2019,7898,0,0,-1
-20.16,1.59,14.33,224,2019,7903,-1,0,-1
-20.16,1.59,14.33,226,2009,7901,0,0,-1
-20.16,1.59,14.33,232,2007,7893,0,0,-1
-20.16,1.59,14.33,232,2017,7895,0,0,-1
-20.16,1.59,14.34,231,2030,7902,-1,0,-1
-20.16,1.58,14.33,229,2030,7896,-1,0,-1
-20.16,1.57,14.33,229,2030,7901,-1,0,-1
-20.16,1.57,14.33,229,2022,7897,-1,0,0
-20.15,1.57,14.33,228,2011,7903,-1,0,0
-20.15,1.56,14.32,225,2002,7902,0,0,-1
-20.14,1.56,14.33,219,2006,7899,0,-1,-1
-20.15,1.56,14.34,220,2025,7902,0,0,-1
-20.14,1.56,14.34,222,2035,7909,0,-1,-1
-20.14,1.56,14.34,228,2041,7911,-1,0,-1
-20.12,1.55,14.34,217,2039,7900,-1,0,-1
-20.12,1.55,14.34,223,2022,7897,-1,-1,-1
-20.12,1.56,14.34,225,2001,7904,0,0,-1
-20.11,1.55,14.34,215,2000,7896,0,-1,-1
-20.11,1.55,14.34,222,2004,7900,0,-1,-1
-20.10,1.55,14.37,225,2043,7905,0,0,-1
-20.09,1.55,14.37,207,2049,7895,-1,-1,0
-20.10,1.57,14.36,232,2015,7898,-1,0,0
-20.10,1.56,14.36,239,2029,7900,0,0,-1
-20.09,1.55,14.38,214,2042,7899,0,-1,-1
-20.10,1.56,14.37,226,2025,7906,-1,-1,0
-20.10,1.56,14.36,217,2022,7894,-1,-1,0
-20.10,1.57,14.37,233,2007,7895,0,0,0
-20.10,1.56,14.37,225,2024,7894,-1,0,-1
-20.10,1.55,14.37,223,2028,7894,-1,0,0
-20.11,1.55,14.37,220,2024,7896,-1,-1,0
-20.12,1.55,14.36,224,2022,7905,-1,0,0
-20.12,1.56,14.36,227,2018,7912,0,0,0
-20.12,1.55,14.36,221,2027,7905,0,-1,0
-20.12,1.56,14.36,228,2029,7910,0,-1,0
-20.13,1.57,14.37,224,2044,7914,0,-1,0
-20.13,1.58,14.38,233,2037,7905,-1,-1,0
-20.13,1.58,14.37,234,2030,7898,-1,0,-1
-20.13,1.58,14.37,227,2030,7894,0,0,0
-20.13,1.57,14.38,216,2028,7899,-1,-1,0
-20.14,1.58,14.37,219,2025,7906,-1,-1,0
-20.14,1.58,14.37,224,2024,7904,0,-1,0
-20.14,1.58,14.37,223,2032,7903,-1,0,0
-20.15,1.59,14.37,230,2030,7896,-1,-1,0
-20.15,1.58,14.36,231,2030,7898,-1,0,0
-20.15,1.59,14.36,231,2021,7905,-1,-1,0
-20.16,1.59,14.35,236,2020,7906,-1,0,0
-20.16,1.59,14.35,227,2022,7907,-1,-1,0
-20.16,1.59,14.35,227,2016,7906,-1,-1,0
-20.16,1.59,14.35,219,2015,7900,0,-1,0
-20.16,1.59,14.36,230,2025,7896,0,-1,0
-20.16,1.60,14.36,240,2039,7901,-1,-1,0
-20.16,1.60,14.36,231,2039,7900,-1,-1,0
-20.16,1.60,14.36,226,2030,7894,-1,0,0
-20.17,1.60,14.35,215,2017,7907,-1,-1,0
-20.17,1.61,14.35,220,2012,7905,0,-1,0
-20.17,1.61,14.36,228,2023,7899,0,-1,0
-20.18,1.62,14.36,237,2030,7895,0,-1,0
-20.19,1.63,14.36,244,2029,7888,0,-1,0
-20.19,1.63,14.36,247,2028,7896,-1,0,0
-20.19,1.64,14.36,244,2017,7899,-1,0,0
-20.19,1.64,14.35,239,2012,7899,0,0,-1
-20.19,1.63,14.35,236,2012,7903,0,0,-1
-20.19,1.63,14.35,230,2029,7907,0,-1,0
-20.19,1.63,14.36,231,2032,7889,-1,-1,0
-20.19,1.64,14.36,232,2033,7892,-1,-1,0
-20.19,1.64,14.36,236,2029,7886,-1,-1,0
-20.20,1.65,14.36,236,2028,7892,0,-1,0
-20.19,1.65,14.36,234,2035,7897,0,0,-1
-20.20,1.65,14.36,231,2033,7903,-1,-1,0
-20.20,1.65,14.36,230,2027,7892,-1,-1,0
-20.20,1.65,14.36,231,2019,7896,-1,-1,0
-20.20,1.65,14.36,235,2022,7888,-1,-1,0
-20.20,1.66,14.35,241,2018,7891,-1,-1,0
-20.20,1.66,14.35,239,2018,7896,-1,-1,0
-20.20,1.66,14.35,238,2021,7896,-1,-1,0
-20.20,1.67,14.36,238,2032,7895,-1,-1,-1
-20.20,1.67,14.36,246,2035,7898,-1,0,0
-20.21,1.67,14.35,242,2028,7891,-1,-1,0
-20.21,1.67,14.35,237,2015,7898,-1,0,0
-20.21,1.67,14.35,237,2010,7898,0,-1,0
-20.21,1.67,14.35,240,2019,7894,0,-1,-1
-20.21,1.68,14.36,232,2036,7901,-1,-1,0
-20.21,1.68,14.36,237,2040,7902,-1,-1,0
-20.22,1.68,14.35,237,2034,7901,-1,-1,0
-20.22,1.69,14.35,241,2028,7903,0,-1,0
-20.22,1.69,14.36,249,2021,7905,0,-1,0
-20.22,1.70,14.36,247,2029,7898,0,-1,-1
-20.22,1.70,14.37,249,2037,7896,-1,-1,-1
-20.22,1.70,14.36,250,2034,7893,-1,0,0
-20.22,1.70,14.36,247,2028,7897,-1,0,0
-20.22,1.70,14.35,239,2026,7895,-1,-1,0
-20.22,1.70,14.35,249,2013,7895,-1,0,0
-20.22,1.70,14.35,245,2019,7901,0,0,-1
-20.22,1.70,14.35,241,2028,7898,0,-1,0
-20.22,1.70,14.35,248,2026,7900,-1,0,0
-20.23,1.71,14.35,238,2021,7904,-1,-1,0
-20.23,1.72,14.34,243,2000,7904,0,-1,0
-20.23,1.72,14.34,239,2007,7918,0,-1,0
-20.23,1.73,14.36,247,2032,7895,0,0,0
-20.25,1.74,14.35,238,2004,7895,0,-1,0
-20.25,1.74,14.36,259,2036,7912,-1,0,-1
-20.25,1.74,14.37,239,2008,7888,0,-1,0
-20.26,1.75,14.37,245,2019,7884,-1,-1,0
-20.27,1.76,14.37,275,2041,7872,-1,0,-1
-20.28,1.76,14.37,251,2014,7893,0,-1,0
-20.28,1.76,14.37,264,2015,7892,0,-1,0
-20.28,1.75,14.37,255,2046,7883,-1,0,0
-20.29,1.74,14.37,236,2022,7884,0,-1,0
-20.30,1.75,14.37,210,2013,7914,0,-2,0
-20.30,1.77,14.37,270,2021,7872,-1,0,0
-20.30,1.76,14.37,230,2065,7905,-1,-1,0
-20.31,1.78,14.36,279,2041,7871,-1,0,0
-20.32,1.77,14.35,258,2020,7885,-1,0,0
-20.32,1.77,14.34,251,2024,7921,-1,-1,0
-20.33,1.78,14.33,252,2037,7900,-1,-1,0
-20.34,1.79,14.32,252,1989,7880,-1,-1,0
-20.34,1.79,14.32,278,2006,7891,0,0,-1
-20.34,1.78,14.33,237,2028,7910,0,-1,-1
-20.34,1.78,14.33,260,2017,7911,-1,-1,0
-20.34,1.80,14.32,271,2005,7897,0,-1,-1
-20.33,1.79,14.33,249,2015,7896,0,-1,-1
-20.33,1.79,14.34,254,2046,7888,-1,-1,-1
-20.32,1.80,14.33,250,2026,7894,-1,-1,-1
-20.32,1.79,14.32,256,2012,7904,0,-1,-1
-20.32,1.79,14.33,252,2032,7906,0,0,-1
-20.31,1.79,14.33,241,2029,7895,-1,-1,-1
-20.31,1.80,14.32,258,2006,7896,-1,-1,-1
-20.31,1.80,14.33,258,2011,7884,0,-1,-1
-20.30,1.80,14.33,270,2022,7889,-1,0,-1
-20.30,1.79,14.32,254,2012,7901,-1,0,-1
-20.30,1.79,14.32,255,2003,7915,0,-1,-1
-20.29,1.79,14.32,243,2021,7911,0,0,-1
-20.29,1.78,14.33,243,2026,7900,-1,0,-1
-20.29,1.78,14.32,257,2024,7903,-1,0,-1
-20.28,1.78,14.32,259,2023,7905,-1,0,-1
-20.28,1.78,14.32,257,2017,7901,-1,0,-1
-20.27,1.77,14.32,258,2012,7900,-1,0,-1
-20.27,1.77,14.31,261,2017,7912,-1,0,-1
-20.27,1.76,14.32,253,2015,7910,0,0,-1
-20.26,1.76,14.32,257,2025,7916,-1,0,-1
-20.26,1.75,14.32,254,2036,7907,-1,0,-1
-20.26,1.75,14.32,252,2027,7915,-1,0,-1
-20.25,1.75,14.32,245,2015,7904,-1,0,-1
-20.25,1.74,14.31,245,2012,7903,-1,0,-1
-20.24,1.73,14.31,246,2011,7903,-1,0,-1
-20.24,1.73,14.31,238,2004,7905,0,0,-1
-20.23,1.72,14.31,236,2005,7908,0,-1,-1
-20.23,1.72,14.31,251,2005,7899,0,-1,-1
-20.22,1.72,14.33,260,2030,7907,0,0,-1
-20.22,1.72,14.33,247,2034,7901,-1,0,-1
-20.21,1.71,14.33,255,2004,7908,0,0,-1
-20.20,1.70,14.33,253,2014,7925,0,0,-1
-20.18,1.69,14.34,208,2018,7905,0,-1,-1
-20.18,1.69,14.36,245,2017,7921,-1,0,-1
-20.17,1.68,14.36,250,2027,7903,0,0,-1
-20.17,1.67,14.37,231,2030,7895,0,0,0
-20.17,1.66,14.37,253,2042,7899,0,0,-1
-20.17,1.65,14.37,235,2028,7906,-1,-1,0
-20.17,1.65,14.38,238,2053,7890,0,0,-1
-20.17,1.64,14.37,212,2020,7878,-1,-1,0
-20.17,1.64,14.36,265,2006,7898,0,1,-1
-20.16,1.62,14.35,200,2037,7917,-1,-1,0
-20.17,1.62,14.34,267,1985,7881,0,1,-1
-20.16,1.60,14.34,211,2008,7916,0,0,0
-20.16,1.60,14.35,222,2019,7897,0,0,-1
-20.16,1.60,14.35,219,2028,7875,-1,-1,0
-20.16,1.60,14.34,232,2007,7923,0,0,-1
-20.15,1.58,14.35,228,2039,7893,-1,0,-1
-20.15,1.57,14.34,218,2018,7921,-1,0,-1
-20.16,1.57,14.33,254,2018,7910,-1,0,-1
-20.14,1.55,14.34,182,2042,7916,0,-1,-1
-20.15,1.56,14.32,245,2012,7898,-1,0,0
-20.15,1.55,14.30,213,1982,7902,0,0,-1
-20.14,1.54,14.32,217,2024,7890,0,0,-1
-20.14,1.53,14.33,200,2037,7894,-1,0,0
-20.14,1.53,14.31,199,2026,7893,-1,-1,0
-20.15,1.54,14.31,238,2024,7886,0,1,-1
-20.14,1.53,14.31,199,2041,7926,-2,-1,0
-20.15,1.54,14.29,244,2003,7876,0,1,-1
-20.14,1.51,14.29,195,2018,7889,-1,-1,-1
-20.14,1.51,14.28,199,2006,7896,-1,0,-1
-20.15,1.52,14.27,211,1988,7892,-1,0,0
-20.15,1.50,14.27,208,1971,7897,0,0,-1
-20.15,1.49,14.28,213,2001,7889,-1,0,-1
-20.13,1.47,14.29,167,2015,7898,0,-1,-1
-20.13,1.48,14.30,218,2038,7873,0,0,-1
-20.14,1.48,14.29,176,2033,7880,-1,-1,0
-20.14,1.49,14.28,227,1987,7913,0,-1,0
-20.13,1.49,14.29,214,2017,7923,0,0,-1
-20.13,1.49,14.30,217,2021,7883,0,-1,0
-20.14,1.50,14.30,224,2013,7879,-1,0,-1
-20.13,1.49,14.29,215,2005,7896,-1,-1,-1
-20.12,1.49,14.30,210,2009,7891,0,0,-1
-20.12,1.48,14.31,180,2020,7905,0,-1,-1
-20.12,1.49,14.31,183,2021,7908,0,-1,0
-20.13,1.51,14.31,217,2013,7899,0,-1,0
-20.13,1.52,14.31,225,2019,7898,-1,-1,0
-20.13,1.52,14.31,237,2005,7902,-1,-1,-1
-20.13,1.52,14.31,230,2008,7907,0,0,-1
-20.13,1.52,14.31,222,2009,7898,0,0,-1
-20.12,1.52,14.31,217,2012,7905,0,0,-1
-20.12,1.51,14.32,199,2022,7914,0,0,-1
-20.12,1.51,14.32,206,2030,7898,0,-1,0
-20.12,1.51,14.33,208,2036,7899,0,-1,0
-20.13,1.52,14.33,208,2039,7893,-1,-1,0
-20.13,1.53,14.33,218,2034,7897,-1,-1,0
-20.13,1.53,14.33,227,2026,7898,-1,-1,0
-20.13,1.53,14.33,222,2018,7900,0,-1,0
-20.13,1.54,14.33,214,2014,7902,0,-1,0
-20.13,1.54,14.33,213,2017,7908,0,-1,0
-20.14,1.54,14.34,227,2029,7891,-1,0,0
-20.14,1.54,14.33,220,2016,7886,-1,-1,0
-20.14,1.55,14.33,230,2002,7885,-1,0,0
-20.14,1.55,14.33,224,2008,7896,0,-1,0
-20.14,1.56,14.33,219,2019,7886,0,0,-1
-20.14,1.55,14.33,213,2022,7906,-1,-1,0
-20.14,1.56,14.34,219,2032,7904,0,-1,0
-20.15,1.56,14.34,217,2034,7895,0,-1,0
-20.15,1.57,14.34,221,2026,7896,-1,-1,0
-20.15,1.57,14.34,225,2021,7898,0,-1,0
-20.15,1.57,14.34,230,2027,7902,-1,0,0
-20.15,1.57,14.34,229,2027,7909,-1,-1,0
-20.16,1.58,14.34,226,2014,7906,-1,-1,0
-20.16,1.58,14.34,225,2022,7903,-1,-1,0
-20.16,1.59,14.34,224,2016,7894,0,-1,0
-20.17,1.60,14.34,233,2021,7891,0,-1,0
-20.17,1.60,14.34,229,2032,7890,-1,-1,0
-20.17,1.61,14.34,233,2029,7901,-1,-1,0
-20.17,1.61,14.34,232,2031,7897,-1,-1,0
-20.17,1.61,14.34,233,2025,7893,-1,-1,-1
-20.17,1.61,14.33,227,2014,7898,-1,-1,0
-20.17,1.61,14.33,223,2015,7899,-1,-1,0
-20.17,1.61,14.33,220,2014,7896,-1,-1,0
-20.18,1.62,14.33,227,2021,7896,-1,-1,0
-20.18,1.62,14.33,226,2015,7897,0,-1,0
-20.18,1.62,14.33,226,2030,7901,0,-1,0
-20.19,1.63,14.34,227,2036,7905,-1,-1,0
-20.19,1.63,14.33,229,2020,7892,-1,-1,0
-20.20,1.63,14.33,224,2011,7906,-1,-1,0
-20.20,1.63,14.33,222,2016,7900,0,-1,0
-20.20,1.63,14.33,220,2027,7887,0,-1,0
-20.20,1.64,14.34,218,2029,7895,-1,-1,0
-20.20,1.65,14.33,233,2015,7904,-1,-1,0
-20.21,1.66,14.33,240,2023,7895,0,-1,0
-20.21,1.66,14.33,243,2016,7892,0,-1,0
-20.21,1.67,14.34,251,2013,7892,0,0,-1
-20.21,1.67,14.34,244,2023,7899,-1,0,0
-20.21,1.67,14.34,239,2022,7896,-1,0,0
-20.21,1.67,14.34,229,2014,7905,0,-1,0
-20.21,1.67,14.34,227,2021,7897,-1,-1,0
-20.22,1.67,14.34,231,2021,7902,-1,-1,0
-20.22,1.67,14.33,234,2016,7915,-1,-1,0
-20.22,1.67,14.34,232,2020,7908,0,-1,0
-20.23,1.68,14.34,233,2024,7907,-1,-1,0
-20.23,1.68,14.34,244,2029,7910,-1,0,0
-20.23,1.68,14.34,234,2024,7903,-1,-1,0
-20.23,1.69,14.34,239,2023,7898,-1,-1,0
-20.24,1.69,14.33,250,2015,7893,-1,-1,0
-20.24,1.70,14.33,255,2006,7895,-1,-1,0
-20.24,1.70,14.33,241,2010,7904,0,-1,0
-20.24,1.70,14.33,240,2009,7906,0,-1,-1
-20.24,1.71,14.33,250,2027,7900,0,0,-1
-20.24,1.71,14.33,243,2029,7901,-1,0,0
-20.25,1.70,14.33,243,2022,7902,-1,0,0
-20.25,1.70,14.32,234,2001,7910,-1,0,0
-20.25,1.71,14.32,240,2005,7914,0,-1,0
-20.25,1.71,14.32,241,2020,7902,0,-1,-1
-20.25,1.71,14.34,238,2038,7906,0,-1,0
-20.25,1.71,14.34,238,2035,7894,-1,-1,0
-20.25,1.72,14.33,241,2027,7899,-1,0,0
-20.25,1.72,14.32,244,2007,7898,-1,-1,0
-20.25,1.72,14.32,249,2006,7903,0,0,0
-20.25,1.72,14.33,247,2013,7899,0,0,0
-20.25,1.72,14.33,242,2020,7891,-1,-1,0
-20.26,1.73,14.34,247,2024,7893,-1,-1,0
-20.26,1.73,14.34,249,2025,7894,-1,0,0
-20.26,1.73,14.33,246,2025,7898,-1,0,0
-20.26,1.73,14.33,248,2022,7903,-1,-1,0
-20.26,1.72,14.32,241,2013,7908,-1,-1,0
-20.26,1.72,14.32,242,2013,7912,-1,0,0
-20.26,1.72,14.32,250,2011,7898,0,0,-1
-20.25,1.72,14.33,241,2017,7888,0,0,-1
-20.25,1.72,14.33,230,2047,7901,-1,-1,0
-20.25,1.72,14.33,245,2031,7892,-1,-1,0
-20.26,1.72,14.32,248,2023,7900,-1,-1,0
-20.26,1.73,14.31,253,2010,7893,-1,0,0
-20.26,1.73,14.31,246,2013,7898,-1,-1,0
-20.26,1.73,14.31,239,2017,7897,-1,0,0
-20.27,1.73,14.31,246,2010,7909,0,-1,0
-20.28,1.74,14.31,255,2004,7895,0,0,0
-20.28,1.74,14.32,240,2017,7882,0,-1,0
-20.28,1.75,14.33,263,2034,7880,0,-1,0
-20.29,1.75,14.32,264,2031,7891,-1,0,0
-20.29,1.75,14.32,251,2028,7891,-1,0,0
-20.29,1.75,14.31,247,2014,7901,-1,0,0
-20.30,1.75,14.31,241,2014,7917,-1,-1,0
-20.30,1.75,14.31,234,2018,7907,0,-1,0
-20.30,1.76,14.32,248,2017,7901,0,-1,0
-20.31,1.76,14.31,254,2031,7901,-1,-1,0
-20.31,1.77,14.31,255,2025,7899,-1,-1,0
-20.32,1.77,14.31,250,2022,7902,-1,-1,0
-20.32,1.77,14.31,260,2018,7905,-1,0,0
-20.33,1.77,14.31,247,2020,7900,-1,-1,0
-20.33,1.78,14.31,256,2016,7900,-1,-1,0
-20.34,1.79,14.30,256,2003,7897,-1,-1,0
-20.34,1.79,14.30,258,1997,7888,0,-1,0
-20.35,1.80,14.30,262,2004,7888,0,-1,0
-20.35,1.80,14.30,264,2014,7893,-1,-1,0
-20.34,1.81,14.31,262,2025,7892,0,0,-1
-20.34,1.81,14.31,258,2030,7912,-1,-1,-1
-20.34,1.81,14.31,260,2023,7902,-1,-1,0
-20.34,1.82,14.31,257,2018,7892,0,-1,-1
-20.34,1.82,14.31,263,2020,7891,0,-1,-1
-20.34,1.82,14.31,263,2011,7897,0,-1,-1
-20.34,1.83,14.31,262,2011,7895,0,-1,-1
-20.34,1.82,14.31,259,2019,7908,-1,0,-1
-20.33,1.82,14.31,266,2029,7906,-1,0,-1
-20.33,1.82,14.31,261,2025,7905,-1,0,0
-20.33,1.82,14.31,255,2018,7909,-1,0,0
-20.33,1.82,14.31,258,2006,7904,-1,0,-1
-20.33,1.82,14.31,260,2006,7898,0,-1,-1
-20.32,1.82,14.31,265,2011,7901,0,0,-1
-20.32,1.82,14.31,265,2016,7900,-1,0,-1
-20.32,1.81,14.31,259,2029,7900,-1,0,-1
-20.32,1.81,14.31,263,2032,7900,-1,0,-1
-20.31,1.81,14.31,261,2021,7897,-1,0,-1
-20.31,1.81,14.31,253,2013,7891,0,0,-1
-20.30,1.80,14.32,254,2011,7886,-1,0,-1
-20.30,1.79,14.32,251,2015,7893,-1,0,-1
-20.30,1.79,14.31,258,2003,7901,-1,0,-1
-20.30,1.78,14.31,251,2003,7901,0,0,-1
-20.30,1.78,14.32,243,2017,7901,0,0,-1
-20.30,1.78,14.32,252,2022,7891,-1,0,-1
-20.30,1.78,14.31,248,2012,7888,-1,0,-1
-20.29,1.77,14.31,250,2016,7896,-1,0,-1
-20.29,1.76,14.31,248,2007,7907,-1,0,-1
-20.28,1.75,14.31,240,2002,7908,0,0,-1
-20.28,1.75,14.31,236,2012,7910,0,0,0
-20.28,1.74,14.32,239,2020,7909,0,0,-1
-20.28,1.74,14.33,251,2028,7903,0,0,-1
-20.28,1.74,14.33,257,2027,7901,-1,0,-1
-20.27,1.73,14.32,249,2018,7907,-1,0,-1
-20.27,1.72,14.32,245,2020,7906,0,0,-1
-20.26,1.72,14.33,237,2030,7902,-1,0,-1
-20.26,1.71,14.32,234,2029,7905,-1,0,-1
-20.26,1.71,14.32,236,2021,7902,0,0,0
-20.26,1.71,14.32,237,2022,7901,-1,0,0
-20.26,1.71,14.32,246,2016,7903,-1,0,0
-20.26,1.70,14.33,245,2016,7895,0,0,-1
-20.26,1.70,14.33,237,2030,7888,-1,0,-1
-20.25,1.69,14.33,235,2024,7897,-1,0,-1
-20.25,1.69,14.33,239,2025,7905,-1,0,-1
-20.25,1.68,14.32,234,2021,7910,-1,0,-1
-20.25,1.68,14.32,236,2010,7899,0,0,-1
-20.25,1.67,14.32,236,2011,7896,0,0,-1
-20.25,1.67,14.32,240,2009,7899,0,0,-1
-20.24,1.67,14.32,246,2014,7904,0,0,-1
-20.24,1.67,14.32,241,2021,7896,-1,0,-1
-20.24,1.65,14.32,227,2019,7898,-1,0,-1
-20.23,1.65,14.32,229,2022,7902,-1,0,-1
-20.23,1.65,14.33,230,2018,7907,0,0,-1
-20.23,1.64,14.33,232,2017,7901,0,0,-1
-20.23,1.64,14.33,236,2019,7890,0,0,0
-20.23,1.64,14.33,236,2015,7901,-1,0,-1
-20.23,1.63,14.33,236,2021,7893,0,0,-1
-20.22,1.63,14.33,232,2019,7895,-1,0,-1
-20.22,1.63,14.33,230,2015,7906,-1,0,-1
-20.22,1.63,14.32,232,2019,7912,-1,0,0
-20.22,1.63,14.32,235,2014,7908,0,0,0
-20.22,1.62,14.33,241,2017,7902,0,0,-1
-20.22,1.62,14.33,239,2016,7887,0,0,-1
-20.22,1.62,14.33,236,2027,7883,-1,0,-1
-20.22,1.61,14.33,228,2021,7895,-1,0,-1
-20.22,1.61,14.33,228,2019,7895,0,0,-1
-20.22,1.60,14.34,231,2013,7885,0,0,-1
-20.22,1.60,14.34,229,2014,7893,0,-1,-1
-20.22,1.61,14.33,229,2011,7903,0,0,0
-20.22,1.60,14.34,223,2017,7904,0,0,-1
-20.21,1.60,14.34,226,2020,7909,0,0,-1
-20.21,1.60,14.34,222,2018,7911,0,0,-1
-20.22,1.60,14.34,225,2002,7903,0,-1,0
-20.21,1.60,14.35,228,2011,7902,0,-1,-1
-20.21,1.61,14.36,246,2028,7906,0,0,-1
-20.20,1.60,14.37,231,2065,7904,-1,0,-1
-20.20,1.60,14.36,215,2053,7884,-1,-1,0
-20.20,1.60,14.34,224,1998,7895,-1,-1,0
-20.20,1.61,14.34,234,2003,7909,0,0,-1
-20.19,1.60,14.35,208,2015,7903,0,-1,-1
-20.18,1.61,14.35,231,2008,7881,-1,0,0
-20.19,1.62,14.35,223,1994,7890,0,-1,0
-20.18,1.62,14.38,243,2044,7906,0,0,0
-20.18,1.62,14.38,257,2045,7886,-1,0,-1
-20.18,1.62,14.40,207,2067,7903,0,-1,0
-20.19,1.63,14.38,245,2043,7886,-1,-1,0
-20.21,1.64,14.37,247,1989,7894,0,0,0
-20.20,1.62,14.38,236,2036,7906,0,0,-1
-20.20,1.63,14.39,212,2028,7873,0,-1,0
-20.20,1.64,14.39,222,2049,7901,0,-1,0
-20.21,1.65,14.40,212,2045,7911,-1,-1,0
-20.24,1.67,14.38,255,2022,7913,-1,-1,0
-20.23,1.66,14.39,201,2051,7880,0,-1,-1
-20.26,1.71,14.38,282,1995,7906,-1,-1,1
-20.26,1.68,14.39,219,2050,7895,0,0,-1
-20.27,1.72,14.38,241,2030,7877,-2,-1,0
-20.28,1.70,14.38,248,2053,7918,0,0,0
-20.29,1.72,14.37,241,2000,7888,-1,-1,0
-20.29,1.71,14.36,233,2020,7870,0,0,-1
-20.30,1.73,14.36,266,2009,7891,0,0,0
-20.30,1.72,14.37,219,2050,7911,-1,-1,0
-20.31,1.74,14.36,270,2004,7878,0,0,0
-20.32,1.74,14.36,229,2047,7899,-1,-1,0
-20.32,1.75,14.36,272,2017,7901,0,0,0
-20.34,1.76,14.36,223,2035,7921,-1,-2,0
-20.34,1.78,14.36,281,2019,7891,0,0,0
-20.36,1.78,14.35,230,2004,7898,-1,-1,0
-20.37,1.80,14.37,248,2061,7915,-1,-2,1
-20.40,1.82,14.34,281,1990,7862,0,0,0
-20.41,1.81,14.36,254,2031,7915,-1,-2,0
-20.40,1.82,14.38,286,2044,7832,1,0,-1
-20.39,1.81,14.36,235,2011,7886,-1,-1,0
-20.40,1.82,14.37,249,2047,7856,-1,0,0
-20.39,1.81,14.36,277,2022,7875,-1,-1,-1
-20.38,1.80,14.37,232,2043,7907,-1,0,-1
-20.38,1.81,14.36,263,2030,7900,-1,-1,-1
-20.37,1.82,14.34,251,2011,7906,-1,0,-1
-20.37,1.82,14.33,238,2016,7911,-1,-1,0
-20.38,1.84,14.32,269,1999,7914,-1,-1,0
-20.37,1.83,14.32,259,2011,7916,-1,0,-1
-20.37,1.83,14.32,255,2009,7900,-1,-1,-1
-20.37,1.83,14.32,259,2006,7892,-1,0,0
-20.36,1.83,14.32,240,2018,7906,-1,-1,-1
-20.37,1.83,14.32,249,2022,7898,-1,-1,-1
-20.37,1.83,14.31,264,2019,7903,-1,0,-1
-20.37,1.83,14.31,258,2013,7900,-1,-1,-1
-20.37,1.84,14.31,263,2013,7893,-1,0,-1
-20.36,1.84,14.31,253,2014,7898,-1,-1,0
-20.36,1.84,14.30,262,2007,7908,-1,-1,0
-20.37,1.84,14.29,260,2001,7906,0,-1,-1
-20.37,1.84,14.29,257,1996,7904,0,-1,-1
-20.37,1.85,14.30,265,2006,7903,0,-1,-1
-20.36,1.85,14.31,264,2016,7896,0,-1,0
-20.37,1.86,14.30,277,2021,7887,-1,0,0
-20.36,1.86,14.30,278,2009,7888,-1,0,-1
-20.35,1.85,14.31,271,2010,7890,0,0,-1
-20.35,1.85,14.31,260,2010,7898,-1,-1,-1
-20.35,1.85,14.31,260,2016,7900,0,0,-1
-20.35,1.85,14.31,258,2020,7907,0,-1,0
-20.35,1.85,14.31,265,2023,7895,0,0,-1
-20.35,1.85,14.32,264,2029,7901,0,-1,-1
-20.35,1.85,14.32,275,2022,7901,-1,0,0
-20.35,1.85,14.32,265,2027,7902,0,0,0
-20.35,1.85,14.32,262,2024,7909,0,-1,0
-20.35,1.85,14.32,266,2017,7912,-1,-1,0
-20.35,1.85,14.32,267,2008,7900,-1,0,0
-20.36,1.85,14.32,271,2000,7892,0,0,0
-20.36,1.85,14.31,268,2002,7903,0,0,-1
-20.36,1.85,14.31,272,2005,7900,0,0,-1
-20.35,1.85,14.32,259,2028,7896,0,-1,-1
-20.35,1.85,14.32,260,2031,7901,-1,-1,0
-20.36,1.85,14.32,270,2019,7906,-1,0,0
-20.36,1.85,14.31,271,2012,7903,0,0,-1
-20.36,1.85,14.31,273,2011,7900,0,0,-1
-20.36,1.84,14.32,270,2017,7889,0,0,-1
-20.36,1.84,14.33,265,2030,7892,0,0,0
-20.36,1.84,14.33,265,2027,7897,-1,0,0
-20.36,1.84,14.33,252,2026,7908,-1,-1,0
-20.36,1.84,14.33,244,2023,7904,0,0,0
-20.36,1.83,14.32,246,2009,7898,0,-1,0
-20.36,1.84,14.33,263,2017,7893,0,-1,0
-20.36,1.84,14.33,273,2020,7890,0,0,-1
-20.36,1.84,14.33,271,2017,7893,-1,0,-1
-20.36,1.84,14.32,271,2009,7894,-1,0,-1
-20.36,1.83,14.32,265,2006,7896,-1,0,-1
-20.36,1.83,14.32,261,2013,7906,-1,0,0
-20.36,1.83,14.32,260,1999,7914,0,0,0
-20.36,1.83,14.32,256,2010,7909,0,0,0
-20.36,1.83,14.33,265,2023,7900,0,-1,-1
-20.36,1.84,14.32,267,2024,7896,-1,0,-1
-20.36,1.83,14.33,265,2023,7902,-1,0,-1
-20.36,1.83,14.32,255,2022,7894,-1,0,-1
-20.36,1.83,14.32,251,2019,7899,0,0,-1
-20.36,1.83,14.33,258,2013,7905,0,-1,0
-20.36,1.83,14.33,260,2004,7905,0,-1,0
-20.36,1.83,14.33,275,1997,7905,0,0,0
-20.36,1.83,14.33,269,2002,7890,0,0,-1
-20.36,1.83,14.33,274,2012,7895,0,0,-1
-20.35,1.82,14.33,271,2021,7896,-1,0,-1
-20.35,1.82,14.33,268,2021,7905,-1,0,-1
-20.35,1.81,14.33,256,2011,7902,-1,0,-1
-20.35,1.81,14.33,260,2005,7899,0,0,-1
-20.34,1.81,14.33,257,2008,7905,0,0,-1
-20.34,1.80,14.33,266,2010,7897,0,0,-1
-20.34,1.80,14.33,264,2029,7902,0,0,-1
-20.33,1.80,14.33,260,2026,7907,-1,0,-1
-20.33,1.79,14.33,263,2021,7914,0,0,-1
-20.32,1.79,14.32,262,2019,7899,-1,0,-1
-20.32,1.79,14.32,258,2022,7900,-1,0,-1
-20.32,1.79,14.32,268,2018,7897,-1,0,-1
-20.32,1.79,14.32,268,2016,7898,-1,0,-1
-20.32,1.79,14.33,273,2013,7885,0,0,-1
-20.32,1.78,14.33,270,2019,7899,0,0,-1
-20.31,1.77,14.33,271,2023,7906,0,0,-1
-20.30,1.77,14.34,262,2027,7903,0,0,-1
-20.30,1.77,14.34,252,2023,7900,0,0,-1
-20.30,1.76,14.34,255,2017,7887,0,0,-1
-20.29,1.75,14.34,261,2016,7888,0,0,-1
-20.29,1.75,14.34,254,2013,7891,0,0,-1
-20.29,1.75,14.34,255,2006,7903,0,0,-1
-20.28,1.74,14.34,251,2013,7897,0,0,-1
-20.28,1.73,14.34,246,2018,7900,0,0,-1
-20.28,1.73,14.34,256,2025,7901,-1,0,-1
-20.28,1.73,14.34,249,2017,7894,-1,0,-1
-20.27,1.72,14.34,255,2015,7891,0,0,-1
-20.27,1.72,14.34,260,2014,7900,0,0,-1
-20.27,1.72,14.34,263,2015,7904,0,0,-1
-20.26,1.71,14.35,263,2016,7890,0,0,-1
-20.26,1.71,14.35,255,2019,7901,0,0,-1
-20.25,1.71,14.35,255,2016,7913,0,0,-1
-20.25,1.70,14.35,246,2017,7910,0,0,-1
-20.24,1.69,14.35,250,2013,7908,0,0,-1
-20.24,1.69,14.35,254,2014,7909,0,0,-1
-20.24,1.69,14.36,255,2021,7900,0,0,-1
-20.23,1.68,14.36,258,2029,7896,-1,0,-1
-20.23,1.68,14.36,259,2033,7900,-1,0,-1
-20.23,1.67,14.35,251,2030,7908,-1,0,-1
-20.23,1.66,14.35,239,2024,7904,-1,0,-1
-20.23,1.65,14.35,228,2014,7913,0,0,-1
-20.23,1.65,14.35,230,2014,7907,0,0,-1
-20.23,1.65,14.35,239,2012,7905,0,0,-1
-20.22,1.65,14.36,240,2014,7887,0,0,0
-20.22,1.64,14.35,248,2015,7896,0,0,-1
-20.22,1.64,14.36,249,2027,7893,0,0,-1
-20.22,1.63,14.36,243,2030,7902,0,0,-1
-20.21,1.63,14.36,232,2026,7909,-1,0,-1
-20.20,1.62,14.36,231,2022,7911,-1,0,-1
-20.20,1.61,14.36,227,2016,7908,-1,0,-1
-20.20,1.60,14.36,232,2020,7910,0,0,-1
-20.20,1.60,14.36,234,2017,7890,0,0,-1
-20.20,1.60,14.36,237,2027,7888,-1,0,-1
-20.19,1.59,14.37,233,2034,7884,-1,0,-1
-20.19,1.58,14.37,235,2036,7894,-1,0,-1
-20.19,1.58,14.37,236,2035,7896,0,0,-1
-20.19,1.58,14.36,234,2024,7903,-1,0,-1
-20.19,1.57,14.36,223,2017,7902,-1,0,-1
-20.19,1.57,14.36,236,2007,7891,0,0,-1
-20.19,1.57,14.36,240,2005,7893,0,0,-1
-20.18,1.56,14.36,247,2017,7895,0,0,-1
-20.18,1.55,14.37,239,2024,7891,-1,0,-1
-20.18,1.55,14.36,229,2028,7898,-1,0,-1
-20.18,1.54,14.36,225,2023,7899,-1,0,-1
-20.17,1.54,14.36,223,2021,7905,0,0,-1
-20.17,1.53,14.37,228,2023,7906,0,0,-1
-20.17,1.53,14.37,226,2020,7903,0,0,0
-20.17,1.53,14.36,226,2027,7896,-1,0,-1
-20.17,1.53,14.37,224,2031,7894,0,0,-1
-20.16,1.53,14.37,222,2036,7896,-1,0,-1
-20.16,1.52,14.37,217,2034,7890,0,-1,-1
-20.16,1.52,14.37,221,2029,7897,0,0,-1
-20.16,1.52,14.37,224,2024,7897,-1,-1,-1
-20.16,1.52,14.37,229,2016,7895,0,0,-1
-20.16,1.52,14.37,224,2015,7894,0,0,-1
-20.15,1.51,14.37,221,2019,7898,0,0,-1
-20.15,1.51,14.37,225,2017,7890,0,0,-1
-20.15,1.51,14.37,217,2022,7896,0,0,-1
-20.15,1.51,14.38,220,2022,7899,0,0,-1
-20.14,1.50,14.38,215,2023,7887,0,0,-1
-20.15,1.51,14.39,222,2025,7882,0,-1,-1
-20.15,1.51,14.39,226,2028,7891,0,0,-1
-20.15,1.51,14.39,224,2020,7884,0,-1,-1
-20.15,1.51,14.40,221,2015,7881,0,0,-1
-20.15,1.51,14.40,219,2027,7890,0,-1,-1
-20.15,1.51,14.39,225,2028,7894,0,-1,0
-20.15,1.52,14.40,223,2034,7898,-1,-1,-1
-20.14,1.51,14.40,225,2040,7895,0,0,-1
-20.14,1.51,14.40,221,2037,7900,-1,0,-1
-20.13,1.52,14.39,226,2014,7905,-1,-1,-1
-20.13,1.52,14.39,239,1993,7925,0,0,-1
-20.12,1.52,14.39,223,2018,7917,0,-1,-1
-20.10,1.53,14.42,224,2035,7895,0,-1,-1
-20.10,1.54,14.43,244,2056,7896,-1,0,0
-20.10,1.55,14.42,228,2020,7892,-1,-1,0
-20.10,1.56,14.42,251,2005,7913,0,0,-1
-20.09,1.56,14.44,225,2020,7913,0,-1,-1
-20.09,1.56,14.44,210,2036,7912,-1,-1,0
-20.11,1.58,14.43,201,2000,7901,-1,-1,0
-20.12,1.59,14.42,285,2006,7926,0,0,-1
-20.11,1.59,14.45,180,2058,7922,0,-2,0
-20.15,1.64,14.45,275,2046,7948,0,-1,1
-20.17,1.64,14.44,215,2061,7908,-1,-1,0
-20.20,1.68,14.44,246,2002,7857,0,-2,1
-20.22,1.68,14.44,264,2061,7941,-1,0,1
-20.24,1.72,14.41,219,1998,7890,0,-2,0
-20.28,1.76,14.41,299,1997,7909,-1,-1,1
-20.27,1.74,14.43,239,2044,7908,0,-1,-1
-20.29,1.78,14.42,251,2034,7897,-1,-1,0
-20.31,1.79,14.40,288,2000,7815,0,0,0
-20.31,1.80,14.42,243,2030,7888,-1,-2,0
-20.32,1.80,14.42,272,2056,7910,-1,0,0
-20.33,1.81,14.40,258,2010,7917,-1,-2,0
-20.33,1.81,14.41,230,2037,7908,0,0,-1
-20.36,1.85,14.39,289,1975,7892,0,-1,0
-20.34,1.83,14.41,241,2068,7927,-2,-1,-1
-20.36,1.87,14.40,269,1977,7865,0,0,0
-20.38,1.87,14.41,309,2032,7900,-1,0,0
-20.36,1.86,14.41,241,2052,7927,-1,-1,-1
-20.39,1.89,14.41,290,2033,7880,-1,0,0
-20.39,1.89,14.39,291,2000,7895,0,-1,-1
-20.39,1.90,14.41,278,2028,7914,0,0,-1
-20.40,1.90,14.40,246,2015,7868,-1,-1,-1
-20.40,1.93,14.41,317,2035,7867,-1,0,-1
-20.40,1.92,14.41,261,2030,7853,0,0,-1
-20.42,1.95,14.39,293,1983,7926,-1,-2,1
-20.41,1.92,14.40,276,2016,7885,-1,1,-1
-20.40,1.94,14.41,305,2027,7934,1,-1,-1
-20.41,1.94,14.41,258,2041,7861,-2,-1,0
-20.42,1.95,14.40,309,1994,7939,0,0,-1
-20.43,1.95,14.39,294,2023,7895,-1,0,-1
-20.42,1.96,14.42,277,2072,7903,0,-1,0
-20.44,1.97,14.39,300,1988,7881,-1,0,0
-20.44,1.98,14.40,315,2045,7906,0,0,-1
-20.44,1.98,14.40,293,2028,7913,0,-1,0
-20.46,1.99,14.39,323,2044,7914,-2,0,0
-20.45,2.00,14.38,275,2004,7884,0,0,-1
-20.48,2.01,14.38,323,1973,7867,0,0,0
-20.47,1.99,14.40,249,2082,7916,-1,-1,0
-20.48,2.01,14.37,290,1957,7903,0,-2,0
-20.49,2.02,14.41,313,2055,7905,-1,1,-1
-20.48,2.01,14.43,292,2064,7900,0,-1,-1
-20.49,2.03,14.41,304,2029,7851,-2,0,-1
-20.50,2.06,14.41,324,1997,7859,0,-1,0
-20.49,2.03,14.41,282,2069,7959,-2,-2,0
-20.49,2.03,14.40,307,2007,7868,0,0,-1
-20.49,2.03,14.41,304,2016,7886,0,0,-1
-20.49,2.02,14.42,294,2042,7859,0,-1,0
-20.48,2.00,14.42,290,2029,7881,0,0,-1
-20.47,2.01,14.42,313,2025,7862,-1,0,-1
-20.46,1.98,14.43,309,2039,7857,0,0,-1
-20.44,1.97,14.42,286,2048,7891,-1,-1,-1
-20.43,1.97,14.41,294,2021,7893,-1,-1,-1
-20.43,1.98,14.40,290,2009,7919,-1,-1,-1
-20.43,1.98,14.39,288,2019,7930,-1,-1,0
-20.42,1.99,14.38,311,2018,7917,-1,0,-1
-20.42,1.98,14.38,310,2022,7905,0,0,-1
-20.42,1.97,14.38,304,2012,7892,-1,0,-1
-20.41,1.96,14.37,306,2002,7891,-1,0,-1
-20.40,1.95,14.38,296,2008,7886,0,0,-1
-20.40,1.95,14.38,286,2033,7894,0,0,-1
-20.39,1.94,14.38,281,2038,7897,-1,0,-1
-20.39,1.94,14.38,282,2034,7904,-1,0,-1
-20.39,1.95,14.38,285,2024,7908,0,-1,0
-20.40,1.95,14.38,283,2021,7902,-1,0,0
-20.40,1.95,14.38,277,2021,7886,0,-1,0
-20.40,1.95,14.38,302,2010,7886,-1,0,0
-20.40,1.95,14.38,298,2011,7895,0,0,-1
-20.39,1.94,14.39,278,2025,7899,0,-1,-1
-20.39,1.94,14.40,278,2031,7906,-1,-1,0
-20.39,1.95,14.40,285,2034,7914,-1,-1,0
-20.39,1.96,14.40,286,2026,7900,0,-1,-1
-20.39,1.97,14.41,286,2039,7911,0,-1,0
-20.41,1.98,14.40,299,2029,7901,-1,0,0
-20.42,1.98,14.39,288,2032,7901,-1,-1,0
-20.43,1.99,14.39,337,2000,7936,0,0,0
-20.43,1.97,14.39,263,2029,7903,-1,-1,-1
-20.43,1.98,14.41,308,2025,7910,0,0,0
-20.44,1.97,14.40,274,2029,7906,-1,0,0
-20.44,1.98,14.41,294,2022,7885,-1,-1,0
-20.45,1.98,14.40,322,2009,7916,0,0,-1
-20.45,1.98,14.41,270,2035,7888,-1,-1,0
-20.45,1.99,14.40,327,2043,7886,-2,1,0
-20.46,1.96,14.38,255,2004,7894,-1,-1,0
-20.45,1.98,14.38,317,1999,7872,0,0,-1
-20.44,1.95,14.38,254,2039,7891,0,0,0
-20.45,1.96,14.38,311,2031,7929,-1,-1,0
-20.46,1.95,14.35,274,2013,7882,-1,0,-1
-20.46,1.96,14.36,289,1988,7914,0,0,0
-20.45,1.97,14.36,337,1995,7872,0,0,-1
-20.45,1.95,14.38,242,2000,7872,0,-1,0
-20.45,1.97,14.38,335,2025,7884,0,0,-1
-20.44,1.95,14.38,272,2017,7893,0,0,-1
-20.43,1.95,14.40,286,2082,7884,0,0,-1
-20.43,1.95,14.39,276,2033,7918,-1,-1,-1
-20.42,1.94,14.38,295,2033,7898,-1,0,-1
-20.42,1.94,14.38,310,1997,7904,0,0,-1
-20.41,1.93,14.37,287,2015,7878,0,0,-1
-20.41,1.93,14.38,264,2033,7904,-1,-1,0
-20.41,1.94,14.38,300,2028,7885,0,-1,-1
-20.41,1.95,14.37,294,2035,7903,-1,-1,0
-20.41,1.93,14.38,293,2032,7901,0,1,-1
-20.39,1.91,14.36,275,2052,7890,-1,-1,-1
-20.40,1.92,14.35,276,1976,7901,0,-1,0
-20.40,1.91,14.35,294,2024,7930,-1,0,-1
-20.38,1.91,14.35,238,2045,7876,-1,-1,-1
-20.41,1.94,14.32,324,1945,7897,0,-1,0
-20.38,1.90,14.34,280,2075,7920,-1,0,-2
-20.39,1.91,14.34,277,1987,7871,0,-1,0
-20.38,1.90,14.33,281,2021,7910,-1,-1,-1
-20.37,1.89,14.34,280,2049,7892,0,1,-1
-20.38,1.89,14.33,268,2009,7905,-1,-1,0
-20.38,1.88,14.32,297,2025,7864,-1,0,-1
-20.37,1.87,14.32,262,2015,7893,0,-1,0
-20.37,1.88,14.32,264,2013,7873,-1,-1,0
-20.38,1.88,14.31,310,2022,7890,0,1,-1
-20.35,1.85,14.31,268,2032,7891,-1,0,-1
-20.36,1.84,14.29,270,1960,7893,0,0,0
-20.34,1.84,14.32,238,2031,7899,0,-1,-1
-20.33,1.85,14.31,267,2011,7881,-1,-1,0
-20.34,1.85,14.32,288,2035,7890,-1,0,-1
-20.33,1.85,14.31,298,1994,7889,-1,0,-1
-20.32,1.83,14.31,297,2001,7893,0,0,-1
-20.30,1.81,14.33,249,2042,7902,0,0,-1
-20.29,1.80,14.32,250,2034,7890,-1,-1,-1
-20.29,1.81,14.30,279,2006,7896,-1,0,-1
-20.29,1.79,14.29,273,1996,7904,-1,0,-1
-20.28,1.77,14.29,254,2009,7888,0,0,-1
-20.26,1.75,14.29,255,2010,7904,-1,0,-1
-20.25,1.75,14.29,256,2015,7902,-1,0,-1
-20.25,1.75,14.29,271,2020,7902,0,0,-1
-20.24,1.74,14.29,273,2035,7904,-1,0,-1
-20.24,1.72,14.29,269,2020,7907,-1,0,-1
-20.23,1.70,14.27,255,2013,7901,-1,0,-1
-20.22,1.69,14.27,253,1987,7891,-1,0,-1
-20.20,1.67,14.27,257,1979,7886,0,0,-1
-20.19,1.67,14.27,253,1997,7897,0,0,-1
-20.19,1.67,14.28,257,2017,7889,0,0,-1
-20.17,1.66,14.28,258,2027,7904,-1,0,-1
-20.17,1.65,14.28,255,2011,7923,-1,0,-1
-20.17,1.65,14.27,248,1999,7921,-1,0,-1
-20.16,1.63,14.27,234,1994,7919,0,0,-1
-20.15,1.63,14.27,228,1993,7915,0,-1,-1
-20.15,1.64,14.27,240,1991,7908,0,-1,-1
-20.14,1.64,14.28,260,2014,7899,0,0,-1
-20.14,1.64,14.28,251,2025,7906,-1,0,-1
-20.13,1.62,14.28,245,2023,7901,-1,0,-1
-20.13,1.62,14.28,234,2012,7905,-1,0,-1
-20.13,1.61,14.28,235,2005,7907,0,-1,-1
-20.13,1.62,14.28,227,2008,7915,0,-1,-1
-20.13,1.62,14.27,235,2000,7907,0,-1,-1
-20.13,1.63,14.28,250,1995,7902,0,-1,0
-20.13,1.63,14.29,251,2001,7896,0,0,-1
-20.12,1.63,14.29,251,2001,7902,0,0,-1
-20.12,1.63,14.29,243,2010,7910,0,-1,0
-20.12,1.63,14.30,244,2017,7906,0,0,-1
-20.11,1.63,14.30,241,2008,7908,0,-1,-1
-20.11,1.64,14.30,240,2003,7902,0,-1,-1
-20.11,1.64,14.31,243,2024,7904,0,-1,-1
-20.11,1.65,14.31,248,2016,7901,0,-1,-1
-20.11,1.64,14.31,239,2013,7906,0,0,-1
-20.11,1.65,14.31,248,2016,7904,0,0,0
-20.11,1.65,14.32,247,2024,7910,-1,-1,0
-20.11,1.66,14.32,255,2021,7906,-1,-1,0
-20.11,1.66,14.32,257,2015,7896,-1,-1,0
-20.12,1.66,14.31,253,2000,7906,0,-1,0
-20.12,1.67,14.32,247,2011,7897,0,-1,-1
-20.12,1.67,14.32,242,2013,7897,0,-1,-1
-20.12,1.68,14.32,252,2008,7900,0,-1,0
-20.12,1.68,14.31,251,2008,7913,-1,-1,0
-20.12,1.68,14.31,250,2002,7913,0,-1,-1
-20.12,1.68,14.32,259,2005,7909,0,0,-1
