Yaw,Pitch,Roll,AX,AY,AZ,GX,GY,GZ
-11.43,6.33,-2.41,907,-351,8140,0,-1,-1
-11.43,6.33,-2.40,910,-350,8142,0,0,-1
-11.43,6.33,-2.40,914,-339,8138,0,-1,0
-11.43,6.33,-2.40,908,-332,8141,-1,-1,0
-11.43,6.33,-2.40,908,-335,8136,-1,-1,0
-11.43,6.33,-2.40,908,-337,8139,-1,0,0
-11.43,6.33,-2.40,905,-340,8130,-1,-1,0
-11.43,6.33,-2.40,912,-340,8142,0,0,-1
-11.43,6.34,-2.39,907,-334,8149,0,0,-1
-11.43,6.34,-2.39,904,-329,8135,0,-1,0
-11.43,6.34,-2.38,906,-327,8137,-1,0,0
-11.43,6.34,-2.38,911,-326,8145,-1,-1,0
-11.43,6.33,-2.39,906,-333,8137,0,-1,0
-11.43,6.34,-2.38,903,-333,8136,0,0,-1
-11.43,6.33,-2.38,904,-332,8133,0,0,-1
-11.43,6.33,-2.38,900,-330,8140,0,0,0
-11.43,6.33,-2.38,899,-330,8135,0,-1,0
-11.43,6.34,-2.38,910,-329,8143,0,-1,0
-11.43,6.33,-2.38,906,-337,8139,-1,0,0
-11.43,6.33,-2.38,908,-349,8130,0,0,0
-11.43,6.33,-2.38,903,-350,8135,0,0,0
-11.43,6.33,-2.38,900,-335,8148,0,-1,-1
-11.43,6.33,-2.38,912,-325,8142,0,0,-1
-11.43,6.33,-2.37,906,-322,8134,-1,0,0
-11.43,6.33,-2.38,904,-326,8135,-1,0,0
-11.43,6.33,-2.38,906,-337,8147,-1,0,0
-11.43,6.33,-2.39,897,-345,8157,-1,-1,0
-11.43,6.33,-2.39,903,-344,8157,0,-1,0
-11.43,6.33,-2.39,908,-349,8154,0,0,0
-11.43,6.33,-2.38,901,-342,8150,0,0,-1
-11.43,6.33,-2.38,909,-333,8142,0,0,0
-11.43,6.32,-2.38,913,-335,8143,-1,0,0
-11.43,6.32,-2.38,910,-335,8144,-1,0,0
-11.43,6.31,-2.38,911,-339,8143,-1,0,-1
-11.43,6.31,-2.39,910,-336,8149,0,0,-1
-11.43,6.31,-2.38,895,-331,8148,0,0,0
-11.43,6.30,-2.38,897,-327,8146,0,0,0
-11.43,6.30,-2.38,908,-324,8139,0,0,-1
-11.43,6.29,-2.37,904,-325,8139,-1,0,0
-11.43,6.29,-2.38,900,-326,8152,-1,0,0
-11.43,6.29,-2.38,899,-333,8146,-1,0,0
-11.43,6.28,-2.38,897,-330,8145,-1,0,0
-11.43,6.28,-2.39,898,-330,8142,-1,0,0
-11.44,6.27,-2.39,901,-337,8144,-1,0,0
-11.44,6.27,-2.39,903,-342,8135,-1,0,0
-11.44,6.26,-2.39,897,-343,8129,-1,0,0
-11.44,6.26,-2.39,906,-344,8139,-1,0,-1
-11.44,6.26,-2.39,908,-342,8141,0,0,-1
-11.44,6.25,-2.39,894,-334,8148,-1,0,0
-11.44,6.24,-2.39,892,-337,8152,-1,0,-1
-11.44,6.24,-2.39,892,-338,8140,0,0,0
-11.44,6.24,-2.39,901,-336,8143,0,0,0
-11.44,6.24,-2.39,904,-338,8144,0,0,0
-11.44,6.23,-2.39,897,-336,8141,0,0,0
-11.44,6.22,-2.39,897,-329,8147,-1,0,0
-11.45,6.21,-2.39,894,-333,8155,-1,0,0
-11.45,6.21,-2.39,885,-338,8151,-1,0,0
-11.45,6.20,-2.40,888,-339,8145,-1,0,0
-11.45,6.20,-2.40,889,-341,8135,-1,0,0
-11.45,6.19,-2.40,893,-333,8140,0,0,0
-11.45,6.19,-2.40,889,-329,8148,0,0,0
-11.45,6.18,-2.40,890,-322,8142,-1,0,-1
-11.44,6.17,-2.40,893,-327,8147,-1,0,-1
-11.44,6.17,-2.40,889,-344,8150,-1,0,0
-11.44,6.16,-2.40,887,-342,8150,-1,0,-1
-11.44,6.16,-2.40,886,-343,8151,-1,0,-1
-11.44,6.16,-2.40,883,-341,8145,0,0,-1
-11.43,6.15,-2.40,890,-345,8150,0,0,-1
-11.43,6.15,-2.39,879,-340,8149,0,0,0
-11.43,6.14,-2.39,873,-340,8143,0,0,-1
-11.43,6.14,-2.39,874,-334,8143,0,0,-1
-11.43,6.15,-2.39,877,-340,8149,0,-1,-1
-11.43,6.14,-2.39,874,-342,8147,0,-1,-1
-11.43,6.15,-2.39,867,-341,8138,0,-1,-1
-11.43,6.15,-2.39,872,-344,8142,0,-1,-1
-11.43,6.15,-2.38,874,-337,8142,0,-1,-1
-11.42,6.15,-2.38,880,-332,8137,0,0,-1
-11.42,6.15,-2.38,877,-333,8143,0,-1,0
-11.42,6.15,-2.38,877,-334,8149,0,0,-1
-11.42,6.15,-2.37,876,-335,8150,-1,-1,-1
-11.42,6.16,-2.38,877,-343,8155,-1,-1,0
-11.42,6.17,-2.38,879,-346,8147,0,-1,0
-11.43,6.17,-2.38,887,-343,8144,0,-1,0
-11.43,6.18,-2.38,892,-339,8139,0,-1,0
-11.43,6.18,-2.38,897,-336,8131,0,0,0
-11.43,6.18,-2.38,894,-334,8140,0,-1,-1
-11.43,6.18,-2.37,885,-331,8146,0,0,0
-11.43,6.18,-2.37,875,-329,8152,0,-1,0
-11.43,6.18,-2.37,879,-331,8153,0,-1,-1
-11.43,6.19,-2.37,877,-333,8151,0,-1,0
-11.43,6.20,-2.37,881,-333,8146,0,-1,0
-11.43,6.20,-2.36,893,-323,8143,0,-1,0
-11.43,6.20,-2.36,895,-323,8145,-1,-1,0
-11.43,6.20,-2.36,895,-324,8141,0,-1,0
-11.43,6.21,-2.36,893,-326,8142,0,-1,0
-11.43,6.21,-2.36,890,-329,8141,-1,-1,0
-11.43,6.22,-2.37,888,-331,8139,-1,-1,0
-11.43,6.22,-2.37,888,-334,8137,-1,-1,0
-11.43,6.22,-2.37,890,-337,8141,-1,-1,0
-11.43,6.22,-2.37,895,-343,8138,-1,-1,0
-11.43,6.23,-2.37,899,-339,8136,0,0,0
-11.43,6.23,-2.37,898,-337,8145,0,0,-1
-11.43,6.23,-2.37,894,-334,8147,0,-1,0
-11.43,6.23,-2.37,896,-338,8151,0,-1,0
-11.44,6.24,-2.37,893,-344,8155,0,-1,0
-11.44,6.24,-2.37,889,-342,8146,0,-1,0
-11.44,6.25,-2.37,894,-337,8146,0,-1,-1
-11.44,6.25,-2.36,889,-331,8153,0,-1,-1
-11.44,6.25,-2.36,897,-335,8149,0,-1,0
-11.44,6.25,-2.36,899,-334,8143,0,-1,0
-11.44,6.25,-2.36,903,-338,8141,-1,-1,0
-11.44,6.26,-2.37,906,-343,8147,-1,-1,0
-11.44,6.27,-2.36,903,-343,8146,0,-1,-1
-11.44,6.27,-2.36,911,-335,8149,0,-1,-1
-11.44,6.27,-2.36,907,-334,8152,-1,0,0
-11.44,6.27,-2.37,903,-332,8143,-1,0,0
-11.44,6.27,-2.37,898,-339,8151,-1,0,0
-11.44,6.27,-2.37,896,-335,8160,0,-1,0
-11.44,6.27,-2.37,898,-340,8152,0,-1,-1
-11.44,6.27,-2.36,904,-336,8148,0,-1,0
-11.44,6.28,-2.37,905,-331,8140,0,-1,0
-11.44,6.28,-2.37,903,-326,8136,0,-1,0
-11.44,6.29,-2.37,910,-329,8145,-1,-1,0
-11.44,6.29,-2.37,913,-338,8143,-1,-1,0
-11.44,6.29,-2.37,909,-337,8142,0,0,0
-11.44,6.29,-2.37,905,-330,8144,0,-1,0
-11.44,6.30,-2.36,913,-321,8150,0,-1,0
-11.45,6.30,-2.36,908,-320,8155,-1,-1,0
-11.45,6.30,-2.36,909,-322,8151,-1,-1,0
-11.45,6.30,-2.37,907,-324,8146,-1,0,0
-11.45,6.30,-2.37,905,-338,8139,-1,0,0
-11.45,6.31,-2.38,908,-347,8139,0,-1,0
-11.45,6.31,-2.38,907,-354,8141,0,-1,-1
-11.45,6.32,-2.37,910,-346,8141,0,-1,-1
-11.45,6.32,-2.36,910,-330,8140,0,0,-1
-11.45,6.32,-2.36,908,-316,8147,-1,0,0
-11.45,6.32,-2.36,909,-309,8153,-1,-1,0
-11.45,6.32,-2.36,913,-321,8160,-1,-1,0
-11.45,6.32,-2.36,909,-337,8139,-1,-1,0
-11.46,6.32,-2.36,910,-345,8131,0,-1,0
-11.46,6.32,-2.36,907,-343,8140,0,0,0
-11.46,6.32,-2.36,914,-349,8145,0,-1,0
-11.46,6.33,-2.36,914,-338,8144,0,-1,0
-11.46,6.33,-2.36,916,-336,8149,0,0,0
-11.46,6.33,-2.36,917,-329,8152,-1,0,0
-11.46,6.33,-2.36,909,-330,8139,-1,0,0
-11.46,6.33,-2.36,913,-336,8138,-1,-1,0
-11.46,6.33,-2.36,909,-334,8146,-1,-1,0
-11.46,6.34,-2.36,917,-332,8137,0,0,-1
-11.46,6.34,-2.36,922,-333,8137,0,0,-1
-11.46,6.34,-2.36,919,-340,8137,0,0,-1
-11.46,6.34,-2.36,919,-336,8128,0,0,-1
-11.46,6.34,-2.36,921,-326,8136,-1,0,0
-11.46,6.34,-2.36,918,-328,8142,-1,0,-1
-11.45,6.34,-2.36,917,-331,8148,-1,0,0
-11.46,6.34,-2.36,913,-328,8144,0,-1,0
-11.46,6.34,-2.36,910,-340,8141,0,0,-1
-11.45,6.34,-2.36,917,-330,8146,0,0,-1
-11.45,6.34,-2.35,916,-326,8148,-1,0,-1
-11.45,6.34,-2.35,909,-332,8145,-1,0,-1
-11.45,6.34,-2.35,909,-334,8140,-1,0,0
-11.45,6.34,-2.36,907,-331,8133,-1,0,-1
-11.45,6.34,-2.36,903,-331,8141,0,0,0
-11.45,6.34,-2.35,907,-333,8150,0,0,-1
-11.45,6.34,-2.35,907,-330,8142,-1,0,-1
-11.45,6.33,-2.35,902,-332,8139,-1,0,-1
-11.45,6.33,-2.36,913,-328,8144,-1,0,0
-11.45,6.32,-2.36,909,-331,8146,0,0,-1
-11.44,6.32,-2.36,909,-327,8150,-1,0,0
-11.44,6.31,-2.35,896,-331,8152,-1,0,0
-11.44,6.31,-2.36,897,-333,8138,-1,0,-1
-11.44,6.31,-2.36,900,-340,8141,-1,0,0
-11.44,6.31,-2.37,910,-349,8130,-1,0,0
-11.44,6.30,-2.37,908,-344,8137,-1,0,-1
-11.44,6.30,-2.37,903,-332,8140,-1,0,-1
-11.44,6.30,-2.37,909,-326,8141,0,0,-1
-11.44,6.29,-2.37,905,-325,8138,-1,0,0
-11.44,6.29,-2.37,906,-331,8138,-1,0,0
-11.44,6.28,-2.37,912,-344,8135,-1,0,-1
-11.44,6.27,-2.37,901,-342,8134,0,0,0
-11.44,6.27,-2.37,905,-343,8152,-1,0,0
-11.44,6.26,-2.37,896,-340,8153,0,0,0
-11.44,6.25,-2.38,901,-329,8149,-1,0,0
-11.44,6.25,-2.38,900,-322,8142,-1,0,0
-11.44,6.25,-2.38,898,-327,8143,-1,0,0
-11.44,6.23,-2.38,893,-329,8143,-1,0,0
-11.44,6.22,-2.38,891,-335,8144,-1,0,0
-11.44,6.22,-2.39,888,-332,8149,-1,0,0
-11.44,6.21,-2.39,890,-334,8159,-1,0,0
-11.45,6.21,-2.39,898,-337,8154,0,0,0
-11.45,6.21,-2.39,901,-338,8142,0,0,0
-11.45,6.20,-2.38,901,-326,8136,0,0,-1
-11.45,6.20,-2.38,902,-320,8150,-1,0,0
-11.45,6.19,-2.38,898,-330,8151,-1,0,0
-11.45,6.17,-2.38,890,-339,8146,-1,0,0
-11.45,6.17,-2.39,880,-347,8148,-1,0,-1
-11.45,6.16,-2.39,881,-352,8146,0,0,-1
-11.44,6.15,-2.39,884,-345,8146,0,0,-1
-11.44,6.15,-2.38,884,-337,8141,0,0,-1
-11.44,6.15,-2.38,879,-331,8142,0,0,0
-11.44,6.14,-2.38,881,-332,8147,-1,0,0
-11.45,6.13,-2.39,886,-335,8149,-1,0,0
-11.45,6.12,-2.38,885,-336,8152,-1,0,0
-11.45,6.12,-2.39,879,-334,8142,-1,0,0
-11.45,6.12,-2.40,880,-339,8143,-1,0,0
-11.45,6.12,-2.40,879,-344,8142,-1,0,0
-11.45,6.11,-2.40,877,-347,8147,-1,0,-1
-11.45,6.10,-2.40,881,-342,8147,0,0,-1
-11.45,6.10,-2.40,881,-329,8143,0,0,-1
-11.44,6.10,-2.40,881,-330,8153,-1,0,-1
-11.44,6.09,-2.39,874,-333,8149,-1,0,-1
-11.44,6.09,-2.40,874,-345,8144,-1,0,-1
-11.44,6.09,-2.40,867,-356,8148,0,0,-1
-11.44,6.08,-2.39,864,-347,8140,0,-1,-1
-11.43,6.09,-2.38,875,-334,8139,0,-1,-1
-11.43,6.09,-2.37,877,-321,8139,0,0,0
-11.43,6.09,-2.37,882,-320,8142,-1,-1,0
-11.43,6.10,-2.37,879,-328,8149,-1,0,0
-11.44,6.10,-2.37,875,-338,8154,-1,-1,0
-11.44,6.10,-2.38,876,-339,8153,0,-1,-1
-11.43,6.11,-2.37,872,-327,8144,0,-1,-1
-11.43,6.12,-2.37,878,-327,8135,0,-1,-1
-11.43,6.13,-2.37,890,-328,8133,-1,-1,0
-11.43,6.13,-2.37,888,-324,8143,-1,-1,0
-11.43,6.13,-2.37,889,-333,8153,-1,-1,0
-11.43,6.13,-2.37,890,-341,8154,0,-1,-1
-11.43,6.13,-2.37,879,-336,8146,0,-1,0
-11.43,6.14,-2.36,880,-340,8142,0,-1,-1
-11.43,6.15,-2.37,880,-334,8142,0,-1,0
-11.43,6.15,-2.36,884,-331,8144,0,-1,0
-11.43,6.16,-2.36,886,-332,8146,0,-1,0
-11.43,6.16,-2.36,883,-337,8147,0,-1,0
-11.43,6.16,-2.36,878,-330,8145,0,-1,0
-11.44,6.16,-2.35,872,-327,8145,0,-1,0
-11.44,6.17,-2.35,884,-336,8145,0,-1,0
-11.44,6.18,-2.35,888,-338,8144,-1,-1,0
-11.44,6.18,-2.36,888,-351,8144,0,-1,0
-11.44,6.18,-2.36,887,-348,8137,0,-1,0
-11.44,6.18,-2.36,892,-341,8145,0,-1,0
-11.44,6.19,-2.36,894,-331,8155,-1,-1,-1
-11.44,6.19,-2.36,892,-328,8155,-1,-1,0
-11.44,6.19,-2.36,877,-325,8163,0,-1,0
-11.45,6.19,-2.36,876,-331,8160,0,-1,0
-11.45,6.20,-2.36,871,-331,8161,-1,-1,0
-11.45,6.20,-2.36,878,-339,8146,-1,-1,0
-11.45,6.20,-2.36,887,-346,8148,0,-1,0
-11.45,6.21,-2.35,889,-341,8142,0,-1,0
-11.46,6.22,-2.35,893,-339,8146,0,-1,0
-11.46,6.22,-2.35,894,-328,8143,0,-1,-1
-11.45,6.23,-2.35,887,-333,8138,0,-1,-1
-11.45,6.23,-2.35,884,-329,8139,-1,-1,0
-11.46,6.23,-2.35,890,-334,8136,-1,-1,0
-11.46,6.24,-2.35,889,-333,8138,-1,-1,0
-11.46,6.24,-2.35,897,-333,8147,0,-1,-1
-11.46,6.25,-2.34,897,-333,8158,0,-1,0
-11.46,6.25,-2.34,895,-322,8157,0,-1,0
-11.46,6.26,-2.34,897,-322,8153,-1,-1,0
-11.46,6.26,-2.34,893,-320,8152,-1,-1,0
-11.46,6.26,-2.34,895,-319,8149,-1,-1,0
-11.46,6.26,-2.34,898,-322,8152,-1,-1,0
-11.46,6.27,-2.34,902,-331,8144,-1,-1,0
-11.46,6.28,-2.35,907,-342,8148,-1,-1,0
-11.46,6.28,-2.35,919,-345,8145,0,-1,-1
-11.46,6.28,-2.35,914,-331,8149,0,-1,0
-11.46,6.29,-2.34,909,-321,8153,0,-1,-1
-11.46,6.29,-2.34,907,-315,8147,0,-1,-1
-11.46,6.29,-2.34,907,-316,8145,-1,-1,0
-11.46,6.29,-2.34,903,-329,8149,0,-1,0
-11.46,6.30,-2.34,901,-332,8147,0,-1,0
-11.46,6.30,-2.33,904,-328,8150,0,-1,-1
-11.47,6.30,-2.32,909,-315,8138,0,0,0
-11.47,6.31,-2.32,909,-309,8139,-1,0,0
-11.47,6.30,-2.33,900,-321,8136,-1,0,0
-11.47,6.30,-2.33,899,-330,8129,-1,-1,0
-11.47,6.30,-2.33,906,-337,8141,-1,-1,0
-11.47,6.31,-2.33,903,-332,8132,0,-1,-1
-11.47,6.31,-2.32,904,-318,8129,0,0,-1
-11.47,6.31,-2.32,903,-322,8131,-1,-1,0
-11.47,6.31,-2.33,906,-327,8148,-1,0,0
-11.47,6.31,-2.33,905,-324,8151,-1,-1,0
-11.46,6.31,-2.33,905,-326,8158,-1,0,0
-11.47,6.31,-2.34,905,-336,8156,0,-1,-1
-11.47,6.32,-2.34,917,-332,8156,0,0,0
-11.47,6.32,-2.34,916,-327,8144,-1,-1,-1
-11.47,6.33,-2.33,919,-321,8137,0,-1,-1
-11.47,6.33,-2.33,916,-321,8129,0,0,0
-11.47,6.33,-2.33,912,-326,8144,-1,0,0
-11.47,6.33,-2.33,912,-330,8150,0,0,0
-11.47,6.33,-2.33,910,-329,8149,0,-1,0
-11.47,6.33,-2.32,909,-328,8149,0,-1,0
-11.47,6.33,-2.32,920,-326,8147,-1,0,0
-11.47,6.33,-2.32,920,-326,8144,-1,0,0
-11.47,6.33,-2.32,920,-328,8144,-1,0,0
-11.47,6.33,-2.33,912,-337,8153,-1,-1,0
-11.47,6.33,-2.34,913,-345,8154,-1,-1,0
-11.47,6.34,-2.34,909,-351,8149,0,-1,0
-11.47,6.34,-2.34,909,-350,8142,0,0,0
-11.47,6.34,-2.33,921,-337,8138,0,0,-1
-11.47,6.34,-2.32,922,-323,8131,0,0,-1
-11.47,6.34,-2.32,916,-318,8122,0,0,-1
-11.47,6.34,-2.32,904,-323,8127,-1,0,0
-11.47,6.33,-2.32,901,-333,8133,-1,0,-1
-11.47,6.33,-2.33,900,-336,8133,0,0,0
-11.47,6.33,-2.33,894,-337,8132,0,-1,-1
-11.47,6.34,-2.32,910,-329,8124,0,0,-1
-11.47,6.33,-2.32,912,-321,8126,0,0,0
-11.47,6.33,-2.32,908,-322,8132,-1,0,0
-11.47,6.33,-2.32,912,-328,8131,-1,0,0
-11.47,6.33,-2.32,912,-323,8140,-1,0,-1
-11.47,6.34,-2.32,912,-326,8154,-1,0,0
-11.47,6.34,-2.33,916,-332,8151,-1,0,0
-11.47,6.33,-2.33,911,-329,8137,-1,0,0
-11.47,6.33,-2.33,918,-339,8141,-1,0,0
-11.47,6.33,-2.33,914,-341,8134,0,0,0
-11.47,6.33,-2.33,916,-338,8137,0,0,-1
-11.47,6.33,-2.33,907,-330,8132,0,0,0
-11.47,6.33,-2.33,903,-330,8138,-1,0,-1
-11.47,6.33,-2.34,907,-332,8146,-1,0,0
-11.47,6.33,-2.34,910,-332,8138,0,0,-1
-11.47,6.33,-2.34,917,-344,8141,0,0,0
-11.47,6.33,-2.33,914,-333,8145,0,0,-1
-11.47,6.33,-2.33,909,-325,8132,0,0,0
-11.47,6.33,-2.33,908,-326,8136,-1,0,0
-11.47,6.33,-2.34,906,-332,8147,-1,0,-1
-11.46,6.32,-2.34,910,-334,8144,0,0,-1
-11.46,6.32,-2.34,903,-326,8138,-1,0,0
-11.46,6.32,-2.34,905,-331,8138,-1,0,-1
-11.46,6.31,-2.33,908,-332,8126,0,0,0
-11.46,6.31,-2.33,908,-333,8144,-1,0,0
-11.46,6.30,-2.34,910,-331,8141,-1,0,-1
-11.46,6.30,-2.34,1022,-258,-258,-1,0,0
-11.46,6.29,-2.34,913,-317,8155,-1,0,-1
-11.46,6.29,-2.35,910,-335,8146,-1,0,0
-11.46,6.29,-2.35,908,-332,8142,-1,0,0
-11.46,6.28,-2.35,915,-340,8143,-1,0,0
-11.46,6.28,-2.35,906,-336,8147,0,0,-1
-11.46,6.28,-2.35,908,-329,8150,-1,0,0
-11.46,6.27,-2.35,899,-331,8141,-1,0,0
-11.46,6.27,-2.35,901,-335,8132,-1,0,0
-11.46,6.27,-2.35,905,-336,8137,-1,0,0
-11.47,6.26,-2.36,899,-335,8135,-1,0,0
-11.46,6.25,-2.36,903,-331,8141,-1,0,-1
-11.46,6.25,-2.36,899,-323,8140,-1,0,-1
-11.46,6.24,-2.37,912,-320,8185,-1,0,0
-11.47,6.21,-2.40,910,-336,8183,-1,0,0
-11.47,6.20,-2.41,901,-354,8155,-1,0,0
-11.50,6.18,-2.46,1040,-527,8150,-2,2,1
-11.54,6.10,-2.47,1063,-644,8111,3,5,1
-11.56,5.95,-2.33,926,-489,8074,5,4,-1
-11.54,5.82,-2.17,858,-349,8083,5,4,-2
-11.51,5.70,-2.01,706,-189,8134,3,2,-2
-11.49,5.65,-1.90,655,-65,8151,1,0,-1
-11.48,5.65,-1.86,671,-61,8178,-1,-2,0
-11.49,5.69,-1.86,702,-85,8193,-1,-3,0
-11.49,5.77,-1.88,766,-104,8187,-2,-3,0
-11.49,5.84,-1.93,821,-163,8166,-3,-3,0
-11.49,5.90,-2.00,863,-267,8149,-3,-2,0
-11.48,5.95,-2.06,896,-351,8134,-2,-2,-1
-11.48,5.98,-2.09,895,-402,8118,-1,-1,-1
-11.48,6.00,-2.09,879,-385,8112,0,-1,-1
-11.47,6.01,-2.08,875,-336,8128,0,-1,-1
-11.47,6.04,-2.07,868,-294,8147,-1,-1,0
-11.48,6.05,-2.07,862,-270,8160,-1,-1,0
-11.48,6.07,-2.08,871,-275,8163,-1,-1,0
-11.48,6.09,-2.10,878,-289,8147,-1,-1,0
-11.47,6.10,-2.12,881,-305,8135,-1,-1,0
-11.47,6.11,-2.14,882,-321,8126,-1,-1,0
-11.47,6.12,-2.14,887,-335,8128,-1,-1,-1
-11.47,6.13,-2.15,889,-334,8150,0,-1,-1
-11.47,6.13,-2.15,888,-328,8151,0,-1,0
-11.47,6.13,-2.15,879,-313,8151,0,-1,0
-11.48,6.13,-2.15,880,-298,8153,0,-1,0
-11.48,6.14,-2.15,882,-291,8145,-1,-1,-1
-11.48,6.14,-2.15,886,-288,8145,-1,0,0
-11.47,6.15,-2.16,883,-303,8147,-1,-1,-1
-11.47,6.15,-2.16,884,-316,8138,-1,0,0
-11.47,6.15,-2.16,887,-323,8143,0,-1,-1
-11.47,6.15,-2.16,884,-317,8137,0,0,-1
-11.47,6.15,-2.15,877,-302,8137,0,0,-1
-11.47,6.15,-2.15,878,-297,8139,-1,-1,0
-11.47,6.16,-2.15,887,-294,8127,-1,-1,0
-11.47,6.15,-2.16,885,-301,8134,-1,0,0
-11.47,6.15,-2.16,883,-310,8144,-1,0,-1
-11.47,6.15,-2.16,881,-315,8154,0,0,-1
-11.47,6.15,-2.15,878,-312,8164,0,0,-1
-11.47,6.15,-2.16,877,-311,8162,0,-1,0
-11.47,6.15,-2.16,876,-304,8148,0,-1,0
-11.47,6.15,-2.16,887,-302,8144,-1,0,0
-11.47,6.16,-2.16,888,-308,8150,-1,-1,0
-11.47,6.16,-2.16,889,-311,8154,0,-1,0
-11.47,6.17,-2.16,890,-310,8157,0,-1,0
-11.47,6.17,-2.16,893,-313,8145,0,-1,0
-11.47,6.17,-2.16,890,-303,8138,0,-1,-1
-11.47,6.18,-2.15,888,-300,8138,0,0,0
-11.47,6.18,-2.16,886,-306,8135,0,0,0
-11.47,6.18,-2.15,889,-311,8141,0,0,-1
-11.47,6.18,-2.15,888,-301,8148,0,0,0
-11.47,6.18,-2.15,886,-296,8142,0,-1,0
-11.48,6.18,-2.14,891,-293,8146,-1,-1,-1
-11.48,6.18,-2.14,890,-291,8148,-1,-1,0
-11.47,6.18,-2.15,891,-289,8148,-1,0,0
-11.47,6.18,-2.15,887,-298,8143,-1,-1,0
-11.47,6.19,-2.15,893,-306,8141,-1,-1,0
-11.47,6.19,-2.16,892,-318,8143,0,-1,-1
-11.47,6.20,-2.15,896,-314,8144,0,-1,-1
-11.47,6.20,-2.15,899,-298,8142,0,-1,-1
-11.48,6.21,-2.14,894,-290,8145,0,-1,-1
-11.48,6.21,-2.14,894,-291,8145,-1,-1,-1
-11.48,6.21,-2.14,892,-297,8144,-1,-1,0
-11.47,6.20,-2.15,885,-311,8148,0,-1,-1
-11.47,6.21,-2.15,890,-314,8150,0,0,-1
-11.47,6.21,-2.14,889,-304,8143,0,-1,0
-11.48,6.21,-2.13,887,-303,8137,0,-1,0
-11.48,6.21,-2.13,898,-298,8144,0,-1,0
-11.48,6.22,-2.13,894,-297,8139,-1,-1,-1
-11.47,6.22,-2.13,898,-296,8142,-1,0,0
-11.48,6.22,-2.13,896,-292,8146,-1,0,0
-11.48,6.22,-2.13,891,-297,8151,-1,-1,0
-11.47,6.23,-2.14,893,-300,8155,-1,-1,0
-11.47,6.23,-2.14,899,-301,8147,-1,-1,0
-11.47,6.23,-2.14,899,-305,8139,0,-1,0
-11.47,6.23,-2.14,895,-306,8134,0,0,0
-11.47,6.23,-2.14,897,-299,8132,0,0,0
-11.47,6.23,-2.14,891,-299,8143,-1,-1,0
-11.47,6.23,-2.14,895,-297,8151,-1,0,0
-11.47,6.23,-2.14,896,-309,8146,0,-1,0
-11.47,6.24,-2.14,898,-308,8152,0,-1,0
-11.48,6.24,-2.14,898,-305,8148,0,-1,0
-11.48,6.24,-2.13,894,-302,8152,0,-1,-1
-11.48,6.25,-2.12,895,-298,8144,0,-1,0
-11.48,6.25,-2.12,894,-290,8146,0,0,0
-11.48,6.25,-2.12,894,-289,8151,-1,0,0
-11.48,6.25,-2.12,892,-305,8144,-1,-1,0
-11.48,6.25,-2.12,896,-308,8142,0,0,0
-11.48,6.25,-2.13,894,-317,8153,-1,-1,-1
-11.48,6.25,-2.13,900,-309,8140,0,0,-1
-11.48,6.25,-2.12,887,-299,8152,0,0,-1
-11.48,6.25,-2.12,886,-294,8150,-1,-1,0
-11.48,6.25,-2.12,898,-290,8145,-1,0,0
-11.48,6.25,-2.12,897,-294,8144,-1,0,-1
-11.48,6.25,-2.12,893,-304,8153,0,0,-1
-11.48,6.25,-2.12,899,-308,8142,0,0,-1
-11.48,6.24,-2.12,898,-298,8150,0,-1,0
-11.48,6.24,-2.12,897,-292,8142,0,0,-1
-11.48,6.24,-2.12,897,-298,8144,0,0,-1
-11.48,6.24,-2.12,898,-296,8142,0,0,0
-11.48,6.24,-2.12,892,-301,8140,-1,0,0
-11.48,6.24,-2.12,897,-303,8143,0,0,0
-11.48,6.24,-2.12,897,-296,8146,0,0,-1
-11.48,6.24,-2.11,901,-294,8147,0,-1,-1
-11.48,6.24,-2.12,903,-298,8138,-1,0,0
-11.48,6.24,-2.11,897,-298,8144,-1,0,-1
-11.48,6.24,-2.12,888,-299,8147,-1,0,-1
-11.48,6.23,-2.13,895,-303,8166,-1,0,0
-11.48,6.23,-2.13,891,-311,8158,-1,-1,0
-11.48,6.23,-2.13,891,-312,8138,0,-1,0
-11.48,6.23,-2.13,896,-313,8138,0,0,-1
-11.48,6.23,-2.12,904,-298,8149,0,0,-1
-11.48,6.23,-2.12,903,-294,8151,-1,0,-1
-11.47,6.22,-2.12,905,-298,8150,-1,0,-1
-11.48,6.22,-2.12,897,-304,8160,-1,0,0
-11.48,6.22,-2.13,890,-309,8158,0,-1,-1
-11.47,6.22,-2.12,893,-304,8148,0,0,-1
-11.47,6.22,-2.12,898,-295,8149,0,0,-1
-11.47,6.22,-2.11,913,-294,8141,0,0,0
-11.47,6.22,-2.11,905,-288,8139,0,0,0
-11.47,6.22,-2.11,898,-288,8149,-1,0,0
-11.47,6.22,-2.11,894,-289,8153,-1,0,0
-11.47,6.22,-2.11,890,-287,8152,-1,0,0
-11.47,6.22,-2.11,892,-297,8150,-1,0,0
-11.48,6.23,-2.12,897,-300,8151,-1,-1,0
-11.48,6.23,-2.12,900,-310,8135,-1,0,-1
-11.48,6.23,-2.13,901,-310,8139,0,0,0
-11.48,6.23,-2.13,899,-312,8145,0,0,0
-11.48,6.23,-2.13,895,-301,8152,0,0,-1
-11.47,6.23,-2.12,897,-296,8150,0,0,-1
-11.47,6.23,-2.12,900,-295,8143,-1,0,0
-11.47,6.23,-2.12,893,-297,8140,-1,0,0
-11.48,6.23,-2.12,887,-298,8142,0,0,0
-11.48,6.23,-2.12,895,-294,8141,0,-1,0
-11.48,6.23,-2.11,900,-292,8148,0,-1,0
-11.48,6.24,-2.11,898,-286,8142,-1,-1,0
-11.48,6.24,-2.11,897,-290,8148,-1,-1,0
-11.48,6.24,-2.11,896,-298,8146,-1,-1,0
-11.48,6.24,-2.12,900,-297,8142,0,-1,-1
-11.48,6.24,-2.12,907,-297,8138,-1,0,0
-11.48,6.24,-2.12,903,-297,8147,-1,0,0
-11.48,6.24,-2.12,906,-297,8147,0,-1,-1
-11.48,6.24,-2.12,903,-285,8149,-1,0,0
-11.48,6.24,-2.12,900,-287,8141,-1,0,0
-11.48,6.24,-2.12,897,-286,8144,-1,-1,0
-11.48,6.25,-2.13,903,-302,8140,-1,0,0
-11.48,6.25,-2.13,900,-307,8147,0,-1,0
-11.48,6.25,-2.13,901,-305,8148,0,0,-1
-11.48,6.25,-2.13,897,-302,8148,0,0,0
-11.48,6.25,-2.13,902,-310,8139,0,0,0
-11.48,6.25,-2.12,902,-292,8130,0,-1,0
-11.48,6.25,-2.12,902,-283,8136,-1,0,-1
-11.48,6.26,-2.12,903,-285,8137,-1,0,0
-11.48,6.26,-2.12,906,-289,8138,-1,0,-1
-11.48,6.26,-2.12,899,-294,8142,-1,0,0
-11.48,6.26,-2.12,897,-300,8154,-1,-1,0
-11.48,6.26,-2.12,893,-307,8154,0,-1,0
-11.48,6.26,-2.12,905,-307,8138,0,-1,-1
-11.48,6.26,-2.12,915,-305,8135,0,0,-1
-11.47,6.26,-2.12,914,-303,8131,0,0,-1
-11.47,6.26,-2.12,913,-294,8136,-1,0,0
-11.47,6.26,-2.12,908,-294,8147,-1,0,-1
-11.47,6.26,-2.12,902,-293,8142,-1,0,-1
-11.47,6.26,-2.12,904,-304,8145,-1,0,0
-11.47,6.26,-2.12,907,-306,8141,0,-1,-1
-11.47,6.26,-2.12,900,-301,8135,0,0,-1
-11.47,6.26,-2.12,899,-297,8144,0,0,0
-11.47,6.26,-2.12,900,-294,8140,0,0,0
-11.47,6.26,-2.12,903,-292,8149,-1,-1,0
-11.47,6.26,-2.12,905,-294,8148,0,0,0
-11.47,6.27,-2.12,900,-293,8146,0,-1,-1
-11.47,6.27,-2.12,907,-300,8141,0,-1,-1
-11.47,6.28,-2.12,912,-300,8142,-1,0,0
-11.47,6.28,-2.13,904,-303,8144,-1,0,0
-11.47,6.28,-2.13,906,-308,8146,0,0,-1
-11.47,6.27,-2.12,900,-313,8146,0,0,-1
-11.47,6.27,-2.12,904,-304,8140,0,0,-1
-11.47,6.27,-2.12,900,-287,8138,-1,0,-1
-11.47,6.27,-2.12,894,-287,8144,-1,0,-1
-11.47,6.27,-2.12,898,-295,8150,-1,0,0
-11.47,6.27,-2.12,902,-298,8147,0,0,-1
-11.47,6.27,-2.12,904,-301,8144,0,0,0
-11.47,6.27,-2.12,904,-299,8143,0,0,0
-11.47,6.26,-2.12,894,-294,8140,0,0,0
-11.47,6.26,-2.12,899,-290,8147,-1,0,0
-11.47,6.26,-2.11,898,-293,8141,0,0,0
-11.47,6.26,-2.11,902,-296,8142,-1,-1,-1
-11.47,6.27,-2.11,906,-303,8136,0,0,0
-11.47,6.26,-2.11,904,-301,8138,0,0,0
-11.47,6.26,-2.11,900,-293,8137,0,0,-1
-11.47,6.27,-2.10,899,-294,8144,0,0,0
-11.47,6.27,-2.10,899,-293,8140,-1,0,-1
-11.47,6.26,-2.10,906,-289,8142,-1,0,-1
-11.47,6.26,-2.10,904,-294,8148,-1,0,0
-11.47,6.26,-2.11,897,-301,8158,-1,0,0
-11.47,6.25,-2.11,904,-293,8159,-1,0,0
-11.47,6.25,-2.11,903,-294,8154,0,0,0
-11.47,6.25,-2.11,902,-297,8145,0,0,-1
-11.47,6.25,-2.10,898,-295,8152,0,0,-1
-11.47,6.24,-2.10,894,-286,8152,-1,0,0
-11.47,6.24,-2.10,899,-288,8153,-1,0,-1
-11.47,6.24,-2.11,895,-305,8151,-1,0,0
-11.47,6.24,-2.11,890,-315,8148,0,0,-1
-11.46,6.24,-2.11,902,-307,8143,0,0,-1
-11.46,6.24,-2.10,900,-294,8137,0,0,-1
-11.46,6.23,-2.10,894,-285,8137,-1,0,-1
-11.46,6.23,-2.10,900,-277,8144,-1,0,-1
-11.46,6.23,-2.10,894,-283,8148,-1,0,-1
-11.46,6.22,-2.11,895,-293,8151,-1,0,0
-11.46,6.22,-2.11,890,-306,8152,0,0,-1
-11.46,6.22,-2.11,895,-315,8145,0,0,0
-11.46,6.22,-2.11,901,-311,8133,0,0,-1
-11.46,6.22,-2.10,901,-297,8135,0,0,0
-11.46,6.22,-2.10,900,-289,8136,0,0,-1
-11.46,6.20,-2.10,889,-291,8141,-1,0,0
-11.46,6.20,-2.11,889,-294,8151,-1,0,-1
-11.46,6.19,-2.11,884,-303,8155,-1,0,0
-11.46,6.19,-2.12,893,-307,8145,0,0,0
-11.46,6.19,-2.12,888,-306,8148,0,0,0
-11.45,6.19,-2.12,893,-302,8147,0,0,0
-11.45,6.18,-2.11,894,-298,8146,0,0,0
-11.45,6.17,-2.11,890,-285,8150,-1,0,0
-11.45,6.17,-2.11,889,-287,8148,-1,0,0
-11.45,6.17,-2.11,890,-288,8144,0,0,-1
-11.45,6.16,-2.11,887,-294,8142,-1,0,0
-11.45,6.16,-2.12,885,-299,8147,-1,0,-1
-11.45,6.15,-2.13,886,-308,8138,-1,0,0
-11.45,6.14,-2.13,883,-317,8143,-1,0,0
-11.45,6.14,-2.12,884,-309,8145,0,0,-1
-11.45,6.13,-2.12,876,-295,8146,0,0,0
-11.45,6.12,-2.12,888,-286,8146,-1,0,-1
-11.45,6.12,-2.12,882,-290,8153,-1,0,0
-11.45,6.11,-2.13,874,-298,8157,-1,0,0
-11.45,6.10,-2.13,876,-307,8150,-1,0,-1
-11.45,6.10,-2.14,879,-317,8154,0,0,0
-11.45,6.09,-2.13,877,-310,8153,0,0,-1
-11.45,6.08,-2.13,878,-301,8148,0,0,-1
-11.45,6.07,-2.13,875,-296,8148,-1,0,0
-11.45,6.07,-2.13,873,-290,8143,-1,0,0
-11.45,6.07,-2.14,875,-297,8134,-1,0,0
-11.46,6.06,-2.14,874,-300,8139,-1,0,0
-11.45,6.05,-2.14,870,-301,8142,0,0,-1
-11.46,6.05,-2.14,870,-298,8146,0,0,0
-11.46,6.04,-2.14,874,-295,8150,-1,0,0
-11.46,6.04,-2.14,873,-298,8148,-1,0,0
-11.46,6.03,-2.14,867,-311,8162,-1,0,0
-11.46,6.02,-2.15,863,-311,8158,-1,0,0
-11.46,6.01,-2.15,860,-315,8152,0,0,-1
-11.46,6.01,-2.15,866,-306,8153,0,0,0
-11.46,6.00,-2.15,867,-308,8157,-1,0,0
-11.45,6.00,-2.15,860,-302,8138,0,0,0
-11.45,5.99,-2.14,865,-298,8148,-1,0,-1
-11.45,5.99,-2.14,866,-298,8157,0,0,-1
-11.45,5.99,-2.14,864,-293,8150,0,0,-1
-11.45,5.99,-2.14,862,-294,8159,-1,0,-1
-11.44,5.99,-2.14,858,-305,8145,-1,-1,0
-11.45,5.99,-2.14,864,-309,8146,0,0,-1
-11.45,5.99,-2.14,857,-305,8149,0,-1,-1
-11.45,6.00,-2.13,865,-299,8142,0,-1,-1
-11.45,6.00,-2.13,862,-293,8139,0,0,0
-11.45,6.00,-2.13,862,-290,8145,-1,-1,0
-11.45,6.00,-2.13,856,-290,8146,-1,-1,0
-11.45,6.00,-2.13,859,-295,8148,-1,-1,0
-11.45,6.01,-2.13,861,-303,8148,0,-1,0
-11.45,6.02,-2.13,867,-299,8152,0,-1,0
-11.45,6.02,-2.13,874,-300,8145,0,-1,-1
-11.45,6.02,-2.12,875,-294,8139,0,-1,-1
-11.45,6.03,-2.11,868,-289,8142,0,-1,-1
-11.45,6.03,-2.11,868,-286,8137,-1,-1,0
-11.45,6.04,-2.11,862,-295,8147,0,-1,-1
-11.45,6.05,-2.11,865,-299,8144,0,-1,0
-11.45,6.05,-2.11,867,-303,8141,0,-1,0
-11.45,6.06,-2.10,871,-305,8144,0,-1,0
-11.45,6.07,-2.10,876,-296,8140,0,-1,0
-11.45,6.08,-2.10,877,-301,8134,0,-1,0
-11.46,6.08,-2.10,869,-298,8156,0,-1,0
-11.46,6.08,-2.09,866,-285,8152,0,-1,0
-11.46,6.09,-2.08,872,-284,8150,-1,-1,0
-11.46,6.10,-2.09,872,-283,8154,-1,-1,0
-11.46,6.10,-2.10,875,-294,8146,-1,-1,0
-11.46,6.11,-2.11,879,-311,8138,-1,-1,0
-11.47,6.12,-2.11,882,-314,8141,0,-1,0
-11.46,6.13,-2.10,888,-306,8145,0,-1,-1
-11.46,6.13,-2.10,885,-283,8139,0,-1,0
-11.46,6.14,-2.10,892,-282,8129,-1,-1,0
-11.47,6.15,-2.10,893,-289,8148,-1,-1,0
-11.47,6.15,-2.11,890,-296,8150,-1,-1,0
-11.47,6.16,-2.11,892,-303,8154,0,-1,0
-11.47,6.16,-2.10,885,-312,8146,0,-1,-1
-11.47,6.16,-2.09,881,-296,8155,0,-1,-1
-11.47,6.17,-2.09,884,-286,8154,0,-1,0
-11.47,6.18,-2.09,889,-281,8150,-1,-1,0
-11.47,6.18,-2.09,886,-281,8154,-1,-1,0
-11.48,6.18,-2.09,888,-288,8145,-1,-1,0
-11.48,6.18,-2.09,886,-292,8147,-1,-1,0
-11.48,6.19,-2.09,887,-292,8145,0,-1,0
-11.48,6.20,-2.09,896,-294,8146,0,-1,0
-11.48,6.20,-2.08,903,-282,8133,0,-1,0
-11.48,6.20,-2.08,898,-282,8135,-1,-1,0
-11.48,6.20,-2.09,898,-291,8141,-1,-1,0
-11.48,6.21,-2.09,895,-299,8151,-1,-1,-1
-11.48,6.21,-2.09,893,-298,8152,0,-1,0
-11.48,6.22,-2.09,891,-297,8156,0,-1,-1
-11.48,6.22,-2.09,896,-298,8152,0,-1,0
-11.48,6.22,-2.09,898,-293,8150,0,-1,-1
-11.48,6.22,-2.09,900,-292,8143,0,-1,0
-11.48,6.23,-2.09,897,-288,8148,-1,-1,0
-11.48,6.23,-2.09,896,-286,8157,-1,-1,0
-11.49,6.23,-2.09,900,-299,8151,-1,-1,0
-11.49,6.24,-2.09,896,-301,8141,0,-1,0
-11.49,6.24,-2.09,896,-295,8142,0,-1,0
-11.49,6.25,-2.09,905,-286,8137,-1,-1,0
-11.48,6.25,-2.08,905,-279,8132,-1,0,-1
-11.49,6.25,-2.08,900,-281,8129,-1,0,0
-11.49,6.25,-2.09,894,-287,8134,-1,-1,0
-11.48,6.25,-2.10,891,-301,8149,-1,-1,0
-11.48,6.25,-2.10,890,-301,8150,0,-1,0
-11.48,6.26,-2.09,901,-297,8140,0,-1,-1
-11.48,6.26,-2.09,908,-290,8136,0,0,0
-11.48,6.26,-2.09,903,-291,8133,-1,0,0
-11.49,6.26,-2.09,904,-296,8132,-1,0,0
-11.49,6.26,-2.09,901,-295,8155,-1,-1,-1
-11.48,6.26,-2.09,896,-303,8159,0,-1,-1
-11.48,6.26,-2.09,895,-299,8153,0,-1,0
-11.48,6.27,-2.09,896,-299,8155,0,-1,0
-11.48,6.27,-2.09,902,-298,8147,0,0,0
-11.49,6.27,-2.08,910,-292,8144,0,0,-1
-11.49,6.27,-2.08,913,-294,8144,0,0,0
-11.49,6.27,-2.08,906,-285,8152,0,0,0
-11.49,6.26,-2.08,899,-283,8147,0,0,0
-11.49,6.27,-2.08,896,-290,8147,-1,-1,0
-11.49,6.27,-2.08,902,-296,8147,-1,-1,0
-11.49,6.27,-2.09,896,-304,8140,-1,-1,0
-11.49,6.27,-2.10,903,-307,8134,-1,0,-1
-11.49,6.27,-2.10,908,-308,8140,0,0,-1
-11.48,6.27,-2.10,904,-300,8149,0,0,-1
-11.48,6.27,-2.09,907,-293,8156,0,0,-1
-11.48,6.27,-2.09,904,-291,8158,-1,0,0
-11.48,6.27,-2.10,899,-292,8142,-1,0,0
-11.48,6.27,-2.10,897,-300,8128,0,0,0
-11.48,6.27,-2.09,900,-295,8132,0,0,-1
-11.49,6.26,-2.08,902,-287,8134,0,0,-1
-11.49,6.26,-2.08,909,-281,8131,0,0,-1
-11.49,6.26,-2.08,899,-282,8142,-1,0,0
-11.49,6.26,-2.08,893,-284,8147,-1,0,0
-11.49,6.25,-2.07,891,-282,8150,-1,-1,-1
-11.49,6.26,-2.08,899,-283,8144,-1,0,0
-11.49,6.25,-2.08,899,-295,8153,-1,0,-1
-11.49,6.25,-2.08,902,-295,8140,-1,0,0
-11.49,6.25,-2.09,899,-293,8143,-1,0,-1
-11.48,6.25,-2.09,899,-293,8151,-1,0,-1
-11.48,6.24,-2.09,897,-295,8151,-1,0,-1
-11.48,6.23,-2.09,891,-304,8154,-1,0,-1
-11.48,6.23,-2.09,887,-298,8158,-1,0,0
-11.48,6.22,-2.10,892,-297,8159,-1,0,0
-11.48,6.22,-2.10,889,-290,8153,-1,0,0
-11.48,6.22,-2.10,895,-301,8150,0,0,0
-11.48,6.21,-2.10,888,-293,8149,-1,0,-1
-11.48,6.19,-2.10,883,-298,8149,-1,0,0
-11.48,6.19,-2.10,882,-295,8154,0,0,-1
-11.48,6.19,-2.10,888,-292,8146,-1,0,0
-11.48,6.19,-2.10,889,-288,8133,-1,0,-1
-11.48,6.18,-2.10,890,-292,8139,-1,0,-1
-11.48,6.17,-2.11,888,-297,8140,-1,0,-1
-11.48,6.16,-2.11,885,-302,8160,-1,0,0
-11.47,6.15,-2.12,879,-297,8159,-1,0,0
-11.47,6.14,-2.12,881,-305,8147,-1,0,0
-11.47,6.14,-2.12,887,-297,8134,0,0,0
-11.47,6.13,-2.12,889,-297,8130,0,0,0
-11.48,6.12,-2.12,886,-290,8139,-1,0,-1
-11.47,6.10,-2.11,876,-289,8152,-1,0,-1
-11.47,6.09,-2.12,873,-286,8159,-1,0,0
-11.47,6.09,-2.13,874,-300,8155,-1,0,0
-11.47,6.08,-2.13,864,-305,8142,-1,0,0
-11.47,6.07,-2.13,864,-305,8146,-1,0,0
-11.47,6.07,-2.13,868,-308,8150,0,0,0
-11.48,6.05,-2.12,862,-296,8152,0,0,-1
-11.48,6.05,-2.12,871,-294,8148,-1,0,0
-11.48,6.04,-2.12,875,-293,8145,-1,0,0
-11.47,6.04,-2.13,877,-295,8144,-1,0,0
-11.48,6.02,-2.13,867,-297,8149,-1,0,0
-11.48,6.02,-2.13,870,-294,8139,-1,0,0
-11.47,6.00,-2.13,861,-295,8142,-1,0,0
-11.47,5.99,-2.13,870,-303,8146,-1,0,-1
-11.47,5.99,-2.14,867,-309,8143,-1,0,0
-11.47,5.97,-2.14,866,-304,8143,-1,0,0
-11.47,5.97,-2.14,862,-298,8133,-1,0,-1
-11.47,5.95,-2.13,856,-300,8147,-1,0,0
-11.47,5.94,-2.14,850,-305,8141,-1,0,0
-11.47,5.92,-2.14,843,-303,8148,0,0,0
-11.47,5.92,-2.14,854,-299,8145,0,0,-1
-11.47,5.91,-2.14,851,-303,8140,0,0,0
-11.47,5.90,-2.14,849,-298,8150,0,0,0
-11.47,5.89,-2.14,852,-303,8147,0,0,-1
-11.46,5.88,-2.13,848,-297,8157,0,0,-1
-11.46,5.88,-2.13,847,-305,8160,-1,0,-1
-11.46,5.87,-2.13,838,-304,8152,0,0,-1
-11.46,5.87,-2.13,838,-303,8148,0,-1,-1
-11.46,5.88,-2.13,836,-308,8152,0,-1,-1
-11.46,5.88,-2.13,846,-296,8153,0,-1,-1
-11.46,5.88,-2.12,840,-289,8149,-1,-1,0
-11.46,5.88,-2.12,848,-294,8151,-1,-1,-1
-11.45,5.88,-2.12,846,-294,8148,0,-1,-1
-11.45,5.89,-2.12,839,-303,8145,0,-1,-1
-11.45,5.90,-2.12,840,-303,8149,-1,-1,-1
-11.45,5.90,-2.12,844,-305,8153,0,-1,-1
-11.45,5.92,-2.12,847,-304,8158,0,-1,0
-11.45,5.93,-2.12,848,-299,8159,0,-1,-1
-11.45,5.94,-2.12,846,-302,8155,0,-1,-1
-11.45,5.95,-2.11,842,-304,8156,0,-1,-1
-11.45,5.96,-2.11,843,-305,8148,0,-1,-1
-11.45,5.97,-2.11,849,-308,8143,0,-1,-1
-11.45,5.98,-2.11,848,-307,8147,0,-1,-1
-11.45,5.99,-2.10,851,-302,8147,0,-1,0
-11.45,6.01,-2.10,851,-297,8139,0,-1,0
-11.45,6.01,-2.09,851,-292,8143,0,-1,0
-11.45,6.02,-2.09,857,-292,8146,-1,-1,0
-11.45,6.03,-2.10,855,-299,8144,-1,-1,0
-11.45,6.04,-2.10,853,-302,8157,-1,-1,0
-11.46,6.05,-2.10,857,-307,8156,0,-1,0
-11.46,6.07,-2.10,864,-307,8149,0,-1,-1
-11.46,6.08,-2.10,864,-309,8139,0,-1,0
-11.46,6.08,-2.09,877,-290,8136,0,-1,-1
-11.46,6.08,-2.08,873,-290,8140,0,-1,0
-11.46,6.09,-2.08,868,-287,8158,-1,-1,0
-11.46,6.10,-2.09,864,-282,8159,0,-1,-1
-11.46,6.11,-2.08,856,-282,8154,-1,-1,0
-11.46,6.12,-2.08,866,-296,8154,0,-1,0
-11.46,6.13,-2.08,870,-302,8149,0,-1,0
-11.46,6.14,-2.08,879,-298,8145,0,-1,0
-11.46,6.15,-2.08,878,-293,8146,0,-1,0
-11.46,6.15,-2.07,873,-291,8149,0,-1,-1
-11.47,6.16,-2.06,874,-281,8153,0,-1,0
-11.47,6.16,-2.06,867,-280,8163,-1,-1,0
-11.47,6.16,-2.06,870,-284,8158,-1,-1,0
-11.47,6.18,-2.07,874,-289,8142,-1,-1,0
-11.47,6.18,-2.07,884,-295,8136,-1,-1,0
-11.48,6.19,-2.07,880,-305,8138,0,-1,0
-11.48,6.20,-2.08,882,-296,8138,0,-1,0
-11.48,6.21,-2.07,883,-295,8139,0,-1,0
-11.48,6.21,-2.07,875,-284,8144,-1,-1,0
-11.48,6.21,-2.07,880,-288,8150,-1,-1,0
-11.48,6.23,-2.07,881,-296,8150,-1,-1,0
-11.48,6.23,-2.07,875,-301,8154,0,-1,-1
-11.48,6.24,-2.07,878,-303,8145,0,-1,0
-11.48,6.25,-2.06,881,-290,8150,0,-1,-1
-11.49,6.26,-2.05,887,-280,8145,0,-1,0
-11.49,6.26,-2.05,888,-285,8142,-1,-1,0
-11.49,6.27,-2.06,884,-292,8144,-1,-1,0
-11.49,6.28,-2.06,879,-296,8139,-1,-1,0
-11.49,6.28,-2.06,879,-301,8140,0,-1,0
-11.49,6.29,-2.06,891,-294,8139,-1,-1,0
-11.49,6.30,-2.06,890,-293,8130,-1,-1,0
-11.49,6.31,-2.06,893,-293,8136,-1,-1,0
-11.50,6.30,-2.06,898,-292,8142,-1,-1,0
-11.50,6.31,-2.06,892,-287,8147,-1,-1,0
-11.50,6.31,-2.06,885,-288,8154,-1,-1,-1
-11.50,6.32,-2.06,885,-291,8147,0,-1,0
-11.50,6.33,-2.06,886,-292,8147,-1,-1,0
-11.50,6.33,-2.06,886,-293,8149,-1,-1,-1
-11.50,6.33,-2.06,893,-301,8142,0,-1,0
-11.50,6.34,-2.06,897,-300,8142,0,-1,-1
-11.50,6.35,-2.06,900,-295,8151,-1,-1,0
-11.50,6.35,-2.06,894,-298,8150,-1,-1,-1
-11.50,6.35,-2.06,894,-299,8149,-1,-1,0
-11.50,6.35,-2.06,887,-297,8148,0,-1,0
-11.50,6.36,-2.06,889,-294,8141,0,-1,-1
-11.50,6.36,-2.06,895,-296,8137,-1,-1,-1
-11.50,6.37,-2.06,897,-303,8133,0,-1,-1
-11.50,6.38,-2.05,892,-297,8126,0,-1,-1
-11.50,6.38,-2.05,899,-290,8144,-1,-1,0
-11.50,6.38,-2.05,903,-288,8149,-1,-1,0
-11.50,6.38,-2.06,898,-295,8155,-1,-1,0
-11.50,6.38,-2.06,889,-293,8154,-1,-1,0
-11.50,6.38,-2.06,886,-297,8162,-1,-1,0
-11.50,6.39,-2.06,889,-306,8159,0,-1,0
-11.50,6.39,-2.06,895,-305,8145,0,-1,-1
-11.50,6.40,-2.06,901,-304,8144,0,-1,-1
-11.50,6.40,-2.06,899,-294,8147,0,-1,-1
-11.50,6.40,-2.05,894,-290,8164,-1,-1,-1
-11.49,6.40,-2.06,891,-293,8162,-1,-1,-1
-11.49,6.39,-2.07,888,-292,8169,-1,-1,-1
-11.48,6.39,-2.08,884,-298,8168,-1,-1,-1
-11.48,6.39,-2.09,898,-299,8146,-1,-1,-1
-11.47,6.40,-2.10,907,-293,8132,-1,-1,-1
-11.47,6.40,-2.10,908,-294,8125,-1,-1,-1
-11.46,6.40,-2.10,909,-295,8123,-1,0,-1
-11.46,6.40,-2.10,906,-294,8144,-1,0,-1
-11.46,6.39,-2.10,891,-284,8161,-1,0,-1
-11.46,6.39,-2.11,888,-287,8161,-1,-1,-1
-11.46,6.40,-2.12,886,-294,8147,-1,-1,0
-11.46,6.40,-2.14,883,-311,8151,-1,-1,0
-11.45,6.40,-2.15,900,-323,8138,-1,-1,-1
-11.45,6.40,-2.15,904,-322,8128,-1,0,-1
-11.45,6.39,-2.15,897,-315,8136,0,0,-1
-11.45,6.39,-2.15,897,-308,8139,-1,-1,-1
-11.45,6.39,-2.15,900,-301,8143,-1,0,0
-11.45,6.39,-2.16,894,-304,8143,-1,0,-1
-11.44,6.39,-2.16,901,-308,8151,-1,0,-1
-11.44,6.38,-2.16,888,-299,8145,0,0,0
-11.44,6.37,-2.16,893,-309,8141,0,-1,-1
-11.44,6.37,-2.16,900,-309,8140,0,0,0
-11.44,6.37,-2.15,899,-305,8146,-1,0,-1
-11.44,6.36,-2.16,894,-305,8161,-1,0,0
-11.43,6.35,-2.17,882,-312,8170,-1,0,-1
-11.43,6.34,-2.19,882,-315,8164,-1,0,-1
-11.43,6.33,-2.19,884,-312,8152,-1,0,-1
-11.43,6.33,-2.21,888,-309,8137,-1,0,-1
-11.42,6.33,-2.21,892,-312,8135,-1,0,-1
-11.42,6.32,-2.22,889,-313,8131,-1,0,-1
-11.41,6.30,-2.23,891,-312,8136,-1,0,-1
-11.41,6.29,-2.24,886,-315,8143,-1,0,-1
-11.41,6.29,-2.25,885,-321,8149,-1,0,-1
-11.41,6.27,-2.26,879,-326,8150,-1,0,0
-11.41,6.26,-2.26,873,-322,8143,-1,0,-1
-11.41,6.26,-2.25,875,-324,8144,0,0,-1
-11.41,6.24,-2.25,871,-322,8136,0,0,-1
-11.41,6.24,-2.25,875,-313,8139,-1,0,-1
-11.40,6.22,-2.25,871,-303,8148,-1,0,0
-11.40,6.22,-2.25,873,-314,8146,0,0,0
-11.40,6.22,-2.25,875,-321,8143,0,0,-1
-11.40,6.21,-2.24,870,-319,8146,0,0,-1
-11.40,6.20,-2.24,876,-320,8149,0,0,-1
-11.40,6.20,-2.24,873,-323,8159,-1,0,0
-11.40,6.18,-2.25,861,-320,8167,-1,0,0
-11.40,6.17,-2.26,862,-317,8182,-1,0,-1
-11.40,6.16,-2.27,856,-323,8175,-1,0,0
-11.39,6.15,-2.29,855,-329,8160,-1,0,-1
-11.39,6.13,-2.30,849,-337,8150,-1,0,-1
-11.39,6.13,-2.30,850,-340,8130,-1,0,-1
-11.39,6.12,-2.31,855,-334,8119,-1,0,-1
-11.39,6.11,-2.31,855,-333,8131,-1,0,-1
-11.38,6.10,-2.31,852,-331,8136,0,0,-1
-11.38,6.09,-2.31,856,-328,8155,0,0,-1
-11.37,6.08,-2.30,853,-323,8146,-1,0,-1
-11.37,6.08,-2.30,845,-324,8148,0,0,-1
-11.37,6.08,-2.30,845,-336,8146,0,0,0
-11.37,6.07,-2.30,837,-333,8149,0,-1,-1
-11.37,6.07,-2.29,840,-325,8138,0,-1,-1
-11.37,6.07,-2.28,838,-312,8148,0,-1,0
-11.37,6.07,-2.28,833,-308,8157,-1,-1,-1
-11.37,6.07,-2.28,834,-319,8148,-1,-1,-1
-11.37,6.08,-2.28,836,-326,8155,-1,-1,-1
-11.37,6.09,-2.28,846,-331,8137,-1,-1,-1
-11.37,6.10,-2.29,857,-335,8130,0,-1,-1
-11.37,6.10,-2.29,856,-341,8124,0,-1,-1
-11.37,6.11,-2.28,859,-334,8130,0,-1,-1
-11.36,6.12,-2.27,855,-329,8139,0,-1,-1
-11.36,6.12,-2.27,856,-322,8144,0,-1,-1
-11.36,6.12,-2.26,854,-318,8144,0,-1,-1
-11.36,6.13,-2.25,855,-321,8139,0,-1,-1
-11.36,6.14,-2.25,852,-321,8151,0,-1,-1
-11.35,6.15,-2.25,853,-321,8161,-1,-1,-1
-11.35,6.15,-2.25,865,-323,8151,-1,-1,0
-11.36,6.15,-2.25,860,-323,8139,0,-1,0
-11.36,6.16,-2.24,859,-326,8138,0,-1,0
-11.36,6.17,-2.24,864,-329,8136,0,-1,0
-11.36,6.17,-2.24,841,-319,8155,-1,-1,-1
-11.35,6.17,-2.25,842,-324,8179,-1,-1,-1
-11.36,6.18,-2.26,859,-312,8180,-1,-1,-1
-11.36,6.19,-2.27,866,-307,8166,-1,-1,0
-11.35,6.21,-2.30,864,-324,8143,-1,-1,0
-11.35,6.21,-2.31,866,-342,8120,-1,-1,0
-11.35,6.21,-2.32,857,-353,8119,-1,-1,-1
-11.34,6.22,-2.32,857,-353,8137,0,-1,-1
-11.35,6.22,-2.32,858,-339,8143,0,-1,-1
-11.35,6.22,-2.31,861,-322,8154,0,-1,0
-11.35,6.23,-2.31,867,-319,8148,-1,-1,0
-11.35,6.24,-2.31,868,-323,8144,0,-1,0
-11.35,6.24,-2.31,864,-327,8156,0,-1,0
-11.35,6.24,-2.31,864,-336,8155,0,-1,0
-11.35,6.25,-2.30,866,-329,8145,0,-1,-1
-11.35,6.25,-2.29,868,-323,8144,0,-1,0
-11.35,6.26,-2.29,869,-321,8151,0,-1,0
-11.35,6.26,-2.29,867,-320,8148,0,-1,-1
-11.35,6.26,-2.29,864,-326,8147,-1,-1,0
-11.35,6.26,-2.29,861,-333,8150,-1,-1,0
-11.35,6.27,-2.30,865,-342,8155,0,-1,0
-11.36,6.27,-2.30,868,-347,8148,0,-1,0
-11.35,6.28,-2.29,870,-347,8150,0,-1,-1
-11.35,6.28,-2.28,877,-333,8134,0,-1,-1
-11.35,6.28,-2.28,878,-319,8125,0,-1,-1
-11.35,6.29,-2.27,878,-309,8150,0,-1,0
-11.36,6.29,-2.26,878,-312,8159,-1,-1,0
-11.35,6.29,-2.27,873,-322,8160,-1,-1,0
-11.36,6.29,-2.27,868,-325,8162,0,-1,0
-11.36,6.30,-2.27,868,-329,8152,0,-1,-1
-11.36,6.30,-2.26,879,-332,8149,0,-1,0
-11.36,6.31,-2.26,880,-327,8147,0,-1,0
-11.37,6.31,-2.26,872,-325,8155,0,-1,0
-11.36,6.31,-2.25,878,-316,8147,0,-1,-1
-11.37,6.32,-2.24,878,-306,8153,0,-1,0
-11.37,6.32,-2.25,879,-313,8150,-1,-1,0
-11.37,6.32,-2.25,880,-317,8142,-1,-1,0
-11.38,6.32,-2.25,879,-323,8151,-1,-1,0
-11.38,6.33,-2.25,884,-331,8163,0,-1,-1
-11.38,6.33,-2.25,887,-327,8158,0,-1,-1
-11.38,6.33,-2.24,881,-316,8162,0,-1,0
-11.38,6.34,-2.24,886,-310,8155,-1,-1,0
-11.38,6.34,-2.24,884,-313,8152,-1,-1,-1
-11.38,6.34,-2.24,879,-321,8161,-1,-1,0
-11.38,6.34,-2.25,879,-333,8161,0,-1,0
-11.38,6.34,-2.25,877,-334,8151,0,-1,0
-11.38,6.34,-2.24,882,-327,8140,0,-1,-1
-11.38,6.35,-2.23,880,-319,8136,0,-1,-1
-11.38,6.35,-2.23,883,-315,8146,0,-1,0
-11.38,6.36,-2.23,882,-318,8139,0,-1,0
-11.39,6.36,-2.23,880,-320,8141,0,-1,0
-11.39,6.36,-2.22,881,-324,8145,0,-1,0
-11.39,6.36,-2.22,884,-332,8143,0,-1,-1
-11.39,6.37,-2.21,889,-321,8134,0,-1,-1
-11.39,6.38,-2.21,892,-316,8142,0,-1,0
-11.39,6.38,-2.20,886,-316,8139,0,-1,0
-11.39,6.38,-2.20,892,-311,8143,0,-1,0
-11.39,6.38,-2.20,885,-308,8154,-1,-1,0
-11.39,6.38,-2.20,885,-314,8156,-1,-1,0
-11.39,6.38,-2.20,879,-315,8159,0,-1,0
-11.40,6.38,-2.19,888,-310,8152,0,-1,0
-11.40,6.39,-2.19,889,-316,8149,-1,-1,-1
-11.39,6.39,-2.20,888,-314,8149,-1,-1,-1
-11.40,6.39,-2.20,889,-313,8151,-1,-1,0
-11.40,6.40,-2.20,890,-308,8154,-1,-1,0
-11.40,6.40,-2.20,893,-307,8149,-1,-1,-1
-11.40,6.40,-2.20,892,-315,8149,-1,-1,0
-11.40,6.40,-2.21,889,-321,8140,-1,-1,0
-11.40,6.40,-2.21,891,-329,8130,0,-1,0
-11.40,6.40,-2.21,887,-324,8132,0,-1,-1
-11.40,6.40,-2.20,890,-311,8137,0,-1,0
-11.40,6.40,-2.20,894,-309,8142,0,-1,-1
-11.40,6.41,-2.19,898,-302,8142,0,-1,0
-11.40,6.40,-2.20,884,-311,8147,-1,-1,0
-11.40,6.40,-2.20,884,-323,8151,-1,-1,0
-11.40,6.40,-2.21,882,-334,8144,0,-1,-1
-11.40,6.40,-2.20,898,-328,8150,0,-1,0
-11.40,6.41,-2.19,896,-318,8143,0,-1,-1
-11.40,6.41,-2.18,898,-303,8142,0,-1,-1
-11.40,6.41,-2.18,895,-303,8147,0,-1,0
-11.40,6.41,-2.18,894,-306,8148,0,-1,0
-11.40,6.41,-2.18,894,-314,8142,0,-1,-1
-11.40,6.40,-2.18,887,-318,8150,0,-1,0
-11.40,6.40,-2.17,895,-318,8152,0,0,-1
-11.40,6.40,-2.16,889,-320,8153,0,-1,0
-11.40,6.40,-2.15,895,-307,8153,0,-1,0
-11.41,6.40,-2.14,897,-301,8148,0,0,0
-11.41,6.40,-2.13,888,-300,8156,0,0,0
-11.41,6.39,-2.13,890,-301,8155,0,0,0
-11.41,6.39,-2.13,880,-306,8148,0,0,-1
-11.41,6.38,-2.13,877,-303,8146,0,-1,0
-11.41,6.38,-2.13,883,-302,8155,0,-1,0
-11.41,6.38,-2.13,889,-304,8141,-1,-1,0
-11.41,6.38,-2.13,892,-305,8132,-1,-1,0
-11.41,6.38,-2.13,887,-308,8137,0,0,-1
-11.41,6.38,-2.13,885,-311,8145,0,0,-1
-11.41,6.38,-2.13,896,-305,8141,-1,0,-1
-11.41,6.37,-2.12,891,-301,8139,-1,0,-1
-11.41,6.37,-2.13,880,-311,8142,-1,-1,-1
-11.41,6.37,-2.13,883,-325,8147,0,-1,0
-11.41,6.37,-2.13,881,-322,8138,0,-1,-1
-11.41,6.36,-2.12,879,-314,8137,0,-1,0
-11.41,6.36,-2.12,879,-302,8144,0,-1,0
-11.41,6.36,-2.11,879,-294,8150,0,0,0
-11.41,6.35,-2.12,873,-296,8153,-1,0,0
-11.41,6.35,-2.12,868,-306,8133,-1,-1,0
-11.41,6.34,-2.13,869,-319,8133,-1,0,0
-11.41,6.34,-2.13,873,-326,8138,0,-1,-1
-11.41,6.33,-2.13,878,-321,8141,0,0,-1
-11.41,6.33,-2.12,878,-301,8138,0,0,-1
-11.41,6.33,-2.12,881,-293,8142,-1,0,-1
-11.41,6.32,-2.12,880,-300,8145,-1,0,0
-11.42,6.31,-2.12,876,-301,8152,-1,0,0
-11.42,6.31,-2.13,881,-308,8153,-1,-1,0
-11.42,6.31,-2.13,888,-314,8152,0,0,0
-11.42,6.30,-2.13,881,-316,8143,0,0,0
-11.42,6.29,-2.12,881,-304,8143,0,0,0
-11.42,6.29,-2.12,885,-296,8142,0,0,0
-11.42,6.29,-2.12,881,-294,8136,0,0,0
-11.43,6.29,-2.12,871,-294,8140,-1,0,0
-11.43,6.28,-2.12,878,-293,8140,-1,0,0
-11.43,6.28,-2.12,883,-301,8149,0,0,-1
-11.43,6.28,-2.12,889,-308,8149,-1,0,0
-11.43,6.27,-2.12,884,-310,8151,-1,0,0
-11.43,6.27,-2.12,880,-313,8144,0,0,0
-11.43,6.26,-2.12,875,-306,8143,0,0,0
-11.43,6.26,-2.12,876,-297,8147,-1,0,-1
-11.43,6.26,-2.12,875,-292,8150,-1,0,0
-11.42,6.26,-2.12,864,-290,8156,-1,0,-1
-11.42,6.25,-2.12,866,-294,8154,-1,0,0
-11.42,6.25,-2.12,858,-301,8154,-1,-1,0
-11.43,6.25,-2.12,864,-311,8147,0,-1,0
-11.43,6.26,-2.13,866,-321,8139,0,-1,-1
-11.42,6.26,-2.12,877,-315,8138,0,-1,-1
-11.42,6.26,-2.11,876,-306,8147,0,-1,-1
-11.42,6.26,-2.11,867,-296,8153,0,-1,-1
-11.42,6.26,-2.11,874,-298,8156,0,-1,0
-11.42,6.27,-2.11,869,-298,8149,0,-1,-1
-11.42,6.27,-2.11,863,-302,8144,0,-1,0
-11.42,6.27,-2.11,871,-308,8141,0,-1,0
-11.42,6.27,-2.10,876,-302,8145,0,-1,0
-11.42,6.27,-2.09,875,-295,8142,0,-1,0
-11.42,6.27,-2.09,869,-292,8145,0,-1,-1
-11.42,6.27,-2.09,861,-299,8142,0,-1,0
-11.43,6.27,-2.09,861,-288,8139,-1,-1,0
-11.43,6.27,-2.09,862,-294,8132,-1,-1,0
-11.43,6.28,-2.10,863,-307,8142,-1,-1,0
-11.43,6.29,-2.10,865,-305,8142,-1,-1,0
-11.43,6.29,-2.10,878,-307,8133,-1,-1,-1
-11.43,6.29,-2.10,883,-317,8128,0,-1,0
-11.43,6.30,-2.10,883,-304,8130,0,-1,-1
-11.43,6.30,-2.10,881,-301,8141,0,-1,0
-11.43,6.31,-2.10,882,-313,8154,-1,-1,0
-11.43,6.32,-2.10,879,-313,8153,0,-1,0
-11.44,6.32,-2.10,877,-316,8145,0,-1,0
-11.44,6.32,-2.09,882,-314,8142,0,-1,0
-11.44,6.32,-2.09,883,-305,8148,0,-1,0
-11.44,6.33,-2.09,884,-293,8141,0,-1,0
-11.44,6.33,-2.08,880,-290,8141,-1,-1,0
-11.44,6.33,-2.09,872,-295,8151,-1,-1,0
-11.44,6.34,-2.08,873,-299,8145,0,-1,0
-11.44,6.34,-2.08,876,-303,8141,0,-1,-1
-11.44,6.35,-2.08,883,-309,8130,0,-1,0
-11.44,6.35,-2.08,882,-304,8135,0,-1,-1
-11.44,6.35,-2.08,887,-297,8144,-1,-1,0
-11.44,6.35,-2.08,889,-293,8148,-1,-1,0
-11.44,6.36,-2.08,892,-300,8146,-1,-1,-1
-11.45,6.36,-2.08,885,-298,8142,0,-1,0
-11.45,6.36,-2.08,881,-299,8145,0,-1,0
-11.45,6.37,-2.08,884,-302,8140,0,-1,-1
-11.45,6.37,-2.08,885,-304,8135,0,-1,-1
-11.45,6.37,-2.08,897,-297,8139,0,-1,0
-11.45,6.37,-2.08,891,-297,8147,0,-1,0
-11.45,6.38,-2.08,889,-295,8154,-1,-1,-1
-11.45,6.38,-2.08,892,-300,8152,0,-1,0
-11.45,6.38,-2.07,891,-300,8150,0,-1,-1
-11.45,6.39,-2.07,896,-290,8144,0,-1,0
-11.45,6.40,-2.07,899,-292,8145,0,-1,0
-11.45,6.40,-2.07,889,-290,8148,-1,-1,0
-11.45,6.40,-2.07,891,-293,8148,-1,-1,0
-11.45,6.40,-2.07,884,-297,8144,-1,-1,0
-11.45,6.40,-2.08,886,-305,8153,-1,-1,0
-11.46,6.41,-2.08,896,-313,8145,0,-1,0
-11.46,6.41,-2.08,902,-308,8143,0,-1,0
-11.46,6.42,-2.08,898,-294,8143,0,-1,0
-11.46,6.42,-2.07,899,-291,8134,0,-1,-1
-11.46,6.42,-2.07,896,-288,8143,0,-1,-1
-11.46,6.41,-2.07,893,-291,8152,-1,-1,0
-11.46,6.42,-2.07,892,-300,8148,0,-1,-1
-11.46,6.42,-2.07,892,-311,8142,0,-1,0
-11.46,6.42,-2.06,888,-310,8151,0,-1,0
-11.46,6.42,-2.06,895,-306,8141,0,-1,0
-11.46,6.43,-2.06,892,-304,8140,0,-1,0
-11.46,6.43,-2.06,892,-292,8141,0,-1,0
-11.46,6.43,-2.05,893,-289,8138,0,-1,0
-11.46,6.43,-2.05,886,-290,8140,0,-1,0
-11.47,6.43,-2.05,884,-297,8141,0,-1,0
-11.47,6.43,-2.05,886,-303,8147,0,-1,0
-11.47,6.44,-2.05,891,-302,8124,0,-1,0
-11.47,6.44,-2.05,889,-302,8125,-1,-1,0
-11.48,6.44,-2.05,893,-303,8129,0,-1,0
-11.48,6.44,-2.05,894,-298,8139,0,-1,0
-11.48,6.44,-2.04,896,-294,8144,0,-1,0
-11.48,6.44,-2.04,885,-280,8172,-1,-1,0
-11.49,6.44,-2.05,899,-331,8144,0,-1,0
-11.49,6.44,-2.03,884,-276,8153,0,-1,0
-11.50,6.46,-2.03,902,-277,8143,-1,-1,0
-11.50,6.45,-2.02,900,-307,8138,0,-1,0
-11.51,6.45,-2.02,892,-283,8149,0,-1,0
-11.51,6.45,-2.01,889,-284,8157,-1,-1,0
-11.51,6.46,-2.02,897,-301,8154,-1,-1,0
-11.51,6.46,-2.02,897,-301,8153,0,-1,0
-11.51,6.46,-2.01,897,-301,8143,0,-1,-1
-11.51,6.47,-1.99,901,-284,8139,0,-1,0
-11.52,6.47,-1.99,905,-269,8138,-1,-1,0
-11.52,6.47,-1.99,912,-276,8138,-1,-1,0
-11.53,6.47,-1.99,908,-287,8146,-1,-1,0
-11.53,6.47,-1.99,894,-294,8147,0,-1,0
-11.53,6.47,-1.99,892,-289,8148,0,-1,0
-11.53,6.47,-1.99,896,-288,8157,0,-1,0
-11.53,6.47,-1.99,899,-294,8147,0,-1,0
-11.53,6.47,-1.98,902,-287,8142,0,-1,-1
-11.53,6.47,-1.98,902,-280,8153,0,0,-1
-11.53,6.47,-1.98,901,-284,8153,0,0,0
-11.53,6.46,-1.98,903,-290,8144,0,0,-1
-11.53,6.46,-1.98,903,-285,8146,-1,0,-1
-11.53,6.45,-1.98,895,-296,8146,-1,-1,0
-11.53,6.45,-1.98,903,-296,8142,0,-1,-1
-11.53,6.45,-1.98,902,-285,8140,0,0,-1
-11.53,6.45,-1.98,900,-276,8139,-1,0,-1
-11.53,6.45,-1.98,887,-269,8145,-1,0,0
-11.53,6.44,-1.98,890,-277,8156,-1,0,0
-11.53,6.43,-1.98,887,-286,8152,-1,0,-1
-11.53,6.43,-1.99,890,-295,8154,-1,0,-1
-11.54,6.43,-2.00,898,-300,8150,-1,-1,-1
-11.54,6.42,-2.00,898,-301,8145,0,0,0
-11.53,6.42,-2.00,897,-298,8140,0,0,-1
-11.53,6.42,-1.99,903,-285,8141,0,0,-1
-11.53,6.42,-1.99,911,-281,8140,-1,0,-1
-11.53,6.41,-1.99,902,-282,8146,-1,0,-1
-11.53,6.41,-1.99,899,-283,8143,-1,-1,0
-11.53,6.41,-2.00,895,-293,8147,-1,-1,0
-11.53,6.41,-2.00,898,-300,8140,0,0,-1
-11.53,6.41,-2.00,903,-292,8141,0,0,-1
-11.53,6.40,-2.00,901,-287,8150,0,0,-1
-11.53,6.40,-1.99,904,-282,8141,0,0,0
-11.53,6.40,-1.99,900,-275,8144,-1,0,0
-11.53,6.40,-2.00,899,-280,8141,-1,0,-1
-11.53,6.40,-2.00,900,-279,8137,-1,-1,-1
-11.53,6.39,-2.01,899,-275,8141,-1,-1,0
-11.53,6.39,-2.01,903,-280,8145,-1,0,0
-11.53,6.39,-2.01,903,-282,8148,-1,0,-1
-11.53,6.38,-2.01,899,-289,8140,-1,0,-1
-11.53,6.38,-2.01,898,-285,8141,0,0,-1
-11.52,6.37,-2.00,901,-283,8150,0,0,-1
-11.52,6.37,-2.01,903,-274,8155,-1,0,0
-11.52,6.37,-2.02,905,-279,8153,-1,0,0
-11.52,6.36,-2.02,902,-290,8156,-1,0,-1
-11.52,6.36,-2.02,905,-297,8161,0,-1,-1
-11.52,6.36,-2.02,904,-289,8143,0,0,-1
-11.52,6.37,-2.01,897,-284,8146,0,0,-1
-11.51,6.36,-2.00,895,-271,8142,0,0,-1
-11.51,6.36,-2.00,901,-265,8144,-1,0,-1
-11.51,6.36,-2.00,898,-274,8138,-1,0,0
-11.51,6.35,-2.01,895,-280,8145,-1,0,-1
-11.51,6.35,-2.01,892,-287,8153,-1,0,-1
-11.51,6.35,-2.01,895,-285,8143,0,0,-1
-11.51,6.35,-2.01,903,-276,8143,-1,0,-1
-11.51,6.35,-2.01,899,-276,8144,-1,0,-1
-11.51,6.34,-2.01,896,-277,8136,-1,0,0
-11.51,6.34,-2.01,891,-285,8140,-1,0,-1
-11.51,6.34,-2.02,891,-292,8145,-1,0,-1
-11.51,6.34,-2.02,897,-298,8141,-1,0,-1
-11.51,6.34,-2.02,896,-293,8147,0,0,-1
-11.51,6.33,-2.02,893,-285,8153,0,-1,-1
-11.51,6.33,-2.02,892,-280,8149,-1,0,-1
-11.51,6.33,-2.02,899,-274,8148,-1,0,-1
-11.50,6.33,-2.02,901,-275,8151,-1,0,-1
-11.50,6.33,-2.02,899,-280,8145,-1,0,-1
-11.50,6.33,-2.02,902,-277,8138,-1,0,0
-11.50,6.33,-2.02,899,-287,8138,-1,-1,-1
-11.51,6.32,-2.02,895,-289,8144,0,0,-1
-11.51,6.32,-2.02,896,-282,8146,0,0,-1
-11.50,6.32,-2.02,903,-282,8144,-1,-1,-1
-11.50,6.32,-2.02,906,-269,8132,-1,0,0
-11.50,6.32,-2.03,906,-275,8149,-1,0,-1
-11.50,6.32,-2.03,901,-281,8139,-1,0,0
-11.50,6.32,-2.03,897,-296,8148,-1,-1,-1
-11.50,6.32,-2.03,897,-295,8153,0,-1,-1
-11.50,6.32,-2.03,900,-288,8143,0,0,-1
-11.50,6.32,-2.03,904,-283,8145,0,0,-1
-11.50,6.32,-2.02,911,-278,8144,0,0,-1
-11.50,6.32,-2.02,912,-272,8144,-1,0,-1
-11.50,6.32,-2.02,904,-272,8152,-1,0,-1
-11.50,6.32,-2.03,901,-290,8157,-1,0,-1
-11.50,6.31,-2.03,888,-298,8153,0,0,-1
-11.50,6.31,-2.03,891,-299,8149,0,0,-1
-11.50,6.31,-2.02,894,-286,8147,0,0,-1
-11.50,6.31,-2.02,909,-278,8144,0,0,-1
-11.50,6.31,-2.02,895,-268,8141,-1,0,-1
-11.50,6.30,-2.02,892,-272,8139,-1,0,-1
-11.50,6.30,-2.02,890,-285,8129,-1,0,-1
-11.50,6.30,-2.02,887,-284,8133,0,-1,-1
-11.50,6.30,-2.02,884,-284,8133,-1,-1,-1
-11.50,6.30,-2.03,892,-284,8150,-1,0,0
-11.50,6.30,-2.03,901,-286,8150,-1,0,-1
-11.50,6.30,-2.03,907,-291,8139,-1,0,-1
-11.50,6.30,-2.04,904,-294,8149,-1,0,-1
-11.50,6.30,-2.04,901,-286,8147,-1,0,-1
-11.50,6.29,-2.04,902,-281,8155,-1,0,-1
-11.50,6.29,-2.04,905,-281,8154,-1,0,0
-11.50,6.29,-2.04,903,-292,8147,-1,0,-1
-11.50,6.29,-2.04,906,-294,8139,0,0,-1
-11.50,6.29,-2.04,901,-289,8133,0,0,-1
-11.49,6.29,-2.03,900,-277,8137,0,0,-1
-11.49,6.29,-2.03,908,-266,8144,-1,0,0
-11.49,6.29,-2.03,898,-268,8144,-1,-1,-1
-11.50,6.29,-2.03,896,-275,8136,-1,0,0
-11.50,6.29,-2.04,895,-289,8145,-1,-1,-1
-11.50,6.29,-2.04,899,-290,8139,0,0,-1
-11.49,6.29,-2.04,901,-281,8139,0,0,-1
-11.49,6.29,-2.03,900,-276,8148,-1,-1,0
-11.49,6.29,-2.03,898,-276,8146,-1,0,-1
-11.49,6.29,-2.04,902,-277,8140,-1,0,0
-11.49,6.29,-2.04,903,-283,8153,-1,0,-1
-11.49,6.29,-2.04,899,-287,8145,-1,0,-1
-11.49,6.29,-2.04,900,-285,8143,0,0,0
-11.49,6.29,-2.04,897,-275,8149,0,0,0
-11.49,6.29,-2.04,905,-272,8134,0,0,-1
-11.49,6.29,-2.03,905,-272,8136,-1,-1,-1
-11.49,6.29,-2.03,902,-273,8140,-1,0,0
-11.49,6.29,-2.04,903,-278,8142,-1,0,-1
-11.49,6.29,-2.04,905,-285,8136,0,0,0
-11.49,6.29,-2.04,906,-287,8139,-1,0,-1
-11.49,6.29,-2.04,911,-285,8147,-1,0,-1
-11.49,6.29,-2.04,908,-289,8149,0,-1,0
-11.49,6.29,-2.04,909,-290,8136,0,-1,-1
-11.49,6.29,-2.03,902,-272,8144,-1,0,-1
-11.49,6.29,-2.03,907,-266,8145,-1,0,-1
-11.49,6.29,-2.04,901,-272,8155,-1,0,-1
-11.49,6.29,-2.04,892,-278,8147,-1,-1,0
-11.49,6.29,-2.04,896,-285,8155,0,-1,-1
-11.49,6.29,-2.04,903,-285,8157,-1,-1,-1
-11.49,6.29,-2.04,918,-286,8146,0,0,-1
-11.48,6.29,-2.03,915,-283,8135,0,0,-1
-11.48,6.29,-2.03,911,-277,8150,-1,0,-1
-11.48,6.29,-2.03,901,-270,8152,-1,0,-1
-11.48,6.29,-2.03,892,-276,8156,-1,0,-1
-11.48,6.29,-2.03,890,-279,8152,-1,-1,-1
-11.48,6.29,-2.03,898,-275,8142,0,0,-1
-11.47,6.29,-2.03,897,-283,8137,0,0,-1
-11.47,6.29,-2.03,902,-284,8127,0,0,-1
-11.47,6.28,-2.03,900,-284,8130,0,0,-1
-11.48,6.28,-2.02,895,-274,8134,-1,0,-1
-11.47,6.28,-2.03,896,-275,8140,-1,0,0
-11.47,6.28,-2.03,894,-274,8139,-1,0,0
-11.48,6.28,-2.03,899,-277,8143,-1,0,0
-11.48,6.28,-2.03,896,-284,8149,-1,-1,0
-11.48,6.28,-2.04,902,-289,8143,-1,0,-1
-11.48,6.28,-2.04,902,-293,8143,0,0,-1
-11.48,6.27,-2.04,896,-286,8144,0,0,-1
-11.48,6.27,-2.03,901,-279,8150,-1,0,-1
-11.47,6.27,-2.04,904,-278,8159,-1,0,0
-11.48,6.27,-2.04,905,-279,8158,-1,0,0
-11.48,6.27,-2.05,903,-287,8157,-1,0,0
-11.48,6.27,-2.04,901,-290,8151,0,-1,-1
-11.47,6.27,-2.04,906,-283,8145,0,0,-1
-11.47,6.27,-2.03,906,-273,8139,-1,0,-1
-11.47,6.27,-2.03,909,-271,8129,-1,-1,-1
-11.47,6.27,-2.03,903,-273,8135,-1,0,0
-11.47,6.27,-2.03,898,-285,8148,-1,-1,-1
-11.47,6.27,-2.04,901,-292,8151,0,0,-1
-11.47,6.27,-2.03,896,-283,8152,0,0,-1
-11.47,6.27,-2.03,900,-281,8147,-1,0,-1
-11.47,6.27,-2.03,911,-271,8141,-1,0,0
-11.47,6.27,-2.03,913,-272,8139,-1,0,-1
-11.47,6.27,-2.04,912,-278,8134,-1,0,0
-11.47,6.27,-2.04,912,-279,8127,-1,0,-1
-11.47,6.27,-2.05,907,-286,8134,-1,0,-1
-11.47,6.27,-2.04,913,-285,8135,0,0,-1
-11.47,6.27,-2.04,909,-275,8139,0,-1,-1
-11.47,6.27,-2.04,907,-275,8134,-1,0,-1
-11.47,6.27,-2.04,903,-280,8134,-1,0,-1
-11.47,6.27,-2.04,904,-287,8135,0,0,-1
-11.47,6.27,-2.04,902,-279,8137,0,0,0
-11.47,6.27,-2.04,907,-277,8130,-1,0,-1
-11.47,6.28,-2.04,911,-274,8130,-1,-1,-1
-11.47,6.28,-2.04,909,-273,8138,-1,0,0
-11.47,6.28,-2.05,900,-283,8143,-1,0,0
-11.47,6.28,-2.05,900,-292,8147,-1,-1,-1
-11.47,6.28,-2.05,907,-291,8149,0,-1,-1
-11.47,6.28,-2.04,909,-287,8140,0,-1,-1
-11.47,6.28,-2.04,916,-284,8138,0,0,-1
-11.46,6.28,-2.04,915,-276,8130,-1,0,-1
-11.46,6.28,-2.04,901,-274,8133,-1,0,-1
-11.46,6.28,-2.04,903,-278,8139,-1,0,-1
-11.46,6.28,-2.04,897,-287,8148,-1,0,0
-11.46,6.27,-2.05,892,-291,8147,-1,0,-1
-11.46,6.27,-2.05,893,-284,8150,-1,0,-1
-11.46,6.27,-2.05,898,-283,8145,0,-1,-1
-11.46,6.27,-2.04,906,-271,8140,0,0,-1
-11.46,6.27,-2.04,899,-270,8138,-1,0,0
-11.46,6.27,-2.04,899,-278,8138,-1,0,0
-11.46,6.27,-2.04,891,-284,8140,0,0,-1
-11.46,6.27,-2.04,896,-282,8146,-1,0,-1
-11.46,6.27,-2.04,895,-288,8150,-1,0,-1
-11.46,6.26,-2.05,898,-284,8147,-1,0,0
-11.46,6.26,-2.05,895,-285,8144,-1,0,-1
-11.46,6.26,-2.05,903,-283,8140,-1,0,-1
-11.46,6.26,-2.05,902,-281,8139,0,0,-1
-11.46,6.27,-2.04,901,-272,8141,-1,0,-1
-11.46,6.27,-2.04,901,-269,8140,-1,0,0
-11.46,6.26,-2.05,905,-281,8140,-1,0,-1
-11.46,6.26,-2.05,900,-287,8148,0,0,0
-11.46,6.26,-2.05,898,-291,8146,0,0,-1
-11.46,6.26,-2.05,903,-280,8143,0,0,-1
-11.46,6.26,-2.05,902,-281,8150,-1,0,-1
-11.46,6.27,-2.04,906,-275,8140,-1,0,-1
-11.46,6.26,-2.05,908,-281,8151,-1,0,0
-11.45,6.26,-2.05,907,-284,8153,-1,0,-1
-11.45,6.26,-2.05,908,-289,8145,-1,0,-1
-11.45,6.26,-2.05,904,-289,8143,0,0,-1
-11.45,6.26,-2.05,898,-287,8137,0,-1,-1
-11.45,6.27,-2.04,906,-279,8136,0,-1,-1
-11.45,6.27,-2.04,912,-273,8136,-1,0,0
-11.45,6.26,-2.05,910,-279,8136,-1,0,-1
-11.45,6.26,-2.05,908,-282,8133,-1,0,0
-11.45,6.26,-2.05,897,-293,8147,-1,0,-1
-11.45,6.26,-2.05,901,-287,8150,0,0,-1
-11.45,6.26,-2.05,897,-280,8148,-1,0,-1
-11.45,6.26,-2.05,896,-280,8141,-1,0,0
-11.45,6.26,-2.05,902,-278,8146,-1,0,-1
-11.45,6.26,-2.05,902,-276,8148,-1,0,0
-11.45,6.26,-2.05,910,-287,8145,-1,0,0
-11.45,6.26,-2.05,907,-285,8139,0,0,-1
-11.45,6.26,-2.05,908,-281,8136,0,0,-1
-11.45,6.27,-2.05,917,-269,8138,0,0,-1
-11.45,6.27,-2.04,912,-268,8137,-1,-1,-1
-11.45,6.27,-2.05,906,-268,8132,-1,-1,-1
-11.45,6.27,-2.05,896,-280,8143,-1,0,0
-11.45,6.27,-2.05,894,-289,8150,-1,0,0
-11.45,6.27,-2.06,897,-296,8149,0,-1,-1
-11.45,6.27,-2.05,900,-293,8147,0,0,-1
-11.45,6.27,-2.05,907,-282,8140,0,0,-1
-11.45,6.27,-2.04,913,-268,8132,0,0,-1
-11.45,6.27,-2.03,914,-259,8133,-1,0,-1
-11.45,6.27,-2.03,912,-264,8148,-1,0,0
-11.45,6.27,-2.04,904,-272,8146,-1,0,-1
-11.45,6.27,-2.04,899,-283,8144,-1,-1,0
-11.45,6.28,-2.04,904,-287,8138,0,-1,-1
-11.44,6.28,-2.03,911,-277,8144,0,0,0
-11.45,6.28,-2.03,908,-277,8151,-1,0,0
-11.45,6.28,-2.03,912,-273,8144,0,0,0
-11.45,6.28,-2.03,908,-279,8156,-1,0,0
-11.45,6.29,-2.03,912,-279,8148,-1,-1,-1
-11.44,6.29,-2.03,911,-275,8146,-1,0,-1
-11.44,6.28,-2.03,900,-276,8153,-1,0,0
-11.44,6.29,-2.03,906,-286,8151,-1,-1,0
-11.45,6.29,-2.03,909,-287,8151,-1,0,0
-11.45,6.29,-2.04,915,-286,8149,-1,0,-1
-11.45,6.28,-2.03,912,-284,8131,0,0,-1
-11.44,6.28,-2.03,912,-272,8133,0,0,-1
-11.44,6.28,-2.03,909,-269,8139,-1,0,0
-11.44,6.28,-2.03,902,-274,8146,-1,0,-1
-11.44,6.28,-2.04,904,-281,8148,-1,-1,-1
-11.44,6.28,-2.04,902,-293,8147,0,0,-1
-11.44,6.28,-2.04,902,-290,8132,0,0,-1
-11.44,6.28,-2.03,908,-278,8133,0,0,-1
-11.44,6.27,-2.02,908,-271,8142,0,0,-1
-11.43,6.27,-2.02,902,-268,8151,-1,0,-1
-11.43,6.27,-2.02,903,-275,8147,-1,0,-1
-11.43,6.27,-2.03,904,-283,8140,-1,0,-1
-11.43,6.27,-2.02,899,-279,8143,0,0,-1
-11.43,6.27,-2.02,909,-283,8139,0,0,0
-11.43,6.27,-2.02,911,-273,8131,-1,0,-1
-11.43,6.27,-2.02,912,-275,8145,-1,0,-1
-11.43,6.27,-2.02,909,-275,8136,-1,0,0
-11.43,6.27,-2.03,910,-275,8137,-1,0,-1
-11.43,6.27,-2.03,902,-276,8140,-1,-1,-1
-11.43,6.27,-2.03,897,-286,8140,0,-1,0
-11.43,6.28,-2.03,909,-286,8145,0,0,0
-11.44,6.27,-2.03,912,-278,8149,-1,0,0
-11.44,6.27,-2.03,921,-268,8142,-1,0,-1
-11.44,6.26,-2.04,901,-265,8153,-1,0,-1
-11.44,6.25,-2.04,862,-272,8155,-1,-1,0
-11.44,6.26,-2.06,876,-313,8149,-1,-1,0
-11.44,6.28,-2.06,892,-311,8137,0,-1,-1
-11.44,6.29,-2.05,919,-279,8142,0,-1,-1
-11.43,6.29,-2.03,928,-255,8137,-1,0,-1
-11.43,6.29,-2.04,918,-260,8145,-1,0,0
-11.43,6.28,-2.05,902,-276,8147,-1,0,0
-11.43,6.28,-2.05,902,-292,8150,-1,0,-1
-11.43,6.28,-2.05,897,-283,8149,0,0,-1
-11.43,6.28,-2.05,902,-277,8153,-1,-1,0
-11.43,6.29,-2.05,904,-285,8144,-1,-1,-1
-11.43,6.29,-2.05,915,-285,8147,0,0,-1
-11.43,6.29,-2.05,917,-279,8146,-1,0,-1
-11.43,6.29,-2.05,916,-280,8149,-1,0,-1
-11.43,6.29,-2.05,913,-283,8144,0,0,-1
-11.43,6.28,-2.04,901,-278,8155,0,0,-1
-11.43,6.28,-2.04,899,-272,8154,-1,-1,-1
-11.43,6.28,-2.04,904,-274,8146,-1,-1,-1
-11.43,6.29,-2.04,910,-274,8140,-1,0,-1
-11.43,6.29,-2.04,907,-278,8139,0,0,0
-11.43,6.28,-2.03,904,-274,8136,0,-1,0
-11.43,6.29,-2.03,908,-273,8143,0,-1,-1
-11.43,6.28,-2.02,900,-270,8142,0,0,0
-11.43,6.28,-2.03,899,-269,8136,-1,0,-1
-11.43,6.28,-2.03,903,-269,8142,-1,0,0
-11.43,6.28,-2.04,905,-281,8148,-1,-1,-1
-11.43,6.29,-2.04,916,-291,8141,-1,-1,-1
-11.43,6.29,-2.04,916,-289,8125,0,0,-1
-11.43,6.28,-2.04,912,-281,8130,0,0,-1
-11.42,6.28,-2.03,907,-263,8152,-1,0,-1
-11.42,6.28,-2.03,905,-265,8150,-1,0,-1
-11.42,6.27,-2.04,904,-272,8157,-1,0,-1
-11.42,6.27,-2.04,905,-283,8156,-1,0,-1
-11.42,6.27,-2.04,907,-291,8153,0,0,-1
-11.42,6.27,-2.04,910,-281,8149,0,0,-1
-11.41,6.27,-2.03,905,-279,8147,0,0,-1
-11.41,6.27,-2.02,906,-272,8150,0,0,0
-11.41,6.27,-2.02,905,-268,8144,-1,0,0
-11.41,6.27,-2.03,906,-278,8141,-1,0,0
-11.41,6.27,-2.03,904,-290,8139,-1,0,-1
-11.41,6.27,-2.03,903,-291,8137,0,0,-1
-11.41,6.26,-2.03,906,-284,8144,0,0,-1
-11.41,6.26,-2.03,908,-272,8134,-1,0,-1
-11.40,6.27,-2.02,913,-261,8140,-1,0,-1
-11.40,6.26,-2.03,909,-269,8152,-1,0,0
-11.40,6.26,-2.04,906,-282,8150,-1,0,-1
-11.40,6.26,-2.04,904,-286,8145,-1,0,-1
-11.40,6.26,-2.04,901,-288,8146,0,0,-1
-11.40,6.26,-2.03,910,-273,8132,0,0,-1
-11.40,6.25,-2.03,904,-264,8135,-1,0,-1
-11.40,6.25,-2.03,904,-269,8141,-1,0,-1
-11.40,6.25,-2.03,897,-274,8135,-1,0,-1
-11.40,6.25,-2.03,903,-280,8146,0,0,-1
-11.40,6.25,-2.03,902,-275,8138,0,0,-1
-11.40,6.25,-2.02,894,-271,8153,0,0,-1
-11.40,6.25,-2.02,902,-269,8139,0,0,-1
-11.40,6.25,-2.02,898,-265,8140,-1,0,-1
-11.40,6.24,-2.02,901,-269,8143,-1,0,-1
-11.40,6.24,-2.02,894,-273,8161,-1,0,0
-11.40,6.24,-2.03,888,-287,8151,-1,0,-1
-11.40,6.24,-2.03,886,-292,8142,-1,-1,-1
-11.40,6.24,-2.03,910,-294,8138,0,0,-1
-11.39,6.24,-2.03,910,-282,8130,-1,0,-1
-11.40,6.24,-2.03,913,-286,8125,0,0,0
-11.40,6.23,-2.03,895,-267,8144,-1,0,-1
-11.39,6.23,-2.03,905,-281,8143,-1,0,-1
-11.39,6.22,-2.04,890,-289,8149,-1,0,-1
-11.39,6.22,-2.04,893,-295,8137,0,-1,-1
-11.39,6.22,-2.04,897,-284,8132,-1,0,-1
-11.39,6.22,-2.04,897,-282,8141,0,0,-1
-11.39,6.22,-2.03,903,-275,8143,0,0,-1
-11.38,6.22,-2.03,895,-271,8152,-1,0,-1
-11.38,6.22,-2.03,889,-274,8144,-1,0,-1
-11.38,6.22,-2.03,892,-274,8141,0,0,-1
-11.38,6.22,-2.03,893,-267,8145,-1,0,0
-11.38,6.22,-2.04,901,-278,8145,-1,-1,-1
-11.38,6.22,-2.04,902,-289,8132,-1,0,0
-11.38,6.22,-2.04,904,-290,8146,-1,0,-1
-11.38,6.22,-2.04,904,-286,8137,0,0,-1
-11.38,6.22,-2.04,898,-272,8143,0,0,-1
-11.38,6.22,-2.04,895,-272,8145,-1,0,-1
-11.38,6.22,-2.04,898,-270,8148,-1,0,-1
-11.38,6.22,-2.04,900,-277,8144,-1,0,0
-11.38,6.21,-2.04,897,-293,8138,-1,0,0
-11.38,6.21,-2.04,902,-284,8140,0,0,-1
-11.38,6.21,-2.04,898,-271,8143,0,0,-1
-11.37,6.20,-2.03,892,-269,8150,-1,0,-1
-11.38,6.20,-2.04,885,-264,8152,-1,0,0
-11.37,6.20,-2.04,888,-276,8136,-1,0,-1
-11.38,6.19,-2.05,895,-287,8148,-1,0,0
-11.38,6.19,-2.05,892,-287,8144,0,0,-1
-11.38,6.19,-2.05,894,-284,8147,0,0,-1
-11.37,6.19,-2.04,901,-278,8146,0,0,-1
-11.37,6.19,-2.04,900,-273,8147,-1,0,-1
-11.37,6.19,-2.05,903,-272,8142,-1,0,0
-11.37,6.18,-2.05,892,-283,8150,-1,0,0
-11.37,6.18,-2.06,884,-285,8153,-1,0,0
-11.37,6.17,-2.06,898,-287,8161,-1,0,-1
-11.37,6.17,-2.06,895,-285,8158,-1,0,0
-11.37,6.16,-2.07,889,-283,8155,-1,0,0
-11.37,6.16,-2.07,888,-291,8137,-1,0,0
-11.38,6.15,-2.08,882,-302,8142,0,0,-1
-11.37,6.15,-2.07,883,-290,8145,0,0,-1
-11.37,6.14,-2.07,888,-280,8145,-1,0,-1
-11.37,6.14,-2.07,884,-274,8147,-1,0,0
-11.37,6.14,-2.08,886,-277,8137,-1,0,0
-11.37,6.13,-2.08,884,-281,8141,-1,0,0
-11.38,6.13,-2.09,876,-296,8142,-1,0,0
-11.38,6.13,-2.09,885,-305,8142,0,0,0
-11.38,6.12,-2.09,889,-297,8135,0,0,0
-11.38,6.11,-2.09,885,-289,8137,-1,0,0
-11.38,6.10,-2.08,890,-275,8149,-1,0,-1
-11.37,6.09,-2.09,885,-273,8155,-1,0,-1
