Yaw,Pitch,Roll,AX,AY,AZ,GX,GY,GZ
-162.75,4.14,-27.32,601,-3774,7313,-1,-1,0
-162.76,4.15,-27.33,595,-3784,7322,-1,-1,0
-162.76,4.15,-27.33,597,-3785,7339,-1,-1,0
-162.76,4.15,-27.33,593,-3784,7335,-1,-1,0
-162.76,4.16,-27.34,594,-3790,7318,-1,-1,0
-162.76,4.16,-27.34,602,-3787,7312,-1,-1,-1
-162.76,4.16,-27.34,612,-3786,7326,0,-1,0
-162.76,4.16,-27.34,610,-3789,7324,0,0,0
-162.76,4.16,-27.33,610,-3788,7325,0,0,0
-162.76,4.16,-27.33,603,-3783,7327,0,0,0
-162.76,4.16,-27.32,603,-3787,7333,0,-1,0
-162.76,4.17,-27.32,601,-3780,7332,-1,-1,0
-162.76,4.17,-27.32,595,-3783,7331,-1,-1,0
-162.76,4.17,-27.32,596,-3781,7327,-1,-1,0
-162.76,4.17,-27.33,603,-3781,7323,-1,-1,0
-162.76,4.17,-27.33,599,-3782,7316,-1,-1,0
-162.77,4.17,-27.34,596,-3796,7318,-1,-1,-1
-162.77,4.17,-27.34,594,-3801,7315,0,-1,0
-162.77,4.17,-27.33,604,-3794,7318,0,-1,-1
-162.76,4.18,-27.33,609,-3790,7322,0,0,-1
-162.77,4.17,-27.33,601,-3785,7338,0,0,0
-162.77,4.17,-27.33,600,-3783,7340,-1,0,0
-162.77,4.17,-27.33,590,-3777,7325,-1,0,0
-162.77,4.17,-27.33,584,-3781,7325,-1,-1,0
-162.78,4.17,-27.34,583,-3789,7328,-1,-1,0
-162.77,4.17,-27.34,588,-3792,7332,-1,-1,-1
-162.77,4.17,-27.34,588,-3794,7324,-1,-1,-1
-162.77,4.18,-27.34,601,-3793,7326,-1,-1,0
-162.77,4.18,-27.34,614,-3791,7317,0,0,-1
-162.77,4.18,-27.34,613,-3788,7315,0,-1,0
-162.77,4.18,-27.33,600,-3789,7321,0,0,0
-162.77,4.18,-27.33,603,-3783,7318,0,0,0
-162.77,4.17,-27.33,582,-3781,7329,-1,-1,0
-162.77,4.17,-27.34,582,-3786,7324,-1,-1,0
-162.77,4.18,-27.34,590,-3794,7333,-1,-1,-1
-162.77,4.18,-27.35,607,-3798,7320,-1,-1,-1
-162.77,4.19,-27.35,611,-3799,7322,0,-1,0
-162.78,4.19,-27.35,612,-3793,7315,0,0,0
-162.78,4.19,-27.34,602,-3790,7318,0,0,0
-162.77,4.19,-27.34,595,-3789,7328,0,0,-1
-162.78,4.19,-27.34,591,-3783,7333,-1,-1,-1
-162.78,4.19,-27.34,596,-3790,7338,-1,-1,0
-162.78,4.19,-27.35,606,-3784,7328,-1,-1,0
-162.78,4.19,-27.35,611,-3768,7319,-1,-1,0
-162.78,4.20,-27.35,610,-3780,7313,-1,0,0
-162.78,4.19,-27.36,608,-3796,7311,-1,0,0
-162.79,4.19,-27.37,608,-3803,7307,-1,0,0
-162.79,4.19,-27.37,609,-3801,7318,0,0,0
-162.79,4.19,-27.37,601,-3795,7326,-1,0,-1
-162.79,4.19,-27.37,595,-3800,7319,-1,-1,0
-162.79,4.19,-27.37,599,-3791,7317,-1,-1,0
-162.79,4.19,-27.37,601,-3783,7318,-1,-1,0
-162.79,4.19,-27.37,598,-3785,7318,-1,-1,0
-162.79,4.19,-27.37,600,-3791,7322,-1,-1,0
-162.79,4.19,-27.38,598,-3794,7321,-1,-1,-1
-162.79,4.19,-27.38,604,-3791,7326,-1,-1,-1
-162.79,4.20,-27.38,608,-3793,7314,-1,-1,-1
-162.79,4.20,-27.39,605,-3803,7317,-1,-1,0
-162.79,4.20,-27.39,604,-3804,7311,-1,-1,0
-162.80,4.20,-27.40,606,-3808,7316,0,-1,0
-162.80,4.20,-27.40,599,-3799,7322,0,-1,0
-162.80,4.20,-27.40,596,-3790,7322,-1,-1,-1
-162.80,4.20,-27.40,601,-3793,7322,-1,-1,-1
-162.80,4.20,-27.40,600,-3799,7311,-1,0,-1
-162.80,4.20,-27.40,599,-3800,7315,-1,-1,0
-162.80,4.20,-27.40,600,-3801,7316,-1,-1,0
-162.80,4.21,-27.40,604,-3793,7318,-1,-1,0
-162.80,4.22,-27.40,612,-3800,7324,-1,-1,0
-162.80,4.22,-27.40,619,-3792,7330,0,0,-1
-162.80,4.22,-27.40,623,-3789,7331,-1,0,0
-162.80,4.21,-27.40,619,-3787,7330,-1,0,0
-162.80,4.21,-27.41,604,-3785,7329,-1,0,0
-162.81,4.20,-27.42,593,-3788,7318,-1,-1,0
-162.82,4.20,-27.43,590,-3800,7311,-1,-1,0
-162.82,4.20,-27.43,595,-3810,7310,-1,-1,-1
-162.82,4.21,-27.44,604,-3811,7304,-1,-1,-1
-162.82,4.21,-27.44,604,-3806,7299,0,-1,-1
-162.81,4.22,-27.43,611,-3800,7298,0,0,0
-162.81,4.22,-27.42,615,-3798,7306,0,0,0
-162.81,4.21,-27.42,618,-3790,7322,0,0,0
-162.81,4.21,-27.41,616,-3778,7326,0,0,0
-162.81,4.20,-27.40,604,-3776,7321,-1,0,0
-162.82,4.20,-27.40,597,-3779,7328,-1,-1,0
-162.82,4.19,-27.41,596,-3785,7329,-1,0,0
-162.82,4.19,-27.41,597,-3792,7320,-1,0,0
-162.82,4.19,-27.41,597,-3800,7310,0,0,0
-162.82,4.19,-27.40,596,-3812,7306,0,0,-1
-162.82,4.19,-27.40,601,-3817,7307,0,0,-1
-162.82,4.20,-27.39,599,-3806,7318,0,0,-1
-162.81,4.19,-27.38,598,-3795,7324,0,0,-1
-162.81,4.20,-27.37,601,-3787,7327,0,-1,-1
-162.80,4.20,-27.37,608,-3783,7318,0,0,-1
-162.80,4.20,-27.36,611,-3780,7328,0,0,0
-162.80,4.20,-27.36,612,-3784,7331,0,0,0
-162.80,4.19,-27.35,608,-3789,7324,0,0,0
-162.80,4.19,-27.35,602,-3799,7318,0,0,-1
-162.80,4.19,-27.35,597,-3802,7340,0,-1,-1
-162.80,4.19,-27.35,595,-3805,7326,0,0,-1
-162.80,4.19,-27.35,604,-3807,7314,0,0,-1
-162.80,4.19,-27.34,608,-3798,7322,0,0,-1
-162.80,4.19,-27.33,606,-3790,7314,0,0,-1
-162.80,4.19,-27.33,599,-3789,7320,0,0,0
-162.80,4.19,-27.33,594,-3784,7322,0,0,0
-162.80,4.18,-27.32,596,-3785,7334,0,-1,-1
-162.79,4.19,-27.32,596,-3788,7336,0,0,-1
-162.79,4.19,-27.31,598,-3786,7325,0,-1,0
-162.79,4.19,-27.31,599,-3788,7325,0,0,-1
-162.79,4.18,-27.30,615,-3784,7325,0,0,-1
-162.78,4.19,-27.30,606,-3775,7320,0,0,-1
-162.78,4.18,-27.30,601,-3783,7330,0,-1,0
-162.78,4.18,-27.30,606,-3791,7329,0,0,-1
-162.78,4.18,-27.29,608,-3777,7338,0,0,0
-162.78,4.18,-27.30,601,-3790,7310,0,0,0
-162.78,4.18,-27.30,590,-3789,7306,0,-1,0
-162.78,4.18,-27.29,593,-3781,7313,0,-1,-1
-162.78,4.18,-27.28,600,-3777,7328,0,-1,-1
-162.78,4.19,-27.28,608,-3786,7337,-1,-1,0
-162.78,4.18,-27.28,604,-3777,7322,0,0,0
-162.78,4.18,-27.28,600,-3768,7321,-1,0,0
-162.78,4.17,-27.29,589,-3760,7330,-1,0,0
-162.79,4.17,-27.30,581,-3781,7321,-1,-1,0
-162.79,4.17,-27.31,586,-3792,7317,-1,-1,-1
-162.79,4.17,-27.32,591,-3803,7312,0,-1,-1
-162.79,4.18,-27.32,600,-3798,7315,0,-1,-1
-162.78,4.18,-27.31,606,-3797,7317,0,0,-1
-162.78,4.18,-27.31,606,-3794,7316,0,0,0
-162.78,4.18,-27.29,609,-3785,7312,0,0,0
-162.78,4.17,-27.28,605,-3778,7326,0,0,0
-162.79,4.16,-27.27,600,-3763,7332,0,0,0
-162.79,4.15,-27.27,591,-3758,7330,-1,0,0
-162.79,4.15,-27.28,592,-3770,7322,-1,0,0
-162.80,4.15,-27.29,589,-3770,7334,-1,0,0
-162.80,4.15,-27.29,589,-3774,7330,-1,0,0
-162.80,4.15,-27.30,587,-3786,7324,-1,-1,-1
-162.80,4.14,-27.32,596,-3794,7313,-1,0,-1
-162.80,4.14,-27.32,601,-3798,7311,0,0,-1
-162.80,4.14,-27.32,596,-3791,7314,0,0,0
-162.80,4.14,-27.31,594,-3782,7312,0,0,-1
-162.80,4.14,-27.30,597,-3781,7321,0,0,-1
-162.79,4.14,-27.30,601,-3780,7324,0,0,-1
-162.79,4.14,-27.29,597,-3778,7340,0,0,0
-162.79,4.14,-27.30,587,-3781,7332,-1,0,0
-162.79,4.14,-27.30,590,-3783,7338,-1,0,0
-162.79,4.14,-27.30,593,-3783,7332,-1,0,0
-162.80,4.13,-27.31,596,-3792,7317,-1,0,0
-162.80,4.13,-27.31,596,-3788,7322,-1,0,0
-162.80,4.12,-27.31,591,-3786,7315,-1,0,0
-162.80,4.12,-27.31,591,-3782,7321,0,0,0
-162.80,4.12,-27.31,590,-3778,7316,-1,0,-1
-162.80,4.12,-27.32,594,-3783,7324,-1,0,-1
-162.80,4.12,-27.32,592,-3786,7321,-1,-1,0
-162.80,4.12,-27.32,593,-3799,7324,0,0,-1
-162.80,4.12,-27.32,595,-3788,7334,-1,0,0
-162.80,4.12,-27.32,586,-3790,7344,-1,-1,-1
-162.80,4.12,-27.32,582,-3790,7336,-1,-1,-1
-162.80,4.12,-27.33,588,-3794,7324,0,-1,-1
-162.80,4.12,-27.33,592,-3792,7320,0,-1,0
-162.80,4.12,-27.33,591,-3786,7324,0,-1,-1
-162.80,4.12,-27.32,589,-3785,7327,0,-1,0
-162.80,4.12,-27.32,582,-3787,7328,0,-1,0
-162.80,4.13,-27.32,585,-3790,7326,0,-1,-1
-162.80,4.13,-27.31,590,-3787,7329,0,-1,-1
-162.79,4.13,-27.31,594,-3788,7332,0,0,-1
-162.79,4.13,-27.31,593,-3780,7330,0,-1,-1
-162.79,4.14,-27.30,596,-3782,7325,-1,-1,0
-162.79,4.14,-27.31,609,-3779,7323,-1,0,0
-162.79,4.14,-27.30,601,-3773,7331,0,-1,0
-162.79,4.13,-27.30,598,-3778,7324,-1,0,0
-162.79,4.13,-27.31,581,-3785,7324,0,-1,-1
-162.79,4.13,-27.31,586,-3789,7319,-1,-1,-1
-162.79,4.14,-27.31,598,-3796,7327,0,0,-1
-162.79,4.14,-27.30,606,-3777,7331,0,-1,-1
-162.78,4.15,-27.30,612,-3773,7334,-1,-1,0
-162.79,4.14,-27.30,603,-3779,7329,-1,0,0
-162.80,4.12,-27.30,587,-3772,7331,0,0,0
-162.80,4.12,-27.29,565,-3755,7310,-1,0,0
-162.80,4.11,-27.31,559,-3768,7327,-1,-1,-1
-162.80,4.12,-27.31,574,-3794,7309,0,-1,-1
-162.79,4.13,-27.31,588,-3784,7329,0,-1,-1
-162.79,4.13,-27.31,602,-3789,7331,-1,-1,0
-162.79,4.14,-27.31,609,-3789,7342,-1,0,0
-162.79,4.14,-27.31,613,-3788,7314,0,0,0
-162.79,4.14,-27.30,616,-3792,7333,0,0,0
-162.79,4.14,-27.30,619,-3772,7321,0,0,0
-162.80,4.13,-27.29,599,-3761,7321,0,0,0
-162.80,4.12,-27.29,582,-3775,7343,0,-1,0
-162.80,4.12,-27.28,575,-3776,7345,0,0,-1
-162.80,4.12,-27.28,584,-3763,7332,0,0,0
-162.81,4.12,-27.28,582,-3768,7341,-1,-1,0
-162.81,4.12,-27.29,595,-3783,7337,-1,-1,-1
-162.81,4.12,-27.29,587,-3786,7346,0,0,-1
-162.81,4.13,-27.29,598,-3779,7322,-1,-1,0
-162.81,4.12,-27.30,589,-3786,7327,-1,-1,0
-162.81,4.12,-27.31,589,-3782,7330,-1,0,-1
-162.81,4.12,-27.31,587,-3780,7335,-1,-1,0
-162.82,4.13,-27.31,602,-3799,7320,0,-1,-1
-162.81,4.13,-27.31,597,-3800,7332,0,-1,-1
-162.81,4.13,-27.30,583,-3794,7331,0,-1,0
-162.81,4.13,-27.30,591,-3792,7308,0,-1,-1
-162.81,4.14,-27.30,592,-3789,7318,0,-1,0
-162.81,4.14,-27.30,599,-3786,7323,0,-1,0
-162.81,4.14,-27.30,588,-3780,7330,-1,-1,0
-162.81,4.14,-27.30,591,-3786,7329,-1,-1,0
-162.82,4.14,-27.30,597,-3787,7325,-1,-1,0
-162.82,4.14,-27.30,596,-3783,7331,0,0,0
-162.82,4.14,-27.30,588,-3776,7328,-1,-1,-1
-162.82,4.15,-27.31,594,-3782,7318,-1,-1,-1
-162.82,4.15,-27.32,591,-3792,7328,-1,-1,-1
-162.82,4.15,-27.32,594,-3789,7322,-1,-1,-1
-162.82,4.15,-27.32,602,-3784,7314,-1,-1,0
-162.82,4.16,-27.33,596,-3789,7300,-1,0,0
-162.82,4.15,-27.33,600,-3792,7314,0,0,0
-162.82,4.15,-27.32,594,-3788,7309,0,0,0
-162.82,4.15,-27.32,594,-3787,7316,0,-1,0
-162.82,4.15,-27.32,593,-3792,7326,0,-1,0
-162.82,4.15,-27.32,595,-3794,7324,-1,0,-1
-162.82,4.16,-27.33,607,-3793,7323,-1,-1,0
-162.82,4.15,-27.32,597,-3779,7321,-1,0,0
-162.82,4.15,-27.32,591,-3775,7319,-1,-1,0
-162.82,4.16,-27.33,595,-3775,7317,-1,0,0
-162.82,4.15,-27.34,601,-3781,7318,-1,0,0
-162.82,4.15,-27.34,599,-3780,7323,-1,-1,0
-162.82,4.16,-27.34,592,-3800,7324,-1,0,0
-162.82,4.16,-27.34,591,-3806,7325,0,-1,0
-162.82,4.16,-27.34,585,-3800,7320,0,-1,-1
-162.82,4.16,-27.34,590,-3790,7319,0,-1,-1
-162.82,4.16,-27.34,608,-3788,7320,0,0,-1
-162.82,4.16,-27.34,604,-3785,7331,0,0,0
-162.82,4.15,-27.33,606,-3774,7335,-1,0,0
-162.82,4.15,-27.34,600,-3775,7327,-1,0,0
-162.83,4.15,-27.35,579,-3783,7324,-1,0,0
-162.83,4.14,-27.35,570,-3791,7322,-1,-1,-1
-162.83,4.14,-27.36,577,-3796,7327,-1,-1,-1
-162.84,4.14,-27.37,585,-3811,7316,-1,-1,-1
-162.83,4.15,-27.37,598,-3812,7314,-1,-1,-1
-162.83,4.16,-27.37,611,-3804,7309,0,0,0
-162.83,4.16,-27.37,614,-3790,7311,0,0,0
-162.83,4.15,-27.37,601,-3790,7324,0,0,0
-162.84,4.14,-27.37,593,-3793,7330,-1,0,0
-162.84,4.14,-27.38,587,-3793,7322,-1,-1,0
-162.85,4.14,-27.38,592,-3792,7325,-1,-1,0
-162.85,4.14,-27.38,585,-3792,7326,-1,0,0
-162.86,4.14,-27.39,595,-3793,7324,-1,-1,0
-162.86,4.13,-27.41,583,-3809,7324,-1,-1,0
-162.86,4.13,-27.41,595,-3807,7314,-1,0,0
-162.87,4.13,-27.41,591,-3803,7341,-1,-1,0
-162.88,4.12,-27.41,597,-3789,7340,-1,0,0
-162.88,4.12,-27.42,593,-3788,7335,-1,0,0
-162.88,4.12,-27.44,589,-3803,7301,-1,-1,0
-162.89,4.11,-27.43,586,-3808,7353,0,0,0
-162.90,4.11,-27.44,583,-3787,7302,-1,-1,0
-162.91,4.11,-27.45,595,-3798,7330,-1,-1,0
-162.91,4.11,-27.45,606,-3787,7313,-1,0,0
-162.92,4.10,-27.45,594,-3795,7337,0,0,0
-162.93,4.10,-27.46,597,-3785,7303,-1,0,0
-162.94,4.09,-27.46,599,-3807,7316,0,0,0
-162.95,4.08,-27.46,595,-3803,7321,0,0,0
-162.95,4.07,-27.45,579,-3795,7315,0,0,0
-162.96,4.07,-27.44,574,-3802,7303,0,0,0
-162.96,4.06,-27.43,562,-3805,7313,0,-1,-1
-162.96,4.06,-27.42,565,-3788,7309,0,-1,-1
-162.95,4.06,-27.41,572,-3770,7332,0,0,-1
-162.95,4.06,-27.41,591,-3789,7324,-1,-1,-1
-162.95,4.06,-27.41,591,-3801,7323,0,0,-1
-162.94,4.07,-27.40,592,-3804,7310,0,-1,0
-162.94,4.07,-27.39,581,-3802,7315,0,-1,-1
-162.93,4.07,-27.38,573,-3802,7307,0,0,-1
-162.93,4.07,-27.37,571,-3803,7322,0,-1,0
-162.93,4.08,-27.35,577,-3792,7328,0,-1,-1
-162.92,4.08,-27.35,591,-3788,7344,0,-1,-1
-162.92,4.09,-27.34,596,-3782,7320,0,0,-1
-162.91,4.09,-27.34,594,-3783,7325,0,-1,-1
-162.91,4.09,-27.34,593,-3800,7329,0,-1,-1
-162.91,4.10,-27.32,594,-3788,7328,0,0,-1
-162.90,4.10,-27.32,571,-3783,7333,0,-1,-1
-162.90,4.11,-27.31,574,-3792,7327,0,-1,-1
-162.90,4.11,-27.31,589,-3798,7314,0,-1,-1
-162.88,4.11,-27.29,613,-3794,7333,0,0,-1
-162.88,4.11,-27.29,603,-3785,7344,0,0,-1
-162.88,4.11,-27.28,591,-3765,7340,-1,0,0
-162.88,4.11,-27.28,583,-3774,7324,-1,0,0
-162.88,4.10,-27.28,586,-3781,7325,-1,0,0
-162.89,4.09,-27.29,571,-3785,7317,-1,0,0
-162.88,4.09,-27.29,568,-3783,7330,-1,-1,-1
-162.88,4.10,-27.30,580,-3795,7316,-1,-1,-1
-162.87,4.11,-27.30,591,-3799,7316,0,0,-1
-162.86,4.11,-27.29,591,-3789,7331,0,0,-1
-162.86,4.10,-27.29,584,-3766,7331,-1,0,0
-162.86,4.10,-27.29,586,-3765,7324,-1,0,-1
-162.87,4.10,-27.29,591,-3774,7331,-1,0,0
-162.87,4.10,-27.30,594,-3784,7336,-1,0,0
-162.87,4.09,-27.30,579,-3779,7327,-1,0,0
-162.87,4.09,-27.30,584,-3789,7315,-1,0,-1
-162.87,4.09,-27.31,585,-3798,7319,0,0,-1
-162.86,4.09,-27.30,585,-3784,7328,0,0,-1
-162.86,4.09,-27.30,575,-3774,7326,0,0,-1
-162.86,4.09,-27.30,579,-3780,7327,0,0,-1
-162.86,4.09,-27.29,582,-3773,7343,0,0,-1
-162.85,4.08,-27.29,583,-3766,7341,-1,0,0
-162.85,4.08,-27.29,583,-3774,7329,-1,0,-1
-162.85,4.08,-27.30,584,-3784,7327,-1,0,-1
-162.85,4.08,-27.30,589,-3788,7331,0,0,-1
-162.85,4.08,-27.30,590,-3786,7338,-1,0,-1
-162.84,4.09,-27.30,593,-3784,7334,-1,0,-1
-162.84,4.09,-27.30,598,-3786,7335,0,0,0
-162.84,4.08,-27.30,589,-3781,7330,-1,0,0
-162.84,4.08,-27.30,591,-3783,7338,0,0,0
-162.85,4.07,-27.30,587,-3788,7328,-1,0,0
-162.85,4.06,-27.30,580,-3787,7331,0,0,0
-162.85,4.06,-27.29,575,-3786,7325,0,0,0
-162.85,4.06,-27.29,582,-3777,7317,-1,-1,0
-162.85,4.06,-27.30,583,-3778,7320,-1,0,0
-162.85,4.07,-27.31,584,-3784,7319,-1,-1,0
-162.85,4.06,-27.31,583,-3800,7320,0,0,-1
-162.85,4.06,-27.31,590,-3787,7322,0,0,0
-162.85,4.06,-27.31,581,-3781,7323,-1,-1,0
-162.85,4.06,-27.31,582,-3781,7318,-1,0,-1
-162.85,4.06,-27.32,581,-3786,7317,-1,0,-1
-162.85,4.06,-27.32,584,-3784,7316,0,0,-1
-162.85,4.05,-27.31,586,-3783,7320,0,0,0
-162.85,4.05,-27.31,583,-3780,7314,0,0,0
-162.85,4.05,-27.31,572,-3783,7309,0,0,-1
-162.84,4.05,-27.30,580,-3786,7325,0,0,-1
-162.84,4.04,-27.30,580,-3784,7336,-1,0,-1
-162.84,4.04,-27.30,585,-3783,7336,-1,0,-1
-162.84,4.04,-27.30,579,-3790,7317,-1,0,0
-162.84,4.04,-27.31,572,-3797,7306,0,0,0
-162.84,4.03,-27.30,570,-3798,7305,0,0,-1
-162.83,4.04,-27.30,583,-3784,7318,0,0,-1
-162.83,4.03,-27.29,594,-3784,7333,0,0,0
-162.84,4.03,-27.29,593,-3778,7343,0,0,0
-162.84,4.01,-27.29,576,-3765,7337,-1,0,0
-162.85,4.00,-27.29,568,-3773,7337,-1,0,0
-162.85,4.01,-27.29,565,-3772,7327,-1,-1,0
-162.86,4.00,-27.30,556,-3771,7324,-1,-1,0
-162.86,4.01,-27.31,555,-3782,7320,-1,-1,-1
-162.85,4.02,-27.32,564,-3793,7315,-1,-1,-1
-162.85,4.02,-27.33,583,-3798,7312,0,-1,-1
-162.84,4.03,-27.32,591,-3802,7324,0,-1,-1
-162.84,4.03,-27.32,588,-3791,7318,0,-1,0
-162.84,4.03,-27.31,589,-3793,7319,0,0,0
-162.84,4.03,-27.30,583,-3782,7325,0,0,0
-162.84,4.02,-27.30,572,-3772,7323,0,0,0
-162.84,4.02,-27.30,562,-3771,7318,-1,-1,-1
-162.84,4.02,-27.30,559,-3774,7331,-1,-1,-1
-162.84,4.03,-27.30,570,-3784,7327,-1,-1,-1
-162.84,4.03,-27.30,575,-3788,7319,0,-1,-1
-162.84,4.04,-27.30,577,-3785,7314,0,-1,0
-162.84,4.04,-27.30,576,-3782,7317,0,0,-1
-162.84,4.04,-27.30,579,-3782,7322,0,0,-1
-162.84,4.04,-27.30,578,-3779,7322,0,-1,0
-162.84,4.04,-27.29,574,-3786,7335,0,0,-1
-162.84,4.04,-27.28,578,-3777,7342,0,-1,-1
-162.84,4.05,-27.28,574,-3767,7343,-1,-1,-1
-162.84,4.05,-27.28,583,-3769,7334,-1,-1,-1
-162.84,4.06,-27.29,587,-3779,7321,-1,-1,0
-162.84,4.06,-27.29,584,-3782,7324,-1,-1,0
-162.84,4.06,-27.29,582,-3782,7321,-1,0,0
-162.84,4.06,-27.29,582,-3776,7322,-1,0,0
-162.84,4.06,-27.29,570,-3788,7320,0,0,-1
-162.84,4.06,-27.29,570,-3794,7323,0,-1,-1
-162.84,4.06,-27.29,569,-3788,7330,0,-1,-1
-162.84,4.06,-27.29,579,-3787,7325,0,-1,-1
-162.84,4.06,-27.29,587,-3785,7340,0,-1,-1
-162.84,4.07,-27.28,590,-3778,7336,0,-1,0
-162.84,4.07,-27.28,591,-3776,7338,0,0,0
-162.84,4.07,-27.28,591,-3777,7330,-1,-1,0
-162.84,4.07,-27.28,587,-3786,7330,-1,-1,0
-162.84,4.07,-27.28,585,-3794,7335,0,-1,0
-162.84,4.07,-27.28,579,-3784,7337,0,-1,0
-162.85,4.07,-27.28,579,-3785,7340,-1,-1,0
-162.84,4.08,-27.28,585,-3786,7341,-1,-1,0
-162.84,4.08,-27.28,578,-3785,7334,0,0,-1
-162.84,4.07,-27.28,584,-3788,7331,0,-1,0
-162.84,4.07,-27.28,588,-3795,7342,0,0,-1
-162.84,4.08,-27.27,587,-3783,7339,0,-1,0
-162.85,4.08,-27.27,575,-3784,7336,-1,-1,0
-162.85,4.08,-27.27,579,-3780,7335,-1,-1,-1
-162.85,4.08,-27.27,587,-3779,7333,0,-1,-1
-162.85,4.09,-27.27,585,-3771,7332,-1,0,0
-162.85,4.08,-27.27,578,-3768,7329,-1,0,0
-162.85,4.08,-27.27,581,-3776,7320,-1,-1,0
-162.85,4.08,-27.27,578,-3785,7307,0,0,0
-162.85,4.08,-27.27,578,-3779,7316,-1,0,0
-162.85,4.07,-27.28,574,-3781,7308,-1,-1,0
-162.86,4.08,-27.28,579,-3796,7311,0,-1,0
-162.86,4.08,-27.28,579,-3790,7326,0,-1,-1
-162.85,4.09,-27.27,598,-3785,7331,0,-1,-1
-162.85,4.08,-27.27,601,-3782,7339,0,0,0
-162.85,4.08,-27.26,599,-3779,7345,0,0,0
-162.86,4.08,-27.26,588,-3774,7324,-1,0,0
-162.86,4.07,-27.26,575,-3761,7327,-1,0,0
-162.87,4.06,-27.27,564,-3768,7322,-1,-1,0
-162.87,4.06,-27.28,565,-3787,7332,-1,-1,0
-162.87,4.07,-27.29,569,-3786,7322,-1,-1,-1
-162.86,4.07,-27.30,584,-3792,7324,-1,-1,0
-162.87,4.09,-27.30,607,-3804,7317,0,0,0
-162.86,4.09,-27.30,602,-3793,7319,0,-1,0
-162.87,4.08,-27.29,598,-3779,7317,0,0,0
-162.87,4.08,-27.29,587,-3784,7326,0,0,0
-162.87,4.08,-27.28,585,-3775,7329,0,0,0
-162.87,4.08,-27.28,576,-3772,7327,-1,0,0
-162.88,4.07,-27.28,574,-3775,7334,-1,-1,0
-162.88,4.08,-27.29,577,-3776,7333,-1,-1,0
-162.88,4.08,-27.30,587,-3784,7326,-1,-1,0
-162.88,4.08,-27.30,588,-3790,7339,-1,-1,0
-162.88,4.08,-27.30,589,-3793,7333,-1,-1,0
-162.88,4.08,-27.30,574,-3790,7341,0,0,0
-162.88,4.07,-27.29,571,-3788,7335,0,0,-1
-162.88,4.07,-27.29,575,-3783,7342,0,-1,0
-162.88,4.08,-27.29,580,-3778,7333,0,-1,-1
-162.88,4.08,-27.28,586,-3775,7330,-1,-1,0
-162.88,4.08,-27.29,590,-3775,7326,-1,-1,0
-162.88,4.08,-27.29,592,-3787,7330,-1,0,0
-162.88,4.08,-27.29,590,-3775,7331,-1,-1,0
-162.88,4.08,-27.29,580,-3774,7327,-1,-1,0
-162.88,4.09,-27.29,583,-3781,7323,-1,-1,0
-162.88,4.09,-27.29,580,-3778,7333,0,-1,-1
-162.88,4.09,-27.29,575,-3774,7334,-1,-1,-1
-162.88,4.09,-27.29,575,-3769,7320,-1,-1,-1
-162.88,4.09,-27.29,584,-3775,7323,-1,-1,0
-162.88,4.09,-27.29,584,-3792,7336,0,0,-1
-162.88,4.09,-27.29,588,-3778,7339,0,-1,0
-162.88,4.09,-27.29,587,-3771,7336,-1,-1,0
-162.89,4.09,-27.30,583,-3775,7325,-1,-1,0
-162.89,4.09,-27.30,588,-3778,7322,-1,-1,0
-162.89,4.09,-27.30,592,-3779,7325,-1,0,0
-162.89,4.09,-27.31,592,-3782,7324,-1,0,0
-162.89,4.09,-27.32,589,-3782,7323,-1,0,0
-162.90,4.08,-27.33,583,-3792,7324,-1,-1,0
-162.90,4.08,-27.34,579,-3795,7328,-1,-1,0
-162.91,4.08,-27.34,580,-3796,7325,-1,-1,0
-162.91,4.08,-27.35,590,-3791,7331,-1,0,0
-162.91,4.08,-27.35,593,-3786,7318,-1,-1,0
-162.91,4.08,-27.35,594,-3783,7310,-1,0,0
-162.92,4.08,-27.36,592,-3791,7316,-1,0,0
-162.92,4.08,-27.36,602,-3792,7322,-1,0,0
-162.93,4.07,-27.36,593,-3791,7323,0,0,0
-162.93,4.05,-27.37,579,-3783,7332,-1,0,0
-162.94,4.05,-27.37,575,-3787,7331,-1,-1,0
-162.94,4.05,-27.38,584,-3794,7321,-1,0,0
-162.95,4.04,-27.38,586,-3796,7323,-1,0,0
-162.95,4.04,-27.39,580,-3800,7311,-1,0,0
-162.96,4.03,-27.40,581,-3799,7300,-1,0,0
-162.96,4.03,-27.40,576,-3795,7308,0,-1,0
-162.96,4.04,-27.40,591,-3801,7329,-1,0,0
-162.96,4.03,-27.40,591,-3796,7339,0,0,0
-162.96,4.03,-27.39,587,-3782,7332,-1,0,0
-162.96,4.02,-27.39,575,-3774,7323,-1,0,0
-162.96,4.01,-27.40,578,-3774,7314,-1,0,0
-162.97,4.01,-27.40,569,-3782,7313,-1,0,0
-162.97,4.00,-27.40,556,-3798,7313,-1,-1,-1
-162.97,4.00,-27.40,572,-3802,7322,0,0,-1
-162.96,4.01,-27.39,576,-3807,7329,0,-1,-1
-162.96,4.01,-27.39,577,-3818,7311,0,-1,-1
-162.96,4.01,-27.38,576,-3808,7305,0,-1,-1
-162.95,4.02,-27.36,585,-3797,7308,0,0,-1
-162.95,4.01,-27.34,589,-3785,7319,0,0,-1
-162.94,4.01,-27.33,580,-3776,7322,0,0,-1
-162.93,4.02,-27.32,570,-3779,7331,0,-1,-1
-162.93,4.02,-27.31,568,-3785,7330,0,-1,-1
-162.93,4.02,-27.31,568,-3781,7330,-1,-1,-1
-162.93,4.02,-27.31,567,-3782,7335,-1,-1,-1
-162.93,4.03,-27.32,564,-3788,7327,-1,-1,-1
-162.92,4.04,-27.32,568,-3796,7319,-1,-1,-1
-162.92,4.04,-27.32,582,-3801,7305,0,-1,-1
-162.91,4.05,-27.32,582,-3794,7314,0,-1,-1
-162.91,4.05,-27.32,578,-3793,7317,0,-1,0
-162.91,4.06,-27.31,586,-3802,7324,0,0,-1
-162.91,4.06,-27.31,585,-3790,7328,0,0,-1
-162.90,4.06,-27.30,581,-3786,7324,0,0,-1
-162.90,4.06,-27.29,576,-3779,7319,0,-1,-1
-162.90,4.06,-27.29,588,-3773,7320,0,0,-1
-162.90,4.06,-27.29,597,-3773,7338,-1,0,0
-162.90,4.06,-27.29,588,-3778,7341,-1,0,0
-162.90,4.06,-27.29,581,-3772,7334,-1,-1,0
-162.90,4.06,-27.29,581,-3782,7335,0,0,-1
-162.90,4.06,-27.29,578,-3785,7333,-1,-1,-1
-162.90,4.06,-27.29,584,-3781,7336,-1,0,-1
-162.89,4.06,-27.29,579,-3785,7337,0,0,-1
-162.89,4.06,-27.29,582,-3787,7330,0,0,-1
-162.89,4.06,-27.29,588,-3779,7334,0,0,-1
-162.89,4.06,-27.28,587,-3779,7336,0,0,-1
-162.89,4.06,-27.29,588,-3775,7334,-1,0,0
-162.89,4.06,-27.29,581,-3782,7329,-1,0,0
-162.89,4.06,-27.29,579,-3789,7327,-1,0,0
-162.89,4.06,-27.29,582,-3783,7323,-1,0,-1
-162.90,4.05,-27.29,581,-3781,7326,-1,0,0
-162.90,4.05,-27.29,581,-3783,7323,-1,0,0
-162.90,4.05,-27.29,580,-3778,7312,0,-1,0
-162.90,4.05,-27.29,585,-3786,7324,0,0,-1
-162.90,4.05,-27.29,583,-3789,7341,0,0,0
-162.90,4.04,-27.29,576,-3789,7338,-1,0,-1
-162.90,4.04,-27.29,577,-3782,7338,-1,-1,0
-162.89,4.05,-27.29,578,-3789,7334,0,0,-1
-162.89,4.05,-27.29,580,-3789,7333,0,0,0
-162.89,4.05,-27.29,586,-3792,7339,-1,0,-1
-162.89,4.05,-27.29,585,-3783,7334,0,0,-1
-162.89,4.05,-27.29,586,-3786,7330,0,0,-1
-162.89,4.04,-27.29,593,-3777,7341,0,0,0
-162.89,4.04,-27.28,585,-3770,7336,-1,0,0
-162.89,4.03,-27.28,568,-3767,7334,-1,0,0
-162.90,4.03,-27.29,564,-3775,7318,-1,0,0
-162.90,4.02,-27.29,554,-3786,7322,-1,-1,0
-162.90,4.03,-27.29,562,-3786,7317,0,-1,-1
-162.89,4.03,-27.29,575,-3788,7319,0,0,-1
-162.89,4.03,-27.29,588,-3784,7316,0,-1,-1
-162.88,4.04,-27.29,587,-3795,7317,0,0,-1
-162.88,4.03,-27.28,595,-3787,7330,0,0,-1
-162.88,4.03,-27.27,593,-3770,7325,0,0,0
-162.87,4.03,-27.25,597,-3763,7343,0,0,0
-162.88,4.02,-27.25,581,-3766,7321,0,0,0
-162.88,4.02,-27.26,580,-3772,7338,0,0,0
-162.88,4.01,-27.25,567,-3768,7341,-1,0,0
-162.89,4.00,-27.26,556,-3776,7337,-1,0,-1
-162.88,4.01,-27.26,572,-3775,7322,-1,0,-1
-162.88,4.01,-27.27,583,-3774,7312,0,0,-1
-162.88,4.01,-27.27,591,-3778,7329,-1,0,0
-162.87,4.01,-27.27,591,-3790,7323,0,0,0
-162.87,4.00,-27.26,580,-3771,7320,0,0,-1
-162.87,4.00,-27.26,579,-3785,7339,-1,-1,0
-162.87,3.99,-27.26,578,-3778,7328,0,0,-1
-162.87,3.99,-27.26,562,-3782,7347,-1,-1,0
-162.87,3.99,-27.26,572,-3772,7341,-1,0,0
-162.87,4.00,-27.26,579,-3772,7343,-1,-1,0
-162.88,4.01,-27.27,587,-3780,7331,-1,-1,0
-162.88,4.00,-27.28,575,-3788,7322,-1,0,0
-162.89,4.00,-27.28,573,-3788,7317,0,0,0
-162.89,4.00,-27.28,563,-3783,7326,0,-1,0
-162.89,4.00,-27.27,563,-3778,7325,-1,-1,-1
-162.89,4.00,-27.28,564,-3777,7328,-1,-1,-1
-162.89,4.01,-27.28,571,-3784,7331,-1,-1,0
-162.88,4.01,-27.28,584,-3788,7323,0,-1,-1
-162.88,4.01,-27.28,584,-3777,7339,0,-1,0
-162.88,4.02,-27.28,579,-3771,7326,-1,-1,-1
-162.88,4.02,-27.28,574,-3781,7321,-1,-1,0
-162.89,4.03,-27.28,579,-3788,7321,0,-1,0
-162.89,4.03,-27.28,578,-3780,7317,0,-1,0
-162.89,4.03,-27.27,581,-3792,7313,0,-1,0
-162.89,4.03,-27.28,579,-3793,7321,0,-1,-1
-162.88,4.04,-27.27,583,-3784,7318,0,-1,0
-162.88,4.05,-27.27,584,-3784,7320,0,-1,-1
-162.88,4.05,-27.27,589,-3774,7332,0,-1,-1
-162.88,4.05,-27.26,582,-3780,7332,0,-1,0
-162.88,4.04,-27.27,579,-3779,7329,0,-1,0
-162.88,4.05,-27.26,583,-3777,7321,0,-1,-1
-162.88,4.06,-27.26,591,-3780,7319,0,-1,0
-162.88,4.06,-27.26,592,-3786,7332,0,-1,-1
-162.88,4.06,-27.26,597,-3781,7337,0,0,0
-162.88,4.06,-27.26,594,-3775,7337,-1,0,0
-162.88,4.06,-27.26,590,-3768,7340,-1,0,0
-162.89,4.06,-27.26,582,-3771,7324,-1,-1,0
-162.89,4.05,-27.26,571,-3776,7317,-1,-1,0
-162.89,4.06,-27.27,568,-3784,7315,-1,-1,-1
-162.89,4.06,-27.28,576,-3791,7333,-1,-1,-1
-162.89,4.06,-27.28,581,-3797,7318,0,-1,-1
-162.89,4.06,-27.28,585,-3794,7310,0,-1,-1
-162.89,4.07,-27.27,596,-3781,7316,0,-1,0
-162.89,4.07,-27.26,599,-3770,7323,0,0,0
-162.89,4.07,-27.25,598,-3769,7326,0,0,0
-162.89,4.07,-27.25,591,-3771,7344,0,0,0
-162.89,4.06,-27.25,581,-3760,7348,-1,0,0
-162.90,4.06,-27.25,567,-3760,7344,-1,-1,0
-162.90,4.07,-27.26,566,-3771,7328,-1,-1,0
-162.90,4.07,-27.27,573,-3776,7318,-1,-1,0
-162.90,4.07,-27.27,581,-3776,7329,-1,-1,0
-162.90,4.07,-27.28,588,-3780,7326,0,-1,0
-162.90,4.07,-27.28,590,-3785,7314,0,0,-1
-162.90,4.07,-27.27,584,-3786,7316,0,0,-1
-162.90,4.06,-27.26,579,-3782,7327,0,0,-1
-162.90,4.07,-27.26,577,-3772,7322,0,-1,-1
-162.89,4.07,-27.26,584,-3771,7333,0,-1,0
-162.89,4.07,-27.26,588,-3769,7336,-1,-1,0
-162.90,4.08,-27.26,599,-3770,7324,-1,-1,0
-162.90,4.08,-27.27,600,-3770,7327,-1,0,0
-162.90,4.07,-27.27,591,-3770,7334,-1,0,0
-162.90,4.07,-27.28,583,-3780,7337,-1,-1,0
-162.91,4.07,-27.28,583,-3787,7335,-1,-1,0
-162.91,4.07,-27.28,576,-3785,7335,0,0,0
-162.91,4.07,-27.28,574,-3777,7330,0,-1,-1
-162.91,4.07,-27.28,573,-3782,7328,0,-1,0
-162.91,4.07,-27.28,583,-3786,7325,0,0,-1
-162.90,4.07,-27.28,582,-3773,7328,-1,0,-1
-162.90,4.07,-27.28,586,-3771,7323,-1,0,-1
-162.91,4.07,-27.28,584,-3767,7330,-1,-1,0
-162.91,4.07,-27.28,587,-3782,7340,-1,-1,0
-162.91,4.07,-27.28,591,-3784,7350,0,-1,0
-162.91,4.07,-27.28,576,-3782,7338,-1,-1,0
-162.91,4.07,-27.28,574,-3787,7330,-1,-1,0
-162.91,4.07,-27.29,579,-3786,7315,0,-1,-1
-162.91,4.07,-27.28,581,-3779,7322,0,0,0
-162.91,4.07,-27.28,588,-3774,7323,-1,0,0
-162.92,4.07,-27.28,585,-3783,7325,0,0,0
-162.92,4.07,-27.28,589,-3782,7324,0,0,0
-162.92,4.07,-27.28,585,-3786,7331,0,0,0
-162.92,4.07,-27.28,584,-3776,7335,-1,-1,0
-162.92,4.07,-27.29,580,-3776,7324,-1,-1,0
-162.92,4.07,-27.30,575,-3782,7329,-1,-1,0
-162.92,4.07,-27.30,586,-3790,7321,0,-1,0
-162.92,4.07,-27.30,591,-3788,7331,0,0,0
-162.92,4.07,-27.30,594,-3783,7327,0,0,0
-162.92,4.07,-27.30,596,-3775,7330,-1,0,0
-162.93,4.06,-27.30,587,-3774,7328,-1,0,0
-162.94,4.05,-27.30,565,-3764,7327,-1,0,0
-162.94,4.04,-27.31,557,-3766,7324,-1,-1,0
-162.94,4.05,-27.32,565,-3786,7330,-1,-1,0
-162.94,4.05,-27.32,567,-3792,7330,-1,-1,-1
-162.94,4.06,-27.33,581,-3796,7324,-1,-1,0
-162.94,4.07,-27.33,582,-3792,7323,0,-1,-1
-162.94,4.07,-27.33,594,-3795,7318,0,0,0
-162.94,4.07,-27.33,600,-3788,7314,0,0,0
-162.94,4.07,-27.32,589,-3777,7325,0,0,0
-162.94,4.06,-27.31,590,-3778,7331,-1,-1,0
-162.94,4.06,-27.32,578,-3778,7344,-1,-1,0
-162.95,4.06,-27.32,573,-3775,7334,-1,-1,0
-162.95,4.07,-27.34,568,-3783,7329,-1,-1,0
-162.95,4.07,-27.35,574,-3786,7318,-1,-1,0
-162.95,4.08,-27.36,586,-3795,7307,-1,-1,-1
-162.95,4.08,-27.36,588,-3798,7308,-1,-1,0
-162.95,4.08,-27.36,586,-3799,7315,0,0,0
-162.95,4.08,-27.35,587,-3795,7324,0,0,-1
-162.95,4.08,-27.35,580,-3797,7327,0,0,0
-162.95,4.08,-27.35,580,-3781,7336,-1,-1,0
-162.95,4.09,-27.35,584,-3776,7326,-1,-1,0
-162.95,4.09,-27.35,591,-3773,7324,-1,-1,0
-162.96,4.09,-27.36,600,-3774,7325,-1,-1,0
-162.96,4.09,-27.37,604,-3782,7327,-1,0,0
-162.96,4.08,-27.37,596,-3789,7313,0,0,0
-162.96,4.08,-27.37,593,-3790,7308,0,0,0
-162.96,4.07,-27.36,584,-3800,7316,0,0,-1
-162.96,4.07,-27.36,584,-3796,7327,0,0,-1
-162.95,4.07,-27.34,587,-3797,7322,0,0,-1
-162.95,4.07,-27.33,592,-3785,7323,0,0,-1
-162.94,4.08,-27.33,592,-3776,7328,0,-1,-1
-162.94,4.09,-27.32,599,-3774,7333,0,-1,-1
-162.94,4.08,-27.31,601,-3772,7327,0,0,-1
-162.93,4.09,-27.31,600,-3775,7324,-1,0,-1
-162.93,4.09,-27.32,601,-3786,7337,-1,0,0
-162.93,4.08,-27.32,590,-3788,7324,-1,-1,0
-162.93,4.08,-27.32,585,-3798,7325,0,0,-1
-162.93,4.09,-27.31,583,-3789,7336,0,-1,-1
-162.93,4.08,-27.30,586,-3780,7336,0,0,-1
-162.92,4.09,-27.30,591,-3781,7331,0,0,-1
-162.92,4.08,-27.29,594,-3781,7335,0,0,-1
-162.91,4.08,-27.28,604,-3778,7329,0,0,-1
-162.91,4.08,-27.28,595,-3774,7328,0,0,0
-162.91,4.08,-27.27,587,-3769,7333,0,0,-1
-162.91,4.08,-27.27,578,-3773,7331,-1,0,0
-162.91,4.08,-27.27,580,-3782,7336,0,0,-1
-162.91,4.07,-27.26,580,-3773,7331,0,0,-1
-162.91,4.08,-27.27,585,-3776,7328,-1,0,0
-162.92,4.07,-27.27,576,-3782,7324,0,0,0
-162.92,4.07,-27.27,579,-3790,7316,0,-1,0
-162.92,4.07,-27.27,582,-3796,7316,0,-1,-1
-162.91,4.07,-27.26,589,-3790,7331,0,0,-1
-162.91,4.07,-27.25,595,-3783,7331,0,0,-1
-162.91,4.07,-27.25,595,-3773,7339,0,0,0
-162.91,4.07,-27.25,589,-3761,7330,0,0,0
-162.92,4.06,-27.25,578,-3767,7334,-1,0,0
-162.92,4.05,-27.26,572,-3767,7333,-1,0,0
-162.92,4.06,-27.27,575,-3779,7332,-1,-1,0
-162.93,4.06,-27.28,587,-3798,7319,-1,-1,0
-162.92,4.06,-27.28,587,-3806,7332,0,-1,-1
-162.92,4.06,-27.28,590,-3792,7326,0,0,-1
-162.92,4.06,-27.28,586,-3789,7317,0,0,-1
-162.92,4.06,-27.28,601,-3782,7320,0,0,-1
-162.91,4.06,-27.26,594,-3774,7321,0,0,0
-162.91,4.06,-27.26,590,-3762,7336,-1,0,0
-162.92,4.05,-27.26,579,-3767,7343,-1,0,0
-162.92,4.04,-27.26,574,-3765,7339,-1,-1,0
-162.92,4.04,-27.27,572,-3777,7337,-1,0,0
-162.93,4.04,-27.27,567,-3776,7332,-1,-1,0
-162.93,4.03,-27.28,567,-3782,7320,-1,-1,0
-162.93,4.03,-27.28,575,-3795,7318,0,0,0
-162.93,4.04,-27.28,590,-3781,7315,0,0,0
-162.93,4.03,-27.27,589,-3780,7320,0,0,0
-162.93,4.03,-27.27,586,-3772,7325,0,0,-1
-162.93,4.03,-27.27,584,-3768,7326,0,0,0
-162.93,4.03,-27.27,582,-3763,7335,-1,0,0
-162.93,4.03,-27.27,578,-3769,7345,-1,-1,0
-162.93,4.03,-27.27,584,-3767,7341,-1,-1,0
-162.93,4.03,-27.27,587,-3760,7334,-1,0,0
-162.93,4.03,-27.28,584,-3770,7317,-1,0,0
-162.94,4.03,-27.29,592,-3791,7318,-1,0,0
-162.94,4.02,-27.29,586,-3790,7338,0,0,0
-162.94,4.01,-27.28,563,-3787,7327,0,0,-1
-162.94,4.01,-27.29,565,-3783,7321,0,-1,-1
-162.94,4.01,-27.29,573,-3783,7321,-1,-1,-1
-162.94,4.01,-27.28,579,-3777,7329,0,-1,0
-162.94,4.01,-27.29,580,-3774,7323,-1,0,0
-162.95,4.01,-27.29,580,-3778,7335,-1,0,0
-162.95,4.00,-27.29,574,-3782,7337,-1,0,0
-162.95,3.99,-27.30,570,-3785,7330,0,0,0
-162.95,3.99,-27.30,566,-3780,7329,-1,0,0
-162.94,3.99,-27.30,571,-3780,7331,-1,0,0
-162.94,3.99,-27.30,570,-3781,7325,-1,-1,-1
-162.95,3.99,-27.30,575,-3780,7327,-1,0,0
-162.95,3.99,-27.31,578,-3777,7323,-1,0,0
-162.95,3.98,-27.31,577,-3781,7328,-1,0,0
-162.95,3.98,-27.31,568,-3781,7324,-1,0,0
-162.95,3.98,-27.31,567,-3783,7325,-1,0,0
-162.95,3.98,-27.31,574,-3783,7320,-1,0,0
-162.95,3.98,-27.31,571,-3779,7325,-1,0,0
-162.95,3.98,-27.32,574,-3780,7332,-1,-1,0
-162.95,3.98,-27.33,574,-3785,7318,-1,-1,-1
-162.95,3.98,-27.32,570,-3798,7331,0,-1,-1
-162.95,3.98,-27.32,571,-3797,7333,0,-1,-1
-162.94,3.99,-27.31,576,-3788,7338,0,-1,-1
-162.94,4.00,-27.31,582,-3783,7327,0,-1,-1
-162.94,4.00,-27.31,585,-3776,7333,0,-1,0
-162.94,4.00,-27.30,583,-3769,7333,-1,0,0
-162.94,4.00,-27.30,579,-3769,7326,-1,-1,0
-162.94,4.00,-27.31,569,-3771,7321,-1,0,0
-162.94,4.00,-27.32,561,-3786,7310,-1,-1,-1
-162.94,4.01,-27.31,560,-3794,7310,0,-1,-1
-162.94,4.01,-27.31,571,-3803,7316,0,-1,-1
-162.94,4.02,-27.31,574,-3805,7337,0,-1,-1
-162.94,4.02,-27.31,586,-3793,7335,0,-1,0
-162.94,4.02,-27.30,600,-3780,7344,0,0,0
-162.94,4.02,-27.30,590,-3771,7336,0,0,0
-162.94,4.02,-27.29,578,-3767,7337,-1,0,0
-162.94,4.02,-27.29,573,-3767,7329,-1,0,0
-162.94,4.02,-27.29,559,-3771,7331,-1,-1,0
-162.94,4.02,-27.30,567,-3779,7334,-1,-1,0
-162.94,4.02,-27.30,577,-3784,7331,-1,-1,0
-162.94,4.02,-27.30,575,-3789,7325,0,-1,0
-162.94,4.02,-27.30,577,-3791,7325,0,-1,0
-162.94,4.02,-27.29,570,-3783,7336,0,-1,0
-162.94,4.02,-27.28,567,-3770,7339,0,0,0
-162.94,4.02,-27.28,578,-3771,7338,0,-1,-1
-162.94,4.02,-27.28,579,-3768,7329,-1,-1,0
-162.95,4.02,-27.28,579,-3778,7337,0,-1,0
-162.95,4.02,-27.28,586,-3778,7342,0,-1,0
-162.95,4.03,-27.28,575,-3771,7335,-1,-1,0
-162.95,4.03,-27.29,582,-3773,7326,-1,-1,0
-162.95,4.03,-27.29,586,-3780,7334,0,-1,0
-162.95,4.03,-27.29,584,-3780,7324,0,-1,0
-162.95,4.03,-27.29,583,-3780,7329,0,-1,0
-162.94,4.04,-27.29,586,-3779,7335,0,-1,0
-162.95,4.04,-27.28,585,-3778,7331,0,-1,0
-162.95,4.04,-27.28,583,-3779,7335,0,-1,0
-162.95,4.04,-27.28,580,-3779,7335,0,-1,-1
-162.95,4.04,-27.27,576,-3778,7338,0,-1,0
-162.95,4.04,-27.27,580,-3776,7341,0,-1,-1
-162.95,4.05,-27.27,586,-3769,7333,0,-1,0
-162.95,4.05,-27.27,587,-3775,7332,-1,-1,0
-162.95,4.05,-27.27,584,-3777,7338,0,-1,0
-162.95,4.05,-27.27,583,-3778,7326,0,-1,0
-162.95,4.05,-27.27,583,-3778,7329,0,-1,0
-162.95,4.05,-27.27,577,-3777,7334,0,0,-1
-162.95,4.05,-27.26,579,-3775,7338,0,0,-1
-162.95,4.05,-27.26,576,-3779,7335,0,-1,-1
-162.95,4.05,-27.26,581,-3781,7330,0,-1,-1
-162.95,4.05,-27.26,584,-3782,7321,0,-1,0
-162.95,4.06,-27.26,586,-3776,7316,0,-1,-1
-162.95,4.06,-27.26,592,-3782,7328,0,-1,0
-162.95,4.06,-27.26,593,-3775,7335,0,0,-1
-162.95,4.06,-27.26,588,-3769,7332,-1,0,0
-162.95,4.06,-27.26,582,-3764,7330,-1,0,0
-162.95,4.05,-27.27,578,-3764,7321,-1,-1,0
-162.96,4.05,-27.28,570,-3767,7320,-1,-1,0
-162.96,4.05,-27.29,572,-3793,7319,-1,-1,0
-162.96,4.06,-27.29,579,-3794,7335,0,-1,-1
-162.96,4.07,-27.28,575,-3794,7330,0,-1,-1
-162.96,4.07,-27.28,581,-3790,7324,0,-1,-1
-162.95,4.08,-27.28,591,-3789,7332,0,0,-1
-162.95,4.07,-27.27,598,-3770,7335,0,0,-1
-162.95,4.07,-27.26,596,-3760,7340,0,0,0
-162.96,4.06,-27.26,596,-3768,7331,-1,0,0
-162.96,4.06,-27.27,585,-3776,7327,-1,0,0
-162.97,4.05,-27.27,578,-3772,7326,-1,-1,0
-162.97,4.04,-27.29,574,-3778,7322,-1,-1,0
-162.98,4.04,-27.30,578,-3780,7329,-1,-1,0
-162.99,4.04,-27.30,583,-3789,7322,0,0,0
-162.99,4.04,-27.30,584,-3787,7319,0,0,0
-162.99,4.04,-27.30,587,-3790,7328,-1,0,0
-162.99,4.03,-27.30,584,-3785,7332,0,0,0
-162.99,4.03,-27.30,592,-3791,7329,0,0,0
-163.00,4.02,-27.31,586,-3784,7329,-1,-1,0
-163.00,4.01,-27.31,578,-3778,7336,-1,0,0
-163.00,4.01,-27.31,584,-3781,7334,-1,0,0
-163.01,4.01,-27.31,590,-3781,7330,-1,0,0
-163.01,4.00,-27.32,598,-3795,7324,-1,0,0
-163.02,4.00,-27.32,583,-3782,7331,-1,0,0
-163.02,3.99,-27.32,577,-3783,7333,-1,0,0
-163.03,3.99,-27.33,587,-3782,7331,-1,-1,0
-163.03,3.99,-27.33,578,-3784,7334,0,0,0
-163.03,3.98,-27.33,574,-3780,7322,0,0,0
-163.04,3.98,-27.33,560,-3782,7311,-1,-1,0
-163.04,3.98,-27.33,558,-3778,7322,-1,-1,0
-163.05,3.98,-27.35,546,-3781,7327,-1,-1,-1
-163.05,3.98,-27.36,554,-3787,7331,-1,-1,-1
-163.05,3.99,-27.38,567,-3788,7318,-1,-1,-1
-163.04,4.00,-27.38,572,-3791,7309,-1,-1,-1
-163.04,4.01,-27.40,583,-3789,7297,-1,-1,0
-163.04,4.01,-27.41,586,-3801,7293,-1,-1,0
-163.05,4.01,-27.41,576,-3805,7297,-1,-1,0
-163.05,4.01,-27.41,571,-3800,7321,0,-1,0
-163.05,4.01,-27.41,570,-3801,7323,0,-1,0
-163.05,4.02,-27.41,567,-3800,7315,0,-1,-1
-163.05,4.02,-27.40,573,-3793,7319,0,-1,-1
-163.05,4.04,-27.40,581,-3797,7327,0,-1,-1
-163.05,4.04,-27.39,589,-3792,7330,0,-1,-1
-163.05,4.05,-27.39,602,-3786,7332,-1,-1,0
-163.05,4.05,-27.40,597,-3787,7337,-1,0,0
-163.06,4.04,-27.40,588,-3788,7330,-1,0,0
-163.06,4.03,-27.41,573,-3786,7325,-1,0,0
-163.07,4.03,-27.42,563,-3788,7325,-1,-1,0
-163.07,4.03,-27.44,562,-3809,7330,-1,-1,-1
-163.07,4.04,-27.44,570,-3817,7310,-1,-1,-1
-163.06,4.04,-27.44,581,-3812,7307,0,0,-1
-163.05,4.05,-27.43,594,-3813,7312,0,0,-1
-163.05,4.05,-27.41,596,-3808,7313,0,0,-1
-163.04,4.04,-27.39,595,-3806,7323,0,0,-1
-163.04,4.04,-27.37,590,-3791,7331,0,0,-1
-163.03,4.04,-27.36,583,-3776,7347,0,0,-1
-163.03,4.04,-27.35,570,-3780,7330,0,-1,-1
-163.03,4.04,-27.35,567,-3788,7339,0,-1,-1
-163.02,4.05,-27.34,575,-3788,7336,0,-1,-1
-163.02,4.05,-27.35,574,-3785,7326,-1,-1,-1
-163.02,4.06,-27.35,585,-3793,7309,0,-1,-1
-163.02,4.06,-27.35,594,-3801,7317,0,0,-1
-163.01,4.06,-27.34,592,-3798,7318,0,0,-1
-163.01,4.06,-27.34,582,-3797,7325,0,0,-1
-163.01,4.06,-27.33,572,-3801,7326,0,0,-1
-163.01,4.06,-27.33,571,-3801,7322,0,-1,-1
-163.00,4.06,-27.32,576,-3776,7332,0,-1,-1
-163.00,4.06,-27.31,587,-3773,7328,0,-1,-1
-163.00,4.07,-27.31,596,-3782,7323,0,0,-1
-162.99,4.07,-27.30,597,-3774,7330,0,0,0
-163.00,4.07,-27.30,594,-3775,7325,0,0,0
-163.00,4.07,-27.29,595,-3777,7316,0,0,-1
-162.99,4.06,-27.29,589,-3778,7325,0,0,0
-162.99,4.05,-27.29,576,-3778,7325,0,0,-1
-162.99,4.05,-27.28,583,-3769,7323,0,0,-1
-162.99,4.05,-27.27,586,-3769,7329,0,0,-1
-162.98,4.05,-27.27,593,-3763,7338,-1,0,-1
-162.99,4.05,-27.27,592,-3771,7335,-1,-1,0
-162.99,4.05,-27.28,586,-3781,7329,-1,-1,0
-162.99,4.05,-27.29,591,-3779,7320,-1,0,-1
-162.99,4.05,-27.28,584,-3773,7335,-1,0,-1
-162.99,4.05,-27.28,583,-3779,7318,0,-1,-1
-162.98,4.06,-27.28,582,-3794,7331,0,0,0
-162.98,4.06,-27.27,581,-3783,7334,0,-1,-1
-162.98,4.06,-27.26,581,-3766,7335,0,-1,-1
-162.98,4.06,-27.26,580,-3767,7322,0,-1,-1
-162.98,4.07,-27.26,583,-3773,7312,0,-1,-1
-162.97,4.07,-27.26,589,-3774,7324,0,0,-1
-162.97,4.07,-27.26,594,-3771,7339,-1,-1,-1
-162.97,4.07,-27.26,586,-3772,7338,-1,0,-1
-162.97,4.07,-27.27,584,-3778,7326,-1,0,-1
-162.97,4.07,-27.27,587,-3781,7327,0,0,0
-162.97,4.07,-27.26,586,-3772,7330,-1,0,0
-162.97,4.06,-27.27,582,-3773,7319,-1,0,0
-162.97,4.07,-27.27,588,-3775,7313,0,-1,0
-162.97,4.07,-27.27,585,-3778,7318,0,-1,-1
-162.97,4.07,-27.26,586,-3778,7326,0,0,-1
-162.97,4.07,-27.26,599,-3774,7341,0,0,0
-162.96,4.07,-27.26,597,-3768,7350,0,0,0
-162.96,4.06,-27.25,590,-3762,7345,-1,0,0
-162.96,4.05,-27.25,582,-3760,7337,-1,0,0
-162.97,4.05,-27.26,566,-3771,7330,-1,0,0
-162.97,4.04,-27.27,560,-3778,7330,-1,0,0
-162.97,4.04,-27.27,572,-3778,7334,-1,-1,-1
-162.97,4.05,-27.28,582,-3780,7318,-1,-1,-1
-162.97,4.06,-27.28,588,-3788,7322,0,-1,-1
-162.96,4.06,-27.28,592,-3779,7331,0,0,-1
-162.96,4.06,-27.27,588,-3772,7331,0,0,-1
-162.96,4.06,-27.26,594,-3770,7328,0,0,0
-162.96,4.06,-27.26,591,-3756,7321,0,0,0
-162.97,4.05,-27.25,588,-3751,7326,0,0,0
-162.97,4.05,-27.25,580,-3760,7324,-1,-1,0
-162.97,4.05,-27.26,577,-3782,7323,0,-1,-1
-162.97,4.05,-27.27,577,-3784,7321,-1,-1,-1
-162.97,4.05,-27.26,584,-3789,7322,0,0,-1
-162.97,4.04,-27.27,592,-3784,7331,0,0,0
-162.97,4.04,-27.26,590,-3777,7331,0,0,0
-162.97,4.04,-27.26,582,-3771,7327,0,0,0
-162.97,4.03,-27.26,577,-3770,7328,-1,0,0
-162.98,4.02,-27.26,573,-3773,7332,-1,0,0
-162.98,4.01,-27.26,572,-3774,7329,-1,0,0
-162.98,4.01,-27.27,570,-3780,7328,-1,0,0
-162.98,4.01,-27.28,573,-3778,7331,-1,0,0
-162.98,4.01,-27.28,578,-3777,7328,-1,0,-1
-162.98,4.01,-27.28,586,-3771,7325,-1,0,0
-162.98,4.00,-27.28,581,-3772,7325,-1,0,0
-162.98,4.00,-27.29,576,-3783,7321,-1,0,0
-162.99,4.00,-27.29,574,-3788,7325,0,0,0
-162.99,4.00,-27.29,568,-3783,7329,0,0,0
-162.99,3.99,-27.29,559,-3783,7336,-1,-1,-1
-162.99,3.99,-27.29,559,-3775,7332,-1,-1,-1
-162.99,3.99,-27.29,571,-3783,7337,-1,-1,0
-162.99,4.00,-27.29,569,-3774,7335,-1,-1,0
-162.99,4.00,-27.29,581,-3770,7340,-1,-1,0
-162.99,4.00,-27.29,580,-3778,7338,-1,0,0
-162.99,4.00,-27.30,571,-3782,7328,-1,0,0
-162.99,4.00,-27.30,567,-3784,7329,0,-1,-1
-162.99,4.00,-27.30,572,-3781,7328,-1,-1,-1
-162.99,4.00,-27.30,564,-3788,7332,0,-1,-1
-162.99,4.00,-27.29,571,-3782,7339,0,-1,-1
-162.99,4.01,-27.29,578,-3782,7328,0,-1,0
-162.99,4.01,-27.29,578,-3772,7323,0,-1,-1
-162.99,4.01,-27.28,576,-3773,7331,0,-1,0
-162.99,4.01,-27.28,575,-3779,7335,0,-1,-1
-162.99,4.02,-27.29,578,-3785,7333,-1,-1,-1
-162.99,4.02,-27.29,580,-3786,7329,-1,-1,-1
-162.99,4.03,-27.29,583,-3781,7331,-1,-1,-1
-162.99,4.03,-27.30,589,-3786,7327,-1,-1,0
-162.98,4.04,-27.30,583,-3786,7322,-1,-1,-1
-162.98,4.04,-27.30,582,-3781,7317,0,-1,0
-162.98,4.04,-27.30,578,-3796,7322,0,-1,-1
-162.99,4.05,-27.29,582,-3792,7341,0,-1,-1
-162.98,4.06,-27.28,589,-3780,7350,0,0,-1
-162.98,4.05,-27.27,595,-3765,7347,0,0,-1
-162.98,4.05,-27.26,589,-3761,7335,0,0,0
-162.98,4.05,-27.26,583,-3756,7333,-1,-1,0
-162.99,4.04,-27.26,573,-3758,7334,-1,0,0
-162.99,4.05,-27.27,576,-3765,7335,-1,-1,0
-162.99,4.05,-27.28,569,-3781,7342,-1,-1,0
-162.99,4.05,-27.29,574,-3798,7342,-1,-1,-1
-162.99,4.05,-27.29,580,-3797,7342,-1,-1,-1
-162.99,4.06,-27.29,589,-3792,7328,0,-1,-1
-162.99,4.06,-27.29,595,-3787,7329,0,0,-1
-162.99,4.06,-27.28,593,-3777,7337,0,0,0
-162.99,4.06,-27.27,588,-3769,7333,0,0,0
-162.99,4.05,-27.26,578,-3770,7335,0,0,0
-162.99,4.05,-27.26,573,-3766,7328,-1,-1,0
-163.00,4.05,-27.27,562,-3765,7332,-1,-1,0
-163.00,4.05,-27.27,573,-3767,7327,-1,-1,0
-163.00,4.06,-27.28,581,-3773,7322,-1,-1,0
-163.00,4.06,-27.28,582,-3778,7325,-1,-1,-1
-163.00,4.06,-27.29,589,-3782,7320,0,0,0
-163.00,4.06,-27.29,585,-3782,7319,0,0,0
-163.00,4.06,-27.28,584,-3783,7326,0,-1,-1
-163.00,4.06,-27.28,577,-3778,7320,-1,-1,-1
-163.00,4.06,-27.29,582,-3775,7332,-1,-1,0
-163.00,4.06,-27.29,583,-3775,7324,-1,-1,0
-163.00,4.06,-27.29,582,-3770,7321,-1,-1,0
-163.01,4.06,-27.29,586,-3784,7331,-1,0,0
-163.01,4.06,-27.29,588,-3784,7340,-1,-1,0
-163.01,4.06,-27.29,583,-3778,7343,-1,-1,-1
-163.01,4.06,-27.29,585,-3780,7338,-1,-1,0
-163.00,4.06,-27.29,584,-3785,7327,0,-1,-1
-163.00,4.06,-27.29,591,-3790,7328,0,-1,0
-163.00,4.06,-27.29,589,-3783,7332,0,-1,0
-163.00,4.06,-27.29,591,-3780,7340,0,0,0
-163.00,4.06,-27.29,589,-3775,7344,0,0,0
-163.01,4.06,-27.29,581,-3776,7330,-1,-1,0
-163.01,4.06,-27.29,588,-3778,7331,-1,-1,0
-163.01,4.06,-27.29,581,-3774,7326,-1,-1,-1
-163.01,4.06,-27.30,584,-3785,7324,-1,0,0
-163.01,4.07,-27.30,590,-3782,7331,-1,-1,0
-163.01,4.07,-27.30,593,-3781,7329,-1,-1,0
-163.01,4.07,-27.30,592,-3790,7327,0,0,0
-163.01,4.07,-27.30,588,-3791,7334,0,0,0
-163.02,4.07,-27.31,586,-3790,7324,0,0,0
-163.02,4.07,-27.30,584,-3778,7338,0,-1,-1
-163.02,4.07,-27.30,577,-3781,7329,-1,-1,0
-163.02,4.06,-27.30,576,-3785,7330,0,-1,0
-163.02,4.07,-27.30,581,-3779,7325,0,-1,-1
-163.02,4.07,-27.30,592,-3774,7331,0,-1,-1
-163.02,4.07,-27.30,590,-3769,7332,-1,-1,0
-163.01,4.08,-27.30,595,-3777,7335,-1,0,0
-163.02,4.07,-27.30,589,-3772,7330,-1,0,0
-163.02,4.07,-27.31,580,-3766,7317,-1,0,0
-163.02,4.06,-27.31,582,-3775,7310,-1,-1,0
-163.02,4.06,-27.32,576,-3777,7309,-1,-1,0
-163.03,4.07,-27.33,582,-3794,7313,-1,-1,-1
-163.02,4.08,-27.33,595,-3794,7318,0,-1,-1
-163.02,4.08,-27.32,588,-3785,7321,0,-1,-1
-163.02,4.08,-27.32,584,-3784,7321,0,-1,-1
-163.02,4.08,-27.31,599,-3781,7329,0,0,0
-163.02,4.08,-27.30,604,-3774,7334,0,0,0
-163.02,4.08,-27.30,599,-3769,7343,-1,0,0
-163.03,4.07,-27.31,589,-3778,7340,-1,0,0
-163.03,4.07,-27.32,585,-3781,7330,-1,-1,0
-163.03,4.07,-27.33,578,-3783,7325,-1,-1,0
-163.04,4.08,-27.33,586,-3787,7324,-1,-1,0
-163.04,4.08,-27.35,588,-3800,7317,-1,-1,0
-163.04,4.08,-27.35,586,-3803,7333,-1,0,0
-163.04,4.07,-27.35,587,-3802,7323,0,0,0
-163.04,4.07,-27.35,591,-3797,7327,0,0,0
-163.04,4.06,-27.35,585,-3793,7320,0,0,0
-163.04,4.06,-27.35,580,-3789,7322,-1,0,0
-163.04,4.06,-27.35,586,-3787,7334,-1,0,0
-163.05,4.06,-27.35,591,-3786,7334,-1,-1,0
-163.05,4.06,-27.36,585,-3783,7334,-1,-1,0
-163.05,4.06,-27.37,580,-3790,7320,-1,0,0
-163.05,4.06,-27.38,591,-3800,7313,-1,-1,0
-163.05,4.06,-27.38,585,-3803,7328,-1,-1,0
-163.05,4.06,-27.39,588,-3795,7323,-1,-1,0
-163.06,4.06,-27.39,584,-3790,7317,-1,-1,0
-163.06,4.06,-27.39,579,-3790,7318,-1,0,0
-163.06,4.05,-27.39,577,-3794,7316,0,0,0
-163.06,4.05,-27.39,577,-3791,7320,-1,-1,-1
-163.06,4.05,-27.39,588,-3787,7329,-1,-1,0
-163.06,4.05,-27.39,584,-3787,7321,-1,-1,0
-163.06,4.06,-27.40,587,-3786,7313,-1,-1,0
-163.06,4.06,-27.41,585,-3795,7315,-1,0,0
-163.06,4.06,-27.40,590,-3790,7321,0,0,0
-163.06,4.05,-27.40,582,-3788,7325,0,0,0
-163.06,4.05,-27.39,580,-3779,7315,0,0,-1
-163.06,4.05,-27.39,581,-3785,7310,0,0,-1
-163.06,4.05,-27.38,585,-3796,7323,0,-1,0
-163.06,4.05,-27.37,591,-3801,7320,0,0,0
-163.06,4.05,-27.37,592,-3804,7318,0,0,-1
-163.05,4.05,-27.35,591,-3793,7326,0,0,-1
-163.04,4.06,-27.34,592,-3782,7331,0,0,-1
-163.04,4.05,-27.33,590,-3771,7339,0,0,-1
-163.04,4.05,-27.32,588,-3765,7336,-1,0,-1
-163.03,4.05,-27.32,586,-3761,7330,-1,-1,0
-163.04,4.05,-27.33,576,-3761,7323,-1,-1,-1
-163.03,4.06,-27.34,583,-3783,7322,-1,-1,-1
-163.03,4.06,-27.34,582,-3788,7318,-1,-1,-1
-163.03,4.06,-27.34,580,-3796,7315,0,-1,-1
-163.03,4.06,-27.34,584,-3807,7316,0,-1,-1
-163.03,4.06,-27.32,594,-3805,7310,0,0,-1
-163.02,4.07,-27.31,594,-3795,7324,0,0,-1
-163.02,4.07,-27.29,592,-3782,7334,0,0,-1
-163.01,4.06,-27.28,588,-3764,7351,0,0,0
-163.01,4.06,-27.27,582,-3766,7340,0,0,-1
-163.01,4.06,-27.26,576,-3764,7352,-1,-1,0
-163.02,4.06,-27.27,576,-3769,7339,-1,-1,0
-163.02,4.06,-27.27,577,-3779,7337,-1,-1,0
-163.02,4.06,-27.28,581,-3784,7331,-1,-1,0
-163.02,4.06,-27.28,575,-3785,7325,-1,-1,-1
-163.02,4.06,-27.28,589,-3785,7319,0,0,-1
-163.01,4.07,-27.27,591,-3776,7318,0,0,-1
-163.01,4.06,-27.26,589,-3771,7325,0,0,0
-163.01,4.06,-27.26,586,-3780,7327,0,-1,-1
-163.01,4.06,-27.26,587,-3780,7321,0,-1,-1
-163.01,4.06,-27.26,591,-3777,7331,-1,0,0
-163.01,4.06,-27.26,591,-3764,7333,-1,0,0
-163.01,4.06,-27.26,588,-3760,7327,-1,-1,0
-163.01,4.06,-27.26,591,-3778,7321,-1,0,-1
-163.01,4.06,-27.26,593,-3781,7322,0,0,-1
-163.00,4.05,-27.26,590,-3776,7326,0,0,-1
-163.00,4.05,-27.26,591,-3781,7317,0,0,0
-163.01,4.05,-27.27,593,-3779,7322,0,0,0
-163.01,4.05,-27.26,591,-3776,7333,0,0,0
-163.01,4.05,-27.26,582,-3771,7332,-1,0,0
-163.01,4.05,-27.26,580,-3771,7325,-1,0,-1
-163.01,4.05,-27.26,586,-3779,7331,0,0,0
-163.01,4.04,-27.26,588,-3768,7328,-1,0,0
-163.01,4.04,-27.27,586,-3777,7337,-1,-1,0
-163.01,4.04,-27.27,590,-3787,7327,-1,0,0
-163.01,4.04,-27.27,588,-3781,7332,0,0,0
-163.01,4.04,-27.26,587,-3776,7336,0,0,-1
-163.01,4.03,-27.26,583,-3777,7338,-1,-1,0
-163.00,4.03,-27.26,582,-3782,7338,0,0,-1
-163.00,4.03,-27.25,589,-3780,7335,0,0,0
-163.00,4.03,-27.25,591,-3779,7334,0,0,0
-163.00,4.03,-27.25,592,-3774,7329,-1,0,0
-163.01,4.02,-27.25,578,-3775,7322,0,0,0
-163.01,4.02,-27.25,582,-3785,7318,0,-1,0
-163.01,4.02,-27.25,579,-3786,7323,0,-1,-1
-163.01,4.03,-27.25,584,-3775,7331,0,0,-1
-163.00,4.03,-27.24,589,-3778,7336,0,-1,-1
-163.00,4.03,-27.24,602,-3776,7337,0,0,0
-163.00,4.02,-27.25,596,-3770,7340,0,0,0
-163.00,4.02,-27.25,586,-3768,7345,-1,0,0
-163.01,4.01,-27.25,573,-3762,7336,-1,0,0
-163.02,4.00,-27.26,562,-3776,7322,-1,-1,-1
-163.02,4.00,-27.26,557,-3784,7329,-1,-1,-1
-163.02,4.01,-27.27,569,-3787,7328,-1,-1,-1
-163.01,4.01,-27.27,581,-3794,7325,0,-1,-1
-163.01,4.02,-27.27,596,-3793,7318,0,-1,0
-163.01,4.02,-27.27,600,-3792,7328,0,0,0
-163.01,4.01,-27.26,596,-3778,7351,0,0,0
-163.01,4.00,-27.25,584,-3764,7351,0,0,0
-163.01,4.00,-27.25,573,-3768,7336,-1,0,0
-163.01,4.00,-27.25,575,-3769,7342,-1,0,0
-163.01,4.00,-27.25,571,-3771,7332,-1,-1,0
-163.01,4.00,-27.26,580,-3774,7325,-1,0,0
-163.01,4.00,-27.27,583,-3783,7325,-1,-1,-1
-163.02,4.00,-27.27,582,-3795,7331,-1,0,0
-163.02,4.00,-27.28,585,-3794,7332,0,0,-1
-163.01,4.00,-27.27,578,-3783,7335,0,0,-1
-163.01,3.99,-27.27,579,-3785,7332,0,0,0
-163.01,3.99,-27.27,573,-3781,7339,0,-1,-1
-163.01,3.99,-27.27,575,-3774,7344,0,0,-1
-163.00,3.99,-27.26,577,-3771,7339,0,0,-1
-163.00,3.99,-27.27,579,-3775,7330,-1,-1,0
-163.01,3.99,-27.27,582,-3777,7332,-1,-1,0
-163.01,3.99,-27.27,584,-3776,7330,-1,-1,0
-163.01,3.99,-27.27,578,-3784,7336,0,0,0
-163.01,3.99,-27.27,575,-3786,7335,-1,-1,0
-163.01,3.99,-27.27,580,-3786,7336,0,-1,0
-163.01,4.00,-27.26,578,-3786,7323,0,-1,0
-163.01,4.00,-27.26,582,-3789,7341,0,-1,0
-163.01,4.00,-27.25,593,-3774,7347,0,-1,0
-163.01,4.00,-27.25,587,-3771,7348,-1,-1,-1
-163.01,4.01,-27.26,586,-3772,7334,-1,-1,-1
-163.01,4.01,-27.26,584,-3776,7331,0,-1,-1
-163.01,4.02,-27.25,585,-3768,7339,-1,-1,0
-163.01,4.02,-27.25,584,-3772,7342,-1,-1,0
-163.01,4.02,-27.26,582,-3780,7340,-1,-1,0
-163.01,4.03,-27.26,584,-3784,7323,-1,-1,0
-163.00,4.03,-27.26,581,-3780,7330,0,-1,0
-163.01,4.03,-27.26,584,-3784,7326,0,-1,0
-163.01,4.03,-27.26,590,-3776,7324,0,-1,0
-163.01,4.03,-27.25,585,-3778,7326,0,-1,0
-163.00,4.04,-27.25,599,-3772,7348,0,-1,0
-163.00,4.04,-27.25,592,-3774,7344,-1,-1,0
-163.00,4.04,-27.25,588,-3770,7335,-1,-1,-1
-163.01,4.04,-27.25,583,-3775,7333,-1,-1,0
-163.01,4.04,-27.25,586,-3779,7322,-1,-1,0
-163.01,4.05,-27.26,585,-3777,7315,-1,-1,0
-163.01,4.04,-27.26,578,-3784,7316,-1,-1,0
-163.01,4.04,-27.27,576,-3783,7312,0,-1,0
-163.01,4.05,-27.27,579,-3787,7328,0,-1,-1
-163.01,4.05,-27.26,592,-3785,7327,0,-1,-1
-163.00,4.05,-27.26,596,-3775,7332,0,-1,-1
-163.00,4.05,-27.25,600,-3766,7335,0,0,0
-163.00,4.04,-27.24,587,-3760,7330,0,0,0
-163.01,4.03,-27.24,577,-3763,7322,-1,0,0
-163.02,4.03,-27.25,566,-3769,7328,-1,0,0
-163.02,4.03,-27.25,571,-3776,7330,-1,0,0
-163.02,4.02,-27.26,564,-3777,7331,-1,-1,0
-163.02,4.03,-27.26,570,-3787,7319,0,-1,-1
-163.02,4.03,-27.26,581,-3797,7335,0,-1,-1
-163.01,4.04,-27.25,587,-3779,7334,0,0,-1
-163.01,4.04,-27.25,585,-3780,7330,-1,-1,0
-163.01,4.04,-27.25,591,-3778,7331,0,0,0
-163.01,4.04,-27.25,589,-3777,7337,0,-1,0
-163.02,4.03,-27.25,585,-3781,7335,-1,-1,0
-163.02,4.03,-27.26,576,-3779,7321,-1,0,0
-163.02,4.04,-27.27,575,-3790,7320,0,-1,-1
-163.02,4.04,-27.27,576,-3782,7323,-1,-1,0
-163.02,4.04,-27.27,576,-3781,7319,-1,-1,-1
-163.02,4.04,-27.27,582,-3782,7310,0,0,0
-163.02,4.04,-27.27,579,-3786,7319,0,-1,0
-163.02,4.04,-27.27,577,-3777,7333,0,-1,0
-163.02,4.03,-27.26,575,-3769,7342,-1,-1,0
-163.02,4.04,-27.26,583,-3767,7340,-1,0,-1
-163.02,4.04,-27.27,589,-3770,7328,-1,-1,-1
-163.02,4.04,-27.27,593,-3774,7333,-1,-1,0
-163.02,4.04,-27.27,594,-3775,7335,-1,-1,0
-163.02,4.04,-27.27,591,-3776,7334,-1,-1,0
-163.03,4.04,-27.27,592,-3778,7333,-1,-1,0
-163.03,4.04,-27.27,585,-3784,7333,-1,-1,0
-163.03,4.04,-27.27,578,-3777,7334,0,-1,-1
-163.03,4.04,-27.27,585,-3774,7338,0,0,-1
-163.03,4.04,-27.27,582,-3776,7339,0,0,0
-163.03,4.04,-27.27,581,-3774,7332,0,-1,0
-163.03,4.05,-27.27,584,-3777,7321,-1,-1,0
-163.03,4.05,-27.27,587,-3787,7334,0,-1,-1
-163.02,4.06,-27.27,581,-3788,7340,0,-1,-1
-163.02,4.06,-27.27,572,-3784,7330,-1,-1,-1
-163.02,4.06,-27.28,575,-3781,7337,-1,-1,-1
-163.02,4.06,-27.28,590,-3777,7331,-1,-1,-1
-163.02,4.06,-27.28,590,-3776,7330,-1,0,0
-163.02,4.06,-27.28,586,-3776,7324,-1,0,0
-163.02,4.06,-27.28,581,-3774,7332,0,0,-1
-163.03,4.05,-27.28,572,-3775,7325,-1,-1,0
-163.02,4.06,-27.27,581,-3780,7332,0,-1,-1
-163.02,4.06,-27.27,588,-3774,7335,0,-1,-1
-163.02,4.06,-27.27,594,-3771,7330,-1,0,-1
-163.02,4.06,-27.27,597,-3763,7334,-1,-1,-1
-163.02,4.06,-27.28,590,-3776,7316,-1,-1,0
-163.02,4.06,-27.28,575,-3782,7311,-1,-1,0
-163.02,4.06,-27.28,581,-3788,7315,0,-1,-1
-163.02,4.06,-27.28,583,-3791,7320,0,-1,-1
-163.02,4.07,-27.28,590,-3789,7329,0,-1,-1
-163.02,4.07,-27.28,594,-3777,7346,0,0,0
-163.02,4.07,-27.28,595,-3772,7342,-1,0,0
-163.03,4.06,-27.28,587,-3774,7331,-1,0,0
-163.03,4.06,-27.28,577,-3772,7327,-1,-1,0
-163.04,4.06,-27.29,576,-3786,7321,-1,-1,0
-163.04,4.06,-27.31,574,-3786,7323,-1,-1,-1
-163.04,4.06,-27.31,575,-3793,7328,-1,-1,-1
-163.04,4.07,-27.31,585,-3798,7323,0,-1,-1
-163.03,4.07,-27.31,596,-3801,7328,0,-1,0
-163.03,4.08,-27.30,596,-3796,7334,0,-1,0
-163.03,4.08,-27.30,594,-3792,7332,0,0,0
-163.04,4.07,-27.31,589,-3776,7341,-1,0,0
-163.04,4.06,-27.31,582,-3771,7326,-1,0,0
-163.04,4.06,-27.31,575,-3768,7333,-1,-1,0
-163.04,4.06,-27.32,577,-3784,7333,-1,-1,0
-163.05,4.06,-27.33,584,-3794,7336,-1,-1,0
-163.05,4.07,-27.33,585,-3793,7321,-1,-1,0
-163.06,4.07,-27.34,585,-3801,7303,-1,-1,0
-163.06,4.07,-27.35,590,-3797,7300,0,-1,0
-163.06,4.07,-27.35,598,-3796,7302,0,0,0
-163.06,4.07,-27.35,595,-3788,7315,0,0,0
-163.06,4.07,-27.34,592,-3784,7325,-1,0,0
-163.06,4.06,-27.34,587,-3776,7334,-1,0,0
-163.07,4.06,-27.34,584,-3775,7328,-1,-1,0
-163.07,4.06,-27.35,584,-3778,7322,-1,-1,0
-163.07,4.07,-27.36,589,-3786,7322,-1,0,0
-163.07,4.06,-27.37,589,-3793,7322,-1,0,0
-163.07,4.06,-27.37,590,-3797,7326,0,0,0
-163.07,4.05,-27.37,591,-3803,7321,0,0,-1
-163.07,4.05,-27.36,584,-3803,7318,0,0,0
-163.06,4.05,-27.35,576,-3793,7324,0,0,-1
-163.07,4.04,-27.35,575,-3793,7316,0,0,0
-163.06,4.05,-27.33,586,-3781,7331,0,0,-1
-163.05,4.05,-27.32,583,-3778,7339,0,0,-1
-163.05,4.05,-27.32,586,-3779,7351,0,0,-1
-163.05,4.05,-27.32,591,-3787,7346,0,0,-1
-163.05,4.05,-27.31,594,-3786,7338,0,-1,0
-163.05,4.05,-27.31,588,-3786,7338,-1,-1,-1
-163.05,4.05,-27.31,591,-3785,7328,0,-1,-1
-163.05,4.06,-27.31,589,-3790,7322,0,0,-1
-163.04,4.05,-27.30,590,-3789,7327,0,0,-1
-163.04,4.06,-27.30,595,-3784,7328,0,0,-1
-163.04,4.06,-27.29,587,-3787,7329,0,0,-1
-163.04,4.05,-27.28,596,-3778,7340,0,0,-1
-163.04,4.05,-27.27,586,-3766,7332,0,0,-1
-163.03,4.05,-27.27,590,-3767,7325,0,-1,-1
-163.03,4.05,-27.27,596,-3772,7324,0,-1,-1
-163.03,4.05,-27.26,592,-3772,7336,-1,0,0
-163.03,4.05,-27.27,576,-3777,7332,-1,-1,-1
-163.03,4.05,-27.27,575,-3787,7323,-1,-1,0
-163.03,4.05,-27.27,583,-3785,7328,0,-1,-1
-163.03,4.06,-27.26,589,-3783,7323,0,-1,-1
-163.02,4.06,-27.26,599,-3790,7326,0,0,-1
-163.02,4.06,-27.25,600,-3785,7341,0,0,-1
-163.02,4.05,-27.24,595,-3770,7331,0,0,-1
-163.02,4.04,-27.23,582,-3759,7339,-1,0,0
-163.02,4.04,-27.23,572,-3757,7331,0,0,0
-163.03,4.03,-27.23,569,-3768,7336,-1,0,0
-163.02,4.02,-27.23,574,-3772,7346,-1,0,-1
-163.02,4.03,-27.24,569,-3785,7341,-1,-1,-1
-163.02,4.03,-27.24,580,-3789,7341,0,0,-1
-163.02,4.03,-27.25,593,-3785,7318,0,0,-1
-163.01,4.03,-27.24,590,-3780,7331,0,-1,0
-163.01,4.02,-27.23,595,-3768,7331,0,0,-1
-163.01,4.02,-27.22,594,-3767,7338,0,0,0
-163.01,4.01,-27.23,582,-3776,7315,0,0,-1
-163.01,4.01,-27.23,578,-3778,7346,-1,-1,0
-163.01,4.00,-27.22,571,-3770,7342,0,0,-1
-163.01,4.00,-27.23,576,-3774,7335,0,0,-1
-163.01,4.00,-27.22,562,-3767,7315,-1,-1,-1
-163.01,4.00,-27.23,575,-3768,7315,-1,0,-1
-163.01,3.99,-27.22,571,-3774,7331,0,0,-1
-163.01,3.99,-27.22,584,-3778,7331,0,0,0
-163.01,3.99,-27.21,577,-3771,7333,0,0,-1
-163.01,3.99,-27.21,572,-3773,7340,-1,-1,0
-163.01,3.99,-27.21,577,-3768,7355,0,0,-1
-163.01,4.00,-27.21,590,-3767,7326,0,-1,0
-163.01,4.00,-27.21,579,-3774,7331,-1,-1,0
-163.01,3.99,-27.21,577,-3765,7334,0,0,0
-163.01,3.99,-27.20,578,-3759,7337,-1,0,0
-163.02,3.98,-27.21,568,-3762,7336,-1,0,0
-163.02,3.98,-27.22,568,-3760,7332,-1,0,0
-163.02,3.98,-27.23,570,-3772,7332,-1,-1,0
-163.02,3.99,-27.24,568,-3780,7319,-1,-1,0
-163.02,3.99,-27.24,572,-3776,7324,-1,-1,-1
-163.02,3.99,-27.24,578,-3777,7321,-1,-1,-1
-163.02,4.00,-27.26,581,-3784,7318,-1,-1,-1
-163.02,4.00,-27.26,591,-3792,7317,0,0,0
-163.01,4.00,-27.25,587,-3793,7331,0,0,-1
-163.01,4.00,-27.24,582,-3777,7343,0,0,0
-163.01,3.99,-27.24,569,-3770,7341,-1,0,-1
-163.01,3.99,-27.24,573,-3771,7337,-1,-1,-1
-163.01,3.99,-27.24,569,-3765,7332,-1,-1,-1
-163.01,3.99,-27.24,575,-3773,7336,-1,-1,-1
-163.01,3.99,-27.25,576,-3776,7344,-1,0,0
-163.01,3.99,-27.25,577,-3780,7335,-1,-1,0
-163.00,3.99,-27.25,575,-3779,7338,0,0,-1
-163.00,3.98,-27.24,567,-3781,7337,0,0,-1
-163.00,3.99,-27.24,563,-3780,7332,0,-1,-1
-163.00,3.99,-27.24,574,-3782,7334,0,0,-1
-163.00,3.99,-27.24,591,-3777,7338,0,0,-1
-163.00,3.99,-27.23,601,-3771,7337,-1,0,-1
-162.99,3.98,-27.23,577,-3770,7351,-1,0,0
-162.99,3.97,-27.24,584,-3765,7348,-1,0,0
-163.00,3.97,-27.25,573,-3778,7344,-1,-1,0
-163.00,3.97,-27.25,562,-3775,7333,-1,0,-1
-163.00,3.97,-27.27,563,-3788,7315,-1,-1,-1
-163.00,3.98,-27.27,572,-3800,7333,0,-1,-1
-163.00,3.98,-27.26,591,-3792,7338,0,0,-1
-162.99,3.98,-27.25,600,-3770,7330,0,0,0
-163.00,3.97,-27.25,593,-3761,7334,0,0,0
-163.00,3.97,-27.25,581,-3757,7314,-1,0,0
-163.00,3.97,-27.25,564,-3769,7331,0,0,0
-163.01,3.96,-27.25,553,-3762,7334,-1,-1,0
-163.01,3.97,-27.26,553,-3771,7325,-1,-1,0
-163.01,3.98,-27.27,569,-3785,7323,-1,-1,-1
-163.01,3.99,-27.27,572,-3793,7320,0,-1,-1
-163.01,3.99,-27.27,578,-3781,7322,0,-1,-1
-163.00,3.99,-27.27,581,-3784,7322,0,-1,-1
-163.00,4.00,-27.26,586,-3783,7339,0,-1,0
-163.00,4.00,-27.25,579,-3774,7337,0,-1,0
-163.00,4.00,-27.24,572,-3766,7336,0,0,0
-163.00,3.99,-27.24,565,-3762,7337,0,-1,-1
-163.00,3.99,-27.24,563,-3767,7338,-1,-1,0
-163.01,4.00,-27.24,565,-3772,7341,-1,-1,0
-163.01,4.00,-27.24,579,-3772,7342,-1,-1,0
-163.01,4.00,-27.24,574,-3776,7340,-1,-1,0
-163.01,4.00,-27.24,574,-3770,7348,-1,-1,0
-163.01,4.00,-27.25,572,-3776,7342,-1,-1,0
-163.01,4.00,-27.25,570,-3783,7320,0,-1,0
-163.01,4.00,-27.25,577,-3777,7324,0,-1,-1
-163.01,4.01,-27.25,583,-3779,7325,0,-1,0
-163.01,4.01,-27.25,580,-3777,7333,-1,-1,0
-163.01,4.02,-27.25,578,-3777,7328,0,-1,0
-163.01,4.02,-27.25,583,-3773,7333,-1,-1,0
-163.01,4.02,-27.25,582,-3770,7327,-1,-1,0
-163.02,4.02,-27.25,583,-3778,7323,-1,0,0
-163.02,4.01,-27.25,577,-3774,7324,0,-1,0
-163.02,4.01,-27.25,572,-3787,7342,0,-1,0
-163.02,4.01,-27.25,578,-3785,7345,0,-1,0
-163.02,4.02,-27.25,573,-3777,7337,-1,-1,-1
-163.02,4.02,-27.25,560,-3768,7329,-1,-1,-1
-163.02,4.02,-27.25,567,-3763,7324,-1,-1,-1
-163.02,4.03,-27.25,588,-3762,7333,0,-1,0
-163.02,4.03,-27.25,585,-3765,7323,-1,-1,0
-163.01,4.04,-27.25,587,-3770,7332,-1,-1,0
-163.02,4.03,-27.25,591,-3767,7332,0,0,0
-163.02,4.03,-27.25,583,-3770,7322,0,0,0
-163.02,4.03,-27.25,584,-3772,7333,0,-1,0
-163.02,4.04,-27.24,580,-3779,7336,0,-1,-1
-163.02,4.04,-27.24,582,-3780,7340,0,-1,-1
-163.02,4.04,-27.24,586,-3768,7339,0,-1,0
-163.02,4.04,-27.24,584,-3774,7339,-1,-1,0
-163.02,4.04,-27.24,584,-3777,7332,-1,-1,0
-163.02,4.04,-27.24,581,-3777,7338,-1,-1,0
-163.02,4.04,-27.24,582,-3778,7331,-1,-1,0
-163.02,4.05,-27.24,585,-3774,7330,-1,0,-1
-163.02,4.05,-27.24,587,-3774,7341,-1,0,-1
-163.02,4.05,-27.25,592,-3781,7333,-1,-1,0
-163.02,4.05,-27.25,586,-3782,7322,0,0,0
-163.02,4.05,-27.25,581,-3786,7322,0,-1,0
-163.02,4.05,-27.25,588,-3786,7337,0,0,0
-163.02,4.05,-27.25,593,-3781,7333,0,0,-1
-163.02,4.05,-27.24,596,-3777,7329,0,0,0
-163.02,4.05,-27.24,592,-3779,7338,-1,0,0
-163.02,4.04,-27.24,588,-3770,7331,0,0,0
-163.03,4.03,-27.25,573,-3771,7324,-1,-1,0
-163.03,4.03,-27.25,570,-3764,7321,-1,0,0
-163.03,4.03,-27.25,575,-3781,7319,0,0,0
-163.03,4.03,-27.25,585,-3775,7326,0,0,-1
-163.03,4.02,-27.24,588,-3768,7348,-1,0,0
-163.03,4.02,-27.24,595,-3752,7362,-1,0,0
-163.03,4.02,-27.25,584,-3748,7337,-1,0,0
-163.04,4.02,-27.26,577,-3761,7332,-1,-1,0
-163.05,4.01,-27.28,575,-3767,7313,-1,-1,0
-163.05,4.01,-27.29,575,-3776,7302,-1,-1,0
-163.05,4.01,-27.30,572,-3799,7314,-1,-1,0
-163.05,4.02,-27.30,576,-3828,7318,0,-1,-1
-163.05,4.02,-27.30,574,-3823,7316,0,-1,-1
-163.04,4.03,-27.28,577,-3806,7312,0,0,0
-163.04,4.02,-27.27,583,-3783,7311,0,0,0
-163.04,4.02,-27.25,584,-3761,7320,0,0,0
-163.04,4.01,-27.25,577,-3740,7335,-1,0,0
-163.04,4.01,-27.25,569,-3745,7343,-1,-1,0
-163.04,4.02,-27.26,573,-3755,7345,-1,-1,0
-163.05,4.02,-27.28,572,-3771,7337,-1,-1,0
-163.05,4.03,-27.29,578,-3779,7335,-1,-1,0
-163.05,4.04,-27.29,592,-3788,7315,-1,-1,-1
-163.05,4.04,-27.30,591,-3789,7315,0,-1,-1
-163.05,4.04,-27.30,592,-3795,7315,0,0,-1
-163.04,4.04,-27.29,589,-3795,7321,0,0,-1
-163.04,4.04,-27.28,589,-3789,7332,0,0,-1
-163.04,4.04,-27.27,584,-3768,7340,0,-1,0
-163.04,4.04,-27.27,584,-3767,7346,0,-1,-1
-163.04,4.04,-27.26,586,-3767,7345,-1,-1,0
-163.04,4.05,-27.27,585,-3763,7337,-1,-1,0
-163.04,4.05,-27.28,586,-3764,7337,-1,-1,0
-163.05,4.05,-27.29,588,-3775,7331,-1,-1,0
-163.05,4.05,-27.30,592,-3787,7324,-1,0,0
-163.05,4.05,-27.32,592,-3800,7316,-1,-1,0
-163.05,4.06,-27.32,591,-3802,7318,-1,-1,0
-163.05,4.06,-27.33,587,-3802,7309,0,-1,0
-163.05,4.07,-27.33,590,-3804,7324,0,-1,-1
-163.05,4.08,-27.32,588,-3800,7326,0,-1,0
-163.05,4.08,-27.32,590,-3789,7330,0,-1,0
-163.05,4.08,-27.31,595,-3781,7329,0,0,0
-163.05,4.08,-27.31,597,-3784,7335,0,-1,0
-163.06,4.08,-27.31,588,-3778,7324,-1,-1,0
-163.07,4.08,-27.32,590,-3784,7323,-1,0,0
-163.07,4.07,-27.32,585,-3791,7321,0,0,0
-163.06,4.07,-27.31,588,-3784,7338,0,0,0
-163.06,4.07,-27.31,591,-3780,7338,0,0,-1
-163.06,4.06,-27.31,595,-3774,7331,0,0,-1
-163.06,4.06,-27.29,596,-3767,7335,0,0,-1
-163.06,4.06,-27.29,584,-3759,7338,-1,0,0
-163.06,4.05,-27.29,580,-3765,7323,-1,0,0
-163.06,4.05,-27.29,578,-3774,7328,0,0,-1
-163.06,4.05,-27.29,569,-3786,7323,0,-1,-1
-163.06,4.05,-27.29,569,-3796,7321,0,-1,-1
-163.05,4.06,-27.29,582,-3805,7320,0,-1,-1
-163.05,4.06,-27.28,598,-3795,7320,0,0,-1
-163.04,4.06,-27.26,598,-3783,7333,0,0,-1
-163.04,4.05,-27.25,598,-3771,7331,0,0,0
-163.04,4.05,-27.24,593,-3767,7333,0,0,0
-163.04,4.05,-27.23,577,-3773,7334,0,0,0
-163.04,4.04,-27.24,568,-3767,7337,-1,0,0
-163.04,4.04,-27.24,571,-3774,7340,-1,-1,-1
-163.04,4.04,-27.24,580,-3770,7335,-1,-1,0
-163.04,4.05,-27.24,576,-3790,7331,-1,-1,-1
-163.04,4.05,-27.24,576,-3798,7327,0,-1,-1
-163.03,4.05,-27.24,574,-3791,7330,0,-1,-1
-163.03,4.05,-27.23,579,-3784,7327,0,-1,-1
-163.03,4.06,-27.23,580,-3784,7328,0,-1,-1
-163.03,4.07,-27.22,588,-3772,7338,0,-1,-1
-163.02,4.07,-27.21,594,-3767,7341,0,-1,-1
-163.02,4.08,-27.20,601,-3767,7339,0,-1,0
-163.02,4.08,-27.20,605,-3762,7338,0,0,-1
-163.02,4.08,-27.20,606,-3760,7329,0,0,-1
-163.02,4.07,-27.20,596,-3760,7336,-1,0,0
-163.02,4.07,-27.20,586,-3764,7341,-1,0,0
-163.02,4.06,-27.20,592,-3774,7334,-1,-1,0
-163.02,4.07,-27.21,586,-3772,7324,-1,0,0
-163.02,4.07,-27.21,580,-3776,7320,0,0,0
-163.02,4.07,-27.21,580,-3781,7329,0,0,-1
-163.03,4.06,-27.21,586,-3782,7333,0,0,0
-163.02,4.06,-27.20,591,-3777,7324,0,0,-1
-163.02,4.06,-27.20,590,-3773,7322,0,0,0
-163.02,4.06,-27.21,589,-3775,7328,0,0,-1
-163.02,4.06,-27.20,592,-3774,7335,0,0,0
-163.02,4.06,-27.20,586,-3773,7334,-1,0,-1
-163.02,4.05,-27.21,583,-3771,7330,-1,0,0
-163.02,4.05,-27.21,591,-3766,7327,-1,0,0
-163.02,4.05,-27.21,589,-3768,7324,-1,0,0
-163.02,4.05,-27.21,587,-3774,7326,0,0,0
-163.02,4.05,-27.21,579,-3776,7336,0,0,0
-163.02,4.05,-27.21,578,-3772,7330,-1,0,-1
-163.02,4.04,-27.21,576,-3769,7321,0,0,-1
-163.01,4.05,-27.20,586,-3763,7318,0,0,-1
-163.02,4.04,-27.20,592,-3762,7337,-1,0,-1
-163.02,4.04,-27.20,586,-3768,7333,-1,0,0
-163.02,4.04,-27.21,582,-3774,7330,0,0,0
-163.02,4.04,-27.20,586,-3777,7336,0,0,0
-163.02,4.04,-27.20,592,-3774,7337,0,0,-1
-163.01,4.05,-27.20,602,-3774,7348,0,0,-1
-163.01,4.04,-27.19,589,-3767,7353,-1,0,0
-163.02,4.03,-27.19,581,-3766,7345,-1,0,0
-163.02,4.03,-27.20,574,-3761,7336,-1,0,0
-163.02,4.03,-27.21,568,-3768,7331,-1,0,0
-163.02,4.02,-27.21,574,-3778,7335,-1,-1,-1
-163.02,4.03,-27.22,575,-3789,7330,-1,-1,-1
-163.02,4.03,-27.22,574,-3793,7319,0,-1,-1
-163.02,4.04,-27.22,587,-3795,7327,0,-1,-1
-163.01,4.04,-27.21,592,-3782,7337,0,0,-1
-163.01,4.04,-27.20,602,-3767,7339,0,0,0
-163.01,4.03,-27.19,593,-3760,7342,0,0,0
-163.01,4.03,-27.19,589,-3750,7342,0,0,0
-163.01,4.01,-27.18,576,-3756,7333,0,0,0
-163.02,4.01,-27.19,572,-3763,7336,-1,0,0
-163.02,4.00,-27.19,567,-3764,7335,-1,-1,0
-163.02,4.01,-27.20,563,-3775,7326,-1,-1,-1
-163.02,4.01,-27.21,567,-3785,7310,-1,-1,-1
-163.02,4.01,-27.21,578,-3780,7322,0,0,-1
-163.02,4.01,-27.21,577,-3774,7327,0,0,0
-163.02,4.00,-27.21,574,-3773,7315,0,0,0
-163.02,3.99,-27.20,573,-3770,7315,0,0,-1
-163.02,3.99,-27.20,568,-3769,7326,0,0,0
-163.02,3.99,-27.20,583,-3769,7327,-1,-1,-1
-163.02,3.99,-27.20,589,-3759,7330,-1,-1,0
-163.02,4.00,-27.20,590,-3765,7330,-1,0,0
-163.02,3.99,-27.21,590,-3761,7329,-1,0,0
-163.02,3.99,-27.21,582,-3764,7333,-1,0,0
-163.02,3.99,-27.21,581,-3776,7329,-1,0,0
-163.02,3.99,-27.22,586,-3775,7326,-1,0,0
-163.02,3.99,-27.22,579,-3786,7334,0,0,0
-163.02,3.99,-27.22,576,-3782,7340,0,-1,-1
-163.02,3.99,-27.22,582,-3787,7335,0,-1,-1
-163.02,3.99,-27.22,575,-3774,7330,-1,-1,-1
-163.02,4.00,-27.21,579,-3776,7319,0,-1,0
-163.02,4.00,-27.21,578,-3772,7315,0,-1,0
-163.02,4.00,-27.21,579,-3777,7336,0,-1,0
-163.02,4.00,-27.21,572,-3776,7324,-1,-1,0
-163.02,4.00,-27.22,565,-3773,7322,-1,-1,-1
-163.02,4.00,-27.22,568,-3769,7314,0,-1,-1
-163.02,4.01,-27.22,576,-3774,7313,0,-1,-1
-163.02,4.01,-27.21,587,-3775,7325,0,0,-1
-163.02,4.02,-27.21,591,-3773,7323,0,0,-1
-163.01,4.01,-27.21,586,-3767,7335,0,0,0
-163.02,4.01,-27.21,575,-3763,7335,-1,0,0
-163.02,4.01,-27.21,572,-3765,7336,-1,-1,0
-163.02,4.01,-27.21,571,-3762,7338,-1,-1,0
-163.02,4.01,-27.21,576,-3774,7333,-1,-1,-1
-163.02,4.02,-27.21,585,-3769,7330,-1,-1,0
-163.02,4.02,-27.21,583,-3769,7324,-1,-1,0
-163.02,4.02,-27.22,593,-3772,7319,-1,-1,-1
-163.02,4.02,-27.22,588,-3782,7334,-1,-1,0
-163.02,4.02,-27.22,589,-3790,7330,0,-1,0
-163.02,4.02,-27.22,584,-3785,7333,0,0,0
-163.01,4.02,-27.22,589,-3778,7331,0,-1,-1
-163.01,4.02,-27.22,583,-3773,7324,0,-1,0
-163.01,4.02,-27.22,575,-3774,7318,0,-1,-1
-163.01,4.02,-27.22,572,-3774,7317,0,-1,-1
-163.01,4.03,-27.21,587,-3779,7324,0,-1,-1
-163.01,4.04,-27.20,587,-3767,7332,0,-1,-1
-163.00,4.04,-27.20,593,-3761,7331,0,0,0
-163.01,4.03,-27.20,596,-3762,7344,-1,0,0
-163.01,4.03,-27.20,582,-3760,7337,-1,0,0
-163.01,4.02,-27.21,572,-3764,7330,-1,0,0
-163.02,4.02,-27.22,565,-3771,7334,-1,-1,0
-163.02,4.02,-27.23,568,-3775,7337,-1,-1,-1
-163.02,4.03,-27.24,566,-3785,7328,-1,-1,-1
-163.01,4.04,-27.24,579,-3786,7314,0,-1,-1
-163.01,4.05,-27.24,588,-3782,7320,0,-1,-1
-163.01,4.05,-27.23,598,-3776,7327,0,0,0
-163.01,4.05,-27.22,603,-3775,7331,0,0,0
-163.01,4.04,-27.21,592,-3774,7330,0,0,0
-163.01,4.04,-27.21,587,-3767,7344,0,0,0
