Yaw,Pitch,Roll,AX,AY,AZ,GX,GY,GZ
-162.06,11.99,-57.07,1627,-6672,4570,2,5,-4
-161.98,11.99,-56.95,1673,-6627,4527,3,2,-2
-161.96,11.97,-56.84,1630,-6556,4566,1,0,-1
-161.96,11.96,-56.81,1660,-6595,4552,-1,0,0
-161.97,11.94,-56.82,1662,-6712,4482,-1,0,0
-161.99,11.93,-56.84,1700,-6863,4399,1,1,-1
-161.98,11.90,-56.77,1702,-6887,4414,3,1,-1
-161.96,11.87,-56.68,1678,-6827,4473,2,1,-1
-161.96,11.85,-56.64,1677,-6822,4490,1,1,0
-161.95,11.83,-56.59,1673,-6821,4497,1,0,0
-161.95,11.80,-56.54,1686,-6784,4488,1,1,0
-161.96,11.77,-56.50,1657,-6779,4472,1,1,0
-161.96,11.75,-56.45,1637,-6788,4503,2,0,-1
-161.97,11.74,-56.41,1645,-6743,4565,0,-1,0
-161.97,11.73,-56.39,1624,-6718,4605,-1,-1,0
-161.99,11.74,-56.43,1632,-6738,4583,-2,-2,0
-162.03,11.75,-56.48,1669,-6742,4516,-1,-3,1
-162.08,11.75,-56.53,1677,-6749,4505,-1,-3,1
-162.13,11.75,-56.57,1662,-6712,4536,-3,-3,1
-162.18,11.75,-56.65,1643,-6718,4571,-4,-4,1
-162.24,11.76,-56.77,1625,-6703,4604,-6,-4,1
-162.29,11.79,-56.96,1606,-6740,4590,-7,-4,0
-162.32,11.82,-57.19,1581,-6810,4554,-9,-3,-2
-162.30,11.89,-57.43,1581,-6902,4416,-8,-2,-3
-162.24,11.98,-57.64,1655,-6983,4294,-6,-2,-4
-162.17,12.07,-57.79,1754,-7043,4188,-4,-1,-3
-162.10,12.14,-57.85,1798,-7079,4136,0,0,-3
-162.03,12.19,-57.80,1782,-6997,4185,2,0,-3
-161.98,12.23,-57.74,1790,-6925,4231,2,-1,-2
-161.95,12.26,-57.66,1772,-6896,4273,2,-1,-1
-161.91,12.29,-57.56,1757,-6904,4346,3,-1,-2
-161.86,12.33,-57.48,1760,-6885,4391,2,-1,-2
-161.81,12.37,-57.39,1707,-6844,4433,1,-1,-3
-161.73,12.44,-57.35,1694,-6808,4450,0,-1,-4
-161.64,12.53,-57.34,1724,-6812,4425,-1,-1,-4
-161.53,12.62,-57.32,1789,-6792,4426,-1,0,-4
-161.44,12.70,-57.31,1792,-6756,4465,-2,-1,-3
-161.37,12.78,-57.36,1819,-6738,4455,-3,-2,-3
-161.32,12.85,-57.43,1829,-6758,4419,-3,-2,-2
-161.28,12.93,-57.50,1823,-6775,4405,-3,-3,-2
-161.26,13.00,-57.59,1847,-6797,4375,-3,-3,-2
-161.23,13.07,-57.67,1812,-6825,4403,-4,-4,-2
-161.19,13.17,-57.77,1842,-6809,4384,-4,-3,-2
-161.15,13.25,-57.89,1862,-6807,4353,-5,-4,-2
-161.12,13.33,-58.01,1895,-6806,4326,-5,-3,-2
-161.11,13.40,-58.15,1921,-6829,4281,-5,-3,-1
-161.08,13.48,-58.29,1911,-6875,4269,-5,-3,-2
-161.06,13.54,-58.41,1939,-6852,4279,-5,-3,-1
-161.05,13.61,-58.56,1897,-6866,4319,-7,-4,-2
-161.03,13.69,-58.76,1911,-6891,4302,-7,-4,-2
-161.01,13.78,-58.98,1935,-6921,4184,-7,-4,-2
-160.98,13.87,-59.14,1992,-6873,4134,-6,-3,-2
-160.95,13.94,-59.30,2016,-6935,4035,-5,-3,-2
-160.93,14.00,-59.43,2033,-7095,3939,-2,-1,-2
-160.87,14.05,-59.44,2094,-7165,3872,2,1,-3
-160.79,14.08,-59.33,2105,-7168,3918,4,2,-3
-160.74,14.08,-59.16,2130,-7048,4038,5,2,-1
-160.72,14.05,-59.00,2084,-6922,4151,4,1,0
-160.75,14.01,-58.87,2080,-6812,4191,3,0,2
-160.80,13.95,-58.78,2069,-6788,4160,2,1,2
-160.87,13.86,-58.70,2005,-6832,4136,3,1,2
-160.93,13.77,-58.60,1961,-6913,4136,4,1,1
-160.98,13.70,-58.46,1922,-6957,4202,5,0,1
-161.02,13.66,-58.33,1886,-6997,4255,4,-1,0
-161.03,13.63,-58.19,1897,-6952,4291,4,0,0
-161.02,13.63,-58.07,1891,-6858,4330,3,-1,-1
-161.01,13.63,-57.98,1908,-6731,4371,1,-1,0
-161.01,13.65,-57.95,1893,-6676,4403,-1,-3,0
-161.04,13.66,-57.98,1898,-6682,4422,-2,-4,0
-161.08,13.68,-58.06,1951,-6741,4386,-3,-4,1
-161.14,13.69,-58.15,1980,-6797,4328,-3,-4,2
-161.21,13.69,-58.26,1992,-6839,4271,-3,-4,2
-161.29,13.66,-58.36,1975,-6887,4236,-3,-3,2
-161.36,13.64,-58.44,1976,-6946,4179,-1,-2,2
-161.42,13.62,-58.48,1951,-6976,4172,-1,-2,1
-161.47,13.59,-58.47,1961,-6952,4173,1,-1,1
-161.51,13.57,-58.47,1933,-6918,4220,0,-1,1
-161.55,13.56,-58.47,1933,-6866,4247,-1,-2,1
-161.60,13.53,-58.50,1935,-6850,4243,-1,-2,1
-161.65,13.52,-58.54,1939,-6840,4261,-2,-2,2
-161.72,13.49,-58.59,1939,-6882,4236,-2,-2,2
-161.78,13.46,-58.64,1913,-6893,4226,-2,-2,1
-161.84,13.44,-58.68,1920,-6938,4194,-1,-2,1
-161.88,13.42,-58.72,1920,-6974,4182,-1,-1,1
-161.92,13.40,-58.73,1937,-6993,4160,1,-1,1
-161.95,13.38,-58.71,1948,-6968,4167,1,-1,1
-161.99,13.35,-58.68,1979,-6905,4164,1,0,2
-162.05,13.30,-58.65,1938,-6880,4198,1,-1,2
-162.12,13.24,-58.63,1918,-6857,4204,0,-1,2
-162.20,13.18,-58.62,1902,-6916,4187,1,-1,2
-162.27,13.12,-58.61,1877,-6976,4181,1,0,1
-162.31,13.07,-58.56,1853,-7016,4158,3,0,1
-162.33,13.05,-58.48,1851,-7035,4176,3,1,0
-162.32,13.03,-58.37,1896,-7007,4170,4,2,0
-162.31,12.99,-58.24,1872,-6962,4233,4,2,-1
-162.30,12.96,-58.10,1844,-6854,4291,3,1,-1
-162.29,12.94,-58.00,1819,-6783,4345,2,0,-1
-162.28,12.93,-57.94,1839,-6735,4393,0,0,0
-162.30,12.92,-57.93,1835,-6774,4368,-1,-1,0
-162.31,12.92,-57.95,1849,-6786,4367,-2,-1,0
-162.34,12.91,-58.00,1851,-6841,4337,-1,-2,0
-162.37,12.90,-58.03,1842,-6861,4323,-2,-2,0
-162.40,12.90,-58.08,1853,-6880,4283,-1,-2,0
-162.41,12.90,-58.11,1845,-6872,4294,-2,-1,0
-162.44,12.90,-58.13,1853,-6843,4280,-1,-2,1
-162.48,12.89,-58.17,1850,-6846,4307,-2,-2,1
-162.52,12.88,-58.22,1864,-6848,4294,-2,-3,1
-162.57,12.88,-58.28,1848,-6871,4303,-2,-2,1
-162.62,12.86,-58.35,1830,-6889,4299,-3,-3,1
-162.66,12.87,-58.43,1833,-6921,4243,-2,-3,1
-162.70,12.87,-58.48,1855,-6943,4210,-2,-2,1
-162.73,12.87,-58.52,1851,-6961,4183,0,-2,0
-162.75,12.87,-58.53,1870,-6970,4173,0,-1,0
-162.77,12.86,-58.51,1859,-6974,4199,1,-1,0
-162.78,12.86,-58.47,1883,-6936,4211,1,-1,1
-162.82,12.84,-58.43,1872,-6909,4216,1,-1,1
-162.87,12.81,-58.39,1882,-6879,4211,1,-2,2
-162.93,12.77,-58.33,1867,-6913,4185,3,-1,2
-162.97,12.72,-58.24,1821,-6924,4278,3,0,0
-162.99,12.69,-58.16,1790,-6944,4269,3,-1,0
-163.00,12.69,-58.08,1777,-6934,4323,1,-1,-1
-162.99,12.69,-58.03,1809,-6921,4297,2,0,-1
-162.97,12.70,-57.98,1792,-6940,4276,2,0,-2
-162.93,12.70,-57.89,1803,-6864,4322,2,1,-1
-162.90,12.72,-57.83,1807,-6817,4324,2,0,-2
-162.87,12.74,-57.78,1808,-6749,4391,-1,-1,-1
-162.85,12.76,-57.78,1840,-6776,4351,0,-1,-1
-162.84,12.77,-57.80,1831,-6836,4367,-2,-1,-1
-162.84,12.78,-57.81,1857,-6855,4331,0,-1,0
-162.83,12.79,-57.83,1833,-6883,4332,-1,-1,-1
-162.84,12.80,-57.83,1843,-6851,4338,-1,-1,0
-162.83,12.80,-57.85,1839,-6851,4305,-1,-1,-1
-162.83,12.81,-57.86,1831,-6829,4323,-1,-1,-1
-162.83,12.82,-57.87,1849,-6866,4282,0,-1,0
-162.83,12.83,-57.88,1835,-6868,4319,-1,-1,-1
-162.84,12.83,-57.88,1867,-6859,4292,0,-1,0
-162.84,12.84,-57.88,1849,-6854,4331,-1,-1,-1
-162.84,12.84,-57.89,1849,-6818,4359,-1,-1,0
-162.84,12.86,-57.92,1837,-6831,4355,-2,-2,0
-162.86,12.86,-57.97,1828,-6825,4356,-2,-2,0
-162.87,12.88,-58.03,1846,-6844,4321,-2,-2,0
-162.89,12.89,-58.09,1826,-6846,4335,-3,-2,0
-162.92,12.91,-58.17,1857,-6865,4274,-2,-2,0
-162.93,12.92,-58.23,1839,-6878,4288,-3,-2,0
-162.95,12.93,-58.30,1875,-6903,4243,-2,-2,0
-162.96,12.94,-58.35,1861,-6953,4215,-1,-2,0
-162.98,12.94,-58.37,1878,-6959,4228,0,-1,0
-162.97,12.95,-58.37,1882,-6961,4213,0,-1,0
-162.98,12.94,-58.35,1875,-6937,4256,0,0,-1
-162.98,12.94,-58.32,1889,-6907,4252,1,-1,0
-162.98,12.93,-58.30,1889,-6893,4264,0,0,0
-163.01,12.91,-58.28,1874,-6876,4249,0,0,1
-163.04,12.88,-58.27,1863,-6889,4274,0,-1,1
-163.07,12.86,-58.26,1857,-6900,4262,0,-1,1
-163.10,12.84,-58.26,1849,-6918,4258,0,-1,0
-163.12,12.82,-58.25,1860,-6956,4227,1,0,0
-163.13,12.80,-58.21,1845,-6960,4230,2,0,0
-163.14,12.79,-58.15,1837,-6947,4252,2,0,0
-163.14,12.77,-58.10,1827,-6920,4274,1,0,-1
-163.12,12.77,-58.04,1829,-6907,4288,1,1,-1
-163.10,12.76,-57.98,1820,-6902,4305,1,1,-1
-163.09,12.76,-57.92,1826,-6869,4315,1,0,-1
-163.08,12.76,-57.88,1810,-6825,4366,0,-1,-1
-163.07,12.76,-57.84,1830,-6761,4370,0,-1,0
-163.07,12.76,-57.86,1828,-6777,4381,-2,-1,0
-163.08,12.77,-57.89,1845,-6814,4362,-2,-1,0
-163.10,12.76,-57.93,1839,-6877,4340,-1,-1,0
-163.11,12.77,-57.96,1846,-6884,4328,-1,-1,0
-163.13,12.76,-57.98,1828,-6886,4309,-1,-1,0
-163.14,12.76,-58.00,1851,-6858,4298,-1,-1,0
-163.15,12.75,-58.02,1843,-6877,4268,-1,-1,0
-163.17,12.74,-58.04,1854,-6867,4281,-1,-1,0
-163.19,12.73,-58.05,1842,-6901,4279,0,-1,0
-163.21,12.72,-58.05,1825,-6894,4289,-1,0,0
-163.21,12.71,-58.04,1821,-6881,4301,0,0,0
-163.22,12.70,-58.05,1807,-6840,4349,-2,-1,0
-163.23,12.70,-58.09,1815,-6818,4330,-2,-2,0
-163.25,12.71,-58.15,1810,-6839,4333,-3,-2,0
-163.27,12.71,-58.23,1838,-6861,4281,-2,-2,1
-163.30,12.71,-58.30,1831,-6898,4281,-3,-2,0
-163.34,12.70,-58.36,1863,-6915,4236,-1,-2,1
-163.37,12.69,-58.41,1842,-6943,4223,-1,-1,1
-163.40,12.68,-58.43,1850,-6940,4209,-1,-1,1
-163.43,12.65,-58.44,1825,-6977,4195,0,0,0
-163.44,12.64,-58.44,1842,-6960,4213,0,0,0
-163.45,12.62,-58.42,1818,-6972,4214,1,0,0
-163.46,12.60,-58.39,1824,-6924,4243,0,0,0
-163.47,12.58,-58.36,1817,-6908,4236,1,0,0
-163.49,12.56,-58.33,1804,-6878,4285,-1,0,0
-163.51,12.54,-58.33,1823,-6865,4273,0,-1,1
-163.54,12.51,-58.33,1797,-6877,4302,-1,-1,0
-163.58,12.48,-58.33,1816,-6859,4266,0,-1,1
-163.62,12.45,-58.34,1795,-6898,4280,-1,-1,1
-163.67,12.42,-58.35,1811,-6922,4260,0,-1,1
-163.72,12.39,-58.35,1781,-6972,4246,0,-1,1
-163.76,12.36,-58.33,1794,-6943,4231,1,-1,1
-163.79,12.33,-58.30,1771,-6948,4216,1,-1,0
-163.81,12.30,-58.26,1754,-6928,4248,1,0,0
-163.82,12.29,-58.22,1757,-6918,4248,1,0,0
-163.82,12.28,-58.18,1759,-6904,4270,1,0,0
-163.84,12.27,-58.14,1768,-6891,4282,1,0,0
-163.85,12.25,-58.10,1755,-6897,4308,0,0,0
-163.85,12.24,-58.06,1721,-6896,4333,1,-1,-1
-163.84,12.25,-58.03,1742,-6859,4339,0,-1,-1
-163.82,12.27,-58.01,1752,-6801,4376,-1,-1,-1
-163.83,12.28,-58.03,1742,-6767,4393,-2,-2,-1
-163.82,12.31,-58.09,1758,-6816,4336,-3,-2,0
-163.82,12.33,-58.15,1748,-6880,4342,-3,-2,-1
-163.83,12.35,-58.23,1791,-6933,4257,-1,-2,-1
-163.81,12.38,-58.26,1785,-6961,4265,-2,-1,-1
-163.80,12.40,-58.29,1813,-6964,4229,0,0,-1
-163.78,12.41,-58.29,1802,-6938,4245,-1,-1,-1
-163.78,12.42,-58.29,1782,-6868,4298,-1,-1,-1
-163.79,12.43,-58.32,1787,-6861,4264,-1,-2,0
-163.79,12.43,-58.34,1769,-6865,4312,-2,-2,-1
-163.81,12.44,-58.39,1788,-6900,4249,-1,-1,0
-163.81,12.45,-58.43,1769,-6926,4283,-2,-2,-1
-163.81,12.47,-58.48,1805,-6940,4251,-1,-1,0
-163.80,12.48,-58.51,1811,-6957,4219,-1,-1,-1
-163.81,12.49,-58.52,1810,-6926,4247,-1,-1,0
-163.81,12.50,-58.54,1806,-6948,4192,0,-1,0
-163.81,12.49,-58.54,1804,-6927,4246,-1,-1,-1
-163.82,12.49,-58.54,1822,-6947,4193,0,0,0
-163.82,12.49,-58.53,1808,-6933,4233,-1,-1,0
-163.83,12.49,-58.52,1819,-6932,4212,1,0,0
-163.83,12.48,-58.50,1802,-6948,4219,0,-1,-1
-163.83,12.48,-58.47,1814,-6911,4239,1,0,0
-163.84,12.47,-58.46,1809,-6921,4249,0,-1,0
-163.87,12.45,-58.43,1810,-6911,4280,0,-1,1
-163.90,12.43,-58.44,1815,-6901,4221,0,-1,1
-163.94,12.40,-58.41,1774,-6909,4244,0,-1,1
-163.98,12.38,-58.39,1773,-6932,4214,1,-1,1
-164.00,12.38,-58.37,1778,-6901,4279,0,-1,0
-164.01,12.37,-58.37,1766,-6902,4264,0,-1,0
-164.03,12.35,-58.38,1725,-6944,4266,-1,-1,-1
-164.01,12.37,-58.38,1721,-6949,4272,0,0,-2
-163.98,12.40,-58.38,1732,-6954,4265,-1,-1,-2
-163.93,12.45,-58.37,1761,-6908,4278,-1,-1,-2
-163.89,12.49,-58.38,1817,-6882,4222,-1,-1,-1
-163.86,12.52,-58.37,1787,-6890,4272,-1,-1,-2
-163.84,12.55,-58.38,1781,-6909,4286,-1,-1,-2
-163.79,12.60,-58.39,1755,-6878,4337,-2,-2,-3
-163.75,12.65,-58.43,1773,-6855,4305,-2,-2,-2
-163.70,12.72,-58.49,1784,-6858,4298,-3,-2,-2
-163.66,12.79,-58.57,1810,-6880,4278,-3,-2,-2
-163.61,12.87,-58.64,1853,-6900,4232,-3,-3,-2
-163.57,12.93,-58.72,1894,-6934,4225,-3,-2,-2
-163.53,12.98,-58.79,1896,-6985,4165,-2,-1,-2
-163.50,13.01,-58.83,1919,-6986,4169,-1,-1,-2
-163.47,13.04,-58.85,1911,-6967,4147,-1,0,-1
-163.45,13.05,-58.86,1918,-6982,4138,-1,0,-1
-163.42,13.06,-58.84,1901,-6990,4128,0,0,-1
-163.40,13.07,-58.81,1915,-6958,4157,1,1,-1
-163.38,13.07,-58.78,1882,-6941,4193,0,1,-1
-163.36,13.06,-58.75,1888,-6952,4200,0,1,-1
-163.32,13.07,-58.73,1860,-6970,4179,0,1,-2
-163.28,13.07,-58.69,1863,-6967,4162,1,1,-2
-163.23,13.09,-58.63,1845,-6924,4214,1,0,-2
-163.19,13.11,-58.59,1845,-6870,4267,0,0,-2
-163.15,13.15,-58.57,1870,-6831,4297,-1,-2,-1
-163.14,13.18,-58.59,1898,-6798,4290,-2,-2,-1
-163.16,13.20,-58.65,1938,-6810,4252,-2,-2,1
-163.20,13.19,-58.72,1943,-6862,4228,-2,-2,1
-163.25,13.17,-58.79,1928,-6926,4178,-2,-2,2
-163.30,13.15,-58.84,1896,-6983,4173,-1,-2,1
-163.34,13.13,-58.85,1916,-6984,4147,0,-1,1
-163.38,13.11,-58.86,1885,-7021,4137,0,-1,0
-163.40,13.08,-58.83,1877,-6991,4171,1,0,0
-163.41,13.07,-58.80,1866,-6982,4183,1,0,0
-163.41,13.07,-58.75,1887,-6928,4195,0,0,0
-163.41,13.06,-58.73,1885,-6919,4201,1,0,0
-163.42,13.05,-58.69,1885,-6886,4239,0,0,0
-163.45,13.03,-58.67,1891,-6892,4210,1,-1,1
-163.47,13.02,-58.65,1893,-6878,4244,0,-1,1
-163.52,12.99,-58.66,1891,-6880,4229,0,-1,1
-163.56,12.96,-58.67,1865,-6896,4252,-1,-1,1
-163.61,12.94,-58.69,1869,-6892,4226,0,-1,1
-163.65,12.92,-58.71,1846,-6928,4209,-1,-2,1
-163.69,12.91,-58.71,1867,-6930,4198,0,-1,1
-163.72,12.89,-58.72,1843,-6964,4217,0,-1,0
-163.75,12.87,-58.71,1855,-6934,4239,-1,-1,1
-163.77,12.86,-58.72,1848,-6938,4218,0,-1,0
-163.80,12.84,-58.72,1839,-6925,4225,-1,-1,0
-163.82,12.83,-58.71,1835,-6947,4214,0,-1,0
-163.83,12.82,-58.71,1835,-6955,4217,0,-1,0
-163.83,12.82,-58.70,1840,-6953,4180,1,0,0
-163.82,12.82,-58.67,1833,-6938,4218,0,0,-1
-163.82,12.82,-58.65,1850,-6908,4214,0,0,0
-163.81,12.82,-58.64,1845,-6935,4239,-1,0,-1
-163.81,12.82,-58.63,1853,-6943,4231,0,0,-1
-163.80,12.82,-58.62,1842,-6948,4243,0,0,-1
-163.80,12.82,-58.60,1864,-6907,4247,-1,0,0
-163.80,12.81,-58.60,1839,-6918,4241,-1,-1,0
-163.82,12.81,-58.60,1848,-6881,4242,-1,-1,0
-163.83,12.80,-58.62,1838,-6917,4223,-1,-1,0
-163.83,12.80,-58.62,1843,-6913,4242,-1,0,0
-163.83,12.80,-58.63,1837,-6929,4217,0,-1,0
-163.84,12.79,-58.64,1837,-6931,4247,-1,-1,-1
-163.85,12.78,-58.66,1843,-6935,4202,0,0,0
-163.85,12.78,-58.66,1828,-6936,4214,0,-1,-1
-163.86,12.78,-58.65,1860,-6904,4218,0,-1,0
-163.86,12.78,-58.65,1838,-6928,4235,-1,-1,0
-163.88,12.77,-58.66,1847,-6912,4201,-1,0,0
-163.89,12.76,-58.66,1832,-6934,4196,0,-1,0
-163.91,12.75,-58.65,1826,-6925,4216,0,-1,0
-163.93,12.74,-58.66,1832,-6938,4211,0,-1,0
-163.95,12.74,-58.66,1831,-6938,4207,0,-1,0
-163.96,12.73,-58.64,1826,-6909,4233,0,-1,0
-163.98,12.73,-58.64,1846,-6894,4252,-1,-1,1
-164.00,12.72,-58.66,1821,-6901,4256,-1,-2,0
-164.02,12.72,-58.69,1857,-6912,4195,-1,0,0
-164.03,12.70,-58.71,1867,-6987,4137,-1,0,0
-164.04,12.67,-58.67,1881,-6970,4124,2,2,0
-164.05,12.63,-58.60,1827,-6974,4179,1,1,0
-164.06,12.60,-58.52,1770,-6950,4316,1,1,-1
-164.04,12.60,-58.49,1799,-6916,4300,0,0,-1
-164.02,12.60,-58.48,1794,-6882,4300,-1,0,-1
-164.01,12.60,-58.48,1843,-6859,4219,0,1,0
-164.01,12.58,-58.47,1836,-6909,4237,-1,0,0
-164.03,12.56,-58.46,1829,-6918,4239,0,1,0
-164.04,12.54,-58.44,1820,-6929,4201,1,0,0
-164.06,12.51,-58.40,1779,-6903,4284,0,0,0
-164.08,12.49,-58.39,1785,-6884,4244,0,0,0
-164.08,12.49,-58.37,1762,-6895,4313,-1,-1,-1
-164.08,12.49,-58.39,1792,-6895,4276,-1,-1,0
-164.08,12.50,-58.41,1797,-6923,4264,-1,-1,0
-164.09,12.50,-58.41,1792,-6900,4281,-1,0,-1
-164.08,12.51,-58.44,1803,-6923,4235,-1,-1,0
-164.09,12.51,-58.44,1804,-6906,4300,-1,-1,0
-164.10,12.51,-58.46,1824,-6913,4220,0,-1,0
-164.11,12.50,-58.46,1789,-6925,4253,-1,-1,-1
-164.12,12.49,-58.47,1797,-6930,4237,0,0,0
-164.12,12.50,-58.47,1784,-6949,4244,-1,-1,-1
-164.12,12.50,-58.46,1789,-6917,4274,-1,0,-1
-164.11,12.51,-58.47,1806,-6948,4225,0,0,-1
-164.11,12.50,-58.46,1799,-6923,4275,-1,0,-1
-164.11,12.50,-58.46,1805,-6922,4236,0,0,0
-164.11,12.50,-58.45,1794,-6919,4276,-1,-1,-1
-164.10,12.50,-58.45,1803,-6900,4261,0,0,-1
-164.09,12.51,-58.45,1788,-6926,4252,-1,-1,-1
-164.09,12.51,-58.45,1811,-6912,4264,0,0,0
-164.09,12.51,-58.45,1818,-6921,4246,0,-1,0
-164.09,12.50,-58.45,1803,-6915,4261,-1,0,0
-164.09,12.51,-58.44,1802,-6913,4228,0,0,0
-164.09,12.50,-58.44,1783,-6917,4270,-1,0,-1
-164.08,12.51,-58.44,1812,-6908,4229,0,0,0
-164.07,12.50,-58.44,1795,-6933,4243,0,-1,-1
-164.07,12.51,-58.42,1809,-6911,4217,0,0,0
-164.06,12.51,-58.39,1806,-6903,4252,1,0,-1
-164.06,12.50,-58.37,1820,-6885,4274,0,0,0
-164.06,12.49,-58.35,1808,-6925,4263,0,0,-1
-164.05,12.48,-58.34,1786,-6950,4274,0,1,-1
-164.03,12.48,-58.32,1783,-6950,4278,0,0,-1
-164.02,12.49,-58.29,1801,-6921,4284,0,0,-1
-163.99,12.49,-58.26,1790,-6897,4284,0,1,-1
-163.96,12.50,-58.25,1802,-6884,4272,0,1,-1
-163.95,12.50,-58.24,1809,-6887,4268,0,0,-1
-163.95,12.50,-58.22,1834,-6876,4265,0,0,0
-163.95,12.49,-58.22,1804,-6895,4306,-1,0,-1
-163.95,12.48,-58.22,1780,-6911,4299,-1,0,-1
-163.93,12.49,-58.22,1768,-6925,4300,-1,0,-2
-163.90,12.50,-58.22,1762,-6893,4313,-1,0,-2
-163.86,12.52,-58.23,1764,-6910,4285,-1,0,-2
-163.83,12.55,-58.25,1815,-6898,4251,-1,0,-1
-163.81,12.56,-58.25,1853,-6916,4215,0,0,-1
-163.81,12.56,-58.22,1876,-6884,4235,1,0,0
-163.84,12.53,-58.19,1870,-6884,4270,0,0,1
-163.88,12.49,-58.18,1798,-6924,4330,-1,0,0
-163.89,12.47,-58.18,1742,-6928,4324,0,0,-1
-163.87,12.48,-58.17,1725,-6875,4355,-2,-1,-2
-163.84,12.50,-58.20,1763,-6839,4291,-2,-1,-1
-163.82,12.53,-58.24,1782,-6870,4291,-2,-1,-1
-163.80,12.55,-58.27,1830,-6897,4255,-1,-1,-1
-163.80,12.56,-58.29,1821,-6925,4281,-1,-1,-1
-163.80,12.57,-58.29,1842,-6881,4273,-1,-1,0
-163.81,12.57,-58.32,1825,-6904,4264,-1,-1,0
-163.81,12.56,-58.34,1812,-6909,4275,-1,0,0
-163.81,12.56,-58.36,1805,-6923,4271,-1,-1,0
-163.82,12.57,-58.39,1821,-6892,4255,-2,-1,0
-163.83,12.56,-58.41,1810,-6934,4208,0,-1,0
-163.83,12.55,-58.39,1800,-6907,4276,-1,0,-1
-163.83,12.56,-58.40,1820,-6899,4268,0,-1,0
-163.84,12.55,-58.42,1791,-6909,4285,-2,-1,-1
-163.84,12.57,-58.44,1814,-6904,4243,-1,-1,0
-163.86,12.56,-58.46,1789,-6913,4257,-1,-1,-1
-163.87,12.57,-58.48,1807,-6894,4264,-1,-1,0
-163.87,12.57,-58.51,1790,-6918,4266,-1,-1,0
-163.88,12.58,-58.55,1773,-6892,4271,-2,-2,0
-163.89,12.60,-58.60,1808,-6917,4222,-1,-2,0
-163.90,12.61,-58.64,1820,-6917,4230,-2,-1,0
-163.91,12.61,-58.68,1824,-6950,4201,-1,-1,0
-163.93,12.60,-58.68,1805,-6922,4245,-1,-1,0
-163.95,12.60,-58.71,1807,-6896,4239,-2,-2,1
-163.98,12.60,-58.76,1824,-6924,4216,-2,-1,0
-164.01,12.58,-58.80,1795,-6952,4201,-1,-1,0
-164.03,12.58,-58.83,1793,-6944,4210,-1,-1,0
-164.04,12.58,-58.87,1811,-6936,4221,-2,-1,0
-164.06,12.58,-58.91,1795,-6954,4200,-2,-2,0
-164.07,12.59,-58.95,1817,-6931,4195,-2,-2,0
-164.09,12.59,-59.00,1824,-6960,4148,-1,-1,0
-164.10,12.58,-59.01,1842,-6961,4165,-1,-1,0
-164.12,12.57,-59.02,1824,-6981,4157,0,-1,0
-164.15,12.56,-59.02,1789,-6979,4195,-1,-1,0
-164.16,12.55,-59.04,1787,-6962,4176,0,-1,0
-164.17,12.56,-59.05,1811,-6959,4180,-1,-1,0
-164.18,12.56,-59.05,1804,-6957,4181,-1,-1,0
-164.18,12.56,-59.06,1811,-6932,4188,-1,-1,0
-164.20,12.56,-59.08,1815,-6942,4186,-1,-2,0
-164.21,12.55,-59.10,1806,-6956,4191,-1,-1,0
-164.23,12.55,-59.12,1819,-6954,4164,0,-1,0
-164.24,12.54,-59.12,1804,-6970,4180,-1,-1,0
-164.26,12.54,-59.13,1809,-6959,4152,0,-1,0
-164.28,12.52,-59.13,1799,-6964,4158,-1,-1,0
-164.30,12.51,-59.14,1823,-6947,4176,-1,0,0
-164.32,12.50,-59.15,1793,-6994,4151,-1,-1,0
-164.33,12.49,-59.16,1761,-6984,4199,-1,-1,-1
-164.33,12.49,-59.17,1791,-6993,4139,0,-1,0
-164.32,12.50,-59.18,1758,-6992,4144,-2,-1,-1
-164.29,12.51,-59.16,1800,-6970,4117,1,1,-1
-164.27,12.52,-59.14,1780,-7005,4179,-1,-1,-1
-164.26,12.53,-59.12,1829,-6969,4208,0,-1,-1
-164.26,12.55,-59.12,1832,-6947,4172,-1,-1,0
-164.26,12.54,-59.13,1808,-6954,4179,-1,0,-1
-164.26,12.53,-59.14,1817,-6962,4117,0,0,0
-164.25,12.53,-59.12,1797,-6959,4194,-1,-1,-1
-164.26,12.53,-59.11,1818,-6951,4189,0,-1,0
-164.27,12.52,-59.11,1794,-6965,4192,-1,-1,0
-164.29,12.51,-59.11,1805,-6932,4196,-1,-1,0
-164.29,12.51,-59.12,1786,-6943,4192,-1,-1,0
-164.30,12.51,-59.15,1794,-6961,4193,-2,-1,0
-164.32,12.50,-59.18,1821,-6955,4140,0,-1,1
-164.35,12.49,-59.19,1799,-6962,4168,-1,-1,0
-164.38,12.47,-59.21,1800,-6982,4151,-1,-1,0
-164.40,12.45,-59.23,1785,-7019,4145,-1,-1,0
-164.41,12.44,-59.23,1793,-7008,4149,0,0,0
-164.42,12.43,-59.24,1770,-7010,4105,0,-1,-1
-164.42,12.43,-59.22,1781,-6981,4125,0,0,-1
-164.41,12.43,-59.19,1791,-6954,4169,0,0,0
-164.41,12.43,-59.18,1766,-6955,4191,-1,-1,-1
-164.41,12.44,-59.20,1776,-6969,4159,-1,0,-1
-164.40,12.44,-59.21,1778,-6993,4153,-1,0,-1
-164.39,12.44,-59.20,1808,-6969,4126,0,0,-1
-164.39,12.43,-59.17,1806,-6946,4152,0,0,0
-164.40,12.42,-59.15,1822,-6930,4196,0,-1,0
-164.42,12.41,-59.14,1823,-6912,4241,-2,-1,1
-164.47,12.37,-59.20,1835,-6946,4202,-2,0,1
-164.51,12.33,-59.24,1817,-6994,4141,-2,1,1
-164.55,12.27,-59.28,1777,-7053,4092,0,2,0
-164.57,12.22,-59.27,1728,-7106,4092,0,2,-1
-164.56,12.19,-59.23,1730,-7148,4072,2,2,-1
-164.52,12.18,-59.14,1748,-7079,4116,3,3,-2
-164.49,12.17,-59.04,1759,-7017,4155,2,2,-1
-164.46,12.15,-58.95,1747,-6959,4201,2,2,-1
-164.45,12.13,-58.87,1775,-6878,4216,1,1,0
-164.45,12.10,-58.82,1769,-6831,4304,-1,1,0
-164.48,12.06,-58.82,1767,-6847,4297,-2,0,1
-164.52,12.02,-58.87,1738,-6966,4262,-2,0,0
-164.55,11.98,-58.90,1746,-7005,4173,0,1,1
-164.58,11.93,-58.89,1719,-7010,4177,0,1,0
-164.60,11.89,-58.87,1706,-6978,4192,0,1,0
-164.61,11.86,-58.85,1706,-6959,4188,0,0,0
-164.64,11.82,-58.84,1696,-6966,4192,0,1,0
-164.65,11.80,-58.81,1715,-6973,4187,0,1,0
-164.66,11.76,-58.78,1694,-6999,4220,0,1,0
-164.67,11.72,-58.74,1689,-6983,4236,1,1,0
-164.67,11.69,-58.70,1673,-6994,4262,0,1,-1
-164.67,11.67,-58.68,1697,-6971,4218,1,1,0
-164.68,11.63,-58.63,1673,-6955,4220,1,1,0
-164.69,11.60,-58.59,1667,-6922,4240,0,1,0
-164.69,11.58,-58.56,1676,-6910,4269,0,0,0
-164.70,11.56,-58.55,1665,-6929,4267,-1,0,0
-164.71,11.55,-58.55,1671,-6967,4232,1,0,0
-164.72,11.53,-58.52,1660,-6966,4260,0,0,0
-164.74,11.52,-58.49,1676,-6903,4261,1,-1,1
-164.76,11.50,-58.48,1636,-6899,4303,-1,-1,0
-164.79,11.49,-58.49,1640,-6926,4284,-1,-1,0
-164.81,11.47,-58.51,1613,-6970,4279,0,-1,0
-164.82,11.47,-58.50,1646,-6916,4309,-1,-2,0
-164.84,11.47,-58.52,1634,-6924,4284,-1,-2,0
-164.85,11.48,-58.55,1668,-6928,4271,-1,-1,0
-164.88,11.47,-58.57,1665,-6993,4254,-1,-1,0
-164.89,11.46,-58.56,1663,-7000,4259,0,0,0
-164.90,11.45,-58.55,1654,-7005,4241,0,-1,0
-164.91,11.44,-58.53,1643,-6978,4239,0,0,0
-164.92,11.43,-58.51,1657,-6970,4225,1,-1,0
-164.92,11.42,-58.48,1645,-6951,4266,0,0,0
-164.94,11.41,-58.45,1654,-6930,4270,1,-1,0
-164.96,11.39,-58.43,1630,-6921,4313,-1,-1,0
-164.98,11.38,-58.44,1625,-6930,4265,0,-1,0
-164.99,11.38,-58.44,1616,-6953,4286,0,-1,0
-165.01,11.38,-58.45,1645,-6951,4246,0,-1,0
-165.02,11.38,-58.44,1620,-6972,4245,0,-2,0
-165.03,11.38,-58.42,1636,-6953,4254,0,-1,0
-165.04,11.38,-58.41,1631,-6936,4258,0,-1,0
-165.04,11.39,-58.39,1631,-6926,4298,0,-1,0
-165.05,11.40,-58.39,1619,-6927,4271,0,-2,0
-165.05,11.42,-58.39,1629,-6934,4286,0,-2,0
-165.05,11.43,-58.39,1623,-6944,4310,-1,-2,-1
-165.05,11.46,-58.40,1645,-6910,4293,-1,-2,0
-165.04,11.47,-58.41,1628,-6901,4325,-2,-2,-1
-165.04,11.50,-58.44,1657,-6900,4317,-2,-1,0
-165.04,11.52,-58.49,1670,-6945,4256,-2,-2,0
-165.04,11.54,-58.51,1670,-6929,4272,-1,-1,-1
-165.05,11.55,-58.55,1687,-6960,4209,-1,-2,0
-165.06,11.56,-58.57,1671,-6980,4268,-1,-1,-1
-165.06,11.57,-58.58,1708,-6974,4218,0,-1,0
-165.07,11.55,-58.58,1676,-6996,4244,-1,-1,0
-165.09,11.54,-58.57,1666,-6971,4255,0,0,0
-165.10,11.53,-58.56,1657,-6976,4243,0,-1,0
-165.09,11.53,-58.54,1639,-6942,4290,-1,0,-1
-165.10,11.54,-58.56,1663,-6942,4217,0,-1,0
-165.09,11.54,-58.54,1640,-6934,4283,-1,-1,-1
-165.09,11.55,-58.56,1685,-6923,4237,0,-1,0
-165.09,11.56,-58.57,1654,-6952,4280,-2,-1,-1
-165.09,11.57,-58.60,1682,-6946,4228,0,-1,0
-165.08,11.57,-58.61,1668,-6972,4240,-1,-1,-1
-165.08,11.58,-58.61,1692,-6956,4236,0,0,0
-165.08,11.58,-58.61,1673,-6964,4241,-1,-1,0
-165.08,11.58,-58.61,1633,-6951,4315,-1,-1,-1
-165.07,11.61,-58.63,1679,-6919,4256,-1,-1,0
-165.06,11.62,-58.65,1643,-6862,4300,-3,-1,-1
-165.06,11.63,-58.73,1696,-6918,4210,-2,-1,0
-165.06,11.64,-58.77,1675,-6996,4202,-2,-2,-1
-165.07,11.64,-58.81,1695,-7019,4156,0,0,0
-165.05,11.65,-58.79,1676,-7035,4195,0,-1,-1
-165.05,11.65,-58.77,1691,-6971,4250,0,0,-1
-165.05,11.66,-58.79,1688,-6995,4202,-1,-1,0
-165.05,11.66,-58.79,1663,-6972,4223,-1,0,-1
-165.03,11.67,-58.78,1695,-6960,4197,0,0,-1
-165.03,11.67,-58.76,1653,-6929,4251,-1,-1,-1
-165.02,11.68,-58.78,1696,-6950,4199,0,-1,0
-165.01,11.70,-58.78,1700,-6975,4216,-1,-1,-1
-165.01,11.69,-58.77,1674,-6973,4258,0,0,-1
-165.00,11.71,-58.78,1646,-6992,4256,-1,-1,-2
-164.97,11.73,-58.78,1657,-6961,4292,-1,0,-2
-164.94,11.76,-58.79,1665,-6944,4237,-1,-1,-1
-164.90,11.79,-58.80,1673,-6892,4253,-1,-1,-2
-164.88,11.82,-58.84,1708,-6922,4223,-2,-2,-1
-164.86,11.85,-58.86,1729,-6927,4250,-2,0,-1
-164.84,11.87,-58.91,1740,-7013,4196,-2,0,-1
-164.83,11.88,-58.92,1719,-7038,4179,0,0,-1
-164.80,11.89,-58.91,1722,-6992,4159,0,0,-1
-164.78,11.88,-58.89,1719,-6990,4180,0,1,-2
-164.75,11.89,-58.87,1719,-7011,4207,0,1,-2
-164.72,11.88,-58.85,1707,-7031,4182,1,1,-2
-164.69,11.88,-58.81,1697,-7058,4185,1,1,-2
-164.64,11.89,-58.75,1696,-7022,4182,2,2,-2
-164.59,11.90,-58.68,1703,-6957,4221,1,2,-2
-164.55,11.90,-58.61,1720,-6892,4280,1,1,-1
-164.54,11.91,-58.59,1742,-6876,4294,-1,-1,0
-164.56,11.90,-58.58,1742,-6852,4307,-1,-1,1
-164.59,11.88,-58.61,1740,-6886,4268,-1,-2,1
-164.65,11.85,-58.64,1726,-6899,4267,-1,-2,1
-164.71,11.83,-58.67,1744,-6937,4237,-1,-2,2
-164.77,11.79,-58.71,1696,-6973,4242,-2,-1,1
-164.82,11.76,-58.75,1686,-7006,4182,0,-1,1
-164.86,11.73,-58.75,1672,-6984,4203,-1,-1,0
-164.89,11.71,-58.75,1679,-6961,4203,0,-1,1
-164.92,11.70,-58.76,1668,-6959,4230,-1,-1,0
-164.94,11.69,-58.78,1668,-6946,4217,-1,-1,1
-164.96,11.68,-58.79,1694,-6958,4234,-1,-1,0
-164.99,11.66,-58.81,1690,-6952,4238,-1,-1,1
-165.02,11.65,-58.86,1663,-7006,4171,-1,-1,0
-165.03,11.64,-58.86,1680,-7008,4189,-1,0,0
-165.04,11.63,-58.86,1676,-6999,4168,1,0,0
-165.03,11.62,-58.83,1658,-6974,4280,-1,0,-1
-165.02,11.61,-58.85,1637,-6977,4220,0,0,-1
-165.00,11.63,-58.85,1637,-6958,4280,-2,-1,-2
-164.97,11.66,-58.87,1687,-6928,4254,-1,-1,-1
-164.96,11.68,-58.90,1721,-6887,4251,-3,-1,0
-164.98,11.67,-58.97,1748,-6914,4171,-2,0,1
-165.00,11.64,-59.01,1738,-6996,4159,-1,0,0
-165.03,11.61,-59.02,1686,-7055,4171,-1,1,0
-165.05,11.57,-59.04,1664,-7090,4157,0,1,0
-165.04,11.56,-59.02,1647,-7045,4204,0,1,-1
-165.02,11.55,-59.00,1650,-7003,4184,0,1,-1
-165.01,11.54,-58.97,1640,-6957,4215,0,0,-1
-165.01,11.53,-58.96,1678,-6909,4215,-1,0,0
-165.02,11.52,-58.96,1685,-6900,4238,-1,-1,0
-165.06,11.50,-58.99,1687,-6914,4261,-2,-1,1
-165.10,11.47,-59.05,1653,-6988,4227,-3,-1,1
-165.15,11.44,-59.10,1636,-6999,4199,-2,-1,1
-165.19,11.42,-59.14,1625,-7013,4156,-1,-1,0
-165.22,11.41,-59.15,1626,-6977,4199,-1,-1,0
-165.24,11.40,-59.17,1647,-6973,4184,-1,-2,1
-165.28,11.38,-59.19,1650,-6958,4230,-2,-1,0
-165.32,11.36,-59.24,1650,-7005,4185,-1,-2,1
-165.36,11.34,-59.28,1637,-7017,4191,-2,-1,1
-165.41,11.32,-59.33,1644,-7037,4131,-1,-1,1
-165.45,11.29,-59.37,1616,-7064,4122,-1,-1,0
-165.47,11.28,-59.38,1613,-7050,4119,0,-1,0
-165.49,11.26,-59.38,1628,-7044,4136,-1,-1,0
-165.51,11.24,-59.39,1608,-7036,4148,-1,0,0
-165.52,11.24,-59.39,1609,-7049,4119,0,0,0
-165.53,11.23,-59.39,1615,-7046,4162,-1,-1,0
-165.53,11.22,-59.39,1580,-7064,4110,0,0,-1
-165.51,11.23,-59.38,1593,-7075,4099,1,0,-2
-165.47,11.25,-59.30,1585,-7015,4173,2,-1,-2
-165.44,11.28,-59.26,1640,-6941,4234,0,-1,-1
-165.43,11.30,-59.28,1656,-6975,4219,-2,-1,0
-165.43,11.30,-59.30,1649,-7015,4163,0,1,-1
-165.43,11.30,-59.29,1653,-6994,4149,-1,0,0
-165.43,11.29,-59.29,1615,-7007,4179,0,-1,-1
-165.43,11.30,-59.29,1661,-6994,4149,0,0,0
-165.43,11.30,-59.29,1635,-7043,4149,-1,-1,-1
-165.43,11.29,-59.27,1662,-7019,4155,1,0,0
-165.43,11.28,-59.25,1630,-7035,4166,0,0,0
-165.42,11.28,-59.22,1618,-7037,4189,0,1,-1
-165.40,11.28,-59.21,1600,-7047,4135,0,0,-1
-165.38,11.29,-59.16,1585,-7034,4196,1,0,-2
-165.34,11.31,-59.12,1623,-6988,4186,1,0,-1
-165.32,11.33,-59.10,1611,-6969,4246,-1,-1,-1
-165.31,11.34,-59.11,1662,-6956,4203,0,0,0
-165.30,11.35,-59.12,1661,-6967,4195,-1,-1,0
-165.31,11.34,-59.13,1660,-6981,4192,-1,-1,0
-165.33,11.33,-59.14,1645,-7008,4174,0,-1,0
-165.33,11.32,-59.12,1638,-6994,4219,-1,0,0
-165.34,11.31,-59.14,1640,-7013,4159,0,-1,0
-165.35,11.30,-59.14,1623,-7034,4166,0,0,-1
-165.36,11.29,-59.12,1628,-7007,4165,1,0,0
-165.35,11.28,-59.10,1606,-6988,4195,0,0,-1
-165.35,11.28,-59.09,1632,-6982,4205,0,0,0
-165.34,11.28,-59.09,1630,-7001,4168,-1,0,0
-165.34,11.27,-59.07,1619,-6990,4202,0,0,-1
-165.34,11.27,-59.07,1636,-6997,4165,0,0,0
-165.34,11.26,-59.06,1618,-7016,4197,-1,0,-1
-165.35,11.24,-59.05,1625,-7004,4152,1,0,-1
-165.34,11.24,-59.02,1598,-7004,4206,0,0,-1
-165.33,11.25,-59.00,1625,-6989,4197,0,0,0
-165.33,11.24,-58.99,1605,-6987,4214,0,0,-1
-165.32,11.24,-58.97,1614,-6979,4210,0,0,-1
-165.31,11.24,-58.95,1617,-6994,4192,0,0,-1
-165.29,11.24,-58.93,1602,-6983,4229,0,0,-1
-165.28,11.24,-58.92,1625,-7018,4201,1,1,-1
-165.26,11.24,-58.88,1604,-6980,4252,-1,0,-1
-165.26,11.23,-58.88,1614,-6974,4224,0,0,-1
-165.25,11.22,-58.86,1606,-6972,4242,-1,0,-1
-165.25,11.22,-58.86,1634,-6972,4232,0,0,0
-165.26,11.22,-58.86,1637,-6972,4220,0,-1,0
-165.27,11.20,-58.85,1645,-6951,4230,0,0,0
-165.29,11.18,-58.85,1618,-6981,4180,0,0,0
-165.31,11.16,-58.82,1624,-6998,4203,0,1,0
-165.32,11.14,-58.79,1575,-7016,4210,1,-1,0
-165.32,11.13,-58.74,1600,-6990,4283,0,0,-1
-165.33,11.12,-58.72,1581,-6991,4274,0,-1,-1
-165.32,11.13,-58.70,1599,-6975,4263,0,0,-1
-165.32,11.13,-58.69,1608,-6966,4264,-1,-1,0
-165.32,11.13,-58.69,1606,-6953,4260,0,-1,0
-165.33,11.12,-58.68,1601,-6948,4258,-1,-1,0
-165.34,11.13,-58.69,1612,-6974,4230,-1,-1,0
-165.36,11.12,-58.70,1599,-6985,4227,0,-1,0
-165.37,11.11,-58.70,1578,-7006,4226,-1,-1,0
-165.36,11.11,-58.69,1596,-7015,4211,1,0,-1
-165.35,11.11,-58.66,1601,-6977,4254,0,0,-1
-165.34,11.11,-58.64,1589,-6982,4263,0,0,-1
-165.33,11.11,-58.62,1589,-6945,4294,-1,0,-1
-165.32,11.12,-58.63,1598,-6944,4288,-1,0,-1
-165.32,11.12,-58.64,1605,-6929,4271,-1,0,-1
-165.31,11.13,-58.66,1628,-6963,4228,-1,0,-1
-165.30,11.12,-58.66,1613,-6998,4242,-1,0,-1
-165.30,11.12,-58.66,1623,-7009,4212,0,0,-1
-165.29,11.13,-58.64,1608,-6995,4268,-1,0,-1
-165.28,11.12,-58.63,1623,-6969,4250,0,0,0
-165.29,11.11,-58.62,1592,-6954,4269,-1,-1,0
-165.30,11.10,-58.62,1616,-6932,4259,0,0,0
-165.32,11.09,-58.62,1600,-6964,4258,-1,-1,0
-165.33,11.08,-58.62,1607,-6943,4254,0,0,0
-165.35,11.06,-58.63,1584,-6979,4261,-1,-1,0
-165.37,11.05,-58.64,1589,-6971,4261,-1,-1,0
-165.37,11.05,-58.65,1588,-6998,4243,0,-1,0
-165.38,11.05,-58.66,1588,-6988,4236,0,-1,0
-165.39,11.04,-58.65,1595,-6968,4243,0,-1,0
-165.39,11.05,-58.65,1600,-6958,4267,-1,-1,0
-165.40,11.04,-58.67,1606,-6980,4234,0,-1,0
-165.41,11.03,-58.66,1600,-6967,4260,-1,-1,0
-165.42,11.02,-58.67,1599,-6968,4225,0,-1,0
-165.44,11.01,-58.65,1586,-6969,4261,0,-1,0
-165.45,11.00,-58.66,1609,-6969,4247,0,0,0
-165.47,10.98,-58.65,1581,-6971,4275,-1,0,0
-165.48,10.97,-58.65,1578,-6961,4263,0,0,0
-165.48,10.96,-58.66,1552,-6973,4268,-1,-1,-1
-165.48,10.96,-58.67,1570,-6969,4230,-1,0,0
-165.49,10.96,-58.67,1560,-6992,4236,0,-1,-1
-165.49,10.95,-58.66,1590,-6964,4245,0,0,0
-165.50,10.95,-58.66,1570,-6980,4261,-1,-1,0
-165.51,10.94,-58.65,1573,-6964,4265,0,0,0
-165.52,10.93,-58.66,1579,-6978,4247,-1,-1,0
-165.53,10.92,-58.66,1570,-6967,4257,-1,0,0
-165.53,10.92,-58.67,1566,-6985,4230,0,-1,0
-165.53,10.92,-58.65,1569,-6963,4273,0,0,-1
-165.54,10.92,-58.65,1581,-6978,4264,0,-1,0
-165.54,10.91,-58.66,1565,-6991,4276,-1,-1,0
-165.56,10.91,-58.67,1580,-6976,4237,0,-1,0
-165.56,10.90,-58.68,1568,-6979,4235,-1,-1,0
-165.58,10.89,-58.68,1582,-6972,4231,0,-1,0
-165.59,10.89,-58.69,1574,-6979,4245,0,-1,0
-165.61,10.88,-58.68,1572,-6981,4259,0,-1,0
-165.61,10.88,-58.68,1562,-6992,4260,0,0,0
-165.61,10.88,-58.67,1565,-6989,4259,0,-1,0
-165.61,10.88,-58.66,1558,-6986,4266,0,0,-1
-165.61,10.88,-58.66,1567,-6970,4255,-1,-1,0
-165.61,10.88,-58.66,1565,-6962,4263,-1,-1,-1
-165.62,10.88,-58.66,1599,-6927,4256,-1,0,0
-165.62,10.88,-58.67,1576,-6912,4292,-2,-1,0
-165.62,10.87,-58.71,1544,-6990,4249,-1,0,-1
-165.60,10.89,-58.72,1540,-7033,4235,-1,-1,-2
-165.56,10.92,-58.72,1576,-7013,4238,0,1,-2
-165.52,10.94,-58.71,1566,-7000,4189,0,0,-2
-165.47,10.96,-58.67,1557,-6955,4259,0,1,-2
-165.42,10.99,-58.67,1572,-6967,4252,-1,0,-2
-165.37,11.02,-58.67,1578,-6987,4275,-1,0,-2
-165.34,11.05,-58.66,1605,-6940,4265,0,0,-1
-165.31,11.08,-58.66,1598,-6902,4281,-2,-1,-1
-165.30,11.09,-58.68,1626,-6897,4302,-2,-1,-1
-165.29,11.11,-58.73,1667,-6865,4319,-4,-1,0
-165.30,11.11,-58.82,1615,-6901,4339,-5,-1,0
-165.32,11.11,-58.97,1576,-7018,4232,-5,-1,-1
-165.30,11.13,-59.08,1570,-7104,4169,-3,-1,-1
-165.29,11.15,-59.14,1593,-7139,4103,-1,0,-1
-165.25,11.16,-59.13,1596,-7076,4142,0,0,-2
-165.22,11.18,-59.11,1606,-7001,4190,-1,0,-2
-165.19,11.20,-59.12,1597,-6997,4182,-1,0,-2
-165.17,11.21,-59.12,1621,-6962,4235,-1,0,-1
-165.16,11.22,-59.16,1641,-6962,4234,-3,-1,-1
-165.15,11.23,-59.21,1622,-7010,4208,-3,-1,-1
-165.16,11.23,-59.27,1633,-7023,4143,-2,0,-1
-165.15,11.24,-59.30,1634,-7063,4139,-2,0,-1
-165.15,11.23,-59.31,1638,-7047,4104,0,0,0
-165.15,11.22,-59.29,1617,-7036,4137,0,0,0
-165.16,11.21,-59.28,1604,-7035,4148,0,0,-1
-165.16,11.20,-59.26,1583,-7025,4148,0,0,0
-165.15,11.20,-59.25,1583,-7031,4178,0,0,-1
-165.15,11.20,-59.23,1604,-6986,4196,0,-1,0
-165.15,11.20,-59.23,1599,-6981,4217,-1,-1,0
-165.17,11.20,-59.25,1611,-6983,4200,-1,-1,0
-165.17,11.20,-59.28,1612,-7019,4164,-1,-1,0
-165.17,11.21,-59.29,1623,-7017,4156,0,-1,0
-165.18,11.20,-59.28,1608,-7009,4173,-1,-1,0
-165.19,11.20,-59.29,1616,-7020,4194,-1,-1,0
-165.19,11.21,-59.30,1618,-7038,4139,0,-1,-1
-165.18,11.21,-59.28,1624,-7022,4173,0,0,-1
-165.18,11.21,-59.27,1615,-7012,4149,0,-1,0
-165.17,11.21,-59.25,1600,-7017,4198,0,0,-1
-165.17,11.22,-59.25,1623,-6971,4209,0,-1,0
-165.18,11.22,-59.26,1632,-6951,4232,-2,-1,0
-165.20,11.21,-59.31,1664,-6943,4211,-2,-1,1
-165.24,11.19,-59.37,1622,-7001,4161,-2,-1,1
-165.27,11.17,-59.41,1623,-7068,4121,0,-1,0
-165.29,11.15,-59.40,1612,-7087,4168,-1,-1,0
-165.30,11.14,-59.41,1583,-7102,4124,1,-1,0
-165.31,11.14,-59.38,1581,-7032,4175,-1,0,-1
-165.30,11.15,-59.38,1587,-7014,4154,0,-1,-1
-165.30,11.15,-59.38,1605,-6980,4176,-1,-1,0
-165.31,11.15,-59.40,1624,-7028,4142,0,-1,0
-165.32,11.14,-59.39,1617,-7025,4159,0,-1,0
-165.33,11.14,-59.38,1643,-7018,4181,0,0,0
-165.35,11.12,-59.38,1615,-7030,4187,-1,-1,0
-165.37,11.11,-59.37,1603,-7010,4179,0,-1,0
-165.40,11.09,-59.38,1603,-7007,4167,0,-1,0
-165.43,11.08,-59.37,1596,-6970,4191,-1,-2,1
-165.48,11.06,-59.40,1616,-6985,4165,-1,-2,1
-165.52,11.04,-59.43,1603,-6976,4183,-2,-1,1
-165.57,11.01,-59.48,1604,-7039,4131,-1,-1,1
-165.60,10.97,-59.50,1554,-7115,4138,-1,0,0
-165.61,10.97,-59.51,1551,-7127,4114,1,0,-1
-165.60,10.97,-59.48,1570,-7069,4175,-1,0,-1
-165.59,10.97,-59.49,1586,-7034,4110,0,0,-1
-165.58,10.96,-59.46,1570,-7031,4147,0,0,-1
-165.57,10.96,-59.44,1583,-7029,4149,1,0,-1
-165.56,10.96,-59.42,1556,-7087,4139,0,0,-1
-165.54,10.97,-59.38,1552,-7065,4151,1,0,-1
-165.50,10.99,-59.34,1556,-7051,4157,0,0,-2
-165.46,11.02,-59.30,1573,-7011,4196,0,0,-2
-165.44,11.04,-59.29,1576,-7001,4194,0,-1,-2
-165.41,11.06,-59.28,1615,-6952,4223,-1,0,-1
-165.40,11.07,-59.29,1631,-6950,4193,-1,-1,0
-165.43,11.07,-59.32,1619,-6961,4205,-2,-1,0
-165.45,11.06,-59.37,1637,-7023,4121,-1,0,1
-165.48,11.03,-59.38,1597,-7074,4163,-1,-1,0
-165.50,11.01,-59.38,1616,-7070,4128,1,0,1
-165.52,10.99,-59.37,1571,-7079,4145,0,-1,0
-165.54,10.98,-59.33,1576,-7028,4161,1,0,0
-165.54,10.98,-59.31,1559,-7017,4185,0,-1,0
-165.54,10.97,-59.29,1601,-6938,4225,-1,-1,0
-165.57,10.96,-59.32,1568,-7000,4167,-1,-1,0
-165.58,10.95,-59.32,1566,-7005,4177,-1,0,0
-165.58,10.95,-59.34,1575,-7037,4176,-1,-1,0
-165.59,10.95,-59.34,1571,-7035,4195,-1,-1,0
-165.60,10.95,-59.36,1569,-7031,4142,0,-1,0
-165.59,10.96,-59.35,1595,-7013,4198,-1,0,-1
-165.61,10.95,-59.37,1581,-7023,4130,0,-2,0
-165.61,10.95,-59.36,1609,-7011,4212,-2,0,0
-165.64,10.93,-59.39,1593,-7020,4167,-1,-1,1
-165.66,10.92,-59.41,1576,-7042,4169,-1,-1,0
-165.68,10.91,-59.42,1585,-7038,4153,0,0,0
-165.70,10.90,-59.43,1559,-7067,4139,0,-1,0
-165.71,10.89,-59.41,1573,-6998,4189,-1,0,0
-165.73,10.87,-59.44,1582,-7050,4176,-1,-1,0
-165.76,10.85,-59.44,1559,-7020,4163,-1,0,0
-165.77,10.83,-59.45,1575,-7038,4159,0,0,0
-165.79,10.82,-59.45,1546,-7035,4210,-2,-1,0
-165.81,10.80,-59.48,1571,-7039,4120,0,0,0
-165.83,10.78,-59.48,1531,-7048,4184,-2,0,0
-165.84,10.78,-59.51,1557,-7057,4083,1,0,0
-165.86,10.76,-59.49,1533,-7043,4188,-2,-1,0
-165.87,10.76,-59.52,1542,-7047,4141,0,-1,0
-165.88,10.76,-59.53,1533,-7069,4144,-1,-1,0
-165.89,10.75,-59.53,1527,-7069,4129,0,-1,0
-165.91,10.74,-59.54,1537,-7096,4126,0,-1,0
-165.90,10.75,-59.50,1561,-7021,4184,0,-1,0
-165.90,10.75,-59.49,1565,-7020,4162,0,0,0
-165.91,10.74,-59.50,1556,-7011,4138,0,-1,0
-165.91,10.73,-59.48,1525,-7020,4145,0,0,-1
-165.90,10.74,-59.45,1532,-7013,4154,0,-1,-1
-165.89,10.74,-59.45,1540,-7031,4195,-1,-1,-1
-165.89,10.76,-59.45,1552,-7049,4180,-1,0,-1
-165.88,10.76,-59.46,1556,-7048,4173,-1,-1,-1
-165.87,10.77,-59.47,1558,-7040,4168,-1,0,-1
-165.86,10.77,-59.48,1548,-7034,4142,-1,-1,-1
-165.86,10.78,-59.50,1553,-7049,4157,-1,-1,-1
-165.86,10.78,-59.51,1566,-7055,4133,-1,-1,0
-165.85,10.79,-59.51,1558,-7062,4130,0,0,-1
-165.86,10.80,-59.49,1576,-7056,4139,0,-1,0
-165.85,10.80,-59.48,1543,-7050,4165,0,-1,-1
-165.84,10.81,-59.47,1567,-7036,4147,0,0,-1
-165.83,10.81,-59.46,1539,-7034,4159,0,-1,-1
-165.82,10.82,-59.45,1562,-7017,4163,0,0,-1
-165.81,10.83,-59.44,1548,-7027,4161,-1,-1,-1
-165.80,10.84,-59.44,1556,-7021,4187,-1,0,-1
-165.78,10.86,-59.45,1575,-7037,4164,-1,-1,-1
-165.77,10.86,-59.44,1563,-7039,4184,-1,0,-1
-165.76,10.88,-59.46,1586,-7039,4138,0,-1,-1
-165.75,10.89,-59.45,1547,-7040,4163,-1,-1,-1
-165.74,10.90,-59.45,1594,-7031,4136,0,0,-1
-165.72,10.91,-59.44,1572,-7044,4157,-1,-1,-1
-165.72,10.91,-59.44,1579,-7038,4163,0,0,-1
-165.72,10.91,-59.43,1569,-7033,4149,0,-1,-1
-165.70,10.92,-59.42,1550,-7022,4173,-1,0,-1
-165.69,10.93,-59.43,1574,-7035,4125,0,-1,-1
-165.67,10.95,-59.42,1571,-7031,4180,-1,-1,-1
-165.67,10.96,-59.43,1602,-7036,4132,0,0,-1
-165.65,10.96,-59.42,1577,-7041,4149,0,0,-1
-165.65,10.97,-59.41,1599,-7036,4171,0,0,0
-165.64,10.97,-59.40,1561,-7046,4154,0,-1,-1
-165.62,10.98,-59.39,1588,-7015,4174,0,0,-1
-165.61,10.99,-59.39,1598,-7011,4142,-1,0,-1
-165.60,10.99,-59.39,1571,-7024,4179,-1,0,-1
-165.59,11.00,-59.40,1603,-7027,4140,0,0,-1
-165.58,11.01,-59.39,1584,-7030,4176,-1,0,-1
-165.58,11.01,-59.40,1603,-7029,4141,0,0,-1
-165.56,11.02,-59.39,1576,-7044,4181,-1,0,-1
-165.55,11.02,-59.39,1605,-7009,4173,0,0,0
-165.56,11.01,-59.39,1567,-7049,4148,0,-1,-1
-165.55,11.02,-59.38,1588,-7019,4173,0,0,-1
-165.55,11.02,-59.38,1589,-7050,4156,0,-1,0
-165.53,11.02,-59.37,1585,-7030,4179,-1,0,-1
-165.52,11.03,-59.37,1600,-7048,4167,0,0,-1
-165.52,11.03,-59.36,1578,-7029,4171,0,0,-1
-165.51,11.03,-59.36,1589,-7031,4176,0,0,-1
-165.50,11.04,-59.35,1587,-7028,4173,-1,-1,-1
-165.49,11.05,-59.35,1597,-7015,4159,-1,0,-1
-165.48,11.06,-59.34,1595,-7028,4163,0,-1,-1
-165.47,11.06,-59.32,1611,-7013,4197,-1,0,-1
-165.46,11.07,-59.32,1590,-7012,4191,-1,-1,-1
-165.46,11.07,-59.34,1582,-7025,4172,-1,-1,-1
-165.45,11.09,-59.34,1591,-7019,4138,0,-1,-1
-165.45,11.09,-59.32,1590,-7025,4159,0,0,-1
-165.44,11.10,-59.32,1599,-7027,4167,0,-1,-1
-165.43,11.10,-59.30,1600,-7025,4163,0,-1,-1
-165.42,11.12,-59.30,1600,-7014,4173,0,-1,-1
-165.41,11.13,-59.30,1599,-7021,4175,0,-1,-1
-165.40,11.14,-59.29,1607,-7006,4184,0,-1,-1
-165.40,11.14,-59.28,1608,-7003,4173,0,-1,-1
-165.40,11.14,-59.29,1612,-7007,4172,-1,-1,0
-165.40,11.15,-59.30,1614,-7018,4163,0,-1,0
-165.40,11.15,-59.29,1605,-7027,4161,0,-1,-1
-165.40,11.15,-59.29,1604,-7018,4165,0,0,0
-165.40,11.15,-59.29,1601,-7023,4169,-1,-1,-1
-165.40,11.15,-59.28,1600,-7001,4178,-1,-1,0
-165.41,11.14,-59.29,1609,-7022,4175,-1,0,0
-165.41,11.14,-59.30,1606,-7016,4156,0,-1,0
-165.41,11.14,-59.30,1599,-7030,4173,0,-1,0
-165.42,11.14,-59.29,1599,-7020,4184,-1,-1,0
-165.42,11.14,-59.30,1600,-7036,4155,0,-1,-1
-165.42,11.14,-59.30,1596,-7017,4170,-1,-1,-1
-165.42,11.14,-59.30,1610,-7015,4157,0,0,0
-165.42,11.14,-59.30,1609,-7017,4192,-1,-1,0
-165.43,11.13,-59.31,1606,-7025,4158,0,-1,0
-165.43,11.13,-59.31,1601,-7013,4178,-1,-1,-1
-165.43,11.12,-59.32,1619,-7012,4156,0,0,0
-165.43,11.12,-59.31,1597,-7013,4181,-1,-1,0
-165.44,11.12,-59.32,1614,-7001,4165,0,0,0
-165.45,11.11,-59.31,1600,-7019,4182,-1,-1,0
-165.45,11.11,-59.31,1611,-7010,4165,0,0,0
-165.45,11.12,-59.31,1605,-7031,4165,-1,-1,-1
-165.45,11.11,-59.32,1609,-7018,4174,0,0,0
-165.46,11.11,-59.32,1606,-7039,4157,0,-1,0
-165.47,11.10,-59.31,1609,-7000,4186,-1,0,0
-165.47,11.10,-59.32,1601,-7024,4166,-1,-1,0
-165.48,11.09,-59.32,1601,-7016,4184,-1,-1,0
-165.49,11.08,-59.33,1601,-7032,4147,0,-1,0
-165.49,11.08,-59.33,1590,-7019,4169,-1,-1,0
-165.50,11.08,-59.34,1610,-7024,4137,0,0,0
-165.51,11.07,-59.33,1601,-7032,4177,-1,-1,0
-165.51,11.07,-59.33,1605,-7025,4162,0,0,0
-165.51,11.07,-59.34,1594,-7013,4177,-1,-1,0
-165.52,11.07,-59.34,1614,-6991,4168,0,0,0
-165.53,11.06,-59.35,1596,-7024,4157,-1,-1,0
-165.54,11.04,-59.36,1598,-7014,4159,-1,0,0
-165.56,11.03,-59.37,1585,-7046,4143,-1,-1,0
-165.57,11.03,-59.37,1585,-7020,4156,0,0,0
-165.57,11.02,-59.37,1589,-7037,4141,0,-1,0
-165.58,11.02,-59.36,1594,-7005,4173,-1,0,0
-165.59,11.01,-59.37,1595,-7022,4155,0,-1,0
-165.59,11.01,-59.36,1595,-7010,4189,-1,-1,0
-165.60,11.00,-59.38,1590,-7030,4152,0,0,0
-165.61,10.99,-59.38,1579,-7032,4179,-1,-1,0
-165.63,10.97,-59.39,1584,-7037,4152,0,0,0
-165.63,10.97,-59.39,1570,-7038,4164,-1,-1,0
-165.63,10.97,-59.40,1581,-7039,4142,0,0,0
-165.64,10.97,-59.40,1572,-7041,4158,-1,-1,0
-165.65,10.97,-59.40,1585,-7022,4138,0,0,0
-165.66,10.96,-59.39,1576,-7036,4160,-1,-1,0
-165.66,10.95,-59.39,1579,-7027,4179,0,-1,0
-165.67,10.95,-59.40,1578,-7049,4148,-1,-1,0
-165.67,10.95,-59.40,1573,-7037,4166,-1,-1,0
-165.67,10.95,-59.40,1571,-7037,4146,0,-1,-1
-165.68,10.95,-59.40,1583,-7027,4166,-1,-1,0
-165.67,10.95,-59.39,1579,-7032,4169,0,-1,-1
-165.68,10.96,-59.39,1599,-7021,4165,-1,-1,0
-165.67,10.96,-59.39,1576,-7027,4174,0,-1,-1
-165.67,10.96,-59.38,1581,-7015,4160,0,0,0
-165.67,10.96,-59.38,1566,-7022,4172,0,-1,-1
-165.66,10.97,-59.37,1579,-7006,4176,0,0,-1
-165.65,10.98,-59.38,1586,-7027,4162,-1,-1,-1
-165.65,10.98,-59.38,1584,-7033,4172,-1,0,-1
-165.64,10.99,-59.38,1585,-7043,4141,0,-1,-1
-165.63,11.00,-59.38,1577,-7038,4173,-1,-1,-1
-165.63,11.00,-59.38,1596,-7022,4141,0,0,-1
-165.61,11.01,-59.37,1572,-7024,4158,-1,-1,-1
-165.61,11.02,-59.37,1602,-7014,4155,0,0,0
-165.60,11.02,-59.37,1581,-7030,4156,-1,-1,-1
-165.60,11.03,-59.37,1591,-7013,4149,0,0,-1
-165.59,11.03,-59.37,1593,-7028,4156,0,-1,-1
-165.58,11.03,-59.36,1585,-7032,4184,-1,0,-1
-165.58,11.04,-59.37,1603,-7029,4143,0,-1,-1
-165.57,11.05,-59.37,1582,-7016,4174,-1,-1,-1
-165.56,11.06,-59.37,1618,-7013,4143,0,0,-1
-165.55,11.06,-59.36,1601,-7040,4161,-1,-1,-1
-165.54,11.07,-59.36,1608,-7034,4179,0,0,-1
-165.54,11.07,-59.36,1592,-7043,4156,0,-1,-1
-165.53,11.07,-59.34,1597,-7015,4208,-1,0,-1
-165.52,11.08,-59.35,1608,-7014,4167,0,0,0
-165.52,11.08,-59.35,1580,-7028,4205,-1,-1,-1
-165.52,11.08,-59.35,1594,-7021,4157,0,0,-1
-165.51,11.08,-59.35,1573,-7036,4173,-1,-1,-1
-165.51,11.09,-59.36,1607,-7032,4167,0,0,-1
-165.49,11.10,-59.35,1608,-7038,4159,-1,-1,-1
-165.49,11.10,-59.34,1595,-7018,4179,0,0,-1
-165.48,11.11,-59.34,1612,-7017,4149,0,-1,-1
-165.47,11.11,-59.33,1611,-7004,4197,-1,0,-1
-165.46,11.12,-59.33,1624,-7013,4157,0,0,0
-165.46,11.12,-59.33,1593,-7015,4183,-1,-1,-1
-165.46,11.12,-59.33,1616,-7005,4176,0,0,0
-165.45,11.12,-59.34,1604,-7034,4147,-1,-1,-1
-165.45,11.13,-59.33,1608,-7013,4173,0,0,-1
-165.44,11.14,-59.33,1607,-7034,4160,0,-1,-1
-165.44,11.14,-59.33,1610,-7022,4193,-1,0,-1
-165.43,11.14,-59.34,1619,-7020,4142,0,0,0
-165.42,11.14,-59.33,1603,-7028,4191,-1,-1,-1
-165.42,11.15,-59.34,1625,-7020,4162,0,0,-1
-165.41,11.16,-59.33,1599,-7029,4190,-1,-1,-1
-165.41,11.16,-59.33,1616,-7027,4175,0,0,-1
-165.40,11.17,-59.33,1606,-7035,4164,0,-1,-1
-165.39,11.18,-59.32,1627,-7021,4172,0,0,-1
-165.38,11.19,-59.32,1625,-7023,4158,0,-1,-1
-165.38,11.19,-59.31,1611,-7017,4180,-1,0,-1
-165.37,11.19,-59.31,1610,-7018,4165,0,-1,-1
-165.37,11.20,-59.31,1606,-7015,4187,-1,-1,-1
-165.36,11.21,-59.31,1619,-7009,4181,-1,-1,-1
-165.36,11.21,-59.31,1615,-7023,4179,-1,0,-1
-165.36,11.21,-59.31,1608,-7018,4177,-1,-1,-1
-165.35,11.21,-59.32,1605,-7031,4163,-1,-1,-1
-165.35,11.22,-59.32,1608,-7037,4165,-1,-1,-1
-165.35,11.22,-59.32,1613,-7024,4165,0,0,0
-165.35,11.22,-59.32,1615,-7022,4153,-1,-1,-1
-165.35,11.22,-59.31,1618,-7009,4165,0,0,0
-165.35,11.22,-59.32,1615,-7017,4160,-1,-1,0
-165.35,11.22,-59.32,1620,-7017,4156,-1,0,0
-165.36,11.21,-59.33,1597,-7026,4151,0,-1,-1
-165.35,11.22,-59.32,1611,-7006,4166,0,0,-1
-165.35,11.22,-59.32,1617,-7020,4168,-1,-1,-1
-165.35,11.22,-59.32,1622,-7014,4173,-1,0,0
-165.35,11.22,-59.33,1619,-7035,4155,0,-1,0
-165.36,11.21,-59.33,1614,-7018,4165,-1,-1,0
-165.36,11.21,-59.33,1611,-7031,4152,0,-1,0
-165.36,11.21,-59.32,1623,-7010,4173,-1,0,0
-165.36,11.21,-59.32,1627,-7017,4174,0,0,0
-165.37,11.20,-59.32,1618,-7007,4188,-1,-1,0
-165.38,11.19,-59.33,1622,-7013,4166,0,0,0
-165.39,11.19,-59.33,1612,-7011,4181,-1,-1,0
-165.40,11.18,-59.35,1608,-7020,4145,0,0,0
-165.40,11.17,-59.35,1604,-7022,4162,-1,-1,0
-165.41,11.17,-59.35,1611,-7034,4146,0,0,0
-165.41,11.16,-59.34,1607,-7031,4169,-1,-1,0
-165.41,11.16,-59.34,1616,-7024,4163,0,0,0
-165.41,11.16,-59.34,1607,-7020,4184,-1,-1,-1
-165.42,11.16,-59.34,1607,-7021,4171,0,0,0
-165.42,11.15,-59.34,1604,-7018,4179,-1,-1,0
-165.43,11.14,-59.35,1594,-7024,4154,-1,-1,0
-165.43,11.14,-59.34,1601,-7020,4172,-1,0,-1
-165.43,11.14,-59.34,1606,-7031,4165,0,-1,0
-165.44,11.14,-59.34,1596,-7035,4167,-1,-1,-1
-165.44,11.14,-59.35,1603,-7016,4154,0,0,0
-165.45,11.14,-59.34,1600,-7018,4166,-1,-1,0
-165.45,11.13,-59.34,1613,-7005,4181,-1,0,0
-165.46,11.13,-59.35,1608,-7029,4167,-1,-1,0
-165.46,11.12,-59.36,1599,-7015,4164,-1,-1,0
-165.47,11.12,-59.36,1596,-7028,4146,0,-1,0
-165.47,11.11,-59.36,1591,-7017,4158,0,-1,0
-165.47,11.12,-59.36,1597,-7028,4141,0,-1,0
-165.48,11.11,-59.36,1597,-7011,4175,-1,0,0
-165.48,11.11,-59.36,1597,-7024,4160,0,0,0
-165.47,11.11,-59.35,1598,-7019,4180,-1,-1,0
-165.48,11.11,-59.36,1600,-7020,4163,0,0,0
-165.48,11.10,-59.36,1597,-7023,4174,-1,-1,0
-165.49,11.10,-59.36,1595,-7020,4168,0,0,0
-165.49,11.09,-59.36,1589,-7022,4172,-1,-1,0
-165.50,11.09,-59.36,1588,-7023,4167,0,-1,0
-165.50,11.09,-59.36,1600,-7036,4161,0,-1,-1
-165.50,11.10,-59.36,1593,-7028,4161,0,-1,0
-165.50,11.10,-59.35,1603,-7041,4146,0,-1,-1
-165.50,11.10,-59.33,1601,-7019,4188,0,-1,0
-165.50,11.10,-59.34,1600,-7030,4175,0,-1,-1
-165.49,11.11,-59.33,1615,-7016,4158,0,-1,0
-165.50,11.10,-59.31,1592,-7006,4188,0,0,-1
-165.50,11.10,-59.31,1617,-6987,4154,0,0,0
-165.50,11.09,-59.31,1584,-7038,4178,-1,-1,-1
-165.49,11.10,-59.30,1621,-7012,4181,0,0,0
-165.50,11.09,-59.30,1569,-7025,4176,-1,-1,-1
-165.50,11.09,-59.31,1607,-7017,4199,-1,0,0
-165.48,11.10,-59.32,1618,-7019,4150,-1,0,-1
-165.48,11.10,-59.32,1590,-7016,4175,-1,0,-1
-165.47,11.10,-59.32,1608,-7017,4151,0,-1,0
-165.46,11.11,-59.33,1601,-7022,4183,-1,0,-1
-165.47,11.10,-59.32,1618,-7004,4191,-1,0,0
-165.46,11.10,-59.34,1606,-7022,4160,-1,0,-1
-165.46,11.09,-59.34,1597,-6998,4190,-1,0,0
-165.47,11.09,-59.37,1592,-7053,4109,-1,-1,0
-165.47,11.08,-59.35,1587,-7002,4199,-1,0,-1
-165.47,11.08,-59.37,1612,-7027,4144,0,0,0
-165.47,11.07,-59.37,1559,-7038,4166,-1,-1,-1
-165.45,11.08,-59.35,1603,-7007,4157,0,0,-1
-165.44,11.09,-59.36,1583,-7043,4179,-1,-1,-1
-165.43,11.10,-59.34,1602,-7003,4188,0,0,-1
-165.42,11.10,-59.35,1622,-7010,4171,-2,0,-1
-165.42,11.10,-59.36,1568,-7017,4163,0,-1,-1
-165.42,11.11,-59.37,1615,-7030,4144,-1,-1,0
-165.42,11.11,-59.37,1594,-7022,4164,-1,0,-1
-165.40,11.12,-59.37,1612,-7035,4159,0,0,0
-165.40,11.12,-59.37,1587,-7023,4155,-1,-1,-1
-165.39,11.12,-59.36,1610,-7022,4165,-1,0,0
-165.39,11.13,-59.37,1596,-7027,4136,0,-1,-1
-165.38,11.13,-59.37,1616,-7012,4188,-1,0,0
-165.38,11.13,-59.38,1590,-7032,4149,0,-1,0
-165.39,11.12,-59.38,1590,-7039,4162,-1,-1,-1
-165.37,11.14,-59.38,1615,-7038,4151,0,0,-1
-165.37,11.13,-59.37,1594,-7040,4168,0,-1,-1
-165.36,11.14,-59.36,1606,-7023,4160,-1,0,-1
-165.36,11.15,-59.36,1612,-7014,4178,-1,-1,-1
-165.36,11.15,-59.37,1600,-7020,4159,-1,-1,0
-165.36,11.15,-59.37,1600,-7022,4154,0,0,-1
-165.35,11.16,-59.37,1625,-7027,4163,-1,-1,0
-165.35,11.16,-59.37,1602,-7036,4181,0,-1,0
-165.35,11.16,-59.39,1591,-7048,4134,-1,-1,-1
-165.34,11.16,-59.37,1608,-7004,4179,-1,0,-1
-165.34,11.16,-59.39,1607,-7026,4135,0,0,0
-165.35,11.15,-59.38,1608,-7020,4179,-1,-1,0
-165.35,11.15,-59.39,1612,-7023,4162,0,-1,0
-165.36,11.14,-59.39,1599,-7022,4154,-1,0,0
-165.35,11.15,-59.39,1614,-7017,4142,0,-1,0
-165.36,11.15,-59.38,1608,-7027,4199,-1,-1,-1
-165.36,11.15,-59.39,1610,-7023,4142,0,-1,0
-165.37,11.14,-59.39,1609,-7038,4167,-1,0,0
-165.37,11.14,-59.39,1591,-7021,4163,0,-1,0
-165.37,11.14,-59.39,1623,-7024,4158,0,0,-1
-165.37,11.14,-59.39,1614,-7020,4184,-1,-1,0
-165.38,11.14,-59.40,1630,-7038,4165,0,0,0
-165.39,11.13,-59.39,1601,-6980,4205,-1,-1,0
-165.39,11.13,-59.41,1618,-7024,4148,0,0,0
-165.41,11.11,-59.42,1577,-7025,4160,-1,-1,0
-165.40,11.12,-59.42,1608,-7033,4161,0,0,0
-165.41,11.12,-59.41,1575,-7033,4170,-1,-1,-1
-165.41,11.12,-59.40,1589,-7043,4158,0,-1,0
-165.41,11.12,-59.40,1583,-7037,4161,-1,-1,-1
-165.40,11.13,-59.39,1603,-7022,4175,0,0,0
-165.40,11.14,-59.40,1620,-7038,4146,0,-1,-1
-165.40,11.13,-59.38,1641,-7012,4205,-1,0,0
-165.41,11.12,-59.41,1613,-7041,4130,0,-1,0
-165.42,11.11,-59.41,1600,-7015,4176,-2,0,0
-165.44,11.10,-59.43,1609,-7064,4134,0,-1,0
-165.45,11.09,-59.41,1594,-7000,4164,-1,-1,0
-165.46,11.09,-59.43,1612,-7050,4144,0,0,0
-165.47,11.07,-59.41,1577,-7003,4172,-1,-1,0
-165.47,11.07,-59.42,1604,-7024,4148,0,0,0
-165.48,11.07,-59.41,1599,-7013,4197,-1,-1,0
-165.49,11.06,-59.42,1591,-7039,4142,0,-1,0
-165.49,11.06,-59.42,1591,-7024,4178,-1,-1,-1
-165.50,11.05,-59.43,1596,-7030,4139,0,0,0
-165.51,11.05,-59.42,1580,-7034,4157,-1,-1,-1
-165.51,11.04,-59.42,1604,-7012,4134,0,0,0
-165.52,11.04,-59.42,1572,-7043,4136,0,-1,-1
-165.51,11.04,-59.42,1594,-7013,4169,0,-1,0
-165.51,11.05,-59.42,1585,-7047,4165,-1,-1,-1
-165.51,11.05,-59.41,1600,-6996,4175,-1,0,0
-165.50,11.06,-59.41,1608,-7028,4156,-1,-1,-1
-165.50,11.06,-59.41,1605,-7010,4181,-1,-1,0
-165.50,11.06,-59.42,1620,-7044,4144,0,0,0
-165.52,11.05,-59.42,1592,-7027,4167,-1,-1,0
-165.52,11.05,-59.43,1617,-7020,4134,0,0,0
-165.53,11.03,-59.42,1595,-7025,4176,-1,-1,0
-165.54,11.03,-59.43,1616,-7031,4143,0,0,0
-165.56,11.01,-59.43,1576,-7031,4182,-2,-1,0
-165.57,11.00,-59.43,1581,-7019,4147,0,0,0
-165.58,10.99,-59.44,1573,-7039,4181,-2,-1,0
-165.59,10.98,-59.44,1587,-7023,4147,0,0,0
-165.60,10.97,-59.44,1564,-7037,4185,-1,-1,-1
-165.60,10.97,-59.44,1588,-7019,4158,0,0,0
-165.60,10.97,-59.46,1572,-7049,4149,-1,-1,-1
-165.61,10.96,-59.45,1592,-7016,4179,-1,0,0
-165.62,10.95,-59.47,1584,-7041,4127,0,0,-1
-165.62,10.95,-59.45,1575,-7033,4179,-1,-1,0
-165.62,10.95,-59.47,1574,-7060,4137,0,0,-1
-165.62,10.94,-59.47,1559,-7035,4189,-1,-1,0
-165.62,10.94,-59.49,1579,-7026,4138,0,0,-1
-165.63,10.94,-59.49,1553,-7034,4158,-1,-1,0
-165.63,10.94,-59.51,1597,-7052,4105,0,0,0
-165.65,10.93,-59.51,1568,-7073,4157,-1,-1,0
-165.65,10.93,-59.51,1582,-7066,4093,1,0,-1
-165.65,10.92,-59.49,1576,-7051,4157,-1,-1,0
-165.66,10.92,-59.48,1559,-7037,4134,1,-1,-1
-165.66,10.92,-59.47,1575,-7001,4167,-1,0,0
-165.66,10.92,-59.47,1587,-7028,4191,-1,-1,0
-165.67,10.92,-59.48,1569,-6999,4150,0,0,-1
-165.66,10.92,-59.50,1599,-7025,4164,-1,-1,0
-165.66,10.92,-59.51,1580,-7040,4173,-1,-1,-1
-165.67,10.91,-59.52,1589,-7036,4144,-1,0,0
-165.67,10.91,-59.52,1561,-7045,4145,-1,-1,-1
-165.67,10.91,-59.52,1576,-7012,4137,-1,0,0
-165.67,10.91,-59.53,1547,-7047,4132,-1,-1,-1
-165.66,10.93,-59.51,1589,-7000,4175,0,0,-1
-165.65,10.94,-59.52,1582,-7043,4109,0,-1,0
-165.64,10.94,-59.51,1568,-7036,4191,-1,0,-1
-165.64,10.95,-59.53,1595,-7053,4127,-1,0,0
-165.64,10.94,-59.53,1557,-7043,4127,-1,-1,-1
-165.63,10.95,-59.53,1570,-7035,4134,0,0,-1
-165.62,10.96,-59.53,1578,-7070,4115,0,-1,-1
-165.60,10.97,-59.51,1582,-7024,4165,-1,0,-1
-165.59,10.98,-59.52,1582,-7049,4109,0,0,-1
-165.58,10.98,-59.50,1575,-7041,4169,-1,-1,-1
-165.57,11.00,-59.51,1594,-7036,4120,0,0,-1
-165.57,11.00,-59.50,1569,-7035,4160,-1,0,-1
-165.56,11.00,-59.50,1576,-7033,4143,0,0,-1
-165.55,11.01,-59.51,1592,-7047,4120,0,0,-1
-165.54,11.02,-59.49,1575,-7034,4177,-1,0,-1
-165.52,11.03,-59.49,1577,-7033,4118,0,0,-1
-165.50,11.05,-59.48,1581,-7030,4167,-1,-1,-1
-165.49,11.06,-59.49,1620,-7036,4116,0,0,-1
-165.47,11.07,-59.48,1595,-7048,4150,-1,-1,-1
-165.47,11.07,-59.47,1610,-7033,4147,0,0,0
-165.46,11.08,-59.48,1601,-7049,4136,0,0,-1
-165.45,11.08,-59.47,1593,-7032,4164,-1,0,-1
-165.44,11.09,-59.47,1605,-7039,4125,0,0,-1
-165.44,11.08,-59.45,1585,-7027,4176,-1,0,-1
-165.44,11.09,-59.47,1590,-7043,4124,0,-1,-1
-165.42,11.10,-59.46,1593,-7031,4158,-1,0,-1
-165.41,11.12,-59.47,1613,-7030,4144,0,0,-1
-165.41,11.12,-59.47,1580,-7040,4116,0,-1,-1
-165.39,11.13,-59.45,1607,-7027,4150,0,0,-1
-165.39,11.12,-59.45,1598,-7046,4155,-1,-1,-1
-165.39,11.12,-59.44,1610,-7035,4165,0,0,-1
-165.38,11.12,-59.45,1591,-7057,4132,0,0,-1
-165.38,11.12,-59.43,1578,-7036,4172,-1,0,-1
-165.37,11.13,-59.43,1601,-7035,4140,0,0,-1
-165.36,11.14,-59.43,1573,-7031,4156,-1,0,-1
-165.35,11.14,-59.44,1596,-7039,4133,0,0,-1
-165.34,11.15,-59.43,1590,-7043,4147,0,-1,-1
-165.33,11.16,-59.42,1602,-7025,4151,0,0,-1
-165.31,11.17,-59.41,1609,-7012,4162,-1,0,-1
-165.31,11.17,-59.41,1612,-7010,4151,-1,-1,0
-165.30,11.18,-59.41,1609,-7008,4153,-1,-1,-1
-165.31,11.18,-59.42,1607,-7033,4157,-1,0,0
-165.31,11.18,-59.43,1602,-7039,4143,0,-1,-1
-165.31,11.19,-59.43,1591,-7046,4126,-1,0,-1
-165.30,11.19,-59.43,1603,-7052,4132,0,0,-1
-165.30,11.19,-59.42,1601,-7051,4141,0,-1,-1
-165.30,11.19,-59.40,1598,-7031,4171,-1,-1,0
-165.29,11.20,-59.40,1597,-7028,4141,0,0,-1
-165.29,11.20,-59.40,1598,-7022,4162,-1,-1,-1
-165.29,11.20,-59.40,1612,-7027,4147,0,0,-1
-165.29,11.21,-59.40,1612,-7030,4160,-1,-1,-1
-165.29,11.21,-59.40,1609,-7040,4140,0,0,-1
-165.29,11.21,-59.40,1594,-7038,4135,0,-1,-1
-165.28,11.21,-59.39,1611,-7015,4136,0,0,-1
-165.27,11.22,-59.38,1616,-7022,4150,0,-1,-1
-165.27,11.22,-59.38,1628,-7011,4149,0,0,0
-165.28,11.22,-59.38,1619,-7022,4160,-1,-1,0
-165.29,11.21,-59.39,1619,-7008,4161,-1,-1,0
-165.30,11.21,-59.40,1610,-7029,4144,-1,0,0
-165.31,11.20,-59.40,1611,-7037,4165,-1,-1,0
-165.32,11.19,-59.41,1606,-7068,4131,0,0,0
-165.32,11.19,-59.40,1591,-7050,4170,0,-1,0
-165.32,11.19,-59.39,1601,-7044,4139,0,0,-1
-165.31,11.20,-59.38,1609,-7006,4166,-1,-1,-1
-165.31,11.20,-59.39,1619,-7013,4129,0,0,0
-165.31,11.20,-59.38,1613,-7016,4164,-1,-1,0
-165.32,11.19,-59.39,1611,-7035,4129,0,0,0
-165.32,11.18,-59.39,1591,-7051,4167,-1,-1,-1
-165.33,11.18,-59.39,1603,-7036,4126,0,0,0
-165.32,11.18,-59.38,1600,-7032,4166,-1,-1,-1
-165.32,11.18,-59.38,1619,-7012,4157,0,0,0
-165.33,11.18,-59.38,1612,-7032,4156,-1,0,0
-165.34,11.16,-59.39,1602,-7020,4149,0,0,0
-165.35,11.16,-59.40,1590,-7045,4136,-1,-1,0
-165.35,11.15,-59.39,1603,-7029,4139,0,0,0
-165.35,11.16,-59.40,1590,-7059,4126,0,0,-1
-165.36,11.15,-59.38,1601,-7021,4156,0,0,0
-165.36,11.15,-59.39,1598,-7044,4142,0,0,-1
-165.36,11.14,-59.38,1593,-7020,4161,-1,-1,0
-165.37,11.14,-59.39,1597,-7037,4143,0,-1,0
-165.37,11.14,-59.38,1594,-7024,4173,-1,-1,0
-165.37,11.14,-59.39,1600,-7041,4137,0,0,0
-165.38,11.13,-59.39,1600,-7016,4159,-1,0,0
-165.39,11.12,-59.40,1595,-7029,4131,0,0,0
-165.39,11.12,-59.39,1581,-7025,4174,-1,-1,0
-165.39,11.12,-59.40,1607,-7033,4132,0,0,0
-165.40,11.11,-59.39,1591,-7040,4185,-1,-1,-1
-165.40,11.11,-59.40,1604,-7043,4154,0,0,0
-165.41,11.10,-59.41,1577,-7050,4146,-1,-1,0
-165.42,11.09,-59.41,1585,-7028,4138,0,0,0
-165.42,11.09,-59.41,1574,-7055,4138,-1,-1,-1
-165.42,11.09,-59.40,1593,-7025,4150,0,0,-1
-165.41,11.09,-59.40,1604,-7051,4162,-1,-1,-1
-165.41,11.09,-59.40,1596,-7030,4154,-1,-1,0
-165.42,11.09,-59.40,1599,-7043,4138,0,-1,0
-165.43,11.08,-59.40,1586,-7035,4170,-1,-1,0
-165.43,11.08,-59.40,1589,-7041,4144,0,0,-1
-165.43,11.08,-59.40,1590,-7039,4150,-1,-1,0
-165.44,11.08,-59.41,1584,-7063,4150,0,-1,-1
-165.43,11.08,-59.40,1583,-7059,4134,0,-1,0
-165.43,11.09,-59.38,1570,-7042,4150,0,-1,-1
-165.43,11.09,-59.37,1601,-7020,4144,0,-1,0
-165.42,11.10,-59.35,1583,-7002,4157,0,-1,-1
-165.42,11.10,-59.34,1583,-7014,4180,0,-1,0
-165.41,11.11,-59.34,1596,-7017,4151,0,-1,-1
-165.40,11.11,-59.32,1600,-6969,4220,-2,0,-1
-165.41,11.11,-59.36,1584,-7028,4153,-1,-1,0
-165.40,11.12,-59.37,1563,-7044,4154,-1,-1,-1
-165.38,11.13,-59.38,1598,-7054,4131,0,0,-1
-165.37,11.15,-59.38,1580,-7065,4139,-1,-1,-1
-165.34,11.16,-59.37,1608,-7040,4156,0,0,-1
-165.33,11.17,-59.38,1606,-7044,4144,-1,0,-1
-165.31,11.18,-59.37,1614,-6973,4209,-1,0,-1
-165.31,11.18,-59.41,1596,-6994,4155,-2,-1,-1
-165.31,11.19,-59.43,1587,-6986,4186,-2,0,-1
-165.30,11.20,-59.49,1615,-7069,4098,-1,0,0
-165.31,11.19,-59.51,1597,-7101,4110,-1,-1,-1
-165.30,11.19,-59.51,1627,-7087,4096,0,0,0
-165.30,11.18,-59.50,1575,-7098,4094,0,0,-1
-165.28,11.19,-59.46,1615,-7056,4113,1,1,-1
-165.27,11.19,-59.44,1619,-7026,4127,0,0,0
-165.27,11.18,-59.41,1585,-6991,4181,-1,0,-1
-165.26,11.18,-59.41,1603,-6989,4167,-1,0,0
-165.27,11.18,-59.42,1589,-7037,4183,-1,-1,-1
-165.27,11.18,-59.42,1605,-7018,4145,0,0,0
-165.27,11.18,-59.43,1586,-7038,4166,-2,-1,-1
-165.27,11.18,-59.45,1594,-7044,4136,0,0,-1
-165.25,11.19,-59.45,1599,-7050,4129,-1,-1,-1
-165.25,11.19,-59.44,1604,-7042,4168,-1,-1,-1
-165.25,11.19,-59.46,1606,-7055,4115,0,0,0
-165.25,11.19,-59.45,1600,-7047,4145,-1,0,-1
-165.25,11.19,-59.45,1598,-7030,4135,0,0,0
-165.24,11.19,-59.45,1586,-7042,4127,0,-1,-1
-165.23,11.20,-59.44,1622,-7029,4153,0,0,0
-165.23,11.20,-59.45,1613,-7052,4137,0,0,-1
-165.23,11.20,-59.44,1601,-7026,4156,-1,0,-1
-165.22,11.20,-59.45,1612,-7033,4129,0,0,-1
-165.22,11.20,-59.44,1607,-7045,4158,-1,-1,-1
-165.21,11.21,-59.44,1620,-7023,4133,-1,0,0
-165.21,11.20,-59.44,1584,-7048,4136,-1,-1,-1
-165.20,11.21,-59.44,1616,-7033,4126,0,0,0
-165.20,11.21,-59.43,1591,-7027,4155,0,-1,-1
-165.20,11.21,-59.42,1612,-7009,4169,0,0,-1
-165.19,11.22,-59.43,1609,-7036,4141,-1,0,-1
-165.20,11.21,-59.44,1601,-7026,4148,-1,0,-1
-165.19,11.22,-59.44,1610,-7041,4132,0,-1,-1
-165.19,11.22,-59.44,1616,-7036,4142,-1,0,-1
-165.19,11.22,-59.43,1599,-7042,4129,0,0,0
-165.20,11.21,-59.44,1582,-7040,4127,0,-1,-1
-165.19,11.22,-59.43,1595,-7039,4156,-1,-1,-1
-165.19,11.23,-59.44,1598,-7051,4121,0,-1,-1
-165.18,11.23,-59.42,1607,-7030,4147,-1,-1,-1
-165.18,11.24,-59.41,1612,-7026,4153,0,-1,-1
-165.18,11.24,-59.42,1611,-7026,4153,-1,-1,-1
-165.18,11.24,-59.42,1601,-7036,4148,-1,-1,0
-165.18,11.24,-59.43,1601,-7052,4129,0,-1,-1
-165.18,11.24,-59.41,1613,-7042,4151,0,0,0
-165.17,11.25,-59.41,1615,-7049,4148,0,-1,-1
-165.18,11.24,-59.40,1617,-7027,4157,-1,0,0
-165.18,11.24,-59.41,1598,-7049,4140,0,0,-1
-165.18,11.24,-59.40,1609,-7036,4147,0,-1,0
-165.18,11.25,-59.41,1616,-7056,4116,0,-1,-1
-165.17,11.25,-59.40,1618,-7030,4151,-1,-1,0
-165.18,11.25,-59.41,1627,-7056,4118,0,0,0
-165.17,11.25,-59.40,1613,-7035,4157,-1,-1,-1
-165.18,11.24,-59.41,1635,-7042,4123,0,0,0
-165.19,11.23,-59.41,1609,-7030,4157,-1,0,-1
-165.20,11.22,-59.42,1614,-7045,4131,0,0,0
-165.21,11.21,-59.40,1594,-7038,4154,-1,-1,0
-165.22,11.20,-59.40,1602,-7024,4152,0,0,0
-165.23,11.19,-59.41,1579,-7053,4149,-1,-1,-1
-165.24,11.18,-59.41,1610,-7029,4143,0,0,0
-165.24,11.18,-59.42,1591,-7063,4156,-1,-1,0
-165.25,11.17,-59.42,1606,-7022,4152,0,0,0
-165.26,11.17,-59.43,1604,-7051,4131,-1,-1,0
-165.26,11.17,-59.43,1591,-7030,4105,0,0,0
-165.25,11.17,-59.42,1615,-7047,4129,0,0,-1
-165.26,11.15,-59.41,1579,-7041,4179,-1,-1,0
-165.27,11.15,-59.42,1593,-7034,4148,-1,-1,0
-165.28,11.14,-59.43,1606,-7043,4172,-2,-1,0
-165.29,11.14,-59.45,1602,-7051,4103,0,0,0
-165.30,11.12,-59.44,1591,-7034,4169,-2,-1,0
-165.31,11.12,-59.46,1605,-7047,4126,0,0,0
-165.33,11.10,-59.47,1577,-7037,4157,-1,-1,0
-165.33,11.09,-59.47,1583,-7040,4135,0,0,0
-165.34,11.09,-59.47,1568,-7052,4130,-1,-1,-1
-165.34,11.09,-59.46,1588,-7026,4144,0,0,0
-165.35,11.08,-59.48,1561,-7060,4120,-1,-1,-1
-165.34,11.08,-59.46,1588,-7020,4138,0,0,0
-165.35,11.09,-59.47,1579,-7057,4134,-1,-1,-1
-165.35,11.08,-59.46,1591,-7034,4143,0,0,0
-165.35,11.08,-59.46,1577,-7064,4130,0,-1,-1
-165.35,11.08,-59.45,1595,-7035,4143,0,0,0
-165.35,11.08,-59.46,1591,-7060,4124,0,-1,-1
-165.35,11.08,-59.45,1592,-7034,4151,-1,0,0
-165.35,11.08,-59.46,1584,-7047,4128,0,0,-1
-165.35,11.08,-59.45,1576,-7034,4138,0,-1,0
-165.35,11.09,-59.44,1583,-7037,4126,0,-1,-1
-165.35,11.09,-59.44,1594,-7025,4161,-1,-1,-1
-165.34,11.09,-59.44,1604,-7035,4143,0,0,0
-165.35,11.08,-59.45,1582,-7040,4149,-1,-1,0
-165.35,11.08,-59.45,1574,-7030,4139,0,0,-1
-165.36,11.09,-59.45,1580,-7038,4136,-1,-1,0
-165.36,11.08,-59.44,1573,-7041,4132,0,-1,-1
-165.36,11.08,-59.43,1581,-7034,4134,0,0,-1
-165.35,11.09,-59.42,1564,-7041,4147,0,-1,-1
-165.35,11.09,-59.41,1573,-7034,4156,0,0,-1
-165.33,11.11,-59.41,1595,-7025,4151,0,-1,-1
-165.32,11.11,-59.40,1579,-7013,4167,-1,0,-1
-165.31,11.12,-59.41,1607,-7013,4120,0,0,-1
-165.30,11.13,-59.41,1581,-7036,4158,-1,-1,-1
-165.28,11.14,-59.41,1620,-7039,4132,0,0,0
-165.28,11.13,-59.41,1573,-7062,4131,-1,-1,-1
-165.28,11.14,-59.41,1591,-7025,4131,0,0,-1
-165.27,11.15,-59.41,1598,-7038,4154,-1,0,-1
-165.26,11.15,-59.40,1604,-7022,4173,-1,0,-1
-165.26,11.14,-59.41,1604,-7035,4123,0,-1,0
-165.26,11.15,-59.40,1583,-7035,4180,-1,-1,-1
-165.26,11.15,-59.41,1614,-7053,4111,0,0,0
-165.25,11.14,-59.41,1585,-7057,4146,-1,-1,-1
-165.25,11.15,-59.40,1623,-7037,4095,1,0,0
-165.24,11.14,-59.37,1605,-7019,4149,0,0,-1
-165.25,11.13,-59.36,1593,-7034,4164,0,0,0
-165.24,11.13,-59.36,1586,-7041,4142,0,0,-1
-165.23,11.13,-59.34,1580,-7030,4185,-1,0,-1
-165.23,11.12,-59.34,1579,-7024,4134,0,0,-1
-165.21,11.14,-59.34,1567,-7025,4195,-1,-1,-1
-165.20,11.15,-59.33,1616,-7010,4152,0,0,-1
-165.19,11.15,-59.34,1595,-7029,4171,-1,-1,-1
-165.19,11.15,-59.34,1601,-7027,4137,0,0,-1
-165.17,11.16,-59.34,1609,-7043,4158,-1,0,-1
-165.17,11.16,-59.34,1599,-7043,4147,0,0,-1
-165.15,11.17,-59.33,1603,-7007,4157,0,0,-1
-165.15,11.17,-59.34,1588,-7032,4172,-1,-1,-1
-165.13,11.18,-59.35,1618,-7024,4147,-1,0,-1
-165.13,11.17,-59.36,1605,-7018,4167,-1,0,-1
-165.13,11.17,-59.38,1629,-7024,4128,-1,0,0
-165.14,11.15,-59.38,1592,-7053,4160,-1,0,-1
-165.14,11.14,-59.39,1593,-7039,4126,0,0,0
-165.13,11.14,-59.38,1570,-7066,4129,0,0,-1
-165.12,11.14,-59.36,1572,-7076,4134,0,0,-1
-165.11,11.14,-59.33,1568,-7007,4175,0,0,-1
-165.09,11.15,-59.32,1587,-6982,4211,-2,-1,-1
-165.10,11.16,-59.34,1595,-6972,4194,-1,-1,0
-165.11,11.16,-59.38,1612,-6963,4194,-3,-1,0
-165.13,11.16,-59.44,1621,-7009,4151,-2,-1,0
-165.15,11.15,-59.51,1599,-7052,4121,-2,-1,0
-165.18,11.13,-59.55,1594,-7118,4096,-1,-1,0
-165.18,11.13,-59.57,1606,-7121,4073,0,0,0
-165.19,11.12,-59.56,1583,-7100,4078,0,-1,0
-165.19,11.12,-59.54,1597,-7061,4088,0,0,0
-165.18,11.11,-59.52,1599,-7047,4134,0,0,0
-165.19,11.10,-59.53,1582,-7053,4107,0,0,0
-165.19,11.10,-59.51,1589,-7040,4144,-1,0,0
-165.21,11.09,-59.51,1582,-7038,4154,0,-1,0
-165.21,11.09,-59.51,1598,-7019,4141,-1,0,0
-165.22,11.08,-59.53,1575,-7053,4155,-1,-1,0
-165.23,11.07,-59.54,1587,-7065,4096,0,0,0
-165.23,11.07,-59.53,1587,-7057,4132,-1,-1,0
-165.24,11.06,-59.52,1588,-7040,4121,1,0,0
-165.25,11.06,-59.52,1602,-7018,4164,-1,-1,0
-165.26,11.04,-59.53,1602,-7033,4142,-1,0,0
-165.28,11.02,-59.56,1577,-7073,4127,-1,0,0
-165.29,11.01,-59.54,1568,-7052,4154,-1,0,0
-165.30,11.00,-59.56,1561,-7081,4118,0,-1,0
-165.31,11.00,-59.55,1568,-7047,4134,0,0,0
-165.31,10.99,-59.55,1581,-7067,4127,-1,0,-1
-165.30,10.98,-59.53,1580,-7033,4136,0,1,0
-165.30,10.97,-59.54,1570,-7067,4129,-1,0,-1
-165.30,10.97,-59.53,1562,-7089,4128,-1,0,-1
-165.29,10.96,-59.52,1542,-7070,4105,0,0,-1
-165.28,10.96,-59.50,1566,-7044,4143,-1,0,-1
-165.28,10.96,-59.50,1553,-7060,4094,1,-1,-1
-165.27,10.97,-59.46,1574,-7011,4174,0,0,-1
-165.27,10.97,-59.46,1588,-7005,4159,-1,-1,0
-165.29,10.96,-59.48,1548,-7040,4144,-1,-1,-1
-165.29,10.96,-59.49,1580,-7041,4116,0,-1,0
-165.30,10.96,-59.48,1573,-7055,4150,-1,-1,0
-165.31,10.95,-59.48,1600,-7043,4137,0,0,0
-165.33,10.94,-59.49,1575,-7078,4123,-1,-1,0
-165.35,10.92,-59.47,1582,-7024,4152,0,0,1
-165.37,10.90,-59.49,1585,-7070,4116,0,-1,0
-165.39,10.87,-59.46,1549,-7039,4145,0,0,0
-165.40,10.87,-59.46,1530,-7056,4146,0,-1,0
-165.41,10.86,-59.46,1527,-7032,4169,-1,-1,-1
-165.41,10.87,-59.48,1558,-7040,4151,-1,0,0
-165.42,10.86,-59.50,1540,-7029,4153,-1,-1,0
-165.43,10.86,-59.52,1558,-7024,4139,-1,-1,0
-165.44,10.86,-59.54,1538,-7032,4141,-1,-1,0
-165.45,10.86,-59.57,1555,-7045,4141,-2,-1,0
-165.47,10.86,-59.61,1570,-7086,4118,-1,-1,0
-165.48,10.86,-59.63,1559,-7090,4098,-1,-1,0
-165.48,10.85,-59.63,1552,-7131,4094,0,0,-1
-165.48,10.85,-59.61,1532,-7074,4112,0,-1,-1
-165.47,10.86,-59.60,1544,-7065,4113,0,0,-1
-165.46,10.86,-59.59,1574,-7021,4150,-2,-1,0
-165.47,10.86,-59.61,1541,-7057,4118,0,-1,-1
-165.46,10.87,-59.61,1563,-7046,4129,-1,-1,0
-165.47,10.87,-59.62,1568,-7037,4151,-1,0,-1
-165.47,10.86,-59.64,1560,-7061,4105,-1,0,0
-165.47,10.87,-59.64,1537,-7078,4101,0,-1,-1
-165.47,10.87,-59.64,1561,-7071,4115,0,0,-1
-165.45,10.88,-59.63,1550,-7053,4100,0,-1,-1
-165.44,10.88,-59.62,1552,-7046,4141,-1,0,-1
-165.44,10.89,-59.64,1579,-7033,4102,0,0,0
-165.43,10.89,-59.64,1552,-7061,4153,-1,-1,-1
-165.44,10.89,-59.65,1570,-7061,4119,0,0,0
-165.43,10.89,-59.66,1555,-7065,4115,-1,-1,-1
-165.42,10.90,-59.66,1567,-7068,4110,0,0,-1
-165.42,10.90,-59.65,1551,-7067,4093,0,-1,-1
-165.40,10.91,-59.64,1557,-7055,4121,0,0,-1
-165.39,10.92,-59.64,1579,-7071,4112,0,0,0
-165.39,10.91,-59.62,1558,-7056,4135,-1,0,-1
-165.39,10.92,-59.63,1569,-7058,4130,-1,0,-1
-165.38,10.92,-59.64,1536,-7060,4104,-1,-1,-1
-165.37,10.92,-59.64,1573,-7052,4102,0,0,-1
-165.37,10.93,-59.63,1562,-7073,4136,-1,-1,-1
-165.36,10.93,-59.63,1578,-7059,4137,0,0,-1
-165.35,10.93,-59.63,1557,-7058,4114,0,0,-1
-165.35,10.93,-59.63,1554,-7057,4136,-1,0,-1
-165.34,10.93,-59.63,1567,-7060,4119,0,0,-1
-165.34,10.93,-59.61,1562,-7061,4133,0,0,-1
-165.33,10.93,-59.61,1577,-7036,4140,-1,0,0
-165.34,10.93,-59.62,1543,-7081,4111,0,-1,-1
-165.33,10.94,-59.61,1575,-7048,4125,-1,0,-1
-165.32,10.93,-59.60,1546,-7044,4123,0,0,-1
-165.32,10.93,-59.60,1565,-7042,4163,-1,0,-1
-165.31,10.93,-59.61,1570,-7065,4119,-1,0,0
-165.31,10.94,-59.61,1568,-7063,4130,-1,0,-1
-165.30,10.94,-59.61,1564,-7055,4114,-1,0,0
-165.30,10.94,-59.62,1571,-7065,4127,-1,0,-1
-165.29,10.94,-59.62,1568,-7036,4115,-1,-1,0
-165.29,10.94,-59.62,1556,-7060,4137,-1,0,-1
-165.29,10.95,-59.64,1561,-7064,4099,-1,-1,0
-165.29,10.95,-59.64,1563,-7078,4118,-1,-1,-1
-165.29,10.95,-59.65,1581,-7086,4099,0,-1,0
-165.28,10.95,-59.64,1578,-7051,4133,0,0,0
-165.29,10.94,-59.66,1559,-7086,4101,0,-1,0
-165.29,10.95,-59.64,1569,-7059,4105,0,-1,-1
-165.29,10.95,-59.64,1571,-7069,4118,0,0,-1
-165.29,10.95,-59.63,1556,-7036,4134,-1,0,-1
-165.29,10.94,-59.64,1569,-7061,4121,-1,-1,0
-165.29,10.95,-59.65,1565,-7058,4122,-1,-1,-1
-165.30,10.95,-59.65,1571,-7072,4100,0,-1,0
-165.30,10.94,-59.65,1557,-7060,4127,-1,-1,-1
-165.30,10.94,-59.65,1563,-7055,4116,0,0,0
-165.31,10.94,-59.65,1551,-7072,4128,-1,-1,-1
-165.31,10.94,-59.65,1567,-7070,4111,0,0,0
-165.31,10.93,-59.65,1557,-7081,4117,-1,-1,-1
-165.31,10.93,-59.65,1570,-7055,4112,0,0,0
