Yaw,Pitch,Roll,AX,AY,AZ,GX,GY,GZ
-163.01,4.04,-27.20,584,-3757,7349,-1,-1,0
-163.01,4.04,-27.21,584,-3763,7348,-1,-1,-1
-163.01,4.04,-27.21,584,-3770,7338,-1,-1,0
-163.01,4.05,-27.21,597,-3776,7338,-1,-1,-1
-163.01,4.05,-27.22,595,-3774,7339,-1,0,0
-163.01,4.05,-27.22,590,-3777,7339,-1,0,0
-163.01,4.04,-27.22,592,-3783,7338,0,0,0
-163.01,4.04,-27.22,586,-3778,7330,0,0,0
-163.01,4.04,-27.21,576,-3767,7328,0,-1,-1
-163.01,4.04,-27.21,574,-3768,7338,-1,-1,-1
-163.01,4.05,-27.21,581,-3770,7351,-1,-1,0
-163.01,4.05,-27.21,589,-3765,7342,-1,-1,0
-163.01,4.05,-27.22,594,-3774,7334,-1,-1,0
-163.01,4.05,-27.22,584,-3775,7341,-1,0,0
-163.01,4.05,-27.22,576,-3774,7330,-1,-1,0
-163.01,4.04,-27.22,576,-3778,7329,-1,-1,-1
-163.01,4.04,-27.22,574,-3781,7333,0,-1,-1
-163.01,4.04,-27.22,573,-3780,7336,0,-1,-1
-163.01,4.05,-27.22,573,-3772,7332,0,-1,-1
-163.01,4.05,-27.22,586,-3771,7330,-1,-1,-1
-163.01,4.05,-27.22,587,-3766,7326,-1,-1,0
-163.01,4.05,-27.22,587,-3762,7326,0,0,0
-163.01,4.05,-27.22,586,-3765,7327,-1,-1,0
-163.01,4.05,-27.22,590,-3780,7341,0,-1,0
-163.01,4.05,-27.22,587,-3777,7348,0,-1,0
-163.01,4.06,-27.22,583,-3773,7338,-1,-1,-1
-163.01,4.06,-27.22,578,-3769,7335,-1,-1,-1
-163.01,4.06,-27.23,585,-3774,7334,0,-1,-1
-163.01,4.06,-27.23,590,-3780,7329,-1,0,0
-163.01,4.06,-27.23,592,-3783,7329,-1,0,0
-163.01,4.06,-27.23,580,-3782,7329,-1,0,0
-163.01,4.05,-27.23,578,-3774,7329,-1,0,0
-163.01,4.05,-27.24,576,-3779,7330,-1,-1,-1
-163.01,4.05,-27.24,577,-3777,7329,-1,-1,-1
-163.01,4.05,-27.24,586,-3785,7333,-1,-1,0
-163.01,4.06,-27.24,595,-3779,7337,-1,-1,0
-163.01,4.06,-27.24,604,-3774,7327,-1,0,0
-163.01,4.05,-27.24,602,-3771,7337,-1,0,0
-163.02,4.05,-27.25,590,-3772,7326,-1,0,0
-163.02,4.05,-27.25,583,-3780,7312,-1,0,0
-163.03,4.04,-27.26,578,-3788,7327,0,0,0
-163.03,4.04,-27.26,580,-3784,7333,-1,-1,0
-163.03,4.04,-27.26,591,-3785,7328,-1,0,0
-163.03,4.04,-27.26,599,-3785,7341,-1,0,0
-163.03,4.03,-27.27,598,-3781,7337,-1,0,0
-163.03,4.02,-27.27,584,-3770,7335,-1,0,0
-163.04,4.01,-27.28,567,-3771,7334,-1,0,0
-163.05,4.01,-27.29,562,-3772,7332,-1,-1,0
-163.06,4.00,-27.30,559,-3779,7331,-1,-1,0
-163.06,4.00,-27.31,559,-3794,7334,-1,-1,0
-163.06,4.01,-27.33,567,-3805,7324,-1,-1,-1
-163.06,4.01,-27.34,587,-3809,7319,-1,0,0
-163.06,4.02,-27.33,597,-3801,7319,0,0,0
-163.06,4.02,-27.32,606,-3796,7321,0,0,0
-163.06,4.01,-27.31,602,-3790,7326,0,0,0
-163.06,4.00,-27.31,597,-3777,7336,0,0,0
-163.07,3.99,-27.30,571,-3766,7337,-1,0,0
-163.08,3.98,-27.31,548,-3773,7338,-1,-1,0
-163.08,3.98,-27.32,553,-3782,7340,-1,-1,0
-163.08,3.99,-27.33,566,-3790,7332,-1,-1,0
-163.09,3.99,-27.35,578,-3790,7323,-1,-1,0
-163.09,4.00,-27.36,590,-3795,7315,-1,-1,0
-163.10,3.99,-27.36,589,-3797,7314,-1,0,0
-163.10,3.99,-27.36,583,-3797,7312,-1,0,0
-163.10,3.99,-27.36,577,-3794,7319,0,0,0
-163.10,3.99,-27.36,572,-3788,7319,-1,0,0
-163.10,3.99,-27.36,571,-3784,7331,-1,-1,0
-163.10,3.99,-27.36,575,-3782,7338,-1,-1,0
-163.10,3.99,-27.36,580,-3780,7328,0,0,0
-163.10,3.99,-27.36,584,-3779,7327,0,0,0
-163.10,3.99,-27.36,585,-3787,7310,0,0,-1
-163.10,3.98,-27.35,576,-3790,7306,0,0,-1
-163.10,3.98,-27.35,583,-3794,7316,0,0,-1
-163.10,3.99,-27.34,572,-3798,7335,0,-1,-1
-163.09,4.00,-27.33,573,-3805,7327,0,-1,-1
-163.09,4.00,-27.32,576,-3796,7323,0,-1,-1
-163.08,4.00,-27.32,581,-3786,7319,0,-1,-1
-163.08,4.01,-27.31,580,-3779,7322,0,-1,-1
-163.08,4.01,-27.30,578,-3777,7325,0,-1,-1
-163.07,4.02,-27.29,581,-3773,7327,0,0,-1
-163.07,4.02,-27.29,579,-3776,7325,0,0,-1
-163.06,4.02,-27.28,575,-3781,7332,0,-1,-1
-163.06,4.02,-27.28,585,-3785,7325,0,-1,-1
-163.06,4.03,-27.27,579,-3778,7324,0,-1,-1
-163.05,4.03,-27.27,578,-3781,7324,0,-1,-1
-163.05,4.04,-27.27,583,-3782,7327,0,-1,-1
-163.04,4.04,-27.26,588,-3778,7332,0,0,-1
-163.04,4.04,-27.25,590,-3777,7332,0,-1,-1
-163.04,4.04,-27.24,586,-3775,7340,0,-1,-1
-163.04,4.04,-27.24,586,-3768,7341,0,-1,-1
-163.03,4.05,-27.23,585,-3769,7333,0,-1,-1
-163.03,4.05,-27.23,591,-3771,7332,0,-1,-1
-163.02,4.05,-27.22,592,-3763,7336,-1,0,-1
-163.02,4.05,-27.23,591,-3769,7332,-1,-1,-1
-163.02,4.06,-27.23,582,-3784,7328,-1,-1,-1
-163.02,4.06,-27.23,589,-3785,7318,0,-1,-1
-163.02,4.06,-27.23,594,-3784,7317,0,-1,-1
-163.01,4.06,-27.22,595,-3779,7333,0,0,-1
-163.01,4.06,-27.22,590,-3771,7338,0,0,-1
-163.01,4.06,-27.21,594,-3765,7344,0,0,-1
-163.01,4.05,-27.21,585,-3756,7336,-1,0,0
-163.01,4.05,-27.21,567,-3763,7342,-1,-1,0
-163.01,4.05,-27.21,572,-3778,7343,-1,-1,-1
-163.01,4.05,-27.22,582,-3781,7340,-1,0,-1
-163.01,4.06,-27.23,584,-3789,7334,0,-1,-1
-163.00,4.07,-27.22,593,-3792,7323,0,-1,0
-163.00,4.07,-27.22,606,-3790,7331,0,0,-1
-163.00,4.07,-27.20,600,-3776,7336,0,0,0
-163.00,4.06,-27.20,603,-3769,7340,0,0,0
-163.00,4.06,-27.19,596,-3770,7343,0,0,-1
-163.00,4.05,-27.18,591,-3760,7341,0,0,0
-163.00,4.05,-27.18,586,-3750,7339,-1,-1,0
-163.00,4.05,-27.18,588,-3756,7333,-1,-1,0
-163.00,4.05,-27.19,584,-3765,7330,-1,0,0
-163.00,4.04,-27.19,578,-3768,7336,-1,0,0
-163.00,4.04,-27.20,581,-3779,7337,-1,-1,-1
-163.00,4.04,-27.20,578,-3781,7334,0,0,0
-163.01,4.03,-27.20,570,-3774,7329,0,0,0
-163.01,4.03,-27.20,578,-3771,7330,-1,0,-1
-163.01,4.03,-27.20,587,-3769,7330,0,0,0
-163.00,4.02,-27.20,590,-3771,7332,0,0,-1
-163.00,4.02,-27.20,588,-3772,7335,0,0,-1
-163.00,4.02,-27.20,589,-3767,7346,-1,0,0
-163.00,4.02,-27.20,586,-3772,7342,-1,0,0
-163.00,4.01,-27.20,581,-3779,7335,-1,0,0
-163.00,4.01,-27.21,583,-3784,7335,-1,-1,-1
-163.00,4.01,-27.20,585,-3772,7337,0,0,0
-163.00,4.01,-27.20,586,-3776,7337,0,0,0
-163.00,4.01,-27.20,578,-3779,7328,0,0,0
-163.00,4.01,-27.20,577,-3779,7329,0,0,-1
-163.00,4.00,-27.19,575,-3767,7334,0,0,-1
-163.00,4.00,-27.19,574,-3761,7342,-1,-1,-1
-163.00,4.01,-27.20,578,-3758,7345,-1,-1,-1
-163.00,4.01,-27.20,578,-3761,7329,-1,-1,-1
-163.00,4.01,-27.21,580,-3776,7332,-1,-1,-1
-163.00,4.01,-27.22,584,-3780,7328,-1,0,0
-163.00,4.00,-27.23,581,-3785,7318,0,0,0
-163.00,4.00,-27.22,584,-3776,7325,0,0,0
-162.99,4.00,-27.22,584,-3776,7335,0,0,0
-163.00,3.99,-27.21,579,-3776,7337,0,0,0
-163.00,3.99,-27.21,569,-3779,7333,0,0,0
-163.00,3.99,-27.21,570,-3769,7332,0,-1,0
-163.00,3.99,-27.21,573,-3762,7337,0,0,-1
-163.00,3.99,-27.21,583,-3763,7338,-1,0,0
-163.00,3.99,-27.21,579,-3764,7342,-1,0,0
-163.00,3.99,-27.21,576,-3765,7336,-1,0,0
-163.00,3.98,-27.21,567,-3772,7332,-1,0,0
-163.00,3.98,-27.22,571,-3772,7330,-1,-1,-1
-163.00,3.98,-27.22,576,-3775,7337,-1,-1,-1
-163.00,3.99,-27.22,581,-3774,7323,-1,-1,-1
-163.00,3.99,-27.22,577,-3784,7329,0,0,-1
-163.00,3.98,-27.22,575,-3791,7346,0,-1,0
-162.99,3.98,-27.22,578,-3779,7341,0,0,-1
-162.99,3.99,-27.22,578,-3778,7327,-1,-1,-1
-162.99,3.98,-27.22,570,-3778,7313,0,0,-1
-162.99,3.98,-27.21,567,-3768,7313,0,0,0
-162.98,3.98,-27.21,587,-3764,7333,0,0,-1
-162.98,3.98,-27.21,593,-3768,7333,-1,-1,0
-162.98,3.98,-27.21,587,-3771,7353,-1,-1,0
-162.99,3.98,-27.21,598,-3766,7341,0,0,0
-162.99,3.98,-27.21,583,-3771,7345,-1,0,0
-162.99,3.97,-27.22,568,-3768,7333,-1,0,0
-163.00,3.96,-27.21,560,-3773,7326,0,-1,0
-163.00,3.97,-27.21,564,-3772,7310,0,-1,-1
-163.00,3.97,-27.21,555,-3772,7318,0,-1,-1
-163.00,3.97,-27.22,564,-3775,7325,0,-1,0
-163.00,3.98,-27.22,573,-3782,7322,0,-1,-1
-163.00,3.98,-27.22,573,-3782,7334,0,-1,-1
-162.99,4.00,-27.21,582,-3774,7329,-1,-1,0
-162.99,4.00,-27.21,583,-3769,7323,0,-1,0
-162.99,4.00,-27.21,580,-3768,7322,0,0,0
-163.00,3.99,-27.21,580,-3769,7325,0,-1,0
-163.00,3.99,-27.21,564,-3769,7328,0,0,0
-163.00,3.99,-27.21,561,-3769,7351,0,-1,0
-163.00,3.99,-27.21,562,-3768,7347,-1,-1,-1
-163.00,3.99,-27.21,568,-3774,7335,-1,-1,-1
-163.00,4.00,-27.21,577,-3774,7328,-1,-1,-1
-163.00,4.01,-27.21,579,-3770,7329,0,-1,-1
-163.00,4.01,-27.21,582,-3774,7336,0,-1,-1
-162.99,4.01,-27.20,578,-3766,7330,0,0,-1
-162.99,4.01,-27.20,579,-3768,7323,0,-1,0
-162.99,4.01,-27.20,582,-3773,7330,0,-1,0
-162.99,4.01,-27.20,580,-3773,7339,0,-1,0
-162.99,4.01,-27.20,581,-3768,7339,-1,-1,0
-162.99,4.01,-27.20,580,-3768,7330,-1,-1,-1
-162.99,4.02,-27.20,592,-3769,7323,0,0,0
-162.99,4.01,-27.20,589,-3767,7337,-1,0,0
-162.99,4.01,-27.20,592,-3767,7351,-1,0,0
-163.00,4.01,-27.20,583,-3769,7350,0,-1,0
-163.00,4.01,-27.20,579,-3771,7344,0,-1,0
-162.99,4.02,-27.20,579,-3770,7342,0,-1,0
-162.99,4.02,-27.20,573,-3769,7333,0,-1,-1
-162.99,4.02,-27.20,584,-3771,7344,0,-1,-1
-162.99,4.02,-27.20,586,-3770,7342,0,-1,-1
-162.99,4.03,-27.19,594,-3769,7343,0,0,-1
-162.99,4.03,-27.19,594,-3771,7339,-1,-1,0
-162.99,4.03,-27.19,591,-3773,7334,-1,0,0
-162.99,4.02,-27.20,581,-3773,7339,-1,0,0
-162.99,4.02,-27.20,582,-3771,7334,-1,-1,0
-162.99,4.03,-27.20,589,-3770,7335,-1,-1,0
-162.99,4.03,-27.20,580,-3771,7336,-1,0,0
-162.99,4.03,-27.20,579,-3779,7334,0,-1,0
-162.99,4.03,-27.20,581,-3786,7334,0,-1,-1
-162.99,4.03,-27.20,582,-3769,7331,-1,-1,0
-162.99,4.03,-27.20,578,-3766,7332,0,-1,0
-162.99,4.03,-27.20,579,-3766,7329,0,0,0
-162.99,4.03,-27.20,584,-3773,7327,0,0,0
-162.99,4.03,-27.20,583,-3769,7333,0,0,0
-162.99,4.03,-27.20,577,-3780,7327,-1,-1,-1
-162.99,4.03,-27.21,582,-3777,7320,-1,-1,-1
-162.99,4.03,-27.21,583,-3774,7316,-1,-1,-1
-162.99,4.03,-27.21,583,-3773,7317,-1,0,-1
-162.99,4.04,-27.22,584,-3772,7331,-1,-1,0
-162.99,4.04,-27.22,577,-3780,7318,-1,-1,0
-162.99,4.04,-27.22,568,-3785,7315,0,-1,0
-162.99,4.04,-27.22,577,-3791,7312,0,-1,-1
-162.99,4.04,-27.22,586,-3786,7322,0,-1,-1
-162.98,4.04,-27.21,592,-3775,7340,0,0,-1
-162.98,4.04,-27.21,604,-3768,7339,0,0,0
-162.98,4.03,-27.20,602,-3765,7331,0,0,0
-162.99,4.03,-27.20,591,-3755,7335,-1,0,0
-163.00,4.01,-27.21,567,-3757,7334,-1,0,0
-163.00,4.01,-27.23,554,-3773,7327,-1,-1,0
-163.01,4.01,-27.23,555,-3783,7322,-1,-1,-1
-163.00,4.02,-27.25,567,-3783,7316,-1,-1,-1
-163.00,4.03,-27.25,587,-3787,7322,-1,-1,-1
-163.00,4.03,-27.25,588,-3791,7317,0,-1,0
-163.00,4.03,-27.24,589,-3775,7319,0,0,0
-163.00,4.03,-27.24,594,-3764,7332,0,0,0
-163.00,4.03,-27.23,588,-3759,7336,0,0,0
-163.01,4.03,-27.22,575,-3754,7333,0,-1,0
-163.01,4.03,-27.22,574,-3765,7336,-1,0,0
-163.01,4.03,-27.24,579,-3773,7334,-1,-1,0
-163.02,4.03,-27.25,578,-3778,7335,-1,-1,0
-163.02,4.03,-27.25,582,-3782,7328,-1,-1,0
-163.02,4.03,-27.26,584,-3792,7341,-1,0,0
-163.02,4.03,-27.26,589,-3787,7340,-1,-1,0
-163.02,4.03,-27.27,583,-3783,7328,-1,-1,-1
-163.01,4.04,-27.27,585,-3782,7322,-1,-1,-1
-163.01,4.04,-27.27,587,-3787,7328,0,-1,-1
-163.01,4.04,-27.27,592,-3778,7336,-1,-1,0
-163.01,4.04,-27.27,593,-3780,7335,-1,-1,0
-163.02,4.04,-27.27,598,-3780,7327,-1,0,0
-163.02,4.04,-27.28,598,-3778,7329,-1,0,0
-163.02,4.04,-27.28,589,-3784,7337,-1,0,0
-163.03,4.04,-27.29,587,-3786,7331,-1,0,0
-163.03,4.04,-27.30,583,-3784,7335,-1,-1,0
-163.03,4.04,-27.30,585,-3789,7335,-1,-1,0
-163.03,4.04,-27.30,587,-3786,7331,-1,-1,0
-163.04,4.04,-27.30,581,-3779,7323,-1,0,0
-163.04,4.04,-27.30,580,-3788,7327,-1,-1,0
-163.04,4.04,-27.31,583,-3791,7322,0,-1,0
-163.04,4.04,-27.31,585,-3789,7315,-1,-1,0
-163.04,4.05,-27.32,587,-3792,7317,-1,-1,0
-163.04,4.05,-27.32,588,-3785,7334,-1,-1,0
-163.04,4.05,-27.32,587,-3784,7334,-1,-1,0
-163.04,4.05,-27.32,590,-3778,7334,-1,-1,0
-163.04,4.06,-27.32,594,-3783,7335,-1,-1,0
-163.04,4.07,-27.33,587,-3791,7326,-1,-1,0
-163.04,4.07,-27.33,587,-3795,7321,-1,-1,0
-163.04,4.07,-27.33,586,-3790,7329,-1,-1,0
-163.04,4.07,-27.33,585,-3791,7337,-1,-1,0
-163.04,4.07,-27.33,588,-3790,7331,-1,-1,-1
-163.05,4.07,-27.33,592,-3785,7327,-1,-1,0
-163.05,4.08,-27.33,597,-3782,7327,-1,0,0
-163.05,4.08,-27.33,597,-3775,7324,0,0,0
-163.05,4.07,-27.33,595,-3782,7330,-1,0,0
-163.05,4.07,-27.33,588,-3785,7327,0,0,0
-163.05,4.06,-27.33,578,-3774,7328,0,0,-1
-163.05,4.07,-27.32,580,-3785,7320,0,-1,-1
-163.05,4.07,-27.31,588,-3792,7326,0,0,-1
-163.04,4.08,-27.30,603,-3784,7327,0,0,-1
-163.04,4.07,-27.29,596,-3776,7332,0,0,0
-163.04,4.06,-27.29,589,-3771,7338,0,0,0
-163.04,4.05,-27.28,578,-3768,7332,0,0,0
-163.04,4.05,-27.28,568,-3772,7335,-1,0,0
-163.05,4.05,-27.28,566,-3779,7341,-1,-1,-1
-163.05,4.05,-27.28,573,-3786,7330,-1,-1,-1
-163.04,4.05,-27.29,581,-3789,7328,0,-1,-1
-163.04,4.05,-27.28,591,-3791,7330,0,0,-1
-163.04,4.05,-27.27,597,-3787,7331,0,0,0
-163.03,4.05,-27.27,599,-3788,7325,0,0,0
-163.04,4.05,-27.26,594,-3779,7334,0,0,0
-163.03,4.05,-27.26,581,-3774,7335,0,0,0
-163.03,4.04,-27.25,587,-3772,7339,0,0,0
-163.03,4.04,-27.26,585,-3773,7337,-1,-1,0
-163.03,4.04,-27.26,585,-3774,7335,-1,-1,-1
-163.03,4.05,-27.26,584,-3777,7333,-1,-1,-1
-163.03,4.05,-27.26,587,-3778,7331,0,-1,0
-163.03,4.05,-27.26,588,-3776,7328,0,0,0
-163.03,4.05,-27.26,585,-3787,7321,0,0,-1
-163.03,4.04,-27.25,575,-3784,7323,0,-1,-1
-163.03,4.04,-27.24,574,-3785,7332,0,-1,-1
-163.03,4.05,-27.23,575,-3777,7345,0,-1,-1
-163.03,4.05,-27.23,585,-3776,7341,-1,-1,-1
-163.02,4.06,-27.23,592,-3765,7333,-1,-1,-1
-163.02,4.06,-27.24,601,-3773,7331,-1,0,0
-163.02,4.05,-27.24,595,-3777,7337,-1,0,0
-163.03,4.05,-27.24,588,-3781,7332,-1,0,0
-163.03,4.04,-27.24,583,-3778,7333,0,0,0
-163.03,4.04,-27.24,586,-3783,7327,0,0,0
-163.02,4.04,-27.24,589,-3777,7330,0,-1,-1
-163.02,4.04,-27.24,587,-3776,7327,0,0,-1
-163.02,4.04,-27.23,588,-3777,7336,0,0,-1
-163.02,4.04,-27.23,585,-3765,7336,0,0,0
-163.02,4.04,-27.23,592,-3764,7330,-1,0,-1
-163.02,4.04,-27.23,593,-3769,7321,0,0,0
-163.02,4.04,-27.23,589,-3763,7330,-1,0,0
-163.02,4.04,-27.23,591,-3762,7329,-1,0,-1
-163.02,4.04,-27.23,587,-3765,7330,-1,0,0
-163.02,4.04,-27.23,588,-3772,7327,-1,-1,0
-163.02,4.04,-27.23,584,-3778,7334,0,0,-1
-163.02,4.04,-27.23,582,-3772,7329,0,0,-1
-163.02,4.04,-27.22,582,-3771,7333,0,0,0
-163.02,4.03,-27.22,584,-3772,7329,-1,0,0
-163.02,4.03,-27.22,589,-3762,7335,0,0,0
-163.02,4.03,-27.22,585,-3770,7341,0,0,0
-163.03,4.03,-27.22,574,-3770,7338,0,0,-1
-163.02,4.03,-27.22,581,-3775,7343,0,0,-1
-163.02,4.03,-27.22,576,-3771,7326,0,-1,-1
-163.02,4.04,-27.22,580,-3783,7320,0,-1,-1
-163.02,4.04,-27.22,597,-3777,7323,0,-1,-1
-163.02,4.04,-27.21,605,-3772,7333,0,0,-1
-163.02,4.03,-27.21,596,-3763,7346,0,0,0
-163.02,4.03,-27.21,584,-3760,7341,-1,0,0
-163.02,4.02,-27.22,568,-3766,7327,-1,0,0
-163.03,4.01,-27.23,559,-3772,7325,-1,0,0
-163.03,4.01,-27.23,561,-3782,7327,-1,-1,-1
-163.03,4.01,-27.24,569,-3786,7334,-1,-1,-1
-163.02,4.02,-27.24,576,-3790,7334,0,-1,-1
-163.02,4.02,-27.24,590,-3788,7322,0,0,-1
-163.01,4.03,-27.23,601,-3785,7310,0,0,0
-163.01,4.02,-27.22,605,-3766,7315,0,0,0
-163.02,4.02,-27.22,603,-3764,7334,0,0,0
-163.02,4.02,-27.21,592,-3757,7345,0,0,0
-163.02,4.01,-27.21,576,-3768,7335,-1,0,0
-163.03,4.00,-27.22,559,-3767,7336,-1,-1,0
-163.02,4.01,-27.23,565,-3767,7341,-1,-1,0
-163.02,4.01,-27.23,569,-3779,7333,-1,-1,-1
-163.03,4.01,-27.24,582,-3792,7340,-1,-1,0
-163.03,4.01,-27.24,583,-3796,7321,0,0,0
-163.02,4.01,-27.23,582,-3795,7318,0,0,0
-163.03,4.00,-27.22,575,-3773,7348,0,0,-1
-163.03,3.99,-27.21,566,-3759,7352,0,0,0
-163.03,3.99,-27.21,561,-3763,7337,0,0,-1
-163.03,3.99,-27.21,583,-3763,7344,0,0,0
-163.02,3.99,-27.20,596,-3753,7353,-1,0,0
-163.03,3.99,-27.20,592,-3752,7341,-1,0,0
-163.03,3.99,-27.21,583,-3751,7336,-1,0,0
-163.03,3.98,-27.22,574,-3760,7330,-1,0,0
-163.04,3.97,-27.23,576,-3781,7330,-1,0,0
-163.04,3.98,-27.24,574,-3781,7332,-1,0,0
-163.04,3.97,-27.25,565,-3784,7320,-1,0,0
-163.04,3.96,-27.26,564,-3785,7325,-1,0,0
-163.04,3.96,-27.25,566,-3779,7326,0,0,-1
-163.04,3.96,-27.25,572,-3779,7333,0,0,-1
-163.05,3.96,-27.25,571,-3778,7334,0,0,0
-163.04,3.96,-27.25,570,-3780,7328,0,-1,0
-163.04,3.96,-27.25,568,-3776,7328,0,-1,0
-163.05,3.96,-27.25,564,-3774,7315,0,-1,0
-163.05,3.96,-27.25,561,-3772,7319,0,-1,-1
-163.05,3.96,-27.25,563,-3781,7325,-1,-1,-1
-163.05,3.96,-27.25,563,-3776,7319,0,-1,-1
-163.05,3.97,-27.25,567,-3784,7322,0,-1,-1
-163.05,3.97,-27.25,565,-3783,7339,0,-1,0
-163.05,3.97,-27.24,564,-3771,7339,0,-1,-1
-163.05,3.97,-27.24,571,-3775,7338,-1,-1,-1
-163.04,3.98,-27.24,575,-3777,7333,0,-1,-1
-163.04,3.99,-27.24,586,-3781,7338,0,-1,-1
-163.03,4.00,-27.24,583,-3783,7333,0,-1,-1
-163.03,4.00,-27.24,578,-3776,7332,0,-1,-1
-163.03,4.00,-27.23,587,-3771,7337,-1,0,0
-163.03,4.00,-27.23,584,-3772,7339,0,0,0
-163.03,4.00,-27.23,576,-3767,7335,-1,-1,0
-163.04,4.00,-27.23,578,-3769,7324,-1,-1,0
-163.04,4.01,-27.23,576,-3774,7327,0,-1,0
-163.04,4.01,-27.23,581,-3778,7337,0,-1,-1
-163.04,4.01,-27.22,581,-3783,7337,0,-1,-1
-163.03,4.01,-27.21,589,-3772,7347,0,0,0
-163.03,4.01,-27.20,582,-3763,7344,0,0,0
-163.03,4.00,-27.20,576,-3754,7350,-1,0,0
-163.04,4.00,-27.21,566,-3760,7336,-1,-1,0
-163.05,4.00,-27.22,559,-3764,7334,-1,-1,0
-163.05,4.00,-27.23,560,-3766,7337,-1,-1,0
-163.05,4.01,-27.23,575,-3781,7329,-1,-1,-1
-163.04,4.01,-27.24,584,-3789,7318,0,-1,-1
-163.04,4.02,-27.24,590,-3789,7325,0,-1,-1
-163.04,4.02,-27.23,594,-3780,7335,0,0,0
-163.04,4.02,-27.23,594,-3773,7331,0,0,0
-163.03,4.02,-27.22,584,-3762,7339,0,0,0
-163.04,4.02,-27.21,580,-3759,7329,-1,0,0
-163.04,4.01,-27.21,572,-3767,7345,0,-1,-1
-163.04,4.01,-27.21,564,-3760,7346,-1,-1,0
-163.04,4.02,-27.22,570,-3762,7330,-1,-1,-1
-163.04,4.02,-27.22,574,-3771,7311,-1,-1,-1
-163.04,4.04,-27.22,586,-3782,7315,0,-1,0
-163.04,4.04,-27.22,597,-3782,7332,0,0,0
-163.04,4.04,-27.22,589,-3782,7330,0,0,0
-163.05,4.03,-27.22,580,-3781,7338,0,0,0
-163.05,4.03,-27.21,590,-3767,7345,0,-1,0
-163.05,4.03,-27.20,581,-3752,7352,0,-1,0
-163.06,4.04,-27.20,573,-3741,7339,-1,-1,0
-163.06,4.04,-27.21,584,-3761,7314,-1,-1,-1
-163.05,4.04,-27.21,598,-3775,7334,0,0,-1
-163.05,4.03,-27.21,591,-3771,7346,0,0,0
-163.05,4.03,-27.21,582,-3758,7334,-1,0,0
-163.06,4.03,-27.22,578,-3762,7329,-1,-1,0
-163.06,4.03,-27.23,576,-3780,7326,-1,-1,0
-163.06,4.03,-27.23,572,-3780,7327,-1,-1,0
-163.06,4.03,-27.24,574,-3775,7328,-1,-1,-1
-163.06,4.03,-27.24,574,-3783,7330,0,0,-1
-163.06,4.03,-27.23,575,-3787,7347,0,0,-1
-163.06,4.03,-27.23,581,-3773,7330,0,-1,0
-163.06,4.03,-27.23,578,-3764,7334,-1,-1,0
-163.06,4.03,-27.23,577,-3770,7331,-1,-1,0
-163.06,4.04,-27.23,585,-3773,7334,-1,-1,0
-163.06,4.04,-27.23,582,-3773,7323,-1,-1,0
-163.06,4.04,-27.24,581,-3778,7331,-1,-1,0
-163.07,4.04,-27.24,587,-3785,7339,-1,-1,0
-163.07,4.04,-27.24,574,-3790,7342,0,0,0
-163.07,4.03,-27.24,569,-3775,7340,0,-1,-1
-163.07,4.03,-27.24,569,-3772,7336,-1,-1,-1
-163.07,4.04,-27.24,577,-3774,7330,0,-1,-1
-163.07,4.04,-27.24,579,-3770,7329,-1,-1,-1
-163.07,4.04,-27.24,579,-3772,7339,-1,-1,0
-163.07,4.04,-27.24,587,-3772,7331,-1,-1,0
-163.07,4.04,-27.24,579,-3775,7332,0,0,0
-163.07,4.04,-27.24,581,-3775,7329,0,0,0
-163.07,4.04,-27.24,583,-3774,7326,-1,-1,0
-163.07,4.04,-27.25,584,-3775,7318,-1,-1,0
-163.07,4.04,-27.25,588,-3783,7310,0,-1,0
-163.07,4.05,-27.25,588,-3780,7320,0,-1,-1
-163.07,4.05,-27.24,597,-3775,7331,0,-1,-1
-163.07,4.05,-27.24,597,-3761,7335,0,0,0
-163.07,4.05,-27.24,591,-3763,7333,0,0,0
-163.07,4.05,-27.24,589,-3759,7331,-1,0,0
-163.07,4.04,-27.24,581,-3767,7328,-1,0,0
-163.08,4.03,-27.25,570,-3779,7334,-1,-1,0
-163.08,4.03,-27.26,572,-3784,7333,-1,-1,-1
-163.07,4.04,-27.26,584,-3784,7332,-1,-1,-1
-163.07,4.05,-27.26,588,-3786,7328,-1,-1,-1
-163.07,4.05,-27.26,592,-3790,7334,0,-1,-1
-163.07,4.05,-27.26,595,-3786,7338,0,0,0
-163.07,4.05,-27.26,594,-3780,7340,0,0,0
-163.07,4.05,-27.25,594,-3777,7343,0,0,0
-163.07,4.05,-27.25,588,-3773,7337,-1,0,0
-163.07,4.04,-27.25,581,-3773,7341,-1,0,0
-163.07,4.04,-27.26,577,-3777,7342,-1,-1,0
-163.07,4.04,-27.26,578,-3779,7332,-1,-1,0
-163.08,4.04,-27.27,588,-3776,7319,-1,-1,0
-163.08,4.04,-27.27,580,-3773,7311,-1,-1,0
-163.08,4.05,-27.28,597,-3779,7312,-1,0,0
-163.08,4.04,-27.28,595,-3777,7326,0,0,0
-163.08,4.04,-27.28,591,-3775,7320,0,0,0
-163.08,4.04,-27.28,582,-3778,7318,-1,0,0
-163.08,4.04,-27.29,588,-3781,7331,-1,-1,0
-163.09,4.04,-27.29,590,-3781,7324,-1,0,0
-163.09,4.04,-27.30,591,-3777,7317,-1,-1,0
-163.09,4.04,-27.30,596,-3774,7320,-1,0,0
-163.09,4.04,-27.30,594,-3775,7323,-1,0,0
-163.10,4.03,-27.31,586,-3783,7330,-1,0,0
-163.11,4.02,-27.32,596,-3792,7323,-1,0,0
-163.11,4.02,-27.32,579,-3785,7322,-1,0,0
-163.12,4.01,-27.33,581,-3784,7327,-1,-1,0
-163.12,4.01,-27.34,574,-3794,7325,-1,0,0
-163.12,4.01,-27.34,578,-3787,7325,-1,0,0
-163.12,4.01,-27.34,578,-3784,7327,-1,-1,0
-163.12,4.01,-27.35,578,-3788,7325,-1,-1,0
-163.13,4.01,-27.36,585,-3796,7319,-1,0,0
-163.13,4.00,-27.36,586,-3785,7329,-1,0,0
-163.13,4.00,-27.36,580,-3778,7314,-1,-1,0
-163.13,4.00,-27.36,575,-3792,7318,-1,-1,0
-163.14,4.00,-27.37,574,-3794,7323,-1,0,0
-163.14,4.00,-27.37,579,-3794,7328,-1,0,0
-163.14,4.00,-27.37,581,-3795,7334,-1,0,0
-163.14,4.00,-27.37,579,-3791,7333,0,0,0
-163.14,3.99,-27.37,574,-3791,7314,0,0,-1
-163.14,3.99,-27.36,573,-3791,7305,0,0,-1
-163.14,3.99,-27.35,566,-3782,7323,0,0,-1
-163.13,3.99,-27.34,569,-3784,7327,0,0,-1
-163.13,3.99,-27.33,565,-3780,7320,0,-1,-1
-163.13,4.00,-27.34,570,-3793,7314,0,-1,-1
-163.12,4.01,-27.33,576,-3789,7326,0,-1,-1
-163.11,4.01,-27.31,582,-3780,7329,0,-1,-1
-163.11,4.01,-27.31,585,-3775,7323,0,0,-1
-163.11,4.01,-27.31,581,-3773,7329,0,0,0
-163.11,4.01,-27.31,581,-3770,7325,-1,0,0
-163.11,4.00,-27.31,572,-3771,7323,-1,0,0
-163.12,4.00,-27.31,567,-3785,7318,-1,-1,0
-163.11,4.00,-27.31,561,-3797,7316,0,-1,-1
-163.11,4.01,-27.31,571,-3803,7329,0,-1,-1
-163.11,4.01,-27.31,581,-3799,7335,0,-1,-1
-163.10,4.02,-27.30,590,-3783,7327,0,-1,-1
-163.10,4.03,-27.28,592,-3777,7333,0,-1,-1
-163.09,4.03,-27.27,593,-3773,7334,0,0,0
-163.09,4.02,-27.27,591,-3763,7336,0,0,0
-163.09,4.01,-27.26,577,-3766,7326,-1,0,0
-163.09,4.01,-27.26,573,-3760,7340,-1,-1,0
-163.09,4.01,-27.27,573,-3776,7335,-1,-1,0
-163.09,4.01,-27.28,568,-3790,7335,-1,-1,-1
-163.09,4.01,-27.28,579,-3792,7325,0,-1,-1
-163.09,4.01,-27.28,581,-3792,7322,0,0,-1
-163.09,4.01,-27.27,584,-3786,7329,0,0,-1
-163.09,4.01,-27.26,583,-3775,7333,0,0,0
-163.08,4.01,-27.25,572,-3773,7335,0,0,-1
-163.08,4.01,-27.24,576,-3770,7353,0,0,-1
-163.09,4.00,-27.24,568,-3764,7346,-1,0,-1
-163.09,4.00,-27.24,569,-3770,7344,-1,-1,-1
-163.08,4.01,-27.24,583,-3767,7336,-1,0,0
-163.08,4.01,-27.24,588,-3765,7333,-1,0,-1
-163.08,4.01,-27.25,587,-3773,7325,-1,-1,0
-163.08,4.01,-27.26,582,-3786,7322,0,0,-1
-163.08,4.01,-27.26,578,-3781,7314,0,0,0
-163.08,4.01,-27.25,580,-3780,7317,0,0,-1
-163.08,4.00,-27.24,582,-3778,7333,0,0,0
-163.08,4.00,-27.23,579,-3778,7344,0,0,-1
-163.08,4.00,-27.23,580,-3766,7341,0,0,-1
-163.07,4.00,-27.23,585,-3764,7337,0,0,0
-163.07,4.00,-27.23,589,-3763,7335,-1,0,0
-163.07,4.00,-27.23,587,-3768,7335,-1,0,0
-163.07,4.01,-27.23,586,-3773,7341,-1,0,0
-163.08,4.00,-27.23,580,-3774,7345,-1,0,0
-163.07,4.01,-27.23,582,-3777,7335,-1,0,0
-163.07,4.01,-27.23,581,-3776,7334,0,0,-1
-163.07,4.01,-27.23,580,-3780,7322,0,0,0
-163.07,4.00,-27.23,581,-3773,7337,0,0,0
-163.07,4.00,-27.23,572,-3776,7345,0,0,0
-163.08,4.00,-27.24,575,-3781,7334,0,0,0
-163.07,4.00,-27.23,573,-3777,7336,0,0,-1
-163.08,4.00,-27.22,564,-3775,7336,0,-1,0
-163.07,4.00,-27.22,563,-3773,7331,0,-1,-1
-163.07,4.00,-27.21,579,-3767,7335,0,0,-1
-163.07,4.00,-27.21,598,-3765,7345,0,0,0
-163.07,3.99,-27.21,602,-3752,7347,-1,0,0
-163.07,3.99,-27.21,590,-3751,7345,-1,0,0
-163.08,3.98,-27.22,570,-3752,7333,-1,0,0
-163.08,3.98,-27.22,560,-3765,7320,-1,-1,0
-163.08,3.98,-27.23,564,-3775,7329,-1,-1,0
-163.08,3.98,-27.24,562,-3790,7320,-1,-1,-1
-163.08,3.98,-27.24,572,-3795,7324,0,-1,-1
-163.08,3.99,-27.24,581,-3788,7328,0,0,-1
-163.07,3.99,-27.23,592,-3785,7331,0,0,-1
-163.07,3.99,-27.22,593,-3772,7335,0,0,0
-163.07,3.98,-27.21,594,-3759,7350,0,0,0
-163.08,3.97,-27.20,575,-3755,7347,-1,0,0
-163.08,3.97,-27.21,564,-3760,7340,-1,0,0
-163.08,3.97,-27.21,563,-3762,7334,-1,0,0
-163.09,3.96,-27.22,562,-3771,7342,-1,-1,0
-163.09,3.96,-27.23,573,-3779,7336,-1,-1,0
-163.09,3.96,-27.23,575,-3782,7337,-1,-1,0
-163.09,3.96,-27.24,569,-3781,7331,-1,0,-1
-163.09,3.96,-27.25,568,-3781,7321,-1,0,0
-163.09,3.96,-27.25,566,-3777,7323,-1,0,-1
-163.09,3.96,-27.24,567,-3777,7321,0,-1,-1
-163.09,3.96,-27.24,570,-3773,7329,0,-1,-1
-163.09,3.96,-27.24,576,-3771,7329,0,-1,-1
-163.09,3.97,-27.24,586,-3770,7327,0,0,0
-163.09,3.97,-27.23,578,-3769,7331,-1,-1,0
-163.09,3.97,-27.24,576,-3768,7331,-1,-1,0
-163.09,3.97,-27.24,573,-3769,7333,-1,-1,0
-163.09,3.97,-27.24,573,-3765,7332,-1,-1,0
-163.08,3.98,-27.24,570,-3768,7333,-1,-1,0
-163.08,3.98,-27.23,561,-3768,7335,0,-1,0
-163.08,3.98,-27.23,567,-3765,7338,0,-1,-1
-163.08,3.98,-27.23,560,-3771,7340,0,-1,0
-163.08,3.98,-27.22,572,-3771,7342,0,-1,-1
-163.08,3.98,-27.22,577,-3769,7339,0,-1,-1
-163.08,3.98,-27.22,573,-3766,7340,0,-1,-1
-163.08,3.99,-27.21,573,-3769,7339,0,-1,0
-163.08,3.99,-27.21,575,-3771,7341,-1,-1,-1
-163.08,3.99,-27.21,581,-3778,7346,0,0,0
-163.09,3.99,-27.21,582,-3779,7342,-1,-1,0
-163.09,3.99,-27.21,579,-3778,7343,0,-1,0
-163.08,4.00,-27.21,578,-3784,7345,0,-1,-1
-163.08,4.00,-27.21,577,-3787,7350,0,-1,-1
-163.08,4.00,-27.21,576,-3773,7340,0,0,-1
-163.08,4.00,-27.21,569,-3763,7332,0,-1,0
-163.08,4.00,-27.21,582,-3765,7325,0,-1,-1
-163.08,4.00,-27.20,586,-3766,7330,0,0,0
-163.08,4.01,-27.20,586,-3760,7333,0,0,0
-163.08,4.01,-27.20,582,-3764,7336,-1,0,0
-163.08,4.00,-27.20,583,-3765,7346,0,0,0
-163.08,4.00,-27.19,580,-3763,7340,0,0,-1
-163.08,4.01,-27.19,584,-3759,7345,-1,-1,0
-163.08,4.01,-27.20,583,-3770,7341,-1,-1,0
-163.08,4.01,-27.20,585,-3776,7330,-1,-1,-1
-163.08,4.02,-27.20,589,-3776,7331,-1,-1,0
-163.09,4.02,-27.20,576,-3782,7320,0,0,0
-163.09,4.01,-27.21,568,-3787,7312,0,0,-1
-163.09,4.01,-27.20,575,-3782,7324,0,-1,-1
-163.09,4.02,-27.20,586,-3773,7337,0,-1,-1
-163.08,4.02,-27.20,594,-3763,7334,0,-1,0
-163.08,4.02,-27.19,595,-3757,7342,-1,0,0
-163.08,4.02,-27.19,576,-3751,7342,-1,0,0
-163.09,4.01,-27.19,567,-3745,7328,-1,0,0
-163.09,4.02,-27.20,560,-3754,7320,-1,-1,0
-163.10,4.01,-27.21,562,-3763,7323,-1,-1,0
-163.09,4.02,-27.22,569,-3782,7331,-1,-1,-1
-163.09,4.02,-27.22,587,-3789,7322,0,-1,-1
-163.09,4.02,-27.22,585,-3794,7330,0,-1,-1
-163.09,4.03,-27.21,593,-3789,7342,0,-1,-1
-163.08,4.04,-27.20,591,-3773,7337,0,0,0
-163.08,4.04,-27.19,591,-3762,7333,0,0,0
-163.08,4.03,-27.19,588,-3757,7333,0,0,0
-163.09,4.03,-27.19,583,-3750,7337,-1,0,0
-163.09,4.03,-27.19,577,-3752,7344,-1,-1,0
-163.09,4.03,-27.19,574,-3765,7337,-1,-1,0
-163.09,4.04,-27.21,573,-3775,7322,-1,-1,0
-163.10,4.04,-27.22,580,-3789,7327,-1,-1,-1
-163.09,4.04,-27.21,582,-3781,7323,0,-1,-1
-163.09,4.04,-27.21,584,-3779,7323,0,-1,-1
-163.09,4.04,-27.21,582,-3774,7333,0,0,0
-163.09,4.04,-27.20,577,-3766,7347,0,0,-1
-163.09,4.04,-27.20,572,-3767,7336,0,-1,0
-163.09,4.04,-27.20,571,-3766,7333,0,-1,0
-163.09,4.04,-27.20,580,-3766,7347,-1,-1,0
-163.09,4.04,-27.20,582,-3762,7339,-1,-1,0
-163.09,4.04,-27.20,587,-3765,7334,-1,-1,0
-163.09,4.04,-27.21,585,-3767,7330,-1,0,0
-163.09,4.04,-27.21,584,-3768,7325,-1,0,0
-163.09,4.04,-27.21,585,-3773,7329,-1,0,0
-163.09,4.04,-27.21,587,-3774,7327,0,0,0
-163.09,4.04,-27.21,584,-3779,7335,0,-1,0
-163.09,4.04,-27.21,586,-3773,7328,0,-1,-1
-163.09,4.04,-27.21,581,-3772,7325,0,-1,-1
-163.09,4.04,-27.21,590,-3773,7339,0,-1,-1
-163.09,4.04,-27.21,591,-3772,7336,-1,-1,-1
-163.09,4.05,-27.21,594,-3769,7337,-1,0,0
-163.09,4.05,-27.21,589,-3766,7345,-1,-1,0
-163.09,4.05,-27.21,583,-3767,7341,-1,-1,0
-163.09,4.05,-27.21,584,-3767,7341,-1,-1,0
-163.09,4.05,-27.21,582,-3769,7328,-1,0,0
-163.09,4.04,-27.21,583,-3769,7328,-1,0,0
-163.09,4.04,-27.21,580,-3756,7319,0,-1,0
-163.09,4.04,-27.21,585,-3772,7328,0,0,-1
-163.09,4.05,-27.21,583,-3775,7331,0,-1,0
-163.09,4.05,-27.21,574,-3777,7336,-1,-1,-1
-163.09,4.05,-27.21,583,-3771,7337,-1,-1,0
-163.09,4.05,-27.21,593,-3765,7348,-1,-1,0
-163.09,4.05,-27.21,594,-3762,7339,-1,0,0
-163.10,4.05,-27.21,588,-3763,7335,-1,0,0
-163.10,4.04,-27.22,585,-3767,7333,-1,0,0
-163.10,4.04,-27.22,581,-3766,7336,-1,-1,0
-163.11,4.04,-27.23,581,-3779,7322,-1,-1,0
-163.11,4.04,-27.24,589,-3783,7319,-1,-1,0
-163.11,4.04,-27.24,585,-3782,7325,-1,0,0
-163.11,4.04,-27.24,585,-3781,7329,-1,0,0
-163.11,4.04,-27.25,579,-3776,7322,-1,-1,0
-163.12,4.04,-27.25,579,-3783,7330,0,0,0
-163.12,4.03,-27.25,584,-3773,7326,0,0,0
-163.12,4.03,-27.25,588,-3768,7332,-1,0,0
-163.12,4.03,-27.25,590,-3764,7339,-1,0,0
-163.12,4.02,-27.26,589,-3768,7333,-1,0,0
-163.13,4.01,-27.26,576,-3762,7326,-1,0,0
-163.13,4.01,-27.28,573,-3767,7327,-1,0,0
-163.14,4.00,-27.29,561,-3768,7327,-1,-1,0
-163.15,4.00,-27.30,564,-3790,7326,-1,-1,0
-163.15,4.01,-27.31,571,-3796,7304,-1,-1,-1
-163.15,4.01,-27.31,579,-3796,7320,0,-1,-1
-163.14,4.02,-27.31,583,-3799,7319,0,-1,0
-163.14,4.02,-27.31,590,-3792,7316,0,0,0
-163.15,4.01,-27.30,595,-3779,7315,0,0,0
-163.15,4.01,-27.29,596,-3764,7320,0,0,0
-163.15,4.00,-27.29,586,-3775,7341,-1,0,0
-163.16,3.99,-27.30,575,-3766,7346,-1,-1,0
-163.16,4.00,-27.31,566,-3770,7337,-1,-1,0
-163.16,4.00,-27.32,564,-3776,7335,-1,-1,0
-163.16,4.01,-27.34,576,-3791,7331,-1,-1,0
-163.16,4.01,-27.34,584,-3792,7327,-1,-1,0
-163.16,4.01,-27.34,585,-3801,7319,0,0,0
-163.16,4.01,-27.34,580,-3803,7324,0,0,0
-163.16,4.01,-27.34,578,-3790,7332,0,0,0
-163.16,4.01,-27.33,572,-3781,7331,0,-1,-1
-163.16,4.01,-27.33,573,-3773,7330,0,-1,0
-163.16,4.02,-27.33,581,-3767,7333,-1,-1,-1
-163.16,4.02,-27.33,578,-3766,7328,-1,-1,0
-163.16,4.02,-27.33,589,-3771,7323,-1,0,0
-163.16,4.02,-27.34,587,-3779,7315,-1,0,0
-163.16,4.01,-27.34,582,-3786,7309,0,0,0
-163.16,4.01,-27.34,576,-3798,7316,0,0,-1
-163.16,4.01,-27.33,564,-3802,7328,0,-1,-1
-163.16,4.02,-27.32,563,-3804,7326,0,-1,-1
-163.16,4.02,-27.31,574,-3795,7330,0,0,-1
-163.15,4.02,-27.30,578,-3780,7328,0,-1,-1
-163.15,4.02,-27.30,588,-3781,7324,0,0,-1
-163.15,4.03,-27.29,592,-3776,7320,0,0,-1
-163.15,4.03,-27.28,582,-3772,7325,0,-1,-1
-163.15,4.03,-27.28,582,-3777,7334,0,-1,-1
-163.14,4.04,-27.28,584,-3783,7341,0,-1,-1
-163.14,4.04,-27.28,585,-3777,7323,0,0,-1
-163.14,4.03,-27.27,584,-3769,7319,0,-1,0
-163.14,4.03,-27.27,584,-3776,7317,0,-1,0
-163.14,4.03,-27.27,583,-3778,7330,0,0,-1
-163.14,4.03,-27.26,572,-3771,7337,0,0,0
-163.14,4.03,-27.26,573,-3776,7343,0,-1,0
-163.14,4.03,-27.26,578,-3782,7344,0,-1,-1
-163.13,4.03,-27.26,584,-3776,7345,0,-1,-1
-163.13,4.04,-27.25,585,-3772,7342,-1,0,-1
-163.13,4.04,-27.25,589,-3776,7324,0,0,-1
-163.13,4.03,-27.25,586,-3780,7328,0,0,0
-163.13,4.03,-27.25,588,-3773,7326,-1,0,0
-163.13,4.03,-27.25,579,-3781,7329,0,-1,0
-163.13,4.04,-27.25,583,-3782,7331,0,-1,-1
-163.12,4.04,-27.24,593,-3784,7324,0,-1,-1
-163.12,4.05,-27.24,598,-3773,7332,0,-1,-1
-163.12,4.05,-27.24,605,-3769,7334,0,0,-1
-163.11,4.05,-27.24,607,-3760,7334,-1,0,0
-163.12,4.03,-27.23,591,-3757,7332,-1,0,0
-163.12,4.03,-27.23,576,-3761,7331,-1,0,0
-163.13,4.03,-27.24,574,-3778,7327,-1,-1,0
-163.13,4.03,-27.25,566,-3780,7341,-1,-1,0
-163.12,4.03,-27.25,579,-3781,7335,-1,-1,-1
-163.12,4.04,-27.25,588,-3786,7337,0,-1,-1
-163.12,4.04,-27.24,592,-3785,7330,0,-1,-1
-163.12,4.04,-27.24,592,-3777,7329,0,0,0
-163.11,4.04,-27.24,596,-3770,7323,0,0,0
-163.11,4.03,-27.23,594,-3772,7332,0,0,0
-163.12,4.03,-27.22,586,-3773,7353,0,0,0
-163.12,4.03,-27.22,572,-3762,7342,-1,0,-1
-163.12,4.03,-27.22,575,-3758,7334,-1,-1,-1
-163.12,4.03,-27.23,578,-3771,7340,-1,-1,-1
-163.11,4.03,-27.23,584,-3775,7345,-1,-1,-1
-163.11,4.03,-27.23,585,-3784,7344,-1,0,0
-163.11,4.03,-27.24,592,-3783,7341,0,0,0
-163.12,4.03,-27.23,584,-3772,7326,0,0,0
-163.12,4.02,-27.23,577,-3774,7328,0,0,0
-163.11,4.02,-27.23,571,-3768,7334,0,0,0
-163.11,4.02,-27.23,570,-3764,7336,0,-1,-1
-163.11,4.02,-27.23,576,-3766,7335,-1,-1,-1
-163.11,4.02,-27.23,588,-3768,7330,-1,-1,0
-163.11,4.02,-27.23,587,-3767,7331,-1,0,0
-163.11,4.01,-27.23,584,-3766,7323,-1,0,0
-163.11,4.01,-27.23,575,-3766,7321,0,0,0
-163.12,4.01,-27.23,574,-3764,7326,-1,0,0
-163.12,4.01,-27.23,567,-3773,7326,0,-1,0
-163.12,4.01,-27.23,575,-3779,7325,0,0,-1
-163.12,4.01,-27.23,576,-3764,7328,0,0,0
-163.12,4.00,-27.22,573,-3762,7333,0,0,0
-163.12,4.00,-27.22,576,-3762,7327,0,0,0
-163.12,4.00,-27.21,577,-3764,7337,0,0,-1
-163.12,4.00,-27.21,568,-3763,7341,-1,-1,-1
-163.12,4.00,-27.21,560,-3765,7336,-1,-1,-1
-163.12,4.01,-27.22,564,-3774,7331,-1,-1,-1
-163.12,4.01,-27.22,576,-3782,7328,0,-1,-1
-163.11,4.01,-27.22,583,-3776,7328,0,-1,0
-163.11,4.01,-27.22,585,-3771,7329,0,0,0
-163.11,4.01,-27.22,579,-3776,7327,0,0,0
-163.12,4.01,-27.22,579,-3781,7327,0,0,-1
-163.12,4.00,-27.21,572,-3770,7340,0,0,-1
-163.11,4.00,-27.21,572,-3763,7342,-1,0,0
-163.11,4.00,-27.21,573,-3769,7328,-1,0,0
-163.12,3.99,-27.22,575,-3770,7330,-1,0,0
-163.12,3.99,-27.22,574,-3773,7323,-1,0,0
-163.12,3.99,-27.23,576,-3775,7317,-1,0,-1
-163.12,3.99,-27.22,580,-3776,7338,0,0,-1
-163.11,3.99,-27.22,591,-3776,7340,0,0,-1
-163.11,3.99,-27.22,588,-3771,7336,0,0,0
-163.12,3.98,-27.22,580,-3757,7334,-1,0,0
-163.12,3.97,-27.22,567,-3762,7330,-1,0,0
-163.13,3.97,-27.24,562,-3769,7316,-1,0,0
-163.13,3.97,-27.24,556,-3778,7335,-1,-1,0
-163.12,3.97,-27.25,550,-3781,7325,-1,-1,-1
-163.13,3.98,-27.25,549,-3790,7316,0,-1,-1
-163.12,3.98,-27.25,567,-3793,7320,0,-1,-1
-163.11,3.99,-27.24,574,-3780,7325,0,-1,-1
-163.11,3.99,-27.24,591,-3775,7333,0,0,0
-163.11,3.99,-27.23,595,-3765,7331,0,0,0
-163.11,3.99,-27.22,584,-3756,7334,0,0,0
-163.12,3.98,-27.22,576,-3758,7336,-1,0,0
-163.12,3.97,-27.22,567,-3758,7339,0,0,-1
-163.12,3.98,-27.22,566,-3764,7340,-1,-1,0
-163.12,3.98,-27.23,573,-3768,7339,-1,0,-1
-163.12,3.99,-27.24,578,-3767,7324,-1,-1,0
-163.13,3.99,-27.24,582,-3787,7331,-1,-1,0
-163.12,3.99,-27.24,578,-3780,7327,0,0,-1
-163.12,3.99,-27.23,577,-3769,7330,0,0,0
-163.12,3.99,-27.23,577,-3779,7338,-1,-1,0
-163.13,3.99,-27.23,582,-3783,7323,0,0,-1
-163.13,3.99,-27.22,574,-3764,7341,-1,-1,0
-163.13,3.99,-27.22,577,-3755,7339,0,-1,0
-163.13,4.00,-27.23,593,-3763,7332,-1,0,0
-163.13,4.00,-27.23,595,-3770,7335,0,-1,0
-163.13,4.00,-27.23,583,-3784,7344,0,-1,0
-163.14,4.00,-27.22,581,-3780,7337,0,-1,0
-163.14,3.99,-27.22,579,-3774,7347,0,0,-1
-163.14,3.99,-27.21,576,-3770,7327,0,-1,-1
-163.13,3.99,-27.21,573,-3769,7335,0,0,0
-163.13,3.99,-27.21,576,-3768,7339,0,0,-1
-163.13,3.99,-27.20,578,-3752,7344,-1,0,-1
-163.13,3.99,-27.21,576,-3752,7347,-1,-1,-1
-163.13,3.99,-27.21,570,-3767,7340,-1,-1,-1
-163.13,4.00,-27.22,571,-3784,7336,-1,-1,0
-163.13,4.00,-27.23,573,-3776,7322,-1,-1,0
-163.13,4.00,-27.23,572,-3779,7321,-1,-1,0
-163.14,4.01,-27.23,572,-3784,7318,0,-1,0
-163.14,4.01,-27.23,574,-3790,7327,0,-1,-1
-163.13,4.01,-27.22,577,-3783,7335,0,0,-1
-163.13,4.01,-27.22,580,-3778,7340,0,-1,-1
-163.13,4.01,-27.21,573,-3771,7336,0,-1,-1
-163.13,4.01,-27.21,574,-3777,7338,0,-1,0
-163.12,4.02,-27.21,577,-3769,7337,0,-1,0
-163.13,4.02,-27.21,575,-3760,7338,-1,-1,-1
-163.12,4.02,-27.21,584,-3764,7332,-1,-1,-1
-163.12,4.02,-27.22,592,-3770,7333,-1,0,0
-163.12,4.02,-27.22,584,-3773,7336,-1,0,0
-163.12,4.02,-27.22,573,-3774,7326,-1,-1,-1
-163.13,4.02,-27.23,567,-3777,7322,0,-1,-1
-163.13,4.02,-27.23,578,-3774,7326,-1,-1,-1
-163.12,4.03,-27.22,598,-3768,7329,0,-1,-1
-163.12,4.04,-27.22,602,-3768,7334,0,-1,0
-163.12,4.04,-27.22,591,-3771,7332,0,0,0
-163.12,4.04,-27.22,584,-3771,7338,0,-1,0
-163.12,4.03,-27.22,568,-3760,7330,-1,0,0
-163.13,4.03,-27.22,565,-3767,7326,-1,-1,-1
-163.13,4.04,-27.24,578,-3776,7326,-1,-1,-1
-163.12,4.05,-27.24,594,-3786,7333,-1,-1,-1
-163.12,4.05,-27.24,591,-3787,7330,0,-1,-1
-163.12,4.05,-27.23,599,-3785,7327,0,-1,-1
-163.12,4.05,-27.23,595,-3776,7318,0,0,0
-163.12,4.05,-27.23,591,-3767,7327,0,0,0
-163.12,4.05,-27.22,588,-3766,7344,0,0,0
-163.12,4.05,-27.22,582,-3757,7349,-1,-1,0
-163.13,4.04,-27.22,580,-3765,7340,-1,-1,0
-163.13,4.04,-27.23,577,-3769,7330,-1,-1,0
-163.13,4.05,-27.24,582,-3772,7332,-1,-1,0
-163.13,4.05,-27.24,584,-3783,7323,-1,-1,-1
-163.12,4.06,-27.25,590,-3787,7319,0,-1,0
-163.12,4.06,-27.24,590,-3787,7328,0,-1,0
-163.12,4.06,-27.24,586,-3784,7336,0,0,-1
-163.12,4.06,-27.23,584,-3770,7338,0,0,-1
-163.12,4.06,-27.23,587,-3763,7338,0,0,0
-163.12,4.06,-27.23,583,-3768,7338,-1,-1,-1
-163.12,4.06,-27.23,583,-3765,7346,-1,-1,0
-163.12,4.06,-27.23,586,-3761,7342,-1,0,0
-163.12,4.06,-27.24,582,-3766,7332,-1,-1,0
-163.13,4.06,-27.25,583,-3777,7331,-1,0,0
-163.13,4.05,-27.26,580,-3783,7330,-1,0,0
-163.13,4.05,-27.26,575,-3779,7336,-1,0,0
-163.13,4.05,-27.26,581,-3774,7332,-1,-1,0
-163.13,4.05,-27.26,584,-3773,7334,0,-1,0
-163.13,4.06,-27.25,595,-3772,7338,0,-1,0
-163.13,4.06,-27.25,587,-3782,7341,0,-1,0
-163.13,4.06,-27.25,576,-3771,7333,-1,-1,0
-163.14,4.06,-27.25,576,-3773,7337,-1,-1,0
-163.14,4.07,-27.26,582,-3774,7331,-1,-1,0
-163.14,4.07,-27.26,593,-3770,7332,-1,-1,0
-163.14,4.07,-27.27,589,-3775,7332,-1,-1,0
-163.14,4.08,-27.27,596,-3776,7329,-1,-1,0
-163.14,4.07,-27.28,588,-3768,7319,-1,0,0
-163.15,4.07,-27.28,579,-3777,7328,-1,-1,0
-163.15,4.07,-27.28,577,-3790,7324,-1,-1,0
-163.15,4.06,-27.28,577,-3784,7319,0,0,0
-163.15,4.06,-27.28,579,-3778,7326,-1,-1,0
-163.16,4.07,-27.28,587,-3775,7333,-1,-1,0
-163.16,4.07,-27.29,591,-3782,7334,-1,-1,0
-163.16,4.07,-27.29,593,-3785,7335,-1,0,0
-163.17,4.06,-27.29,592,-3775,7330,-1,0,0
-163.17,4.06,-27.30,592,-3767,7340,-1,0,0
-163.17,4.06,-27.30,587,-3778,7337,0,0,0
-163.17,4.06,-27.30,582,-3773,7332,-1,0,0
-163.18,4.06,-27.31,583,-3776,7333,-1,-1,0
-163.18,4.06,-27.31,581,-3778,7325,-1,-1,0
-163.18,4.06,-27.31,588,-3787,7322,-1,-1,0
-163.18,4.06,-27.31,597,-3792,7329,0,0,0
-163.18,4.06,-27.31,598,-3789,7343,0,0,0
-163.18,4.06,-27.30,595,-3778,7343,0,0,0
-163.18,4.05,-27.29,587,-3766,7338,-1,0,0
-163.18,4.05,-27.29,585,-3760,7334,-1,0,0
-163.19,4.04,-27.30,572,-3765,7331,-1,0,0
-163.19,4.04,-27.32,567,-3773,7331,-1,-1,0
-163.19,4.04,-27.33,569,-3793,7329,-1,-1,-1
-163.19,4.05,-27.34,576,-3800,7330,-1,-1,-1
-163.18,4.05,-27.34,573,-3803,7325,-1,-1,-1
-163.18,4.06,-27.34,587,-3798,7313,0,0,-1
-163.18,4.06,-27.33,603,-3796,7323,0,0,-1
-163.17,4.05,-27.32,601,-3779,7339,0,0,-1
-163.17,4.05,-27.30,596,-3772,7349,0,0,0
-163.17,4.05,-27.29,577,-3770,7342,0,0,0
-163.17,4.04,-27.29,570,-3769,7338,0,-1,0
-163.17,4.05,-27.29,569,-3770,7340,-1,-1,-1
-163.17,4.05,-27.29,576,-3772,7333,-1,-1,-1
-163.17,4.06,-27.29,587,-3792,7321,0,-1,-1
-163.17,4.06,-27.29,590,-3795,7313,0,0,-1
-163.16,4.06,-27.28,588,-3789,7318,0,0,-1
-163.16,4.06,-27.28,592,-3784,7324,0,0,-1
-163.16,4.06,-27.26,585,-3776,7323,0,0,-1
-163.16,4.05,-27.26,577,-3766,7331,0,0,-1
-163.16,4.06,-27.25,587,-3763,7339,0,-1,-1
-163.15,4.06,-27.25,587,-3761,7335,-1,-1,-1
-163.15,4.06,-27.25,586,-3767,7333,-1,-1,-1
-163.15,4.07,-27.25,594,-3777,7335,-1,-1,0
-163.15,4.07,-27.25,592,-3789,7333,0,0,0
-163.15,4.07,-27.25,591,-3784,7320,0,0,0
-163.15,4.07,-27.25,584,-3782,7323,0,0,-1
-163.15,4.07,-27.25,582,-3788,7320,0,0,-1
-163.14,4.07,-27.24,588,-3785,7323,0,0,-1
-163.14,4.07,-27.23,583,-3775,7321,0,-1,-1
-163.14,4.06,-27.23,587,-3767,7316,0,-1,0
-163.14,4.07,-27.22,603,-3765,7346,0,0,0
-163.14,4.07,-27.21,602,-3764,7351,0,0,0
-163.14,4.07,-27.21,591,-3764,7349,-1,-1,0
-163.14,4.06,-27.21,583,-3771,7333,0,-1,-1
-163.14,4.06,-27.21,584,-3754,7333,-1,0,-1
-163.14,4.06,-27.21,585,-3768,7317,-1,0,0
-163.14,4.06,-27.22,593,-3772,7325,-1,0,0
-163.14,4.05,-27.23,585,-3781,7328,0,0,0
-163.14,4.05,-27.22,581,-3778,7327,0,0,0
-163.14,4.05,-27.22,595,-3769,7334,0,0,0
-163.14,4.05,-27.22,582,-3774,7330,-1,0,-1
-163.14,4.05,-27.22,582,-3780,7337,0,0,0
-163.14,4.04,-27.21,590,-3770,7336,0,0,0
-163.13,4.04,-27.21,589,-3763,7346,0,0,-1
-163.14,4.03,-27.20,581,-3766,7344,0,0,0
-163.14,4.02,-27.20,570,-3754,7340,-1,0,0
-163.14,4.01,-27.20,576,-3746,7346,-1,0,0
-163.15,4.01,-27.21,570,-3753,7337,-1,0,0
-163.15,4.01,-27.21,573,-3770,7331,-1,-1,0
-163.15,4.02,-27.22,575,-3787,7323,0,-1,-1
-163.15,4.02,-27.22,591,-3778,7330,-1,0,-1
-163.15,4.02,-27.22,592,-3782,7340,-1,0,0
-163.15,4.02,-27.22,593,-3782,7326,0,0,0
-163.14,4.01,-27.22,581,-3779,7341,0,0,0
-163.14,4.00,-27.22,562,-3772,7339,-1,0,0
-163.15,3.99,-27.22,551,-3771,7328,-1,0,0
-163.15,3.99,-27.23,552,-3769,7321,-1,-1,-1
-163.15,4.00,-27.23,571,-3772,7318,-1,-1,-1
-163.14,4.00,-27.23,577,-3773,7318,-1,-1,-1
-163.14,4.00,-27.24,581,-3778,7324,0,0,-1
-163.14,4.00,-27.24,590,-3773,7326,0,0,0
-163.14,4.00,-27.24,589,-3779,7330,0,0,0
-163.14,3.99,-27.23,589,-3768,7330,0,0,0
-163.14,3.99,-27.23,577,-3761,7330,-1,0,0
-163.15,3.99,-27.23,574,-3760,7333,-1,0,0
-163.15,3.99,-27.23,572,-3762,7325,-1,-1,-1
-163.15,3.99,-27.24,574,-3771,7321,-1,-1,-1
-163.15,3.98,-27.24,575,-3767,7325,-1,0,0
-163.15,3.98,-27.25,572,-3766,7328,-1,0,0
-163.15,3.98,-27.25,574,-3770,7330,-1,0,-1
-163.15,3.98,-27.25,574,-3762,7345,-1,0,0
-163.15,3.97,-27.24,573,-3766,7348,-1,0,0
-163.15,3.97,-27.25,572,-3770,7339,-1,0,0
-163.15,3.97,-27.25,572,-3764,7338,-1,0,-1
-163.15,3.97,-27.25,579,-3765,7339,-1,0,0
-163.15,3.97,-27.25,582,-3773,7343,-1,0,0
-163.15,3.97,-27.25,575,-3776,7333,-1,0,0
-163.15,3.97,-27.25,563,-3770,7327,-1,-1,-1
-163.15,3.97,-27.26,567,-3776,7327,-1,-1,-1
-163.14,3.98,-27.26,573,-3793,7338,-1,-1,-1
-163.14,3.98,-27.26,578,-3784,7330,0,-1,0
-163.14,3.99,-27.26,586,-3780,7322,0,0,0
-163.14,3.98,-27.26,570,-3772,7323,0,0,-1
-163.14,3.98,-27.25,564,-3778,7338,0,-1,-1
-163.14,3.98,-27.25,569,-3765,7348,0,0,-1
-163.14,3.98,-27.25,569,-3769,7335,-1,0,-1
-163.14,3.97,-27.26,560,-3777,7332,-1,-1,-1
-163.14,3.98,-27.27,579,-3785,7328,-1,0,-1
-163.14,3.98,-27.26,574,-3778,7341,0,-1,-1
-163.14,3.99,-27.26,591,-3775,7333,0,-1,0
-163.14,3.99,-27.27,585,-3779,7327,-1,-1,0
-163.14,3.99,-27.26,573,-3790,7321,0,0,0
-163.14,3.99,-27.25,569,-3781,7321,0,0,-1
-163.14,3.99,-27.24,569,-3770,7327,0,-1,0
-163.14,3.98,-27.24,562,-3773,7327,-1,-1,-1
-163.14,3.99,-27.24,567,-3765,7323,0,-1,0
-163.14,3.99,-27.24,566,-3767,7331,0,0,-1
-163.14,4.00,-27.24,574,-3764,7338,-1,-1,0
-163.14,4.00,-27.24,564,-3766,7335,-1,-1,-1
-163.14,4.00,-27.24,562,-3773,7329,-1,-1,-1
-163.14,4.00,-27.24,574,-3777,7335,0,-1,-1
-163.13,4.02,-27.23,594,-3773,7336,0,-1,0
-163.13,4.02,-27.22,607,-3772,7329,0,-1,0
-163.13,4.02,-27.21,595,-3773,7339,0,0,0
-163.14,4.01,-27.21,580,-3757,7342,0,0,0
-163.14,4.00,-27.20,565,-3748,7350,-1,-1,0
-163.14,4.01,-27.21,555,-3752,7352,-1,-1,0
-163.14,4.01,-27.21,554,-3764,7333,-1,-1,-1
-163.14,4.02,-27.22,567,-3779,7336,-1,-1,-1
-163.14,4.03,-27.22,587,-3778,7331,-1,-1,-1
-163.14,4.03,-27.23,592,-3782,7329,0,-1,0
-163.14,4.03,-27.22,595,-3782,7321,0,0,0
-163.14,4.03,-27.22,597,-3775,7334,0,0,0
-163.14,4.03,-27.20,594,-3765,7341,0,0,0
-163.13,4.03,-27.19,584,-3757,7341,0,0,0
-163.13,4.03,-27.19,579,-3755,7335,-1,0,0
-163.13,4.03,-27.19,575,-3756,7347,-1,-1,0
-163.13,4.03,-27.19,570,-3758,7344,-1,-1,0
-163.14,4.03,-27.20,576,-3763,7341,-1,-1,0
-163.13,4.04,-27.21,580,-3772,7338,-1,-1,-1
-163.13,4.04,-27.21,588,-3776,7327,-1,-1,0
-163.13,4.04,-27.21,582,-3775,7334,0,-1,-1
-163.13,4.04,-27.21,577,-3774,7322,0,-1,0
-163.13,4.04,-27.20,577,-3783,7336,0,-1,-1
-163.13,4.04,-27.19,588,-3777,7352,0,-1,-1
-163.12,4.05,-27.19,588,-3760,7345,-1,-1,-1
-163.12,4.06,-27.19,583,-3756,7336,-1,-1,-1
-163.12,4.06,-27.19,586,-3755,7337,-1,-1,0
-163.13,4.06,-27.19,587,-3763,7332,-1,-1,0
-163.13,4.06,-27.20,587,-3771,7345,-1,0,0
-163.13,4.06,-27.20,585,-3776,7345,-1,0,0
-163.13,4.06,-27.20,585,-3779,7339,0,0,0
-163.13,4.06,-27.20,584,-3775,7338,0,-1,-1
-163.13,4.06,-27.20,578,-3772,7335,0,-1,-1
-163.13,4.06,-27.20,589,-3775,7334,0,-1,-1
-163.13,4.06,-27.20,585,-3771,7340,0,-1,-1
-163.12,4.07,-27.19,589,-3761,7346,0,-1,0
-163.12,4.07,-27.19,586,-3764,7344,-1,-1,0
-163.13,4.07,-27.20,591,-3773,7338,-1,-1,0
-163.13,4.07,-27.20,591,-3776,7332,-1,-1,0
-163.12,4.08,-27.20,581,-3775,7327,-1,-1,-1
-163.13,4.08,-27.20,581,-3773,7330,-1,-1,-1
-163.13,4.08,-27.20,587,-3772,7332,0,0,0
-163.13,4.07,-27.20,582,-3767,7327,0,0,0
-163.13,4.07,-27.20,574,-3770,7337,0,0,0
-163.13,4.07,-27.20,572,-3772,7344,0,-1,0
-163.13,4.07,-27.20,580,-3771,7339,0,-1,0
-163.13,4.07,-27.19,581,-3764,7342,0,-1,0
-163.13,4.07,-27.19,586,-3762,7338,-1,0,0
-163.14,4.07,-27.20,578,-3765,7333,-1,0,0
-163.14,4.07,-27.20,578,-3776,7325,-1,-1,-1
-163.14,4.07,-27.20,575,-3784,7330,0,-1,0
-163.14,4.07,-27.20,577,-3773,7330,0,-1,-1
-163.14,4.07,-27.20,588,-3765,7336,-1,0,0
-163.14,4.07,-27.20,597,-3758,7335,-1,0,0
-163.14,4.07,-27.20,587,-3753,7335,-1,0,0
-163.15,4.07,-27.20,577,-3761,7330,-1,0,0
-163.15,4.07,-27.20,576,-3759,7331,-1,-1,0
-163.16,4.06,-27.21,561,-3765,7329,-1,-1,0
-163.15,4.07,-27.23,569,-3787,7332,-1,-1,-1
-163.15,4.08,-27.23,578,-3790,7331,0,-1,-1
-163.14,4.08,-27.22,589,-3781,7322,0,-1,-1
-163.14,4.08,-27.22,605,-3777,7321,0,0,-1
-163.14,4.09,-27.22,608,-3773,7329,0,0,0
-163.14,4.08,-27.21,606,-3767,7335,0,0,0
-163.14,4.07,-27.21,596,-3756,7349,-1,0,0
-163.15,4.07,-27.21,584,-3756,7343,-1,0,0
-163.15,4.07,-27.22,581,-3751,7323,-1,-1,0
-163.15,4.07,-27.23,580,-3755,7328,-1,-1,0
-163.16,4.06,-27.25,577,-3769,7328,-1,-1,0
-163.16,4.07,-27.26,579,-3781,7322,-1,-1,0
-163.16,4.07,-27.27,584,-3802,7325,-1,0,0
-163.16,4.07,-27.27,586,-3797,7322,0,0,0
-163.17,4.06,-27.26,588,-3779,7325,0,0,0
-163.16,4.05,-27.26,588,-3771,7331,0,0,-1
-163.16,4.05,-27.26,585,-3777,7332,0,0,0
-163.16,4.05,-27.26,582,-3773,7345,-1,-1,0
-163.17,4.05,-27.26,587,-3770,7344,-1,-1,0
-163.17,4.06,-27.27,594,-3772,7347,-1,-1,0
-163.17,4.06,-27.28,592,-3781,7330,-1,-1,0
-163.18,4.05,-27.29,580,-3780,7325,-1,-1,0
-163.19,4.05,-27.29,572,-3782,7331,-1,0,0
-163.19,4.05,-27.30,569,-3782,7325,-1,0,0
-163.19,4.05,-27.30,578,-3783,7328,-1,0,0
-163.19,4.05,-27.30,579,-3784,7317,-1,0,0
-163.20,4.04,-27.30,578,-3775,7319,-1,-1,0
-163.20,4.04,-27.30,578,-3776,7316,-1,-1,0
-163.20,4.05,-27.30,584,-3781,7323,-1,-1,0
-163.20,4.05,-27.30,587,-3774,7327,-1,-1,0
-163.20,4.05,-27.31,580,-3772,7329,-1,-1,0
-163.20,4.06,-27.31,587,-3777,7322,-1,-1,0
-163.20,4.06,-27.31,597,-3784,7321,-1,-1,0
-163.21,4.06,-27.32,592,-3781,7311,-1,-1,0
-163.21,4.06,-27.32,591,-3795,7324,-1,0,0
-163.22,4.06,-27.33,584,-3801,7331,0,0,0
-163.22,4.05,-27.33,569,-3794,7337,-1,-1,0
-163.22,4.05,-27.33,569,-3786,7325,0,0,-1
-163.22,4.05,-27.33,572,-3783,7323,-1,0,0
-163.22,4.05,-27.33,583,-3788,7337,-1,0,-1
-163.22,4.04,-27.33,580,-3790,7331,0,0,0
-163.22,4.03,-27.32,587,-3785,7337,0,0,-1
-163.21,4.04,-27.32,588,-3787,7338,0,0,0
-163.21,4.04,-27.32,581,-3783,7331,0,0,-1
-163.22,4.03,-27.31,573,-3786,7328,0,0,0
-163.21,4.03,-27.30,574,-3787,7339,0,0,-1
-163.21,4.03,-27.30,580,-3782,7334,0,0,-1
-163.21,4.03,-27.30,576,-3785,7328,0,0,-1
-163.21,4.03,-27.29,574,-3786,7323,0,-1,-1
-163.20,4.04,-27.28,572,-3786,7319,0,-1,-1
-163.20,4.04,-27.27,580,-3786,7321,0,-1,-1
-163.19,4.05,-27.26,588,-3782,7331,0,-1,-1
-163.19,4.05,-27.26,589,-3773,7332,0,0,-1
-163.19,4.05,-27.24,597,-3765,7347,0,0,-1
-163.19,4.05,-27.24,587,-3752,7347,0,0,0
-163.19,4.04,-27.24,574,-3755,7338,-1,0,-1
-163.19,4.04,-27.24,570,-3761,7333,-1,-1,0
-163.19,4.05,-27.24,585,-3776,7325,-1,-1,-1
-163.18,4.06,-27.24,586,-3778,7334,0,-1,-1
-163.18,4.07,-27.24,582,-3786,7337,0,-1,-1
-163.17,4.07,-27.24,585,-3794,7326,0,-1,-1
-163.17,4.07,-27.23,594,-3791,7323,0,0,-1
-163.17,4.07,-27.22,599,-3783,7331,0,0,0
-163.17,4.07,-27.21,598,-3760,7340,0,0,0
-163.17,4.07,-27.20,588,-3762,7348,0,0,0
-163.17,4.06,-27.20,580,-3765,7341,0,0,0
-163.17,4.06,-27.21,566,-3765,7329,-1,-1,0
-163.17,4.06,-27.21,571,-3764,7328,-1,-1,-1
-163.17,4.07,-27.22,581,-3775,7328,-1,-1,-1
-163.17,4.07,-27.22,587,-3788,7329,0,-1,-1
-163.17,4.07,-27.22,591,-3781,7323,0,0,-1
-163.17,4.07,-27.21,590,-3774,7336,0,0,0
-163.17,4.07,-27.20,588,-3769,7338,0,0,-1
-163.17,4.07,-27.20,588,-3764,7331,0,0,0
-163.17,4.07,-27.20,579,-3765,7329,0,0,-1
-163.17,4.07,-27.19,579,-3757,7347,-1,-1,0
-163.17,4.07,-27.20,586,-3762,7355,-1,-1,0
-163.17,4.07,-27.20,587,-3767,7348,-1,0,0
-163.17,4.06,-27.20,586,-3774,7339,-1,0,0
-163.17,4.06,-27.21,584,-3773,7333,-1,0,0
-163.18,4.05,-27.21,579,-3776,7335,-1,0,0
-163.18,4.05,-27.21,571,-3781,7330,0,0,0
-163.18,4.05,-27.21,566,-3781,7332,0,0,-1
-163.18,4.05,-27.20,566,-3778,7340,0,0,-1
-163.17,4.05,-27.20,573,-3769,7335,0,-1,-1
-163.17,4.05,-27.19,577,-3762,7330,0,-1,-1
-163.17,4.05,-27.19,584,-3763,7326,-1,0,0
-163.17,4.05,-27.20,589,-3767,7341,-1,0,0
-163.17,4.04,-27.19,582,-3764,7347,-1,0,0
-163.17,4.03,-27.20,579,-3766,7337,-1,0,0
-163.17,4.03,-27.20,577,-3775,7329,-1,0,0
-163.17,4.03,-27.20,570,-3776,7332,0,0,0
-163.17,4.03,-27.20,574,-3778,7339,-1,0,0
-163.17,4.03,-27.20,579,-3774,7339,0,0,0
-163.17,4.03,-27.19,579,-3769,7340,0,0,-1
-163.17,4.03,-27.19,580,-3771,7340,0,0,0
-163.17,4.03,-27.19,581,-3763,7341,-1,0,0
-163.18,4.02,-27.20,579,-3768,7348,-1,0,0
-163.18,4.02,-27.19,576,-3772,7350,-1,0,0
-163.18,4.02,-27.20,572,-3764,7343,-1,0,-1
-163.18,4.02,-27.19,571,-3768,7339,-1,0,0
-163.18,4.01,-27.19,571,-3758,7341,-1,0,-1
-163.18,4.01,-27.20,571,-3762,7341,-1,0,0
-163.18,4.01,-27.20,571,-3765,7329,-1,0,0
-163.18,4.01,-27.20,568,-3772,7329,0,0,0
-163.18,4.01,-27.19,562,-3773,7337,0,-1,0
-163.18,4.01,-27.20,558,-3776,7331,0,-1,-1
-163.18,4.01,-27.19,566,-3778,7327,0,-1,-1
-163.18,4.01,-27.19,577,-3771,7330,0,0,-1
-163.17,4.01,-27.18,586,-3764,7337,0,0,0
-163.18,4.00,-27.18,581,-3753,7344,-1,0,0
-163.18,4.00,-27.18,572,-3753,7336,-1,0,0
-163.18,3.99,-27.19,563,-3754,7340,-1,0,0
-163.18,3.99,-27.19,556,-3758,7335,-1,-1,0
-163.19,3.99,-27.21,547,-3774,7333,-1,-1,-1
-163.18,3.99,-27.21,560,-3784,7325,-1,-1,-1
-163.18,4.00,-27.21,574,-3783,7307,0,-1,-1
-163.18,4.00,-27.21,582,-3781,7313,0,0,-1
-163.17,4.00,-27.21,590,-3776,7324,0,0,0
-163.18,4.00,-27.21,596,-3772,7319,0,0,0
-163.18,3.99,-27.20,579,-3770,7325,0,0,0
-163.18,3.99,-27.19,563,-3764,7337,0,0,0
-163.18,3.98,-27.19,557,-3761,7340,-1,0,-1
-163.18,3.98,-27.19,563,-3770,7349,-1,-1,-1
-163.18,3.99,-27.19,576,-3765,7348,-1,0,0
-163.19,3.98,-27.20,570,-3765,7333,-1,-1,0
-163.19,3.98,-27.21,570,-3773,7329,-1,0,0
-163.19,3.98,-27.21,576,-3784,7341,0,0,0
-163.19,3.97,-27.21,563,-3777,7336,0,0,0
-163.19,3.97,-27.21,547,-3774,7331,0,-1,-1
-163.19,3.97,-27.21,552,-3777,7328,0,-1,-1
-163.19,3.98,-27.21,564,-3776,7330,0,-1,-1
-163.19,3.98,-27.20,575,-3762,7335,0,-1,0
-163.18,3.99,-27.20,585,-3764,7338,-1,-1,0
-163.18,3.99,-27.20,583,-3763,7335,0,0,0
-163.18,3.99,-27.20,574,-3768,7339,-1,0,0
-163.19,3.98,-27.20,571,-3769,7331,0,-1,-1
-163.19,3.98,-27.20,567,-3776,7328,0,-1,-1
-163.19,3.98,-27.20,562,-3771,7334,0,-1,-1
-163.18,3.99,-27.19,569,-3771,7331,0,-1,-1
-163.18,4.00,-27.19,577,-3771,7340,0,-1,-1
-163.18,4.00,-27.19,571,-3770,7336,0,-1,-1
-163.18,4.00,-27.19,576,-3770,7338,0,-1,-1
-163.18,4.00,-27.19,576,-3770,7336,0,0,0
-163.18,4.00,-27.19,576,-3767,7329,0,-1,0
-163.18,4.00,-27.18,581,-3767,7338,0,-1,0
-163.19,4.00,-27.18,575,-3769,7343,0,0,-1
-163.18,4.01,-27.18,577,-3758,7342,0,-1,-1
-163.18,4.01,-27.18,569,-3756,7339,0,-1,-1
-163.18,4.01,-27.18,576,-3759,7340,-1,-1,0
-163.18,4.01,-27.18,577,-3767,7335,-1,0,0
-163.18,4.01,-27.18,574,-3767,7342,0,-1,0
-163.18,4.02,-27.18,577,-3776,7336,-1,-1,0
-163.18,4.02,-27.18,576,-3779,7348,0,-1,0
-163.18,4.01,-27.18,574,-3772,7343,0,-1,0
-163.18,4.02,-27.17,572,-3764,7347,-1,-1,-1
-163.18,4.02,-27.17,574,-3764,7326,0,-1,-1
-163.18,4.03,-27.17,579,-3759,7326,0,-1,0
-163.18,4.03,-27.17,583,-3761,7334,0,-1,0
-163.18,4.03,-27.16,587,-3762,7346,0,-1,-1
-163.18,4.03,-27.16,584,-3757,7336,0,0,0
-163.18,4.03,-27.16,585,-3756,7333,-1,0,0
-163.18,4.03,-27.16,580,-3753,7341,-1,0,0
-163.19,4.02,-27.16,574,-3755,7348,-1,-1,0
-163.19,4.03,-27.17,571,-3761,7347,-1,-1,0
-163.18,4.03,-27.17,574,-3768,7338,-1,-1,-1
-163.18,4.03,-27.17,571,-3770,7326,-1,-1,-1
-163.19,4.03,-27.18,578,-3773,7328,-1,-1,-1
-163.18,4.04,-27.18,583,-3775,7327,0,-1,-1
-163.18,4.04,-27.17,584,-3771,7331,0,-1,-1
-163.17,4.05,-27.16,591,-3763,7332,0,0,0
-163.17,4.05,-27.16,592,-3764,7339,0,0,0
-163.17,4.05,-27.16,588,-3760,7349,0,0,0
-163.18,4.04,-27.16,579,-3759,7339,-1,-1,0
-163.18,4.04,-27.16,575,-3758,7337,-1,-1,0
-163.18,4.05,-27.16,575,-3768,7338,-1,-1,0
-163.19,4.04,-27.17,585,-3767,7323,-1,-1,0
-163.19,4.05,-27.17,582,-3772,7320,-1,-1,0
-163.19,4.05,-27.18,577,-3772,7322,0,-1,0
-163.19,4.05,-27.18,576,-3778,7319,0,0,0
-163.19,4.04,-27.17,583,-3771,7327,0,0,0
-163.20,4.04,-27.17,585,-3769,7331,-1,0,0
-163.20,4.04,-27.16,587,-3764,7336,0,-1,0
-163.20,4.03,-27.17,582,-3771,7346,0,0,-1
-163.21,4.03,-27.16,585,-3758,7350,-1,-1,0
-163.21,4.03,-27.17,587,-3755,7343,-1,0,0
-163.21,4.03,-27.17,576,-3759,7335,-1,-1,0
-163.21,4.02,-27.18,576,-3758,7331,-1,0,-1
-163.21,4.02,-27.19,582,-3769,7331,-1,0,0
-163.21,4.01,-27.19,571,-3776,7341,-1,0,0
-163.22,4.01,-27.20,580,-3776,7325,-1,-1,0
-163.21,4.00,-27.20,571,-3774,7339,0,0,-1
-163.21,4.00,-27.20,569,-3772,7331,-1,-1,0
-163.21,4.00,-27.19,565,-3775,7345,0,0,0
-163.21,4.00,-27.19,567,-3771,7334,0,0,-1
-163.22,4.00,-27.19,565,-3764,7343,-1,-1,0
-163.22,4.00,-27.19,579,-3760,7338,-1,0,0
-163.22,4.00,-27.19,582,-3769,7339,-1,0,0
-163.23,4.00,-27.20,577,-3768,7336,-1,-1,0
-163.23,3.99,-27.21,583,-3774,7324,-1,0,0
-163.23,3.99,-27.21,567,-3771,7332,-1,0,0
-163.23,3.99,-27.21,566,-3771,7340,-1,0,0
-163.24,3.99,-27.21,568,-3774,7341,-1,-1,0
-163.24,3.99,-27.21,568,-3775,7337,-1,0,0
-163.24,3.99,-27.22,572,-3775,7326,-1,-1,0
-163.24,3.99,-27.22,574,-3765,7330,-1,0,0
-163.24,3.99,-27.22,577,-3762,7342,-1,0,0
-163.24,3.99,-27.22,582,-3763,7334,-1,0,0
-163.24,3.99,-27.23,581,-3771,7335,-1,0,0
-163.24,3.99,-27.24,571,-3776,7318,-1,-1,0
-163.24,3.99,-27.24,575,-3786,7322,-1,-1,0
-163.25,3.99,-27.24,577,-3791,7314,0,0,0
-163.25,3.99,-27.25,579,-3785,7319,-1,-1,0
-163.25,3.99,-27.25,580,-3782,7320,0,0,-1
-163.25,3.99,-27.24,585,-3773,7330,-1,0,0
-163.25,3.98,-27.24,576,-3764,7328,-1,0,0
-163.26,3.97,-27.25,566,-3773,7331,-1,0,0
-163.27,3.97,-27.27,552,-3775,7314,-1,0,0
-163.27,3.96,-27.28,554,-3785,7317,-1,-1,0
-163.28,3.97,-27.28,558,-3793,7322,-1,-1,0
-163.28,3.98,-27.29,560,-3795,7329,-1,-1,-1
-163.27,3.98,-27.29,570,-3796,7325,0,-1,-1
-163.27,3.98,-27.29,581,-3795,7327,0,-1,0
-163.27,3.99,-27.29,588,-3782,7325,0,0,0
-163.27,3.98,-27.29,585,-3778,7331,0,0,0
-163.27,3.98,-27.28,576,-3774,7338,-1,0,0
-163.28,3.98,-27.28,565,-3770,7334,-1,-1,0
-163.28,3.97,-27.29,566,-3770,7322,-1,-1,0
-163.28,3.98,-27.29,560,-3779,7317,-1,-1,0
-163.29,3.98,-27.31,565,-3782,7317,-1,-1,0
-163.29,3.99,-27.31,575,-3783,7311,-1,-1,0
-163.29,3.99,-27.32,571,-3793,7317,0,-1,0
-163.29,4.00,-27.32,572,-3790,7316,0,0,0
-163.29,4.00,-27.31,578,-3785,7325,0,0,-1
-163.29,4.00,-27.31,570,-3782,7329,0,0,0
-163.29,4.00,-27.30,571,-3780,7332,0,-1,-1
-163.29,4.00,-27.30,574,-3787,7339,0,-1,-1
-163.29,4.00,-27.30,575,-3776,7335,0,-1,-1
-163.29,4.00,-27.31,575,-3770,7330,-1,-1,0
-163.29,4.00,-27.31,583,-3778,7322,-1,-1,0
-163.28,4.01,-27.32,585,-3778,7328,-1,-1,0
-163.28,4.01,-27.32,582,-3789,7323,-1,0,0
-163.29,4.00,-27.33,575,-3798,7324,0,0,0
-163.29,4.00,-27.32,561,-3796,7318,0,0,0
-163.29,4.00,-27.32,564,-3788,7314,0,0,-1
-163.28,4.00,-27.31,570,-3787,7327,0,-1,-1
-163.28,4.00,-27.30,573,-3785,7327,0,-1,-1
-163.27,4.01,-27.29,579,-3782,7328,0,-1,-1
-163.27,4.01,-27.28,579,-3779,7331,0,-1,-1
-163.27,4.01,-27.28,579,-3776,7329,0,0,-1
-163.27,4.01,-27.28,576,-3778,7333,0,0,-1
-163.26,4.01,-27.27,580,-3777,7336,0,0,-1
-163.26,4.02,-27.26,575,-3778,7342,0,-1,-1
-163.25,4.02,-27.26,571,-3785,7332,0,-1,-1
-163.25,4.02,-27.26,577,-3777,7330,0,-1,-1
-163.24,4.02,-27.25,579,-3779,7327,0,-1,-1
-163.24,4.03,-27.24,588,-3790,7330,0,-1,-1
-163.24,4.03,-27.23,577,-3785,7329,0,0,-1
-163.24,4.02,-27.23,569,-3773,7339,0,0,-1
-163.24,4.02,-27.22,575,-3767,7336,0,0,-1
-163.23,4.03,-27.21,585,-3765,7335,0,0,-1
-163.23,4.03,-27.21,585,-3766,7336,0,0,0
-163.23,4.02,-27.21,577,-3764,7341,-1,-1,-1
-163.23,4.03,-27.21,577,-3771,7324,0,-1,-1
-163.23,4.03,-27.21,584,-3778,7330,0,-1,0
-163.23,4.03,-27.21,577,-3775,7325,0,0,-1
-163.23,4.03,-27.21,569,-3774,7321,0,-1,-1
-163.23,4.03,-27.20,579,-3783,7327,0,0,-1
-163.22,4.03,-27.20,581,-3780,7323,0,0,-1
-163.22,4.03,-27.19,580,-3777,7326,0,0,-1
-163.22,4.03,-27.19,581,-3771,7328,0,-1,-1
-163.22,4.03,-27.18,588,-3776,7331,0,-1,-1
-163.21,4.04,-27.17,600,-3774,7351,0,0,0
-163.21,4.03,-27.16,596,-3765,7339,0,0,0
-163.21,4.03,-27.16,585,-3758,7334,0,0,0
-163.21,4.02,-27.16,565,-3742,7333,-1,0,0
-163.22,4.01,-27.17,560,-3735,7326,-1,0,0
-163.22,4.00,-27.18,557,-3752,7330,-1,-1,-1
-163.22,4.01,-27.18,555,-3766,7333,-1,-1,-1
-163.22,4.01,-27.19,566,-3769,7322,0,-1,-1
-163.22,4.02,-27.19,576,-3778,7318,0,-1,-1
-163.22,4.02,-27.19,585,-3786,7321,0,0,-1
-163.21,4.02,-27.18,584,-3780,7324,0,0,-1
-163.21,4.02,-27.17,585,-3767,7324,0,0,-1
-163.21,4.01,-27.15,588,-3747,7337,0,0,0
-163.21,4.01,-27.14,574,-3739,7334,0,0,0
-163.21,4.01,-27.14,569,-3751,7337,-1,-1,0
-163.21,4.01,-27.15,571,-3759,7349,-1,-1,-1
-163.21,4.01,-27.15,572,-3749,7348,-1,-1,0
-163.21,4.01,-27.15,570,-3756,7338,-1,-1,-1
-163.21,4.02,-27.16,577,-3767,7327,-1,-1,-1
-163.21,4.02,-27.16,578,-3775,7330,0,0,0
-163.21,4.02,-27.16,577,-3777,7324,0,0,-1
-163.21,4.01,-27.16,574,-3776,7333,0,0,0
-163.21,4.01,-27.16,574,-3762,7322,0,-1,0
-163.21,4.01,-27.15,584,-3766,7322,0,0,0
-163.21,4.00,-27.15,577,-3757,7327,0,0,-1
-163.21,4.00,-27.15,573,-3756,7342,-1,-1,0
-163.20,4.00,-27.16,579,-3760,7344,-1,0,0
-163.20,4.00,-27.15,579,-3758,7328,0,0,0
-163.21,3.99,-27.16,568,-3766,7331,-1,0,0
-163.21,3.98,-27.17,563,-3767,7324,-1,0,0
-163.21,3.97,-27.17,571,-3776,7332,0,0,-1
-163.21,3.97,-27.17,570,-3766,7337,0,0,0
-163.21,3.97,-27.17,557,-3758,7327,-1,-1,-1
-163.21,3.96,-27.17,555,-3768,7337,0,0,-1
-163.21,3.96,-27.17,557,-3760,7323,-1,0,0
-163.21,3.96,-27.18,562,-3770,7336,-1,-1,0
-163.21,3.96,-27.17,572,-3765,7333,0,0,0
-163.21,3.96,-27.18,570,-3772,7337,-1,0,-1
-163.22,3.95,-27.17,576,-3777,7347,0,-1,0
-163.22,3.95,-27.17,573,-3766,7323,-1,0,-1
-163.21,3.96,-27.18,572,-3770,7320,-1,-1,0
-163.22,3.95,-27.18,574,-3771,7327,0,0,0
-163.22,3.95,-27.17,567,-3757,7342,-1,-1,0
-163.22,3.95,-27.18,569,-3761,7337,-1,-1,0
-163.22,3.95,-27.18,561,-3769,7349,-1,-1,-1
-163.22,3.95,-27.18,558,-3774,7352,-1,-1,0
-163.22,3.95,-27.19,563,-3778,7345,-1,-1,-1
-163.22,3.96,-27.20,564,-3775,7335,-1,-1,-1
-163.22,3.96,-27.21,567,-3777,7343,-1,0,-1
-163.22,3.96,-27.21,571,-3777,7332,-1,-1,0
-163.22,3.96,-27.21,576,-3784,7330,0,0,0
-163.22,3.96,-27.20,579,-3778,7331,0,0,0
-163.22,3.96,-27.20,567,-3767,7328,0,0,0
-163.22,3.96,-27.20,564,-3765,7322,-1,0,0
-163.22,3.96,-27.20,559,-3767,7323,0,-1,-1
-163.22,3.96,-27.19,564,-3767,7329,0,-1,-1
-163.22,3.96,-27.19,572,-3758,7338,0,0,-1
-163.22,3.97,-27.19,583,-3758,7348,-1,-1,0
-163.22,3.97,-27.18,583,-3751,7342,0,0,0
-163.22,3.97,-27.18,578,-3758,7331,-1,0,0
-163.22,3.96,-27.18,563,-3755,7332,-1,0,0
-163.22,3.96,-27.19,552,-3758,7338,-1,-1,0
-163.23,3.96,-27.20,547,-3767,7330,-1,-1,-1
-163.22,3.97,-27.20,556,-3780,7329,-1,-1,-1
-163.22,3.98,-27.20,576,-3778,7328,0,-1,-1
-163.22,3.98,-27.20,585,-3781,7328,0,-1,-1
-163.21,3.99,-27.19,584,-3770,7327,0,0,-1
-163.21,3.99,-27.19,588,-3769,7332,0,0,0
-163.21,3.99,-27.18,579,-3772,7337,0,0,0
-163.22,3.98,-27.17,565,-3760,7337,0,-1,0
-163.21,3.99,-27.17,571,-3761,7339,0,-1,-1
-163.21,3.99,-27.17,573,-3757,7341,-1,-1,-1
-163.21,3.99,-27.18,570,-3764,7335,-1,-1,0
-163.21,3.99,-27.18,572,-3767,7335,-1,-1,0
-163.21,4.00,-27.18,577,-3770,7334,-1,-1,0
-163.22,3.99,-27.18,582,-3776,7333,0,-1,0
-163.22,3.99,-27.18,581,-3779,7332,0,0,0
-163.22,3.99,-27.18,575,-3773,7331,0,0,-1
-163.22,3.99,-27.18,570,-3769,7333,0,-1,-1
-163.22,4.00,-27.18,575,-3763,7334,0,-1,-1
-163.21,4.01,-27.17,575,-3760,7336,-1,-1,0
-163.22,4.01,-27.17,572,-3760,7335,0,-1,-1
-163.22,4.01,-27.17,574,-3763,7341,-1,-1,0
-163.22,4.01,-27.17,587,-3761,7344,-1,0,0
-163.22,4.01,-27.18,580,-3763,7336,-1,0,0
-163.22,4.01,-27.18,576,-3770,7335,0,0,0
-163.22,4.00,-27.18,575,-3770,7329,-1,-1,0
-163.22,4.01,-27.18,584,-3779,7342,0,-1,-1
-163.22,4.01,-27.18,575,-3771,7328,0,-1,-1
-163.22,4.02,-27.17,569,-3770,7331,-1,-1,-1
-163.22,4.02,-27.17,582,-3767,7331,-1,-1,-1
-163.22,4.02,-27.17,590,-3764,7329,-1,-1,0
-163.22,4.02,-27.17,592,-3761,7333,-1,-1,0
-163.22,4.02,-27.17,580,-3770,7334,0,0,0
-163.22,4.02,-27.17,572,-3766,7323,0,-1,-1
-163.22,4.02,-27.17,568,-3764,7318,-1,-1,0
-163.22,4.03,-27.18,571,-3760,7330,-1,-1,0
-163.22,4.03,-27.18,569,-3763,7325,0,-1,-1
-163.22,4.03,-27.18,568,-3769,7334,0,-1,0
-163.22,4.03,-27.18,570,-3773,7338,0,-1,0
-163.22,4.03,-27.17,576,-3769,7341,0,-1,0
-163.22,4.03,-27.17,576,-3768,7338,0,-1,0
-163.22,4.03,-27.17,577,-3766,7341,0,-1,0
-163.22,4.03,-27.17,572,-3755,7339,0,-1,0
-163.22,4.03,-27.17,569,-3754,7338,-1,-1,0
-163.22,4.04,-27.17,572,-3767,7330,-1,-1,0
-163.23,4.03,-27.17,576,-3773,7330,0,-1,0
-163.23,4.03,-27.17,582,-3771,7341,0,-1,0
-163.23,4.04,-27.17,585,-3772,7339,0,-1,0
-163.23,4.05,-27.16,587,-3765,7341,0,-1,-1
-163.23,4.05,-27.16,585,-3768,7348,0,0,0
-163.23,4.04,-27.16,578,-3760,7347,-1,0,0
-163.24,4.03,-27.17,569,-3758,7344,-1,0,0
-163.24,4.03,-27.17,563,-3764,7340,-1,-1,0
-163.24,4.03,-27.18,564,-3773,7333,-1,-1,0
-163.24,4.03,-27.18,568,-3779,7331,-1,-1,-1
-163.24,4.04,-27.18,579,-3773,7327,-1,-1,-1
-163.24,4.04,-27.19,584,-3777,7332,0,-1,-1
-163.24,4.05,-27.18,581,-3773,7331,0,-1,0
-163.24,4.05,-27.18,590,-3770,7344,0,0,0
-163.23,4.05,-27.16,595,-3762,7353,0,0,0
-163.24,4.04,-27.16,579,-3758,7354,-1,-1,0
-163.24,4.04,-27.17,576,-3760,7339,-1,-1,-1
-163.24,4.04,-27.17,575,-3759,7340,-1,-1,-1
-163.24,4.04,-27.17,569,-3760,7342,-1,-1,0
-163.24,4.05,-27.18,574,-3767,7343,-1,-1,0
-163.25,4.05,-27.18,573,-3780,7329,-1,-1,0
-163.25,4.05,-27.19,573,-3777,7334,-1,0,0
-163.25,4.05,-27.18,568,-3778,7332,0,0,-1
-163.25,4.05,-27.18,572,-3769,7335,0,-1,-1
-163.25,4.05,-27.18,577,-3769,7328,-1,-1,-1
-163.25,4.05,-27.18,588,-3764,7329,-1,-1,0
-163.25,4.05,-27.18,586,-3752,7342,-1,0,0
-163.25,4.05,-27.19,591,-3763,7346,-1,-1,0
-163.26,4.05,-27.20,584,-3770,7350,-1,0,0
-163.26,4.05,-27.21,582,-3774,7338,-1,0,0
-163.26,4.04,-27.21,583,-3781,7325,-1,0,0
-163.27,4.03,-27.22,574,-3776,7332,-1,0,0
-163.27,4.03,-27.23,568,-3786,7327,-1,0,0
-163.27,4.03,-27.23,570,-3789,7319,-1,0,0
-163.28,4.02,-27.24,577,-3783,7323,-1,0,0
-163.28,4.02,-27.24,580,-3770,7330,-1,0,0
-163.28,4.02,-27.24,578,-3768,7333,-1,-1,0
-163.29,4.02,-27.25,575,-3779,7328,-1,-1,0
-163.30,4.01,-27.26,579,-3779,7335,-1,0,0
-163.30,4.01,-27.26,574,-3771,7339,-1,-1,0
-163.30,4.01,-27.26,576,-3779,7344,-1,-1,0
-163.31,4.01,-27.27,575,-3796,7338,-1,0,0
-163.31,4.01,-27.28,579,-3785,7325,-1,0,0
-163.31,4.01,-27.28,581,-3773,7321,-1,-1,0
-163.31,4.02,-27.28,579,-3781,7323,-1,-1,0
-163.31,4.02,-27.28,582,-3792,7330,0,0,0
-163.32,4.02,-27.28,573,-3781,7329,0,-1,0
-163.32,4.02,-27.28,567,-3780,7332,-1,-1,0
-163.32,4.02,-27.28,577,-3775,7331,-1,-1,0
-163.32,4.02,-27.28,573,-3775,7321,-1,0,-1
-163.32,4.02,-27.29,576,-3778,7323,-1,-1,0
-163.32,4.02,-27.29,583,-3789,7324,0,-1,0
-163.32,4.02,-27.29,580,-3785,7314,0,0,-1
-163.32,4.02,-27.28,578,-3779,7327,0,0,-1
-163.31,4.02,-27.27,584,-3782,7324,0,0,-1
-163.31,4.01,-27.26,576,-3772,7322,0,0,-1
-163.31,4.01,-27.26,569,-3775,7321,0,0,0
-163.31,4.01,-27.26,563,-3770,7330,0,-1,0
-163.31,4.01,-27.26,560,-3772,7328,-1,-1,-1
-163.30,4.02,-27.25,565,-3783,7323,0,-1,-1
-163.30,4.02,-27.26,570,-3797,7313,0,-1,-1
-163.30,4.02,-27.25,584,-3796,7312,0,0,-1
-163.29,4.02,-27.24,590,-3793,7309,0,0,-1
-163.29,4.03,-27.23,592,-3781,7321,0,0,-1
-163.28,4.03,-27.22,594,-3769,7322,0,0,-1
-163.28,4.03,-27.20,588,-3754,7333,0,0,-1
-163.28,4.03,-27.19,581,-3751,7332,0,0,0
-163.28,4.02,-27.20,577,-3755,7330,-1,0,-1
-163.28,4.02,-27.20,578,-3757,7330,-1,-1,0
-163.28,4.03,-27.20,580,-3757,7330,-1,-1,0
-163.28,4.03,-27.20,578,-3769,7328,-1,-1,0
-163.28,4.03,-27.20,585,-3783,7339,0,0,-1
-163.27,4.04,-27.20,589,-3783,7336,0,-1,-1
-163.27,4.03,-27.19,574,-3778,7324,0,0,-1
-163.27,4.03,-27.19,577,-3771,7323,0,0,-1
-163.26,4.03,-27.18,578,-3762,7328,0,-1,-1
-163.26,4.04,-27.17,584,-3767,7334,0,0,-1
-163.26,4.04,-27.17,580,-3766,7335,0,-1,0
-163.26,4.04,-27.17,582,-3764,7324,-1,-1,0
-163.27,4.04,-27.17,577,-3765,7335,-1,-1,0
-163.27,4.04,-27.17,580,-3770,7326,0,-1,0
-163.27,4.04,-27.18,580,-3776,7330,-1,0,0
-163.27,4.04,-27.18,586,-3781,7334,0,0,0
-163.27,4.04,-27.18,586,-3780,7342,0,0,0
-163.27,4.04,-27.17,583,-3776,7350,0,0,0
-163.27,4.04,-27.16,582,-3763,7347,0,0,-1
-163.27,4.04,-27.16,579,-3764,7348,0,-1,0
-163.27,4.04,-27.16,584,-3761,7338,0,-1,0
-163.27,4.04,-27.16,589,-3766,7337,0,0,-1
-163.27,4.04,-27.16,591,-3762,7336,-1,-1,0
-163.27,4.04,-27.16,588,-3761,7333,-1,0,-1
-163.27,4.04,-27.16,587,-3771,7332,-1,0,0
-163.27,4.04,-27.16,586,-3771,7323,-1,0,0
-163.27,4.04,-27.16,577,-3769,7318,-1,0,0
-163.27,4.04,-27.16,578,-3774,7319,0,0,0
