Yaw,Pitch,Roll,AX,AY,AZ,GX,GY,GZ
-19.47,1.40,14.42,182,2011,7909,0,-1,0
-19.47,1.41,14.42,184,2010,7893,0,-1,0
-19.47,1.42,14.43,191,2033,7878,0,-1,-1
-19.47,1.44,14.44,197,2044,7889,-1,-1,-1
-19.47,1.44,14.44,202,2045,7896,-1,0,-1
-19.47,1.43,14.44,187,2037,7904,-1,0,-1
-19.46,1.43,14.42,185,2017,7899,-1,-1,-1
-19.45,1.43,14.43,172,2035,7892,0,-1,-1
-19.45,1.43,14.44,171,2039,7889,0,-1,-1
-19.45,1.43,14.44,181,2046,7886,0,-1,0
-19.45,1.43,14.44,180,2046,7882,-1,-1,0
-19.45,1.44,14.44,194,2053,7892,-1,0,-1
-19.45,1.44,14.44,192,2046,7891,-1,-1,-1
-19.45,1.44,14.44,197,2034,7899,-1,-1,-1
-19.45,1.44,14.43,186,2031,7902,-1,-1,-1
-19.44,1.44,14.43,192,2030,7900,-1,-1,-1
-19.44,1.44,14.42,192,2027,7895,0,-1,-1
-19.44,1.44,14.43,192,2034,7888,0,-1,-1
-19.44,1.43,14.44,195,2043,7883,-1,0,-1
-19.43,1.43,14.43,187,2050,7887,-1,-1,-1
-19.42,1.42,14.43,193,2040,7891,-1,0,-1
-19.42,1.41,14.42,181,2037,7893,-1,0,-1
-19.42,1.40,14.42,182,2039,7895,-1,-1,-1
-19.41,1.40,14.42,186,2034,7902,-1,0,-1
-19.41,1.40,14.41,185,2037,7899,-1,0,-1
-19.41,1.40,14.41,186,2023,7885,-1,-1,-1
-19.41,1.40,14.41,190,2034,7888,0,-1,-1
-19.40,1.39,14.42,198,2039,7892,-1,0,-1
-19.40,1.39,14.40,186,2028,7901,-1,0,-1
-19.39,1.37,14.39,191,1999,7901,0,0,-1
-19.38,1.37,14.40,177,2023,7891,0,0,-1
-19.37,1.37,14.41,182,2043,7887,0,-1,-1
-19.37,1.36,14.41,178,2047,7898,-1,0,-1
-19.36,1.36,14.40,184,2035,7887,-1,-1,-1
-19.36,1.35,14.40,199,2027,7889,-1,0,-1
-19.34,1.34,14.40,172,2028,7885,-1,0,-1
-19.34,1.33,14.39,181,2019,7888,-1,-1,-1
-19.33,1.33,14.38,177,2009,7895,-1,0,-1
-19.32,1.32,14.39,181,2025,7903,0,0,-1
-19.32,1.30,14.39,155,2039,7897,0,-1,-1
-19.31,1.30,14.40,169,2040,7891,-1,0,-1
-19.31,1.30,14.40,162,2039,7901,-1,0,-1
-19.30,1.29,14.40,146,2044,7894,-1,-1,-1
-19.30,1.29,14.38,156,2011,7898,-1,-1,0
-19.29,1.29,14.38,154,2006,7895,0,-1,-1
-19.29,1.30,14.39,171,2019,7894,0,-1,-1
-19.29,1.29,14.39,173,2031,7891,0,0,0
-19.29,1.29,14.39,166,2026,7885,-1,-1,0
-19.29,1.30,14.38,187,2005,7911,-1,0,-1
-19.29,1.29,14.38,154,2034,7908,0,-1,-1
-19.29,1.30,14.39,168,2028,7898,-1,-1,-1
-19.29,1.30,14.38,153,2030,7895,-1,-1,-1
-19.29,1.30,14.38,157,2033,7897,-1,-1,0
-19.29,1.30,14.38,168,2031,7895,-1,-1,0
-19.30,1.31,14.38,167,2020,7907,-1,-1,0
-19.30,1.31,14.38,188,2021,7905,0,0,-1
-19.30,1.31,14.38,170,2038,7896,-1,-1,-1
-19.30,1.31,14.38,168,2039,7897,-1,-1,0
-19.30,1.31,14.36,160,2024,7902,-1,-1,0
-19.30,1.32,14.36,155,2030,7901,-1,-1,0
-19.31,1.32,14.36,163,2019,7895,-1,-1,0
-19.31,1.33,14.35,171,2013,7897,-1,-1,0
-19.31,1.34,14.35,174,2009,7899,-1,-1,0
-19.31,1.34,14.35,179,2018,7891,-1,-1,0
-19.31,1.34,14.35,175,2019,7894,-1,-1,0
-19.32,1.35,14.35,185,2025,7889,0,-1,0
-19.32,1.35,14.35,190,2033,7908,-1,-1,0
-19.33,1.36,14.35,184,2035,7904,-1,-1,0
-19.33,1.37,14.34,187,2017,7910,0,-1,-1
-19.33,1.37,14.35,173,2027,7901,0,-1,0
-19.33,1.38,14.36,168,2040,7904,0,-1,0
-19.33,1.38,14.36,173,2037,7903,-1,-1,0
-19.33,1.38,14.36,181,2034,7905,-1,-1,0
-19.34,1.38,14.36,185,2037,7905,-1,-1,0
-19.35,1.38,14.36,186,2028,7902,0,-1,0
-19.35,1.38,14.36,186,2021,7892,0,-1,-1
-19.35,1.39,14.37,183,2032,7902,0,0,-1
-19.34,1.37,14.37,176,2044,7908,-1,0,-1
-19.34,1.37,14.37,169,2035,7904,-1,-1,0
-19.34,1.37,14.37,180,2019,7900,0,0,0
-19.34,1.37,14.38,183,2027,7902,0,0,-1
-19.34,1.37,14.38,185,2036,7889,-1,-1,-1
-19.33,1.37,14.38,173,2039,7890,-1,0,-1
-19.33,1.36,14.37,161,2027,7896,-1,-1,0
-19.34,1.37,14.37,178,2029,7911,-1,-1,0
-19.35,1.37,14.36,172,2017,7902,-1,-1,0
-19.35,1.37,14.36,175,2010,7896,0,-1,0
-19.35,1.38,14.37,187,2023,7903,0,-1,0
-19.35,1.39,14.37,181,2034,7894,-1,-1,0
-19.35,1.39,14.36,191,2030,7894,-1,-1,0
-19.36,1.40,14.36,198,2022,7888,-1,-1,0
-19.36,1.40,14.36,180,2018,7898,-1,-1,0
-19.36,1.40,14.36,177,2022,7910,0,-1,-1
-19.36,1.41,14.36,179,2027,7910,-1,-1,0
-19.37,1.41,14.36,184,2045,7899,-1,0,0
-19.37,1.41,14.35,183,2012,7906,-1,-1,0
-19.37,1.41,14.35,191,2013,7900,0,-1,-1
-19.37,1.42,14.36,181,2024,7913,0,-1,-1
-19.37,1.43,14.37,189,2039,7915,0,-1,0
-19.37,1.43,14.37,191,2041,7898,-1,-1,0
-19.38,1.43,14.36,189,2037,7903,-1,-1,0
-19.38,1.43,14.35,194,2020,7896,-1,-1,0
-19.39,1.44,14.34,185,2004,7904,-1,-1,0
-19.39,1.44,14.34,186,2005,7900,0,-1,-1
-19.38,1.44,14.35,181,2017,7894,0,-1,-1
-19.39,1.44,14.35,190,2029,7893,-1,-1,0
-19.39,1.44,14.35,188,2030,7912,-1,-1,0
-19.40,1.44,14.35,190,2023,7905,-1,-1,0
-19.40,1.44,14.35,191,2021,7896,0,-1,-1
-19.40,1.44,14.35,187,2012,7892,0,-1,0
-19.40,1.45,14.35,192,2016,7888,0,-1,0
-19.40,1.45,14.35,194,2023,7883,-1,-1,0
-19.40,1.45,14.35,192,2020,7890,0,-1,0
-19.40,1.45,14.35,199,2019,7894,0,-1,0
-19.40,1.45,14.36,192,2027,7900,0,-1,0
-19.40,1.46,14.35,189,2022,7904,-1,-1,0
-19.41,1.46,14.35,184,2016,7899,-1,-1,0
-19.41,1.46,14.35,182,2022,7906,0,-1,0
-19.41,1.46,14.35,191,2017,7905,0,-1,0
-19.41,1.47,14.35,201,2031,7898,-1,0,0
-19.41,1.47,14.35,194,2024,7906,-1,0,0
-19.41,1.46,14.33,192,1991,7906,0,-1,-1
-19.41,1.47,14.34,179,2002,7903,0,-1,-1
-19.41,1.47,14.35,179,2022,7908,0,-1,0
-19.41,1.47,14.35,185,2036,7899,-1,-1,0
-19.41,1.47,14.35,190,2035,7899,-1,-1,0
-19.42,1.47,14.35,185,2037,7888,-1,-1,0
-19.42,1.47,14.35,182,2023,7894,-1,0,0
-19.42,1.47,14.34,184,2006,7905,-1,-1,-1
-19.42,1.47,14.34,187,2003,7911,0,-1,-1
-19.42,1.47,14.34,190,2010,7925,0,-1,0
-19.42,1.47,14.35,190,2020,7915,0,-1,0
-19.42,1.47,14.34,197,2018,7903,0,-1,0
-19.42,1.48,14.35,201,2025,7894,-1,-1,0
-19.42,1.47,14.34,200,2022,7902,-1,-1,-1
-19.42,1.47,14.34,203,2013,7904,-1,0,-1
-19.42,1.47,14.34,194,2009,7900,-1,-1,0
-19.42,1.47,14.34,186,2008,7899,0,-1,-1
-19.42,1.47,14.34,190,2014,7898,0,-1,0
-19.43,1.47,14.34,191,2015,7902,0,-1,0
-19.42,1.48,14.34,191,2023,7903,-1,-1,0
-19.43,1.48,14.34,196,2026,7908,-1,-1,0
-19.43,1.48,14.34,195,2030,7903,-1,-1,0
-19.43,1.48,14.34,191,2031,7901,-1,-1,-1
-19.43,1.47,14.34,188,2020,7906,-1,-1,0
-19.43,1.47,14.34,179,2005,7905,0,-1,0
-19.43,1.47,14.33,190,2000,7905,0,-1,-1
-19.43,1.48,14.34,188,1998,7899,0,-1,0
-19.43,1.48,14.34,191,2016,7905,0,-1,-1
-19.44,1.48,14.34,192,2030,7901,0,-1,-1
-19.44,1.48,14.34,205,2046,7899,-1,0,0
-19.44,1.48,14.34,185,2014,7911,-1,0,0
-19.44,1.48,14.32,188,1996,7908,0,-1,-1
-19.43,1.48,14.34,180,2005,7911,0,-1,-1
-19.43,1.48,14.34,180,2024,7902,0,-1,0
-19.44,1.48,14.34,187,2032,7901,-1,-1,0
-19.44,1.48,14.35,194,2040,7902,-1,0,0
-19.44,1.48,14.34,191,2030,7904,-1,-1,-1
-19.44,1.48,14.34,195,2019,7905,-1,0,0
-19.43,1.47,14.34,188,2014,7918,0,-1,-1
-19.43,1.48,14.34,186,2023,7917,0,-1,-1
-19.43,1.48,14.34,189,2015,7907,-1,-1,-1
-19.43,1.47,14.34,190,2020,7905,-1,0,-1
-19.43,1.47,14.34,201,2025,7898,-1,-1,-1
-19.42,1.47,14.34,197,2025,7896,-1,-1,-1
-19.42,1.47,14.34,194,2026,7904,-1,0,-1
-19.42,1.47,14.33,191,2016,7900,-1,0,-1
-19.42,1.46,14.33,189,2013,7898,0,0,-1
-19.42,1.45,14.34,185,2029,7898,0,0,-1
-19.41,1.45,14.35,194,2046,7895,-1,-1,-1
-19.41,1.45,14.35,192,2047,7895,-1,0,-1
-19.40,1.44,14.35,193,2037,7897,-1,0,-1
-19.39,1.43,14.35,183,2032,7904,-1,0,-1
-19.38,1.42,14.35,181,2022,7902,-1,-1,-1
-19.39,1.43,14.34,196,1999,7912,-1,0,-1
-19.38,1.41,14.34,178,2001,7896,0,0,-1
-19.37,1.41,14.35,189,2027,7905,0,0,-1
-19.36,1.41,14.36,181,2038,7884,-1,-1,-1
-19.36,1.40,14.36,198,2050,7882,-1,0,-1
-19.35,1.38,14.35,181,2032,7905,-1,0,-1
-19.33,1.38,14.35,178,2009,7886,0,-1,-1
-19.32,1.37,14.35,187,2015,7902,0,0,-1
-19.31,1.36,14.36,165,2044,7898,-1,0,-1
-19.30,1.36,14.37,179,2021,7888,0,-1,-1
-19.30,1.35,14.37,188,2022,7896,0,0,-1
-19.29,1.34,14.37,185,2028,7900,-1,0,-1
-19.29,1.33,14.37,165,2018,7888,0,0,-1
-19.28,1.33,14.37,196,2025,7896,-1,0,-1
-19.28,1.31,14.36,152,2029,7904,-1,-1,-1
-19.27,1.32,14.36,181,2013,7897,-1,-1,-1
-19.27,1.31,14.36,174,2033,7915,-1,0,-1
-19.26,1.31,14.35,164,2019,7900,-1,-1,-1
-19.27,1.31,14.33,166,1998,7901,-1,-1,0
-19.28,1.31,14.33,180,2009,7909,-1,0,0
-19.28,1.31,14.33,168,2022,7908,0,0,-1
-19.27,1.31,14.33,183,2032,7914,-1,-1,-1
-19.27,1.31,14.33,169,2029,7900,-1,0,-1
-19.26,1.31,14.33,173,2022,7908,0,-1,-1
-19.25,1.30,14.33,179,2021,7905,0,0,-1
-19.25,1.29,14.34,177,2045,7899,-1,0,-1
-19.24,1.28,14.34,175,2030,7888,-1,-1,-1
-19.23,1.28,14.32,186,1998,7893,0,0,-1
-19.22,1.27,14.33,162,2016,7896,0,0,-1
-19.22,1.26,14.33,148,2020,7880,-1,-1,-1
-19.21,1.25,14.34,182,2034,7895,0,0,-1
-19.20,1.25,14.33,139,2020,7912,-1,-1,0
-19.20,1.26,14.33,193,2028,7916,-1,0,-1
-19.20,1.25,14.31,164,1984,7879,-1,0,-1
-19.20,1.23,14.33,178,2020,7888,0,0,-1
-19.18,1.21,14.32,160,2009,7901,-1,-1,-1
-19.18,1.20,14.32,140,2019,7894,0,0,-1
-19.18,1.19,14.33,139,2010,7902,0,-1,0
-19.18,1.19,14.33,164,2024,7905,-1,0,-1
-19.17,1.18,14.33,161,2024,7886,0,0,-1
-19.17,1.18,14.34,143,2037,7910,-1,-1,0
-19.16,1.18,14.34,138,2034,7904,-1,-1,-1
-19.17,1.18,14.32,152,2002,7904,-1,0,0
-19.17,1.17,14.32,146,2016,7927,0,-1,-1
-19.17,1.18,14.32,147,2010,7899,0,-1,0
-19.17,1.18,14.32,159,1979,7899,0,0,0
-19.17,1.18,14.33,152,2011,7911,0,-1,0
-19.18,1.18,14.34,157,2015,7893,0,-1,0
-19.18,1.18,14.33,168,2027,7897,-1,0,0
-19.19,1.18,14.31,145,2004,7891,-1,-1,0
-19.20,1.20,14.30,151,1983,7894,0,-1,0
-19.19,1.20,14.32,151,2012,7902,0,-1,-1
-19.19,1.21,14.32,143,2027,7903,-1,-1,0
-19.20,1.23,14.32,144,2025,7900,-1,-1,0
-19.21,1.24,14.32,146,2020,7905,-1,-1,0
-19.22,1.25,14.32,158,2027,7909,-1,-1,0
-19.23,1.26,14.32,171,2026,7906,-1,-1,0
-19.23,1.26,14.31,166,2017,7905,-1,-1,0
-19.24,1.27,14.31,161,2016,7908,0,-1,0
-19.24,1.27,14.31,165,2008,7906,0,-1,0
-19.25,1.28,14.31,160,2010,7901,0,-1,0
-19.26,1.29,14.31,168,2011,7909,0,-1,0
-19.26,1.30,14.32,174,2008,7904,0,-1,0
-19.26,1.30,14.32,182,2014,7899,0,-1,0
-19.26,1.30,14.32,173,2015,7905,0,-1,0
-19.27,1.31,14.32,173,2014,7909,0,-1,0
-19.27,1.31,14.32,174,2014,7906,0,-1,0
-19.28,1.31,14.33,168,2016,7916,0,-1,0
-19.28,1.32,14.34,172,2025,7907,0,-1,0
-19.28,1.32,14.34,169,2035,7895,0,-1,0
-19.29,1.32,14.34,167,2032,7895,-1,-1,0
-19.29,1.32,14.34,169,2025,7897,0,-1,0
-19.30,1.33,14.34,170,2015,7897,-1,-1,0
-19.30,1.33,14.35,167,2013,7890,0,-1,0
-19.31,1.34,14.35,172,2010,7895,0,-1,0
-19.31,1.34,14.35,169,2019,7902,-1,-1,0
-19.31,1.34,14.35,185,2034,7891,-1,0,0
-19.33,1.34,14.34,177,2008,7917,-1,-1,0
-19.33,1.34,14.33,170,1995,7923,0,-1,0
-19.33,1.34,14.34,166,2020,7913,0,-1,0
-19.34,1.35,14.35,171,2030,7900,0,-1,0
-19.34,1.36,14.35,180,2033,7900,-1,0,0
-19.34,1.35,14.35,179,2033,7894,-1,0,0
-19.34,1.35,14.35,168,2027,7902,-1,-1,0
-19.35,1.36,14.34,178,2002,7905,0,0,0
-19.35,1.35,14.34,174,1998,7910,0,0,0
-19.36,1.35,14.35,165,2013,7904,0,-1,0
-19.36,1.36,14.35,170,2013,7894,0,-1,0
-19.36,1.36,14.36,184,2023,7902,0,0,0
-19.36,1.36,14.36,176,2036,7898,0,-1,0
-19.36,1.36,14.36,185,2022,7907,-1,0,0
-19.36,1.36,14.35,175,2014,7897,-1,-1,0
-19.37,1.36,14.34,188,2004,7903,-1,0,0
-19.38,1.36,14.34,179,2004,7904,-1,-1,0
-19.39,1.36,14.33,181,2008,7903,-1,-1,0
-19.39,1.37,14.33,180,2014,7901,-1,-1,0
-19.40,1.38,14.33,187,2019,7902,-1,-1,0
-19.40,1.38,14.33,192,2026,7904,-1,-1,0
-19.40,1.39,14.33,188,2028,7903,-1,-1,0
-19.41,1.39,14.33,183,2025,7910,-1,-1,0
-19.42,1.39,14.32,178,2011,7912,-1,-1,0
-19.43,1.40,14.31,174,2006,7917,-1,-1,0
-19.43,1.41,14.32,176,2000,7909,0,-1,0
-19.43,1.41,14.33,187,2011,7902,0,-1,0
-19.44,1.41,14.33,186,2025,7895,-1,-1,0
-19.45,1.42,14.31,183,2004,7903,-1,-1,0
-19.45,1.42,14.31,183,1997,7904,0,-1,-1
-19.45,1.42,14.32,180,2015,7899,0,-1,0
-19.45,1.43,14.32,188,2018,7906,-1,-1,0
-19.46,1.43,14.32,191,2019,7912,0,-1,0
-19.46,1.43,14.32,189,2019,7914,-1,-1,0
-19.47,1.44,14.32,193,2016,7906,-1,-1,0
-19.47,1.44,14.32,202,2009,7899,0,0,0
-19.48,1.44,14.32,203,2017,7908,0,-1,0
-19.48,1.44,14.32,195,2017,7906,-1,-1,0
-19.48,1.44,14.32,195,2018,7910,0,-1,0
-19.49,1.45,14.32,191,2011,7905,0,-1,0
-19.50,1.45,14.32,193,2014,7905,-1,-1,0
-19.50,1.46,14.32,197,2010,7892,-1,-1,0
-19.50,1.46,14.32,201,2012,7903,-1,-1,0
-19.50,1.47,14.32,202,2016,7914,-1,-1,0
-19.51,1.47,14.31,197,2006,7916,-1,-1,0
-19.52,1.47,14.31,191,2008,7926,0,-1,0
-19.52,1.47,14.32,192,2009,7906,0,-1,0
-19.52,1.47,14.32,197,2017,7903,0,-1,0
-19.52,1.47,14.32,202,2023,7886,-1,-1,0
-19.52,1.47,14.32,196,2027,7895,-1,-1,0
-19.53,1.47,14.32,186,2022,7897,-1,-1,0
-19.54,1.47,14.32,194,2011,7907,-1,-1,0
-19.55,1.47,14.32,196,2002,7905,0,-1,0
-19.55,1.48,14.32,197,2002,7898,0,-1,0
-19.55,1.48,14.33,203,1995,7894,0,-1,0
-19.56,1.48,14.34,199,2001,7886,0,0,0
-19.56,1.48,14.35,200,2013,7894,0,-1,0
-19.57,1.49,14.34,200,2021,7905,0,-1,0
-19.57,1.48,14.34,206,2028,7911,-1,0,0
-19.58,1.48,14.34,195,2011,7922,-1,0,0
-19.58,1.48,14.33,197,1993,7908,0,-1,0
-19.58,1.48,14.34,189,2007,7908,0,-1,0
-19.58,1.48,14.35,199,2027,7903,0,-1,0
-19.59,1.49,14.35,209,2031,7903,0,-1,0
-19.59,1.49,14.35,215,2028,7900,-1,0,0
-19.60,1.49,14.35,214,2030,7895,-1,0,-1
-19.59,1.48,14.35,208,2026,7894,-1,0,0
-19.60,1.48,14.34,195,2017,7897,-1,0,0
-19.60,1.48,14.34,198,2014,7904,-1,-1,-1
-19.59,1.48,14.34,199,2000,7905,0,-1,0
-19.60,1.48,14.34,196,2011,7916,0,0,0
-19.60,1.48,14.34,204,2014,7915,0,-1,0
-19.60,1.48,14.34,208,2017,7910,-1,0,-1
-19.59,1.48,14.35,204,2021,7918,-1,0,-1
-19.58,1.47,14.34,196,2018,7915,-1,0,-1
-19.58,1.46,14.34,191,2018,7896,-1,0,-1
-19.58,1.45,14.34,192,2019,7896,0,0,-1
-19.57,1.44,14.35,197,2025,7898,0,0,-1
-19.57,1.43,14.36,177,2028,7886,0,0,-1
-19.54,1.42,14.38,195,2033,7896,0,0,-1
-19.54,1.41,14.39,178,2021,7903,0,0,-1
-19.53,1.40,14.38,182,2008,7916,0,0,-1
-19.52,1.39,14.40,214,2028,7918,0,0,-1
-19.50,1.36,14.40,162,2037,7915,-1,0,-1
-19.49,1.36,14.40,166,2022,7877,0,-1,-1
-19.49,1.37,14.41,197,2007,7926,0,0,-1
-19.49,1.36,14.41,162,2027,7887,0,0,-1
-19.48,1.36,14.41,184,2035,7900,-1,-1,-1
-19.49,1.37,14.38,191,1965,7892,-1,-1,0
-19.48,1.37,14.39,184,2035,7908,-1,0,-1
-19.48,1.37,14.38,161,2020,7897,0,-1,-1
-19.49,1.38,14.36,160,2013,7872,-1,-2,0
-19.50,1.38,14.35,228,1984,7916,0,1,-1
-19.49,1.36,14.35,163,2034,7898,-1,-1,0
-19.49,1.37,14.35,203,2002,7890,0,0,0
-19.50,1.35,14.33,179,2014,7872,-1,0,0
-19.50,1.36,14.33,180,2010,7899,0,-1,-1
-19.50,1.34,14.32,163,2012,7892,-1,0,-1
-19.51,1.35,14.30,182,1989,7878,-1,0,0
-19.51,1.33,14.28,169,1938,7865,0,0,-1
-19.50,1.31,14.31,170,1975,7901,0,0,-1
-19.49,1.31,14.33,162,2011,7893,0,-1,-1
-19.48,1.31,14.35,146,2075,7883,-1,-1,-1
-19.49,1.32,14.34,181,2048,7888,-1,0,0
-19.49,1.31,14.32,199,2038,7907,-1,0,-1
-19.49,1.29,14.31,168,1991,7904,-1,0,-1
-19.48,1.27,14.30,151,1981,7910,0,-1,-1
-19.48,1.27,14.30,158,1980,7913,0,-1,-1
-19.47,1.27,14.32,159,2006,7906,0,0,-1
-19.47,1.26,14.32,163,2034,7896,-1,0,0
-19.47,1.25,14.31,183,2009,7918,-1,0,-1
-19.47,1.24,14.30,145,2011,7931,0,0,-1
-19.46,1.24,14.31,142,2013,7904,0,-1,-1
-19.45,1.24,14.31,170,2009,7917,-1,-1,-1
-19.44,1.23,14.31,168,2033,7913,0,0,-1
-19.44,1.22,14.30,156,2008,7884,-1,0,0
-19.44,1.22,14.29,186,1981,7911,-1,0,0
-19.45,1.20,14.27,154,1967,7917,0,0,0
-19.45,1.20,14.29,165,1970,7914,0,0,-1
-19.43,1.18,14.31,152,2030,7914,0,0,-1
-19.42,1.18,14.31,139,2055,7889,-1,-1,-1
-19.43,1.18,14.30,156,2020,7890,-1,0,0
-19.43,1.17,14.28,158,1997,7911,-1,0,-1
-19.42,1.16,14.28,150,1995,7907,0,0,-1
-19.42,1.15,14.29,148,1997,7901,0,0,-1
-19.41,1.14,14.29,144,1996,7897,0,0,-1
-19.41,1.14,14.29,136,2009,7890,-1,0,0
-19.42,1.14,14.28,141,2010,7902,-1,0,0
-19.43,1.14,14.27,134,1997,7904,-1,-1,0
-19.42,1.14,14.27,136,1997,7914,0,-1,0
-19.43,1.15,14.27,146,2001,7917,0,-1,0
-19.43,1.16,14.27,155,2006,7906,-1,-1,0
-19.44,1.16,14.26,153,1990,7899,-1,-1,0
-19.44,1.17,14.25,163,1980,7909,0,0,-1
-19.44,1.17,14.26,147,1990,7906,0,-1,-1
-19.44,1.17,14.28,139,2000,7911,0,-1,0
-19.44,1.18,14.28,148,2013,7912,0,-1,0
-19.44,1.18,14.29,152,2021,7911,0,-1,0
-19.44,1.18,14.30,144,2022,7903,0,-1,0
-19.44,1.19,14.30,159,2014,7895,0,-1,0
-19.44,1.19,14.30,152,2001,7906,0,-1,0
-19.45,1.20,14.30,161,1997,7894,0,-1,0
-19.45,1.20,14.31,160,2003,7906,0,-1,0
-19.45,1.21,14.31,157,2014,7911,0,-1,0
-19.46,1.21,14.31,159,2016,7910,0,-1,0
-19.46,1.22,14.31,163,2010,7898,-1,-1,0
-19.46,1.23,14.32,163,2014,7903,0,-1,0
-19.46,1.23,14.32,158,2004,7914,0,-1,0
-19.47,1.24,14.31,162,2011,7922,-1,-1,0
-19.47,1.25,14.31,161,2007,7907,0,-1,0
-19.48,1.25,14.31,153,2004,7902,0,-1,0
-19.48,1.26,14.32,156,2003,7891,0,-1,0
-19.49,1.26,14.32,166,2014,7894,0,-1,0
-19.50,1.27,14.32,168,2008,7898,-1,-1,0
-19.50,1.28,14.32,166,2007,7909,-1,-1,0
-19.50,1.28,14.32,162,2012,7907,0,-1,0
-19.50,1.28,14.32,162,2015,7912,-1,-1,0
-19.50,1.29,14.32,162,2010,7914,0,-1,0
-19.51,1.29,14.32,162,2005,7909,0,-1,0
-19.51,1.30,14.33,164,2019,7905,0,-1,0
-19.52,1.30,14.33,173,2022,7894,-1,-1,0
-19.53,1.31,14.32,170,2005,7905,-1,-1,0
-19.54,1.31,14.32,168,1995,7910,-1,-1,0
-19.54,1.32,14.32,161,2006,7900,0,-1,0
-19.54,1.33,14.32,160,2021,7901,-1,-1,0
-19.55,1.33,14.32,166,2015,7900,-1,-1,0
-19.55,1.34,14.32,177,2014,7901,-1,-1,0
-19.56,1.35,14.32,187,2011,7905,-1,-1,0
-19.57,1.35,14.32,189,2013,7899,-1,-1,0
-19.57,1.35,14.32,193,2013,7895,0,0,0
-19.57,1.35,14.32,177,2020,7908,0,-1,0
-19.58,1.35,14.32,172,2008,7915,0,-1,0
-19.58,1.36,14.32,163,2008,7910,0,-1,0
-19.58,1.37,14.32,176,2003,7904,0,-1,0
-19.59,1.37,14.31,180,2009,7891,0,-1,0
-19.59,1.37,14.31,182,2008,7894,0,-1,0
-19.60,1.38,14.31,183,2010,7898,0,-1,0
-19.60,1.38,14.31,188,2005,7904,-1,-1,0
-19.61,1.39,14.31,183,2004,7908,0,-1,0
-19.61,1.39,14.31,184,2002,7901,0,-1,0
-19.62,1.40,14.32,185,2009,7901,0,-1,0
-19.62,1.40,14.32,189,2021,7895,-1,-1,0
-19.62,1.41,14.32,191,2026,7897,0,-1,0
-19.62,1.40,14.32,189,2025,7906,-1,-1,0
-19.63,1.41,14.31,185,2017,7897,-1,-1,0
-19.63,1.41,14.30,178,1999,7894,-1,-1,0
-19.64,1.41,14.31,185,2007,7915,0,-1,-1
-19.64,1.41,14.31,189,2011,7910,-1,-1,0
-19.64,1.41,14.31,185,2007,7901,-1,0,0
-19.64,1.42,14.30,181,1994,7901,-1,-1,0
-19.65,1.43,14.30,190,2005,7893,0,-1,0
-19.65,1.44,14.31,195,2019,7891,0,-1,0
-19.66,1.44,14.31,194,2018,7896,-1,-1,0
-19.66,1.44,14.31,185,2021,7908,-1,-1,0
-19.67,1.44,14.30,196,2008,7920,-1,0,0
-19.67,1.44,14.30,184,2000,7919,0,-1,0
-19.68,1.45,14.30,195,1994,7915,0,-1,0
-19.68,1.45,14.30,194,1994,7898,0,-1,0
-19.68,1.46,14.31,207,1997,7890,0,0,0
-19.68,1.45,14.31,198,2012,7890,0,0,-1
-19.68,1.45,14.31,197,2016,7904,-1,0,0
-19.68,1.44,14.30,186,2011,7910,-1,0,0
-19.68,1.44,14.30,176,2008,7910,0,-1,0
-19.69,1.45,14.30,175,1999,7902,0,-1,0
-19.70,1.45,14.30,183,2005,7897,0,-1,0
-19.70,1.45,14.31,186,2014,7897,0,-1,0
-19.71,1.46,14.31,190,2019,7890,0,-1,0
-19.71,1.46,14.31,198,2019,7890,-1,-1,0
-19.71,1.47,14.31,206,2012,7890,0,-1,0
-19.72,1.47,14.31,194,2012,7903,-1,-1,0
-19.72,1.48,14.30,194,2007,7910,-1,-1,0
-19.73,1.49,14.30,193,2001,7907,-1,-1,0
-19.73,1.49,14.30,194,1999,7910,0,-1,0
-19.74,1.49,14.30,202,2006,7910,-1,-1,0
-19.74,1.50,14.31,201,2010,7899,0,-1,0
-19.74,1.50,14.31,193,2014,7901,-1,-1,0
-19.75,1.50,14.31,199,2022,7916,0,-1,0
-19.75,1.50,14.31,210,2021,7910,0,-1,0
-19.76,1.50,14.31,199,2020,7917,-1,-1,0
-19.76,1.50,14.30,192,1999,7913,-1,-1,0
-19.76,1.50,14.31,193,1996,7909,0,-1,0
-19.76,1.51,14.31,198,2009,7906,0,-1,0
-19.77,1.52,14.32,200,2020,7905,-1,-1,0
-19.78,1.52,14.32,206,2013,7902,-1,0,0
-19.79,1.52,14.32,195,2015,7902,0,-1,0
-19.79,1.52,14.32,202,2011,7908,-1,-1,0
-19.79,1.53,14.32,213,2003,7898,0,-1,0
-19.80,1.53,14.32,205,2004,7900,0,0,0
-19.80,1.53,14.32,203,2003,7896,0,0,0
-19.81,1.53,14.32,201,2000,7894,0,-1,0
-19.81,1.53,14.32,203,2010,7901,-1,-1,0
-19.82,1.53,14.32,211,2011,7908,0,-1,0
-19.82,1.53,14.32,206,2010,7909,0,-1,0
-19.82,1.53,14.32,208,2010,7903,0,-1,0
-19.82,1.53,14.32,202,2012,7908,0,-1,0
-19.82,1.53,14.32,195,2011,7905,-1,0,0
-19.82,1.53,14.32,202,2006,7904,0,-1,0
-19.83,1.53,14.32,209,2019,7905,0,0,0
-19.83,1.54,14.32,204,2022,7895,-1,-1,0
-19.83,1.54,14.32,206,2020,7899,-1,-1,0
-19.84,1.54,14.32,206,2015,7899,-1,-1,0
-19.84,1.54,14.32,202,2009,7901,-1,0,-1
-19.84,1.54,14.31,204,2002,7905,-1,-1,0
-19.84,1.54,14.31,205,1998,7918,0,-1,0
-19.84,1.54,14.32,211,2000,7914,0,-1,0
-19.84,1.54,14.32,208,1999,7899,0,-1,0
-19.84,1.54,14.33,210,2008,7896,0,-1,-1
-19.84,1.54,14.33,215,2015,7891,0,-1,-1
-19.83,1.53,14.33,217,2031,7890,-1,0,-1
-19.83,1.52,14.32,201,2016,7900,-1,0,-1
-19.83,1.52,14.32,204,1998,7904,0,0,-1
-19.83,1.52,14.33,196,2015,7896,0,0,-1
-19.82,1.51,14.33,187,2027,7905,0,-1,-1
-19.82,1.51,14.33,196,2025,7903,0,0,-1
-19.81,1.50,14.34,204,2031,7902,0,0,-1
-19.81,1.49,14.35,211,2018,7903,0,0,-1
-19.80,1.47,14.35,211,2006,7896,0,0,-1
-19.78,1.46,14.36,208,2011,7914,0,0,-1
-19.77,1.44,14.35,181,2010,7921,0,0,-1
-19.76,1.44,14.35,192,1997,7919,-1,0,-1
-19.76,1.43,14.35,191,1977,7919,0,0,-1
-19.75,1.42,14.36,188,1997,7900,0,0,-1
-19.74,1.41,14.37,212,2006,7910,-1,0,-1
-19.74,1.39,14.36,192,2004,7892,0,0,-1
-19.74,1.40,14.38,200,2016,7901,0,0,-1
-19.73,1.38,14.38,179,2030,7916,-1,0,-1
-19.74,1.38,14.37,184,2001,7899,0,-1,0
-19.73,1.37,14.37,187,2021,7894,0,0,-1
-19.73,1.37,14.38,188,2016,7901,0,0,-1
-19.73,1.35,14.38,185,2039,7911,-1,0,-1
-19.73,1.35,14.38,179,2018,7902,-1,0,0
-19.73,1.35,14.37,181,2004,7893,-1,0,-1
-19.73,1.34,14.37,172,2002,7895,0,0,-1
-19.72,1.34,14.39,185,2035,7897,-1,0,-1
-19.72,1.32,14.37,171,2024,7899,-1,0,0
-19.72,1.33,14.37,188,1982,7906,0,0,-1
-19.71,1.31,14.37,169,2031,7905,-1,0,-1
-19.71,1.31,14.36,155,2005,7888,0,-1,0
-19.71,1.31,14.37,178,2024,7891,0,0,-1
-19.71,1.31,14.38,163,2029,7893,0,-1,-1
-19.71,1.30,14.38,172,2042,7897,-1,0,-1
-19.71,1.30,14.37,172,2029,7917,-1,0,-1
-19.70,1.29,14.36,179,2004,7907,0,0,-1
-19.70,1.28,14.37,179,2027,7915,-1,0,-1
-19.70,1.28,14.36,154,2004,7903,-1,-1,0
-19.70,1.29,14.36,178,2006,7914,0,0,-1
-19.69,1.28,14.37,146,2049,7943,-1,-1,-1
-19.70,1.30,14.36,171,2031,7904,-1,-1,0
-19.71,1.29,14.32,159,2005,7933,-2,-1,0
-19.72,1.31,14.31,176,2029,7925,-1,0,0
-19.74,1.32,14.28,161,1980,7899,-1,-1,1
-19.75,1.31,14.28,185,2007,7904,0,-1,0
-19.76,1.32,14.26,173,1964,7909,-1,0,-1
-19.77,1.30,14.26,172,1973,7890,0,0,0
-19.77,1.30,14.27,188,1953,7833,1,0,-1
-19.75,1.26,14.30,185,2038,7857,0,0,-1
-19.75,1.23,14.30,173,1991,7839,0,0,-1
-19.74,1.21,14.32,168,2017,7900,0,0,-1
-19.73,1.20,14.32,114,2036,7893,-1,-1,0
-19.73,1.22,14.32,144,2028,7895,-1,-1,0
-19.74,1.23,14.32,150,2044,7924,-1,-1,0
-19.74,1.25,14.29,154,2031,7903,-1,-1,0
-19.75,1.26,14.28,167,1993,7907,-1,-1,0
-19.76,1.26,14.27,170,1983,7929,0,-1,0
-19.76,1.27,14.28,166,1981,7908,0,-1,0
-19.76,1.27,14.29,169,1996,7890,0,-1,0
-19.76,1.27,14.30,171,2009,7897,0,-1,0
-19.76,1.27,14.30,162,2025,7905,0,0,-1
-19.76,1.27,14.30,157,2019,7907,-1,-1,0
-19.77,1.27,14.29,155,2001,7916,-1,-1,0
-19.77,1.27,14.29,160,1995,7921,0,-1,0
-19.77,1.28,14.30,165,1990,7898,0,-1,0
-19.78,1.29,14.30,169,1996,7882,0,-1,0
-19.78,1.28,14.31,170,2010,7894,0,0,0
-19.78,1.29,14.31,165,2019,7910,-1,0,0
-19.78,1.29,14.31,167,2009,7914,0,-1,0
-19.78,1.29,14.31,157,2016,7919,0,-1,0
-19.78,1.29,14.32,163,2019,7918,0,-1,0
-19.79,1.30,14.32,172,2015,7906,0,-1,0
-19.80,1.30,14.32,175,2008,7903,0,-1,0
-19.80,1.30,14.32,172,2002,7904,0,-1,0
-19.81,1.31,14.32,175,2002,7902,0,-1,0
-19.81,1.31,14.33,172,2006,7903,0,-1,0
-19.81,1.31,14.33,172,2009,7906,-1,-1,0
-19.81,1.31,14.33,167,2003,7902,-1,-1,0
-19.82,1.32,14.32,172,1988,7913,-1,-1,0
-19.82,1.33,14.32,169,2001,7911,0,-1,0
-19.83,1.34,14.32,175,2010,7907,-1,-1,0
-19.83,1.34,14.32,179,2017,7908,-1,-1,0
-19.84,1.34,14.32,182,2022,7911,-1,-1,0
-19.85,1.35,14.32,178,2017,7905,-1,-1,0
-19.85,1.36,14.32,181,2008,7904,0,-1,0
-19.85,1.36,14.32,183,2002,7892,0,-1,0
-19.85,1.36,14.32,163,2008,7898,0,-1,0
-19.85,1.36,14.32,177,2010,7898,-1,-1,0
-19.86,1.37,14.31,175,2006,7906,-1,-1,0
-19.86,1.37,14.31,182,2007,7907,0,-1,0
-19.87,1.37,14.31,183,2004,7898,-1,-1,0
-19.87,1.37,14.31,186,2005,7895,-1,-1,0
-19.87,1.37,14.32,185,2017,7899,0,0,-1
-19.87,1.37,14.32,180,2034,7899,-1,-1,-1
-19.87,1.37,14.31,180,2013,7901,-1,-1,0
-19.87,1.37,14.30,178,2003,7901,-1,0,0
-19.87,1.37,14.30,173,1999,7897,0,-1,-1
-19.88,1.37,14.30,175,1989,7902,-1,-1,0
-19.88,1.38,14.29,189,1986,7898,0,-1,0
-19.88,1.37,14.31,183,2007,7903,0,0,-1
-19.88,1.38,14.31,185,2032,7893,-1,-1,-1
-19.88,1.38,14.31,197,2030,7897,-1,0,0
-19.88,1.38,14.30,189,2012,7900,-1,0,0
-19.88,1.38,14.29,187,2007,7920,-1,-1,-1
-19.88,1.38,14.29,181,2006,7912,0,-1,0
-19.89,1.39,14.29,183,2005,7907,0,-1,0
-19.89,1.39,14.30,182,2019,7913,0,-1,0
-19.89,1.40,14.30,187,2028,7910,-1,-1,0
-19.90,1.40,14.30,191,2025,7897,-1,-1,0
-19.90,1.41,14.30,195,2017,7910,-1,-1,0
-19.90,1.41,14.29,193,2002,7906,-1,-1,0
-19.91,1.41,14.28,180,1994,7912,-1,-1,0
-19.91,1.41,14.27,187,1982,7910,-1,-1,0
-19.91,1.41,14.27,185,1990,7911,0,-1,0
-19.91,1.41,14.28,186,2000,7906,0,-1,0
-19.92,1.42,14.29,200,2008,7898,0,-1,0
-19.92,1.42,14.29,200,2018,7913,-1,-1,0
-19.92,1.43,14.28,192,2017,7909,-1,-1,0
-19.92,1.43,14.28,195,2000,7906,-1,-1,0
-19.92,1.43,14.27,189,1994,7903,0,-1,0
-19.92,1.43,14.28,189,2003,7902,0,-1,0
-19.92,1.44,14.28,191,2011,7901,0,-1,0
-19.93,1.44,14.28,201,2009,7897,0,-1,0
-19.93,1.44,14.28,198,2013,7899,0,-1,0
-19.93,1.44,14.28,197,2017,7907,0,-1,0
-19.93,1.44,14.28,198,2013,7899,-1,-1,0
-19.93,1.44,14.28,198,2005,7908,0,-1,0
-19.93,1.45,14.28,199,2003,7904,0,-1,0
-19.93,1.45,14.28,194,2007,7896,0,-1,0
-19.93,1.45,14.29,195,2004,7888,0,-1,-1
-19.93,1.45,14.29,204,2021,7895,-1,-1,0
-19.93,1.45,14.28,203,2018,7900,-1,0,0
-19.94,1.45,14.27,204,1987,7921,-1,0,0
-19.94,1.45,14.26,198,1980,7919,0,-1,-1
-19.94,1.46,14.27,192,1990,7912,0,-1,-1
-19.94,1.46,14.27,195,2008,7904,0,-1,0
-19.94,1.47,14.27,206,2014,7897,-1,-1,0
-19.95,1.47,14.26,209,2017,7901,-1,-1,0
-19.95,1.47,14.26,206,2012,7906,-1,-1,0
-19.96,1.48,14.25,204,1994,7902,-1,-1,0
-19.96,1.48,14.25,205,1984,7894,0,-1,0
-19.96,1.48,14.24,200,1986,7905,0,-1,0
-19.97,1.49,14.25,205,1986,7903,0,-1,0
-19.97,1.49,14.25,213,2004,7904,0,-1,0
-19.97,1.49,14.25,206,2008,7894,-1,-1,0
-19.97,1.49,14.25,219,2015,7900,-1,0,0
-19.97,1.48,14.25,238,2009,7867,-1,0,-1
-19.96,1.44,14.24,203,1977,7896,0,1,-1
-19.97,1.42,14.24,183,1991,7934,0,0,0
-19.96,1.42,14.24,197,2000,7915,0,0,-1
-19.96,1.42,14.25,193,2014,7904,0,0,-1
-19.96,1.41,14.25,186,2024,7916,-1,-1,0
-19.96,1.41,14.25,191,2011,7909,-1,-1,0
-19.97,1.42,14.24,201,2003,7890,-1,0,0
-19.97,1.42,14.24,202,1998,7900,-1,0,0
-19.97,1.41,14.23,187,2006,7918,-1,-1,0
-19.97,1.41,14.23,192,1998,7914,0,-1,0
-19.97,1.42,14.23,200,1999,7905,0,-1,0
-19.97,1.42,14.23,193,1992,7897,-1,0,0
-19.98,1.42,14.23,196,1981,7900,-1,0,0
-19.98,1.42,14.23,195,1991,7901,0,-1,0
-19.97,1.42,14.24,197,2000,7913,0,-1,-1
-19.97,1.43,14.24,201,2016,7911,0,-1,-1
-19.97,1.43,14.24,198,2016,7925,-1,-1,0
-19.97,1.43,14.24,197,2004,7913,0,-1,0
-19.98,1.43,14.25,202,2004,7912,0,-1,0
-19.98,1.44,14.25,203,2002,7906,0,-1,-1
-19.98,1.44,14.26,205,2012,7908,0,0,0
-19.98,1.44,14.26,207,2012,7911,-1,0,-1
-19.98,1.44,14.25,209,2001,7907,0,-1,-1
-19.98,1.44,14.26,206,2001,7901,0,-1,0
-19.98,1.44,14.26,201,1996,7904,0,-1,0
-19.98,1.45,14.25,204,1999,7904,0,-1,-1
-19.98,1.45,14.25,198,1996,7905,0,0,-1
-19.98,1.44,14.26,193,2010,7906,0,0,-1
-19.97,1.44,14.26,196,2005,7905,-1,0,-1
-19.97,1.44,14.26,199,2003,7905,0,0,-1
-19.97,1.43,14.26,199,1998,7902,0,0,-1
-19.96,1.43,14.26,196,2000,7903,-1,0,-1
-19.96,1.42,14.26,200,1999,7904,0,0,-1
-19.96,1.42,14.26,201,2011,7910,0,0,-1
-19.96,1.42,14.27,199,2024,7913,0,0,-1
-19.95,1.42,14.27,204,2017,7913,-1,-1,-1
-19.95,1.42,14.27,200,2019,7910,-1,0,-1
-19.95,1.42,14.26,194,2017,7897,-1,0,-1
-19.95,1.41,14.26,190,2009,7907,0,0,-1
-19.95,1.41,14.26,195,2013,7907,-1,0,-1
-19.94,1.40,14.26,199,2002,7912,-1,0,0
-19.95,1.40,14.25,197,1985,7911,0,0,0
-19.94,1.40,14.26,207,1999,7909,0,0,-1
-19.94,1.40,14.27,200,2015,7894,0,-1,-1
-19.94,1.40,14.28,201,2022,7894,0,0,-1
-19.93,1.39,14.28,191,2022,7905,-1,0,-1
-19.93,1.38,14.27,199,2020,7905,-1,0,-1
-19.93,1.38,14.27,191,2005,7903,-1,0,-1
-19.92,1.38,14.27,195,1996,7898,0,0,-1
-19.92,1.38,14.27,199,2003,7899,0,0,-1
-19.92,1.37,14.27,195,2016,7895,0,0,-1
-19.92,1.37,14.28,200,2014,7893,-1,0,-1
-19.91,1.37,14.28,200,2017,7887,-1,0,-1
-19.91,1.36,14.28,192,2018,7897,0,0,-1
-19.91,1.36,14.28,188,2013,7909,-1,0,-1
-19.91,1.35,14.27,188,2004,7902,-1,0,-1
-19.90,1.35,14.27,193,2002,7906,0,0,-1
-19.90,1.35,14.27,193,2000,7905,0,0,-1
-19.90,1.34,14.27,199,2005,7905,0,0,-1
-19.89,1.34,14.28,202,2013,7901,0,0,-1
-19.89,1.33,14.28,191,2015,7897,-1,0,-1
-19.89,1.32,14.28,184,2012,7911,-1,0,-1
-19.89,1.31,14.28,183,2015,7908,-1,0,-1
-19.88,1.31,14.28,179,2009,7903,0,0,-1
-19.88,1.30,14.28,181,2011,7907,0,0,-1
-19.88,1.29,14.29,194,2022,7906,0,0,-1
-19.87,1.29,14.29,192,2021,7909,0,0,-1
-19.87,1.29,14.29,196,2017,7907,0,0,-1
-19.86,1.28,14.30,194,2027,7913,0,0,-1
-19.86,1.27,14.29,193,2023,7917,-1,0,-1
-19.86,1.26,14.29,186,2003,7905,-1,0,-1
-19.86,1.26,14.29,193,2005,7917,0,0,-1
-19.84,1.26,14.29,188,2022,7914,0,0,-1
-19.83,1.24,14.30,183,2032,7910,-1,0,-1
-19.82,1.23,14.31,171,2031,7903,0,0,-1
-19.80,1.22,14.31,165,2024,7922,0,0,-1
-19.79,1.21,14.31,188,2009,7939,-1,0,-1
-19.77,1.19,14.30,177,2004,7917,0,0,-1
-19.76,1.18,14.32,181,1998,7905,0,0,-1
-19.74,1.16,14.32,165,1995,7914,0,0,-1
-19.73,1.15,14.34,157,2028,7894,0,0,-1
-19.72,1.14,14.34,173,2010,7919,0,0,-1
-19.72,1.12,14.34,139,2040,7929,-1,0,-1
-19.71,1.12,14.33,142,2025,7887,-1,-1,-1
-19.70,1.12,14.32,165,2017,7902,-1,0,-1
-19.70,1.12,14.31,158,2008,7917,-1,0,-1
-19.70,1.11,14.30,167,1986,7891,0,0,-1
-19.70,1.10,14.30,156,2000,7889,-1,0,-1
-19.70,1.10,14.30,155,1996,7922,0,0,0
-19.70,1.09,14.31,160,2018,7884,0,-1,-1
-19.71,1.09,14.31,158,2018,7905,-1,0,0
-19.71,1.09,14.31,149,2016,7891,0,0,-1
-19.70,1.08,14.32,146,2053,7897,-1,-1,0
-19.71,1.08,14.31,145,2008,7879,-1,0,-1
-19.71,1.07,14.30,161,2009,7910,-1,0,0
-19.71,1.07,14.30,131,2010,7898,0,-1,0
-19.72,1.09,14.30,139,1998,7889,-1,-1,0
-19.73,1.10,14.30,154,2006,7887,0,-1,0
-19.73,1.11,14.31,158,2039,7901,0,-1,0
-19.74,1.11,14.32,146,2053,7901,-1,-1,0
-19.74,1.12,14.31,158,2029,7898,-1,-1,0
-19.75,1.13,14.30,153,2005,7890,-1,0,0
-19.75,1.13,14.29,155,2000,7901,-1,0,0
-19.75,1.12,14.29,156,1994,7902,-1,-1,0
-19.76,1.13,14.29,155,1992,7905,0,-1,0
-19.76,1.13,14.30,162,2013,7889,0,0,0
-19.76,1.13,14.30,163,2036,7885,-1,-1,0
-19.76,1.14,14.30,164,2035,7890,-1,-1,0
-19.77,1.14,14.30,164,2029,7907,-1,-1,0
-19.77,1.15,14.29,158,2017,7912,-1,-1,0
-19.77,1.15,14.29,159,2006,7910,0,-1,0
-19.78,1.16,14.30,170,2002,7908,0,-1,0
-19.78,1.17,14.29,172,2010,7900,0,-1,0
-19.79,1.17,14.30,172,2019,7907,0,-1,0
-19.79,1.18,14.30,169,2019,7911,-1,-1,0
-19.79,1.19,14.30,164,2012,7900,-1,-1,0
-19.79,1.20,14.30,168,2011,7908,0,-1,0
-19.80,1.20,14.30,181,2018,7901,-1,-1,0
-19.80,1.20,14.30,172,2005,7902,-1,-1,0
-19.81,1.21,14.29,175,1986,7903,0,0,0
-19.81,1.21,14.29,169,1996,7909,0,-1,0
-19.81,1.22,14.30,174,2006,7909,0,-1,0
-19.81,1.22,14.31,173,2022,7904,0,-1,0
-19.81,1.23,14.31,173,2026,7900,0,-1,0
-19.82,1.23,14.31,177,2019,7903,-1,-1,0
-19.82,1.23,14.31,172,2014,7903,-1,-1,0
-19.83,1.23,14.30,185,2005,7906,0,-1,0
-19.83,1.24,14.30,183,2005,7904,-1,0,0
-19.83,1.24,14.30,176,2003,7910,0,0,0
-19.83,1.24,14.30,175,2006,7904,0,-1,0
-19.83,1.24,14.30,172,2017,7904,-1,-1,0
-19.84,1.25,14.30,173,2019,7900,-1,-1,0
-19.84,1.26,14.30,177,2018,7893,-1,-1,0
-19.84,1.26,14.30,175,2025,7896,-1,-1,0
-19.84,1.26,14.30,178,2023,7907,-1,-1,0
-19.84,1.26,14.30,170,2013,7907,0,-1,0
-19.84,1.26,14.30,183,1997,7905,0,-1,0
-19.84,1.26,14.31,181,2015,7894,0,0,-1
-19.85,1.27,14.31,180,2011,7897,0,-1,0
-19.84,1.28,14.32,210,2008,7894,0,0,-1
-19.84,1.27,14.33,187,2026,7905,-1,0,-1
-19.84,1.27,14.32,187,2016,7900,-1,-1,0
-19.84,1.27,14.31,182,2012,7911,-1,0,0
-19.84,1.27,14.31,162,2014,7907,0,-1,0
-19.85,1.27,14.31,176,2014,7905,-1,-1,0
-19.84,1.28,14.30,184,2014,7893,-1,-1,-1
-19.84,1.27,14.31,168,2022,7903,-1,-1,0
-19.85,1.28,14.30,161,2018,7933,-1,-1,0
-19.86,1.31,14.28,173,2032,7921,-1,-1,0
-19.86,1.33,14.27,207,2025,7893,-1,-1,0
-19.86,1.33,14.27,188,2007,7895,-1,0,0
-19.86,1.33,14.26,175,1989,7895,-1,-1,0
-19.87,1.33,14.26,190,1979,7897,0,0,0
-19.87,1.33,14.26,196,1978,7897,0,0,-1
-19.87,1.32,14.27,197,1993,7899,0,0,0
-19.87,1.32,14.27,190,2014,7913,0,0,0
-19.87,1.32,14.27,181,2018,7919,-1,-1,0
-19.88,1.32,14.27,188,2018,7919,-1,-1,0
-19.88,1.32,14.27,184,2014,7916,0,-1,0
-19.88,1.33,14.27,181,2008,7908,0,-1,0
-19.88,1.33,14.27,184,2007,7905,0,-1,0
-19.88,1.34,14.28,201,2016,7902,0,-1,0
-19.89,1.34,14.29,201,2022,7904,0,0,0
-19.89,1.34,14.29,194,2010,7907,-1,-1,0
-19.89,1.34,14.28,186,2007,7923,0,0,0
-19.89,1.34,14.28,184,1997,7914,0,-1,0
-19.89,1.34,14.28,185,1998,7913,0,-1,0
-19.89,1.34,14.29,191,2011,7908,0,0,0
-19.89,1.34,14.29,194,2007,7902,0,0,0
-19.89,1.34,14.29,190,2010,7903,0,-1,0
-19.89,1.35,14.29,189,2019,7904,0,-1,0
-19.89,1.35,14.29,193,2021,7904,-1,0,0
-19.89,1.34,14.29,188,2011,7915,-1,0,0
-19.89,1.34,14.28,186,2000,7915,-1,0,0
-19.89,1.34,14.28,185,1998,7917,0,-1,0
-19.89,1.34,14.29,188,2019,7907,0,-1,-1
-19.89,1.34,14.30,185,2034,7895,0,-1,0
-19.90,1.34,14.30,188,2036,7882,0,-1,0
-19.90,1.34,14.31,190,2027,7883,-1,-1,0
-19.90,1.35,14.30,192,2024,7894,-1,0,0
-19.90,1.35,14.30,187,2008,7903,-1,0,0
-19.90,1.34,14.30,182,2009,7902,0,-1,0
-19.90,1.35,14.30,187,2002,7904,0,-1,0
-19.91,1.36,14.30,200,2002,7897,0,-1,0
-19.91,1.36,14.31,205,2013,7895,0,0,0
-19.91,1.36,14.31,193,2016,7898,0,0,-1
-19.91,1.35,14.31,189,2013,7903,-1,-1,-1
-19.91,1.35,14.30,190,2003,7907,0,0,-1
-19.90,1.35,14.30,189,2003,7906,0,0,-1
-19.90,1.34,14.30,183,2005,7908,0,0,0
-19.90,1.34,14.30,177,2015,7906,0,-1,0
-19.91,1.34,14.31,187,2015,7905,0,-1,0
-19.91,1.35,14.31,198,2016,7905,0,0,0
-19.91,1.35,14.31,194,2019,7911,0,0,0
-19.91,1.34,14.31,186,2017,7904,-1,0,0
-19.91,1.34,14.30,188,2009,7905,-1,-1,0
-19.92,1.35,14.30,187,2007,7906,-1,-1,0
-19.92,1.35,14.29,183,2008,7914,0,-1,0
-19.92,1.35,14.29,186,2007,7910,0,-1,0
-19.92,1.35,14.29,194,2005,7903,0,0,0
-19.92,1.35,14.29,195,2012,7903,0,0,0
-19.92,1.35,14.29,196,2015,7910,-1,0,-1
-19.92,1.35,14.29,187,2016,7913,0,0,-1
-19.92,1.34,14.29,187,2014,7915,0,0,-1
-19.92,1.34,14.29,187,2014,7911,-1,0,0
-19.92,1.34,14.29,186,2006,7906,0,-1,0
-19.92,1.34,14.29,187,1998,7915,0,0,0
-19.92,1.34,14.29,197,2013,7913,0,-1,-1
-19.92,1.35,14.30,202,2027,7911,0,-1,0
-19.92,1.35,14.30,196,2031,7908,-1,-1,0
-19.92,1.35,14.30,193,2022,7908,-1,-1,0
-19.92,1.35,14.30,187,2021,7904,-1,-1,0
-19.92,1.35,14.29,194,2007,7906,0,-1,0
-19.92,1.35,14.29,187,2006,7909,0,0,0
-19.93,1.35,14.29,194,2017,7905,-1,0,0
-19.93,1.34,14.29,191,2016,7909,-1,0,0
-19.93,1.34,14.29,193,2011,7915,-1,0,0
-19.93,1.34,14.28,188,2005,7915,-1,0,0
-19.93,1.34,14.28,183,2003,7909,0,0,0
-19.94,1.34,14.28,188,2015,7910,-1,0,0
-19.94,1.34,14.27,202,2012,7901,-1,-1,0
-19.94,1.35,14.27,201,2019,7896,-1,0,0
-19.94,1.35,14.27,195,2017,7896,-1,-1,0
-19.94,1.35,14.26,188,2017,7894,-1,-1,0
-19.95,1.35,14.26,187,2011,7906,-1,-1,0
-19.95,1.36,14.26,195,2005,7913,0,-1,0
-19.96,1.36,14.26,199,1995,7911,0,-1,0
-19.96,1.37,14.27,199,1992,7915,0,-1,0
-19.96,1.37,14.28,198,2001,7909,0,-1,0
-19.96,1.38,14.28,202,2018,7896,0,0,-1
-19.97,1.37,14.28,208,2029,7899,-1,0,0
-19.97,1.37,14.28,196,2017,7907,-1,0,0
-19.97,1.38,14.27,195,2003,7909,-1,-1,0
-19.97,1.38,14.27,199,1997,7905,0,-1,-1
-19.97,1.38,14.28,197,2015,7908,0,-1,0
-19.97,1.39,14.28,206,2017,7900,0,-1,0
-19.97,1.39,14.28,203,2026,7910,-1,0,0
-19.97,1.39,14.28,208,2017,7907,-1,0,0
-19.97,1.39,14.28,205,2012,7901,-1,0,-1
-19.97,1.39,14.28,199,2021,7900,0,0,-1
-19.97,1.38,14.28,195,2013,7902,-1,0,-1
-19.97,1.39,14.27,196,2001,7900,0,-1,0
-19.97,1.39,14.27,198,1999,7895,0,-1,-1
-19.96,1.39,14.28,193,2004,7889,0,0,-1
-19.96,1.38,14.28,191,2005,7888,0,0,-1
-19.96,1.38,14.29,202,2014,7896,0,0,-1
-19.96,1.38,14.28,199,2018,7899,-1,0,-1
-19.96,1.37,14.28,195,2013,7912,-1,0,-1
-19.96,1.37,14.28,201,2011,7909,0,0,-1
-19.95,1.37,14.29,199,2007,7902,0,-1,-1
-19.95,1.37,14.29,200,2014,7895,0,0,-1
-19.95,1.37,14.30,196,2020,7890,0,0,-1
-19.95,1.37,14.30,194,2020,7889,-1,0,0
-19.95,1.37,14.29,194,2014,7895,-1,0,0
-19.95,1.37,14.29,190,2010,7904,-1,0,-1
-19.95,1.36,14.28,189,2008,7900,0,0,-1
-19.95,1.36,14.29,190,2008,7902,0,0,-1
-19.95,1.36,14.29,193,2012,7900,0,0,-1
-19.95,1.35,14.29,194,2018,7904,-1,0,-1
-19.95,1.35,14.29,199,2010,7900,-1,0,-1
-19.94,1.34,14.29,189,2007,7900,0,0,-1
-19.93,1.34,14.29,188,2008,7899,0,0,-1
-19.93,1.34,14.29,185,2011,7904,0,0,-1
-19.93,1.33,14.29,190,2016,7908,-1,0,-1
-19.93,1.33,14.29,189,2012,7909,0,0,-1
-19.93,1.33,14.29,192,2004,7902,0,0,-1
-19.92,1.33,14.29,193,1998,7900,0,-1,-1
-19.92,1.32,14.30,196,2014,7891,0,0,-1
-19.92,1.31,14.29,188,2015,7896,-1,0,-1
-19.91,1.30,14.29,182,2014,7907,-1,0,-1
-19.91,1.30,14.29,185,2008,7908,-1,0,-1
-19.91,1.30,14.28,184,2006,7911,0,0,-1
-19.91,1.30,14.28,186,1993,7901,0,0,-1
-19.91,1.30,14.29,193,1993,7895,0,0,-1
-19.91,1.30,14.29,193,2002,7899,0,0,-1
-19.90,1.30,14.29,196,2012,7897,0,0,-1
-19.90,1.29,14.30,188,2020,7895,-1,0,-1
-19.90,1.29,14.30,182,2020,7896,-1,0,-1
-19.89,1.28,14.29,178,2009,7897,-1,0,-1
-19.89,1.28,14.29,175,2009,7894,0,0,-1
-19.89,1.28,14.30,179,2015,7903,0,0,-1
-19.89,1.27,14.30,186,2015,7902,-1,0,0
-19.89,1.27,14.29,179,2007,7907,0,0,0
-19.89,1.26,14.29,181,2001,7907,-1,0,-1
-19.89,1.26,14.29,180,2005,7902,0,0,-1
-19.89,1.26,14.29,185,2019,7895,-1,0,-1
-19.88,1.25,14.29,180,2022,7906,-1,0,-1
-19.88,1.25,14.29,178,2016,7915,-1,0,0
-19.88,1.24,14.28,175,2005,7915,-1,0,-1
-19.88,1.24,14.28,180,1995,7916,-1,0,0
-19.88,1.24,14.28,187,1992,7899,0,0,-1
-19.88,1.24,14.28,178,2004,7889,0,0,-1
-19.88,1.23,14.28,176,2012,7899,-1,0,-1
-19.88,1.22,14.29,178,2010,7904,-1,0,-1
-19.87,1.21,14.28,164,2004,7902,-1,0,-1
-19.87,1.21,14.28,164,1999,7897,0,0,-1
-19.87,1.21,14.28,168,2001,7906,0,0,-1
-19.86,1.20,14.29,176,2016,7896,0,0,-1
-19.86,1.20,14.29,175,2030,7894,0,0,-1
-19.86,1.20,14.30,181,2029,7891,-1,0,-1
-19.86,1.19,14.29,177,2019,7900,-1,0,-1
-19.85,1.19,14.29,175,2018,7909,-1,0,-1
-19.85,1.18,14.29,159,2007,7905,-1,-1,-1
-19.84,1.18,14.29,174,2015,7910,0,0,-1
-19.83,1.17,14.29,173,2022,7909,0,0,-1
-19.83,1.16,14.30,172,2006,7912,0,0,-1
-19.82,1.16,14.30,182,1997,7920,0,0,-1
-19.80,1.15,14.30,161,2018,7916,0,-1,-1
-19.79,1.15,14.30,162,2016,7906,-1,-1,-1
-19.78,1.14,14.29,177,2007,7905,0,0,-1
-19.78,1.14,14.30,168,2004,7910,0,0,-1
-19.76,1.13,14.31,156,2014,7908,-1,0,-1
-19.76,1.14,14.31,164,2003,7909,0,-1,-1
-19.76,1.13,14.30,169,1993,7906,0,0,0
-19.76,1.12,14.31,149,2015,7895,0,-1,0
-19.78,1.13,14.30,170,1985,7899,0,0,0
-19.77,1.12,14.32,151,2031,7902,0,0,-1
-19.77,1.13,14.32,118,2048,7880,-1,-1,0
-19.78,1.14,14.31,172,2002,7893,0,0,0
-19.78,1.13,14.30,154,2032,7919,-1,-1,0
-19.78,1.14,14.30,136,2014,7900,0,-1,0
-19.79,1.15,14.30,180,2001,7948,-1,0,0
-19.80,1.16,14.28,160,1978,7884,0,-1,0
-19.80,1.16,14.31,170,2007,7912,0,-1,-1
-19.80,1.16,14.31,155,2045,7902,-1,-1,0
-19.82,1.18,14.31,175,2006,7907,0,-1,0
-19.83,1.19,14.31,163,2026,7937,0,-1,0
-19.85,1.22,14.29,133,2037,7937,-1,-1,1
-19.89,1.26,14.28,178,1994,7902,0,-1,0
-19.90,1.29,14.27,155,1978,7924,-1,-2,0
-19.92,1.31,14.27,188,2025,7882,-1,-1,0
-19.94,1.33,14.27,174,1988,7851,0,-1,0
-19.96,1.34,14.28,214,2001,7868,0,0,0
-19.96,1.33,14.29,167,2011,7892,0,-1,0
-19.98,1.35,14.29,175,2047,7934,-1,-1,0
-20.00,1.39,14.29,244,2043,7930,-1,-1,1
-20.02,1.36,14.26,185,1976,7880,0,0,-1
-20.03,1.38,14.28,189,2007,7892,-1,-1,1
-20.03,1.37,14.28,212,2035,7883,0,-1,-1
-20.06,1.38,14.27,192,1985,7889,-1,0,0
-20.06,1.40,14.28,183,1983,7878,-1,-1,0
-20.07,1.40,14.28,233,2031,7929,-1,1,-1
-20.08,1.41,14.28,203,2005,7868,0,-1,0
-20.08,1.41,14.29,233,1999,7899,0,-1,0
-20.07,1.38,14.31,146,2079,7933,-1,-1,0
-20.08,1.41,14.29,213,1988,7867,0,0,-1
-20.09,1.41,14.29,202,1986,7924,-1,0,0
-20.08,1.42,14.32,195,2061,7895,-1,-1,-1
-20.10,1.42,14.30,209,2035,7920,0,0,-1
-20.11,1.44,14.29,228,1996,7883,0,-1,1
-20.11,1.43,14.29,209,1993,7953,-1,-1,0
-20.11,1.44,14.29,203,2009,7890,1,0,-1
-20.12,1.45,14.28,214,1993,7893,-1,-1,0
-20.11,1.46,14.30,223,2044,7905,-1,-1,-1
-20.12,1.46,14.28,191,2005,7909,-1,-1,0
-20.12,1.47,14.28,242,2032,7887,-1,0,0
-20.12,1.47,14.27,195,2015,7926,0,-2,-1
-20.13,1.49,14.27,208,1997,7892,0,0,0
-20.14,1.50,14.25,241,1990,7929,-1,-1,0
-20.13,1.49,14.27,208,2021,7859,1,0,-1
-20.14,1.49,14.26,214,1999,7906,-1,0,-1
-20.14,1.50,14.26,196,2011,7863,0,-1,-1
-20.14,1.51,14.26,247,2009,7917,1,0,-1
-20.14,1.50,14.26,195,2025,7917,-2,-2,0
-20.15,1.52,14.24,231,1996,7873,0,1,-1
-20.14,1.51,14.25,230,1985,7908,0,-1,-1
-20.14,1.52,14.26,196,2037,7909,-1,-1,0
-20.14,1.53,14.24,232,1982,7875,-1,-1,-1
-20.15,1.52,14.24,202,2009,7903,-1,0,0
-20.14,1.54,14.25,196,2007,7914,0,-2,0
-20.14,1.56,14.24,237,2024,7885,-1,0,0
-20.15,1.56,14.23,238,1981,7888,0,0,0
-20.15,1.57,14.23,253,1990,7895,-1,-1,-1
-20.14,1.57,14.23,231,1986,7905,0,-1,-1
-20.14,1.57,14.23,219,1983,7913,0,0,-1
-20.14,1.55,14.23,203,1996,7926,-1,0,-1
-20.14,1.56,14.23,203,2006,7903,-1,-1,0
-20.14,1.57,14.23,219,1999,7905,0,-1,0
-20.14,1.58,14.22,226,2011,7915,-1,-1,0
-20.15,1.60,14.23,226,1997,7914,0,-1,0
-20.16,1.61,14.23,246,1994,7931,0,0,0
-20.16,1.61,14.24,220,2027,7921,-1,-1,0
-20.16,1.63,14.26,254,2021,7894,0,0,-1
-20.16,1.63,14.25,243,2030,7925,-1,-1,0
-20.17,1.64,14.25,235,2007,7903,0,0,0
-20.18,1.64,14.24,233,2008,7920,-1,-1,0
-20.18,1.64,14.24,219,2012,7892,0,0,-1
-20.20,1.66,14.24,244,1993,7907,-1,-1,0
-20.19,1.65,14.25,240,2043,7930,0,0,-1
-20.20,1.67,14.23,196,2004,7880,-1,-2,0
-20.22,1.69,14.21,300,1982,7946,0,1,-1
-20.22,1.67,14.22,249,1998,7889,0,0,-1
-20.22,1.67,14.23,235,2024,7896,-2,-2,0
-20.22,1.67,14.22,258,1963,7918,0,1,-1
-20.23,1.65,14.23,179,1985,7887,0,-1,0
-20.24,1.68,14.25,267,2021,7895,0,0,0
-20.24,1.67,14.25,217,2036,7889,-1,-1,-1
-20.24,1.69,14.26,251,2007,7942,0,0,0
-20.26,1.69,14.23,226,2010,7893,-2,-1,0
-20.27,1.72,14.23,256,1990,7958,0,-2,0
-20.27,1.70,14.21,235,1998,7895,-1,1,-1
-20.28,1.74,14.22,267,1941,7842,1,-2,0
-20.28,1.70,14.23,220,2044,7962,-1,-1,0
-20.29,1.73,14.24,247,1999,7838,0,1,-1
-20.29,1.72,14.22,254,1979,7896,0,-1,0
-20.29,1.73,14.24,222,2046,7929,-1,-2,0
-20.30,1.72,14.22,249,2016,7935,0,0,-1
-20.32,1.74,14.20,234,1970,7843,0,0,0
-20.31,1.74,14.23,273,2014,7886,-1,0,0
-20.30,1.73,14.23,234,1995,7897,-1,-2,-1
-20.32,1.75,14.22,262,2015,7915,-1,0,0
-20.32,1.73,14.22,239,2010,7893,-1,-1,-1
-20.33,1.75,14.22,267,2002,7884,-1,0,0
-20.32,1.73,14.22,240,1994,7959,-1,0,-1
-20.33,1.76,14.23,238,2025,7903,0,-1,0
-20.33,1.76,14.22,289,2013,7925,0,0,-1
-20.34,1.77,14.22,248,1965,7887,0,-1,0
-20.34,1.77,14.22,263,2000,7874,-1,-1,0
-20.33,1.77,14.23,234,1987,7880,1,-1,-1
-20.34,1.76,14.22,248,2043,7946,-2,0,0
-20.34,1.79,14.21,290,1957,7838,1,0,-1
-20.34,1.76,14.22,223,2043,7923,-1,-1,0
-20.34,1.78,14.21,254,1992,7906,0,-1,-1
-20.34,1.77,14.21,251,2019,7913,-1,0,0
-20.34,1.77,14.20,201,1990,7862,-1,-1,0
-20.35,1.80,14.21,304,1985,7917,0,-1,0
-20.35,1.79,14.19,231,2005,7912,-1,-1,0
-20.35,1.81,14.21,280,2005,7887,0,0,-1
-20.35,1.79,14.19,258,1991,7899,0,-1,-1
-20.35,1.81,14.20,257,2002,7874,-1,0,0
-20.35,1.81,14.19,263,1965,7865,-1,0,-1
-20.35,1.80,14.17,257,1958,7930,0,-1,0
-20.33,1.80,14.19,275,2018,7880,0,0,-1
-20.32,1.79,14.19,230,1997,7898,-1,-1,-1
-20.32,1.80,14.19,276,1982,7857,0,0,-1
-20.30,1.78,14.20,265,2020,7905,-1,-1,-1
-20.29,1.77,14.19,255,2009,7903,-1,0,-1
-20.29,1.78,14.18,275,2001,7921,-1,-1,-1
-20.29,1.77,14.18,250,1986,7893,-1,-1,-1
-20.27,1.77,14.18,256,1983,7889,0,0,-1
-20.26,1.76,14.19,247,2016,7893,0,0,-1
-20.24,1.75,14.19,257,2031,7886,-1,0,-1
-20.24,1.74,14.18,244,2020,7894,-1,0,-1
-20.23,1.74,14.16,240,1988,7906,-1,-1,-1
-20.22,1.74,14.15,251,1953,7936,-1,-1,-1
-20.22,1.75,14.15,252,1970,7936,0,-1,-1
-20.21,1.75,14.15,262,1983,7919,0,0,-1
-20.20,1.74,14.16,256,2001,7899,0,-1,-1
-20.19,1.74,14.17,260,2008,7903,-1,0,-1
-20.19,1.73,14.16,247,2004,7897,-1,0,-1
-20.18,1.72,14.15,252,1988,7900,-1,0,-1
-20.17,1.71,14.14,249,1985,7900,-1,0,-1
-20.16,1.70,14.14,239,1974,7910,0,0,-1
-20.14,1.69,14.14,245,1985,7916,0,0,-1
-20.12,1.68,14.15,237,1998,7907,0,0,-1
-20.12,1.67,14.16,230,2013,7906,0,0,-1
-20.11,1.66,14.15,235,2012,7913,-1,0,-1
-20.11,1.65,14.15,222,2007,7910,-1,0,-1
-20.10,1.64,14.14,224,1988,7910,-1,0,-1
-20.10,1.63,14.14,229,1980,7915,-1,0,-1
-20.09,1.63,14.13,221,1975,7905,-1,0,-1
-20.09,1.62,14.13,225,1978,7912,0,0,-1
-20.08,1.61,14.13,227,1981,7914,0,0,-1
-20.08,1.61,14.13,238,1986,7902,0,0,-1
-20.08,1.60,14.14,230,1989,7896,0,0,-1
-20.07,1.60,14.14,235,2001,7904,0,0,-1
-20.07,1.59,14.14,237,1995,7912,-1,0,-1
-20.07,1.58,14.14,232,1982,7907,-1,0,-1
-20.06,1.57,14.12,225,1977,7914,-1,0,-1
-20.05,1.56,14.13,214,1985,7918,0,0,-1
-20.05,1.56,14.13,214,1994,7909,-1,0,-1
-20.04,1.55,14.14,218,2004,7903,-1,0,-1
-20.04,1.55,14.14,224,2001,7893,-1,0,-1
-20.04,1.54,14.14,218,2000,7904,-1,0,-1
-20.04,1.54,14.13,225,1995,7901,-1,0,-1
-20.03,1.53,14.13,229,1997,7900,-1,0,-1
-20.03,1.52,14.13,225,1990,7911,-1,0,-1
-20.02,1.51,14.12,225,1979,7912,-1,0,-1
-20.02,1.50,14.12,215,1972,7913,0,0,-1
-20.02,1.50,14.12,213,1971,7906,0,0,-1
-20.01,1.48,14.13,212,1989,7906,0,0,-1
-20.01,1.47,14.12,206,2001,7905,-1,0,-1
-20.00,1.46,14.12,203,2009,7908,-1,0,-1
-19.99,1.45,14.13,207,1992,7914,-1,0,-1
-19.98,1.44,14.13,212,1990,7909,0,0,-1
-19.97,1.43,14.13,219,1991,7906,0,0,-1
-19.95,1.41,14.13,196,1997,7911,0,0,-1
-19.94,1.40,14.14,197,1992,7903,0,0,-1
-19.94,1.39,14.15,197,2008,7909,-1,0,-1
-19.94,1.39,14.14,192,1989,7909,-1,-1,-1
-19.93,1.38,14.14,211,1972,7920,0,0,-1
-19.93,1.37,14.14,186,1987,7913,0,-1,-1
-19.93,1.37,14.14,186,1980,7899,0,-1,0
-19.93,1.37,14.14,187,1992,7892,-1,-1,0
-19.93,1.37,14.14,198,1992,7894,-1,0,0
-19.93,1.37,14.14,201,1986,7907,0,0,-1
-19.93,1.38,14.14,195,1984,7913,-1,-1,-1
-19.93,1.38,14.14,193,1982,7915,0,-1,0
-19.93,1.38,14.14,188,1977,7906,0,-1,0
-19.93,1.38,14.14,195,1970,7912,0,-1,0
-19.94,1.38,14.14,198,1974,7916,0,-1,0
-19.93,1.38,14.15,196,1999,7915,0,-1,0
-19.94,1.39,14.16,187,2001,7916,0,-1,0
-19.94,1.39,14.16,196,1996,7896,0,-1,0
-19.94,1.40,14.16,200,1998,7901,0,-1,0
-19.95,1.41,14.17,203,1995,7902,0,-1,0
-19.95,1.41,14.17,207,1997,7909,0,-1,0
-19.95,1.41,14.17,212,1994,7909,0,-1,0
-19.95,1.41,14.17,202,1992,7900,0,-1,0
-19.95,1.42,14.17,208,1982,7903,-1,0,0
-19.96,1.42,14.17,200,1972,7911,0,-1,0
-19.96,1.42,14.17,198,1978,7920,0,-1,0
-19.96,1.43,14.18,204,1997,7907,0,-1,0
-19.97,1.44,14.18,214,2010,7903,0,-1,0
-19.97,1.45,14.18,218,2001,7901,-1,-1,0
-19.97,1.44,14.18,214,1989,7909,-1,0,0
-19.97,1.44,14.17,204,1989,7906,0,-1,0
-19.97,1.45,14.17,206,1985,7905,0,-1,0
-19.97,1.45,14.17,197,1993,7901,0,-1,0
-19.97,1.46,14.18,202,2012,7907,0,-1,0
-19.98,1.47,14.19,209,2018,7917,-1,-1,0
-19.99,1.48,14.18,213,2001,7911,-1,-1,0
-19.99,1.48,14.18,219,1991,7907,0,-1,0
-20.00,1.49,14.18,220,1994,7906,-1,-1,0
-20.00,1.49,14.18,218,1994,7918,0,-1,0
-20.00,1.49,14.18,215,1987,7923,-1,-1,0
-20.00,1.50,14.17,212,1989,7913,0,-1,0
-20.01,1.50,14.17,210,1986,7912,-1,-1,0
-20.01,1.50,14.17,220,1991,7911,0,-1,0
-20.02,1.51,14.17,221,1999,7900,0,-1,0
-20.02,1.51,14.18,214,2004,7906,-1,-1,0
-20.02,1.51,14.17,215,2003,7921,-1,0,0
-20.02,1.51,14.17,214,1993,7920,-1,-1,0
-20.02,1.52,14.17,212,1991,7922,0,-1,0
-20.02,1.52,14.17,213,1994,7908,0,-1,0
-20.02,1.52,14.18,216,1996,7903,0,-1,0
-20.02,1.53,14.18,209,1996,7898,0,-1,0
-20.02,1.54,14.18,210,2000,7908,0,-1,0
-20.03,1.54,14.19,216,2006,7910,-1,-1,0
-20.03,1.55,14.19,222,2006,7907,-1,-1,0
-20.03,1.54,14.18,221,1994,7906,-1,-1,0
-20.04,1.55,14.18,218,1985,7905,-1,-1,0
-20.04,1.56,14.18,227,1982,7917,0,-1,0
-20.04,1.57,14.18,226,1993,7918,0,-1,-1
-20.04,1.57,14.19,225,2011,7904,-1,-1,0
-20.04,1.57,14.18,222,2005,7906,-1,-1,0
-20.04,1.57,14.18,220,2006,7911,-1,-1,0
-20.05,1.57,14.18,227,2000,7912,-1,-1,0
-20.05,1.58,14.18,230,1996,7910,0,-1,0
-20.05,1.58,14.19,232,2011,7896,0,0,0
-20.06,1.58,14.19,229,2018,7907,-1,-1,0
-20.06,1.58,14.19,229,2004,7900,0,-1,0
-20.06,1.59,14.19,226,1999,7897,0,-1,0
-20.06,1.59,14.19,229,2006,7888,0,-1,0
-20.07,1.60,14.19,232,2009,7894,0,-1,0
-20.07,1.61,14.20,231,2004,7890,-1,-1,0
-20.07,1.61,14.19,224,1997,7896,-1,0,0
-20.07,1.61,14.19,221,1999,7903,-1,-1,0
-20.08,1.61,14.18,223,1993,7911,-1,-1,0
-20.07,1.61,14.19,224,1987,7904,0,-1,0
-20.08,1.62,14.20,232,1991,7905,0,-1,0
-20.08,1.62,14.20,238,2004,7895,0,-1,0
-20.08,1.62,14.20,234,2007,7896,0,-1,0
-20.09,1.62,14.20,233,2006,7905,-1,-1,0
-20.09,1.63,14.20,238,2005,7902,0,-1,0
-20.09,1.63,14.21,243,2007,7899,0,0,0
-20.09,1.63,14.20,233,2003,7907,-1,0,0
-20.10,1.63,14.20,230,1996,7912,-1,0,0
-20.10,1.63,14.19,229,1992,7918,0,-1,0
-20.11,1.63,14.20,235,1995,7914,0,-1,0
-20.10,1.63,14.21,239,2009,7925,0,0,0
-20.11,1.64,14.21,230,2007,7913,0,0,0
-20.11,1.64,14.21,240,2008,7915,-1,0,0
-20.12,1.64,14.21,236,1999,7920,-1,0,0
-20.12,1.63,14.20,234,1991,7914,0,0,0
-20.12,1.62,14.21,235,1993,7901,0,0,0
-20.12,1.61,14.21,223,1984,7907,0,0,0
-20.12,1.60,14.22,225,1989,7899,0,0,0
-20.13,1.60,14.23,220,2017,7904,0,0,0
-20.13,1.60,14.24,237,2014,7899,-1,0,0
-20.13,1.59,14.24,223,2017,7897,0,0,0
-20.13,1.59,14.24,220,2003,7910,-1,-1,0
-20.14,1.59,14.24,246,1993,7905,0,0,0
-20.14,1.58,14.25,188,2022,7902,0,-1,0
-20.14,1.59,14.26,222,2028,7904,0,-1,0
-20.15,1.59,14.25,209,2028,7916,0,-1,0
-20.15,1.62,14.26,221,2007,7925,0,-1,0
-20.16,1.63,14.26,263,2009,7904,-1,0,-1
-20.15,1.62,14.25,220,1984,7919,0,-1,0
-20.15,1.63,14.26,244,1980,7915,0,0,0
-20.16,1.62,14.28,244,1999,7912,0,0,0
-20.16,1.62,14.28,227,2005,7896,0,-1,-1
-20.16,1.62,14.28,221,2023,7909,-1,-1,-1
-20.16,1.64,14.26,214,2000,7889,-1,-1,0
-20.16,1.65,14.27,268,2027,7906,0,0,-1
-20.15,1.64,14.26,222,2023,7913,-1,-1,-1
-20.15,1.66,14.25,248,1983,7904,0,-1,0
-20.15,1.66,14.26,250,1995,7899,0,0,-1
-20.14,1.65,14.26,226,1994,7895,0,-1,-1
-20.15,1.66,14.27,245,1989,7895,0,-1,-1
-20.14,1.66,14.28,242,2023,7891,-1,-1,-1
-20.13,1.66,14.28,237,2043,7886,-1,0,-1
-20.13,1.66,14.27,229,2036,7888,-1,0,-1
-20.12,1.65,14.26,224,2011,7911,-1,-1,-1
-20.12,1.66,14.25,225,2000,7932,-1,-1,-1
-20.11,1.66,14.25,229,1999,7906,0,-1,-1
-20.11,1.67,14.25,235,1997,7893,-1,-1,-1
-20.11,1.67,14.24,250,1996,7893,-1,0,-1
-20.10,1.66,14.24,246,1995,7892,-1,0,-1
-20.10,1.65,14.23,245,1996,7891,-1,0,-1
-20.09,1.65,14.23,250,2001,7901,0,0,-1
-20.09,1.64,14.23,243,2010,7904,-1,0,-1
-20.09,1.64,14.23,228,2013,7898,-1,0,-1
-20.09,1.63,14.22,232,1995,7893,-1,0,-1
-20.08,1.62,14.22,225,1994,7911,0,0,-1
-20.08,1.62,14.22,228,1997,7903,0,-1,-1
-20.08,1.62,14.22,233,2012,7912,-1,0,-1
-20.07,1.62,14.22,236,2020,7903,-1,0,-1
-20.07,1.61,14.22,230,2013,7908,-1,0,-1
-20.07,1.60,14.21,233,2004,7909,-1,0,-1
-20.07,1.59,14.21,227,1996,7912,-1,0,-1
-20.07,1.59,14.20,227,1993,7912,-1,0,-1
-20.06,1.58,14.19,220,1992,7906,-1,0,-1
-20.06,1.58,14.20,225,1988,7908,0,0,-1
-20.05,1.56,14.20,221,1990,7917,0,0,-1
-20.05,1.55,14.20,221,2001,7922,0,0,-1
-20.04,1.54,14.20,221,2005,7914,0,0,-1
-20.03,1.53,14.20,210,2015,7911,0,0,-1
-20.01,1.51,14.21,201,2012,7911,0,0,-1
-20.00,1.51,14.22,218,2002,7914,0,0,-1
-19.98,1.50,14.22,209,2009,7902,0,0,-1
-19.98,1.50,14.22,217,2002,7902,-1,0,-1
-19.98,1.48,14.23,208,1996,7905,0,0,-1
-19.96,1.48,14.23,218,2000,7917,0,0,-1
-19.96,1.47,14.24,221,1998,7907,0,0,-1
-19.95,1.45,14.24,229,1995,7925,0,0,-1
-19.94,1.44,14.23,194,1995,7899,0,0,-1
-19.94,1.43,14.24,216,1983,7917,0,0,-1
-19.92,1.40,14.25,185,2029,7921,-1,0,-1
-19.92,1.40,14.24,205,1990,7897,0,0,0
-19.92,1.39,14.24,214,2016,7918,-1,0,-1
-19.91,1.36,14.22,205,1985,7925,-1,0,-1
-19.90,1.34,14.22,181,1992,7910,0,0,-1
-19.89,1.33,14.22,170,2002,7915,-1,0,-1
-19.88,1.32,14.22,187,1985,7905,-1,-1,-1
-19.88,1.32,14.23,230,2001,7895,0,1,-1
-19.86,1.29,14.22,155,2035,7896,-1,-1,-1
-19.86,1.29,14.22,211,2001,7888,-1,0,-1
-19.85,1.26,14.21,164,2009,7922,-1,0,-1
-19.84,1.26,14.21,170,1989,7912,0,0,0
-19.84,1.25,14.22,167,1993,7905,0,0,-1
-19.84,1.26,14.22,177,1974,7891,0,-1,0
-19.83,1.26,14.24,189,2014,7869,0,0,-1
-19.83,1.26,14.24,172,2035,7872,-1,0,0
-19.84,1.26,14.23,190,2001,7876,-1,0,0
-19.85,1.25,14.21,190,1980,7913,-1,0,-1
-19.84,1.25,14.21,164,1997,7913,0,-1,-1
-19.84,1.26,14.21,154,2003,7906,-1,-1,0
-19.85,1.27,14.21,170,1997,7900,-1,-1,0
-19.86,1.28,14.20,185,2006,7892,-1,-1,0
-19.86,1.28,14.21,192,2016,7889,0,-1,0
-19.87,1.29,14.21,188,2010,7908,-1,-1,0
-19.87,1.29,14.21,182,2009,7909,0,-1,0
-19.87,1.29,14.21,183,2009,7911,-1,0,0
-19.87,1.29,14.21,183,2010,7902,-1,-1,0
-19.87,1.30,14.21,183,1997,7903,0,-1,0
-19.87,1.31,14.21,181,1998,7908,0,-1,0
-19.87,1.31,14.21,177,1996,7911,0,-1,-1
-19.87,1.31,14.22,188,1999,7904,0,-1,0
-19.87,1.32,14.23,194,2005,7898,0,-1,0
-19.87,1.32,14.23,199,2017,7904,-1,0,-1
-19.87,1.32,14.23,190,2004,7909,0,-1,-1
-19.87,1.32,14.23,184,1999,7911,0,-1,0
-19.87,1.33,14.24,188,2002,7912,0,-1,0
-19.87,1.33,14.24,193,2012,7905,0,-1,0
-19.88,1.34,14.24,192,2012,7897,-1,-1,0
-19.88,1.34,14.24,197,2009,7904,-1,-1,0
-19.88,1.35,14.24,195,2001,7923,0,-1,0
-19.88,1.35,14.25,191,2009,7926,0,-1,-1
-19.88,1.36,14.25,183,2024,7922,0,-1,0
-19.88,1.36,14.25,190,2018,7914,0,-1,0
-19.89,1.37,14.25,189,2013,7898,-1,-1,0
-19.89,1.38,14.26,200,2015,7905,-1,-1,0
-19.90,1.38,14.25,203,2012,7898,-1,-1,-1
-19.89,1.38,14.26,199,2017,7892,0,-1,-1
-19.90,1.38,14.25,191,1995,7916,0,0,0
-19.90,1.38,14.25,192,2020,7927,-1,0,0
-19.90,1.38,14.24,190,1990,7921,0,-1,0
-19.90,1.38,14.25,194,1988,7913,0,0,-1
-19.89,1.38,14.27,199,2009,7895,0,-1,-1
-19.90,1.39,14.26,199,2004,7896,-1,-1,0
-19.90,1.39,14.26,198,2023,7899,-1,-1,-1
-19.90,1.40,14.26,204,2017,7893,-1,0,-1
-19.90,1.39,14.26,186,2012,7911,-1,0,0
-19.91,1.39,14.25,187,1991,7917,-1,0,0
-19.92,1.39,14.24,183,1993,7921,0,-1,0
-19.92,1.40,14.25,189,1996,7910,0,-1,0
-19.92,1.41,14.26,208,2012,7899,0,-1,0
-19.92,1.41,14.25,208,2007,7895,-1,-1,0
-19.93,1.41,14.25,207,2011,7906,-1,0,0
-19.93,1.40,14.24,196,2002,7917,-1,0,0
-19.93,1.41,14.24,191,1993,7914,0,-1,0
-19.93,1.41,14.24,188,1999,7919,-1,-1,0
-19.94,1.42,14.24,189,2002,7912,0,-1,0
-19.95,1.43,14.24,203,2009,7915,-1,-1,0
-19.96,1.44,14.24,211,2007,7913,-1,-1,0
-19.96,1.45,14.24,212,2008,7912,-1,-1,0
-19.97,1.46,14.24,210,2002,7910,0,-1,0
-19.97,1.46,14.24,205,2008,7902,-1,-1,0
-19.97,1.46,14.24,215,2009,7905,-1,-1,0
-19.97,1.47,14.24,210,2006,7906,-1,-1,0
-19.97,1.48,14.23,207,2001,7901,-1,-1,0
-19.98,1.48,14.23,216,1993,7905,-1,-1,0
-19.98,1.49,14.22,222,1987,7906,0,-1,0
-19.98,1.49,14.23,225,2003,7905,0,-1,0
-19.98,1.50,14.23,224,2014,7905,-1,-1,0
-19.99,1.50,14.22,225,2007,7920,-1,0,0
-19.99,1.50,14.22,219,1995,7907,0,-1,0
-19.99,1.50,14.22,216,2000,7908,0,-1,0
-19.99,1.51,14.22,213,2001,7898,0,-1,0
-20.00,1.51,14.23,212,1999,7902,0,-1,0
-20.00,1.52,14.23,214,2007,7909,0,-1,0
-20.00,1.52,14.23,218,2020,7901,-1,-1,0
-20.00,1.53,14.23,219,2013,7904,-1,-1,0
-20.01,1.53,14.23,221,1995,7906,-1,0,0
-20.01,1.53,14.22,213,1984,7917,-1,0,0
-20.01,1.53,14.22,221,1986,7904,0,-1,0
-20.01,1.54,14.22,226,2006,7895,0,-1,0
-20.02,1.55,14.23,225,2015,7897,-1,-1,0
-20.02,1.56,14.22,229,2013,7897,-1,-1,0
-20.03,1.56,14.22,228,2008,7903,-1,-1,0
-20.03,1.56,14.21,219,1991,7905,-1,-1,0
-20.03,1.56,14.21,224,1986,7896,0,-1,0
-20.03,1.56,14.22,220,1998,7901,0,0,0
-20.03,1.56,14.22,217,2003,7903,-1,-1,0
-20.03,1.56,14.22,224,1997,7900,0,-1,0
-20.03,1.56,14.22,216,2000,7905,0,-1,0
-20.04,1.57,14.22,220,2008,7900,0,-1,0
-20.04,1.58,14.22,227,2018,7899,-1,-1,0
-20.04,1.58,14.22,225,2014,7903,-1,-1,0
-20.04,1.59,14.22,233,2005,7913,-1,-1,0
-20.05,1.59,14.22,227,1996,7913,-1,-1,0
-20.05,1.59,14.21,226,1992,7914,0,-1,0
-20.06,1.60,14.21,221,1990,7911,0,-1,0
-20.06,1.60,14.22,221,1992,7903,0,-1,0
-20.06,1.61,14.22,227,1993,7891,0,-1,0
-20.07,1.61,14.23,230,2002,7895,0,-1,0
-20.07,1.62,14.22,232,2000,7896,0,-1,0
-20.07,1.62,14.23,239,2007,7904,0,0,0
-20.07,1.62,14.23,233,2014,7914,-1,0,0
-20.07,1.62,14.22,224,2008,7915,-1,0,0
-20.07,1.62,14.22,224,1994,7921,-1,-1,0
-20.07,1.63,14.22,230,1995,7911,0,-1,0
-20.08,1.63,14.23,231,2006,7899,0,-1,0
-20.08,1.64,14.24,232,2011,7903,0,-1,0
-20.08,1.64,14.23,240,2007,7896,0,-1,0
-20.09,1.64,14.23,235,2008,7903,0,-1,0
-20.09,1.65,14.23,237,2001,7907,-1,-1,0
-20.09,1.65,14.23,240,2000,7904,0,-1,0
-20.10,1.66,14.22,239,1997,7912,-1,0,0
-20.10,1.66,14.22,237,1996,7911,0,0,0
-20.10,1.66,14.23,238,1999,7902,0,-1,0
-20.10,1.66,14.23,244,2001,7903,0,-1,0
-20.10,1.66,14.24,244,2013,7911,0,0,0
-20.10,1.66,14.24,243,2010,7906,-1,0,0
-20.11,1.66,14.24,244,2000,7902,-1,0,0
-20.11,1.66,14.24,235,1996,7908,0,-1,0
-20.11,1.66,14.24,226,2005,7894,0,-1,0
-20.11,1.66,14.25,231,2004,7889,0,-1,0
-20.12,1.67,14.25,235,2015,7888,0,-1,0
-20.12,1.67,14.25,230,2011,7884,0,-1,0
-20.12,1.67,14.25,231,2012,7900,-1,-1,0
-20.13,1.67,14.25,239,2006,7902,-1,-1,0
-20.13,1.67,14.24,241,1997,7900,0,0,0
-20.13,1.67,14.25,242,2001,7894,0,-1,0
-20.13,1.67,14.25,244,2005,7902,0,0,0
-20.13,1.67,14.26,241,2013,7895,0,0,-1
-20.12,1.67,14.26,246,2020,7896,-1,0,-1
-20.13,1.67,14.25,247,2005,7901,-1,0,0
-20.13,1.66,14.25,238,1998,7908,0,0,-1
-20.12,1.66,14.25,233,1998,7906,0,0,-1
-20.11,1.66,14.25,235,2007,7898,0,0,-1
-20.11,1.65,14.25,226,2007,7897,0,-1,-1
-20.10,1.65,14.26,236,2014,7905,0,0,-1
-20.10,1.64,14.26,228,2010,7900,0,0,-1
-20.10,1.64,14.26,250,1990,7895,0,0,-1
-20.09,1.63,14.27,231,2004,7905,0,0,-1
-20.09,1.63,14.27,231,2004,7893,-1,0,-1
-20.08,1.63,14.27,231,1996,7905,-1,0,-1
-20.08,1.62,14.26,232,2002,7900,-1,0,0
-20.08,1.62,14.25,224,2005,7905,-1,0,0
-20.08,1.61,14.25,219,1993,7898,-1,0,0
-20.09,1.62,14.25,233,1989,7906,0,-1,0
-20.08,1.62,14.26,242,1999,7902,0,0,-1
-20.08,1.62,14.26,235,2004,7903,0,0,-1
-20.08,1.61,14.25,233,2002,7909,-1,0,-1
-20.08,1.60,14.25,220,1994,7910,-1,0,-1
-20.07,1.60,14.25,223,1993,7906,0,0,-1
-20.07,1.60,14.25,221,2003,7909,0,0,-1
-20.06,1.60,14.26,226,2019,7904,-1,0,-1
-20.06,1.60,14.25,223,2005,7905,-1,0,0
-20.07,1.60,14.26,226,2001,7903,0,0,0
-20.06,1.59,14.25,226,1999,7905,0,0,-1
-20.06,1.59,14.26,220,2011,7900,0,0,-1
-20.06,1.58,14.26,211,2018,7900,0,0,-1
-20.05,1.58,14.26,208,2015,7900,-1,0,-1
-20.05,1.57,14.25,221,2007,7911,-1,0,0
-20.05,1.58,14.25,229,2001,7899,-1,0,-1
-20.05,1.57,14.25,234,1989,7886,0,0,-1
-20.05,1.57,14.25,235,1997,7892,0,0,-1
-20.05,1.56,14.25,234,2011,7903,-1,0,-1
-20.04,1.56,14.25,231,2012,7908,-1,0,-1
-20.04,1.54,14.25,221,2020,7911,-1,0,-1
-20.03,1.53,14.25,226,2009,7915,-1,0,-1
-20.03,1.53,14.24,225,2002,7910,0,0,-1
-20.02,1.53,14.25,218,2001,7909,0,0,-1
-20.02,1.53,14.24,221,2002,7900,-1,0,-1
-20.01,1.52,14.24,228,1998,7902,-1,0,-1
-20.01,1.51,14.24,218,1996,7904,-1,0,-1
-20.01,1.50,14.24,209,2000,7903,0,0,-1
-20.01,1.50,14.25,208,2009,7911,0,-1,-1
-20.01,1.50,14.25,209,2013,7902,-1,0,0
-20.01,1.50,14.24,215,2013,7890,-1,0,0
-20.01,1.49,14.23,222,1998,7909,-1,0,-1
-20.00,1.49,14.23,219,2001,7904,0,0,-1
-20.00,1.49,14.23,215,2005,7903,-1,0,-1
-20.00,1.48,14.23,215,2007,7915,-1,0,-1
-20.00,1.47,14.23,200,2008,7905,-1,0,-1
-19.99,1.46,14.22,202,1999,7906,-1,0,-1
-19.99,1.46,14.22,209,2003,7908,0,0,-1
-19.99,1.46,14.22,213,2004,7899,0,0,-1
-19.98,1.45,14.23,216,2011,7891,-1,0,-1
-19.98,1.44,14.23,210,2011,7903,-1,0,-1
-19.98,1.43,14.22,199,2012,7900,-1,0,-1
-19.98,1.42,14.22,196,2006,7904,-1,0,-1
-19.98,1.42,14.22,198,1994,7908,-1,0,-1
-19.98,1.42,14.22,203,1984,7902,0,-1,-1
-19.97,1.42,14.22,210,1984,7891,0,0,-1
-19.97,1.41,14.23,211,2001,7885,0,0,-1
-19.96,1.41,14.23,213,2005,7894,0,0,-1
-19.96,1.41,14.23,203,2006,7906,-1,0,-1
-19.95,1.40,14.23,197,2006,7910,0,0,-1
-19.95,1.39,14.24,200,2009,7907,0,0,-1
-19.95,1.39,14.24,193,2014,7904,-1,0,-1
-19.95,1.39,14.24,202,1995,7901,-1,0,0
-19.95,1.39,14.24,186,1990,7907,0,-1,-1
-19.94,1.38,14.24,184,2011,7897,0,-1,-1
-19.94,1.39,14.25,188,2021,7903,-1,-1,0
-19.94,1.39,14.25,202,2016,7894,0,0,0
-19.95,1.39,14.26,203,2017,7900,0,-1,0
-19.95,1.39,14.26,192,2009,7901,-1,-1,0
-19.95,1.40,14.25,197,2000,7902,-1,-1,0
-19.95,1.40,14.25,205,2002,7897,0,0,0
-19.95,1.40,14.25,208,1999,7905,0,-1,0
-19.95,1.41,14.25,218,2000,7907,0,-1,0
