Yaw,Pitch,Roll,AX,AY,AZ,GX,GY,GZ
-165.53,7.91,-57.05,1147,-6894,4472,0,0,0
-165.55,7.90,-57.06,1157,-6899,4470,-2,-1,0
-165.56,7.89,-57.07,1156,-6924,4462,0,0,0
-165.59,7.86,-57.08,1155,-6936,4478,-1,0,0
-165.61,7.83,-57.08,1151,-6925,4478,0,0,0
-165.64,7.81,-57.09,1123,-6920,4475,-2,0,0
-165.66,7.79,-57.10,1109,-6930,4475,0,-1,0
-165.68,7.78,-57.11,1101,-6938,4454,-1,-1,0
-165.69,7.77,-57.09,1113,-6911,4485,0,-1,0
-165.69,7.77,-57.11,1117,-6955,4459,0,-1,0
-165.70,7.77,-57.09,1119,-6930,4483,0,-1,0
-165.72,7.77,-57.10,1128,-6952,4473,0,-1,0
-165.73,7.78,-57.09,1151,-6887,4483,-1,-1,0
-165.75,7.77,-57.11,1133,-6901,4464,-1,0,0
-165.75,7.76,-57.10,1115,-6887,4459,0,-1,-1
-165.75,7.76,-57.11,1107,-6934,4474,-1,-1,-1
-165.76,7.77,-57.10,1112,-6937,4444,1,-1,-1
-165.73,7.79,-57.08,1118,-6923,4489,-1,-1,-1
-165.72,7.80,-57.08,1162,-6907,4516,-1,0,0
-165.73,7.80,-57.10,1117,-6932,4440,0,-1,-1
-165.72,7.80,-57.08,1159,-6897,4506,-1,0,0
-165.73,7.79,-57.09,1113,-6937,4454,0,-1,-1
-165.72,7.81,-57.09,1130,-6936,4514,-2,0,-1
-165.72,7.80,-57.09,1109,-6935,4462,1,-1,-1
-165.71,7.81,-57.08,1114,-6922,4489,-1,-1,-1
-165.71,7.82,-57.08,1148,-6912,4485,0,0,0
-165.70,7.82,-57.10,1117,-6917,4465,-1,0,-1
-165.70,7.82,-57.09,1146,-6911,4511,-1,-1,0
-165.70,7.83,-57.12,1110,-6942,4402,1,0,-1
-165.68,7.84,-57.09,1137,-6922,4490,-1,0,-1
-165.68,7.84,-57.10,1120,-6941,4447,1,0,-1
-165.66,7.86,-57.08,1112,-6926,4484,-1,-1,-1
-165.65,7.87,-57.09,1141,-6925,4462,0,-1,-1
-165.63,7.89,-57.09,1148,-6912,4472,-1,0,-1
-165.63,7.89,-57.08,1168,-6905,4483,0,-1,0
-165.63,7.89,-57.09,1124,-6944,4445,0,-1,-1
-165.62,7.90,-57.06,1163,-6908,4517,-1,0,-1
-165.61,7.91,-57.09,1127,-6948,4456,0,0,-1
-165.60,7.92,-57.07,1156,-6918,4496,-1,-1,-1
-165.60,7.92,-57.08,1137,-6931,4446,0,0,-1
-165.59,7.93,-57.06,1134,-6919,4505,-1,-1,-1
-165.58,7.94,-57.06,1154,-6909,4475,0,0,-1
-165.58,7.94,-57.07,1144,-6924,4503,-2,-1,-1
-165.58,7.94,-57.07,1153,-6920,4472,0,0,0
-165.57,7.95,-57.07,1121,-6941,4461,0,0,-1
-165.55,7.96,-57.05,1167,-6905,4488,0,-1,-1
-165.54,7.98,-57.05,1150,-6922,4481,0,0,-1
-165.53,7.99,-57.04,1160,-6921,4503,-1,-1,-1
-165.52,8.00,-57.05,1158,-6928,4452,0,0,-1
-165.52,7.99,-57.03,1152,-6909,4498,-1,-1,-1
-165.51,8.00,-57.04,1146,-6925,4444,0,0,-1
-165.50,8.01,-57.03,1163,-6902,4482,-1,-1,-1
-165.49,8.02,-57.03,1162,-6930,4485,0,-1,0
-165.48,8.03,-57.04,1158,-6934,4471,-1,-1,-1
-165.47,8.04,-57.03,1182,-6914,4488,0,0,-1
-165.47,8.04,-57.04,1156,-6921,4461,-1,-1,-1
-165.47,8.04,-57.03,1180,-6901,4479,0,-1,0
-165.47,8.05,-57.04,1154,-6927,4457,0,-1,-1
-165.47,8.05,-57.04,1167,-6924,4487,-1,-1,-1
-165.46,8.06,-57.05,1147,-6936,4436,0,0,-1
-165.44,8.07,-57.03,1178,-6898,4518,-1,0,-1
-165.45,8.06,-57.06,1170,-6935,4476,-1,-1,0
-165.44,8.06,-57.06,1164,-6905,4482,-1,0,-1
-165.45,8.07,-57.06,1162,-6914,4473,-1,-1,0
-165.44,8.07,-57.07,1155,-6925,4470,-1,-1,-1
-165.44,8.08,-57.06,1178,-6918,4483,0,-1,0
-165.43,8.08,-57.06,1168,-6939,4471,0,0,-1
-165.42,8.09,-57.06,1174,-6906,4490,0,-1,-1
-165.42,8.09,-57.06,1189,-6942,4472,0,0,-1
-165.42,8.09,-57.05,1179,-6897,4481,0,-1,0
-165.42,8.09,-57.05,1178,-6892,4463,0,0,-1
-165.43,8.08,-57.04,1194,-6895,4518,-2,-1,0
-165.44,8.08,-57.06,1166,-6936,4446,0,-1,0
-165.44,8.07,-57.06,1176,-6943,4485,-1,-1,0
-165.44,8.07,-57.06,1161,-6932,4487,0,-1,-1
-165.44,8.08,-57.05,1172,-6909,4490,-1,0,-1
-165.44,8.07,-57.06,1140,-6898,4474,-1,0,-1
-165.44,8.08,-57.06,1170,-6910,4470,-1,-1,-1
-165.44,8.08,-57.08,1163,-6938,4466,-1,-1,0
-165.44,8.08,-57.08,1175,-6955,4466,0,0,-1
-165.44,8.09,-57.07,1184,-6938,4471,0,-1,-1
-165.43,8.09,-57.05,1202,-6906,4481,0,0,0
-165.44,8.07,-57.05,1167,-6899,4494,-1,-1,0
-165.46,8.05,-57.06,1148,-6923,4474,0,0,0
-165.47,8.05,-57.06,1152,-6936,4489,-1,-1,-1
-165.46,8.05,-57.06,1176,-6924,4476,0,0,0
-165.47,8.06,-57.06,1155,-6925,4465,-1,-1,-1
-165.46,8.05,-57.06,1207,-6887,4475,0,0,0
-165.48,8.04,-57.07,1164,-6917,4483,-1,-1,0
-165.49,8.03,-57.07,1167,-6899,4501,0,0,0
-165.51,8.02,-57.09,1140,-6952,4456,-1,-1,0
-165.51,8.01,-57.09,1167,-6915,4458,0,0,0
-165.52,8.00,-57.09,1166,-6935,4467,-1,0,0
-165.53,7.99,-57.09,1159,-6912,4480,-1,-1,0
-165.54,7.98,-57.09,1155,-6928,4499,-1,0,0
-165.55,7.97,-57.11,1172,-6901,4461,-1,0,0
-165.57,7.96,-57.12,1139,-6947,4447,0,0,0
-165.58,7.95,-57.11,1154,-6908,4475,0,0,0
-165.60,7.93,-57.11,1132,-6938,4505,-1,-1,0
-165.61,7.92,-57.11,1151,-6904,4481,-1,0,0
-165.62,7.91,-57.13,1120,-6928,4465,0,0,-1
-165.63,7.91,-57.13,1132,-6920,4463,-1,-1,0
-165.63,7.91,-57.13,1153,-6925,4456,0,0,0
-165.64,7.90,-57.14,1136,-6959,4485,-1,-1,0
-165.63,7.90,-57.13,1139,-6933,4412,1,0,-1
-165.63,7.90,-57.10,1150,-6913,4500,-1,-1,-1
-165.63,7.90,-57.11,1154,-6914,4458,0,0,0
-165.63,7.91,-57.10,1137,-6907,4491,-1,-1,-1
-165.63,7.91,-57.11,1151,-6928,4459,0,-1,0
-165.64,7.91,-57.10,1153,-6916,4448,0,-1,-1
-165.64,7.91,-57.10,1136,-6918,4471,0,-1,0
-165.64,7.92,-57.09,1147,-6927,4459,0,-1,-1
-165.63,7.93,-57.08,1140,-6927,4495,0,-1,-1
-165.62,7.94,-57.07,1149,-6924,4484,0,-1,-1
-165.62,7.94,-57.06,1147,-6897,4485,0,-1,-1
-165.62,7.95,-57.06,1133,-6916,4484,-1,-1,-1
-165.61,7.96,-57.06,1156,-6903,4484,0,-1,0
-165.61,7.96,-57.07,1138,-6938,4465,-1,-1,-1
-165.60,7.96,-57.06,1162,-6912,4473,0,0,0
-165.61,7.97,-57.07,1143,-6928,4449,0,-1,-1
-165.59,7.97,-57.06,1164,-6898,4478,-1,-1,0
-165.60,7.98,-57.07,1137,-6914,4461,0,0,-1
-165.59,7.98,-57.06,1162,-6904,4502,-1,0,-1
-165.59,7.98,-57.07,1146,-6928,4437,0,0,-1
-165.58,7.98,-57.06,1158,-6902,4514,-1,-1,-1
-165.58,7.98,-57.08,1162,-6936,4459,0,0,0
-165.58,7.98,-57.08,1136,-6922,4469,-1,-1,-1
-165.58,7.99,-57.07,1161,-6906,4476,0,0,-1
-165.58,8.00,-57.08,1137,-6947,4460,-1,-1,-1
-165.57,8.00,-57.07,1165,-6904,4477,0,0,-1
-165.57,8.01,-57.09,1145,-6948,4456,-1,-1,-1
-165.56,8.01,-57.07,1155,-6916,4480,0,0,-1
-165.56,8.02,-57.08,1144,-6939,4475,0,-1,-1
-165.55,8.03,-57.08,1167,-6909,4486,-1,-1,-1
-165.55,8.03,-57.09,1157,-6920,4462,0,0,-1
-165.54,8.04,-57.09,1156,-6915,4448,-1,0,-1
-165.54,8.04,-57.09,1160,-6934,4439,0,-1,-1
-165.53,8.05,-57.08,1174,-6934,4463,0,0,-1
-165.52,8.06,-57.07,1175,-6919,4485,0,0,0
-165.52,8.06,-57.07,1156,-6919,4498,-1,-1,-1
-165.52,8.06,-57.07,1171,-6897,4489,0,0,0
-165.51,8.07,-57.08,1169,-6922,4489,-1,-1,-1
-165.51,8.07,-57.10,1178,-6917,4460,-1,0,0
-165.52,8.07,-57.10,1149,-6958,4457,0,-1,-1
-165.50,8.07,-57.08,1189,-6903,4481,0,0,-1
-165.50,8.08,-57.08,1170,-6926,4483,-1,0,-1
-165.50,8.08,-57.08,1164,-6912,4469,-1,0,-1
-165.50,8.08,-57.09,1164,-6923,4467,0,-1,-1
-165.50,8.08,-57.08,1171,-6914,4486,-1,0,-1
-165.49,8.09,-57.09,1176,-6930,4439,0,0,-1
-165.48,8.09,-57.06,1168,-6954,4455,0,-1,-1
-165.47,8.10,-57.03,1161,-6897,4454,1,-1,-1
-165.48,8.10,-57.02,1150,-6892,4516,-1,-1,-1
-165.46,8.11,-57.01,1154,-6893,4495,0,-1,-1
-165.46,8.13,-57.02,1177,-6910,4478,-1,-1,-1
-165.45,8.13,-57.02,1180,-6903,4478,0,-1,-1
-165.45,8.14,-57.03,1186,-6937,4469,-1,-1,-1
-165.46,8.14,-57.02,1174,-6921,4475,0,-1,-1
-165.45,8.14,-57.02,1185,-6928,4473,0,-1,-1
-165.45,8.15,-57.01,1167,-6911,4479,0,-1,-1
-165.45,8.15,-57.00,1170,-6921,4475,0,-1,-1
-165.45,8.15,-56.99,1173,-6900,4493,-1,-1,0
-165.45,8.16,-57.00,1178,-6909,4483,0,0,0
-165.45,8.15,-57.00,1178,-6917,4481,-1,-1,-1
-165.45,8.15,-57.00,1187,-6918,4469,0,0,0
-165.45,8.15,-56.99,1178,-6911,4483,-1,-1,0
-165.46,8.15,-56.99,1178,-6906,4487,0,0,0
-165.47,8.14,-56.99,1176,-6911,4481,-1,-1,-1
-165.47,8.14,-56.99,1177,-6912,4484,0,0,0
-165.47,8.15,-56.99,1169,-6913,4485,-1,-1,-1
-165.47,8.15,-56.99,1186,-6901,4490,0,0,0
-165.47,8.15,-56.99,1180,-6917,4469,0,-1,-1
-165.47,8.14,-56.98,1187,-6913,4491,0,0,0
-165.47,8.15,-56.98,1179,-6926,4483,-1,-1,-1
-165.47,8.14,-56.98,1181,-6912,4493,0,-1,0
-165.48,8.14,-56.99,1176,-6910,4473,-1,-1,0
-165.49,8.14,-56.99,1177,-6909,4467,0,-1,0
-165.49,8.14,-56.98,1161,-6916,4464,0,0,-1
-165.49,8.13,-56.98,1169,-6905,4493,0,-1,0
-165.49,8.14,-56.98,1184,-6907,4487,-1,0,-1
-165.49,8.14,-56.98,1182,-6894,4488,-1,-1,0
-165.49,8.13,-56.98,1186,-6902,4475,0,0,0
-165.51,8.13,-56.99,1170,-6908,4476,-1,-1,0
-165.51,8.13,-56.99,1171,-6922,4474,0,0,-1
-165.51,8.13,-56.98,1175,-6908,4491,-1,-1,0
-165.50,8.13,-56.99,1176,-6914,4487,0,0,0
-165.51,8.13,-56.98,1175,-6900,4494,0,-1,0
-165.51,8.12,-56.98,1188,-6900,4486,-1,0,0
-165.52,8.11,-56.99,1181,-6904,4492,-1,-1,0
-165.52,8.11,-57.00,1173,-6910,4477,-1,0,0
-165.54,8.10,-57.00,1160,-6913,4483,-1,-1,0
-165.53,8.10,-57.00,1177,-6910,4462,0,0,-1
-165.53,8.10,-56.99,1181,-6918,4499,0,0,0
-165.54,8.10,-56.99,1180,-6906,4480,0,-1,0
-165.54,8.10,-56.99,1178,-6899,4477,-1,-1,0
-165.55,8.09,-57.00,1169,-6901,4471,0,0,0
-165.55,8.09,-57.00,1159,-6905,4476,-1,-1,-1
-165.56,8.08,-57.01,1168,-6905,4476,0,0,0
-165.57,8.08,-57.01,1173,-6932,4480,-1,-1,0
-165.57,8.08,-57.01,1185,-6921,4485,-1,0,0
-165.58,8.07,-57.02,1167,-6911,4467,-1,0,0
-165.60,8.05,-57.01,1167,-6909,4484,-1,0,0
-165.61,8.04,-57.02,1148,-6921,4487,-1,0,-1
-165.61,8.03,-57.01,1162,-6900,4510,-1,0,0
-165.62,8.03,-57.03,1160,-6936,4476,-1,-1,0
-165.64,8.01,-57.03,1159,-6913,4491,-1,0,0
-165.65,8.00,-57.04,1145,-6928,4457,0,0,0
-165.66,8.00,-57.03,1147,-6907,4482,-1,-1,0
-165.67,7.99,-57.04,1152,-6936,4459,0,0,0
-165.67,7.99,-57.03,1161,-6918,4484,-1,-1,0
-165.68,7.99,-57.03,1155,-6919,4473,0,0,0
-165.69,7.98,-57.03,1157,-6895,4476,-1,-1,0
-165.70,7.97,-57.03,1153,-6911,4487,0,-1,0
-165.71,7.97,-57.03,1137,-6912,4495,-1,-1,0
-165.71,7.97,-57.03,1142,-6939,4470,0,-1,-1
-165.71,7.98,-57.03,1147,-6904,4493,-1,-1,-1
-165.71,7.98,-57.03,1162,-6904,4471,0,-1,0
-165.71,7.99,-57.04,1176,-6904,4466,-1,-1,0
-165.72,7.98,-57.05,1157,-6933,4445,0,0,0
-165.73,7.97,-57.04,1167,-6905,4478,-1,0,0
-165.73,7.96,-57.04,1129,-6919,4483,0,0,-1
-165.73,7.97,-57.04,1152,-6911,4503,-1,-1,-1
-165.72,7.98,-57.04,1152,-6910,4470,0,0,-1
-165.72,7.99,-57.04,1145,-6923,4496,-1,-1,-1
-165.71,8.00,-57.04,1158,-6917,4465,0,0,-1
-165.70,8.01,-57.03,1163,-6925,4479,-1,-1,-1
-165.70,8.01,-57.02,1169,-6890,4480,0,0,-1
-165.69,8.02,-57.03,1149,-6927,4465,-1,-1,-1
-165.68,8.02,-57.02,1176,-6886,4497,0,0,-1
-165.68,8.03,-57.03,1158,-6938,4480,-1,0,-1
-165.68,8.03,-57.03,1180,-6911,4489,-1,-1,0
-165.68,8.03,-57.04,1167,-6942,4449,0,0,0
-165.69,8.02,-57.02,1159,-6925,4502,-1,0,0
-165.68,8.02,-57.03,1152,-6908,4470,0,0,-1
-165.68,8.02,-57.03,1160,-6933,4499,-1,0,0
-165.68,8.02,-57.04,1157,-6912,4465,1,0,-1
-165.68,8.01,-57.03,1147,-6923,4507,-2,-1,-1
-165.68,8.02,-57.04,1159,-6919,4459,0,0,0
-165.67,8.02,-57.04,1169,-6915,4502,-1,0,-1
-165.68,8.02,-57.05,1169,-6932,4482,-1,-1,0
-165.67,8.02,-57.05,1168,-6901,4447,0,0,-1
-165.69,8.00,-57.05,1149,-6924,4518,-2,0,0
-165.68,8.00,-57.06,1149,-6902,4448,0,0,-1
-165.68,8.00,-57.08,1173,-6928,4490,-2,-1,0
-165.70,7.99,-57.08,1141,-6921,4465,0,0,0
-165.70,7.99,-57.09,1147,-6916,4487,-2,0,-1
-165.70,7.99,-57.10,1152,-6929,4472,0,0,0
-165.70,7.99,-57.10,1139,-6921,4453,0,0,-1
-165.70,7.99,-57.10,1156,-6938,4510,-2,-1,0
-165.70,7.99,-57.11,1139,-6938,4449,0,0,-1
-165.70,7.99,-57.10,1133,-6924,4460,-1,-1,-1
-165.69,8.00,-57.10,1123,-6915,4441,1,-1,-1
-165.67,8.02,-57.09,1176,-6927,4467,-1,-1,-1
-165.66,8.02,-57.08,1160,-6910,4500,0,-1,0
-165.67,8.03,-57.09,1162,-6928,4466,-1,-1,-1
-165.66,8.04,-57.08,1151,-6926,4471,0,-1,-1
-165.65,8.05,-57.07,1154,-6918,4465,0,0,-1
-165.64,8.06,-57.06,1171,-6899,4492,-1,-1,-1
-165.64,8.07,-57.07,1173,-6922,4477,0,-1,-1
-165.64,8.07,-57.07,1177,-6929,4479,-1,-1,0
-165.64,8.07,-57.07,1165,-6936,4454,0,0,-1
-165.63,8.08,-57.06,1157,-6930,4491,-1,-1,-1
-165.63,8.08,-57.06,1170,-6929,4482,0,0,0
-165.64,8.07,-57.06,1160,-6920,4472,-1,-1,0
-165.63,8.07,-57.05,1170,-6917,4492,0,0,0
-165.64,8.07,-57.06,1172,-6927,4448,-1,-1,0
-165.64,8.07,-57.06,1172,-6918,4476,0,0,0
-165.66,8.06,-57.07,1168,-6923,4465,-1,-1,0
-165.66,8.05,-57.06,1164,-6907,4484,-1,0,0
-165.67,8.04,-57.07,1165,-6947,4478,-1,-1,0
-165.67,8.04,-57.07,1152,-6913,4482,0,0,-1
-165.67,8.05,-57.07,1182,-6920,4475,-1,-1,-1
-165.67,8.05,-57.07,1174,-6905,4483,-1,0,0
-165.68,8.04,-57.08,1168,-6926,4451,0,0,0
-165.69,8.03,-57.08,1161,-6919,4505,-1,-1,0
-165.70,8.03,-57.09,1165,-6944,4461,0,0,0
-165.71,8.02,-57.09,1150,-6934,4478,-1,-1,0
-165.71,8.02,-57.09,1154,-6916,4455,1,0,0
-165.71,8.02,-57.08,1149,-6915,4476,-1,-1,-1
-165.70,8.03,-57.08,1171,-6917,4475,0,0,0
-165.71,8.03,-57.08,1167,-6932,4462,-1,-1,0
-165.71,8.02,-57.08,1183,-6921,4467,0,0,0
-165.72,8.02,-57.09,1144,-6942,4453,-1,-1,0
-165.71,8.01,-57.08,1169,-6893,4465,-1,0,-1
-165.73,8.00,-57.10,1149,-6942,4475,-2,-1,0
-165.74,7.99,-57.11,1139,-6943,4430,1,0,-1
-165.74,8.00,-57.10,1160,-6913,4492,-2,-1,0
-165.74,7.99,-57.11,1159,-6931,4461,0,0,0
-165.75,7.98,-57.11,1178,-6924,4477,-1,0,0
-165.75,7.97,-57.10,1153,-6898,4500,0,-1,0
-165.77,7.96,-57.13,1145,-6941,4478,-1,0,0
-165.77,7.95,-57.13,1151,-6907,4485,0,0,0
-165.79,7.94,-57.14,1155,-6936,4443,-1,-1,0
-165.79,7.94,-57.13,1141,-6904,4439,0,0,-1
-165.78,7.94,-57.13,1166,-6924,4504,-1,0,0
-165.80,7.93,-57.13,1129,-6914,4463,-1,-1,0
-165.79,7.93,-57.14,1142,-6935,4457,0,0,-1
-165.80,7.93,-57.14,1160,-6905,4466,-1,-1,0
-165.80,7.93,-57.15,1170,-6936,4471,0,1,0
-165.80,7.91,-57.15,1145,-6918,4469,-1,-1,0
-165.82,7.90,-57.15,1160,-6934,4470,0,0,0
-165.83,7.89,-57.18,1117,-6940,4446,-1,-1,0
-165.83,7.88,-57.18,1182,-6937,4477,0,0,0
-165.84,7.87,-57.18,1105,-6927,4455,-1,-1,0
-165.84,7.87,-57.19,1167,-6912,4452,-1,1,0
-165.85,7.85,-57.21,1126,-6949,4488,-1,-1,0
-165.86,7.86,-57.21,1161,-6909,4424,0,0,0
-165.87,7.83,-57.22,1114,-6951,4494,-2,-1,0
-165.87,7.84,-57.22,1148,-6931,4432,0,-1,0
-165.88,7.83,-57.22,1121,-6943,4466,-1,0,0
-165.89,7.81,-57.23,1123,-6924,4456,-1,0,0
-165.89,7.81,-57.24,1143,-6961,4484,-1,-1,0
-165.90,7.81,-57.25,1115,-6934,4425,0,0,0
-165.90,7.80,-57.25,1124,-6941,4426,-1,0,0
-165.90,7.80,-57.22,1146,-6915,4512,0,-1,0
-165.90,7.81,-57.23,1119,-6954,4463,-1,-1,-1
-165.89,7.81,-57.22,1120,-6924,4483,0,-1,-1
-165.89,7.82,-57.24,1137,-6954,4434,0,-1,0
-165.89,7.82,-57.23,1123,-6916,4467,-1,-1,-1
-165.88,7.84,-57.24,1148,-6953,4425,0,-1,0
-165.89,7.83,-57.22,1105,-6926,4457,0,-1,-1
-165.88,7.85,-57.22,1113,-6967,4463,0,-1,-1
-165.86,7.86,-57.21,1160,-6899,4433,1,1,-1
-165.86,7.85,-57.21,1107,-6955,4498,-1,-1,-1
-165.84,7.87,-57.20,1154,-6901,4457,1,0,-1
-165.84,7.88,-57.20,1141,-6946,4479,-2,-1,-1
-165.83,7.88,-57.21,1165,-6922,4453,0,0,0
-165.84,7.88,-57.23,1141,-6954,4432,-1,0,-1
-165.83,7.87,-57.21,1150,-6928,4513,-1,-1,0
-165.84,7.87,-57.24,1146,-6936,4431,1,0,-1
-165.82,7.87,-57.22,1133,-6922,4499,-2,-1,0
-165.82,7.89,-57.23,1137,-6928,4408,1,-1,-1
-165.81,7.88,-57.22,1135,-6910,4471,-2,0,0
-165.81,7.89,-57.23,1116,-6938,4453,0,-1,-1
-165.79,7.91,-57.23,1159,-6953,4473,-1,-1,-1
-165.78,7.92,-57.22,1142,-6944,4430,1,-1,-1
-165.77,7.93,-57.22,1145,-6927,4456,-1,0,-1
-165.77,7.93,-57.21,1138,-6914,4451,0,-1,-1
-165.76,7.95,-57.22,1146,-6926,4419,0,0,-1
-165.75,7.94,-57.20,1153,-6908,4481,-1,0,-1
-165.75,7.95,-57.21,1133,-6945,4456,-1,-1,-1
-165.74,7.97,-57.21,1175,-6907,4445,0,0,-1
-165.73,7.97,-57.21,1132,-6931,4453,0,-1,-1
-165.74,7.97,-57.21,1159,-6919,4457,-1,-1,0
-165.73,7.97,-57.21,1146,-6935,4448,0,-1,0
-165.73,7.98,-57.20,1163,-6917,4480,-1,-1,-1
-165.73,7.98,-57.21,1154,-6929,4449,0,-1,0
-165.73,7.98,-57.22,1166,-6933,4473,-1,0,-1
-165.73,7.99,-57.22,1181,-6931,4467,0,-1,0
-165.72,7.99,-57.22,1159,-6934,4440,-1,0,-1
-165.72,7.98,-57.21,1168,-6924,4493,-1,0,0
-165.73,7.99,-57.24,1160,-6951,4422,-1,-1,-1
-165.71,7.99,-57.23,1186,-6918,4474,-1,0,0
-165.72,7.99,-57.23,1146,-6921,4457,0,0,-1
-165.72,7.99,-57.24,1164,-6937,4432,-1,-1,0
-165.72,7.99,-57.23,1136,-6949,4441,0,-1,-1
-165.71,8.00,-57.23,1182,-6937,4468,0,-1,-1
-165.71,8.00,-57.22,1152,-6920,4447,0,-1,-1
-165.70,8.01,-57.21,1154,-6925,4475,-1,0,-1
-165.70,8.02,-57.21,1174,-6934,4466,0,-1,-1
-165.70,8.02,-57.21,1173,-6929,4462,-1,0,-1
-165.70,8.02,-57.21,1172,-6929,4450,0,0,0
-165.71,8.01,-57.22,1163,-6938,4435,-1,-1,0
-165.71,8.02,-57.22,1141,-6941,4449,0,-1,-1
-165.71,8.02,-57.22,1162,-6927,4435,0,0,0
-165.71,8.02,-57.21,1150,-6931,4472,-1,-1,-1
-165.71,8.02,-57.22,1178,-6938,4445,0,0,0
-165.71,8.01,-57.21,1157,-6929,4475,-1,-1,0
-165.71,8.01,-57.20,1165,-6916,4479,0,0,0
-165.72,8.01,-57.20,1159,-6932,4473,-1,-1,0
-165.73,8.00,-57.20,1172,-6924,4476,-1,0,0
-165.74,8.00,-57.22,1149,-6951,4463,-1,-1,-1
-165.74,8.00,-57.22,1169,-6932,4453,-1,-1,0
-165.74,7.99,-57.22,1162,-6954,4466,0,0,0
-165.75,7.98,-57.21,1159,-6923,4453,0,-1,0
-165.75,7.97,-57.20,1164,-6933,4481,0,0,0
-165.76,7.96,-57.21,1166,-6911,4482,-1,0,0
-165.78,7.95,-57.23,1148,-6955,4466,-1,-1,0
-165.78,7.94,-57.24,1153,-6932,4430,0,0,0
-165.78,7.93,-57.23,1134,-6952,4484,-1,0,-1
-165.78,7.93,-57.23,1171,-6932,4470,-1,0,0
-165.80,7.91,-57.24,1135,-6949,4444,0,0,0
-165.81,7.90,-57.23,1143,-6912,4470,-1,0,0
-165.82,7.90,-57.24,1125,-6954,4451,0,0,-1
-165.81,7.90,-57.23,1153,-6926,4499,-1,0,0
-165.82,7.90,-57.24,1141,-6954,4443,0,0,0
-165.82,7.88,-57.24,1127,-6918,4472,-1,-1,0
-165.82,7.89,-57.23,1155,-6934,4457,0,0,0
-165.83,7.88,-57.24,1129,-6911,4458,-1,-1,0
-165.83,7.88,-57.24,1161,-6931,4452,0,0,0
-165.84,7.88,-57.25,1127,-6937,4443,-1,-1,0
-165.84,7.87,-57.24,1136,-6930,4475,0,0,0
-165.85,7.87,-57.25,1125,-6947,4449,-1,-1,-1
-165.85,7.87,-57.25,1161,-6924,4449,0,0,0
-165.86,7.86,-57.25,1119,-6938,4446,-1,-1,-1
-165.86,7.87,-57.25,1156,-6923,4468,0,0,0
-165.87,7.86,-57.25,1121,-6937,4452,-1,-1,-1
-165.87,7.86,-57.25,1137,-6927,4440,0,0,0
-165.87,7.86,-57.25,1109,-6938,4434,0,-1,-1
-165.87,7.87,-57.25,1137,-6932,4469,-1,0,0
-165.87,7.87,-57.26,1163,-6921,4433,-1,0,0
-165.88,7.85,-57.26,1133,-6928,4494,-1,-1,0
-165.89,7.85,-57.28,1146,-6907,4449,-1,1,0
-165.88,7.84,-57.29,1124,-6935,4511,-1,-1,-1
-165.90,7.84,-57.31,1119,-6967,4420,0,-1,-1
-165.89,7.84,-57.29,1126,-6897,4435,0,0,-1
-165.89,7.85,-57.30,1102,-6985,4436,-1,-2,-1
-165.87,7.86,-57.27,1128,-6914,4432,1,0,-1
-165.86,7.87,-57.26,1131,-6938,4503,-1,-1,-1
-165.85,7.89,-57.28,1142,-6910,4427,0,-1,-1
-165.85,7.89,-57.28,1170,-6954,4462,-1,-1,-1
-165.85,7.89,-57.28,1137,-6924,4424,0,0,-1
-165.83,7.90,-57.27,1134,-6968,4435,0,0,-1
-165.82,7.92,-57.25,1154,-6920,4436,1,-2,0
-165.80,7.94,-57.23,1134,-6907,4439,0,-1,-1
-165.80,7.95,-57.21,1147,-6919,4472,0,-1,-1
-165.79,7.96,-57.20,1154,-6926,4449,0,-1,-1
-165.78,7.97,-57.20,1169,-6932,4486,-1,-1,0
-165.78,7.98,-57.22,1135,-6950,4440,0,-1,-1
-165.77,7.99,-57.21,1167,-6933,4462,-1,0,-1
-165.77,7.99,-57.20,1144,-6929,4443,0,-1,-1
-165.76,8.00,-57.20,1146,-6939,4453,-1,-1,-1
-165.75,8.01,-57.19,1167,-6928,4465,0,-1,-1
-165.74,8.02,-57.19,1156,-6942,4460,0,-1,-1
-165.73,8.03,-57.19,1186,-6910,4472,-1,0,0
-165.73,8.03,-57.20,1144,-6943,4462,-1,-1,-1
-165.72,8.04,-57.20,1178,-6948,4443,0,0,-1
-165.71,8.04,-57.18,1156,-6929,4454,0,-1,-1
-165.71,8.05,-57.18,1171,-6906,4462,-1,-1,0
-165.71,8.05,-57.19,1152,-6938,4449,0,-1,-1
-165.70,8.06,-57.18,1162,-6938,4447,0,0,-1
-165.70,8.06,-57.17,1168,-6914,4465,0,0,-1
-165.69,8.06,-57.17,1174,-6919,4480,-1,-1,-1
-165.70,8.06,-57.17,1169,-6909,4463,0,-1,0
-165.69,8.07,-57.18,1168,-6928,4457,0,-1,-1
-165.69,8.08,-57.17,1180,-6913,4444,0,0,0
-165.68,8.08,-57.16,1155,-6952,4455,0,-1,-1
-165.67,8.09,-57.14,1168,-6928,4491,0,-1,-1
-165.66,8.11,-57.15,1177,-6932,4472,-1,-1,-1
-165.66,8.11,-57.14,1181,-6904,4480,-1,-1,0
-165.66,8.11,-57.14,1182,-6915,4474,0,0,0
-165.66,8.11,-57.14,1188,-6910,4472,-1,-1,0
-165.68,8.09,-57.15,1171,-6940,4468,0,0,0
-165.68,8.10,-57.15,1159,-6948,4461,0,-1,-1
-165.67,8.10,-57.14,1173,-6934,4472,0,-1,-1
-165.68,8.10,-57.15,1168,-6920,4471,-1,-1,0
-165.68,8.10,-57.14,1168,-6908,4480,-1,-1,0
-165.68,8.10,-57.14,1168,-6935,4481,-1,-1,-1
-165.68,8.10,-57.14,1180,-6922,4478,-1,-1,0
-165.68,8.10,-57.14,1187,-6938,4471,0,0,0
-165.68,8.10,-57.13,1186,-6921,4480,0,-1,0
-165.69,8.09,-57.13,1166,-6932,4471,0,0,0
-165.69,8.09,-57.12,1159,-6921,4483,-1,-1,0
-165.69,8.09,-57.13,1165,-6934,4465,0,0,-1
-165.70,8.09,-57.13,1186,-6914,4481,-1,-1,0
-165.71,8.08,-57.13,1172,-6932,4449,0,0,0
-165.71,8.08,-57.12,1182,-6919,4485,0,0,0
-165.71,8.08,-57.13,1159,-6937,4456,0,0,0
-165.72,8.07,-57.13,1159,-6925,4468,-1,-1,0
-165.73,8.06,-57.13,1153,-6937,4445,0,0,0
-165.73,8.06,-57.11,1162,-6914,4475,-1,-1,0
-165.73,8.06,-57.12,1166,-6930,4452,0,0,0
-165.73,8.06,-57.12,1168,-6926,4476,-1,-1,0
-165.73,8.06,-57.12,1168,-6922,4465,0,0,0
-165.74,8.05,-57.13,1165,-6917,4470,-1,-1,0
-165.74,8.05,-57.13,1180,-6921,4474,0,0,0
-165.75,8.04,-57.12,1173,-6924,4489,-1,-1,0
-165.76,8.03,-57.13,1165,-6926,4469,0,0,0
-165.77,8.03,-57.14,1158,-6924,4471,-1,-1,0
-165.77,8.03,-57.13,1164,-6913,4457,0,0,0
-165.78,8.03,-57.13,1175,-6915,4460,-1,-1,0
-165.78,8.03,-57.13,1169,-6915,4474,0,0,0
-165.79,8.02,-57.13,1172,-6934,4481,-1,-1,0
-165.79,8.01,-57.14,1163,-6931,4467,0,0,0
-165.80,8.00,-57.14,1153,-6930,4464,-1,-1,0
-165.81,8.00,-57.14,1142,-6930,4452,0,0,0
-165.82,7.99,-57.15,1152,-6929,4457,0,0,0
-165.81,7.99,-57.14,1161,-6923,4477,0,0,0
-165.82,7.98,-57.13,1149,-6914,4496,-1,0,0
-165.82,7.97,-57.15,1147,-6915,4454,0,0,0
-165.83,7.96,-57.15,1131,-6910,4473,-1,-1,0
-165.84,7.96,-57.16,1135,-6932,4446,0,0,0
-165.84,7.96,-57.16,1146,-6938,4458,-1,-1,0
-165.84,7.96,-57.15,1157,-6928,4454,0,0,0
-165.84,7.96,-57.15,1163,-6908,4471,-1,0,0
-165.84,7.95,-57.14,1154,-6914,4482,0,0,0
-165.85,7.95,-57.15,1148,-6915,4479,-1,-1,0
-165.85,7.94,-57.16,1157,-6932,4466,0,0,0
-165.86,7.94,-57.17,1149,-6939,4469,-1,-1,0
-165.86,7.94,-57.16,1161,-6928,4470,0,0,0
-165.87,7.94,-57.16,1147,-6929,4473,-1,-1,0
-165.87,7.93,-57.15,1146,-6916,4483,0,-1,0
-165.88,7.94,-57.16,1149,-6923,4470,-1,-1,0
-165.88,7.94,-57.16,1138,-6928,4461,0,-1,-1
-165.87,7.94,-57.16,1145,-6928,4466,-1,-1,0
-165.88,7.95,-57.16,1146,-6918,4463,0,-1,0
-165.88,7.95,-57.15,1163,-6910,4450,0,-1,0
-165.88,7.95,-57.14,1131,-6932,4472,0,-1,-1
-165.88,7.95,-57.14,1144,-6916,4473,-1,0,-1
-165.87,7.95,-57.14,1144,-6933,4474,0,-1,-1
-165.88,7.95,-57.14,1135,-6930,4462,-1,-1,-1
-165.86,7.97,-57.14,1162,-6928,4447,0,0,-1
-165.86,7.97,-57.13,1166,-6935,4487,-1,0,0
-165.86,7.96,-57.13,1168,-6913,4479,0,0,0
-165.87,7.95,-57.15,1140,-6931,4472,-1,0,-1
-165.87,7.95,-57.15,1164,-6919,4471,0,0,0
-165.87,7.95,-57.16,1133,-6934,4448,-1,0,-1
-165.86,7.95,-57.15,1161,-6914,4499,-1,-1,0
-165.87,7.95,-57.17,1135,-6951,4433,-1,-1,-1
-165.86,7.96,-57.16,1170,-6918,4487,-1,0,0
-165.86,7.96,-57.17,1138,-6932,4438,0,-1,-1
-165.85,7.96,-57.16,1138,-6923,4499,-1,-1,-1
-165.84,7.97,-57.15,1160,-6923,4476,0,0,-1
-165.84,7.97,-57.16,1155,-6935,4471,-1,-1,-1
-165.84,7.97,-57.15,1140,-6920,4469,0,0,0
-165.83,7.98,-57.16,1143,-6946,4458,-1,-1,-1
-165.82,7.99,-57.16,1151,-6919,4473,0,-1,-1
-165.81,8.00,-57.15,1149,-6924,4466,0,0,-1
-165.80,8.00,-57.14,1177,-6900,4481,-1,-1,0
-165.80,8.00,-57.15,1146,-6937,4460,0,0,-1
-165.79,8.01,-57.15,1171,-6924,4484,-1,-1,0
-165.79,8.01,-57.16,1140,-6944,4437,0,0,-1
-165.78,8.03,-57.15,1159,-6925,4468,-1,-1,-1
-165.76,8.04,-57.15,1158,-6932,4448,0,0,-1
-165.75,8.05,-57.14,1174,-6927,4473,-1,0,-1
-165.74,8.06,-57.13,1167,-6924,4471,0,0,-1
-165.73,8.07,-57.13,1179,-6933,4476,-1,-1,-1
-165.72,8.07,-57.12,1188,-6914,4472,0,0,-1
-165.72,8.07,-57.12,1164,-6922,4480,-1,-1,-1
-165.72,8.08,-57.12,1174,-6918,4486,0,-1,-1
-165.71,8.09,-57.12,1169,-6941,4475,-1,-1,-1
-165.71,8.09,-57.12,1178,-6923,4476,0,0,-1
-165.70,8.09,-57.12,1172,-6932,4460,0,-1,-1
-165.70,8.10,-57.11,1178,-6917,4469,0,-1,-1
-165.69,8.11,-57.11,1177,-6931,4466,0,0,-1
-165.68,8.11,-57.10,1183,-6911,4491,-1,-1,0
-165.68,8.11,-57.11,1168,-6928,4467,0,0,-1
-165.68,8.12,-57.11,1177,-6928,4468,-1,-1,0
-165.68,8.12,-57.11,1168,-6930,4463,0,0,-1
-165.67,8.11,-57.11,1157,-6926,4470,-1,-1,-1
-165.67,8.12,-57.10,1179,-6930,4466,0,0,-1
-165.67,8.12,-57.09,1173,-6931,4483,-1,-1,0
-165.67,8.12,-57.09,1186,-6921,4477,0,0,0
-165.67,8.12,-57.10,1177,-6921,4463,-1,0,0
-165.68,8.11,-57.10,1164,-6906,4466,0,-1,0
-165.68,8.12,-57.11,1177,-6916,4461,-1,-1,-1
-165.68,8.11,-57.11,1172,-6913,4476,-1,0,0
-165.68,8.11,-57.12,1184,-6930,4470,-1,-1,0
-165.68,8.11,-57.12,1191,-6922,4460,0,0,0
-165.69,8.10,-57.12,1171,-6927,4465,-1,-1,0
-165.69,8.10,-57.11,1183,-6918,4485,-1,0,0
-165.70,8.09,-57.12,1157,-6943,4460,0,-1,0
-165.70,8.08,-57.10,1170,-6914,4506,-1,0,0
-165.71,8.08,-57.12,1159,-6930,4468,0,0,-1
-165.72,8.07,-57.12,1178,-6908,4482,-1,0,0
-165.72,8.07,-57.12,1167,-6937,4440,0,0,0
-165.73,8.06,-57.12,1162,-6913,4470,-1,-1,0
-165.73,8.06,-57.12,1173,-6940,4463,0,-1,0
-165.73,8.06,-57.11,1180,-6901,4483,0,0,0
-165.73,8.06,-57.11,1188,-6921,4497,-1,0,0
-165.74,8.05,-57.12,1181,-6918,4468,-1,0,0
-165.74,8.04,-57.12,1168,-6920,4479,0,0,0
-165.76,8.03,-57.13,1152,-6928,4477,-1,-1,0
-165.76,8.03,-57.13,1168,-6935,4463,0,0,0
-165.77,8.03,-57.13,1158,-6924,4474,-1,-1,0
-165.76,8.02,-57.13,1157,-6932,4472,0,0,0
-165.77,8.02,-57.13,1155,-6925,4476,-1,-1,0
-165.77,8.02,-57.13,1168,-6931,4474,0,-1,0
-165.77,8.01,-57.13,1162,-6922,4474,-1,0,0
-165.78,8.01,-57.13,1174,-6920,4475,0,0,0
-165.79,8.00,-57.14,1156,-6931,4466,-1,-1,0
-165.80,7.99,-57.14,1164,-6915,4463,0,0,0
-165.80,7.99,-57.15,1159,-6925,4470,-1,-1,0
-165.81,7.98,-57.15,1149,-6933,4461,0,-1,0
-165.81,7.98,-57.15,1152,-6927,4453,0,-1,0
-165.81,7.98,-57.15,1160,-6923,4460,0,0,0
-165.82,7.98,-57.16,1154,-6925,4466,-1,-1,0
-165.82,7.97,-57.16,1150,-6938,4459,-1,-1,0
-165.84,7.96,-57.17,1152,-6936,4446,-1,-1,0
-165.84,7.96,-57.17,1147,-6930,4431,0,0,-1
-165.83,7.97,-57.15,1163,-6920,4463,0,-1,0
-165.84,7.96,-57.15,1152,-6930,4461,0,0,0
-165.84,7.96,-57.15,1151,-6923,4484,-1,-1,0
-165.85,7.96,-57.16,1145,-6927,4466,0,0,0
-165.85,7.95,-57.16,1145,-6925,4464,-1,-1,0
-165.85,7.95,-57.16,1154,-6924,4449,0,0,0
-165.86,7.95,-57.16,1152,-6918,4476,-1,-1,0
-165.86,7.95,-57.16,1149,-6928,4467,0,0,0
-165.87,7.95,-57.16,1142,-6931,4463,0,-1,0
-165.87,7.95,-57.16,1157,-6928,4474,0,0,0
-165.87,7.94,-57.16,1147,-6932,4471,-1,-1,0
-165.87,7.94,-57.16,1151,-6934,4474,0,0,0
-165.87,7.95,-57.16,1156,-6931,4474,-1,-1,0
-165.88,7.95,-57.16,1151,-6925,4462,0,-1,0
-165.87,7.94,-57.15,1149,-6915,4474,0,-1,0
-165.87,7.95,-57.15,1144,-6936,4464,0,-1,-1
-165.87,7.96,-57.15,1148,-6925,4467,0,-1,0
-165.86,7.96,-57.14,1142,-6935,4465,0,-1,-1
-165.87,7.96,-57.14,1153,-6918,4462,0,-1,0
-165.86,7.97,-57.13,1151,-6925,4469,0,0,-1
-165.85,7.98,-57.13,1163,-6915,4485,-1,-1,0
-165.85,7.99,-57.14,1144,-6926,4441,0,-1,-1
-165.84,7.99,-57.13,1156,-6916,4459,-1,-1,-1
-165.83,8.00,-57.13,1146,-6931,4452,0,-1,-1
-165.83,8.00,-57.12,1158,-6923,4477,-1,-1,-1
-165.82,8.01,-57.12,1151,-6921,4479,0,0,-1
-165.81,8.02,-57.12,1150,-6932,4490,-1,-1,-1
-165.80,8.03,-57.12,1158,-6925,4450,0,0,-1
-165.79,8.04,-57.11,1177,-6925,4485,-1,-1,-1
-165.79,8.04,-57.12,1173,-6918,4462,0,0,0
-165.79,8.05,-57.13,1162,-6936,4468,-1,-1,-1
-165.78,8.05,-57.12,1157,-6926,4460,0,0,-1
-165.77,8.06,-57.12,1154,-6944,4456,-1,-1,-1
-165.76,8.07,-57.12,1174,-6921,4462,0,-1,-1
-165.75,8.08,-57.11,1175,-6923,4469,-1,0,-1
-165.75,8.08,-57.10,1180,-6903,4486,0,-1,0
-165.75,8.08,-57.11,1161,-6933,4459,0,-1,-1
-165.74,8.09,-57.11,1175,-6915,4476,-1,-1,-1
-165.74,8.09,-57.12,1166,-6935,4451,0,-1,-1
-165.73,8.10,-57.11,1181,-6915,4476,-1,-1,-1
-165.72,8.11,-57.11,1167,-6926,4438,0,0,-1
-165.71,8.12,-57.10,1190,-6916,4493,-1,-1,-1
-165.70,8.12,-57.10,1176,-6934,4474,0,0,-1
-165.70,8.13,-57.10,1181,-6929,4486,-1,-1,0
-165.70,8.13,-57.10,1165,-6921,4463,0,0,-1
-165.69,8.14,-57.09,1179,-6918,4479,-1,-1,-1
-165.68,8.15,-57.09,1173,-6928,4478,0,0,-1
-165.67,8.16,-57.09,1188,-6925,4494,-1,-1,-1
-165.67,8.16,-57.09,1185,-6924,4473,0,0,-1
-165.67,8.16,-57.08,1182,-6926,4481,-1,-1,-1
-165.66,8.17,-57.08,1169,-6916,4473,0,0,-1
-165.65,8.17,-57.08,1184,-6920,4485,-1,-1,-1
-165.64,8.18,-57.07,1182,-6917,4467,0,0,-1
-165.63,8.19,-57.07,1193,-6913,4476,-1,-1,-1
-165.63,8.19,-57.07,1186,-6910,4465,0,-1,-1
-165.63,8.19,-57.08,1183,-6926,4465,-1,-1,-1
-165.63,8.19,-57.07,1179,-6921,4468,0,0,-1
-165.62,8.20,-57.07,1190,-6927,4472,0,-1,-1
-165.61,8.21,-57.06,1180,-6919,4474,0,-1,-1
-165.61,8.22,-57.06,1188,-6920,4478,0,-1,-1
-165.60,8.23,-57.05,1198,-6901,4487,-1,-1,-1
-165.60,8.23,-57.06,1202,-6905,4467,0,0,-1
-165.60,8.23,-57.06,1195,-6897,4465,-1,-1,0
-165.60,8.23,-57.06,1197,-6918,4444,0,0,-1
-165.60,8.23,-57.05,1191,-6923,4477,0,-1,-1
-165.60,8.23,-57.05,1185,-6931,4474,0,0,-1
-165.59,8.24,-57.05,1187,-6916,4480,-1,-1,-1
-165.59,8.24,-57.04,1193,-6904,4476,0,0,-1
-165.58,8.25,-57.04,1201,-6914,4469,-1,-1,-1
-165.58,8.25,-57.04,1207,-6918,4484,0,-1,0
-165.58,8.25,-57.04,1206,-6916,4488,-1,0,0
-165.59,8.24,-57.04,1196,-6911,4471,-1,0,0
-165.60,8.23,-57.05,1192,-6922,4470,-1,-1,0
-165.60,8.23,-57.05,1187,-6920,4474,0,0,0
-165.60,8.23,-57.05,1186,-6924,4462,0,-1,-1
-165.60,8.23,-57.05,1185,-6912,4482,0,-1,0
-165.60,8.23,-57.05,1194,-6916,4476,0,0,0
-165.61,8.22,-57.04,1197,-6908,4483,-1,0,0
-165.61,8.22,-57.05,1187,-6916,4470,-1,0,0
-165.62,8.21,-57.06,1188,-6909,4473,-1,-1,0
-165.62,8.21,-57.06,1186,-6916,4462,0,0,0
-165.63,8.21,-57.06,1184,-6913,4471,0,0,0
-165.63,8.20,-57.06,1179,-6918,4464,-1,0,0
-165.63,8.20,-57.06,1179,-6909,4475,-1,-1,0
-165.63,8.20,-57.06,1187,-6911,4474,-1,0,-1
-165.63,8.20,-57.06,1202,-6902,4476,-1,-1,0
-165.63,8.20,-57.06,1199,-6912,4474,-1,0,0
-165.64,8.19,-57.06,1191,-6927,4477,0,-1,0
-165.64,8.19,-57.06,1187,-6935,4471,0,0,-1
-165.64,8.18,-57.06,1189,-6910,4493,-1,0,0
-165.65,8.18,-57.07,1191,-6919,4477,-1,-1,0
-165.66,8.17,-57.07,1187,-6908,4477,-1,0,0
-165.66,8.17,-57.07,1186,-6930,4470,0,0,0
-165.67,8.16,-57.07,1188,-6922,4479,-1,-1,0
-165.68,8.15,-57.08,1184,-6922,4471,0,0,0
-165.69,8.14,-57.07,1186,-6911,4487,-1,-1,0
-165.70,8.14,-57.08,1170,-6917,4473,0,0,0
-165.70,8.14,-57.08,1181,-6918,4471,-1,0,0
-165.71,8.13,-57.09,1177,-6930,4479,0,-1,0
-165.71,8.13,-57.09,1184,-6918,4491,-1,0,0
-165.71,8.12,-57.10,1183,-6919,4461,-1,0,-1
-165.71,8.11,-57.09,1176,-6909,4487,-1,-1,0
-165.72,8.11,-57.10,1186,-6917,4455,0,0,0
-165.73,8.09,-57.11,1182,-6902,4489,-1,0,0
-165.74,8.09,-57.11,1159,-6924,4467,0,0,0
-165.75,8.08,-57.11,1170,-6918,4488,-1,-1,0
-165.75,8.08,-57.13,1164,-6929,4438,0,0,-1
-165.75,8.07,-57.12,1179,-6921,4480,-1,0,0
-165.76,8.06,-57.13,1157,-6941,4463,0,0,0
-165.76,8.06,-57.13,1196,-6911,4488,-1,-1,0
-165.77,8.05,-57.14,1178,-6920,4467,-1,0,0
-165.79,8.03,-57.14,1178,-6892,4480,-1,0,0
-165.80,8.02,-57.17,1176,-6929,4450,-1,0,0
-165.83,7.99,-57.19,1133,-6929,4461,-1,0,0
-165.82,7.99,-57.20,1168,-6938,4447,-1,0,-1
-165.84,7.97,-57.20,1142,-6950,4465,-1,-1,0
-165.84,7.97,-57.20,1136,-6923,4444,0,0,-1
-165.83,7.97,-57.20,1199,-6899,4509,-2,0,0
-165.86,7.95,-57.23,1141,-6933,4427,0,-1,0
-165.86,7.95,-57.23,1149,-6921,4471,-1,0,0
-165.87,7.94,-57.25,1166,-6934,4447,-1,0,0
-165.88,7.94,-57.25,1155,-6931,4462,-1,-1,0
-165.88,7.94,-57.25,1155,-6938,4409,0,-1,-1
-165.88,7.95,-57.24,1152,-6926,4463,-1,-1,0
-165.88,7.95,-57.24,1148,-6935,4433,0,-1,-1
-165.87,7.96,-57.22,1153,-6910,4467,0,-1,-1
-165.87,7.97,-57.23,1159,-6919,4459,-1,-1,-1
-165.86,7.97,-57.23,1162,-6919,4453,-1,-1,0
-165.86,7.98,-57.23,1149,-6944,4448,0,0,-1
-165.86,7.98,-57.21,1156,-6929,4470,-1,-1,0
-165.86,7.99,-57.22,1138,-6936,4451,0,-1,-1
-165.85,7.99,-57.21,1151,-6915,4468,-1,-1,-1
-165.85,8.00,-57.22,1150,-6949,4447,0,-1,-1
-165.84,8.01,-57.20,1166,-6928,4469,0,-1,-1
-165.82,8.02,-57.20,1187,-6914,4457,0,0,-1
-165.83,8.01,-57.20,1184,-6926,4469,-1,-1,0
-165.83,8.01,-57.21,1157,-6931,4435,0,0,-1
-165.82,8.02,-57.20,1182,-6906,4491,-1,0,-1
-165.82,8.02,-57.22,1171,-6923,4452,-1,0,0
-165.82,8.02,-57.22,1151,-6942,4460,-1,-1,-1
-165.81,8.02,-57.21,1156,-6917,4446,0,-1,-1
-165.80,8.04,-57.21,1176,-6932,4455,-1,-1,-1
-165.80,8.04,-57.21,1172,-6920,4464,0,-1,0
-165.80,8.04,-57.21,1170,-6939,4463,-1,-1,-1
-165.78,8.05,-57.21,1180,-6912,4456,0,0,-1
-165.78,8.05,-57.22,1173,-6938,4444,-1,-1,-1
-165.78,8.06,-57.21,1187,-6923,4447,0,0,-1
-165.77,8.06,-57.21,1164,-6942,4435,0,-1,-1
-165.77,8.07,-57.20,1172,-6908,4465,-1,-1,-1
-165.76,8.08,-57.21,1168,-6932,4440,0,-1,-1
-165.75,8.09,-57.20,1185,-6921,4452,0,0,-1
-165.74,8.10,-57.20,1179,-6935,4467,0,-1,-1
-165.74,8.10,-57.20,1186,-6934,4463,-1,-1,-1
-165.73,8.10,-57.20,1166,-6932,4445,0,0,-1
-165.73,8.11,-57.19,1173,-6920,4469,-1,-1,-1
-165.71,8.12,-57.19,1181,-6910,4464,0,0,-1
-165.71,8.13,-57.19,1192,-6926,4478,-1,-1,-1
-165.71,8.13,-57.18,1186,-6918,4454,0,0,-1
-165.70,8.13,-57.19,1174,-6931,4463,-1,-1,-1
-165.70,8.14,-57.18,1159,-6938,4439,0,-1,-1
-165.68,8.15,-57.16,1165,-6942,4453,0,-1,-1
-165.68,8.15,-57.15,1175,-6919,4469,0,-1,-1
-165.66,8.17,-57.15,1189,-6916,4464,0,-1,-1
-165.65,8.18,-57.14,1204,-6893,4482,0,-1,-1
-165.64,8.19,-57.14,1202,-6903,4468,-1,-1,-1
-165.64,8.19,-57.14,1198,-6904,4476,-1,-1,-1
-165.64,8.19,-57.14,1193,-6928,4465,0,0,-1
-165.63,8.20,-57.13,1203,-6917,4467,-1,-1,0
-165.63,8.20,-57.14,1191,-6923,4458,0,0,-1
-165.63,8.20,-57.13,1195,-6916,4482,-1,-1,0
-165.63,8.20,-57.13,1186,-6925,4471,0,0,-1
-165.63,8.20,-57.12,1181,-6908,4502,-1,-1,-1
-165.62,8.21,-57.12,1196,-6904,4480,0,0,-1
-165.62,8.21,-57.12,1202,-6906,4486,-1,-1,0
-165.62,8.21,-57.12,1197,-6909,4477,0,0,0
-165.63,8.21,-57.12,1196,-6911,4474,-1,0,0
-165.63,8.20,-57.13,1193,-6917,4481,-1,0,0
-165.63,8.20,-57.13,1205,-6926,4471,0,-1,0
-165.63,8.20,-57.12,1206,-6921,4486,0,0,0
-165.63,8.20,-57.12,1203,-6927,4479,-1,0,0
-165.63,8.19,-57.12,1191,-6898,4481,-1,0,0
-165.63,8.19,-57.12,1192,-6908,4469,-1,0,0
-165.64,8.19,-57.12,1188,-6915,4481,-1,-1,0
-165.64,8.19,-57.13,1197,-6939,4462,0,-1,0
-165.64,8.19,-57.12,1198,-6916,4480,-1,-1,0
-165.64,8.19,-57.13,1192,-6920,4459,-1,0,-1
-165.65,8.18,-57.13,1195,-6901,4465,-1,-1,0
-165.65,8.18,-57.13,1197,-6917,4456,0,0,0
-165.65,8.18,-57.13,1195,-6908,4478,-1,-1,0
-165.66,8.17,-57.14,1181,-6930,4468,-1,0,0
-165.67,8.17,-57.14,1188,-6926,4470,-1,-1,0
-165.66,8.17,-57.14,1194,-6921,4463,0,0,0
-165.67,8.17,-57.14,1199,-6900,4479,-1,-1,0
-165.67,8.16,-57.16,1179,-6917,4451,0,0,0
-165.67,8.15,-57.15,1195,-6917,4478,-1,0,0
-165.68,8.15,-57.16,1181,-6936,4446,0,0,0
-165.69,8.14,-57.15,1167,-6914,4475,-1,0,-1
-165.69,8.13,-57.16,1181,-6919,4466,-1,0,0
-165.69,8.13,-57.16,1190,-6901,4486,-1,-1,0
-165.69,8.14,-57.18,1204,-6923,4454,0,0,0
-165.69,8.14,-57.17,1202,-6914,4494,-1,0,0
-165.70,8.13,-57.18,1204,-6902,4476,-1,0,0
-165.71,8.12,-57.20,1188,-6919,4437,-1,-1,0
-165.71,8.12,-57.19,1200,-6912,4454,0,0,0
-165.72,8.11,-57.19,1180,-6926,4450,-1,0,0
-165.72,8.10,-57.18,1165,-6913,4459,0,0,0
-165.72,8.10,-57.19,1168,-6937,4464,-1,-1,-1
-165.72,8.10,-57.19,1192,-6915,4464,-1,-1,0
-165.72,8.10,-57.20,1185,-6930,4439,0,0,0
-165.73,8.09,-57.19,1193,-6905,4469,-1,0,0
-165.73,8.09,-57.19,1174,-6909,4457,0,0,0
-165.73,8.08,-57.19,1175,-6902,4489,-1,-1,0
-165.74,8.08,-57.20,1178,-6944,4456,0,0,0
-165.74,8.08,-57.20,1197,-6936,4467,-1,-1,0
-165.75,8.07,-57.20,1181,-6942,4444,0,0,0
-165.75,8.07,-57.20,1177,-6922,4462,0,0,0
-165.76,8.06,-57.20,1178,-6932,4456,0,0,0
-165.77,8.06,-57.20,1169,-6923,4472,-1,-1,0
-165.77,8.05,-57.20,1162,-6912,4466,0,0,0
-165.78,8.05,-57.20,1155,-6925,4466,-1,-1,-1
-165.78,8.05,-57.21,1167,-6934,4450,0,0,0
-165.78,8.05,-57.20,1171,-6935,4458,-1,-1,0
-165.78,8.05,-57.20,1178,-6923,4463,0,0,0
-165.79,8.04,-57.20,1176,-6913,4464,-1,-1,0
-165.79,8.04,-57.20,1169,-6914,4459,0,0,0
-165.79,8.04,-57.20,1176,-6923,4471,-1,-1,0
-165.78,8.05,-57.20,1178,-6916,4467,-1,0,-1
-165.79,8.04,-57.21,1180,-6925,4461,-1,-1,0
-165.79,8.04,-57.21,1163,-6923,4448,0,-1,-1
-165.79,8.05,-57.20,1177,-6922,4466,0,-1,-1
-165.78,8.06,-57.19,1170,-6911,4477,0,-1,-1
-165.78,8.06,-57.19,1178,-6917,4473,-1,-1,-1
-165.77,8.06,-57.19,1168,-6916,4456,0,-1,-1
-165.77,8.07,-57.20,1170,-6930,4458,-1,-1,-1
-165.77,8.06,-57.19,1172,-6923,4465,0,0,0
-165.77,8.07,-57.19,1176,-6923,4466,0,0,-1
-165.76,8.07,-57.18,1170,-6913,4476,0,-1,-1
-165.76,8.08,-57.18,1177,-6925,4473,-1,0,-1
-165.75,8.09,-57.18,1173,-6917,4466,0,-1,-1
-165.74,8.09,-57.18,1174,-6927,4465,0,-1,-1
-165.73,8.10,-57.17,1180,-6906,4466,0,-1,-1
-165.73,8.10,-57.18,1181,-6924,4455,-1,0,-1
-165.73,8.10,-57.17,1188,-6919,4471,0,-1,-1
-165.72,8.11,-57.18,1176,-6933,4457,0,-1,-1
-165.72,8.11,-57.16,1189,-6911,4474,0,-1,-1
-165.71,8.12,-57.16,1175,-6916,4459,0,-1,-1
-165.71,8.12,-57.16,1189,-6912,4467,-1,0,0
-165.71,8.11,-57.16,1171,-6923,4468,0,0,-1
-165.70,8.12,-57.15,1189,-6920,4471,-1,0,-1
-165.70,8.12,-57.15,1176,-6912,4453,0,0,-1
-165.69,8.13,-57.14,1184,-6910,4474,0,-1,-1
-165.68,8.14,-57.14,1176,-6913,4463,0,-1,-1
-165.67,8.15,-57.13,1184,-6912,4480,-1,-1,-1
-165.66,8.16,-57.13,1201,-6905,4474,0,-1,-1
-165.65,8.17,-57.13,1192,-6922,4482,-1,-1,-1
-165.65,8.17,-57.12,1199,-6919,4476,0,0,0
-165.65,8.17,-57.13,1180,-6924,4464,0,0,-1
-165.64,8.17,-57.12,1209,-6895,4485,-1,-1,-1
-165.64,8.18,-57.13,1189,-6908,4458,-1,0,0
-165.64,8.18,-57.13,1193,-6918,4476,0,-1,-1
-165.64,8.18,-57.12,1177,-6915,4474,0,0,-1
-165.64,8.18,-57.12,1199,-6938,4483,-1,-1,-1
-165.63,8.18,-57.11,1190,-6913,4476,0,0,-1
-165.63,8.18,-57.11,1209,-6906,4497,-1,0,0
-165.64,8.17,-57.11,1184,-6901,4470,0,-1,0
-165.63,8.18,-57.12,1183,-6921,4477,-1,0,-1
-165.63,8.18,-57.12,1200,-6929,4474,-1,-1,-1
-165.63,8.18,-57.12,1191,-6926,4453,0,0,-1
-165.63,8.18,-57.12,1193,-6928,4457,0,0,-1
-165.63,8.18,-57.11,1168,-6921,4480,0,-1,-1
-165.61,8.20,-57.10,1210,-6889,4479,-1,0,-1
-165.60,8.20,-57.10,1212,-6887,4495,-1,0,0
-165.62,8.18,-57.11,1201,-6924,4477,-1,-1,0
-165.63,8.17,-57.12,1187,-6924,4473,-1,0,0
-165.64,8.17,-57.12,1167,-6943,4457,-1,0,-1
-165.64,8.16,-57.12,1172,-6909,4480,-1,-1,-1
-165.63,8.17,-57.12,1202,-6910,4471,0,0,-1
-165.63,8.18,-57.12,1220,-6907,4475,-1,-1,0
-165.63,8.17,-57.12,1215,-6924,4467,0,0,0
-165.65,8.15,-57.13,1201,-6910,4492,-1,0,0
-165.67,8.14,-57.13,1173,-6921,4481,-1,0,0
-165.68,8.13,-57.14,1150,-6930,4449,-1,-1,-1
-165.67,8.13,-57.13,1163,-6906,4441,0,0,-1
-165.67,8.14,-57.14,1178,-6918,4435,-1,-1,-1
-165.66,8.14,-57.13,1201,-6926,4436,0,0,-1
-165.65,8.15,-57.12,1205,-6927,4483,0,0,-1
-165.65,8.15,-57.11,1227,-6913,4502,0,0,0
-165.66,8.14,-57.12,1211,-6901,4491,-1,0,0
-165.67,8.12,-57.13,1195,-6896,4497,-1,0,0
-165.69,8.11,-57.15,1182,-6914,4461,-1,0,0
-165.71,8.09,-57.16,1155,-6920,4453,-1,-1,0
-165.71,8.09,-57.17,1157,-6946,4440,0,0,-1
-165.71,8.10,-57.16,1170,-6938,4461,0,-1,-1
-165.70,8.10,-57.15,1179,-6931,4471,0,0,-1
-165.71,8.09,-57.15,1196,-6916,4484,-1,0,0
-165.71,8.09,-57.15,1193,-6915,4467,0,0,0
-165.72,8.08,-57.16,1181,-6892,4473,-1,-1,0
-165.73,8.07,-57.18,1190,-6922,4443,-1,0,0
-165.74,8.06,-57.18,1175,-6919,4456,-1,0,0
-165.74,8.05,-57.18,1151,-6944,4442,0,0,-1
-165.74,8.06,-57.17,1171,-6919,4484,-1,-1,0
-165.74,8.06,-57.17,1187,-6907,4467,0,0,0
-165.74,8.05,-57.17,1188,-6909,4482,-1,-1,0
-165.75,8.04,-57.18,1181,-6929,4458,0,0,0
-165.77,8.03,-57.18,1174,-6922,4497,-1,-1,0
-165.77,8.03,-57.19,1165,-6941,4466,0,0,0
-165.78,8.02,-57.19,1168,-6927,4463,-1,-1,0
-165.78,8.02,-57.20,1173,-6923,4455,0,0,0
-165.79,8.02,-57.20,1172,-6916,4466,-1,-1,0
-165.79,8.01,-57.20,1175,-6922,4475,0,0,0
-165.80,8.00,-57.20,1166,-6931,4462,-1,-1,0
-165.80,8.00,-57.20,1163,-6930,4454,0,0,0
-165.80,8.00,-57.19,1160,-6922,4482,-1,-1,0
-165.81,7.99,-57.19,1163,-6918,4483,-1,0,0
-165.82,7.98,-57.20,1164,-6921,4470,-1,0,-1
-165.81,7.99,-57.19,1176,-6926,4478,0,0,0
-165.81,7.99,-57.19,1159,-6904,4469,-1,-1,-1
-165.81,7.99,-57.20,1181,-6930,4477,-1,-1,0
-165.81,8.00,-57.20,1179,-6937,4456,0,-1,-1
-165.80,8.01,-57.19,1177,-6909,4488,0,0,-1
-165.81,8.00,-57.20,1170,-6898,4474,-1,-1,0
-165.81,8.00,-57.22,1164,-6917,4455,-1,-1,-1
-165.80,8.02,-57.22,1188,-6932,4437,0,-1,0
-165.80,8.02,-57.21,1168,-6934,4419,1,-1,-1
-165.78,8.04,-57.18,1180,-6923,4481,0,-1,-1
-165.78,8.04,-57.17,1190,-6921,4490,0,-1,-1
-165.78,8.04,-57.18,1179,-6937,4490,-1,-1,0
-165.77,8.05,-57.18,1165,-6910,4466,0,-1,-1
-165.77,8.05,-57.19,1176,-6925,4450,-1,-1,-1
-165.77,8.05,-57.19,1178,-6926,4451,0,-1,-1
-165.76,8.06,-57.19,1168,-6933,4460,-1,-1,-1
-165.76,8.07,-57.19,1196,-6937,4467,0,-1,0
-165.75,8.07,-57.19,1172,-6933,4449,0,0,-1
-165.74,8.08,-57.16,1208,-6896,4504,-1,0,0
-165.73,8.08,-57.19,1183,-6930,4445,0,0,-1
-165.73,8.08,-57.19,1186,-6903,4473,-1,0,0
-165.73,8.08,-57.19,1174,-6903,4475,-1,0,-1
-165.73,8.09,-57.20,1198,-6933,4450,-2,-1,0
-165.73,8.08,-57.20,1177,-6914,4447,0,0,-1
-165.72,8.08,-57.20,1181,-6939,4482,-2,-1,-1
-165.71,8.09,-57.20,1186,-6915,4449,0,-1,-1
-165.70,8.10,-57.20,1195,-6931,4465,-1,0,-1
-165.70,8.10,-57.19,1190,-6899,4498,-1,-1,0
-165.70,8.11,-57.20,1190,-6918,4456,0,-1,-1
-165.69,8.11,-57.19,1194,-6907,4480,-1,-1,0
-165.69,8.11,-57.20,1180,-6908,4455,0,0,-1
-165.69,8.11,-57.20,1188,-6919,4486,-1,-1,0
-165.69,8.12,-57.20,1171,-6930,4435,0,0,-1
-165.69,8.12,-57.19,1187,-6916,4466,-1,-1,-1
-165.68,8.13,-57.19,1183,-6926,4456,0,-1,-1
-165.68,8.13,-57.19,1180,-6918,4464,-1,0,-1
-165.67,8.13,-57.19,1171,-6921,4452,0,-1,-1
-165.67,8.14,-57.19,1184,-6925,4450,0,-1,-1
-165.66,8.14,-57.17,1179,-6911,4462,0,0,-1
-165.65,8.15,-57.17,1186,-6923,4480,-1,0,-1
-165.65,8.15,-57.17,1196,-6920,4480,-1,-1,0
-165.64,8.16,-57.18,1172,-6930,4467,0,0,-1
-165.64,8.16,-57.17,1201,-6917,4476,-1,0,-1
-165.63,8.17,-57.19,1188,-6929,4462,-1,-1,-1
-165.63,8.17,-57.19,1195,-6926,4451,0,-1,0
-165.62,8.17,-57.18,1187,-6922,4445,0,-1,-1
-165.62,8.17,-57.18,1203,-6889,4469,-1,0,0
-165.62,8.18,-57.19,1200,-6909,4454,0,0,-1
-165.61,8.18,-57.18,1199,-6912,4461,-1,-1,-1
-165.62,8.18,-57.18,1186,-6928,4450,0,0,-1
-165.60,8.19,-57.17,1200,-6928,4469,-1,-1,-1
-165.60,8.19,-57.17,1198,-6943,4461,0,0,-1
-165.60,8.20,-57.16,1204,-6924,4487,-1,-1,-1
-165.60,8.20,-57.16,1207,-6914,4466,-1,0,0
-165.61,8.19,-57.16,1206,-6908,4463,-1,-1,0
-165.61,8.19,-57.17,1189,-6919,4443,0,0,0
-165.62,8.19,-57.17,1195,-6918,4447,0,0,-1
-165.62,8.18,-57.16,1176,-6915,4475,0,-1,-1
-165.61,8.19,-57.15,1186,-6920,4476,-1,-1,-1
-165.61,8.19,-57.15,1191,-6906,4476,0,-1,-1
-165.61,8.19,-57.15,1205,-6913,4468,-1,-1,-1
-165.61,8.19,-57.15,1211,-6902,4472,0,0,0
-165.61,8.19,-57.16,1202,-6927,4473,-1,-1,0
-165.62,8.18,-57.17,1194,-6925,4465,0,-1,0
-165.62,8.19,-57.17,1187,-6920,4463,-1,-1,0
-165.63,8.18,-57.16,1203,-6905,4476,0,-1,0
-165.64,8.17,-57.17,1190,-6902,4461,-1,0,0
-165.64,8.17,-57.18,1187,-6915,4447,0,0,0
-165.64,8.17,-57.18,1185,-6922,4463,-1,0,0
-165.64,8.16,-57.17,1184,-6921,4468,0,0,0
-165.64,8.16,-57.16,1190,-6922,4465,0,0,0
-165.65,8.16,-57.16,1203,-6907,4481,0,0,0
-165.65,8.15,-57.16,1195,-6913,4475,-1,-1,0
-165.66,8.14,-57.16,1208,-6917,4489,-1,0,0
-165.68,8.13,-57.18,1187,-6926,4462,-1,0,0
-165.69,8.12,-57.18,1182,-6938,4475,-1,-1,0
-165.70,8.11,-57.19,1185,-6938,4438,0,0,0
-165.70,8.10,-57.19,1188,-6913,4481,-1,0,0
-165.71,8.10,-57.20,1196,-6949,4468,-1,-1,0
-165.72,8.08,-57.20,1187,-6922,4442,0,0,0
-165.73,8.08,-57.19,1177,-6918,4479,-1,0,0
-165.74,8.06,-57.20,1185,-6925,4471,-1,0,0
-165.75,8.04,-57.21,1182,-6924,4468,-1,0,0
-165.75,8.04,-57.21,1180,-6916,4470,-1,0,0
-165.76,8.02,-57.23,1148,-6926,4444,-1,-1,0
-165.77,8.02,-57.23,1160,-6907,4467,-1,-1,0
-165.78,8.02,-57.24,1163,-6939,4455,-1,-1,0
-165.78,8.02,-57.23,1167,-6929,4460,0,0,0
-165.77,8.01,-57.23,1159,-6916,4450,-1,0,-1
-165.77,8.02,-57.23,1186,-6915,4471,-1,-1,0
-165.78,8.01,-57.24,1177,-6937,4435,0,0,0
-165.79,8.00,-57.23,1184,-6919,4493,-1,0,0
-165.80,7.99,-57.24,1159,-6947,4455,0,-1,0
-165.81,7.99,-57.24,1161,-6924,4465,-1,0,0
-165.81,7.99,-57.25,1154,-6939,4448,0,-1,0
-165.81,7.99,-57.25,1160,-6922,4449,-1,-1,0
-165.82,7.98,-57.25,1182,-6948,4458,0,-1,0
-165.82,7.98,-57.24,1163,-6913,4452,0,0,-1
-165.82,7.97,-57.24,1186,-6904,4478,-1,0,0
-165.84,7.96,-57.26,1153,-6935,4457,-1,-1,0
-165.85,7.95,-57.26,1164,-6915,4452,0,0,-1
-165.85,7.95,-57.27,1178,-6952,4467,-1,-1,0
-165.86,7.94,-57.26,1164,-6945,4431,0,0,0
-165.86,7.94,-57.25,1144,-6922,4483,-1,-1,-1
-165.86,7.95,-57.27,1160,-6948,4453,0,0,0
-165.87,7.94,-57.26,1150,-6919,4448,-1,0,0
-165.86,7.95,-57.27,1176,-6938,4481,-1,0,0
-165.87,7.93,-57.28,1170,-6940,4460,0,0,0
-165.88,7.91,-57.28,1149,-6920,4453,-1,0,0
-165.89,7.89,-57.28,1142,-6915,4513,-2,0,0
-165.89,7.88,-57.32,1157,-6945,4450,-2,0,0
-165.91,7.86,-57.33,1086,-6929,4447,-1,-1,-1
-165.89,7.89,-57.33,1162,-6950,4455,-1,0,-1
-165.89,7.89,-57.34,1147,-6946,4438,0,0,-1
-165.88,7.89,-57.32,1170,-6916,4491,-1,-1,-1
-165.87,7.90,-57.33,1137,-6952,4421,0,-1,-1
-165.86,7.91,-57.30,1175,-6915,4487,-1,-1,0
-165.85,7.92,-57.31,1151,-6957,4445,0,0,-1
-165.84,7.93,-57.30,1162,-6911,4488,-1,-1,0
-165.84,7.94,-57.32,1140,-6929,4426,0,-1,-1
-165.82,7.95,-57.30,1180,-6917,4469,-1,0,0
-165.82,7.95,-57.31,1142,-6964,4405,1,-1,-1
-165.80,7.97,-57.28,1166,-6924,4456,0,-1,-1
-165.79,7.99,-57.28,1168,-6960,4467,0,-1,-1
-165.77,8.00,-57.26,1164,-6913,4463,-1,0,-1
-165.76,8.01,-57.26,1168,-6921,4467,0,-1,-1
-165.75,8.02,-57.27,1201,-6911,4456,-1,0,-1
-165.75,8.01,-57.26,1172,-6935,4457,-1,-1,-1
-165.76,8.01,-57.28,1169,-6939,4441,-1,-1,0
-165.75,8.02,-57.28,1183,-6928,4445,0,0,-1
-165.75,8.01,-57.28,1163,-6945,4472,-1,0,-1
-165.74,8.02,-57.27,1175,-6902,4452,-1,-1,-1
-165.73,8.02,-57.28,1179,-6952,4468,-1,0,-1
-165.72,8.02,-57.27,1192,-6887,4488,0,0,-1
-165.72,8.02,-57.30,1178,-6940,4464,-1,-1,0
-165.73,8.02,-57.30,1161,-6920,4426,0,0,-1
-165.71,8.03,-57.29,1176,-6932,4473,-1,-1,-1
-165.71,8.04,-57.29,1169,-6926,4422,0,-1,0
-165.71,8.04,-57.29,1149,-6945,4455,0,-1,-1
-165.70,8.05,-57.28,1162,-6920,4455,-1,-1,-1
-165.68,8.07,-57.27,1172,-6918,4448,0,0,-1
-165.67,8.08,-57.27,1193,-6932,4472,-1,-1,0
-165.67,8.08,-57.26,1176,-6933,4434,0,0,-1
-165.66,8.09,-57.25,1193,-6923,4453,0,-1,-1
-165.65,8.10,-57.24,1168,-6940,4456,0,-1,-1
-165.64,8.12,-57.23,1192,-6916,4453,0,-1,-1
-165.63,8.13,-57.22,1199,-6913,4463,0,0,-1
-165.62,8.14,-57.22,1212,-6894,4475,-1,0,0
-165.62,8.14,-57.22,1192,-6925,4465,0,-1,-1
-165.62,8.14,-57.23,1189,-6930,4445,-1,0,-1
-165.62,8.14,-57.22,1176,-6923,4453,0,-1,-1
-165.61,8.15,-57.21,1189,-6921,4455,0,-1,-1
-165.61,8.15,-57.20,1190,-6917,4462,0,0,-1
-165.60,8.15,-57.20,1192,-6913,4471,-1,-1,-1
-165.60,8.15,-57.20,1191,-6910,4471,0,-1,0
-165.60,8.16,-57.20,1199,-6921,4464,-1,0,0
-165.61,8.15,-57.20,1195,-6918,4453,-1,0,0
-165.62,8.14,-57.21,1186,-6931,4453,0,0,0
-165.62,8.14,-57.20,1184,-6922,4471,-1,-1,0
-165.62,8.14,-57.20,1179,-6921,4460,-1,-1,0
-165.62,8.14,-57.20,1193,-6907,4465,-1,0,0
-165.63,8.14,-57.21,1192,-6922,4440,-1,0,0
-165.63,8.13,-57.21,1182,-6924,4456,0,-1,0
-165.64,8.13,-57.21,1187,-6921,4452,0,0,0
-165.64,8.13,-57.22,1180,-6921,4447,0,-1,0
-165.64,8.13,-57.21,1183,-6923,4447,0,-1,0
-165.65,8.13,-57.21,1180,-6919,4448,0,-1,0
-165.65,8.13,-57.21,1182,-6930,4462,-1,-1,0
-165.65,8.13,-57.20,1186,-6926,4468,0,0,0
-165.64,8.14,-57.20,1196,-6925,4469,0,-1,0
-165.64,8.14,-57.19,1193,-6925,4467,0,0,0
-165.64,8.14,-57.19,1191,-6922,4469,0,-1,0
-165.64,8.14,-57.18,1197,-6911,4478,0,0,0
-165.64,8.14,-57.18,1200,-6905,4478,-1,-1,0
-165.65,8.13,-57.18,1190,-6919,4457,0,0,0
-165.65,8.13,-57.18,1189,-6922,4462,-1,-1,0
-165.66,8.12,-57.19,1178,-6927,4439,0,0,0
-165.66,8.12,-57.18,1180,-6910,4467,-1,-1,0
-165.67,8.12,-57.17,1196,-6913,4474,0,0,0
-165.68,8.11,-57.18,1179,-6912,4464,-1,-1,0
-165.68,8.11,-57.18,1178,-6924,4474,0,0,0
-165.68,8.10,-57.18,1187,-6927,4486,-1,0,0
-165.69,8.09,-57.17,1165,-6916,4487,0,0,0
-165.69,8.09,-57.17,1174,-6916,4491,-1,-1,0
-165.70,8.08,-57.19,1170,-6922,4454,-1,0,0
-165.70,8.08,-57.19,1179,-6922,4445,0,-1,0
-165.70,8.08,-57.18,1181,-6916,4451,0,0,0
-165.70,8.08,-57.17,1177,-6915,4481,-1,-1,0
-165.71,8.08,-57.17,1173,-6926,4478,-1,-1,0
-165.72,8.08,-57.18,1171,-6924,4468,0,-1,0
-165.72,8.08,-57.18,1178,-6905,4467,-1,0,0
-165.73,8.07,-57.18,1181,-6914,4466,-1,-1,0
-165.73,8.06,-57.18,1171,-6923,4453,0,0,0
-165.73,8.06,-57.17,1163,-6924,4477,0,0,0
-165.73,8.06,-57.17,1166,-6919,4462,0,0,-1
-165.73,8.06,-57.17,1173,-6918,4475,-1,0,0
-165.73,8.06,-57.17,1177,-6920,4465,0,-1,0
-165.73,8.07,-57.17,1183,-6919,4471,0,0,0
-165.73,8.06,-57.17,1177,-6916,4484,-1,-1,0
-165.73,8.07,-57.16,1176,-6914,4481,-1,-1,0
-165.74,8.07,-57.17,1176,-6915,4476,-1,-1,0
-165.73,8.07,-57.17,1169,-6928,4460,0,-1,-1
-165.73,8.08,-57.16,1179,-6929,4459,0,-1,0
-165.73,8.08,-57.16,1177,-6925,4459,0,-1,-1
-165.73,8.08,-57.16,1190,-6919,4458,-1,-1,0
-165.73,8.08,-57.16,1171,-6920,4465,0,0,-1
-165.72,8.09,-57.15,1173,-6903,4466,-1,-1,-1
-165.71,8.10,-57.15,1169,-6917,4465,0,0,-1
-165.71,8.11,-57.16,1187,-6917,4469,-1,-1,-1
-165.71,8.11,-57.16,1172,-6926,4468,0,-1,-1
-165.70,8.12,-57.15,1182,-6915,4458,0,-1,-1
-165.69,8.13,-57.15,1189,-6916,4465,0,0,-1
-165.68,8.14,-57.14,1200,-6915,4479,-1,-1,0
-165.67,8.14,-57.14,1189,-6921,4473,-1,0,-1
-165.67,8.14,-57.14,1198,-6915,4486,-1,-1,-1
-165.66,8.15,-57.14,1184,-6910,4467,0,0,-1
-165.66,8.15,-57.14,1209,-6907,4482,-1,0,0
-165.66,8.16,-57.15,1188,-6914,4446,0,0,-1
-165.65,8.16,-57.15,1194,-6913,4469,-1,-1,-1
-165.64,8.17,-57.15,1185,-6908,4453,0,0,-1
-165.63,8.18,-57.14,1203,-6908,4473,-1,-1,-1
-165.63,8.18,-57.14,1192,-6916,4461,0,0,-1
-165.63,8.19,-57.14,1200,-6913,4470,-1,-1,-1
-165.62,8.19,-57.14,1184,-6914,4458,0,0,-1
-165.62,8.20,-57.13,1196,-6912,4483,-1,-1,-1
-165.61,8.20,-57.13,1183,-6924,4464,0,0,-1
-165.61,8.20,-57.13,1188,-6925,4467,-1,-1,-1
-165.61,8.20,-57.13,1181,-6931,4467,0,-1,-1
-165.60,8.21,-57.13,1200,-6916,4475,0,0,-1
-165.60,8.21,-57.13,1189,-6912,4465,0,-1,-1
-165.59,8.22,-57.13,1208,-6917,4454,0,0,-1
-165.59,8.22,-57.13,1194,-6924,4472,0,-1,-1
-165.59,8.23,-57.12,1210,-6921,4470,0,-1,0
-165.58,8.23,-57.12,1192,-6920,4456,0,-1,-1
-165.57,8.24,-57.11,1209,-6919,4480,0,-1,-1
-165.56,8.25,-57.11,1209,-6921,4478,0,-1,-1
-165.56,8.26,-57.11,1217,-6921,4475,-1,-1,0
-165.56,8.26,-57.11,1223,-6921,4467,0,0,0
-165.56,8.26,-57.11,1217,-6915,4461,-1,0,0
-165.56,8.26,-57.11,1201,-6919,4461,0,0,-1
-165.56,8.26,-57.10,1200,-6919,4471,0,-1,-1
-165.56,8.26,-57.10,1192,-6921,4459,0,0,-1
-165.55,8.27,-57.10,1208,-6905,4477,-1,-1,0
-165.55,8.27,-57.10,1208,-6913,4474,0,-1,-1
-165.55,8.28,-57.10,1215,-6911,4464,-1,-1,0
-165.55,8.28,-57.10,1215,-6917,4454,0,0,0
-165.55,8.27,-57.09,1208,-6898,4467,0,-1,0
-165.55,8.27,-57.09,1219,-6903,4480,-1,0,0
-165.56,8.27,-57.10,1208,-6906,4483,-1,-1,0
-165.57,8.26,-57.11,1201,-6925,4466,0,0,0
-165.57,8.26,-57.10,1209,-6908,4485,-1,-1,0
-165.57,8.26,-57.11,1209,-6921,4465,0,0,0
-165.58,8.25,-57.10,1205,-6908,4481,0,0,0
-165.58,8.25,-57.11,1213,-6911,4478,-1,0,0
-165.59,8.23,-57.11,1187,-6897,4472,-1,-1,0
-165.60,8.22,-57.12,1202,-6920,4460,-1,0,0
-165.61,8.22,-57.13,1193,-6926,4441,0,0,0
-165.62,8.21,-57.13,1191,-6927,4456,-1,0,0
-165.62,8.21,-57.13,1200,-6898,4473,-1,0,0
-165.62,8.21,-57.13,1197,-6914,4457,0,0,0
-165.63,8.20,-57.14,1205,-6889,4471,-1,0,0
-165.63,8.20,-57.14,1209,-6917,4464,-1,-1,0
-165.64,8.19,-57.15,1210,-6916,4440,0,0,0
-165.64,8.18,-57.15,1219,-6921,4484,0,0,0
-165.65,8.16,-57.15,1186,-6899,4490,-1,0,0
-165.66,8.15,-57.17,1201,-6924,4461,-1,0,0
-165.68,8.14,-57.18,1155,-6922,4462,-1,-1,0
-165.67,8.15,-57.18,1215,-6918,4434,0,0,0
-165.69,8.13,-57.18,1186,-6930,4471,-1,0,0
-165.71,8.11,-57.19,1166,-6941,4456,0,-1,0
-165.71,8.11,-57.19,1187,-6908,4452,-1,0,0
-165.72,8.10,-57.20,1164,-6913,4470,-1,-1,0
-165.72,8.09,-57.21,1180,-6930,4439,0,0,0
-165.73,8.08,-57.20,1188,-6934,4461,-1,0,0
-165.74,8.08,-57.20,1175,-6919,4465,-1,-1,0
-165.74,8.07,-57.21,1187,-6925,4455,0,0,0
-165.75,8.07,-57.21,1186,-6925,4454,0,0,0
-165.76,8.06,-57.21,1172,-6923,4473,-1,-1,0
-165.76,8.05,-57.23,1175,-6941,4442,0,0,0
-165.77,8.04,-57.23,1169,-6963,4468,-1,-1,0
-165.78,8.04,-57.23,1173,-6931,4436,0,0,0
-165.79,8.02,-57.24,1155,-6931,4456,-1,-1,0
-165.79,8.02,-57.24,1200,-6910,4460,-1,0,0
-165.81,8.01,-57.26,1161,-6947,4460,-1,0,0
-165.81,8.00,-57.26,1197,-6922,4465,-1,0,0
-165.83,7.98,-57.27,1154,-6932,4475,-1,0,0
-165.84,7.97,-57.29,1182,-6950,4449,-1,0,0
-165.86,7.95,-57.29,1131,-6951,4442,-1,-1,0
-165.86,7.95,-57.28,1161,-6912,4460,0,0,0
-165.86,7.95,-57.29,1139,-6941,4438,-1,-1,0
-165.86,7.95,-57.28,1157,-6928,4450,0,0,0
-165.86,7.95,-57.28,1156,-6942,4466,-1,-1,-1
-165.86,7.96,-57.28,1175,-6919,4442,0,0,0
-165.86,7.96,-57.27,1162,-6930,4471,-1,-1,0
-165.86,7.96,-57.27,1184,-6911,4443,0,0,0
-165.87,7.95,-57.27,1146,-6934,4473,-1,-1,0
-165.88,7.95,-57.27,1159,-6919,4447,0,-1,0
-165.88,7.95,-57.28,1143,-6939,4427,0,-1,-1
-165.89,7.95,-57.26,1142,-6936,4472,0,-1,0
-165.88,7.96,-57.25,1168,-6935,4457,0,-1,-1
-165.87,7.97,-57.24,1171,-6930,4478,-1,-1,0
-165.88,7.96,-57.25,1152,-6936,4449,0,-1,-1
-165.88,7.97,-57.24,1147,-6927,4467,-1,-1,-1
-165.88,7.97,-57.24,1153,-6945,4457,0,-1,-1
-165.87,7.98,-57.24,1162,-6939,4444,0,-1,0
-165.88,7.99,-57.23,1160,-6935,4461,0,-1,0
-165.87,7.99,-57.22,1155,-6915,4466,0,-1,0
-165.87,8.00,-57.22,1165,-6917,4470,-1,-1,-1
-165.87,8.00,-57.22,1182,-6912,4453,0,-1,0
-165.87,8.00,-57.23,1160,-6942,4448,-1,-1,-1
-165.86,8.01,-57.22,1163,-6923,4455,0,-1,-1
-165.85,8.02,-57.22,1165,-6943,4460,0,-1,-1
-165.84,8.03,-57.21,1184,-6919,4476,-1,-1,0
-165.84,8.03,-57.22,1172,-6932,4444,0,0,-1
-165.84,8.04,-57.21,1176,-6909,4462,-1,-1,0
-165.84,8.04,-57.22,1169,-6920,4433,0,0,-1
-165.83,8.05,-57.21,1180,-6933,4477,-1,-1,0
-165.83,8.05,-57.20,1157,-6932,4444,1,0,-1
-165.81,8.06,-57.18,1181,-6926,4508,-1,-1,-1
-165.81,8.06,-57.19,1168,-6931,4467,0,0,-1
-165.81,8.07,-57.19,1165,-6927,4474,-1,-1,-1
-165.80,8.07,-57.19,1182,-6922,4463,0,-1,0
-165.79,8.08,-57.19,1171,-6926,4435,0,-1,-1
-165.79,8.09,-57.18,1198,-6927,4473,0,-1,0
-165.78,8.10,-57.19,1177,-6946,4441,0,-1,-1
-165.78,8.10,-57.16,1187,-6913,4491,-1,-1,0
-165.77,8.11,-57.17,1174,-6937,4454,0,0,-1
-165.77,8.11,-57.17,1188,-6918,4485,-1,0,0
-165.77,8.10,-57.18,1173,-6934,4434,0,0,-1
-165.77,8.11,-57.18,1176,-6928,4467,-1,-1,-1
-165.77,8.10,-57.18,1184,-6913,4458,0,0,0
-165.77,8.11,-57.19,1160,-6936,4443,-1,-1,-1
-165.76,8.11,-57.17,1171,-6917,4471,0,-1,-1
-165.74,8.13,-57.17,1176,-6929,4465,0,-1,-1
-165.73,8.14,-57.16,1194,-6917,4501,-1,-1,-1
-165.73,8.15,-57.17,1191,-6923,4453,0,0,-1
-165.71,8.16,-57.15,1213,-6898,4476,-1,-1,0
-165.73,8.15,-57.16,1188,-6917,4453,0,0,0
-165.72,8.15,-57.15,1182,-6915,4467,0,-1,-1
-165.71,8.15,-57.15,1177,-6918,4482,0,-1,-1
-165.71,8.16,-57.15,1184,-6935,4467,0,-1,-1
-165.70,8.17,-57.14,1197,-6912,4466,0,0,-1
-165.69,8.18,-57.13,1183,-6915,4464,0,0,-1
-165.69,8.18,-57.12,1201,-6911,4492,-1,-1,0
-165.68,8.18,-57.13,1186,-6933,4464,0,0,-1
-165.68,8.19,-57.12,1205,-6919,4485,-1,0,0
-165.68,8.19,-57.13,1187,-6919,4452,0,0,-1
-165.67,8.19,-57.12,1184,-6911,4467,-1,-1,-1
-165.67,8.20,-57.12,1196,-6919,4469,0,0,-1
-165.67,8.20,-57.12,1197,-6925,4466,-1,0,-1
-165.66,8.21,-57.11,1202,-6908,4488,0,0,-1
-165.65,8.21,-57.10,1202,-6922,4485,-1,-1,-1
-165.65,8.21,-57.10,1193,-6911,4479,0,0,0
-165.64,8.22,-57.10,1194,-6923,4463,0,-1,-1
-165.64,8.22,-57.10,1195,-6908,4482,0,-1,0
-165.64,8.22,-57.10,1189,-6926,4462,0,0,-1
-165.64,8.22,-57.10,1191,-6914,4479,-1,-1,-1
-165.64,8.22,-57.10,1188,-6931,4467,0,-1,0
-165.64,8.22,-57.10,1186,-6924,4464,0,-1,-1
-165.64,8.21,-57.09,1196,-6914,4471,0,0,0
-165.64,8.21,-57.09,1200,-6906,4472,-1,0,0
-165.64,8.22,-57.10,1205,-6926,4484,-1,0,0
-165.66,8.20,-57.10,1203,-6931,4459,0,-1,0
-165.66,8.19,-57.09,1201,-6901,4476,0,0,0
-165.67,8.19,-57.10,1179,-6923,4487,-1,-1,0
-165.67,8.19,-57.09,1205,-6890,4480,0,0,0
-165.67,8.19,-57.11,1208,-6917,4482,-1,-1,0
-165.68,8.18,-57.11,1222,-6911,4486,-1,0,0
-165.69,8.17,-57.13,1208,-6921,4466,-1,0,0
-165.70,8.16,-57.13,1201,-6913,4460,0,0,0
-165.72,8.14,-57.14,1168,-6927,4445,-1,0,0
-165.72,8.14,-57.14,1190,-6909,4452,-1,0,0
-165.73,8.14,-57.15,1177,-6928,4456,0,0,0
-165.73,8.14,-57.14,1174,-6921,4458,-1,-1,0
-165.73,8.14,-57.15,1210,-6920,4448,0,0,0
-165.74,8.13,-57.14,1194,-6904,4482,-1,-1,0
-165.75,8.12,-57.16,1184,-6926,4472,-1,-1,0
-165.76,8.11,-57.17,1180,-6918,4474,-1,-1,0
-165.77,8.11,-57.18,1167,-6932,4439,0,-1,0
-165.77,8.11,-57.17,1191,-6905,4453,-1,-1,0
-165.79,8.10,-57.19,1178,-6924,4452,-1,0,0
-165.79,8.10,-57.18,1191,-6913,4469,-1,0,0
-165.80,8.09,-57.19,1169,-6950,4443,0,-1,0
-165.80,8.09,-57.19,1176,-6913,4470,0,-1,0
-165.81,8.09,-57.19,1181,-6938,4458,0,0,0
-165.82,8.08,-57.19,1178,-6914,4480,-1,-1,0
-165.82,8.07,-57.19,1179,-6918,4460,0,0,0
-165.83,8.07,-57.20,1170,-6925,4473,-1,-1,0
-165.84,8.06,-57.20,1195,-6932,4466,0,0,0
-165.85,8.05,-57.21,1173,-6928,4479,-1,-1,0
-165.85,8.04,-57.21,1169,-6926,4460,0,0,0
-165.86,8.04,-57.21,1163,-6931,4456,-1,0,0
-165.86,8.03,-57.21,1175,-6916,4454,0,0,0
-165.87,8.02,-57.22,1166,-6921,4468,-1,0,0
-165.88,8.01,-57.22,1166,-6919,4484,-1,0,0
-165.89,8.00,-57.23,1159,-6945,4443,-1,-1,0
-165.89,8.00,-57.23,1151,-6934,4455,0,0,0
-165.89,8.00,-57.23,1171,-6930,4474,-1,-1,0
-165.90,7.99,-57.23,1162,-6926,4450,0,0,0
-165.91,7.99,-57.23,1152,-6931,4444,0,-1,0
-165.90,7.99,-57.23,1167,-6924,4462,0,0,0
-165.90,7.99,-57.23,1163,-6930,4455,-1,0,-1
-165.91,7.99,-57.23,1173,-6926,4463,0,0,0
-165.91,7.98,-57.23,1159,-6935,4443,0,-1,0
-165.91,7.99,-57.23,1176,-6919,4466,-1,-1,0
-165.92,7.99,-57.23,1163,-6930,4443,0,-1,-1
-165.91,7.99,-57.22,1169,-6922,4456,0,-1,0
-165.91,8.00,-57.22,1171,-6933,4460,0,-1,0
-165.90,8.00,-57.20,1171,-6918,4485,0,-1,0
-165.91,8.00,-57.21,1163,-6928,4472,-1,-1,0
-165.91,8.00,-57.21,1173,-6910,4469,-1,-1,0
-165.91,8.00,-57.22,1168,-6925,4459,-1,-1,0
-165.92,8.01,-57.23,1167,-6931,4465,-1,-1,0
-165.92,8.01,-57.23,1162,-6957,4433,0,-1,-1
-165.91,8.01,-57.22,1169,-6938,4443,0,-1,-1
-165.91,8.02,-57.22,1159,-6935,4463,0,-1,-1
-165.91,8.02,-57.21,1189,-6899,4471,0,0,0
-165.91,8.02,-57.21,1166,-6913,4470,-1,0,0
-165.91,8.02,-57.21,1156,-6902,4486,-1,-1,0
-165.91,8.02,-57.22,1164,-6939,4460,0,-1,0
-165.91,8.02,-57.22,1155,-6940,4456,-1,-1,-1
-165.91,8.02,-57.21,1144,-6923,4430,0,0,-1
-165.90,8.03,-57.20,1162,-6922,4473,-1,-1,-1
-165.89,8.04,-57.19,1168,-6908,4474,0,0,0
-165.89,8.04,-57.20,1165,-6934,4457,-1,-1,-1
-165.89,8.04,-57.19,1165,-6920,4475,0,-1,0
-165.89,8.04,-57.20,1155,-6939,4451,0,0,-1
-165.88,8.05,-57.18,1173,-6916,4474,-1,-1,0
-165.88,8.05,-57.20,1161,-6934,4435,0,0,-1
-165.87,8.06,-57.18,1177,-6914,4476,-1,-1,-1
-165.87,8.06,-57.19,1159,-6936,4434,0,0,-1
-165.86,8.08,-57.17,1176,-6927,4470,-1,-1,-1
-165.85,8.08,-57.18,1167,-6927,4446,0,0,-1
-165.84,8.09,-57.18,1178,-6931,4465,-1,-1,-1
-165.83,8.10,-57.17,1182,-6913,4459,0,0,-1
-165.83,8.10,-57.17,1178,-6923,4455,-1,-1,-1
-165.82,8.11,-57.16,1190,-6913,4462,0,-1,0
-165.82,8.11,-57.17,1181,-6940,4450,0,0,-1
-165.81,8.12,-57.16,1197,-6927,4462,0,-1,0
-165.81,8.12,-57.16,1177,-6934,4452,0,0,-1
-165.80,8.13,-57.15,1192,-6911,4486,-1,-1,-1
-165.80,8.14,-57.16,1196,-6923,4440,0,0,-1
-165.79,8.14,-57.16,1193,-6912,4467,-1,-1,0
-165.78,8.14,-57.15,1186,-6922,4442,1,0,-1
-165.77,8.16,-57.14,1189,-6921,4475,-1,-1,-1
-165.77,8.16,-57.14,1183,-6913,4467,0,0,-1
-165.76,8.17,-57.15,1186,-6917,4455,-1,0,-1
-165.75,8.17,-57.14,1196,-6897,4470,0,-1,0
-165.75,8.17,-57.15,1184,-6931,4450,-1,0,-1
-165.74,8.18,-57.14,1195,-6919,4463,0,0,-1
-165.74,8.18,-57.14,1184,-6919,4465,0,0,-1
-165.74,8.18,-57.13,1194,-6912,4475,-1,-1,-1
-165.73,8.19,-57.13,1183,-6917,4459,0,0,-1
-165.72,8.20,-57.12,1205,-6905,4481,-1,-1,-1
-165.71,8.20,-57.12,1196,-6905,4454,0,0,-1
-165.71,8.21,-57.11,1208,-6909,4475,-1,-1,0
-165.71,8.21,-57.12,1197,-6912,4464,0,0,-1
-165.71,8.21,-57.11,1195,-6910,4467,-1,-1,-1
-165.70,8.22,-57.11,1194,-6902,4470,0,0,-1
-165.70,8.22,-57.11,1199,-6920,4460,-1,-1,-1
-165.69,8.22,-57.10,1195,-6908,4470,0,-1,-1
-165.69,8.22,-57.10,1203,-6925,4449,0,0,-1
-165.69,8.23,-57.09,1195,-6905,4472,0,-1,0
-165.69,8.23,-57.10,1207,-6917,4465,0,0,0
-165.69,8.22,-57.10,1200,-6899,4470,0,-1,0
-165.69,8.23,-57.09,1214,-6902,4474,0,0,0
-165.69,8.22,-57.10,1207,-6904,4484,-1,-1,0
-165.70,8.21,-57.10,1199,-6926,4468,0,0,0
-165.71,8.21,-57.10,1197,-6921,4478,-1,-1,0
-165.71,8.20,-57.10,1198,-6916,4476,0,0,0
-165.72,8.21,-57.10,1200,-6911,4480,-1,-1,0
-165.72,8.20,-57.10,1198,-6897,4471,0,0,0
-165.73,8.19,-57.10,1188,-6913,4478,-1,-1,0
-165.74,8.18,-57.10,1183,-6911,4474,0,0,0
-165.74,8.18,-57.10,1181,-6909,4468,-1,-1,0
-165.74,8.18,-57.10,1177,-6906,4466,0,0,0
-165.75,8.18,-57.10,1184,-6918,4456,0,0,0
-165.75,8.17,-57.09,1198,-6908,4464,0,0,0
-165.75,8.17,-57.09,1196,-6911,4469,-1,0,0
-165.75,8.17,-57.08,1198,-6892,4489,0,0,0
-165.76,8.17,-57.10,1194,-6909,4472,-1,-1,0
-165.77,8.16,-57.10,1198,-6912,4480,0,-1,0
-165.77,8.16,-57.10,1196,-6925,4458,0,0,0
-165.78,8.16,-57.09,1205,-6911,4482,0,0,0
-165.79,8.15,-57.10,1190,-6924,4460,-1,0,0
-165.79,8.14,-57.09,1189,-6900,4492,-1,0,0
-165.80,8.13,-57.10,1184,-6925,4478,-1,-1,0
-165.81,8.13,-57.10,1176,-6926,4479,-1,-1,0
-165.81,8.13,-57.10,1174,-6935,4451,0,0,0
-165.82,8.13,-57.10,1191,-6903,4472,0,-1,0
-165.82,8.13,-57.10,1193,-6916,4473,0,0,0
-165.83,8.12,-57.10,1191,-6901,4496,-1,0,0
-165.84,8.10,-57.11,1176,-6919,4468,-1,0,0
-165.85,8.10,-57.11,1180,-6918,4471,0,-1,0
-165.85,8.09,-57.11,1178,-6929,4474,0,0,0
-165.86,8.09,-57.11,1175,-6913,4481,-1,-1,0
-165.86,8.09,-57.11,1184,-6925,4473,0,0,0
-165.86,8.09,-57.10,1195,-6917,4496,-1,-1,0
-165.87,8.09,-57.12,1189,-6925,4475,0,0,0
-165.88,8.08,-57.12,1177,-6920,4483,-1,-1,0
-165.89,8.07,-57.12,1177,-6920,4467,-1,0,0
-165.89,8.07,-57.12,1163,-6938,4476,-1,-1,0
-165.89,8.07,-57.13,1159,-6927,4455,0,0,0
-165.90,8.07,-57.13,1171,-6915,4464,-1,-1,0
-165.90,8.07,-57.13,1167,-6917,4450,0,0,-1
-165.90,8.07,-57.12,1171,-6908,4476,-1,-1,0
-165.90,8.07,-57.13,1177,-6922,4463,0,-1,0
-165.90,8.07,-57.12,1177,-6921,4479,-1,-1,0
-165.90,8.07,-57.12,1180,-6897,4483,-1,0,0
-165.90,8.08,-57.13,1161,-6924,4472,-1,-1,-1
-165.89,8.09,-57.12,1180,-6908,4475,0,-1,0
-165.89,8.09,-57.13,1177,-6925,4462,0,-1,-1
-165.89,8.09,-57.11,1193,-6902,4474,-1,0,0
-165.89,8.09,-57.12,1167,-6923,4463,0,0,-1
-165.88,8.09,-57.10,1190,-6896,4514,-1,0,0
-165.88,8.09,-57.12,1180,-6921,4477,0,0,-1
-165.88,8.09,-57.12,1185,-6931,4489,-1,-1,-1
-165.88,8.10,-57.13,1164,-6932,4448,0,0,0
-165.88,8.09,-57.12,1157,-6920,4466,-1,-1,-1
-165.86,8.11,-57.11,1172,-6901,4481,0,0,-1
-165.86,8.11,-57.11,1169,-6918,4476,-1,-1,-1
-165.85,8.11,-57.10,1185,-6909,4494,0,-1,0
-165.85,8.12,-57.11,1177,-6928,4468,0,0,-1
-165.84,8.12,-57.11,1192,-6909,4466,0,-1,-1
-165.83,8.13,-57.10,1188,-6926,4469,0,0,-1
-165.83,8.13,-57.09,1191,-6911,4488,-1,-1,0
-165.83,8.14,-57.11,1173,-6929,4463,0,-1,-1
-165.82,8.15,-57.10,1177,-6910,4486,-1,-1,-1
-165.81,8.16,-57.10,1181,-6913,4460,0,0,-1
-165.80,8.17,-57.09,1205,-6906,4484,-1,-1,-1
-165.80,8.16,-57.09,1191,-6902,4468,0,0,0
-165.80,8.17,-57.08,1196,-6915,4496,-1,-1,0
-165.81,8.16,-57.09,1189,-6909,4463,0,0,0
-165.81,8.16,-57.10,1196,-6928,4475,-1,0,-1
-165.81,8.16,-57.10,1199,-6927,4480,0,0,0
-165.80,8.16,-57.09,1184,-6904,4475,-1,0,-1
-165.80,8.16,-57.09,1216,-6904,4491,-1,0,0
-165.81,8.15,-57.11,1181,-6910,4469,0,0,-1
-165.80,8.16,-57.11,1199,-6915,4497,-1,0,-1
-165.80,8.16,-57.12,1208,-6912,4456,0,0,0
-165.79,8.16,-57.12,1198,-6915,4470,-1,0,-1
-165.80,8.15,-57.12,1170,-6912,4459,0,-1,0
-165.80,8.16,-57.12,1179,-6911,4459,-1,0,-1
-165.79,8.16,-57.12,1184,-6909,4474,0,0,-1
-165.79,8.16,-57.12,1171,-6946,4477,0,-1,-1
-165.78,8.17,-57.11,1180,-6936,4491,0,-1,-1
-165.77,8.18,-57.11,1181,-6922,4477,0,0,-1
-165.76,8.19,-57.09,1193,-6901,4487,-1,-1,-1
-165.76,8.19,-57.10,1196,-6904,4475,0,-1,-1
-165.76,8.20,-57.10,1198,-6915,4482,-1,-1,0
-165.76,8.20,-57.09,1190,-6925,4468,0,0,-1
-165.75,8.20,-57.09,1190,-6931,4466,-1,-1,-1
-165.75,8.20,-57.09,1180,-6932,4462,0,-1,-1
-165.75,8.21,-57.08,1186,-6921,4471,0,-1,-1
-165.74,8.22,-57.07,1197,-6900,4483,0,0,-1
-165.73,8.22,-57.06,1205,-6907,4486,-1,0,0
-165.74,8.21,-57.06,1199,-6911,4488,-1,-1,0
-165.74,8.22,-57.07,1201,-6927,4467,0,0,0
-165.74,8.22,-57.07,1197,-6917,4476,-1,0,0
-165.74,8.21,-57.07,1187,-6924,4468,0,0,-1
-165.74,8.22,-57.06,1190,-6901,4481,-1,-1,0
-165.74,8.22,-57.06,1201,-6904,4475,0,0,0
-165.74,8.22,-57.06,1204,-6900,4479,-1,-1,0
-165.74,8.21,-57.06,1201,-6918,4475,0,0,0
-165.75,8.21,-57.06,1182,-6919,4486,0,-1,0
-165.75,8.21,-57.06,1203,-6920,4480,0,0,0
-165.76,8.20,-57.06,1185,-6898,4488,-1,-1,0
-165.76,8.20,-57.06,1199,-6902,4465,0,0,0
-165.77,8.19,-57.07,1183,-6918,4475,-1,-1,0
-165.77,8.19,-57.07,1202,-6916,4461,0,0,0
-165.78,8.18,-57.08,1185,-6919,4481,-1,-1,0
-165.79,8.17,-57.08,1185,-6926,4480,0,0,0
-165.79,8.17,-57.08,1189,-6914,4481,-1,0,0
-165.79,8.16,-57.08,1194,-6888,4487,-1,0,0
-165.81,8.15,-57.09,1181,-6912,4479,-1,-1,0
-165.81,8.15,-57.09,1185,-6913,4479,0,0,0
-165.81,8.15,-57.09,1187,-6918,4488,-1,0,0
-165.81,8.14,-57.09,1169,-6929,4487,0,-1,0
-165.81,8.15,-57.09,1185,-6906,4466,-1,0,-1
-165.81,8.15,-57.09,1178,-6918,4482,-1,-1,0
-165.81,8.15,-57.09,1183,-6918,4469,0,0,-1
-165.80,8.15,-57.08,1203,-6904,4487,-1,0,0
-165.81,8.15,-57.09,1190,-6911,4457,0,0,-1
-165.81,8.14,-57.08,1198,-6897,4497,-1,0,0
-165.82,8.13,-57.09,1184,-6921,4465,-1,0,0
-165.82,8.13,-57.09,1180,-6922,4472,-1,-1,0
-165.82,8.13,-57.09,1181,-6939,4457,0,0,-1
-165.82,8.13,-57.08,1182,-6910,4463,0,-1,0
-165.82,8.14,-57.09,1179,-6927,4453,0,0,-1
-165.82,8.14,-57.07,1197,-6921,4482,0,0,0
-165.82,8.14,-57.07,1184,-6924,4492,0,0,0
-165.82,8.13,-57.06,1202,-6899,4511,-1,0,0
-165.83,8.12,-57.08,1168,-6922,4464,-1,0,0
-165.83,8.12,-57.08,1178,-6909,4473,-1,-1,0
-165.84,8.12,-57.09,1182,-6933,4456,0,0,0
-165.84,8.12,-57.08,1180,-6902,4474,-1,0,0
-165.84,8.11,-57.09,1188,-6916,4470,-1,0,0
-165.85,8.11,-57.09,1190,-6903,4462,-1,0,0
-165.85,8.10,-57.09,1185,-6910,4470,0,0,0
-165.86,8.09,-57.09,1163,-6926,4476,-1,-1,0
-165.86,8.09,-57.09,1187,-6926,4494,0,0,0
-165.87,8.09,-57.09,1169,-6925,4484,-1,-1,0
-165.87,8.09,-57.09,1180,-6909,4467,0,0,0
-165.87,8.09,-57.09,1169,-6915,4484,-1,-1,0
-165.87,8.09,-57.08,1181,-6891,4484,0,0,0
