Yaw,Pitch,Roll,AX,AY,AZ,GX,GY,GZ
-10.06,4.13,-10.16,593,-1441,8062,0,0,0
-10.06,4.13,-10.16,604,-1436,8059,0,0,0
-10.06,4.13,-10.16,616,-1442,8065,-1,0,-1
-10.06,4.13,-10.16,609,-1440,8067,-1,0,-1
-10.06,4.12,-10.17,598,-1444,8071,-1,0,0
-10.06,4.11,-10.18,593,-1454,8071,-1,0,0
-10.05,4.12,-10.18,597,-1452,8070,-1,-1,0
-10.05,4.12,-10.18,595,-1449,8071,0,-1,-1
-10.05,4.12,-10.18,594,-1445,8068,-1,-1,-1
-10.06,4.12,-10.17,594,-1441,8069,0,-1,-1
-10.05,4.13,-10.17,605,-1445,8076,0,-1,0
-10.05,4.13,-10.17,605,-1442,8075,0,-1,-1
-10.05,4.14,-10.16,606,-1434,8069,0,0,0
-10.05,4.14,-10.16,608,-1431,8075,0,-1,0
-10.05,4.14,-10.16,602,-1431,8077,0,-1,-1
-10.05,4.14,-10.15,603,-1435,8076,0,-1,-1
-10.05,4.15,-10.15,614,-1441,8071,-1,-1,0
-10.05,4.16,-10.15,609,-1442,8081,0,-1,0
-10.05,4.17,-10.15,609,-1438,8077,0,-1,0
-10.05,4.17,-10.15,607,-1438,8073,0,-1,0
-10.05,4.17,-10.14,613,-1435,8063,-1,-1,0
-10.05,4.17,-10.14,603,-1439,8062,0,-1,0
-10.05,4.18,-10.14,611,-1433,8064,-1,-1,0
-10.05,4.18,-10.14,610,-1432,8077,0,-1,0
-10.05,4.19,-10.14,604,-1431,8082,0,-1,0
-10.05,4.19,-10.14,596,-1439,8076,-1,-1,-1
-10.05,4.19,-10.14,602,-1443,8077,0,-1,-1
-10.05,4.19,-10.14,603,-1448,8067,0,-1,-1
-10.05,4.20,-10.14,607,-1445,8068,0,-1,-1
-10.05,4.21,-10.13,615,-1441,8076,0,-1,-1
-10.05,4.22,-10.12,622,-1431,8075,0,-1,-1
-10.05,4.22,-10.12,624,-1436,8086,-1,-1,0
-10.05,4.22,-10.12,624,-1436,8086,0,-1,-1
-10.05,4.22,-10.12,623,-1429,8077,0,-1,0
-10.05,4.22,-10.12,611,-1437,8075,-1,-1,0
-10.05,4.23,-10.12,615,-1445,8083,0,-1,0
-10.05,4.23,-10.12,612,-1443,8075,0,-1,-1
-10.05,4.24,-10.11,615,-1432,8078,0,-1,-1
-10.05,4.25,-10.11,620,-1435,8072,0,-1,-1
-10.05,4.26,-10.11,629,-1442,8074,0,-1,0
-10.05,4.26,-10.11,632,-1440,8079,-1,-1,0
-10.05,4.26,-10.11,623,-1430,8081,-1,-1,0
-10.05,4.27,-10.11,623,-1435,8089,-1,-1,0
-10.05,4.27,-10.11,627,-1439,8076,-1,-1,0
-10.06,4.27,-10.11,628,-1438,8063,-1,-1,0
-10.05,4.28,-10.11,626,-1436,8063,0,-1,0
-10.05,4.29,-10.10,636,-1439,8060,-1,-1,-1
-10.05,4.30,-10.10,639,-1436,8076,0,-1,0
-10.05,4.30,-10.10,636,-1435,8080,0,-1,-1
-10.05,4.31,-10.09,627,-1437,8087,0,-1,0
-10.05,4.32,-10.09,629,-1439,8077,0,-1,-1
-10.05,4.32,-10.09,629,-1441,8066,0,-1,0
-10.05,4.33,-10.09,629,-1446,8062,0,-1,0
-10.05,4.33,-10.08,634,-1433,8066,0,-1,0
-10.05,4.34,-10.07,629,-1423,8068,0,-1,-1
-10.05,4.35,-10.07,634,-1422,8064,0,-1,-1
-10.05,4.36,-10.06,636,-1418,8070,0,-1,-1
-10.05,4.36,-10.06,641,-1411,8073,-1,-1,0
-10.06,4.36,-10.06,643,-1412,8081,-1,-1,0
-10.06,4.37,-10.07,642,-1426,8076,-1,-1,0
-10.06,4.37,-10.08,638,-1438,8074,-1,-1,0
-10.06,4.37,-10.08,639,-1443,8069,-1,-1,0
-10.07,4.37,-10.08,640,-1445,8059,0,-1,0
-10.06,4.38,-10.08,642,-1441,8071,0,-1,-1
-10.06,4.38,-10.07,646,-1431,8084,0,-1,-1
-10.06,4.39,-10.07,642,-1429,8079,0,-1,0
-10.06,4.39,-10.07,638,-1427,8078,0,-1,0
-10.06,4.39,-10.06,634,-1429,8080,0,-1,0
-10.06,4.40,-10.05,631,-1420,8077,0,-1,0
-10.06,4.40,-10.05,630,-1407,8072,0,-1,0
-10.06,4.41,-10.04,632,-1412,8074,0,-1,0
-10.06,4.41,-10.04,648,-1418,8076,0,-1,0
-10.06,4.42,-10.04,642,-1421,8075,-1,-1,0
-10.07,4.43,-10.04,653,-1423,8061,0,-1,0
-10.07,4.43,-10.05,652,-1428,8065,-1,-1,0
-10.07,4.44,-10.05,648,-1423,8069,0,-1,0
-10.07,4.44,-10.05,639,-1419,8072,-1,-1,-1
-10.07,4.44,-10.05,638,-1431,8076,-1,-1,-1
-10.06,4.45,-10.05,649,-1441,8073,0,-1,-1
-10.07,4.45,-10.05,650,-1434,8071,0,-1,0
-10.07,4.46,-10.04,654,-1431,8073,0,-1,0
-10.07,4.47,-10.05,656,-1437,8073,0,-1,0
-10.07,4.47,-10.05,652,-1426,8077,0,-1,0
-10.07,4.47,-10.05,656,-1427,8061,0,-1,0
-10.07,4.48,-10.05,655,-1433,8055,0,-1,0
-10.07,4.49,-10.05,653,-1432,8060,-1,-1,0
-10.07,4.50,-10.04,660,-1428,8069,0,-1,0
-10.07,4.50,-10.04,656,-1425,8069,-1,-1,0
-10.07,4.52,-10.05,665,-1429,8063,-1,-1,0
-10.08,4.52,-10.05,660,-1428,8072,-1,-1,0
-10.08,4.52,-10.05,654,-1430,8072,-1,-1,0
-10.08,4.53,-10.05,654,-1428,8061,0,-1,0
-10.08,4.54,-10.05,653,-1428,8057,0,-1,-1
-10.09,4.54,-10.05,655,-1427,8060,0,-1,0
-10.09,4.54,-10.05,655,-1421,8061,0,-1,0
-10.08,4.55,-10.04,655,-1421,8067,0,-1,0
-10.08,4.56,-10.04,656,-1416,8077,-1,-1,0
-10.08,4.56,-10.05,660,-1421,8090,-1,-1,0
-10.09,4.57,-10.05,658,-1430,8083,-1,-1,0
-10.10,4.58,-10.06,662,-1425,8066,-1,-1,0
-10.10,4.58,-10.05,667,-1430,8062,0,-1,0
-10.09,4.59,-10.05,664,-1439,8056,-1,-1,0
-10.09,4.60,-10.05,675,-1437,8059,0,-1,-1
-10.09,4.60,-10.05,675,-1428,8067,0,-1,-1
-10.09,4.61,-10.04,659,-1426,8074,-1,-1,0
-10.09,4.61,-10.05,664,-1432,8080,-1,-1,0
-10.09,4.61,-10.04,666,-1430,8083,0,-1,0
-10.10,4.62,-10.04,670,-1424,8079,-1,-1,0
-10.10,4.62,-10.04,676,-1430,8080,0,0,0
-10.10,4.62,-10.04,674,-1425,8074,0,0,0
-10.09,4.61,-10.04,675,-1424,8067,0,0,-1
-10.10,4.59,-10.03,667,-1423,8057,0,0,-1
-10.09,4.58,-10.02,660,-1413,8067,0,0,-1
-10.08,4.57,-10.02,654,-1405,8077,-1,0,-1
-10.08,4.56,-10.02,652,-1409,8078,-1,0,0
-10.08,4.55,-10.03,649,-1410,8080,-1,0,0
-10.09,4.55,-10.03,653,-1420,8076,-1,0,0
-10.09,4.54,-10.04,656,-1432,8062,-1,0,-1
-10.08,4.54,-10.05,666,-1436,8061,-1,0,-1
-10.08,4.54,-10.05,673,-1442,8068,0,0,-1
-10.08,4.53,-10.04,670,-1442,8069,0,0,-1
-10.07,4.52,-10.04,652,-1437,8072,0,0,-1
-10.07,4.52,-10.04,648,-1435,8077,0,0,-1
-10.07,4.51,-10.04,648,-1419,8072,0,0,-1
-10.07,4.50,-10.03,651,-1415,8076,0,0,-1
-10.07,4.50,-10.03,649,-1405,8075,-1,0,0
-10.07,4.49,-10.03,649,-1420,8073,-1,0,-1
-10.07,4.49,-10.04,648,-1423,8071,-1,0,0
-10.07,4.48,-10.04,646,-1417,8081,-1,0,0
-10.07,4.47,-10.05,643,-1430,8082,-1,0,-1
-10.06,4.47,-10.05,648,-1433,8078,0,0,-1
-10.06,4.47,-10.05,651,-1425,8074,-1,0,0
-10.06,4.47,-10.05,656,-1432,8071,-1,0,-1
-10.06,4.46,-10.06,648,-1432,8074,-1,0,0
-10.05,4.45,-10.06,646,-1431,8074,-1,0,-1
-10.06,4.45,-10.06,645,-1430,8079,-1,0,-1
-10.06,4.45,-10.06,644,-1425,8086,-1,0,0
-10.06,4.43,-10.06,636,-1427,8080,-1,0,0
-10.06,4.43,-10.06,638,-1426,8081,-1,0,-1
-10.05,4.43,-10.05,633,-1424,8075,0,0,-1
-10.05,4.42,-10.06,638,-1429,8074,-1,0,0
-10.05,4.41,-10.05,643,-1425,8077,0,0,0
-10.05,4.41,-10.05,646,-1425,8083,0,0,-1
-10.05,4.41,-10.05,638,-1421,8080,-1,0,0
-10.05,4.41,-10.05,642,-1419,8084,-1,0,-1
-10.04,4.40,-10.05,643,-1412,8081,-1,0,-1
-10.04,4.39,-10.06,638,-1410,8083,-1,0,0
-10.05,4.38,-10.06,636,-1420,8077,-1,0,0
-10.05,4.37,-10.08,637,-1435,8085,-1,0,0
-10.05,4.37,-10.08,633,-1431,8075,-1,0,0
-10.05,4.36,-10.08,632,-1437,8065,-1,0,-1
-10.05,4.36,-10.09,629,-1454,8068,-1,0,-1
-10.04,4.35,-10.09,622,-1439,8061,0,0,-1
-10.05,4.35,-10.08,630,-1430,8060,0,0,-1
-10.04,4.34,-10.08,631,-1431,8071,0,0,-1
-10.04,4.33,-10.08,634,-1422,8071,-1,0,-1
-10.04,4.32,-10.08,627,-1424,8075,-1,0,0
-10.03,4.31,-10.08,624,-1421,8077,-1,0,0
-10.04,4.30,-10.08,616,-1421,8082,-1,0,0
-10.04,4.29,-10.09,614,-1426,8086,-1,0,0
-10.04,4.28,-10.09,612,-1428,8079,-1,0,-1
-10.04,4.27,-10.09,613,-1429,8081,-1,0,0
-10.04,4.27,-10.09,621,-1434,8077,-1,0,0
-10.04,4.26,-10.10,628,-1437,8064,-1,0,0
-10.03,4.26,-10.11,626,-1432,8068,-1,0,-1
-10.03,4.24,-10.11,630,-1430,8068,-1,0,0
-10.03,4.23,-10.12,631,-1426,8066,-1,0,0
-10.03,4.22,-10.13,614,-1433,8060,-1,0,0
-10.03,4.20,-10.14,615,-1446,8062,-1,0,0
-10.03,4.19,-10.15,604,-1451,8078,-1,0,0
-10.03,4.17,-10.15,590,-1442,8071,-1,0,0
-10.03,4.17,-10.17,596,-1454,8072,-1,0,-1
-10.03,4.16,-10.17,603,-1452,8070,-1,0,-1
-10.03,4.15,-10.16,601,-1450,8057,0,0,-1
-10.02,4.14,-10.16,603,-1441,8066,0,0,-1
-10.02,4.13,-10.16,597,-1448,8066,0,0,-1
-10.02,4.12,-10.16,594,-1429,8071,0,0,-1
-10.01,4.11,-10.15,605,-1428,8083,-1,0,-1
-10.02,4.10,-10.15,600,-1428,8073,-1,0,0
-10.02,4.08,-10.16,594,-1429,8065,-1,0,0
-10.02,4.07,-10.17,586,-1442,8071,-1,0,0
-10.02,4.06,-10.17,591,-1442,8074,-1,0,0
-10.02,4.05,-10.18,583,-1445,8074,-1,0,-1
-10.02,4.04,-10.18,580,-1449,8068,-1,0,0
-10.02,4.03,-10.19,579,-1453,8070,-1,0,0
-10.02,4.03,-10.19,580,-1455,8065,-1,0,0
-10.02,4.02,-10.19,587,-1442,8068,-1,0,0
-10.02,4.02,-10.19,585,-1443,8060,0,0,0
-10.02,4.01,-10.20,576,-1456,8064,-1,0,0
-10.02,4.01,-10.19,574,-1446,8066,0,0,-1
-10.02,4.00,-10.19,564,-1442,8070,0,-1,0
-10.02,4.00,-10.18,567,-1445,8075,0,-1,-1
-10.01,4.01,-10.19,570,-1449,8077,0,-1,-1
-10.01,4.02,-10.18,571,-1443,8080,0,-1,-1
-10.01,4.03,-10.17,584,-1441,8059,0,-1,-1
-10.01,4.04,-10.17,592,-1445,8065,0,-1,0
-10.01,4.05,-10.17,589,-1448,8070,0,-1,0
-10.01,4.05,-10.17,589,-1457,8073,0,-1,0
-10.01,4.06,-10.18,590,-1457,8071,0,-1,-1
-10.01,4.06,-10.17,589,-1457,8078,0,-1,-1
-10.01,4.06,-10.16,577,-1453,8075,0,-1,-1
-10.01,4.07,-10.16,578,-1452,8070,0,-1,-1
-10.01,4.08,-10.15,589,-1442,8076,0,-1,-1
-10.01,4.09,-10.14,595,-1434,8080,0,-1,0
-10.01,4.09,-10.14,597,-1431,8081,0,-1,0
-10.01,4.10,-10.15,596,-1433,8084,0,-1,0
-10.01,4.10,-10.15,597,-1431,8088,0,-1,0
-10.01,4.10,-10.15,597,-1438,8085,0,-1,0
-10.01,4.11,-10.14,600,-1440,8074,0,-1,0
-10.02,4.11,-10.14,596,-1444,8079,0,-1,0
-10.02,4.12,-10.13,593,-1442,8082,0,-1,-1
-10.01,4.13,-10.13,588,-1437,8081,0,-1,-1
-10.01,4.14,-10.13,598,-1439,8079,0,-1,-1
-10.01,4.15,-10.12,608,-1445,8077,0,-1,-1
-10.01,4.16,-10.12,610,-1442,8081,0,-1,0
-10.01,4.16,-10.12,619,-1440,8074,0,-1,0
-10.01,4.17,-10.12,618,-1432,8065,0,-1,0
-10.01,4.17,-10.11,612,-1439,8073,0,-1,0
-10.01,4.17,-10.11,608,-1435,8081,0,0,-1
-10.01,4.17,-10.11,608,-1434,8085,-1,-1,0
-10.01,4.17,-10.11,599,-1436,8074,-1,-1,0
-10.01,4.18,-10.11,599,-1435,8080,0,-1,0
-10.01,4.19,-10.10,608,-1436,8078,0,-1,0
-10.01,4.19,-10.11,603,-1434,8077,0,-1,-1
-10.01,4.20,-10.10,605,-1435,8074,0,-1,-1
-10.01,4.21,-10.09,610,-1436,8069,0,-1,0
-10.01,4.22,-10.09,615,-1434,8063,0,-1,-1
-10.01,4.22,-10.09,610,-1432,8075,0,-1,0
-10.01,4.22,-10.09,612,-1429,8072,0,-1,0
-10.01,4.22,-10.09,617,-1426,8073,0,-1,0
-10.01,4.23,-10.09,616,-1438,8067,0,-1,0
-10.02,4.24,-10.08,611,-1430,8070,0,-1,0
-10.02,4.24,-10.08,608,-1432,8071,0,-1,-1
-10.01,4.25,-10.08,615,-1425,8063,0,-1,0
-10.02,4.25,-10.08,621,-1435,8070,-1,-1,0
-10.02,4.26,-10.08,625,-1421,8064,0,-1,0
-10.02,4.26,-10.08,618,-1430,8063,-1,-1,0
-10.02,4.27,-10.08,616,-1429,8075,0,-1,0
-10.02,4.27,-10.08,610,-1429,8084,-1,-1,0
-10.02,4.27,-10.08,605,-1435,8071,0,-1,0
-10.02,4.29,-10.07,612,-1440,8060,0,-1,0
-10.02,4.30,-10.07,619,-1437,8064,0,-1,0
-10.02,4.31,-10.06,625,-1427,8077,0,-1,-1
-10.02,4.32,-10.06,624,-1416,8079,0,-1,0
-10.02,4.32,-10.06,630,-1416,8080,-1,-1,0
-10.02,4.33,-10.06,630,-1422,8078,-1,-1,0
-10.03,4.33,-10.06,628,-1435,8078,-1,-1,0
-10.03,4.34,-10.06,633,-1441,8073,0,-1,0
-10.03,4.34,-10.07,624,-1438,8065,0,-1,0
-10.03,4.35,-10.06,632,-1438,8069,0,-1,-1
-10.03,4.36,-10.05,630,-1435,8068,0,-1,-1
-10.03,4.37,-10.05,636,-1424,8063,0,-1,-1
-10.03,4.37,-10.04,643,-1424,8064,0,-1,-1
-10.03,4.37,-10.04,643,-1418,8069,0,-1,0
-10.03,4.38,-10.04,636,-1413,8067,-1,-1,0
-10.03,4.38,-10.04,626,-1413,8071,-1,-1,0
-10.03,4.38,-10.04,630,-1420,8070,-1,-1,0
-10.03,4.39,-10.04,634,-1427,8072,-1,-1,0
-10.03,4.39,-10.05,629,-1430,8065,-1,-1,0
-10.04,4.40,-10.04,634,-1430,8068,0,-1,0
-10.04,4.41,-10.04,637,-1430,8071,0,-1,-1
-10.04,4.41,-10.04,637,-1427,8064,-1,-1,0
-10.04,4.41,-10.04,639,-1440,8067,-1,-1,0
-10.04,4.42,-10.05,642,-1433,8062,0,-1,0
-10.04,4.42,-10.05,637,-1438,8068,-1,-1,0
-10.04,4.43,-10.05,640,-1434,8071,0,-1,0
-10.04,4.43,-10.04,632,-1424,8078,0,-1,-1
-10.04,4.44,-10.04,634,-1430,8076,-1,-1,0
-10.03,4.44,-10.04,636,-1429,8075,0,-1,-1
-10.04,4.45,-10.04,647,-1429,8067,0,-1,0
-10.04,4.46,-10.04,651,-1420,8073,0,-1,0
-10.04,4.46,-10.04,652,-1427,8068,0,-1,0
-10.04,4.47,-10.03,654,-1427,8074,0,-1,0
-10.04,4.47,-10.03,641,-1420,8078,0,-1,0
-10.04,4.47,-10.03,642,-1417,8074,-1,-1,0
-10.04,4.48,-10.03,641,-1420,8079,-1,-1,0
-10.05,4.48,-10.04,635,-1427,8073,-1,-1,0
-10.05,4.49,-10.04,639,-1432,8060,-1,-1,0
-10.05,4.50,-10.04,647,-1428,8066,0,-1,0
-10.05,4.50,-10.03,648,-1422,8069,0,-1,0
-10.05,4.51,-10.04,648,-1427,8067,0,-1,0
-10.05,4.52,-10.04,655,-1426,8069,0,-1,-1
-10.05,4.53,-10.04,651,-1424,8079,0,-1,0
-10.05,4.53,-10.03,654,-1421,8084,0,-1,0
-10.05,4.53,-10.03,647,-1418,8090,0,-1,0
-10.05,4.54,-10.03,651,-1418,8082,0,-1,0
-10.06,4.55,-10.03,656,-1421,8077,0,-1,0
-10.06,4.55,-10.03,658,-1421,8075,0,-1,0
-10.06,4.56,-10.03,648,-1419,8077,0,-1,0
-10.06,4.57,-10.03,651,-1409,8071,-1,-1,0
-10.06,4.57,-10.03,665,-1420,8070,-1,-1,0
-10.06,4.58,-10.03,675,-1418,8073,0,-1,0
-10.07,4.59,-10.03,666,-1421,8077,-1,-1,0
-10.08,4.59,-10.03,664,-1420,8070,-1,-1,0
-10.07,4.59,-10.04,664,-1441,8068,0,-1,0
-10.08,4.59,-10.04,658,-1436,8074,0,-1,0
-10.08,4.60,-10.04,653,-1435,8065,0,-1,0
-10.08,4.61,-10.04,662,-1433,8067,0,-1,-1
-10.08,4.61,-10.03,668,-1427,8066,0,-1,-1
-10.07,4.62,-10.03,680,-1424,8077,0,0,-1
-10.07,4.62,-10.03,692,-1428,8077,0,0,-1
-10.07,4.60,-10.02,689,-1422,8071,0,0,-1
-10.06,4.59,-10.02,683,-1429,8070,0,0,-1
-10.06,4.57,-10.03,662,-1428,8065,-1,0,-1
-10.06,4.56,-10.02,656,-1424,8072,0,0,-1
-10.06,4.55,-10.02,655,-1428,8074,0,0,-1
-10.06,4.55,-10.02,650,-1424,8072,-1,0,-1
-10.05,4.55,-10.02,651,-1425,8072,-1,0,-1
-10.05,4.55,-10.02,660,-1425,8060,-1,0,0
-10.05,4.54,-10.03,665,-1430,8062,-1,0,0
-10.05,4.53,-10.03,663,-1427,8056,0,0,0
-10.05,4.53,-10.03,659,-1435,8067,0,0,-1
-10.05,4.53,-10.02,654,-1433,8068,0,0,-1
-10.05,4.52,-10.02,652,-1421,8063,0,0,-1
-10.05,4.51,-10.01,645,-1412,8074,0,0,-1
-10.04,4.51,-10.01,651,-1405,8073,0,0,-1
-10.04,4.51,-10.01,655,-1398,8070,-1,0,0
-10.04,4.50,-10.01,661,-1405,8067,-1,0,0
-10.04,4.50,-10.02,656,-1415,8074,-1,0,0
-10.04,4.49,-10.03,655,-1423,8083,-1,0,0
-10.04,4.48,-10.04,647,-1431,8083,-1,0,0
-10.03,4.47,-10.04,649,-1435,8071,-1,0,-1
-10.03,4.46,-10.05,638,-1437,8078,-1,0,-1
-10.03,4.46,-10.05,638,-1435,8082,0,0,-1
-10.03,4.45,-10.04,645,-1434,8085,0,0,-1
-10.03,4.44,-10.04,644,-1420,8083,0,0,-1
-10.02,4.44,-10.04,639,-1422,8078,-1,0,-1
-10.02,4.44,-10.04,640,-1423,8068,0,0,-1
-10.02,4.43,-10.04,645,-1422,8069,-1,0,-1
-10.02,4.42,-10.04,636,-1414,8071,-1,0,-1
-10.02,4.42,-10.04,647,-1415,8065,-1,0,-1
-10.02,4.41,-10.04,639,-1415,8077,-1,0,-1
-10.02,4.39,-10.05,630,-1425,8070,-1,0,-1
-10.01,4.39,-10.06,630,-1431,8082,-1,0,-1
-10.01,4.38,-10.05,634,-1430,8074,-1,0,0
-10.01,4.37,-10.06,633,-1429,8071,-1,0,-1
-10.00,4.36,-10.07,634,-1418,8082,-1,0,-1
-10.01,4.34,-10.07,636,-1430,8081,0,0,-1
-10.01,4.32,-10.08,637,-1425,8087,-1,0,0
-10.01,4.31,-10.08,624,-1439,8080,-1,0,0
-10.00,4.29,-10.09,637,-1437,8081,-1,0,0
-10.00,4.27,-10.10,621,-1447,8079,0,0,-1
-10.00,4.25,-10.10,622,-1433,8077,-1,0,-1
-10.00,4.23,-10.10,592,-1437,8083,-1,0,-1
-10.00,4.22,-10.11,602,-1440,8070,-1,0,0
-10.00,4.21,-10.11,604,-1435,8069,0,0,-1
-9.99,4.19,-10.10,606,-1431,8070,-1,0,-1
-9.99,4.18,-10.10,605,-1429,8072,0,0,0
-9.99,4.16,-10.11,604,-1426,8067,-1,0,-1
-9.99,4.15,-10.11,598,-1433,8060,0,0,0
-9.99,4.14,-10.11,602,-1426,8071,-1,0,0
-10.00,4.13,-10.11,596,-1434,8076,-1,0,0
-9.99,4.13,-10.12,604,-1432,8083,-1,0,-1
-9.99,4.12,-10.12,590,-1425,8076,-1,0,-1
-9.99,4.11,-10.13,590,-1449,8079,-1,0,-1
-9.99,4.10,-10.14,587,-1457,8083,-1,0,0
-9.99,4.10,-10.14,589,-1454,8078,0,0,0
-9.99,4.10,-10.14,595,-1437,8073,0,0,-1
-9.98,4.10,-10.14,596,-1431,8071,-1,-1,-1
-9.98,4.10,-10.14,592,-1439,8064,0,-1,0
-9.98,4.10,-10.14,600,-1450,8062,0,0,-1
-9.98,4.10,-10.13,604,-1440,8073,0,0,-1
-9.98,4.10,-10.13,590,-1429,8082,-1,0,0
-9.98,4.10,-10.13,590,-1434,8089,-1,0,-1
-9.98,4.10,-10.13,589,-1439,8082,0,0,0
-9.98,4.09,-10.14,582,-1445,8075,-1,0,0
-9.98,4.09,-10.14,587,-1444,8064,0,-1,0
-9.98,4.09,-10.13,582,-1441,8065,0,-1,0
-9.98,4.09,-10.13,587,-1442,8058,0,-1,0
-9.98,4.10,-10.13,587,-1438,8063,0,-1,-1
-9.98,4.10,-10.12,595,-1435,8064,-1,-1,-1
-9.98,4.10,-10.13,590,-1425,8067,-1,-1,0
-9.98,4.10,-10.13,591,-1432,8075,-1,0,0
-9.98,4.10,-10.14,593,-1440,8080,-1,-1,-1
-9.98,4.10,-10.14,594,-1450,8076,-1,-1,0
-9.97,4.10,-10.14,592,-1449,8075,-1,-1,0
-9.97,4.11,-10.14,598,-1444,8065,0,-1,0
-9.97,4.12,-10.14,605,-1442,8066,0,-1,-1
-9.97,4.12,-10.14,603,-1437,8064,0,-1,-1
-9.97,4.13,-10.13,602,-1440,8079,0,-1,-1
-9.97,4.13,-10.13,600,-1442,8086,0,-1,-1
-9.97,4.13,-10.12,594,-1436,8084,0,-1,-1
-9.97,4.14,-10.11,595,-1426,8079,0,-1,-1
-9.97,4.15,-10.11,595,-1437,8074,0,-1,-1
-9.97,4.16,-10.11,599,-1436,8065,0,-1,0
-9.97,4.17,-10.11,604,-1438,8068,0,-1,0
-9.97,4.18,-10.10,606,-1434,8076,0,-1,0
-9.98,4.18,-10.10,608,-1422,8080,-1,-1,0
-9.98,4.18,-10.10,615,-1431,8072,0,-1,-1
-9.98,4.19,-10.10,614,-1433,8072,0,-1,-1
-9.98,4.19,-10.10,607,-1433,8071,-1,-1,0
-9.98,4.19,-10.10,603,-1434,8076,-1,-1,0
-9.98,4.19,-10.10,598,-1435,8081,-1,-1,0
-9.98,4.20,-10.11,596,-1445,8074,0,-1,0
-9.98,4.20,-10.11,605,-1448,8070,0,-1,-1
-9.98,4.20,-10.11,610,-1440,8075,0,-1,-1
-9.98,4.20,-10.11,613,-1440,8082,0,0,-1
-9.97,4.21,-10.10,615,-1425,8085,0,0,-1
-9.97,4.21,-10.10,601,-1421,8077,-1,-1,0
-9.97,4.21,-10.10,613,-1436,8075,-1,-1,0
-9.97,4.22,-10.11,617,-1438,8076,0,-1,0
-9.97,4.22,-10.09,616,-1417,8075,0,-1,0
-9.97,4.23,-10.10,614,-1420,8080,-1,-1,-1
-9.97,4.24,-10.10,608,-1436,8077,0,-1,0
-9.97,4.24,-10.10,612,-1443,8075,-1,-1,-1
-9.97,4.24,-10.10,614,-1443,8074,-1,-1,-1
-9.97,4.25,-10.11,605,-1435,8079,-1,-1,0
-9.97,4.25,-10.11,619,-1451,8077,-1,-1,0
-9.97,4.26,-10.11,623,-1456,8066,0,-1,0
-9.97,4.27,-10.10,612,-1452,8064,0,-1,0
-9.97,4.27,-10.10,614,-1447,8067,0,-1,0
-9.97,4.28,-10.09,618,-1434,8069,0,-1,-1
-9.97,4.28,-10.08,615,-1425,8069,0,-1,-1
-9.97,4.28,-10.08,613,-1423,8075,-1,-1,0
-9.97,4.28,-10.08,607,-1431,8080,0,-1,0
-9.97,4.29,-10.08,609,-1430,8080,0,-1,0
-9.98,4.30,-10.08,611,-1432,8087,0,-1,0
-9.98,4.30,-10.07,618,-1433,8084,0,-1,0
-9.98,4.32,-10.07,623,-1434,8071,0,-1,0
-9.98,4.33,-10.07,622,-1434,8072,0,-1,-1
-9.98,4.33,-10.06,618,-1431,8061,0,-1,-1
-9.98,4.33,-10.06,622,-1421,8067,0,-1,-1
-9.98,4.34,-10.05,627,-1421,8080,-1,-1,0
-9.98,4.35,-10.05,630,-1418,8082,0,-1,-1
-9.98,4.35,-10.05,637,-1424,8084,-1,-1,0
-9.98,4.35,-10.06,631,-1430,8086,-1,-1,0
-9.98,4.35,-10.06,628,-1431,8087,0,-1,0
-9.98,4.35,-10.06,624,-1429,8077,-1,-1,0
-9.98,4.36,-10.06,623,-1435,8080,0,-1,-1
-9.98,4.38,-10.05,632,-1433,8077,0,-1,-1
-9.98,4.38,-10.05,635,-1438,8075,0,-1,0
-9.99,4.38,-10.05,630,-1440,8076,0,-1,0
-9.99,4.39,-10.04,629,-1426,8081,0,-1,0
-9.99,4.39,-10.04,625,-1414,8075,0,-1,0
-9.99,4.40,-10.03,627,-1416,8074,0,-1,0
-9.99,4.40,-10.03,627,-1420,8067,0,-1,0
-9.99,4.41,-10.03,629,-1422,8066,0,-1,0
-9.99,4.41,-10.03,635,-1423,8064,0,-1,0
-10.00,4.41,-10.03,637,-1417,8064,0,-1,0
-9.99,4.42,-10.03,640,-1421,8065,0,-1,0
-9.99,4.42,-10.03,639,-1427,8071,0,-1,-1
-9.99,4.43,-10.02,638,-1424,8076,0,-1,0
-9.99,4.43,-10.02,643,-1426,8070,0,-1,0
-9.99,4.43,-10.02,646,-1422,8068,0,0,-1
-9.99,4.43,-10.02,650,-1411,8081,-1,0,0
-9.99,4.43,-10.03,626,-1406,8081,-1,-1,0
-10.00,4.43,-10.04,631,-1425,8081,-1,-1,0
-9.99,4.43,-10.05,645,-1434,8076,-1,-1,0
-9.99,4.43,-10.05,630,-1432,8066,-1,-1,0
-9.99,4.43,-10.05,619,-1430,8068,-1,-1,0
-10.00,4.44,-10.05,627,-1443,8060,0,-1,0
-10.00,4.45,-10.05,635,-1447,8052,0,-1,-1
-10.00,4.45,-10.04,637,-1435,8061,0,-1,-1
-10.00,4.46,-10.03,642,-1436,8073,0,-1,0
-10.00,4.46,-10.03,646,-1422,8074,0,-1,-1
-10.00,4.47,-10.02,648,-1417,8062,0,-1,-1
-10.00,4.47,-10.01,648,-1406,8055,-1,-1,-1
-10.00,4.48,-10.01,652,-1415,8064,0,-1,0
-10.00,4.48,-10.01,653,-1419,8076,-1,-1,0
-10.00,4.48,-10.01,649,-1410,8082,-1,-1,0
-10.01,4.48,-10.02,650,-1419,8088,-1,-1,0
-10.01,4.48,-10.03,646,-1443,8083,-1,-1,0
-10.00,4.50,-10.03,647,-1446,8079,0,-1,0
-10.01,4.50,-10.02,652,-1436,8081,0,-1,0
-10.01,4.52,-10.03,652,-1431,8070,0,-1,-1
-10.01,4.52,-10.02,661,-1428,8071,0,-1,-1
-10.01,4.53,-10.01,671,-1414,8070,0,-1,-1
-10.01,4.53,-10.01,675,-1404,8078,0,-1,0
-10.01,4.54,-10.01,664,-1406,8068,-1,-1,0
-10.01,4.54,-10.01,660,-1409,8075,-1,-1,0
-10.01,4.54,-10.01,654,-1421,8073,-1,-1,0
-10.02,4.54,-10.02,652,-1427,8073,-1,-1,0
-10.01,4.55,-10.02,652,-1425,8075,0,-1,0
-10.01,4.56,-10.01,657,-1420,8070,0,-1,-1
-10.01,4.57,-10.00,662,-1416,8072,0,-1,-1
-10.01,4.57,-10.00,661,-1411,8072,0,-1,0
-10.01,4.57,-10.00,665,-1408,8070,0,-1,0
-10.01,4.57,-10.00,668,-1408,8074,-1,0,0
-10.02,4.57,-10.00,665,-1413,8084,-1,-1,0
-10.02,4.57,-10.01,667,-1418,8076,-1,-1,0
-10.03,4.57,-10.01,660,-1426,8076,-1,-1,0
-10.03,4.58,-10.02,661,-1429,8072,-1,-1,0
-10.03,4.58,-10.02,661,-1429,8071,0,-1,0
-10.03,4.58,-10.02,653,-1428,8066,0,-1,-1
-10.03,4.58,-10.02,661,-1429,8076,0,-1,0
-10.03,4.59,-10.01,657,-1420,8071,0,-1,0
-10.03,4.58,-10.01,661,-1413,8059,0,-1,0
-10.03,4.58,-10.01,659,-1422,8072,-1,-1,0
-10.03,4.59,-10.01,664,-1422,8077,0,-1,0
-10.03,4.59,-10.01,665,-1412,8071,0,-1,-1
-10.03,4.59,-10.01,673,-1414,8066,-1,0,-1
-10.03,4.59,-10.00,673,-1417,8066,0,0,-1
-10.03,4.58,-10.00,671,-1416,8068,0,0,-1
-10.03,4.57,-10.00,670,-1422,8068,-1,0,-1
-10.02,4.57,-10.00,670,-1423,8067,-1,0,-1
-10.02,4.56,-10.00,668,-1409,8067,-1,0,-1
-10.02,4.55,-10.00,669,-1412,8062,-1,0,-1
-10.02,4.54,-10.00,661,-1419,8066,-1,0,-1
-10.02,4.54,-10.00,665,-1424,8075,-1,0,-1
-10.02,4.53,-10.01,660,-1427,8067,-1,0,-1
-10.01,4.52,-10.01,656,-1429,8069,0,0,-1
-10.01,4.52,-10.01,655,-1427,8080,0,0,-1
-10.01,4.51,-10.00,647,-1431,8073,0,0,-1
-10.01,4.50,-10.00,655,-1433,8066,0,0,-1
-10.01,4.50,-10.00,648,-1424,8063,0,0,-1
-10.01,4.49,-10.00,648,-1417,8070,0,0,-1
-10.00,4.49,-9.99,644,-1415,8077,-1,0,-1
-10.00,4.49,-9.99,656,-1418,8075,0,0,0
-10.00,4.48,-10.00,658,-1422,8065,-1,0,0
-10.00,4.47,-10.01,652,-1423,8061,-1,0,0
-10.00,4.46,-10.01,657,-1417,8066,0,0,0
-10.00,4.46,-10.01,647,-1423,8068,-1,0,-1
-10.00,4.46,-10.01,645,-1417,8069,0,0,-1
-9.99,4.45,-10.00,644,-1419,8074,-1,0,-1
-9.99,4.44,-10.01,641,-1421,8071,-1,0,-1
-9.99,4.44,-10.02,648,-1430,8075,-1,0,0
-9.99,4.44,-10.02,643,-1430,8087,-1,0,0
-9.99,4.43,-10.02,647,-1437,8096,-1,0,0
-9.99,4.43,-10.02,646,-1435,8087,0,0,0
-9.99,4.42,-10.02,650,-1437,8067,0,0,-1
-9.99,4.41,-10.02,648,-1431,8071,0,0,-1
-9.98,4.41,-10.01,649,-1423,8061,0,0,-1
-9.98,4.41,-10.01,639,-1420,8065,0,0,-1
-9.98,4.40,-10.01,639,-1427,8065,0,0,-1
-9.98,4.39,-10.01,643,-1418,8079,0,0,0
-9.98,4.39,-10.01,640,-1418,8080,-1,0,0
-9.98,4.39,-10.02,634,-1416,8077,-1,0,0
-9.98,4.38,-10.02,628,-1420,8074,-1,0,0
-9.98,4.37,-10.02,635,-1422,8059,0,0,0
-9.98,4.37,-10.02,638,-1418,8063,0,0,-1
-9.98,4.37,-10.01,632,-1410,8064,0,0,0
-9.98,4.36,-10.01,633,-1405,8077,-1,0,-1
-9.97,4.35,-10.01,628,-1411,8077,-1,0,0
-9.97,4.35,-10.01,627,-1418,8075,-1,0,0
-9.98,4.34,-10.02,630,-1420,8072,-1,0,0
-9.98,4.33,-10.03,631,-1429,8076,-1,0,-1
-9.98,4.32,-10.03,619,-1428,8075,0,0,0
-9.97,4.32,-10.03,622,-1437,8079,-1,0,-1
-9.97,4.32,-10.04,621,-1439,8068,-1,0,-1
-9.97,4.32,-10.03,627,-1432,8065,0,0,-1
-9.97,4.31,-10.03,627,-1435,8065,0,0,0
-9.97,4.30,-10.03,635,-1431,8063,-1,0,-1
-9.97,4.30,-10.03,630,-1421,8064,0,0,0
-9.97,4.29,-10.03,630,-1419,8058,0,0,0
-9.97,4.29,-10.03,630,-1419,8061,0,0,-1
-9.97,4.28,-10.03,626,-1414,8058,-1,0,-1
-9.97,4.27,-10.03,620,-1425,8067,-1,0,0
-9.97,4.26,-10.03,620,-1424,8067,-1,0,0
-9.97,4.25,-10.04,624,-1421,8074,-1,0,0
-9.97,4.25,-10.04,619,-1423,8072,-1,0,0
-9.96,4.25,-10.04,619,-1425,8075,-1,0,-1
-9.96,4.24,-10.05,626,-1428,8070,-1,0,0
-9.96,4.23,-10.05,627,-1433,8073,-1,0,0
-9.96,4.22,-10.06,617,-1437,8071,-1,0,0
-9.96,4.21,-10.06,616,-1434,8075,-1,0,0
-9.97,4.20,-10.06,609,-1435,8074,-1,0,0
-9.97,4.19,-10.07,604,-1427,8066,-1,0,0
-9.97,4.19,-10.07,602,-1436,8076,-1,0,0
-9.97,4.18,-10.07,605,-1437,8074,0,0,-1
-9.96,4.18,-10.07,607,-1434,8078,0,0,-1
-9.96,4.18,-10.07,607,-1435,8074,0,0,-1
-9.96,4.18,-10.07,610,-1441,8062,0,0,-1
-9.95,4.18,-10.07,615,-1435,8072,-1,0,-1
-9.95,4.18,-10.07,623,-1435,8068,0,0,0
-9.95,4.18,-10.07,614,-1436,8068,0,0,-1
-9.95,4.18,-10.06,618,-1425,8075,0,-1,-1
-9.95,4.18,-10.06,618,-1432,8069,0,0,-1
-9.95,4.18,-10.06,616,-1430,8071,0,0,-1
-9.95,4.18,-10.06,611,-1421,8070,-1,0,-1
-9.95,4.18,-10.06,601,-1420,8077,-1,0,0
-9.95,4.18,-10.07,599,-1427,8076,-1,-1,0
-9.95,4.19,-10.07,613,-1443,8075,-1,-1,0
-9.95,4.19,-10.08,608,-1445,8075,0,-1,-1
-9.95,4.19,-10.08,612,-1444,8074,0,-1,0
-9.96,4.20,-10.08,619,-1452,8074,0,-1,0
-9.95,4.21,-10.07,629,-1445,8073,0,-1,-1
-9.95,4.22,-10.06,632,-1420,8075,0,0,-1
-9.95,4.21,-10.05,614,-1401,8085,-1,0,-1
-9.95,4.21,-10.06,610,-1424,8085,-1,-1,0
-9.95,4.21,-10.06,611,-1433,8083,-1,0,0
-9.95,4.21,-10.06,610,-1433,8084,0,-1,0
-9.95,4.22,-10.05,606,-1429,8090,0,-1,0
-9.95,4.23,-10.05,616,-1430,8083,0,-1,-1
-9.95,4.23,-10.05,612,-1440,8067,0,-1,-1
-9.95,4.23,-10.04,615,-1436,8064,0,-1,-1
-9.95,4.24,-10.04,624,-1423,8057,0,-1,0
-9.95,4.25,-10.04,626,-1429,8068,0,-1,0
-9.95,4.26,-10.04,630,-1425,8064,-1,0,0
-9.96,4.25,-10.04,620,-1426,8064,-1,0,0
-9.96,4.25,-10.05,614,-1431,8068,-1,-1,0
-9.96,4.25,-10.05,611,-1434,8071,-1,-1,0
-9.96,4.25,-10.05,617,-1437,8074,0,-1,0
-9.96,4.25,-10.05,615,-1441,8084,0,-1,0
-9.95,4.26,-10.05,615,-1436,8072,0,-1,-1
-9.96,4.26,-10.05,618,-1434,8085,0,-1,-1
-9.96,4.27,-10.04,616,-1431,8080,0,-1,-1
-9.96,4.27,-10.04,620,-1426,8075,0,-1,-1
-9.96,4.28,-10.03,628,-1417,8065,0,-1,0
-9.96,4.28,-10.03,625,-1419,8061,0,-1,0
-9.96,4.28,-10.03,620,-1421,8064,0,-1,0
-9.96,4.28,-10.03,623,-1424,8066,-1,-1,0
-9.96,4.28,-10.03,624,-1419,8069,-1,0,0
-9.95,4.28,-10.03,630,-1427,8067,-1,-1,0
-9.95,4.28,-10.03,627,-1426,8065,-1,0,0
-9.96,4.29,-10.04,621,-1434,8070,-1,-1,-1
-9.95,4.29,-10.03,621,-1424,8077,0,0,-1
-9.95,4.28,-10.04,616,-1421,8076,-1,0,0
-9.96,4.29,-10.05,615,-1436,8077,-1,-1,0
-9.96,4.29,-10.06,616,-1449,8070,-1,-1,0
-9.96,4.30,-10.05,626,-1446,8063,0,-1,0
-9.96,4.31,-10.05,622,-1445,8068,-1,-1,0
-9.97,4.31,-10.05,623,-1451,8073,0,-1,-1
-9.96,4.32,-10.04,637,-1428,8080,0,0,-1
-9.96,4.32,-10.03,633,-1420,8078,0,0,-1
-9.96,4.32,-10.02,638,-1420,8080,0,-1,0
-9.96,4.33,-10.02,641,-1437,8076,0,0,0
-9.96,4.33,-10.02,636,-1426,8071,0,-1,-1
-9.97,4.33,-10.02,633,-1413,8066,0,-1,0
-9.97,4.34,-10.01,632,-1416,8078,-1,-1,0
-9.97,4.35,-10.01,639,-1421,8082,0,-1,0
-9.96,4.35,-10.01,632,-1414,8068,-1,-1,-1
-9.96,4.35,-10.01,629,-1417,8069,-1,-1,0
-9.97,4.35,-10.02,630,-1426,8071,-1,-1,0
-9.97,4.35,-10.02,631,-1422,8073,0,-1,0
-9.97,4.36,-10.02,635,-1424,8074,0,-1,0
-9.97,4.37,-10.02,631,-1430,8074,0,-1,-1
-9.97,4.37,-10.02,631,-1432,8070,0,-1,0
-9.97,4.38,-10.00,648,-1421,8069,0,-1,-1
-9.97,4.38,-10.00,655,-1414,8074,0,0,0
-9.97,4.39,-10.00,659,-1420,8080,0,0,0
-9.97,4.39,-10.00,650,-1421,8081,-1,0,0
-9.97,4.39,-10.00,650,-1423,8086,-1,0,0
-9.97,4.39,-10.00,638,-1422,8087,0,-1,-1
-9.97,4.40,-10.00,637,-1428,8087,0,-1,-1
-9.97,4.40,-10.00,639,-1431,8082,0,-1,-1
-9.97,4.41,-9.99,642,-1427,8070,0,-1,-1
-9.97,4.42,-9.99,644,-1420,8065,0,-1,0
-9.97,4.43,-9.99,652,-1415,8061,0,-1,-1
-9.97,4.43,-9.98,658,-1408,8063,0,-1,0
-9.97,4.43,-9.99,664,-1407,8067,-1,0,0
-9.97,4.43,-9.99,659,-1421,8067,-1,0,0
-9.97,4.43,-9.99,653,-1416,8071,-1,-1,0
-9.98,4.44,-10.00,646,-1422,8071,0,-1,0
-9.98,4.44,-10.00,646,-1417,8076,0,-1,0
-9.97,4.45,-10.00,650,-1419,8074,0,-1,0
-9.97,4.45,-10.00,646,-1421,8071,0,-1,-1
-9.98,4.45,-9.99,645,-1417,8067,0,-1,-1
-9.97,4.45,-9.99,650,-1421,8079,0,-1,0
-9.97,4.46,-9.98,648,-1415,8080,0,-1,0
-9.97,4.46,-9.98,649,-1417,8074,0,-1,-1
-9.97,4.47,-9.98,651,-1414,8066,0,-1,0
-9.97,4.48,-9.98,654,-1415,8066,-1,-1,0
-9.98,4.48,-9.99,657,-1417,8066,0,-1,0
-9.98,4.48,-9.98,662,-1418,8076,-1,-1,0
-9.98,4.49,-9.99,661,-1425,8074,-1,-1,0
-9.98,4.49,-9.99,655,-1418,8070,0,-1,0
-9.99,4.50,-9.98,656,-1423,8079,0,-1,0
-9.99,4.50,-9.98,661,-1418,8067,-1,-1,0
-9.98,4.51,-9.99,664,-1414,8071,-1,-1,0
-9.98,4.51,-9.99,658,-1410,8074,-1,0,0
-9.99,4.51,-10.00,659,-1416,8079,-1,-1,0
-9.99,4.51,-10.00,652,-1420,8076,-1,-1,0
-9.99,4.51,-10.00,651,-1426,8078,-1,-1,0
-9.99,4.52,-10.00,650,-1429,8077,-1,-1,0
-10.00,4.53,-10.00,659,-1426,8079,0,-1,0
-10.00,4.54,-10.00,667,-1428,8073,0,-1,0
-10.00,4.55,-10.00,668,-1429,8076,-1,-1,0
-10.00,4.55,-10.00,669,-1436,8076,0,-1,0
-10.00,4.56,-10.00,675,-1424,8069,0,-1,0
-10.00,4.57,-10.00,671,-1429,8068,0,-1,0
-10.00,4.57,-9.99,680,-1421,8071,0,-1,0
-10.00,4.58,-9.99,680,-1418,8067,-1,-1,-1
-10.00,4.58,-9.99,674,-1414,8067,-1,0,0
-10.00,4.58,-10.00,667,-1422,8067,-1,0,0
-10.00,4.58,-10.00,672,-1421,8074,0,0,0
-10.01,4.57,-10.00,676,-1438,8077,-1,0,-1
-10.00,4.56,-10.00,666,-1433,8067,0,0,-1
-10.00,4.56,-9.99,662,-1423,8067,0,0,-1
-10.00,4.54,-9.99,666,-1423,8053,0,0,-1
-9.99,4.54,-9.98,667,-1415,8074,0,0,-1
-9.99,4.53,-9.97,659,-1408,8083,0,0,-1
-9.98,4.52,-9.97,660,-1406,8089,-1,0,0
-9.98,4.52,-9.98,659,-1410,8088,-1,0,0
-9.98,4.51,-9.98,656,-1415,8088,-1,0,0
-9.98,4.50,-9.99,654,-1429,8074,-1,0,0
-9.98,4.50,-9.99,659,-1429,8071,-1,0,0
-9.99,4.49,-9.99,664,-1434,8063,0,0,-1
-9.98,4.49,-9.99,660,-1435,8066,0,0,-1
-9.98,4.49,-9.99,661,-1424,8067,0,0,-1
-9.97,4.48,-9.98,656,-1412,8062,-1,0,-1
-9.97,4.48,-9.98,655,-1415,8080,-1,0,-1
-9.97,4.47,-9.98,662,-1416,8073,-1,0,-1
-9.97,4.47,-9.99,660,-1420,8071,-1,0,0
-9.97,4.46,-9.99,659,-1417,8068,-1,0,-1
-9.97,4.45,-10.00,652,-1414,8067,-1,0,0
-9.97,4.45,-10.00,655,-1418,8065,-1,0,-1
-9.96,4.44,-9.99,651,-1417,8066,-1,0,-1
-9.96,4.43,-9.99,648,-1418,8077,-1,0,-1
-9.96,4.42,-9.99,644,-1419,8083,-1,0,0
-9.96,4.41,-9.99,641,-1425,8084,0,0,-1
-9.96,4.41,-9.99,642,-1422,8081,0,0,-1
-9.96,4.41,-9.99,644,-1417,8082,0,0,-1
-9.96,4.41,-9.99,647,-1416,8079,-1,0,-1
-9.96,4.40,-9.99,645,-1415,8079,0,0,-1
-9.96,4.40,-9.99,647,-1415,8084,0,0,0
-9.95,4.39,-9.99,646,-1416,8086,-1,0,0
-9.95,4.39,-9.99,649,-1421,8088,-1,0,0
-9.95,4.38,-9.99,643,-1414,8084,0,0,-1
-9.95,4.37,-9.99,644,-1421,8084,-1,0,0
-9.95,4.36,-9.99,643,-1417,8081,-1,0,0
-9.95,4.36,-9.99,644,-1418,8074,-1,0,0
-9.95,4.36,-9.99,635,-1419,8079,-1,0,0
-9.95,4.35,-10.00,632,-1418,8086,-1,0,-1
-9.95,4.34,-10.00,634,-1420,8090,-1,0,-1
-9.95,4.34,-10.00,629,-1427,8088,-1,0,-1
-9.95,4.33,-10.00,626,-1435,8087,-1,0,-1
-9.95,4.33,-10.01,629,-1436,8077,0,0,0
-9.95,4.32,-10.00,631,-1435,8085,0,0,0
-9.94,4.32,-10.00,642,-1427,8087,0,0,-1
-9.94,4.32,-10.00,642,-1420,8086,0,0,0
-9.94,4.31,-10.00,644,-1429,8085,-1,0,-1
-9.94,4.30,-10.01,639,-1427,8086,-1,0,0
-9.94,4.29,-10.01,640,-1430,8077,-1,0,0
-9.94,4.29,-10.01,634,-1426,8074,-1,0,0
-9.94,4.28,-10.01,631,-1422,8075,-1,0,-1
-9.94,4.27,-10.01,628,-1426,8074,-1,0,0
-9.94,4.27,-10.02,626,-1427,8069,-1,0,-1
-9.94,4.26,-10.02,628,-1430,8078,-1,0,-1
-9.93,4.25,-10.02,624,-1427,8082,-1,0,-1
-9.93,4.24,-10.03,622,-1426,8083,-1,0,0
-9.94,4.24,-10.04,614,-1431,8083,-1,0,0
-9.94,4.23,-10.04,614,-1435,8082,-1,0,0
-9.94,4.22,-10.04,618,-1438,8075,-1,0,0
-9.94,4.21,-10.05,618,-1440,8066,0,0,0
-9.94,4.21,-10.05,620,-1439,8064,-1,0,-1
-9.94,4.21,-10.05,614,-1439,8065,0,0,-1
-9.93,4.20,-10.05,613,-1434,8067,0,0,-1
-9.93,4.19,-10.04,609,-1429,8078,-1,0,-1
-9.93,4.18,-10.04,608,-1428,8079,0,0,0
-9.93,4.17,-10.04,602,-1424,8077,-1,0,0
-9.93,4.16,-10.05,599,-1425,8076,-1,0,0
-9.93,4.16,-10.05,600,-1426,8077,-1,0,0
-9.93,4.15,-10.05,604,-1432,8076,-1,0,-1
-9.93,4.14,-10.05,603,-1429,8061,-1,0,0
-9.93,4.14,-10.06,604,-1430,8060,-1,0,0
-9.93,4.13,-10.07,602,-1437,8066,-1,0,0
-9.93,4.13,-10.07,596,-1432,8070,-1,0,0
-9.93,4.12,-10.07,598,-1432,8075,-1,0,0
-9.93,4.11,-10.08,605,-1430,8068,-1,0,-1
-9.93,4.11,-10.08,601,-1439,8068,-1,0,-1
-9.93,4.11,-10.08,591,-1438,8071,0,0,-1
-9.93,4.11,-10.08,593,-1435,8072,0,-1,-1
-9.93,4.11,-10.08,603,-1443,8072,0,0,-1
-9.93,4.11,-10.07,606,-1432,8068,0,0,0
-9.93,4.11,-10.07,600,-1431,8066,0,-1,-1
-9.93,4.11,-10.07,598,-1431,8058,-1,-1,0
-9.93,4.12,-10.07,599,-1432,8074,0,-1,0
-9.93,4.12,-10.06,596,-1425,8066,0,-1,-1
-9.93,4.13,-10.06,593,-1430,8065,0,-1,-1
-9.93,4.14,-10.06,598,-1428,8070,0,-1,-1
-9.92,4.14,-10.05,612,-1423,8077,0,0,-1
-9.92,4.14,-10.05,607,-1418,8076,-1,-1,-1
-9.92,4.14,-10.05,612,-1429,8077,-1,-1,0
-9.92,4.15,-10.05,616,-1427,8069,-1,0,0
-9.92,4.15,-10.06,604,-1430,8071,-1,-1,0
-9.92,4.15,-10.06,601,-1429,8070,-1,-1,0
-9.92,4.15,-10.07,599,-1438,8075,-1,-1,-1
-9.92,4.15,-10.07,601,-1435,8081,0,0,-1
-9.92,4.16,-10.07,600,-1445,8068,0,-1,0
-9.92,4.16,-10.07,610,-1442,8075,0,-1,-1
-9.92,4.16,-10.06,603,-1444,8069,0,-1,-1
-9.92,4.17,-10.06,616,-1438,8071,0,0,-1
-9.92,4.17,-10.06,617,-1428,8071,0,0,0
-9.92,4.17,-10.06,606,-1433,8072,-1,-1,0
-9.92,4.17,-10.06,612,-1435,8074,0,0,0
-9.93,4.17,-10.05,605,-1425,8080,0,-1,0
-9.93,4.17,-10.05,607,-1413,8082,-1,-1,0
-9.92,4.18,-10.06,613,-1442,8073,-1,-1,0
-9.92,4.18,-10.06,616,-1445,8057,0,-1,0
-9.93,4.19,-10.06,609,-1444,8062,0,-1,-1
-9.92,4.19,-10.06,618,-1439,8068,0,-1,-1
-9.92,4.19,-10.05,615,-1434,8074,0,-1,-1
-9.92,4.20,-10.05,610,-1433,8084,0,-1,-1
-9.92,4.21,-10.04,609,-1420,8081,0,-1,-1
-9.92,4.22,-10.04,603,-1421,8084,-1,-1,0
-9.93,4.22,-10.04,608,-1431,8092,0,-1,0
-9.93,4.24,-10.04,621,-1442,8079,0,-1,0
-9.93,4.24,-10.04,621,-1431,8073,0,-1,0
-9.93,4.25,-10.04,624,-1438,8069,0,-1,-1
-9.93,4.26,-10.03,625,-1434,8070,0,-1,-1
-9.93,4.27,-10.02,629,-1427,8069,0,-1,0
-9.93,4.27,-10.02,630,-1424,8072,0,-1,-1
-9.93,4.28,-10.02,633,-1420,8074,0,-1,0
-9.93,4.28,-10.01,622,-1408,8078,0,-1,0
-9.93,4.28,-10.00,618,-1418,8078,0,-1,0
-9.94,4.29,-10.01,621,-1423,8071,0,-1,0
-9.94,4.29,-10.01,629,-1421,8070,0,-1,0
-9.94,4.30,-10.00,628,-1427,8066,0,-1,0
-9.93,4.31,-10.00,623,-1424,8067,0,-1,0
-9.93,4.32,-10.00,629,-1417,8064,0,-1,0
-9.93,4.32,-10.00,637,-1415,8069,-1,0,-1
-9.94,4.32,-10.00,637,-1421,8063,-1,0,0
-9.94,4.32,-10.01,639,-1428,8060,-1,-1,0
-9.94,4.33,-10.01,639,-1430,8060,-1,-1,0
-9.95,4.33,-10.02,633,-1439,8078,0,-1,0
-9.95,4.33,-10.01,621,-1435,8075,0,-1,-1
-9.95,4.34,-10.01,621,-1435,8070,0,-1,-1
-9.94,4.35,-10.01,626,-1429,8069,0,-1,-1
-9.94,4.36,-10.01,640,-1434,8074,0,-1,0
-9.94,4.36,-10.00,641,-1432,8071,0,-1,0
-9.94,4.36,-9.99,643,-1425,8075,0,-1,0
-9.94,4.37,-9.99,641,-1408,8072,0,-1,-1
-9.95,4.37,-9.98,641,-1403,8074,0,0,0
-9.95,4.37,-9.98,645,-1407,8077,-1,-1,0
-9.95,4.37,-9.98,642,-1412,8084,-1,-1,0
-9.94,4.38,-9.98,642,-1419,8069,-1,-1,0
-9.94,4.39,-9.98,637,-1422,8071,-1,-1,0
-9.95,4.39,-9.99,640,-1429,8074,0,-1,0
-9.95,4.40,-9.99,645,-1430,8067,0,-1,0
-9.95,4.40,-9.99,646,-1423,8065,-1,-1,0
-9.95,4.41,-9.98,649,-1421,8065,0,-1,0
-9.95,4.41,-9.98,655,-1418,8070,-1,0,0
-9.95,4.41,-9.98,656,-1419,8076,-1,0,0
-9.95,4.41,-9.98,647,-1413,8083,-1,0,0
-9.95,4.41,-9.98,646,-1418,8081,-1,-1,0
-9.95,4.42,-9.98,646,-1420,8081,0,-1,0
-9.95,4.42,-9.98,645,-1426,8082,0,-1,0
-9.95,4.43,-9.99,644,-1425,8082,0,-1,-1
-9.95,4.44,-9.98,648,-1424,8080,0,-1,0
-9.95,4.44,-9.98,648,-1428,8080,0,-1,0
-9.95,4.44,-9.98,646,-1424,8077,0,-1,0
-9.95,4.45,-9.97,654,-1417,8069,0,-1,0
-9.95,4.46,-9.97,658,-1409,8071,0,-1,0
-9.95,4.46,-9.98,656,-1407,8070,-1,-1,0
-9.95,4.47,-9.98,652,-1407,8070,-1,-1,0
-9.95,4.48,-9.98,655,-1410,8071,-1,-1,0
-9.95,4.48,-9.98,658,-1412,8072,-1,0,0
-9.96,4.47,-10.00,654,-1427,8073,-1,-1,0
-9.96,4.48,-10.00,652,-1435,8063,-1,-1,0
-9.96,4.48,-10.00,651,-1440,8059,0,-1,0
-9.96,4.49,-9.99,648,-1431,8065,0,-1,-1
-9.96,4.50,-9.99,653,-1425,8076,0,-1,-1
-9.96,4.51,-9.98,655,-1423,8078,0,-1,-1
-9.96,4.52,-9.97,661,-1419,8070,0,-1,-1
-9.96,4.53,-9.98,660,-1408,8073,0,-1,0
-9.96,4.53,-9.98,663,-1413,8084,-1,-1,0
-9.96,4.53,-9.98,666,-1417,8080,-1,-1,0
-9.96,4.53,-9.98,659,-1411,8074,-1,-1,0
-9.97,4.53,-9.99,656,-1431,8068,-1,-1,0
-9.97,4.54,-9.99,656,-1433,8065,0,-1,0
-9.97,4.54,-9.99,664,-1425,8069,0,-1,0
-9.97,4.55,-9.99,665,-1419,8075,0,-1,0
-9.97,4.55,-9.98,660,-1419,8077,0,-1,0
-9.97,4.56,-9.98,671,-1420,8075,0,-1,0
-9.97,4.57,-9.98,669,-1415,8067,-1,-1,0
-9.97,4.56,-9.99,673,-1421,8071,-1,0,0
-9.97,4.56,-9.99,684,-1423,8074,0,0,0
-9.97,4.55,-9.99,679,-1423,8071,0,0,-1
-9.97,4.54,-9.98,673,-1425,8067,0,0,-1
-9.96,4.53,-9.98,667,-1419,8070,0,0,-1
-9.96,4.52,-9.98,654,-1421,8070,0,0,-1
-9.96,4.51,-9.98,654,-1413,8057,0,0,-1
-9.96,4.50,-9.97,658,-1411,8075,0,0,-1
-9.95,4.51,-9.97,661,-1416,8075,0,0,-1
-9.95,4.50,-9.97,660,-1413,8082,-1,0,-1
-9.95,4.50,-9.97,672,-1410,8071,-1,0,0
-9.95,4.50,-9.97,668,-1421,8065,-1,0,-1
-9.95,4.50,-9.97,665,-1414,8072,0,0,-1
-9.95,4.49,-9.97,658,-1419,8071,-1,0,-1
-9.95,4.48,-9.97,648,-1419,8066,-1,0,-1
-9.95,4.47,-9.97,641,-1421,8069,0,0,-1
-9.95,4.46,-9.97,645,-1414,8068,0,0,-1
-9.94,4.46,-9.97,649,-1411,8077,-1,0,-1
-9.94,4.46,-9.97,645,-1409,8075,-1,0,-1
-9.94,4.45,-9.97,648,-1410,8074,-1,0,0
-9.94,4.45,-9.97,653,-1414,8071,-1,0,-1
-9.93,4.44,-9.97,659,-1417,8070,-1,0,-1
-9.93,4.44,-9.98,658,-1421,8064,-1,0,-1
-9.93,4.43,-9.98,649,-1422,8076,-1,0,-1
-9.94,4.42,-9.98,650,-1419,8080,0,0,-1
-9.93,4.42,-9.98,647,-1418,8085,0,0,-1
-9.93,4.42,-9.98,648,-1419,8086,0,0,0
-9.93,4.42,-9.98,649,-1415,8082,-1,0,-1
-9.93,4.42,-9.98,650,-1420,8082,-1,0,-1
-9.93,4.41,-9.98,645,-1419,8079,-1,0,0
-9.93,4.40,-9.98,641,-1416,8080,-1,0,0
-9.93,4.39,-9.98,639,-1417,8076,-1,0,0
-9.92,4.39,-9.98,642,-1413,8062,0,0,0
-9.92,4.38,-9.99,641,-1415,8067,-1,0,-1
-9.92,4.37,-9.99,640,-1413,8062,-1,0,0
-9.92,4.37,-9.99,629,-1425,8076,-1,0,-1
-9.92,4.37,-9.99,626,-1422,8077,-1,0,-1
-9.92,4.36,-10.00,628,-1417,8081,-1,0,-1
-9.92,4.35,-10.00,632,-1434,8086,-1,0,0
-9.92,4.35,-10.01,644,-1439,8074,-1,0,0
-9.92,4.35,-10.01,645,-1437,8057,0,0,0
-9.92,4.35,-10.01,640,-1435,8062,0,0,-1
-9.91,4.35,-10.00,644,-1431,8074,0,0,-1
-9.91,4.35,-10.00,644,-1423,8078,0,0,-1
-9.91,4.35,-10.00,638,-1418,8077,-1,0,-1
-9.90,4.34,-10.00,634,-1418,8078,-1,0,0
-9.90,4.32,-10.01,629,-1427,8069,-1,0,0
-9.90,4.32,-10.01,630,-1418,8083,-1,0,0
-9.91,4.31,-10.01,632,-1417,8083,-1,0,0
-9.90,4.31,-10.01,629,-1421,8071,-1,0,0
-9.91,4.30,-10.01,634,-1421,8073,-1,0,0
-9.91,4.30,-10.01,634,-1426,8069,0,0,0
-9.91,4.30,-10.01,636,-1417,8084,0,0,-1
-9.91,4.29,-10.01,630,-1414,8083,-1,0,0
-9.91,4.28,-10.01,632,-1408,8076,-1,0,0
-9.90,4.28,-10.02,629,-1416,8078,-1,0,0
-9.90,4.27,-10.03,630,-1418,8079,-1,0,0
-9.91,4.26,-10.04,622,-1424,8066,-1,0,0
-9.91,4.26,-10.04,628,-1424,8058,-1,0,0
-9.90,4.25,-10.04,628,-1424,8065,-1,0,-1
-9.90,4.24,-10.04,619,-1433,8071,-1,0,-1
-9.89,4.24,-10.05,620,-1433,8068,-1,0,-1
-9.89,4.23,-10.05,612,-1431,8066,0,0,-1
-9.89,4.22,-10.05,616,-1431,8070,0,0,-1
-9.89,4.22,-10.04,621,-1426,8073,0,0,-1
-9.89,4.21,-10.04,621,-1420,8077,0,0,-1
-9.88,4.21,-10.04,623,-1419,8078,-1,0,-1
-9.88,4.20,-10.04,617,-1421,8069,0,0,-1
-9.88,4.19,-10.04,617,-1430,8074,-1,0,0
-9.88,4.18,-10.04,616,-1430,8072,-1,0,0
-9.88,4.18,-10.04,616,-1422,8068,-1,0,0
-9.89,4.17,-10.04,603,-1418,8074,-1,0,0
-9.89,4.16,-10.05,602,-1424,8075,-1,0,-1
-9.89,4.16,-10.05,599,-1425,8076,-1,0,-1
-9.89,4.15,-10.05,605,-1427,8085,-1,0,0
-9.89,4.15,-10.05,616,-1427,8075,-1,0,0
-9.88,4.15,-10.05,606,-1424,8080,0,0,0
-9.88,4.14,-10.04,606,-1425,8076,0,0,0
-9.88,4.14,-10.04,603,-1423,8074,0,0,-1
-9.88,4.14,-10.04,605,-1427,8072,0,0,0
-9.88,4.13,-10.04,595,-1421,8060,0,0,-1
-9.88,4.13,-10.04,599,-1421,8073,-1,0,-1
-9.88,4.14,-10.04,603,-1425,8083,0,-1,-1
-9.88,4.15,-10.04,605,-1420,8079,0,-1,-1
-9.88,4.15,-10.04,599,-1427,8074,0,-1,-1
-9.88,4.16,-10.04,610,-1431,8071,0,-1,-1
-9.88,4.16,-10.03,610,-1424,8082,0,-1,-1
-9.88,4.17,-10.03,617,-1422,8074,0,-1,0
-9.88,4.17,-10.03,613,-1424,8080,-1,-1,0
-9.88,4.17,-10.03,609,-1423,8080,0,0,0
-9.88,4.17,-10.03,608,-1424,8077,0,-1,-1
-9.88,4.18,-10.03,613,-1419,8074,0,-1,-1
-9.88,4.18,-10.02,603,-1417,8079,0,-1,-1
-9.87,4.19,-10.02,606,-1416,8080,0,-1,-1
-9.87,4.19,-10.01,611,-1417,8083,0,-1,-1
-9.87,4.19,-10.01,613,-1424,8082,-1,-1,0
-9.87,4.19,-10.02,615,-1427,8081,-1,-1,0
-9.87,4.20,-10.02,617,-1433,8084,-1,-1,0
-9.88,4.21,-10.02,622,-1439,8083,0,-1,0
-9.88,4.21,-10.02,624,-1435,8075,0,-1,0
-9.88,4.22,-10.01,622,-1435,8068,0,-1,-1
-9.87,4.22,-10.00,619,-1427,8070,0,-1,-1
-9.87,4.23,-10.00,621,-1424,8072,0,-1,-1
-9.87,4.23,-10.00,620,-1418,8076,-1,0,-1
-9.87,4.23,-10.00,617,-1420,8074,-1,0,0
-9.87,4.23,-10.00,617,-1416,8072,-1,0,0
-9.88,4.23,-10.00,615,-1421,8070,-1,0,0
-9.88,4.23,-10.00,611,-1427,8074,0,-1,0
-9.88,4.23,-10.00,606,-1420,8074,-1,-1,0
-9.87,4.24,-10.00,611,-1425,8072,0,-1,0
-9.87,4.24,-10.01,615,-1426,8068,0,-1,-1
-9.87,4.25,-10.00,619,-1425,8064,0,-1,-1
-9.87,4.26,-10.00,628,-1420,8066,-1,-1,0
-9.87,4.27,-10.00,628,-1428,8071,-1,-1,0
-9.87,4.27,-10.01,631,-1425,8072,0,-1,0
-9.87,4.27,-10.01,626,-1418,8076,-1,-1,0
-9.87,4.27,-10.01,621,-1423,8069,-1,-1,0
-9.87,4.28,-10.01,624,-1433,8072,0,-1,-1
-9.87,4.29,-10.01,626,-1435,8076,0,-1,0
-9.87,4.29,-10.01,622,-1432,8079,0,-1,0
-9.87,4.29,-10.01,631,-1431,8078,0,-1,0
-9.87,4.30,-10.01,631,-1434,8082,0,-1,0
-9.87,4.31,-10.00,639,-1431,8074,0,-1,0
-9.87,4.31,-10.00,637,-1423,8076,0,-1,0
-9.87,4.32,-9.99,625,-1410,8080,0,-1,-1
-9.87,4.32,-9.99,630,-1412,8078,-1,-1,0
-9.87,4.32,-9.99,635,-1412,8073,-1,-1,0
-9.88,4.33,-9.99,635,-1420,8065,-1,-1,0
-9.88,4.33,-9.99,625,-1423,8081,-1,-1,0
-9.88,4.34,-9.99,636,-1421,8082,-1,-1,-1
-9.88,4.34,-9.99,645,-1417,8083,-1,0,0
-9.88,4.34,-9.99,638,-1421,8067,0,-1,0
-9.88,4.34,-9.99,638,-1419,8064,-1,0,0
-9.88,4.34,-10.00,637,-1422,8062,0,-1,0
-9.88,4.35,-10.00,642,-1422,8070,-1,0,0
-9.88,4.35,-10.00,630,-1425,8073,-1,-1,0
-9.88,4.35,-10.00,623,-1419,8070,-1,-1,0
-9.88,4.35,-10.01,634,-1429,8065,0,-1,0
-9.88,4.35,-10.00,638,-1428,8072,0,0,0
-9.87,4.36,-10.00,637,-1429,8078,0,-1,-1
-9.88,4.36,-10.00,640,-1431,8066,0,-1,0
-9.88,4.37,-10.00,643,-1435,8072,0,-1,-1
-9.88,4.37,-9.99,645,-1422,8081,0,-1,0
-9.88,4.37,-9.99,634,-1408,8081,0,-1,0
-9.88,4.38,-9.99,634,-1417,8079,-1,-1,0
-9.88,4.38,-10.00,623,-1431,8073,0,-1,0
-9.89,4.39,-9.99,631,-1425,8068,0,-1,0
-9.89,4.40,-9.99,637,-1423,8068,0,-1,0
-9.89,4.40,-9.99,646,-1417,8067,0,-1,-1
-9.89,4.41,-9.99,644,-1422,8070,0,-1,-1
-9.89,4.41,-9.99,640,-1418,8066,-1,-1,0
-9.88,4.42,-9.99,642,-1427,8071,-1,-1,0
-9.89,4.43,-9.99,646,-1426,8069,0,-1,0
-9.89,4.43,-9.99,647,-1420,8078,-1,-1,0
-9.89,4.44,-9.99,645,-1414,8069,0,-1,0
-9.89,4.45,-9.99,644,-1426,8063,0,-1,0
-9.89,4.45,-9.99,656,-1424,8057,0,-1,0
-9.89,4.46,-9.99,661,-1431,8059,0,-1,-1
-9.89,4.47,-9.98,662,-1419,8066,0,-1,-1
-9.89,4.47,-9.98,659,-1408,8073,0,0,0
-9.89,4.47,-9.98,654,-1409,8071,-1,-1,0
-9.89,4.48,-9.97,662,-1412,8081,-1,-1,0
-9.90,4.48,-9.98,656,-1417,8081,-1,-1,0
-9.90,4.49,-9.98,650,-1419,8077,0,-1,0
-9.90,4.50,-9.98,656,-1411,8078,0,-1,0
-9.90,4.50,-9.97,656,-1414,8065,0,-1,0
-9.90,4.50,-9.97,655,-1414,8064,0,-1,-1
-9.89,4.51,-9.97,656,-1416,8068,-1,-1,0
-9.89,4.51,-9.97,660,-1416,8070,-1,-1,0
-9.90,4.52,-9.98,655,-1419,8082,-1,-1,0
-9.90,4.52,-9.99,660,-1425,8069,-1,-1,0
-9.90,4.52,-9.99,670,-1424,8065,0,-1,0
-9.90,4.52,-9.99,671,-1422,8060,-1,0,0
-9.90,4.53,-9.99,671,-1425,8068,0,-1,-1
-9.90,4.53,-9.99,662,-1423,8065,0,-1,0
-9.90,4.54,-9.99,664,-1421,8067,0,-1,0
-9.91,4.54,-9.98,663,-1426,8066,0,-1,0
-9.91,4.54,-9.98,657,-1421,8065,0,-1,0
-9.91,4.54,-9.98,659,-1420,8068,0,-1,-1
-9.91,4.54,-9.97,668,-1417,8062,0,0,0
-9.90,4.54,-9.97,673,-1414,8074,0,0,-1
-9.90,4.54,-9.97,678,-1422,8074,-1,0,0
-9.90,4.52,-9.98,671,-1423,8081,0,0,-1
-9.90,4.52,-9.98,662,-1426,8074,0,0,-1
-9.90,4.50,-9.97,657,-1416,8071,0,0,-1
-9.90,4.50,-9.97,653,-1410,8067,0,0,-1
-9.89,4.49,-9.97,653,-1413,8079,-1,0,-1
-9.89,4.48,-9.97,656,-1409,8066,-1,0,0
-9.89,4.47,-9.98,658,-1426,8071,-1,0,-1
-9.89,4.47,-9.98,656,-1420,8066,0,0,-1
-9.88,4.47,-9.98,652,-1417,8073,-1,0,-1
-9.88,4.46,-9.99,651,-1424,8067,0,0,-1
-9.88,4.46,-9.98,653,-1422,8071,0,0,-1
-9.88,4.46,-9.98,648,-1414,8069,0,0,-1
-9.87,4.45,-9.98,651,-1420,8074,-1,0,-1
-9.87,4.45,-9.98,657,-1417,8066,0,0,-1
-9.87,4.44,-9.97,651,-1409,8070,0,0,-1
-9.86,4.44,-9.97,654,-1414,8068,-1,0,-1
-9.86,4.44,-9.98,656,-1414,8072,-1,0,-1
-9.86,4.43,-9.97,647,-1410,8077,-1,0,-1
-9.86,4.42,-9.97,649,-1409,8070,-1,0,0
-9.86,4.42,-9.98,658,-1417,8073,-1,0,-1
-9.86,4.41,-9.99,651,-1420,8076,-1,0,0
-9.86,4.41,-9.99,640,-1426,8072,-1,0,0
-9.86,4.40,-9.99,638,-1437,8076,0,0,-1
-9.86,4.39,-9.99,635,-1431,8072,0,0,-1
-9.85,4.39,-9.98,635,-1428,8071,0,0,-1
-9.85,4.39,-9.98,639,-1419,8065,0,0,-1
-9.85,4.38,-9.98,643,-1412,8063,0,0,-1
-9.85,4.37,-9.98,651,-1410,8059,-1,0,-1
-9.85,4.37,-9.98,643,-1410,8066,-1,0,0
-9.85,4.36,-9.99,644,-1406,8068,-1,0,0
-9.85,4.35,-9.99,632,-1423,8074,-1,0,0
-9.85,4.34,-10.00,629,-1420,8072,0,0,0
-9.85,4.34,-10.00,634,-1427,8073,-1,0,-1
-9.85,4.34,-10.00,632,-1440,8071,0,0,0
-9.85,4.34,-10.00,630,-1430,8069,0,0,-1
-9.84,4.33,-9.99,633,-1419,8077,0,0,-1
-9.84,4.33,-9.99,637,-1409,8071,-1,0,0
-9.84,4.32,-10.00,640,-1413,8070,-1,0,0
-9.84,4.32,-10.00,636,-1420,8068,-1,0,0
-9.84,4.31,-10.00,638,-1422,8074,-1,0,0
-9.84,4.30,-10.01,633,-1422,8069,-1,0,0
-9.84,4.29,-10.01,628,-1427,8078,-1,0,0
-9.84,4.28,-10.01,618,-1421,8080,-1,0,-1
-9.84,4.27,-10.01,616,-1418,8077,-1,0,-1
-9.84,4.27,-10.02,619,-1422,8080,-1,0,-1
-9.84,4.26,-10.02,619,-1424,8083,0,0,0
-9.83,4.25,-10.02,620,-1421,8078,-1,0,-1
-9.83,4.25,-10.02,617,-1421,8083,0,0,-1
-9.83,4.24,-10.02,625,-1416,8089,-1,0,0
-9.83,4.24,-10.02,627,-1407,8081,-1,0,0
-9.83,4.23,-10.02,625,-1411,8079,-1,0,0
-9.83,4.22,-10.02,623,-1416,8071,-1,0,0
-9.83,4.21,-10.03,623,-1428,8068,-1,0,0
-9.83,4.21,-10.03,617,-1431,8075,0,0,0
-9.83,4.20,-10.03,616,-1427,8072,-1,0,0
-9.83,4.20,-10.03,612,-1431,8075,-1,0,-1
-9.83,4.19,-10.04,613,-1429,8073,-1,0,0
-9.83,4.18,-10.04,621,-1427,8074,-1,0,-1
-9.83,4.17,-10.04,617,-1424,8072,-1,0,0
-9.83,4.17,-10.04,619,-1425,8075,-1,0,0
-9.83,4.16,-10.04,612,-1421,8074,-1,0,0
-9.83,4.15,-10.05,610,-1425,8073,-1,0,0
-9.83,4.14,-10.05,602,-1422,8080,-1,0,-1
-9.82,4.13,-10.06,609,-1427,8086,-1,0,0
-9.82,4.12,-10.05,603,-1433,8085,-1,0,0
-9.82,4.12,-10.06,598,-1443,8080,-1,0,0
-9.82,4.11,-10.07,597,-1441,8085,-1,0,-1
-9.82,4.11,-10.07,605,-1434,8073,-1,0,0
-9.83,4.10,-10.07,604,-1431,8078,0,0,0
-9.83,4.10,-10.07,603,-1431,8079,-1,0,-1
-9.82,4.10,-10.07,600,-1423,8071,-1,0,-1
-9.82,4.09,-10.06,596,-1423,8081,-1,0,0
-9.82,4.08,-10.07,588,-1420,8087,-1,0,0
-9.82,4.08,-10.08,592,-1431,8081,-1,0,0
-9.82,4.07,-10.08,580,-1440,8089,0,-1,0
-9.82,4.07,-10.08,579,-1440,8076,0,-1,-1
-9.82,4.08,-10.07,583,-1445,8072,0,-1,-1
-9.82,4.09,-10.06,594,-1439,8072,0,-1,-1
-9.81,4.10,-10.06,600,-1436,8074,0,-1,-1
-9.81,4.10,-10.06,601,-1434,8082,0,-1,-1
-9.81,4.10,-10.05,601,-1429,8082,0,0,-1
-9.81,4.10,-10.05,597,-1425,8079,0,-1,0
-9.81,4.10,-10.05,598,-1421,8076,-1,-1,0
-9.81,4.10,-10.05,598,-1429,8072,0,-1,0
-9.81,4.10,-10.05,596,-1431,8080,0,-1,0
-9.82,4.11,-10.05,591,-1431,8081,0,-1,0
-9.82,4.12,-10.05,595,-1431,8073,0,-1,-1
-9.82,4.13,-10.04,605,-1423,8078,0,-1,-1
-9.81,4.13,-10.03,611,-1423,8073,0,-1,-1
-9.81,4.13,-10.03,615,-1421,8067,-1,-1,0
-9.82,4.14,-10.03,618,-1429,8079,-1,-1,0
-9.82,4.14,-10.04,617,-1436,8073,-1,0,0
-9.82,4.14,-10.04,615,-1434,8070,-1,-1,0
-9.82,4.15,-10.04,612,-1431,8070,0,-1,0
-9.82,4.15,-10.04,606,-1427,8074,0,-1,-1
-9.82,4.16,-10.04,610,-1428,8085,0,-1,-1
-9.82,4.16,-10.04,611,-1428,8083,-1,-1,0
-9.82,4.16,-10.04,615,-1426,8086,0,-1,0
-9.82,4.17,-10.03,615,-1432,8074,-1,-1,0
-9.82,4.17,-10.03,612,-1430,8074,0,-1,0
-9.82,4.18,-10.02,610,-1422,8068,0,-1,-1
-9.82,4.18,-10.02,604,-1421,8059,0,-1,-1
-9.82,4.19,-10.02,612,-1425,8065,0,-1,-1
-9.81,4.19,-10.02,624,-1417,8069,0,0,0
-9.81,4.19,-10.01,612,-1416,8082,-1,-1,0
-9.81,4.20,-10.02,607,-1422,8069,-1,-1,0
-9.81,4.20,-10.02,617,-1425,8065,0,-1,0
-9.81,4.21,-10.02,617,-1431,8065,0,0,-1
-9.81,4.20,-10.02,605,-1427,8078,-1,0,-1
-9.81,4.20,-10.02,606,-1430,8082,-1,-1,0
-9.81,4.21,-10.02,611,-1441,8075,0,-1,0
-9.81,4.21,-10.02,608,-1440,8071,0,-1,0
-9.81,4.21,-10.01,601,-1429,8082,0,-1,0
-9.81,4.22,-10.01,613,-1425,8090,0,-1,0
-9.81,4.22,-10.01,616,-1422,8084,0,-1,0
-9.81,4.23,-10.00,619,-1419,8079,0,-1,0
-9.81,4.23,-9.99,618,-1412,8076,0,-1,0
-9.81,4.24,-9.99,625,-1412,8076,-1,-1,0
-9.82,4.24,-10.00,622,-1418,8075,-1,-1,0
-9.82,4.23,-10.00,618,-1430,8068,0,-1,0
-9.82,4.24,-10.00,616,-1429,8066,0,-1,0
-9.82,4.25,-10.00,624,-1420,8061,0,-1,-1
-9.82,4.25,-10.00,623,-1421,8079,0,-1,0
-9.82,4.26,-9.99,632,-1415,8077,0,-1,0
-9.82,4.26,-9.99,624,-1420,8087,-1,-1,0
-9.83,4.26,-9.99,622,-1433,8091,0,-1,0
-9.82,4.27,-10.00,618,-1431,8081,-1,-1,0
-9.82,4.27,-10.00,617,-1434,8076,0,-1,0
-9.82,4.28,-10.00,631,-1439,8070,0,-1,-1
-9.82,4.29,-9.99,633,-1437,8061,0,-1,0
-9.82,4.31,-9.99,641,-1424,8065,0,-1,-1
-9.82,4.31,-9.98,643,-1421,8063,0,-1,-1
-9.82,4.32,-9.98,641,-1417,8074,0,-1,0
-9.82,4.32,-9.98,640,-1416,8071,-1,-1,0
-9.82,4.33,-9.98,632,-1416,8080,0,-1,0
-9.82,4.33,-9.98,637,-1413,8074,-1,-1,0
-9.83,4.33,-9.98,632,-1418,8068,-1,-1,0
-9.83,4.33,-9.98,628,-1427,8070,0,-1,0
-9.83,4.34,-9.98,629,-1416,8068,0,-1,0
-9.83,4.35,-9.97,640,-1414,8067,0,-1,0
-9.83,4.36,-9.97,637,-1403,8069,0,-1,-1
-9.83,4.36,-9.97,636,-1405,8074,-1,-1,0
-9.83,4.36,-9.97,642,-1410,8071,-1,-1,0
-9.83,4.36,-9.97,636,-1412,8068,-1,-1,0
-9.83,4.37,-9.97,640,-1418,8070,-1,-1,0
-9.83,4.37,-9.97,637,-1425,8080,-1,-1,0
-9.83,4.37,-9.97,630,-1424,8077,0,-1,-1
-9.83,4.38,-9.97,636,-1421,8076,0,-1,-1
-9.83,4.38,-9.97,637,-1415,8081,0,-1,-1
-9.83,4.39,-9.96,643,-1408,8083,0,-1,0
-9.83,4.40,-9.96,655,-1405,8086,-1,-1,0
-9.83,4.41,-9.96,656,-1403,8084,0,-1,0
-9.84,4.40,-9.96,647,-1401,8077,-1,-1,0
-9.84,4.41,-9.96,651,-1408,8086,0,-1,0
-9.84,4.41,-9.95,647,-1398,8081,-1,-1,0
-9.84,4.42,-9.96,636,-1406,8075,-1,-1,0
-9.84,4.42,-9.97,636,-1422,8070,-1,-1,0
-9.84,4.43,-9.97,647,-1423,8071,0,-1,0
-9.84,4.44,-9.96,655,-1419,8074,0,-1,0
-9.84,4.44,-9.96,657,-1418,8077,-1,-1,0
-9.84,4.45,-9.96,663,-1410,8070,0,-1,0
-9.84,4.45,-9.96,661,-1407,8066,-1,-1,-1
-9.84,4.45,-9.96,656,-1410,8072,-1,0,0
-9.85,4.45,-9.98,647,-1410,8076,-1,-1,0
-9.85,4.46,-9.98,658,-1424,8082,-1,-1,0
-9.85,4.46,-9.98,656,-1429,8083,-1,-1,0
-9.85,4.46,-9.99,651,-1429,8075,-1,0,0
-9.86,4.47,-9.99,651,-1431,8076,0,-1,0
-9.86,4.47,-9.99,645,-1430,8083,0,-1,0
-9.86,4.47,-9.99,658,-1425,8075,0,0,0
-9.86,4.47,-9.99,663,-1418,8084,-1,0,0
-9.86,4.47,-9.99,659,-1413,8079,-1,0,0
-9.86,4.46,-9.98,669,-1418,8069,0,0,0
-9.85,4.45,-9.99,665,-1427,8067,-1,0,-1
-9.86,4.43,-9.99,654,-1424,8069,0,0,-1
-9.85,4.42,-9.98,645,-1422,8067,0,0,-1
-9.84,4.42,-9.98,639,-1422,8072,0,0,-1
-9.85,4.41,-9.97,634,-1410,8078,0,0,-1
-9.85,4.40,-9.96,633,-1396,8082,0,-1,0
-9.85,4.40,-9.96,645,-1399,8078,-1,0,-1
-9.85,4.40,-9.96,640,-1404,8074,-1,0,-1
-9.84,4.40,-9.97,633,-1416,8078,-1,0,-1
-9.84,4.40,-9.98,638,-1425,8077,-1,0,0
-9.84,4.40,-9.98,645,-1437,8070,0,0,-1
-9.83,4.39,-9.98,649,-1425,8068,0,0,-1
-9.83,4.39,-9.98,643,-1423,8069,0,0,-1
-9.83,4.38,-9.97,644,-1424,8064,0,0,-1
-9.83,4.38,-9.97,648,-1413,8076,0,0,-1
-9.82,4.37,-9.97,643,-1411,8086,-1,0,-1
-9.82,4.36,-9.97,639,-1415,8089,-1,0,0
-9.82,4.35,-9.97,637,-1414,8079,-1,0,0
-9.82,4.34,-9.98,634,-1424,8075,-1,0,0
-9.82,4.33,-9.98,645,-1419,8079,0,0,-1
-9.82,4.32,-9.98,631,-1415,8071,-1,0,-1
-9.82,4.31,-9.98,632,-1427,8079,0,0,-1
-9.82,4.31,-9.98,625,-1417,8071,0,0,-1
-9.81,4.30,-9.98,629,-1408,8084,-1,0,0
-9.81,4.30,-9.98,627,-1413,8078,-1,0,-1
-9.81,4.29,-9.98,627,-1405,8070,-1,0,0
-9.81,4.29,-9.99,630,-1416,8073,-1,0,0
-9.81,4.29,-9.99,630,-1421,8073,0,0,-1
-9.81,4.29,-9.99,633,-1418,8080,0,0,0
-9.80,4.30,-9.99,628,-1431,8081,-1,-1,-1
-9.80,4.30,-9.99,633,-1432,8076,0,-1,-1
-9.80,4.30,-9.99,631,-1420,8080,0,0,-1
-9.79,4.30,-9.98,628,-1421,8082,0,0,-1
-9.79,4.31,-9.98,633,-1421,8080,0,-1,0
-9.79,4.31,-9.97,631,-1414,8085,0,-1,-1
-9.80,4.31,-9.97,634,-1409,8082,-1,0,0
-9.79,4.31,-9.97,636,-1402,8084,-1,0,0
-9.80,4.30,-9.97,636,-1407,8072,-1,0,0
-9.79,4.30,-9.97,637,-1416,8075,-1,0,0
-9.79,4.30,-9.98,638,-1426,8081,-1,0,0
-9.79,4.29,-9.98,625,-1426,8086,-1,0,0
-9.79,4.28,-9.98,621,-1421,8079,-1,0,-1
-9.79,4.27,-9.98,623,-1416,8074,-1,0,0
-9.79,4.27,-9.99,621,-1420,8073,-1,0,-1
-9.78,4.27,-10.00,624,-1417,8067,-1,0,0
-9.78,4.26,-10.00,622,-1430,8067,-1,0,0
-9.78,4.25,-10.01,622,-1424,8073,-1,0,0
-9.78,4.24,-10.01,624,-1420,8083,-1,0,0
-9.78,4.24,-10.01,619,-1419,8084,-1,0,0
-9.78,4.23,-10.02,614,-1424,8077,-1,0,0
-9.78,4.22,-10.02,615,-1420,8073,-1,0,0
-9.78,4.21,-10.02,618,-1425,8077,0,0,0
-9.79,4.21,-10.02,608,-1421,8083,0,0,-1
-9.78,4.20,-10.02,608,-1422,8082,-1,0,-1
-9.78,4.21,-10.03,615,-1430,8082,0,0,-1
-9.78,4.20,-10.02,622,-1422,8076,-1,0,-1
-9.77,4.20,-10.02,619,-1413,8079,-1,0,0
-9.77,4.19,-10.03,620,-1421,8075,-1,0,0
-9.78,4.19,-10.04,612,-1421,8071,-1,0,0
-9.78,4.18,-10.05,613,-1436,8068,-1,0,0
-9.78,4.17,-10.06,612,-1441,8071,-1,0,0
-9.78,4.16,-10.06,612,-1441,8065,-1,0,0
-9.78,4.16,-10.06,609,-1444,8073,0,0,-1
-9.77,4.16,-10.06,604,-1433,8081,0,0,-1
-9.77,4.16,-10.05,605,-1429,8071,0,0,-1
-9.77,4.15,-10.05,610,-1426,8069,0,0,-1
-9.77,4.15,-10.05,614,-1426,8075,-1,0,0
-9.77,4.14,-10.05,608,-1422,8063,-1,0,0
-9.77,4.14,-10.05,605,-1425,8073,-1,0,0
-9.77,4.14,-10.06,595,-1425,8091,-1,0,0
-9.77,4.14,-10.06,594,-1430,8087,0,-1,0
-9.77,4.14,-10.06,600,-1434,8074,0,-1,0
-9.77,4.14,-10.06,596,-1433,8073,-1,-1,-1
-9.77,4.14,-10.05,599,-1430,8063,0,-1,0
-9.77,4.15,-10.05,601,-1432,8073,0,-1,-1
-9.77,4.15,-10.05,601,-1427,8068,0,-1,-1
-9.77,4.16,-10.05,604,-1430,8075,-1,-1,0
-9.77,4.16,-10.06,603,-1433,8075,-1,-1,0
-9.76,4.16,-10.06,605,-1435,8076,0,-1,0
-9.77,4.16,-10.05,606,-1438,8078,0,-1,0
-9.77,4.17,-10.04,611,-1427,8073,0,-1,-1
-9.76,4.17,-10.04,603,-1430,8077,0,-1,-1
-9.77,4.17,-10.04,599,-1427,8076,0,0,-1
-9.76,4.17,-10.04,606,-1426,8083,0,-1,-1
-9.76,4.18,-10.04,607,-1427,8076,0,-1,0
-9.77,4.18,-10.03,608,-1426,8079,0,-1,0
-9.77,4.19,-10.03,605,-1426,8081,0,-1,0
-9.76,4.19,-10.03,606,-1424,8082,0,-1,0
-9.77,4.20,-10.02,605,-1422,8084,0,-1,0
-9.76,4.20,-10.02,606,-1427,8084,0,-1,0
-9.76,4.21,-10.02,612,-1428,8077,0,-1,-1
-9.76,4.21,-10.02,614,-1425,8079,0,-1,0
-9.76,4.22,-10.02,615,-1432,8083,0,-1,0
-9.76,4.22,-10.02,609,-1431,8089,0,-1,-1
-9.76,4.22,-10.01,614,-1421,8086,0,-1,0
-9.76,4.23,-10.01,620,-1413,8079,0,0,-1
-9.76,4.23,-10.01,618,-1413,8080,-1,0,0
-9.76,4.23,-10.01,626,-1420,8073,0,-1,0
-9.76,4.24,-10.01,623,-1416,8070,-1,-1,0
-9.76,4.24,-10.02,621,-1430,8078,-1,-1,0
-9.76,4.25,-10.01,614,-1428,8076,0,-1,-1
-9.76,4.25,-10.01,611,-1428,8079,0,-1,0
-9.76,4.25,-10.02,609,-1432,8074,0,-1,-1
-9.76,4.26,-10.02,615,-1434,8064,0,-1,0
-9.76,4.27,-10.01,617,-1426,8069,0,-1,0
-9.76,4.27,-10.00,618,-1419,8063,0,-1,0
-9.76,4.28,-10.00,625,-1411,8067,0,-1,-1
-9.76,4.28,-9.99,627,-1405,8059,-1,-1,0
-9.76,4.29,-9.99,625,-1414,8061,-1,-1,0
-9.76,4.29,-9.99,630,-1418,8074,-1,0,0
-9.76,4.29,-10.00,625,-1421,8082,-1,-1,0
-9.76,4.30,-10.00,624,-1426,8078,-1,-1,0
-9.77,4.30,-10.01,622,-1438,8073,0,-1,0
-9.77,4.30,-10.00,620,-1434,8079,0,-1,-1
-9.77,4.31,-9.99,629,-1427,8077,0,-1,-1
-9.76,4.32,-9.99,630,-1419,8062,0,-1,-1
-9.76,4.32,-9.98,634,-1415,8062,0,-1,-1
-9.76,4.33,-9.97,629,-1412,8063,0,0,0
-9.76,4.33,-9.98,628,-1413,8073,-1,-1,0
-9.77,4.32,-9.98,626,-1418,8070,-1,0,0
-9.77,4.32,-9.99,617,-1429,8070,-1,-1,0
-9.77,4.32,-9.99,613,-1432,8080,0,-1,0
-9.77,4.32,-9.99,611,-1433,8070,0,-1,0
-9.77,4.33,-9.98,622,-1425,8067,0,-1,0
-9.77,4.34,-9.98,627,-1417,8070,0,-1,0
-9.77,4.35,-9.98,634,-1413,8060,0,-1,0
-9.77,4.35,-9.98,637,-1417,8072,-1,-1,0
-9.77,4.35,-9.98,626,-1419,8084,-1,-1,0
-9.77,4.35,-9.98,627,-1421,8078,-1,-1,0
-9.77,4.35,-9.98,631,-1429,8067,-1,-1,0
-9.77,4.36,-9.98,633,-1429,8066,0,-1,0
-9.77,4.37,-9.98,632,-1422,8069,0,-1,-1
-9.77,4.37,-9.98,634,-1423,8066,0,-1,0
-9.77,4.38,-9.98,636,-1423,8076,0,-1,-1
-9.77,4.38,-9.97,637,-1412,8072,0,-1,-1
-9.77,4.38,-9.97,635,-1414,8071,0,-1,0
-9.77,4.39,-9.97,642,-1407,8079,0,-1,0
-9.77,4.39,-9.97,631,-1419,8081,0,-1,-1
-9.77,4.40,-9.96,638,-1414,8084,0,-1,0
-9.77,4.40,-9.96,635,-1411,8082,0,-1,0
-9.78,4.40,-9.96,641,-1411,8082,0,-1,0
-9.78,4.41,-9.95,642,-1414,8069,0,-1,0
-9.78,4.42,-9.96,639,-1416,8072,0,-1,0
-9.78,4.42,-9.96,631,-1414,8071,0,-1,-1
-9.78,4.42,-9.95,638,-1407,8069,0,-1,0
-9.78,4.43,-9.95,643,-1410,8067,-1,0,0
-9.78,4.43,-9.95,640,-1409,8065,-1,-1,0
-9.78,4.43,-9.96,644,-1409,8069,-1,-1,0
-9.78,4.44,-9.96,651,-1408,8074,-1,-1,0
-9.78,4.44,-9.96,649,-1420,8079,-1,0,0
-9.78,4.44,-9.97,643,-1413,8073,-1,-1,0
-9.78,4.44,-9.97,638,-1419,8079,-1,-1,-1
-9.78,4.46,-9.97,647,-1425,8065,0,-1,0
-9.78,4.46,-9.97,649,-1411,8070,0,-1,-1
-9.78,4.47,-9.96,649,-1407,8079,0,-1,0
-9.79,4.48,-9.95,659,-1405,8087,-1,-1,0
-9.78,4.48,-9.96,649,-1411,8082,0,-1,0
-9.78,4.49,-9.96,649,-1412,8088,0,-1,0
-9.78,4.49,-9.96,645,-1413,8079,-1,-1,0
-9.78,4.50,-9.96,646,-1414,8068,-1,-1,0
-9.79,4.51,-9.96,651,-1417,8066,0,-1,-1
-9.79,4.52,-9.95,657,-1412,8072,0,-1,0
-9.79,4.53,-9.95,653,-1405,8073,-1,-1,0
-9.79,4.53,-9.95,652,-1409,8068,-1,-1,0
-9.79,4.53,-9.95,655,-1405,8074,-1,-1,0
-9.80,4.53,-9.95,648,-1417,8074,-1,-1,0
-9.80,4.53,-9.96,660,-1425,8081,-1,-1,0
-9.80,4.54,-9.96,662,-1421,8076,0,-1,0
-9.80,4.55,-9.96,663,-1428,8078,0,-1,0
-9.80,4.55,-9.96,667,-1427,8075,0,-1,-1
-9.80,4.56,-9.95,667,-1424,8073,0,-1,-1
-9.80,4.56,-9.94,680,-1413,8074,0,0,-1
-9.79,4.56,-9.94,674,-1408,8080,0,0,-1
-9.79,4.54,-9.93,675,-1404,8078,0,0,-1
-9.78,4.53,-9.93,667,-1404,8077,0,0,-1
-9.78,4.52,-9.93,666,-1413,8086,0,0,-1
-9.78,4.52,-9.93,658,-1413,8074,0,0,-1
-9.78,4.52,-9.93,662,-1412,8081,0,0,-1
-9.78,4.52,-9.92,657,-1404,8077,0,0,-1
-9.78,4.52,-9.92,667,-1402,8072,-1,0,-1
-9.78,4.51,-9.92,674,-1404,8077,-1,0,-1
-9.77,4.50,-9.93,666,-1398,8071,-1,0,-1
-9.77,4.49,-9.93,655,-1402,8069,-1,0,0
-9.77,4.48,-9.95,653,-1416,8065,-1,0,-1
-9.77,4.47,-9.95,657,-1413,8075,-1,0,-1
-9.77,4.46,-9.95,634,-1409,8079,-1,0,-1
-9.76,4.46,-9.96,634,-1426,8078,-1,0,-1
-9.76,4.45,-9.97,641,-1438,8067,-1,0,-1
-9.76,4.45,-9.96,644,-1435,8070,0,0,-1
-9.75,4.44,-9.96,641,-1425,8068,-1,0,-1
-9.75,4.43,-9.96,642,-1428,8075,0,0,-1
-9.75,4.43,-9.96,645,-1414,8065,0,0,-1
-9.75,4.42,-9.95,640,-1402,8055,0,0,-1
-9.75,4.41,-9.94,641,-1392,8062,0,0,-1
-9.75,4.41,-9.95,641,-1408,8070,-1,0,0
-9.74,4.40,-9.94,636,-1400,8073,-1,0,0
-9.75,4.40,-9.95,642,-1398,8072,-1,0,0
-9.74,4.39,-9.95,636,-1405,8078,-1,0,-1
-9.74,4.39,-9.96,639,-1413,8077,-1,0,0
-9.74,4.39,-9.96,644,-1430,8070,-1,0,0
-9.74,4.39,-9.96,646,-1429,8075,0,0,-1
-9.74,4.39,-9.96,643,-1428,8079,0,0,-1
-9.74,4.38,-9.96,639,-1419,8077,-1,0,-1
-9.74,4.38,-9.96,642,-1413,8080,-1,0,0
-9.74,4.37,-9.96,643,-1407,8073,-1,0,0
-9.74,4.36,-9.96,637,-1408,8075,-1,0,0
-9.74,4.36,-9.97,640,-1415,8079,0,0,0
-9.74,4.36,-9.96,636,-1412,8080,-1,0,0
-9.74,4.36,-9.97,633,-1416,8076,-1,0,0
-9.74,4.35,-9.97,626,-1421,8075,-1,0,-1
-9.74,4.35,-9.97,634,-1420,8075,0,0,-1
-9.74,4.34,-9.97,631,-1426,8081,-1,0,0
-9.74,4.33,-9.97,631,-1429,8073,-1,0,0
-9.74,4.33,-9.97,630,-1418,8077,0,0,-1
-9.74,4.32,-9.97,635,-1418,8082,-1,0,0
-9.73,4.31,-9.97,631,-1413,8078,-1,0,0
-9.73,4.31,-9.98,632,-1418,8073,-1,0,-1
-9.73,4.30,-9.98,623,-1410,8076,-1,0,0
-9.73,4.29,-9.98,625,-1414,8082,-1,0,0
-9.73,4.28,-9.99,619,-1419,8079,-1,0,0
-9.73,4.28,-10.00,613,-1425,8072,-1,0,0
-9.74,4.27,-10.01,614,-1437,8070,-1,0,0
-9.74,4.26,-10.01,611,-1433,8062,0,0,0
-9.74,4.25,-10.01,608,-1422,8062,-1,0,0
-9.74,4.25,-10.01,624,-1415,8064,0,0,-1
-9.74,4.24,-10.01,629,-1415,8070,-1,0,-1
-9.74,4.23,-10.01,621,-1412,8063,-1,0,0
-9.74,4.22,-10.01,617,-1426,8076,-1,0,-1
-9.73,4.21,-10.01,613,-1416,8079,0,0,0
-9.73,4.20,-10.02,608,-1407,8090,-1,0,0
-9.73,4.18,-10.02,603,-1415,8086,-1,0,0
-9.73,4.18,-10.03,598,-1416,8071,-1,0,0
-9.73,4.17,-10.03,600,-1423,8064,-1,0,-1
-9.72,4.17,-10.04,606,-1432,8071,-1,0,-1
-9.73,4.16,-10.04,601,-1430,8073,-1,0,0
-9.72,4.15,-10.04,608,-1421,8075,-1,0,0
-9.72,4.13,-10.05,607,-1420,8079,-1,0,0
-9.73,4.12,-10.06,589,-1427,8078,-1,0,0
-9.72,4.10,-10.08,597,-1435,8089,-1,0,-1
-9.72,4.09,-10.09,586,-1441,8073,-1,0,0
-9.72,4.07,-10.09,586,-1438,8072,-1,0,0
-9.72,4.07,-10.10,599,-1435,8077,-1,0,-1
-9.72,4.05,-10.11,586,-1451,8071,-1,0,0
-9.72,4.04,-10.10,587,-1449,8079,0,0,-1
-9.71,4.02,-10.11,571,-1447,8057,0,0,-1
-9.71,4.03,-10.10,579,-1440,8062,0,0,-1
-9.71,4.02,-10.09,574,-1429,8072,0,0,-1
-9.71,4.02,-10.09,568,-1436,8071,-1,-1,0
-9.71,4.03,-10.09,580,-1445,8071,0,-1,-1
-9.70,4.03,-10.08,578,-1428,8077,0,-1,-1
-9.70,4.04,-10.07,575,-1419,8076,0,-1,-1
-9.70,4.06,-10.07,583,-1437,8084,0,-1,-1
-9.70,4.06,-10.07,592,-1439,8069,0,-1,-1
-9.70,4.07,-10.06,599,-1427,8076,0,-1,-1
-9.70,4.09,-10.06,604,-1422,8073,-1,-1,0
-9.70,4.09,-10.06,599,-1424,8069,-1,-1,0
-9.70,4.09,-10.06,593,-1433,8074,0,-1,-1
-9.70,4.09,-10.06,591,-1430,8077,0,-1,-1
-9.70,4.09,-10.06,589,-1438,8082,0,-1,0
-9.70,4.10,-10.06,585,-1437,8082,0,-1,0
-9.70,4.11,-10.05,590,-1436,8082,0,-1,-1
-9.70,4.11,-10.05,591,-1435,8081,0,-1,0
-9.70,4.12,-10.03,594,-1423,8075,0,-1,-1
-9.70,4.12,-10.03,601,-1416,8072,0,-1,-1
-9.70,4.13,-10.03,607,-1422,8071,0,-1,0
-9.70,4.13,-10.02,603,-1425,8073,0,-1,0
-9.70,4.14,-10.02,602,-1414,8079,0,-1,0
-9.70,4.15,-10.02,598,-1415,8079,0,-1,-1
-9.70,4.15,-10.02,605,-1415,8080,-1,-1,-1
-9.70,4.15,-10.02,607,-1422,8073,0,-1,-1
-9.70,4.16,-10.02,605,-1415,8061,-1,-1,0
-9.70,4.16,-10.02,600,-1430,8084,-1,-1,0
-9.70,4.17,-10.02,598,-1434,8082,0,-1,0
-9.70,4.17,-10.02,597,-1442,8072,0,-1,0
-9.70,4.17,-10.03,598,-1447,8066,0,-1,0
-9.70,4.18,-10.02,605,-1435,8072,0,-1,-1
-9.70,4.19,-10.01,608,-1426,8061,0,-1,-1
-9.70,4.20,-10.00,616,-1419,8069,0,-1,-1
-9.70,4.20,-9.99,615,-1413,8077,0,-1,-1
-9.70,4.20,-9.99,615,-1411,8076,0,-1,0
-9.70,4.20,-9.99,617,-1415,8080,-1,-1,0
-9.70,4.20,-9.99,603,-1412,8082,-1,-1,0
-9.70,4.21,-9.99,609,-1421,8083,-1,-1,0
-9.70,4.22,-9.99,605,-1422,8078,0,-1,0
-9.70,4.22,-9.99,608,-1421,8066,0,-1,0
-9.70,4.23,-9.98,603,-1419,8066,0,-1,-1
-9.70,4.24,-9.98,611,-1422,8054,0,-1,-1
-9.70,4.25,-9.98,616,-1420,8068,0,-1,-1
-9.70,4.25,-9.97,618,-1420,8072,0,-1,-1
-9.70,4.25,-9.97,620,-1419,8076,-1,0,0
