Yaw,Pitch,Roll,AX,AY,AZ,GX,GY,GZ
-12.95,6.41,-0.99,919,-137,8162,-1,0,0
-12.95,6.41,-0.99,921,-137,8150,-1,0,0
-12.95,6.40,-1.00,922,-139,8145,-1,0,0
-12.95,6.40,-1.00,915,-136,8142,0,0,0
-12.95,6.38,-0.99,900,-137,8137,-1,0,-1
-12.95,6.37,-0.99,906,-142,8136,0,0,-1
-12.95,6.37,-0.99,912,-144,8136,0,0,-1
-12.95,6.36,-0.99,905,-135,8140,-1,0,0
-12.95,6.36,-0.99,902,-135,8133,-1,0,-1
-12.95,6.35,-0.99,904,-133,8137,-1,0,0
-12.95,6.35,-0.99,903,-134,8152,-1,0,0
-12.95,6.35,-0.99,907,-136,8144,-1,0,-1
-12.95,6.34,-1.00,896,-139,8153,-1,0,-1
-12.95,6.34,-1.00,902,-144,8153,0,0,-1
-12.95,6.34,-0.99,904,-141,8151,0,0,-1
-12.94,6.34,-0.98,915,-130,8143,0,0,-1
-12.94,6.34,-0.98,912,-133,8139,0,0,-1
-12.94,6.33,-0.98,904,-132,8143,0,0,-1
-12.94,6.33,-0.97,889,-129,8144,0,0,-1
-12.94,6.32,-0.97,886,-135,8152,-1,-1,-1
-12.94,6.32,-0.97,888,-142,8145,0,-1,-1
-12.94,6.33,-0.97,886,-143,8134,0,-1,-1
-12.94,6.32,-0.97,886,-133,8135,0,-1,-1
-12.94,6.33,-0.97,897,-133,8129,0,-1,0
-12.94,6.33,-0.97,895,-131,8141,0,-1,-1
-12.94,6.33,-0.96,897,-134,8150,0,-1,-1
-12.94,6.34,-0.96,899,-141,8143,0,-1,0
-12.94,6.34,-0.96,897,-145,8149,0,-1,0
-12.94,6.34,-0.96,897,-137,8144,0,-1,0
-12.94,6.35,-0.96,907,-140,8143,-1,-1,0
-12.94,6.35,-0.96,-1,-1,-1,-1,-1,-1
-12.94,6.36,-0.96,909,-143,8151,0,-1,-1
-12.94,6.36,-0.96,904,-139,8145,0,-1,-1
-12.94,6.36,-0.96,901,-127,8148,0,-1,0
-12.94,6.36,-0.96,901,-120,8150,-1,-1,0
-12.95,6.36,-0.96,894,-131,8143,-1,-1,0
-12.95,6.37,-0.96,898,-141,8150,-1,-1,0
-12.95,6.38,-0.97,897,-141,8156,0,-1,0
-12.95,6.38,-0.96,908,-138,8146,0,-1,-1
-12.95,6.39,-0.95,905,-126,8141,0,-1,0
-12.95,6.39,-0.95,904,-126,8129,-1,-1,0
-12.95,6.40,-0.95,908,-134,8137,0,-1,0
-12.95,6.40,-0.95,910,-134,8145,0,-1,0
-12.96,6.41,-0.95,916,-140,8138,0,-1,0
-12.96,6.41,-0.95,916,-146,8139,0,-1,0
-12.96,6.42,-0.95,917,-136,8134,0,-1,0
-12.96,6.43,-0.94,916,-131,8127,-1,-1,0
-12.96,6.43,-0.94,909,-129,8124,-1,-1,0
-12.96,6.44,-0.95,915,-131,8123,-1,-1,0
-12.96,6.44,-0.95,911,-131,8134,-1,-1,0
-12.96,6.44,-0.95,910,-136,8140,-1,-1,0
-12.96,6.45,-0.95,909,-129,8153,0,-1,0
-12.96,6.45,-0.95,916,-132,8146,0,-1,0
-12.97,6.46,-0.95,915,-128,8140,-1,-1,0
-12.97,6.46,-0.95,917,-126,8132,-1,-1,0
-12.97,6.46,-0.95,915,-132,8135,-1,-1,0
-12.97,6.47,-0.96,915,-144,8141,0,-1,0
-12.97,6.47,-0.96,904,-148,8145,0,-1,0
-12.97,6.47,-0.95,910,-138,8154,0,-1,0
-12.98,6.48,-0.94,920,-130,8140,0,-1,0
-12.98,6.49,-0.94,923,-123,8136,-1,-1,0
-12.98,6.49,-0.94,921,-129,8139,-1,-1,0
-12.98,6.49,-0.95,915,-137,8138,-1,-1,0
-12.98,6.50,-0.95,920,-150,8149,-1,-1,0
-12.98,6.50,-0.96,918,-154,8146,0,-1,0
-12.98,6.51,-0.95,924,-148,8141,0,-1,0
-12.99,6.51,-0.95,932,-141,8143,0,-1,0
-12.99,6.51,-0.95,931,-128,8142,0,-1,0
-12.99,6.51,-0.95,929,-127,8147,-1,-1,0
-12.99,6.51,-0.95,921,-130,8148,-1,-1,0
-12.99,6.51,-0.95,922,-143,8153,-1,-1,0
-12.99,6.51,-0.95,919,-145,8149,0,-1,0
-12.99,6.52,-0.96,924,-144,8141,0,-1,0
-12.99,6.52,-0.96,918,-147,8138,0,-1,0
-12.99,6.52,-0.96,919,-135,8140,0,-1,0
-12.99,6.52,-0.95,915,-132,8135,0,-1,-1
-12.99,6.52,-0.95,924,-128,8148,0,-1,-1
-12.99,6.53,-0.95,927,-128,8144,-1,-1,0
-12.99,6.53,-0.95,928,-138,8138,-1,-1,0
-12.99,6.53,-0.96,929,-146,8148,-1,-1,0
-12.99,6.53,-0.96,927,-143,8140,0,-1,-1
-12.99,6.53,-0.95,926,-138,8134,0,0,-1
-12.99,6.53,-0.95,926,-135,8130,-1,-1,0
-12.99,6.53,-0.95,933,-135,8128,-1,-1,0
-12.99,6.53,-0.95,935,-129,8136,-1,-1,0
-12.99,6.54,-0.96,938,-130,8145,-1,-1,0
-12.99,6.54,-0.96,935,-137,8139,-1,0,0
-12.98,6.54,-0.96,934,-150,8133,0,-1,0
-12.98,6.54,-0.96,936,-147,8141,0,-1,0
-12.99,6.54,-0.96,935,-131,8143,0,-1,-1
-12.99,6.54,-0.95,939,-123,8152,0,-1,0
-12.99,6.55,-0.95,940,-121,8149,-1,-1,0
-12.99,6.55,-0.95,937,-129,8147,-1,-1,0
-12.99,6.55,-0.95,944,-137,8138,0,-1,0
-12.99,6.55,-0.95,938,-148,8145,0,-1,-1
-12.99,6.55,-0.95,935,-149,8142,0,-1,-1
-12.99,6.55,-0.95,942,-141,8142,0,0,0
-12.99,6.56,-0.95,944,-134,8145,-1,0,0
-12.99,6.55,-0.95,937,-134,8143,-1,0,0
-12.99,6.55,-0.95,931,-135,8139,-1,0,0
-12.99,6.55,-0.95,923,-138,8140,0,0,0
-12.99,6.55,-0.95,918,-139,8142,0,0,0
-12.99,6.55,-0.95,919,-141,8149,0,0,0
-12.99,6.55,-0.95,924,-137,8150,0,-1,0
-12.99,6.55,-0.95,921,-131,8143,0,-1,0
-12.99,6.55,-0.95,924,-123,8151,0,0,0
-12.99,6.54,-0.95,921,-135,8146,-1,0,0
-12.99,6.55,-0.95,929,-136,8148,0,-1,0
-12.99,6.55,-0.95,930,-134,8147,-1,-1,0
-12.99,6.55,-0.95,934,-145,8137,0,-1,-1
-12.99,6.55,-0.95,935,-144,8129,0,0,-1
-12.99,6.55,-0.95,934,-135,8139,0,-1,-1
-12.99,6.55,-0.94,943,-124,8140,-1,0,0
-12.99,6.55,-0.95,943,-129,8128,-1,0,0
-12.99,6.55,-0.95,937,-138,8148,-1,0,0
-12.99,6.55,-0.95,928,-148,8161,-1,0,0
-12.99,6.54,-0.95,921,-149,8162,0,0,0
-12.99,6.54,-0.95,924,-140,8147,0,-1,0
-12.99,6.54,-0.94,921,-131,8135,0,-1,0
-12.99,6.54,-0.94,931,-125,8126,0,-1,0
-12.99,6.54,-0.94,936,-121,8131,-1,0,0
-12.99,6.54,-0.94,931,-126,8133,-1,0,0
-13.00,6.54,-0.94,935,-132,8135,-1,-1,0
-13.00,6.55,-0.94,933,-141,8141,0,-1,0
-13.01,6.55,-0.93,929,-126,8144,0,-1,0
-13.01,6.55,-0.93,931,-127,8140,-1,-1,0
-13.01,6.55,-0.93,936,-131,8138,-1,0,-1
-13.00,6.55,-0.94,937,-135,8129,-1,0,-1
-13.00,6.55,-0.94,931,-138,8143,0,0,-1
-13.00,6.55,-0.94,932,-125,8150,-1,-1,0
-13.00,6.56,-0.94,930,-120,8137,-1,-1,0
-13.00,6.56,-0.95,928,-121,8141,-1,-1,0
-13.00,6.58,-0.96,929,-133,8145,-1,-1,0
-13.00,6.58,-0.96,938,-142,8135,-1,-1,0
-13.01,6.58,-0.97,948,-160,8125,-1,0,0
-13.00,6.58,-0.97,958,-158,8117,0,0,-1
-13.00,6.57,-0.97,947,-167,8125,0,0,-1
-13.00,6.56,-0.96,941,-138,8140,0,0,0
-13.00,6.55,-0.96,928,-122,8145,-1,0,0
-13.01,6.55,-0.97,931,-126,8144,-1,0,0
-13.01,6.55,-0.97,937,-146,8146,-1,0,-1
-13.00,6.55,-0.97,933,-157,8136,0,0,-1
-13.01,6.55,-0.97,926,-153,8130,0,0,0
-13.01,6.55,-0.96,935,-141,8141,0,0,0
-13.01,6.54,-0.95,934,-127,8147,0,0,-1
-13.01,6.54,-0.96,931,-125,8137,-1,0,0
-13.01,6.54,-0.96,936,-137,8131,-1,0,0
-13.01,6.54,-0.97,936,-153,8122,-1,0,0
-13.00,6.53,-0.97,934,-155,8129,-1,0,-1
-13.00,6.53,-0.97,936,-149,8137,0,0,0
-13.00,6.52,-0.97,933,-140,8141,0,0,0
-13.00,6.52,-0.97,935,-130,8147,-1,0,0
-13.00,6.52,-0.97,929,-134,8145,-1,0,0
-13.01,6.51,-0.98,922,-138,8140,-1,0,0
-13.01,6.51,-0.98,924,-138,8143,0,0,0
-13.01,6.50,-0.98,922,-139,8152,0,0,0
-13.01,6.50,-0.98,926,-139,8145,-1,0,0
-13.02,6.50,-0.98,916,-133,8131,0,0,0
-13.02,6.50,-0.98,917,-133,8143,-1,0,0
-13.02,6.50,-0.98,927,-140,8131,-1,0,0
-13.02,6.49,-0.98,925,-143,8141,-1,0,-1
-13.02,6.48,-0.98,930,-139,8138,-1,0,0
-13.02,6.48,-0.98,916,-136,8155,-1,0,0
-13.02,6.47,-0.99,920,-142,8152,-1,0,0
-13.02,6.47,-0.99,923,-149,8154,0,0,0
-13.02,6.47,-0.99,929,-145,8141,0,0,-1
-13.02,6.47,-0.99,924,-127,8134,-1,0,0
-13.02,6.46,-0.99,916,-129,8138,-1,0,0
-13.02,6.45,-0.99,911,-130,8143,-1,0,0
-13.02,6.44,-0.99,906,-130,8146,-1,0,-1
-13.02,6.44,-1.00,903,-137,8146,-1,0,0
-13.02,6.44,-1.00,914,-142,8139,0,-1,-1
-13.02,6.44,-0.99,922,-142,8137,0,0,-1
-13.02,6.44,-0.99,928,-145,8132,0,0,-1
-13.02,6.43,-0.99,924,-135,8137,0,0,-1
-13.02,6.42,-0.98,927,-138,8133,0,0,-1
-13.01,6.42,-0.98,916,-140,8142,0,0,-1
-13.01,6.42,-0.98,904,-146,8130,0,-1,-1
-13.01,6.42,-0.97,907,-140,8138,0,-1,-1
-13.01,6.42,-0.96,909,-133,8139,0,-1,-1
-13.01,6.42,-0.95,911,-125,8138,0,0,0
-13.01,6.42,-0.95,917,-123,8132,0,-1,0
-13.01,6.43,-0.95,913,-124,8146,0,-1,0
-13.01,6.43,-0.95,909,-127,8146,-1,-1,0
-13.01,6.44,-0.94,909,-131,8140,0,-1,0
-13.02,6.44,-0.94,903,-131,8133,0,-1,0
-13.01,6.44,-0.94,909,-137,8131,-1,-1,-1
-13.01,6.44,-0.94,910,-131,8131,-1,-1,0
-13.02,6.46,-0.94,913,-135,8135,-1,-1,0
-13.02,6.46,-0.94,921,-140,8138,-1,-1,0
-13.02,6.47,-0.95,927,-140,8140,0,-1,-1
-13.02,6.47,-0.94,921,-135,8143,-1,-1,0
-13.02,6.47,-0.95,917,-140,8134,-1,-1,0
-13.02,6.48,-0.95,921,-135,8141,0,-1,0
-13.03,6.48,-0.95,919,-142,8147,0,-1,0
-13.03,6.48,-0.95,915,-145,8153,0,-1,0
-13.03,6.49,-0.95,922,-141,8147,0,-1,0
-13.03,6.50,-0.94,931,-126,8138,0,-1,0
-13.03,6.50,-0.93,925,-123,8141,0,-1,0
-13.04,6.50,-0.94,921,-130,8139,-1,-1,0
-13.04,6.51,-0.94,917,-131,8140,-1,-1,0
-13.04,6.51,-0.94,927,-138,8133,-1,-1,0
-13.04,6.52,-0.94,928,-139,8127,-1,-1,0
-13.04,6.52,-0.94,928,-135,8139,-1,-1,0
-13.04,6.53,-0.95,931,-131,8151,-1,-1,-1
-13.04,6.53,-0.95,936,-131,8151,-1,0,0
-13.04,6.53,-0.95,929,-135,8139,-1,-1,0
-13.04,6.53,-0.96,923,-143,8131,-1,-1,0
-13.04,6.53,-0.96,926,-143,8134,0,-1,0
-13.04,6.53,-0.96,923,-147,8154,0,-1,-1
-13.04,6.53,-0.96,926,-143,8146,0,-1,-1
-13.03,6.53,-0.95,928,-128,8148,0,-1,-1
-13.03,6.54,-0.95,925,-127,8145,-1,-1,-1
-13.03,6.54,-0.96,925,-138,8147,-1,-1,0
-13.03,6.55,-0.96,928,-146,8152,0,-1,0
-13.03,6.55,-0.96,931,-143,8150,0,-1,-1
-13.03,6.55,-0.96,938,-143,8144,0,-1,-1
-13.03,6.56,-0.96,936,-131,8141,0,0,0
-13.04,6.56,-0.96,930,-127,8144,-1,-1,0
-13.04,6.56,-0.96,929,-134,8155,-1,-1,0
-13.04,6.56,-0.96,929,-147,8149,-1,-1,0
-13.04,6.57,-0.96,933,-155,8146,0,-1,0
-13.04,6.57,-0.96,941,-147,8140,0,-1,0
-13.04,6.58,-0.96,944,-141,8131,0,0,-1
-13.04,6.58,-0.96,942,-141,8139,0,0,-1
-13.04,6.57,-0.96,942,-137,8136,-1,0,0
-13.04,6.57,-0.96,941,-138,8132,-1,-1,0
-13.04,6.57,-0.96,936,-146,8139,-1,-1,-1
-13.04,6.57,-0.96,935,-147,8137,0,-1,0
-13.04,6.57,-0.96,938,-138,8151,0,0,-1
-13.04,6.57,-0.96,936,-137,8148,0,-1,0
-13.04,6.58,-0.96,935,-141,8147,0,0,0
-13.04,6.57,-0.96,935,-137,8152,-1,-1,0
-13.04,6.57,-0.96,934,-135,8153,-1,-1,0
-13.04,6.57,-0.96,935,-142,8148,-1,-1,0
-13.04,6.57,-0.96,933,-143,8145,-1,-1,0
-13.04,6.58,-0.97,937,-137,8132,-1,-1,0
-13.04,6.58,-0.97,938,-138,8130,-1,-1,0
-13.03,6.58,-0.97,942,-140,8150,-1,0,0
-13.04,6.57,-0.97,935,-143,8154,-1,0,0
-13.04,6.57,-0.97,937,-147,8141,0,0,0
-13.04,6.57,-0.97,935,-142,8141,0,0,-1
-13.04,6.57,-0.97,937,-136,8144,-1,0,0
-13.04,6.57,-0.98,942,-136,8149,-1,0,0
-13.04,6.58,-0.98,937,-144,8143,-1,-1,0
-13.04,6.58,-0.98,939,-140,8150,0,-1,-1
-13.04,6.58,-0.97,945,-138,8146,0,0,0
-13.04,6.58,-0.97,940,-134,8141,0,-1,0
-13.04,6.58,-0.97,937,-139,8143,0,-1,-1
-13.04,6.59,-0.97,939,-136,8151,0,-1,0
-13.04,6.59,-0.96,936,-140,8146,0,-1,-1
-13.04,6.59,-0.96,941,-143,8129,0,0,0
-13.04,6.58,-0.96,936,-137,8124,0,0,0
-13.04,6.58,-0.96,936,-133,8134,0,0,0
-13.04,6.58,-0.96,938,-135,8150,-1,-1,-1
-13.04,6.58,-0.96,943,-134,8141,0,0,-1
-13.04,6.58,-0.96,933,-140,8142,0,0,-1
-13.04,6.58,-0.96,932,-145,8150,-1,0,-1
-13.04,6.58,-0.96,928,-149,8138,0,0,-1
-13.04,6.58,-0.96,935,-144,8140,0,0,-1
-13.04,6.58,-0.96,936,-137,8149,0,0,-1
-13.04,6.57,-0.96,933,-132,8149,0,0,0
-13.04,6.57,-0.96,930,-138,8143,0,0,0
-13.04,6.57,-0.96,932,-146,8141,-1,0,0
-13.04,6.56,-0.96,929,-141,8145,0,0,0
-13.04,6.56,-0.96,929,-135,8141,-1,0,0
-13.04,6.56,-0.96,932,-141,8136,0,-1,0
-13.04,6.56,-0.96,927,-149,8135,0,-1,-1
-13.04,6.56,-0.96,928,-139,8130,0,-1,0
-13.04,6.56,-0.96,932,-131,8129,-1,0,0
-13.04,6.56,-0.96,933,-129,8130,-1,0,-1
-13.04,6.56,-0.96,931,-131,8141,-1,0,0
-13.03,6.55,-0.97,928,-143,8139,-1,0,0
-13.03,6.55,-0.97,928,-146,8144,-1,-1,0
-13.03,6.55,-0.97,935,-147,8143,0,0,0
-13.03,6.55,-0.97,930,-139,8132,0,0,-1
-13.04,6.55,-0.96,936,-130,8128,0,0,-1
-13.04,6.55,-0.95,933,-119,8131,0,0,-1
-13.04,6.54,-0.95,935,-113,8139,-1,0,0
-13.04,6.54,-0.96,931,-126,8140,-1,0,-1
-13.04,6.53,-0.96,921,-138,8131,-1,0,-1
-13.03,6.53,-0.97,921,-149,8142,-1,0,0
-13.03,6.53,-0.97,927,-155,8143,0,0,-1
-13.03,6.53,-0.96,929,-142,8149,0,0,-1
-13.03,6.53,-0.96,929,-136,8144,0,0,-1
-13.03,6.53,-0.96,927,-132,8138,-1,0,0
-13.03,6.52,-0.96,926,-136,8132,-1,0,0
-13.03,6.52,-0.96,929,-138,8133,-1,0,0
-13.03,6.52,-0.96,924,-138,8134,-1,0,0
-13.03,6.52,-0.97,930,-141,8135,0,0,0
-13.03,6.51,-0.97,923,-141,8142,-1,0,0
-13.03,6.51,-0.97,928,-146,8148,-1,0,0
-13.03,6.50,-0.98,933,-143,8152,-1,0,0
-13.03,6.50,-0.98,936,-138,8148,-1,0,0
-13.03,6.50,-0.98,934,-133,8140,-1,0,-1
-13.03,6.50,-0.98,930,-133,8145,-1,0,0
-13.03,6.50,-0.98,931,-137,8143,-1,0,0
-13.03,6.49,-0.98,931,-141,8141,0,0,-1
-13.03,6.49,-0.98,932,-146,8145,0,0,-1
-13.03,6.48,-0.98,926,-134,8138,0,0,0
-13.03,6.48,-0.97,925,-132,8139,0,0,0
-13.03,6.48,-0.97,926,-138,8146,-1,0,0
-13.03,6.47,-0.97,923,-140,8140,-1,0,0
-13.03,6.47,-0.97,924,-142,8134,-1,0,0
-13.03,6.47,-0.98,920,-151,8135,0,0,0
-13.03,6.46,-0.98,922,-142,8138,-1,0,0
-13.03,6.46,-0.98,925,-136,8136,0,0,0
-13.03,6.45,-0.97,922,-137,8135,-1,0,0
-13.03,6.45,-0.98,915,-144,8156,-1,0,0
-13.03,6.45,-0.98,910,-140,8147,-1,0,-1
-13.03,6.44,-0.98,909,-143,8141,-1,0,-1
-13.03,6.44,-0.98,910,-147,8141,0,0,-1
-13.03,6.44,-0.98,909,-148,8146,0,0,-1
-13.02,6.43,-0.98,906,-142,8139,0,0,-1
-13.02,6.43,-0.98,913,-145,8141,0,0,-1
-13.02,6.43,-0.98,913,-144,8147,0,0,-1
-13.02,6.43,-0.97,905,-136,8146,0,0,-1
-13.02,6.43,-0.97,908,-133,8147,0,-1,0
-13.03,6.43,-0.96,903,-134,8147,0,-1,0
-13.03,6.43,-0.96,905,-137,8150,0,-1,-1
-13.02,6.43,-0.97,913,-148,8136,0,-1,0
-13.03,6.43,-0.96,908,-151,8127,0,-1,-1
-13.03,6.43,-0.96,907,-135,8136,0,-1,0
-13.02,6.43,-0.95,907,-131,8146,0,-1,-1
-13.03,6.43,-0.96,914,-132,8153,-1,-1,0
-13.03,6.44,-0.96,919,-138,8152,-1,-1,-1
-13.03,6.44,-0.96,912,-142,8149,-1,-1,0
-13.03,6.44,-0.96,911,-141,8142,-1,-1,0
-13.03,6.45,-0.96,912,-144,8144,0,-1,0
-13.03,6.45,-0.96,915,-144,8140,0,-1,0
-13.03,6.46,-0.96,925,-135,8143,0,-1,0
-13.03,6.46,-0.95,921,-124,8145,0,-1,0
-13.03,6.46,-0.95,915,-126,8146,-1,-1,0
-13.03,6.47,-0.95,915,-131,8147,0,-1,0
-13.03,6.48,-0.95,914,-138,8151,0,-1,0
-13.03,6.48,-0.96,918,-147,8142,0,-1,0
-13.03,6.48,-0.95,925,-147,8137,0,-1,0
-13.04,6.48,-0.95,922,-137,8135,0,-1,0
-13.04,6.49,-0.96,925,-143,8144,0,-1,0
-13.04,6.49,-0.95,920,-129,8137,0,-1,0
-13.04,6.50,-0.95,916,-126,8146,-1,-1,0
-13.04,6.50,-0.95,920,-121,8139,-1,-1,-1
-13.04,6.51,-0.95,917,-133,8137,-1,-1,0
-13.04,6.51,-0.95,921,-140,8134,-1,-1,0
-13.04,6.51,-0.96,926,-142,8138,-1,-1,0
-13.05,6.51,-0.96,921,-143,8141,-1,-1,0
-13.05,6.52,-0.96,921,-139,8143,-1,-1,0
-13.05,6.52,-0.96,929,-138,8139,0,-1,0
-13.05,6.53,-0.96,922,-144,8145,-1,-1,0
-13.05,6.52,-0.97,925,-137,8143,-1,-1,-1
-13.05,6.52,-0.97,927,-141,8142,-1,-1,0
-13.05,6.53,-0.97,924,-149,8147,0,-1,0
-13.05,6.53,-0.97,925,-152,8148,0,-1,0
-13.05,6.53,-0.96,935,-142,8141,0,-1,-1
-13.05,6.53,-0.95,931,-139,8131,0,-1,-1
-13.05,6.54,-0.95,931,-130,8132,-1,-1,0
-13.05,6.54,-0.95,934,-126,8129,-1,-1,0
-13.06,6.55,-0.96,936,-130,8126,-1,-1,0
-13.06,6.55,-0.96,927,-136,8135,-1,-1,0
-13.06,6.55,-0.96,929,-138,8140,0,-1,0
-13.06,6.55,-0.96,932,-137,8139,0,-1,-1
-13.06,6.55,-0.96,937,-137,8142,-1,-1,0
-13.06,6.56,-0.96,938,-138,8146,-1,0,-1
-13.06,6.56,-0.97,941,-141,8145,-1,-1,0
-13.06,6.56,-0.97,937,-146,8149,-1,-1,0
-13.06,6.56,-0.98,931,-147,8150,0,-1,-1
-13.05,6.56,-0.98,930,-149,8152,0,-1,-1
-13.06,6.57,-0.98,935,-143,8148,0,-1,-1
-13.06,6.57,-0.97,933,-134,8144,0,-1,0
-13.06,6.57,-0.97,939,-131,8148,0,-1,-1
-13.06,6.57,-0.97,937,-133,8137,0,-1,-1
-13.06,6.57,-0.97,933,-130,8130,-1,-1,0
-13.06,6.57,-0.97,936,-140,8141,-1,-1,-1
-13.06,6.57,-0.97,933,-141,8132,0,-1,0
-13.06,6.57,-0.97,932,-142,8140,-1,-1,0
-13.06,6.57,-0.97,931,-142,8144,0,0,0
-13.06,6.57,-0.97,935,-133,8138,0,-1,0
-13.06,6.58,-0.97,938,-122,8132,-1,-1,0
-13.06,6.58,-0.97,930,-130,8139,-1,-1,-1
-13.06,6.58,-0.97,936,-130,8139,-1,0,-1
-13.06,6.57,-0.97,923,-138,8144,-1,0,-1
-13.06,6.57,-0.97,922,-149,8149,-1,-1,0
-13.06,6.57,-0.97,945,-150,8106,1,1,0
-13.06,6.54,-0.93,926,-125,8161,0,-1,0
-13.06,6.54,-0.94,921,-136,8164,-1,-1,0
-13.07,6.55,-0.96,930,-150,8136,-1,-1,0
-13.06,6.56,-0.96,937,-154,8125,0,-1,-1
-13.07,6.57,-0.96,939,-141,8144,0,-1,0
-13.07,6.58,-0.96,941,-138,8148,-1,-1,0
-13.07,6.57,-0.96,932,-129,8146,-1,-1,-1
-13.07,6.58,-0.96,928,-125,8148,-1,-1,0
-13.07,6.58,-0.96,931,-130,8148,-1,-1,0
-13.06,6.57,-0.97,940,-137,8139,0,-1,0
-13.07,6.58,-0.96,939,-134,8145,0,-1,0
-13.07,6.58,-0.96,941,-129,8159,0,-1,0
-13.07,6.58,-0.96,935,-125,8143,-1,0,0
-13.07,6.58,-0.96,932,-135,8137,-1,-1,0
-13.07,6.57,-0.97,935,-141,8140,-1,-1,0
-13.07,6.57,-0.97,935,-146,8151,-1,-1,0
-13.07,6.58,-0.97,937,-145,8141,-1,-1,0
-13.07,6.58,-0.97,946,-142,8140,0,-1,0
-13.07,6.58,-0.97,943,-142,8142,0,0,-1
-13.07,6.57,-0.97,938,-139,8145,-1,0,0
-13.07,6.57,-0.97,939,-143,8149,-1,-1,-1
-13.07,6.57,-0.97,945,-140,8140,-1,0,0
-13.07,6.57,-0.97,940,-149,8135,0,-1,0
-13.07,6.57,-0.97,936,-145,8145,0,0,0
-13.07,6.57,-0.97,931,-145,8143,0,-1,-1
-13.07,6.58,-0.96,934,-140,8139,0,-1,-1
-13.07,6.58,-0.96,931,-132,8141,0,-1,0
-13.07,6.58,-0.96,938,-134,8140,-1,-1,0
-13.07,6.58,-0.96,935,-144,8144,-1,-1,0
-13.07,6.58,-0.96,939,-143,8145,0,-1,0
-13.07,6.58,-0.96,942,-137,8145,0,0,0
-13.07,6.58,-0.96,943,-140,8139,-1,0,-1
-13.07,6.58,-0.96,945,-126,8137,-1,0,0
-13.07,6.58,-0.96,945,-131,8135,-1,0,0
-13.07,6.57,-0.97,938,-132,8147,-1,0,0
-13.07,6.57,-0.97,941,-136,8134,-1,-1,-1
-13.07,6.57,-0.97,939,-144,8141,0,0,0
-13.07,6.57,-0.97,936,-149,8144,0,0,-1
-13.07,6.57,-0.97,936,-139,8144,0,0,-1
-13.07,6.56,-0.96,934,-132,8143,0,0,-1
-13.07,6.56,-0.96,934,-129,8140,-1,0,0
-13.07,6.55,-0.96,932,-140,8133,-1,0,0
-13.07,6.55,-0.96,922,-134,8135,0,0,0
-13.07,6.55,-0.96,932,-125,8142,-1,-1,0
-13.07,6.55,-0.96,945,-124,8136,-1,0,0
-13.07,6.55,-0.96,939,-128,8136,-1,0,-1
-13.07,6.55,-0.96,944,-127,8135,-1,0,0
-13.07,6.54,-0.96,933,-138,8143,-1,0,0
-13.07,6.54,-0.96,921,-134,8144,-1,0,0
-13.07,6.53,-0.96,924,-140,8152,0,0,0
-13.07,6.53,-0.96,929,-141,8142,0,-1,0
-13.07,6.53,-0.96,934,-140,8124,0,0,-1
-13.07,6.53,-0.95,936,-126,8119,0,0,-1
-13.06,6.53,-0.95,940,-123,8131,-1,0,-1
-13.06,6.53,-0.95,935,-122,8146,-1,0,0
-13.06,6.52,-0.95,923,-136,8147,-1,-1,-1
-13.06,6.52,-0.96,925,-148,8146,0,-1,0
-13.06,6.52,-0.95,933,-141,8138,0,0,0
-13.06,6.52,-0.95,929,-134,8152,0,0,-1
-13.06,6.51,-0.95,931,-136,8153,0,0,0
-13.06,6.51,-0.95,932,-128,8154,-1,0,0
-13.06,6.51,-0.95,926,-128,8158,-1,0,0
-13.06,6.50,-0.96,934,-136,8148,-1,0,0
-13.06,6.50,-0.96,926,-136,8146,0,0,-1
-13.06,6.49,-0.96,927,-136,8142,0,0,0
-13.06,6.48,-0.96,928,-135,8143,-1,0,0
-13.06,6.48,-0.96,932,-143,8144,-1,0,0
-13.07,6.48,-0.97,932,-151,8137,-1,0,0
-13.06,6.47,-0.98,924,-146,8138,-1,0,-1
-13.06,6.45,-0.97,910,-144,8138,-1,0,0
-13.06,6.45,-0.97,918,-134,8143,-1,0,0
-13.06,6.44,-0.97,921,-126,8144,-1,0,0
-13.06,6.43,-0.98,919,-143,8139,-1,0,0
-13.06,6.42,-0.98,915,-149,8139,-1,0,0
-13.06,6.42,-0.98,922,-152,8153,0,0,-1
-13.06,6.42,-0.98,934,-136,8149,0,0,-1
-13.06,6.41,-0.98,929,-126,8144,0,0,-1
-13.06,6.41,-0.98,921,-129,8151,-1,0,-1
-13.06,6.40,-0.97,918,-135,8149,-1,0,-1
-13.05,6.40,-0.97,928,-137,8144,-1,0,-1
-13.05,6.40,-0.98,919,-141,8145,0,0,-1
-13.05,6.39,-0.98,918,-145,8138,0,0,-1
-13.05,6.38,-0.97,909,-137,8134,0,0,-1
-13.05,6.38,-0.98,911,-136,8139,-1,0,-1
-13.05,6.37,-0.98,906,-134,8143,-1,0,-1
-13.04,6.36,-0.98,905,-138,8137,-1,0,-1
-13.04,6.36,-0.98,903,-141,8144,0,0,-1
-13.04,6.35,-0.98,908,-148,8151,0,0,-1
-13.05,6.36,-0.97,905,-151,8155,0,0,-1
-13.04,6.36,-0.97,903,-141,8146,0,0,-1
-13.05,6.36,-0.97,905,-136,8143,-1,-1,0
-13.05,6.36,-0.97,909,-137,8146,-1,-1,0
-13.04,6.35,-0.98,905,-143,8147,-1,-1,-1
-13.04,6.36,-0.98,912,-152,8142,0,-1,0
-13.05,6.36,-0.97,916,-147,8147,0,-1,-1
-13.04,6.37,-0.96,924,-134,8145,0,-1,-1
-13.04,6.37,-0.96,925,-126,8138,-1,0,0
-13.04,6.37,-0.96,917,-133,8143,-1,-1,0
-13.05,6.37,-0.96,907,-133,8146,-1,-1,0
-13.05,6.38,-0.97,902,-140,8149,-1,-1,0
-13.05,6.38,-0.97,914,-149,8147,0,-1,-1
-13.05,6.39,-0.97,911,-139,8143,0,-1,0
-13.05,6.39,-0.96,919,-138,8129,0,-1,0
-13.05,6.40,-0.96,925,-131,8125,0,-1,0
-13.04,6.40,-0.95,917,-125,8128,-1,-1,-1
-13.05,6.41,-0.95,916,-124,8145,-1,-1,0
-13.05,6.41,-0.96,913,-136,8148,-1,-1,-1
-13.05,6.41,-0.96,914,-142,8148,0,-1,0
-13.05,6.41,-0.96,920,-150,8144,0,-1,0
-13.05,6.42,-0.96,913,-153,8140,0,-1,0
-13.05,6.43,-0.96,918,-145,8145,0,-1,0
-13.05,6.43,-0.96,926,-136,8136,0,-1,0
-13.05,6.43,-0.96,923,-137,8141,0,-1,-1
-13.05,6.44,-0.96,925,-138,8141,0,-1,0
-13.05,6.44,-0.96,924,-140,8142,-1,-1,0
-13.06,6.45,-0.96,919,-144,8143,-1,-1,0
-13.06,6.46,-0.96,925,-141,8145,-1,-1,0
-13.05,6.45,-0.97,927,-143,8144,-1,-1,0
-13.05,6.46,-0.97,928,-144,8140,0,-1,0
-13.05,6.46,-0.97,928,-151,8139,0,-1,0
-13.05,6.47,-0.97,927,-133,8129,0,-1,0
-13.06,6.47,-0.96,929,-125,8120,-1,-1,0
-13.06,6.47,-0.97,924,-129,8126,-1,-1,0
-13.06,6.48,-0.97,922,-138,8143,-1,-1,-1
-13.06,6.48,-0.97,923,-146,8139,0,-1,0
-13.06,6.48,-0.97,930,-144,8138,0,-1,-1
-13.06,6.48,-0.96,934,-137,8137,0,-1,0
-13.06,6.49,-0.96,933,-132,8140,0,-1,0
-13.06,6.49,-0.96,928,-123,8149,-1,-1,0
-13.06,6.49,-0.96,926,-128,8140,-1,-1,0
-13.06,6.50,-0.96,936,-136,8149,-1,-1,0
-13.06,6.50,-0.96,936,-143,8148,0,-1,0
-13.07,6.50,-0.97,944,-142,8137,0,-1,0
-13.07,6.50,-0.96,939,-132,8138,0,-1,0
-13.07,6.51,-0.96,940,-130,8143,-1,-1,0
-13.07,6.51,-0.97,940,-131,8141,-1,-1,0
-13.07,6.51,-0.97,930,-146,8143,-1,-1,-1
-13.07,6.51,-0.97,929,-142,8141,0,-1,0
-13.07,6.51,-0.97,928,-141,8141,0,-1,0
-13.07,6.52,-0.97,934,-131,8137,0,-1,0
-13.07,6.52,-0.97,930,-122,8143,-1,0,0
-13.07,6.52,-0.97,923,-126,8138,-1,-1,0
-13.07,6.51,-0.97,927,-140,8147,-1,-1,0
-13.07,6.52,-0.97,929,-142,8152,0,-1,0
-13.07,6.52,-0.97,932,-142,8142,0,-1,0
-13.07,6.52,-0.96,930,-137,8144,0,-1,-1
-13.07,6.52,-0.96,932,-134,8133,0,-1,0
-13.07,6.53,-0.95,935,-122,8127,-1,-1,0
-13.07,6.53,-0.96,933,-123,8131,-1,0,0
-13.07,6.53,-0.96,934,-131,8138,-1,0,0
-13.08,6.52,-0.97,933,-143,8140,-1,0,0
-13.08,6.52,-0.97,922,-140,8143,0,-1,0
-13.08,6.52,-0.97,926,-142,8149,0,-1,0
-13.08,6.53,-0.96,931,-143,8141,0,-1,-1
-13.08,6.53,-0.95,939,-138,8131,0,0,-1
-13.08,6.53,-0.95,944,-127,8130,-1,0,0
-13.08,6.53,-0.95,939,-122,8142,-1,0,0
-13.08,6.53,-0.95,932,-133,8141,-1,0,-1
-13.08,6.53,-0.96,925,-141,8145,-1,-1,0
-13.08,6.53,-0.96,928,-145,8144,0,-1,-1
-13.08,6.53,-0.96,933,-140,8131,0,-1,0
-13.08,6.53,-0.96,937,-134,8121,0,-1,0
-13.08,6.53,-0.95,937,-138,8119,-1,0,0
-13.08,6.53,-0.95,932,-132,8136,-1,-1,0
-13.08,6.53,-0.95,935,-132,8137,-1,0,0
-13.08,6.53,-0.95,928,-134,8131,0,-1,0
-13.08,6.53,-0.95,932,-127,8132,-1,-1,0
-13.09,6.53,-0.96,938,-133,8137,-1,-1,0
-13.09,6.53,-0.96,935,-137,8127,-1,0,0
-13.09,6.53,-0.96,935,-138,8129,-1,-1,0
-13.09,6.53,-0.96,938,-139,8133,0,0,-1
-13.09,6.53,-0.96,945,-130,8140,-1,0,0
-13.08,6.53,-0.97,947,-145,8124,0,0,-1
-13.09,6.53,-0.96,946,-133,8129,-1,-1,0
-13.08,6.53,-0.97,950,-145,8130,-1,-1,-1
-13.08,6.54,-0.97,957,-150,8126,0,0,-1
-13.08,6.54,-0.97,953,-141,8135,0,0,0
-13.09,6.54,-0.96,954,-140,8134,0,-1,0
-13.09,6.55,-0.96,956,-137,8131,0,-1,0
-13.09,6.55,-0.96,947,-134,8133,-1,-1,0
-13.09,6.55,-0.96,940,-139,8142,-1,-1,0
-13.09,6.55,-0.96,939,-139,8153,0,0,-1
-13.09,6.55,-0.96,932,-142,8145,0,-1,0
-13.09,6.55,-0.96,941,-134,8141,0,-1,0
-13.09,6.54,-0.95,945,-130,8128,0,0,0
-13.09,6.53,-0.94,944,-117,8141,0,0,-1
-13.09,6.53,-0.94,935,-121,8138,-1,0,0
-13.09,6.53,-0.95,927,-136,8136,-1,-1,0
-13.09,6.53,-0.96,924,-140,8138,0,-1,-1
-13.09,6.53,-0.95,926,-142,8141,0,-1,0
-13.09,6.53,-0.95,936,-141,8146,-1,-1,0
-13.09,6.53,-0.96,932,-136,8140,-1,-1,-1
-13.09,6.53,-0.96,935,-130,8139,-1,-1,-1
-13.09,6.53,-0.96,931,-126,8146,-1,-1,0
-13.09,6.53,-0.96,933,-139,8140,-1,-1,0
-13.09,6.53,-0.96,929,-139,8132,0,0,-1
-13.09,6.52,-0.95,937,-134,8139,0,0,0
-13.09,6.52,-0.95,942,-136,8130,0,0,0
-13.09,6.51,-0.95,937,-140,8130,0,0,0
-13.09,6.51,-0.95,935,-145,8131,-1,0,0
-13.08,6.51,-0.95,933,-145,8141,-1,0,0
-13.08,6.51,-0.95,931,-141,8138,0,-1,-1
-13.09,6.51,-0.95,928,-139,8146,0,-1,0
-13.09,6.51,-0.95,938,-141,8139,0,0,0
-13.09,6.51,-0.95,952,-138,8132,0,0,0
-13.08,6.51,-0.95,947,-132,8137,-1,0,-1
-13.08,6.51,-0.95,941,-131,8144,-1,0,-1
-13.08,6.51,-0.95,939,-134,8139,0,0,0
-13.08,6.51,-0.95,934,-131,8142,-1,0,-1
-13.08,6.51,-0.95,937,-140,8142,-1,0,0
-13.08,6.50,-0.95,933,-136,8146,0,0,0
-13.08,6.50,-0.95,929,-127,8149,-1,0,0
-13.08,6.50,-0.95,932,-127,8140,0,0,0
-13.08,6.49,-0.95,934,-126,8132,0,0,-1
-13.08,6.49,-0.95,930,-124,8137,0,0,-1
-13.08,6.49,-0.94,933,-126,8141,0,0,-1
-13.08,6.48,-0.95,931,-132,8140,-1,0,0
-13.08,6.48,-0.95,923,-135,8145,-1,0,0
-13.08,6.48,-0.96,931,-136,8147,-1,0,0
-13.08,6.48,-0.96,934,-136,8147,-1,0,-1
-13.08,6.47,-0.96,927,-136,8143,0,0,0
-13.07,6.46,-0.95,932,-138,8148,0,0,-1
-13.07,6.46,-0.95,925,-132,8153,-1,0,0
-13.07,6.45,-0.96,930,-134,8160,-1,0,0
-13.08,6.45,-0.97,933,-135,8152,-1,0,0
-13.07,6.44,-0.97,928,-148,8157,-1,0,0
-13.07,6.44,-0.97,935,-148,8145,0,0,-1
-13.07,6.43,-0.96,928,-133,8146,0,0,-1
-13.07,6.43,-0.96,917,-131,8147,-1,0,0
-13.07,6.42,-0.97,921,-131,8154,-1,0,-1
-13.07,6.42,-0.97,928,-139,8147,-1,0,0
-13.07,6.41,-0.98,927,-140,8149,-1,0,0
-13.07,6.41,-0.98,926,-148,8148,-1,0,-1
-13.07,6.40,-0.97,924,-141,8144,0,0,0
-13.07,6.39,-0.97,920,-144,8141,-1,0,-1
-13.07,6.39,-0.98,909,-139,8142,-1,0,0
-13.07,6.38,-0.98,907,-144,8144,-1,0,-1
-13.06,6.37,-0.99,903,-141,8144,-1,0,0
-13.06,6.37,-0.99,904,-141,8138,-1,0,-1
-13.06,6.36,-0.99,907,-142,8143,0,0,-1
-13.06,6.35,-0.99,905,-144,8145,0,0,-1
-13.06,6.35,-0.98,909,-136,8148,0,0,-1
-13.06,6.35,-0.98,912,-144,8149,0,0,-1
-13.05,6.35,-0.98,911,-144,8149,0,0,-1
-13.05,6.34,-0.97,900,-137,8154,0,0,-1
-13.05,6.34,-0.97,908,-135,8141,0,0,-1
-13.05,6.34,-0.97,912,-129,8139,0,0,-1
-13.05,6.34,-0.97,906,-126,8146,-1,0,0
-13.05,6.34,-0.97,901,-136,8144,-1,-1,0
-13.05,6.34,-0.97,902,-145,8145,0,-1,0
-13.05,6.34,-0.97,903,-149,8149,0,-1,-1
-13.05,6.35,-0.95,920,-140,8139,0,-1,-1
-13.05,6.35,-0.95,918,-128,8136,0,0,-1
-13.05,6.36,-0.94,919,-128,8135,0,-1,-1
-13.05,6.36,-0.94,912,-130,8131,-1,-1,0
-13.05,6.36,-0.94,904,-141,8133,-1,-1,0
-13.05,6.36,-0.95,906,-146,8142,0,-1,-1
-13.05,6.36,-0.95,903,-145,8152,0,-1,-1
-13.05,6.37,-0.94,902,-128,8148,0,-1,0
-13.05,6.37,-0.94,905,-121,8144,-1,-1,0
-13.05,6.38,-0.94,915,-124,8143,-1,-1,0
-13.05,6.39,-0.94,918,-127,8145,-1,-1,0
-13.05,6.39,-0.95,920,-140,8136,-1,-1,0
-13.05,6.40,-0.95,919,-140,8134,0,-1,0
-13.05,6.41,-0.95,910,-142,8130,0,-1,0
-13.05,6.41,-0.95,914,-136,8141,0,-1,0
-13.05,6.42,-0.94,924,-258,-258,-1,-1,0
-13.05,6.42,-0.95,923,-141,8133,-1,-1,0
-13.05,6.43,-0.95,932,-145,8137,0,-1,0
-13.05,6.43,-0.95,925,-144,8134,0,-1,-1
-13.06,6.43,-0.95,925,-131,8131,0,-1,0
-13.06,6.44,-0.94,925,-126,8134,-1,-1,0
-13.06,6.44,-0.95,924,-134,8137,-1,-1,0
-13.06,6.44,-0.95,925,-136,8137,-1,-1,0
-13.06,6.45,-0.95,927,-144,8136,0,-1,0
-13.07,6.45,-0.95,927,-136,8140,0,-1,0
-13.07,6.46,-0.95,928,-126,8140,0,-1,0
-13.07,6.46,-0.95,920,-123,8145,-1,-1,0
-13.07,6.46,-0.95,915,-129,8141,-1,-1,0
-13.07,6.46,-0.95,925,-139,8134,0,-1,0
-13.07,6.47,-0.95,925,-143,8134,0,-1,0
-13.07,6.47,-0.95,926,-140,8134,0,-1,0
-13.07,6.47,-0.95,920,-138,8133,0,-1,0
-13.07,6.47,-0.95,923,-136,8136,-1,-1,-1
-13.07,6.48,-0.95,926,-142,8136,-1,-1,-1
-13.07,6.48,-0.96,927,-135,8131,-1,-1,0
-13.07,6.48,-0.95,924,-133,8134,0,-1,0
-13.08,6.48,-0.95,929,-133,8137,0,-1,0
-13.07,6.48,-0.95,928,-136,8142,-1,-1,-1
-13.07,6.48,-0.95,926,-135,8140,0,-1,0
-13.07,6.48,-0.95,934,-143,8138,0,0,-1
-13.07,6.49,-0.94,932,-136,8139,0,0,-1
-13.07,6.48,-0.94,931,-128,8154,-1,-1,0
-13.07,6.48,-0.95,935,-137,8144,-1,-1,0
-13.08,6.48,-0.95,931,-148,8140,0,-1,0
-13.07,6.49,-0.94,940,-148,8133,0,-1,-1
-13.07,6.49,-0.94,941,-133,8131,0,0,-1
-13.07,6.49,-0.94,936,-123,8145,-1,0,-1
-13.07,6.49,-0.94,934,-120,8160,-1,-1,0
-13.07,6.49,-0.94,936,-129,8155,-1,-1,0
-13.07,6.49,-0.94,934,-142,8146,-1,-1,0
-13.07,6.49,-0.95,926,-154,8137,0,0,0
-13.07,6.48,-0.95,929,-157,8140,0,0,-1
-13.07,6.49,-0.94,929,-135,8139,0,0,-1
-13.07,6.48,-0.94,932,-120,8142,0,0,-1
-13.07,6.48,-0.93,929,-116,8140,-1,0,0
-13.07,6.48,-0.94,924,-118,8133,-1,0,0
-13.07,6.47,-0.95,928,-130,8140,-1,0,0
-13.07,6.47,-0.95,930,-142,8149,-1,0,0
-13.07,6.47,-0.95,930,-146,8154,0,0,-1
-13.07,6.46,-0.95,923,-137,8151,0,0,-1
-13.06,6.46,-0.95,929,-134,8147,0,0,-1
-13.07,6.46,-0.95,933,-134,8140,-1,0,0
-13.07,6.46,-0.95,932,-133,8140,-1,0,0
-13.07,6.46,-0.95,923,-135,8142,-1,0,0
-13.07,6.46,-0.95,917,-134,8139,-1,0,-1
-13.07,6.45,-0.95,919,-135,8131,-1,0,0
-13.07,6.46,-0.95,930,-136,8141,0,0,-1
-13.07,6.45,-0.95,932,-138,8136,-1,0,0
-13.07,6.45,-0.96,931,-143,8134,-1,0,0
-13.07,6.45,-0.95,928,-143,8121,0,0,0
-13.07,6.45,-0.96,924,-136,8132,-1,0,0
-13.07,6.45,-0.96,926,-135,8136,-1,0,0
-13.07,6.44,-0.96,917,-133,8141,-1,0,0
-13.07,6.43,-0.96,914,-137,8138,-1,0,0
-13.07,6.43,-0.96,919,-145,8136,0,0,0
-13.08,6.43,-0.97,925,-147,8144,0,0,0
-13.08,6.43,-0.96,925,-141,8141,0,0,0
-13.08,6.43,-0.96,922,-139,8145,0,0,-1
-13.08,6.41,-0.95,912,-125,8152,0,0,0
-13.08,6.41,-0.96,913,-126,8157,-1,0,0
-13.08,6.41,-0.96,913,-133,8156,-1,0,0
-13.08,6.41,-0.96,915,-142,8141,-1,0,-1
-13.07,6.40,-0.96,922,-147,8141,0,0,-1
-13.07,6.40,-0.96,930,-140,8143,0,0,-1
-13.07,6.39,-0.96,923,-139,8143,0,0,-1
-13.07,6.38,-0.96,919,-129,8142,0,0,-1
-13.07,6.38,-0.96,914,-131,8139,-1,0,-1
-13.06,6.38,-0.96,917,-138,8135,-1,0,0
-13.06,6.38,-0.96,916,-144,8134,-1,0,-1
-13.06,6.38,-0.96,916,-138,8120,0,-1,0
-13.06,6.38,-0.96,909,-141,8127,0,-1,-1
-13.06,6.38,-0.96,915,-134,8130,0,-1,-1
-13.06,6.38,-0.95,922,-126,8148,0,0,0
-13.06,6.39,-0.95,914,-135,8145,0,-1,-1
-13.07,6.39,-0.95,915,-138,8137,0,0,0
-13.07,6.39,-0.95,917,-138,8148,-1,-1,0
-13.07,6.39,-0.95,922,-147,8148,0,-1,-1
-13.07,6.39,-0.95,920,-137,8135,0,-1,-1
-13.06,6.39,-0.94,913,-123,8141,0,-1,-1
-13.06,6.39,-0.94,919,-121,8142,-1,-1,-1
-13.06,6.40,-0.93,921,-119,8142,-1,-1,0
-13.06,6.40,-0.94,916,-128,8143,-1,-1,0
-13.06,6.41,-0.94,921,-133,8144,-1,-1,0
-13.06,6.41,-0.94,915,-137,8140,0,-1,0
-13.07,6.41,-0.94,915,-138,8140,0,-1,0
-13.07,6.42,-0.94,920,-142,8145,0,-1,0
-13.07,6.43,-0.94,925,-136,8137,0,-1,0
-13.07,6.43,-0.94,923,-120,8148,-1,-1,0
-13.07,6.44,-0.94,920,-121,8149,-1,-1,0
-13.07,6.44,-0.94,927,-136,8148,-1,-1,0
-13.07,6.45,-0.95,920,-136,8148,-1,-1,0
-13.08,6.46,-0.95,920,-139,8139,0,-1,0
-13.08,6.46,-0.94,909,-133,8142,0,-1,0
-13.08,6.47,-0.94,923,-137,8146,0,-1,0
-13.09,6.49,-0.94,926,-138,8143,0,-1,0
-13.09,6.49,-0.93,926,-129,8138,-1,-1,0
-13.11,6.50,-0.94,922,-127,8147,-1,-1,0
-13.11,6.51,-0.95,924,-132,8143,-1,-1,0
-13.11,6.53,-0.96,934,-138,8151,-1,-1,0
-13.12,6.54,-0.97,936,-150,8141,-1,-1,0
-13.13,6.55,-0.99,950,-157,8126,-1,-1,0
-13.13,6.56,-1.00,951,-159,8130,-1,0,0
-13.13,6.56,-1.01,956,-183,8136,0,0,-1
-13.13,6.56,-1.00,957,-147,8145,0,0,-1
-13.13,6.56,-1.00,946,-138,8151,-1,0,-1
-13.13,6.56,-1.01,947,-149,8147,-1,0,-1
-13.13,6.55,-1.01,946,-151,8143,-1,0,-1
-13.12,6.54,-1.02,946,-160,8151,-1,0,0
-13.12,6.53,-1.01,944,-136,8169,-1,0,0
-13.13,6.51,-1.03,945,-89,8185,-2,0,0
-13.13,6.49,-1.07,922,-69,8177,-3,0,0
-13.14,6.48,-1.12,919,-97,8155,-3,0,0
-13.15,6.48,-1.18,927,-143,8128,-2,0,0
-13.15,6.47,-1.23,920,-190,8115,-2,0,0
-13.15,6.46,-1.27,917,-227,8106,-1,0,0
-13.14,6.45,-1.29,931,-258,8107,0,0,-1
-13.14,6.43,-1.28,955,-212,8133,0,1,-1
-13.14,6.40,-1.28,941,-168,8151,-1,1,0
-13.14,6.37,-1.31,931,-145,8163,-2,1,0
-13.14,6.33,-1.35,920,-166,8163,-2,0,0
-13.15,6.31,-1.40,908,-189,8151,-2,0,0
-13.15,6.29,-1.43,896,-211,8127,-1,0,0
-13.15,6.27,-1.45,905,-228,8111,-1,0,-1
-13.15,6.25,-1.47,915,-232,8121,-1,1,0
-13.14,6.22,-1.47,896,-227,8123,-1,0,-1
-13.14,6.19,-1.47,893,-232,8133,0,0,-1
-13.14,6.17,-1.45,877,-216,8153,0,0,-1
-13.13,6.15,-1.43,886,-203,8138,0,0,-1
-13.12,6.13,-1.41,867,-198,8132,0,0,-1
-13.11,6.12,-1.39,860,-201,8124,0,0,-1
-13.10,6.10,-1.38,859,-203,8141,0,0,-1
-13.09,6.10,-1.36,867,-200,8150,0,-1,-1
-13.08,6.10,-1.33,864,-207,8156,1,0,-1
-13.08,6.11,-1.30,879,-206,8139,1,-1,-1
-13.07,6.12,-1.26,877,-171,8142,0,-1,-1
-13.07,6.13,-1.24,873,-190,8119,0,-1,-1
-13.06,6.14,-1.22,871,-204,8133,1,-1,-1
-13.06,6.16,-1.18,881,-156,8150,0,-1,-1
-13.05,6.19,-1.16,886,-151,8161,0,-1,-1
-13.05,6.20,-1.15,887,-158,8162,0,-1,-1
-13.05,6.22,-1.14,888,-166,8156,0,-1,-1
-13.05,6.24,-1.12,883,-157,8157,0,-1,0
-13.06,6.27,-1.11,885,-146,8158,0,-1,0
-13.06,6.28,-1.11,906,-147,8134,-1,-1,0
-13.06,6.29,-1.11,897,-155,8133,0,-1,-1
-13.06,6.30,-1.11,897,-152,8136,0,-1,-1
-13.06,6.31,-1.10,903,-142,8133,-1,-1,0
-13.06,6.33,-1.10,896,-150,8135,-1,-1,0
-13.06,6.33,-1.11,905,-164,8190,-1,-1,0
-13.06,6.35,-1.11,906,-182,8153,0,-1,-1
-13.06,6.36,-1.11,909,-176,8140,0,-1,-1
-13.07,6.37,-1.10,923,-194,8125,0,-1,-1
-13.06,6.38,-1.08,922,-147,8144,0,-1,0
-13.06,6.39,-1.07,926,-157,8134,0,0,-1
-13.07,6.39,-1.07,908,-149,8153,0,-1,0
-13.07,6.39,-1.06,918,-150,8155,0,-1,0
-13.07,6.40,-1.05,916,-156,8151,0,-1,-1
-13.07,6.41,-1.05,918,-149,8144,0,-1,-1
-13.07,6.41,-1.03,922,-141,8135,0,-1,-1
-13.07,6.42,-1.03,924,-137,8140,0,-1,0
-13.07,6.43,-1.02,918,-134,8132,0,-1,0
-13.07,6.43,-1.03,884,-182,8147,0,-1,0
-13.08,6.46,-1.00,901,-189,8150,1,-2,0
-13.08,6.50,-0.96,936,-121,8130,0,-1,-1
-13.08,6.51,-0.92,949,-81,8135,0,-1,0
-13.09,6.52,-0.93,948,-113,8135,0,-1,0
-13.09,6.54,-0.93,927,-143,8128,0,-1,0
-13.09,6.57,-0.92,926,-131,8148,0,-1,-1
-13.09,6.59,-0.92,939,-112,8160,-1,-1,0
-13.09,6.60,-0.94,966,-127,8168,-1,-1,0
-13.09,6.60,-0.95,976,-139,8149,-1,0,-1
-13.09,6.59,-0.96,961,-154,8128,-1,0,-1
-13.08,6.57,-0.97,956,-158,8130,-1,0,-1
-13.08,6.56,-0.98,957,-153,8130,-1,0,-1
-13.07,6.54,-0.98,946,-151,8141,-1,0,-1
-13.07,6.52,-0.99,933,-149,8157,-1,0,-1
-13.07,6.49,-1.00,920,-140,8156,-1,0,-1
-13.07,6.49,-1.00,926,-139,8147,-1,0,0
-13.07,6.49,-1.01,928,-154,8128,-1,0,0
-13.07,6.49,-1.02,931,-143,8129,-1,0,0
-13.07,6.48,-1.03,931,-154,8140,-1,0,0
-13.07,6.47,-1.04,923,-170,8157,-1,0,0
-13.07,6.46,-1.05,934,-170,8149,-1,0,0
-13.08,6.45,-1.05,930,-151,8140,0,0,0
-13.08,6.45,-1.04,931,-137,8136,0,0,0
-13.08,6.44,-1.04,937,-130,8137,-1,0,-1
-13.08,6.42,-1.05,929,-136,8135,-1,0,0
-13.08,6.41,-1.05,921,-145,8137,-1,0,0
-13.08,6.39,-1.07,909,-154,8150,-1,0,0
-13.08,6.39,-1.07,914,-158,8150,0,0,0
-13.08,6.38,-1.06,916,-153,8143,0,0,-1
-13.08,6.37,-1.06,910,-143,8140,-1,0,0
-13.07,6.36,-1.06,915,-141,8128,-1,0,-1
-13.07,6.35,-1.05,919,-145,8124,-1,0,-1
-13.07,6.35,-1.05,914,-149,8139,0,0,-1
-13.07,6.34,-1.05,911,-153,8146,0,0,-1
-13.07,6.33,-1.05,907,-151,8148,0,0,-1
-13.07,6.33,-1.04,909,-149,8148,0,0,-1
-13.06,6.33,-1.04,918,-153,8145,0,0,-1
-13.05,6.32,-1.04,917,-156,8150,0,0,-1
-13.05,6.31,-1.03,917,-160,8141,0,0,-1
-13.05,6.31,-1.02,921,-145,8134,0,0,-1
-13.04,6.30,-1.01,914,-141,8140,0,0,-1
-13.04,6.30,-1.01,909,-155,8158,0,0,-1
-13.03,6.30,-1.01,904,-156,8163,0,0,-1
-13.03,6.30,-1.01,901,-159,8152,0,-1,-1
-13.03,6.30,-1.00,901,-153,8143,0,-1,-1
-13.03,6.31,-0.99,903,-147,8150,0,-1,-1
-13.03,6.31,-0.98,909,-140,8156,0,-1,-1
-13.03,6.31,-0.98,905,-130,8156,0,-1,-1
-13.03,6.32,-0.98,900,-132,8157,0,-1,-1
-13.03,6.32,-0.98,901,-146,8147,-1,-1,0
-13.03,6.33,-0.98,896,-152,8149,0,-1,-1
-13.02,6.33,-0.98,907,-154,8145,0,-1,-1
-13.02,6.34,-0.97,913,-142,8141,0,-1,0
-13.02,6.35,-0.97,915,-145,8129,-1,-1,-1
-13.03,6.35,-0.97,911,-142,8131,-1,0,0
-13.03,6.35,-0.97,904,-141,8138,-1,-1,-1
-13.03,6.35,-0.98,899,-143,8148,-1,-1,0
-13.03,6.36,-0.98,904,-147,8151,0,-1,-1
-13.03,6.37,-0.98,907,-140,8123,0,-1,-1
-13.03,6.37,-0.98,909,-140,8120,-1,-1,0
-13.03,6.38,-0.98,914,-143,8126,-1,-1,0
-13.03,6.38,-0.98,917,-151,8133,0,0,-1
-13.03,6.38,-0.97,915,-148,8145,0,-1,-1
-13.03,6.38,-0.97,923,-149,8150,0,-1,0
-13.03,6.39,-0.97,924,-144,8141,0,-1,-1
-13.03,6.40,-0.97,921,-145,8136,-1,-1,-1
-13.03,6.40,-0.97,917,-143,8144,-1,-1,-1
-13.03,6.40,-0.97,916,-147,8143,0,-1,0
-13.03,6.41,-0.97,925,-152,8141,0,-1,0
-13.03,6.42,-0.97,923,-146,8139,0,-1,-1
-13.03,6.42,-0.97,922,-139,8137,0,-1,-1
-13.03,6.43,-0.96,922,-137,8147,0,-1,-1
-13.03,6.43,-0.96,925,-131,8139,-1,-1,0
-13.03,6.43,-0.96,916,-141,8143,-1,-1,-1
-13.04,6.43,-0.96,918,-146,8149,-1,-1,-1
-13.04,6.43,-0.97,917,-148,8150,-1,-1,0
-13.04,6.43,-0.97,916,-159,8147,-1,-1,-1
-13.04,6.44,-0.97,925,-152,8140,0,-1,0
-13.04,6.45,-0.97,929,-154,8140,0,-1,-1
-13.04,6.45,-0.96,926,-139,8136,0,-1,0
-13.04,6.45,-0.96,920,-137,8132,-1,0,-1
-13.04,6.45,-0.96,920,-139,8125,0,-1,-1
-13.04,6.45,-0.97,922,-140,8138,-1,-1,0
-13.04,6.45,-0.97,921,-139,8146,-1,-1,0
-13.04,6.46,-0.97,925,-154,8135,0,-1,-1
-13.04,6.46,-0.97,944,-147,8136,0,0,-1
-13.04,6.47,-0.97,943,-145,8126,0,0,-1
-13.04,6.47,-0.97,938,-141,8125,0,0,-1
-13.04,6.47,-0.96,931,-127,8133,-1,0,0
-13.04,6.47,-0.97,929,-135,8147,-1,0,0
-13.04,6.47,-0.97,927,-141,8151,0,-1,-1
-13.04,6.47,-0.97,917,-147,8146,0,-1,-1
-13.04,6.48,-0.97,922,-152,8137,0,-1,0
-13.04,6.48,-0.97,930,-142,8138,0,-1,0
-13.04,6.48,-0.96,930,-127,8144,0,0,-1
-13.04,6.48,-0.96,934,-126,8148,-1,-1,0
-13.04,6.48,-0.96,929,-137,8145,-1,-1,-1
-13.04,6.48,-0.96,928,-134,8139,0,0,-1
-13.04,6.48,-0.96,931,-139,8134,0,-1,0
-13.04,6.49,-0.96,938,-144,8132,0,-1,-1
-13.04,6.49,-0.96,944,-150,8134,0,-1,-1
-13.04,6.50,-0.96,946,-141,8127,0,0,-1
-13.04,6.50,-0.96,944,-134,8128,-1,0,-1
-13.04,6.50,-0.96,938,-137,8138,-1,0,-1
-13.04,6.50,-0.96,931,-138,8143,-1,0,-1
-13.03,6.50,-0.96,921,-142,8131,-1,0,-1
-13.03,6.50,-0.96,930,-140,8134,0,0,-1
-13.04,6.50,-0.96,925,-140,8132,0,0,-1
-13.04,6.49,-0.96,927,-136,8134,-1,0,-1
-13.04,6.49,-0.96,931,-135,8145,-1,0,-1
-13.04,6.49,-0.96,931,-134,8149,-1,0,0
-13.03,6.50,-0.96,939,-142,8152,-1,-1,-1
-13.03,6.50,-0.96,942,-143,8140,0,0,0
-13.04,6.50,-0.96,939,-139,8134,0,-1,-1
-13.04,6.51,-0.96,940,-134,8131,0,-1,0
-13.04,6.51,-0.96,934,-131,8137,-1,0,-1
-13.04,6.50,-0.96,932,-140,8135,-1,0,0
-13.03,6.50,-0.96,928,-140,8147,-1,0,-1
-13.03,6.50,-0.96,923,-144,8148,-1,-1,0
-13.03,6.50,-0.96,931,-147,8145,0,-1,-1
-13.03,6.50,-0.96,936,-144,8142,0,-1,-1
-13.04,6.51,-0.96,947,-134,8127,0,0,-1
-13.04,6.51,-0.95,947,-130,8119,0,0,0
-13.04,6.51,-0.95,936,-130,8137,-1,0,-1
-13.04,6.51,-0.95,935,-134,8142,0,-1,-1
-13.04,6.51,-0.95,929,-129,8140,-1,0,0
-13.04,6.51,-0.95,932,-130,8136,0,-1,-1
-13.04,6.51,-0.95,937,-134,8139,0,0,0
-13.04,6.51,-0.95,932,-142,8142,0,0,-1
-13.03,6.51,-0.95,938,-141,8141,0,0,-1
-13.03,6.51,-0.94,936,-131,8139,0,0,-1
-13.03,6.51,-0.94,932,-134,8133,0,0,-1
-13.03,6.51,-0.94,933,-138,8134,-1,0,-1
-13.03,6.51,-0.94,938,-139,8135,-1,-1,0
-13.03,6.51,-0.95,937,-147,8139,-1,-1,-1
-13.03,6.51,-0.95,942,-150,8128,0,0,-1
-13.03,6.51,-0.95,940,-145,8130,0,0,-1
-13.03,6.51,-0.95,944,-141,8129,0,0,-1
-13.03,6.51,-0.94,946,-137,8146,0,0,-1
-13.02,6.51,-0.95,940,-135,8144,-1,0,-1
-13.02,6.51,-0.95,940,-135,8135,-1,0,-1
-13.02,6.51,-0.96,938,-142,8138,-1,0,-1
-13.02,6.51,-0.96,941,-143,8135,0,0,-1
-13.02,6.51,-0.95,940,-147,8145,0,0,-1
-13.02,6.51,-0.95,937,-137,8139,0,0,-1
-13.01,6.51,-0.94,933,-129,8141,0,0,-1
-13.01,6.51,-0.94,930,-136,8152,-1,0,0
-13.01,6.51,-0.95,928,-144,8138,-1,0,-1
-13.01,6.51,-0.95,934,-149,8141,0,0,-1
-13.01,6.51,-0.95,939,-146,8129,0,0,-1
-13.01,6.51,-0.95,944,-146,8139,0,0,-1
-13.01,6.51,-0.95,939,-136,8139,0,0,-1
-13.01,6.51,-0.95,942,-129,8135,-1,0,-1
-13.01,6.50,-0.95,935,-122,8139,-1,0,-1
-13.01,6.50,-0.95,935,-131,8136,-1,0,-1
-13.01,6.50,-0.95,935,-136,8136,-1,0,-1
-13.01,6.50,-0.95,935,-139,8134,0,0,-1
-13.01,6.50,-0.95,938,-146,8136,0,0,-1
-13.01,6.49,-0.95,932,-149,8149,-1,0,-1
-13.01,6.49,-0.95,931,-148,8141,0,0,-1
-13.01,6.49,-0.95,926,-135,8134,0,0,-1
-13.00,6.49,-0.95,931,-126,8133,-1,0,-1
-13.00,6.49,-0.95,933,-123,8129,-1,0,0
-13.00,6.49,-0.95,939,-129,8128,-1,0,-1
-13.00,6.48,-0.95,937,-136,8142,-1,0,-1
-13.00,6.48,-0.95,933,-143,8136,0,0,-1
-13.00,6.48,-0.95,930,-146,8134,0,0,-1
-13.00,6.49,-0.95,934,-142,8136,0,0,-1
-13.00,6.49,-0.95,939,-137,8134,0,0,-1
-13.00,6.49,-0.95,941,-130,8124,-1,0,-1
-13.00,6.48,-0.94,939,-127,8132,-1,0,-1
-12.99,6.47,-0.94,942,-138,8135,-1,0,-1
-12.99,6.47,-0.95,935,-143,8142,-1,0,-1
-12.99,6.46,-0.95,925,-145,8151,0,0,-1
-12.99,6.46,-0.95,922,-146,8145,0,0,-1
-12.99,6.46,-0.95,921,-135,8139,-1,0,-1
-12.99,6.46,-0.95,927,-130,8137,-1,0,-1
-12.99,6.46,-0.95,923,-131,8134,-1,0,-1
-12.98,6.45,-0.95,930,-132,8145,-1,0,-1
-12.98,6.45,-0.95,931,-138,8135,-1,0,-1
-12.98,6.45,-0.95,931,-139,8127,0,0,-1
-12.98,6.45,-0.95,929,-140,8139,-1,0,0
-12.99,6.46,-0.95,933,-141,8137,-1,0,0
-12.98,6.46,-0.96,927,-138,8124,-1,0,-1
-12.98,6.45,-0.95,921,-149,8141,-1,0,-1
-12.98,6.45,-0.95,927,-152,8140,0,0,-1
-12.98,6.45,-0.95,915,-142,8139,0,0,-1
-12.98,6.45,-0.95,916,-134,8136,-1,0,-1
-12.98,6.45,-0.95,919,-136,8133,-1,0,0
-12.98,6.45,-0.95,922,-138,8130,-1,-1,-1
-12.98,6.45,-0.96,915,-148,8137,0,-1,0
-12.98,6.45,-0.95,918,-141,8145,0,0,-1
-12.98,6.45,-0.95,926,-138,8139,0,-1,-1
-12.98,6.46,-0.96,928,-142,8146,-1,-1,0
-12.98,6.46,-0.96,928,-142,8140,-1,-1,0
-12.98,6.46,-0.96,930,-142,8153,-1,-1,-1
-12.98,6.46,-0.96,925,-145,8140,0,-1,0
-12.98,6.46,-0.96,926,-151,8146,0,-1,-1
-12.98,6.47,-0.96,931,-142,8150,0,-1,-1
-12.99,6.47,-0.95,933,-136,8135,0,0,-1
-12.99,6.47,-0.95,935,-138,8137,-1,0,0
-12.99,6.47,-0.96,932,-141,8136,-1,-1,0
-12.98,6.48,-0.96,932,-145,8139,-1,-1,-1
-12.98,6.48,-0.96,931,-141,8143,0,-1,-1
-12.98,6.48,-0.96,939,-141,8147,0,-1,0
-12.98,6.48,-0.96,941,-140,8146,0,0,0
-12.99,6.48,-0.96,935,-140,8139,-1,0,-1
-12.98,6.48,-0.96,931,-139,8151,-1,0,-1
-12.99,6.48,-0.97,928,-145,8158,-1,0,0
-12.98,6.48,-0.96,932,-143,8149,-1,-1,-1
-12.98,6.49,-0.97,940,-138,8147,0,0,-1
-12.98,6.49,-0.96,935,-135,8151,0,-1,-1
-12.99,6.49,-0.95,935,-131,8143,0,-1,0
-12.99,6.50,-0.95,936,-130,8132,-1,-1,-1
-12.99,6.50,-0.95,936,-130,8139,0,-1,-1
-12.99,6.50,-0.95,924,-130,8139,0,0,-1
-12.99,6.50,-0.95,924,-138,8142,-1,-1,-1
-12.99,6.50,-0.95,930,-142,8149,-1,-1,0
-12.99,6.50,-0.95,931,-151,8142,0,-1,-1
-12.99,6.51,-0.95,939,-154,8130,0,0,-1
-12.99,6.51,-0.95,934,-147,8132,0,0,-1
-12.99,6.50,-0.95,936,-132,8132,0,0,-1
-12.98,6.50,-0.95,936,-129,8140,-1,0,0
-12.99,6.50,-0.95,931,-136,8134,-1,0,0
-12.99,6.51,-0.95,928,-144,8134,-1,-1,0
-12.98,6.50,-0.96,933,-151,8130,0,0,-1
-12.99,6.51,-0.95,936,-145,8138,0,0,-1
-12.99,6.51,-0.95,941,-135,8142,0,-1,-1
-12.99,6.51,-0.95,939,-133,8149,0,0,-1
-12.99,6.51,-0.94,940,-123,8155,-1,0,-1
-12.99,6.51,-0.94,933,-129,8146,-1,-1,0
-12.99,6.51,-0.95,933,-131,8128,0,-1,0
-12.99,6.51,-0.95,937,-133,8138,-1,-1,-1
-12.99,6.51,-0.95,928,-144,8142,-1,0,0
-12.99,6.51,-0.95,930,-147,8135,-1,0,0
-12.99,6.51,-0.95,928,-153,8128,0,0,-1
-12.99,6.51,-0.95,932,-149,8125,0,0,-1
-12.99,6.51,-0.95,929,-141,8128,0,0,-1
-12.99,6.51,-0.95,931,-139,8131,0,0,-1
-12.99,6.51,-0.95,936,-135,8141,-1,0,0
-12.99,6.51,-0.95,937,-144,8142,-1,-1,0
-12.98,6.51,-0.96,933,-155,8141,-1,0,0
-12.98,6.50,-0.96,928,-154,8142,0,0,-1
-12.98,6.51,-0.95,935,-146,8138,0,0,-1
-12.98,6.51,-0.95,930,-126,8138,0,0,-1
-12.98,6.51,-0.94,933,-118,8145,-1,-1,0
-12.98,6.51,-0.95,938,-127,8141,-1,-1,0
-12.98,6.51,-0.95,934,-141,8154,-1,0,-1
-12.98,6.51,-0.95,938,-148,8150,0,0,-1
-12.98,6.51,-0.95,939,-147,8142,0,0,-1
-12.98,6.51,-0.94,937,-136,8135,0,0,0
-12.99,6.51,-0.94,942,-127,8143,-1,0,0
-12.99,6.51,-0.95,932,-130,8137,-1,-1,-1
-12.98,6.51,-0.95,940,-142,8133,-1,0,-1
-12.98,6.52,-0.96,937,-145,8139,-1,-1,-1
-12.99,6.51,-0.95,934,-143,8147,0,0,0
-12.98,6.51,-0.95,939,-146,8138,0,0,-1
-12.98,6.51,-0.95,936,-136,8135,0,0,-1
-12.98,6.51,-0.94,937,-127,8139,0,0,-1
-12.98,6.51,-0.94,937,-130,8139,0,0,-1
-12.98,6.51,-0.94,933,-143,8144,-1,0,-1
-12.98,6.51,-0.95,934,-142,8142,0,0,-1
-12.98,6.51,-0.95,934,-141,8137,0,0,-1
-12.98,6.51,-0.95,934,-145,8136,0,0,-1
-12.98,6.51,-0.94,933,-149,8126,0,0,-1
-12.98,6.51,-0.94,935,-143,8123,0,0,-1
-12.98,6.51,-0.94,937,-133,8131,-1,0,-1
-12.98,6.51,-0.94,930,-124,8132,-1,-1,0
-12.97,6.51,-0.95,938,-134,8138,-1,0,-1
-12.97,6.51,-0.95,933,-140,8140,-1,0,-1
-12.97,6.51,-0.95,930,-141,8144,0,0,0
-12.98,6.51,-0.95,932,-145,8137,0,0,0
-12.98,6.51,-0.95,936,-150,8146,0,0,-1
-12.97,6.51,-0.94,940,-145,8142,0,0,-1
-12.97,6.51,-0.93,931,-122,8138,0,0,-1
-12.97,6.51,-0.93,929,-126,8134,-1,0,-1
-12.97,6.51,-0.94,931,-135,8139,-1,-1,-1
-12.97,6.51,-0.94,935,-151,8141,-1,0,0
-12.97,6.51,-0.95,935,-158,8136,0,0,-1
-12.97,6.50,-0.94,930,-141,8140,0,0,-1
-12.97,6.50,-0.93,931,-132,8139,0,0,0
-12.96,6.50,-0.93,931,-129,8145,0,0,-1
-12.96,6.50,-0.92,-258,-258,-258,-258,-258,-258
-12.97,6.50,-0.92,938,-126,8148,-1,0,-1
-12.97,6.50,-0.92,930,-128,8140,-1,0,0
-12.97,6.50,-0.93,930,-135,8133,-1,0,-1
-12.96,6.50,-0.93,929,-142,8135,0,0,-1
-12.96,6.49,-0.93,932,-146,8141,0,0,-1
-12.96,6.49,-0.93,937,-146,8139,-1,0,-1
-12.96,6.49,-0.92,934,-130,8138,0,0,-1
-12.96,6.49,-0.92,935,-130,8124,0,0,-1
-12.96,6.49,-0.92,938,-136,8127,-1,0,-1
-12.96,6.49,-0.93,937,-133,8139,-1,0,-1
-12.96,6.49,-0.93,937,-140,8142,-1,0,-1
-12.96,6.49,-0.93,938,-146,8129,0,0,-1
-12.96,6.49,-0.93,935,-144,8142,0,0,-1
-12.96,6.49,-0.92,935,-147,8139,0,0,-1
-12.96,6.49,-0.92,934,-139,8140,0,0,-1
-12.96,6.49,-0.91,936,-128,8139,0,0,-1
-12.96,6.48,-0.91,931,-123,8143,-1,0,0
-12.96,6.48,-0.92,931,-132,8147,-1,0,-1
-12.96,6.47,-0.93,925,-141,8148,-1,0,0
-12.96,6.47,-0.93,928,-146,8148,0,0,-1
-12.95,6.47,-0.92,933,-150,8143,0,0,-1
-12.95,6.47,-0.92,928,-137,8143,0,0,-1
-12.95,6.47,-0.92,927,-132,8144,-1,0,-1
-12.95,6.47,-0.92,925,-130,8150,-1,0,-1
-12.95,6.47,-0.93,929,-138,8156,-1,0,-1
-12.95,6.47,-0.93,929,-152,8153,-1,0,-1
-12.95,6.46,-0.93,930,-145,8144,0,0,-1
-12.94,6.46,-0.92,932,-137,8140,0,0,-1
-12.94,6.45,-0.92,934,-145,8148,0,0,-1
-12.94,6.45,-0.92,937,-134,8148,0,0,-1
-12.94,6.45,-0.92,930,-135,8144,0,0,-1
-12.94,6.45,-0.92,925,-129,8134,-1,0,0
-12.94,6.45,-0.92,928,-132,8140,-1,0,-1
-12.94,6.44,-0.92,927,-139,8148,0,0,-1
-12.94,6.44,-0.92,928,-145,8155,0,0,-1
-12.94,6.43,-0.92,928,-141,8147,0,0,-1
-12.93,6.43,-0.92,927,-138,8136,-1,0,-1
-12.93,6.42,-0.92,934,-132,8141,-1,0,-1
-12.93,6.42,-0.93,916,-136,8139,-1,0,0
-12.93,6.41,-0.93,910,-135,8142,-1,0,-1
-12.93,6.40,-0.93,909,-140,8145,0,0,-1
-12.93,6.40,-0.93,919,-144,8140,0,0,0
-12.93,6.40,-0.93,928,-151,8132,0,0,-1
-12.93,6.39,-0.93,930,-144,8124,0,0,-1
-12.93,6.38,-0.92,923,-134,8138,-1,0,-1
-12.93,6.38,-0.92,923,-127,8150,0,0,-1
-12.93,6.37,-0.92,908,-125,8153,-1,0,-1
-12.93,6.37,-0.93,912,-132,8157,-1,0,-1
-12.93,6.37,-0.93,918,-141,8150,0,0,-1
-12.93,6.36,-0.93,911,-139,8152,0,0,-1
-12.93,6.36,-0.92,917,-134,8147,0,0,-1
-12.93,6.35,-0.92,913,-128,8140,0,0,-1
-12.93,6.36,-0.91,906,-122,8137,0,0,-1
-12.93,6.36,-0.91,905,-124,8143,0,-1,0
-12.93,6.36,-0.91,903,-120,8127,-1,0,-1
-12.92,6.35,-0.91,900,-132,8123,-1,0,-1
-12.92,6.36,-0.91,905,-136,8134,-1,-1,-1
-12.92,6.36,-0.91,914,-136,8136,0,-1,-1
-12.92,6.36,-0.91,913,-140,8141,0,0,-1
-12.92,6.36,-0.91,917,-137,8133,0,-1,-1
-12.92,6.36,-0.91,915,-125,8136,0,-1,0
-12.92,6.36,-0.91,917,-127,8143,-1,-1,-1
-12.92,6.37,-0.91,920,-133,8154,-1,-1,-1
-12.92,6.37,-0.91,917,-129,8156,-1,-1,0
-12.92,6.37,-0.91,913,-134,8162,0,-1,-1
-12.92,6.38,-0.90,913,-126,8153,0,-1,-1
-12.92,6.38,-0.89,924,-126,8146,0,-1,-1
-12.92,6.39,-0.89,914,-123,8141,0,-1,0
-12.93,6.39,-0.89,909,-132,8143,-1,-1,-1
-12.93,6.39,-0.89,910,-135,8143,0,-1,-1
-12.93,6.39,-0.90,913,-129,8139,0,-1,-1
-12.93,6.40,-0.90,910,-132,8147,-1,-1,0
-12.93,6.41,-0.90,913,-136,8141,0,-1,0
-12.93,6.41,-0.90,917,-134,8135,0,-1,-1
-12.93,6.41,-0.90,923,-137,8138,-1,-1,0
-12.93,6.41,-0.90,918,-139,8136,-1,0,-1
-12.93,6.41,-0.90,917,-140,8128,0,-1,-1
-12.93,6.41,-0.90,922,-135,8133,-1,-1,-1
-12.93,6.42,-0.91,924,-136,8135,-1,-1,0
-12.93,6.43,-0.91,922,-134,8135,0,-1,-1
-12.93,6.43,-0.91,924,-134,8136,0,-1,0
-12.93,6.43,-0.91,919,-139,8138,-1,-1,0
-12.93,6.43,-0.91,927,-142,8146,0,-1,-1
-12.93,6.43,-0.91,922,-129,8149,0,-1,-1
-12.93,6.44,-0.90,927,-124,8150,-1,-1,0
-12.93,6.44,-0.90,928,-125,8138,-1,-1,-1
-12.93,6.45,-0.91,922,-126,8145,-1,-1,0
-12.94,6.45,-0.91,919,-139,8143,-1,-1,0
-12.94,6.45,-0.92,918,-147,8145,-1,-1,0
-12.94,6.45,-0.92,917,-155,8138,0,-1,0
-12.94,6.46,-0.92,933,-145,8139,0,-1,0
-12.94,6.46,-0.92,936,-144,8132,0,0,-1
-12.94,6.46,-0.92,936,-137,8133,0,0,-1
-12.94,6.46,-0.91,933,-139,8137,0,0,-1
-12.94,6.47,-0.91,932,-131,8137,0,-1,-1
-12.94,6.46,-0.91,919,-131,8139,-1,0,0
-12.94,6.47,-0.92,924,-142,8138,0,-1,-1
-12.94,6.47,-0.92,919,-143,8137,-1,-1,0
-12.94,6.47,-0.92,925,-146,8147,0,-1,-1
-12.94,6.48,-0.91,927,-136,8136,0,0,-1
-12.94,6.47,-0.91,924,-124,8145,-1,-1,0
-12.94,6.48,-0.91,926,-129,8145,-1,-1,0
-12.94,6.48,-0.91,933,-133,8137,-1,-1,0
-12.94,6.48,-0.92,931,-139,8137,-1,-1,0
-12.94,6.48,-0.92,933,-140,8142,0,-1,0
-12.94,6.48,-0.92,932,-140,8135,0,-1,0
-12.94,6.48,-0.92,927,-139,8124,-1,0,0
-12.94,6.49,-0.93,931,-147,8126,-1,-1,0
-12.94,6.49,-0.93,936,-145,8125,0,-1,0
-12.94,6.49,-0.93,934,-144,8130,-1,0,0
-12.94,6.49,-0.94,931,-135,8134,-1,0,0
-12.94,6.49,-0.94,927,-136,8138,-1,-1,0
-12.94,6.49,-0.94,924,-140,8135,0,-1,0
-12.94,6.49,-0.94,934,-137,8136,0,-1,0
-12.94,6.49,-0.94,930,-133,8138,0,-1,0
-12.94,6.49,-0.94,930,-135,8146,-1,0,0
-12.94,6.49,-0.94,928,-134,8142,-1,0,0
-12.94,6.49,-0.94,930,-142,8150,-1,-1,0
-12.95,6.49,-0.94,933,-145,8143,0,-1,0
-12.95,6.49,-0.94,927,-143,8141,0,-1,0
-12.95,6.50,-0.94,930,-135,8141,0,-1,0
-12.95,6.50,-0.94,937,-136,8123,-1,-1,0
-12.95,6.50,-0.94,932,-130,8132,-1,0,0
-12.95,6.50,-0.94,934,-130,8139,0,-1,0
-12.95,6.50,-0.94,929,-133,8132,0,-1,0
-12.95,6.50,-0.94,928,-137,8140,-1,0,0
-12.96,6.50,-0.95,925,-134,8141,-1,0,0
-12.96,6.50,-0.95,926,-139,8148,-1,-1,0
-12.96,6.50,-0.95,930,-139,8153,0,-1,-1
-12.95,6.50,-0.94,932,-126,8147,0,0,-1
-12.95,6.50,-0.94,938,-118,8145,0,0,-1
-12.95,6.50,-0.94,928,-126,8138,-1,-1,0
-12.95,6.50,-0.94,929,-144,8141,0,-1,-1
-12.95,6.50,-0.94,926,-147,8144,0,-1,-1
-12.95,6.50,-0.94,931,-143,8135,0,-1,-1
-12.95,6.50,-0.93,928,-129,8133,0,-1,-1
-12.95,6.50,-0.93,929,-130,8139,-1,-1,0
-12.95,6.50,-0.94,933,-138,8131,-1,0,0
-12.95,6.50,-0.94,927,-145,8133,0,0,-1
-12.95,6.50,-0.94,927,-149,8139,0,0,0
-12.95,6.50,-0.94,928,-150,8144,0,-1,-1
-12.95,6.50,-0.94,940,-143,8140,0,0,-1
-12.94,6.50,-0.93,945,-125,8136,0,0,-1
-12.94,6.50,-0.92,938,-117,8130,0,0,0
-12.94,6.49,-0.92,938,-114,8139,-1,0,0
-12.94,6.49,-0.93,928,-127,8149,-1,0,0
-12.94,6.49,-0.94,925,-142,8144,-1,-1,0
-12.94,6.49,-0.94,924,-148,8142,0,0,0
-12.94,6.49,-0.93,927,-141,8146,0,0,-1
-12.94,6.49,-0.93,928,-133,8151,0,0,-1
-12.94,6.49,-0.92,926,-128,8142,0,0,-1
-12.94,6.49,-0.92,927,-125,8148,0,0,-1
-12.94,6.48,-0.92,921,-127,8145,-1,-1,-1
-12.94,6.48,-0.93,926,-137,8139,0,0,-1
-12.94,6.48,-0.93,928,-139,8146,0,0,-1
-12.94,6.48,-0.93,936,-142,8154,0,-1,-1
-12.94,6.49,-0.93,940,-139,8151,0,0,-1
-12.94,6.49,-0.93,937,-139,8148,-1,0,-1
-12.94,6.48,-0.93,928,-134,8141,0,0,-1
-12.94,6.48,-0.92,936,-121,8138,-1,0,-1
-12.94,6.48,-0.92,938,-126,8141,-1,0,0
-12.94,6.48,-0.93,934,-124,8146,-1,0,-1
-12.94,6.47,-0.93,929,-134,8142,0,0,0
-12.94,6.47,-0.93,929,-142,8142,0,0,0
-12.94,6.47,-0.93,925,-142,8149,0,0,0
-12.94,6.47,-0.93,925,-135,8151,0,0,-1
-12.94,6.47,-0.92,923,-124,8140,0,0,0
-12.94,6.47,-0.92,921,-129,8129,-1,0,0
-12.94,6.47,-0.93,924,-130,8137,-1,0,0
-12.94,6.46,-0.92,919,-143,8143,0,0,0
-12.94,6.46,-0.92,927,-141,8140,0,0,-1
-12.94,6.46,-0.92,928,-133,8144,0,0,-1
-12.94,6.46,-0.92,932,-128,8143,0,0,0
-12.94,6.46,-0.92,933,-129,8143,-1,0,0
-12.94,6.45,-0.92,927,-132,8144,-1,0,-1
-12.94,6.45,-0.93,925,-135,8149,-1,0,0
-12.94,6.44,-0.93,919,-140,8153,0,0,0
-12.94,6.44,-0.94,920,-129,8138,-1,0,0
-12.94,6.44,-0.94,922,-136,8125,-1,0,0
-12.94,6.44,-0.94,920,-134,8139,0,0,-1
-12.94,6.44,-0.94,928,-137,8137,0,0,-1
-12.93,6.43,-0.94,919,-137,8146,0,0,0
-12.93,6.43,-0.94,928,-131,8135,-1,0,0
-12.93,6.43,-0.94,920,-122,8143,-1,0,0
-12.94,6.42,-0.94,914,-135,8141,0,0,0
-12.94,6.42,-0.94,916,-139,8139,0,0,0
-12.94,6.42,-0.94,917,-130,8134,0,0,-1
-12.93,6.41,-0.93,915,-116,8141,-1,0,0
-12.93,6.40,-0.94,919,-118,8149,-1,0,0
-12.94,6.39,-0.94,914,-120,8148,-1,0,0
-12.94,6.39,-0.94,916,-133,8157,-1,0,0
-12.94,6.38,-0.95,910,-142,8159,0,0,-1
-12.94,6.37,-0.95,911,-137,8154,0,0,-1
-12.93,6.37,-0.94,918,-135,8140,0,0,-1
-12.93,6.37,-0.94,921,-128,8136,0,0,0
-12.93,6.36,-0.94,922,-120,8140,-1,0,-1
-12.93,6.35,-0.94,915,-123,8149,-1,0,0
-12.93,6.34,-0.95,903,-130,8143,-1,0,0
-12.93,6.34,-0.95,902,-136,8134,0,0,-1
-12.93,6.33,-0.95,907,-141,8137,0,0,0
-12.93,6.32,-0.95,899,-144,8141,0,0,0
-12.94,6.32,-0.95,908,-150,8150,-1,0,0
-12.94,6.32,-0.95,904,-142,8150,0,0,0
-12.94,6.31,-0.95,906,-137,8143,0,0,0
-12.94,6.30,-0.95,903,-131,8146,-1,0,0
-12.94,6.30,-0.95,912,-129,8146,-1,0,0
-12.94,6.29,-0.96,906,-131,8144,-1,0,0
-12.94,6.29,-0.95,901,-136,8143,-1,0,0
-12.94,6.28,-0.96,903,-141,8148,-1,0,0
-12.94,6.27,-0.97,900,-142,-1,0,0,0
-12.94,6.26,-0.97,899,-141,8140,0,0,0
-12.94,6.26,-0.96,893,-127,8145,-1,0,-1
-12.94,6.24,-0.96,896,-125,8146,-1,0,-1
-12.94,6.24,-0.96,893,-135,8143,-1,0,0
-12.94,6.24,-0.97,888,-140,8147,-1,0,-1
-12.94,6.23,-0.97,890,-144,8146,0,0,-1
-12.93,6.22,-0.96,884,-144,8150,0,0,-1
-12.93,6.22,-0.95,880,-127,8153,0,0,-1
-12.92,6.22,-0.95,885,-122,8149,0,0,-1
-12.92,6.21,-0.95,886,-126,8146,0,0,-1
-12.92,6.22,-0.95,887,-135,8137,0,-1,-1
-12.92,6.22,-0.95,883,-135,8133,0,-1,-1
-12.92,6.22,-0.94,885,-125,8131,0,-1,-1
-12.92,6.23,-0.93,896,-139,8132,0,-1,-1
-12.92,6.23,-0.93,895,-137,8123,0,-1,-1
-12.92,6.23,-0.93,893,-136,8130,-1,-1,-1
-12.92,6.23,-0.94,888,-143,8143,0,-1,-1
-12.92,6.24,-0.93,892,-140,8142,0,-1,-1
-12.92,6.25,-0.93,892,-134,8159,-1,-1,-1
-12.92,6.25,-0.94,897,-136,8149,0,-1,0
-12.92,6.26,-0.94,902,-137,8138,0,-1,-1
-12.92,6.27,-0.94,904,-142,8129,0,-1,-1
-12.92,6.28,-0.93,909,-139,8134,0,-1,-1
-12.91,6.28,-0.92,902,-129,8146,0,-1,0
-12.92,6.28,-0.92,900,-125,8148,-1,-1,0
-12.92,6.28,-0.92,900,-133,8152,-1,-1,0
-12.92,6.29,-0.93,904,-129,8144,0,-1,0
-12.92,6.30,-0.92,901,-126,8140,0,-1,0
-12.92,6.30,-0.92,904,-126,8145,-1,-1,0
-12.92,6.31,-0.92,908,-126,8146,-1,-1,0
-12.92,6.31,-0.92,906,-121,8158,-1,-1,0
-12.92,6.31,-0.93,899,-129,8164,-1,-1,0
-12.92,6.32,-0.93,899,-141,8155,-1,-1,0
-12.92,6.32,-0.93,903,-149,8152,0,-1,0
-12.93,6.33,-0.93,908,-144,8145,0,-1,0
-12.93,6.34,-0.93,920,-133,8137,0,-1,0
-12.93,6.34,-0.92,915,-124,8140,0,-1,0
-12.93,6.35,-0.93,912,-117,8141,-1,-1,0
-12.93,6.35,-0.93,910,-126,8141,-1,-1,0
-12.93,6.35,-0.93,1022,-258,-258,-1,-1,0
-12.93,6.36,-0.93,911,-140,8153,0,-1,0
-12.92,6.37,-0.93,907,-136,8151,0,-1,-1
-12.93,6.37,-0.92,917,-129,8148,0,-1,0
-12.93,6.38,-0.92,911,-126,8137,0,-1,0
-12.93,6.38,-0.92,908,-119,8138,0,-1,0
-12.93,6.38,-0.92,914,-128,8136,-1,-1,0
-12.93,6.39,-0.92,909,-129,8147,0,-1,0
-12.93,6.40,-0.92,910,-127,8142,0,-1,-1
-12.93,6.40,-0.92,906,-127,8148,-1,-1,0
-12.93,6.41,-0.93,921,-132,8134,-1,-1,0
-12.93,6.42,-0.93,926,-139,8142,-1,-1,0
-12.93,6.42,-0.93,928,-140,8141,0,-1,0
-12.93,6.42,-0.93,923,-141,8142,0,-1,0
-12.93,6.42,-0.93,930,-133,8147,0,-1,0
-12.93,6.42,-0.93,923,-134,8154,-1,-1,0
-12.93,6.43,-0.94,919,-132,8151,-1,-1,0
-12.93,6.43,-0.94,925,-135,8145,0,-1,-1
-12.93,6.44,-0.94,930,-135,8139,0,-1,0
-12.94,6.44,-0.93,928,-137,8138,0,-1,0
-12.94,6.44,-0.93,927,-131,8147,0,-1,0
-12.94,6.44,-0.93,921,-126,8143,-1,-1,0
-12.94,6.45,-0.93,921,-122,8146,-1,-1,0
-12.94,6.46,-0.93,927,-125,8145,-1,-1,0
-12.94,6.47,-0.93,931,-132,8133,-1,-1,0
-12.94,6.48,-0.94,934,-135,8126,-1,-1,0
-12.94,6.48,-0.93,935,-133,8132,0,0,-1
-12.94,6.48,-0.94,934,-131,8138,-1,0,0
-12.94,6.48,-0.94,937,-125,8142,-1,0,0
-12.94,6.47,-0.95,941,-121,8138,-1,0,0
-12.94,6.46,-0.97,927,-131,8143,-1,0,0
-12.94,6.47,-0.98,920,-153,8148,0,-1,0
-12.94,6.47,-0.98,940,-136,8142,-1,0,0
-12.94,6.46,-1.00,936,-131,8125,-1,0,0
-12.94,6.44,-0.99,936,-161,8112,1,1,-1
-12.95,6.44,-0.94,882,-200,8182,2,-2,0
-12.95,6.49,-0.89,930,-165,8184,1,-2,-1
-12.95,6.52,-0.88,930,-128,8135,0,-1,0
-12.95,6.54,-0.86,948,-94,8110,0,-1,0
-12.96,6.54,-0.86,954,-69,8113,-1,0,0
-12.96,6.53,-0.88,938,-82,8142,-1,0,0
-12.96,6.53,-0.90,932,-105,8157,-1,-1,0
-12.97,6.52,-0.91,934,-118,8141,-1,0,0
-12.97,6.52,-0.93,925,-147,8134,-1,-1,0
-12.96,6.52,-0.93,934,-154,8137,0,-1,-1
-12.96,6.53,-0.93,945,-147,8129,0,0,-1
-12.96,6.52,-0.92,939,-124,8127,0,0,-1
-12.96,6.52,-0.92,941,-115,8131,-1,0,-1
-12.96,6.52,-0.93,936,-120,8132,-1,0,0
-12.96,6.52,-0.93,934,-126,8133,-1,0,0
-12.96,6.51,-0.93,933,-135,8145,-1,-1,0
-12.96,6.51,-0.93,933,-139,8150,0,-1,0
-12.96,6.52,-0.93,930,-135,8141,0,0,-1
-12.96,6.52,-0.93,930,-127,8138,0,0,0
-12.96,6.52,-0.92,928,-121,8146,0,0,0
-12.96,6.51,-0.92,928,-121,8142,-1,0,0
-12.96,6.52,-0.92,928,-132,8151,-1,-1,0
-12.96,6.52,-0.93,926,-137,8150,0,-1,0
-12.96,6.52,-0.93,931,-139,8137,-1,-1,-1
-12.96,6.52,-0.93,934,-142,8131,0,0,0
-12.96,6.52,-0.93,943,-136,8129,0,0,-1
-12.96,6.52,-0.93,941,-125,8131,0,0,-1
-12.96,6.52,-0.93,937,-129,8134,-1,0,0
-12.96,6.52,-0.93,930,-135,8133,-1,-1,0
-12.96,6.51,-0.93,925,-141,8154,0,-1,-1
-12.95,6.51,-0.93,932,-133,8142,-1,0,0
-12.96,6.51,-0.93,933,-144,8143,0,-1,0
-12.95,6.51,-0.93,937,-146,8142,0,0,-1
-12.96,6.52,-0.93,927,-133,8147,0,-1,0
-12.96,6.52,-0.92,935,-118,8148,0,-1,0
-12.95,6.52,-0.92,933,-116,8144,0,0,-1
-12.95,6.52,-0.92,925,-122,8138,0,-1,-1
-12.95,6.52,-0.92,931,-134,8139,0,-1,0
-12.95,6.52,-0.91,940,-139,8144,0,-1,-1
-12.95,6.53,-0.91,944,-126,8147,0,0,0
-12.95,6.53,-0.90,944,-115,8145,0,0,0
-12.95,6.52,-0.90,936,-123,8145,-1,0,0
-12.95,6.52,-0.90,934,-132,8145,-1,0,-1
-12.95,6.52,-0.91,926,-131,8149,-1,-1,0
-12.95,6.52,-0.91,934,-131,8151,-1,0,0
-12.95,6.52,-0.92,938,-133,8142,-1,0,-1
-12.95,6.52,-0.92,944,-146,8136,0,0,-1
-12.95,6.51,-0.91,928,-126,8133,0,0,-1
-12.95,6.50,-0.90,927,-107,8142,0,-1,0
-12.95,6.50,-0.90,931,-101,8136,-1,-1,0
-12.95,6.51,-0.90,933,-110,8134,-1,0,0
-12.95,6.50,-0.91,933,-131,8144,-1,0,0
-12.95,6.50,-0.92,927,-138,8144,-1,0,0
-12.95,6.50,-0.92,929,-140,8146,0,-1,0
-12.95,6.50,-0.91,939,-133,8144,0,0,0
-12.95,6.50,-0.91,946,-141,8123,0,0,-1
-12.95,6.50,-0.91,935,-130,8112,-1,0,0
-12.95,6.50,-0.91,925,-125,8133,-1,0,-1
-12.95,6.50,-0.92,929,-123,8139,-1,0,-1
-12.95,6.49,-0.91,925,-115,8149,-1,0,0
-12.94,6.49,-0.92,929,-130,8138,-1,0,0
-12.94,6.49,-0.93,931,-137,8135,-1,0,0
-12.95,6.49,-0.93,927,-142,8144,-1,0,0
-12.95,6.48,-0.93,935,-144,8140,-1,0,0
-12.95,6.47,-0.93,929,-124,8142,0,0,0
-12.95,6.47,-0.93,927,-119,8144,-1,0,0
-12.95,6.47,-0.93,925,-127,8149,-1,0,0
-12.95,6.47,-0.94,929,-139,8143,-1,0,0
-12.96,6.46,-0.95,927,-145,8136,-1,0,0
-12.96,6.46,-0.95,928,-143,8141,-1,0,0
-12.96,6.46,-0.95,927,-142,8142,-1,0,0
-12.96,6.46,-0.95,928,-148,8133,-1,0,-1
-12.96,6.46,-0.95,931,-134,8135,0,0,0
-12.96,6.45,-0.95,936,-129,8136,-1,0,-1
-12.95,6.44,-0.95,932,-127,8138,-1,0,-1
-12.95,6.43,-0.96,920,-133,8136,-1,0,0
-12.95,6.43,-0.96,926,-138,8139,-1,0,-1
-12.95,6.43,-0.96,932,-137,8152,-1,0,0
-12.95,6.42,-0.96,924,-137,8146,-1,0,0
-12.95,6.41,-0.96,922,-131,8138,-1,0,0
-12.95,6.41,-0.96,918,-128,8139,-1,0,0
-12.95,6.41,-0.96,921,-130,8145,0,0,-1
-12.95,6.40,-0.96,913,-129,8154,-1,0,0
-12.95,6.40,-0.97,912,-135,8148,-1,0,0
-12.95,6.40,-0.97,924,-140,8154,0,0,-1
-12.95,6.39,-0.97,919,-141,8143,0,0,0
-12.95,6.39,-0.97,920,-147,8138,0,0,-1
-12.95,6.38,-0.97,921,-136,8131,0,0,0
-12.95,6.38,-0.97,920,-141,8139,-1,0,0
-12.94,6.38,-0.97,915,-143,8143,-1,0,0
-12.94,6.38,-0.97,916,-147,8137,-1,0,0
-12.94,6.37,-0.98,914,-138,8142,-1,0,0
-12.94,6.36,-0.98,908,-144,8142,0,0,-1
-12.94,6.35,-0.98,916,-143,8139,0,0,-1
-12.94,6.35,-0.98,919,-142,8138,-1,0,-1
-12.94,6.34,-0.98,917,-143,8131,-1,0,0
-12.94,6.34,-0.98,910,-133,8139,-1,0,0
-12.94,6.33,-0.98,913,-142,8148,-1,0,-1
-12.94,6.33,-0.99,908,-145,8150,0,0,-1
-12.94,6.32,-0.98,904,-142,8148,0,0,-1
-12.94,6.32,-0.98,903,-130,8145,0,0,-1
-12.94,6.31,-0.98,905,-132,8134,-1,0,-1
-12.94,6.31,-0.98,898,-139,8129,-1,0,0
-12.94,6.30,-0.98,896,-152,8138,-1,0,0
-12.94,6.30,-0.99,896,-159,8150,0,-1,-1
-12.94,6.30,-0.98,892,-142,8145,0,-1,-1
-12.94,6.30,-0.98,896,-142,8149,0,-1,-1
-12.93,6.31,-0.97,906,-139,8144,0,-1,-1
-12.93,6.31,-0.96,906,-122,8135,0,-1,-1
-12.93,6.31,-0.96,907,-125,8143,-1,0,-1
-12.93,6.31,-0.96,902,-131,8150,-1,0,-1
-12.92,6.31,-0.96,896,-137,8150,0,-1,-1
-12.92,6.31,-0.96,898,-139,8149,0,-1,-1
-12.92,6.31,-0.96,899,-135,8148,0,-1,-1
-12.92,6.32,-0.95,904,-134,8146,0,-1,0
-12.92,6.32,-0.95,905,-128,8142,0,-1,0
-12.93,6.32,-0.94,904,-125,8143,-1,-1,0
