Yaw,Pitch,Roll,AX,AY,AZ,GX,GY,GZ
-161.95,4.23,-27.49,586,-3791,7318,-1,-1,0
-161.96,4.22,-27.50,586,-3804,7313,-1,-1,0
-161.96,4.23,-27.52,585,-3813,7314,-1,-1,-1
-161.96,4.23,-27.53,599,-3823,7307,-1,-1,-1
-161.96,4.24,-27.54,610,-3833,7305,-1,-1,-1
-161.96,4.24,-27.54,615,-3830,7301,0,0,-1
-161.96,4.25,-27.54,616,-3833,7307,0,-1,0
-161.96,4.25,-27.53,616,-3826,7304,0,0,0
-161.96,4.24,-27.51,609,-3811,7315,0,0,0
-161.96,4.24,-27.51,608,-3799,7330,-1,-1,0
-161.96,4.24,-27.51,602,-3794,7325,-1,-1,0
-161.96,4.25,-27.52,600,-3803,7324,-1,-1,0
-161.96,4.25,-27.53,602,-3813,7317,-1,-1,0
-161.96,4.25,-27.54,612,-3815,7310,-1,-1,0
-161.96,4.26,-27.54,617,-3827,7305,-1,-1,0
-161.96,4.25,-27.55,609,-3837,7310,0,0,-1
-161.96,4.25,-27.54,606,-3829,7304,0,0,-1
-161.97,4.25,-27.54,601,-3815,7314,0,0,-1
-161.97,4.25,-27.53,601,-3813,7314,0,-1,-1
-161.96,4.25,-27.52,608,-3810,7320,0,-1,-1
-161.96,4.25,-27.51,609,-3808,7317,0,-1,-1
-161.96,4.25,-27.51,606,-3806,7328,0,-1,-1
-161.95,4.26,-27.51,608,-3806,7318,0,-1,-1
-161.95,4.26,-27.51,615,-3809,7314,0,-1,-1
-161.95,4.26,-27.51,608,-3814,7306,0,-1,-1
-161.95,4.26,-27.50,606,-3816,7303,0,-1,0
-161.95,4.26,-27.50,606,-3821,7306,0,0,-1
-161.95,4.26,-27.49,614,-3809,7309,0,-1,-1
-161.94,4.26,-27.48,607,-3804,7312,0,-1,-1
-161.94,4.27,-27.48,607,-3802,7308,0,-1,-1
-161.94,4.27,-27.48,613,-3794,7301,0,0,-1
-161.94,4.27,-27.47,612,-3790,7315,0,-1,-1
-161.93,4.27,-27.46,621,-3795,7320,0,-1,0
-161.93,4.27,-27.46,627,-3803,7324,0,0,-1
-161.93,4.27,-27.46,620,-3805,7329,-1,0,0
-161.94,4.27,-27.46,613,-3796,7315,-1,0,-1
-161.94,4.27,-27.46,608,-3800,7314,-1,-1,0
-161.94,4.27,-27.46,614,-3794,7315,0,0,0
-161.94,4.27,-27.45,608,-3794,7320,0,0,0
-161.94,4.27,-27.45,599,-3799,7322,0,-1,0
-161.94,4.27,-27.45,611,-3798,7322,0,0,-1
-161.94,4.26,-27.45,613,-3802,7309,0,-1,-1
-161.93,4.27,-27.44,608,-3797,7311,0,-1,-1
-161.93,4.27,-27.44,601,-3796,7319,0,-1,-1
-161.93,4.27,-27.43,610,-3801,7321,0,-1,-1
-161.93,4.27,-27.43,614,-3800,7322,0,-1,0
-161.93,4.27,-27.43,608,-3806,7323,0,0,0
-161.93,4.27,-27.43,616,-3798,7312,0,0,-1
-161.93,4.27,-27.43,615,-3796,7315,-1,0,0
-161.93,4.27,-27.43,613,-3802,7309,-1,0,0
-161.94,4.26,-27.44,608,-3802,7314,-1,-1,-1
-161.93,4.27,-27.43,607,-3803,7306,0,-1,0
-161.93,4.27,-27.43,609,-3815,7320,0,-1,-1
-161.92,4.28,-27.42,614,-3808,7335,0,-1,-1
-161.92,4.27,-27.41,619,-3793,7330,0,0,-1
-161.92,4.27,-27.41,618,-3786,7319,-1,0,0
-161.92,4.27,-27.41,623,-3781,7314,-1,0,0
-161.93,4.27,-27.41,608,-3784,7324,-1,0,0
-161.93,4.26,-27.42,594,-3787,7314,-1,0,0
-161.93,4.26,-27.43,591,-3800,7311,-1,-1,-1
-161.93,4.26,-27.43,594,-3811,7314,-1,-1,-1
-161.93,4.26,-27.44,602,-3817,7303,0,-1,-1
-161.93,4.26,-27.44,614,-3818,7302,0,-1,-1
-161.93,4.27,-27.44,619,-3812,7299,0,0,-1
-161.93,4.26,-27.43,622,-3808,7306,0,0,0
-161.93,4.26,-27.42,618,-3793,7309,0,0,0
-161.92,4.26,-27.41,613,-3789,7313,0,0,0
-161.93,4.25,-27.40,611,-3783,7320,0,0,0
-161.93,4.25,-27.41,609,-3784,7322,-1,-1,0
-161.93,4.25,-27.41,603,-3791,7322,-1,-1,0
-161.93,4.25,-27.41,602,-3796,7319,-1,-1,-1
-161.93,4.25,-27.42,611,-3809,7318,-1,0,0
-161.93,4.25,-27.42,606,-3810,7312,-1,0,0
-161.93,4.24,-27.43,606,-3816,7304,0,0,-1
-161.93,4.24,-27.43,608,-3812,7307,0,0,0
-161.93,4.23,-27.42,608,-3803,7308,-1,0,-1
-161.93,4.23,-27.42,602,-3793,7318,-1,0,-1
-161.93,4.23,-27.42,603,-3793,7312,-1,-1,0
-161.93,4.24,-27.43,612,-3805,7307,-1,0,-1
-161.93,4.24,-27.43,610,-3805,7311,0,0,0
-161.94,4.23,-27.43,602,-3807,7317,-1,0,0
-161.94,4.23,-27.43,610,-3808,7315,-1,0,-1
-161.94,4.23,-27.43,609,-3801,7311,0,0,0
-161.94,4.23,-27.43,609,-3804,7306,0,0,0
-161.94,4.22,-27.43,614,-3799,7321,0,0,0
-161.93,4.22,-27.43,607,-3800,7312,-1,0,0
-161.93,4.22,-27.43,605,-3795,7316,0,0,0
-161.93,4.21,-27.43,599,-3797,7328,-1,0,0
-161.94,4.20,-27.43,599,-3800,7321,-1,0,0
-161.94,4.20,-27.43,605,-3797,7318,-1,0,-1
-161.94,4.20,-27.43,600,-3805,7322,-1,0,0
-161.94,4.20,-27.44,603,-3803,7313,-1,0,0
-161.94,4.20,-27.44,604,-3806,7316,-1,0,0
-161.94,4.19,-27.44,600,-3805,7327,0,0,0
-161.94,4.19,-27.44,600,-3806,7328,-1,0,0
-161.94,4.18,-27.44,601,-3810,7311,-1,0,0
-161.94,4.18,-27.44,600,-3808,7301,-1,0,0
-161.94,4.18,-27.44,606,-3813,7307,-1,0,0
-161.93,4.18,-27.44,610,-3806,7320,-1,0,-1
-161.94,4.18,-27.45,605,-3800,7307,-1,0,0
-161.94,4.18,-27.45,601,-3803,7307,-1,-1,0
-161.94,4.18,-27.45,597,-3809,7331,-1,-1,0
-161.94,4.18,-27.46,593,-3809,7336,-1,0,0
-161.94,4.18,-27.46,589,-3810,7329,-1,-1,-1
-161.94,4.18,-27.46,597,-3803,7321,0,-1,-1
-161.94,4.19,-27.46,603,-3806,7316,0,-1,-1
-161.94,4.19,-27.46,613,-3803,7323,0,-1,-1
-161.94,4.19,-27.45,618,-3805,7323,0,-1,0
-161.94,4.19,-27.45,619,-3795,7327,-1,0,0
-161.94,4.19,-27.45,606,-3799,7318,-1,0,0
-161.94,4.19,-27.46,593,-3796,7303,-1,0,0
-161.94,4.19,-27.47,587,-3801,7302,-1,-1,0
-161.95,4.19,-27.47,588,-3808,7303,-1,-1,-1
-161.94,4.19,-27.46,594,-3812,7302,0,-1,-1
-161.94,4.20,-27.46,608,-3815,7305,0,-1,-1
-161.94,4.21,-27.46,619,-3812,7311,0,0,-1
-161.94,4.21,-27.46,622,-3809,7307,0,0,0
-161.94,4.21,-27.46,615,-3809,7312,0,-1,0
-161.94,4.21,-27.45,607,-3800,7323,0,0,0
-161.94,4.20,-27.44,598,-3793,7325,0,0,0
-161.94,4.20,-27.44,596,-3797,7322,-1,-1,0
-161.94,4.20,-27.45,596,-3806,7317,-1,-1,-1
-161.94,4.21,-27.45,597,-3812,7328,-1,-1,-1
-161.94,4.21,-27.46,605,-3818,7327,-1,-1,0
-161.94,4.21,-27.46,598,-3811,7314,-1,0,0
-161.94,4.21,-27.46,600,-3812,7319,0,0,0
-161.94,4.21,-27.45,601,-3804,7306,0,-1,0
-161.94,4.20,-27.45,599,-3809,7315,0,-1,-1
-161.94,4.21,-27.44,598,-3797,7320,0,-1,0
-161.94,4.21,-27.44,598,-3794,7329,-1,-1,-1
-161.94,4.22,-27.44,606,-3801,7318,-1,-1,-1
-161.94,4.23,-27.44,619,-3797,7316,0,-1,-1
-161.94,4.23,-27.44,621,-3794,7321,-1,-1,0
-161.94,4.23,-27.44,621,-3801,7315,-1,0,0
-161.94,4.23,-27.45,611,-3808,7323,0,0,0
-161.94,4.23,-27.45,609,-3807,7307,0,0,0
-161.94,4.23,-27.45,605,-3804,7310,0,-1,0
-161.93,4.24,-27.44,611,-3800,7320,0,-1,0
-161.93,4.24,-27.44,609,-3798,7326,-1,-1,0
-161.93,4.24,-27.44,603,-3798,7326,0,-1,-1
-161.94,4.24,-27.44,612,-3794,7322,0,0,0
-161.94,4.24,-27.44,609,-3791,7321,0,0,-1
-161.93,4.24,-27.44,611,-3787,7314,-1,-1,0
-161.94,4.24,-27.44,609,-3790,7310,-1,-1,0
-161.94,4.24,-27.44,612,-3799,7314,-1,-1,0
-161.94,4.24,-27.44,607,-3795,7318,-1,-1,0
-161.94,4.24,-27.44,611,-3801,7327,-1,0,0
-161.94,4.24,-27.44,615,-3806,7318,0,-1,0
-161.94,4.24,-27.44,617,-3806,7317,0,0,-1
-161.94,4.24,-27.44,618,-3806,7317,0,-1,-1
-161.94,4.25,-27.43,624,-3800,7315,0,0,-1
-161.94,4.25,-27.43,627,-3795,7322,-1,0,0
-161.94,4.25,-27.43,609,-3789,7303,-1,-1,0
-161.95,4.25,-27.44,605,-3800,7296,0,-1,0
-161.94,4.25,-27.43,611,-3806,7316,0,-1,0
-161.94,4.25,-27.43,612,-3801,7326,0,-1,-1
-161.94,4.25,-27.43,612,-3792,7325,-1,-1,-1
-161.94,4.25,-27.43,625,-3786,7322,-1,0,0
-161.94,4.25,-27.43,623,-3780,7328,-1,0,0
-161.95,4.25,-27.44,611,-3788,7316,-1,0,0
-161.95,4.25,-27.44,604,-3791,7312,-1,-1,0
-161.95,4.25,-27.45,602,-3806,7305,-1,-1,0
-161.95,4.25,-27.46,598,-3814,7300,-1,-1,-1
-161.94,4.26,-27.45,608,-3817,7307,0,-1,-1
-161.94,4.26,-27.45,615,-3815,7303,0,-1,-1
-161.94,4.26,-27.45,621,-3814,7300,0,0,0
-161.94,4.26,-27.45,622,-3799,7311,0,0,0
-161.94,4.26,-27.44,624,-3790,7325,0,0,0
-161.95,4.25,-27.43,626,-3781,7339,-1,0,0
-161.95,4.25,-27.44,607,-3790,7328,-1,0,0
-161.95,4.25,-27.45,600,-3800,7317,-1,0,0
-161.96,4.24,-27.45,599,-3792,7316,-1,0,0
-161.96,4.24,-27.46,598,-3802,7316,-1,-1,0
-161.96,4.24,-27.46,600,-3807,7316,-1,-1,0
-161.96,4.24,-27.46,605,-3801,7310,0,0,0
-161.96,4.24,-27.46,610,-3800,7311,0,0,0
-161.96,4.24,-27.46,605,-3800,7314,0,0,0
-161.97,4.23,-27.46,602,-3797,7315,-1,-1,0
-161.97,4.24,-27.46,598,-3802,7312,0,-1,0
-161.97,4.24,-27.46,609,-3799,7321,-1,-1,0
-161.97,4.25,-27.46,611,-3794,7314,-1,0,0
-161.97,4.25,-27.46,612,-3787,7311,-1,0,0
-161.98,4.24,-27.47,608,-3791,7303,-1,0,0
-161.98,4.24,-27.47,604,-3806,7305,-1,0,0
-161.98,4.24,-27.48,611,-3805,7305,-1,-1,0
-161.98,4.24,-27.49,602,-3806,7306,-1,0,0
-161.98,4.24,-27.49,597,-3817,7305,-1,-1,0
-161.99,4.23,-27.50,602,-3816,7305,0,0,-1
-161.99,4.23,-27.50,605,-3808,7303,-1,0,0
-161.99,4.23,-27.50,615,-3806,7308,-1,-1,0
-161.99,4.23,-27.50,614,-3799,7311,-1,0,0
-162.00,4.23,-27.51,611,-3805,7315,-1,0,0
-162.01,4.23,-27.52,603,-3808,7312,-1,0,0
-162.01,4.22,-27.53,601,-3811,7294,-1,0,0
-162.02,4.21,-27.53,598,-3811,7301,-1,0,0
-162.02,4.21,-27.53,602,-3802,7297,-1,0,0
-162.02,4.21,-27.54,604,-3804,7297,-1,0,0
-162.03,4.20,-27.55,604,-3800,7307,-1,0,0
-162.04,4.19,-27.55,599,-3806,7313,-1,0,0
-162.04,4.19,-27.56,606,-3817,7317,-1,0,0
-162.05,4.18,-27.56,603,-3816,7307,-1,0,0
-162.05,4.18,-27.56,601,-3809,7314,0,0,0
-162.05,4.18,-27.56,611,-3808,7306,-1,0,0
-162.05,4.18,-27.56,609,-3809,7319,-1,0,0
-162.06,4.18,-27.56,607,-3809,7317,-1,-1,0
-162.06,4.18,-27.57,598,-3807,7328,-1,-1,0
-162.06,4.18,-27.58,603,-3810,7322,-1,-1,0
-162.06,4.19,-27.58,598,-3815,7310,-1,-1,0
-162.06,4.19,-27.59,596,-3813,7299,-1,-1,-1
-162.06,4.20,-27.59,599,-3820,7293,-1,-1,-1
-162.06,4.21,-27.59,612,-3827,7302,0,-1,-1
-162.05,4.21,-27.58,616,-3822,7312,0,-1,-1
-162.05,4.22,-27.58,613,-3829,7324,0,0,-1
-162.04,4.21,-27.58,607,-3815,7327,0,0,-1
-162.04,4.21,-27.57,599,-3799,7322,-1,0,-1
-162.04,4.21,-27.58,587,-3807,7312,-1,0,-1
-162.04,4.21,-27.59,590,-3814,7302,-1,0,-1
-162.04,4.21,-27.59,599,-3825,7304,0,-1,-1
-162.03,4.22,-27.59,603,-3830,7319,0,-1,-1
-162.03,4.22,-27.58,608,-3836,7314,0,-1,-1
-162.03,4.22,-27.58,613,-3828,7307,0,-1,-1
-162.02,4.23,-27.56,615,-3825,7295,0,-1,-1
-162.02,4.23,-27.55,620,-3820,7294,0,0,-1
-162.02,4.23,-27.53,612,-3810,7308,0,0,-1
-162.02,4.23,-27.53,615,-3807,7312,0,0,-1
-162.02,4.22,-27.52,612,-3802,7318,0,0,-1
-162.01,4.22,-27.51,607,-3807,7320,-1,-1,-1
-162.02,4.22,-27.52,604,-3814,7327,-1,-1,0
-162.02,4.22,-27.52,606,-3814,7329,0,-1,-1
-162.01,4.23,-27.52,605,-3817,7325,0,-1,-1
-162.01,4.23,-27.51,610,-3817,7313,0,-1,-1
-162.00,4.24,-27.50,605,-3814,7313,0,-1,-1
-162.00,4.24,-27.49,615,-3813,7312,0,-1,-1
-162.00,4.24,-27.49,617,-3809,7319,0,0,-1
-161.99,4.24,-27.47,619,-3793,7321,0,-1,-1
-161.99,4.25,-27.46,616,-3785,7313,0,-1,-1
-161.99,4.25,-27.46,618,-3794,7322,0,-1,0
-161.99,4.25,-27.46,617,-3795,7319,-1,0,-1
-161.99,4.25,-27.46,608,-3797,7315,0,0,-1
-161.99,4.25,-27.46,611,-3799,7316,0,0,-1
-161.99,4.24,-27.46,608,-3810,7324,0,0,-1
-161.99,4.24,-27.45,606,-3808,7327,0,0,-1
-161.98,4.24,-27.45,604,-3809,7319,0,-1,-1
-161.98,4.24,-27.45,602,-3810,7318,0,0,-1
-161.98,4.24,-27.44,612,-3803,7310,0,0,-1
-161.97,4.24,-27.44,614,-3801,7304,0,0,-1
-161.97,4.24,-27.44,615,-3796,7303,0,0,-1
-161.97,4.24,-27.44,615,-3794,7314,0,0,-1
-161.97,4.24,-27.44,612,-3794,7314,-1,0,0
-161.97,4.24,-27.43,613,-3802,7321,0,0,-1
-161.97,4.24,-27.44,610,-3790,7314,-1,0,0
-161.97,4.24,-27.44,609,-3797,7317,-1,0,0
-161.97,4.24,-27.44,615,-3804,7311,0,0,0
-161.97,4.24,-27.44,611,-3796,7305,0,0,0
-161.97,4.23,-27.44,601,-3796,7310,0,0,-1
-161.97,4.22,-27.44,610,-3795,7318,0,0,0
-161.97,4.22,-27.43,602,-3790,7320,-1,0,0
-161.97,4.21,-27.43,595,-3785,7325,-1,0,0
-161.97,4.21,-27.43,599,-3797,7318,-1,-1,0
-161.97,4.21,-27.44,600,-3799,7309,-1,-1,0
-161.97,4.21,-27.44,605,-3798,7308,-1,0,0
-161.97,4.21,-27.44,610,-3802,7310,-1,0,-1
-161.97,4.22,-27.45,611,-3802,7317,-1,0,0
-161.97,4.21,-27.45,600,-3802,7307,-1,0,0
-161.97,4.21,-27.45,597,-3818,7310,0,-1,-1
-161.97,4.21,-27.44,601,-3811,7312,0,-1,0
-161.97,4.21,-27.44,601,-3797,7313,0,-1,-1
-161.97,4.22,-27.43,612,-3796,7317,0,-1,-1
-161.97,4.22,-27.43,617,-3793,7316,0,0,-1
-161.97,4.21,-27.43,620,-3790,7325,-1,0,0
-161.97,4.21,-27.43,609,-3780,7321,-1,0,0
-161.97,4.21,-27.44,599,-3793,7320,-1,0,0
-161.98,4.20,-27.45,590,-3801,7316,-1,0,0
-161.98,4.20,-27.46,598,-3810,7312,-1,-1,-1
-161.98,4.21,-27.46,601,-3808,7314,-1,-1,-1
-161.97,4.21,-27.46,603,-3804,7308,-1,-1,-1
-161.97,4.21,-27.46,611,-3803,7312,0,-1,-1
-161.97,4.21,-27.46,623,-3809,7324,0,0,0
-161.97,4.21,-27.46,630,-3797,7328,0,0,0
-161.98,4.20,-27.45,612,-3786,7327,-1,0,0
-161.98,4.20,-27.45,606,-3789,7330,-1,0,0
-161.98,4.19,-27.45,601,-3799,7330,-1,0,0
-161.98,4.19,-27.45,598,-3799,7332,-1,-1,0
-161.98,4.19,-27.46,598,-3804,7324,-1,-1,0
-161.98,4.19,-27.46,600,-3806,7322,-1,-1,0
-161.98,4.19,-27.46,605,-3805,7321,-1,0,0
-161.98,4.19,-27.46,605,-3803,7319,-1,0,0
-161.98,4.18,-27.47,598,-3803,7312,0,-1,0
-161.98,4.18,-27.47,594,-3814,7317,0,0,-1
-161.98,4.18,-27.46,594,-3812,7321,0,0,0
-161.98,4.18,-27.46,590,-3802,7326,-1,-1,-1
-161.99,4.18,-27.47,594,-3802,7322,-1,-1,-1
-161.99,4.18,-27.47,598,-3804,7320,-1,0,0
-161.99,4.18,-27.47,600,-3795,7315,-1,0,0
-161.99,4.18,-27.47,602,-3797,7314,-1,0,0
-161.99,4.17,-27.48,596,-3800,7308,-1,0,0
-161.99,4.16,-27.48,588,-3800,7306,-1,0,0
-161.99,4.16,-27.48,585,-3808,7310,0,0,0
-161.99,4.16,-27.48,587,-3806,7311,-1,-1,0
-161.99,4.16,-27.48,590,-3813,7315,-1,-1,-1
-161.99,4.16,-27.48,591,-3804,7318,-1,-1,-1
-161.99,4.16,-27.48,604,-3804,7324,0,-1,0
-161.99,4.16,-27.48,602,-3799,7323,-1,0,0
-161.99,4.16,-27.48,604,-3804,7324,0,0,0
-161.99,4.17,-27.47,610,-3794,7314,0,0,-1
-161.99,4.17,-27.47,601,-3798,7324,0,-1,0
-161.99,4.17,-27.47,598,-3800,7329,0,-1,0
-161.99,4.18,-27.47,596,-3809,7319,0,-1,-1
-161.99,4.18,-27.47,603,-3815,7315,0,-1,0
-161.99,4.18,-27.47,612,-3812,7315,-1,-1,0
-161.99,4.19,-27.47,612,-3809,7314,0,-1,0
-161.99,4.20,-27.47,610,-3809,7312,0,-1,0
-161.98,4.20,-27.46,607,-3805,7327,0,-1,-1
-161.99,4.19,-27.46,602,-3803,7319,0,-1,0
-161.99,4.19,-27.46,590,-3802,7317,0,-1,-1
-161.99,4.20,-27.46,596,-3808,7307,0,-1,-1
-161.99,4.21,-27.45,606,-3803,7307,0,-1,-1
-161.98,4.22,-27.45,617,-3796,7316,0,-1,-1
-161.98,4.22,-27.45,628,-3803,7340,0,0,0
-161.98,4.22,-27.45,621,-3802,7335,-1,0,0
-161.98,4.21,-27.45,606,-3796,7317,-1,0,0
-161.99,4.21,-27.45,595,-3795,7321,-1,-1,0
-161.99,4.21,-27.46,584,-3801,7312,-1,-1,0
-162.00,4.21,-27.47,583,-3808,7308,-1,-1,-1
-161.99,4.22,-27.48,589,-3810,7317,-1,-1,-1
-161.99,4.22,-27.47,600,-3822,7306,0,-1,-1
-161.98,4.23,-27.47,613,-3811,7298,0,-1,-1
-161.98,4.23,-27.47,622,-3798,7304,0,0,0
-161.98,4.23,-27.46,614,-3793,7308,0,0,0
-161.98,4.23,-27.44,621,-3787,7320,0,0,0
-161.98,4.22,-27.44,614,-3780,7331,-1,0,0
-161.98,4.22,-27.44,601,-3780,7334,-1,-1,0
-161.99,4.22,-27.45,601,-3793,7323,-1,-1,0
-162.00,4.22,-27.46,602,-3809,7318,-1,-1,0
-162.00,4.22,-27.46,601,-3803,7312,0,-1,0
-162.00,4.22,-27.47,605,-3800,7314,-1,0,0
-162.00,4.22,-27.47,613,-3809,7317,-1,0,-1
-162.00,4.22,-27.47,610,-3812,7321,0,-1,0
-162.00,4.22,-27.47,612,-3806,7309,0,0,0
-162.00,4.22,-27.46,619,-3810,7319,0,-1,0
-162.00,4.22,-27.45,615,-3800,7332,0,-1,0
-162.00,4.23,-27.44,604,-3781,7330,0,0,0
-162.00,4.22,-27.44,599,-3788,7315,-1,-1,-1
-162.00,4.22,-27.44,598,-3786,7329,-1,-1,0
-162.00,4.22,-27.45,592,-3778,7331,-1,-1,0
-162.00,4.22,-27.45,601,-3785,7326,-1,-1,0
-162.01,4.23,-27.46,604,-3798,7326,-1,-1,0
-162.01,4.23,-27.47,605,-3804,7321,-1,-1,0
-162.01,4.23,-27.47,601,-3803,7302,-1,-1,0
-162.01,4.23,-27.47,600,-3812,7301,0,-1,-1
-162.01,4.24,-27.46,608,-3810,7306,0,0,0
-162.01,4.24,-27.46,612,-3804,7313,0,0,-1
-162.01,4.24,-27.46,616,-3792,7315,-1,0,-1
-162.01,4.23,-27.46,613,-3796,7324,-1,-1,0
-162.01,4.24,-27.46,614,-3792,7323,-1,0,0
-162.01,4.23,-27.46,609,-3791,7317,-1,0,0
-162.02,4.23,-27.47,614,-3797,7321,-1,-1,0
-162.02,4.23,-27.47,616,-3804,7323,-1,0,0
-162.02,4.23,-27.47,613,-3811,7311,-1,0,0
-162.02,4.23,-27.47,611,-3810,7307,0,0,0
-162.02,4.22,-27.47,612,-3804,7312,-1,0,0
-162.02,4.21,-27.47,603,-3803,7316,0,0,0
-162.03,4.21,-27.47,599,-3804,7314,0,0,0
-162.03,4.21,-27.46,600,-3793,7311,0,0,0
-162.03,4.21,-27.47,601,-3793,7313,-1,0,0
-162.03,4.21,-27.47,603,-3792,7317,-1,0,0
-162.03,4.21,-27.48,594,-3796,7302,-1,-1,0
-162.04,4.21,-27.48,596,-3806,7311,-1,-1,-1
-162.03,4.21,-27.48,616,-3809,7331,0,-1,-1
-162.03,4.21,-27.48,615,-3799,7333,-1,0,0
-162.03,4.21,-27.48,609,-3798,7324,-1,0,-1
-162.03,4.21,-27.48,610,-3800,7314,-1,0,0
-162.03,4.20,-27.48,600,-3797,7312,-1,0,0
-162.03,4.20,-27.49,592,-3798,7312,-1,0,-1
-162.04,4.20,-27.50,589,-3806,7311,-1,-1,0
-162.04,4.20,-27.51,591,-3815,7306,-1,-1,-1
-162.04,4.21,-27.51,605,-3816,7299,-1,-1,-1
-162.04,4.22,-27.51,612,-3819,7310,0,-1,0
-162.03,4.22,-27.51,620,-3817,7305,0,-1,0
-162.03,4.22,-27.51,622,-3822,7314,0,0,0
-162.03,4.22,-27.50,616,-3811,7311,0,0,0
-162.03,4.22,-27.50,613,-3804,7327,-1,0,0
-162.04,4.22,-27.50,607,-3798,7316,-1,0,0
-162.04,4.22,-27.51,599,-3802,7315,-1,-1,0
-162.04,4.22,-27.52,597,-3812,7308,-1,-1,0
-162.04,4.22,-27.53,602,-3807,7317,-1,-1,0
-162.04,4.23,-27.53,604,-3814,7311,-1,-1,-1
-162.04,4.23,-27.54,613,-3818,7310,-1,0,0
-162.04,4.22,-27.53,606,-3814,7306,0,0,-1
-162.04,4.23,-27.53,607,-3812,7312,0,-1,0
-162.04,4.23,-27.53,607,-3809,7310,-1,-1,0
-162.05,4.23,-27.53,613,-3805,7306,-1,-1,0
-162.05,4.23,-27.53,616,-3807,7308,-1,-1,0
-162.05,4.24,-27.54,617,-3810,7320,-1,-1,0
-162.05,4.24,-27.54,615,-3813,7313,-1,-1,0
-162.05,4.24,-27.55,616,-3812,7317,-1,0,0
-162.05,4.23,-27.55,610,-3820,7314,-1,0,0
-162.06,4.23,-27.56,605,-3817,7314,-1,-1,0
-162.06,4.23,-27.57,609,-3826,7319,-1,-1,0
-162.07,4.23,-27.57,609,-3819,7313,-1,-1,0
-162.08,4.23,-27.57,604,-3817,7305,-1,-1,0
-162.08,4.23,-27.58,602,-3821,7299,-1,-1,0
-162.08,4.23,-27.59,610,-3819,7297,0,0,0
-162.08,4.23,-27.58,611,-3811,7299,0,0,0
-162.08,4.23,-27.58,612,-3805,7304,0,0,-1
-162.08,4.23,-27.58,615,-3809,7299,0,-1,0
-162.08,4.22,-27.58,619,-3812,7296,0,0,-1
-162.08,4.22,-27.57,610,-3812,7302,0,0,0
-162.08,4.22,-27.56,600,-3826,7298,0,-1,0
-162.07,4.21,-27.56,597,-3827,7308,0,0,-1
-162.07,4.21,-27.55,601,-3816,7310,0,0,-1
-162.07,4.21,-27.54,596,-3811,7313,0,0,-1
-162.07,4.21,-27.53,615,-3806,7305,0,0,-1
-162.07,4.21,-27.52,616,-3813,7301,0,0,-1
-162.07,4.20,-27.51,607,-3796,7321,0,0,0
-162.06,4.20,-27.51,610,-3799,7323,0,0,-1
-162.07,4.19,-27.51,603,-3810,7316,0,-1,0
-162.06,4.19,-27.49,604,-3799,7325,0,0,0
-162.07,4.19,-27.49,602,-3801,7323,0,0,0
-162.07,4.19,-27.49,603,-3818,7314,0,0,0
-162.06,4.19,-27.48,598,-3804,7302,0,0,-1
-162.06,4.19,-27.47,602,-3797,7328,-1,-1,0
-162.06,4.19,-27.47,605,-3798,7317,0,-1,0
-162.06,4.19,-27.47,601,-3799,7303,0,-1,0
-162.06,4.19,-27.46,602,-3803,7292,0,-1,-1
-162.05,4.21,-27.46,613,-3810,7316,0,-1,-1
-162.04,4.21,-27.45,616,-3803,7328,0,-1,-1
-162.04,4.21,-27.44,608,-3797,7344,0,-1,-1
-162.03,4.21,-27.44,607,-3803,7324,-1,0,-1
-162.03,4.21,-27.44,593,-3796,7317,-1,0,-1
-162.03,4.21,-27.44,589,-3793,7301,-1,0,-1
-162.03,4.20,-27.45,588,-3792,7304,-1,-1,-1
-162.03,4.21,-27.45,587,-3808,7305,-1,-1,-1
-162.03,4.21,-27.46,592,-3819,7310,-1,-1,-1
-162.03,4.22,-27.46,603,-3818,7315,0,-1,-1
-162.02,4.22,-27.46,608,-3815,7318,0,-1,-1
-162.02,4.23,-27.45,625,-3810,7316,0,0,-1
-162.01,4.23,-27.44,628,-3800,7319,0,0,0
-162.02,4.22,-27.43,620,-3787,7310,0,0,0
-162.02,4.21,-27.43,606,-3785,7311,0,0,0
-162.02,4.21,-27.42,595,-3788,7320,0,0,0
-162.02,4.21,-27.42,593,-3790,7322,-1,-1,-1
-162.02,4.21,-27.42,597,-3795,7326,-1,-1,-1
-162.01,4.22,-27.42,601,-3802,7332,-1,-1,0
-162.02,4.22,-27.43,599,-3806,7326,-1,-1,-1
-162.02,4.22,-27.43,612,-3810,7319,0,0,0
-162.02,4.22,-27.43,609,-3797,7315,0,0,0
-162.02,4.21,-27.42,603,-3801,7310,0,0,0
-162.02,4.21,-27.42,604,-3804,7308,0,0,0
-162.02,4.21,-27.42,608,-3806,7324,0,0,-1
-162.02,4.21,-27.42,599,-3796,7334,0,-1,-1
-162.02,4.21,-27.42,597,-3795,7322,-1,-1,-1
-162.02,4.21,-27.42,605,-3789,7317,-1,-1,-1
-162.02,4.22,-27.42,614,-3795,7317,-1,0,0
-162.02,4.21,-27.43,615,-3798,7315,-1,0,0
-162.02,4.21,-27.43,613,-3799,7321,-1,0,0
-162.02,4.21,-27.43,603,-3794,7307,0,0,0
-162.02,4.21,-27.43,600,-3801,7301,-1,0,0
-162.02,4.21,-27.43,599,-3794,7311,0,-1,0
-162.02,4.21,-27.43,595,-3788,7310,-1,-1,-1
-162.02,4.21,-27.43,604,-3791,7315,-1,-1,-1
-162.01,4.22,-27.43,609,-3794,7320,-1,-1,0
-162.01,4.22,-27.43,614,-3799,7320,-1,0,0
-162.02,4.21,-27.43,610,-3796,7313,-1,0,0
-162.02,4.20,-27.43,607,-3791,7318,-1,0,0
-162.02,4.20,-27.43,605,-3794,7309,-1,0,0
-162.02,4.20,-27.43,605,-3796,7320,-1,0,0
-162.02,4.20,-27.44,595,-3799,7318,-1,0,0
-162.02,4.19,-27.44,592,-3798,7329,-1,0,0
-162.02,4.19,-27.44,598,-3797,7330,-1,0,0
-162.03,4.18,-27.44,605,-3788,7316,-1,0,0
-162.03,4.18,-27.44,595,-3799,7317,-1,0,0
-162.03,4.18,-27.44,594,-3810,7311,-1,-1,0
-162.03,4.18,-27.45,604,-3812,7324,0,-1,-1
-162.03,4.18,-27.45,597,-3807,7327,-1,-1,0
-162.03,4.19,-27.46,598,-3813,7312,-1,-1,-1
-162.02,4.19,-27.46,610,-3817,7302,0,0,-1
-162.03,4.18,-27.45,605,-3805,7303,0,0,-1
-162.02,4.18,-27.44,611,-3800,7327,0,0,0
-162.03,4.18,-27.44,613,-3797,7325,0,0,0
-162.02,4.18,-27.44,598,-3788,7324,-1,0,0
-162.02,4.17,-27.44,598,-3798,7323,-1,0,-1
-162.02,4.17,-27.44,604,-3799,7327,0,0,-1
-162.02,4.17,-27.44,606,-3792,7329,-1,0,0
-162.02,4.16,-27.44,608,-3797,7328,-1,0,0
-162.02,4.16,-27.45,601,-3794,7328,-1,0,0
-162.03,4.15,-27.46,595,-3788,7305,-1,0,0
-162.03,4.14,-27.46,586,-3798,7314,-1,0,0
-162.04,4.15,-27.47,580,-3807,7307,-1,-1,0
-162.04,4.15,-27.48,581,-3817,7308,-1,-1,0
-162.04,4.15,-27.48,585,-3820,7306,0,-1,-1
-162.03,4.16,-27.48,596,-3821,7306,0,-1,-1
-162.03,4.16,-27.47,598,-3814,7311,0,0,-1
-162.03,4.16,-27.46,604,-3800,7314,0,0,0
-162.03,4.16,-27.46,604,-3792,7312,0,0,0
-162.03,4.16,-27.45,593,-3790,7312,0,0,0
-162.04,4.16,-27.46,590,-3792,7330,-1,-1,0
-162.04,4.16,-27.46,580,-3789,7325,-1,-1,0
-162.04,4.16,-27.46,574,-3799,7332,-1,-1,-1
-162.04,4.17,-27.48,587,-3810,7305,-1,-1,-1
-162.04,4.17,-27.48,591,-3818,7307,-1,-1,-1
-162.04,4.17,-27.48,604,-3812,7306,0,0,0
-162.04,4.18,-27.47,611,-3817,7310,0,-1,0
-162.04,4.18,-27.47,608,-3796,7320,0,-1,0
-162.04,4.18,-27.47,606,-3797,7319,0,-1,0
-162.05,4.18,-27.46,605,-3803,7314,0,-1,-1
-162.04,4.18,-27.45,604,-3782,7319,0,-1,-1
-162.04,4.19,-27.45,602,-3778,7323,-1,-1,0
-162.04,4.19,-27.45,606,-3784,7317,-1,-1,-1
-162.04,4.19,-27.46,603,-3795,7316,-1,-1,0
-162.04,4.19,-27.46,602,-3799,7314,-1,-1,0
-162.04,4.19,-27.46,608,-3802,7320,-1,-1,0
-162.04,4.20,-27.47,604,-3808,7320,-1,-1,-1
-162.05,4.19,-27.47,600,-3816,7311,0,-1,0
-162.05,4.19,-27.47,600,-3815,7312,0,-1,-1
-162.04,4.19,-27.46,597,-3815,7318,0,-1,-1
-162.04,4.20,-27.46,600,-3809,7321,0,-1,-1
-162.04,4.20,-27.46,601,-3803,7321,0,-1,-1
-162.04,4.20,-27.46,604,-3797,7326,0,-1,-1
-162.04,4.21,-27.45,606,-3796,7310,-1,-1,0
-162.04,4.21,-27.45,599,-3786,7306,-1,-1,0
-162.05,4.21,-27.46,611,-3798,7314,-1,-1,0
-162.05,4.21,-27.46,611,-3794,7307,-1,-1,0
-162.05,4.21,-27.47,610,-3806,7315,-1,-1,-1
-162.05,4.21,-27.47,609,-3809,7328,0,-1,-1
-162.04,4.22,-27.47,600,-3803,7323,0,-1,0
-162.04,4.22,-27.47,597,-3804,7306,0,-1,-1
-162.04,4.22,-27.47,603,-3801,7301,0,-1,0
-162.04,4.23,-27.46,613,-3801,7310,0,-1,-1
-162.04,4.23,-27.46,608,-3798,7317,0,-1,0
-162.05,4.23,-27.46,616,-3806,7318,-1,0,0
-162.05,4.23,-27.46,609,-3799,7320,-1,-1,0
-162.05,4.23,-27.47,602,-3796,7319,-1,-1,0
-162.05,4.23,-27.47,595,-3797,7322,0,-1,0
-162.05,4.24,-27.46,599,-3809,7312,-1,-1,-1
-162.05,4.24,-27.46,608,-3809,7318,0,-1,-1
-162.04,4.25,-27.46,622,-3804,7325,0,-1,-1
-162.04,4.25,-27.46,630,-3798,7333,0,0,0
-162.04,4.25,-27.45,625,-3792,7320,0,0,0
-162.04,4.25,-27.45,617,-3788,7314,-1,0,0
-162.05,4.25,-27.45,608,-3791,7313,-1,-1,0
-162.05,4.25,-27.46,593,-3799,7310,-1,-1,0
-162.05,4.25,-27.46,596,-3807,7317,-1,-1,0
-162.05,4.25,-27.47,598,-3813,7315,-1,-1,-1
-162.05,4.26,-27.47,610,-3808,7315,0,-1,-1
-162.05,4.27,-27.47,621,-3805,7311,0,-1,-1
-162.05,4.26,-27.46,624,-3798,7300,0,0,0
-162.05,4.26,-27.46,628,-3799,7301,0,0,0
-162.05,4.26,-27.45,620,-3796,7314,0,0,0
-162.05,4.26,-27.45,613,-3801,7310,0,-1,0
-162.05,4.26,-27.45,616,-3792,7310,0,-1,0
-162.04,4.27,-27.44,611,-3785,7312,-1,-1,-1
-162.04,4.27,-27.44,609,-3789,7318,-1,-1,-1
-162.04,4.28,-27.45,609,-3800,7323,-1,-1,-1
-162.04,4.28,-27.45,625,-3801,7319,-1,-1,0
-162.04,4.28,-27.45,626,-3794,7324,-1,0,0
-162.05,4.28,-27.45,624,-3796,7321,0,-1,0
-162.04,4.28,-27.45,621,-3802,7331,0,0,-1
-162.04,4.28,-27.44,613,-3795,7332,0,-1,-1
-162.04,4.28,-27.44,617,-3790,7317,-1,-1,0
-162.04,4.28,-27.44,616,-3779,7300,-1,-1,-1
-162.04,4.29,-27.45,630,-3786,7308,-1,-1,-1
-162.04,4.30,-27.45,623,-3794,7305,-1,-1,0
-162.05,4.30,-27.46,622,-3799,7308,-1,-1,0
-162.05,4.30,-27.46,623,-3806,7310,-1,0,0
-162.05,4.30,-27.46,615,-3798,7311,0,0,0
-162.05,4.29,-27.46,610,-3803,7304,-1,0,-1
-162.05,4.30,-27.46,609,-3806,7310,0,-1,0
-162.05,4.30,-27.46,624,-3806,7320,-1,-1,0
-162.04,4.30,-27.46,625,-3802,7317,-1,-1,-1
-162.04,4.31,-27.47,629,-3800,7315,-1,-1,0
-162.05,4.30,-27.47,627,-3801,7315,-1,0,0
-162.05,4.30,-27.48,624,-3803,7316,-1,0,0
-162.05,4.30,-27.48,625,-3799,7310,-1,0,0
-162.06,4.29,-27.49,625,-3798,7308,-1,0,0
-162.06,4.29,-27.49,618,-3801,7318,-1,0,0
-162.06,4.29,-27.50,605,-3806,7320,-1,-1,0
-162.06,4.29,-27.50,612,-3805,7322,-1,-1,0
-162.06,4.29,-27.51,616,-3811,7310,-1,0,0
-162.06,4.29,-27.51,621,-3812,7312,-1,0,0
-162.07,4.28,-27.52,608,-3806,7308,-1,0,0
-162.07,4.28,-27.52,610,-3807,7317,-1,-1,0
-162.07,4.28,-27.52,618,-3807,7316,-1,0,0
-162.08,4.27,-27.52,618,-3807,7313,-1,0,0
-162.08,4.27,-27.52,618,-3801,7312,-1,-1,0
-162.08,4.27,-27.53,610,-3805,7314,-1,0,0
-162.09,4.27,-27.54,607,-3806,7302,-1,0,0
-162.09,4.26,-27.54,597,-3811,7304,-1,-1,0
-162.09,4.27,-27.55,600,-3821,7297,-1,-1,0
-162.09,4.27,-27.55,613,-3828,7303,0,-1,0
-162.09,4.28,-27.55,630,-3821,7314,-1,0,0
-162.09,4.28,-27.55,631,-3816,7317,0,0,0
-162.09,4.27,-27.55,626,-3814,7319,-1,0,0
-162.10,4.25,-27.55,608,-3808,7315,-1,0,0
-162.10,4.25,-27.56,595,-3807,7309,-1,0,0
-162.10,4.25,-27.56,590,-3805,7316,-1,-1,0
-162.10,4.25,-27.56,592,-3814,7303,0,-1,-1
-162.10,4.25,-27.56,597,-3829,7294,0,-1,-1
-162.10,4.26,-27.56,616,-3833,7297,0,-1,-1
-162.09,4.26,-27.54,627,-3831,7305,0,-1,-1
-162.08,4.27,-27.53,622,-3828,7300,0,0,-1
-162.08,4.27,-27.52,625,-3811,7301,0,0,-1
-162.08,4.26,-27.50,623,-3803,7309,0,0,-1
-162.08,4.26,-27.49,621,-3792,7313,0,0,0
-162.08,4.26,-27.49,607,-3790,7322,-1,0,0
-162.08,4.26,-27.48,606,-3797,7316,-1,-1,-1
-162.07,4.27,-27.49,612,-3802,7315,-1,-1,0
-162.07,4.27,-27.49,607,-3800,7307,0,-1,0
-162.07,4.27,-27.49,614,-3809,7311,0,-1,-1
-162.07,4.27,-27.48,619,-3813,7307,0,0,-1
-162.07,4.27,-27.47,616,-3810,7311,0,0,-1
-162.07,4.27,-27.47,615,-3803,7313,0,0,-1
-162.07,4.27,-27.45,610,-3793,7314,0,-1,-1
-162.07,4.27,-27.45,609,-3804,7327,0,-1,-1
-162.06,4.27,-27.45,617,-3792,7336,0,-1,-1
-162.06,4.27,-27.44,612,-3779,7331,-1,-1,0
-162.06,4.27,-27.45,615,-3784,7320,-1,-1,0
-162.06,4.27,-27.45,615,-3797,7304,-1,0,0
-162.06,4.27,-27.45,623,-3810,7304,0,0,0
-162.07,4.27,-27.45,616,-3810,7312,0,0,0
-162.07,4.26,-27.45,610,-3805,7308,0,0,0
-162.07,4.26,-27.45,609,-3799,7309,0,0,-1
-162.07,4.26,-27.44,607,-3800,7307,0,0,-1
-162.06,4.26,-27.43,607,-3791,7304,0,0,0
-162.06,4.26,-27.43,611,-3785,7306,-1,0,0
-162.06,4.26,-27.43,622,-3789,7319,-1,0,0
-162.06,4.26,-27.43,621,-3783,7320,-1,0,-1
-162.06,4.25,-27.43,611,-3792,7313,-1,-1,0
-162.06,4.25,-27.43,614,-3795,7316,-1,0,0
-162.06,4.25,-27.43,613,-3796,7312,0,0,0
-162.06,4.25,-27.43,611,-3798,7314,0,0,0
-162.06,4.25,-27.43,608,-3798,7314,0,-1,0
-162.05,4.25,-27.43,615,-3798,7310,0,0,-1
-162.05,4.25,-27.42,612,-3796,7320,0,0,-1
-162.06,4.24,-27.42,618,-3790,7315,0,0,0
-162.06,4.24,-27.41,610,-3781,7319,0,0,0
-162.06,4.24,-27.41,617,-3787,7330,-1,0,0
-162.06,4.23,-27.41,609,-3789,7334,0,0,0
-162.06,4.23,-27.41,606,-3786,7329,-1,0,0
-162.06,4.23,-27.42,598,-3795,7315,-1,-1,-1
-162.05,4.23,-27.42,605,-3794,7311,-1,0,-1
-162.05,4.23,-27.42,621,-3791,7306,-1,0,-1
-162.05,4.22,-27.42,615,-3791,7318,-1,0,0
-162.06,4.22,-27.42,603,-3795,7315,-1,-1,0
-162.05,4.22,-27.42,598,-3805,7312,0,0,0
-162.06,4.21,-27.42,596,-3806,7312,0,0,-1
-162.05,4.22,-27.42,603,-3797,7321,0,-1,-1
-162.05,4.22,-27.42,611,-3793,7326,-1,0,0
-162.05,4.21,-27.41,614,-3803,7320,0,0,0
-162.05,4.20,-27.40,610,-3785,7317,-1,0,0
-162.05,4.20,-27.41,598,-3776,7312,-1,0,0
-162.06,4.19,-27.41,595,-3784,7311,-1,0,0
-162.06,4.18,-27.43,604,-3794,7310,-1,0,0
-162.06,4.18,-27.43,596,-3799,7315,-1,-1,0
-162.07,4.18,-27.44,596,-3801,7313,0,0,-1
-162.06,4.18,-27.44,606,-3807,7306,0,0,-1
-162.06,4.18,-27.44,615,-3813,7313,0,0,0
-162.06,4.18,-27.44,620,-3809,7308,0,0,0
-162.06,4.17,-27.42,610,-3794,7320,0,0,0
-162.06,4.16,-27.41,594,-3782,7336,-1,0,0
-162.06,4.16,-27.41,585,-3780,7329,-1,0,0
-162.06,4.15,-27.41,576,-3784,7326,-1,0,-1
-162.06,4.15,-27.41,582,-3787,7323,-1,0,-1
-162.06,4.15,-27.42,589,-3791,7329,-1,-1,0
-162.06,4.15,-27.43,596,-3800,7325,-1,-1,0
-162.06,4.15,-27.43,598,-3811,7329,-1,0,-1
-162.06,4.15,-27.43,598,-3812,7321,0,0,-1
-162.06,4.15,-27.43,597,-3803,7322,0,0,0
-162.07,4.15,-27.44,594,-3801,7325,-1,0,0
-162.07,4.15,-27.44,594,-3796,7331,0,0,-1
-162.06,4.14,-27.43,594,-3797,7328,0,-1,0
-162.06,4.15,-27.43,603,-3791,7323,-1,-1,0
-162.06,4.15,-27.43,605,-3784,7319,-1,-1,0
-162.06,4.16,-27.43,605,-3784,7310,-1,-1,0
-162.07,4.15,-27.44,599,-3793,7320,-1,-1,0
-162.07,4.15,-27.44,596,-3802,7316,-1,0,-1
-162.07,4.15,-27.44,590,-3807,7318,0,-1,0
-162.07,4.16,-27.44,598,-3807,7310,0,-1,0
-162.07,4.16,-27.43,599,-3803,7320,0,-1,-1
-162.07,4.16,-27.43,588,-3791,7320,0,-1,-1
-162.07,4.16,-27.42,583,-3787,7326,-1,-1,-1
-162.07,4.17,-27.42,594,-3788,7320,-1,-1,-1
-162.06,4.18,-27.42,597,-3791,7319,-1,-1,-1
-162.06,4.18,-27.43,595,-3788,7314,-1,-1,0
-162.06,4.18,-27.43,598,-3793,7315,-1,-1,0
-162.06,4.19,-27.44,597,-3804,7306,-1,-1,-1
-162.06,4.19,-27.44,601,-3809,7306,-1,-1,-1
-162.06,4.19,-27.44,606,-3804,7312,0,-1,-1
-162.06,4.20,-27.43,600,-3803,7318,-1,-1,0
-162.06,4.20,-27.43,603,-3799,7319,0,-1,-1
-162.06,4.21,-27.43,608,-3804,7323,0,-1,0
-162.06,4.20,-27.43,601,-3798,7329,0,0,0
-162.06,4.20,-27.43,603,-3800,7324,0,0,-1
-162.06,4.20,-27.43,599,-3798,7316,0,-1,0
-162.06,4.20,-27.43,595,-3789,7318,-1,-1,0
-162.06,4.20,-27.43,596,-3788,7325,-1,-1,0
-162.06,4.21,-27.42,604,-3795,7324,-1,-1,-1
-162.06,4.21,-27.42,604,-3794,7317,-1,-1,0
-162.06,4.21,-27.42,603,-3790,7323,0,-1,-1
-162.06,4.22,-27.42,596,-3795,7321,-1,-1,0
-162.06,4.22,-27.42,602,-3801,7311,0,-1,0
-162.06,4.22,-27.43,602,-3813,7317,0,-1,-1
-162.06,4.22,-27.43,605,-3809,7315,0,-1,0
-162.07,4.22,-27.42,612,-3810,7315,0,-1,0
-162.06,4.23,-27.42,618,-3797,7335,0,-1,0
-162.06,4.23,-27.41,614,-3788,7335,-1,0,0
-162.07,4.22,-27.42,599,-3789,7320,-1,0,0
-162.07,4.22,-27.42,590,-3791,7318,-1,-1,0
-162.07,4.22,-27.43,595,-3798,7315,-1,-1,0
-162.07,4.22,-27.44,597,-3809,7315,-1,-1,0
-162.07,4.22,-27.45,602,-3814,7305,-1,-1,-1
-162.07,4.23,-27.45,601,-3816,7299,0,-1,-1
-162.07,4.23,-27.44,605,-3809,7309,0,-1,-1
-162.06,4.24,-27.44,615,-3803,7313,0,-1,-1
-162.06,4.24,-27.43,620,-3799,7312,0,0,0
-162.06,4.23,-27.42,621,-3792,7319,0,0,0
-162.06,4.23,-27.41,617,-3783,7328,0,0,0
-162.06,4.23,-27.41,611,-3788,7321,-1,0,0
-162.07,4.23,-27.42,598,-3788,7326,-1,-1,0
-162.07,4.23,-27.42,602,-3794,7314,-1,-1,0
-162.07,4.23,-27.43,605,-3801,7321,-1,-1,0
-162.07,4.23,-27.43,604,-3801,7315,-1,-1,-1
-162.07,4.23,-27.43,610,-3801,7323,-1,-1,0
-162.07,4.23,-27.44,604,-3809,7325,0,-1,0
-162.07,4.24,-27.43,614,-3810,7315,0,-1,0
-162.07,4.24,-27.43,614,-3805,7302,0,0,0
-162.07,4.24,-27.43,612,-3804,7310,0,-1,0
-162.07,4.24,-27.43,613,-3797,7313,0,-1,0
-162.08,4.24,-27.42,614,-3796,7312,0,-1,0
-162.08,4.24,-27.42,616,-3795,7319,-1,0,0
-162.08,4.24,-27.42,611,-3785,7320,-1,0,0
-162.08,4.24,-27.42,605,-3792,7323,-1,0,0
-162.08,4.23,-27.43,607,-3794,7322,-1,0,0
-162.08,4.23,-27.43,600,-3799,7321,-1,0,0
-162.09,4.23,-27.43,604,-3801,7310,-1,-1,0
-162.09,4.23,-27.44,603,-3811,7313,-1,0,0
-162.09,4.23,-27.44,602,-3811,7320,0,-1,0
-162.09,4.22,-27.44,593,-3804,7322,-1,-1,0
-162.09,4.22,-27.44,604,-3802,7319,0,-1,-1
-162.09,4.22,-27.44,612,-3799,7319,0,0,-1
-162.09,4.23,-27.43,610,-3799,7316,0,-1,0
-162.09,4.23,-27.44,608,-3797,7311,-1,-1,0
-162.09,4.23,-27.44,608,-3799,7317,-1,0,0
-162.09,4.22,-27.44,608,-3800,7314,-1,0,0
-162.09,4.22,-27.44,603,-3800,7311,-1,0,0
-162.09,4.22,-27.44,602,-3799,7310,-1,-1,0
-162.09,4.22,-27.44,601,-3799,7309,-1,-1,0
-162.09,4.22,-27.44,606,-3801,7308,-1,0,0
-162.09,4.22,-27.44,609,-3796,7308,-1,0,0
-162.09,4.23,-27.45,618,-3803,7315,-1,0,0
-162.09,4.23,-27.45,611,-3795,7322,-1,0,0
-162.10,4.22,-27.46,602,-3796,7309,-1,-1,0
-162.10,4.22,-27.46,606,-3799,7315,-1,0,0
-162.10,4.22,-27.46,605,-3796,7313,-1,-1,0
-162.10,4.22,-27.46,611,-3799,7323,-1,-1,0
-162.10,4.23,-27.46,622,-3800,7326,-1,-1,0
-162.10,4.23,-27.46,628,-3796,7313,0,0,0
-162.10,4.22,-27.46,622,-3781,7311,-1,0,0
-162.11,4.22,-27.46,620,-3778,7314,-1,0,0
-162.11,4.21,-27.47,604,-3788,7320,-1,0,0
-162.12,4.20,-27.48,585,-3800,7317,-1,0,0
-162.12,4.20,-27.48,587,-3803,7316,-1,-1,-1
-162.12,4.21,-27.49,598,-3814,7317,-1,0,-1
-162.12,4.21,-27.49,603,-3820,7314,-1,-1,-1
-162.12,4.21,-27.49,614,-3814,7312,0,-1,0
-162.12,4.22,-27.49,616,-3820,7309,0,-1,0
-162.12,4.23,-27.48,628,-3806,7325,0,0,0
-162.12,4.22,-27.48,615,-3793,7325,-1,0,0
-162.12,4.22,-27.48,612,-3795,7315,-1,0,0
-162.12,4.22,-27.48,609,-3796,7314,-1,0,0
-162.13,4.21,-27.48,601,-3791,7317,-1,0,0
-162.12,4.22,-27.49,604,-3802,7309,-1,-1,0
-162.13,4.22,-27.50,608,-3811,7296,-1,-1,0
-162.13,4.22,-27.51,607,-3822,7301,-1,-1,0
-162.13,4.22,-27.52,606,-3832,7300,-1,-1,0
-162.14,4.22,-27.52,602,-3824,7299,-1,-1,0
-162.14,4.22,-27.52,599,-3825,7310,0,-1,0
-162.14,4.22,-27.52,598,-3820,7324,0,0,-1
-162.14,4.21,-27.51,598,-3817,7330,-1,-1,-1
-162.14,4.22,-27.51,604,-3802,7318,-1,-1,0
-162.14,4.22,-27.52,610,-3806,7318,-1,0,0
-162.15,4.22,-27.52,606,-3803,7317,-1,-1,0
-162.15,4.21,-27.53,599,-3803,7310,-1,0,0
-162.16,4.21,-27.53,599,-3812,7301,-1,-1,0
-162.16,4.21,-27.53,606,-3811,7302,-1,0,0
-162.16,4.20,-27.54,604,-3826,7314,0,0,0
-162.17,4.20,-27.54,597,-3826,7303,0,0,0
-162.17,4.20,-27.54,604,-3820,7301,-1,-1,0
-162.17,4.20,-27.55,608,-3824,7297,-1,0,0
-162.17,4.20,-27.55,606,-3817,7305,-1,-1,0
-162.18,4.19,-27.55,601,-3821,7311,-1,-1,0
-162.18,4.19,-27.56,607,-3827,7300,-1,-1,0
-162.19,4.19,-27.56,611,-3823,7299,0,0,0
-162.19,4.18,-27.56,602,-3817,7315,-1,0,0
-162.20,4.19,-27.56,602,-3824,7300,0,-1,0
-162.20,4.18,-27.56,595,-3813,7297,0,0,-1
-162.20,4.17,-27.55,599,-3803,7303,0,0,0
-162.20,4.16,-27.55,591,-3815,7302,0,0,0
-162.20,4.16,-27.54,596,-3817,7305,0,0,-1
-162.20,4.15,-27.53,591,-3821,7301,0,0,-1
-162.20,4.14,-27.52,584,-3822,7309,0,0,-1
-162.20,4.14,-27.52,589,-3817,7298,0,0,-1
-162.19,4.14,-27.51,593,-3818,7307,0,-1,-1
-162.19,4.14,-27.49,601,-3814,7325,0,0,-1
-162.17,4.15,-27.48,598,-3796,7329,0,0,-1
-162.17,4.14,-27.46,610,-3788,7333,0,0,-1
-162.17,4.14,-27.46,609,-3786,7322,-1,0,0
-162.17,4.13,-27.46,596,-3787,7307,0,0,-1
-162.16,4.13,-27.46,567,-3790,7316,-1,0,-1
-162.16,4.13,-27.46,572,-3794,7313,-1,-1,-1
-162.16,4.14,-27.46,583,-3813,7321,-1,-1,-1
-162.15,4.15,-27.47,593,-3821,7312,0,-1,-1
-162.15,4.16,-27.46,601,-3825,7318,0,-1,-1
-162.14,4.16,-27.45,615,-3819,7316,0,0,-1
-162.13,4.17,-27.44,614,-3804,7311,0,0,-1
-162.13,4.17,-27.43,615,-3792,7312,0,0,0
-162.13,4.16,-27.42,604,-3794,7329,0,0,0
-162.13,4.16,-27.40,596,-3789,7326,0,0,0
-162.13,4.16,-27.40,576,-3777,7329,-1,-1,-1
-162.13,4.16,-27.40,574,-3788,7333,-1,-1,-1
-162.12,4.17,-27.41,582,-3796,7327,-1,-1,-1
-162.12,4.18,-27.41,599,-3799,7319,-1,-1,-1
-162.12,4.18,-27.41,609,-3799,7314,-1,-1,-1
-162.12,4.19,-27.41,616,-3795,7312,0,0,0
-162.12,4.18,-27.41,617,-3795,7306,0,0,0
-162.12,4.17,-27.41,599,-3801,7313,0,0,0
-162.12,4.17,-27.40,591,-3791,7328,0,0,0
-162.12,4.17,-27.40,596,-3788,7333,-1,-1,-1
-162.11,4.18,-27.39,607,-3791,7332,0,-1,-1
-162.11,4.18,-27.40,605,-3790,7329,-1,-1,-1
-162.11,4.18,-27.40,606,-3790,7315,-1,0,-1
-162.11,4.18,-27.40,602,-3796,7313,0,0,0
-162.12,4.17,-27.40,588,-3800,7316,-1,0,0
-162.12,4.17,-27.40,586,-3801,7322,-1,0,0
-162.12,4.17,-27.40,594,-3812,7318,0,0,0
-162.12,4.16,-27.40,593,-3805,7319,0,0,-1
-162.12,4.16,-27.40,596,-3800,7322,-1,-1,0
-162.12,4.16,-27.40,608,-3804,7311,0,-1,0
-162.12,4.16,-27.40,610,-3805,7320,0,0,-1
-162.12,4.16,-27.40,609,-3792,7322,0,-1,0
-162.13,4.16,-27.40,596,-3789,7322,0,0,0
-162.12,4.16,-27.39,598,-3785,7336,0,-1,0
-162.12,4.15,-27.38,599,-3784,7330,0,0,-1
-162.12,4.15,-27.38,586,-3785,7331,0,-1,-1
-162.12,4.15,-27.38,607,-3790,7337,-1,0,0
-162.12,4.15,-27.38,601,-3784,7323,-1,0,-1
-162.12,4.14,-27.38,612,-3798,7335,0,0,0
-162.12,4.13,-27.38,597,-3783,7316,0,0,-1
-162.12,4.13,-27.37,590,-3780,7329,-1,0,0
-162.12,4.13,-27.38,598,-3804,7314,0,0,-1
-162.12,4.12,-27.38,606,-3806,7311,0,0,-1
-162.12,4.12,-27.37,602,-3787,7340,0,-1,0
-162.12,4.11,-27.37,613,-3784,7337,-1,0,0
-162.12,4.11,-27.37,607,-3778,7316,-1,0,0
-162.12,4.10,-27.38,577,-3771,7323,-1,0,0
-162.13,4.09,-27.39,571,-3787,7326,-1,-1,0
-162.13,4.09,-27.40,572,-3799,7334,-1,-1,0
-162.13,4.09,-27.41,570,-3803,7335,-1,-1,-1
-162.14,4.09,-27.42,566,-3815,7322,-1,-1,-1
-162.13,4.10,-27.43,573,-3824,7304,0,-1,-1
-162.13,4.11,-27.43,591,-3825,7312,0,-1,-1
-162.12,4.11,-27.42,598,-3811,7329,0,0,-1
-162.12,4.11,-27.41,596,-3792,7328,0,0,0
-162.12,4.11,-27.40,605,-3788,7325,0,0,0
-162.12,4.10,-27.40,600,-3801,7319,0,0,0
-162.12,4.09,-27.40,580,-3793,7322,0,0,0
-162.12,4.09,-27.40,587,-3774,7331,-1,0,0
-162.13,4.09,-27.40,583,-3780,7336,-1,-1,0
-162.13,4.10,-27.41,588,-3798,7313,-1,-1,0
-162.13,4.10,-27.42,589,-3804,7313,-1,-1,0
-162.13,4.10,-27.42,589,-3798,7308,-1,-1,0
-162.13,4.10,-27.42,590,-3796,7305,0,-1,0
-162.13,4.11,-27.42,593,-3808,7305,0,0,-1
-162.13,4.10,-27.42,582,-3803,7314,0,-1,-1
-162.12,4.11,-27.42,583,-3799,7321,0,-1,-1
-162.12,4.11,-27.41,590,-3797,7325,0,-1,0
-162.12,4.11,-27.42,592,-3799,7327,-1,-1,0
-162.13,4.12,-27.42,593,-3791,7316,-1,-1,0
-162.13,4.12,-27.42,596,-3793,7316,-1,-1,0
-162.13,4.12,-27.42,595,-3791,7313,-1,-1,-1
-162.13,4.13,-27.42,584,-3793,7311,0,-1,0
-162.13,4.13,-27.42,588,-3802,7311,0,-1,-1
-162.12,4.13,-27.41,585,-3800,7325,0,-1,-1
-162.12,4.13,-27.41,585,-3790,7328,0,-1,-1
-162.12,4.13,-27.41,584,-3791,7323,-1,-1,0
-162.12,4.14,-27.41,589,-3789,7309,0,-1,-1
-162.12,4.14,-27.41,592,-3789,7313,-1,-1,0
-162.12,4.15,-27.42,593,-3789,7312,-1,-1,0
-162.13,4.15,-27.42,589,-3792,7313,-1,-1,0
-162.13,4.15,-27.43,589,-3807,7311,0,0,0
-162.13,4.14,-27.43,584,-3806,7317,0,-1,-1
-162.13,4.15,-27.43,585,-3809,7319,0,-1,-1
-162.13,4.15,-27.43,589,-3810,7323,-1,-1,-1
-162.13,4.15,-27.43,590,-3805,7318,0,-1,-1
-162.13,4.16,-27.43,594,-3796,7317,0,-1,-1
-162.13,4.16,-27.43,597,-3793,7321,0,-1,-1
-162.13,4.16,-27.42,598,-3796,7322,0,-1,0
-162.13,4.16,-27.43,595,-3800,7326,-1,-1,0
-162.13,4.16,-27.43,591,-3794,7327,0,-1,0
-162.13,4.16,-27.42,598,-3788,7326,0,-1,-1
-162.13,4.16,-27.42,587,-3784,7322,-1,-1,-1
-162.13,4.16,-27.43,582,-3792,7319,-1,-1,-1
-162.13,4.17,-27.42,593,-3800,7325,0,-1,0
-162.12,4.17,-27.42,598,-3797,7323,0,-1,0
-162.12,4.17,-27.42,607,-3801,7323,0,-1,0
-162.12,4.18,-27.41,613,-3800,7330,0,0,0
-162.12,4.18,-27.41,613,-3794,7327,-1,0,0
-162.12,4.17,-27.42,595,-3793,7320,-1,-1,0
-162.13,4.17,-27.42,580,-3790,7316,-1,-1,0
-162.13,4.17,-27.43,579,-3784,7304,-1,-1,0
-162.14,4.17,-27.44,582,-3800,7303,-1,-1,-1
-162.14,4.17,-27.44,592,-3800,7305,-1,-1,-1
-162.14,4.18,-27.44,601,-3819,7304,0,-1,-1
-162.13,4.19,-27.44,616,-3816,7317,0,-1,0
-162.13,4.19,-27.44,615,-3809,7313,0,-1,-1
-162.13,4.20,-27.43,612,-3805,7319,0,-1,-1
-162.12,4.20,-27.43,615,-3792,7325,0,0,0
-162.13,4.20,-27.42,612,-3779,7323,0,0,0
-162.13,4.20,-27.42,602,-3780,7325,-1,-1,0
-162.13,4.20,-27.43,597,-3789,7329,-1,-1,0
-162.14,4.20,-27.43,594,-3792,7325,-1,-1,0
-162.14,4.20,-27.43,592,-3793,7319,-1,-1,0
-162.14,4.21,-27.44,597,-3801,7311,-1,-1,0
-162.14,4.21,-27.45,599,-3806,7313,-1,-1,0
-162.14,4.21,-27.45,602,-3807,7311,0,-1,0
-162.14,4.21,-27.45,602,-3801,7318,0,-1,0
-162.14,4.21,-27.44,601,-3794,7319,0,-1,-1
-162.14,4.21,-27.44,603,-3789,7322,0,-1,0
-162.14,4.22,-27.44,600,-3786,7320,-1,-1,-1
-162.14,4.22,-27.44,596,-3786,7318,-1,-1,0
-162.14,4.22,-27.44,608,-3796,7323,-1,-1,0
-162.15,4.22,-27.45,606,-3804,7320,-1,-1,0
-162.15,4.22,-27.45,603,-3802,7312,-1,-1,0
-162.15,4.22,-27.45,605,-3804,7312,-1,-1,0
-162.15,4.22,-27.45,607,-3804,7320,-1,-1,0
-162.15,4.23,-27.45,602,-3797,7318,0,-1,0
-162.15,4.23,-27.45,603,-3797,7313,-1,0,0
-162.15,4.22,-27.45,602,-3792,7314,0,-1,0
-162.15,4.22,-27.45,604,-3791,7318,0,-1,0
-162.15,4.22,-27.45,605,-3792,7313,-1,-1,0
-162.15,4.23,-27.45,606,-3791,7310,-1,-1,0
-162.15,4.23,-27.45,603,-3798,7305,-1,-1,0
-162.15,4.22,-27.45,602,-3794,7310,-1,-1,0
-162.15,4.22,-27.46,605,-3805,7311,-1,-1,-1
-162.15,4.22,-27.46,602,-3804,7308,0,-1,-1
-162.15,4.22,-27.45,593,-3795,7317,-1,-1,-1
-162.15,4.22,-27.45,601,-3792,7312,-1,-1,-1
-162.15,4.23,-27.46,598,-3803,7319,0,-1,-1
-162.15,4.23,-27.46,605,-3802,7319,-1,-1,0
-162.15,4.23,-27.46,607,-3791,7323,-1,-1,0
-162.15,4.23,-27.46,613,-3792,7323,-1,0,-1
-162.15,4.23,-27.46,606,-3793,7333,-1,-1,0
-162.16,4.23,-27.46,596,-3794,7324,-1,-1,0
-162.16,4.23,-27.47,596,-3803,7320,-1,-1,0
-162.16,4.23,-27.47,595,-3806,7317,-1,-1,-1
-162.16,4.23,-27.47,598,-3807,7317,0,-1,0
-162.16,4.24,-27.47,610,-3804,7313,0,-1,0
-162.16,4.24,-27.47,618,-3798,7322,0,0,0
-162.16,4.24,-27.47,617,-3791,7314,-1,0,0
-162.17,4.23,-27.47,611,-3793,7323,-1,0,0
-162.17,4.22,-27.47,594,-3787,7330,-1,0,0
-162.17,4.22,-27.48,584,-3785,7321,-1,-1,0
-162.17,4.22,-27.49,585,-3792,7321,-1,-1,0
-162.18,4.23,-27.50,588,-3805,7315,-1,-1,-1
-162.17,4.23,-27.50,599,-3814,7307,-1,-1,-1
-162.17,4.24,-27.50,606,-3811,7305,0,-1,-1
-162.16,4.25,-27.50,616,-3811,7305,0,-1,-1
-162.17,4.25,-27.49,620,-3806,7307,0,-1,0
-162.17,4.25,-27.49,616,-3805,7318,0,0,0
-162.17,4.24,-27.49,604,-3791,7313,-1,0,0
-162.17,4.24,-27.49,601,-3785,7317,-1,0,0
-162.17,4.24,-27.49,597,-3786,7311,-1,-1,0
-162.17,4.25,-27.50,597,-3799,7306,-1,-1,-1
-162.18,4.25,-27.51,596,-3810,7309,-1,-1,0
-162.18,4.25,-27.51,598,-3805,7307,-1,-1,-1
-162.18,4.25,-27.52,604,-3812,7303,-1,-1,0
-162.18,4.26,-27.52,609,-3817,7307,0,-1,-1
-162.18,4.25,-27.51,612,-3810,7313,0,0,-1
-162.18,4.25,-27.51,609,-3805,7319,0,-1,0
-162.18,4.25,-27.51,613,-3806,7313,-1,-1,0
-162.18,4.25,-27.51,613,-3802,7318,0,0,0
-162.18,4.25,-27.51,608,-3798,7312,-1,-1,0
-162.18,4.25,-27.51,599,-3793,7304,-1,-1,0
-162.18,4.25,-27.51,604,-3805,7308,-1,-1,0
-162.18,4.25,-27.51,608,-3814,7312,0,0,0
-162.18,4.25,-27.51,607,-3808,7321,0,0,0
-162.18,4.25,-27.50,603,-3812,7320,0,-1,0
-162.18,4.25,-27.50,603,-3815,7319,0,0,0
-162.18,4.24,-27.49,601,-3812,7314,0,0,-1
-162.18,4.24,-27.48,602,-3810,7318,0,-1,-1
-162.18,4.24,-27.47,603,-3800,7333,0,-1,-1
-162.18,4.24,-27.47,605,-3797,7331,0,0,0
-162.18,4.24,-27.47,609,-3800,7327,0,0,-1
-162.18,4.25,-27.47,612,-3804,7331,-1,-1,0
-162.18,4.25,-27.47,610,-3798,7319,-1,-1,0
-162.18,4.25,-27.46,613,-3797,7317,0,-1,0
-162.18,4.25,-27.46,608,-3802,7317,0,-1,0
-162.18,4.25,-27.46,606,-3811,7310,0,-1,0
-162.18,4.24,-27.46,610,-3806,7303,0,-1,0
-162.18,4.24,-27.46,606,-3798,7306,0,-1,-1
-162.18,4.25,-27.45,607,-3798,7304,0,-1,0
-162.17,4.24,-27.46,602,-3802,7314,0,0,-1
-162.17,4.24,-27.45,598,-3795,7314,0,-1,0
-162.17,4.24,-27.44,598,-3795,7315,0,0,-1
-162.17,4.24,-27.44,596,-3796,7307,0,0,-1
-162.17,4.24,-27.44,601,-3795,7317,0,0,-1
-162.17,4.24,-27.43,598,-3791,7318,0,-1,-1
-162.17,4.24,-27.44,597,-3793,7315,-1,-1,0
-162.17,4.24,-27.44,602,-3810,7316,0,-1,0
-162.17,4.24,-27.44,603,-3804,7318,0,0,-1
-162.17,4.24,-27.43,613,-3799,7337,0,0,-1
-162.17,4.24,-27.42,615,-3787,7336,0,0,0
-162.17,4.24,-27.42,613,-3785,7332,0,0,0
-162.17,4.23,-27.41,601,-3778,7329,0,0,0
-162.17,4.23,-27.41,592,-3780,7319,-1,0,0
-162.18,4.23,-27.42,589,-3790,7307,-1,-1,0
-162.17,4.23,-27.43,598,-3806,7311,-1,-1,-1
-162.17,4.24,-27.43,603,-3811,7318,0,-1,-1
-162.17,4.24,-27.44,606,-3805,7313,0,-1,-1
-162.17,4.24,-27.43,620,-3806,7307,0,-1,-1
-162.17,4.24,-27.43,614,-3807,7303,0,0,0
-162.16,4.24,-27.42,610,-3788,7314,0,0,0
-162.17,4.23,-27.41,609,-3774,7316,0,0,0
-162.17,4.23,-27.41,601,-3781,7329,0,0,0
-162.17,4.23,-27.41,594,-3788,7337,0,0,0
-162.17,4.22,-27.41,589,-3789,7328,-1,-1,-1
-162.17,4.23,-27.41,586,-3793,7315,-1,-1,-1
-162.17,4.23,-27.42,594,-3797,7314,-1,-1,-1
-162.17,4.23,-27.42,605,-3804,7313,0,-1,-1
-162.17,4.24,-27.43,610,-3806,7301,0,0,-1
-162.17,4.23,-27.43,612,-3803,7301,0,0,-1
-162.17,4.23,-27.42,606,-3800,7309,0,0,0
-162.17,4.22,-27.42,599,-3796,7318,0,0,-1
-162.17,4.23,-27.41,598,-3791,7325,0,-1,-1
-162.16,4.23,-27.41,607,-3789,7317,-1,-1,0
-162.16,4.23,-27.41,616,-3786,7320,-1,-1,0
-162.16,4.23,-27.42,616,-3794,7317,-1,0,0
-162.16,4.23,-27.42,612,-3793,7320,-1,0,0
-162.17,4.22,-27.43,601,-3803,7323,-1,0,0
-162.17,4.22,-27.43,598,-3797,7325,0,0,0
-162.18,4.21,-27.43,596,-3797,7326,-1,0,0
-162.17,4.21,-27.42,588,-3795,7326,-1,0,0
-162.18,4.21,-27.43,589,-3792,7321,-1,-1,-1
-162.18,4.21,-27.43,591,-3792,7305,-1,-1,0
-162.18,4.20,-27.43,593,-3797,7314,0,0,-1
-162.18,4.20,-27.43,596,-3793,7323,-1,0,-1
-162.18,4.20,-27.43,593,-3791,7320,-1,-1,0
-162.18,4.20,-27.43,594,-3791,7316,-1,-1,-1
-162.18,4.20,-27.44,594,-3800,7311,-1,-1,0
-162.18,4.20,-27.44,594,-3788,7311,-1,-1,-1
-162.18,4.20,-27.44,596,-3796,7316,0,-1,-1
-162.18,4.20,-27.44,600,-3804,7320,-1,-1,0
-162.18,4.20,-27.44,595,-3807,7321,-1,0,0
-162.18,4.20,-27.44,602,-3801,7314,0,0,-1
-162.18,4.20,-27.44,594,-3797,7316,-1,0,0
-162.18,4.20,-27.44,595,-3798,7312,-1,0,-1
-162.18,4.19,-27.44,596,-3793,7321,-1,-1,0
-162.18,4.19,-27.44,595,-3788,7319,-1,-1,0
-162.18,4.19,-27.44,604,-3789,7317,-1,0,0
-162.18,4.19,-27.44,601,-3798,7321,-1,-1,0
-162.18,4.19,-27.45,598,-3799,7323,-1,-1,0
-162.18,4.19,-27.45,595,-3794,7314,-1,-1,0
-162.19,4.19,-27.45,591,-3793,7315,-1,-1,0
-162.19,4.20,-27.46,594,-3803,7311,0,-1,0
-162.19,4.20,-27.46,595,-3818,7301,0,-1,-1
-162.18,4.20,-27.45,600,-3807,7325,0,-1,-1
-162.18,4.20,-27.45,593,-3797,7326,0,-1,-1
-162.18,4.20,-27.45,590,-3796,7325,0,-1,-1
-162.18,4.21,-27.45,595,-3795,7310,0,-1,-1
-162.18,4.21,-27.44,602,-3799,7316,0,-1,-1
-162.18,4.22,-27.44,609,-3795,7319,0,-1,0
-162.18,4.23,-27.44,617,-3801,7323,0,-1,0
-162.18,4.23,-27.43,617,-3791,7337,0,0,0
-162.18,4.23,-27.43,604,-3788,7333,0,0,0
-162.18,4.22,-27.43,597,-3778,7329,-1,0,0
-162.18,4.22,-27.43,590,-3781,7324,-1,-1,0
-162.19,4.22,-27.44,587,-3794,7323,-1,-1,0
-162.18,4.23,-27.44,586,-3805,7313,-1,-1,-1
-162.18,4.23,-27.45,595,-3809,7311,0,-1,-1
-162.18,4.24,-27.45,601,-3818,7310,0,-1,-1
-162.18,4.24,-27.45,613,-3820,7313,0,-1,-1
-162.18,4.25,-27.44,613,-3808,7307,0,-1,0
-162.18,4.25,-27.43,616,-3799,7315,0,0,0
-162.18,4.24,-27.42,610,-3790,7330,0,-1,0
-180.00,-0.04,-0.83,-1,-1,-1,-1,-1,-1
-162.19,4.24,-27.41,595,-3776,7333,-1,-1,0
-162.19,4.24,-27.41,597,-3774,7331,-1,-1,0
-162.19,4.24,-27.42,603,-3787,7329,-1,-1,0
-162.19,4.25,-27.43,605,-3787,7311,-1,-1,0
-162.19,4.25,-27.43,608,-3805,7325,-1,-1,-1
-162.19,4.26,-27.43,603,-3807,7328,0,-1,0
-162.19,4.26,-27.43,594,-3802,7321,0,-1,-1
-162.19,4.26,-27.43,590,-3802,7311,0,-1,-1
-162.19,4.26,-27.43,597,-3794,7304,0,-1,-1
-162.19,4.26,-27.42,604,-3795,7314,0,-1,-1
-162.19,4.26,-27.42,613,-3785,7317,0,-1,0
-162.19,4.27,-27.41,620,-3780,7320,-1,-1,0
-162.19,4.27,-27.41,612,-3779,7329,0,-1,0
-162.19,4.26,-27.41,599,-3778,7322,-1,-1,0
-162.19,4.26,-27.41,607,-3782,7319,-1,-1,0
-162.19,4.27,-27.42,606,-3785,7318,-1,-1,0
-162.20,4.26,-27.42,608,-3801,7321,-1,-1,-1
-162.20,4.26,-27.42,608,-3797,7319,0,-1,-1
-162.20,4.26,-27.42,611,-3794,7322,0,0,0
-162.20,4.26,-27.42,610,-3798,7320,0,-1,-1
-162.20,4.26,-27.42,605,-3795,7314,0,-1,-1
-162.20,4.27,-27.42,610,-3794,7313,0,-1,0
-162.20,4.27,-27.42,602,-3789,7317,-1,-1,-1
-162.20,4.27,-27.42,600,-3790,7315,-1,-1,-1
-162.20,4.27,-27.42,606,-3786,7316,-1,-1,0
-162.20,4.26,-27.42,610,-3794,7325,-1,0,0
-162.20,4.26,-27.42,604,-3789,7322,-1,0,0
-162.20,4.26,-27.42,590,-3784,7312,-1,-1,-1
-162.20,4.27,-27.42,603,-3795,7311,-1,-1,0
-162.20,4.27,-27.42,603,-3796,7317,0,0,0
-162.21,4.26,-27.42,609,-3798,7314,-1,-1,0
-162.20,4.26,-27.42,611,-3792,7311,0,0,-1
-162.20,4.26,-27.42,610,-3795,7319,0,-1,0
-162.20,4.26,-27.42,600,-3796,7313,0,-1,-1
-162.20,4.26,-27.42,617,-3791,7311,0,0,0
-162.20,4.26,-27.42,614,-3787,7315,-1,0,0
-162.20,4.26,-27.42,610,-3787,7318,-1,0,0
-162.21,4.25,-27.43,601,-3792,7319,-1,0,0
-162.21,4.25,-27.43,601,-3793,7313,-1,-1,0
-162.22,4.25,-27.44,603,-3793,7316,-1,-1,0
-162.22,4.25,-27.44,600,-3792,7311,-1,-1,0
-162.22,4.25,-27.45,596,-3793,7301,-1,-1,-1
-162.22,4.25,-27.45,599,-3800,7305,0,-1,-1
-162.22,4.25,-27.45,596,-3798,7307,0,0,-1
-162.22,4.25,-27.45,594,-3798,7303,0,-1,-1
-162.22,4.25,-27.45,604,-3799,7314,0,-1,-1
-162.22,4.26,-27.45,617,-3802,7321,0,-1,-1
-162.21,4.27,-27.45,619,-3791,7317,0,-1,-1
-162.21,4.26,-27.44,621,-3790,7322,-1,-1,0
-162.22,4.26,-27.44,611,-3789,7323,-1,0,0
-162.22,4.26,-27.45,605,-3783,7320,-1,0,0
-162.22,4.25,-27.45,593,-3786,7325,-1,0,0
-162.23,4.25,-27.46,582,-3796,7314,-1,-1,0
-162.23,4.25,-27.47,587,-3806,7311,-1,-1,-1
-162.23,4.26,-27.48,590,-3809,7310,-1,-1,0
-162.23,4.26,-27.48,604,-3808,7298,-1,-1,-1
-162.22,4.26,-27.49,614,-3814,7306,0,-1,0
-162.22,4.27,-27.48,618,-3814,7299,0,-1,0
-162.22,4.26,-27.48,616,-3808,7319,0,0,0
-162.23,4.26,-27.47,611,-3789,7322,0,0,0
-162.23,4.25,-27.46,602,-3783,7330,-1,0,0
-162.23,4.25,-27.47,595,-3786,7330,-1,-1,0
-162.24,4.25,-27.48,599,-3782,7326,-1,-1,0
-162.24,4.25,-27.48,608,-3787,7325,-1,-1,0
-162.25,4.26,-27.49,614,-3801,7330,-1,-1,0
-162.25,4.26,-27.50,613,-3809,7320,-1,0,0
-162.25,4.25,-27.50,609,-3813,7305,-1,0,0
-162.25,4.25,-27.50,600,-3810,7310,0,0,-1
-162.25,4.25,-27.50,596,-3809,7318,-1,0,0
-162.25,4.25,-27.51,605,-3808,7315,-1,-1,0
-162.25,4.25,-27.51,605,-3802,7314,-1,-1,0
-162.25,4.27,-27.50,621,-3797,7313,-1,-1,0
-162.25,4.27,-27.51,624,-3798,7317,-1,-1,0
-162.26,4.27,-27.52,621,-3802,7310,-1,-1,0
-162.26,4.27,-27.53,618,-3804,7313,-1,-1,0
-162.27,4.27,-27.53,604,-3812,7304,-1,-1,0
-162.27,4.27,-27.53,598,-3809,7314,-1,-1,0
-162.27,4.27,-27.54,599,-3811,7312,-1,-1,0
-162.27,4.27,-27.54,601,-3809,7303,-1,-1,0
-162.27,4.27,-27.55,603,-3809,7305,-1,-1,0
-162.27,4.27,-27.55,607,-3807,7314,-1,-1,0
-162.28,4.27,-27.55,607,-3812,7305,-1,-1,0
-162.28,4.27,-27.55,602,-3812,7316,-1,-1,0
-162.28,4.27,-27.55,597,-3807,7320,-1,0,0
-162.28,4.27,-27.55,604,-3808,7312,-1,0,0
-162.29,4.27,-27.55,610,-3808,7313,-1,0,0
-162.29,4.27,-27.55,605,-3810,7320,0,0,0
-162.29,4.26,-27.55,612,-3808,7325,0,0,0
-162.29,4.26,-27.54,604,-3806,7322,0,0,-1
-162.29,4.26,-27.54,603,-3813,7319,0,-1,-1
-162.29,4.26,-27.54,600,-3810,7312,0,0,-1
-162.28,4.26,-27.53,606,-3799,7317,0,0,-1
-162.28,4.26,-27.52,605,-3799,7309,0,-1,0
-162.28,4.26,-27.52,599,-3799,7306,0,0,-1
-162.28,4.25,-27.51,604,-3794,7305,0,0,-1
-162.28,4.25,-27.51,603,-3807,7315,0,0,-1
-162.28,4.25,-27.50,604,-3809,7326,0,-1,-1
-162.28,4.25,-27.50,598,-3808,7322,-1,-1,-1
-162.28,4.25,-27.50,599,-3805,7319,0,-1,-1
-162.27,4.25,-27.49,608,-3805,7320,0,0,-1
-162.27,4.25,-27.49,604,-3811,7321,-1,0,-1
-162.27,4.25,-27.49,597,-3810,7319,0,0,-1
-162.27,4.24,-27.49,597,-3814,7313,0,-1,0
-162.27,4.25,-27.48,601,-3812,7313,0,-1,-1
-162.27,4.25,-27.47,601,-3805,7321,0,-1,-1
-162.27,4.25,-27.47,603,-3809,7330,0,0,0
-162.27,4.25,-27.46,605,-3802,7325,0,0,-1
-162.27,4.24,-27.46,607,-3793,7321,-1,0,0
-162.27,4.24,-27.46,596,-3791,7311,-1,-1,0
-162.28,4.24,-27.47,588,-3797,7305,-1,0,0
-162.28,4.23,-27.47,593,-3801,7302,-1,-1,0
-162.28,4.24,-27.48,591,-3806,7312,-1,-1,-1
-162.28,4.24,-27.49,595,-3819,7306,0,-1,-1
-162.28,4.25,-27.48,611,-3822,7307,0,-1,-1
-162.27,4.26,-27.47,611,-3805,7311,0,-1,-1
-162.27,4.25,-27.46,615,-3802,7305,0,0,-1
-162.27,4.25,-27.45,612,-3788,7311,0,0,-1
-162.26,4.25,-27.45,615,-3784,7316,0,0,0
-162.26,4.25,-27.45,610,-3786,7315,0,0,0
-162.27,4.25,-27.45,602,-3792,7313,-1,0,0
-162.27,4.25,-27.45,598,-3793,7309,-1,-1,-1
-162.27,4.25,-27.46,602,-3800,7296,-1,-1,-1
-162.27,4.25,-27.46,602,-3807,7296,0,-1,-1
-162.27,4.25,-27.46,607,-3804,7306,-1,-1,-1
-162.27,4.25,-27.46,609,-3807,7310,0,-1,-1
-162.26,4.26,-27.45,612,-3802,7317,0,0,-1
-162.26,4.25,-27.45,613,-3800,7325,0,0,-1
-162.26,4.26,-27.45,617,-3795,7323,0,-1,-1
-162.26,4.26,-27.44,620,-3788,7324,-1,0,0
-162.26,4.26,-27.45,612,-3796,7324,-1,0,0
-162.26,4.25,-27.45,609,-3798,7314,-1,0,0
-162.27,4.25,-27.45,606,-3803,7311,-1,0,0
-162.27,4.25,-27.46,611,-3801,7316,-1,0,0
-162.27,4.24,-27.46,606,-3803,7318,-1,0,0
-162.27,4.24,-27.46,601,-3804,7319,0,0,0
-162.28,4.23,-27.45,597,-3799,7323,0,0,0
-162.28,4.23,-27.45,601,-3794,7323,0,0,0
-162.28,4.23,-27.44,599,-3792,7314,0,-1,0
-162.28,4.23,-27.44,598,-3799,7322,0,-1,-1
-162.27,4.23,-27.44,590,-3793,7330,0,-1,-1
-162.28,4.23,-27.44,596,-3800,7324,-1,-1,-1
-162.28,4.23,-27.44,598,-3796,7312,-1,-1,-1
-162.28,4.23,-27.44,601,-3800,7312,0,0,0
-162.27,4.23,-27.45,610,-3798,7308,-1,0,0
-162.28,4.23,-27.45,606,-3804,7307,-1,0,0
-162.28,4.23,-27.45,599,-3798,7311,0,0,0
-162.28,4.23,-27.45,598,-3795,7327,-1,0,0
-162.28,4.23,-27.45,600,-3790,7330,-1,-1,0
-162.28,4.23,-27.45,600,-3800,7327,-1,-1,0
-162.28,4.23,-27.45,592,-3806,7324,0,-1,-1
-162.28,4.23,-27.45,595,-3791,7326,0,-1,0
-162.28,4.22,-27.45,603,-3794,7328,-1,0,0
-162.28,4.22,-27.44,604,-3796,7323,0,0,0
-162.28,4.22,-27.45,603,-3799,7323,0,0,0
-162.28,4.22,-27.45,597,-3797,7312,0,0,0
-162.28,4.21,-27.44,607,-3797,7322,0,-1,0
-162.28,4.22,-27.44,613,-3791,7324,0,0,0
-162.28,4.22,-27.43,614,-3786,7320,-1,0,0
-162.28,4.22,-27.43,614,-3779,7328,-1,0,0
-162.28,4.20,-27.44,596,-3769,7318,-1,0,0
-162.29,4.20,-27.45,584,-3784,7311,-1,0,0
-162.29,4.19,-27.45,585,-3793,7320,-1,-1,0
-162.29,4.19,-27.46,583,-3798,7321,-1,-1,-1
-162.29,4.19,-27.46,590,-3806,7321,-1,-1,-1
-162.28,4.20,-27.46,598,-3808,7305,0,-1,-1
-162.28,4.20,-27.46,598,-3807,7309,0,0,-1
-162.28,4.20,-27.45,604,-3801,7310,0,0,0
-162.28,4.19,-27.44,607,-3798,7320,0,0,0
-162.28,4.19,-27.44,602,-3791,7330,0,0,0
-162.29,4.18,-27.44,588,-3790,7337,0,0,0
-162.29,4.18,-27.44,580,-3784,7333,-1,-1,0
-162.29,4.18,-27.44,584,-3788,7326,-1,-1,0
-162.29,4.18,-27.44,584,-3795,7320,-1,-1,-1
-162.29,4.18,-27.45,586,-3806,7307,-1,-1,0
-162.29,4.19,-27.45,593,-3820,7309,0,-1,0
-162.29,4.19,-27.45,602,-3816,7308,0,0,0
-162.29,4.18,-27.44,604,-3802,7318,0,0,-1
-162.29,4.18,-27.43,596,-3788,7336,0,0,-1
-162.29,4.18,-27.42,590,-3786,7332,0,-1,-1
-162.29,4.18,-27.42,594,-3783,7324,-1,-1,-1
-162.28,4.19,-27.43,600,-3786,7330,-1,-1,0
-162.28,4.19,-27.43,601,-3791,7319,-1,-1,0
-162.28,4.20,-27.43,603,-3797,7329,-1,-1,-1
-162.28,4.20,-27.43,604,-3802,7330,0,-1,0
-162.28,4.20,-27.43,595,-3799,7315,0,-1,-1
-162.28,4.21,-27.43,593,-3803,7307,0,-1,-1
-162.28,4.21,-27.43,598,-3808,7300,0,-1,-1
-162.28,4.21,-27.43,601,-3798,7305,0,-1,0
-162.28,4.21,-27.43,594,-3801,7303,0,-1,0
-162.28,4.21,-27.42,607,-3798,7316,0,0,0
-162.28,4.21,-27.41,606,-3793,7324,0,0,0
-162.28,4.21,-27.41,603,-3787,7327,-1,-1,0
-162.28,4.21,-27.41,609,-3787,7317,-1,0,0
-162.28,4.21,-27.42,602,-3791,7312,-1,-1,0
-162.29,4.21,-27.42,603,-3800,7315,0,0,0
-162.29,4.21,-27.42,608,-3795,7303,0,0,0
-162.29,4.20,-27.41,605,-3795,7313,0,0,-1
-162.28,4.20,-27.41,600,-3801,7329,-1,0,0
-162.29,4.20,-27.41,593,-3797,7319,-1,0,0
-162.29,4.19,-27.41,596,-3803,7313,0,0,-1
-162.28,4.19,-27.41,602,-3799,7318,0,0,-1
-162.28,4.18,-27.41,594,-3791,7331,-1,-1,0
-162.28,4.19,-27.41,597,-3794,7335,0,-1,-1
-162.28,4.19,-27.40,599,-3800,7338,0,0,-1
-162.28,4.18,-27.40,602,-3791,7324,-1,0,0
-162.28,4.18,-27.39,605,-3784,7322,0,0,0
-162.29,4.18,-27.39,596,-3780,7319,-1,-1,0
-162.29,4.18,-27.39,589,-3776,7332,-1,-1,0
-162.29,4.19,-27.40,591,-3785,7329,-1,-1,0
-162.29,4.20,-27.41,590,-3800,7317,-1,-1,-1
-162.28,4.20,-27.41,604,-3811,7303,0,-1,-1
-162.28,4.21,-27.41,617,-3802,7318,0,-1,-1
-162.28,4.21,-27.40,623,-3789,7325,0,0,0
-162.28,4.21,-27.40,617,-3780,7311,-1,0,0
-162.28,4.20,-27.41,608,-3781,7310,-1,0,0
-162.29,4.20,-27.41,591,-3785,7308,-1,-1,0
-162.29,4.20,-27.42,581,-3801,7310,-1,-1,-1
-162.29,4.20,-27.42,586,-3800,7314,-1,-1,-1
-162.29,4.21,-27.43,601,-3810,7320,-1,-1,-1
-162.29,4.22,-27.43,621,-3807,7318,0,-1,-1
-162.28,4.23,-27.43,632,-3804,7311,0,-1,0
-162.28,4.23,-27.43,632,-3799,7311,0,0,0
-162.28,4.23,-27.42,620,-3797,7315,0,0,0
-162.29,4.22,-27.42,609,-3790,7319,0,0,0
-162.29,4.21,-27.42,597,-3786,7318,-1,0,0
-162.29,4.21,-27.42,586,-3783,7315,-1,-1,0
-162.29,4.21,-27.42,588,-3788,7313,-1,-1,-1
-162.29,4.22,-27.43,596,-3791,7309,-1,-1,-1
-162.29,4.23,-27.44,600,-3796,7300,-1,-1,0
-162.29,4.23,-27.44,604,-3794,7306,0,-1,0
-162.29,4.23,-27.43,612,-3796,7307,0,0,0
-162.29,4.22,-27.42,597,-3794,7320,0,0,0
-162.29,4.22,-27.42,594,-3794,7335,-1,-1,-1
-162.29,4.22,-27.42,602,-3797,7336,-1,-1,0
-162.29,4.22,-27.42,612,-3792,7328,0,-1,-1
-162.29,4.23,-27.42,615,-3792,7324,-1,-1,0
-162.29,4.23,-27.43,615,-3792,7318,-1,-1,0
-162.29,4.23,-27.43,611,-3796,7316,-1,0,0
-162.30,4.22,-27.44,608,-3799,7308,-1,-1,0
-162.30,4.22,-27.44,603,-3798,7311,-1,0,0
-162.30,4.23,-27.44,603,-3798,7309,-1,-1,0
-162.30,4.23,-27.44,613,-3810,7317,0,0,-1
-162.30,4.22,-27.44,614,-3798,7317,0,-1,0
-162.30,4.22,-27.44,601,-3789,7309,-1,-1,-1
-162.29,4.23,-27.44,607,-3785,7304,-1,-1,-1
-162.29,4.23,-27.44,614,-3789,7321,-1,-1,-1
-162.29,4.23,-27.44,610,-3795,7319,-1,0,0
-162.29,4.23,-27.45,617,-3805,7323,-1,-1,0
-162.29,4.23,-27.46,611,-3816,7321,-1,-1,0
-162.30,4.23,-27.46,604,-3812,7317,0,-1,0
-162.30,4.23,-27.46,602,-3806,7315,-1,-1,0
-162.30,4.23,-27.46,608,-3800,7315,0,-1,0
-162.30,4.23,-27.46,602,-3803,7317,0,0,0
-162.30,4.23,-27.46,605,-3804,7328,0,0,-1
-162.30,4.23,-27.45,605,-3798,7329,0,0,0
-162.30,4.23,-27.45,604,-3792,7325,-1,-1,0
-162.30,4.23,-27.46,604,-3798,7319,-1,-1,0
-162.31,4.24,-27.46,604,-3795,7321,-1,-1,0
-162.31,4.24,-27.46,608,-3797,7316,-1,-1,0
-162.31,4.24,-27.47,613,-3794,7308,-1,0,0
-162.31,4.24,-27.47,612,-3798,7316,-1,0,0
-162.32,4.23,-27.48,610,-3793,7325,-1,0,0
-162.32,4.23,-27.49,603,-3805,7309,-1,-1,0
-162.32,4.23,-27.49,596,-3810,7300,-1,-1,0
-162.33,4.23,-27.49,597,-3810,7302,0,-1,0
-162.33,4.24,-27.49,604,-3814,7316,0,-1,0
-162.33,4.24,-27.49,623,-3813,7313,-1,0,0
-162.33,4.24,-27.49,628,-3810,7329,-1,0,0
-162.33,4.23,-27.49,619,-3799,7319,-1,0,0
-162.34,4.22,-27.50,608,-3804,7324,-1,0,0
-162.35,4.22,-27.50,601,-3805,7326,-1,-1,0
-162.36,4.21,-27.51,588,-3804,7323,-1,0,0
-162.36,4.21,-27.52,584,-3799,7307,-1,-1,0
-162.36,4.21,-27.53,596,-3816,7294,-1,-1,0
-162.36,4.22,-27.54,605,-3821,7304,-1,-1,0
-162.36,4.22,-27.55,621,-3821,7310,0,-1,0
-162.36,4.22,-27.55,625,-3818,7300,0,0,0
-162.36,4.22,-27.54,615,-3811,7301,0,0,0
-162.36,4.21,-27.53,603,-3807,7303,0,0,0
-162.36,4.20,-27.53,592,-3798,7317,-1,0,0
-162.36,4.20,-27.53,588,-3798,7320,-1,-1,0
-162.37,4.20,-27.54,587,-3797,7320,-1,-1,-1
-162.37,4.21,-27.54,589,-3810,7324,-1,0,0
-162.37,4.20,-27.54,601,-3821,7313,0,0,0
-162.37,4.20,-27.54,613,-3825,7309,0,0,-1
-162.36,4.20,-27.53,606,-3820,7318,0,0,-1
-162.36,4.19,-27.52,592,-3820,7309,0,0,-1
-162.36,4.18,-27.51,588,-3818,7317,0,0,-1
-162.35,4.18,-27.50,584,-3815,7320,0,0,-1
-162.35,4.19,-27.49,592,-3806,7331,0,-1,-1
-162.34,4.20,-27.48,604,-3805,7328,0,-1,-1
-162.34,4.20,-27.48,608,-3804,7322,0,-1,-1
-162.34,4.20,-27.48,605,-3802,7316,0,-1,0
-162.34,4.20,-27.48,606,-3803,7306,0,0,0
-162.34,4.20,-27.48,606,-3804,7304,0,0,0
-162.34,4.20,-27.47,602,-3807,7303,0,-1,0
-162.34,4.20,-27.46,592,-3812,7308,0,-1,-1
-162.34,4.20,-27.46,591,-3801,7310,0,-1,-1
-162.33,4.21,-27.45,589,-3792,7316,0,-1,-1
179.96,113.12,-179.20,-1,-1,-1,-1,-1,-1
-162.32,4.21,-27.45,610,-3785,7308,0,0,-1
-162.32,4.21,-27.44,615,-3784,7308,0,-1,-1
-162.32,4.22,-27.44,617,-3789,7314,-1,-1,0
-162.32,4.22,-27.44,618,-3801,7321,0,-1,0
-162.32,4.22,-27.44,615,-3800,7320,0,-1,0
-162.32,4.22,-27.44,608,-3802,7325,0,0,-1
-162.32,4.22,-27.43,610,-3802,7322,0,0,-1
-162.31,4.21,-27.43,608,-3807,7326,0,0,-1
-162.31,4.21,-27.42,610,-3797,7315,0,0,-1
-162.31,4.21,-27.42,606,-3782,7320,0,0,0
-162.31,4.21,-27.42,607,-3782,7323,-1,0,0
-162.31,4.20,-27.42,602,-3801,7333,-1,0,0
-162.31,4.21,-27.43,606,-3804,7331,-1,0,0
-162.31,4.21,-27.43,605,-3803,7332,0,0,0
-162.31,4.20,-27.42,597,-3797,7325,0,0,0
-162.31,4.21,-27.43,598,-3807,7315,-1,-1,0
-162.31,4.20,-27.42,603,-3801,7319,0,0,-1
-162.31,4.20,-27.42,611,-3793,7322,-1,0,0
-162.31,4.20,-27.42,610,-3799,7321,-1,0,0
-162.31,4.20,-27.42,600,-3798,7313,-1,-1,0
-162.31,4.20,-27.42,597,-3810,7319,0,0,-1
-162.31,4.20,-27.41,604,-3801,7333,0,0,-1
-162.30,4.20,-27.40,598,-3796,7339,-1,0,-1
-162.30,4.20,-27.41,603,-3793,7327,-1,0,0
-162.31,4.19,-27.41,610,-3790,7310,-1,0,0
-162.31,4.19,-27.41,603,-3789,7316,-1,-1,0
-162.31,4.19,-27.42,594,-3788,7310,-1,0,0
-162.32,4.19,-27.43,582,-3800,7318,-1,-1,0
-162.32,4.19,-27.44,598,-3816,7326,-1,-1,-1
-162.31,4.19,-27.43,600,-3819,7312,0,-1,-1
-162.31,4.20,-27.43,601,-3814,7307,0,0,-1
-162.30,4.20,-27.43,606,-3805,7311,0,0,-1
-162.30,4.19,-27.42,615,-3798,7311,0,0,-1
-162.30,4.19,-27.41,622,-3787,7324,0,0,0
-162.30,4.18,-27.40,605,-3784,7326,0,0,0
-162.30,4.17,-27.40,591,-3777,7331,-1,0,0
-162.31,4.16,-27.40,594,-3782,7338,-1,0,0
-162.31,4.17,-27.41,583,-3784,7332,-1,0,0
-162.31,4.17,-27.41,584,-3781,7324,-1,-1,-1
-162.31,4.17,-27.42,600,-3790,7314,-1,-1,0
-162.31,4.17,-27.42,610,-3802,7317,-1,0,-1
-162.31,4.16,-27.42,606,-3804,7322,0,0,0
-162.31,4.16,-27.42,603,-3800,7305,0,0,0
-162.31,4.15,-27.42,598,-3806,7332,0,0,0
-162.31,4.15,-27.41,590,-3805,7341,0,0,0
-162.31,4.14,-27.41,579,-3797,7328,-1,-1,-1
-162.30,4.15,-27.41,587,-3787,7326,-1,-1,-1
-162.30,4.15,-27.41,596,-3792,7328,-1,-1,0
-162.30,4.15,-27.41,607,-3790,7320,-1,0,0
-162.30,4.15,-27.42,599,-3788,7318,-1,0,0
-162.31,4.14,-27.42,590,-3794,7317,-1,0,0
-162.31,4.13,-27.42,582,-3806,7316,0,0,0
-162.31,4.13,-27.42,590,-3801,7327,0,0,0
-162.31,4.13,-27.42,589,-3797,7322,-1,0,0
-162.32,4.13,-27.42,587,-3791,7329,-1,0,0
-162.32,4.13,-27.42,592,-3785,7326,0,-1,0
-162.32,4.12,-27.41,595,-3786,7325,0,0,0
-162.32,4.12,-27.41,600,-3787,7327,-1,0,0
-162.32,4.13,-27.42,598,-3790,7330,-1,0,0
-162.32,4.12,-27.42,589,-3792,7330,-1,0,0
-162.32,4.11,-27.42,584,-3792,7324,-1,0,0
-162.32,4.11,-27.42,581,-3793,7313,-1,0,0
-162.32,4.11,-27.43,586,-3798,7308,-1,-1,0
-162.32,4.11,-27.43,588,-3801,7309,-1,0,0
-162.32,4.11,-27.43,589,-3804,7308,0,0,-1
-162.32,4.11,-27.42,594,-3799,7303,0,0,0
-162.31,4.11,-27.42,589,-3793,7315,-1,0,-1
-162.31,4.11,-27.43,587,-3797,7309,-1,-1,-1
-162.31,4.11,-27.43,591,-3801,7313,-1,-1,0
-162.31,4.11,-27.43,590,-3794,7303,0,0,-1
-162.31,4.11,-27.43,590,-3797,7310,-1,-1,0
-162.31,4.11,-27.43,593,-3806,7323,0,-1,-1
-162.31,4.11,-27.42,595,-3800,7314,0,0,-1
-162.31,4.10,-27.42,593,-3798,7329,0,0,0
-162.32,4.10,-27.42,595,-3785,7319,-1,-1,0
-162.32,4.10,-27.43,597,-3787,7317,-1,0,0
-162.32,4.10,-27.43,583,-3797,7307,-1,-1,0
-162.32,4.10,-27.43,583,-3806,7309,-1,-1,0
-162.32,4.11,-27.44,584,-3804,7299,-1,0,-1
-162.32,4.11,-27.45,575,-3815,7312,0,-1,-1
-162.32,4.12,-27.45,594,-3819,7311,-1,-1,-1
-162.31,4.12,-27.44,610,-3824,7323,0,-1,0
-162.31,4.13,-27.42,606,-3798,7339,0,-1,0
-162.31,4.14,-27.41,604,-3793,7333,0,-1,0
-162.31,4.14,-27.41,608,-3784,7318,0,-1,0
-162.31,4.14,-27.40,610,-3779,7323,0,0,0
-162.31,4.14,-27.40,610,-3765,7319,-1,-1,0
-162.31,4.14,-27.40,595,-3781,7326,-1,-1,-1
-162.31,4.14,-27.40,592,-3795,7321,-1,-1,0
-162.31,4.15,-27.41,590,-3804,7329,-1,-1,-1
-162.32,4.15,-27.42,590,-3804,7313,-1,-1,-1
-162.32,4.16,-27.43,599,-3804,7305,0,-1,-1
-162.31,4.17,-27.42,593,-3808,7309,0,-1,-1
-162.31,4.17,-27.42,595,-3799,7309,0,-1,0
-162.31,4.16,-27.41,596,-3790,7314,0,-1,0
-162.30,4.17,-27.40,603,-3787,7319,0,0,0
-162.30,4.17,-27.40,604,-3786,7333,0,-1,-1
-162.30,4.17,-27.40,601,-3784,7329,-1,-1,0
-162.31,4.18,-27.40,604,-3784,7324,-1,-1,0
-162.31,4.18,-27.40,606,-3790,7324,-1,-1,0
-162.31,4.18,-27.41,604,-3786,7314,-1,-1,0
-162.31,4.18,-27.41,598,-3793,7321,-1,0,0
-162.31,4.18,-27.41,595,-3796,7319,0,-1,0
-162.31,4.18,-27.41,590,-3794,7318,0,-1,0
-162.32,4.17,-27.40,590,-3792,7322,0,-1,0
-162.32,4.17,-27.40,594,-3790,7319,0,-1,0
-162.32,4.18,-27.40,598,-3800,7313,0,-1,-1
-162.32,4.18,-27.40,605,-3802,7320,0,-1,-1
-162.32,4.18,-27.40,605,-3796,7316,-1,-1,0
-162.31,4.19,-27.40,608,-3796,7326,-1,-1,0
-162.31,4.19,-27.40,604,-3794,7325,-1,-1,0
-162.31,4.19,-27.41,599,-3796,7316,-1,-1,0
-162.31,4.19,-27.41,600,-3796,7322,-1,-1,0
-162.31,4.19,-27.41,598,-3797,7323,0,-1,-1
-162.31,4.19,-27.40,599,-3801,7323,0,-1,-1
