Yaw,Pitch,Roll,AX,AY,AZ,GX,GY,GZ
175.49,1.46,-28.39,207,-3937,7286,-1,-1,0
175.49,1.46,-28.39,213,-3924,7270,0,-1,-1
175.49,1.46,-28.39,208,-3927,7270,0,-1,0
175.49,1.46,-28.38,209,-3927,7277,-1,0,0
175.49,1.46,-28.39,200,-3928,7285,0,-1,0
175.48,1.46,-28.38,210,-3924,7280,-1,-1,0
175.48,1.46,-28.39,200,-3928,7291,-1,-1,0
175.48,1.47,-28.39,205,-3926,7273,-1,-1,0
175.48,1.46,-28.39,206,-3937,7271,-1,-1,0
175.48,1.46,-28.39,215,-3928,7275,-1,-1,0
175.48,1.46,-28.40,218,-3935,7272,-1,0,0
175.48,1.46,-28.40,225,-3934,7280,-1,0,0
175.48,1.46,-28.40,214,-3936,7279,-1,-1,0
175.48,1.46,-28.40,207,-3935,7279,-1,-1,-1
175.47,1.46,-28.40,204,-3933,7285,-1,-1,-1
175.48,1.47,-28.40,209,-3930,7290,-1,0,-1
175.48,1.47,-28.40,214,-3927,7292,-1,0,0
175.48,1.47,-28.41,219,-3927,7270,-1,-1,-1
175.47,1.47,-28.41,216,-3926,7264,-1,-1,0
175.47,1.47,-28.41,214,-3940,7266,0,0,-1
175.47,1.47,-28.41,209,-3935,7269,0,-1,0
175.47,1.47,-28.41,204,-3930,7276,-1,-1,0
175.48,1.48,-28.42,210,-3939,7266,-1,-1,-1
175.48,1.49,-28.42,219,-3940,7281,-1,-1,-1
175.48,1.49,-28.42,230,-3933,7293,-1,-1,0
175.48,1.49,-28.42,220,-3931,7278,-1,0,0
175.47,1.49,-28.42,214,-3936,7270,0,0,0
175.47,1.48,-28.41,217,-3943,7279,0,0,0
175.47,1.47,-28.40,204,-3950,7273,0,0,-1
175.47,1.45,-28.39,190,-3929,7271,0,0,0
175.47,1.45,-28.38,210,-3921,7262,0,0,0
175.48,1.44,-28.37,226,-4024,7205,1,1,-1
175.47,1.39,-28.31,214,-3956,7238,2,1,0
175.46,1.35,-28.26,239,-3876,7247,1,2,0
175.46,1.27,-28.19,185,-3870,7282,1,2,0
175.44,1.22,-28.15,124,-3873,7307,1,1,0
175.42,1.23,-28.14,113,-3815,7372,-2,-3,0
175.40,1.27,-28.17,113,-3840,7361,-1,-3,0
175.38,1.33,-28.20,141,-3776,7362,-4,-4,0
175.36,1.41,-28.29,181,-3742,7329,-5,-3,0
175.34,1.47,-28.42,203,-3872,7315,-5,-4,0
175.34,1.52,-28.53,253,-3986,7278,-3,-2,0
175.35,1.55,-28.61,275,-4033,7244,-2,-1,0
175.36,1.56,-28.65,276,-4031,7237,-1,0,0
175.37,1.55,-28.68,261,-4014,7213,-1,0,-1
175.37,1.54,-28.70,245,-4028,7197,0,0,-1
175.37,1.52,-28.69,207,-4057,7236,0,0,-1
175.38,1.52,-28.67,220,-4023,7248,0,0,-1
175.38,1.51,-28.65,228,-4006,7230,1,0,-1
175.38,1.51,-28.60,211,-3978,7257,1,-1,-1
175.37,1.51,-28.57,219,-3970,7274,1,-1,0
175.37,1.51,-28.54,220,-3973,7273,1,0,-1
175.38,1.50,-28.50,226,-3922,7267,1,0,-1
175.37,1.49,-28.47,218,-3886,7275,0,0,0
175.37,1.49,-28.46,214,-3890,7293,-1,0,-1
175.37,1.49,-28.46,212,-3904,7301,-1,0,-1
175.38,1.49,-28.47,222,-3903,7297,-1,0,-1
175.38,1.49,-28.49,235,-3922,7272,-1,0,-1
175.39,1.49,-28.51,237,-3950,7266,-1,0,-1
175.38,1.48,-28.53,226,-3951,7253,-1,0,0
175.39,1.46,-28.54,217,-3956,7236,-1,0,0
175.38,1.44,-28.55,198,-3953,7248,-1,0,0
175.38,1.44,-28.55,200,-3968,7252,-1,0,0
175.39,1.43,-28.55,198,-3974,7272,0,0,-1
175.38,1.42,-28.53,189,-3967,7272,0,0,-1
175.38,1.43,-28.52,191,-3954,7261,0,0,-1
175.38,1.43,-28.52,203,-3943,7255,0,0,-1
175.39,1.43,-28.49,212,-3927,7266,0,0,-1
175.39,1.42,-28.49,210,-3933,7268,0,0,0
175.39,1.42,-28.48,207,-3927,7277,0,0,-1
175.39,1.42,-28.47,210,-3931,7282,0,0,-1
175.39,1.42,-28.46,211,-3934,7277,0,0,-1
175.39,1.42,-28.46,203,-3933,7274,0,0,-1
175.39,1.41,-28.46,204,-3926,7278,-1,0,-1
175.40,1.41,-28.46,197,-3936,7263,0,0,-1
175.40,1.41,-28.46,194,-3954,7270,0,0,-1
175.40,1.40,-28.45,193,-3955,7262,0,-1,-1
175.41,1.41,-28.44,201,-3949,7265,0,-1,-1
175.42,1.41,-28.43,201,-3954,7271,0,0,-1
175.42,1.42,-28.42,203,-3945,7281,0,0,-1
175.42,1.42,-28.41,205,-3933,7273,0,-1,-1
175.42,1.42,-28.39,214,-3915,7273,0,0,-1
175.43,1.42,-28.38,210,-3908,7272,0,-1,-1
175.42,1.42,-28.38,211,-3907,7269,-1,-1,0
175.42,1.42,-28.38,201,-3928,7294,-1,0,0
175.42,1.42,-28.38,198,-3922,7291,-1,-1,-1
175.42,1.43,-28.38,200,-3906,7281,-1,-1,-1
175.43,1.44,-28.39,205,-3917,7271,-1,-1,-1
175.43,1.44,-28.41,220,-3929,7272,-1,-1,-1
175.43,1.45,-28.41,214,-3945,7261,-1,-1,-1
175.44,1.45,-28.41,215,-3943,7272,0,0,0
175.43,1.44,-28.41,206,-3934,7272,0,0,-1
175.43,1.44,-28.42,202,-3948,7275,-1,0,-1
175.43,1.44,-28.41,205,-3943,7278,0,-1,-1
175.44,1.45,-28.41,212,-3937,7279,0,-1,-1
175.44,1.47,-28.42,213,-3929,7274,-1,-1,0
175.43,1.47,-28.42,215,-3929,7274,0,-1,0
175.43,1.47,-28.41,228,-3925,7284,0,0,0
175.44,1.48,-28.41,220,-3931,7285,-1,-1,-1
175.44,1.48,-28.41,215,-3926,7288,-1,0,0
175.44,1.48,-28.42,211,-3933,7290,-1,-1,-1
175.44,1.48,-28.42,215,-3943,7290,-1,-1,0
175.44,1.48,-28.42,207,-3934,7277,0,-1,-1
175.44,1.48,-28.42,214,-3910,7291,-1,-1,0
175.44,1.49,-28.42,216,-3890,7283,-1,-1,0
175.43,1.50,-28.44,216,-3926,7289,-1,-1,0
175.43,1.51,-28.46,207,-3971,7260,-1,-1,-1
175.44,1.52,-28.47,222,-3990,7232,0,0,-1
175.44,1.51,-28.45,238,-3949,7249,0,0,-1
175.44,1.50,-28.42,218,-3932,7259,0,0,0
175.44,1.49,-28.41,210,-3928,7279,0,0,0
175.44,1.49,-28.39,208,-3943,7284,0,0,-1
175.45,1.48,-28.37,200,-3934,7265,0,0,-1
175.45,1.48,-28.36,196,-3940,7270,0,-1,0
175.45,1.48,-28.34,221,-3926,7269,0,0,0
175.45,1.47,-28.31,217,-3929,7279,1,0,-1
175.44,1.45,-28.28,211,-3886,7280,0,0,-1
175.43,1.45,-28.26,202,-3857,7315,-1,-1,0
175.43,1.45,-28.27,224,-3909,7281,0,0,0
175.43,1.42,-28.26,194,-3929,7308,0,0,-1
175.43,1.42,-28.25,210,-3915,7287,0,0,0
175.43,1.42,-28.24,199,-3925,7262,1,0,-1
175.43,1.40,-28.21,194,-3888,7302,0,0,0
175.43,1.40,-28.21,200,-3887,7279,0,0,-1
175.43,1.39,-28.19,183,-3905,7291,0,-1,-1
175.43,1.39,-28.19,165,-3896,7311,0,-1,-1
175.43,1.41,-28.18,208,-3879,7310,-1,-1,0
175.44,1.41,-28.18,218,-3883,7303,0,0,-1
175.43,1.41,-28.18,215,-3877,7284,-1,0,0
175.43,1.41,-28.19,219,-3888,7287,-1,-1,0
175.43,1.40,-28.20,209,-3911,7283,-1,0,0
175.42,1.39,-28.20,193,-3905,7306,0,0,-1
175.42,1.38,-28.20,178,-3892,7296,-1,-1,0
175.42,1.39,-28.22,180,-3914,7294,-1,-1,-1
175.42,1.39,-28.22,190,-3918,7295,-1,-1,-1
175.43,1.39,-28.22,195,-3919,7285,0,0,-1
175.44,1.39,-28.22,199,-3920,7277,-1,-1,-1
175.45,1.40,-28.22,202,-3912,7276,0,0,-1
175.45,1.40,-28.22,204,-3905,7285,0,-1,-1
175.45,1.41,-28.20,216,-3902,7303,0,-1,-1
175.45,1.41,-28.20,212,-3898,7305,0,0,-1
175.45,1.41,-28.19,205,-3898,7310,-1,0,0
175.45,1.41,-28.19,204,-3896,7305,-1,-1,0
175.45,1.41,-28.19,201,-3904,7303,0,0,0
175.45,1.40,-28.19,190,-3904,7296,-1,0,0
175.44,1.40,-28.19,193,-3899,7294,-1,0,-1
175.45,1.40,-28.19,200,-3898,7292,-1,0,-1
175.45,1.40,-28.19,197,-3907,7288,-1,0,-1
175.46,1.40,-28.20,202,-3908,7287,-1,0,-1
175.46,1.39,-28.20,205,-3905,7286,-1,0,-1
175.46,1.39,-28.20,206,-3908,7280,-1,0,0
175.45,1.39,-28.21,200,-3922,7270,0,0,0
175.45,1.39,-28.20,200,-3915,7279,0,0,-1
175.46,1.37,-28.20,202,-3914,7292,0,0,-1
175.46,1.38,-28.18,200,-3901,7299,0,0,-1
175.46,1.37,-28.18,195,-3893,7301,0,0,-1
175.46,1.37,-28.18,198,-3896,7285,0,0,-1
175.46,1.36,-28.17,194,-3892,7292,0,0,-1
175.46,1.36,-28.16,194,-3885,7307,-1,0,0
175.46,1.36,-28.17,194,-3902,7308,-1,0,-1
175.46,1.36,-28.17,202,-3910,7297,-1,0,0
175.46,1.36,-28.17,197,-3914,7284,0,0,-1
175.47,1.36,-28.17,197,-3912,7280,0,0,-1
175.47,1.36,-28.17,200,-3907,7291,0,0,-1
175.47,1.36,-28.16,196,-3899,7288,0,0,-1
175.46,1.35,-28.16,196,-3903,7295,0,0,0
175.46,1.35,-28.15,202,-3909,7293,0,0,0
175.46,1.35,-28.15,197,-3911,7292,0,0,0
175.47,1.34,-28.15,195,-3899,7300,0,0,-1
175.47,1.34,-28.14,189,-3893,7307,0,0,-1
175.46,1.34,-28.14,185,-3890,7301,0,0,0
175.46,1.34,-28.14,192,-3886,7300,-1,0,0
175.46,1.34,-28.14,190,-3885,7297,-1,0,0
175.46,1.33,-28.13,193,-3881,7288,-1,0,0
175.46,1.33,-28.14,185,-3902,7300,0,0,-1
175.46,1.32,-28.14,184,-3892,7288,0,0,-1
175.46,1.32,-28.14,182,-3890,7290,-1,0,0
175.46,1.32,-28.14,183,-3897,7292,0,0,-1
175.46,1.32,-28.14,197,-3903,7296,0,0,-1
175.47,1.32,-28.13,199,-3898,7301,0,0,0
175.46,1.31,-28.13,189,-3896,7304,0,0,0
175.46,1.30,-28.12,187,-3896,7293,0,0,0
175.45,1.30,-28.12,182,-3899,7290,0,0,0
175.46,1.29,-28.11,174,-3898,7296,0,0,0
175.46,1.28,-28.11,174,-3898,7309,0,0,-1
175.46,1.28,-28.11,175,-3894,7310,0,-1,-1
175.46,1.28,-28.11,179,-3886,7301,0,-1,-1
175.46,1.28,-28.10,186,-3888,7303,-1,0,0
175.46,1.28,-28.11,192,-3888,7299,-1,0,0
175.46,1.28,-28.11,190,-3894,7305,0,0,0
175.46,1.28,-28.10,185,-3884,7306,0,0,0
175.45,1.27,-28.10,183,-3882,7310,-1,0,0
175.45,1.27,-28.10,183,-3889,7295,0,0,-1
175.45,1.27,-28.10,180,-3899,7297,0,-1,-1
175.45,1.27,-28.08,179,-3894,7309,0,0,-1
175.45,1.27,-28.08,171,-3887,7302,0,-1,-1
175.45,1.27,-28.08,181,-3879,7304,-1,-1,0
175.45,1.27,-28.08,179,-3880,7297,0,-1,-1
175.45,1.28,-28.08,179,-3884,7299,0,0,-1
175.45,1.28,-28.07,175,-3879,7301,0,-1,0
175.45,1.28,-28.07,184,-3871,7298,-1,-1,-1
175.45,1.28,-28.07,168,-3881,7287,-1,-1,-1
175.46,1.29,-28.07,168,-3889,7303,-1,-1,-1
175.46,1.29,-28.07,171,-3884,7311,0,-1,-1
175.46,1.30,-28.07,178,-3889,7314,-1,-1,-1
175.47,1.31,-28.06,177,-3884,7307,-1,-1,-1
175.47,1.32,-28.06,180,-3891,7295,-1,-1,-1
175.47,1.31,-28.06,180,-3873,7315,-1,-1,0
175.46,1.32,-28.07,172,-3859,7319,-1,-1,0
175.46,1.34,-28.09,211,-3866,7315,-2,-1,0
175.47,1.34,-28.12,218,-3906,7276,-1,0,0
175.47,1.33,-28.13,210,-3936,7257,0,0,0
175.47,1.32,-28.12,231,-3956,7254,0,1,0
175.47,1.28,-28.10,192,-3955,7262,1,1,-1
175.46,1.24,-28.05,156,-3908,7314,1,0,-1
175.46,1.22,-28.02,149,-3882,7326,0,0,-1
175.47,1.21,-27.99,130,-3894,7308,1,-1,-1
175.47,1.21,-27.96,138,-3886,7308,0,0,-1
175.48,1.22,-27.94,164,-3878,7297,0,-1,-1
175.48,1.22,-27.91,169,-3855,7326,0,-1,-1
175.49,1.23,-27.89,206,-3828,7316,0,0,0
175.49,1.22,-27.88,194,-3843,7318,0,0,-1
175.48,1.20,-27.86,177,-3836,7342,0,0,0
175.48,1.20,-27.86,181,-3832,7340,-1,0,0
175.48,1.18,-27.86,152,-3821,7337,-1,0,0
175.48,1.18,-27.87,134,-3814,7341,-1,-1,-1
175.48,1.20,-27.91,160,-3839,7326,-2,-1,0
175.48,1.21,-27.93,166,-3897,7305,-1,-1,-1
175.49,1.22,-27.96,191,-3941,7247,0,0,-1
175.50,1.19,-27.95,226,-3941,7240,1,2,-1
175.51,1.14,-27.92,211,-3879,7255,1,2,-1
175.50,1.10,-27.88,175,-3846,7334,0,0,0
175.47,1.09,-27.87,126,-3842,7380,-1,-1,0
175.46,1.10,-27.87,104,-3851,7354,-1,-2,0
175.47,1.13,-27.88,109,-3854,7319,-1,-2,0
175.47,1.15,-27.88,132,-3841,7286,-1,-2,-1
175.47,1.18,-27.89,159,-3845,7290,-1,-2,-1
175.48,1.22,-27.90,182,-3859,7302,-1,-1,-1
175.47,1.23,-27.90,196,-3862,7314,-1,-1,0
175.48,1.24,-27.90,204,-3858,7329,-1,0,0
175.47,1.24,-27.91,189,-3864,7336,-1,-1,0
175.46,1.24,-27.92,185,-3872,7313,-1,-1,0
175.47,1.25,-27.93,171,-3888,7305,-1,-1,-1
175.46,1.26,-27.94,172,-3877,7293,-1,-1,0
175.47,1.27,-27.95,169,-3875,7278,-1,-1,-1
175.47,1.28,-27.95,173,-3880,7290,-1,-1,-1
175.47,1.30,-27.95,187,-3882,7295,-1,-1,-1
175.47,1.31,-27.96,189,-3884,7306,-1,-1,0
175.46,1.31,-27.96,195,-3877,7316,-1,-1,0
175.46,1.33,-27.96,190,-3879,7302,-1,-1,0
175.46,1.33,-27.96,195,-3890,7280,0,0,0
175.46,1.33,-27.96,191,-3862,7289,0,-1,0
175.46,1.33,-27.96,181,-3841,7304,-1,-1,0
175.45,1.34,-27.97,184,-3854,7328,-1,-1,0
175.44,1.36,-27.98,193,-3864,7317,-1,-1,0
175.43,1.37,-28.00,190,-3860,7308,-1,-1,0
175.42,1.38,-28.02,199,-3862,7304,-1,-1,0
175.42,1.39,-28.04,199,-3873,7314,-1,-1,0
175.41,1.40,-28.06,197,-3892,7304,-1,-1,0
175.41,1.40,-28.07,199,-3902,7294,-1,-1,0
175.41,1.41,-28.08,200,-3896,7296,-1,-1,-1
175.41,1.41,-28.09,211,-3900,7293,-1,-1,-1
175.41,1.42,-28.09,208,-3891,7296,-1,-1,0
175.41,1.43,-28.09,214,-3899,7290,0,-1,0
175.41,1.43,-28.09,213,-3893,7282,0,-1,0
175.41,1.43,-28.08,208,-3902,7289,0,0,0
175.41,1.42,-28.07,195,-3894,7297,0,0,0
175.40,1.41,-28.06,197,-3884,7295,0,0,-1
175.40,1.41,-28.05,190,-3880,7293,0,0,-1
175.40,1.41,-28.05,190,-3881,7303,0,0,-1
175.40,1.41,-28.05,199,-3881,7303,-1,-1,-1
175.40,1.41,-28.05,210,-3882,7303,-1,0,0
175.40,1.41,-28.05,207,-3875,7284,-1,0,0
175.40,1.41,-28.05,203,-3872,7286,-1,0,0
175.41,1.40,-28.05,213,-3910,7291,0,0,-1
175.40,1.38,-28.04,197,-3897,7298,0,0,0
175.40,1.37,-28.03,185,-3873,7329,-1,0,0
175.40,1.37,-28.03,188,-3878,7327,-1,-1,0
175.40,1.38,-28.04,187,-3885,7311,-1,-1,-1
175.39,1.38,-28.04,196,-3886,7294,0,-1,-1
175.40,1.39,-28.04,198,-3893,7293,-1,-1,-1
175.40,1.39,-28.04,201,-3887,7280,0,-1,-1
175.40,1.40,-28.03,210,-3874,7290,0,0,0
175.40,1.40,-28.03,207,-3874,7292,-1,-1,0
175.40,1.40,-28.03,203,-3874,7294,-1,-1,0
175.39,1.41,-28.04,199,-3886,7292,-1,-1,0
175.39,1.41,-28.03,212,-3884,7300,0,0,0
175.39,1.40,-28.03,216,-3888,7273,0,0,0
175.39,1.38,-28.02,205,-3869,7284,0,0,0
175.38,1.37,-28.01,198,-3869,7319,0,0,0
175.38,1.36,-28.01,187,-3887,7328,0,0,0
175.38,1.36,-28.01,180,-3898,7314,0,0,-1
175.38,1.35,-28.00,173,-3891,7300,0,0,-1
175.39,1.35,-27.99,192,-3875,7284,0,0,-1
175.39,1.34,-27.97,189,-3874,7287,0,0,-1
175.39,1.33,-27.97,206,-3877,7288,0,0,0
175.39,1.32,-27.95,196,-3867,7301,0,0,0
175.38,1.31,-27.94,183,-3866,7316,0,0,0
175.38,1.30,-27.91,186,-3861,7325,0,0,0
175.38,1.30,-27.90,180,-3864,7324,0,0,-1
175.38,1.29,-27.89,176,-3850,7317,0,0,0
175.38,1.29,-27.88,188,-3848,7299,0,0,-1
175.38,1.28,-27.88,188,-3852,7310,0,0,-1
175.38,1.28,-27.88,194,-3857,7321,0,0,0
175.37,1.28,-27.87,180,-3851,7321,-1,-1,0
175.37,1.28,-27.88,183,-3867,7338,-1,0,0
175.37,1.28,-27.87,183,-3855,7342,0,-1,0
175.36,1.27,-27.88,176,-3853,7318,-1,0,0
175.35,1.27,-27.88,165,-3865,7301,-1,-1,0
175.35,1.27,-27.89,182,-3859,7278,-1,0,0
175.35,1.27,-27.88,178,-3875,7300,0,-1,0
175.35,1.27,-27.88,185,-3876,7323,0,-1,0
175.35,1.27,-27.88,173,-3873,7329,0,-1,0
175.35,1.28,-27.87,165,-3870,7322,0,-1,-1
175.35,1.29,-27.86,174,-3858,7327,0,-1,-1
175.35,1.29,-27.86,176,-3856,7321,0,-1,-1
175.36,1.30,-27.85,178,-3855,7308,0,-1,-1
175.36,1.30,-27.85,180,-3847,7307,-1,-1,-1
175.35,1.31,-27.86,186,-3843,7321,-1,-1,0
175.36,1.31,-27.87,197,-3853,7322,-1,-1,0
175.35,1.32,-27.88,196,-3867,7325,-1,-1,0
175.35,1.32,-27.89,198,-3873,7313,-1,-1,0
175.35,1.32,-27.89,191,-3875,7301,-1,-1,-1
175.36,1.32,-27.90,190,-3873,7295,-1,0,-1
175.36,1.33,-27.90,189,-3867,7295,0,-1,-1
175.36,1.33,-27.90,180,-3870,7316,-1,-1,-1
175.36,1.34,-27.90,183,-3865,7322,0,-1,-1
175.36,1.34,-27.90,185,-3859,7318,-1,-1,-1
175.36,1.36,-27.90,193,-3866,7318,-1,-1,-1
175.36,1.36,-27.90,192,-3870,7313,-1,-1,0
175.36,1.36,-27.91,196,-3878,7323,-1,-1,0
175.37,1.37,-27.91,200,-3873,7314,-1,-1,-1
175.37,1.37,-27.92,205,-3868,7307,-1,0,0
175.37,1.37,-27.93,194,-3880,7299,-1,-1,-1
175.37,1.37,-27.93,193,-3880,7307,-1,0,-1
175.37,1.37,-27.93,188,-3873,7305,-1,-1,-1
175.36,1.37,-27.93,196,-3868,7292,-1,-1,0
175.36,1.37,-27.94,194,-3874,7302,0,-1,0
175.36,1.38,-27.94,196,-3869,7288,-1,0,0
175.36,1.38,-27.94,194,-3872,7295,-1,-1,0
175.36,1.38,-27.94,192,-3877,7296,0,-1,-1
175.36,1.38,-27.94,189,-3870,7306,-1,-1,0
175.36,1.39,-27.94,191,-3869,7296,0,-1,-1
175.36,1.39,-27.94,203,-3872,7305,0,0,-1
175.36,1.38,-27.94,196,-3871,7305,0,0,-1
175.36,1.39,-27.94,200,-3860,7308,-1,-1,0
175.36,1.39,-27.94,197,-3866,7316,-1,-1,0
175.36,1.40,-27.95,204,-3877,7317,-1,0,0
175.36,1.40,-27.95,195,-3875,7308,-1,-1,-1
175.36,1.40,-27.96,189,-3868,7313,-1,-1,0
175.36,1.40,-27.96,197,-3871,7316,-1,-1,-1
175.37,1.41,-27.97,201,-3883,7307,-1,-1,-1
175.37,1.42,-27.97,210,-3883,7303,0,-1,0
175.37,1.42,-27.96,212,-3879,7294,0,-1,-1
175.37,1.42,-27.96,208,-3872,7307,-1,-1,0
175.36,1.42,-27.97,207,-3880,7310,-1,-1,0
175.36,1.42,-27.97,209,-3876,7307,-1,-1,0
175.36,1.42,-27.97,204,-3875,7304,0,-1,0
175.36,1.42,-27.97,204,-3882,7299,-1,0,0
175.36,1.42,-27.97,203,-3878,7299,0,-1,-1
175.36,1.43,-27.97,208,-3865,7295,-1,-1,-1
175.36,1.43,-27.97,209,-3868,7288,-1,-1,0
175.36,1.43,-27.97,214,-3871,7298,-1,0,0
175.37,1.44,-27.97,212,-3869,7299,-1,0,0
175.37,1.44,-27.97,209,-3869,7297,-1,-1,-1
175.37,1.44,-27.97,200,-3872,7297,-1,0,-1
175.37,1.44,-27.97,202,-3878,7301,0,-1,-1
175.37,1.44,-27.97,197,-3874,7304,-1,0,0
175.37,1.44,-27.98,199,-3875,7305,-1,-1,0
175.37,1.44,-27.98,204,-3859,7297,-1,-1,0
175.37,1.45,-27.99,207,-3875,7301,-1,0,0
175.37,1.45,-27.98,207,-3873,7304,0,-1,-1
175.36,1.45,-27.98,203,-3868,7299,-1,-1,0
175.36,1.45,-27.99,204,-3878,7291,0,-1,-1
175.37,1.45,-27.99,208,-3876,7294,-1,0,0
175.37,1.45,-27.99,195,-3880,7301,-1,-1,-1
175.37,1.45,-27.99,203,-3882,7302,-1,-1,-1
175.37,1.46,-27.99,207,-3880,7305,-1,-1,0
175.37,1.46,-28.00,210,-3876,7296,-1,0,-1
175.37,1.46,-27.99,206,-3874,7305,0,-1,0
175.37,1.46,-27.99,211,-3877,7313,-1,0,-1
175.37,1.46,-27.99,212,-3876,7314,-1,-1,0
175.37,1.46,-28.00,206,-3877,7305,-1,-1,-1
175.37,1.46,-28.00,201,-3875,7292,-1,0,-1
175.37,1.46,-28.00,204,-3879,7295,0,-1,-1
175.37,1.47,-28.00,211,-3877,7310,-1,-1,0
175.37,1.47,-28.00,213,-3883,7311,-1,-1,0
175.37,1.47,-28.00,215,-3879,7301,0,-1,0
175.37,1.47,-28.00,207,-3867,7301,-1,0,0
175.37,1.47,-28.00,203,-3862,7301,-1,0,0
175.36,1.46,-28.00,207,-3868,7296,-1,0,0
175.36,1.46,-28.01,203,-3880,7292,0,-1,-1
175.36,1.46,-28.00,207,-3875,7292,-1,-1,0
175.36,1.46,-28.00,203,-3878,7302,0,0,-1
175.36,1.47,-27.99,205,-3865,7313,-1,-1,0
175.36,1.47,-27.99,210,-3869,7301,-1,-1,-1
175.37,1.48,-28.00,214,-3882,7278,0,-1,-1
175.37,1.48,-28.00,219,-3876,7278,0,0,0
175.36,1.47,-28.00,216,-3874,7288,-1,0,0
175.36,1.47,-28.00,214,-3883,7289,0,-1,-1
175.36,1.47,-28.00,211,-3880,7302,-1,-1,0
175.36,1.47,-28.00,209,-3883,7301,0,0,0
175.36,1.47,-28.00,201,-3874,7295,0,0,0
175.36,1.47,-28.00,207,-3873,7303,0,0,0
175.36,1.46,-28.00,206,-3877,7301,-1,-1,0
175.36,1.46,-28.00,210,-3878,7296,0,0,0
175.36,1.47,-27.99,211,-3875,7300,0,0,0
175.36,1.47,-27.99,204,-3878,7301,0,0,0
175.36,1.46,-27.99,206,-3877,7302,0,0,-1
175.36,1.46,-27.98,208,-3870,7308,0,0,-1
175.36,1.46,-27.98,203,-3869,7320,-1,0,-1
175.36,1.46,-27.98,211,-3871,7315,0,-1,0
175.36,1.46,-27.98,215,-3867,7318,-1,0,-1
175.36,1.46,-27.98,213,-3866,7322,-1,0,0
175.36,1.46,-27.97,210,-3858,7321,0,0,0
175.36,1.45,-27.97,208,-3871,7324,-1,0,-1
175.36,1.45,-27.97,210,-3871,7331,0,0,-1
175.36,1.45,-27.96,205,-3865,7315,-1,0,0
175.36,1.45,-27.96,201,-3869,7309,0,0,0
175.36,1.44,-27.96,200,-3870,7302,0,0,-1
175.36,1.44,-27.95,207,-3874,7304,0,0,0
175.36,1.44,-27.96,211,-3880,7308,0,0,-1
175.36,1.44,-27.95,214,-3879,7296,0,0,0
175.36,1.44,-27.95,214,-3870,7302,0,0,0
175.36,1.43,-27.95,201,-3873,7323,0,0,0
175.36,1.43,-27.95,195,-3872,7329,0,0,0
175.36,1.42,-27.94,196,-3862,7321,0,0,-1
175.36,1.42,-27.94,203,-3863,7307,-1,0,-1
175.35,1.42,-27.94,203,-3867,7312,0,0,0
175.35,1.42,-27.94,208,-3876,7314,0,0,0
175.35,1.41,-27.94,208,-3871,7313,0,0,0
175.35,1.40,-27.93,201,-3864,7309,0,0,0
175.35,1.40,-27.93,212,-3867,7309,0,0,0
175.35,1.39,-27.93,207,-3871,7309,0,0,0
175.34,1.38,-27.93,197,-3867,7304,0,0,-1
175.34,1.38,-27.93,190,-3863,7302,0,-1,0
175.34,1.38,-27.93,189,-3875,7312,0,0,0
175.34,1.37,-27.92,186,-3873,7319,0,0,0
175.34,1.37,-27.92,189,-3866,7317,0,0,0
175.34,1.36,-27.91,197,-3866,7313,0,0,0
175.34,1.36,-27.91,200,-3870,7304,0,0,0
175.34,1.36,-27.91,199,-3865,7308,0,0,0
175.34,1.35,-27.90,196,-3867,7309,0,0,0
175.33,1.34,-27.90,195,-3862,7310,0,0,0
175.33,1.34,-27.90,187,-3869,7315,0,0,0
175.33,1.33,-27.89,186,-3862,7327,0,0,0
175.33,1.32,-27.88,187,-3856,7322,0,0,0
175.33,1.32,-27.87,191,-3859,7321,0,0,0
175.33,1.32,-27.87,192,-3866,7317,0,0,0
175.32,1.31,-27.87,185,-3864,7308,0,0,0
175.32,1.30,-27.87,188,-3861,7311,0,0,0
175.31,1.30,-27.86,193,-3857,7317,0,0,0
175.31,1.29,-27.86,181,-3856,7319,0,0,0
175.31,1.28,-27.85,175,-3865,7311,0,0,0
175.31,1.28,-27.84,175,-3850,7308,0,0,0
175.31,1.28,-27.84,182,-3847,7305,0,-1,-1
175.31,1.28,-27.84,186,-3855,7307,-1,-1,-1
175.31,1.28,-27.84,183,-3856,7305,0,-1,0
175.31,1.29,-27.84,181,-3848,7313,-1,-1,0
175.31,1.29,-27.84,175,-3842,7307,-1,-1,0
175.30,1.29,-27.84,180,-3845,7305,-1,-1,-1
175.31,1.30,-27.84,177,-3854,7309,0,-1,-1
175.31,1.30,-27.84,187,-3865,7310,0,-1,-1
175.31,1.30,-27.84,182,-3857,7316,0,-1,-1
175.31,1.30,-27.84,180,-3862,7310,-1,-1,0
175.31,1.30,-27.84,177,-3863,7323,0,-1,-1
175.31,1.30,-27.83,182,-3856,7328,-1,0,-1
175.31,1.30,-27.83,182,-3856,7327,-1,-1,0
175.32,1.31,-27.83,189,-3857,7319,0,-1,-1
175.32,1.32,-27.83,195,-3861,7311,0,-1,0
175.32,1.32,-27.82,190,-3855,7313,0,-1,-1
175.32,1.32,-27.82,193,-3856,7325,-1,-1,0
175.32,1.33,-27.82,193,-3862,7323,-1,-1,0
175.32,1.34,-27.82,194,-3859,7323,-1,-1,-1
175.32,1.34,-27.82,191,-3847,7309,-1,-1,0
175.32,1.34,-27.83,185,-3860,7309,-1,-1,-1
175.32,1.34,-27.84,186,-3862,7308,-1,-1,-1
175.32,1.34,-27.84,189,-3870,7311,-1,-1,-1
175.32,1.35,-27.85,189,-3866,7320,-1,-1,-1
175.32,1.36,-27.85,195,-3860,7320,-1,-1,-1
175.33,1.37,-27.85,197,-3870,7318,-1,-1,-1
175.33,1.37,-27.86,206,-3866,7301,-1,-1,0
175.33,1.38,-27.86,203,-3863,7307,-1,0,0
175.33,1.38,-27.86,199,-3856,7307,-1,-1,0
175.33,1.38,-27.86,200,-3857,7308,0,-1,0
175.33,1.38,-27.86,196,-3857,7306,-1,-1,-1
175.33,1.38,-27.86,202,-3869,7311,0,-1,-1
175.33,1.38,-27.86,202,-3864,7312,0,-1,0
175.33,1.38,-27.86,198,-3855,7308,0,-1,0
175.33,1.38,-27.85,198,-3877,-258,0,-1,-1
175.33,1.39,-27.85,199,-3858,7322,-1,-1,0
175.33,1.39,-27.85,194,-3851,7323,-1,-1,0
175.32,1.39,-27.85,197,-3848,7322,-1,-1,0
175.32,1.39,-27.85,192,-3849,7308,-1,-1,0
175.32,1.39,-27.85,196,-3851,7308,-1,0,0
175.32,1.39,-27.86,188,-3860,7309,-1,-1,0
175.32,1.39,-27.86,190,-3857,7320,-1,-1,0
175.33,1.39,-27.86,193,-3854,7314,-1,-1,-1
175.33,1.39,-27.86,204,-3848,7310,-1,0,0
175.33,1.39,-27.86,201,-3863,7311,-1,-1,0
175.33,1.40,-27.86,205,-3857,7311,-1,-1,0
175.32,1.40,-27.86,199,-3868,7316,-1,-1,0
175.32,1.40,-27.86,196,-3866,7313,0,-1,0
175.32,1.40,-27.86,196,-3856,7312,-1,-1,-1
175.32,1.41,-27.86,188,-3860,7313,-1,-1,-1
175.32,1.41,-27.86,196,-3859,7316,-1,-1,-1
175.32,1.41,-27.86,201,-3857,7310,-1,-1,0
175.32,1.41,-27.86,200,-3863,7314,0,-1,0
175.32,1.41,-27.86,202,-3863,7321,0,-1,0
175.32,1.41,-27.86,198,-3863,7316,-1,-1,0
175.32,1.41,-27.86,195,-3867,7321,-1,-1,-1
175.32,1.41,-27.86,199,-3858,7309,-1,-1,0
175.32,1.42,-27.87,204,-3856,7314,-1,-1,-1
175.32,1.42,-27.87,209,-3856,7308,-1,0,0
175.32,1.42,-27.87,206,-3857,7318,0,0,0
175.32,1.42,-27.87,202,-3860,7316,0,-1,-1
175.32,1.42,-27.86,202,-3858,7322,0,-1,-1
175.32,1.42,-27.87,205,-3860,7322,-1,-1,0
175.32,1.42,-27.87,207,-3860,7312,-1,-1,-1
175.32,1.43,-27.87,213,-3862,7310,-1,-1,-1
175.32,1.43,-27.87,215,-3857,7314,-1,-1,0
175.32,1.43,-27.87,209,-3864,7328,0,-1,0
175.32,1.43,-27.87,203,-3860,7322,0,-1,0
175.32,1.43,-27.86,203,-3854,7316,-1,0,0
175.31,1.43,-27.86,205,-3849,7322,-1,0,0
175.31,1.43,-27.87,199,-3856,7318,-1,-1,-1
175.32,1.44,-27.87,207,-3858,7311,-1,-1,-1
175.32,1.44,-27.87,206,-3872,7321,-1,-1,-1
175.32,1.44,-27.88,206,-3860,7323,-1,-1,-1
175.32,1.44,-27.88,214,-3859,7323,-1,-1,-1
175.33,1.45,-27.88,218,-3866,7308,-1,-1,-1
175.33,1.45,-27.88,212,-3864,7312,0,0,-1
175.33,1.45,-27.88,209,-3872,7318,-1,0,0
175.33,1.45,-27.88,207,-3868,7322,-1,-1,0
175.32,1.45,-27.88,207,-3862,7313,-1,-1,-1
175.32,1.46,-27.89,207,-3871,7301,-1,-1,0
175.33,1.48,-27.89,211,-3862,7313,-1,-1,0
175.32,1.49,-27.90,203,-3855,7322,-1,-1,0
175.31,1.50,-27.91,209,-3840,7318,-1,-1,0
175.31,1.52,-27.93,219,-3846,7316,-1,-1,0
175.30,1.53,-27.96,228,-3860,7319,-2,-1,0
175.30,1.55,-27.99,258,-3901,7291,-1,0,0
175.30,1.53,-28.00,259,-3924,7255,0,1,-1
175.30,1.49,-27.99,238,-3929,7260,0,1,0
175.29,1.44,-27.97,213,-3887,7296,0,1,0
175.28,1.41,-27.95,203,-3824,7357,-1,0,0
175.27,1.40,-27.96,199,-3844,7360,-1,0,0
175.25,1.39,-27.98,202,-3897,7302,0,0,0
175.25,1.36,-27.97,177,-3889,7285,0,1,0
175.24,1.35,-27.97,198,-3856,7313,-1,0,0
175.23,1.34,-27.97,224,-3878,7284,0,0,0
175.24,1.30,-27.96,205,-3956,7287,1,2,-1
175.24,1.27,-27.92,199,-3859,7289,0,1,0
175.22,1.24,-27.90,182,-3738,7354,-2,-1,0
175.19,1.24,-27.92,148,-3751,7403,-2,-2,0
175.18,1.25,-27.98,160,-3821,7363,-2,-1,0
175.17,1.26,-28.03,154,-3856,7314,-2,-1,0
175.15,1.28,-28.08,172,-3865,7288,-2,-2,0
175.15,1.30,-28.12,187,-3911,7264,-1,-1,0
175.14,1.31,-28.15,189,-3950,7271,-1,-1,0
175.15,1.31,-28.16,195,-3968,7261,0,0,-1
175.14,1.28,-28.14,176,-3907,7293,0,0,-1
175.14,1.28,-28.14,174,-3870,7326,-1,-1,0
175.13,1.29,-28.16,174,-3883,7314,-1,-1,0
175.11,1.30,-28.18,169,-3911,7309,-1,-1,0
175.11,1.33,-28.20,175,-3923,7278,-1,-2,0
175.10,1.34,-28.21,189,-3935,7261,0,-1,0
175.10,1.35,-28.20,201,-3916,7276,-1,-1,0
175.09,1.35,-28.20,211,-3904,7275,0,0,0
175.09,1.35,-28.19,192,-3890,7292,-1,-1,0
175.08,1.37,-28.20,196,-3899,7299,-1,-1,0
175.08,1.38,-28.20,213,-3908,7303,0,-1,0
175.07,1.38,-28.20,191,-3907,7289,-1,0,0
175.07,1.39,-28.20,207,-3893,7290,-1,-1,0
175.07,1.39,-28.21,213,-3901,7289,-1,0,0
175.06,1.38,-28.22,196,-3903,7291,-1,0,0
175.06,1.37,-28.23,192,-3917,7291,-1,0,0
175.05,1.36,-28.23,180,-3933,7278,0,0,0
175.05,1.35,-28.22,181,-3938,7277,0,0,-1
175.05,1.35,-28.22,173,-3917,7287,0,0,0
175.05,1.35,-28.21,191,-3899,7296,0,0,0
175.05,1.34,-28.21,198,-3907,7302,-1,0,0
175.04,1.34,-28.21,180,-3920,7284,0,-1,-1
175.04,1.34,-28.21,182,-3933,7296,0,-1,0
175.04,1.34,-28.20,191,-3909,7289,0,0,-1
175.05,1.34,-28.19,183,-3875,7304,-1,0,0
175.04,1.33,-28.19,179,-3871,7328,-1,-1,0
175.04,1.35,-28.21,187,-3884,7309,-1,-1,0
175.04,1.36,-28.22,176,-3889,7300,-1,-1,-1
175.04,1.38,-28.23,189,-3883,7305,-1,-1,0
175.03,1.39,-28.26,208,-3903,7305,-1,-1,0
175.03,1.40,-28.28,212,-3908,7287,-1,-1,0
175.03,1.39,-28.30,200,-3915,7282,-1,0,0
175.02,1.39,-28.32,202,-3906,7274,-1,-1,0
175.02,1.40,-28.34,201,-3909,7274,-1,-1,0
175.02,1.39,-28.36,199,-3932,7267,-1,0,0
175.01,1.38,-28.37,202,-3933,7254,-1,0,0
175.01,1.37,-28.38,191,-3933,7275,-1,0,0
175.01,1.37,-28.39,199,-3923,7289,-1,0,0
175.00,1.38,-28.39,196,-3922,7297,-1,-1,0
175.00,1.38,-28.41,205,-3951,7280,-1,-1,0
175.00,1.38,-28.41,198,-3958,7253,0,0,-1
175.00,1.37,-28.41,196,-3935,7257,0,0,0
175.00,1.37,-28.41,196,-3936,7287,0,-1,0
175.00,1.37,-28.40,194,-3929,7294,-1,-1,0
174.99,1.37,-28.40,191,-3928,7282,-1,-1,0
175.00,1.38,-28.40,185,-3923,7267,-1,-1,0
174.99,1.38,-28.41,180,-3936,7285,-1,-1,0
174.99,1.40,-28.41,202,-3946,7290,0,-1,0
174.99,1.40,-28.41,202,-3944,7288,0,0,-1
174.99,1.39,-28.40,195,-3936,7280,0,0,-1
174.99,1.40,-28.40,201,-3918,7281,-1,-1,0
175.00,1.41,-28.40,208,-3922,7290,-1,-1,-1
175.00,1.41,-28.41,208,-3931,7285,-1,-1,-1
175.00,1.42,-28.42,206,-3934,7289,-1,-1,-1
175.00,1.42,-28.42,197,-3937,7280,-1,-1,-1
175.01,1.42,-28.42,194,-3950,7283,0,-1,-1
175.01,1.43,-28.42,196,-3951,7283,0,-1,-1
175.01,1.43,-28.41,197,-3931,7286,-1,-1,0
175.00,1.43,-28.41,199,-3934,7281,0,-1,0
175.00,1.44,-28.41,205,-3934,7276,0,-1,0
175.00,1.44,-28.41,212,-3923,7283,0,-1,0
175.00,1.44,-28.41,205,-3918,7286,-1,-1,0
174.99,1.45,-28.41,206,-3924,7273,-1,-1,0
175.00,1.46,-28.41,203,-3920,7265,-1,-1,0
174.99,1.46,-28.42,199,-3936,7279,-1,-1,0
174.99,1.46,-28.43,203,-3945,7281,-1,-1,-1
174.99,1.47,-28.43,202,-3946,7282,-1,-1,-1
174.99,1.48,-28.44,204,-3936,7275,-1,-1,-1
174.99,1.48,-28.44,212,-3924,7270,-1,-1,0
174.99,1.48,-28.45,212,-3928,7280,-1,-1,0
174.99,1.49,-28.45,204,-3924,7277,-1,-1,-1
174.99,1.49,-28.45,209,-3930,7276,-1,-1,-1
175.00,1.50,-28.46,209,-3935,7277,-1,-1,-1
175.00,1.50,-28.46,211,-3937,7270,-1,-1,0
175.00,1.50,-28.46,215,-3935,7270,0,-1,0
174.99,1.51,-28.46,215,-3941,7270,0,-1,-1
174.99,1.52,-28.46,221,-3939,7277,-1,-1,-1
174.99,1.52,-28.46,217,-3941,7277,-1,-1,-1
175.00,1.52,-28.46,216,-3939,7263,-1,-1,-1
175.00,1.53,-28.47,220,-3941,7258,-1,-1,0
175.00,1.53,-28.47,222,-3942,7256,-1,-1,0
175.00,1.53,-28.48,212,-3950,7267,-1,-1,0
175.00,1.54,-28.48,216,-3939,7271,-1,-1,0
175.00,1.55,-28.49,225,-3944,7274,-1,-1,0
175.00,1.56,-28.49,226,-3939,7270,-1,-1,0
174.99,1.56,-28.49,218,-3927,7263,-1,-1,0
175.00,1.57,-28.50,225,-3932,7255,-1,-1,-1
175.00,1.57,-28.50,225,-3934,7263,-1,-1,0
175.00,1.58,-28.50,230,-3942,7275,-1,-1,0
174.99,1.58,-28.50,225,-3943,7277,-1,-1,0
175.00,1.59,-28.50,227,-3932,7273,-1,-1,0
175.00,1.59,-28.50,225,-3933,7271,-1,-1,-1
175.00,1.60,-28.50,238,-3936,7280,-1,-1,0
175.00,1.60,-28.50,236,-3936,7277,-1,-1,0
174.99,1.59,-28.50,234,-3931,7274,-1,-1,0
174.99,1.60,-28.50,235,-3937,7274,-1,-1,0
174.99,1.61,-28.51,234,-3943,7278,-1,-1,-1
174.99,1.61,-28.51,231,-3944,7278,-1,-1,0
174.99,1.61,-28.51,233,-3939,7269,-1,-1,0
174.99,1.61,-28.51,233,-3947,7272,-1,-1,-1
174.99,1.62,-28.51,243,-3943,7267,0,-1,0
174.99,1.62,-28.51,238,-3938,7268,-1,-1,0
174.99,1.63,-28.51,235,-3941,7270,-1,-1,0
174.99,1.62,-28.51,240,-3938,7265,-1,-1,0
174.99,1.62,-28.52,232,-3947,7276,-1,0,-1
174.99,1.62,-28.52,232,-3937,7279,-1,-1,-1
174.99,1.63,-28.52,227,-3938,7276,-1,-1,-1
174.99,1.64,-28.53,220,-3947,7268,-1,-1,-1
174.99,1.64,-28.53,234,-3948,7269,-1,-1,-1
174.99,1.64,-28.54,244,-3944,7274,-1,-1,-1
174.99,1.64,-28.54,245,-3943,7275,-1,-1,0
174.99,1.65,-28.54,241,-3938,7266,-1,0,0
174.99,1.64,-28.54,234,-3946,7254,-1,0,0
174.99,1.64,-28.54,227,-3947,7253,-1,-1,0
174.99,1.64,-28.55,231,-3948,7264,-1,-1,-1
174.99,1.64,-28.55,230,-3945,7277,-1,-1,0
174.99,1.65,-28.55,236,-3949,7264,-1,-1,0
174.99,1.65,-28.55,236,-3943,7258,0,0,0
174.99,1.65,-28.55,240,-3950,7265,0,0,-1
174.99,1.65,-28.55,238,-3950,7267,-1,-1,0
174.99,1.65,-28.56,234,-3950,7261,-1,0,0
174.98,1.65,-28.56,243,-3955,7264,-1,0,0
174.98,1.65,-28.56,240,-3955,7277,-1,0,-1
174.98,1.65,-28.56,236,-3953,7272,-1,-1,-1
174.98,1.65,-28.56,241,-3945,7260,-1,-1,-1
174.98,1.66,-28.56,238,-3937,7255,-1,0,0
174.98,1.66,-28.57,242,-3949,7254,-1,-1,0
174.98,1.66,-28.57,241,-3947,7265,0,-1,-1
174.99,1.67,-28.57,238,-3954,7270,-1,-1,0
174.99,1.67,-28.57,242,-3964,7274,0,-1,0
174.99,1.67,-28.58,239,-3954,7263,0,0,-1
174.99,1.67,-28.57,228,-3950,7263,-1,-1,-1
174.98,1.67,-28.58,234,-3943,7265,-1,-1,-1
174.98,1.67,-28.58,246,-3944,7250,-1,0,0
174.98,1.67,-28.58,247,-3958,7258,0,0,0
174.99,1.67,-28.57,237,-3955,7269,-1,0,0
174.98,1.66,-28.57,230,-3947,7272,-1,0,0
174.98,1.66,-28.57,230,-3951,7274,0,-1,0
174.98,1.66,-28.57,226,-3950,7266,0,0,-1
174.98,1.65,-28.57,225,-3958,7256,0,0,-1
174.98,1.65,-28.57,225,-3956,7256,0,0,-1
174.98,1.65,-28.57,232,-3950,7250,-1,0,-1
174.98,1.65,-28.57,228,-3950,7267,-1,-1,-1
174.98,1.65,-28.57,239,-3953,7267,0,0,-1
174.98,1.65,-28.57,243,-3952,7276,0,0,0
174.97,1.64,-28.56,239,-3950,7274,0,0,0
174.97,1.64,-28.55,237,-3942,7268,0,0,0
174.97,1.64,-28.55,233,-3937,7267,0,0,0
174.97,1.64,-28.55,230,-3938,7259,-1,0,0
174.97,1.64,-28.56,226,-3949,7244,-1,-1,0
174.97,1.64,-28.57,235,-3950,7246,-1,-1,0
174.97,1.64,-28.57,230,-3962,7260,-1,0,-1
174.97,1.64,-28.57,233,-3958,7263,0,-1,0
174.97,1.63,-28.57,230,-3947,7264,-1,0,0
174.97,1.63,-28.57,230,-3944,7261,-1,-1,-1
174.98,1.63,-28.57,230,-3948,7261,0,0,-1
174.98,1.63,-28.56,229,-3944,7260,0,0,0
174.97,1.62,-28.55,233,-3939,7275,0,0,0
174.97,1.62,-28.54,234,-3940,7276,0,0,0
174.97,1.62,-28.54,244,-3944,7270,0,0,0
174.97,1.61,-28.54,240,-3941,7270,0,0,0
174.97,1.61,-28.54,238,-3941,7260,0,0,0
174.97,1.60,-28.53,225,-3945,7261,0,0,0
174.97,1.59,-28.53,225,-3946,7268,0,0,0
174.97,1.59,-28.53,231,-3941,7281,0,0,-1
174.96,1.59,-28.52,234,-3942,7278,-1,0,0
174.96,1.58,-28.53,231,-3945,7280,-1,0,0
174.96,1.57,-28.52,227,-3944,7276,-1,0,0
174.96,1.56,-28.52,221,-3947,7279,-1,0,0
174.96,1.55,-28.52,222,-3949,7272,-1,0,0
174.95,1.55,-28.52,222,-3948,7270,0,0,0
174.95,1.54,-28.52,228,-3942,7266,-1,0,0
174.96,1.53,-28.52,219,-3942,7270,-1,0,0
174.95,1.53,-28.52,227,-3943,7269,0,0,0
174.95,1.52,-28.51,225,-3952,7283,0,0,-1
174.95,1.51,-28.51,222,-3949,7275,0,0,0
174.95,1.51,-28.51,216,-3941,7267,0,0,0
174.95,1.50,-28.50,218,-3947,7261,0,0,0
174.95,1.49,-28.50,219,-3941,7268,0,0,0
174.94,1.49,-28.49,217,-3934,7276,0,0,0
174.94,1.48,-28.48,211,-3937,7284,0,0,-1
174.94,1.48,-28.47,215,-3930,7278,0,0,0
174.94,1.48,-28.47,210,-3934,7272,0,0,-1
174.94,1.47,-28.47,212,-3936,7278,0,0,0
174.94,1.47,-28.47,207,-3934,7263,-1,0,0
174.94,1.47,-28.47,203,-3940,7263,-1,-1,-1
174.94,1.47,-28.47,202,-3941,7256,0,-1,-1
174.94,1.48,-28.47,209,-3938,7268,0,-1,-1
174.94,1.48,-28.47,214,-3941,7261,0,-1,0
174.94,1.48,-28.47,213,-3934,7269,-1,-1,0
174.94,1.48,-28.47,212,-3925,7278,-1,-1,-1
174.94,1.48,-28.47,208,-3932,7287,-1,-1,-1
174.94,1.49,-28.47,204,-3928,7278,-1,-1,-1
174.94,1.49,-28.47,209,-3936,7265,-1,-1,-1
174.95,1.50,-28.47,214,-3935,7267,-1,-1,-1
174.95,1.51,-28.48,213,-3948,7263,-1,-1,-1
174.95,1.52,-28.48,217,-3950,7266,0,-1,-1
174.95,1.52,-28.48,217,-3940,7265,-1,-1,-1
174.95,1.53,-28.48,212,-3931,7272,-1,-1,-1
174.95,1.53,-28.49,221,-3928,7267,-1,-1,-1
174.96,1.54,-28.49,227,-3937,7263,-1,-1,0
174.96,1.54,-28.49,223,-3949,7268,-1,0,-1
174.96,1.54,-28.49,218,-3947,7270,0,-1,0
174.96,1.54,-28.49,216,-3939,7275,0,-1,0
174.95,1.54,-28.49,212,-3937,7271,-1,-1,-1
174.95,1.55,-28.49,215,-3945,7269,-1,-1,-1
174.95,1.55,-28.49,213,-3941,7274,-1,-1,-1
174.95,1.55,-28.49,217,-3935,7268,-1,-1,0
174.95,1.55,-28.49,222,-3936,7269,0,-1,-1
174.95,1.55,-28.49,221,-3941,7278,-1,0,0
174.95,1.55,-28.49,219,-3935,7274,-1,-1,0
174.95,1.55,-28.49,215,-3931,7265,0,-1,-1
174.96,1.56,-28.49,220,-3936,7259,-1,-1,-1
174.96,1.56,-28.49,220,-3940,7259,-1,-1,-1
174.96,1.57,-28.50,219,-3943,7253,-1,-1,-1
174.96,1.57,-28.50,223,-3934,7266,-1,0,-1
174.96,1.57,-28.50,226,-3938,7269,-1,-1,-1
174.95,1.57,-28.50,225,-3931,7274,-1,-1,0
174.96,1.58,-28.50,225,-3944,7267,-1,-1,-1
174.96,1.58,-28.51,228,-3955,7276,0,-1,-1
174.96,1.59,-28.50,222,-3943,7270,-1,-1,-1
174.96,1.59,-28.50,218,-3934,7260,-1,-1,-1
174.96,1.59,-28.51,217,-3946,7258,-1,-1,-1
174.96,1.59,-28.51,225,-3954,7266,0,-1,-1
174.96,1.59,-28.51,226,-3955,7265,0,-1,0
174.96,1.59,-28.50,232,-3938,7273,0,-1,0
174.95,1.59,-28.50,234,-3934,7274,-1,0,0
174.95,1.59,-28.50,224,-3938,7277,0,-1,0
174.95,1.59,-28.50,226,-3931,7271,-1,0,0
174.95,1.59,-28.50,218,-3937,7272,-1,-1,0
174.95,1.60,-28.50,223,-3932,7270,-1,-1,-1
174.95,1.60,-28.51,229,-3936,7273,-1,-1,-1
174.96,1.60,-28.51,242,-3940,7273,-1,-1,0
174.96,1.61,-28.51,239,-3943,7280,-1,-1,0
174.95,1.61,-28.52,238,-3942,7281,-1,-1,0
174.95,1.61,-28.52,239,-3942,7274,-1,0,0
174.95,1.61,-28.53,227,-3949,7264,-1,-1,0
174.95,1.61,-28.54,225,-3948,7259,-1,0,-1
174.95,1.61,-28.54,233,-3956,7261,-1,0,0
174.94,1.61,-28.54,229,-3961,7255,-1,-1,0
174.95,1.61,-28.54,240,-3960,7262,0,-1,0
174.95,1.62,-28.54,236,-3966,7275,0,-1,0
174.95,1.62,-28.53,237,-3940,7280,0,-1,0
174.95,1.62,-28.52,238,-3929,7275,-1,-1,0
174.95,1.62,-28.52,236,-3925,7264,-1,0,-1
174.95,1.62,-28.53,231,-3927,7275,-1,0,0
174.95,1.62,-28.53,228,-3941,7279,-1,-1,0
174.95,1.62,-28.54,222,-3945,7279,-1,0,-1
174.94,1.62,-28.54,220,-3948,7267,-1,-1,0
174.94,1.62,-28.55,227,-3955,7263,-1,0,-1
174.94,1.62,-28.55,228,-3954,7265,-1,-1,0
174.94,1.62,-28.55,226,-3952,7262,-1,0,0
174.94,1.62,-28.55,227,-3948,7260,0,-1,-1
174.94,1.62,-28.54,236,-3941,7262,0,0,-1
174.94,1.62,-28.54,237,-3940,7271,0,0,0
174.94,1.62,-28.54,237,-3936,7271,-1,-1,0
174.94,1.62,-28.54,234,-3936,7264,-1,-1,0
174.94,1.62,-28.54,229,-3942,7271,-1,-1,0
174.94,1.62,-28.54,225,-3942,7283,-1,0,-1
174.94,1.62,-28.54,228,-3932,7274,-1,0,-1
174.93,1.62,-28.54,232,-3933,7264,-1,0,0
174.94,1.62,-28.55,229,-3944,7263,-1,-1,-1
174.94,1.62,-28.56,238,-3957,7263,-1,-1,0
174.94,1.63,-28.56,250,-3958,7274,0,-1,0
174.94,1.64,-28.55,253,-3945,7267,0,0,0
174.94,1.64,-28.55,241,-3937,7262,0,-1,0
174.94,1.64,-28.55,237,-3929,7261,-1,0,0
174.94,1.64,-28.55,234,-3937,7263,-1,0,-1
174.94,1.64,-28.55,238,-3945,7269,-1,-1,0
174.93,1.64,-28.56,234,-3944,7260,-1,-1,0
174.94,1.65,-28.57,244,-3951,7261,-1,-1,0
174.94,1.65,-28.57,243,-3963,7267,-1,0,0
174.94,1.65,-28.57,230,-3949,7269,-1,0,0
174.93,1.64,-28.58,235,-3947,7253,-1,-1,0
174.93,1.64,-28.59,237,-3954,7246,-1,0,0
174.93,1.64,-28.60,237,-3955,7254,-1,0,0
174.93,1.63,-28.60,241,-3956,7260,-1,0,0
174.92,1.63,-28.60,242,-3952,7274,-1,0,0
174.92,1.63,-28.61,241,-3958,7261,-1,-1,0
174.92,1.63,-28.62,241,-3966,7262,-1,-1,0
174.92,1.63,-28.62,244,-3953,7265,-1,0,0
174.92,1.62,-28.62,231,-3953,7260,-1,0,0
174.92,1.61,-28.62,247,-3947,7259,-1,0,0
174.92,1.61,-28.63,240,-3970,7268,0,0,-1
174.92,1.59,-28.62,234,-3957,7276,0,0,-1
174.92,1.58,-28.61,215,-3945,7271,-1,0,-1
174.92,1.57,-28.61,222,-3951,7273,-1,0,-1
174.93,1.56,-28.61,216,-3957,7262,0,0,-1
174.93,1.56,-28.60,231,-3957,7270,0,0,-1
174.93,1.55,-28.61,224,-3963,7267,-1,0,0
174.93,1.55,-28.60,215,-3951,7261,0,0,0
174.93,1.54,-28.60,221,-3967,7259,0,0,-1
174.93,1.53,-28.60,221,-3960,7260,0,0,0
174.93,1.52,-28.59,211,-3947,7262,0,0,-1
174.92,1.52,-28.58,208,-3950,7262,0,0,0
174.93,1.52,-28.58,214,-3956,7254,0,-1,-1
174.93,1.52,-28.57,207,-3943,7267,0,-1,-1
174.93,1.53,-28.57,218,-3948,7270,0,-1,0
174.93,1.54,-28.56,215,-3946,7266,0,-1,-1
174.93,1.53,-28.56,218,-3941,7261,0,0,-1
174.93,1.54,-28.56,224,-3954,7269,0,0,0
174.93,1.54,-28.55,227,-3954,7272,0,-1,-1
174.93,1.54,-28.55,223,-3949,7259,0,-1,0
174.93,1.54,-28.54,218,-3947,7256,0,0,0
174.93,1.55,-28.53,215,-3940,7260,0,0,-1
174.93,1.55,-28.52,205,-3934,7270,0,-1,-1
174.94,1.55,-28.52,210,-3934,7269,-1,0,-1
174.94,1.54,-28.52,217,-3940,7274,0,0,-1
174.95,1.54,-28.52,220,-3946,7271,-1,0,-1
174.94,1.53,-28.52,236,-3945,7263,0,0,-1
174.94,1.52,-28.51,232,-3909,7297,-1,0,0
174.94,1.53,-28.52,222,-3908,7335,-2,-1,0
174.94,1.53,-28.55,224,-3896,7342,-2,-1,0
174.94,1.54,-28.60,220,-3874,7333,-3,-1,0
174.93,1.52,-28.69,215,-3879,7316,-4,0,-1
174.95,1.52,-28.78,201,-3893,7326,-4,-1,0
174.96,1.54,-28.90,217,-3913,7335,-5,-1,-1
174.97,1.57,-29.04,237,-3916,7313,-6,-2,0
174.98,1.60,-29.19,217,-3923,7295,-7,-2,0
174.99,1.64,-29.37,232,-3954,7284,-8,-2,0
175.01,1.67,-29.58,255,-4010,7204,-8,-1,-1
175.03,1.68,-29.77,232,-4110,7154,-6,-1,-1
175.05,1.71,-29.94,225,-4184,7134,-5,-2,-1
175.07,1.73,-30.08,239,-4205,7103,-5,-1,-1
175.09,1.75,-30.19,250,-4210,7091,-4,-1,-1
175.10,1.76,-30.28,251,-4232,7093,-3,-1,-1
175.10,1.78,-30.36,252,-4272,7091,-2,-1,0
175.10,1.80,-30.40,258,-4262,7118,-2,-2,0
175.09,1.84,-30.44,252,-4217,7157,-2,-2,0
175.09,1.87,-30.50,243,-4210,7135,-2,-2,-1
175.10,1.91,-30.55,235,-4187,7160,-3,-2,-1
175.13,1.95,-30.61,251,-4197,7164,-3,-2,-2
175.18,1.99,-30.68,261,-4173,7153,-3,-1,-2
175.22,2.01,-30.74,262,-4111,7192,-4,-1,-2
175.25,2.07,-30.84,287,-4082,7204,-6,-3,-1
175.29,2.14,-31.00,307,-4158,7112,-6,-2,-1
175.33,2.20,-31.13,315,-4198,7108,-6,-2,-1
175.37,2.25,-31.29,308,-4263,7065,-5,-3,-1
175.41,2.31,-31.43,316,-4325,7046,-5,-2,-2
175.46,2.36,-31.54,299,-4329,7043,-4,-2,-2
175.50,2.42,-31.64,319,-4288,7113,-5,-3,-2
175.54,2.51,-31.77,339,-4247,7119,-7,-4,-1
175.57,2.60,-31.94,365,-4251,7069,-7,-4,-1
175.62,2.68,-32.14,373,-4293,7023,-8,-3,-1
175.66,2.75,-32.33,380,-4336,7019,-7,-3,-1
175.69,2.84,-32.53,393,-4358,7035,-8,-4,-1
175.73,2.94,-32.74,427,-4403,7010,-9,-4,-1
175.77,3.01,-32.98,433,-4446,6967,-9,-3,-1
175.80,3.08,-33.20,427,-4483,6947,-9,-3,-1
175.86,3.14,-33.43,452,-4523,6896,-8,-2,-2
175.93,3.19,-33.64,436,-4533,6876,-8,-2,-2
175.99,3.25,-33.84,419,-4546,6899,-8,-2,-2
176.06,3.31,-34.04,409,-4508,6933,-9,-3,-2
176.13,3.41,-34.30,446,-4533,6904,-10,-4,-2
176.22,3.51,-34.60,450,-4595,6820,-12,-4,-3
176.33,3.62,-34.87,444,-4676,6756,-9,-3,-4
176.45,3.73,-35.11,462,-4682,6752,-9,-4,-4
176.60,3.84,-35.35,500,-4705,6761,-9,-3,-5
176.76,3.96,-35.61,490,-4749,6778,-10,-3,-5
176.93,4.10,-35.88,521,-4806,6752,-10,-3,-6
177.11,4.25,-36.14,571,-4837,6715,-10,-4,-6
177.27,4.40,-36.42,599,-4879,6642,-10,-4,-5
177.42,4.54,-36.68,645,-4930,6621,-9,-3,-4
177.54,4.67,-36.91,687,-4958,6598,-9,-4,-3
177.66,4.81,-37.16,715,-5024,6523,-8,-4,-3
177.75,4.92,-37.36,727,-5062,6518,-7,-4,-3
177.83,5.01,-37.54,740,-5072,6516,-6,-2,-3
177.94,5.10,-37.69,743,-5044,6515,-6,-1,-4
178.05,5.17,-37.86,773,-5023,6539,-7,-1,-3
178.16,5.22,-38.03,757,-5005,6575,-8,-1,-3
178.26,5.28,-38.24,751,-4996,6595,-9,-2,-3
178.35,5.36,-38.47,776,-5064,6535,-9,-2,-2
178.43,5.44,-38.73,776,-5150,6471,-9,-3,-2
178.50,5.53,-38.96,776,-5165,6419,-8,-4,-2
178.56,5.63,-39.19,788,-5168,6380,-8,-4,-2
178.64,5.71,-39.42,809,-5146,6391,-9,-3,-2
178.73,5.79,-39.66,836,-5173,6408,-10,-2,-2
178.84,5.86,-39.92,891,-5221,6420,-10,-1,-2
178.95,5.89,-40.19,913,-5150,6413,-12,1,-3
179.09,5.90,-40.53,913,-5154,6405,-15,2,-3
179.24,5.90,-40.92,894,-5225,6372,-16,2,-4
179.41,5.90,-41.32,862,-5235,6345,-17,3,-4
179.59,5.93,-41.77,793,-5218,6262,-19,1,-5
179.81,6.00,-42.27,696,-5192,6197,-20,-1,-7
-179.92,6.12,-42.80,641,-5222,6237,-23,-2,-8
-179.59,6.30,-43.38,666,-5361,6257,-25,-1,-10
-179.22,6.50,-44.08,713,-5503,6218,-27,-2,-11
-178.79,6.75,-44.84,710,-5615,6164,-32,-3,-13
-178.30,7.06,-45.72,720,-5683,5996,-33,-5,-14
-177.79,7.44,-46.63,869,-5785,5923,-35,-7,-14
-177.31,7.85,-47.63,1054,-5952,5783,-38,-10,-10
-176.92,8.24,-48.70,1164,-6251,5447,-34,-13,-7
-176.63,8.60,-49.62,1286,-6512,5159,-27,-13,-5
-176.39,8.91,-50.35,1461,-6669,4983,-20,-10,-4
-176.19,9.16,-50.88,1572,-6649,4891,-15,-8,-3
-176.07,9.34,-51.28,1605,-6651,4800,-10,-7,-1
-176.02,9.46,-51.54,1583,-6652,4729,-5,-5,0
-176.01,9.53,-51.66,1539,-6665,4727,-1,-5,0
-176.03,9.58,-51.65,1486,-6687,4734,4,-3,0
-176.07,9.61,-51.54,1401,-6620,4839,5,-3,0
-176.11,9.65,-51.41,1385,-6545,4980,5,-3,-1
-176.12,9.70,-51.28,1365,-6503,5086,4,-3,-1
-176.11,9.74,-51.15,1369,-6464,5147,5,-2,-2
-176.09,9.80,-50.99,1384,-6391,5219,4,-2,-3
-176.05,9.87,-50.86,1402,-6313,5257,3,-2,-3
-176.02,9.94,-50.75,1417,-6263,5278,2,-2,-2
-175.98,10.00,-50.67,1456,-6252,5291,1,-2,-2
-175.95,10.07,-50.62,1463,-6223,5264,1,-2,-1
-175.93,10.12,-50.58,1469,-6235,5236,1,-2,-2
-175.91,10.17,-50.54,1483,-6247,5253,1,-2,-1
-175.89,10.22,-50.51,1477,-6273,5239,0,-2,-1
-175.89,10.25,-50.50,1471,-6302,5217,1,-2,-1
-175.88,10.29,-50.47,1472,-6280,5249,0,-2,-1
-175.87,10.34,-50.45,1482,-6258,5276,0,-2,-1
-175.85,10.38,-50.45,1467,-6245,5292,-2,-2,-1
-175.82,10.44,-50.48,1480,-6239,5276,-2,-3,-2
-175.78,10.50,-50.53,1466,-6260,5255,-2,-3,-2
-175.73,10.57,-50.60,1469,-6287,5224,-3,-3,-2
-175.69,10.65,-50.66,1487,-6268,5219,-2,-3,-2
-175.65,10.73,-50.73,1519,-6281,5183,-3,-4,-1
-175.60,10.82,-50.78,1536,-6312,5153,-1,-3,-2
-175.56,10.90,-50.81,1565,-6315,5132,-1,-4,-1
-175.53,10.98,-50.85,1593,-6333,5160,-1,-4,-1
-175.52,11.05,-50.87,1592,-6340,5165,-1,-4,-1
-175.52,11.11,-50.91,1593,-6316,5133,-2,-4,0
-175.51,11.16,-50.95,1603,-6347,5115,0,-3,-1
-175.50,11.21,-50.95,1600,-6345,5131,0,-2,-1
-175.47,11.25,-50.95,1604,-6339,5142,0,-2,-1
-175.45,11.29,-50.96,1611,-6311,5157,-1,-2,-1
-175.43,11.33,-50.96,1641,-6307,5157,-1,-1,-1
-175.42,11.35,-50.99,1658,-6316,5148,-1,-2,0
-175.43,11.36,-51.01,1686,-6323,5128,-1,-1,1
-175.46,11.35,-51.01,1683,-6329,5102,0,-1,1
-175.49,11.33,-50.99,1679,-6325,5112,0,-1,1
-175.54,11.30,-50.98,1669,-6337,5126,0,0,1
-175.60,11.26,-50.97,1656,-6325,5139,0,0,1
-175.65,11.22,-50.96,1641,-6321,5170,-1,0,1
-175.70,11.17,-50.96,1614,-6314,5164,0,0,1
-175.75,11.12,-50.96,1606,-6315,5158,0,0,1
-175.79,11.08,-50.95,1590,-6318,5167,-1,0,1
-175.83,11.04,-50.95,1569,-6306,5175,-1,0,1
-175.85,11.02,-50.96,1567,-6298,5154,-1,-1,0
-175.87,10.99,-50.96,1579,-6313,5140,0,0,0
-175.90,10.97,-50.95,1603,-6326,5156,-1,0,1
-175.92,10.93,-50.96,1609,-6322,5152,-1,1,1
-175.95,10.89,-50.97,1602,-6329,5136,-1,1,1
-175.99,10.84,-50.97,1586,-6315,5140,-1,1,1
-176.02,10.80,-50.97,1565,-6303,5148,0,1,0
-176.04,10.76,-50.97,1571,-6297,5151,-1,1,0
-176.07,10.71,-50.97,1556,-6294,5167,-1,1,0
-176.08,10.66,-50.99,1526,-6293,5203,-2,1,0
-176.07,10.63,-51.03,1509,-6288,5198,-3,1,-1
-176.05,10.60,-51.10,1489,-6262,5169,-3,1,-1
-176.03,10.58,-51.17,1479,-6283,5192,-4,0,-1
-176.00,10.59,-51.26,1481,-6323,5165,-4,0,-1
-175.99,10.59,-51.35,1481,-6268,5183,-5,-1,-1
-175.94,10.60,-51.50,1490,-6270,5188,-7,0,-1
-175.89,10.62,-51.65,1504,-6325,5193,-7,-1,-1
-175.83,10.64,-51.84,1503,-6332,5124,-8,-1,-1
-175.77,10.67,-52.03,1566,-6405,5081,-6,-1,-1
-175.73,10.68,-52.21,1550,-6362,5053,-7,-1,0
-175.71,10.68,-52.41,1549,-6433,5029,-7,-2,1
-175.70,10.70,-52.61,1562,-6516,4956,-6,-2,0
-175.68,10.71,-52.78,1533,-6515,4913,-5,-3,0
-175.67,10.73,-52.91,1498,-6521,4903,-5,-3,-1
-175.63,10.77,-53.06,1480,-6578,4894,-5,-3,-2
-175.56,10.82,-53.18,1490,-6599,4881,-4,-1,-2
-175.46,10.87,-53.26,1519,-6563,4938,-5,0,-3
-175.36,10.91,-53.40,1532,-6562,4926,-6,0,-3
-175.25,10.96,-53.55,1583,-6550,4933,-7,1,-3
-175.16,10.99,-53.73,1637,-6573,4888,-7,0,-2
-175.10,11.02,-53.89,1658,-6555,4893,-6,0,-1
-175.05,11.03,-54.07,1643,-6595,4783,-6,-1,0
-175.03,11.04,-54.19,1654,-6662,4711,-3,-1,0
-175.04,11.05,-54.27,1616,-6683,4670,-2,-3,1
-175.09,11.05,-54.30,1598,-6710,4608,1,-3,1
-175.13,11.07,-54.26,1574,-6713,4636,3,-4,0
-175.18,11.11,-54.20,1549,-6717,4644,3,-5,0
-175.22,11.15,-54.10,1546,-6688,4685,4,-4,0
-175.26,11.19,-53.99,1571,-6643,4756,3,-3,0
-175.27,11.23,-53.85,1600,-6607,4840,5,-2,-2
-175.24,11.29,-53.71,1638,-6510,4962,1,-2,-2
-175.20,11.34,-53.67,1703,-6429,4997,-1,0,-1
-175.18,11.35,-53.67,1733,-6409,5004,-2,0,0
-175.17,11.34,-53.71,1717,-6457,4932,-3,0,0
-175.18,11.30,-53.77,1662,-6508,4843,-2,1,0
-175.18,11.27,-53.80,1636,-6536,4818,-2,0,0
-175.18,11.25,-53.85,1602,-6588,4812,-2,0,-1
-175.16,11.24,-53.89,1583,-6585,4791,-2,1,-1
-175.13,11.23,-53.92,1582,-6632,4783,-1,1,-2
-175.09,11.25,-53.92,1588,-6613,4800,-1,0,-2
-175.05,11.26,-53.93,1596,-6597,4820,-1,0,-2
-175.01,11.28,-53.93,1604,-6594,4808,-1,0,-2
-174.96,11.30,-53.94,1620,-6577,4807,-1,0,-2
-174.92,11.32,-53.95,1632,-6581,4795,-1,0,-2
-174.89,11.33,-53.95,1638,-6586,4792,-1,0,-2
-174.86,11.34,-53.94,1645,-6576,4815,0,0,-1
-174.85,11.36,-53.95,1643,-6596,4806,-1,-1,-1
-174.85,11.37,-53.96,1608,-6620,4755,0,-1,-1
-174.85,11.38,-53.93,1607,-6613,4748,1,-1,-1
-174.84,11.41,-53.88,1622,-6589,4789,1,-2,-1
-174.84,11.45,-53.84,1643,-6577,4807,1,-2,-1
-174.84,11.48,-53.80,1639,-6564,4830,0,-1,-1
-174.81,11.52,-53.77,1615,-6565,4823,1,-1,-2
-174.77,11.56,-53.72,1621,-6552,4836,1,-1,-3
-174.70,11.61,-53.69,1640,-6549,4855,0,0,-3
-174.63,11.67,-53.67,1672,-6529,4861,0,0,-3
-174.55,11.72,-53.64,1689,-6512,4881,-1,1,-3
-174.47,11.76,-53.63,1713,-6505,4900,-2,0,-2
-174.41,11.79,-53.66,1725,-6527,4862,-2,1,-2
-174.37,11.80,-53.68,1742,-6532,4825,-1,1,-1
-174.34,11.80,-53.69,1742,-6542,4812,-1,1,-1
-174.34,11.78,-53.70,1727,-6547,4811,-1,1,0
-174.34,11.76,-53.71,1726,-6538,4825,-1,1,0
-174.35,11.73,-53.73,1701,-6561,4806,-1,0,0
-174.37,11.71,-53.75,1687,-6572,4801,-1,0,0
-174.40,11.67,-53.76,1656,-6593,4795,0,0,0
-174.41,11.67,-53.76,1657,-6578,4808,0,-1,0
-174.42,11.66,-53.75,1655,-6571,4810,0,-1,0
-174.42,11.66,-53.74,1658,-6556,4821,0,0,-1
-174.41,11.67,-53.74,1651,-6549,4836,-1,0,-1
-174.38,11.67,-53.76,1652,-6555,4840,-1,0,-2
-174.33,11.69,-53.78,1686,-6538,4842,-2,0,-2
-174.30,11.71,-53.81,1680,-6560,4825,-2,0,-2
-174.27,11.73,-53.84,1649,-6566,4774,-1,-1,-1
-174.24,11.77,-53.85,1630,-6553,4776,-1,-2,-2
-174.20,11.82,-53.87,1707,-6611,4810,-1,-2,-2
-174.17,11.86,-53.87,1766,-6581,4827,-1,-1,0
-174.17,11.86,-53.87,1756,-6556,4769,0,0,0
-174.18,11.86,-53.82,1691,-6545,4777,2,-1,-1
-174.18,11.88,-53.78,1701,-6506,4831,-1,-1,-1
-174.17,11.88,-53.78,1725,-6514,4863,-1,1,-1
-174.15,11.86,-53.80,1753,-6463,4923,-3,1,-1
-174.09,11.86,-53.89,1702,-6528,4834,-4,2,-2
-174.00,11.88,-53.92,1631,-6541,4840,-3,3,-5
-173.84,11.91,-53.98,1622,-6571,4881,-5,4,-7
-173.64,11.96,-54.07,1727,-6551,4934,-8,6,-6
-173.44,11.99,-54.25,1709,-6559,4844,-9,5,-6
-173.26,12.04,-54.44,1655,-6622,4684,-7,3,-7
-173.06,12.13,-54.54,1636,-6648,4640,-4,2,-7
-172.86,12.23,-54.60,1727,-6612,4707,-5,2,-6
-172.72,12.29,-54.72,1846,-6706,4642,-3,2,-3
-172.67,12.31,-54.76,1831,-6698,4605,-1,0,-1
-172.65,12.32,-54.76,1837,-6665,4620,0,1,-1
-172.67,12.29,-54.77,1829,-6646,4693,-2,0,1
-172.70,12.26,-54.83,1836,-6621,4728,-3,0,2
-172.73,12.20,-54.94,1829,-6617,4729,-5,1,2
-172.75,12.15,-55.06,1830,-6612,4635,-4,2,1
-172.77,12.08,-55.08,1701,-6644,4635,0,2,0
-172.80,12.05,-55.09,1661,-6695,4628,-1,-2,0
-172.84,12.06,-55.08,1656,-6728,4538,3,-3,0
-172.88,12.09,-55.02,1653,-6735,4530,3,-4,0
-172.90,12.14,-54.92,1668,-6702,4590,4,-4,-1
-172.92,12.19,-54.80,1678,-6685,4605,5,-3,-1
-172.90,12.25,-54.68,1708,-6640,4757,2,-2,-2
-172.86,12.32,-54.66,1781,-6603,4789,0,-3,-1
-172.83,12.38,-54.64,1773,-6601,4772,0,-2,-2
-172.79,12.43,-54.60,1768,-6594,4775,0,-1,-3
-172.72,12.49,-54.57,1828,-6550,4773,0,-1,-2
-172.66,12.55,-54.56,1868,-6530,4751,-1,0,-2
-172.63,12.56,-54.56,1855,-6562,4719,0,0,-1
-172.62,12.57,-54.53,1849,-6571,4734,0,0,-1
-172.61,12.59,-54.52,1841,-6594,4715,0,-1,0
-172.62,12.59,-54.52,1810,-6614,4689,0,-1,0
-172.63,12.59,-54.49,1798,-6614,4695,1,-1,0
-172.64,12.60,-54.47,1803,-6615,4694,0,-1,0
-172.64,12.61,-54.44,1798,-6602,4724,1,-1,-1
-172.65,12.63,-54.42,1800,-6610,4703,1,-1,-1
-172.66,12.64,-54.37,1792,-6601,4731,1,-2,-1
-172.65,12.67,-54.34,1808,-6593,4709,1,-1,-1
-172.66,12.69,-54.28,1784,-6563,4750,1,-2,-1
-172.65,12.73,-54.26,1852,-6562,4770,0,-1,-1
-172.64,12.74,-54.25,1863,-6563,4772,0,-1,0
-172.65,12.74,-54.24,1859,-6560,4770,0,-1,0
-172.68,12.72,-54.24,1849,-6558,4752,0,-1,0
-172.70,12.71,-54.24,1839,-6569,4754,0,-1,0
-172.73,12.69,-54.23,1839,-6571,4754,0,-1,0
-172.75,12.68,-54.22,1832,-6578,4736,0,0,0
-172.77,12.66,-54.21,1815,-6582,4735,0,0,0
-172.80,12.64,-54.21,1806,-6591,4717,0,-1,0
-172.82,12.64,-54.19,1795,-6588,4725,0,-1,0
-172.84,12.64,-54.17,1793,-6583,4729,1,-1,0
-172.85,12.65,-54.15,1795,-6574,4753,0,-1,0
-172.86,12.65,-54.13,1800,-6574,4744,1,-1,0
-172.87,12.66,-54.11,1816,-6570,4759,0,-1,0
-172.89,12.67,-54.09,1823,-6559,4766,0,-1,0
-172.89,12.67,-54.07,1834,-6552,4761,0,-1,0
-172.91,12.66,-54.05,1832,-6553,4775,0,-1,0
-172.93,12.66,-54.03,1838,-6555,4787,0,-1,0
-172.95,12.65,-54.03,1832,-6553,4773,0,-1,0
-172.98,12.63,-54.01,1820,-6548,4773,0,-1,0
-173.00,12.62,-53.99,1809,-6552,4768,0,-1,0
-173.01,12.61,-53.97,1794,-6557,4773,0,-1,-1
-173.01,12.62,-53.95,1801,-6559,4780,0,0,-1
-173.01,12.62,-53.94,1796,-6555,4787,-1,-1,-1
-173.00,12.63,-53.94,1805,-6555,4783,0,0,-1
-173.00,12.64,-53.92,1812,-6544,4796,0,-1,-1
-173.00,12.64,-53.91,1814,-6539,4800,0,-1,0
-173.00,12.65,-53.91,1821,-6545,4783,0,-1,-1
-172.99,12.66,-53.90,1819,-6549,4773,0,-1,-1
-173.00,12.66,-53.88,1823,-6540,4781,0,-1,-1
-172.99,12.67,-53.86,1827,-6539,4797,0,-1,0
-173.00,12.67,-53.85,1820,-6545,4790,0,-1,0
-173.01,12.68,-53.84,1820,-6542,4774,0,-1,0
-173.01,12.68,-53.83,1811,-6535,4767,0,-1,0
-173.02,12.69,-53.80,1824,-6530,4792,0,-1,0
-173.02,12.70,-53.78,1820,-6537,4807,0,-1,0
-173.03,12.69,-53.78,1825,-6526,4814,0,-1,0
-173.03,12.70,-53.76,1832,-6531,4812,0,-1,0
-173.04,12.69,-53.76,1830,-6528,4800,0,-1,0
-173.04,12.70,-53.76,1826,-6535,4803,0,-1,0
-173.04,12.70,-53.74,1821,-6535,4810,0,-1,0
-173.05,12.70,-53.75,1824,-6542,4786,0,-1,0
-173.05,12.70,-53.74,1829,-6537,4801,0,-1,0
-173.06,12.71,-53.73,1826,-6543,4785,0,-1,0
-173.07,12.71,-53.73,1823,-6539,4785,0,-1,0
-173.07,12.72,-53.72,1832,-6533,4794,0,-1,0
-173.08,12.72,-53.71,1827,-6534,4805,0,-1,0
-173.08,12.72,-53.71,1832,-6530,4804,0,-1,0
-173.09,12.72,-53.70,1835,-6528,4813,0,-1,0
-173.10,12.72,-53.70,1828,-6527,4803,0,-1,0
-173.11,12.72,-53.69,1822,-6527,4810,0,-1,0
-173.12,12.71,-53.68,1830,-6524,4811,0,-1,0
-173.13,12.71,-53.68,1826,-6530,4807,0,-1,0
-173.14,12.71,-53.67,1829,-6526,4803,0,-1,0
-173.15,12.70,-53.67,1824,-6529,4797,0,-1,0
-173.16,12.70,-53.67,1826,-6523,4800,0,-1,0
-173.17,12.70,-53.67,1824,-6519,4802,0,-1,0
-173.18,12.69,-53.66,1828,-6517,4810,0,-1,0
-173.19,12.70,-53.66,1825,-6524,4802,-1,-1,0
-173.20,12.69,-53.65,1819,-6525,4797,0,-1,0
-173.20,12.69,-53.65,1825,-6520,4803,0,-1,0
-173.21,12.69,-53.64,1830,-6512,4815,0,-1,0
-173.22,12.69,-53.64,1826,-6512,4815,-1,-1,0
-173.24,12.68,-53.64,1815,-6514,4819,0,-1,0
-173.24,12.68,-53.64,1814,-6518,4810,0,-1,0
-173.25,12.68,-53.63,1816,-6521,4809,0,-1,0
-173.26,12.68,-53.62,1818,-6525,4807,0,-1,0
-173.27,12.67,-53.61,1824,-6525,4813,0,-1,0
-173.28,12.67,-53.61,1827,-6524,4805,0,-1,0
-173.29,12.67,-53.60,1829,-6524,4819,0,-1,0
-173.30,12.67,-53.60,1823,-6525,4813,0,-1,0
-173.31,12.67,-53.58,1826,-6521,4816,0,-1,0
-173.33,12.67,-53.58,1825,-6518,4821,0,-1,0
-173.35,12.66,-53.57,1831,-6532,4824,0,-1,0
-173.36,12.66,-53.57,1823,-6522,4818,0,-1,0
-173.38,12.65,-53.56,1825,-6532,4821,0,-1,0
-173.40,12.64,-53.55,1817,-6521,4813,0,-1,0
-173.41,12.64,-53.53,1816,-6515,4825,0,-1,0
-173.42,12.64,-53.51,1822,-6513,4846,0,-1,0
-173.42,12.64,-53.52,1816,-6520,4831,0,-1,0
-173.43,12.64,-53.51,1818,-6517,4830,0,-1,0
-173.44,12.64,-53.51,1820,-6519,4835,0,-1,0
-173.45,12.65,-53.50,1828,-6514,4838,0,-1,0
-173.45,12.65,-53.49,1826,-6516,4833,0,-1,0
-173.46,12.65,-53.50,1818,-6521,4824,0,-1,0
-173.46,12.65,-53.50,1819,-6518,4816,0,-1,0
-173.47,12.65,-53.49,1818,-6515,4825,0,-1,0
-173.47,12.66,-53.48,1818,-6515,4834,0,-1,0
-173.47,12.66,-53.48,1810,-6512,4840,-1,-1,0
-173.48,12.66,-53.48,1812,-6509,4837,0,-1,0
-173.48,12.67,-53.47,1813,-6509,4826,0,-1,-1
-173.48,12.67,-53.47,1821,-6507,4837,0,-1,-1
-173.47,12.69,-53.46,1828,-6504,4845,-1,-1,-1
-173.46,12.70,-53.46,1838,-6509,4832,-1,-1,-1
-173.45,12.70,-53.47,1838,-6506,4831,-1,-1,-1
-173.44,12.71,-53.47,1830,-6504,4836,-1,-1,-1
-173.43,12.72,-53.47,1828,-6507,4826,-1,-1,-1
-173.41,12.73,-53.49,1833,-6514,4814,-1,0,-1
-173.41,12.74,-53.49,1817,-6520,4819,-1,-1,-1
-173.39,12.75,-53.49,1816,-6515,4817,0,0,-1
-173.36,12.77,-53.49,1829,-6512,4819,-1,0,-2
-173.33,12.79,-53.47,1829,-6503,4827,0,0,-2
-173.30,12.81,-53.46,1833,-6517,4806,0,0,-2
-173.28,12.82,-53.43,1830,-6515,4824,0,-1,-1
-173.26,12.86,-53.41,1855,-6514,4811,1,-1,-1
-173.25,12.87,-53.38,1845,-6509,4833,0,-1,-1
-173.24,12.89,-53.37,1845,-6511,4827,0,-1,-1
-173.22,12.91,-53.35,1858,-6504,4830,0,-1,-1
-173.21,12.92,-53.33,1863,-6491,4850,0,-1,-1
-173.20,12.94,-53.32,1881,-6478,4863,0,0,-1
-173.18,12.95,-53.31,1876,-6473,4875,-1,0,-1
-173.17,12.96,-53.30,1877,-6479,4858,-1,0,-1
-173.16,12.96,-53.30,1878,-6483,4837,0,0,-1
-173.16,12.96,-53.29,1874,-6483,4841,0,0,0
-173.16,12.96,-53.29,1875,-6492,4835,0,-1,0
-173.17,12.95,-53.29,1856,-6491,4836,0,-1,-1
-173.17,12.96,-53.28,1860,-6502,4822,0,0,0
-173.17,12.96,-53.28,1850,-6499,4831,0,-1,-1
-173.16,12.97,-53.27,1853,-6488,4833,0,-1,-1
-173.16,12.98,-53.26,1865,-6486,4832,0,-1,-1
-173.16,12.97,-53.24,1859,-6473,4865,0,0,-1
-173.16,12.98,-53.23,1878,-6478,4849,0,0,0
-173.16,12.97,-53.21,1862,-6479,4873,0,0,-1
-173.16,12.98,-53.20,1861,-6477,4867,0,0,-1
-173.16,12.97,-53.20,1871,-6478,4871,-1,0,0
-173.17,12.96,-53.19,1865,-6478,4876,0,0,0
-173.16,12.96,-53.20,1874,-6481,4854,-1,0,0
-173.17,12.96,-53.20,1854,-6486,4858,-1,0,-1
-173.16,12.96,-53.20,1872,-6486,4844,0,0,0
-173.17,12.96,-53.20,1864,-6493,4845,-1,-1,0
-173.17,12.95,-53.19,1865,-6483,4861,0,0,-1
-173.17,12.95,-53.19,1867,-6492,4854,0,-1,0
-173.18,12.95,-53.18,1853,-6483,4873,0,-1,0
-173.18,12.95,-53.17,1863,-6481,4857,0,-1,0
-173.19,12.95,-53.16,1861,-6478,4865,0,-1,-1
-173.19,12.95,-53.15,1853,-6475,4872,0,0,-1
-173.18,12.95,-53.16,1851,-6473,4866,-1,-1,-1
-173.19,12.95,-53.15,1853,-6470,4854,0,0,-1
-173.18,12.95,-53.13,1866,-6474,4861,0,0,-1
-173.19,12.95,-53.13,1863,-6476,4864,0,0,-1
-173.18,12.96,-53.12,1876,-6472,4848,0,0,0
-173.19,12.95,-53.11,1875,-6469,4858,0,-1,0
-173.19,12.96,-53.11,1873,-6470,4844,0,-1,0
-173.20,12.95,-53.11,1865,-6476,4832,0,-1,0
-173.20,12.96,-53.10,1863,-6471,4847,0,-1,0
-173.21,12.96,-53.10,1860,-6464,4863,0,-1,0
-173.22,12.96,-53.09,1869,-6452,4868,0,-1,0
-173.22,12.97,-53.09,1869,-6456,4860,-1,-1,0
-173.23,12.96,-53.08,1864,-6464,4861,0,-1,0
-173.24,12.96,-53.08,1860,-6471,4862,-1,-1,0
-173.25,12.95,-53.08,1861,-6472,4871,-1,-1,0
-173.25,12.96,-53.09,1864,-6460,4876,-1,-1,0
-173.26,12.95,-53.09,1862,-6463,4869,-1,-1,0
-173.27,12.95,-53.10,1858,-6460,4878,-1,-1,0
-173.28,12.94,-53.09,1874,-6462,4876,0,0,0
-173.28,12.94,-53.10,1873,-6468,4866,-1,-1,0
-173.29,12.93,-53.11,1871,-6472,4858,0,-1,0
-173.31,12.93,-53.11,1857,-6477,4857,0,-1,0
-173.32,12.92,-53.11,1869,-6476,4866,0,-1,0
-173.34,12.91,-53.11,1850,-6481,4862,-1,-1,0
-173.35,12.90,-53.12,1844,-6480,4861,-1,-1,0
-173.36,12.91,-53.12,1849,-6482,4860,-1,-1,0
-173.36,12.91,-53.12,1872,-6472,4856,0,-1,0
-173.37,12.90,-53.12,1881,-6461,4864,0,-1,0
-173.40,12.89,-53.13,1863,-6462,4866,-1,-1,0
-173.41,12.87,-53.14,1845,-6475,4847,0,0,0
-173.43,12.86,-53.13,1840,-6482,4849,0,-1,0
-173.46,12.85,-53.14,1835,-6485,4866,0,-1,0
-173.48,12.84,-53.14,1835,-6474,4863,-1,-1,0
-173.48,12.84,-53.15,1840,-6478,4868,-1,-1,0
-173.49,12.84,-53.16,1864,-6468,4865,-1,-1,0
-173.50,12.83,-53.16,1869,-6481,4870,-1,-1,0
-173.52,12.82,-53.17,1853,-6480,4854,0,-1,0
-173.54,12.80,-53.16,1846,-6489,4861,0,0,0
-173.56,12.79,-53.15,1847,-6478,4865,0,-1,0
-173.59,12.77,-53.14,1847,-6477,4864,0,-1,0
-173.62,12.75,-53.14,1838,-6483,4868,0,0,0
-173.63,12.74,-53.15,1839,-6485,4857,-1,-1,0
-173.65,12.72,-53.16,1830,-6496,4855,0,-1,0
-173.68,12.71,-53.15,1818,-6471,4861,0,-1,0
-173.70,12.69,-53.16,1807,-6490,4845,-1,-1,0
-173.71,12.69,-53.17,1827,-6498,4840,0,0,0
-173.72,12.67,-53.15,1817,-6499,4851,0,0,0
-173.75,12.66,-53.14,1817,-6482,4874,0,-1,0
-173.75,12.66,-53.12,1822,-6484,4869,0,-1,0
-173.77,12.65,-53.11,1810,-6487,4857,1,0,-1
-173.77,12.65,-53.08,1814,-6481,4862,0,0,0
-173.78,12.65,-53.06,1814,-6469,4883,0,-1,0
-173.79,12.64,-53.05,1828,-6473,4882,0,-1,0
-173.81,12.63,-53.03,1814,-6464,4894,0,-1,0
-173.81,12.63,-53.04,1825,-6469,4882,0,0,0
-173.83,12.62,-53.03,1820,-6480,4886,0,-1,0
-173.85,12.61,-53.03,1815,-6476,4868,0,0,0
-173.86,12.59,-53.01,1815,-6476,4881,0,0,0
-173.87,12.59,-53.00,1825,-6471,4878,0,0,0
-173.89,12.57,-53.00,1821,-6481,4877,0,-1,0
-173.92,12.56,-52.98,1801,-6477,4868,0,0,0
-173.93,12.55,-52.97,1808,-6488,4871,0,-1,0
-173.95,12.54,-52.96,1800,-6486,4896,0,0,0
-173.96,12.53,-52.94,1800,-6485,4891,0,0,0
-173.98,12.52,-52.92,1798,-6470,4911,0,-1,0
-173.99,12.52,-52.92,1800,-6465,4903,0,0,0
-174.00,12.50,-52.91,1793,-6462,4909,-1,0,0
-174.01,12.49,-52.91,1813,-6454,4901,-1,0,0
-174.03,12.47,-52.92,1798,-6439,4923,-1,0,0
-174.04,12.46,-52.94,1817,-6455,4898,-1,0,0
-174.05,12.43,-52.95,1787,-6470,4903,-1,0,0
-174.06,12.42,-52.95,1790,-6475,4879,0,0,0
-174.08,12.39,-52.95,1781,-6479,4894,-1,0,0
-174.08,12.38,-52.96,1777,-6484,4877,0,0,0
-174.09,12.38,-52.96,1789,-6484,4883,-1,0,0
-174.10,12.37,-52.96,1768,-6477,4896,-1,0,0
-174.10,12.36,-52.97,1788,-6474,4878,-1,0,0
-174.10,12.35,-52.97,1771,-6470,4895,-1,0,-1
-174.09,12.35,-52.97,1789,-6468,4869,0,0,0
-174.10,12.34,-52.97,1759,-6471,4890,-1,-1,-1
-174.10,12.34,-52.97,1752,-6482,4870,0,0,-1
-174.09,12.35,-52.97,1774,-6491,4889,-1,-1,-1
-174.08,12.36,-52.95,1764,-6478,4926,0,0,-1
-174.05,12.37,-52.94,1805,-6448,4895,0,1,-1
-174.03,12.36,-52.90,1807,-6440,4944,0,1,-1
-174.01,12.36,-52.89,1823,-6448,4916,-1,1,0
-174.01,12.34,-52.89,1783,-6480,4904,-1,0,0
-174.03,12.32,-52.90,1728,-6492,4864,0,-1,-1
-174.02,12.34,-52.90,1724,-6511,4848,0,-1,-1
-174.00,12.37,-52.87,1716,-6500,4865,1,-1,-2
-173.97,12.41,-52.83,1785,-6480,4897,0,-1,-1
-173.95,12.42,-52.81,1811,-6449,4953,-1,0,-1
-173.93,12.43,-52.81,1850,-6433,4937,-1,0,0
-173.93,12.41,-52.81,1809,-6440,4936,-1,0,-1
-173.92,12.41,-52.82,1801,-6446,4907,0,0,0
-173.92,12.40,-52.80,1791,-6421,4938,0,1,-1
-173.87,12.38,-52.77,1781,-6346,5000,-2,3,-2
-173.80,12.37,-52.81,1808,-6420,5006,-4,3,-2
-173.75,12.34,-52.87,1781,-6437,4946,-3,3,-2
-173.71,12.33,-52.95,1796,-6482,4887,-3,1,-1
-173.70,12.31,-52.99,1771,-6475,4872,-2,1,-1
-173.68,12.30,-53.04,1766,-6502,4842,-2,0,-1
-173.68,12.29,-53.06,1735,-6536,4855,-1,0,-1
-173.67,12.30,-53.07,1739,-6545,4835,0,0,-1
-173.65,12.30,-53.06,1710,-6525,4857,0,0,-2
-173.62,12.32,-53.05,1745,-6487,4882,-1,0,-2
-173.58,12.34,-53.06,1778,-6486,4910,-1,0,-2
-173.54,12.35,-53.07,1796,-6462,4936,-2,2,-2
-173.49,12.34,-53.11,1803,-6450,4974,-3,2,-2
-173.44,12.33,-53.17,1811,-6433,4938,-4,1,-1
-173.39,12.32,-53.24,1794,-6459,4875,-3,2,-2
-173.35,12.30,-53.31,1775,-6467,4909,-5,1,-1
-173.30,12.29,-53.40,1802,-6494,4822,-3,2,-2
-173.26,12.27,-53.47,1796,-6543,4874,-4,2,-1
-173.25,12.24,-53.57,1774,-6576,4806,-4,0,0
-173.26,12.22,-53.63,1778,-6564,4775,-2,-1,0
-173.29,12.22,-53.66,1745,-6556,4765,-1,-1,1
-173.31,12.21,-53.68,1683,-6597,4764,-1,-1,-1
-173.30,12.22,-53.68,1727,-6561,4775,0,0,-1
-173.28,12.23,-53.67,1721,-6550,4830,-2,0,-1
-173.23,12.24,-53.70,1742,-6536,4804,-2,0,-2
-173.20,12.26,-53.72,1753,-6550,4785,-1,0,-2
-173.17,12.27,-53.72,1787,-6533,4853,-2,0,-1
-173.15,12.28,-53.75,1810,-6538,4799,-2,1,-1
-173.15,12.26,-53.75,1793,-6528,4791,0,1,0
-173.18,12.23,-53.74,1771,-6544,4796,0,0,0
-173.21,12.20,-53.72,1774,-6540,4787,1,0,1
-173.24,12.16,-53.71,1740,-6547,4828,-2,0,1
-173.27,12.15,-53.72,1706,-6589,4763,1,-1,0
-173.30,12.14,-53.71,1710,-6609,4738,1,-1,0
-173.34,12.13,-53.66,1682,-6575,4790,1,-2,0
-173.33,12.14,-53.63,1678,-6579,4787,1,0,-2
-173.29,12.17,-53.59,1707,-6580,4785,1,0,-2
-173.25,12.23,-53.54,1712,-6603,4733,3,-1,-3
-173.20,12.29,-53.39,1664,-6639,4744,6,0,-4
-173.13,12.37,-53.18,1694,-6578,4827,7,-1,-5
-173.06,12.48,-52.97,1730,-6522,4857,6,-2,-4
-172.99,12.58,-52.75,1780,-6427,4944,6,-1,-4
-172.93,12.69,-52.59,1834,-6394,4993,3,-3,-3
-172.90,12.78,-52.46,1929,-6453,4911,6,-2,-1
-172.94,12.79,-52.29,1881,-6498,4876,6,-1,0
-172.97,12.79,-52.09,1844,-6480,4903,8,1,-2
-172.94,12.80,-51.86,1874,-6330,5108,4,2,-3
-172.89,12.83,-51.74,2007,-6205,5257,-1,1,-1
-172.87,12.80,-51.75,2097,-6166,5287,-5,3,2
-172.92,12.69,-51.84,2044,-6192,5182,-4,4,3
-173.01,12.53,-51.95,1980,-6248,5099,-5,4,4
-173.12,12.35,-52.06,2017,-6240,5031,-4,5,5
-173.28,12.13,-52.17,2009,-6290,5024,-5,4,8
-173.50,11.88,-52.30,1916,-6367,4841,-3,3,10
-173.80,11.59,-52.36,1625,-6479,4773,1,1,9
-174.07,11.36,-52.35,1446,-6550,4806,3,-1,6
-174.28,11.24,-52.29,1470,-6589,4912,2,-4,6
-174.48,11.14,-52.27,1424,-6636,4892,4,-4,5
-174.64,11.06,-52.18,1355,-6628,5008,3,-3,2
-174.72,11.04,-52.13,1456,-6526,5036,1,-2,1
-174.75,11.02,-52.05,1468,-6311,5085,1,0,0
-174.73,11.04,-51.97,1515,-6115,5204,0,1,-2
-174.68,11.06,-52.01,1577,-5950,5360,-9,-2,-1
-174.62,11.09,-52.24,1685,-6004,5345,-13,-1,1
-174.52,11.06,-52.70,1694,-6487,5057,-16,5,-3
-174.37,10.98,-52.92,1619,-6495,5068,-10,9,-5
-174.22,10.93,-53.25,1637,-6517,5014,-17,5,-2
-174.11,10.85,-53.63,1689,-6569,4983,-13,7,0
-174.05,10.75,-54.06,1667,-6588,4848,-17,5,0
-174.01,10.64,-54.44,1629,-6628,4686,-13,5,2
-174.09,10.50,-54.82,1507,-6797,4580,-12,-3,4
-174.20,10.39,-55.02,1526,-6862,4524,-3,-1,5
-174.35,10.28,-55.18,1527,-6868,4438,-1,-2,7
-174.56,10.15,-55.21,1415,-6834,4531,0,-5,6
-174.77,10.07,-55.20,1503,-6774,4473,4,-4,7
-174.93,9.98,-55.14,1411,-6647,4617,-1,-1,3
-175.02,9.89,-55.12,1425,-6681,4744,-2,0,3
-175.14,9.80,-55.15,1495,-6728,4820,-2,0,4
-175.24,9.67,-55.27,1509,-6723,4840,-9,4,4
-175.28,9.49,-55.47,1337,-6721,4764,-8,7,0
-175.21,9.39,-55.63,1319,-6670,4648,-7,9,-3
-175.10,9.31,-55.74,1224,-6714,4665,-6,7,-5
-174.96,9.28,-55.92,1356,-6720,4683,-9,7,-3
-174.82,9.23,-56.12,1388,-6766,4708,-10,8,-4
-174.73,9.18,-56.38,1357,-6813,4634,-12,5,-2
-174.63,9.12,-56.61,1313,-6805,4598,-8,7,-2
-174.50,9.06,-56.86,1314,-6737,4671,-14,9,-6
-174.24,9.04,-57.19,1264,-6799,4671,-16,10,-8
-173.98,9.04,-57.59,1268,-6719,4516,-17,11,-10
-173.64,9.08,-57.94,1235,-6902,4435,-13,12,-10
-173.38,9.12,-58.32,1231,-7043,4383,-14,8,-8
-173.19,9.16,-58.70,1369,-7120,4158,-11,5,-5
-173.09,9.17,-58.91,1156,-7163,3957,-4,3,-6
-172.92,9.27,-58.87,1182,-7153,4155,-1,-2,-5
-172.87,9.38,-58.98,1178,-7319,3710,5,-5,-2
-172.81,9.51,-58.64,1224,-7075,4177,9,-4,-6
-172.70,9.67,-58.47,1232,-7059,4157,6,-4,-5
-172.56,9.83,-58.23,1268,-6997,4393,5,-3,-8
-172.36,10.06,-58.10,1459,-6934,4421,3,-4,-5
-172.24,10.21,-57.99,1380,-6925,4360,5,-3,-6
-172.13,10.38,-57.89,1435,-6893,4462,0,-9,-2
-172.01,10.58,-57.83,1609,-6914,4330,7,-3,-6
-171.90,10.73,-57.69,1631,-6794,4380,3,-3,-3
-171.81,10.85,-57.55,1667,-6820,4434,3,-1,-3
-171.79,10.92,-57.51,1653,-6884,4351,2,-3,0
-171.82,10.96,-57.44,1692,-6944,4329,4,-5,2
-171.93,10.97,-57.34,1694,-6944,4355,5,-7,4
-172.11,10.96,-57.25,1606,-6980,4310,6,-9,5
-172.26,10.95,-57.10,1488,-7100,4282,9,-6,2
-172.35,10.99,-56.79,1538,-6980,4405,11,-6,1
-172.42,11.05,-56.51,1507,-7018,4314,13,-4,-1
-172.41,11.12,-56.07,1494,-6795,4442,15,-1,-5
-172.33,11.23,-55.68,1619,-6650,4745,8,-1,-4
-172.29,11.32,-55.47,1666,-6695,4684,7,-1,-2
-172.23,11.37,-55.20,1684,-6682,4688,9,2,-4
-172.18,11.41,-54.97,1709,-6629,4738,6,1,-3
-172.15,11.45,-54.80,1672,-6664,4717,4,-1,-2
-172.12,11.48,-54.63,1651,-6630,4690,7,0,-3
-172.09,11.53,-54.44,1669,-6624,4790,4,-1,-2
-172.08,11.58,-54.33,1650,-6611,4715,5,-2,-1
-172.08,11.62,-54.17,1646,-6641,4725,5,-1,-2
-172.08,11.66,-54.03,1689,-6710,4784,5,-2,-1
-172.09,11.68,-53.88,1740,-6658,4774,6,0,-1
-172.11,11.68,-53.69,1714,-6507,4834,5,-1,-1
-172.13,11.71,-53.58,1737,-6478,4818,3,-2,1
-172.18,11.70,-53.46,1739,-6503,4791,6,-1,1
-172.24,11.68,-53.28,1715,-6443,4899,5,-1,1
-172.28,11.67,-53.13,1745,-6411,4983,3,0,1
-172.34,11.63,-53.03,1725,-6333,5082,0,-2,2
-172.40,11.59,-53.04,1655,-6295,5022,-1,-1,1
-172.41,11.57,-53.06,1579,-6132,5131,-6,-1,-1
-172.36,11.58,-53.22,1551,-5963,5205,-11,-1,-2
-172.27,11.61,-53.55,1565,-5900,5313,-19,-2,-2
-172.13,11.70,-54.17,1710,-6297,5102,-24,-3,0
-172.04,11.71,-54.73,1805,-6464,4934,-19,0,1
-171.99,11.64,-55.32,1823,-6745,4879,-27,3,-2
