Yaw,Pitch,Roll,AX,AY,AZ,GX,GY,GZ
-20.11,1.83,14.54,266,2069,7882,-1,-1,0
-20.12,1.83,14.52,252,2052,7880,-1,-1,0
-20.12,1.83,14.52,258,2047,7884,-1,0,0
-20.12,1.83,14.52,254,2040,7907,-1,0,0
-20.12,1.84,14.52,263,2028,7901,0,-1,0
-20.12,1.84,14.52,268,2041,7890,0,-1,0
-20.12,1.85,14.53,273,2054,7883,0,-1,0
-20.12,1.86,14.53,279,2058,7881,-1,-1,-1
-20.12,1.86,14.53,279,2055,7879,-1,-1,0
-20.12,1.85,14.53,281,2031,7887,-1,0,-1
-20.11,1.85,14.53,260,2034,7897,0,-1,-1
-20.11,1.85,14.53,257,2038,7888,0,-1,0
-20.11,1.85,14.53,251,2051,7890,0,-1,0
-20.12,1.85,14.53,267,2051,7880,-1,-1,0
-20.12,1.85,14.53,269,2050,7886,-1,0,0
-20.12,1.85,14.53,271,2053,7888,-1,-1,0
-20.13,1.86,14.52,264,2041,7898,-1,-1,0
-20.13,1.87,14.51,269,2033,7890,-1,-1,0
-20.13,1.87,14.52,276,2041,7889,0,-1,0
-20.14,1.88,14.52,275,2038,7888,-1,-1,0
-20.14,1.87,14.51,265,2039,7896,-1,-1,0
-20.15,1.88,14.51,262,2031,7897,0,-1,0
-20.15,1.88,14.51,261,2033,7893,0,-1,0
-20.15,1.88,14.51,271,2040,7901,0,-1,0
-20.15,1.88,14.51,279,2052,7903,-1,-1,0
-20.15,1.88,14.51,273,2043,7902,-1,0,0
-20.15,1.89,14.51,272,2034,7893,-1,0,0
-20.15,1.89,14.51,272,2034,7892,0,-1,0
-20.15,1.89,14.51,279,2041,7891,0,-1,0
-20.15,1.89,14.51,271,2050,7881,-1,0,0
-20.15,1.90,14.51,281,2053,7881,-1,-1,0
-20.16,1.90,14.51,278,2050,7884,-1,0,0
-20.16,1.90,14.51,265,2040,7895,-1,-1,0
-20.16,1.90,14.51,272,2041,7888,0,-1,0
-20.16,1.90,14.51,267,2041,7898,-1,-1,0
-20.16,1.91,14.51,268,2049,7892,0,-1,0
-20.16,1.91,14.51,274,2047,7889,-1,-1,0
-20.17,1.91,14.51,274,2045,7882,-1,-1,0
-20.17,1.91,14.51,280,2040,7886,-1,0,0
-20.17,1.91,14.51,273,2051,7883,0,0,-1
-20.17,1.91,14.52,269,2054,7888,-1,0,0
-20.17,1.91,14.51,271,2043,7893,-1,0,0
-20.17,1.91,14.52,272,2055,7887,0,-1,0
-20.17,1.91,14.52,277,2054,7892,-1,0,0
-20.17,1.91,14.52,276,2046,7907,-1,0,0
-20.17,1.92,14.52,278,2041,7899,0,-1,0
-20.17,1.92,14.52,280,2040,7890,0,-1,0
-20.18,1.92,14.52,280,2049,7881,-1,-1,0
-20.18,1.92,14.52,284,2047,7882,-1,-1,0
-20.18,1.93,14.51,281,2042,7885,-1,-1,0
-20.18,1.93,14.51,278,2038,7894,0,-1,0
-20.18,1.93,14.51,277,2036,7903,0,-1,0
-20.19,1.94,14.51,272,2039,7914,0,-1,0
-20.19,1.94,14.51,279,2041,7900,0,-1,0
-20.19,1.94,14.52,289,2046,7883,0,-1,0
-20.19,1.94,14.52,289,2049,7881,0,-1,-1
-20.19,1.94,14.52,282,2045,7892,-1,-1,0
-20.19,1.94,14.52,282,2038,7896,-1,-1,-1
-20.19,1.95,14.51,281,2032,7899,-1,-1,-1
-20.19,1.95,14.51,274,2027,7895,0,-1,0
-20.19,1.95,14.51,277,2037,7894,0,-1,-1
-20.19,1.95,14.52,284,2051,7894,0,-1,-1
-20.19,1.96,14.52,286,2058,7887,-1,0,0
-20.19,1.96,14.52,280,2050,7884,-1,-1,0
-20.19,1.96,14.52,272,2044,7891,-1,0,0
-20.20,1.96,14.51,269,2039,7892,0,-1,-1
-20.19,1.96,14.52,280,2047,7880,0,-1,0
-20.20,1.97,14.52,283,2056,7885,-1,-1,0
-20.20,1.97,14.51,284,2046,7891,-1,-1,0
-20.20,1.97,14.51,282,2027,7889,-1,-1,0
-20.20,1.97,14.51,277,2034,7899,0,-1,0
-20.20,1.97,14.51,284,2042,7891,0,-1,-1
-20.20,1.97,14.51,289,2053,7888,-1,0,-1
-20.20,1.97,14.51,280,2052,7890,-1,0,0
-20.20,1.97,14.51,284,2035,7891,-1,-1,0
-20.20,1.98,14.50,282,2030,7898,0,-1,-1
-20.20,1.98,14.50,281,2043,7890,0,-1,-1
-20.20,1.99,14.51,284,2049,7888,-1,0,-1
-20.20,1.99,14.51,276,2048,7886,-1,-1,-1
-20.21,1.99,14.51,284,2045,7877,0,-1,0
-20.21,1.99,14.50,284,2042,7891,-1,-1,-1
-20.21,1.99,14.50,283,2042,7893,0,-1,-1
-20.21,2.00,14.50,285,2038,7895,0,-1,0
-20.21,2.00,14.50,292,2035,7901,0,-1,0
-20.21,2.01,14.50,293,2030,7895,0,0,-1
-20.21,2.01,14.50,295,2035,7898,-1,0,-1
-20.21,2.01,14.50,291,2042,7891,-1,0,0
-20.21,2.01,14.49,289,2038,7892,-1,-1,0
-20.21,2.01,14.49,291,2029,7902,0,-1,-1
-20.21,2.01,14.49,294,2021,7893,0,0,-1
-20.20,2.00,14.50,287,2032,7883,0,-1,-1
-20.20,2.00,14.50,285,2043,7888,0,0,0
-20.20,2.01,14.50,296,2033,7897,-1,-1,-1
-20.20,2.01,14.50,294,2040,7897,0,0,0
-20.21,2.01,14.50,280,2042,7902,0,-1,0
-20.21,2.02,14.50,308,2041,7899,0,0,-1
-20.21,2.01,14.51,285,2043,7879,0,-1,-1
-20.20,2.02,14.50,291,2053,7888,-1,-1,-1
-20.20,2.02,14.50,283,2038,7893,-1,-1,0
-20.21,2.03,14.50,285,2035,7892,0,0,0
-20.21,2.03,14.50,288,2036,7890,-1,-1,0
-20.22,2.04,14.50,299,2023,7880,0,-1,0
-20.22,2.04,14.51,317,2043,7882,0,0,0
-20.22,2.04,14.51,291,2049,7890,-1,-1,0
-20.23,2.05,14.51,311,2037,7882,0,0,-1
-20.22,2.05,14.51,304,2066,7885,-1,0,-1
-20.23,2.05,14.51,293,2023,7881,0,-1,0
-20.23,2.05,14.51,306,2045,7900,-1,0,0
-20.24,2.05,14.51,279,2043,7867,0,-1,0
-20.25,2.07,14.50,302,2041,7897,-1,-1,0
-20.25,2.07,14.50,313,2045,7885,0,0,-1
-20.25,2.06,14.50,293,2046,7875,-1,0,0
-20.27,2.07,14.50,299,2033,7880,-1,-1,0
-20.26,2.07,14.49,301,2040,7884,-1,0,0
-20.27,2.06,14.48,291,2022,7894,0,-1,0
-20.27,2.07,14.48,320,2022,7892,0,0,-1
-20.26,2.06,14.48,302,2044,7880,-1,0,-1
-20.26,2.05,14.48,305,2024,7874,-1,0,-1
-20.25,2.04,14.47,284,2034,7880,-1,0,-1
-20.24,2.03,14.47,301,2030,7881,0,0,-1
-20.23,2.03,14.47,297,2045,7892,-1,0,-1
-20.22,2.02,14.48,290,2045,7889,-1,0,-1
-20.22,2.02,14.47,285,2038,7873,-1,0,-1
-20.21,2.01,14.46,286,2031,7889,0,0,0
-20.21,2.01,14.46,288,2025,7905,0,-1,-1
-20.20,2.01,14.48,305,2040,7894,0,0,-1
-20.20,2.00,14.48,303,2052,7884,0,0,-1
-20.19,1.99,14.47,295,2036,7879,-1,0,-1
-20.19,1.99,14.47,284,2027,7884,-1,0,-1
-20.19,1.98,14.47,286,2027,7891,0,0,-1
-20.18,1.98,14.48,290,2044,7897,0,-1,-1
-20.18,1.98,14.48,293,2044,7897,0,0,-1
-20.18,1.98,14.48,289,2039,7893,-1,0,-1
-20.18,1.97,14.48,297,2043,7892,-1,0,-1
-20.17,1.96,14.48,293,2027,7881,-1,0,-1
-20.17,1.96,14.47,287,2025,7892,-1,0,-1
-20.16,1.95,14.47,272,2024,7893,0,0,-1
-20.16,1.95,14.47,278,2031,7888,0,0,-1
-20.15,1.94,14.48,281,2052,7888,0,0,-1
-20.15,1.94,14.48,284,2048,7888,-1,0,-1
-20.15,1.94,14.47,287,2026,7890,-1,0,-1
-20.15,1.93,14.47,279,2022,7900,0,0,-1
-20.15,1.93,14.47,284,2020,7891,0,0,-1
-20.14,1.92,14.47,280,2023,7900,0,0,-1
-20.14,1.92,14.47,280,2030,7901,0,-1,-1
-20.15,1.93,14.47,284,2032,7890,0,-1,-1
-20.14,1.93,14.48,293,2027,7885,0,0,-1
-20.14,1.93,14.48,294,2026,7882,0,0,-1
-20.14,1.92,14.48,287,2034,7885,0,0,-1
-20.13,1.92,14.47,282,2028,7895,-1,0,-1
-20.13,1.91,14.47,272,2031,7901,-1,0,-1
-20.12,1.90,14.48,268,2027,7897,0,0,-1
-20.12,1.89,14.48,269,2033,7901,0,0,-1
-20.11,1.89,14.48,273,2029,7898,0,0,-1
-20.11,1.89,14.48,271,2040,7895,0,0,-1
-20.11,1.89,14.48,276,2040,7897,-1,0,-1
-20.11,1.89,14.47,275,2033,7896,-1,0,-1
-20.10,1.88,14.47,273,2037,7891,0,0,-1
-20.10,1.88,14.48,276,2043,7887,0,0,-1
-20.10,1.87,14.48,273,2053,7894,-1,0,-1
-20.10,1.87,14.47,275,2039,7889,-1,0,-1
-20.10,1.87,14.47,278,2026,7891,0,0,-1
-20.09,1.86,14.47,272,2025,7897,0,0,-1
-20.09,1.86,14.47,283,2025,7880,0,0,-1
-20.08,1.86,14.48,266,2054,7896,0,0,-1
-20.08,1.85,14.48,261,2052,7901,-1,0,-1
-20.08,1.84,14.48,258,2037,7896,-1,0,0
-20.08,1.85,14.48,269,2033,7903,0,0,-1
-20.08,1.84,14.48,273,2038,7907,0,0,-1
-20.07,1.84,14.48,271,2043,7908,0,0,-1
-20.07,1.83,14.48,263,2046,7904,-1,0,-1
-20.07,1.83,14.48,261,2036,7893,0,0,-1
-20.07,1.83,14.48,260,2032,7889,0,0,-1
-20.07,1.82,14.47,252,2031,7900,-1,0,-1
-20.07,1.82,14.48,254,2035,7896,0,0,-1
-20.07,1.82,14.48,270,2038,7895,0,0,-1
-20.07,1.83,14.48,268,2040,7901,0,0,-1
-20.07,1.82,14.48,264,2038,7903,0,0,-1
-20.07,1.82,14.48,254,2043,7893,0,-1,-1
-20.07,1.82,14.48,255,2046,7892,0,0,-1
-20.06,1.82,14.49,264,2051,7893,0,0,-1
-20.06,1.81,14.50,265,2042,7891,0,0,-1
-20.06,1.81,14.50,265,2038,7892,0,-1,0
-20.06,1.81,14.49,259,2036,7889,0,-1,-1
-20.06,1.82,14.50,258,2038,7888,0,-1,-1
-20.06,1.81,14.50,253,2042,7894,0,-1,-1
-20.06,1.81,14.50,255,2046,7891,0,-1,0
-20.06,1.82,14.50,266,2051,7887,-1,-1,0
-20.07,1.83,14.50,268,2049,7878,-1,-1,0
-20.07,1.84,14.50,277,2045,7883,-1,-1,0
-20.07,1.84,14.50,272,2042,7881,0,0,-1
-20.07,1.84,14.50,263,2044,7890,-1,0,0
-20.08,1.84,14.49,268,2040,7899,-1,-1,0
-20.09,1.84,14.49,261,2033,7905,0,-1,0
-20.09,1.85,14.50,262,2038,7894,0,-1,0
-20.09,1.85,14.50,271,2040,7890,0,-1,0
-20.09,1.85,14.50,276,2045,7884,0,-1,0
-20.09,1.85,14.51,268,2048,7895,-1,0,-1
-20.09,1.85,14.50,268,2044,7904,-1,-1,-1
-20.09,1.85,14.50,263,2041,7903,-1,-1,0
-20.09,1.85,14.50,261,2044,7905,0,-1,0
-20.09,1.85,14.50,264,2046,7902,0,-1,0
-20.09,1.86,14.50,266,2051,7893,0,-1,0
-20.09,1.86,14.50,272,2059,7889,-1,-1,0
-20.09,1.86,14.51,275,2058,7886,-1,0,0
-20.09,1.86,14.50,274,2046,7886,-1,0,0
-20.09,1.86,14.50,274,2043,7892,0,0,0
-20.09,1.86,14.50,264,2045,7881,0,-1,0
-20.10,1.86,14.51,264,2043,7880,0,-1,0
-20.10,1.87,14.51,267,2043,7878,0,-1,-1
-20.10,1.87,14.51,276,2047,7881,0,0,-1
-20.10,1.87,14.51,272,2039,7887,-1,0,-1
-20.09,1.87,14.50,271,2042,7883,0,0,-1
-20.10,1.87,14.50,267,2041,7895,-1,0,0
-20.10,1.87,14.50,276,2040,7890,0,-1,0
-20.10,1.87,14.50,267,2043,7898,0,0,-1
-20.10,1.87,14.50,266,2040,7887,0,-1,0
-20.10,1.88,14.50,272,2044,7880,0,-1,-1
-20.10,1.88,14.51,276,2040,7875,0,-1,0
-20.10,1.88,14.51,283,2043,7878,0,0,0
-20.11,1.88,14.51,279,2037,7888,-1,-1,-1
-20.11,1.88,14.51,273,2045,7883,-1,-1,-1
-20.11,1.88,14.51,269,2034,7892,0,0,0
-20.11,1.88,14.51,273,2035,7894,0,-1,-1
-20.11,1.88,14.51,274,2040,7897,0,-1,0
-20.11,1.89,14.51,280,2048,7887,-1,0,0
-20.11,1.88,14.51,276,2041,7887,-1,0,-1
-20.11,1.89,14.51,279,2041,7890,0,-1,-1
-20.11,1.89,14.51,268,2042,7892,0,-1,-1
-20.11,1.88,14.51,267,2046,7890,0,-1,-1
-20.11,1.88,14.51,271,2054,7876,0,0,0
-20.11,1.89,14.51,282,2058,7877,0,-1,0
-20.11,1.89,14.51,283,2049,7885,-1,-1,0
-20.11,1.89,14.51,282,2047,7889,0,0,-1
-20.12,1.90,14.51,286,2046,7888,-1,-1,0
-20.12,1.90,14.50,276,2036,7897,0,-1,0
-20.12,1.90,14.51,271,2036,7892,0,-1,0
-20.12,1.90,14.51,276,2047,7887,0,-1,0
-20.12,1.91,14.52,282,2044,7889,-1,-1,0
-20.12,1.91,14.51,280,2040,7890,-1,-1,0
-20.12,1.91,14.51,274,2040,7889,-1,0,-1
-20.12,1.91,14.50,268,2034,7891,-1,0,-1
-20.12,1.91,14.50,270,2034,7894,-1,-1,0
-20.13,1.91,14.50,270,2035,7883,0,-1,0
-20.13,1.91,14.51,281,2034,7878,0,-1,0
-20.13,1.92,14.51,288,2049,7883,0,-1,-1
-20.13,1.92,14.51,292,2057,7882,-1,0,0
-20.13,1.92,14.51,284,2047,7888,-1,0,0
-20.13,1.91,14.50,270,2034,7891,-1,0,-1
-20.13,1.91,14.50,273,2031,7893,0,-1,-1
-20.12,1.91,14.51,270,2047,7877,0,-1,-1
-20.12,1.92,14.52,268,2051,7879,-1,-1,0
-20.13,1.92,14.52,273,2047,7872,-1,-1,0
-20.13,1.92,14.51,284,2040,7875,0,-1,0
-20.13,1.92,14.51,276,2040,7876,0,-1,-1
-20.13,1.92,14.51,272,2037,7883,0,-1,-1
-20.13,1.92,14.51,277,2037,7892,0,-1,0
-20.13,1.93,14.51,278,2040,7891,-1,-1,0
-20.13,1.93,14.51,274,2039,7889,-1,-1,0
-20.13,1.93,14.51,279,2036,7892,0,-1,0
-20.14,1.94,14.51,282,2039,7890,-1,-1,0
-20.14,1.94,14.50,280,2031,7886,0,-1,0
-20.14,1.94,14.50,288,2037,7879,0,0,-1
-20.14,1.94,14.50,287,2041,7896,-1,0,-1
-20.14,1.94,14.50,280,2044,7897,-1,0,-1
-20.14,1.93,14.50,281,2039,7890,-1,-1,0
-20.14,1.94,14.50,276,2032,7884,0,-1,0
-20.14,1.94,14.50,275,2043,7895,0,-1,0
-20.15,1.95,14.51,277,2054,7896,0,-1,0
-20.15,1.95,14.51,284,2057,7895,-1,-1,0
-20.15,1.95,14.51,278,2054,7896,-1,-1,0
-20.15,1.95,14.50,282,2040,7887,-1,-1,0
-20.15,1.95,14.50,282,2034,7877,0,-1,-1
-20.15,1.95,14.50,285,2038,7886,0,-1,0
-20.15,1.96,14.51,288,2046,7888,0,-1,-1
-20.15,1.96,14.51,288,2051,7882,-1,-1,-1
-20.15,1.96,14.51,295,2042,7890,-1,-1,-1
-20.14,1.96,14.50,290,2042,7893,-1,0,-1
-20.15,1.96,14.50,283,2043,7892,-1,-1,0
-20.15,1.96,14.49,279,2043,7892,-1,-1,-1
-20.15,1.97,14.48,287,2029,7892,-1,-1,0
-20.15,1.97,14.48,286,2028,7893,0,-1,-1
-20.14,1.97,14.49,282,2034,7882,0,-1,-1
-20.14,1.98,14.49,287,2050,7885,-1,-1,-1
-20.14,1.98,14.49,290,2051,7892,-1,-1,0
-20.14,1.98,14.48,293,2040,7894,-1,0,-1
-20.14,1.98,14.49,281,2037,7889,0,-1,-1
-20.14,1.98,14.49,280,2034,7910,-1,-1,0
-20.15,1.99,14.48,302,2022,7897,0,-1,0
-20.15,1.99,14.49,300,2041,7884,0,0,0
-20.15,1.98,14.50,285,2051,7890,0,0,-1
-20.15,1.99,14.49,286,2043,7898,-1,-1,0
-20.15,2.00,14.49,290,2028,7895,-1,-1,0
-20.16,2.01,14.49,304,2036,7900,0,-1,-1
-20.15,2.01,14.49,285,2043,7887,-1,-1,0
-20.16,2.02,14.49,302,2030,7891,0,0,0
-20.16,2.02,14.49,309,2030,7885,0,-1,0
-20.16,2.02,14.50,305,2053,7900,0,0,-1
-20.16,2.02,14.49,295,2042,7892,-1,0,-1
-20.16,2.02,14.48,291,2042,7900,-1,0,0
-20.16,2.02,14.48,288,2041,7893,-1,0,0
-20.16,2.02,14.48,288,2032,7894,0,-1,-1
-20.16,2.02,14.48,294,2050,7894,0,0,-1
-20.15,2.02,14.49,299,2053,7891,-1,0,0
-20.15,2.02,14.48,303,2040,7890,0,0,-1
-20.15,2.01,14.48,287,2024,7887,0,0,-1
-20.15,2.01,14.48,288,2036,7894,-1,0,-1
-20.15,2.01,14.48,288,2031,7899,-1,-1,-1
-20.15,2.01,14.48,295,2030,7890,0,-1,-1
-20.15,2.01,14.48,290,2039,7888,0,0,-1
-20.14,2.01,14.48,294,2033,7881,-1,-1,-1
-20.14,2.01,14.48,292,2039,7870,0,0,-1
-20.14,2.00,14.49,293,2050,7873,-1,-1,-1
-20.14,2.00,14.49,293,2039,7877,-1,0,-1
-20.13,2.00,14.48,287,2034,7881,0,0,-1
-20.13,1.99,14.48,291,2037,7889,-1,0,-1
-20.13,2.00,14.48,303,2025,7889,0,0,-1
-20.13,1.99,14.49,288,2036,7885,0,0,-1
-20.12,1.99,14.49,292,2045,7882,0,0,-1
-20.13,1.99,14.49,289,2046,7888,-1,0,0
-20.13,1.99,14.48,288,2041,7890,0,0,0
-20.13,1.99,14.48,284,2034,7891,0,0,-1
-20.13,1.99,14.48,289,2026,7901,0,0,-1
-20.13,1.99,14.49,294,2034,7889,0,0,-1
-20.13,1.99,14.49,293,2034,7884,0,-1,-1
-20.12,1.98,14.49,288,2035,7880,-1,0,-1
-20.12,1.98,14.49,283,2040,7881,-1,0,-1
-20.12,1.97,14.49,284,2040,7879,-1,0,-1
-20.11,1.97,14.48,285,2042,7885,-1,0,-1
-20.11,1.97,14.48,287,2035,7892,-1,0,-1
-20.11,1.96,14.48,282,2027,7889,-1,0,-1
-20.11,1.96,14.48,283,2024,7898,0,0,-1
-20.10,1.96,14.49,285,2043,7895,0,0,-1
-20.10,1.95,14.49,283,2053,7891,-1,0,-1
-20.10,1.95,14.49,283,2050,7883,-1,0,-1
-20.10,1.95,14.49,273,2048,7893,-1,0,-1
-20.09,1.95,14.48,279,2037,7905,-1,0,-1
-20.09,1.95,14.48,282,2029,7911,0,0,-1
-20.09,1.95,14.49,288,2033,7903,0,-1,-1
-20.08,1.94,14.50,287,2041,7899,0,0,-1
-20.08,1.94,14.50,282,2046,7886,0,0,-1
-20.08,1.94,14.50,287,2048,7887,-1,0,-1
-20.07,1.93,14.50,285,2052,7878,-1,0,-1
-20.06,1.92,14.50,284,2047,7893,-1,0,-1
-20.05,1.92,14.50,277,2043,7903,0,0,-1
-20.04,1.92,14.51,273,2040,7896,0,-1,-1
-20.04,1.92,14.51,277,2041,7903,0,0,-1
-20.04,1.90,14.52,271,2052,7894,0,0,-1
-20.03,1.91,14.52,275,2050,7885,0,0,-1
-20.04,1.90,14.52,283,2044,7900,0,0,-1
-20.03,1.90,14.52,264,2049,7894,-1,0,-1
-20.03,1.90,14.52,265,2038,7898,-1,0,0
-20.04,1.90,14.51,269,2033,7894,0,-1,-1
-20.03,1.89,14.53,272,2058,7897,-1,0,-1
-20.03,1.89,14.51,265,2040,7883,-1,0,0
-20.02,1.88,14.51,273,2026,7887,-1,0,-1
-20.03,1.88,14.50,272,2015,7884,0,-1,-1
-20.02,1.88,14.51,283,2034,7902,0,0,-1
-20.01,1.87,14.52,268,2047,7890,-1,0,-1
-20.02,1.87,14.51,275,2043,7892,-1,0,0
-20.01,1.87,14.50,272,2042,7893,-1,0,-1
-20.01,1.86,14.50,276,2036,7885,0,0,-1
-20.01,1.86,14.50,267,2040,7892,0,0,-1
-20.01,1.86,14.51,268,2048,7892,0,0,-1
-20.00,1.85,14.51,262,2054,7891,-1,0,-1
-20.00,1.85,14.51,268,2040,7884,-1,0,-1
-20.00,1.85,14.51,270,2041,7882,0,0,-1
-20.00,1.84,14.51,264,2040,7878,-1,0,-1
-20.00,1.84,14.51,264,2041,7881,0,0,-1
-20.00,1.84,14.51,262,2042,7881,0,0,-1
-20.00,1.84,14.51,274,2038,7883,0,0,-1
-19.99,1.83,14.51,275,2038,7894,-1,0,-1
-19.99,1.83,14.50,269,2034,7892,-1,0,-1
-19.99,1.83,14.50,274,2031,7901,0,0,-1
-19.99,1.82,14.50,270,2040,7900,0,0,-1
-19.99,1.82,14.51,269,2055,7891,0,0,-1
-19.99,1.81,14.51,254,2050,7903,-1,0,-1
-19.99,1.81,14.50,257,2024,7890,-1,0,-1
-19.98,1.80,14.50,255,2021,7885,0,-1,-1
-19.98,1.81,14.51,265,2040,7893,0,0,-1
-19.98,1.80,14.51,263,2050,7888,-1,0,-1
-19.98,1.80,14.51,253,2047,7886,-1,-1,0
-19.98,1.80,14.50,254,2042,7895,-1,0,0
-19.98,1.80,14.49,261,2037,7899,0,0,-1
-19.98,1.80,14.50,265,2035,7891,0,0,-1
-19.98,1.80,14.51,271,2041,7891,0,-1,-1
-19.98,1.80,14.51,272,2050,7881,0,0,0
-19.98,1.80,14.51,275,2055,7888,0,0,-1
-19.98,1.79,14.52,267,2056,7890,-1,0,-1
-19.98,1.78,14.51,263,2046,7901,-1,0,-1
-19.98,1.78,14.51,262,2041,7907,0,0,-1
-19.98,1.78,14.51,266,2043,7901,0,0,-1
-19.98,1.78,14.51,255,2035,7890,0,0,-1
-19.98,1.78,14.51,257,2046,7894,0,0,-1
-19.98,1.77,14.51,253,2043,7901,0,0,-1
-19.98,1.76,14.51,253,2043,7901,-1,0,0
-19.98,1.76,14.51,254,2040,7897,-1,0,-1
-19.98,1.76,14.51,259,2037,7895,0,0,-1
-19.98,1.76,14.51,254,2044,7890,0,0,-1
-19.98,1.76,14.51,256,2055,7895,0,0,-1
-19.98,1.76,14.51,260,2044,7900,-1,0,-1
-19.98,1.76,14.51,260,2035,7896,0,0,0
-19.98,1.76,14.51,258,2024,7909,0,0,-1
-19.98,1.76,14.51,266,2021,7896,0,-1,-1
-19.98,1.77,14.53,268,2051,7894,0,0,-1
-19.97,1.77,14.53,262,2054,7887,-1,0,-1
-19.98,1.77,14.52,265,2049,7888,-1,0,0
-19.98,1.77,14.52,261,2037,7890,0,-1,-1
-19.98,1.77,14.52,268,2028,7890,0,-1,0
-19.98,1.77,14.53,264,2039,7891,0,-1,-1
-19.98,1.77,14.53,256,2060,7893,0,0,0
-19.98,1.77,14.53,257,2055,7900,-1,-1,0
-19.99,1.77,14.53,256,2040,7905,-1,-1,0
-19.99,1.78,14.52,254,2038,7896,0,-1,0
-19.99,1.78,14.52,253,2034,7890,0,-1,0
-19.99,1.78,14.52,252,2037,7895,0,-1,0
-19.99,1.78,14.52,259,2043,7892,-1,-1,0
-19.99,1.79,14.52,263,2041,7888,-1,-1,0
-19.99,1.79,14.52,263,2043,7886,-1,-1,0
-19.99,1.79,14.52,266,2044,7888,-1,0,-1
-20.00,1.80,14.52,265,2042,7887,0,-1,-1
-20.00,1.80,14.52,259,2042,7881,0,-1,0
-20.00,1.80,14.52,254,2045,7885,0,-1,-1
-20.00,1.80,14.52,256,2055,7885,-1,-1,0
-20.00,1.80,14.52,254,2048,7892,-1,-1,0
-20.00,1.80,14.52,255,2048,7880,-1,-1,0
-20.00,1.80,14.52,253,2036,7878,0,-1,0
-20.00,1.80,14.52,251,2041,7883,0,-1,-1
-20.00,1.80,14.53,254,2054,7884,0,-1,0
-20.00,1.80,14.53,260,2055,7883,-1,-1,0
-20.00,1.80,14.53,253,2049,7888,-1,-1,0
-20.00,1.81,14.52,253,2041,7889,-1,-1,-1
-20.00,1.81,14.53,258,2049,7899,0,-1,0
-20.00,1.81,14.53,253,2050,7889,-1,0,0
-20.01,1.81,14.52,260,2037,7891,0,-1,0
-20.01,1.82,14.52,264,2029,7895,0,0,-1
-20.01,1.82,14.52,266,2041,7886,0,-1,-1
-20.01,1.82,14.53,266,2054,7887,0,-1,-1
-20.01,1.82,14.53,267,2062,7895,-1,-1,0
-20.01,1.83,14.52,265,2053,7896,-1,-1,-1
-20.01,1.83,14.52,266,2041,7896,0,-1,-1
-20.01,1.83,14.52,268,2033,7894,0,-1,-1
-20.01,1.83,14.52,269,2037,7889,0,-1,-1
-20.01,1.83,14.52,268,2047,7887,0,-1,0
-20.01,1.83,14.52,262,2044,7884,-1,-1,0
-20.02,1.84,14.52,263,2048,7886,-1,-1,0
-20.02,1.84,14.52,265,2033,7889,0,-1,-1
-20.02,1.84,14.52,268,2037,7894,0,-1,-1
-20.01,1.85,14.52,267,2043,7911,0,-1,-1
-20.01,1.85,14.52,259,2044,7899,-1,-1,0
-20.01,1.85,14.51,268,2031,7894,-1,-1,0
-20.01,1.86,14.52,281,2034,7896,0,-1,-1
-20.01,1.86,14.52,273,2037,7887,0,0,-1
-20.01,1.85,14.52,267,2042,7884,-1,-1,0
-20.01,1.86,14.52,272,2045,7886,-1,-1,0
-20.02,1.87,14.51,273,2045,7891,-1,-1,0
-20.02,1.87,14.51,273,2035,7896,0,-1,0
-20.02,1.87,14.51,267,2036,7891,0,-1,0
-20.03,1.87,14.52,265,2045,7891,0,-1,0
-20.03,1.88,14.52,269,2047,7883,-1,-1,0
-20.03,1.88,14.51,268,2047,7881,0,-1,0
-20.03,1.88,14.51,269,2037,7891,-1,-1,0
-20.04,1.89,14.51,277,2026,7895,0,-1,0
-20.04,1.90,14.51,280,2034,7892,0,-1,0
-20.04,1.90,14.51,286,2042,7890,-1,-1,0
-20.04,1.90,14.51,279,2045,7882,0,0,0
-20.05,1.90,14.51,277,2039,7875,-1,0,0
-20.04,1.91,14.51,277,2047,7878,0,-1,-1
-20.05,1.91,14.51,272,2056,7879,-1,-1,0
-20.05,1.91,14.51,271,2047,7876,-1,-1,0
-20.05,1.92,14.51,283,2043,7876,0,-1,0
-20.05,1.93,14.51,283,2044,7892,-1,-1,0
-20.06,1.93,14.50,291,2041,7893,0,-1,0
-20.06,1.93,14.50,292,2039,7892,-1,-1,0
-20.06,1.94,14.50,286,2042,7896,0,-1,0
-20.07,1.94,14.50,280,2038,7905,-1,-1,0
-20.07,1.94,14.50,283,2034,7898,0,0,0
-20.07,1.95,14.50,279,2039,7904,0,-1,0
-20.07,1.95,14.50,281,2046,7895,0,-1,0
-20.08,1.96,14.50,281,2051,7889,-1,-1,0
-20.08,1.96,14.49,278,2049,7887,-1,-1,0
-20.09,1.96,14.49,280,2038,7896,-1,-1,0
-20.09,1.97,14.49,282,2032,7893,-1,-1,0
-20.09,1.98,14.49,281,2032,7898,0,-1,0
-20.09,1.98,14.49,285,2028,7899,0,-1,0
-20.09,1.98,14.49,291,2034,7892,0,-1,0
-20.09,1.99,14.49,300,2041,7886,0,-1,0
-20.10,1.99,14.49,292,2043,7889,-1,-1,0
-20.10,1.99,14.49,288,2039,7885,-1,-1,0
-20.10,2.00,14.49,286,2034,7891,-1,-1,0
-20.10,2.00,14.48,286,2031,7898,-1,-1,0
-20.11,2.00,14.48,283,2035,7894,0,-1,0
-20.11,2.01,14.49,290,2044,7893,0,-1,0
-20.11,2.01,14.49,285,2041,7899,0,-1,0
-20.11,2.01,14.48,285,2044,7904,0,-1,0
-20.12,2.01,14.48,290,2041,7889,-1,-1,0
-20.12,2.01,14.48,283,2032,7887,-1,0,0
-20.12,2.01,14.48,282,2037,7896,0,-1,0
-20.12,2.02,14.48,281,2038,7890,0,-1,0
-20.13,2.02,14.48,283,2039,7894,-1,-1,0
-20.13,2.03,14.47,286,2036,7891,-1,-1,0
-20.13,2.03,14.47,293,2033,7888,-1,-1,0
-20.13,2.03,14.47,300,2038,7888,-1,0,0
-20.13,2.03,14.47,297,2041,7886,-1,0,-1
-20.13,2.03,14.47,295,2035,7892,-1,0,0
-20.13,2.03,14.46,291,2031,7898,-1,0,0
-20.13,2.03,14.46,290,2031,7900,0,0,0
-20.13,2.03,14.46,292,2033,7890,0,-1,0
-20.13,2.04,14.46,297,2029,7897,0,0,-1
-20.13,2.03,14.47,282,2032,7887,0,-1,-1
-20.12,2.04,14.48,287,2047,7882,0,-1,0
-20.13,2.04,14.49,287,2046,7887,-1,-1,-1
-20.12,2.05,14.48,290,2028,7904,0,-1,0
-20.13,2.06,14.48,298,2029,7886,0,-1,0
-20.13,2.06,14.48,297,2035,7884,0,0,-1
-20.12,2.06,14.49,291,2043,7877,0,0,-1
-20.12,2.05,14.49,290,2042,7892,-1,0,0
-20.13,2.05,14.48,295,2023,7892,-1,0,-1
-20.12,2.05,14.48,286,2037,7887,-1,-1,0
-20.13,2.05,14.47,300,2032,7893,-1,0,0
-20.12,2.05,14.47,295,2040,7883,0,0,-1
-20.12,2.04,14.47,286,2043,7883,-1,0,0
-20.12,2.04,14.46,299,2020,7891,0,0,-1
-20.12,2.04,14.47,290,2026,7885,0,0,-1
-20.11,2.04,14.47,292,2045,7886,-1,0,-1
-20.11,2.04,14.47,295,2045,7883,-1,0,-1
-20.11,2.03,14.47,290,2040,7889,0,0,-1
-20.11,2.03,14.47,283,2050,7892,0,0,-1
-20.11,2.03,14.47,281,2045,7893,-1,0,0
-20.11,2.02,14.47,276,2041,7890,-1,0,0
-20.11,2.02,14.47,279,2036,7901,0,-1,0
-20.11,2.02,14.47,288,2033,7899,0,-1,-1
-20.11,2.02,14.47,302,2039,7880,0,0,-1
-20.11,2.02,14.47,296,2046,7883,-1,0,-1
-20.10,2.01,14.48,290,2037,7883,-1,0,-1
-20.10,2.01,14.47,285,2034,7894,0,0,-1
-20.10,2.01,14.47,285,2030,7888,-1,0,-1
-20.10,2.00,14.47,285,2035,7884,0,0,-1
-20.10,2.00,14.48,288,2046,7894,0,0,-1
-20.10,2.00,14.48,283,2044,7895,0,0,-1
-20.09,1.99,14.48,287,2043,7901,-1,0,-1
-20.09,1.99,14.48,284,2041,7893,-1,0,-1
-20.09,1.99,14.47,282,2040,7889,-1,0,-1
-20.08,1.99,14.47,280,2024,7902,0,0,-1
-20.08,1.98,14.48,280,2027,7900,0,0,-1
-20.08,1.98,14.48,280,2030,7897,0,0,-1
-20.08,1.98,14.48,282,2039,7891,-1,0,0
-20.08,1.98,14.47,284,2035,7888,-1,0,-1
-20.09,1.98,14.47,283,2029,7881,-1,0,0
-20.08,1.97,14.46,284,2031,7883,0,0,-1
-20.08,1.97,14.47,283,2039,7880,0,0,-1
-20.08,1.96,14.47,278,2044,7888,-1,0,-1
-20.08,1.96,14.47,271,2042,7891,-1,0,-1
-20.07,1.96,14.47,271,2038,7896,0,0,-1
-20.07,1.95,14.47,272,2043,7889,0,0,-1
-20.07,1.95,14.47,277,2043,7892,-1,0,-1
-20.07,1.95,14.47,283,2042,7888,0,0,-1
-20.07,1.94,14.47,278,2047,7884,-1,0,-1
-20.07,1.94,14.47,277,2043,7895,-1,0,-1
-20.07,1.94,14.47,273,2040,7892,0,0,-1
-20.07,1.94,14.47,277,2039,7888,0,0,-1
-20.07,1.94,14.47,277,2035,7883,0,0,-1
-20.06,1.94,14.48,278,2040,7881,0,0,-1
-20.06,1.94,14.48,277,2042,7883,-1,0,-1
-20.06,1.93,14.48,273,2037,7895,-1,0,-1
-20.06,1.93,14.47,267,2034,7903,-1,0,-1
-20.05,1.92,14.46,267,2024,7903,0,0,-1
-20.05,1.92,14.47,271,2029,7893,0,0,-1
-20.05,1.91,14.48,270,2048,7888,0,0,-1
-20.05,1.91,14.48,270,2054,7882,-1,0,-1
-20.04,1.91,14.48,272,2051,7887,-1,0,-1
-20.04,1.90,14.47,253,2042,7904,-1,0,-1
-20.04,1.89,14.47,253,2031,7900,0,0,-1
-20.04,1.89,14.47,256,2026,7899,0,0,-1
-20.04,1.89,14.47,257,2036,7895,0,-1,0
-20.04,1.89,14.48,266,2045,7890,0,0,0
-20.04,1.89,14.48,283,2039,7877,0,0,-1
-20.04,1.89,14.48,280,2035,7878,0,0,-1
-20.03,1.88,14.48,279,2033,7885,0,0,-1
-20.03,1.88,14.48,274,2035,7899,-1,0,-1
-20.03,1.88,14.48,268,2041,7898,0,0,-1
-20.03,1.87,14.48,267,2040,7893,0,0,-1
-20.03,1.87,14.48,263,2046,7886,0,0,-1
-20.03,1.86,14.48,271,2044,7893,0,0,-1
-20.03,1.86,14.48,269,2045,7887,0,0,-1
-20.02,1.85,14.48,266,2047,7904,0,0,-1
-20.02,1.85,14.48,266,2044,7901,0,0,-1
-20.02,1.85,14.48,259,2034,7898,0,0,-1
-20.02,1.84,14.49,249,2036,7891,0,0,0
-20.01,1.84,14.49,253,2049,7889,-1,0,-1
-20.02,1.84,14.49,261,2047,7886,-1,0,0
-20.02,1.83,14.48,267,2036,7888,-1,0,0
-20.02,1.83,14.48,258,2030,7891,0,0,-1
-20.02,1.83,14.48,264,2034,7890,0,0,-1
-20.01,1.83,14.49,260,2048,7895,0,0,-1
-20.01,1.82,14.49,259,2047,7885,-1,0,-1
-20.01,1.82,14.48,256,2042,7886,-1,0,0
-20.01,1.82,14.48,256,2038,7890,0,0,-1
-20.01,1.82,14.49,252,2035,7889,0,0,-1
-20.01,1.82,14.49,253,2045,7888,0,0,-1
-20.01,1.81,14.50,257,2052,7896,-1,0,0
-20.01,1.81,14.50,255,2049,7896,-1,0,0
-20.01,1.81,14.50,253,2038,7897,0,0,-1
-20.01,1.81,14.50,251,2036,7887,0,0,0
-20.01,1.81,14.50,256,2035,7892,0,-1,0
-20.01,1.81,14.50,264,2039,7894,0,-1,0
-20.01,1.82,14.50,270,2044,7889,0,0,-1
-20.01,1.82,14.50,267,2041,7894,0,-1,0
-20.01,1.82,14.50,267,2037,7888,0,0,-1
-20.01,1.82,14.50,264,2034,7888,0,0,0
-20.01,1.82,14.50,255,2032,7893,0,0,0
-20.01,1.82,14.50,252,2036,7889,0,-1,0
-20.01,1.82,14.51,253,2039,7892,0,0,0
-20.01,1.82,14.50,253,2036,7898,-1,-1,0
-20.01,1.82,14.50,248,2038,7894,0,-1,0
-20.01,1.82,14.51,246,2044,7891,0,-1,0
-20.01,1.82,14.52,262,2055,7885,0,0,0
-20.01,1.82,14.52,265,2051,7882,-1,0,0
-20.02,1.83,14.51,261,2041,7888,-1,-1,0
-20.02,1.83,14.50,257,2036,7899,-1,-1,0
-20.02,1.83,14.49,255,2032,7906,0,-1,0
-20.02,1.84,14.50,261,2034,7900,0,-1,0
-20.03,1.84,14.50,258,2039,7904,0,-1,0
-20.03,1.84,14.50,266,2036,7888,0,-1,0
-20.04,1.85,14.50,273,2038,7882,0,-1,0
-20.04,1.85,14.50,272,2039,7885,-1,-1,0
-20.04,1.85,14.50,270,2038,7887,-1,0,-1
-20.04,1.86,14.50,261,2036,7884,0,0,0
-20.04,1.85,14.50,251,2034,7890,0,-1,0
-20.04,1.86,14.50,259,2032,7893,0,-1,0
-20.04,1.86,14.50,258,2049,7897,0,-1,0
-20.04,1.86,14.50,260,2050,7896,-1,-1,0
-20.05,1.86,14.50,262,2048,7892,-1,-1,0
-20.05,1.87,14.50,267,2045,7883,-1,-1,0
-20.05,1.87,14.50,260,2044,7894,0,-1,0
-20.05,1.87,14.50,257,2043,7892,0,-1,0
-20.05,1.87,14.49,264,2040,7895,-1,-1,0
-20.05,1.87,14.49,266,2044,7896,-1,-1,0
-20.05,1.87,14.49,269,2040,7901,0,-1,0
-20.05,1.87,14.49,267,2040,7889,0,-1,0
-20.05,1.87,14.49,268,2040,7890,0,-1,-1
-20.05,1.88,14.50,267,2053,7888,-1,-1,0
-20.05,1.88,14.49,269,2052,7891,-1,0,0
-20.06,1.88,14.49,264,2036,7893,-1,-1,0
-20.06,1.88,14.49,256,2033,7891,0,-1,0
-20.06,1.88,14.49,263,2037,7900,0,-1,0
-20.06,1.88,14.49,266,2042,7895,0,-1,0
-20.07,1.89,14.50,264,2048,7890,0,-1,0
-20.07,1.89,14.50,264,2057,7892,0,-1,0
-20.07,1.89,14.50,260,2053,7903,-1,-1,0
-20.07,1.89,14.49,259,2038,7903,-1,-1,0
-20.07,1.90,14.49,265,2029,7900,0,-1,0
-20.08,1.90,14.48,263,2025,7911,0,-1,0
-20.08,1.90,14.49,265,2045,7901,0,-1,0
-20.08,1.91,14.50,269,2056,7901,-1,-1,0
-20.08,1.91,14.50,268,2058,7902,-1,0,0
-20.08,1.90,14.49,266,2050,7900,-1,0,0
-20.08,1.90,14.49,270,2036,7893,0,-1,0
-20.08,1.90,14.49,268,2038,7898,0,-1,0
-20.08,1.90,14.49,269,2038,7894,0,-1,-1
-20.08,1.91,14.49,273,2047,7887,0,0,0
-20.08,1.91,14.49,269,2055,7895,-1,-1,0
-20.09,1.91,14.49,268,2047,7898,-1,-1,0
-20.09,1.91,14.49,269,2038,7899,0,-1,0
-20.09,1.92,14.49,270,2040,7886,0,-1,0
-20.09,1.92,14.49,271,2050,7893,0,-1,0
-20.09,1.93,14.49,279,2045,7897,-1,-1,0
-20.09,1.93,14.49,276,2043,7896,-1,-1,0
-20.09,1.93,14.49,273,2040,7899,-1,0,0
-20.10,1.93,14.48,264,2036,7904,-1,-1,0
-20.10,1.93,14.48,268,2030,7905,0,-1,0
-20.10,1.94,14.49,277,2030,7905,0,-1,0
-20.10,1.94,14.49,285,2033,7891,0,-1,0
-20.10,1.94,14.50,289,2038,7882,0,-1,0
-20.10,1.95,14.49,289,2045,7880,0,-1,0
-20.10,1.95,14.50,283,2045,7876,-1,0,0
-20.10,1.95,14.49,277,2042,7884,-1,-1,0
-20.11,1.95,14.49,272,2033,7895,0,-1,0
-20.11,1.95,14.49,272,2027,7899,0,-1,0
-20.11,1.96,14.49,268,2039,7888,0,-1,0
-20.11,1.96,14.50,271,2047,7882,0,-1,0
-20.11,1.96,14.50,277,2050,7890,-1,0,0
-20.12,1.97,14.50,284,2046,7893,-1,-1,0
-20.12,1.97,14.50,281,2038,7887,-1,-1,0
-20.13,1.97,14.49,277,2029,7899,0,-1,0
-20.13,1.98,14.50,285,2039,7892,0,-1,0
-20.13,1.98,14.50,283,2048,7897,-1,-1,0
-20.13,1.99,14.50,281,2043,7894,-1,-1,0
-20.14,2.00,14.49,285,2037,7878,-1,-1,0
-20.14,2.00,14.49,292,2030,7881,-1,-1,0
-20.14,2.00,14.49,293,2035,7893,-1,-1,0
-20.14,2.01,14.48,293,2043,7895,-1,0,0
-20.15,2.01,14.48,291,2041,7898,-1,0,0
-20.15,2.01,14.48,285,2036,7897,-1,-1,0
-20.15,2.01,14.48,284,2028,7888,0,-1,0
-20.15,2.02,14.48,288,2036,7889,0,-1,0
-20.15,2.02,14.48,284,2042,7882,0,-1,0
-20.15,2.02,14.48,282,2045,7885,-1,-1,0
-20.15,2.02,14.48,279,2046,7882,0,-1,0
-20.15,2.02,14.48,277,2042,7887,-1,-1,0
-20.16,2.03,14.48,273,2035,7893,-1,-1,0
-20.16,2.03,14.48,282,2034,7886,-1,-1,0
-20.16,2.03,14.48,293,2039,7891,0,-1,0
-20.17,2.04,14.48,292,2041,7885,-1,-1,0
-20.17,2.04,14.48,293,2048,7884,-1,-1,0
-20.17,2.05,14.48,295,2044,7885,-1,-1,0
-20.17,2.05,14.47,291,2037,7905,-1,-1,0
-20.18,2.05,14.46,294,2034,7902,-1,0,0
-20.18,2.05,14.46,284,2030,7892,0,-1,0
-20.18,2.05,14.46,289,2033,7893,0,-1,0
-20.18,2.05,14.46,295,2034,7890,0,-1,0
-20.18,2.05,14.47,307,2042,7894,-1,0,0
-20.18,2.05,14.46,290,2036,7904,-1,-1,0
-20.19,2.05,14.46,288,2023,7899,-1,-1,0
-20.18,2.06,14.46,290,2029,7898,0,-1,-1
-20.18,2.06,14.47,294,2042,7887,0,-1,0
-20.18,2.07,14.46,294,2044,7893,-1,-1,0
-20.19,2.07,14.46,284,2037,7883,-1,0,0
-20.19,2.07,14.45,286,2029,7886,-1,0,0
-20.19,2.07,14.45,290,2027,7891,0,-1,0
-20.19,2.07,14.45,287,2035,7896,0,-1,0
-20.19,2.08,14.45,301,2031,7893,0,-1,0
-20.19,2.08,14.46,313,2034,7885,0,0,-1
-20.19,2.07,14.47,309,2043,7884,0,0,-1
-20.19,2.07,14.46,297,2037,7886,-1,0,-1
-20.18,2.07,14.46,294,2035,7897,-1,0,-1
-20.18,2.07,14.46,299,2035,7896,0,0,-1
-20.18,2.07,14.46,303,2031,7890,0,0,-1
-20.18,2.07,14.46,297,2030,7900,0,0,-1
-20.18,2.07,14.47,295,2035,7896,0,0,-1
-20.17,2.06,14.47,285,2043,7901,0,0,-1
-20.17,2.06,14.47,286,2043,7892,0,-1,-1
-20.17,2.06,14.48,292,2042,7891,0,0,-1
-20.17,2.06,14.47,284,2036,7900,-1,0,-1
-20.17,2.06,14.47,291,2026,7897,-1,-1,-1
-20.17,2.07,14.47,300,2030,7886,0,0,-1
-20.17,2.07,14.47,296,2041,7892,0,0,-1
-20.16,2.06,14.47,296,2043,7890,-1,0,-1
-20.16,2.06,14.47,297,2044,7881,0,0,-1
-20.17,2.06,14.46,292,2031,7886,-1,-1,-1
-20.16,2.06,14.47,294,2037,7895,0,-1,-1
-20.15,2.06,14.47,291,2038,7899,0,-1,-1
-20.15,2.06,14.47,286,2036,7898,0,0,-1
-20.15,2.06,14.47,277,2035,7885,0,-1,0
-20.14,2.06,14.48,294,2039,7879,0,0,0
-20.14,2.04,14.48,287,2045,7887,0,0,-1
-20.14,2.04,14.48,276,2038,7895,0,-1,-1
-20.14,2.04,14.47,279,2043,7888,-1,0,-1
-20.14,2.03,14.47,277,2035,7881,0,0,-1
-20.14,2.04,14.47,295,2026,7885,0,0,0
-20.14,2.03,14.47,282,2042,7883,0,0,-1
-20.14,2.03,14.47,291,2038,7889,-1,0,0
-20.14,2.03,14.47,286,2035,7876,-1,0,-1
-20.13,2.02,14.47,286,2037,7894,-1,0,-1
-20.13,2.02,14.46,283,2036,7896,-1,0,-1
-20.13,2.01,14.46,280,2025,7897,-1,0,-1
-20.13,2.01,14.46,282,2032,7904,-1,0,-1
-20.13,2.00,14.46,288,2030,7890,0,0,-1
-20.13,1.99,14.45,276,2021,7892,0,0,-1
-20.12,1.99,14.46,272,2033,7892,0,0,-1
-20.12,1.99,14.47,272,2043,7884,0,0,-1
-20.12,1.99,14.47,280,2051,7872,-1,0,0
-20.12,1.98,14.46,279,2041,7883,-1,0,-1
-20.12,1.98,14.46,273,2034,7890,0,0,-1
-20.11,1.97,14.46,270,2037,7894,0,0,-1
-20.11,1.97,14.46,265,2026,7894,-1,-1,0
-20.11,1.98,14.46,273,2026,7895,0,-1,-1
-20.11,1.98,14.46,288,2030,7886,0,0,-1
-20.11,1.97,14.47,286,2036,7883,0,0,-1
-20.11,1.97,14.47,284,2035,7878,-1,0,-1
-20.11,1.97,14.47,279,2046,7883,-1,0,-1
-20.10,1.96,14.47,276,2044,7891,-1,0,-1
-20.10,1.96,14.47,270,2035,7895,0,0,-1
-20.10,1.95,14.47,272,2034,7884,0,0,-1
-20.09,1.94,14.47,273,2041,7886,-1,0,-1
-20.09,1.94,14.47,279,2044,7881,-1,0,-1
-20.09,1.95,14.47,271,2052,7880,0,0,-1
-20.09,1.94,14.48,267,2051,7890,-1,0,-1
-20.08,1.94,14.48,263,2041,7890,0,0,-1
-20.08,1.93,14.48,270,2045,7891,0,0,-1
-20.07,1.92,14.48,272,2051,7893,0,0,-1
-20.07,1.93,14.49,274,2060,7892,-1,0,-1
-20.07,1.92,14.49,276,2048,7892,-1,0,-1
-20.07,1.92,14.48,277,2022,7875,-1,0,0
-20.07,1.91,14.48,277,2017,7879,0,0,-1
-20.07,1.91,14.48,279,2030,7876,0,0,-1
-20.07,1.90,14.49,272,2052,7889,-1,0,-1
-20.07,1.90,14.48,265,2053,7894,-1,0,0
-20.07,1.90,14.47,269,2036,7895,-1,0,-1
-20.07,1.89,14.48,264,2027,7902,0,0,-1
-20.07,1.89,14.48,272,2038,7891,0,0,-1
-20.07,1.89,14.48,272,2047,7882,0,0,0
-20.07,1.88,14.49,262,2048,7899,-1,0,0
-20.07,1.88,14.49,265,2043,7901,-1,0,-1
-20.07,1.88,14.48,256,2034,7886,-1,0,-1
-20.07,1.87,14.48,256,2034,7892,0,0,-1
-20.07,1.87,14.48,258,2036,7898,0,0,-1
-20.06,1.87,14.48,255,2035,7902,0,0,-1
-20.06,1.87,14.48,264,2034,7903,0,0,-1
-20.06,1.86,14.48,258,2035,7892,-1,0,-1
-20.06,1.86,14.48,251,2035,7884,0,0,0
-20.06,1.85,14.48,253,2039,7885,0,0,-1
-20.06,1.85,14.49,260,2043,7894,0,0,-1
-20.05,1.85,14.49,255,2037,7903,-1,0,-1
-20.05,1.84,14.49,254,2034,7894,-1,0,0
-20.05,1.84,14.48,256,2030,7904,0,0,-1
-20.05,1.84,14.49,259,2035,7892,0,0,-1
-20.05,1.83,14.49,256,2049,7900,-1,0,0
-20.05,1.83,14.49,261,2043,7899,-1,0,-1
-20.05,1.83,14.49,265,2050,7899,0,0,-1
-20.05,1.83,14.49,271,2046,7895,0,0,-1
-20.05,1.83,14.49,271,2049,7888,0,0,-1
-20.04,1.83,14.49,261,2050,7889,0,0,-1
-20.04,1.82,14.50,248,2035,7888,-1,-1,-1
-20.03,1.82,14.49,249,2024,7897,0,0,-1
-20.03,1.82,14.50,252,2032,7900,0,0,-1
-20.03,1.82,14.51,255,2036,7898,0,0,-1
-20.03,1.82,14.52,257,2047,7883,0,0,-1
-20.03,1.82,14.52,261,2040,7877,0,-1,-1
-20.02,1.81,14.53,261,2045,7884,0,0,-1
-20.01,1.81,14.53,255,2051,7877,0,-1,-1
-20.01,1.81,14.53,251,2053,7891,0,0,-1
-20.00,1.81,14.53,254,2047,7894,0,0,-1
-20.00,1.80,14.54,237,2046,7892,0,-1,0
-20.00,1.81,14.53,247,2040,7894,0,-1,-1
-20.00,1.80,14.54,241,2050,7893,0,0,0
-20.00,1.80,14.55,254,2070,7881,-1,0,0
-20.00,1.80,14.55,246,2056,7884,-1,-1,0
-20.01,1.81,14.54,253,2036,7878,-1,-1,0
-20.02,1.81,14.53,251,2037,7884,-1,-1,0
-20.02,1.82,14.54,264,2050,7890,0,-1,0
-20.02,1.82,14.54,253,2053,7891,-1,-1,0
-20.03,1.82,14.53,246,2050,7891,-1,-1,0
-20.03,1.82,14.53,257,2044,7885,-1,-1,0
-20.03,1.83,14.52,266,2038,7885,-1,-1,0
-20.03,1.84,14.53,266,2039,7891,-1,0,0
-20.03,1.84,14.52,263,2037,7897,-1,-1,0
-20.04,1.84,14.52,258,2039,7897,-1,0,0
-20.04,1.84,14.52,248,2036,7896,-1,-1,0
-20.04,1.84,14.52,250,2031,7892,0,-1,0
-20.05,1.84,14.51,253,2042,7896,0,-1,0
-20.05,1.84,14.52,261,2056,7897,-1,-1,0
-20.06,1.84,14.51,259,2056,7898,-1,-1,0
-20.06,1.84,14.51,255,2052,7895,-1,-1,0
-20.07,1.85,14.51,255,2042,7889,-1,-1,0
-20.07,1.85,14.51,255,2037,7890,0,-1,0
-20.07,1.85,14.51,256,2047,7892,0,-1,0
-20.07,1.86,14.51,260,2046,7896,-1,-1,0
-20.07,1.86,14.52,259,2050,7892,-1,-1,0
-20.07,1.86,14.51,267,2050,7889,-1,-1,0
-20.07,1.86,14.51,260,2041,7879,-1,-1,0
-20.07,1.87,14.50,263,2030,7893,-1,-1,0
-20.07,1.87,14.51,257,2041,7881,0,-1,0
-20.08,1.87,14.51,254,2046,7887,-1,-1,0
-20.08,1.87,14.51,249,2036,7878,-1,-1,0
-20.08,1.87,14.51,252,2044,7871,-1,-1,0
-20.09,1.87,14.50,261,2038,7893,-1,-1,0
-20.09,1.88,14.50,261,2037,7892,0,-1,0
-20.09,1.88,14.50,259,2044,7895,-1,-1,0
-20.10,1.89,14.50,258,2039,7900,0,-1,0
-20.10,1.89,14.51,255,2042,7908,0,-1,0
-20.10,1.90,14.50,278,2039,7905,0,-1,-1
-20.09,1.89,14.51,258,2063,7908,-1,-1,-1
-20.10,1.89,14.50,256,2035,7897,-1,-1,0
-20.10,1.89,14.50,259,2037,7892,0,-1,-1
-20.09,1.90,14.50,256,2051,7884,0,-1,0
-20.10,1.90,14.51,264,2046,7892,-1,-1,0
-20.10,1.90,14.51,261,2045,7890,0,-1,0
-20.10,1.91,14.51,262,2050,7877,0,-1,0
-20.11,1.92,14.52,275,2041,7870,-1,-1,0
-20.10,1.92,14.52,264,2044,7874,0,-1,-1
-20.10,1.92,14.52,263,2057,7884,-1,-1,0
-20.11,1.92,14.51,258,2046,7893,-1,-1,0
-20.11,1.93,14.51,254,2046,7899,-1,-1,0
-20.11,1.92,14.50,253,2037,7890,0,-1,0
-20.12,1.93,14.50,262,2036,7893,0,-1,0
-20.12,1.93,14.51,266,2045,7888,-1,-1,0
-20.12,1.94,14.50,271,2053,7875,-1,-1,0
-20.13,1.94,14.50,266,2050,7883,-1,-1,0
-20.13,1.94,14.50,268,2043,7889,-1,-1,0
-20.13,1.94,14.50,264,2043,7892,-1,-1,0
-20.14,1.95,14.50,269,2042,7886,-1,-1,0
-20.14,1.96,14.50,273,2038,7888,-1,-1,0
-20.15,1.96,14.49,269,2033,7893,-1,-1,0
-20.15,1.96,14.49,271,2037,7891,0,-1,0
-20.15,1.96,14.49,267,2034,7891,0,-1,0
-20.16,1.97,14.50,270,2051,7883,-1,-1,0
-20.16,1.97,14.50,268,2051,7884,-1,-1,0
-20.16,1.97,14.48,265,2034,7888,-1,-1,0
-20.16,1.97,14.48,266,2019,7893,-1,-1,0
-20.16,1.98,14.48,265,2031,7892,0,-1,0
-20.16,1.98,14.49,271,2044,7889,0,-1,0
-20.16,1.99,14.50,275,2059,7882,-1,-1,0
-20.17,1.99,14.50,278,2061,7884,-1,-1,0
-20.17,1.99,14.49,285,2042,7890,-1,-1,0
-20.17,2.00,14.49,287,2032,7894,0,-1,0
-20.17,2.00,14.49,276,2044,7892,-1,-1,0
-20.18,2.00,14.49,273,2036,7885,-1,-1,0
-20.18,2.01,14.49,277,2040,7886,0,-1,0
-20.18,2.02,14.49,279,2053,7889,-1,-1,0
-20.18,2.02,14.49,282,2046,7894,-1,-1,0
-20.19,2.02,14.48,281,2037,7893,-1,-1,0
-20.19,2.03,14.47,278,2032,7890,-1,-1,0
-20.20,2.04,14.47,297,2028,7890,-1,-1,0
-20.20,2.04,14.47,281,2035,7891,0,-1,0
-20.21,2.06,14.48,291,2041,7896,0,-1,0
-20.21,2.06,14.48,281,2045,7900,-1,-1,0
-20.22,2.07,14.48,287,2039,7898,0,-1,0
-20.22,2.07,14.48,274,2055,7891,0,-1,-1
-20.22,2.07,14.48,284,2041,7888,-1,-1,0
-20.22,2.07,14.48,279,2038,7893,0,-1,0
-20.22,2.08,14.49,285,2050,7891,-1,-1,0
-20.23,2.08,14.49,285,2043,7890,-1,-1,0
-20.23,2.09,14.48,295,2033,7896,0,-1,0
-20.24,2.09,14.48,287,2040,7902,0,0,-1
-20.24,2.10,14.48,282,2044,7892,-1,-1,0
-20.25,2.11,14.48,283,2046,7899,-1,-1,0
-20.26,2.11,14.48,291,2051,7894,0,-1,0
-20.26,2.12,14.48,297,2037,7900,0,-1,0
-20.27,2.12,14.48,292,2036,7878,-1,-1,0
-20.28,2.14,14.48,300,2026,7880,0,-1,0
-20.29,2.14,14.48,302,2047,7881,0,-1,0
-20.29,2.14,14.48,298,2043,7884,-1,-1,0
-20.29,2.14,14.48,285,2045,7890,-1,-1,0
-20.30,2.15,14.48,286,2050,7904,-1,-1,0
-20.31,2.16,14.48,292,2028,7891,0,-1,0
-20.32,2.16,14.49,294,2042,7882,0,-1,0
-20.33,2.17,14.49,305,2048,7885,0,-1,0
-20.33,2.17,14.49,303,2057,7889,-1,-1,0
-20.34,2.17,14.49,296,2050,7872,-1,0,0
-20.34,2.17,14.49,302,2051,7869,-1,0,0
-20.34,2.16,14.49,311,2049,7864,-1,0,-1
-20.33,2.14,14.49,283,2054,7887,-1,0,-1
-20.34,2.15,14.48,288,2039,7881,-1,-1,-1
-20.34,2.15,14.47,304,2042,7886,-1,0,-1
-20.33,2.15,14.46,304,2034,7881,-1,-1,-1
-20.33,2.15,14.45,325,2029,7884,-1,0,-1
-20.33,2.15,14.45,312,2022,7896,-1,0,-1
-20.32,2.14,14.45,305,2032,7895,0,0,-1
-20.32,2.14,14.45,307,2037,7892,-1,0,-1
-20.32,2.14,14.45,297,2038,7900,-1,0,-1
-20.31,2.14,14.45,300,2037,7897,0,-1,-1
-20.31,2.14,14.45,304,2039,7891,0,0,-1
-20.30,2.13,14.45,299,2042,7894,-1,-1,-1
-20.30,2.13,14.46,297,2035,7898,0,0,-1
-20.29,2.13,14.45,289,2030,7897,0,-1,-1
-20.29,2.12,14.46,290,2037,7894,0,0,-1
-20.29,2.12,14.46,299,2036,7890,-1,0,-1
-20.29,2.12,14.45,290,2028,7893,-1,0,-1
-20.28,2.11,14.45,282,2031,7895,-1,-1,-1
-20.28,2.11,14.45,287,2039,7890,-1,0,-1
-20.28,2.10,14.45,285,2049,7899,-1,0,-1
-20.28,2.10,14.45,291,2041,7896,-1,-1,0
-20.28,2.10,14.44,279,2031,7900,-1,0,0
-20.28,2.10,14.44,284,2019,7898,0,-1,0
-20.28,2.10,14.44,292,2024,7895,0,0,-1
-20.27,2.08,14.45,276,2039,7896,0,0,-1
-20.27,2.08,14.46,295,2048,7887,-1,0,0
-20.27,2.08,14.45,291,2052,7882,-1,0,0
-20.27,2.08,14.46,283,2057,7880,-1,-1,0
-20.27,2.08,14.45,279,2043,7882,-1,0,0
-20.27,2.08,14.45,273,2039,7891,-1,0,0
-20.28,2.07,14.44,282,2035,7895,-1,0,0
-20.27,2.07,14.44,281,2030,7893,0,0,0
-20.27,2.08,14.45,287,2029,7898,0,-1,0
-20.27,2.08,14.45,293,2033,7890,0,0,0
-20.28,2.07,14.45,296,2035,7891,-1,0,0
-20.28,2.07,14.45,296,2030,7891,-1,0,0
-20.27,2.06,14.45,278,2036,7897,-1,0,-1
-20.27,2.06,14.45,281,2035,7902,0,0,-1
-20.27,2.05,14.44,287,2025,7901,-1,0,0
-20.27,2.05,14.45,281,2026,7891,0,0,0
-20.27,2.05,14.44,282,2032,7896,-1,0,-1
-20.27,2.05,14.45,283,2045,7892,0,-1,-1
-20.26,2.05,14.46,273,2053,7893,-1,0,0
-20.27,2.04,14.45,274,2043,7883,-1,-1,0
-20.27,2.04,14.45,281,2043,7884,-1,0,0
-20.27,2.04,14.45,287,2032,7890,-1,-1,-1
-20.27,2.04,14.45,280,2035,7888,0,-1,-1
-20.26,2.04,14.45,273,2043,7884,-1,0,-1
-20.25,2.03,14.45,279,2043,7888,-1,0,-1
-20.25,2.03,14.45,284,2034,7888,-1,0,-1
-20.25,2.03,14.45,280,2030,7890,0,0,-1
-20.25,2.02,14.45,273,2025,7892,0,0,-1
-20.24,2.02,14.46,271,2037,7888,0,0,-1
-20.24,2.02,14.46,282,2047,7892,0,-1,-1
-20.24,2.01,14.46,277,2046,7889,0,0,-1
-20.24,2.00,14.46,271,2046,7883,0,-1,-1
-20.23,2.00,14.47,281,2044,7890,0,0,-1
-20.23,2.00,14.47,274,2057,7890,-1,-1,-1
-20.23,2.00,14.47,277,2046,7888,-1,0,0
-20.23,2.00,14.47,265,2032,7897,0,-1,-1
-20.22,2.00,14.48,283,2042,7901,0,-1,-1
-20.23,2.00,14.48,278,2054,7906,-1,0,0
-20.23,2.00,14.48,288,2038,7905,-1,-1,0
-20.24,2.01,14.48,283,2048,7914,-1,0,0
-20.25,2.02,14.48,266,2047,7904,-1,-1,0
-20.26,2.02,14.48,281,2045,7906,-1,-1,0
-20.26,2.02,14.48,278,2043,7893,0,0,0
-20.27,2.02,14.48,270,2027,7888,-1,-1,0
-20.27,2.03,14.47,290,2037,7880,-1,0,-1
-20.27,2.02,14.47,276,2030,7879,-1,-1,0
-20.27,2.02,14.47,291,2025,7874,0,0,-1
-20.26,2.00,14.47,264,2039,7873,0,0,-1
-20.26,2.00,14.47,280,2042,7894,-1,0,0
-20.26,1.99,14.47,274,2045,7895,-1,0,-1
-20.26,1.98,14.48,257,2054,7886,-1,-1,-1
-20.26,1.98,14.47,273,2034,7882,-1,0,0
-20.26,1.98,14.47,269,2042,7880,0,0,-1
-20.26,1.97,14.48,267,2054,7876,-1,0,0
-20.26,1.97,14.46,281,2033,7890,-1,0,-1
-20.26,1.96,14.46,278,2031,7890,-1,0,-1
-20.25,1.95,14.46,263,2039,7896,-1,0,-1
-20.25,1.95,14.46,260,2044,7905,-1,-1,0
-20.25,1.95,14.46,276,2041,7898,0,-1,0
-20.25,1.95,14.46,276,2033,7890,-1,0,0
-20.26,1.94,14.45,280,2031,7889,-1,0,-1
-20.25,1.94,14.45,274,2031,7897,0,0,-1
-20.24,1.93,14.46,274,2040,7881,0,0,-1
-20.24,1.92,14.46,262,2050,7895,-1,0,-1
-20.24,1.92,14.45,258,2047,7895,-1,0,-1
-20.24,1.91,14.45,254,2040,7891,-1,0,0
-20.24,1.91,14.45,257,2036,7893,0,-1,0
-20.24,1.91,14.45,265,2025,7885,0,-1,-1
-20.24,1.91,14.46,269,2038,7883,0,0,0
-20.24,1.91,14.46,272,2039,7895,-1,0,0
-20.24,1.91,14.46,269,2039,7891,0,0,0
-20.24,1.91,14.46,269,2040,7883,0,0,-1
-20.24,1.91,14.47,264,2050,7883,0,-1,0
-20.24,1.91,14.47,258,2050,7887,0,-1,-1
-20.23,1.91,14.47,268,2035,7890,0,0,-1
-20.23,1.90,14.48,255,2032,7890,0,0,-1
-20.23,1.91,14.47,262,2030,7874,-1,-1,0
-20.23,1.90,14.48,263,2035,7876,0,0,0
-20.23,1.90,14.48,261,2049,7874,-1,-1,0
-20.24,1.90,14.48,259,2046,7890,-1,-1,0
-20.24,1.91,14.47,260,2047,7899,-1,-1,0
-20.24,1.91,14.47,252,2043,7892,-1,-1,0
-20.24,1.91,14.48,249,2039,7889,-1,-1,0
-20.24,1.92,14.48,265,2035,7901,0,-1,0
-20.24,1.92,14.49,267,2053,7901,0,-1,-1
-20.24,1.92,14.49,266,2060,7897,-1,0,0
-20.25,1.92,14.48,258,2045,7893,-1,-1,0
-20.25,1.92,14.47,261,2028,7899,-1,-1,0
-20.26,1.93,14.47,268,2020,7890,0,-1,0
-20.26,1.93,14.48,267,2039,7884,0,-1,0
-20.26,1.93,14.48,263,2053,7890,-1,-1,0
-20.26,1.94,14.48,268,2051,7891,-1,-1,0
-20.26,1.94,14.47,262,2046,7891,-1,-1,0
-20.27,1.95,14.46,265,2029,7888,-1,-1,0
-20.27,1.95,14.46,267,2033,7887,0,-1,0
-20.27,1.95,14.47,266,2040,7891,0,-1,0
-20.28,1.95,14.47,270,2044,7895,-1,-1,0
-20.28,1.95,14.47,273,2045,7879,-1,-1,0
-20.29,1.96,14.46,269,2045,7882,-1,-1,0
-20.29,1.96,14.46,271,2037,7879,-1,-1,0
-20.29,1.96,14.46,268,2031,7885,-1,-1,0
-20.30,1.96,14.46,270,2029,7900,0,-1,0
-20.30,1.96,14.47,263,2036,7897,0,-1,0
-20.30,1.97,14.46,268,2051,7891,-1,-1,0
-20.30,1.97,14.46,269,2044,7892,-1,-1,0
-20.30,1.97,14.46,266,2037,7888,-1,-1,0
-20.30,1.98,14.46,265,2028,7889,-1,-1,0
-20.30,1.98,14.46,266,2032,7896,0,-1,0
-20.30,1.98,14.46,268,2032,7905,-1,-1,0
-20.31,1.98,14.46,264,2031,7898,0,-1,0
-20.31,1.99,14.46,273,2040,7893,0,-1,0
-20.31,1.99,14.47,274,2051,7886,0,-1,0
-20.31,1.99,14.47,274,2057,7879,-1,0,0
-20.31,1.99,14.46,275,2042,7884,-1,-1,0
-20.31,1.98,14.45,271,2029,7889,-1,-1,0
-20.32,1.99,14.45,263,2022,7904,0,-1,0
-20.32,1.99,14.45,265,2030,7893,0,-1,0
-20.32,1.99,14.46,269,2050,7891,0,-1,0
-20.32,1.99,14.47,276,2052,7894,-1,-1,0
-20.32,2.00,14.47,274,2054,7894,-1,-1,0
-20.32,2.00,14.47,274,2049,7897,0,-1,-1
-20.32,2.00,14.47,270,2062,7897,-1,-1,0
-20.32,2.01,14.46,269,2052,7908,-1,-1,0
-20.32,2.01,14.46,272,2047,7912,-1,-1,0
-20.32,2.01,14.46,269,2034,7906,0,-1,0
-20.32,2.01,14.46,275,2026,7902,-1,-1,0
-20.32,2.01,14.46,260,2041,7898,0,-1,0
-20.33,2.02,14.47,270,2047,7894,-1,-1,0
-20.33,2.02,14.46,286,2045,7895,-1,0,0
-20.34,2.02,14.46,282,2041,7893,-1,0,-1
-20.34,2.02,14.46,268,2048,7889,-1,-1,0
-20.34,2.02,14.46,272,2039,7902,-1,-1,0
-20.35,2.03,14.45,266,2033,7896,0,-1,0
-20.35,2.03,14.45,266,2038,7892,0,-1,0
-20.35,2.03,14.46,275,2046,7884,0,-1,0
-20.35,2.04,14.47,274,2051,7880,0,-1,0
-20.35,2.04,14.47,276,2051,7885,-1,-1,0
-20.36,2.05,14.46,274,2049,7892,-1,-1,0
-20.36,2.05,14.46,277,2036,7892,0,-1,0
-20.36,2.05,14.46,269,2041,7905,0,-1,0
-20.37,2.05,14.46,280,2045,7903,-1,-1,0
-20.37,2.05,14.46,288,2040,7896,-1,-1,0
-20.37,2.06,14.46,283,2044,7892,-1,-1,0
-20.37,2.06,14.46,279,2034,7888,-1,-1,0
-20.37,2.06,14.46,276,2039,7891,-1,-1,0
-20.38,2.06,14.46,267,2041,7892,-1,-1,0
-20.37,2.05,14.45,278,2030,7896,-1,-1,0
-20.38,2.06,14.44,284,2024,7896,-1,-1,0
-20.38,2.06,14.45,282,2034,7901,0,-1,0
-20.38,2.07,14.45,282,2047,7896,0,-1,0
-20.38,2.07,14.45,277,2050,7893,-1,-1,0
-20.39,2.07,14.45,268,2041,7889,-1,-1,0
-20.39,2.07,14.45,274,2036,7896,-1,-1,0
-20.39,2.08,14.45,283,2039,7897,0,-1,0
-20.40,2.09,14.45,287,2046,7890,-1,-1,0
-20.40,2.09,14.46,290,2052,7880,-1,-1,0
-20.40,2.08,14.45,282,2040,7880,-1,0,0
-20.40,2.08,14.45,276,2032,7889,-1,0,0
-20.40,2.08,14.45,268,2036,7895,-1,-1,0
-20.41,2.08,14.44,272,2032,7891,0,-1,0
-20.41,2.09,14.44,284,2041,7889,0,-1,0
-20.41,2.09,14.45,291,2041,7883,0,-1,0
-20.42,2.09,14.45,296,2044,7882,0,0,0
-20.41,2.09,14.46,293,2047,7885,-1,0,0
-20.42,2.09,14.45,287,2045,7900,-1,-1,0
-20.42,2.09,14.45,279,2039,7906,0,-1,0
-20.42,2.09,14.45,281,2046,7900,-1,-1,0
-20.42,2.09,14.46,287,2054,7897,0,-1,0
-20.42,2.10,14.46,289,2056,7897,-1,-1,0
-20.43,2.10,14.46,286,2049,7901,-1,-1,0
-20.43,2.10,14.46,287,2051,7898,-1,-1,0
-20.43,2.10,14.46,285,2050,7898,0,-1,0
-20.43,2.10,14.46,285,2052,7888,0,-1,0
-20.43,2.10,14.46,283,2058,7887,-1,-1,0
-20.43,2.10,14.46,283,2042,7887,-1,-1,0
-20.44,2.10,14.45,282,2032,7887,-1,-1,0
-20.44,2.10,14.45,290,2031,7884,0,-1,-1
-20.44,2.11,14.45,286,2035,7889,-1,-1,0
-20.44,2.11,14.45,288,2043,7891,-1,-1,0
-20.44,2.11,14.45,285,2037,7882,-1,-1,0
-20.45,2.11,14.44,286,2035,7894,-1,-1,0
-20.45,2.11,14.43,289,2029,7899,-1,-1,0
-20.45,2.12,14.43,291,2029,7892,0,-1,0
-20.45,2.11,14.44,284,2042,7886,0,0,0
-20.45,2.11,14.44,283,2045,7901,0,0,0
-20.45,2.11,14.45,290,2048,7891,-1,-1,0
-20.46,2.11,14.45,283,2037,7883,-1,-1,0
-20.46,2.11,14.44,286,2037,7890,-1,-1,0
-20.46,2.11,14.44,286,2032,7889,0,-1,0
-20.46,2.11,14.45,287,2036,7878,0,-1,0
-20.46,2.11,14.45,292,2038,7881,0,-1,0
-20.46,2.11,14.45,292,2036,7871,-1,-1,0
-20.46,2.11,14.45,287,2033,7871,-1,0,0
-20.46,2.11,14.44,295,2034,7881,-1,0,0
-20.46,2.11,14.44,290,2043,7893,-1,0,0
-20.46,2.11,14.45,294,2039,7885,-1,-1,0
-20.46,2.10,14.44,289,2036,7891,-1,0,-1
-20.46,2.10,14.44,289,2037,7895,-1,0,-1
-20.46,2.10,14.44,277,2034,7904,0,0,-1
-20.45,2.09,14.44,282,2033,7894,0,-1,-1
-20.45,2.09,14.45,284,2052,7900,0,-1,0
-20.45,2.09,14.45,289,2048,7892,-1,0,-1
-20.45,2.09,14.44,284,2035,7882,-1,0,0
-20.45,2.08,14.44,276,2042,7886,-1,-1,-1
-20.45,2.08,14.44,281,2047,7892,0,-1,-1
-20.45,2.08,14.45,280,2046,7897,0,-1,0
-20.45,2.08,14.45,285,2035,7893,-1,-1,0
-20.45,2.09,14.45,289,2034,7892,0,-1,0
-20.45,2.08,14.45,297,2037,7889,-1,0,-1
-20.45,2.08,14.45,300,2036,7885,-1,0,-1
-20.45,2.08,14.45,296,2042,7889,-1,0,-1
-20.45,2.07,14.45,286,2043,7896,-1,0,-1
-20.44,2.07,14.45,282,2038,7900,-1,0,-1
-20.44,2.06,14.45,284,2046,7888,0,0,-1
-20.44,2.06,14.45,281,2047,7895,-1,0,-1
-20.44,2.06,14.45,286,2047,7891,-1,0,0
-20.44,2.06,14.46,285,2045,7891,-1,0,-1
-20.44,2.06,14.46,288,2046,7898,0,0,-1
-20.44,2.06,14.46,294,2043,7894,0,0,-1
-20.44,2.06,14.46,282,2047,7892,-1,0,0
-20.44,2.06,14.46,286,2043,7894,-1,-1,0
-20.44,2.06,14.46,288,2038,7892,-1,0,0
-20.44,2.06,14.46,288,2037,7898,-1,0,0
-20.44,2.06,14.45,286,2027,7898,-1,0,-1
-20.44,2.05,14.45,287,2033,7886,-1,0,-1
-20.43,2.05,14.46,290,2037,7880,0,0,-1
-20.43,2.04,14.46,293,2040,7886,-1,0,-1
-20.42,2.03,14.46,277,2040,7883,-1,0,-1
-20.42,2.03,14.45,268,2026,7883,-1,0,0
-20.42,2.03,14.45,267,2027,7890,0,-1,-1
-20.42,2.03,14.45,270,2042,7892,0,0,-1
-20.41,2.02,14.46,270,2051,7886,-1,-1,-1
-20.41,2.02,14.46,267,2049,7890,-1,0,0
-20.41,2.02,14.46,268,2044,7884,-1,0,-1
-20.41,2.01,14.46,275,2033,7889,-1,0,-1
-20.41,2.01,14.46,281,2036,7896,0,0,-1
-20.41,2.01,14.47,273,2045,7893,0,0,-1
-20.41,2.01,14.47,283,2040,7899,-1,-1,0
-20.40,2.01,14.46,280,2041,7891,-1,0,-1
-20.40,2.01,14.46,275,2041,7884,-1,0,-1
-20.40,2.00,14.46,269,2042,7891,-1,0,-1
-20.39,1.99,14.46,269,2039,7889,-1,0,-1
-20.39,1.99,14.46,268,2045,7898,0,0,-1
-20.39,1.98,14.46,267,2048,7896,-1,0,-1
-20.39,1.98,14.46,267,2048,7888,-1,0,0
-20.39,1.98,14.46,276,2045,7896,-1,0,-1
-20.39,1.97,14.46,263,2032,7901,-1,0,-1
-20.39,1.97,14.46,270,2027,7900,0,-1,-1
-20.39,1.97,14.46,270,2045,7905,0,0,-1
-20.39,1.97,14.46,272,2051,7903,-1,0,0
-20.39,1.97,14.46,269,2046,7888,-1,-1,0
-20.39,1.97,14.45,266,2033,7894,-1,0,-1
-20.39,1.97,14.45,265,2035,7883,0,-1,-1
-20.39,1.96,14.46,261,2046,7899,0,0,0
-20.39,1.96,14.46,258,2044,7906,0,-1,0
-20.39,1.96,14.46,264,2038,7899,0,-1,0
-20.39,1.96,14.46,275,2029,7889,0,0,-1
-20.39,1.96,14.47,283,2035,7892,0,0,-1
-20.39,1.96,14.47,281,2039,7877,0,0,-1
-20.39,1.95,14.47,266,2046,7881,-1,0,-1
-20.38,1.94,14.46,264,2039,7898,-1,0,-1
-20.38,1.93,14.46,264,2039,7893,-1,0,-1
-20.38,1.93,14.46,260,2036,7892,0,0,-1
-20.38,1.93,14.47,263,2040,7886,0,0,-1
-20.38,1.93,14.47,261,2043,7893,0,0,-1
-20.38,1.92,14.47,262,2043,7893,0,0,-1
-20.38,1.92,14.47,267,2044,7902,-1,0,-1
-20.37,1.91,14.47,262,2037,7896,0,0,-1
-20.37,1.91,14.47,260,2041,7897,0,0,-1
-20.37,1.91,14.48,262,2049,7899,0,-1,-1
-20.37,1.91,14.48,259,2049,7891,-1,0,0
-20.37,1.90,14.47,259,2026,7889,-1,0,0
-20.38,1.90,14.47,268,2021,7892,0,0,-1
-20.37,1.89,14.47,260,2032,7883,0,-1,-1
-20.37,1.89,14.48,261,2058,7879,0,0,-1
-20.36,1.88,14.48,252,2070,7887,-1,0,-1
-20.37,1.88,14.47,261,2055,7889,-1,0,0
-20.37,1.88,14.47,261,2029,7890,0,0,-1
-20.36,1.88,14.47,256,2026,7891,0,-1,-1
-20.36,1.88,14.48,265,2041,7881,0,0,-1
-20.35,1.87,14.49,264,2056,7885,0,0,-1
-20.35,1.87,14.50,264,2055,7882,-1,0,0
-20.35,1.86,14.49,262,2041,7878,0,-1,-1
-20.35,1.87,14.50,265,2023,7876,0,0,-1
-20.35,1.87,14.50,258,2045,7888,0,-1,-1
-20.35,1.87,14.50,248,2041,7897,0,0,0
-20.36,1.88,14.51,263,2040,7899,0,-1,0
-20.37,1.88,14.51,270,2050,7885,0,0,0
-20.36,1.87,14.51,235,2049,7883,0,-1,0
-20.36,1.87,14.51,268,2034,7874,0,0,-1
-20.36,1.86,14.52,241,2053,7881,0,-1,-1
-20.36,1.86,14.52,266,2048,7875,-1,0,0
-20.36,1.86,14.51,264,2041,7885,-1,0,-1
-20.35,1.85,14.51,243,2042,7898,0,-1,0
-20.36,1.85,14.51,247,2036,7904,-1,-1,-1
-20.35,1.85,14.51,249,2033,7886,0,0,-1
-20.35,1.85,14.52,247,2057,7894,-1,-1,0
-20.35,1.85,14.51,248,2056,7889,-1,-1,0
-20.36,1.85,14.51,255,2039,7888,-1,-1,0
-20.36,1.85,14.51,255,2038,7893,0,-1,0
-20.36,1.86,14.51,255,2036,7888,0,-1,0
-20.36,1.86,14.52,253,2043,7875,0,-1,0
-20.37,1.86,14.52,258,2049,7879,-1,-1,0
-20.37,1.86,14.51,255,2041,7890,-1,-1,0
-20.37,1.86,14.51,245,2043,7900,-1,-1,0
-20.37,1.86,14.51,245,2048,7900,-1,-1,0
-20.37,1.86,14.51,246,2040,7897,-1,-1,0
-20.38,1.87,14.51,259,2038,7898,0,-1,0
-20.38,1.88,14.51,273,2043,7889,0,-1,0
-20.38,1.89,14.52,281,2046,7887,0,-1,0
-20.38,1.89,14.52,275,2043,7885,-1,-1,-1
-20.38,1.89,14.52,266,2049,7887,-1,-1,0
-20.39,1.89,14.52,264,2044,7893,-1,-1,0
-20.39,1.89,14.51,260,2040,7901,-1,-1,0
-20.39,1.89,14.51,260,2046,7904,0,-1,0
-20.40,1.90,14.51,261,2048,7894,-1,-1,0
-20.40,1.90,14.51,268,2047,7892,0,-1,0
-20.40,1.90,14.51,265,2050,7883,0,-1,0
-20.41,1.90,14.52,274,2055,7879,0,-1,0
-20.41,1.91,14.52,269,2059,7873,-1,0,0
-20.41,1.91,14.52,269,2049,7886,-1,-1,-1
-20.41,1.91,14.52,263,2041,7887,-1,-1,0
-20.41,1.91,14.51,264,2038,7896,-1,-1,0
-20.41,1.91,14.51,266,2039,7893,0,-1,0
-20.42,1.91,14.51,265,2044,7892,-1,-1,0
-20.42,1.92,14.52,266,2054,7893,-1,-1,0
-20.42,1.92,14.52,269,2050,7884,-1,-1,0
-20.42,1.93,14.51,272,2043,7895,-1,-1,0
-20.42,1.92,14.50,275,2037,7910,-1,0,-1
-20.42,1.92,14.51,259,2040,7910,0,-1,-1
-20.42,1.93,14.51,263,2041,7898,0,-1,0
-20.42,1.93,14.51,266,2032,7904,0,-1,0
-20.42,1.93,14.52,270,2043,7896,0,-1,0
-20.42,1.93,14.52,273,2050,7894,-1,-1,0
-20.43,1.93,14.51,269,2051,7891,-1,-1,0
-20.43,1.93,14.51,267,2048,7892,-1,-1,0
-20.43,1.93,14.51,266,2041,7897,0,-1,0
-20.44,1.94,14.51,277,2038,7893,0,-1,0
-20.44,1.94,14.51,275,2045,7892,0,-1,0
-20.45,1.95,14.51,276,2045,7894,-1,-1,0
-20.45,1.95,14.51,273,2047,7892,-1,-1,0
-20.45,1.95,14.51,273,2042,7894,-1,-1,0
-20.44,1.95,14.50,269,2035,7895,-1,-1,0
-20.45,1.95,14.50,268,2028,7879,0,-1,0
-20.45,1.95,14.51,268,2035,7888,0,-1,0
-20.45,1.95,14.51,267,2041,7888,0,-1,-1
-20.45,1.95,14.51,261,2032,7899,-1,-1,0
-20.45,1.95,14.51,269,2035,7899,0,-1,0
-20.45,1.96,14.51,268,2042,7899,0,-1,-1
-20.45,1.96,14.51,276,2044,7894,-1,0,0
-20.46,1.96,14.51,272,2047,7899,-1,-1,0
-20.46,1.96,14.50,268,2038,7889,-1,-1,0
-20.47,1.97,14.51,270,2045,7893,0,-1,0
-20.47,1.97,14.52,271,2051,7883,0,-1,0
-20.47,1.97,14.51,280,2060,7884,-1,-1,0
-20.47,1.97,14.51,284,2047,7885,-1,-1,0
-20.47,1.98,14.51,272,2035,7892,-1,-1,0
-20.48,1.98,14.50,272,2027,7899,-1,-1,0
-20.48,1.98,14.50,269,2027,7902,0,-1,0
-20.48,1.98,14.50,274,2031,7900,0,-1,0
-20.48,1.99,14.50,283,2038,7882,0,-1,0
-20.48,2.00,14.51,287,2038,7883,0,-1,0
-20.49,2.00,14.51,282,2045,7888,-1,-1,-1
-20.49,2.00,14.50,275,2041,7888,-1,-1,0
-20.49,2.00,14.50,275,2045,7892,-1,-1,0
-20.49,2.00,14.50,274,2037,7898,0,-1,0
-20.49,2.00,14.50,279,2032,7898,0,-1,0
-20.49,2.00,14.51,283,2043,7888,0,-1,0
-20.50,2.01,14.51,283,2048,7892,0,-1,0
-20.50,2.01,14.51,281,2054,7888,-1,-1,0
-20.50,2.01,14.51,273,2050,7897,-1,-1,0
-20.50,2.01,14.51,279,2051,7896,-1,-1,0
-20.51,2.02,14.51,279,2052,7898,-1,-1,0
-20.51,2.02,14.51,276,2040,7899,-1,-1,0
-20.51,2.02,14.51,278,2036,7893,-1,-1,0
-20.51,2.03,14.50,274,2023,7890,-1,-1,0
-20.52,2.03,14.49,273,2026,7902,-1,-1,0
-20.52,2.04,14.49,292,2025,7898,0,-1,-1
-20.51,2.04,14.50,288,2043,7896,0,-1,-1
-20.51,2.04,14.49,286,2045,7901,-1,0,0
-20.52,2.04,14.48,277,2039,7903,-1,-1,0
-20.52,2.04,14.47,273,2023,7902,0,-1,0
-20.52,2.04,14.48,282,2040,7905,0,-1,0
-20.53,2.04,14.48,292,2041,7898,-1,-1,0
-20.53,2.05,14.48,295,2040,7889,-1,-1,0
-20.53,2.05,14.48,286,2041,7898,-1,-1,0
-20.53,2.05,14.48,286,2044,7898,0,-1,0
-20.53,2.05,14.48,274,2039,7906,0,-1,0
-20.53,2.06,14.48,276,2040,7904,0,-1,0
-20.54,2.06,14.48,281,2040,7900,-1,-1,0
-20.54,2.07,14.48,290,2038,7896,0,-1,0
-20.54,2.07,14.48,295,2036,7891,0,-1,0
-20.54,2.07,14.48,292,2041,7894,-1,-1,0
-20.55,2.07,14.48,288,2043,7895,-1,-1,0
-20.55,2.07,14.48,290,2040,7893,-1,-1,0
-20.55,2.07,14.48,279,2043,7889,-1,-1,-1
-20.55,2.07,14.48,285,2046,7899,0,-1,-1
-20.55,2.07,14.48,284,2039,7900,0,-1,0
-20.55,2.07,14.48,286,2037,7893,0,-1,0
-20.55,2.07,14.48,289,2035,7888,0,-1,-1
-20.55,2.08,14.48,295,2043,7887,0,-1,0
-20.55,2.08,14.48,293,2039,7897,-1,-1,0
-20.55,2.07,14.48,290,2028,7895,0,-1,-1
-20.55,2.08,14.48,290,2037,7894,0,-1,-1
-20.55,2.08,14.49,291,2045,7890,0,-1,-1
-20.54,2.08,14.49,301,2047,7893,-1,-1,-1
-20.54,2.08,14.48,295,2038,7887,-1,0,-1
-20.54,2.08,14.48,286,2033,7895,0,0,-1
-20.54,2.07,14.48,273,2040,7893,-1,-1,-1
-20.53,2.07,14.48,280,2036,7896,0,-1,0
-20.53,2.07,14.48,283,2034,7903,0,-1,0
-20.54,2.08,14.49,299,2029,7890,0,-1,-1
-20.54,2.07,14.50,314,2037,7885,0,0,-1
-20.53,2.06,14.51,287,2050,7885,0,0,-1
-20.53,2.06,14.50,296,2026,7898,-1,0,-1
-20.53,2.05,14.49,278,2025,7908,0,-1,-1
-20.52,2.06,14.50,289,2032,7903,0,0,-1
-20.52,2.05,14.50,281,2039,7898,0,0,-1
-20.52,2.05,14.51,281,2041,7897,0,-1,0
-20.52,2.06,14.50,300,2044,7896,-1,0,0
-20.52,2.06,14.51,284,2041,7897,0,-1,0
-20.53,2.06,14.51,308,2041,7890,0,0,0
-20.53,2.06,14.51,282,2051,7896,0,-1,-1
-20.53,2.06,14.52,294,2055,7866,0,0,0
-20.53,2.06,14.52,286,2043,7882,-1,-1,-1
-20.53,2.06,14.51,287,2036,7881,0,-1,-1
-20.53,2.06,14.51,290,2047,7878,-1,0,-1
-20.53,2.05,14.51,277,2024,7879,-1,0,-1
-20.53,2.05,14.51,293,2032,7881,0,-1,-1
-20.52,2.04,14.52,280,2058,7878,-1,-1,-1
-20.52,2.04,14.51,292,2041,7883,-1,0,0
-20.52,2.04,14.50,274,2035,7897,-1,-1,-1
-20.52,2.04,14.50,280,2033,7889,0,-1,0
-20.52,2.04,14.51,276,2041,7884,0,0,-1
-20.52,2.04,14.51,288,2042,7894,0,0,-1
-20.51,2.02,14.52,262,2066,7890,0,-1,-1
-20.51,2.03,14.53,275,2067,7884,-1,-1,0
-20.51,2.03,14.52,288,2044,7874,-1,0,0
-20.51,2.02,14.51,281,2033,7884,0,0,-1
-20.51,2.02,14.51,279,2029,7892,0,-1,-1
-20.51,2.02,14.53,285,2044,7888,0,0,-1
-20.51,2.02,14.53,284,2050,7885,-1,-1,0
-20.51,2.02,14.53,297,2045,7885,-1,0,-1
-20.51,2.02,14.52,271,2042,7896,-1,-1,0
-20.51,2.02,14.51,293,2024,7887,0,0,0
-20.51,2.01,14.51,292,2044,7896,0,0,-1
-20.51,2.01,14.52,277,2058,7890,-1,0,-1
-20.50,2.00,14.51,286,2045,7884,-1,0,-1
-20.50,2.00,14.50,269,2037,7880,-1,0,0
-20.51,2.00,14.50,282,2032,7882,-1,0,0
-20.50,1.99,14.50,278,2038,7889,0,0,-1
-20.50,1.99,14.50,280,2056,7894,0,-1,-1
-20.50,1.99,14.51,282,2062,7894,-1,-1,0
-20.50,1.99,14.50,279,2045,7894,-1,0,0
-20.50,1.99,14.50,277,2035,7890,-1,0,-1
-20.49,1.98,14.50,276,2024,7887,0,0,-1
-20.49,1.98,14.50,272,2036,7895,0,0,-1
-20.49,1.98,14.51,275,2043,7894,0,-1,0
-20.50,1.98,14.51,284,2044,7897,0,0,0
-20.50,1.98,14.51,287,2048,7893,-1,0,0
-20.49,1.97,14.50,285,2035,7889,-1,0,-1
-20.49,1.97,14.50,276,2034,7892,0,0,-1
-20.49,1.96,14.50,272,2045,7904,0,0,-1
-20.48,1.95,14.50,264,2044,7908,-1,-1,-1
-20.48,1.95,14.50,270,2049,7901,-1,0,-1
-20.48,1.95,14.50,275,2045,7884,-1,0,-1
-20.48,1.94,14.50,272,2040,7894,-1,0,-1
-20.48,1.94,14.49,273,2036,7901,0,0,-1
-20.47,1.94,14.50,274,2042,7908,-1,0,-1
-20.47,1.94,14.49,274,2036,7901,-1,0,-1
-20.47,1.93,14.49,266,2040,7887,0,0,-1
-20.47,1.92,14.50,258,2048,7890,-1,0,-1
-20.47,1.92,14.50,259,2043,7894,-1,-1,0
-20.48,1.92,14.49,264,2034,7889,0,0,-1
-20.47,1.91,14.49,263,2031,7894,-1,0,-1
-20.47,1.91,14.48,260,2034,7898,0,0,-1
-20.47,1.91,14.48,266,2038,7894,0,0,-1
-20.47,1.90,14.49,261,2046,7894,0,0,-1
-20.46,1.90,14.49,268,2053,7895,-1,0,-1
-20.46,1.89,14.49,267,2041,7896,-1,0,-1
-20.46,1.88,14.49,259,2027,7892,-1,0,0
-20.46,1.88,14.48,258,2029,7900,0,-1,-1
-20.46,1.88,14.49,264,2042,7903,0,0,-1
-20.46,1.88,14.50,263,2059,7901,0,0,-1
-20.46,1.88,14.50,264,2050,7894,-1,0,0
-20.46,1.87,14.49,259,2033,7899,-1,0,0
-20.46,1.87,14.48,258,2026,7896,0,0,-1
-20.46,1.87,14.49,260,2037,7893,0,0,-1
-20.45,1.86,14.50,260,2048,7896,0,0,-1
-20.45,1.86,14.50,264,2048,7896,-1,0,0
-20.45,1.86,14.49,261,2048,7892,-1,0,-1
-20.45,1.86,14.49,262,2043,7888,-1,0,-1
-20.45,1.85,14.49,262,2034,7887,-1,0,-1
-20.45,1.84,14.49,260,2041,7887,0,0,-1
-20.45,1.84,14.49,256,2048,7898,0,0,-1
-20.45,1.84,14.49,254,2046,7896,-1,0,-1
-20.45,1.84,14.49,261,2037,7886,-1,0,-1
-20.45,1.83,14.49,257,2036,7886,0,0,0
-20.45,1.83,14.49,251,2034,7881,0,-1,-1
-20.45,1.84,14.50,252,2038,7890,0,0,0
-20.44,1.83,14.50,251,2044,7894,0,-1,-1
-20.44,1.84,14.50,260,2046,7886,-1,-1,0
-20.44,1.83,14.50,248,2043,7898,-1,-1,-1
-20.44,1.83,14.50,246,2040,7892,0,-1,-1
-20.44,1.83,14.50,249,2051,7895,0,-1,0
-20.44,1.83,14.51,255,2052,7894,0,-1,0
-20.45,1.84,14.52,256,2058,7903,0,-1,-1
-20.45,1.84,14.52,262,2046,7891,-1,-1,0
-20.45,1.85,14.52,266,2033,7876,0,-1,0
-20.45,1.85,14.52,269,2049,7869,0,0,-1
-20.45,1.84,14.53,264,2056,7875,-1,0,-1
-20.45,1.84,14.52,260,2056,7889,-1,-1,-1
-20.45,1.84,14.52,255,2054,7895,-1,-1,0
-20.45,1.85,14.52,252,2045,7891,-1,-1,0
-20.45,1.86,14.52,259,2044,7877,0,-1,0
-20.46,1.86,14.52,251,2047,7877,0,-1,0
-20.46,1.86,14.53,259,2054,7887,0,-1,0
-20.46,1.86,14.53,260,2055,7898,-1,-1,0
-20.46,1.86,14.52,256,2038,7896,-1,-1,0
-20.47,1.86,14.52,254,2038,7899,0,-1,0
-20.47,1.87,14.53,258,2045,7886,0,-1,0
-20.47,1.87,14.53,262,2047,7885,0,-1,0
-20.48,1.88,14.52,267,2041,7896,-1,-1,0
-20.48,1.88,14.52,253,2036,7887,-1,-1,0
-20.48,1.88,14.52,258,2035,7883,0,-1,0
-20.48,1.88,14.52,263,2046,7883,0,-1,0
-20.49,1.89,14.53,269,2061,7881,-1,0,0
-20.49,1.89,14.52,274,2047,7890,-1,-1,-1
-20.49,1.89,14.52,261,2038,7888,-1,0,0
-20.49,1.89,14.51,264,2028,7900,0,-1,0
-20.49,1.89,14.52,267,2036,7893,0,-1,-1
-20.49,1.89,14.52,260,2051,7902,0,-1,0
-20.49,1.90,14.52,264,2059,7893,-1,-1,0
-20.49,1.90,14.52,267,2049,7885,-1,-1,0
-20.50,1.91,14.51,275,2037,7891,-1,-1,0
-20.50,1.91,14.51,267,2032,7890,0,-1,-1
-20.50,1.91,14.52,263,2041,7891,0,-1,0
-20.50,1.91,14.53,261,2049,7892,0,-1,0
-20.50,1.92,14.52,266,2055,7881,-1,-1,0
-20.50,1.92,14.52,262,2049,7879,-1,-1,0
-20.51,1.92,14.52,266,2047,7882,-1,-1,0
-20.51,1.92,14.52,268,2044,7886,-1,-1,0
-20.51,1.92,14.52,270,2047,7893,-1,-1,0
-20.51,1.92,14.52,262,2042,7884,0,-1,0
