Yaw,Pitch,Roll,AX,AY,AZ,GX,GY,GZ
-12.68,6.48,-1.87,914,-273,8144,0,-1,0
-12.68,6.49,-1.87,922,-279,8145,0,-1,0
-12.68,6.50,-1.86,931,-269,8136,0,-1,0
-12.68,6.50,-1.86,931,-260,8136,0,-1,-1
-12.68,6.50,-1.85,936,-254,8128,0,-1,-1
-12.68,6.50,-1.84,926,-247,8134,-1,-1,0
-12.68,6.51,-1.85,928,-252,8140,-1,-1,0
-12.68,6.51,-1.85,927,-260,8153,-1,-1,0
-12.68,6.52,-1.85,919,-268,8156,0,-1,0
-12.68,6.52,-1.85,919,-272,8151,0,-1,0
-12.69,6.52,-1.85,925,-272,8140,0,-1,0
-12.69,6.53,-1.85,928,-256,8148,0,-1,0
-12.69,6.53,-1.84,923,-250,8145,0,-1,0
-12.69,6.53,-1.84,926,-249,8144,-1,-1,0
-12.69,6.53,-1.84,923,-252,8148,-1,-1,0
-12.70,6.53,-1.84,920,-256,8148,-1,-1,0
-12.70,6.53,-1.84,921,-255,8145,-1,-1,0
-12.70,6.53,-1.85,914,-266,8142,-1,-1,0
-12.69,6.54,-1.85,918,-273,8142,0,-1,-1
-12.70,6.54,-1.84,927,-262,8148,0,-1,0
-12.70,6.54,-1.84,929,-259,8137,-1,-1,0
-12.70,6.55,-1.84,934,-259,8141,-1,-1,0
-12.70,6.55,-1.85,936,-265,8151,-1,-1,-1
-12.69,6.55,-1.85,930,-261,8147,0,-1,-1
-12.70,6.55,-1.84,927,-263,8145,0,-1,-1
-12.70,6.55,-1.84,928,-268,8153,0,-1,-1
-12.70,6.55,-1.84,921,-262,8138,0,-1,0
-12.70,6.56,-1.83,926,-253,8135,0,-1,0
-12.70,6.56,-1.83,933,-250,8145,0,-1,0
-12.70,6.56,-1.83,940,-247,8143,-1,0,0
-12.70,6.56,-1.83,933,-262,8138,0,-1,0
-12.70,6.56,-1.83,926,-268,8136,-1,-1,0
-12.70,6.56,-1.84,935,-272,8139,-1,-1,0
-12.70,6.56,-1.84,930,-266,8148,0,-1,0
-12.70,6.57,-1.84,942,-266,8140,-1,-1,0
-12.70,6.57,-1.84,940,-262,8134,-1,-1,0
-12.71,6.57,-1.84,943,-260,8129,-1,0,0
-12.71,6.57,-1.84,938,-260,8136,-1,0,0
-12.70,6.57,-1.84,936,-259,8140,0,-1,-1
-12.70,6.57,-1.84,930,-264,8134,-1,-1,0
-12.71,6.57,-1.85,930,-272,8140,0,-1,0
-12.71,6.57,-1.85,929,-267,8138,0,-1,-1
-12.71,6.57,-1.85,929,-264,8149,0,-1,0
-12.71,6.58,-1.84,933,-262,8154,0,-1,-1
-12.70,6.58,-1.84,933,-263,8146,0,0,-1
-12.70,6.58,-1.84,931,-263,8145,-1,-1,-1
-12.70,6.58,-1.84,942,-266,8138,0,-1,-1
-12.71,6.58,-1.85,948,-268,8133,-1,0,0
-12.71,6.58,-1.85,949,-273,8133,0,-1,0
-12.70,6.58,-1.84,944,-260,8134,-1,0,0
-12.70,6.58,-1.85,938,-263,8143,-1,-1,-1
-12.70,6.58,-1.85,932,-260,8141,0,0,-1
-12.70,6.58,-1.85,925,-255,8152,-1,0,-1
-12.70,6.58,-1.85,923,-258,8143,-1,-1,0
-12.70,6.57,-1.85,924,-272,8146,-1,-1,-1
-12.70,6.58,-1.85,929,-276,8141,0,-1,0
-12.70,6.58,-1.85,940,-272,8142,0,-1,-1
-12.70,6.58,-1.85,947,-258,8137,0,0,-1
-12.70,6.58,-1.84,950,-246,8141,0,0,-1
-12.70,6.58,-1.84,943,-249,8135,-1,0,-1
-12.70,6.58,-1.84,938,-253,8142,-1,-1,-1
-12.70,6.58,-1.84,936,-256,8149,-1,0,-1
-12.70,6.58,-1.85,928,-262,8153,0,-1,0
-12.70,6.58,-1.85,934,-265,8140,0,-1,-1
-12.69,6.58,-1.84,945,-258,8131,0,-1,-1
-12.69,6.58,-1.83,947,-258,8136,0,0,-1
-12.69,6.58,-1.83,944,-244,8135,0,0,-1
-12.69,6.58,-1.83,940,-250,8140,-1,0,0
-12.69,6.58,-1.83,941,-253,8135,-1,0,-1
-12.69,6.57,-1.84,939,-257,8130,-1,0,-1
-12.69,6.57,-1.84,936,-262,8130,-1,0,-1
-12.69,6.58,-1.84,941,-266,8133,-1,0,-1
-12.69,6.57,-1.85,939,-266,8134,-1,0,-1
-12.69,6.57,-1.85,940,-267,8128,0,0,-1
-12.69,6.56,-1.84,939,-263,8139,0,0,-1
-12.68,6.56,-1.84,936,-261,8151,-1,0,-1
-12.68,6.56,-1.84,940,-264,8146,0,0,-1
-12.68,6.55,-1.84,938,-266,8148,0,0,0
-12.68,6.55,-1.85,939,-270,8142,0,0,-1
-12.68,6.55,-1.84,934,-270,8137,0,0,-1
-12.67,6.55,-1.84,934,-263,8145,0,0,-1
-12.68,6.55,-1.84,937,-256,8136,0,0,-1
-12.68,6.54,-1.83,941,-254,8138,-1,0,-1
-12.67,6.53,-1.84,925,-249,8142,-1,0,0
-12.67,6.53,-1.85,918,-266,8149,-1,-1,0
-12.67,6.53,-1.85,922,-269,8139,-1,0,-1
-12.67,6.53,-1.85,926,-264,8142,-1,0,-1
-12.67,6.53,-1.85,934,-265,8144,-1,0,-1
-12.66,6.52,-1.86,930,-266,8137,-1,0,-1
-12.66,6.51,-1.86,930,-265,8138,-1,0,-1
-12.66,6.51,-1.87,928,-263,8144,-1,0,-1
-12.66,6.50,-1.86,926,-262,8159,-1,0,-1
-12.66,6.50,-1.87,930,-272,8148,-1,0,-1
-12.66,6.49,-1.88,921,-275,8141,0,0,-1
-12.65,6.49,-1.87,924,-271,8139,0,0,-1
-12.65,6.48,-1.86,927,-254,8140,0,0,-1
-12.65,6.48,-1.86,928,-248,8133,-1,0,0
-12.65,6.47,-1.87,927,-258,8138,-1,0,0
-12.65,6.47,-1.87,916,-272,8149,0,0,0
-12.65,6.47,-1.87,918,-267,8149,0,0,-1
-12.64,6.46,-1.87,917,-254,8144,-1,0,-1
-12.64,6.46,-1.87,918,-252,8145,-1,0,0
-12.65,6.46,-1.87,925,-264,8133,-1,0,0
-12.64,6.45,-1.87,920,-265,8145,-1,0,-1
-12.64,6.45,-1.87,916,-260,8153,-1,0,0
-12.64,6.44,-1.88,915,-269,8148,-1,0,-1
-12.64,6.44,-1.88,912,-271,8150,0,0,-1
-12.64,6.43,-1.88,917,-272,8134,-1,0,0
-12.64,6.42,-1.88,924,-268,8124,-1,0,-1
-12.64,6.42,-1.88,927,-266,8130,-1,0,-1
-12.63,6.41,-1.88,921,-269,8148,-1,0,-1
-12.63,6.40,-1.89,913,-272,8144,-1,0,-1
-12.63,6.40,-1.89,904,-271,8141,0,0,-1
-12.63,6.39,-1.88,902,-264,8142,0,0,-1
-12.63,6.38,-1.88,911,-260,8140,-1,0,-1
-12.63,6.38,-1.88,916,-261,8140,-1,0,-1
-12.63,6.38,-1.88,912,-258,8150,0,0,0
-12.63,6.37,-1.88,911,-262,8141,-1,0,0
-12.63,6.36,-1.87,915,-256,8139,0,0,-1
-12.63,6.35,-1.87,911,-253,8137,-1,0,0
-12.63,6.35,-1.88,910,-268,8145,-1,0,-1
-12.63,6.34,-1.88,910,-268,8144,-1,0,0
-12.62,6.28,-1.87,892,-98,8245,-2,3,-1
-12.58,6.19,-1.94,902,-113,8237,-5,2,-2
-12.58,6.16,-2.09,907,-292,8227,-5,0,1
-12.60,6.16,-2.18,832,-415,8084,-2,-2,0
-12.61,6.20,-2.22,874,-479,8010,0,-1,0
-12.61,6.23,-2.21,897,-448,8003,1,-1,-1
-12.60,6.22,-2.16,927,-358,8035,1,0,-1
-12.60,6.19,-2.11,897,-327,8136,1,0,-1
-12.59,6.18,-2.06,852,-297,8227,1,-1,-1
-12.59,6.19,-2.02,841,-248,8223,0,-1,-1
-12.59,6.21,-2.00,851,-223,8179,0,-1,0
-12.59,6.24,-1.99,881,-237,8125,-1,-1,-1
-12.58,6.25,-2.00,896,-268,8098,-1,-1,-1
-12.58,6.26,-2.00,893,-307,8105,0,-1,-1
-12.58,6.26,-2.00,888,-315,8139,0,-1,-1
-12.58,6.27,-1.98,890,-306,8162,0,-1,-1
-12.58,6.27,-1.96,900,-284,8167,0,-1,-1
-12.58,6.28,-1.95,905,-269,8150,0,-1,0
-12.58,6.28,-1.94,897,-258,8130,0,-1,0
-12.58,6.29,-1.94,896,-259,8128,0,-1,0
-12.58,6.30,-1.94,897,-263,8133,-1,-1,0
-12.58,6.31,-1.94,904,-268,8154,-1,-1,0
-12.59,6.31,-1.94,901,-287,8165,0,-1,0
-12.59,6.32,-1.95,903,-291,8162,0,-1,0
-12.59,6.33,-1.94,899,-291,8149,0,-1,0
-12.59,6.33,-1.93,906,-278,8134,0,-1,-1
-12.59,6.34,-1.91,912,-263,8126,0,-1,0
-12.60,6.35,-1.91,906,-263,8134,-1,-1,0
-12.60,6.36,-1.92,905,-277,8144,0,-1,0
-12.60,6.36,-1.92,909,-276,8155,0,-1,0
-12.60,6.37,-1.91,916,-273,8156,0,-1,0
-12.60,6.38,-1.90,921,-271,8141,0,-1,0
-12.60,6.38,-1.90,914,-264,8133,0,-1,0
-12.61,6.38,-1.90,901,-263,8135,0,-1,0
-12.61,6.38,-1.90,898,-267,8139,-1,-1,0
-12.62,6.39,-1.90,904,-268,8128,-1,-1,0
-12.62,6.39,-1.90,910,-273,8137,0,-1,0
-12.62,6.40,-1.89,917,-275,8156,0,-1,0
-12.62,6.41,-1.89,926,-276,8142,0,-1,0
-12.62,6.41,-1.88,921,-264,8138,0,-1,0
-12.63,6.42,-1.87,928,-258,8134,0,-1,0
-12.63,6.42,-1.87,917,-261,8137,-1,-1,0
-12.63,6.42,-1.88,911,-272,8145,-1,-1,0
-12.63,6.42,-1.88,914,-270,8150,-1,-1,0
-12.63,6.43,-1.88,914,-271,8147,0,-1,0
-12.63,6.44,-1.88,919,-265,8159,0,-1,0
-12.63,6.44,-1.88,916,-259,8148,0,-1,0
-12.63,6.45,-1.87,920,-256,8141,0,-1,0
-12.64,6.45,-1.86,921,-258,8139,0,-1,0
-12.64,6.45,-1.86,918,-257,8137,0,-1,0
-12.64,6.45,-1.87,922,-256,8141,-1,-1,0
-12.65,6.46,-1.87,921,-264,8141,-1,-1,0
-12.65,6.47,-1.87,924,-263,8142,-1,-1,0
-12.65,6.47,-1.87,920,-278,8147,-1,-1,0
-12.65,6.47,-1.87,926,-273,8131,0,-1,-1
-12.66,6.47,-1.87,920,-261,8139,0,-1,0
-12.66,6.48,-1.86,926,-252,8141,-1,-1,0
-12.66,6.49,-1.87,925,-258,8145,-1,-1,0
-12.66,6.49,-1.87,922,-264,8156,-1,-1,0
-12.66,6.49,-1.87,918,-278,8155,0,-1,0
-12.66,6.50,-1.87,919,-276,8141,0,-1,0
-12.66,6.50,-1.86,924,-266,8139,0,-1,0
-12.66,6.50,-1.86,925,-256,8144,0,-1,0
-12.66,6.50,-1.86,928,-255,8135,0,-1,0
-12.66,6.50,-1.86,932,-256,8131,-1,-1,0
-12.66,6.50,-1.86,923,-262,8146,-1,-1,0
-12.66,6.50,-1.86,923,-269,8144,0,-1,0
-12.66,6.50,-1.86,929,-270,8143,0,-1,0
-12.66,6.51,-1.86,929,-270,8136,0,-1,0
-12.67,6.51,-1.85,934,-262,8142,-1,0,0
-12.67,6.51,-1.86,928,-266,8146,-1,0,0
-12.67,6.51,-1.86,927,-266,8143,-1,0,0
-12.67,6.51,-1.87,922,-271,8142,-1,0,0
-12.67,6.51,-1.87,926,-273,8142,-1,-1,0
-12.67,6.52,-1.87,929,-270,8142,-1,-1,0
-12.67,6.52,-1.87,928,-265,8139,0,-1,0
-12.67,6.52,-1.87,930,-262,8142,0,-1,0
-12.67,6.52,-1.87,931,-258,8147,-1,-1,0
-12.67,6.52,-1.87,926,-263,8142,0,-1,0
-12.68,6.52,-1.86,927,-264,8147,0,-1,0
-12.67,6.52,-1.86,934,-263,8145,0,-1,-1
-12.67,6.53,-1.85,937,-253,8147,-1,0,0
-12.68,6.53,-1.85,933,-263,8137,-1,-1,0
-12.68,6.52,-1.86,925,-265,8129,-1,-1,0
-12.68,6.52,-1.86,918,-274,8137,0,-1,0
-12.68,6.52,-1.86,928,-271,8143,0,-1,-1
-12.68,6.53,-1.85,930,-253,8140,-1,-1,0
-12.68,6.53,-1.85,934,-247,8133,-1,-1,0
-12.68,6.53,-1.85,929,-252,8138,-1,0,0
-12.68,6.53,-1.86,921,-261,8139,-1,-1,0
-12.68,6.53,-1.86,928,-268,8144,-1,-1,0
-12.69,6.53,-1.87,928,-273,8145,0,-1,0
-12.69,6.53,-1.86,926,-269,8143,0,-1,0
-12.69,6.53,-1.86,935,-262,8142,0,-1,0
-12.69,6.54,-1.86,940,-259,8135,0,-1,-1
-12.69,6.54,-1.86,937,-257,8132,0,0,0
-12.68,6.54,-1.86,940,-256,8137,-1,0,0
-12.69,6.54,-1.86,934,-264,8143,-1,0,0
-12.69,6.53,-1.86,927,-274,8155,0,-1,-1
-12.68,6.53,-1.85,930,-276,8151,0,0,-1
-12.68,6.53,-1.85,934,-269,8148,0,-1,-1
-12.69,6.53,-1.85,941,-262,8141,0,0,0
-12.69,6.53,-1.84,939,-257,8137,0,0,0
-12.69,6.53,-1.84,935,-255,8137,-1,0,0
-12.69,6.53,-1.85,935,-255,8136,-1,0,-1
-12.69,6.53,-1.85,930,-255,8131,-1,-1,0
-12.69,6.54,-1.85,931,-261,8127,-1,-1,0
-12.69,6.54,-1.85,933,-268,8129,0,-1,0
-12.69,6.54,-1.86,940,-269,8140,-1,-1,-1
-12.69,6.54,-1.86,940,-272,8138,0,0,-1
-12.69,6.54,-1.85,938,-265,8134,0,0,-1
-12.68,6.54,-1.85,935,-262,8133,0,0,-1
-12.68,6.54,-1.84,939,-255,8140,-1,0,0
-12.69,6.53,-1.85,931,-257,8149,-1,0,0
-12.69,6.53,-1.85,930,-262,8137,0,0,0
-12.68,6.53,-1.85,925,-275,8132,0,0,-1
-12.68,6.53,-1.85,931,-271,8136,0,0,-1
-12.68,6.53,-1.84,933,-261,8130,0,0,-1
-12.68,6.52,-1.84,924,-255,8134,0,0,-1
-12.68,6.52,-1.84,928,-254,8131,-1,0,-1
-12.67,6.52,-1.84,928,-253,8138,-1,0,-1
-12.67,6.52,-1.85,930,-274,8145,-1,0,-1
-12.67,6.52,-1.85,930,-287,8145,0,0,-1
-12.67,6.52,-1.85,928,-272,8143,0,0,-1
-12.67,6.52,-1.85,931,-267,8147,-1,0,0
-12.67,6.52,-1.85,934,-263,8144,-1,0,-1
-12.67,6.51,-1.85,929,-261,8141,-1,0,-1
-12.66,6.51,-1.86,930,-269,8136,-1,0,-1
-12.66,6.51,-1.86,932,-268,8135,-1,0,0
-12.66,6.51,-1.86,932,-271,8143,0,0,-1
-12.66,6.50,-1.86,931,-267,8154,0,0,-1
-12.67,6.50,-1.85,931,-256,8146,0,0,0
-12.67,6.50,-1.85,929,-254,8143,0,0,-1
-12.67,6.50,-1.85,934,-246,8139,-1,0,0
-12.66,6.49,-1.85,933,-255,8144,-1,0,-1
-12.66,6.49,-1.85,924,-263,8149,0,0,0
-12.66,6.48,-1.85,923,-263,8139,0,0,-1
-12.66,6.48,-1.85,925,-255,8143,-1,0,0
-12.66,6.48,-1.85,931,-265,8139,-1,0,0
-12.66,6.47,-1.85,927,-274,8126,0,0,-1
-12.66,6.46,-1.85,915,-270,8135,-1,0,0
-12.66,6.46,-1.86,920,-261,8150,-1,0,-1
-12.66,6.46,-1.85,923,-252,8155,0,0,-1
-12.66,6.45,-1.85,910,-251,8153,-1,0,-1
-12.65,6.45,-1.86,917,-261,8144,-1,0,-1
-12.65,6.44,-1.86,911,-259,8146,-1,0,-1
-12.65,6.44,-1.86,915,-261,8147,-1,-1,0
-12.65,6.44,-1.86,925,-273,8141,0,0,-1
-12.65,6.43,-1.86,921,-273,8127,0,0,-1
-12.65,6.43,-1.86,921,-271,8134,0,0,-1
-12.65,6.43,-1.86,921,-259,8137,-1,0,-1
-12.64,6.43,-1.85,919,-264,8137,-1,0,-1
-12.64,6.42,-1.86,914,-273,8141,-1,0,-1
-12.64,6.41,-1.87,913,-280,8147,0,0,-1
-12.64,6.41,-1.87,913,-272,8143,0,0,-1
-12.64,6.40,-1.87,913,-265,8149,-1,0,-1
-12.63,6.40,-1.87,925,-264,8145,0,0,-1
-12.64,6.39,-1.86,922,-266,8141,0,0,-1
-12.64,6.38,-1.86,913,-263,8141,-1,0,-1
-12.64,6.38,-1.86,912,-253,8140,-1,0,0
-12.63,6.37,-1.87,901,-255,8143,-1,0,-1
-12.63,6.36,-1.88,903,-264,8148,-1,0,-1
-12.63,6.35,-1.87,907,-262,8151,0,0,-1
-12.63,6.34,-1.88,914,-268,8142,-1,0,0
-12.62,6.33,-1.89,911,-279,8127,0,0,-1
-12.63,6.33,-1.88,912,-272,8126,0,0,0
-12.63,6.32,-1.88,905,-267,8135,-1,0,-1
-12.63,6.31,-1.88,904,-263,8140,0,0,-1
-12.63,6.30,-1.88,894,-259,8149,-1,0,-1
-12.63,6.30,-1.88,893,-266,8149,-1,0,-1
-12.63,6.29,-1.88,886,-263,8135,0,-1,0
-12.63,6.29,-1.87,898,-256,8135,0,-1,0
-12.63,6.29,-1.87,903,-253,8144,-1,0,0
-12.63,6.29,-1.87,907,-259,8142,-1,0,0
-12.63,6.28,-1.87,895,-271,8143,-1,0,-1
-12.62,6.28,-1.88,887,-274,8137,0,-1,-1
-12.62,6.28,-1.87,892,-271,8133,0,-1,-1
-12.62,6.28,-1.87,896,-268,8137,0,0,0
-12.62,6.28,-1.87,901,-264,8141,0,0,0
-12.62,6.28,-1.87,898,-263,8134,-1,0,-1
-12.62,6.28,-1.87,894,-272,8141,-1,-1,-1
-12.62,6.28,-1.87,901,-275,8133,-1,-1,-1
-12.62,6.28,-1.88,892,-278,8137,0,-1,0
-12.62,6.28,-1.88,890,-278,8138,0,-1,-1
-12.62,6.29,-1.87,893,-272,8142,0,-1,-1
-12.62,6.30,-1.87,898,-266,8136,0,-1,-1
-12.62,6.30,-1.87,900,-265,8139,0,-1,-1
-12.62,6.31,-1.86,897,-264,8144,0,-1,0
-12.62,6.31,-1.86,899,-263,8144,0,-1,0
-12.62,6.31,-1.85,899,-258,8138,0,-1,0
-12.62,6.32,-1.86,893,-259,8146,-1,-1,0
-12.62,6.32,-1.86,897,-267,8147,-1,-1,-1
-12.63,6.33,-1.86,896,-259,8142,-1,-1,0
-12.63,6.33,-1.86,895,-262,8144,-1,-1,0
-12.63,6.34,-1.87,898,-271,8143,-1,-1,0
-12.63,6.35,-1.87,909,-272,8132,0,-1,0
-12.63,6.36,-1.86,916,-270,8138,0,-1,0
-12.64,6.36,-1.86,919,-273,8145,0,-1,0
-12.64,6.36,-1.85,917,-267,8133,0,-1,0
-12.64,6.36,-1.85,905,-267,8143,0,-1,0
-12.64,6.36,-1.85,906,-267,8148,-1,-1,0
-12.64,6.37,-1.86,905,-263,8150,0,-1,0
-12.64,6.37,-1.86,904,-263,8150,0,-1,0
-12.64,6.38,-1.86,903,-266,8139,0,-1,0
-12.64,6.38,-1.86,914,-264,8138,0,-1,0
-12.64,6.39,-1.85,917,-254,8143,0,-1,0
-12.64,6.39,-1.85,915,-255,8141,-1,-1,0
-12.64,6.40,-1.85,915,-255,8147,-1,-1,0
-12.64,6.40,-1.85,915,-259,8139,0,-1,0
-12.64,6.41,-1.85,915,-259,8143,-1,-1,0
-12.64,6.41,-1.85,915,-266,8149,-1,-1,0
-12.65,6.42,-1.85,923,-267,8146,-1,-1,0
-12.65,6.43,-1.86,931,-268,8137,0,-1,0
-12.65,6.43,-1.86,920,-265,8128,0,-1,0
-12.65,6.43,-1.85,921,-259,8142,0,-1,0
-12.65,6.44,-1.84,918,-247,8142,0,-1,0
-12.66,6.43,-1.84,919,-253,8143,-1,0,0
-12.66,6.44,-1.85,925,-266,8150,-1,-1,0
-12.66,6.44,-1.85,917,-274,8146,-1,-1,0
-12.67,6.45,-1.85,915,-269,8152,0,-1,0
-12.67,6.46,-1.85,925,-258,8147,0,-1,0
-12.67,6.46,-1.84,920,-251,8143,0,-1,0
-12.67,6.46,-1.84,919,-251,8139,-1,-1,0
-12.67,6.46,-1.84,914,-259,8140,-1,-1,0
-12.67,6.46,-1.84,911,-264,8132,0,-1,0
-12.67,6.47,-1.84,919,-266,8137,0,-1,0
-12.67,6.47,-1.84,923,-261,8135,0,-1,0
-12.67,6.47,-1.83,923,-258,8137,0,0,0
-12.67,6.47,-1.83,923,-251,8142,-1,0,0
-12.67,6.47,-1.83,922,-253,8143,-1,-1,0
-12.67,6.48,-1.83,922,-255,8138,-1,-1,0
-12.67,6.48,-1.84,919,-260,8129,-1,-1,0
-12.67,6.48,-1.84,920,-260,8135,-1,-1,0
-12.67,6.48,-1.84,924,-264,8138,0,-1,0
-12.67,6.48,-1.83,925,-260,8138,0,-1,0
-12.68,6.48,-1.84,927,-256,8140,-1,-1,0
-12.68,6.48,-1.84,925,-264,8140,0,-1,0
-12.68,6.48,-1.84,926,-260,8139,-1,-1,0
-12.68,6.48,-1.84,921,-267,8144,-1,-1,-1
-12.68,6.49,-1.84,919,-269,8143,0,-1,-1
-12.68,6.49,-1.84,918,-265,8141,0,-1,0
-12.68,6.49,-1.84,928,-265,8130,0,-1,0
-12.68,6.50,-1.83,927,-254,8127,-1,-1,0
-12.68,6.50,-1.83,926,-246,8136,-1,-1,-1
-12.68,6.50,-1.83,925,-254,8145,-1,0,0
-12.68,6.50,-1.84,921,-270,8143,-1,0,0
-12.68,6.50,-1.84,923,-273,8134,0,-1,0
-12.69,6.51,-1.84,924,-279,8135,0,-1,0
-12.69,6.51,-1.83,932,-270,8121,0,-1,-1
-12.68,6.51,-1.82,935,-257,8118,0,0,-1
-12.68,6.51,-1.82,927,-242,8128,-1,-1,0
-12.68,6.51,-1.82,930,-249,8133,-1,-1,0
-12.68,6.51,-1.82,926,-256,8139,-1,-1,-1
-12.68,6.51,-1.83,921,-265,8141,-1,-1,0
-12.68,6.51,-1.83,927,-272,8135,0,-1,0
-12.68,6.51,-1.83,930,-268,8135,0,-1,0
-12.68,6.51,-1.82,931,-262,8137,0,-1,0
-12.69,6.51,-1.82,921,-255,8136,0,-1,0
-12.69,6.52,-1.82,924,-248,8141,-1,-1,0
-12.69,6.52,-1.83,941,-252,8133,-1,-1,0
-12.70,6.53,-1.83,936,-259,8138,-1,-1,0
-12.70,6.53,-1.83,931,-258,8138,-1,-1,0
-12.70,6.53,-1.83,931,-267,8148,0,-1,0
-12.70,6.53,-1.83,934,-264,8140,-1,-1,-1
-12.70,6.53,-1.83,937,-263,8129,0,0,0
-12.70,6.53,-1.83,933,-258,8125,0,0,0
-12.70,6.53,-1.83,938,-248,8128,-1,0,0
-12.70,6.53,-1.83,932,-245,8138,-1,0,0
-12.70,6.53,-1.83,937,-256,8141,-1,0,0
-12.70,6.53,-1.83,935,-267,8148,-1,-1,0
-12.70,6.53,-1.83,932,-271,8143,0,-1,-1
-12.70,6.53,-1.83,927,-270,8136,0,-1,-1
-12.70,6.53,-1.82,928,-255,8132,0,-1,-1
-12.69,6.53,-1.81,933,-240,8135,0,0,-1
-12.69,6.52,-1.81,928,-250,8133,-1,0,-1
-12.69,6.52,-1.81,928,-253,8143,-1,0,0
-12.69,6.52,-1.82,923,-265,8151,-1,-1,0
-12.69,6.52,-1.82,925,-267,8143,0,-1,-1
-12.69,6.52,-1.81,929,-251,8142,0,0,-1
-12.69,6.52,-1.80,933,-244,8142,0,0,-1
-12.68,6.52,-1.81,938,-252,8137,-1,0,-1
-12.68,6.52,-1.81,934,-252,8145,-1,0,-1
-12.68,6.52,-1.81,936,-258,8144,-1,0,-1
-12.68,6.52,-1.82,936,-267,8150,-1,0,0
-12.68,6.52,-1.82,926,-257,8145,0,0,-1
-12.68,6.51,-1.81,927,-257,8148,0,0,-1
-12.67,6.51,-1.81,929,-253,8146,0,-1,-1
-12.67,6.51,-1.81,933,-249,8140,0,0,-1
-12.67,6.51,-1.81,929,-244,8127,-1,0,-1
-12.67,6.50,-1.81,924,-259,8132,-1,0,-1
-12.67,6.50,-1.81,926,-262,8142,0,0,-1
-12.67,6.50,-1.81,923,-262,8143,0,-1,-1
-12.67,6.50,-1.80,932,-254,8146,0,0,-1
-12.67,6.50,-1.80,931,-253,8146,0,0,-1
-12.67,6.50,-1.80,930,-259,8138,0,0,0
-12.67,6.50,-1.80,925,-261,8141,0,0,0
-12.67,6.49,-1.80,931,-251,8139,-1,0,-1
-12.66,6.49,-1.80,932,-241,8145,-1,0,-1
-12.66,6.49,-1.80,930,-246,8152,-1,0,-1
-12.66,6.48,-1.81,922,-251,8144,-1,0,0
-12.66,6.47,-1.81,919,-256,8130,-1,0,0
-12.66,6.47,-1.81,914,-269,8138,-1,-1,-1
-12.66,6.47,-1.81,920,-270,8145,0,-1,-1
-12.66,6.47,-1.81,921,-259,8142,0,0,-1
-12.66,6.47,-1.80,922,-247,8147,0,0,-1
-12.66,6.47,-1.80,929,-246,8133,-1,0,0
-12.66,6.47,-1.80,933,-251,8131,-1,0,0
-12.66,6.47,-1.81,928,-269,8142,-1,0,-1
-12.65,6.46,-1.82,920,-274,8146,0,0,-1
-12.65,6.45,-1.81,919,-270,8140,0,0,-1
-12.65,6.45,-1.81,919,-260,8149,0,0,-1
-12.65,6.45,-1.80,921,-255,8144,0,0,0
-12.65,6.45,-1.80,927,-248,8148,0,0,0
-12.65,6.44,-1.80,927,-249,8153,-1,0,0
-12.65,6.44,-1.80,924,-251,8152,-1,0,0
-12.65,6.43,-1.80,930,-250,8144,-1,0,0
-12.65,6.43,-1.80,917,-245,8151,-1,0,0
-12.65,6.43,-1.80,922,-254,8151,-1,0,0
-12.65,6.43,-1.81,924,-265,8154,-1,0,0
-12.65,6.43,-1.81,924,-263,8143,0,0,-1
-12.65,6.41,-1.80,911,-268,8138,0,0,-1
-12.65,6.41,-1.80,922,-259,8139,0,0,-1
-12.65,6.41,-1.80,921,-247,8139,0,0,-1
-12.65,6.40,-1.79,918,-252,8145,-1,0,0
-12.65,6.39,-1.80,913,-261,8136,-1,0,-1
-12.65,6.39,-1.80,910,-269,8134,0,0,-1
-12.65,6.38,-1.79,910,-263,8142,0,0,-1
-12.65,6.38,-1.79,910,-251,8139,0,0,-1
-12.65,6.38,-1.78,905,-239,8139,0,0,-1
-12.65,6.38,-1.78,914,-237,8142,-1,0,0
-12.65,6.38,-1.79,915,-243,8136,-1,0,0
-12.65,6.37,-1.79,906,-253,8134,-1,0,0
-12.65,6.37,-1.80,907,-274,8141,-1,0,-1
-12.65,6.36,-1.80,903,-274,8144,0,0,-1
-12.64,6.35,-1.80,910,-273,8148,0,0,0
-12.64,6.35,-1.80,913,-263,8141,0,0,0
-12.64,6.34,-1.80,910,-250,8139,-1,0,-1
-12.64,6.33,-1.79,906,-249,8142,-1,0,0
-12.64,6.33,-1.80,903,-263,8150,0,0,0
-12.64,6.33,-1.80,900,-262,8145,0,0,-1
-12.64,6.32,-1.80,909,-258,8134,0,0,-1
-12.64,6.31,-1.79,909,-251,8142,0,0,0
-12.64,6.31,-1.79,906,-256,8140,0,0,0
-12.64,6.31,-1.79,905,-261,8145,0,0,0
-12.64,6.30,-1.78,898,-254,8143,0,0,-1
-12.64,6.29,-1.78,898,-248,8146,0,0,-1
-12.64,6.28,-1.77,891,-250,8145,-1,0,0
-12.64,6.28,-1.78,898,-260,8150,0,0,-1
-12.64,6.27,-1.78,898,-257,8149,-1,0,0
-12.64,6.27,-1.78,890,-256,8160,-1,0,0
-12.64,6.27,-1.78,893,-248,8147,-1,0,0
-12.64,6.27,-1.78,890,-259,8143,0,0,-1
-12.64,6.26,-1.78,889,-265,8148,0,0,-1
-12.64,6.26,-1.77,890,-251,8141,0,0,-1
-12.64,6.26,-1.76,890,-253,8143,0,-1,-1
-12.63,6.26,-1.76,892,-254,8138,0,-1,-1
-12.63,6.26,-1.75,896,-248,8140,0,-1,-1
-12.63,6.26,-1.74,899,-249,8135,0,-1,-1
-12.62,6.27,-1.74,901,-249,8137,0,-1,-1
-12.62,6.27,-1.74,899,-243,8148,-1,-1,-1
-12.62,6.28,-1.74,892,-237,8153,-1,-1,-1
-12.62,6.28,-1.74,894,-244,8146,-1,-1,-1
-12.62,6.28,-1.74,891,-236,8152,0,-1,-1
-12.62,6.29,-1.74,893,-241,8149,0,-1,0
-12.63,6.30,-1.74,902,-249,8148,0,-1,0
-12.63,6.31,-1.74,907,-247,8142,-1,-1,0
-12.63,6.31,-1.74,903,-249,8145,0,-1,0
-12.63,6.31,-1.73,901,-241,8143,0,-1,0
-12.63,6.32,-1.74,899,-240,8144,0,-1,0
-12.63,6.33,-1.73,902,-237,8144,0,-1,0
-12.63,6.33,-1.74,907,-251,8149,-1,-1,0
-12.63,6.34,-1.73,905,-248,8144,0,-1,-1
-12.63,6.34,-1.73,896,-257,8145,0,-1,0
-12.63,6.34,-1.73,900,-251,8164,0,-1,0
-12.63,6.35,-1.72,905,-238,8156,0,-1,0
-12.63,6.36,-1.73,901,-239,8161,-1,-1,0
-12.63,6.36,-1.73,907,-241,8152,-1,-1,0
-12.64,6.37,-1.73,912,-253,8140,-1,-1,0
-12.64,6.38,-1.73,912,-252,8144,0,-1,0
-12.64,6.38,-1.73,911,-249,8149,0,-1,0
-12.65,6.39,-1.72,904,-235,8137,0,-1,0
-12.65,6.39,-1.72,903,-225,8140,-1,-1,0
-12.65,6.41,-1.72,912,-234,8146,-1,-1,0
-12.66,6.41,-1.73,915,-245,8144,-1,-1,0
-12.66,6.42,-1.73,911,-246,8142,-1,-1,0
-12.66,6.43,-1.74,913,-242,8138,-1,-1,0
-12.66,6.44,-1.75,916,-253,8136,-1,-1,0
-12.67,6.45,-1.76,926,-259,8145,-1,-1,0
-12.68,6.46,-1.76,923,-250,8144,-1,-1,0
-12.68,6.46,-1.77,920,-250,8125,-1,-1,0
-12.68,6.48,-1.78,926,-266,8127,-1,-1,0
-12.69,6.49,-1.79,936,-264,8140,0,-1,0
-12.70,6.50,-1.79,927,-253,8137,-1,-1,0
-12.70,6.50,-1.79,930,-246,8124,0,-1,0
-12.70,6.50,-1.78,918,-236,8123,-1,-1,0
-12.71,6.50,-1.79,911,-245,8136,-1,-1,0
-12.71,6.52,-1.80,924,-259,8142,-1,-1,0
-12.71,6.53,-1.79,937,-265,8150,0,-1,0
-12.71,6.53,-1.79,929,-239,8140,0,-1,-1
-12.71,6.54,-1.79,922,-229,8130,-1,-1,0
-12.71,6.55,-1.79,929,-244,8135,-1,-1,0
-12.72,6.55,-1.80,918,-251,8137,-1,-1,0
-12.72,6.56,-1.82,929,-271,8136,-1,-1,0
-12.73,6.57,-1.83,956,-285,8138,0,-1,0
-12.73,6.57,-1.82,961,-282,8134,0,0,-1
-12.73,6.57,-1.80,957,-248,8125,0,0,-1
-12.72,6.56,-1.80,946,-238,8124,0,0,-1
-12.72,6.55,-1.80,902,-205,8135,-1,-1,-1
-12.72,6.56,-1.81,895,-229,8143,-1,-1,0
-12.73,6.58,-1.83,943,-275,8146,-1,-1,0
-12.73,6.60,-1.84,968,-284,8145,0,0,-1
-12.73,6.59,-1.83,962,-277,8142,0,0,-1
-12.72,6.59,-1.82,951,-267,8130,0,0,-1
-12.72,6.58,-1.81,932,-265,8136,0,0,-1
-12.72,6.57,-1.80,924,-250,8137,0,-1,0
-12.72,6.57,-1.80,921,-239,8150,-1,-1,0
-12.72,6.58,-1.81,937,-252,8155,-1,-1,0
-12.72,6.59,-1.82,944,-270,8159,-1,-1,-1
-12.72,6.59,-1.82,946,-271,8146,0,-1,0
-12.73,6.59,-1.82,951,-268,8128,0,-1,0
-12.73,6.59,-1.82,948,-269,8122,0,0,0
-12.73,6.59,-1.82,951,-263,8131,0,0,-1
-12.73,6.59,-1.81,942,-252,8139,0,0,0
-12.73,6.59,-1.81,934,-248,8145,-1,-1,0
-12.73,6.59,-1.81,935,-246,8151,-1,-1,0
-12.73,6.59,-1.81,943,-250,8150,-1,-1,0
-12.73,6.59,-1.81,944,-253,8139,-1,0,0
-12.73,6.59,-1.82,945,-250,8137,0,-1,0
-12.73,6.59,-1.81,945,-249,8134,0,0,0
-12.73,6.59,-1.81,939,-251,8145,-1,-1,0
-12.73,6.59,-1.81,939,-251,8132,0,-1,0
-12.73,6.60,-1.80,944,-247,8133,0,-1,0
-12.73,6.61,-1.80,952,-250,8135,0,-1,0
-12.73,6.61,-1.80,950,-247,8125,0,-1,0
-12.73,6.62,-1.80,955,-248,8128,0,-1,0
-12.73,6.62,-1.80,954,-251,8142,0,-1,0
-12.74,6.61,-1.80,953,-253,8135,0,0,0
-12.74,6.61,-1.80,948,-249,8139,-1,0,0
-12.74,6.61,-1.80,944,-256,8145,-1,-1,0
-12.74,6.61,-1.80,947,-261,8135,0,-1,-1
-12.74,6.61,-1.80,942,-256,8125,-1,-1,0
-12.74,6.61,-1.80,941,-245,8140,0,-1,0
-12.74,6.62,-1.80,955,-245,8140,-1,-1,-1
-12.74,6.62,-1.80,951,-249,8141,-1,-1,0
-12.74,6.63,-1.81,949,-245,8137,-1,-1,0
-12.74,6.62,-1.80,947,-259,8143,-1,-1,0
-12.74,6.62,-1.80,944,-269,8147,0,-1,-1
-12.74,6.63,-1.80,955,-262,8134,0,-1,-1
-12.73,6.63,-1.79,951,-255,8135,0,-1,-1
-12.73,6.63,-1.79,950,-250,8139,0,0,-1
-12.73,6.62,-1.79,948,-246,8134,-1,0,-1
-12.73,6.62,-1.79,947,-249,8137,-1,0,-1
-12.73,6.62,-1.80,941,-261,8136,-1,0,-1
-12.73,6.62,-1.80,937,-266,8133,0,0,-1
-12.73,6.62,-1.80,944,-262,8135,0,-1,-1
-12.72,6.62,-1.79,950,-250,8135,0,0,-1
-12.72,6.62,-1.78,954,-246,8132,0,0,-1
-12.72,6.62,-1.78,953,-243,8125,-1,0,-1
-12.72,6.61,-1.79,950,-248,8130,-1,0,-1
-12.71,6.61,-1.79,945,-253,8149,-1,-1,-1
-12.71,6.61,-1.79,947,-254,8143,0,0,-1
-12.71,6.61,-1.79,943,-254,8144,0,-1,-1
-12.71,6.61,-1.79,943,-255,8138,0,-1,-1
-12.71,6.61,-1.79,950,-244,8140,0,-1,0
-12.71,6.61,-1.79,955,-246,8142,0,0,0
-12.71,6.62,-1.79,962,-248,8144,-1,0,0
-12.71,6.61,-1.79,951,-249,8145,0,0,-1
-12.71,6.61,-1.78,951,-248,8136,-1,0,0
-12.71,6.61,-1.78,947,-244,8133,-1,-1,0
-12.70,6.61,-1.79,942,-249,8122,-1,-1,-1
-12.70,6.60,-1.79,939,-255,8124,-1,0,0
-12.70,6.60,-1.79,943,-262,8133,-1,0,-1
-12.70,6.60,-1.79,945,-264,8134,0,0,-1
-12.70,6.60,-1.79,953,-263,8131,0,0,-1
-12.70,6.60,-1.79,952,-252,8135,0,0,-1
-12.70,6.59,-1.78,950,-240,8139,-1,0,0
-12.70,6.59,-1.79,945,-252,8146,-1,0,-1
-12.69,6.58,-1.79,940,-255,8146,0,0,0
-12.70,6.58,-1.79,942,-252,8148,0,0,0
-12.69,6.58,-1.78,943,-246,8126,0,0,-1
-12.69,6.58,-1.78,944,-241,8124,0,0,-1
-12.69,6.58,-1.78,942,-238,8137,0,0,-1
-12.69,6.58,-1.77,947,-241,8137,0,0,-1
-12.69,6.58,-1.77,943,-247,8128,-1,0,0
-12.69,6.57,-1.77,948,-256,8133,-1,0,-1
-12.69,6.57,-1.77,943,-255,8135,0,0,0
-12.69,6.56,-1.77,942,-258,8145,0,-1,-1
-12.69,6.56,-1.77,944,-244,8142,0,0,-1
-12.69,6.56,-1.77,940,-239,8151,-1,0,-1
-12.69,6.56,-1.77,936,-249,8144,-1,0,-1
-12.68,6.55,-1.77,934,-251,8144,-1,0,-1
-12.68,6.54,-1.78,933,-252,8147,-1,0,0
-12.68,6.54,-1.78,933,-259,8145,-1,0,0
-12.68,6.53,-1.78,936,-246,8142,0,0,-1
-12.68,6.53,-1.78,930,-247,8142,0,0,-1
-12.68,6.53,-1.78,934,-247,8140,-1,0,0
-12.68,6.53,-1.78,939,-246,8140,-1,0,0
-12.68,6.53,-1.78,934,-245,8140,-1,0,0
-12.68,6.52,-1.78,928,-256,8143,-1,0,0
-12.68,6.52,-1.79,930,-261,8134,0,0,-1
-12.68,6.52,-1.78,930,-258,8133,0,0,-1
-12.68,6.52,-1.78,938,-251,8122,0,0,-1
-12.68,6.52,-1.78,936,-244,8121,-1,0,0
-12.68,6.52,-1.78,933,-247,8125,-1,0,-1
-12.68,6.51,-1.79,934,-252,8130,-1,0,0
-12.68,6.51,-1.79,930,-259,8144,-1,0,0
-12.68,6.51,-1.79,936,-262,8135,0,-1,0
-12.68,6.51,-1.79,940,-259,8141,0,-1,-1
-12.68,6.52,-1.79,941,-255,8133,0,0,-1
-12.68,6.51,-1.78,939,-251,8126,0,0,-1
-12.68,6.51,-1.78,938,-245,8134,0,0,-1
-12.68,6.51,-1.78,938,-241,8143,-1,0,-1
-12.68,6.51,-1.78,934,-241,8153,-1,0,0
-12.68,6.50,-1.79,931,-255,8151,-1,-1,0
-12.68,6.50,-1.79,931,-264,8137,0,0,0
-12.68,6.50,-1.79,924,-262,8149,0,-1,0
-12.68,6.50,-1.79,932,-255,8147,0,-1,-1
-12.67,6.51,-1.78,930,-240,8139,0,0,-1
-12.67,6.51,-1.77,927,-235,8133,-1,-1,-1
-12.68,6.51,-1.77,934,-236,8130,-1,-1,0
-12.68,6.51,-1.77,933,-239,8132,-1,-1,0
-12.68,6.51,-1.77,935,-247,8131,-1,-1,0
-12.68,6.51,-1.78,935,-261,8142,-1,-1,0
-12.68,6.52,-1.78,935,-259,8147,-1,-1,0
-12.68,6.52,-1.79,936,-266,8138,-1,-1,0
-12.68,6.52,-1.79,936,-261,8131,-1,-1,0
-12.68,6.52,-1.79,935,-258,8124,-1,0,0
-12.68,6.52,-1.79,933,-257,8141,-1,0,0
-12.68,6.52,-1.80,936,-257,8148,-1,-1,0
-12.68,6.52,-1.80,933,-266,8144,0,-1,0
-12.68,6.52,-1.80,931,-267,8136,0,-1,0
-12.68,6.52,-1.80,938,-261,8134,0,-1,0
-12.68,6.53,-1.79,932,-248,8139,0,0,0
-12.68,6.53,-1.78,930,-245,8139,0,0,0
-12.68,6.53,-1.78,933,-248,8149,-1,0,0
-12.68,6.53,-1.78,929,-250,8144,-1,-1,0
-12.68,6.53,-1.79,933,-252,8138,-1,-1,0
-12.68,6.53,-1.79,938,-251,8138,-1,-1,0
-12.68,6.53,-1.79,935,-256,8125,0,-1,0
-12.68,6.53,-1.79,939,-254,8131,0,0,0
-12.68,6.53,-1.79,937,-253,8137,-1,-1,-1
-12.68,6.53,-1.79,934,-246,8144,-1,-1,0
-12.68,6.53,-1.79,941,-247,8146,-1,-1,0
-12.69,6.54,-1.80,937,-259,8135,-1,-1,0
-12.69,6.54,-1.80,941,-261,8148,0,-1,0
-12.69,6.54,-1.80,937,-248,8148,0,-1,0
-12.69,6.54,-1.80,938,-250,8153,0,-1,0
-12.69,6.54,-1.80,940,-253,8144,0,-1,0
-12.69,6.54,-1.79,935,-245,8145,0,-1,0
-12.69,6.54,-1.79,938,-245,8138,-1,-1,0
-12.69,6.55,-1.79,942,-249,8132,0,-1,-1
-12.69,6.55,-1.79,943,-258,8139,0,-1,0
-12.69,6.55,-1.79,945,-249,8130,0,-1,0
-12.69,6.55,-1.79,949,-254,8132,-1,-1,0
-12.69,6.56,-1.79,949,-247,8125,0,-1,0
-12.69,6.55,-1.79,931,-241,8129,-1,0,0
-12.69,6.55,-1.79,929,-247,8141,-1,-1,0
-12.69,6.56,-1.80,939,-258,8137,-1,-1,0
-12.70,6.57,-1.80,943,-260,8139,0,-1,0
-12.70,6.57,-1.80,948,-258,8128,0,-1,-1
-12.70,6.57,-1.80,949,-248,8130,0,0,-1
-12.69,6.57,-1.79,947,-243,8137,0,0,0
-12.69,6.57,-1.79,937,-244,8140,-1,-1,0
-12.70,6.57,-1.80,937,-251,8150,-1,-1,0
-12.70,6.57,-1.80,936,-256,8146,-1,-1,0
-12.70,6.57,-1.80,926,-256,8142,0,-1,0
-12.70,6.57,-1.80,930,-249,8143,0,-1,0
-12.70,6.57,-1.80,943,-250,8138,0,0,0
-12.70,6.57,-1.79,943,-246,8144,0,-1,0
-12.70,6.57,-1.79,942,-245,8138,0,-1,0
-12.70,6.57,-1.79,934,-245,8141,-1,-1,-1
-12.70,6.57,-1.79,931,-240,8137,-1,-1,0
-12.70,6.57,-1.79,929,-242,8137,-1,-1,0
-12.70,6.57,-1.80,933,-252,8142,-1,-1,0
-12.70,6.57,-1.80,943,-260,8134,-1,-1,0
-12.70,6.58,-1.80,950,-262,8133,0,0,0
-12.70,6.57,-1.80,944,-254,8142,-1,0,-1
-12.70,6.57,-1.80,938,-248,8143,-1,0,-1
-12.70,6.57,-1.80,937,-251,8143,-1,0,0
-12.70,6.57,-1.80,943,-244,8140,-1,0,0
-12.70,6.57,-1.80,943,-250,8140,-1,-1,0
-12.70,6.57,-1.80,944,-253,8133,0,-1,0
-12.70,6.57,-1.80,936,-260,8131,0,-1,0
-12.70,6.57,-1.80,939,-254,8138,0,-1,-1
-12.70,6.58,-1.80,942,-248,8133,0,-1,0
-12.70,6.57,-1.80,935,-254,8136,-1,-1,0
-12.70,6.58,-1.80,941,-259,8137,0,-1,0
-12.70,6.59,-1.81,946,-260,8131,0,-1,0
-12.70,6.59,-1.81,948,-262,8138,0,-1,0
-12.70,6.59,-1.81,950,-260,8140,0,0,-1
-12.70,6.59,-1.81,944,-246,8138,-1,0,0
-12.70,6.59,-1.81,940,-247,8134,-1,-1,0
-12.70,6.59,-1.81,935,-249,8143,-1,-1,0
-12.70,6.59,-1.81,933,-254,8136,-1,0,0
-12.70,6.59,-1.81,944,-260,8142,-1,0,0
-12.71,6.59,-1.81,944,-270,8142,0,-1,0
-12.71,6.59,-1.81,949,-267,8134,0,-1,0
-12.71,6.59,-1.81,942,-255,8127,0,-1,0
-12.71,6.59,-1.80,941,-245,8131,0,-1,0
-12.71,6.59,-1.80,948,-246,8133,-1,-1,0
-12.71,6.59,-1.81,942,-242,8125,-1,-1,0
-12.71,6.59,-1.81,934,-248,8133,-1,-1,0
-12.71,6.59,-1.81,937,-265,8144,-1,-1,0
-12.71,6.59,-1.81,961,-251,8146,-1,0,-1
-12.71,6.57,-1.82,927,-237,8142,-1,0,0
-12.72,6.57,-1.83,916,-267,8115,-1,-1,0
-12.72,6.58,-1.85,963,-300,8114,0,0,0
-12.72,6.57,-1.83,966,-275,8146,0,0,-1
-12.71,6.55,-1.82,938,-229,8150,-1,0,-1
-12.71,6.54,-1.82,910,-245,8151,-1,-1,0
-12.71,6.55,-1.83,905,-266,8139,-1,-1,0
-12.71,6.56,-1.83,923,-253,8130,0,-1,0
-12.72,6.57,-1.83,945,-246,8138,-1,-1,0
-12.72,6.58,-1.84,971,-261,8151,-1,0,-1
-12.71,6.57,-1.83,957,-253,8160,0,0,-1
-12.71,6.57,-1.83,937,-247,8152,0,-1,0
-12.72,6.56,-1.83,926,-249,8138,0,-1,0
-12.72,6.56,-1.83,922,-244,8126,0,-1,0
-12.72,6.57,-1.83,938,-244,8136,-1,-1,0
-12.72,6.58,-1.83,940,-244,8147,-1,-1,0
-12.72,6.58,-1.83,945,-255,8145,-1,-1,0
-12.72,6.58,-1.83,952,-262,8148,0,-1,0
-12.72,6.58,-1.83,951,-267,8138,0,0,-1
-12.72,6.58,-1.83,947,-264,8131,0,0,-1
-12.71,6.57,-1.82,946,-248,8128,0,0,-1
-12.71,6.57,-1.81,939,-231,8135,0,0,-1
-12.71,6.57,-1.81,938,-228,8140,-1,-1,0
-12.71,6.57,-1.82,936,-248,8152,-1,-1,0
-12.71,6.57,-1.82,938,-252,8151,0,-1,-1
-12.71,6.57,-1.81,942,-255,8137,0,0,-1
-12.71,6.56,-1.81,939,-255,8142,-1,0,0
-12.71,6.56,-1.81,941,-249,8136,-1,0,0
-12.71,6.56,-1.82,942,-246,8139,-1,0,0
-12.71,6.56,-1.82,933,-255,8152,-1,-1,0
-12.71,6.56,-1.82,935,-261,8150,0,-1,-1
-12.71,6.56,-1.81,937,-250,8145,0,0,0
-12.71,6.56,-1.81,943,-255,8139,0,0,-1
-12.71,6.56,-1.81,946,-250,8127,-1,0,-1
-12.71,6.56,-1.81,940,-249,8123,-1,0,0
-12.71,6.56,-1.82,938,-256,8129,-1,0,-1
-12.71,6.56,-1.82,941,-260,8136,0,0,0
-12.71,6.55,-1.82,936,-254,8139,-1,0,-1
-12.71,6.55,-1.82,935,-254,8146,-1,0,0
-12.70,6.55,-1.82,936,-255,8145,-1,0,0
-12.70,6.55,-1.82,940,-252,8136,-1,0,0
-12.71,6.54,-1.82,938,-250,8127,-1,0,0
-12.70,6.54,-1.82,936,-257,8132,0,0,0
-12.70,6.54,-1.82,930,-263,8136,0,0,-1
-12.70,6.54,-1.81,933,-254,8131,0,-1,-1
-12.70,6.54,-1.81,946,-248,8135,-1,-1,0
-12.70,6.54,-1.81,940,-242,8136,-1,0,0
-12.70,6.54,-1.81,933,-241,8140,-1,0,0
-12.70,6.54,-1.81,929,-253,8150,0,0,-1
-12.70,6.53,-1.82,927,-263,8150,-1,0,0
-12.70,6.53,-1.82,929,-264,8144,0,0,-1
-12.70,6.53,-1.82,937,-266,8138,0,0,0
-12.70,6.53,-1.81,935,-257,8137,0,0,-1
-12.70,6.52,-1.81,934,-244,8134,0,0,-1
-12.70,6.52,-1.81,926,-237,8137,-1,0,0
-12.70,6.52,-1.80,923,-240,8129,-1,0,-1
-12.70,6.52,-1.81,918,-251,8127,-1,-1,0
-12.70,6.52,-1.81,922,-253,8135,-1,-1,-1
-12.70,6.52,-1.82,927,-261,8139,0,0,-1
-12.70,6.51,-1.81,931,-260,8134,0,0,0
-12.70,6.51,-1.81,930,-250,8137,0,0,0
-12.70,6.50,-1.80,931,-241,8145,-1,0,0
-12.70,6.50,-1.80,930,-243,8148,-1,0,0
-12.70,6.50,-1.81,934,-242,8146,-1,0,0
-12.70,6.50,-1.81,929,-254,8133,-1,0,0
-12.70,6.49,-1.81,932,-257,8136,0,0,-1
-12.70,6.49,-1.81,931,-261,8137,0,0,-1
-12.69,6.49,-1.82,933,-262,8131,0,0,-1
-12.70,6.49,-1.81,932,-253,8132,0,0,0
-12.70,6.49,-1.81,934,-254,8137,0,0,0
-12.70,6.48,-1.81,935,-246,8145,-1,0,-1
-12.69,6.48,-1.81,931,-247,8145,-1,0,-1
-12.69,6.48,-1.81,936,-250,8136,-1,0,0
-12.69,6.48,-1.82,935,-267,8128,-1,0,0
-12.69,6.47,-1.82,933,-273,8129,-1,0,0
-12.69,6.47,-1.82,931,-273,8141,0,0,0
-12.69,6.47,-1.81,932,-258,8140,0,0,-1
-12.69,6.47,-1.81,930,-246,8142,-1,0,-1
-12.70,6.47,-1.81,932,-244,8141,-1,0,0
-12.70,6.47,-1.81,928,-249,8139,-1,0,0
-12.69,6.47,-1.82,933,-267,8134,-1,0,0
-12.69,6.47,-1.82,938,-269,8137,0,0,0
-12.69,6.47,-1.82,933,-274,8140,0,0,-1
-12.69,6.46,-1.82,928,-256,8142,0,0,0
-12.69,6.46,-1.82,927,-260,8146,-1,0,0
-12.69,6.46,-1.82,930,-255,8148,-1,0,-1
-12.69,6.45,-1.83,930,-255,8143,-1,0,0
-12.69,6.45,-1.83,922,-258,8133,-1,0,-1
-12.69,6.45,-1.83,923,-260,8135,0,0,0
-12.69,6.44,-1.82,929,-254,8143,0,0,-1
-12.69,6.44,-1.82,927,-251,8144,0,0,-1
-12.69,6.44,-1.82,929,-251,8132,-1,0,0
-12.69,6.44,-1.82,922,-254,8138,-1,0,0
-12.69,6.44,-1.82,918,-253,8143,-1,0,0
-12.69,6.44,-1.82,922,-255,8148,0,-1,-1
-12.69,6.44,-1.82,924,-255,8154,-1,0,0
-12.69,6.44,-1.82,922,-258,8139,0,0,0
-12.69,6.44,-1.82,924,-255,8136,0,0,0
-12.69,6.44,-1.82,921,-254,8139,-1,-1,-1
-12.69,6.44,-1.82,922,-260,8140,0,-1,-1
-12.69,6.44,-1.82,922,-254,8146,-1,0,-1
-12.69,6.44,-1.82,915,-254,8156,-1,-1,0
-12.69,6.44,-1.83,909,-255,8149,-1,-1,0
-12.69,6.44,-1.83,915,-262,8144,0,-1,0
-12.69,6.45,-1.83,928,-272,8141,0,-1,0
-12.69,6.46,-1.83,932,-268,8137,0,0,0
-12.70,6.45,-1.82,930,-255,8139,0,0,0
-12.70,6.45,-1.81,927,-248,8140,0,-1,0
-12.70,6.46,-1.81,924,-250,8143,-1,-1,0
-12.70,6.46,-1.82,921,-259,8144,-1,-1,0
-12.70,6.46,-1.83,924,-273,8141,-1,-1,0
-12.70,6.47,-1.82,926,-260,8141,0,-1,0
-12.70,6.47,-1.82,928,-262,8130,0,-1,-1
-12.70,6.47,-1.81,925,-253,8133,0,-1,0
-12.70,6.48,-1.81,928,-244,8133,0,-1,0
-12.70,6.48,-1.81,928,-243,8137,0,-1,0
-12.71,6.48,-1.81,926,-245,8132,0,-1,0
-12.71,6.48,-1.81,922,-244,8140,-1,-1,0
-12.71,6.49,-1.81,919,-252,8142,-1,-1,0
-12.71,6.49,-1.81,923,-256,8139,-1,-1,0
-12.71,6.49,-1.81,933,-263,8147,0,-1,0
-12.71,6.50,-1.81,933,-259,8150,0,-1,0
-12.71,6.50,-1.81,939,-254,8137,0,-1,0
-12.71,6.51,-1.80,936,-244,8146,-1,-1,0
-12.72,6.51,-1.81,932,-244,8151,-1,-1,0
-12.72,6.51,-1.81,932,-253,8142,-1,-1,0
-12.72,6.52,-1.81,932,-262,8141,0,-1,0
-12.72,6.52,-1.81,931,-256,8148,0,-1,0
-12.72,6.52,-1.81,939,-247,8153,0,-1,-1
-12.72,6.52,-1.80,942,-237,8139,0,-1,0
-12.72,6.52,-1.79,937,-240,8144,-1,-1,0
-12.73,6.53,-1.80,937,-252,8131,-1,-1,0
-12.72,6.53,-1.81,927,-264,8135,-1,-1,0
-12.72,6.53,-1.81,932,-262,8133,0,-1,0
-12.73,6.54,-1.80,943,-256,8134,0,-1,0
-12.73,6.54,-1.79,939,-246,8133,-1,-1,0
-12.73,6.54,-1.80,950,-245,8135,-1,0,0
-12.73,6.54,-1.81,945,-260,8139,-1,-1,0
-12.73,6.54,-1.81,940,-264,8140,0,-1,0
-12.73,6.55,-1.81,939,-258,8134,0,-1,-1
-12.73,6.55,-1.81,944,-259,8130,-1,-1,-1
-12.73,6.55,-1.81,936,-253,8133,0,-1,0
-12.73,6.55,-1.81,936,-251,8138,-1,0,0
-12.74,6.55,-1.81,942,-246,8134,-1,-1,0
-12.74,6.55,-1.81,940,-250,8145,0,0,0
-12.74,6.54,-1.80,927,-247,8150,0,0,0
-12.74,6.54,-1.80,928,-245,8145,0,-1,0
-12.75,6.55,-1.80,937,-252,8134,-1,-1,0
-12.75,6.56,-1.80,940,-242,8130,-1,-1,0
-12.75,6.56,-1.81,945,-237,8129,-1,-1,0
-12.75,6.56,-1.81,942,-251,8139,-1,-1,0
-12.76,6.56,-1.81,941,-260,8135,0,-1,0
-12.76,6.56,-1.81,938,-256,8135,0,-1,0
-12.76,6.57,-1.81,944,-258,8134,0,-1,0
-12.76,6.57,-1.81,950,-262,8133,0,-1,0
-12.77,6.58,-1.82,952,-254,8143,-1,-1,0
-12.77,6.58,-1.82,944,-254,8141,-1,-1,-1
-12.77,6.58,-1.82,947,-260,8151,-1,0,0
-12.77,6.58,-1.82,952,-264,8149,0,0,0
-12.77,6.58,-1.82,946,-257,8148,0,-1,0
-12.77,6.58,-1.82,947,-258,8147,-1,-1,0
-12.77,6.58,-1.82,945,-256,8139,0,-1,0
-12.77,6.58,-1.82,950,-251,8138,0,-1,-1
-12.77,6.59,-1.81,955,-242,8143,-1,0,0
-12.77,6.59,-1.81,944,-242,8142,-1,-1,0
-12.77,6.59,-1.82,941,-248,8139,-1,-1,0
-12.77,6.59,-1.82,930,-259,8154,-1,-1,0
-12.78,6.60,-1.83,938,-266,8146,0,-1,-1
-12.77,6.60,-1.83,940,-260,8132,0,-1,-1
-12.77,6.60,-1.83,940,-262,8130,-1,0,-1
-12.77,6.59,-1.82,947,-264,8124,0,0,-1
-12.77,6.59,-1.82,945,-258,8130,0,0,-1
-12.77,6.59,-1.82,948,-248,8135,-1,0,-1
-12.77,6.59,-1.82,943,-247,8137,0,0,-1
-12.76,6.59,-1.82,940,-248,8132,-1,0,-1
-12.76,6.59,-1.82,938,-261,8134,0,0,-1
-12.76,6.59,-1.82,949,-263,8135,0,0,-1
-12.75,6.59,-1.82,948,-252,8133,0,0,-1
-12.75,6.59,-1.81,944,-245,8139,-1,0,-1
-12.75,6.59,-1.81,949,-245,8141,-1,0,-1
-12.75,6.59,-1.81,947,-254,8134,0,0,-1
-12.75,6.59,-1.81,944,-270,8130,0,0,-1
-12.75,6.59,-1.81,944,-269,8126,0,0,-1
-12.74,6.58,-1.81,938,-258,8126,0,0,-1
-12.74,6.58,-1.81,935,-256,8130,0,0,-1
-12.74,6.58,-1.81,940,-252,8136,0,0,-1
-12.74,6.57,-1.81,946,-247,8140,-1,0,-1
-12.73,6.57,-1.80,946,-249,8140,-1,0,-1
-12.73,6.57,-1.81,946,-256,8143,0,0,-1
-12.73,6.57,-1.80,940,-248,8149,-1,0,-1
-12.73,6.57,-1.80,941,-253,8149,0,0,-1
-12.73,6.56,-1.80,937,-254,8145,-1,0,0
-12.73,6.56,-1.80,940,-264,8138,0,0,-1
-12.73,6.56,-1.80,937,-253,8133,0,0,-1
-12.73,6.56,-1.80,939,-247,8129,-1,0,-1
-12.73,6.56,-1.80,942,-242,8127,-1,-1,-1
-12.73,6.56,-1.80,943,-239,8117,-1,0,-1
-12.73,6.56,-1.80,938,-244,8128,-1,0,-1
-12.73,6.55,-1.80,944,-262,8131,-1,0,0
-12.72,6.55,-1.81,936,-271,8131,0,0,0
-12.72,6.55,-1.81,943,-277,8142,0,0,0
-12.73,6.55,-1.80,947,-272,8143,0,0,-1
-12.73,6.55,-1.80,947,-257,8136,0,0,-1
-12.72,6.55,-1.79,949,-246,8138,-1,0,-1
-12.72,6.54,-1.79,945,-241,8136,-1,0,-1
-12.72,6.53,-1.80,936,-251,8146,-1,0,-1
-12.71,6.52,-1.81,932,-258,8143,-1,0,-1
-12.71,6.52,-1.81,931,-264,8142,-1,0,-1
-12.71,6.52,-1.81,931,-255,8144,0,0,-1
-12.71,6.52,-1.81,933,-250,8137,-1,0,-1
-12.71,6.52,-1.81,934,-254,8139,0,0,0
-12.71,6.51,-1.80,931,-256,8141,0,0,-1
-12.70,6.51,-1.80,932,-256,8152,-1,0,-1
-12.71,6.50,-1.80,936,-261,8142,-1,0,0
-12.71,6.50,-1.80,936,-256,8134,-1,0,0
-12.71,6.49,-1.81,933,-266,8137,-1,0,-1
-12.70,6.49,-1.82,938,-271,8132,-1,0,-1
-12.70,6.49,-1.82,938,-268,8133,0,0,-1
-12.70,6.49,-1.82,933,-268,8134,0,0,0
-12.70,6.49,-1.81,934,-250,8129,0,0,-1
-12.70,6.48,-1.81,938,-251,8135,-1,0,-1
-12.70,6.47,-1.81,934,-254,8136,-1,0,-1
-12.69,6.47,-1.82,933,-262,8138,-1,0,-1
-12.69,6.47,-1.82,926,-265,8134,-1,0,-1
-12.69,6.46,-1.82,919,-269,8139,0,0,-1
-12.69,6.45,-1.82,921,-261,8148,0,0,-1
-12.69,6.45,-1.82,924,-250,8149,-1,0,-1
-12.69,6.44,-1.82,931,-255,8150,-1,0,-1
-12.69,6.44,-1.82,925,-262,8144,-1,0,-1
-12.69,6.43,-1.82,925,-270,8142,-1,0,-1
-12.69,6.42,-1.83,927,-275,8143,0,0,-1
-12.69,6.42,-1.83,923,-260,8142,0,0,-1
-12.69,6.42,-1.82,925,-256,8138,0,0,0
-12.69,6.40,-1.83,921,-261,8136,0,0,-1
-12.69,6.39,-1.83,917,-262,8132,0,0,-1
-12.68,6.39,-1.82,922,-262,8145,0,0,-1
-12.68,6.37,-1.82,916,-259,8139,-1,0,0
-12.68,6.37,-1.82,911,-264,8135,-1,0,-1
-12.68,6.35,-1.82,905,-267,8142,-1,0,-1
-12.68,6.35,-1.82,900,-264,8154,0,0,-1
-12.68,6.35,-1.82,913,-260,8143,0,0,-1
-12.68,6.34,-1.82,912,-255,8144,-1,0,-1
-12.68,6.33,-1.82,907,-252,8140,-1,0,0
-12.68,6.32,-1.82,903,-258,8129,-1,0,0
-12.68,6.32,-1.82,906,-265,8133,0,0,0
-12.68,6.32,-1.82,901,-260,8137,0,0,-1
-12.68,6.31,-1.82,905,-254,8134,0,0,0
-12.68,6.30,-1.82,910,-251,8144,-1,0,-1
-12.68,6.30,-1.82,912,-257,8144,-1,0,-1
-12.68,6.28,-1.83,910,-267,8149,-1,0,-1
-12.67,6.27,-1.82,905,-273,8143,-1,0,-1
-12.67,6.26,-1.83,900,-273,8146,0,0,-1
-12.67,6.25,-1.83,902,-271,8138,0,0,-1
-12.67,6.25,-1.82,899,-261,8130,0,0,-1
-12.66,6.24,-1.81,906,-257,8121,0,0,-1
-12.66,6.23,-1.81,903,-251,8126,-1,0,-1
-12.66,6.22,-1.81,891,-248,8143,-1,0,-1
-12.66,6.21,-1.81,886,-247,8158,0,0,-1
-12.66,6.20,-1.81,894,-248,8156,-1,0,0
-12.66,6.20,-1.81,894,-252,8144,-1,0,-1
-12.66,6.19,-1.81,892,-255,8139,-1,0,0
-12.65,6.19,-1.81,880,-259,8143,0,0,-1
-12.65,6.19,-1.81,885,-255,8140,0,0,-1
-12.66,6.19,-1.80,885,-248,8145,0,0,-1
-12.66,6.19,-1.80,887,-252,8142,0,0,-1
-12.66,6.19,-1.79,890,-253,8135,0,0,-1
-12.66,6.19,-1.79,892,-253,8140,-1,-1,0
-12.66,6.20,-1.80,893,-258,8146,0,-1,0
-12.66,6.21,-1.80,891,-263,8141,0,-1,-1
-12.66,6.21,-1.80,891,-261,8139,0,0,-1
-12.66,6.21,-1.80,894,-260,8136,0,-1,-1
-12.66,6.22,-1.79,894,-252,8127,0,-1,-1
-12.66,6.22,-1.79,895,-246,8139,-1,-1,0
-12.65,6.22,-1.80,893,-253,8143,-1,-1,-1
-12.65,6.23,-1.80,896,-262,8146,0,-1,-1
-12.65,6.24,-1.80,891,-273,8144,0,-1,-1
-12.65,6.24,-1.79,897,-263,8148,0,-1,-1
-12.65,6.25,-1.79,904,-257,8149,0,-1,-1
-12.65,6.26,-1.78,912,-250,8147,0,-1,-1
-12.65,6.27,-1.78,909,-248,8143,-1,-1,-1
-12.65,6.27,-1.78,899,-254,8146,-1,-1,0
-12.65,6.28,-1.78,896,-255,8147,-1,-1,-1
-12.65,6.29,-1.78,904,-260,8143,-1,-1,0
-12.65,6.29,-1.78,900,-253,8139,0,-1,-1
-12.65,6.30,-1.77,911,-252,8132,0,-1,-1
-12.65,6.31,-1.77,913,-243,8133,0,-1,-1
-12.65,6.31,-1.77,909,-245,8139,-1,0,0
-12.65,6.32,-1.78,914,-251,8133,-1,-1,-1
-12.66,6.32,-1.78,913,-254,8127,-1,-1,0
-12.66,6.32,-1.78,907,-259,8138,-1,-1,-1
-12.66,6.33,-1.78,913,-255,8138,0,-1,-1
-12.66,6.33,-1.77,906,-244,8136,0,-1,0
-12.66,6.34,-1.77,918,-244,8134,0,-1,0
-12.66,6.35,-1.77,926,-237,8135,0,-1,0
-12.66,6.35,-1.77,919,-243,8139,-1,-1,0
-12.66,6.36,-1.78,916,-248,8138,-1,-1,-1
-12.66,6.36,-1.78,910,-261,8142,0,-1,0
-12.66,6.37,-1.77,909,-263,8146,0,-1,-1
-12.66,6.37,-1.77,914,-252,8132,0,-1,0
-12.66,6.37,-1.76,922,-251,8134,0,-1,-1
-12.66,6.38,-1.77,916,-242,8123,-1,-1,-1
-12.66,6.38,-1.77,905,-239,8129,-1,-1,-1
-12.66,6.39,-1.77,905,-238,8134,-1,-1,0
-12.67,6.39,-1.77,909,-244,8150,0,-1,0
-12.67,6.40,-1.76,914,-250,8147,0,-1,0
-12.67,6.41,-1.76,915,-251,8139,0,-1,0
-12.67,6.42,-1.76,933,-253,8123,0,-1,-1
-12.67,6.42,-1.75,934,-243,8116,0,-1,-1
-12.67,6.43,-1.75,936,-244,8128,-1,-1,-1
-12.67,6.43,-1.75,926,-243,8142,-1,-1,-1
-12.67,6.43,-1.75,921,-251,8150,0,-1,-1
-12.67,6.44,-1.75,921,-254,8139,0,-1,0
-12.67,6.44,-1.75,922,-258,8125,-1,-1,0
-12.67,6.45,-1.75,927,-259,8122,0,-1,0
-12.67,6.46,-1.75,926,-254,8129,0,-1,-1
-12.67,6.46,-1.74,937,-245,8141,0,-1,0
-12.67,6.47,-1.74,937,-241,8149,-1,0,0
-12.68,6.47,-1.74,931,-233,8141,-1,0,-1
-12.68,6.47,-1.74,923,-240,8148,-1,-1,0
-12.68,6.47,-1.75,925,-245,8162,-1,-1,0
-12.68,6.47,-1.75,932,-249,8152,-1,-1,-1
-12.69,6.48,-1.75,936,-252,8142,-1,-1,0
-12.69,6.49,-1.75,946,-249,8140,0,-1,-1
-12.69,6.49,-1.75,939,-245,8136,-1,0,0
-12.69,6.49,-1.75,934,-242,8145,-1,-1,0
-12.69,6.49,-1.75,936,-246,8145,-1,-1,0
-12.69,6.49,-1.75,927,-249,8140,0,-1,0
-12.69,6.50,-1.75,927,-253,8133,0,-1,0
-12.68,6.51,-1.75,935,-259,8139,0,-1,0
-12.69,6.51,-1.75,933,-249,8140,0,-1,-1
-12.69,6.52,-1.75,930,-242,8140,-1,-1,-1
-12.69,6.52,-1.75,922,-252,8137,-1,-1,-1
-12.68,6.52,-1.75,930,-255,8139,0,-1,0
-12.69,6.52,-1.75,930,-252,8141,0,-1,-1
-12.69,6.53,-1.75,931,-248,8138,-1,-1,0
-12.69,6.54,-1.75,940,-247,8135,-1,-1,-1
-12.69,6.54,-1.75,943,-244,8141,-1,0,-1
-12.68,6.54,-1.76,942,-251,8147,-1,-1,-1
-12.69,6.54,-1.76,941,-249,8147,-1,-1,0
-12.69,6.54,-1.76,943,-249,8141,-1,-1,0
-12.69,6.54,-1.76,940,-250,8137,-1,-1,0
-12.69,6.55,-1.77,938,-256,8144,-1,-1,-1
-12.69,6.55,-1.77,936,-255,8146,0,-1,-1
-12.69,6.56,-1.77,945,-250,8144,0,-1,-1
-12.69,6.56,-1.76,943,-251,8145,0,0,0
-12.69,6.56,-1.77,938,-249,8138,0,-1,0
-12.69,6.56,-1.76,938,-242,8143,0,-1,0
-12.69,6.56,-1.76,941,-246,8148,-1,-1,0
-12.69,6.56,-1.76,950,-247,8149,-1,-1,0
-12.70,6.56,-1.76,940,-249,8135,-1,0,0
-12.69,6.56,-1.76,931,-253,8133,0,0,-1
-12.70,6.56,-1.76,939,-252,8139,-1,-1,0
-12.70,6.56,-1.77,941,-259,8143,-1,-1,0
-12.70,6.57,-1.77,947,-265,8131,0,-1,0
-12.70,6.58,-1.77,949,-269,8121,0,0,-1
-12.70,6.57,-1.76,944,-250,8126,0,0,-1
-12.70,6.57,-1.75,953,-241,8142,0,0,-1
-12.69,6.57,-1.75,954,-242,8147,-1,0,-1
-12.69,6.57,-1.76,945,-247,8148,-1,0,-1
-12.69,6.56,-1.76,931,-253,8146,-1,0,-1
-12.69,6.56,-1.76,931,-253,8141,0,0,-1
-12.69,6.56,-1.76,940,-257,8136,0,-1,-1
-12.69,6.56,-1.76,937,-253,8139,0,0,-1
-12.69,6.56,-1.76,937,-250,8132,-1,0,-1
-12.68,6.56,-1.76,944,-245,8139,-1,0,-1
-12.68,6.56,-1.76,945,-248,8141,-1,0,-1
-12.68,6.56,-1.76,942,-248,8141,-1,0,-1
-12.68,6.56,-1.76,945,-259,8136,-1,-1,-1
-12.68,6.56,-1.77,951,-268,8133,-1,0,-1
-12.68,6.56,-1.77,953,-263,8137,-1,0,-1
-12.67,6.56,-1.77,949,-264,8136,0,0,-1
-12.67,6.56,-1.77,949,-262,8138,0,0,-1
-12.67,6.56,-1.76,953,-248,8136,-1,0,-1
-12.67,6.56,-1.76,945,-245,8132,-1,0,-1
-12.67,6.55,-1.77,940,-251,8134,-1,0,-1
-12.66,6.55,-1.77,933,-260,8140,-1,0,-1
-12.66,6.55,-1.77,934,-255,8135,0,0,-1
-12.66,6.54,-1.77,936,-252,8136,0,0,-1
-12.66,6.54,-1.77,940,-257,8137,-1,0,-1
-12.66,6.54,-1.77,940,-254,8142,-1,0,-1
-12.66,6.53,-1.77,935,-253,8142,-1,0,-1
-12.66,6.53,-1.78,933,-263,8140,-1,0,-1
-12.66,6.53,-1.77,933,-262,8133,0,0,-1
-12.66,6.53,-1.77,939,-262,8132,0,0,-1
-12.66,6.53,-1.77,943,-258,8130,-1,0,-1
-12.66,6.52,-1.77,947,-259,8126,-1,0,-1
-12.65,6.52,-1.77,947,-259,8122,-1,0,-1
-12.65,6.51,-1.78,940,-257,8137,-1,0,-1
-12.65,6.51,-1.78,931,-256,8147,-1,0,-1
-12.65,6.51,-1.78,926,-251,8146,-1,0,-1
-12.65,6.50,-1.78,930,-247,8146,-1,0,0
-12.64,6.50,-1.78,932,-248,8141,-1,0,-1
-12.64,6.49,-1.78,933,-252,8151,-1,0,-1
-12.64,6.49,-1.78,934,-248,8137,-1,0,-1
-12.64,6.49,-1.78,935,-256,8143,-1,0,-1
-12.64,6.48,-1.78,933,-255,8146,0,0,0
-12.64,6.48,-1.78,932,-251,8149,0,0,-1
-12.64,6.48,-1.78,929,-254,8147,0,0,-1
-12.64,6.48,-1.78,931,-254,8141,0,0,-1
-12.64,6.47,-1.78,929,-254,8137,0,0,0
-12.64,6.46,-1.78,925,-250,8133,0,0,-1
-12.63,6.46,-1.77,923,-246,8126,-1,0,-1
-12.63,6.46,-1.77,925,-247,8135,-1,0,-1
-12.63,6.46,-1.77,933,-247,8138,-1,0,-1
-12.63,6.45,-1.78,923,-249,8140,-1,0,-1
-12.63,6.45,-1.79,917,-261,8134,-1,0,-1
-12.63,6.44,-1.78,918,-262,8131,0,0,-1
-12.63,6.44,-1.78,922,-269,8138,0,0,-1
-12.63,6.44,-1.78,932,-267,8132,0,0,-1
-12.63,6.43,-1.78,938,-264,8137,0,0,-1
-12.63,6.43,-1.78,931,-253,8136,0,0,-1
-12.63,6.43,-1.78,927,-249,8143,-1,0,-1
-12.63,6.42,-1.78,918,-248,8144,-1,0,-1
-12.63,6.41,-1.79,915,-249,8136,-1,0,0
-12.63,6.41,-1.80,918,-265,8134,-1,0,-1
-12.63,6.41,-1.79,922,-272,8122,0,0,-1
-12.63,6.41,-1.79,918,-262,8132,0,0,-1
-12.62,6.40,-1.79,929,-250,8142,0,0,-1
-12.62,6.39,-1.78,929,-247,8147,-1,0,0
-12.62,6.39,-1.79,923,-241,8141,-1,0,-1
-12.62,6.39,-1.78,916,-241,8141,-1,0,0
-12.62,6.39,-1.78,913,-244,8134,-1,0,0
-12.62,6.38,-1.79,922,-254,8138,-1,0,-1
-12.62,6.38,-1.79,922,-251,8132,-1,0,0
-12.62,6.37,-1.80,926,-262,8133,-1,0,-1
-12.62,6.37,-1.80,934,-258,8131,-1,0,0
-12.62,6.36,-1.80,925,-257,8125,-1,0,-1
-12.62,6.36,-1.80,928,-254,8132,-1,0,-1
-12.62,6.36,-1.80,923,-249,8132,-1,0,-1
-12.62,6.35,-1.80,914,-255,8137,-1,0,-1
-12.62,6.35,-1.80,912,-262,8147,0,0,-1
-12.61,6.34,-1.80,915,-270,8150,0,0,-1
-12.61,6.34,-1.80,917,-263,8144,0,0,-1
-12.61,6.34,-1.79,910,-256,8138,0,0,-1
-12.61,6.33,-1.79,911,-245,8129,0,0,0
-12.61,6.32,-1.79,906,-249,8140,-1,0,-1
-12.61,6.31,-1.80,901,-256,8145,-1,0,-1
-12.61,6.31,-1.80,902,-260,8141,-1,0,-1
-12.61,6.31,-1.80,906,-262,8137,-1,0,-1
-12.61,6.31,-1.80,906,-257,8132,0,0,-1
-12.60,6.30,-1.80,907,-258,8142,-1,0,-1
-12.60,6.30,-1.80,906,-258,8130,-1,0,-1
-12.60,6.29,-1.80,902,-259,8123,-1,0,-1
-12.59,6.28,-1.81,898,-265,8136,-1,0,-1
-12.59,6.28,-1.81,892,-264,8144,0,0,-1
-12.59,6.29,-1.80,891,-264,8149,0,0,-1
-12.59,6.29,-1.80,897,-259,8146,0,0,-1
-12.59,6.28,-1.79,906,-252,8146,-1,0,0
-12.59,6.29,-1.79,898,-259,8136,0,0,-1
-12.59,6.29,-1.79,895,-257,8138,0,-1,-1
-12.59,6.29,-1.79,896,-258,8150,0,-1,-1
-12.59,6.29,-1.79,893,-255,8141,0,-1,-1
-12.59,6.29,-1.79,893,-253,8144,0,-1,-1
-12.59,6.29,-1.79,898,-254,8145,0,-1,0
-12.59,6.30,-1.79,899,-257,8135,-1,-1,-1
-12.59,6.30,-1.79,912,-267,8139,-1,-1,-1
-12.59,6.31,-1.79,914,-268,8140,0,-1,-1
-12.59,6.31,-1.79,918,-256,8140,0,-1,-1
-12.59,6.32,-1.78,913,-252,8143,0,-1,0
-12.59,6.32,-1.78,914,-252,8136,-1,-1,0
-12.59,6.32,-1.79,904,-249,8134,-1,0,0
-12.59,6.32,-1.80,892,-253,8140,-1,-1,0
-12.59,6.32,-1.80,899,-264,8144,-1,-1,0
-12.59,6.33,-1.80,901,-262,8145,0,-1,-1
-12.60,6.34,-1.79,914,-265,8144,0,-1,-1
-12.60,6.34,-1.79,920,-254,8135,0,-1,-1
-12.60,6.34,-1.78,922,-251,8135,0,0,0
-12.60,6.34,-1.78,911,-250,8143,0,-1,-1
-12.59,6.35,-1.78,909,-249,8151,-1,-1,-1
-12.59,6.35,-1.78,907,-259,8155,0,-1,-1
-12.59,6.36,-1.79,907,-264,8143,0,-1,-1
-12.59,6.36,-1.78,904,-265,8146,0,-1,-1
-12.59,6.37,-1.78,909,-265,8145,0,-1,-1
-12.59,6.37,-1.78,913,-260,8144,0,-1,-1
-12.59,6.37,-1.77,925,-250,8150,0,0,0
-12.59,6.37,-1.77,907,-245,8147,-1,0,0
-12.59,6.37,-1.78,902,-246,8148,-1,-1,-1
-12.59,6.37,-1.78,908,-257,8150,0,-1,-1
-12.59,6.38,-1.78,911,-255,8149,-1,-1,0
-12.59,6.38,-1.79,915,-260,8138,-1,-1,0
-12.59,6.39,-1.79,916,-266,8134,-1,-1,-1
-12.59,6.39,-1.79,915,-267,8139,0,-1,-1
-12.59,6.39,-1.79,915,-266,8145,0,-1,-1
-12.59,6.40,-1.79,915,-255,8142,0,-1,-1
-12.59,6.40,-1.79,907,-257,8143,0,-1,-1
-12.59,6.41,-1.79,912,-260,8144,0,-1,-1
-12.59,6.41,-1.79,913,-264,8148,0,-1,0
-12.59,6.41,-1.79,921,-260,8141,0,-1,-1
-12.59,6.41,-1.78,923,-253,8140,0,-1,-1
-12.59,6.42,-1.77,919,-245,8131,0,-1,-1
-12.58,6.42,-1.77,922,-243,8132,0,-1,-1
-12.59,6.42,-1.77,924,-248,8140,-1,-1,0
-12.59,6.43,-1.77,921,-243,8137,-1,-1,0
-12.59,6.44,-1.77,921,-250,8137,-1,-1,-1
-12.59,6.44,-1.77,924,-253,8141,0,-1,-1
-12.59,6.44,-1.77,930,-256,8141,0,-1,-1
-12.59,6.45,-1.77,925,-257,8142,0,-1,-1
-12.59,6.45,-1.77,930,-253,8146,-1,-1,0
-12.59,6.46,-1.77,936,-251,8137,-1,-1,-1
-12.59,6.46,-1.77,935,-250,8146,0,-1,-1
-12.59,6.47,-1.76,932,-244,8145,0,-1,-1
-12.59,6.47,-1.76,933,-240,8137,0,-1,0
-12.59,6.47,-1.76,930,-249,8138,0,-1,-1
-12.59,6.48,-1.76,930,-261,8145,0,-1,-1
-12.59,6.48,-1.75,925,-248,8139,0,-1,-1
-12.59,6.48,-1.74,925,-230,8148,0,-1,-1
-12.59,6.49,-1.74,935,-229,8144,-1,-1,0
-12.59,6.50,-1.75,940,-266,8138,-1,-1,0
-12.59,6.50,-1.75,932,-263,8122,0,-1,0
-12.59,6.50,-1.74,930,-249,8134,0,-1,-1
-12.59,6.51,-1.74,938,-246,8132,0,-1,-1
-12.59,6.51,-1.73,940,-239,8132,0,0,0
-12.59,6.51,-1.73,931,-234,8131,-1,0,-1
-12.60,6.51,-1.73,923,-234,8129,-1,-1,0
-12.60,6.52,-1.74,919,-249,8134,-1,-1,0
-12.60,6.52,-1.75,933,-265,8140,0,-1,-1
-12.60,6.53,-1.74,943,-260,8134,0,-1,-1
-12.60,6.53,-1.74,942,-245,8132,0,0,-1
-12.60,6.53,-1.74,949,-240,8134,-1,0,-1
-12.60,6.53,-1.74,946,-242,8134,-1,0,-1
-12.60,6.53,-1.74,935,-242,8139,-1,0,-1
-12.59,6.53,-1.74,931,-245,8154,-1,-1,-1
-12.59,6.53,-1.74,932,-254,8149,0,-1,-1
-12.59,6.54,-1.74,931,-253,8141,0,-1,-1
-12.59,6.54,-1.74,939,-249,8130,0,-1,-1
-12.59,6.55,-1.74,944,-246,8126,0,-1,0
-12.59,6.55,-1.74,944,-237,8140,-1,-1,0
-12.59,6.55,-1.74,942,-241,8139,-1,0,-1
-12.59,6.55,-1.74,938,-246,8138,-1,0,0
-12.60,6.55,-1.75,943,-248,8143,-1,-1,0
-12.60,6.55,-1.75,939,-250,8140,-1,-1,-1
-12.60,6.55,-1.75,942,-249,8137,-1,-1,0
-12.60,6.56,-1.75,945,-258,8133,0,0,-1
-12.60,6.56,-1.75,943,-254,8139,-1,0,0
-12.60,6.56,-1.75,947,-251,8141,0,0,0
-12.60,6.56,-1.75,953,-245,8142,-1,0,0
-12.60,6.56,-1.75,940,-252,8149,-1,0,-1
-12.60,6.56,-1.75,940,-259,8140,0,0,-1
-12.60,6.55,-1.75,937,-249,8138,0,0,0
-12.60,6.56,-1.75,941,-243,8133,0,-1,0
-12.60,6.56,-1.75,950,-239,8125,0,0,-1
-12.60,6.56,-1.74,945,-246,8138,-1,-1,0
-12.60,6.57,-1.74,953,-243,8142,-1,0,-1
-12.60,6.57,-1.74,950,-251,8151,-1,0,0
-12.60,6.57,-1.75,946,-251,8136,-1,0,0
-12.60,6.57,-1.75,944,-257,8138,-1,0,-1
-12.60,6.57,-1.75,940,-255,8132,0,-1,-1
-12.60,6.57,-1.75,945,-246,8129,-1,0,-1
-12.60,6.57,-1.75,947,-247,8126,-1,0,0
-12.60,6.57,-1.75,950,-247,8130,-1,0,-1
-12.60,6.57,-1.75,944,-252,8135,0,0,-1
-12.60,6.57,-1.75,940,-248,8143,0,-1,0
-12.60,6.57,-1.75,939,-254,8146,-1,0,0
-12.60,6.57,-1.75,940,-254,8138,0,0,-1
-12.60,6.57,-1.75,948,-251,8142,0,0,0
-12.60,6.57,-1.75,943,-242,8143,-1,0,-1
-12.60,6.57,-1.75,944,-243,8134,-1,-1,0
-12.60,6.57,-1.76,944,-255,8137,-1,-1,0
-12.60,6.57,-1.76,943,-259,8140,0,0,-1
-12.60,6.57,-1.75,947,-255,8137,0,0,-1
-12.60,6.57,-1.75,938,-245,8141,0,0,-1
-12.60,6.57,-1.75,941,-239,8137,-1,-1,-1
-12.60,6.57,-1.75,947,-243,8136,-1,0,0
-12.60,6.57,-1.76,936,-245,8147,-1,0,-1
-12.60,6.57,-1.76,932,-253,8143,-1,0,-1
-12.60,6.57,-1.75,933,-258,8144,-1,-1,-1
-12.60,6.57,-1.76,945,-270,8133,0,-1,-1
-12.60,6.57,-1.76,949,-261,8132,0,0,-1
-12.60,6.57,-1.75,954,-247,8134,0,0,-1
-12.60,6.57,-1.75,953,-236,8127,-1,0,-1
-12.59,6.56,-1.75,944,-234,8134,-1,0,-1
-12.59,6.56,-1.75,938,-248,8131,-1,0,0
-12.60,6.56,-1.76,919,-261,8147,-1,-1,0
-12.60,6.58,-1.76,939,-275,8135,0,-1,-1
-12.60,6.59,-1.76,950,-259,8139,0,0,-1
-12.60,6.58,-1.76,956,-250,8129,0,0,-1
-12.59,6.57,-1.75,956,-249,8123,0,0,-1
-12.59,6.57,-1.75,948,-237,8134,0,0,-1
-12.59,6.56,-1.75,952,-244,8137,-1,0,-1
-12.59,6.56,-1.75,946,-249,8126,-1,0,-1
-12.59,6.55,-1.75,938,-244,8133,-1,0,-1
-12.59,6.55,-1.75,941,-248,8141,-1,0,-1
-12.59,6.55,-1.76,937,-255,8149,-1,0,-1
-12.59,6.54,-1.76,939,-257,8139,-1,0,-1
-12.59,6.54,-1.76,944,-255,8140,0,0,-1
-12.59,6.54,-1.76,947,-241,8147,0,0,-1
-12.59,6.53,-1.75,942,-226,8143,-1,0,-1
-12.59,6.52,-1.76,937,-242,8142,-1,0,0
-12.59,6.52,-1.76,937,-250,8144,-1,0,0
-12.59,6.51,-1.77,933,-259,8158,0,0,-1
-12.59,6.52,-1.76,935,-259,8153,0,0,-1
-12.58,6.51,-1.75,930,-243,8143,0,0,-1
-12.58,6.51,-1.75,933,-236,8141,0,0,-1
-12.58,6.50,-1.75,940,-237,8144,-1,0,-1
-12.58,6.50,-1.75,942,-249,8145,-1,0,-1
-12.58,6.50,-1.76,939,-257,8143,-1,0,-1
-12.58,6.50,-1.76,932,-261,8149,0,0,-1
-12.58,6.49,-1.76,929,-259,8146,0,0,-1
-12.58,6.49,-1.76,937,-257,8139,-1,0,-1
-12.58,6.49,-1.76,938,-250,8134,-1,0,-1
-12.58,6.48,-1.76,939,-244,8133,-1,0,-1
-12.58,6.48,-1.76,933,-248,8129,-1,0,-1
-12.58,6.47,-1.76,934,-250,8130,0,0,-1
-12.57,6.47,-1.76,937,-253,8139,0,0,-1
-12.57,6.47,-1.76,935,-251,8136,0,0,-1
-12.57,6.47,-1.76,937,-256,8138,0,0,-1
-12.57,6.47,-1.76,937,-258,8139,0,0,-1
-12.57,6.46,-1.76,939,-257,8136,0,0,-1
-12.57,6.46,-1.77,931,-253,8141,-1,0,0
-12.57,6.45,-1.77,927,-253,8141,-1,0,-1
-12.57,6.44,-1.77,920,-259,8155,0,0,-1
-12.57,6.44,-1.77,921,-261,8147,0,0,-1
-12.57,6.45,-1.76,927,-243,8136,0,0,-1
-12.57,6.44,-1.76,933,-233,8132,-1,0,-1
-12.57,6.44,-1.76,925,-231,8130,-1,0,-1
-12.57,6.42,-1.76,920,-237,8141,-1,0,-1
-12.57,6.42,-1.77,921,-241,8149,-1,0,-1
-12.57,6.42,-1.76,921,-243,8155,-1,0,-1
-12.57,6.41,-1.77,915,-262,8136,-1,0,0
-12.57,6.42,-1.78,930,-268,8127,0,0,-1
-12.57,6.42,-1.77,940,-258,8120,0,0,-1
-12.56,6.41,-1.77,936,-249,8129,0,0,-1
-12.56,6.41,-1.77,939,-248,8134,-1,0,-1
-12.56,6.40,-1.78,933,-249,8141,-1,0,-1
-12.56,6.40,-1.78,919,-251,8149,-1,0,-1
-12.56,6.39,-1.78,910,-265,8138,-1,0,-1
-12.56,6.39,-1.78,913,-264,8132,0,0,-1
-12.56,6.39,-1.78,914,-259,8140,0,0,-1
-12.55,6.39,-1.77,924,-257,8134,0,0,-1
-12.55,6.39,-1.77,925,-249,8136,0,0,-1
-12.55,6.39,-1.77,930,-246,8136,0,0,-1
-12.55,6.39,-1.77,930,-239,8137,-1,0,-1
-12.55,6.38,-1.77,920,-238,8130,-1,0,-1
-12.55,6.38,-1.77,920,-247,8130,-1,0,-1
-12.55,6.38,-1.77,921,-255,8139,-1,-1,0
-12.55,6.38,-1.78,928,-259,8130,-1,0,-1
-12.55,6.38,-1.77,928,-254,8132,0,0,-1
-12.55,6.38,-1.78,926,-256,8135,0,0,-1
-12.55,6.38,-1.78,920,-250,8133,0,0,-1
-12.55,6.37,-1.78,914,-250,8135,-1,0,-1
-12.55,6.37,-1.78,913,-257,8137,-1,-1,-1
-12.55,6.37,-1.78,908,-259,8139,0,0,-1
-12.55,6.37,-1.78,906,-262,8151,0,-1,-1
-12.55,6.37,-1.77,914,-255,8149,0,-1,-1
-12.55,6.38,-1.77,921,-243,8145,0,-1,-1
-12.55,6.38,-1.77,920,-241,8146,0,-1,-1
-12.55,6.39,-1.77,926,-242,8137,-1,0,-1
-12.55,6.39,-1.77,921,-245,8137,-1,-1,-1
-12.55,6.39,-1.77,920,-251,8132,-1,-1,0
-12.55,6.40,-1.77,927,-250,8138,-1,-1,0
-12.55,6.40,-1.77,933,-251,8140,0,-1,-1
-12.55,6.40,-1.77,934,-250,8142,0,0,-1
-12.54,6.40,-1.77,922,-252,8144,-1,0,-1
-12.54,6.40,-1.77,919,-252,8144,-1,0,-1
-12.54,6.40,-1.78,918,-260,8152,-1,-1,-1
-12.54,6.41,-1.78,923,-261,8155,0,-1,-1
-12.54,6.41,-1.77,923,-252,8157,0,-1,-1
-12.54,6.41,-1.77,926,-245,8148,0,-1,-1
-12.54,6.42,-1.77,924,-247,8145,0,-1,0
-12.55,6.42,-1.76,924,-241,8146,0,-1,0
-12.55,6.42,-1.76,925,-246,8140,0,-1,0
-12.55,6.42,-1.76,930,-254,8147,0,-1,0
-12.55,6.42,-1.76,927,-257,8152,-1,-1,-1
-12.55,6.42,-1.77,917,-260,8147,0,-1,0
-12.55,6.43,-1.76,916,-256,8149,0,-1,-1
-12.55,6.43,-1.76,921,-242,8139,0,-1,-1
-12.55,6.44,-1.76,935,-232,8143,-1,-1,0
-12.55,6.44,-1.76,932,-240,8135,-1,-1,0
-12.55,6.44,-1.77,924,-243,8138,-1,0,0
-12.55,6.44,-1.77,919,-251,8146,-1,-1,0
-12.56,6.44,-1.77,924,-258,8161,-1,-1,0
-12.56,6.45,-1.77,936,-256,8152,0,-1,0
-12.56,6.46,-1.77,942,-254,8142,0,-1,0
-12.56,6.47,-1.76,944,-255,8137,0,-1,0
-12.56,6.47,-1.76,944,-245,8139,0,-1,0
-12.56,6.47,-1.76,944,-250,8145,-1,-1,-1
-12.56,6.47,-1.76,939,-250,8158,-1,0,0
-12.56,6.47,-1.76,932,-251,8161,0,-1,-1
-12.56,6.47,-1.76,929,-258,8149,0,-1,-1
-12.56,6.48,-1.76,933,-264,8148,0,-1,-1
-12.56,6.49,-1.76,938,-256,8142,0,-1,-1
-12.56,6.49,-1.76,944,-248,8132,0,-1,-1
-12.56,6.49,-1.76,938,-248,8135,0,-1,-1
-12.56,6.49,-1.76,937,-246,8135,0,0,-1
-12.56,6.49,-1.75,933,-239,8141,-1,-1,-1
-12.56,6.49,-1.76,938,-244,8144,-1,-1,-1
-12.56,6.49,-1.76,938,-256,8141,-1,-1,0
-12.56,6.50,-1.77,940,-254,8134,-1,-1,0
-12.56,6.50,-1.77,942,-258,8134,-1,-1,0
-12.56,6.51,-1.77,944,-256,8130,-1,0,0
-12.56,6.51,-1.77,950,-255,8130,0,0,-1
-12.56,6.51,-1.77,952,-252,8136,0,0,-1
-12.56,6.51,-1.77,943,-248,8136,-1,0,0
-12.56,6.51,-1.77,937,-250,8135,0,-1,-1
-12.56,6.51,-1.77,935,-256,8140,0,-1,-1
-12.56,6.51,-1.76,941,-245,8145,0,0,-1
-12.56,6.51,-1.75,939,-241,8142,0,0,-1
-12.56,6.51,-1.75,938,-245,8134,0,0,0
-12.56,6.51,-1.75,934,-242,8141,-1,0,0
-12.56,6.51,-1.76,930,-252,8143,-1,-1,0
-12.56,6.52,-1.76,941,-250,8140,0,0,-1
-12.56,6.51,-1.76,930,-240,8140,-1,0,-1
-12.56,6.51,-1.76,927,-247,8133,-1,0,0
-12.57,6.51,-1.76,931,-243,8134,-1,0,0
-12.57,6.51,-1.76,935,-244,8133,-1,0,0
-12.57,6.51,-1.76,945,-247,8138,-1,0,0
-12.57,6.51,-1.77,940,-252,8137,-1,0,-1
-12.57,6.50,-1.77,932,-258,8139,-1,0,0
-12.57,6.50,-1.77,938,-262,8143,0,-1,0
-12.57,6.51,-1.77,946,-253,8137,0,0,-1
-12.57,6.51,-1.77,940,-256,8137,0,0,0
-12.57,6.50,-1.77,942,-247,8141,-1,0,-1
-12.57,6.50,-1.77,945,-261,8147,0,0,-1
-12.58,6.50,-1.77,933,-259,8137,0,-1,0
-12.58,6.50,-1.77,938,-249,8136,0,-1,-1
-12.58,6.51,-1.77,943,-246,8135,-1,-1,0
-12.58,6.51,-1.77,942,-246,8126,-1,-1,0
-12.58,6.51,-1.78,936,-247,8126,-1,0,0
-12.58,6.51,-1.78,930,-250,8128,-1,-1,0
-12.58,6.51,-1.78,934,-257,8145,-1,-1,0
-12.58,6.51,-1.78,939,-261,8137,0,0,-1
-12.58,6.51,-1.78,937,-258,8130,0,0,0
-12.59,6.51,-1.78,943,-257,8136,0,-1,-1
-12.59,6.51,-1.78,945,-256,8139,0,0,-1
-12.59,6.51,-1.78,945,-245,8137,-1,0,0
-12.59,6.51,-1.78,936,-253,8135,-1,0,0
-12.59,6.51,-1.78,939,-255,8143,0,0,0
-12.59,6.51,-1.78,928,-256,8155,0,0,-1
-12.59,6.51,-1.78,937,-254,8145,0,-1,-1
-12.59,6.51,-1.77,933,-244,8139,0,-1,-1
-12.59,6.51,-1.77,935,-245,8144,0,-1,-1
-12.59,6.51,-1.77,934,-242,8134,-1,-1,0
-12.59,6.52,-1.77,937,-246,8135,-1,-1,0
-12.59,6.52,-1.77,942,-254,8134,-1,-1,-1
-12.59,6.52,-1.78,941,-263,8132,-1,-1,-1
-12.59,6.52,-1.77,943,-261,8130,-1,-1,0
-12.59,6.53,-1.78,938,-257,8127,-1,-1,0
-12.59,6.53,-1.78,940,-251,8137,-1,-1,-1
-12.60,6.53,-1.78,945,-257,8132,-1,0,0
-12.60,6.53,-1.78,942,-254,8136,0,0,-1
-12.59,6.53,-1.78,950,-249,8139,-1,0,-1
-12.59,6.53,-1.78,950,-247,8142,0,0,-1
-12.59,6.53,-1.78,947,-245,8146,-1,0,-1
-12.59,6.53,-1.78,944,-249,8140,-1,0,-1
-12.59,6.53,-1.78,942,-250,8134,-1,-1,-1
-12.59,6.53,-1.78,942,-246,8141,0,-1,0
-12.60,6.54,-1.77,941,-245,8144,0,0,0
-12.60,6.54,-1.77,945,-246,8154,-1,0,0
-12.60,6.54,-1.77,935,-248,8148,-1,-1,0
-12.60,6.53,-1.78,933,-255,8148,0,-1,0
-12.60,6.54,-1.77,936,-257,8142,0,0,-1
-12.60,6.54,-1.77,942,-253,8139,-1,-1,0
-12.61,6.54,-1.77,952,-249,8142,-1,0,0
-12.61,6.54,-1.78,944,-245,8139,-1,0,0
-12.61,6.54,-1.78,947,-258,8139,-1,0,0
-12.61,6.54,-1.79,954,-258,8151,-1,0,-1
-12.61,6.53,-1.78,946,-246,8149,0,0,-1
-12.61,6.53,-1.78,944,-251,8145,-1,0,-1
-12.61,6.53,-1.79,949,-259,8136,-1,0,-1
-12.60,6.53,-1.79,942,-256,8132,-1,0,-1
-12.60,6.53,-1.79,948,-254,8142,-1,0,-1
-12.60,6.52,-1.79,950,-263,8137,-1,0,-1
-12.60,6.52,-1.79,947,-262,8134,0,0,0
-12.60,6.51,-1.79,942,-256,8140,0,0,-1
-12.60,6.51,-1.78,928,-254,8145,0,-1,-1
-12.60,6.51,-1.78,945,-248,8128,-1,0,-1
-12.60,6.51,-1.78,944,-247,8126,-1,0,-1
-12.59,6.51,-1.78,939,-241,8133,-1,0,-1
-12.59,6.51,-1.79,935,-257,8137,-1,0,-1
-12.60,6.50,-1.80,928,-260,8137,0,0,0
-12.60,6.50,-1.80,934,-268,8134,0,0,0
-12.60,6.50,-1.80,937,-263,8142,0,-1,0
-12.60,6.50,-1.79,944,-260,8137,0,0,-1
-12.60,6.50,-1.79,945,-258,8134,0,0,-1
