Yaw,Pitch,Roll,AX,AY,AZ,GX,GY,GZ
-20.46,1.89,14.42,274,2029,7894,-1,0,0
-20.46,1.89,14.42,268,2020,7902,0,-1,0
-20.46,1.89,14.42,259,2023,7905,0,-1,0
-20.46,1.89,14.43,270,2029,7902,0,-1,0
-20.46,1.90,14.43,283,2044,7894,0,-1,0
-20.46,1.90,14.43,282,2050,7893,-1,-1,0
-20.46,1.91,14.43,278,2030,7896,-1,0,0
-20.46,1.91,14.42,272,2022,7903,0,-1,0
-20.46,1.92,14.42,271,2016,7900,0,-1,-1
-20.47,1.92,14.43,274,2031,7898,0,-1,0
-20.47,1.92,14.43,272,2036,7889,-1,-1,0
-20.47,1.92,14.43,278,2035,7894,-1,-1,0
-20.48,1.93,14.42,279,2030,7887,-1,-1,0
-20.48,1.93,14.42,277,2015,7882,-1,-1,0
-20.48,1.93,14.42,281,2020,7890,0,-1,0
-20.48,1.93,14.42,278,2038,7903,0,-1,0
-20.48,1.93,14.42,275,2045,7904,-1,-1,0
-20.48,1.94,14.42,276,2039,7898,0,-1,-1
-20.48,1.94,14.43,277,2042,7890,-1,-1,0
-20.48,1.94,14.43,279,2042,7886,-1,0,0
-20.49,1.95,14.42,275,2032,7886,-1,-1,0
-20.49,1.95,14.42,276,2026,7882,0,0,0
-20.49,1.95,14.43,273,2031,7886,0,-1,0
-20.49,1.95,14.43,281,2041,7887,-1,-1,0
-20.49,1.95,14.43,288,2033,7884,-1,-1,0
-20.50,1.96,14.42,284,2026,7880,-1,-1,0
-20.50,1.96,14.42,282,2018,7888,-1,-1,-1
-20.50,1.96,14.42,277,2015,7894,0,-1,0
-20.50,1.97,14.42,273,2018,7898,0,-1,0
-20.50,1.98,14.43,283,2019,7897,0,-1,0
-20.51,1.98,14.43,289,2031,7894,0,-1,0
-20.51,1.99,14.43,289,2043,7892,-1,-1,0
-20.52,1.99,14.43,295,2030,7887,-1,0,0
-20.52,1.98,14.43,282,2027,7890,-1,0,-1
-20.51,1.98,14.43,277,2032,7901,0,-1,-1
-20.51,1.99,14.43,269,2041,7908,-1,-1,0
-20.52,1.99,14.43,272,2038,7896,-1,-1,0
-20.52,2.00,14.42,286,2038,7886,0,-1,0
-20.52,2.00,14.43,291,2034,7890,0,-1,0
-20.52,2.01,14.43,296,2031,7890,-1,-1,0
-20.52,2.01,14.43,302,2030,7884,0,0,0
-20.52,2.00,14.43,300,2032,7890,-1,0,0
-20.52,2.00,14.43,291,2040,7894,0,0,-1
-20.52,1.99,14.43,283,2041,7900,0,0,-1
-20.52,1.99,14.43,283,2038,7901,-1,0,-1
-20.52,1.99,14.43,289,2035,7899,-1,0,-1
-20.52,1.99,14.43,295,2027,7884,0,0,-1
-20.52,1.99,14.43,297,2029,7885,0,0,-1
-20.52,1.99,14.43,300,2035,7892,-1,0,-1
-20.51,1.98,14.43,287,2039,7896,-1,0,-1
-20.51,1.98,14.43,286,2036,7900,0,0,-1
-20.51,1.98,14.43,287,2028,7897,0,0,-1
-20.50,1.98,14.43,286,2029,7893,0,-1,-1
-20.50,1.98,14.44,286,2037,7877,0,0,-1
-20.50,1.98,14.44,291,2040,7884,0,0,-1
-20.50,1.98,14.44,288,2045,7886,0,0,-1
-20.49,1.97,14.45,292,2050,7889,0,0,-1
-20.49,1.97,14.45,293,2042,7899,-1,0,-1
-20.49,1.97,14.44,294,2025,7892,-1,0,-1
-20.48,1.96,14.44,279,2021,7893,0,0,-1
-20.48,1.96,14.44,280,2031,7885,0,0,-1
-20.48,1.96,14.45,281,2036,7885,-1,0,-1
-20.48,1.96,14.45,283,2035,7881,-1,0,-1
-20.47,1.95,14.44,286,2035,7888,-1,0,-1
-20.47,1.95,14.44,281,2029,7903,-1,0,-1
-20.47,1.94,14.44,284,2025,7899,0,0,-1
-20.46,1.94,14.44,285,2036,7900,0,0,-1
-20.46,1.93,14.44,284,2034,7891,0,0,-1
-20.45,1.93,14.45,283,2037,7889,0,0,-1
-20.45,1.93,14.45,281,2045,7896,0,0,-1
-20.44,1.92,14.45,284,2045,7896,-1,0,-1
-20.44,1.92,14.45,284,2030,7897,0,0,-1
-20.44,1.92,14.45,280,2035,7890,0,0,-1
-20.44,1.92,14.46,285,2033,7885,0,0,-1
-20.43,1.91,14.46,286,2032,7882,0,0,-1
-20.43,1.91,14.46,284,2037,7886,-1,0,-1
-20.43,1.90,14.46,269,2040,7882,-1,0,-1
-20.43,1.90,14.46,268,2031,7891,-1,0,-1
-20.43,1.90,14.46,270,2025,7900,0,0,-1
-20.42,1.89,14.46,270,2029,7894,0,0,-1
-20.42,1.90,14.46,285,2039,7899,0,0,-1
-20.42,1.89,14.47,287,2038,7888,0,0,-1
-20.42,1.88,14.46,290,2029,7886,-1,0,-1
-20.41,1.88,14.46,282,2030,7893,0,0,-1
-20.41,1.87,14.46,279,2038,7904,-1,0,-1
-20.40,1.87,14.46,270,2038,7900,0,0,-1
-20.39,1.86,14.46,262,2041,7892,0,0,-1
-20.39,1.86,14.46,259,2036,7885,-1,0,-1
-20.39,1.86,14.46,264,2033,7885,-1,0,-1
-20.39,1.86,14.46,264,2034,7887,0,0,-1
-20.39,1.84,14.47,265,2040,7885,-1,0,-1
-20.39,1.84,14.46,271,2044,7891,-1,0,-1
-20.39,1.84,14.46,265,2042,7899,-1,0,-1
-20.38,1.83,14.46,257,2040,7903,-1,0,-1
-20.39,1.83,14.45,261,2029,7901,-1,0,-1
-20.38,1.82,14.45,263,2023,7898,-1,0,-1
-20.38,1.82,14.45,270,2025,7888,0,0,-1
-20.38,1.81,14.45,279,2031,7892,0,0,-1
-20.37,1.80,14.44,264,2029,7893,-1,0,-1
-20.37,1.80,14.45,267,2032,7904,-1,0,-1
-20.36,1.79,14.45,269,2032,7902,0,0,-1
-20.36,1.79,14.45,268,2029,7898,0,0,-1
-20.36,1.78,14.44,255,2033,7900,0,0,-1
-20.36,1.77,14.44,260,2030,7896,-1,0,-1
-20.36,1.77,14.44,256,2034,7903,0,0,-1
-20.35,1.77,14.45,253,2041,7903,0,0,-1
-20.35,1.77,14.45,255,2042,7900,-1,0,-1
-20.35,1.77,14.44,255,2035,7893,-1,0,-1
-20.35,1.76,14.45,252,2032,7900,0,0,0
-20.35,1.76,14.45,259,2027,7885,0,0,-1
-20.35,1.76,14.45,260,2024,7879,0,0,-1
-20.35,1.75,14.45,258,2041,7884,-1,0,-1
-20.35,1.75,14.45,264,2039,7886,-1,0,-1
-20.35,1.74,14.44,255,2035,7890,-1,0,-1
-20.34,1.74,14.44,254,2027,7894,-1,0,-1
-20.34,1.74,14.44,259,2030,7900,0,0,-1
-20.34,1.73,14.43,254,2024,7903,0,0,-1
-20.34,1.74,14.44,259,2027,7908,0,0,-1
-20.34,1.74,14.45,256,2035,7911,0,0,-1
-20.34,1.74,14.45,252,2036,7906,0,0,-1
-20.34,1.74,14.45,257,2033,7891,0,0,-1
-20.34,1.74,14.45,255,2038,7889,0,0,-1
-20.33,1.73,14.46,244,2046,7893,0,0,-1
-20.34,1.73,14.45,252,2034,7895,-1,-1,0
-20.34,1.74,14.45,251,2021,7903,0,-1,0
-20.34,1.75,14.45,260,2017,7886,0,-1,0
-20.34,1.75,14.47,273,2036,7880,0,-1,-1
-20.34,1.75,14.47,268,2038,7878,-1,0,0
-20.34,1.75,14.47,264,2041,7879,-1,0,-1
-20.34,1.75,14.47,256,2030,7891,-1,0,-1
-20.34,1.75,14.47,252,2033,7898,0,-1,-1
-20.33,1.75,14.47,257,2031,7901,0,0,-1
-20.33,1.75,14.47,247,2037,7904,0,-1,-1
-20.34,1.75,14.48,250,2038,7894,0,-1,0
-20.34,1.75,14.48,251,2040,7894,-1,-1,0
-20.34,1.76,14.47,262,2047,7894,-1,0,0
-20.34,1.76,14.47,264,2045,7902,-1,0,-1
-20.34,1.76,14.47,256,2051,7902,0,0,0
-20.35,1.76,14.47,248,2045,7902,-1,-1,0
-20.35,1.76,14.47,249,2040,7895,-1,-1,0
-20.35,1.77,14.46,259,2033,7899,-1,-1,0
-20.36,1.77,14.46,267,2031,7889,-1,-1,0
-20.36,1.78,14.46,267,2024,7890,0,0,0
-20.36,1.78,14.46,272,2024,7887,0,0,-1
-20.35,1.78,14.47,276,2033,7895,0,0,-1
-20.35,1.78,14.47,265,2042,7890,-1,0,-1
-20.36,1.78,14.46,259,2033,7895,-1,0,0
-20.35,1.78,14.46,254,2041,7900,0,-1,-1
-20.35,1.78,14.46,261,2040,7895,0,-1,-1
-20.35,1.78,14.47,268,2038,7893,0,0,0
-20.36,1.78,14.46,266,2043,7900,-1,0,0
-20.36,1.78,14.46,266,2042,7914,-1,-1,0
-20.36,1.79,14.45,265,2031,7903,-1,-1,0
-20.36,1.79,14.46,264,2036,7904,0,-1,-1
-20.37,1.80,14.46,263,2038,7896,-1,-1,0
-20.37,1.80,14.45,265,2036,7894,0,-1,0
-20.38,1.80,14.45,263,2026,7904,0,0,-1
-20.37,1.80,14.45,273,2025,7905,0,-1,-1
-20.37,1.80,14.46,271,2049,7906,0,-1,-1
-20.37,1.81,14.47,263,2050,7896,-1,0,0
-20.37,1.80,14.46,267,2045,7896,-1,0,0
-20.38,1.81,14.46,267,2040,7899,-1,0,-1
-20.38,1.81,14.46,268,2030,7891,0,0,-1
-20.38,1.81,14.46,277,2034,7899,0,0,-1
-20.38,1.81,14.46,274,2042,7894,0,0,0
-20.38,1.81,14.46,270,2040,7901,-1,0,0
-20.38,1.81,14.46,270,2021,7895,0,0,-1
-20.38,1.82,14.46,265,2030,7888,0,-1,0
-20.38,1.82,14.46,267,2032,7884,-1,-1,0
-20.38,1.83,14.45,270,2042,7895,-1,-1,0
-20.38,1.83,14.45,262,2040,7894,-1,0,-1
-20.38,1.83,14.45,263,2027,7888,-1,0,0
-20.38,1.83,14.45,266,2029,7896,0,-1,0
-20.39,1.83,14.45,271,2020,7899,0,-1,0
-20.39,1.83,14.45,271,2018,7886,0,-1,0
-20.39,1.83,14.45,271,2026,7884,0,-1,0
-20.39,1.84,14.46,275,2039,7882,0,0,-1
-20.38,1.84,14.47,281,2049,7882,-1,0,-1
-20.39,1.84,14.46,282,2042,7889,-1,0,-1
-20.39,1.84,14.46,274,2028,7893,-1,0,-1
-20.38,1.84,14.45,265,2027,7899,0,0,-1
-20.38,1.84,14.46,263,2029,7894,0,-1,0
-20.38,1.84,14.46,269,2037,7894,0,0,0
-20.39,1.84,14.46,275,2038,7893,-1,0,0
-20.39,1.85,14.46,277,2032,7888,-1,-1,0
-20.39,1.85,14.45,273,2031,7893,0,-1,-1
-20.39,1.85,14.46,266,2031,7887,0,-1,-1
-20.39,1.85,14.46,261,2038,7887,0,0,0
-20.39,1.85,14.46,264,2038,7887,-1,-1,0
-20.39,1.86,14.46,274,2026,7890,-1,-1,0
-20.40,1.86,14.45,269,2020,7890,0,-1,0
-20.40,1.86,14.45,271,2018,7890,0,0,-1
-20.40,1.86,14.46,272,2025,7888,0,0,-1
-20.39,1.86,14.46,270,2040,7892,-1,0,0
-20.39,1.86,14.45,265,2038,7899,-1,0,0
-20.39,1.86,14.45,273,2030,7892,0,-1,-1
-20.40,1.86,14.45,266,2029,7904,0,-1,0
-20.40,1.86,14.45,269,2029,7908,0,-1,0
-20.40,1.86,14.46,279,2038,7905,0,-1,0
-20.40,1.87,14.45,275,2036,7896,0,0,0
-20.40,1.86,14.45,273,2039,7897,-1,0,0
-20.40,1.87,14.45,272,2037,7897,-1,0,0
-20.40,1.87,14.45,276,2022,7887,-1,0,0
-20.40,1.87,14.45,270,2025,7890,0,-1,0
-20.41,1.87,14.45,273,2029,7893,0,-1,0
-20.41,1.88,14.45,272,2031,7886,0,-1,0
-20.41,1.88,14.46,274,2037,7889,0,-1,0
-20.41,1.88,14.45,270,2034,7889,-1,0,0
-20.41,1.88,14.45,267,2030,7889,-1,0,0
-20.41,1.88,14.44,277,2027,7899,-1,-1,0
-20.41,1.89,14.45,279,2028,7896,0,-1,0
-20.41,1.89,14.45,281,2038,7901,0,0,0
-20.41,1.89,14.46,287,2036,7899,-1,0,-1
-20.41,1.89,14.45,279,2037,7892,-1,0,0
-20.41,1.89,14.45,292,2039,7895,-1,0,0
-20.41,1.89,14.44,279,2030,7903,-1,-1,-1
-20.41,1.90,14.44,289,2016,7896,0,-1,-1
-20.41,1.90,14.44,281,2028,7898,0,-1,0
-20.41,1.91,14.45,294,2040,7892,-1,-1,0
-20.41,1.91,14.44,288,2034,7879,-1,0,-1
-20.41,1.91,14.43,293,2025,7892,-1,0,-1
-20.41,1.90,14.44,285,2031,7886,0,0,-1
-20.41,1.90,14.44,272,2039,7910,-1,0,-1
-20.41,1.89,14.44,257,2037,7911,0,0,-1
-20.41,1.89,14.44,265,2039,7902,0,-1,0
-20.41,1.90,14.43,286,2031,7894,-1,-1,0
-20.42,1.91,14.44,293,2036,7885,0,0,-1
-20.41,1.91,14.45,291,2049,7890,0,0,-1
-20.41,1.90,14.44,298,2039,7894,-1,0,-1
-20.41,1.90,14.44,285,2036,7895,-1,0,-1
-20.41,1.90,14.44,272,2025,7883,0,0,-1
-20.40,1.90,14.44,268,2027,7896,0,0,-1
-20.40,1.90,14.44,262,2034,7896,0,-1,-1
-20.40,1.90,14.45,272,2036,7894,-1,-1,0
-20.40,1.90,14.45,287,2036,7898,0,0,-1
-20.40,1.90,14.45,289,2040,7889,0,0,-1
-20.40,1.90,14.45,280,2030,7880,-1,0,-1
-20.39,1.90,14.45,278,2022,7882,0,0,-1
-20.39,1.89,14.45,275,2026,7895,0,-1,-1
-20.39,1.90,14.45,281,2032,7889,0,0,-1
-20.38,1.89,14.46,275,2043,7886,-1,0,-1
-20.38,1.89,14.45,280,2042,7887,-1,0,-1
-20.37,1.89,14.45,289,2046,7888,-1,0,-1
-20.37,1.88,14.46,276,2052,7887,-1,-1,-1
-20.36,1.89,14.45,304,2026,7904,-1,0,-1
-20.35,1.86,14.45,264,2031,7899,0,0,-1
-20.35,1.86,14.46,262,2033,7896,0,0,-1
-20.35,1.86,14.46,260,2015,7892,0,-1,-1
-20.34,1.86,14.47,282,2042,7893,0,0,-1
-20.32,1.85,14.49,264,2051,7888,0,-1,-1
-20.33,1.85,14.49,272,2051,7902,-1,0,0
-20.32,1.87,14.49,258,2032,7899,0,-2,0
-20.34,1.89,14.50,294,2053,7944,-1,-1,0
-20.37,1.91,14.48,289,2012,7917,-1,-1,0
-20.37,1.93,14.52,253,2077,7940,0,-2,0
-20.40,1.96,14.50,292,2016,7883,-1,-1,0
-20.41,1.98,14.51,292,2047,7880,0,-2,0
-20.41,1.97,14.51,272,2043,7867,-1,0,0
-20.43,1.98,14.51,295,2042,7835,0,-1,0
-20.44,1.99,14.48,312,1999,7902,-1,0,0
-20.43,1.96,14.49,287,2064,7898,0,0,-1
-20.43,1.97,14.49,278,2041,7875,-1,-1,-1
-20.42,1.97,14.50,303,2064,7905,0,0,-1
-20.42,1.96,14.48,234,2033,7888,-1,-2,0
-20.44,1.99,14.48,332,2016,7885,0,0,-1
-20.43,1.97,14.47,265,2043,7893,-1,0,-1
-20.44,2.00,14.47,301,2002,7882,0,-2,0
-20.44,1.98,14.48,307,2053,7951,0,0,-1
-20.45,1.99,14.47,278,2018,7871,-1,0,-1
-20.45,1.99,14.48,293,2052,7916,-1,-1,0
-20.45,1.98,14.46,289,1987,7860,1,0,-1
-20.44,1.99,14.48,267,2046,7827,0,-1,-1
-20.44,1.99,14.50,293,2040,7879,-1,-1,0
-20.43,1.98,14.49,268,2084,7910,-1,-1,-1
-20.44,2.00,14.49,310,2021,7849,1,0,-1
-20.44,2.00,14.50,296,2071,7875,-1,0,-1
-20.43,1.99,14.50,296,2034,7888,0,-1,-1
-20.43,2.01,14.49,328,2037,7858,-1,0,-1
-20.43,1.98,14.50,298,2049,7868,-1,0,0
-20.42,1.97,14.48,313,2018,7919,0,0,-1
-20.40,1.96,14.50,281,2055,7893,0,0,-1
-20.40,1.94,14.50,287,2081,7865,-1,0,-1
-20.39,1.92,14.47,272,2024,7853,-1,0,-1
-20.38,1.89,14.47,291,2022,7846,0,1,-1
-20.37,1.86,14.48,271,2046,7871,-1,1,-1
-20.36,1.84,14.47,248,2049,7897,-1,-1,-1
-20.36,1.85,14.46,284,2033,7893,-1,0,-1
-20.35,1.82,14.46,284,2068,7894,-1,0,-1
-20.34,1.80,14.45,272,2067,7899,-1,0,-1
-20.34,1.78,14.41,280,2027,7903,-1,1,-1
-20.32,1.75,14.40,254,2009,7915,-1,0,-1
-20.31,1.73,14.39,253,2006,7911,-1,0,-1
-20.30,1.71,14.39,262,2018,7904,-1,0,-1
-20.29,1.69,14.39,250,2028,7907,-1,0,-1
-20.28,1.67,14.39,248,2034,7920,-1,0,-1
-20.27,1.65,14.38,242,2029,7924,0,0,-1
-20.26,1.64,14.39,238,2033,7916,0,0,-1
-20.26,1.63,14.39,238,2027,7894,0,0,-1
-20.26,1.63,14.39,245,2023,7892,0,0,-1
-20.25,1.62,14.39,244,2019,7889,0,0,-1
-20.25,1.62,14.40,232,2026,7887,0,0,-1
-20.24,1.62,14.40,225,2037,7894,0,-1,-1
-20.24,1.62,14.41,239,2032,7896,0,-1,-1
-20.25,1.62,14.42,241,2033,7893,0,0,-1
-20.24,1.62,14.42,235,2027,7900,0,-1,-1
-20.24,1.63,14.42,243,2024,7890,0,-1,-1
-20.23,1.63,14.43,237,2033,7886,0,0,-1
-20.23,1.63,14.43,231,2038,7892,0,-1,-1
-20.23,1.63,14.44,233,2044,7902,0,-1,-1
-20.23,1.63,14.45,232,2037,7899,0,0,-1
-20.23,1.63,14.45,235,2027,7895,0,0,-1
-20.23,1.63,14.45,236,2019,7894,0,-1,0
-20.23,1.63,14.45,236,2020,7896,0,-1,0
-20.23,1.64,14.45,239,2038,7888,0,-1,0
-20.23,1.65,14.46,248,2044,7894,0,-1,0
-20.23,1.65,14.46,244,2049,7886,0,-1,-1
-20.23,1.65,14.46,243,2040,7888,-1,0,0
-20.23,1.65,14.46,243,2030,7895,-1,0,0
-20.23,1.65,14.45,240,2013,7906,-1,-1,0
-20.24,1.66,14.45,236,2008,7902,0,-1,0
-20.24,1.67,14.46,239,2023,7902,0,-1,0
-20.24,1.68,14.47,245,2035,7900,0,-1,0
-20.25,1.69,14.47,258,2039,7894,-1,-1,0
-20.24,1.69,14.46,264,2034,7892,-1,-1,-1
-20.23,1.68,14.46,250,2045,7907,-1,0,-1
-20.22,1.69,14.47,224,2031,7895,0,-1,-1
-20.22,1.70,14.47,252,2028,7903,-1,-1,0
-20.23,1.71,14.47,236,2003,7907,0,-1,0
-20.23,1.73,14.47,271,2029,7902,0,0,-1
-20.23,1.74,14.48,223,2021,7881,0,-1,0
-20.25,1.77,14.49,276,2019,7909,0,-1,0
-20.25,1.77,14.49,267,2069,7890,-1,-1,0
-20.26,1.78,14.49,270,2043,7907,0,-1,0
-20.26,1.80,14.49,280,2054,7892,-1,0,-1
-20.26,1.80,14.49,232,2068,7916,-1,-1,0
-20.29,1.82,14.46,246,2013,7887,-1,-1,1
-20.31,1.85,14.44,297,1986,7907,0,-1,0
-20.30,1.86,14.47,287,2052,7887,0,0,-1
-20.30,1.87,14.47,282,2050,7867,-1,-1,0
-20.32,1.89,14.46,284,2039,7905,-1,-1,0
-20.33,1.90,14.46,279,2031,7890,0,-1,0
-20.35,1.91,14.45,269,2022,7883,-1,-1,0
-20.35,1.93,14.45,281,2023,7920,0,-1,0
-20.37,1.94,14.46,276,2031,7890,-1,0,0
-20.38,1.97,14.47,274,2065,7874,0,-2,0
-20.40,2.00,14.46,301,2018,7900,-1,-1,0
-20.43,2.01,14.45,281,2047,7871,-1,-1,0
-20.42,2.03,14.47,320,2037,7898,0,-1,-1
-20.44,2.06,14.44,323,1991,7876,-1,-1,0
-20.43,2.04,14.47,327,2030,7879,1,0,-1
-20.44,2.04,14.47,274,2046,7864,-1,0,0
-20.43,2.05,14.48,348,2052,7867,0,-1,-1
-20.43,2.03,14.48,287,2063,7901,-1,0,-1
-20.43,2.03,14.47,314,2031,7878,-1,0,0
-20.43,2.03,14.45,294,2035,7916,-1,-1,0
-20.43,2.02,14.46,299,2042,7907,0,0,-1
-20.43,2.01,14.46,299,2048,7866,-1,0,-1
-20.42,2.00,14.45,297,2014,7868,0,0,-1
-20.41,1.98,14.44,300,2011,7883,0,0,-1
-20.40,1.97,14.46,282,2059,7897,-1,0,-1
-20.39,1.97,14.44,284,2059,7900,-1,0,-1
-20.39,1.96,14.44,283,2046,7895,-1,0,-1
-20.39,1.95,14.42,289,2029,7887,-1,0,-1
-20.39,1.94,14.40,292,2015,7894,-1,0,-1
-20.39,1.94,14.40,279,1997,7904,0,-1,-1
-20.38,1.95,14.40,292,1992,7912,0,0,-1
-20.38,1.95,14.40,292,2007,7906,0,-1,-1
-20.37,1.95,14.42,295,2033,7890,0,-1,-1
-20.37,1.96,14.42,298,2035,7885,0,0,-1
-20.37,1.96,14.42,292,2035,7891,-1,0,0
-20.37,1.96,14.42,290,2031,7900,0,0,-1
-20.37,1.95,14.42,285,2024,7903,0,0,-1
-20.37,1.95,14.42,279,2027,7898,0,0,-1
-20.37,1.94,14.42,281,2032,7893,-1,0,-1
-20.37,1.95,14.42,281,2033,7902,0,0,0
-20.37,1.95,14.43,288,2032,7905,0,-1,0
-20.37,1.95,14.43,285,2039,7899,0,-1,0
-20.37,1.95,14.43,281,2039,7894,-1,-1,0
-20.37,1.95,14.43,281,2035,7901,-1,0,-1
-20.37,1.95,14.43,280,2030,7892,0,0,-1
-20.37,1.96,14.42,285,2026,7904,-1,-1,0
-20.37,1.96,14.42,286,2024,7906,0,0,-1
-20.37,1.96,14.42,293,2023,7893,0,-1,0
-20.37,1.96,14.42,292,2017,7893,0,0,-1
-20.37,1.96,14.42,288,2025,7895,0,0,0
-20.37,1.96,14.42,289,2024,7905,0,-1,-1
-20.37,1.96,14.42,298,2033,7903,-1,-1,-1
-20.37,1.96,14.42,294,2037,7904,-1,0,-1
-20.37,1.96,14.42,288,2028,7903,-1,0,0
-20.37,1.96,14.42,287,2015,7896,0,0,0
-20.38,1.97,14.41,287,2014,7901,0,-1,0
-20.37,1.97,14.42,296,2035,7884,0,-1,-1
-20.38,1.98,14.43,295,2048,7893,-1,-1,0
-20.38,1.98,14.43,296,2038,7894,-1,0,0
-20.38,1.98,14.42,292,2028,7891,-1,-1,0
-20.38,1.99,14.42,298,2021,7887,0,-1,0
-20.38,1.99,14.42,302,2017,7894,0,-1,0
-20.38,1.99,14.42,303,2025,7899,0,0,0
-20.38,1.99,14.42,299,2031,7892,0,0,0
-20.38,2.00,14.42,304,2031,7897,-1,0,-1
-20.38,1.99,14.42,301,2034,7900,-1,0,0
-20.38,1.99,14.41,293,2024,7911,-1,0,0
-20.39,1.99,14.41,291,2019,7905,0,0,0
-20.39,1.99,14.41,292,2025,7899,0,0,0
-20.39,1.99,14.41,294,2020,7902,0,-1,0
-20.39,1.99,14.41,293,2024,7901,0,0,0
-20.40,2.00,14.42,294,2030,7899,0,0,0
-20.40,2.00,14.42,303,2034,7880,0,0,0
-20.40,2.00,14.42,294,2036,7884,-1,0,0
-20.40,2.00,14.42,293,2023,7891,-1,0,0
-20.40,2.00,14.41,290,2021,7891,-1,0,0
-20.40,2.00,14.41,284,2019,7889,0,-1,0
-20.41,2.01,14.41,289,2024,7901,0,-1,0
-20.41,2.01,14.42,296,2028,7893,0,0,0
-20.41,2.01,14.42,301,2027,7880,-1,0,0
-20.41,2.01,14.42,302,2026,7876,-1,0,0
-20.41,2.01,14.42,294,2027,7894,0,0,-1
-20.41,2.01,14.42,296,2026,7900,0,0,-1
-20.40,2.01,14.43,296,2043,7907,0,0,-1
-20.40,2.01,14.43,294,2038,7897,-1,0,-1
-20.40,2.00,14.43,289,2044,7892,0,0,-1
-20.40,2.00,14.43,295,2040,7895,0,0,-1
-20.40,2.00,14.43,306,2032,7903,0,0,-1
-20.39,2.00,14.44,305,2042,7893,0,0,-1
-20.39,2.00,14.43,311,2036,7897,-1,0,-1
-20.39,2.00,14.44,306,2044,7897,0,0,-1
-20.38,2.00,14.44,303,2043,7895,0,0,-1
-20.38,2.00,14.44,301,2039,7906,-1,0,-1
-20.37,1.99,14.44,295,2031,7901,0,0,-1
-20.37,1.99,14.44,301,2025,7882,0,0,-1
-20.37,1.99,14.44,304,2015,7885,0,0,-1
-20.37,1.99,14.45,299,2034,7886,0,0,-1
-20.37,1.98,14.45,290,2053,7888,-1,0,-1
-20.36,1.98,14.45,282,2059,7897,-1,0,-1
-20.36,1.97,14.44,288,2046,7908,-1,0,-1
-20.35,1.97,14.44,279,2025,7903,0,0,-1
-20.35,1.97,14.44,286,2025,7893,0,0,-1
-20.35,1.97,14.46,297,2036,7890,0,-1,-1
-20.34,1.97,14.46,302,2053,7895,0,0,-1
-20.34,1.96,14.46,301,2050,7883,-1,0,-1
-20.34,1.96,14.45,296,2033,7890,-1,0,-1
-20.34,1.96,14.45,297,2028,7894,0,-1,-1
-20.34,1.96,14.46,299,2035,7890,0,0,-1
-20.34,1.96,14.46,295,2035,7902,0,0,-1
-20.33,1.96,14.47,296,2045,7896,0,0,-1
-20.33,1.96,14.47,294,2039,7887,-1,0,-1
-20.33,1.96,14.47,299,2035,7891,-1,0,-1
-20.32,1.95,14.46,298,2032,7881,0,0,-1
-20.32,1.95,14.46,293,2033,7895,-1,0,-1
-20.31,1.94,14.46,285,2031,7901,-1,0,-1
-20.31,1.94,14.45,285,2026,7898,-1,0,-1
-20.31,1.94,14.45,290,2028,7901,0,0,-1
-20.31,1.94,14.46,294,2026,7890,0,0,-1
-20.31,1.94,14.46,302,2032,7896,0,0,-1
-20.31,1.93,14.46,295,2038,7893,0,0,-1
-20.30,1.93,14.46,293,2037,7893,0,0,-1
-20.30,1.93,14.46,290,2043,7899,-1,0,-1
-20.30,1.92,14.46,283,2035,7892,-1,0,-1
-20.29,1.91,14.46,274,2037,7899,-1,0,-1
-20.29,1.91,14.46,282,2030,7895,0,0,-1
-20.29,1.91,14.46,280,2032,7904,-1,0,-1
-20.29,1.90,14.45,282,2025,7907,0,0,-1
-20.28,1.90,14.45,281,2022,7897,0,0,-1
-20.28,1.90,14.46,282,2033,7890,0,0,-1
-20.27,1.90,14.46,282,2037,7889,-1,0,-1
-20.27,1.89,14.46,278,2035,7888,-1,0,-1
-20.27,1.89,14.46,280,2029,7897,-1,0,-1
-20.27,1.88,14.46,275,2035,7905,-1,0,-1
-20.26,1.88,14.46,280,2037,7899,0,0,-1
-20.25,1.87,14.46,274,2048,7896,0,0,-1
-20.25,1.86,14.47,274,2047,7891,-1,0,-1
-20.24,1.86,14.46,279,2033,7895,-1,0,-1
-20.24,1.85,14.46,272,2039,7894,0,0,-1
-20.23,1.85,14.47,274,2049,7889,0,0,-1
-20.22,1.84,14.47,267,2045,7903,-1,0,-1
-20.22,1.83,14.47,257,2038,7904,-1,0,-1
-20.22,1.83,14.46,268,2029,7902,-1,0,-1
-20.22,1.82,14.46,264,2021,7900,-1,0,-1
-20.22,1.82,14.45,266,2014,7901,0,0,-1
-20.20,1.80,14.46,267,2027,7904,0,0,-1
-20.19,1.80,14.47,269,2044,7896,0,0,-1
-20.19,1.79,14.47,272,2047,7901,-1,0,-1
-20.19,1.78,14.46,260,2035,7891,-1,0,-1
-20.19,1.78,14.45,264,2020,7905,-1,0,-1
-20.18,1.77,14.46,253,2012,7903,0,0,-1
-20.16,1.77,14.47,253,2031,7900,0,-1,-1
-20.15,1.78,14.49,276,2081,7900,0,-1,-1
-20.16,1.80,14.49,260,2070,7929,-1,-2,0
-20.20,1.84,14.46,329,2056,7953,-1,0,1
-20.23,1.82,14.45,240,2020,7897,-1,0,0
-20.25,1.83,14.45,282,1978,7920,0,-1,1
-20.27,1.83,14.45,252,2052,7867,-1,0,0
-20.29,1.83,14.44,236,2005,7872,0,-1,1
-20.33,1.86,14.43,287,2033,7843,-1,0,0
-20.34,1.86,14.41,243,2002,7843,-1,-3,1
-20.35,1.85,14.41,281,2064,7896,0,1,-1
-20.35,1.86,14.41,241,2005,7832,-1,0,-1
-20.35,1.86,14.40,289,2027,7858,0,-1,0
-20.34,1.83,14.40,246,2021,7931,0,0,-1
-20.35,1.87,14.40,270,1977,7827,0,0,0
-20.34,1.85,14.43,284,2064,7908,0,0,-1
-20.35,1.86,14.43,238,2029,7890,0,-1,0
-20.36,1.88,14.43,285,2034,7938,-1,-1,0
-20.37,1.90,14.43,266,2049,7904,-1,-1,0
-20.38,1.91,14.42,260,2042,7923,0,-1,0
-20.40,1.93,14.41,271,2018,7881,-1,-1,0
-20.40,1.94,14.41,285,2018,7882,0,0,-1
-20.39,1.95,14.42,280,1999,7898,0,-2,0
-20.41,1.96,14.42,270,2026,7858,0,1,-1
-20.43,1.99,14.41,315,1990,7874,-1,-3,0
-20.41,1.98,14.44,279,2074,7873,0,0,-1
-20.42,1.99,14.43,336,2000,7863,0,1,-1
-20.42,1.96,14.42,294,2046,7926,-1,0,0
-20.42,1.98,14.42,306,1991,7851,0,-1,-1
-20.41,1.96,14.44,278,2049,7912,0,0,-1
-20.41,1.97,14.43,267,2010,7867,-1,-1,0
-20.42,1.99,14.43,339,2038,7906,0,0,0
-20.40,1.97,14.44,269,2036,7878,0,0,-1
-20.41,2.00,14.45,291,2062,7919,-1,-1,0
-20.41,2.00,14.42,310,2046,7907,-1,0,-1
-20.40,1.99,14.43,288,2049,7851,-1,0,-1
-20.40,1.98,14.43,293,2040,7870,-1,0,0
-20.39,1.97,14.41,284,2010,7864,-1,0,-1
-20.39,1.97,14.41,301,2001,7888,0,-1,-1
-20.37,1.96,14.42,286,2015,7897,0,-1,-1
-20.37,1.97,14.42,298,2036,7915,0,-1,-1
-20.37,1.97,14.42,295,2037,7911,-1,0,-1
-20.37,1.97,14.42,298,2030,7908,-1,0,0
-20.38,1.97,14.41,291,2027,7893,-1,0,-1
-20.37,1.96,14.42,288,2020,7887,0,-1,-1
-20.36,1.96,14.42,292,2018,7887,0,0,-1
-20.36,1.96,14.42,287,2024,7887,0,0,-1
-20.35,1.96,14.42,288,2032,7896,0,0,-1
-20.34,1.95,14.43,293,2041,7906,0,0,-1
-20.34,1.95,14.43,291,2045,7909,-1,0,-1
-20.34,1.94,14.43,289,2025,7909,0,0,-1
-20.34,1.94,14.43,285,2027,7896,0,0,-1
-20.33,1.93,14.43,287,2024,7891,-1,0,-1
-20.32,1.93,14.43,285,2017,7891,0,0,-1
-20.31,1.93,14.44,281,2018,7897,0,-1,-1
-20.30,1.92,14.44,289,2027,7910,0,0,-1
-20.30,1.92,14.44,286,2043,7909,0,0,-1
-20.30,1.92,14.44,292,2036,7901,-1,0,-1
-20.29,1.92,14.44,290,2034,7902,-1,0,0
-20.29,1.92,14.43,281,2011,7905,-1,-1,-1
-20.29,1.92,14.44,282,2020,7898,0,-1,-1
-20.29,1.93,14.45,280,2048,7899,0,-1,-1
-20.29,1.93,14.45,281,2047,7893,-1,-1,0
-20.29,1.93,14.45,284,2045,7888,-1,-1,-1
-20.29,1.94,14.44,287,2040,7898,-1,0,-1
-20.29,1.94,14.43,280,2026,7907,-1,0,-1
-20.29,1.93,14.44,278,2024,7909,0,0,0
-20.29,1.94,14.43,278,2025,7903,0,-1,0
-20.29,1.94,14.44,279,2024,7895,0,-1,0
-20.29,1.95,14.45,289,2029,7895,0,-1,-1
-20.29,1.95,14.45,294,2051,7898,-1,-1,-1
-20.29,1.95,14.45,291,2044,7896,-1,0,-1
-20.29,1.94,14.45,291,2032,7903,-1,0,-1
-20.29,1.94,14.45,290,2026,7906,0,0,-1
-20.29,1.94,14.44,280,2022,7902,0,0,-1
-20.29,1.94,14.45,278,2025,7891,0,-1,-1
-20.29,1.94,14.45,277,2032,7882,0,-1,0
-20.29,1.95,14.45,275,2041,7887,0,-1,0
-20.29,1.95,14.45,281,2040,7893,-1,-1,0
-20.29,1.94,14.45,277,2031,7889,-1,-1,-1
-20.29,1.94,14.45,273,2025,7899,0,-1,0
-20.29,1.95,14.45,277,2027,7901,0,-1,0
-20.29,1.95,14.45,283,2029,7897,-1,-1,0
-20.29,1.96,14.44,293,2025,7889,-1,-1,0
-20.29,1.96,14.44,293,2017,7888,-1,0,0
-20.29,1.96,14.44,289,2020,7895,0,-1,-1
-20.29,1.97,14.44,296,2029,7897,0,-1,-1
-20.29,1.97,14.45,291,2042,7892,0,-1,0
-20.29,1.97,14.45,292,2037,7884,-1,-1,0
-20.30,1.97,14.44,287,2033,7883,-1,-1,0
-20.30,1.97,14.44,287,2025,7894,0,-1,0
-20.30,1.98,14.45,289,2029,7895,0,-1,-1
-20.30,1.98,14.45,291,2042,7894,0,-1,-1
-20.30,1.98,14.45,296,2046,7895,-1,0,0
-20.30,1.99,14.45,288,2035,7895,-1,-1,0
-20.30,1.99,14.45,284,2031,7895,-1,-1,0
-20.30,1.99,14.45,287,2025,7891,0,-1,0
-20.30,1.99,14.44,288,2026,7882,0,-1,0
-20.30,1.99,14.44,286,2028,7885,0,-1,0
-20.30,2.00,14.44,291,2028,7885,0,-1,0
-20.30,2.01,14.45,296,2029,7886,-1,-1,0
-20.31,2.01,14.44,299,2031,7893,-1,0,0
-20.31,2.01,14.44,292,2029,7898,0,-1,0
-20.31,2.02,14.44,293,2033,7898,0,-1,0
-20.31,2.02,14.44,291,2031,7893,0,-1,0
-20.31,2.02,14.44,294,2034,7888,-1,-1,0
-20.31,2.02,14.45,296,2040,7890,0,-1,0
-20.31,2.02,14.45,300,2035,7883,-1,-1,-1
-20.32,2.03,14.45,300,2040,7889,0,-1,0
-20.32,2.03,14.45,305,2030,7896,0,-1,0
-20.32,2.03,14.44,298,2027,7896,-1,-1,0
-20.33,2.04,14.44,304,2023,7888,0,-1,-1
-20.32,2.04,14.44,303,2029,7889,0,-1,-1
-20.33,2.05,14.44,294,2034,7893,-1,-1,0
-20.33,2.05,14.44,291,2036,7895,-1,-1,0
-20.33,2.05,14.44,295,2021,7899,0,-1,0
-20.33,2.05,14.44,296,2014,7905,0,-1,0
-20.33,2.05,14.44,304,2024,7893,0,-1,0
-20.33,2.06,14.45,310,2033,7880,0,-1,-1
-20.33,2.06,14.46,310,2038,7881,0,0,-1
-20.32,2.05,14.46,302,2040,7901,-1,0,-1
-20.32,2.05,14.45,297,2027,7902,-1,-1,0
-20.33,2.05,14.45,298,2031,7908,-1,0,0
-20.33,2.05,14.45,292,2026,7904,-1,-1,-1
-20.33,2.06,14.44,298,2015,7900,0,-1,0
-20.33,2.06,14.45,277,2017,7892,0,-1,-1
-20.33,2.09,14.47,323,2006,7889,0,-1,0
-20.32,2.08,14.51,328,2068,7880,0,0,-1
-20.31,2.08,14.51,290,2069,7870,-1,-2,0
-20.32,2.09,14.51,353,2030,7876,0,0,-1
-20.32,2.07,14.50,273,2042,7888,-1,-1,0
-20.33,2.09,14.53,313,2027,7908,1,-1,0
-20.34,2.10,14.52,334,2063,7889,-1,0,-1
-20.34,2.10,14.53,295,2024,7880,0,-1,0
-20.34,2.12,14.55,341,2055,7889,-1,0,-1
-20.34,2.12,14.52,304,2023,7891,0,-1,0
-20.34,2.12,14.54,316,2050,7909,0,0,0
-20.34,2.11,14.53,302,2040,7867,0,0,-1
-20.34,2.11,14.55,300,2052,7919,0,-1,0
-20.35,2.12,14.54,321,2062,7896,-1,0,-1
-20.35,2.11,14.54,302,2023,7878,0,0,-1
-20.35,2.10,14.55,291,2069,7896,-1,-1,0
-20.36,2.12,14.55,321,2064,7876,-1,-1,0
-20.36,2.12,14.54,321,2031,7900,0,0,-1
-20.35,2.11,14.55,296,2095,7904,-1,-1,0
-20.36,2.11,14.52,333,2013,7897,-1,0,-1
-20.36,2.10,14.52,302,2040,7880,0,0,-1
-20.35,2.09,14.53,288,2030,7882,0,0,-1
-20.35,2.11,14.53,330,2037,7899,-1,-1,-1
-20.35,2.09,14.52,299,2045,7884,0,0,-1
-20.36,2.11,14.53,302,2028,7864,0,-1,0
-20.36,2.10,14.53,338,2055,7895,-1,1,-1
-20.36,2.10,14.52,290,2032,7887,0,-1,0
-20.36,2.11,14.53,328,2065,7886,0,0,0
-20.36,2.10,14.53,302,2041,7886,-1,0,0
-20.35,2.11,14.53,316,2040,7890,0,0,-1
-20.36,2.10,14.54,312,2030,7897,0,0,-1
-20.35,2.11,14.55,273,2037,7891,0,-2,0
-20.34,2.12,14.56,336,2055,7865,0,0,-1
-20.34,2.10,14.56,297,2076,7875,-1,0,-1
-20.34,2.11,14.56,313,2063,7875,-1,-1,0
-20.34,2.12,14.55,316,2048,7852,-1,0,-1
-20.33,2.09,14.54,301,2045,7885,-1,0,-1
-20.33,2.09,14.54,299,2039,7883,-1,-1,-1
-20.32,2.09,14.54,309,2043,7876,0,0,-1
-20.31,2.09,14.54,294,2049,7898,-1,-1,-1
-20.32,2.09,14.54,304,2057,7900,-1,-1,0
-20.32,2.09,14.52,313,2040,7881,-1,0,-1
-20.31,2.08,14.52,323,2033,7870,-1,0,-1
-20.30,2.06,14.51,316,2038,7889,-1,0,-1
-20.29,2.05,14.51,301,2032,7896,-1,0,-1
-20.29,2.03,14.50,305,2034,7887,-1,0,-1
-20.27,2.02,14.50,300,2038,7899,0,0,-1
-20.26,2.00,14.50,294,2046,7900,-1,0,-1
-20.25,1.99,14.50,289,2042,7890,-1,0,-1
-20.25,1.98,14.49,290,2026,7895,-1,0,-1
-20.24,1.97,14.48,285,2021,7890,0,0,-1
-20.23,1.97,14.49,291,2039,7891,0,0,-1
-20.23,1.96,14.49,294,2057,7894,-1,0,-1
-20.22,1.95,14.50,293,2058,7899,-1,0,-1
-20.21,1.94,14.49,286,2046,7900,-1,0,-1
-20.22,1.94,14.48,281,2033,7895,-1,0,-1
-20.22,1.93,14.47,289,2025,7888,-1,0,-1
-20.21,1.93,14.47,293,2018,7885,0,0,-1
-20.21,1.92,14.47,297,2039,7879,0,0,-1
-20.20,1.91,14.47,292,2039,7890,0,0,-1
-20.20,1.90,14.47,284,2034,7902,-1,0,-1
-20.19,1.89,14.47,274,2033,7901,-1,0,-1
-20.19,1.89,14.47,269,2034,7898,0,0,-1
-20.18,1.88,14.48,272,2038,7892,0,0,-1
-20.18,1.88,14.48,277,2039,7886,0,0,-1
-20.18,1.88,14.48,282,2041,7884,0,0,-1
-20.18,1.88,14.48,280,2032,7881,0,-1,-1
-20.17,1.88,14.49,277,2046,7885,0,0,-1
-20.17,1.88,14.49,278,2049,7893,-1,0,-1
-20.17,1.88,14.49,285,2038,7892,0,0,0
-20.17,1.88,14.49,275,2028,7898,0,0,-1
-20.17,1.88,14.49,283,2035,7892,0,-1,-1
-20.17,1.88,14.50,281,2048,7888,0,0,-1
-20.17,1.88,14.50,273,2051,7886,-1,0,-1
-20.16,1.87,14.50,273,2046,7897,-1,0,-1
-20.16,1.87,14.50,278,2040,7902,-1,0,-1
-20.16,1.87,14.50,271,2030,7902,-1,0,-1
-20.16,1.87,14.50,271,2029,7894,0,0,-1
-20.16,1.86,14.50,268,2038,7905,0,0,0
-20.16,1.86,14.50,271,2048,7895,-1,-1,0
-20.16,1.87,14.50,278,2049,7890,-1,0,0
-20.16,1.86,14.50,271,2051,7898,-1,0,-1
-20.16,1.86,14.50,269,2039,7908,-1,-1,0
-20.17,1.87,14.49,263,2039,7910,-1,-1,0
-20.17,1.87,14.49,270,2035,7908,0,-1,0
-20.17,1.88,14.49,276,2027,7901,0,-1,0
-20.17,1.89,14.49,293,2022,7880,0,-1,0
-20.17,1.89,14.49,293,2028,7876,0,-1,-1
-20.17,1.89,14.49,290,2037,7885,0,0,0
-20.17,1.89,14.49,280,2047,7893,-1,0,-1
-20.17,1.89,14.49,280,2047,7902,-1,0,-1
-20.17,1.89,14.49,276,2041,7895,-1,-1,-1
-20.17,1.89,14.48,272,2024,7902,-1,-1,-1
-20.17,1.89,14.48,278,2016,7899,0,-1,-1
-20.16,1.90,14.49,280,2044,7890,0,-1,-1
-20.16,1.91,14.50,266,2048,7895,0,-1,0
-20.16,1.92,14.50,270,2061,7901,0,-1,0
-20.17,1.94,14.50,291,2064,7906,-1,0,0
-20.16,1.94,14.50,287,2057,7922,0,-1,0
-20.18,1.96,14.50,288,2040,7903,0,-1,0
-20.19,1.96,14.50,262,2061,7883,-1,-1,0
-20.21,1.98,14.49,310,1992,7874,0,-1,0
-20.21,1.97,14.49,291,2025,7882,0,0,-1
-20.20,1.98,14.52,278,2027,7889,0,-2,0
-20.23,2.01,14.51,331,2034,7930,-1,0,0
-20.23,1.99,14.51,246,2059,7864,0,-2,0
-20.25,2.02,14.51,351,2009,7879,0,1,0
-20.24,1.99,14.52,230,2089,7897,-1,-1,0
-20.25,2.02,14.51,327,2005,7866,0,-1,-1
-20.26,2.00,14.52,286,2051,7912,0,1,0
-20.25,2.00,14.52,254,2048,7892,0,-2,0
-20.27,2.01,14.52,286,2051,7880,-1,0,0
-20.27,2.01,14.51,293,2042,7890,0,-1,-1
-20.27,2.01,14.52,284,2073,7900,-1,0,0
-20.28,2.02,14.50,281,2018,7896,-1,-1,0
-20.28,2.02,14.50,315,2032,7906,0,0,-1
-20.28,2.02,14.51,261,2053,7877,-1,-2,0
-20.28,2.04,14.50,324,2035,7866,-1,0,0
-20.28,2.03,14.49,276,2046,7880,-1,-1,0
-20.29,2.03,14.48,295,2030,7884,-1,-1,0
-20.29,2.04,14.47,317,2031,7905,-1,0,-1
-20.29,2.04,14.47,301,2030,7900,0,-1,-1
-20.29,2.05,14.48,297,2044,7905,-1,-1,-1
-20.29,2.05,14.47,296,2038,7902,-1,0,0
-20.29,2.04,14.46,301,2032,7872,-1,0,-1
-20.29,2.04,14.46,300,2030,7883,0,0,-1
-20.28,2.04,14.46,295,2035,7897,-1,0,-1
-20.28,2.04,14.46,303,2032,7896,0,-1,-1
-20.28,2.03,14.45,299,2043,7896,-1,0,-1
-20.28,2.04,14.45,299,2044,7886,-1,-1,-1
-20.27,2.04,14.44,299,2035,7885,-1,-1,-1
-20.27,2.04,14.44,301,2017,7904,0,-1,-1
-20.27,2.04,14.44,310,2022,7912,0,-1,-1
-20.26,2.05,14.44,302,2028,7902,0,-1,-1
-20.26,2.05,14.45,311,2038,7894,0,-1,-1
-20.26,2.05,14.45,305,2040,7883,0,0,-1
-20.26,2.05,14.45,315,2033,7887,-1,0,-1
-20.26,2.05,14.45,304,2038,7895,0,-1,-1
-20.26,2.05,14.45,302,2039,7896,0,0,-1
-20.26,2.05,14.45,296,2036,7902,-1,-1,-1
-20.26,2.05,14.45,296,2039,7902,0,-1,-1
-20.26,2.06,14.45,299,2027,7898,0,-1,0
-20.26,2.07,14.45,310,2024,7898,0,-1,0
-20.27,2.08,14.46,319,2039,7889,0,-1,0
-20.27,2.08,14.46,303,2048,7892,-1,-1,0
-20.27,2.09,14.46,305,2043,7884,-1,-1,-1
-20.27,2.10,14.46,307,2015,7891,0,-1,0
-20.27,2.10,14.46,301,2029,7899,-1,-1,-1
-20.27,2.11,14.46,300,2016,7908,0,-1,0
-20.27,2.12,14.47,313,2017,7907,0,-1,0
-20.27,2.13,14.47,317,2030,7910,0,-1,0
-20.28,2.13,14.48,316,2046,7895,-1,-1,0
-20.28,2.14,14.47,326,2031,7896,-1,0,0
-20.28,2.13,14.47,316,2034,7898,0,0,-1
-20.28,2.13,14.47,310,2037,7895,-1,0,-1
-20.28,2.13,14.46,314,2033,7902,-1,0,0
-20.28,2.13,14.46,320,2032,7897,0,0,-1
-20.28,2.12,14.47,307,2049,7899,0,0,0
-20.28,2.12,14.47,306,2049,7896,0,-1,-1
-20.28,2.12,14.47,306,2045,7889,0,0,0
-20.28,2.11,14.46,305,2037,7885,-1,0,-1
-20.28,2.11,14.45,305,2028,7891,-1,0,0
-20.28,2.11,14.45,304,2010,7898,0,-1,-1
-20.28,2.11,14.45,306,2018,7893,0,-1,-1
-20.28,2.12,14.45,310,2033,7885,0,-1,-1
-20.28,2.12,14.45,314,2038,7883,-1,-1,-1
-20.28,2.12,14.45,317,2035,7887,-1,0,-1
-20.28,2.12,14.45,312,2033,7896,-1,0,-1
-20.28,2.12,14.44,312,2024,7889,0,0,-1
-20.28,2.11,14.45,303,2030,7896,0,0,-1
-20.28,2.11,14.45,307,2033,7898,0,0,-1
-20.27,2.11,14.45,305,2031,7894,0,0,-1
-20.27,2.11,14.46,307,2040,7882,0,0,-1
-20.27,2.11,14.46,304,2043,7878,-1,0,-1
-20.26,2.10,14.45,301,2032,7881,-1,0,-1
-20.26,2.10,14.45,302,2025,7887,0,0,-1
-20.26,2.10,14.46,309,2035,7889,0,0,-1
-20.26,2.10,14.46,306,2042,7891,0,0,-1
-20.26,2.10,14.46,311,2041,7887,-1,0,-1
-20.25,2.10,14.46,316,2038,7883,-1,0,-1
-20.25,2.10,14.46,309,2036,7881,-1,0,-1
-20.25,2.09,14.46,307,2030,7896,-1,0,-1
-20.25,2.09,14.46,310,2032,7897,0,0,-1
-20.25,2.09,14.46,306,2024,7900,0,0,-1
-20.24,2.09,14.46,303,2024,7891,0,0,-1
-20.24,2.09,14.47,313,2040,7889,0,0,-1
-20.24,2.09,14.47,319,2049,7885,-1,0,-1
-20.24,2.08,14.47,312,2048,7893,-1,0,-1
-20.23,2.07,14.47,308,2033,7907,-1,0,-1
-20.23,2.08,14.47,309,2031,7905,0,-1,-1
-20.22,2.08,14.47,298,2035,7905,0,-1,-1
-20.22,2.07,14.47,300,2036,7896,0,-1,-1
-20.22,2.07,14.47,298,2046,7891,0,0,-1
-20.22,2.07,14.47,304,2040,7894,0,0,-1
-20.22,2.07,14.47,307,2042,7890,-1,0,-1
-20.22,2.07,14.47,308,2042,7895,0,0,-1
-20.22,2.07,14.48,308,2031,7885,-1,0,-1
-20.22,2.06,14.47,304,2031,7897,-1,0,-1
-20.22,2.06,14.47,306,2028,7888,-1,0,-1
-20.22,2.06,14.47,305,2031,7894,-1,0,-1
-20.22,2.06,14.47,303,2020,7895,0,0,-1
-20.21,2.06,14.47,305,2024,7888,0,0,-1
-20.21,2.06,14.47,302,2037,7894,0,0,-1
-20.21,2.05,14.46,303,2034,7899,-1,0,-1
-20.20,2.05,14.46,304,2031,7897,-1,0,-1
-20.20,2.05,14.46,297,2020,7902,-1,0,-1
-20.20,2.05,14.46,303,2022,7901,0,0,-1
-20.20,2.04,14.46,301,2030,7896,0,0,-1
-20.19,2.04,14.47,301,2040,7888,0,0,-1
-20.19,2.04,14.48,307,2046,7887,0,0,-1
-20.19,2.04,14.47,306,2042,7894,-1,0,-1
-20.19,2.03,14.47,300,2038,7902,-1,0,-1
-20.19,2.03,14.47,296,2035,7898,0,-1,-1
-20.18,2.04,14.48,302,2036,7906,0,0,-1
-20.18,2.04,14.48,306,2039,7898,-1,0,-1
-20.18,2.04,14.48,301,2042,7897,-1,0,0
-20.18,2.03,14.47,298,2037,7897,-1,0,-1
-20.18,2.03,14.48,295,2036,7898,0,0,-1
-20.18,2.03,14.48,297,2043,7904,0,0,-1
-20.17,2.02,14.48,299,2042,7906,0,0,-1
-20.17,2.02,14.48,301,2040,7906,0,0,-1
-20.17,2.02,14.48,299,2030,7900,0,-1,-1
-20.17,2.02,14.48,296,2032,7900,0,0,-1
-20.17,2.02,14.48,290,2040,7888,0,0,-1
-20.17,2.01,14.48,292,2040,7901,0,0,-1
-20.16,2.01,14.48,287,2039,7904,0,0,-1
-20.16,2.01,14.48,296,2044,7893,0,0,-1
-20.16,2.01,14.49,293,2045,7890,-1,0,-1
-20.16,2.00,14.49,296,2040,7885,0,0,-1
-20.16,2.01,14.49,301,2044,7883,0,0,-1
-20.16,2.01,14.49,301,2040,7879,0,0,-1
-20.16,2.01,14.49,300,2037,7883,-1,0,-1
-20.15,2.00,14.49,296,2035,7876,-1,0,-1
-20.15,2.00,14.49,291,2034,7888,-1,0,-1
-20.15,2.00,14.49,288,2027,7894,0,0,-1
-20.15,1.99,14.49,287,2029,7899,0,0,0
-20.15,2.00,14.49,289,2024,7903,0,-1,0
-20.15,2.00,14.49,293,2034,7891,0,-1,0
-20.15,2.00,14.49,299,2039,7896,0,0,-1
-20.15,2.00,14.50,302,2044,7889,-1,0,-1
-20.15,2.00,14.50,294,2044,7889,0,0,-1
-20.15,1.99,14.50,291,2044,7889,0,-1,-1
-20.15,2.00,14.50,288,2049,7895,0,0,0
-20.15,2.00,14.50,290,2037,7900,-1,-1,0
-20.16,2.00,14.49,292,2031,7893,-1,0,0
-20.15,2.00,14.49,298,2030,7890,0,-1,-1
-20.15,2.00,14.50,293,2041,7891,0,-1,-1
-20.15,2.00,14.51,288,2052,7902,-1,-1,-1
-20.15,2.00,14.51,286,2042,7889,-1,-1,0
-20.15,2.00,14.50,290,2044,7893,-1,-1,0
-20.16,2.00,14.50,290,2028,7903,-1,-1,0
-20.16,2.00,14.50,297,2027,7897,-1,-1,0
-20.16,2.01,14.49,297,2030,7893,0,0,0
-20.16,2.01,14.49,299,2034,7883,-1,0,0
-20.16,2.01,14.49,299,2035,7888,0,0,0
-20.16,2.01,14.50,299,2044,7881,-1,-1,-1
-20.16,2.01,14.49,296,2042,7879,-1,0,0
-20.17,2.01,14.49,299,2035,7889,-1,-1,-1
-20.17,2.01,14.49,298,2032,7889,0,0,-1
-20.17,2.01,14.49,290,2029,7887,0,-1,-1
-20.17,2.01,14.49,291,2030,7892,0,-1,0
-20.17,2.02,14.50,287,2039,7899,0,-1,-1
-20.17,2.02,14.50,299,2041,7895,0,0,0
-20.17,2.02,14.50,298,2041,7889,-1,0,0
-20.17,2.01,14.49,303,2031,7887,0,-1,0
-20.17,2.02,14.49,305,2028,7887,0,-1,0
-20.17,2.02,14.50,298,2036,7898,0,-1,0
-20.17,2.02,14.50,299,2035,7894,0,-1,0
-20.18,2.03,14.50,308,2039,7891,-1,-1,0
-20.18,2.03,14.50,310,2040,7892,0,0,-1
-20.18,2.03,14.50,299,2045,7895,-1,0,0
-20.18,2.03,14.49,305,2035,7891,-1,0,0
-20.18,2.04,14.48,300,2019,7886,-1,0,0
-20.18,2.03,14.48,302,2024,7892,0,-1,-1
-20.18,2.04,14.49,295,2039,7893,0,-1,-1
-20.18,2.04,14.49,290,2044,7891,-1,-1,0
-20.18,2.04,14.49,290,2039,7889,0,-1,0
-20.18,2.04,14.49,295,2037,7894,0,-1,0
-20.18,2.04,14.49,299,2036,7893,0,-1,0
-20.18,2.04,14.49,311,2045,7883,0,0,-1
-20.18,2.04,14.50,302,2054,7882,0,0,-1
-20.18,2.04,14.49,300,2049,7896,-1,0,-1
-20.18,2.04,14.49,289,2047,7898,-1,-1,0
-20.18,2.04,14.48,300,2033,7889,-1,-1,0
-20.19,2.05,14.48,296,2031,7887,0,-1,0
-20.18,2.05,14.48,297,2048,7889,0,-1,0
-20.19,2.06,14.48,303,2041,7889,-1,-1,0
-20.19,2.06,14.48,306,2037,7886,-1,0,0
-20.19,2.06,14.48,302,2034,7893,-1,-1,0
-20.19,2.06,14.47,305,2025,7900,-1,0,0
-20.19,2.06,14.47,301,2025,7895,0,-1,-1
-20.19,2.06,14.47,300,2038,7889,0,0,0
-20.19,2.06,14.48,285,2059,7900,-1,-1,0
-20.19,2.07,14.47,297,2046,7894,-1,-1,0
-20.20,2.08,14.47,300,2044,7890,-1,-1,0
-20.20,2.08,14.47,305,2043,7878,-1,-1,0
-20.20,2.08,14.46,305,2029,7885,-1,0,0
-20.20,2.08,14.46,298,2030,7884,0,-1,0
-20.20,2.08,14.46,296,2039,7889,-1,-1,0
-20.21,2.09,14.46,299,2037,7880,-1,-1,0
-20.21,2.10,14.46,306,2038,7895,-1,-1,0
-20.22,2.10,14.45,309,2037,7903,-1,0,0
-20.22,2.10,14.45,309,2025,7902,-1,0,0
-20.22,2.10,14.45,307,2020,7898,0,0,0
-20.23,2.10,14.45,308,2037,7896,-1,0,-1
-20.22,2.09,14.45,306,2031,7901,0,0,-1
-20.22,2.09,14.44,299,2019,7909,-1,0,0
-20.22,2.09,14.44,293,2021,7901,0,-1,0
-20.23,2.10,14.45,297,2037,7905,-1,-1,0
-20.23,2.10,14.46,309,2034,7895,0,0,0
-20.23,2.10,14.46,296,2047,7895,0,-1,0
-20.23,2.10,14.46,320,2053,7892,-1,0,0
-20.23,2.10,14.46,294,2050,7897,-1,-1,0
-20.24,2.11,14.45,306,2020,7893,0,-1,0
-20.24,2.11,14.45,305,2038,7903,0,-1,-1
-20.24,2.11,14.45,306,2031,7891,-1,-1,0
-20.25,2.11,14.45,312,2024,7880,0,0,0
-20.25,2.11,14.45,305,2032,7899,0,-1,-1
-20.24,2.11,14.46,306,2050,7889,-1,0,-1
-20.24,2.11,14.46,294,2048,7886,-1,-1,-1
-20.24,2.12,14.45,302,2044,7892,-1,-1,0
-20.24,2.12,14.44,303,2040,7884,-1,-1,0
-20.24,2.13,14.44,321,2023,7893,0,-1,-1
-20.24,2.13,14.45,319,2026,7897,0,0,-1
-20.23,2.13,14.45,312,2029,7896,0,0,-1
-20.23,2.12,14.46,301,2035,7894,0,0,0
-20.23,2.12,14.46,299,2043,7900,0,-1,-1
-20.23,2.12,14.46,305,2050,7901,-1,0,-1
-20.23,2.12,14.46,302,2047,7899,-1,0,-1
-20.22,2.12,14.46,304,2042,7896,-1,0,-1
-20.22,2.12,14.45,304,2040,7906,-1,-1,-1
-20.22,2.12,14.45,304,2031,7919,0,0,0
-20.22,2.11,14.45,305,2025,7913,0,0,-1
-20.22,2.11,14.46,309,2023,7896,0,0,-1
-20.22,2.11,14.47,310,2039,7881,0,0,-1
-20.22,2.11,14.47,323,2044,7871,-1,0,-1
-20.21,2.11,14.47,308,2036,7890,-1,0,-1
-20.20,2.10,14.46,300,2034,7900,-1,0,-1
-20.20,2.10,14.46,295,2037,7900,0,0,-1
-20.20,2.09,14.46,287,2035,7901,0,0,-1
-20.20,2.09,14.46,289,2032,7894,0,0,0
-20.20,2.08,14.46,295,2032,7899,-1,0,-1
-20.20,2.08,14.46,300,2025,7891,0,0,-1
-20.19,2.08,14.47,299,2031,7881,0,0,-1
-20.19,2.07,14.47,293,2041,7881,-1,0,-1
-20.19,2.07,14.47,291,2044,7886,-1,0,-1
-20.19,2.07,14.47,295,2045,7887,-1,0,-1
-20.18,2.07,14.47,300,2046,7890,-1,0,-1
-20.18,2.07,14.47,301,2036,7897,-1,0,-1
-20.18,2.07,14.47,298,2034,7894,0,0,-1
-20.18,2.06,14.48,295,2043,7886,0,0,-1
-20.17,2.06,14.48,298,2045,7896,0,0,-1
-20.17,2.05,14.48,296,2046,7888,-1,0,-1
-20.17,2.05,14.48,288,2044,7892,-1,0,-1
-20.16,2.04,14.48,291,2049,7891,0,0,-1
-20.16,2.03,14.47,292,2047,7893,-1,0,-1
-20.16,2.03,14.47,290,2033,7901,0,0,-1
-20.16,2.02,14.47,290,2027,7904,0,0,-1
-20.15,2.02,14.48,295,2036,7890,0,0,-1
-20.15,2.02,14.48,294,2051,7880,0,0,-1
-20.15,2.02,14.48,295,2049,7893,-1,0,-1
-20.15,2.02,14.48,294,2040,7906,-1,0,-1
-20.15,2.01,14.48,287,2036,7901,0,0,-1
-20.15,2.01,14.48,293,2023,7899,0,0,-1
-20.14,2.01,14.48,300,2023,7891,0,0,-1
-20.14,2.00,14.48,298,2036,7893,-1,0,-1
-20.14,2.00,14.48,294,2033,7895,-1,0,-1
-20.13,1.99,14.47,288,2030,7890,-1,0,-1
-20.13,1.99,14.47,284,2031,7891,0,0,-1
-20.12,1.98,14.48,281,2040,7885,0,0,-1
-20.12,1.98,14.48,287,2038,7885,0,0,-1
-20.12,1.97,14.48,289,2052,7887,-1,0,-1
-20.11,1.96,14.48,288,2045,7892,-1,0,-1
-20.11,1.96,14.48,292,2046,7892,-1,0,-1
-20.11,1.96,14.48,292,2043,7889,0,0,-1
-20.11,1.96,14.48,294,2044,7898,-1,0,0
-20.11,1.95,14.47,289,2035,7905,-1,0,-1
-20.10,1.94,14.48,283,2030,7896,-1,0,0
-20.10,1.93,14.48,277,2035,7908,-1,0,-1
-20.10,1.93,14.48,283,2041,7894,0,0,-1
-20.10,1.93,14.48,282,2048,7901,-1,0,-1
-20.09,1.92,14.47,282,2044,7905,-1,0,-1
-20.09,1.91,14.47,279,2038,7909,0,0,-1
-20.08,1.90,14.47,284,2035,7905,0,0,-1
-20.07,1.89,14.48,279,2032,7904,0,0,-1
-20.06,1.89,14.48,277,2029,7884,0,0,-1
-20.05,1.88,14.49,284,2037,7891,0,0,-1
-20.04,1.87,14.50,274,2042,7880,0,0,-1
-20.03,1.86,14.50,279,2037,7887,0,0,-1
-20.02,1.84,14.51,269,2050,7900,0,0,-1
-20.01,1.83,14.51,257,2053,7895,-1,0,-1
-20.01,1.82,14.50,255,2032,7888,-1,0,-1
-20.00,1.81,14.50,259,2042,7892,0,0,-1
-19.98,1.81,14.51,244,2043,7883,0,-1,-1
-19.97,1.81,14.51,278,2041,7887,-1,0,-1
-19.97,1.80,14.51,261,2030,7893,0,-1,-1
-19.97,1.78,14.52,271,2047,7884,0,0,-1
-19.95,1.78,14.53,250,2065,7889,0,-1,-1
-19.94,1.77,14.53,244,2067,7892,-1,0,-1
-19.94,1.77,14.53,227,2054,7875,0,-1,-1
-19.94,1.78,14.51,250,2026,7886,-1,0,0
-19.94,1.77,14.50,247,2020,7895,0,-1,0
-19.94,1.78,14.52,253,2044,7886,0,-1,0
-19.94,1.79,14.52,280,2027,7908,0,0,0
-19.95,1.78,14.53,248,2075,7915,-1,0,0
-19.95,1.78,14.52,232,2050,7882,-1,-1,0
-19.98,1.80,14.50,284,1990,7893,-1,0,0
-19.97,1.78,14.52,232,2064,7901,0,-1,-1
-19.98,1.81,14.52,233,2010,7875,-1,-1,0
-20.00,1.81,14.51,274,2043,7891,-1,0,0
-19.99,1.80,14.52,259,2032,7881,0,0,-1
-20.00,1.80,14.53,248,2053,7879,-1,0,0
-20.00,1.81,14.52,239,2019,7861,0,-1,0
-20.00,1.82,14.52,248,2049,7885,0,-1,0
-20.02,1.83,14.52,246,2052,7877,-1,-1,0
-20.02,1.83,14.51,286,2047,7864,0,0,-1
-20.01,1.82,14.52,249,2054,7876,-1,0,-1
-20.01,1.83,14.51,257,2044,7879,-1,-1,0
-20.02,1.84,14.50,279,2023,7877,-1,0,0
-20.02,1.84,14.49,260,2013,7891,0,-1,0
-20.02,1.84,14.50,280,2035,7893,0,0,-1
-20.01,1.84,14.51,257,2062,7910,-1,-1,-1
-20.02,1.85,14.50,262,2064,7909,-1,-1,0
-20.03,1.86,14.50,267,2054,7896,-1,-1,0
-20.04,1.86,14.48,265,2032,7904,-1,-1,0
-20.05,1.87,14.48,272,2014,7897,0,-1,0
-20.05,1.88,14.49,271,2036,7894,0,-1,0
-20.05,1.88,14.49,268,2050,7898,0,-1,0
-20.06,1.89,14.50,269,2050,7902,0,-1,0
-20.06,1.90,14.50,279,2058,7894,-1,-1,0
-20.06,1.90,14.49,268,2042,7886,-1,-1,0
-20.06,1.91,14.49,276,2030,7892,-1,-1,0
-20.07,1.91,14.48,266,2034,7892,-1,-1,0
-20.07,1.92,14.48,281,2032,7902,-1,-1,0
-20.08,1.92,14.48,275,2034,7901,-1,-1,0
-20.09,1.92,14.48,270,2031,7900,0,-1,0
-20.09,1.93,14.48,274,2034,7886,0,-1,0
-20.10,1.93,14.48,273,2037,7884,0,-1,0
-20.10,1.94,14.48,279,2039,7887,-1,-1,0
-20.10,1.94,14.48,275,2046,7896,-1,-1,0
-20.10,1.94,14.48,269,2044,7893,-1,-1,0
-20.10,1.94,14.48,268,2042,7902,-1,-1,0
-20.10,1.94,14.48,268,2039,7899,0,-1,0
-20.10,1.95,14.48,272,2037,7899,0,-1,0
-20.11,1.95,14.48,281,2028,7891,0,-1,0
-20.11,1.96,14.49,287,2045,7896,0,-1,0
-20.11,1.97,14.49,291,2053,7889,-1,-1,0
-20.12,1.97,14.49,286,2052,7892,0,-1,0
-20.11,1.97,14.49,281,2049,7891,0,-1,-1
-20.11,1.97,14.50,275,2057,7891,-1,-1,0
-20.12,1.97,14.50,282,2046,7898,-1,-1,0
-20.12,1.98,14.49,287,2038,7891,-1,-1,0
-20.13,1.98,14.48,282,2030,7891,-1,0,0
-20.13,1.98,14.48,283,2029,7898,0,-1,-1
-20.12,1.98,14.49,279,2045,7887,0,-1,0
-20.13,1.99,14.49,280,2054,7892,-1,-1,0
-20.13,1.99,14.49,284,2057,7883,-1,-1,0
-20.13,1.99,14.49,277,2043,7881,-1,-1,0
-20.14,2.00,14.49,286,2036,7892,0,-1,0
-20.14,2.00,14.49,293,2033,7891,0,-1,0
-20.14,2.01,14.49,295,2043,7894,0,-1,0
-20.14,2.01,14.50,291,2052,7897,0,-1,0
-20.15,2.02,14.50,290,2048,7902,0,-1,0
-20.15,2.03,14.50,282,2049,7897,-1,-1,0
-20.15,2.03,14.50,280,2043,7892,-1,-1,0
-20.16,2.03,14.49,288,2035,7888,-1,-1,0
-20.16,2.04,14.49,289,2032,7888,0,-1,0
-20.17,2.05,14.49,299,2034,7884,0,-1,0
-20.17,2.05,14.49,305,2032,7887,-1,-1,0
-20.17,2.06,14.48,295,2034,7884,-1,0,0
-20.17,2.06,14.48,291,2036,7901,-1,-1,0
-20.18,2.05,14.48,286,2035,7901,-1,-1,0
-20.19,2.06,14.48,295,2033,7900,0,-1,0
-20.19,2.07,14.47,299,2035,7897,0,-1,0
-20.20,2.08,14.47,307,2032,7883,0,-1,0
-20.20,2.08,14.47,300,2033,7885,0,0,0
-20.20,2.08,14.47,294,2031,7895,0,-1,0
-20.20,2.09,14.48,293,2038,7902,0,-1,0
-20.21,2.09,14.48,308,2047,7898,0,-1,0
-20.21,2.09,14.48,306,2043,7884,0,-1,0
-20.21,2.10,14.48,306,2044,7879,-1,0,0
-20.22,2.10,14.48,290,2037,7893,-1,0,0
-20.22,2.10,14.48,292,2033,7901,-1,-1,0
-20.23,2.11,14.47,290,2032,7898,-1,-1,0
-20.23,2.11,14.47,296,2024,7903,0,-1,0
-20.24,2.12,14.47,308,2029,7887,0,-1,0
-20.24,2.13,14.48,311,2037,7888,0,-1,0
-20.25,2.13,14.48,319,2035,7882,-1,0,0
-20.25,2.13,14.48,323,2031,7886,0,0,0
-20.25,2.13,14.47,312,2032,7891,-1,0,0
-20.25,2.13,14.47,305,2033,7899,0,0,0
-20.25,2.13,14.47,301,2034,7890,0,-1,0
-20.25,2.13,14.48,299,2046,7890,0,-1,0
-20.26,2.13,14.48,311,2045,7883,0,-1,0
-20.26,2.14,14.48,305,2049,7884,-1,-1,0
-20.26,2.14,14.48,310,2044,7888,-1,-1,0
-20.26,2.14,14.48,315,2038,7894,-1,0,-1
-20.26,2.14,14.48,315,2035,7893,-1,0,0
-20.26,2.14,14.47,311,2026,7895,0,-1,0
-20.26,2.14,14.47,306,2024,7889,0,-1,0
-20.26,2.14,14.48,310,2031,7880,0,-1,-1
-20.26,2.15,14.48,317,2035,7886,-1,-1,-1
-20.26,2.15,14.47,316,2032,7885,-1,0,-1
-20.25,2.15,14.47,307,2029,7894,0,0,-1
-20.25,2.14,14.47,299,2041,7900,-1,0,-1
-20.24,2.14,14.47,306,2036,7898,0,0,-1
-20.24,2.14,14.47,308,2036,7894,0,0,-1
-20.24,2.13,14.47,300,2033,7895,0,0,-1
-20.24,2.12,14.47,299,2028,7891,0,0,-1
-20.24,2.12,14.47,293,2032,7903,0,-1,-1
-20.23,2.12,14.48,294,2040,7898,0,0,-1
-20.23,2.12,14.48,302,2047,7896,0,0,-1
-20.22,2.12,14.48,306,2044,7897,-1,0,-1
-20.22,2.12,14.48,302,2039,7895,0,0,-1
-20.22,2.12,14.48,297,2026,7893,0,0,-1
-20.21,2.11,14.48,300,2027,7890,0,0,-1
-20.21,2.10,14.48,307,2041,7880,0,0,-1
-20.21,2.09,14.48,307,2041,7888,-1,0,-1
-20.20,2.09,14.48,301,2049,7887,-1,0,-1
-20.20,2.08,14.48,303,2043,7887,-1,0,-1
-20.20,2.08,14.47,302,2028,7894,-1,0,-1
-20.19,2.07,14.47,294,2034,7903,0,0,-1
-20.18,2.06,14.48,294,2037,7891,0,0,-1
-20.18,2.06,14.48,291,2046,7886,0,0,-1
-20.18,2.06,14.48,295,2051,7887,0,0,-1
-20.17,2.05,14.49,296,2055,7886,-1,0,-1
-20.17,2.05,14.48,297,2049,7897,-1,0,-1
-20.17,2.04,14.47,288,2031,7903,-1,0,-1
-20.16,2.03,14.47,283,2029,7913,0,0,-1
-20.16,2.03,14.47,289,2026,7914,0,0,-1
-20.16,2.02,14.47,284,2029,7907,0,0,0
-20.16,2.02,14.47,290,2027,7897,0,0,-1
-20.15,2.02,14.48,294,2027,7900,0,0,-1
-20.15,2.02,14.48,288,2036,7887,0,0,-1
-20.15,2.01,14.48,290,2040,7888,0,0,-1
-20.14,2.00,14.49,281,2038,7895,-1,0,-1
-20.13,1.99,14.48,270,2039,7892,-1,0,-1
-20.13,1.98,14.48,274,2034,7897,0,0,-1
-20.13,1.98,14.48,273,2038,7897,0,0,-1
-20.12,1.97,14.48,279,2034,7903,0,0,-1
-20.12,1.97,14.49,284,2041,7891,0,0,-1
-20.12,1.97,14.48,283,2052,7889,0,0,-1
-20.11,1.96,14.49,291,2058,7901,0,0,-1
-20.10,1.95,14.49,281,2052,7894,0,0,-1
-20.09,1.95,14.50,276,2046,7894,0,-1,-1
-20.08,1.95,14.51,281,2050,7889,0,0,-1
-20.07,1.95,14.50,283,2028,7887,-1,-1,0
-20.07,1.95,14.50,291,2024,7902,0,0,-1
-20.06,1.95,14.52,305,2023,7901,0,0,-1
-20.07,1.95,14.52,280,2054,7924,0,0,0
-20.09,1.94,14.52,245,2061,7897,-1,-1,0
-20.09,1.94,14.51,324,2028,7904,-1,1,0
-20.10,1.93,14.50,250,2049,7884,-1,-1,0
-20.11,1.94,14.50,294,2031,7885,0,-1,0
-20.12,1.93,14.50,298,2048,7890,-1,1,-1
-20.11,1.92,14.49,247,2031,7880,-1,-1,0
-20.12,1.91,14.49,256,2025,7892,0,0,0
-20.11,1.90,14.48,264,2060,7916,-1,-1,0
-20.14,1.92,14.46,272,1993,7877,0,0,0
-20.12,1.91,14.47,286,2049,7916,0,0,-1
-20.13,1.90,14.47,246,2034,7878,-1,-1,0
-20.12,1.90,14.46,298,2031,7907,-1,0,-1
-20.12,1.87,14.46,256,2029,7861,-1,0,-1
-20.12,1.87,14.46,275,2035,7892,0,0,0
-20.10,1.84,14.45,236,2037,7893,-1,0,-1
-20.11,1.85,14.44,261,2006,7869,0,0,0
-20.10,1.84,14.45,240,2045,7893,-1,-1,-1
-20.10,1.85,14.45,267,2030,7902,0,-1,0
-20.10,1.85,14.46,256,2030,7909,0,-1,0
-20.10,1.86,14.47,296,2035,7900,0,-1,-1
-20.09,1.84,14.48,259,2051,7887,0,0,0
-20.10,1.85,14.49,242,2029,7868,0,0,-1
-20.11,1.85,14.48,248,2046,7851,0,-1,0
-20.10,1.85,14.50,254,2051,7900,-1,-1,0
-20.11,1.86,14.49,278,2047,7872,0,0,-1
-20.10,1.85,14.50,247,2052,7894,0,-1,0
-20.11,1.85,14.49,264,2034,7908,-1,0,-1
-20.11,1.85,14.51,217,2038,7880,0,-1,0
-20.11,1.86,14.52,255,2057,7894,-1,0,-1
-20.12,1.87,14.52,250,2035,7899,-1,-1,0
-20.12,1.87,14.52,292,2034,7889,0,0,-1
-20.13,1.87,14.52,251,2020,7888,0,-1,0
-20.14,1.88,14.54,277,2039,7874,0,0,-1
-20.14,1.88,14.54,251,2075,7900,-1,-2,1
-20.15,1.89,14.55,284,2029,7903,0,0,-1
-20.16,1.90,14.55,247,2057,7890,-1,-2,0
-20.16,1.89,14.57,279,2057,7913,0,0,0
-20.17,1.90,14.57,239,2022,7872,0,-1,0
-20.17,1.92,14.60,285,2033,7894,0,-1,0
-20.18,1.93,14.62,264,2086,7891,0,0,0
-20.19,1.94,14.62,249,2038,7902,-1,-2,0
-20.21,1.96,14.62,318,2065,7887,0,0,0
-20.22,1.95,14.63,255,2062,7845,-1,0,-1
-20.22,1.97,14.64,308,2066,7873,0,-1,0
-20.22,1.96,14.63,242,2041,7902,-1,-2,0
-20.22,1.98,14.63,307,2047,7839,0,1,-1
-20.21,1.96,14.64,234,2096,7882,-1,-2,0
-20.23,1.99,14.61,277,2037,7895,-1,-1,0
-20.24,2.00,14.62,321,2056,7882,0,0,-1
-20.23,2.01,14.63,284,2086,7881,-1,-1,0
-20.23,2.02,14.61,299,2057,7884,-1,-1,-1
-20.23,2.02,14.61,296,2052,7884,-1,0,0
-20.23,2.00,14.60,284,2041,7854,0,-1,-1
-20.22,2.00,14.60,304,2042,7876,0,0,-1
-20.21,1.99,14.61,277,2054,7876,0,0,-1
-20.19,1.99,14.62,267,2086,7883,-1,-1,-1
-20.19,2.00,14.61,282,2078,7895,-1,-1,-1
-20.19,1.99,14.59,284,2063,7906,-1,0,-1
-20.19,2.00,14.57,295,2046,7915,-1,-1,-1
-20.17,1.99,14.55,285,2027,7903,-1,-1,-1
-20.17,2.00,14.55,288,2013,7904,0,-1,-1
-20.17,2.01,14.56,287,2035,7903,0,-1,-1
-20.16,2.01,14.57,288,2070,7896,-1,-1,-1
-20.16,2.02,14.56,281,2064,7888,-1,-1,0
-20.17,2.03,14.56,304,2035,7910,0,-1,0
-20.17,2.04,14.57,292,2041,7910,0,-1,-1
-20.18,2.04,14.57,289,2047,7895,0,-1,0
-20.17,2.05,14.58,294,2057,7893,0,-1,0
-20.18,2.06,14.59,301,2058,7883,0,-1,0
-20.18,2.07,14.60,299,2073,7876,-1,-1,0
-20.18,2.08,14.59,306,2056,7884,-1,0,0
-20.18,2.07,14.58,311,2058,7880,-1,0,-1
-20.18,2.07,14.58,296,2060,7873,-1,0,0
-20.19,2.07,14.57,294,2043,7885,-1,-1,0
-20.19,2.07,14.56,308,2035,7891,-1,0,0
-20.19,2.07,14.56,305,2060,7872,-1,0,-1
-20.19,2.06,14.55,296,2064,7877,-1,0,-1
-20.19,2.05,14.54,293,2051,7887,-1,0,-1
-20.18,2.04,14.53,293,2045,7897,-1,0,-1
-20.18,2.04,14.53,288,2044,7893,-1,0,-1
-20.18,2.03,14.52,283,2026,7901,0,-1,0
-20.18,2.04,14.53,297,2011,7913,0,-1,-1
-20.17,2.05,14.54,299,2024,7894,0,-1,0
-20.17,2.06,14.57,286,2041,7892,0,-1,0
-20.17,2.09,14.59,310,2041,7888,1,-1,0
-20.17,2.10,14.61,301,2083,7886,0,-1,-1
-20.17,2.11,14.62,307,2078,7875,0,0,0
-20.17,2.10,14.63,307,2068,7882,-1,0,-1
-20.18,2.10,14.62,291,2053,7887,-1,-1,0
-20.18,2.10,14.61,296,2040,7902,0,0,0
-20.18,2.10,14.61,296,2061,7882,-1,0,0
-20.18,2.10,14.62,298,2071,7878,-1,0,0
-20.19,2.11,14.61,305,2062,7889,-1,0,-1
-20.18,2.10,14.60,305,2073,7881,-1,0,0
-20.18,2.09,14.60,303,2065,7877,-1,0,-1
-20.18,2.08,14.58,297,2051,7878,-1,0,-1
-20.18,2.07,14.57,289,2053,7882,-1,0,0
-20.18,2.07,14.57,290,2045,7881,-1,0,0
-20.18,2.07,14.57,298,2038,7889,0,-1,0
-20.19,2.08,14.57,302,2044,7881,0,-1,0
-20.19,2.08,14.57,301,2053,7888,-1,-1,0
-20.19,2.09,14.57,298,2059,7889,-1,-1,0
-20.19,2.09,14.56,289,2041,7880,0,-1,0
-20.19,2.09,14.56,288,2041,7883,0,-1,0
-20.19,2.09,14.57,292,2047,7891,0,-1,0
-20.20,2.10,14.57,303,2052,7884,0,-1,0
-20.20,2.10,14.58,304,2062,7889,-1,-1,0
-20.20,2.10,14.58,307,2058,7894,-1,0,0
-20.20,2.10,14.58,297,2058,7883,-1,-1,0
-20.20,2.10,14.57,299,2051,7887,0,0,0
-20.21,2.10,14.57,303,2060,7891,-1,-1,0
-20.21,2.10,14.57,294,2055,7885,-1,0,0
-20.21,2.10,14.56,294,2046,7876,-1,0,0
-20.21,2.10,14.55,301,2039,7885,-1,0,0
-20.22,2.11,14.55,303,2043,7884,-1,-1,-1
-20.22,2.11,14.55,298,2050,7879,0,0,-1
-20.22,2.11,14.55,291,2059,7886,-1,-1,0
-20.22,2.11,14.55,289,2059,7879,-1,-1,0
-20.22,2.11,14.55,303,2051,7889,-1,-1,0
-20.22,2.11,14.54,305,2045,7890,0,-1,0
-20.22,2.12,14.54,313,2036,7890,0,-1,-1
-20.22,2.12,14.54,306,2046,7885,0,0,0
-20.22,2.11,14.54,298,2054,7891,-1,0,0
-20.22,2.11,14.54,296,2046,7889,-1,0,0
-20.23,2.11,14.54,305,2046,7882,-1,-1,0
-20.23,2.11,14.54,302,2044,7875,0,0,0
-20.23,2.11,14.54,305,2050,7877,-1,-1,0
-20.24,2.12,14.54,301,2048,7880,-1,0,0
-20.24,2.12,14.54,309,2050,7890,-1,-1,-1
-20.24,2.12,14.54,305,2049,7890,-1,0,-1
-20.24,2.11,14.53,303,2051,7896,-1,0,-1
-20.24,2.11,14.53,301,2041,7898,0,-1,0
-20.24,2.11,14.53,299,2038,7892,0,-1,0
-20.25,2.12,14.53,314,2044,7888,0,-1,0
-20.25,2.13,14.54,323,2045,7872,0,-1,0
-20.25,2.13,14.54,322,2055,7873,-1,0,0
-20.25,2.13,14.54,315,2057,7885,-1,0,-1
-20.25,2.12,14.54,300,2052,7889,-1,0,-1
-20.25,2.12,14.54,300,2044,7890,0,-1,-1
-20.25,2.13,14.54,304,2041,7886,0,0,0
-20.25,2.12,14.54,302,2044,7887,-1,-1,0
-20.25,2.13,14.54,303,2041,7883,0,0,0
-20.26,2.13,14.54,295,2041,7888,0,-1,0
-20.26,2.13,14.54,298,2046,7884,0,-1,0
-20.26,2.13,14.54,304,2054,7882,0,0,-1
-20.26,2.13,14.54,305,2058,7881,-1,0,0
-20.27,2.13,14.54,304,2051,7885,-1,0,0
-20.27,2.13,14.53,310,2048,7899,-1,-1,0
-20.27,2.14,14.53,314,2037,7894,-1,-1,-1
-20.27,2.14,14.53,308,2037,7893,0,0,-1
-20.27,2.14,14.53,313,2036,7883,-1,0,-1
-20.27,2.14,14.53,317,2045,7890,-1,0,-1
-20.27,2.14,14.53,311,2047,7895,-1,0,-1
-20.26,2.13,14.53,310,2040,7895,-1,0,-1
-20.26,2.13,14.52,299,2037,7904,0,-1,-1
-20.26,2.13,14.53,307,2041,7903,0,-1,-1
-20.26,2.13,14.53,308,2046,7902,0,0,-1
-20.26,2.13,14.54,312,2048,7897,0,-1,-1
-20.25,2.13,14.54,309,2057,7891,0,0,-1
-20.25,2.13,14.54,303,2057,7890,0,-1,-1
-20.25,2.13,14.54,305,2056,7881,0,0,-1
-20.25,2.13,14.54,302,2048,7885,0,0,-1
-20.25,2.13,14.54,307,2045,7895,-1,0,-1
-20.25,2.12,14.54,304,2043,7884,0,0,-1
-20.25,2.12,14.55,306,2048,7883,0,-1,-1
-20.25,2.12,14.55,316,2057,7877,-1,-1,-1
-20.25,2.12,14.55,315,2058,7884,-1,0,-1
-20.24,2.12,14.55,309,2045,7886,-1,0,-1
-20.24,2.11,14.54,302,2032,7894,-1,0,-1
-20.24,2.10,14.54,298,2039,7896,0,-1,-1
-20.23,2.10,14.54,300,2050,7886,0,-1,-1
-20.23,2.10,14.55,305,2051,7883,0,0,-1
-20.23,2.10,14.55,303,2050,7887,-1,0,-1
-20.22,2.09,14.54,303,2045,7884,0,0,-1
-20.22,2.09,14.55,303,2046,7890,0,0,-1
-20.21,2.09,14.55,302,2047,7897,0,0,-1
-20.21,2.09,14.55,296,2045,7894,0,0,-1
-20.21,2.08,14.55,297,2044,7887,0,0,-1
-20.21,2.08,14.56,302,2049,7881,0,-1,-1
-20.21,2.08,14.56,305,2055,7882,0,0,-1
-20.20,2.07,14.55,305,2050,7878,-1,0,-1
-20.20,2.07,14.55,309,2045,7887,-1,0,-1
-20.19,2.06,14.55,303,2039,7895,-1,0,-1
-20.19,2.06,14.55,303,2038,7899,0,0,-1
-20.19,2.06,14.55,300,2035,7889,0,0,-1
-20.19,2.06,14.56,308,2040,7877,0,0,-1
-20.19,2.06,14.56,307,2045,7880,0,0,-1
-20.18,2.05,14.56,308,2049,7887,-1,0,-1
-20.18,2.04,14.56,304,2056,7886,0,0,-1
-20.17,2.04,14.56,305,2055,7890,0,0,-1
-20.17,2.03,14.56,297,2055,7896,-1,0,-1
-20.16,2.03,14.56,293,2052,7893,0,0,-1
-20.16,2.02,14.56,295,2045,7897,0,0,-1
-20.16,2.02,14.56,297,2050,7892,0,0,-1
-20.16,2.01,14.57,297,2062,7884,0,0,-1
-20.15,2.01,14.57,297,2061,7879,0,0,-1
-20.15,2.01,14.57,289,2062,7889,-1,0,-1
-20.15,2.00,14.56,289,2055,7892,-1,0,-1
-20.15,2.00,14.56,289,2041,7896,-1,0,-1
-20.14,2.00,14.56,298,2034,7890,0,0,-1
-20.14,1.99,14.55,297,2036,7891,-1,0,-1
-20.13,1.99,14.55,291,2037,7885,-1,0,-1
-20.13,1.98,14.55,289,2045,7889,0,0,-1
-20.12,1.96,14.55,282,2050,7881,-1,0,-1
-20.12,1.96,14.55,277,2050,7882,-1,0,-1
-20.12,1.95,14.55,282,2048,7885,0,0,-1
-20.11,1.94,14.55,282,2041,7884,0,0,-1
-20.11,1.94,14.55,277,2038,7891,0,0,-1
-20.10,1.93,14.56,273,2047,7892,0,0,-1
-20.10,1.93,14.56,283,2054,7885,0,0,-1
-20.09,1.92,14.56,279,2053,7885,0,0,-1
-20.09,1.91,14.57,278,2059,7875,-1,0,-1
-20.09,1.90,14.57,269,2045,7872,-1,0,-1
-20.09,1.90,14.55,271,2034,7882,-1,0,-1
-20.08,1.89,14.56,279,2045,7888,0,-1,-1
-20.07,1.89,14.57,276,2056,7889,0,0,-1
-20.07,1.88,14.57,270,2058,7888,-1,0,-1
-20.07,1.88,14.56,275,2049,7872,-1,0,-1
-20.07,1.87,14.56,275,2046,7873,-1,0,-1
-20.06,1.87,14.56,273,2050,7887,0,0,-1
-20.05,1.86,14.56,272,2047,7887,0,0,-1
-20.05,1.85,14.56,263,2054,7894,0,0,-1
-20.05,1.85,14.56,264,2053,7888,0,0,-1
-20.05,1.84,14.56,267,2056,7888,-1,0,-1
-20.05,1.84,14.56,264,2050,7892,0,0,-1
-20.04,1.84,14.56,261,2047,7886,0,0,-1
-20.04,1.84,14.57,260,2054,7885,0,-1,-1
-20.04,1.84,14.58,263,2056,7891,0,-1,-1
-20.04,1.84,14.58,271,2063,7898,-1,0,-1
-20.03,1.84,14.57,269,2050,7894,0,0,-1
-20.03,1.84,14.58,262,2047,7895,0,-1,-1
-20.03,1.83,14.58,261,2056,7897,0,0,-1
-20.03,1.83,14.58,266,2049,7888,0,0,-1
-20.03,1.83,14.59,268,2033,7887,0,-1,0
-20.03,1.83,14.59,268,2037,7882,0,-1,0
-20.03,1.84,14.59,271,2047,7885,0,-1,-1
-20.03,1.84,14.60,272,2069,7892,-1,-1,-1
-20.03,1.84,14.60,267,2064,7887,-1,-1,0
-20.03,1.84,14.59,270,2056,7894,-1,-1,0
-20.03,1.85,14.59,266,2049,7897,0,-1,0
-20.03,1.85,14.59,266,2042,7886,0,-1,-1
-20.03,1.85,14.59,265,2053,7881,0,-1,-1
-20.04,1.85,14.60,271,2058,7883,-1,-1,0
-20.04,1.86,14.60,269,2057,7888,-1,-1,0
-20.05,1.86,14.60,270,2067,7887,0,-1,0
-20.05,1.86,14.60,258,2056,7889,-1,-1,0
-20.05,1.86,14.59,261,2049,7895,-1,-1,0
-20.05,1.86,14.59,266,2047,7895,0,-1,0
-20.06,1.87,14.59,267,2038,7904,0,-1,0
-20.06,1.87,14.58,267,2036,7896,0,-1,0
-20.06,1.87,14.58,268,2041,7881,0,0,-1
-20.06,1.87,14.59,267,2047,7894,0,-1,0
-20.06,1.87,14.59,269,2060,7872,-1,-1,0
-20.06,1.88,14.59,267,2070,7875,-1,-1,0
-20.06,1.88,14.58,272,2057,7879,-1,0,0
-20.07,1.88,14.57,270,2040,7889,-1,0,0
-20.07,1.88,14.57,268,2036,7900,0,-1,0
-20.07,1.88,14.57,276,2044,7894,0,-1,-1
-20.07,1.89,14.58,280,2057,7892,0,-1,0
-20.07,1.89,14.58,281,2064,7885,-1,-1,0
-20.07,1.90,14.58,290,2063,7883,-1,-1,0
-20.07,1.90,14.58,281,2056,7889,-1,-1,-1
-20.07,1.91,14.57,284,2044,7886,0,-1,-1
-20.07,1.91,14.57,279,2042,7886,0,-1,-1
-20.07,1.91,14.58,280,2055,7881,0,-1,-1
-20.07,1.91,14.58,284,2053,7883,-1,0,-1
-20.07,1.91,14.57,278,2050,7885,-1,0,0
-20.07,1.91,14.57,280,2048,7893,0,0,-1
-20.07,1.91,14.57,276,2046,7902,0,-1,-1
-20.07,1.91,14.58,280,2059,7890,-1,-1,-1
-20.07,1.92,14.58,282,2062,7902,-1,-1,-1
-20.07,1.92,14.57,272,2052,7892,0,-1,0
-20.07,1.93,14.58,305,2042,7883,0,0,-1
-20.06,1.92,14.58,277,2059,7884,0,-1,-1
-20.07,1.92,14.59,280,2054,7879,0,-1,0
-20.07,1.93,14.58,286,2054,7882,-1,-1,0
-20.07,1.93,14.58,276,2059,7878,-1,-1,0
-20.07,1.93,14.58,274,2052,7887,0,-1,0
-20.07,1.93,14.58,284,2048,7880,-1,-1,0
-20.08,1.94,14.58,278,2043,7885,0,-1,0
-20.08,1.95,14.59,298,2057,7873,0,0,-1
-20.07,1.95,14.59,281,2059,7881,-1,-1,-1
-20.07,1.95,14.59,281,2072,7891,-1,0,0
-20.08,1.95,14.58,259,2059,7889,-1,-1,0
-20.09,1.96,14.57,287,2030,7891,-1,-1,0
-20.10,1.97,14.57,291,2031,7887,0,0,-1
-20.10,1.97,14.58,289,2048,7883,0,-1,-1
-20.10,1.97,14.58,282,2045,7879,-1,-1,0
-20.10,1.98,14.58,296,2061,7887,-1,0,0
-20.10,1.99,14.58,299,2045,7894,0,-1,0
-20.11,1.99,14.58,292,2041,7887,0,-1,0
-20.10,2.00,14.59,277,2059,7881,-1,-1,0
-20.11,2.01,14.59,297,2057,7899,0,-1,0
-20.11,2.01,14.58,284,2057,7885,-1,0,0
-20.12,2.02,14.58,292,2033,7877,0,-1,0
-20.13,2.02,14.59,304,2055,7881,0,0,0
-20.13,2.02,14.60,289,2088,7868,-1,-1,-1
-20.14,2.03,14.60,297,2063,7872,-1,-1,0
-20.14,2.03,14.59,302,2060,7885,-1,0,0
-20.14,2.03,14.58,289,2068,7886,-1,0,0
-20.15,2.03,14.57,300,2048,7907,-1,-1,0
-20.15,2.04,14.57,300,2033,7893,-1,0,0
-20.15,2.04,14.56,294,2039,7883,0,0,0
-20.15,2.04,14.55,299,2041,7892,-1,0,-1
-20.15,2.04,14.55,300,2039,7880,-1,-1,-1
-20.15,2.04,14.55,299,2056,7883,0,-1,-1
-20.15,2.04,14.55,290,2061,7881,-1,-1,0
-20.16,2.04,14.54,296,2052,7887,-1,-1,0
-20.16,2.05,14.54,299,2039,7893,0,-1,0
-20.16,2.05,14.55,300,2039,7891,0,-1,0
-20.16,2.06,14.55,304,2040,7889,0,-1,-1
-20.16,2.05,14.56,299,2052,7887,0,0,0
-20.16,2.05,14.56,290,2059,7887,-1,-1,0
-20.16,2.06,14.55,297,2050,7893,-1,-1,0
-20.16,2.06,14.55,296,2044,7893,0,-1,-1
-20.17,2.06,14.55,289,2044,7888,0,-1,0
-20.17,2.07,14.55,292,2042,7887,0,-1,0
-20.17,2.07,14.55,303,2045,7879,0,-1,0
-20.17,2.07,14.55,302,2050,7882,-1,0,0
-20.17,2.07,14.55,306,2047,7886,-1,0,-1
-20.17,2.07,14.55,304,2048,7886,0,0,-1
-20.17,2.07,14.55,300,2045,7896,0,0,-1
-20.17,2.07,14.55,299,2050,7904,0,-1,0
-20.17,2.07,14.55,305,2058,7905,0,-1,0
-20.17,2.08,14.56,302,2055,7894,0,0,0
-20.18,2.07,14.55,300,2049,7890,0,0,0
-20.18,2.07,14.55,298,2044,7883,0,-1,0
-20.18,2.08,14.56,301,2058,7890,0,-1,-1
-20.18,2.08,14.56,307,2062,7893,-1,-1,0
-20.18,2.08,14.55,303,2040,7896,0,0,0
-20.18,2.08,14.55,301,2033,7892,0,0,0
-20.19,2.08,14.56,293,2044,7890,0,-1,0
-20.19,2.08,14.56,295,2056,7886,0,-1,0
-20.19,2.08,14.56,298,2061,7884,-1,0,0
-20.19,2.09,14.56,302,2051,7889,-1,0,0
-20.19,2.08,14.55,291,2040,7902,-1,-1,0
-20.20,2.08,14.55,301,2034,7911,0,-1,0
-20.20,2.09,14.55,313,2030,7896,0,-1,-1
-20.20,2.09,14.56,316,2042,7887,0,0,-1
