Yaw,Pitch,Roll,AX,AY,AZ,GX,GY,GZ
-163.60,3.71,-27.01,508,-3743,7354,-1,-1,-1
-163.60,3.71,-27.01,522,-3750,7353,-1,-1,-1
-163.60,3.71,-27.02,530,-3756,7356,-1,-1,-1
-163.60,3.71,-27.02,541,-3759,7353,0,-1,-1
-163.59,3.71,-27.02,546,-3749,7343,0,0,-1
-163.59,3.71,-27.01,554,-3744,7344,0,0,0
-163.59,3.71,-27.00,544,-3732,7357,0,0,0
-163.59,3.71,-27.00,529,-3731,7357,-1,0,0
-163.59,3.71,-27.01,526,-3730,7339,-1,-1,0
-163.59,3.71,-27.01,520,-3741,7344,-1,-1,0
-163.60,3.71,-27.02,533,-3745,7327,-1,-1,0
-163.60,3.72,-27.02,530,-3756,7339,-1,-1,-1
-163.60,3.72,-27.02,533,-3756,7344,0,-1,-1
-163.60,3.72,-27.02,526,-3761,7350,0,-1,-1
-163.59,3.73,-27.02,536,-3763,7342,0,0,-1
-163.59,3.73,-27.01,544,-3754,7339,0,-1,-1
-163.59,3.73,-27.00,540,-3745,7347,0,-1,-1
-163.58,3.73,-26.99,545,-3740,7354,0,-1,0
-163.58,3.74,-26.99,541,-3741,7351,-1,-1,0
-163.58,3.74,-27.00,541,-3741,7350,-1,-1,0
-163.58,3.74,-27.00,545,-3746,7355,-1,-1,0
-163.59,3.74,-27.01,538,-3752,7357,-1,-1,0
-163.59,3.74,-27.01,541,-3760,7354,-1,-1,0
-163.59,3.74,-27.01,539,-3752,7349,0,-1,-1
-163.58,3.74,-27.01,538,-3747,7352,0,0,-1
-163.58,3.74,-27.01,537,-3740,7350,0,-1,-1
-163.58,3.74,-27.00,538,-3740,7348,0,-1,-1
-163.58,3.75,-27.00,532,-3738,7352,0,-1,0
-163.58,3.75,-27.00,536,-3742,7348,-1,0,0
-163.58,3.75,-27.00,531,-3739,7354,0,-1,0
-163.58,3.75,-26.99,538,-3733,7354,0,-1,-1
-163.58,3.75,-26.99,541,-3734,7349,-1,-1,-1
-163.58,3.75,-26.99,547,-3733,7333,-1,-1,0
-163.58,3.75,-27.00,547,-3740,7337,-1,-1,0
-163.59,3.75,-27.00,543,-3746,7327,-1,0,0
-163.59,3.75,-27.00,544,-3759,7345,0,0,0
-163.59,3.75,-27.00,535,-3749,7355,0,-1,-1
-163.59,3.75,-27.00,526,-3741,7355,-1,-1,-1
-163.59,3.75,-26.99,528,-3736,7348,0,-1,-1
-163.58,3.76,-26.99,545,-3733,7344,0,-1,-1
-163.59,3.76,-26.99,551,-3742,7350,0,-1,0
-163.59,3.76,-26.99,543,-3737,7347,-1,0,0
-163.59,3.76,-26.99,540,-3736,7343,-1,0,0
-163.59,3.76,-26.99,540,-3736,7338,-1,-1,0
-163.59,3.76,-27.00,537,-3741,7345,-1,-1,-1
-163.59,3.76,-26.99,540,-3745,7351,0,-1,-1
-163.58,3.76,-26.99,555,-3750,7350,0,-1,-1
-163.58,3.77,-26.99,558,-3745,7358,0,-1,-1
-163.58,3.77,-26.98,558,-3733,7355,0,0,0
-163.57,3.77,-26.98,555,-3735,7348,-1,0,0
-163.58,3.76,-26.98,546,-3736,7350,-1,0,0
-163.58,3.76,-26.98,529,-3737,7349,-1,-1,0
-163.58,3.76,-26.99,523,-3739,7366,-1,-1,0
-163.59,3.76,-27.00,526,-3747,7351,-1,-1,-1
-163.58,3.77,-27.00,535,-3750,7347,-1,-1,-1
-163.58,3.77,-27.00,548,-3755,7344,0,-1,-1
-163.58,3.77,-27.00,556,-3759,7338,0,0,-1
-163.58,3.78,-26.99,560,-3745,7343,0,0,0
-163.58,3.77,-26.98,559,-3739,7356,0,0,0
-163.58,3.77,-26.98,559,-3732,7351,0,0,0
-163.59,3.77,-26.98,545,-3739,7362,-1,0,0
-163.59,3.77,-26.98,531,-3742,7360,-1,-1,0
-163.59,3.77,-26.99,534,-3744,7352,-1,-1,-1
-163.59,3.77,-27.00,541,-3748,7346,-1,-1,-1
-163.59,3.77,-27.00,545,-3757,7342,-1,-1,0
-163.59,3.78,-27.00,544,-3757,7338,0,-1,0
-163.59,3.78,-27.00,542,-3754,7349,0,0,-1
-163.59,3.78,-26.99,526,-3747,7346,0,0,0
-163.59,3.77,-26.99,521,-3741,7343,0,-1,-1
-163.59,3.78,-26.99,534,-3738,7338,0,-1,-1
-163.59,3.78,-26.99,551,-3735,7339,-1,-1,-1
-163.59,3.78,-26.99,559,-3734,7348,-1,-1,0
-163.59,3.79,-26.99,566,-3739,7336,-1,0,0
-163.59,3.78,-27.00,559,-3743,7343,-1,0,0
-163.59,3.78,-27.00,552,-3748,7336,-1,0,0
-163.59,3.78,-27.00,549,-3744,7336,-1,-1,-1
-163.59,3.78,-27.01,550,-3751,7336,-1,-1,0
-163.59,3.79,-27.01,545,-3754,7333,-1,-1,-1
-163.59,3.79,-27.01,549,-3744,7343,0,-1,0
-163.59,3.79,-27.01,552,-3741,7352,-1,-1,0
-163.59,3.79,-27.01,544,-3735,7355,-1,0,0
-163.59,3.78,-27.01,543,-3741,7348,-1,0,0
-163.59,3.78,-27.01,536,-3743,7346,0,0,-1
-163.59,3.78,-27.01,538,-3738,7338,-1,-1,-1
-163.59,3.78,-27.01,541,-3743,7350,-1,-1,0
-163.59,3.79,-27.01,552,-3749,7346,-1,-1,-1
-163.59,3.78,-27.02,546,-3750,7347,-1,0,0
-163.59,3.79,-27.02,545,-3749,7343,-1,-1,0
-163.59,3.79,-27.02,547,-3750,7347,-1,-1,0
-163.59,3.79,-27.02,555,-3750,7355,0,-1,0
-163.59,3.79,-27.02,559,-3749,7353,-1,-1,0
-163.59,3.79,-27.02,547,-3749,7351,-1,0,-1
-163.60,3.79,-27.02,543,-3746,7339,-1,-1,0
-163.60,3.79,-27.03,545,-3757,7349,-1,-1,0
-163.60,3.80,-27.03,539,-3759,7345,0,-1,0
-163.60,3.80,-27.03,540,-3763,7338,0,-1,0
-163.60,3.81,-27.03,553,-3764,7336,0,-1,-1
-163.60,3.81,-27.03,564,-3753,7349,0,0,0
-163.60,3.80,-27.02,565,-3740,7353,-1,0,0
-163.60,3.80,-27.02,553,-3737,7354,-1,0,0
-163.60,3.80,-27.03,537,-3726,7347,-1,-1,0
-163.61,3.80,-27.04,530,-3735,7344,-1,-1,0
-163.61,3.80,-27.04,533,-3744,7347,-1,-1,0
-163.61,3.81,-27.05,540,-3749,7340,-1,-1,-1
-163.61,3.81,-27.06,551,-3761,7341,-1,-1,-1
-163.61,3.82,-27.05,565,-3760,7338,0,-1,-1
-163.61,3.83,-27.05,567,-3758,7338,0,0,0
-163.61,3.82,-27.04,567,-3756,7328,0,0,0
-163.61,3.82,-27.03,561,-3744,7343,0,0,0
-163.61,3.82,-27.03,559,-3742,7353,0,0,0
-163.61,3.82,-27.03,555,-3736,7354,-1,-1,0
-163.61,3.82,-27.03,550,-3735,7353,-1,-1,0
-163.61,3.82,-27.05,552,-3741,7348,-1,-1,0
-163.61,3.82,-27.05,549,-3755,7340,-1,-1,0
-163.61,3.83,-27.06,549,-3759,7330,-1,0,0
-163.62,3.82,-27.06,543,-3759,7326,0,0,-1
-163.62,3.81,-27.06,542,-3759,7340,0,0,0
-163.62,3.81,-27.04,545,-3753,7346,0,0,-1
-163.61,3.81,-27.04,546,-3753,7351,0,0,-1
-163.61,3.80,-27.03,542,-3753,7350,0,0,-1
-163.61,3.81,-27.03,550,-3747,7353,0,-1,0
-163.61,3.81,-27.02,558,-3749,7355,0,-1,0
-163.61,3.81,-27.02,554,-3738,7351,0,-1,0
-163.61,3.81,-27.02,560,-3748,7358,-1,0,0
-163.61,3.81,-27.02,551,-3751,7353,0,0,0
-163.61,3.81,-27.02,543,-3747,7355,-1,0,0
-163.61,3.81,-27.02,539,-3752,7349,0,-1,-1
-163.61,3.81,-27.02,545,-3753,7341,0,0,0
-163.60,3.81,-27.01,554,-3746,7347,0,0,-1
-163.60,3.81,-27.01,554,-3739,7345,0,0,0
-163.60,3.81,-27.00,547,-3746,7355,0,0,-1
-163.60,3.81,-27.00,541,-3738,7350,0,0,-1
-163.60,3.81,-26.99,544,-3730,7358,0,0,-1
-163.60,3.81,-26.99,549,-3736,7364,-1,-1,-1
-163.60,3.81,-26.99,555,-3740,7350,-1,-1,0
-163.60,3.81,-26.99,552,-3752,7347,0,0,0
-163.60,3.81,-26.99,555,-3748,7347,0,0,0
-163.60,3.81,-26.99,550,-3750,7349,0,0,-1
-163.60,3.80,-26.98,552,-3749,7348,0,0,0
-163.60,3.80,-26.98,545,-3747,7347,0,0,0
-163.59,3.81,-26.98,546,-3748,7346,0,0,-1
-163.59,3.80,-26.97,547,-3736,7358,0,0,0
-163.59,3.80,-26.97,550,-3733,7362,-1,0,0
-163.59,3.80,-26.97,544,-3739,7348,-1,0,0
-163.59,3.80,-26.97,547,-3747,7343,-1,-1,0
-163.59,3.80,-26.97,546,-3745,7341,0,-1,-1
-163.59,3.80,-26.97,549,-3748,7340,0,0,0
-163.59,3.80,-26.97,556,-3746,7358,0,0,0
-163.59,3.80,-26.96,565,-3733,7352,0,0,0
-163.60,3.79,-26.96,549,-3725,7361,-1,0,0
-163.60,3.78,-26.97,535,-3730,7344,-1,0,0
-163.61,3.77,-26.97,526,-3736,7347,-1,-1,0
-163.61,3.78,-26.97,519,-3737,7348,-1,-1,0
-163.61,3.78,-26.98,522,-3750,7346,-1,-1,-1
-163.61,3.78,-26.98,539,-3759,7349,0,-1,-1
-163.60,3.79,-26.98,558,-3757,7339,0,-1,-1
-163.60,3.79,-26.97,568,-3747,7343,0,0,0
-163.60,3.79,-26.96,566,-3744,7345,0,0,0
-163.60,3.78,-26.96,556,-3739,7356,0,0,0
-163.59,3.78,-26.95,556,-3734,7357,0,0,0
-163.59,3.77,-26.95,550,-3721,7360,-1,0,0
-163.60,3.77,-26.95,546,-3718,7352,-1,0,0
-163.60,3.77,-26.96,540,-3721,7346,-1,-1,0
-163.60,3.78,-26.97,542,-3735,7350,-1,-1,0
-163.60,3.78,-26.97,546,-3739,7346,-1,0,0
-163.60,3.77,-26.98,550,-3750,7341,0,0,-1
-163.60,3.77,-26.98,547,-3752,7344,0,0,0
-163.60,3.76,-26.97,543,-3745,7348,0,0,-1
-163.60,3.76,-26.96,534,-3739,7351,0,0,-1
-163.59,3.76,-26.95,535,-3732,7347,0,0,-1
-163.59,3.76,-26.95,542,-3734,7358,0,-1,0
-163.59,3.76,-26.95,553,-3725,7364,-1,0,0
-163.59,3.76,-26.95,557,-3726,7360,-1,0,0
-163.60,3.76,-26.95,552,-3734,7350,-1,0,0
-163.60,3.76,-26.95,547,-3742,7342,-1,0,0
-163.60,3.75,-26.96,539,-3753,7353,0,0,0
-163.60,3.75,-26.96,538,-3753,7355,0,0,0
-163.60,3.75,-26.96,536,-3748,7357,0,0,-1
-163.61,3.74,-26.96,528,-3743,7355,0,0,-1
-163.60,3.74,-26.95,539,-3743,7352,0,0,-1
-163.60,3.74,-26.94,540,-3739,7352,0,0,-1
-163.60,3.74,-26.94,540,-3731,7362,0,0,0
-163.60,3.73,-26.94,542,-3730,7360,-1,0,0
-163.60,3.73,-26.94,535,-3734,7362,-1,0,0
-163.60,3.73,-26.94,542,-3740,7357,-1,0,0
-163.61,3.73,-26.95,538,-3743,7355,-1,0,0
-163.60,3.73,-26.95,539,-3739,7347,-1,0,-1
-163.60,3.73,-26.96,540,-3742,7344,-1,0,-1
-163.60,3.72,-26.96,544,-3738,7352,0,0,0
-163.60,3.72,-26.96,540,-3740,7356,-1,0,0
-163.60,3.72,-26.96,533,-3741,7356,-1,0,0
-163.61,3.71,-26.96,526,-3752,7350,0,0,-1
-163.61,3.71,-26.96,532,-3749,7354,0,-1,-1
-163.61,3.71,-26.96,539,-3743,7351,-1,0,-1
-163.60,3.72,-26.96,547,-3736,7355,-1,0,-1
-163.61,3.71,-26.96,542,-3732,7353,-1,0,0
-163.61,3.71,-26.96,542,-3738,7358,-1,0,0
-163.61,3.72,-26.97,537,-3739,7357,-1,0,0
-163.61,3.72,-26.97,525,-3740,7356,-1,-1,0
-163.61,3.72,-26.97,520,-3755,7352,0,-1,-1
-163.61,3.72,-26.97,530,-3751,7344,0,-1,-1
-163.60,3.72,-26.97,544,-3741,7356,0,-1,-1
-163.60,3.72,-26.96,546,-3736,7370,0,0,-1
-163.60,3.72,-26.95,545,-3723,7363,0,0,0
-163.60,3.72,-26.95,533,-3718,7359,-1,0,0
-163.61,3.71,-26.95,518,-3727,7352,-1,-1,0
-163.61,3.71,-26.95,517,-3733,7354,-1,-1,0
-163.60,3.72,-26.96,520,-3733,7354,-1,-1,-1
-163.60,3.73,-26.97,539,-3743,7349,-1,-1,-1
-163.60,3.74,-26.96,544,-3750,7342,0,-1,-1
-163.59,3.74,-26.96,558,-3742,7338,0,-1,0
-163.59,3.75,-26.95,551,-3738,7341,0,0,-1
-163.59,3.74,-26.94,545,-3732,7360,0,0,0
-163.59,3.74,-26.93,542,-3725,7367,0,0,0
-163.59,3.74,-26.93,537,-3728,7356,-1,0,0
-163.59,3.74,-26.94,528,-3734,7352,-1,-1,0
-163.60,3.75,-26.94,530,-3739,7354,-1,-1,0
-163.60,3.75,-26.95,536,-3739,7358,-1,-1,0
-163.60,3.76,-26.95,541,-3757,7343,-1,-1,0
-163.60,3.76,-26.96,546,-3751,7343,0,-1,0
-163.60,3.76,-26.95,538,-3758,7354,0,0,0
-163.60,3.75,-26.95,536,-3753,7361,0,0,0
-163.60,3.75,-26.94,538,-3734,7368,0,-1,-1
-163.59,3.76,-26.94,533,-3732,7359,0,-1,-1
-163.59,3.76,-26.94,540,-3730,7361,-1,-1,-1
-163.59,3.77,-26.93,548,-3726,7362,-1,-1,-1
-163.59,3.77,-26.94,552,-3729,7363,-1,-1,0
-163.59,3.77,-26.95,553,-3737,7356,-1,0,0
-163.60,3.77,-26.95,555,-3743,7355,-1,0,0
-163.60,3.77,-26.95,544,-3750,7361,-1,0,0
-163.60,3.77,-26.95,546,-3751,7350,0,-1,0
-163.60,3.77,-26.95,538,-3745,7352,0,-1,-1
-163.60,3.77,-26.95,540,-3743,7358,0,-1,-1
-163.60,3.77,-26.95,539,-3741,7356,0,-1,0
-163.60,3.77,-26.95,543,-3733,7351,0,0,0
-163.60,3.77,-26.95,541,-3733,7342,-1,-1,0
-163.60,3.78,-26.95,544,-3736,7347,-1,-1,0
-163.60,3.78,-26.95,545,-3732,7348,0,-1,0
-163.60,3.78,-26.95,543,-3731,7355,-1,-1,0
-163.60,3.78,-26.95,541,-3734,7354,-1,-1,0
-163.60,3.78,-26.95,545,-3739,7355,-1,-1,0
-163.60,3.79,-26.94,546,-3737,7359,0,-1,0
-163.60,3.78,-26.94,541,-3736,7356,0,0,0
-163.60,3.78,-26.94,539,-3737,7349,-1,0,0
-163.61,3.78,-26.95,541,-3741,7348,-1,-1,0
-163.61,3.78,-26.94,540,-3740,7353,0,-1,0
-163.61,3.78,-26.94,535,-3729,7351,-1,-1,-1
-163.61,3.78,-26.94,547,-3727,7351,-1,0,0
-163.61,3.78,-26.94,552,-3728,7352,-1,0,0
-163.61,3.78,-26.95,554,-3727,7346,-1,-1,0
-163.61,3.78,-26.95,553,-3751,7343,-1,-1,0
-163.61,3.79,-26.96,546,-3752,7354,0,-1,0
-163.61,3.79,-26.95,539,-3744,7348,0,-1,-1
-163.61,3.79,-26.95,539,-3743,7349,0,-1,-1
-163.61,3.80,-26.95,553,-3742,7356,0,0,-1
-163.61,3.80,-26.94,560,-3736,7363,0,0,0
-163.61,3.79,-26.94,553,-3724,7357,-1,0,0
-163.61,3.79,-26.95,548,-3735,7350,-1,0,0
-163.61,3.78,-26.95,535,-3734,7342,-1,0,0
-163.62,3.78,-26.97,528,-3744,7340,-1,-1,-1
-163.62,3.78,-26.97,537,-3748,7341,-1,-1,-1
-163.61,3.79,-26.97,555,-3751,7350,-1,-1,-1
-163.61,3.80,-26.97,562,-3756,7351,0,0,-1
-163.61,3.80,-26.96,563,-3751,7352,0,0,0
-163.61,3.80,-26.96,562,-3741,7348,0,0,0
-163.61,3.79,-26.96,555,-3728,7357,0,0,0
-163.61,3.78,-26.95,548,-3725,7358,-1,0,0
-163.62,3.78,-26.96,539,-3723,7359,-1,0,0
-163.62,3.78,-26.96,542,-3735,7361,-1,-1,0
-163.62,3.78,-26.97,543,-3742,7353,-1,0,0
-163.62,3.78,-26.97,549,-3747,7341,-1,0,0
-163.62,3.78,-26.98,550,-3752,7333,-1,0,0
-163.62,3.77,-26.99,544,-3752,7337,0,0,0
-163.62,3.77,-26.98,539,-3748,7350,0,0,0
-163.62,3.76,-26.98,529,-3744,7351,-1,0,-1
-163.63,3.76,-26.98,526,-3740,7351,-1,-1,0
-163.63,3.76,-26.98,538,-3743,7344,-1,0,0
-163.63,3.76,-26.99,545,-3740,7350,-1,-1,0
-163.63,3.76,-27.00,552,-3736,7345,-1,-1,0
-163.64,3.76,-27.01,543,-3748,7345,-1,0,0
-163.64,3.75,-27.01,547,-3747,7357,-1,-1,0
-163.64,3.75,-27.01,538,-3747,7350,-1,0,0
-163.65,3.75,-27.01,535,-3748,7348,-1,-1,0
-163.65,3.76,-27.02,536,-3751,7352,-1,-1,-1
-163.65,3.76,-27.02,545,-3746,7351,-1,-1,0
-163.64,3.77,-27.02,545,-3747,7333,-1,-1,0
-163.64,3.77,-27.03,542,-3751,7329,-1,-1,0
-163.64,3.77,-27.03,545,-3748,7330,0,-1,0
-163.64,3.77,-27.02,550,-3750,7337,-1,-1,0
-163.64,3.77,-27.02,542,-3754,7341,-1,-1,-1
-163.64,3.77,-27.03,545,-3750,7345,-1,-1,-1
-163.64,3.78,-27.03,547,-3755,7347,-1,-1,0
-163.64,3.78,-27.03,544,-3749,7354,-1,-1,-1
-163.65,3.79,-27.03,553,-3750,7347,-1,-1,0
-163.65,3.79,-27.04,551,-3756,7347,-1,0,0
-163.65,3.79,-27.03,554,-3748,7344,0,0,0
-163.65,3.79,-27.03,546,-3745,7330,-1,-1,-1
-163.65,3.79,-27.03,541,-3754,7344,0,-1,-1
-163.65,3.79,-27.03,542,-3756,7351,0,-1,-1
-163.65,3.79,-27.03,554,-3751,7352,0,-1,-1
-163.64,3.80,-27.03,559,-3748,7363,0,-1,-1
-163.64,3.80,-27.02,560,-3744,7361,0,0,-1
-163.64,3.80,-27.03,552,-3749,7358,-1,0,0
-163.65,3.79,-27.03,549,-3745,7357,-1,0,0
-163.65,3.80,-27.04,541,-3745,7350,-1,-1,0
-163.65,3.80,-27.04,535,-3749,7351,-1,-1,0
-163.65,3.80,-27.05,535,-3758,7343,-1,-1,-1
-163.65,3.80,-27.06,539,-3771,7349,-1,-1,-1
-163.64,3.81,-27.06,551,-3766,7346,0,-1,-1
-163.64,3.82,-27.05,554,-3755,7342,0,-1,-1
-163.64,3.82,-27.04,564,-3756,7335,0,0,-1
-163.63,3.82,-27.03,567,-3753,7339,0,0,-1
-163.63,3.81,-27.02,565,-3735,7350,0,0,-1
-163.63,3.81,-27.01,554,-3739,7355,0,0,0
-163.64,3.80,-27.01,547,-3741,7360,0,0,0
-163.64,3.80,-27.01,550,-3742,7354,-1,-1,0
-163.64,3.80,-27.01,552,-3743,7357,0,-1,-1
-163.63,3.81,-27.01,553,-3750,7353,0,-1,-1
-163.63,3.80,-27.01,558,-3759,7345,0,0,-1
-163.63,3.80,-27.01,548,-3761,7343,0,0,-1
-163.63,3.79,-27.00,536,-3746,7349,0,0,0
-163.63,3.79,-26.99,537,-3743,7355,0,0,-1
-163.63,3.79,-26.99,535,-3740,7355,0,-1,-1
-163.63,3.79,-26.99,540,-3742,7342,0,-1,-1
-163.63,3.80,-26.99,552,-3739,7344,0,0,-1
-163.62,3.80,-26.98,561,-3738,7349,0,-1,0
-163.62,3.80,-26.98,556,-3743,7351,-1,0,0
-163.62,3.79,-26.99,559,-3750,7347,-1,0,0
-163.62,3.79,-26.99,548,-3752,7359,0,0,0
-163.63,3.79,-26.98,547,-3751,7356,0,0,0
-163.62,3.79,-26.98,547,-3746,7343,0,0,-1
-163.62,3.79,-26.98,544,-3743,7343,0,-1,-1
-163.62,3.79,-26.98,544,-3742,7342,0,-1,-1
-163.62,3.79,-26.97,548,-3738,7352,0,0,-1
-163.62,3.79,-26.97,539,-3736,7352,0,0,-1
-163.62,3.79,-26.97,536,-3741,7350,0,-1,-1
-163.62,3.79,-26.97,544,-3742,7350,-1,-1,-1
-163.62,3.80,-26.96,552,-3740,7357,-1,-1,0
-163.62,3.80,-26.97,555,-3747,7351,-1,0,0
-163.62,3.80,-26.97,555,-3750,7349,0,0,0
-163.62,3.80,-26.96,551,-3746,7355,0,0,0
-163.62,3.80,-26.97,544,-3748,7345,0,0,0
-163.62,3.80,-26.97,539,-3754,7336,0,-1,0
-163.62,3.80,-26.96,540,-3753,7338,0,-1,-1
-163.62,3.80,-26.96,557,-3744,7344,0,-1,-1
-163.61,3.80,-26.96,564,-3738,7355,0,0,-1
-163.61,3.80,-26.95,566,-3731,7357,0,0,0
-163.61,3.80,-26.95,559,-3731,7357,-1,0,0
-163.61,3.79,-26.95,548,-3724,7345,-1,0,0
-163.62,3.78,-26.96,533,-3727,7341,-1,-1,0
-163.62,3.78,-26.97,525,-3737,7343,-1,-1,0
-163.62,3.78,-26.97,532,-3747,7348,-1,-1,-1
-163.62,3.79,-26.98,542,-3752,7353,0,-1,-1
-163.62,3.79,-26.97,550,-3756,7346,0,0,-1
-163.62,3.79,-26.97,553,-3749,7339,0,0,-1
-163.62,3.79,-26.96,551,-3744,7344,0,0,0
-163.62,3.78,-26.95,552,-3731,7347,0,0,0
-163.62,3.78,-26.94,541,-3740,7366,0,0,0
-163.62,3.77,-26.94,537,-3728,7366,0,0,0
-163.62,3.77,-26.94,524,-3724,7356,-1,0,0
-163.62,3.77,-26.95,530,-3737,7349,-1,-1,-1
-163.62,3.78,-26.96,550,-3742,7343,-1,-1,-1
-163.62,3.78,-26.96,557,-3741,7346,-1,0,0
-163.62,3.77,-26.96,551,-3748,7346,0,0,0
-163.62,3.76,-26.96,546,-3748,7348,0,0,0
-163.62,3.76,-26.96,541,-3746,7353,0,0,0
-163.62,3.75,-26.95,538,-3745,7363,0,0,-1
-163.62,3.75,-26.95,539,-3734,7355,0,0,0
-163.62,3.75,-26.95,538,-3735,7367,-1,0,-1
-163.62,3.75,-26.95,544,-3730,7369,-1,0,0
-163.62,3.75,-26.95,543,-3737,7353,0,0,0
-163.62,3.74,-26.95,542,-3738,7356,-1,0,0
-163.63,3.73,-26.95,543,-3738,7350,-1,0,0
-163.63,3.73,-26.95,542,-3740,7348,0,0,0
-163.63,3.73,-26.95,532,-3742,7362,0,0,0
-163.63,3.72,-26.95,528,-3742,7348,-1,0,-1
-163.62,3.72,-26.95,536,-3738,7347,0,0,-1
-163.62,3.72,-26.95,543,-3734,7353,0,0,0
-163.62,3.72,-26.94,543,-3731,7352,0,0,0
-163.62,3.71,-26.95,546,-3741,7355,0,0,0
-163.62,3.71,-26.95,547,-3738,7368,0,0,0
-163.62,3.71,-26.95,538,-3737,7369,-1,0,0
-163.63,3.71,-26.95,533,-3745,7356,-1,0,0
-163.63,3.71,-26.95,536,-3747,7344,-1,0,-1
-163.63,3.71,-26.95,535,-3736,7350,-1,0,0
-163.63,3.71,-26.95,539,-3732,7348,-1,0,0
-163.63,3.70,-26.96,536,-3735,7347,-1,0,0
-163.64,3.70,-26.96,532,-3744,7342,0,0,0
-163.64,3.70,-26.96,529,-3745,7335,0,0,0
-163.64,3.69,-26.96,526,-3742,7340,0,0,0
-163.64,3.69,-26.96,528,-3737,7341,0,0,0
-163.64,3.69,-26.96,528,-3739,7340,0,-1,0
-163.64,3.69,-26.96,536,-3737,7348,0,0,0
-163.64,3.69,-26.96,536,-3733,7352,-1,0,0
-163.64,3.69,-26.96,536,-3739,7351,-1,0,0
-163.64,3.69,-26.96,529,-3736,7354,-1,0,0
-163.64,3.69,-26.96,525,-3742,7347,-1,-1,0
-163.64,3.69,-26.97,523,-3750,7346,0,-1,-1
-163.64,3.69,-26.97,531,-3755,7349,0,-1,-1
-163.64,3.69,-26.96,542,-3748,7354,0,-1,-1
-163.63,3.70,-26.95,555,-3740,7362,0,0,-1
-163.63,3.70,-26.95,550,-3736,7355,0,0,0
-163.64,3.69,-26.95,540,-3736,7367,0,0,0
-163.64,3.69,-26.95,518,-3722,7360,-1,-1,0
-163.64,3.69,-26.96,509,-3732,7354,-1,-1,-1
-163.64,3.69,-26.96,513,-3738,7348,-1,-1,-1
-163.64,3.70,-26.97,522,-3753,7351,0,-1,-1
-163.63,3.71,-26.97,533,-3755,7350,0,-1,-1
-163.63,3.72,-26.96,548,-3754,7341,0,-1,-1
-163.63,3.72,-26.95,548,-3744,7335,0,0,0
-163.63,3.72,-26.95,552,-3737,7344,0,0,0
-163.62,3.72,-26.93,541,-3721,7357,0,0,-1
-163.62,3.72,-26.92,537,-3710,7370,0,-1,0
-163.62,3.72,-26.92,528,-3718,7353,-1,-1,-1
-163.63,3.72,-26.92,534,-3727,7359,-1,-1,0
-163.63,3.72,-26.93,532,-3732,7353,-1,-1,0
-163.63,3.72,-26.94,535,-3743,7353,-1,-1,0
-163.63,3.73,-26.94,538,-3753,7340,0,-1,0
-163.63,3.72,-26.94,534,-3757,7338,0,0,0
-163.63,3.73,-26.94,537,-3746,7343,0,-1,-1
-163.63,3.72,-26.93,534,-3735,7348,0,0,-1
-163.63,3.72,-26.92,538,-3735,7348,0,-1,0
-163.63,3.72,-26.92,541,-3728,7347,0,-1,0
-163.63,3.73,-26.92,545,-3715,7353,-1,-1,0
-163.63,3.73,-26.92,539,-3724,7349,-1,-1,0
-163.63,3.73,-26.93,537,-3725,7350,-1,0,0
-163.64,3.72,-26.94,539,-3740,7342,-1,0,0
-163.64,3.72,-26.95,533,-3744,7345,-1,-1,0
-163.64,3.72,-26.95,535,-3750,7338,0,0,0
-163.64,3.72,-26.95,536,-3756,7355,0,-1,0
-163.64,3.72,-26.94,532,-3743,7350,0,-1,-1
-163.64,3.73,-26.94,529,-3737,7353,0,-1,-1
-163.64,3.74,-26.94,541,-3735,7341,0,-1,-1
-163.63,3.74,-26.94,552,-3732,7348,0,-1,-1
-163.64,3.74,-26.94,547,-3730,7350,-1,-1,0
-163.64,3.74,-26.94,541,-3728,7350,-1,-1,0
-163.64,3.74,-26.94,546,-3736,7353,-1,0,0
-163.64,3.74,-26.94,540,-3743,7346,-1,-1,0
-163.64,3.74,-26.95,536,-3743,7350,-1,-1,0
-163.64,3.74,-26.95,536,-3745,7350,0,-1,-1
-163.64,3.74,-26.95,539,-3740,7343,0,-1,-1
-163.64,3.75,-26.95,537,-3739,7348,0,-1,-1
-163.64,3.75,-26.95,538,-3737,7352,0,-1,0
-163.64,3.75,-26.94,538,-3734,7357,0,0,0
-163.64,3.75,-26.94,541,-3734,7354,0,0,0
-163.64,3.75,-26.94,541,-3727,7367,0,-1,0
-163.64,3.75,-26.94,542,-3728,7361,-1,-1,0
-163.64,3.75,-26.94,542,-3727,7365,-1,-1,-1
-163.64,3.76,-26.94,539,-3734,7361,-1,-1,0
-163.64,3.75,-26.95,543,-3735,7357,-1,0,0
-163.64,3.75,-26.95,540,-3735,7351,-1,-1,0
-163.65,3.75,-26.95,537,-3739,7345,-1,0,0
-163.65,3.75,-26.96,532,-3745,7329,0,-1,0
-163.65,3.75,-26.96,537,-3744,7333,0,-1,-1
-163.65,3.76,-26.96,539,-3737,7342,0,-1,-1
-163.65,3.76,-26.95,548,-3738,7348,0,-1,-1
-163.64,3.76,-26.94,558,-3738,7376,0,-1,0
-163.64,3.76,-26.93,549,-3726,7371,-1,0,0
-163.64,3.76,-26.94,536,-3721,7356,-1,0,0
-163.65,3.75,-26.95,535,-3731,7350,-1,-1,0
-163.65,3.76,-26.96,531,-3737,7336,-1,-1,0
-163.65,3.76,-26.97,541,-3748,7333,-1,-1,0
-163.65,3.77,-26.98,546,-3759,7337,-1,-1,-1
-163.65,3.77,-26.98,549,-3762,7339,0,-1,-1
-163.65,3.77,-26.98,553,-3763,7347,0,-1,-1
-163.65,3.77,-26.97,552,-3751,7351,0,-1,0
-163.64,3.77,-26.96,558,-3734,7361,0,0,0
-163.64,3.77,-26.95,558,-3737,7364,0,0,0
-163.65,3.77,-26.95,548,-3739,7363,-1,0,0
-163.65,3.76,-26.96,540,-3737,7362,-1,0,0
-163.65,3.76,-26.97,541,-3746,7354,-1,-1,0
-163.65,3.77,-26.98,540,-3749,7355,-1,-1,0
-163.66,3.77,-26.98,543,-3757,7349,-1,0,0
-163.66,3.77,-26.98,547,-3749,7349,-1,0,0
-163.65,3.77,-26.99,543,-3752,7351,0,0,0
-163.65,3.76,-26.98,537,-3752,7349,0,0,-1
-163.65,3.76,-26.98,536,-3751,7348,-1,-1,0
-163.65,3.76,-26.99,540,-3746,7351,-1,-1,0
-163.65,3.77,-26.99,547,-3738,7350,-1,-1,0
-163.66,3.77,-27.00,550,-3742,7351,-1,-1,0
-163.66,3.77,-27.00,546,-3745,7354,-1,-1,0
-163.66,3.77,-27.00,551,-3745,7351,-1,0,0
-163.66,3.77,-27.01,556,-3749,7347,-1,0,0
-163.66,3.77,-27.01,544,-3745,7340,-1,-1,0
-163.66,3.77,-27.01,543,-3740,7337,-1,0,0
-163.66,3.77,-27.02,549,-3739,7337,-1,-1,0
-163.66,3.77,-27.02,552,-3735,7350,-1,0,0
-163.66,3.77,-27.02,549,-3734,7335,-1,-1,0
-163.66,3.77,-27.02,544,-3745,7358,-1,-1,0
-163.66,3.77,-27.02,540,-3738,7349,-1,-1,0
-163.67,3.77,-27.03,537,-3742,7352,-1,-1,0
-163.67,3.77,-27.03,536,-3747,7340,-1,-1,0
-163.67,3.78,-27.03,547,-3749,7337,-1,-1,0
-163.67,3.78,-27.03,556,-3750,7350,-1,0,0
-163.67,3.78,-27.03,550,-3750,7359,-1,0,0
-163.67,3.78,-27.03,548,-3754,7358,0,0,0
-163.67,3.77,-27.03,546,-3749,7353,0,-1,0
-163.67,3.78,-27.03,545,-3749,7355,-1,-1,0
-163.67,3.78,-27.03,542,-3741,7354,-1,-1,0
-163.67,3.78,-27.03,543,-3749,7352,-1,-1,0
-163.67,3.78,-27.03,550,-3743,7358,-1,-1,0
-163.67,3.78,-27.03,553,-3747,7354,-1,-1,0
-163.67,3.78,-27.04,554,-3749,7353,-1,0,0
-163.67,3.78,-27.04,552,-3751,7346,-1,0,0
-163.68,3.78,-27.05,543,-3759,7341,-1,0,0
-163.68,3.78,-27.05,543,-3758,7332,0,0,0
-163.68,3.78,-27.05,537,-3756,7337,0,0,-1
-163.67,3.78,-27.04,547,-3744,7343,0,0,-1
-163.67,3.78,-27.03,557,-3745,7345,0,0,0
-163.67,3.77,-27.03,563,-3735,7337,0,0,0
-163.67,3.77,-27.02,555,-3733,7342,0,0,0
-163.67,3.76,-27.02,537,-3734,7345,-1,0,0
-163.67,3.75,-27.03,530,-3749,7339,-1,0,0
-163.67,3.75,-27.03,524,-3756,7341,-1,-1,-1
-163.67,3.75,-27.03,526,-3755,7342,0,-1,-1
-163.67,3.76,-27.03,539,-3757,7334,0,-1,-1
-163.66,3.76,-27.03,541,-3753,7342,0,0,-1
-163.66,3.76,-27.02,543,-3748,7344,0,-1,0
-163.66,3.76,-27.00,554,-3749,7358,0,0,-1
-163.66,3.76,-27.00,554,-3740,7363,0,0,0
-163.66,3.76,-26.99,545,-3733,7362,-1,0,0
-163.66,3.76,-26.99,542,-3739,7355,-1,-1,-1
-163.66,3.76,-27.00,543,-3736,7349,-1,-1,-1
-163.66,3.77,-27.00,550,-3740,7346,-1,-1,0
-163.66,3.77,-27.00,554,-3744,7339,-1,-1,0
-163.66,3.77,-27.00,549,-3753,7336,0,-1,-1
-163.66,3.77,-27.00,548,-3757,7341,0,0,-1
-163.66,3.77,-27.00,543,-3751,7345,0,0,-1
-163.66,3.77,-26.99,542,-3748,7347,0,0,-1
-163.66,3.77,-26.98,542,-3735,7351,0,0,-1
-163.65,3.77,-26.98,549,-3736,7360,0,-1,-1
-163.65,3.77,-26.98,554,-3735,7363,-1,-1,0
-163.65,3.77,-26.98,554,-3736,7352,-1,0,0
-163.65,3.77,-26.98,554,-3747,7355,-1,0,0
-163.65,3.77,-26.98,548,-3751,7352,0,0,0
-163.65,3.76,-26.98,541,-3749,7352,0,0,0
-163.66,3.76,-26.98,538,-3751,7350,0,0,-1
-163.66,3.75,-26.99,540,-3748,7344,0,0,0
-163.65,3.75,-26.98,536,-3744,7348,0,0,0
-163.65,3.75,-26.98,539,-3741,7349,0,0,0
-163.65,3.75,-26.98,540,-3742,7336,0,0,-1
-163.65,3.75,-26.98,539,-3738,7336,0,0,0
-163.65,3.75,-26.98,537,-3747,7341,0,0,0
-163.66,3.74,-26.98,542,-3751,7354,-1,0,0
-163.66,3.74,-26.98,541,-3747,7356,-1,0,0
-163.66,3.74,-26.98,534,-3740,7354,-1,-1,0
-163.65,3.75,-26.99,544,-3748,7344,0,-1,-1
-163.65,3.75,-26.98,548,-3742,7343,0,0,0
-163.65,3.75,-26.98,548,-3735,7355,0,0,0
-163.65,3.75,-26.98,543,-3740,7366,0,0,0
-163.65,3.74,-26.97,537,-3746,7368,0,-1,0
-163.65,3.74,-26.97,533,-3745,7361,-1,-1,0
-163.65,3.74,-26.97,527,-3734,7351,0,-1,-1
-163.66,3.74,-26.97,529,-3743,7356,-1,-1,0
-163.66,3.74,-26.98,530,-3758,7341,0,-1,-1
-163.66,3.75,-26.98,526,-3761,7341,0,-1,-1
-163.65,3.76,-26.97,534,-3747,7344,0,-1,-1
-163.65,3.77,-26.95,548,-3739,7345,0,-1,-1
-163.64,3.78,-26.94,571,-3724,7351,0,0,-1
-163.63,3.78,-26.93,572,-3702,7345,0,0,0
-163.63,3.78,-26.93,562,-3695,7345,-1,0,0
-163.63,3.76,-26.93,546,-3708,7359,-1,0,0
-163.64,3.75,-26.94,533,-3715,7356,-1,0,0
-163.65,3.74,-26.96,525,-3728,7357,-1,-1,0
-163.65,3.75,-26.98,529,-3748,7345,-1,-1,-1
-163.65,3.75,-26.98,532,-3770,7341,-1,-1,-1
-163.65,3.76,-26.98,555,-3768,7344,0,0,0
-163.64,3.75,-26.98,560,-3760,7346,0,0,-1
-163.64,3.75,-26.97,559,-3745,7342,0,0,0
-163.65,3.74,-26.96,560,-3736,7355,0,0,0
-163.64,3.73,-26.95,545,-3727,7360,0,0,0
-163.65,3.72,-26.95,537,-3728,7360,-1,0,0
-163.65,3.72,-26.95,524,-3720,7348,-1,-1,0
-163.65,3.72,-26.96,523,-3730,7353,-1,-1,0
-163.65,3.72,-26.97,529,-3742,7348,-1,-1,0
-163.65,3.72,-26.98,536,-3745,7349,-1,0,0
-163.65,3.71,-26.99,540,-3756,7340,-1,0,0
-163.65,3.71,-26.99,544,-3752,7340,0,0,0
-163.66,3.71,-26.98,533,-3749,7346,0,0,-1
-163.66,3.71,-26.98,532,-3747,7356,0,0,0
-163.66,3.70,-26.98,531,-3741,7349,0,0,0
-163.66,3.70,-26.97,539,-3738,7355,0,0,0
-163.66,3.70,-26.97,541,-3739,7362,-1,0,-1
-163.66,3.70,-26.97,541,-3740,7359,-1,0,0
-163.66,3.70,-26.98,546,-3732,7360,-1,0,0
-163.66,3.70,-26.98,542,-3736,7340,-1,0,0
-163.66,3.69,-26.99,538,-3745,7334,-1,0,0
-163.66,3.69,-26.99,533,-3755,7353,0,-1,0
-163.66,3.69,-26.99,523,-3754,7359,-1,0,-1
-163.66,3.69,-26.99,520,-3748,7359,-1,0,-1
-163.66,3.69,-26.99,526,-3747,7355,0,0,-1
-163.66,3.69,-26.99,537,-3749,7359,0,-1,0
-163.65,3.69,-26.98,541,-3741,7359,0,0,0
-163.66,3.69,-26.98,540,-3739,7359,-1,0,0
-163.66,3.69,-26.98,537,-3744,7357,-1,0,0
-163.66,3.69,-26.98,533,-3745,7353,-1,-1,0
-163.66,3.69,-26.98,533,-3741,7362,-1,-1,0
-163.66,3.69,-26.99,531,-3740,7348,-1,-1,-1
-163.66,3.69,-26.99,535,-3742,7341,0,-1,0
-163.66,3.69,-26.99,535,-3742,7331,0,-1,-1
-163.66,3.69,-26.99,539,-3740,7332,0,0,-1
-163.66,3.69,-26.99,534,-3738,7336,0,0,0
-163.66,3.69,-26.99,533,-3735,7342,-1,-1,-1
-163.66,3.69,-26.98,535,-3738,7342,0,-1,-1
-163.66,3.69,-26.98,536,-3741,7352,0,-1,-1
-163.65,3.70,-26.97,539,-3733,7361,0,-1,-1
-163.65,3.70,-26.97,534,-3735,7356,-1,-1,-1
-163.65,3.71,-26.98,526,-3738,7346,-1,-1,0
-163.66,3.71,-26.98,532,-3739,7347,0,-1,0
-163.65,3.71,-26.98,538,-3741,7334,0,-1,0
-163.65,3.72,-26.97,538,-3752,7349,0,-1,-1
-163.65,3.72,-26.97,545,-3743,7370,0,-1,0
-163.65,3.72,-26.96,532,-3735,7365,-1,0,0
-163.65,3.72,-26.96,525,-3732,7353,-1,-1,0
-163.66,3.72,-26.97,520,-3734,7341,-1,-1,0
-163.66,3.72,-26.97,525,-3736,7341,-1,-1,0
-163.65,3.73,-26.97,533,-3735,7345,-1,-1,0
-163.66,3.73,-26.98,544,-3748,7348,-1,-1,-1
-163.65,3.74,-26.98,540,-3751,7351,0,-1,-1
-163.65,3.74,-26.97,548,-3745,7343,0,-1,-1
-163.65,3.74,-26.96,554,-3732,7347,0,-1,-1
-163.65,3.75,-26.96,554,-3728,7350,0,0,0
-163.64,3.75,-26.96,555,-3728,7355,0,0,0
-163.65,3.75,-26.95,548,-3720,7363,-1,0,0
-163.65,3.75,-26.96,541,-3718,7350,-1,-1,0
-163.65,3.74,-26.96,529,-3733,7343,-1,-1,0
-163.65,3.75,-26.97,535,-3742,7348,-1,-1,0
-163.66,3.75,-26.97,537,-3742,7338,-1,-1,-1
-163.66,3.76,-26.98,541,-3746,7343,0,-1,0
-163.66,3.76,-26.98,544,-3757,7343,0,0,-1
-163.65,3.76,-26.97,547,-3753,7356,0,0,-1
-163.65,3.76,-26.96,539,-3748,7362,0,-1,-1
-163.65,3.76,-26.96,536,-3735,7358,0,-1,-1
-163.65,3.76,-26.95,552,-3739,7359,-1,-1,0
-163.65,3.77,-26.95,552,-3728,7354,-1,-1,0
-163.65,3.77,-26.95,550,-3721,7358,-1,-1,0
-163.65,3.77,-26.96,558,-3729,7354,-1,-1,0
-163.65,3.77,-26.97,549,-3743,7361,-1,-1,0
-163.65,3.77,-26.97,540,-3745,7360,0,-1,0
-163.66,3.77,-26.97,537,-3739,7345,-1,-1,0
-163.65,3.78,-26.97,546,-3746,7339,0,-1,-1
-163.65,3.78,-26.97,555,-3745,7351,0,-1,-1
-163.65,3.78,-26.96,555,-3744,7359,0,-1,-1
-163.65,3.78,-26.96,550,-3738,7360,-1,-1,-1
-163.65,3.78,-26.96,551,-3739,7350,0,0,0
-163.65,3.78,-26.96,547,-3734,7347,-1,-1,0
-163.65,3.78,-26.96,548,-3734,7352,0,-1,-1
-163.65,3.79,-26.96,548,-3737,7344,-1,-1,-1
-163.65,3.79,-26.96,551,-3742,7355,-1,0,-1
-163.65,3.79,-26.97,549,-3746,7351,-1,0,0
-163.65,3.79,-26.97,544,-3741,7355,-1,0,0
-163.65,3.79,-26.97,541,-3749,7352,-1,-1,0
-163.65,3.78,-26.97,544,-3745,7355,-1,-1,0
-163.65,3.78,-26.97,537,-3747,7354,0,0,0
-163.65,3.78,-26.97,540,-3747,7354,0,0,-1
-163.65,3.78,-26.97,544,-3743,7360,0,0,-1
-163.65,3.79,-26.96,551,-3739,7352,-1,-1,-1
-163.65,3.79,-26.97,552,-3740,7352,-1,-1,0
-163.65,3.79,-26.97,545,-3737,7352,-1,-1,0
-163.65,3.79,-26.97,553,-3738,7353,-1,0,0
-163.65,3.79,-26.98,550,-3738,7352,-1,0,0
-163.65,3.79,-26.98,544,-3740,7349,-1,0,0
-163.65,3.79,-26.99,536,-3747,7339,-1,-1,0
-163.66,3.78,-26.99,533,-3748,7333,0,-1,0
-163.65,3.79,-26.99,539,-3750,7341,0,-1,-1
-163.65,3.79,-26.98,551,-3737,7348,0,-1,-1
-163.65,3.79,-26.98,568,-3740,7360,0,0,0
-163.65,3.79,-26.97,563,-3731,7353,0,0,0
-163.65,3.78,-26.97,548,-3726,7357,-1,0,0
-163.65,3.78,-26.97,542,-3726,7359,-1,-1,0
-163.66,3.78,-26.98,533,-3729,7347,-1,-1,0
-163.66,3.79,-26.99,535,-3747,7343,-1,-1,-1
-163.65,3.79,-27.00,547,-3749,7345,-1,-1,-1
-163.65,3.80,-27.01,561,-3746,7344,-1,-1,-1
-163.65,3.80,-27.01,561,-3742,7347,0,-1,0
-163.65,3.80,-27.01,565,-3751,7351,0,0,0
-163.65,3.80,-27.00,558,-3742,7350,0,0,0
-163.65,3.79,-26.99,548,-3737,7353,0,0,-1
-163.65,3.79,-26.99,543,-3733,7351,-1,-1,-1
-163.65,3.79,-26.99,540,-3737,7353,-1,-1,-1
-163.65,3.79,-27.00,549,-3739,7349,-1,-1,0
-163.65,3.80,-27.01,550,-3746,7349,-1,-1,0
-163.66,3.80,-27.01,552,-3751,7344,-1,-1,0
-163.66,3.80,-27.02,553,-3760,7336,-1,0,0
-163.66,3.80,-27.02,551,-3754,7346,0,-1,0
-163.66,3.80,-27.01,547,-3750,7339,0,0,0
-163.66,3.80,-27.02,544,-3736,7349,0,0,-1
-163.66,3.80,-27.01,546,-3734,7352,-1,-1,-1
-163.66,3.80,-27.01,550,-3738,7357,-1,-1,-1
-163.66,3.80,-27.02,554,-3737,7360,-1,-1,0
-163.66,3.80,-27.02,551,-3735,7352,-1,-1,0
-163.66,3.80,-27.03,548,-3743,7338,-1,-1,0
-163.66,3.80,-27.04,548,-3747,7341,-1,-1,0
-163.66,3.80,-27.04,550,-3749,7343,0,0,0
-163.67,3.80,-27.04,547,-3747,7342,0,0,0
-163.67,3.80,-27.04,546,-3746,7344,0,-1,-1
-163.67,3.81,-27.03,551,-3748,7354,0,-1,0
-163.67,3.81,-27.03,550,-3738,7353,-1,-1,0
-163.67,3.81,-27.03,549,-3741,7349,-1,0,0
-163.67,3.81,-27.03,543,-3735,7343,-1,-1,0
-163.67,3.81,-27.04,544,-3755,7347,-1,-1,0
-163.67,3.81,-27.04,550,-3749,7357,-1,-1,0
-163.67,3.81,-27.04,549,-3743,7344,-1,-1,-1
-163.67,3.82,-27.05,553,-3743,7344,-1,-1,-1
-163.67,3.82,-27.05,559,-3747,7341,0,0,-1
-163.67,3.81,-27.05,559,-3749,7348,0,0,0
-163.67,3.81,-27.04,559,-3757,7350,0,0,0
-163.67,3.81,-27.04,552,-3760,7346,0,0,0
-163.67,3.80,-27.04,549,-3754,7349,0,0,0
-163.67,3.80,-27.03,544,-3754,7345,0,0,-1
-163.67,3.80,-27.03,545,-3748,7344,0,-1,-1
-163.66,3.80,-27.02,551,-3746,7337,0,0,-1
-163.66,3.80,-27.02,548,-3744,7349,0,0,0
-163.67,3.79,-27.02,543,-3748,7347,-1,0,0
-163.67,3.79,-27.02,541,-3750,7328,0,0,0
-163.67,3.79,-27.02,536,-3762,7338,0,0,0
-163.67,3.79,-27.02,535,-3764,7344,0,0,-1
-163.67,3.79,-27.02,542,-3760,7356,0,0,-1
-163.66,3.79,-27.01,557,-3747,7361,0,0,0
-163.66,3.79,-27.00,569,-3737,7358,0,0,0
-163.66,3.78,-26.99,553,-3729,7340,-1,0,0
-163.67,3.78,-27.00,538,-3730,7346,-1,0,0
-163.68,3.77,-27.00,529,-3735,7353,-1,-1,0
-163.68,3.78,-27.01,530,-3747,7346,-1,-1,0
-163.68,3.79,-27.01,539,-3754,7352,-1,-1,-1
-163.68,3.79,-27.01,550,-3751,7343,0,-1,-1
-163.68,3.80,-27.01,547,-3758,7347,0,-1,-1
-163.67,3.80,-27.00,556,-3756,7341,0,0,-1
-163.67,3.80,-26.99,557,-3754,7353,0,0,-1
-163.67,3.79,-26.98,553,-3734,7354,0,0,0
-163.67,3.79,-26.98,540,-3731,7343,-1,0,-1
-163.67,3.79,-26.98,538,-3730,7349,-1,-1,-1
-163.67,3.79,-26.98,543,-3740,7359,-1,-1,0
-163.67,3.79,-26.99,544,-3740,7350,-1,-1,0
-163.67,3.80,-26.99,548,-3751,7339,-1,-1,0
-163.67,3.79,-26.99,546,-3760,7337,0,-1,0
-163.67,3.79,-26.99,544,-3761,7342,0,0,0
-163.67,3.79,-26.98,544,-3758,7342,0,0,-1
-163.66,3.79,-26.97,552,-3742,7340,0,0,-1
-163.66,3.79,-26.97,550,-3735,7349,0,0,-1
-163.66,3.79,-26.96,552,-3733,7352,0,-1,0
-163.66,3.79,-26.96,561,-3723,7351,-1,-1,0
-163.66,3.79,-26.96,559,-3729,7349,-1,0,0
-163.66,3.79,-26.97,554,-3737,7342,-1,0,0
-163.66,3.79,-26.98,548,-3742,7335,-1,0,0
-163.66,3.78,-26.98,539,-3751,7343,0,0,0
-163.66,3.78,-26.98,540,-3750,7338,0,0,-1
-163.66,3.77,-26.98,545,-3747,7338,0,0,-1
-163.66,3.78,-26.97,548,-3735,7343,0,0,-1
-163.66,3.77,-26.97,546,-3728,7351,0,0,0
-163.66,3.77,-26.96,548,-3731,7349,0,0,0
-163.66,3.77,-26.95,553,-3734,7357,0,0,0
-163.66,3.77,-26.95,547,-3730,7354,0,0,-1
-163.66,3.77,-26.95,545,-3731,7348,-1,-1,-1
-163.66,3.77,-26.96,545,-3729,7347,-1,0,-1
-163.66,3.77,-26.96,549,-3731,7344,-1,-1,0
-163.66,3.77,-26.96,548,-3738,7348,-1,0,0
-163.66,3.77,-26.96,550,-3741,7349,0,0,0
-163.66,3.77,-26.96,546,-3742,7344,0,0,0
-163.66,3.77,-26.96,544,-3751,7349,0,0,-1
-163.66,3.76,-26.96,542,-3747,7363,0,0,0
-163.66,3.76,-26.96,542,-3746,7354,0,0,0
-163.66,3.75,-26.96,536,-3745,7357,0,-1,0
-163.66,3.75,-26.96,540,-3752,7367,0,-1,-1
-163.65,3.76,-26.95,550,-3740,7363,0,0,-1
-163.65,3.76,-26.95,552,-3727,7362,0,0,-1
-163.65,3.75,-26.95,556,-3728,7366,-1,0,0
-163.66,3.75,-26.95,547,-3728,7362,-1,0,0
-163.66,3.74,-26.95,535,-3721,7348,-1,0,0
-163.66,3.73,-26.96,527,-3728,7347,-1,0,0
-163.66,3.73,-26.97,527,-3740,7343,-1,-1,0
-163.67,3.73,-26.98,525,-3749,7336,-1,-1,0
-163.67,3.74,-26.99,537,-3768,7338,0,0,-1
-163.66,3.74,-26.99,540,-3763,7341,0,0,-1
-163.66,3.74,-26.99,539,-3752,7340,0,0,0
-163.66,3.74,-26.98,551,-3746,7334,0,0,-1
-163.65,3.74,-26.97,555,-3742,7345,0,0,-1
-163.65,3.73,-26.97,550,-3727,7341,0,0,0
-163.66,3.72,-26.96,549,-3723,7352,-1,0,0
-163.66,3.72,-26.97,538,-3726,7358,-1,0,0
-163.66,3.72,-26.97,525,-3738,7354,-1,0,0
-163.66,3.71,-26.98,526,-3742,7344,-1,0,0
-163.66,3.71,-26.99,534,-3746,7337,-1,-1,0
-163.66,3.71,-26.99,533,-3752,7335,-1,0,0
-163.66,3.71,-27.00,538,-3757,7335,0,0,-1
-163.66,3.71,-26.99,535,-3753,7340,0,0,0
-163.66,3.71,-26.98,538,-3742,7351,0,0,-1
-163.66,3.70,-26.98,546,-3738,7353,0,0,0
-163.66,3.70,-26.98,542,-3735,7356,0,0,0
-163.66,3.70,-26.97,537,-3728,7355,0,0,0
-163.66,3.70,-26.97,537,-3733,7366,-1,-1,0
-163.66,3.70,-26.98,537,-3732,7354,-1,0,0
-163.66,3.70,-26.98,532,-3741,7351,-1,0,0
-163.66,3.70,-26.99,528,-3748,7339,-1,0,0
-163.67,3.69,-26.99,530,-3756,7348,0,-1,0
-163.66,3.70,-26.99,523,-3747,7357,0,-1,-1
-163.66,3.70,-26.99,521,-3754,7345,0,-1,-1
-163.66,3.70,-26.98,526,-3751,7335,0,-1,-1
-163.66,3.71,-26.98,535,-3746,7344,0,-1,-1
-163.66,3.71,-26.98,546,-3748,7334,0,-1,-1
-163.65,3.71,-26.98,545,-3747,7340,-1,-1,-1
-163.65,3.71,-26.98,541,-3741,7349,0,-1,0
-163.65,3.72,-26.98,538,-3743,7361,-1,-1,-1
-163.64,3.72,-26.97,539,-3738,7365,0,-1,-1
-163.64,3.73,-26.97,538,-3748,7360,-1,-1,-1
-163.64,3.73,-26.97,534,-3745,7361,0,-1,-1
-163.64,3.73,-26.97,542,-3743,7353,0,-1,-1
-163.64,3.73,-26.96,546,-3740,7348,0,0,-1
-163.64,3.73,-26.96,538,-3748,7349,0,0,0
-163.64,3.73,-26.96,532,-3743,7350,0,-1,-1
-163.64,3.73,-26.96,540,-3740,7351,0,-1,-1
-163.64,3.73,-26.96,543,-3740,7359,-1,-1,0
-163.64,3.73,-26.96,539,-3739,7357,-1,-1,0
-163.64,3.73,-26.96,537,-3741,7343,0,-1,0
-163.64,3.74,-26.96,535,-3743,7344,0,-1,-1
-163.64,3.74,-26.96,539,-3743,7347,0,-1,-1
-163.63,3.75,-26.96,541,-3739,7344,0,0,-1
-163.63,3.75,-26.95,550,-3731,7350,-1,0,0
-163.63,3.75,-26.95,551,-3725,7344,-1,0,0
-163.63,3.74,-26.95,540,-3721,7340,-1,-1,0
-163.64,3.73,-26.96,520,-3729,7341,-1,-1,0
-163.64,3.74,-26.96,519,-3733,7348,-1,-1,-1
-163.64,3.74,-26.96,516,-3737,7346,-1,-1,-1
-163.64,3.75,-26.97,527,-3748,7336,-1,-1,-1
-163.64,3.75,-26.97,546,-3760,7334,0,-1,-1
-163.63,3.76,-26.97,567,-3755,7338,0,-1,0
-163.63,3.77,-26.95,568,-3745,7344,0,0,0
-163.63,3.77,-26.95,564,-3744,7356,0,0,0
-163.63,3.76,-26.94,557,-3736,7358,0,0,0
-163.63,3.76,-26.93,546,-3726,7356,0,0,0
-163.63,3.76,-26.93,539,-3727,7355,-1,-1,0
-163.63,3.76,-26.94,538,-3736,7349,-1,-1,0
-163.63,3.76,-26.95,537,-3742,7339,-1,-1,-1
-163.63,3.76,-26.95,542,-3738,7337,-1,-1,0
-163.63,3.77,-26.95,548,-3739,7338,-1,-1,0
-163.64,3.77,-26.96,544,-3748,7347,0,0,0
-163.64,3.76,-26.95,540,-3745,7344,0,0,-1
-163.64,3.76,-26.95,543,-3735,7342,0,-1,-1
-163.64,3.76,-26.95,542,-3733,7354,0,-1,-1
-163.63,3.76,-26.94,550,-3733,7371,0,-1,-1
-163.63,3.77,-26.94,549,-3726,7368,-1,-1,0
-163.63,3.77,-26.94,552,-3726,7368,-1,-1,0
-163.64,3.77,-26.95,544,-3725,7348,-1,-1,0
-163.64,3.77,-26.95,545,-3731,7340,-1,0,0
-163.64,3.77,-26.95,553,-3735,7359,-1,0,0
-163.64,3.76,-26.95,547,-3742,7358,0,0,0
-163.64,3.76,-26.95,547,-3755,7366,-1,0,0
-163.64,3.76,-26.95,548,-3758,7373,0,-1,0
-163.64,3.77,-26.95,538,-3745,7362,0,-1,-1
-163.64,3.77,-26.95,536,-3737,7358,-1,-1,-1
-163.64,3.77,-26.95,544,-3731,7357,0,-1,-1
-163.64,3.78,-26.95,553,-3726,7356,-1,-1,0
-163.64,3.78,-26.95,550,-3722,7359,-1,-1,0
-163.64,3.78,-26.95,552,-3727,7368,-1,-1,0
-163.64,3.78,-26.95,547,-3740,7361,-1,-1,0
-163.64,3.78,-26.95,540,-3749,7361,-1,-1,-1
-163.64,3.78,-26.96,546,-3749,7362,-1,-1,0
-163.64,3.78,-26.96,553,-3745,7351,-1,-1,-1
-163.64,3.79,-26.96,556,-3743,7356,0,-1,0
-163.64,3.78,-26.95,549,-3739,7361,0,-1,-1
-163.64,3.79,-26.96,548,-3741,7349,-1,-1,-1
-163.64,3.79,-26.96,542,-3737,7350,0,-1,0
-163.64,3.78,-26.95,538,-3737,7351,-1,-1,0
-163.64,3.78,-26.95,536,-3732,7359,-1,-1,-1
-163.64,3.78,-26.95,544,-3732,7368,-1,0,0
-163.64,3.79,-26.96,544,-3736,7363,-1,0,0
-163.64,3.78,-26.96,548,-3735,7357,-1,0,0
-163.64,3.78,-26.97,553,-3730,7346,-1,0,0
-163.64,3.78,-26.97,550,-3731,7343,-1,-1,0
-163.64,3.78,-26.97,545,-3741,7337,-1,-1,0
-163.64,3.78,-26.98,537,-3751,7335,0,-1,0
-163.64,3.78,-26.98,539,-3761,7344,0,-1,-1
-163.64,3.79,-26.97,557,-3751,7356,0,-1,-1
-163.64,3.79,-26.96,572,-3739,7363,0,0,-1
-163.64,3.79,-26.96,564,-3732,7366,-1,0,0
-163.64,3.78,-26.96,549,-3728,7355,-1,0,0
-163.64,3.78,-26.97,537,-3721,7354,-1,-1,0
-163.65,3.77,-26.98,534,-3729,7352,-1,-1,0
-163.65,3.78,-26.99,539,-3744,7343,-1,-1,0
-163.65,3.78,-27.00,545,-3753,7340,-1,-1,0
-163.65,3.79,-27.02,545,-3765,7338,-1,-1,-1
-163.65,3.80,-27.01,555,-3763,7336,0,-1,0
-163.65,3.80,-27.01,552,-3751,7340,0,-1,0
-163.65,3.79,-27.00,557,-3740,7339,0,0,-1
-163.65,3.79,-26.99,560,-3739,7345,0,0,-1
-163.65,3.79,-26.99,557,-3731,7364,0,0,0
-163.65,3.79,-26.99,546,-3733,7366,-1,0,0
-163.65,3.79,-26.99,548,-3736,7361,-1,-1,0
-163.65,3.79,-27.00,547,-3738,7355,-1,-1,0
-163.66,3.80,-27.01,547,-3745,7343,-1,-1,0
-163.65,3.81,-27.01,558,-3750,7352,-1,-1,0
-163.65,3.81,-27.01,559,-3760,7353,-1,0,0
-163.65,3.81,-27.01,552,-3766,7354,0,0,0
-163.65,3.81,-27.01,551,-3756,7348,0,0,-1
-163.65,3.81,-27.01,553,-3742,7342,0,0,0
-163.65,3.81,-27.01,557,-3739,7345,-1,0,-1
-163.65,3.81,-27.01,562,-3743,7347,-1,-1,0
-163.65,3.82,-27.01,564,-3742,7349,-1,-1,0
-163.65,3.82,-27.01,559,-3745,7338,-1,-1,0
-163.65,3.82,-27.02,561,-3737,7338,-1,0,0
-163.65,3.81,-27.02,554,-3742,7356,-1,0,0
-163.65,3.81,-27.02,544,-3746,7355,0,0,0
-163.66,3.80,-27.01,541,-3747,7346,0,0,0
-163.66,3.80,-27.01,542,-3741,7336,0,0,0
-163.66,3.80,-27.02,550,-3737,7337,0,0,-1
-163.66,3.79,-27.01,551,-3744,7340,0,0,0
-163.66,3.79,-27.01,556,-3751,7336,0,0,0
-163.65,3.80,-27.01,550,-3745,7332,0,0,-1
-163.65,3.79,-27.00,550,-3748,7332,0,0,-1
-163.65,3.79,-27.00,556,-3741,7337,0,0,-1
-163.65,3.79,-26.99,550,-3736,7344,0,0,-1
-163.65,3.79,-26.99,554,-3746,7342,0,-1,-1
-163.65,3.79,-26.99,550,-3752,7345,0,0,0
-163.65,3.79,-26.98,548,-3743,7338,0,0,-1
-163.65,3.79,-26.98,539,-3743,7337,-1,-1,-1
-163.64,3.79,-26.98,545,-3745,7338,0,0,-1
-163.64,3.79,-26.97,551,-3740,7345,0,0,-1
-163.64,3.79,-26.97,554,-3734,7350,0,0,-1
-163.64,3.79,-26.97,550,-3739,7360,0,-1,0
-163.64,3.79,-26.97,543,-3741,7349,0,-1,0
-163.64,3.78,-26.97,539,-3740,7352,-1,0,0
-163.64,3.78,-26.97,548,-3740,7347,0,0,-1
-163.64,3.78,-26.97,545,-3742,7340,0,-1,0
-163.64,3.78,-26.97,539,-3744,7335,0,0,0
-163.64,3.78,-26.97,540,-3746,7341,0,-1,0
-163.64,3.78,-26.97,546,-3747,7349,0,-1,-1
-163.64,3.78,-26.95,556,-3736,7358,0,0,0
-163.64,3.78,-26.95,557,-3733,7359,0,0,0
-163.64,3.78,-26.95,556,-3726,7354,-1,0,0
-163.64,3.77,-26.95,548,-3723,7349,-1,0,0
-163.64,3.77,-26.95,538,-3728,7350,-1,0,0
-163.65,3.76,-26.95,530,-3738,7355,-1,-1,-1
-163.64,3.77,-26.96,538,-3748,7354,-1,-1,-1
-163.64,3.77,-26.97,538,-3750,7345,-1,-1,-1
-163.64,3.77,-26.97,540,-3753,7335,0,-1,-1
-163.64,3.77,-26.97,551,-3747,7335,0,0,-1
-163.64,3.77,-26.96,554,-3748,7345,0,0,-1
-163.64,3.77,-26.95,557,-3740,7350,0,0,0
-163.64,3.76,-26.95,548,-3729,7353,0,0,0
-163.63,3.76,-26.94,542,-3730,7352,0,0,-1
-163.63,3.76,-26.94,536,-3731,7347,-1,0,0
-163.63,3.76,-26.95,542,-3737,7347,-1,-1,0
-163.64,3.76,-26.95,545,-3747,7346,-1,-1,0
-163.64,3.76,-26.95,540,-3750,7340,0,0,0
-163.64,3.76,-26.95,534,-3749,7336,0,0,0
-163.64,3.76,-26.95,543,-3745,7346,0,0,0
-163.64,3.75,-26.95,536,-3742,7350,0,0,0
-163.64,3.74,-26.94,537,-3740,7341,0,0,-1
-163.64,3.74,-26.94,542,-3734,7344,0,0,0
-163.64,3.74,-26.94,547,-3724,7343,-1,0,-1
-163.64,3.74,-26.94,557,-3726,7357,-1,0,0
-163.64,3.74,-26.94,555,-3735,7358,-1,0,0
-163.64,3.74,-26.95,549,-3741,7358,-1,0,0
-163.64,3.74,-26.95,542,-3740,7352,-1,0,0
-163.64,3.73,-26.95,549,-3744,7345,0,0,0
-163.64,3.73,-26.95,545,-3748,7344,-1,0,0
-163.64,3.73,-26.95,544,-3739,7350,-1,0,-1
-163.64,3.72,-26.95,539,-3731,7348,0,-1,0
-163.64,3.72,-26.95,536,-3741,7363,0,0,-1
-163.64,3.72,-26.95,541,-3739,7367,0,0,0
-163.64,3.72,-26.95,528,-3737,7367,-1,0,0
-163.64,3.72,-26.95,530,-3738,7354,-1,-1,-1
-163.64,3.72,-26.95,541,-3746,7350,-1,0,-1
-163.64,3.73,-26.95,541,-3745,7353,-1,0,0
-163.64,3.72,-26.95,542,-3734,7350,-1,0,0
-163.64,3.72,-26.95,543,-3741,7351,0,0,0
-163.64,3.72,-26.95,541,-3745,7353,0,0,0
-163.64,3.71,-26.95,539,-3740,7345,0,0,0
-163.64,3.71,-26.95,540,-3740,7351,0,0,0
-163.64,3.71,-26.95,540,-3740,7347,-1,0,0
-163.64,3.70,-26.95,533,-3733,7351,-1,0,0
-163.64,3.70,-26.95,538,-3727,7348,-1,0,0
-163.64,3.70,-26.95,531,-3736,7360,-1,0,0
-163.64,3.70,-26.96,535,-3741,7351,-1,0,0
-163.64,3.70,-26.96,543,-3744,7359,0,0,-1
-163.64,3.70,-26.95,541,-3751,7364,0,0,0
-163.64,3.70,-26.95,546,-3737,7360,-1,0,-1
-163.64,3.70,-26.95,547,-3728,7361,-1,0,0
-163.64,3.69,-26.95,539,-3726,7346,-1,0,0
-163.64,3.69,-26.96,536,-3723,7344,-1,0,0
-163.64,3.69,-26.96,533,-3746,7347,-1,0,0
-163.65,3.69,-26.97,531,-3756,7368,-1,-1,0
-163.65,3.69,-26.97,529,-3749,7370,-1,-1,-1
-163.64,3.70,-26.98,533,-3764,7355,0,-1,-1
-163.64,3.70,-26.98,547,-3762,7346,0,0,-1
-163.64,3.70,-26.97,554,-3755,7352,0,0,-1
-163.63,3.70,-26.96,551,-3745,7359,0,0,0
-163.63,3.70,-26.95,546,-3737,7360,0,0,0
-163.64,3.69,-26.95,531,-3732,7364,-1,0,0
-163.64,3.69,-26.96,527,-3733,7355,-1,-1,0
-163.64,3.69,-26.96,527,-3737,7355,-1,-1,-1
-163.63,3.70,-26.96,528,-3736,7348,-1,-1,-1
-163.63,3.71,-26.97,530,-3746,7345,-1,-1,-1
-163.63,3.71,-26.98,539,-3748,7349,0,-1,-1
-163.63,3.72,-26.97,541,-3751,7340,0,0,-1
-163.63,3.71,-26.97,536,-3750,7348,0,0,-1
-163.63,3.72,-26.96,532,-3745,7351,0,-1,-1
-163.62,3.72,-26.95,537,-3738,7350,0,-1,-1
-163.62,3.72,-26.95,541,-3731,7354,0,-1,-1
-163.62,3.72,-26.94,540,-3724,7365,-1,-1,-1
-163.62,3.73,-26.94,548,-3732,7369,-1,-1,0
-163.62,3.73,-26.95,542,-3740,7361,-1,-1,0
-163.62,3.73,-26.95,535,-3743,7344,-1,-1,0
-163.62,3.73,-26.95,533,-3740,7343,-1,-1,0
-163.62,3.73,-26.95,541,-3739,7347,-1,-1,0
-163.62,3.73,-26.96,548,-3748,7351,0,-1,0
-163.62,3.74,-26.95,544,-3748,7346,0,-1,0
-163.62,3.74,-26.95,542,-3752,7350,0,0,-1
-163.62,3.73,-26.94,536,-3731,7354,0,-1,0
-163.62,3.73,-26.94,531,-3724,7356,-1,-1,-1
-163.62,3.74,-26.94,542,-3723,7335,-1,-1,-1
-163.62,3.75,-26.94,545,-3731,7343,-1,-1,-1
-163.61,3.75,-26.94,548,-3730,7347,0,-1,0
-163.61,3.75,-26.94,550,-3740,7354,-1,-1,0
-163.61,3.75,-26.94,543,-3747,7354,-1,0,0
-163.62,3.75,-26.94,541,-3747,7347,0,-1,0
-163.62,3.75,-26.95,541,-3757,7345,0,-1,-1
-163.62,3.75,-26.94,542,-3742,7345,0,-1,0
-163.61,3.76,-26.94,546,-3736,7344,0,-1,0
-163.61,3.76,-26.94,537,-3743,7348,0,-1,0
-163.61,3.76,-26.94,542,-3745,7353,0,-1,0
-163.61,3.76,-26.94,543,-3738,7363,-1,0,0
-163.61,3.76,-26.94,545,-3738,7363,-1,-1,0
-163.61,3.76,-26.95,544,-3744,7360,-1,0,0
-163.61,3.76,-26.95,546,-3742,7358,0,0,0
-163.61,3.76,-26.95,545,-3732,7353,-1,0,0
-163.61,3.76,-26.95,550,-3733,7356,-1,-1,0
-163.62,3.76,-26.95,548,-3740,7347,-1,0,0
-163.62,3.76,-26.96,537,-3751,7340,0,-1,0
-163.62,3.76,-26.95,535,-3749,7339,0,-1,-1
-163.62,3.76,-26.95,547,-3750,7352,0,-1,-1
-163.62,3.76,-26.95,556,-3743,7359,0,0,-1
-163.61,3.76,-26.95,558,-3736,7365,0,0,0
-163.61,3.76,-26.94,556,-3732,7364,-1,0,0
-163.62,3.75,-26.94,538,-3729,7363,-1,0,0
-163.62,3.75,-26.94,530,-3722,7358,-1,-1,0
-163.62,3.75,-26.95,524,-3729,7347,-1,-1,0
-163.62,3.76,-26.96,531,-3742,7340,-1,-1,-1
-163.62,3.76,-26.96,550,-3753,7344,0,-1,-1
-163.62,3.77,-26.96,557,-3750,7344,0,-1,-1
-163.61,3.77,-26.96,565,-3745,7346,0,0,0
-163.61,3.77,-26.95,562,-3741,7343,0,0,0
-163.61,3.77,-26.95,556,-3734,7347,0,0,0
-163.61,3.76,-26.94,549,-3723,7366,0,0,0
-163.61,3.76,-26.94,544,-3722,7362,-1,0,0
-163.61,3.76,-26.94,541,-3722,7363,-1,-1,0
-163.62,3.76,-26.95,537,-3727,7361,-1,-1,0
-163.62,3.77,-26.95,544,-3739,7343,-1,-1,0
-163.62,3.78,-26.95,553,-3748,7337,0,-1,0
-163.62,3.78,-26.96,551,-3749,7334,0,-1,0
-163.62,3.78,-26.95,551,-3746,7336,0,0,-1
-163.62,3.77,-26.94,549,-3737,7352,0,0,-1
-163.62,3.77,-26.94,537,-3728,7350,0,0,-1
-163.61,3.78,-26.94,534,-3726,7352,-1,-1,-1
-163.61,3.78,-26.94,548,-3729,7349,-1,-1,0
-163.61,3.78,-26.94,552,-3724,7346,-1,-1,0
-163.61,3.78,-26.94,556,-3725,7348,-1,-1,0
-163.62,3.78,-26.95,554,-3734,7337,-1,-1,0
-163.62,3.78,-26.95,553,-3739,7349,-1,0,0
-163.62,3.78,-26.95,543,-3744,7354,0,0,0
-163.62,3.78,-26.95,539,-3745,7352,0,-1,0
-163.62,3.78,-26.95,540,-3742,7351,0,-1,0
-163.62,3.78,-26.95,533,-3746,7360,0,0,-1
-163.62,3.77,-26.94,538,-3743,7354,0,-1,-1
-163.62,3.77,-26.94,543,-3740,7359,-1,-1,0
-163.62,3.78,-26.95,549,-3735,7357,-1,0,0
-163.62,3.78,-26.95,543,-3737,7356,-1,-1,0
-163.62,3.78,-26.96,547,-3746,7350,-1,-1,0
-163.62,3.78,-26.96,545,-3751,7367,-1,-1,-1
-163.63,3.78,-26.96,537,-3743,7352,-1,-1,0
-163.63,3.78,-26.97,531,-3742,7344,-1,-1,0
-163.63,3.78,-26.97,539,-3746,7337,-1,-1,-1
-163.62,3.78,-26.97,555,-3743,7346,0,0,0
-163.62,3.78,-26.97,551,-3745,7340,-1,-1,0
-163.63,3.78,-26.97,547,-3746,7364,-1,-1,0
-163.62,3.78,-26.97,554,-3750,7362,0,0,0
-163.63,3.78,-26.97,547,-3742,7362,-1,-1,0
-163.63,3.78,-26.98,549,-3745,7362,-1,-1,-1
-163.62,3.78,-26.98,554,-3745,7354,-1,-1,-1
-163.62,3.79,-26.99,557,-3749,7352,-1,-1,0
-163.62,3.79,-26.99,558,-3748,7353,-1,-1,0
-163.62,3.79,-26.99,563,-3747,7340,-1,-1,0
-163.62,3.79,-27.00,560,-3744,7338,-1,0,0
-163.63,3.79,-27.00,555,-3741,7337,-1,-1,0
-163.63,3.79,-27.01,544,-3746,7336,-1,-1,0
-163.63,3.79,-27.01,540,-3753,7339,0,-1,-1
-163.63,3.79,-27.01,543,-3754,7341,0,-1,-1
-163.62,3.80,-27.00,557,-3752,7354,0,-1,-1
-163.62,3.81,-26.99,572,-3745,7360,0,0,-1
-163.61,3.81,-26.98,574,-3733,7353,0,0,0
-163.61,3.81,-26.98,567,-3725,7352,-1,0,0
-163.62,3.80,-26.99,554,-3724,7351,-1,0,0
-163.62,3.79,-27.00,534,-3729,7343,-1,-1,0
-163.63,3.79,-27.02,523,-3744,7348,-1,-1,0
-163.63,3.80,-27.03,531,-3756,7345,-1,-1,-1
-163.63,3.80,-27.04,543,-3769,7332,-1,-1,-1
-163.62,3.81,-27.04,557,-3769,7318,0,-1,-1
-163.62,3.81,-27.04,565,-3757,7311,0,-1,0
-163.62,3.81,-27.03,565,-3763,7328,0,0,-1
-163.62,3.81,-27.02,567,-3749,7348,0,0,0
-163.62,3.81,-27.01,551,-3739,7362,0,0,0
-163.62,3.81,-27.01,550,-3737,7363,-1,0,0
-163.62,3.80,-27.01,549,-3735,7360,-1,0,0
-163.63,3.81,-27.01,554,-3733,7358,-1,-1,0
-163.63,3.80,-27.02,554,-3744,7360,-1,-1,0
-163.63,3.80,-27.03,551,-3754,7353,-1,0,0
-163.63,3.80,-27.03,552,-3771,7347,0,0,0
-163.63,3.80,-27.03,546,-3773,7337,0,0,-1
-163.63,3.80,-27.02,541,-3758,7341,0,0,-1
-163.62,3.79,-27.01,535,-3758,7341,0,0,-1
-163.62,3.80,-27.01,550,-3748,7341,0,-1,-1
-163.62,3.79,-27.00,554,-3745,7345,0,0,-1
-163.62,3.79,-27.00,563,-3743,7343,-1,0,0
-163.62,3.80,-27.00,562,-3738,7346,-1,0,0
-163.62,3.79,-27.00,556,-3739,7347,0,0,0
-163.62,3.79,-27.00,548,-3735,7354,0,0,0
-163.62,3.79,-27.00,546,-3744,7344,0,-1,0
-163.62,3.79,-27.00,551,-3746,7342,0,0,-1
-163.62,3.79,-26.99,547,-3741,7335,0,0,-1
-163.63,3.78,-26.99,541,-3739,7349,0,0,-1
-163.62,3.78,-26.99,546,-3741,7349,0,0,-1
-163.62,3.78,-26.98,550,-3747,7348,0,0,-1
-163.62,3.78,-26.98,546,-3749,7350,0,0,0
-163.62,3.77,-26.97,542,-3743,7354,-1,-1,0
-163.62,3.78,-26.98,548,-3739,7348,-1,-1,0
-163.62,3.78,-26.98,542,-3747,7358,0,-1,-1
-163.62,3.78,-26.97,552,-3742,7361,0,0,0
-163.62,3.77,-26.97,546,-3739,7360,-1,0,-1
-163.61,3.77,-26.97,549,-3749,7356,-1,0,-1
-163.61,3.77,-26.97,552,-3745,7353,0,0,-1
-163.61,3.77,-26.97,553,-3740,7350,0,0,0
-163.61,3.77,-26.97,539,-3739,7353,-1,0,-1
-163.61,3.77,-26.97,534,-3737,7345,0,0,-1
-163.61,3.77,-26.97,532,-3747,7344,-1,-1,-1
-163.61,3.77,-26.97,530,-3744,7355,0,-1,-1
-163.61,3.77,-26.97,535,-3743,7353,-1,-1,-1
-163.61,3.76,-26.97,537,-3739,7359,0,0,-1
-163.61,3.76,-26.97,545,-3738,7357,-1,0,0
-163.61,3.76,-26.97,544,-3740,7347,-1,0,0
-163.61,3.75,-26.97,532,-3741,7333,0,0,-1
-163.61,3.75,-26.97,537,-3744,7342,0,0,0
-163.61,3.76,-26.96,547,-3748,7348,0,-1,0
-163.61,3.76,-26.95,555,-3745,7352,0,0,-1
-163.61,3.76,-26.95,553,-3743,7359,0,0,0
-163.61,3.76,-26.95,549,-3734,7363,-1,0,0
-163.61,3.75,-26.96,538,-3731,7366,-1,0,0
-163.61,3.75,-26.96,533,-3728,7355,-1,0,0
-163.61,3.75,-26.96,529,-3734,7339,-1,-1,0
-163.61,3.75,-26.97,531,-3749,7346,-1,-1,-1
-163.61,3.75,-26.97,536,-3750,7356,-1,-1,-1
-163.61,3.75,-26.98,542,-3754,7350,-1,-1,-1
-163.60,3.76,-26.98,550,-3750,7339,0,-1,-1
-163.60,3.76,-26.97,565,-3747,7344,0,0,-1
-163.60,3.76,-26.96,566,-3736,7349,0,0,0
-163.60,3.75,-26.96,561,-3731,7347,0,0,0
-163.60,3.75,-26.95,551,-3727,7359,-1,0,0
-163.60,3.75,-26.95,545,-3731,7363,-1,0,0
-163.60,3.75,-26.95,546,-3728,7367,-1,-1,0
-163.60,3.75,-26.96,544,-3727,7363,-1,-1,-1
-163.60,3.75,-26.96,532,-3731,7353,-1,-1,-1
-163.60,3.75,-26.96,546,-3741,7348,0,0,0
-163.60,3.75,-26.96,547,-3742,7354,0,0,0
-163.61,3.74,-26.95,544,-3739,7363,0,0,-1
-163.60,3.73,-26.95,540,-3740,7360,0,0,0
-163.60,3.73,-26.94,534,-3734,7352,0,0,0
-163.60,3.73,-26.94,531,-3730,7345,-1,-1,0
-163.60,3.73,-26.94,541,-3729,7345,-1,-1,0
-163.60,3.73,-26.95,545,-3733,7342,-1,0,0
-163.61,3.73,-26.95,542,-3740,7337,-1,0,0
-163.61,3.73,-26.96,546,-3752,7328,0,0,-1
-163.60,3.73,-26.96,543,-3748,7350,0,0,0
-163.60,3.72,-26.95,538,-3740,7348,-1,0,0
-163.60,3.72,-26.95,528,-3744,7344,0,0,0
-163.60,3.72,-26.95,532,-3741,7350,0,0,-1
-163.60,3.72,-26.95,547,-3736,7346,0,0,0
-163.60,3.72,-26.95,542,-3730,7345,-1,0,0
-163.60,3.72,-26.95,543,-3741,7345,-1,0,-1
-163.60,3.72,-26.95,544,-3737,7348,-1,0,-1
-163.61,3.71,-26.95,545,-3742,7341,-1,0,-1
-163.60,3.72,-26.95,541,-3743,7346,-1,0,-1
-163.60,3.72,-26.95,533,-3741,7350,-1,0,0
-163.60,3.71,-26.96,537,-3746,7345,-1,0,0
-163.60,3.71,-26.96,541,-3742,7348,-1,0,0
-163.60,3.71,-26.95,541,-3734,7342,0,0,0
-163.60,3.71,-26.95,539,-3737,7340,0,0,0
-163.60,3.70,-26.96,538,-3744,7344,0,0,0
-163.60,3.70,-26.96,531,-3738,7353,0,0,0
-163.60,3.69,-26.95,531,-3739,7357,-1,0,0
-163.60,3.70,-26.96,527,-3735,7352,-1,0,0
-163.61,3.69,-26.96,531,-3739,7347,-1,-1,0
-163.61,3.70,-26.96,538,-3743,7337,0,-1,0
-163.60,3.70,-26.95,539,-3749,7353,0,0,-1
-163.60,3.70,-26.94,546,-3737,7367,0,0,-1
-163.60,3.69,-26.94,536,-3735,7370,-1,0,-1
-163.60,3.69,-26.94,527,-3730,7351,-1,0,0
-163.60,3.69,-26.95,523,-3726,7343,-1,0,0
-163.60,3.69,-26.96,522,-3731,7351,-1,-1,0
-163.60,3.70,-26.96,528,-3748,7348,-1,-1,-1
-163.60,3.70,-26.97,530,-3756,7348,0,-1,-1
-163.60,3.70,-26.96,531,-3764,7346,0,-1,-1
-163.59,3.72,-26.96,545,-3762,7347,0,-1,-1
-163.59,3.72,-26.95,551,-3759,7349,0,0,-1
-163.59,3.72,-26.95,551,-3749,7345,0,0,-1
-163.59,3.72,-26.93,548,-3737,7356,0,0,-1
-163.58,3.72,-26.93,540,-3725,7355,-1,-1,0
-163.58,3.72,-26.93,536,-3727,7351,-1,-1,-1
-163.59,3.72,-26.93,529,-3724,7346,-1,-1,0
-163.59,3.72,-26.94,530,-3733,7341,-1,-1,0
-163.59,3.73,-26.94,537,-3750,7340,-1,-1,0
-163.59,3.73,-26.95,538,-3759,7346,0,-1,0
-163.59,3.73,-26.94,547,-3751,7349,0,0,0
-163.59,3.74,-26.94,539,-3738,7341,0,0,0
-163.60,3.73,-26.94,532,-3736,7356,0,-1,0
-163.59,3.73,-26.94,532,-3743,7354,0,-1,-1
-163.59,3.73,-26.93,530,-3736,7347,0,-1,-1
-163.59,3.73,-26.92,534,-3721,7354,-1,-1,-1
-163.58,3.74,-26.92,545,-3726,7354,-1,-1,0
-163.58,3.74,-26.93,550,-3726,7367,-1,-1,-1
-163.59,3.75,-26.93,551,-3726,7355,-1,-1,0
-163.59,3.75,-26.93,544,-3732,7357,-1,-1,0
-163.59,3.75,-26.93,538,-3739,7345,-1,0,0
-163.59,3.75,-26.94,529,-3751,7351,-1,-1,0
-163.59,3.75,-26.94,530,-3754,7350,0,-1,-1
-163.58,3.75,-26.93,540,-3750,7359,0,-1,-1
-163.58,3.75,-26.93,545,-3744,7346,0,-1,0
-163.58,3.76,-26.92,547,-3735,7342,0,-1,0
-163.58,3.76,-26.92,548,-3733,7349,0,0,-1
-163.58,3.76,-26.92,543,-3735,7350,-1,-1,0
-163.58,3.76,-26.92,541,-3736,7355,-1,-1,-1
-163.58,3.76,-26.92,542,-3742,7350,-1,-1,-1
-163.58,3.77,-26.93,542,-3747,7352,-1,-1,-1
-163.58,3.77,-26.93,546,-3749,7353,-1,0,-1
-163.58,3.77,-26.93,548,-3740,7353,0,-1,-1
-163.58,3.77,-26.93,550,-3739,7340,0,0,0
-163.58,3.77,-26.93,549,-3739,7336,0,-1,0
-163.58,3.77,-26.93,550,-3747,7340,0,0,0
-163.58,3.77,-26.92,545,-3741,7349,0,0,-1
-163.58,3.77,-26.92,540,-3732,7354,-1,-1,0
-163.58,3.77,-26.92,541,-3738,7345,-1,-1,0
-163.58,3.77,-26.92,538,-3750,7337,0,-1,-1
-163.58,3.78,-26.93,543,-3750,7341,0,-1,-1
-163.57,3.78,-26.92,555,-3747,7355,0,-1,0
-163.57,3.78,-26.92,562,-3734,7357,0,0,0
-163.57,3.78,-26.92,565,-3730,7354,-1,0,0
-163.58,3.77,-26.92,557,-3726,7353,-1,0,0
-163.58,3.77,-26.92,536,-3727,7350,-1,0,0
-163.59,3.77,-26.92,528,-3732,7341,-1,-1,0
-163.58,3.77,-26.93,533,-3738,7341,-1,-1,-1
-163.58,3.78,-26.94,542,-3737,7341,-1,-1,-1
-163.58,3.78,-26.94,545,-3741,7343,0,-1,-1
-163.58,3.79,-26.94,554,-3750,7330,0,-1,0
-163.57,3.79,-26.93,563,-3752,7345,0,0,-1
-163.57,3.79,-26.92,561,-3744,7349,0,0,0
-163.57,3.79,-26.91,552,-3734,7351,0,0,0
-163.57,3.79,-26.91,548,-3723,7350,0,0,0
-163.57,3.79,-26.91,546,-3721,7359,-1,-1,-1
-163.57,3.79,-26.91,547,-3729,7359,-1,-1,0
-163.58,3.79,-26.93,546,-3745,7344,-1,-1,0
-163.58,3.80,-26.94,546,-3747,7331,-1,-1,0
-163.58,3.80,-26.94,549,-3750,7328,-1,-1,0
-163.58,3.80,-26.94,549,-3748,7333,0,0,-1
-163.58,3.80,-26.94,550,-3742,7344,0,0,-1
-163.57,3.80,-26.93,546,-3743,7351,0,-1,-1
-163.57,3.79,-26.92,549,-3729,7356,0,-1,-1
-163.57,3.79,-26.92,551,-3723,7361,-1,-1,0
-163.57,3.80,-26.92,551,-3728,7358,-1,0,0
-163.57,3.79,-26.92,545,-3731,7356,-1,0,0
-163.57,3.80,-26.92,545,-3731,7360,-1,-1,0
-163.57,3.80,-26.93,541,-3725,7358,-1,-1,0
-163.58,3.80,-26.94,546,-3733,7352,-1,0,0
-163.58,3.80,-26.94,543,-3740,7345,-1,0,0
-163.58,3.79,-26.94,543,-3743,7348,-1,0,0
-163.58,3.79,-26.94,544,-3743,7349,0,0,0
-163.58,3.79,-26.94,544,-3737,7342,0,0,0
-163.58,3.79,-26.94,540,-3738,7341,0,0,0
-163.58,3.79,-26.94,543,-3740,7354,-1,0,0
-163.58,3.79,-26.94,550,-3739,7354,-1,-1,0
-163.58,3.79,-26.94,551,-3738,7359,-1,-1,0
-163.58,3.79,-26.94,553,-3735,7369,-1,0,0
-163.58,3.79,-26.94,557,-3743,7364,-1,0,0
-163.58,3.78,-26.95,547,-3744,7353,-1,0,-1
-163.58,3.78,-26.95,545,-3755,7357,0,-1,0
-163.58,3.78,-26.95,545,-3754,7360,0,-1,-1
-163.58,3.79,-26.95,546,-3741,7352,-1,-1,-1
-163.58,3.79,-26.96,536,-3739,7339,-1,-1,0
-163.58,3.79,-26.96,546,-3741,7341,-1,-1,-1
-163.58,3.79,-26.96,556,-3738,7348,-1,0,0
-163.58,3.79,-26.96,551,-3731,7349,-1,0,0
-163.58,3.79,-26.96,558,-3748,7352,-1,-1,0
-163.58,3.79,-26.96,552,-3749,7346,-1,0,0
-163.58,3.79,-26.97,553,-3741,7346,-1,0,0
-163.58,3.79,-26.97,549,-3741,7351,-1,-1,0
-163.58,3.79,-26.98,543,-3746,7340,-1,-1,-1
-163.58,3.79,-26.98,543,-3751,7336,0,-1,0
-163.58,3.79,-26.98,550,-3753,7339,-1,-1,0
-163.58,3.79,-26.98,555,-3756,7341,0,-1,-1
-163.58,3.79,-26.98,560,-3754,7353,0,0,0
-163.58,3.79,-26.98,552,-3748,7355,0,0,0
-163.58,3.79,-26.98,539,-3739,7342,-1,0,0
-163.59,3.78,-26.98,532,-3729,7346,-1,-1,0
-163.59,3.78,-26.99,530,-3739,7342,-1,-1,0
-163.59,3.79,-26.99,541,-3750,7344,-1,-1,0
-163.59,3.80,-27.01,553,-3763,7333,-1,-1,-1
-163.59,3.81,-27.01,569,-3764,7334,0,-1,0
-163.59,3.81,-27.01,577,-3762,7337,0,-1,0
-163.59,3.82,-27.00,577,-3763,7335,0,0,0
-163.59,3.81,-27.00,574,-3755,7341,0,0,0
-163.59,3.81,-26.99,566,-3743,7347,0,0,0
-163.59,3.80,-26.99,558,-3724,7349,-1,0,0
-163.60,3.79,-26.99,546,-3725,7357,-1,-1,0
-163.60,3.80,-27.01,548,-3732,7347,-1,-1,0
-163.60,3.80,-27.01,552,-3750,7344,-1,-1,0
-163.60,3.80,-27.01,553,-3752,7344,-1,-1,0
-163.60,3.80,-27.02,548,-3759,7341,0,-1,0
-163.60,3.80,-27.01,548,-3763,7333,0,0,-1
-163.60,3.80,-27.01,551,-3754,7342,0,0,-1
-163.60,3.79,-26.99,543,-3744,7351,0,0,-1
-163.60,3.79,-26.98,542,-3736,7348,0,-1,-1
-163.60,3.79,-26.98,539,-3731,7347,0,-1,0
-163.60,3.79,-26.97,533,-3730,7346,-1,-1,-1
-163.60,3.79,-26.98,540,-3728,7346,-1,-1,-1
-163.60,3.79,-26.98,544,-3734,7346,-1,0,0
-163.60,3.79,-26.99,549,-3752,7340,-1,0,0
-163.60,3.78,-26.98,547,-3752,7353,0,0,0
-163.60,3.78,-26.98,546,-3751,7351,0,0,0
-163.60,3.78,-26.97,545,-3750,7350,0,0,0
-163.59,3.78,-26.97,541,-3748,7355,0,0,0
-163.59,3.78,-26.97,543,-3747,7358,0,0,-1
-163.59,3.78,-26.96,538,-3741,7360,0,0,-1
-163.59,3.78,-26.96,542,-3737,7357,0,0,-1
-163.59,3.78,-26.96,543,-3734,7349,-1,-1,0
-163.59,3.78,-26.96,548,-3742,7357,-1,-1,-1
-163.59,3.78,-26.96,552,-3756,7354,-1,-1,0
-163.59,3.78,-26.96,560,-3748,7348,-1,0,0
-163.59,3.78,-26.97,555,-3749,7337,-1,0,-1
-163.59,3.78,-26.97,555,-3753,7341,0,-1,0
-163.59,3.78,-26.96,555,-3756,7340,0,0,0
-163.58,3.78,-26.96,553,-3746,7344,0,0,-1
-163.58,3.78,-26.95,544,-3739,7359,-1,0,-1
-163.58,3.78,-26.95,541,-3733,7347,-1,0,0
-163.58,3.78,-26.95,544,-3726,7348,0,0,-1
-163.58,3.78,-26.95,548,-3726,7352,0,-1,0
-163.58,3.78,-26.95,549,-3727,7354,-1,-1,0
-163.58,3.78,-26.95,548,-3732,7348,0,0,-1
-163.59,3.77,-26.95,543,-3741,7361,-1,0,0
-163.59,3.77,-26.95,540,-3744,7356,-1,-1,0
-163.59,3.77,-26.95,539,-3743,7353,0,0,-1
-163.58,3.76,-26.95,539,-3748,7351,0,-1,0
-163.58,3.77,-26.95,547,-3751,7350,0,0,-1
-163.58,3.77,-26.94,549,-3737,7351,0,0,-1
-163.58,3.76,-26.94,549,-3743,7360,0,0,0
-163.58,3.76,-26.93,547,-3729,7357,0,0,0
-163.58,3.75,-26.93,534,-3728,7351,-1,0,0
-163.58,3.75,-26.93,530,-3717,7347,-1,0,0
-163.59,3.74,-26.94,528,-3730,7350,-1,-1,-1
-163.59,3.74,-26.95,535,-3742,7363,-1,-1,0
-163.58,3.75,-26.95,533,-3746,7365,-1,-1,-1
-163.58,3.75,-26.95,537,-3751,7344,-1,-1,0
-163.58,3.76,-26.95,545,-3752,7333,0,0,-1
-163.58,3.76,-26.95,551,-3746,7345,0,0,0
-163.58,3.75,-26.94,550,-3740,7359,0,0,0
-163.58,3.75,-26.93,540,-3731,7361,0,0,-1
-163.59,3.74,-26.94,531,-3733,7356,-1,0,0
-163.59,3.74,-26.94,532,-3736,7359,-1,0,0
-163.59,3.74,-26.94,533,-3735,7358,-1,0,0
-163.59,3.74,-26.94,534,-3743,7353,-1,0,0
-163.59,3.74,-26.95,535,-3747,7358,-1,-1,0
-163.59,3.74,-26.95,537,-3749,7349,0,0,0
-163.59,3.73,-26.94,537,-3745,7355,0,0,0
-163.59,3.74,-26.94,534,-3745,7358,0,0,0
-163.59,3.73,-26.94,535,-3743,7357,0,0,0
-163.59,3.73,-26.94,540,-3735,7349,0,0,-1
-163.59,3.74,-26.94,544,-3731,7347,-1,-1,-1
-163.59,3.73,-26.94,540,-3727,7352,-1,0,0
-163.59,3.73,-26.94,546,-3738,7358,-1,0,0
-163.59,3.73,-26.94,544,-3739,7362,-1,0,0
-163.59,3.72,-26.94,536,-3743,7354,-1,0,0
-163.59,3.72,-26.94,534,-3736,7355,-1,0,0
-163.59,3.72,-26.94,535,-3740,7360,-1,0,0
-163.59,3.71,-26.94,539,-3743,7349,-1,-1,0
-163.59,3.71,-26.94,536,-3750,7351,0,0,0
-163.59,3.71,-26.94,539,-3741,7362,0,0,0
-163.59,3.71,-26.94,530,-3749,7358,-1,0,-1
-163.59,3.70,-26.94,532,-3747,7346,0,0,-1
-163.59,3.70,-26.94,536,-3745,7349,0,0,-1
-163.59,3.70,-26.95,549,-3742,7340,-1,0,0
-163.59,3.70,-26.95,545,-3742,7351,-1,0,0
-163.59,3.70,-26.95,547,-3739,7355,-1,0,0
-163.59,3.70,-26.95,542,-3741,7354,-1,0,0
-163.60,3.70,-26.95,537,-3742,7360,0,0,0
-163.60,3.70,-26.94,530,-3732,7348,0,0,0
-163.60,3.70,-26.94,531,-3727,7355,-1,0,0
-163.60,3.70,-26.94,536,-3733,7357,-1,0,-1
-163.60,3.69,-26.94,532,-3735,7353,0,0,0
-163.60,3.69,-26.94,530,-3732,7353,-1,0,0
-163.60,3.68,-26.94,528,-3738,7349,-1,0,0
-163.60,3.68,-26.94,524,-3747,7340,0,-1,-1
-163.60,3.68,-26.94,524,-3752,7341,0,-1,-1
-163.59,3.69,-26.94,542,-3745,7359,0,-1,-1
-163.59,3.70,-26.93,552,-3730,7368,-1,0,-1
-163.59,3.70,-26.93,554,-3725,7365,-1,0,0
-163.59,3.70,-26.93,540,-3725,7348,-1,0,0
-163.59,3.69,-26.94,532,-3739,7360,-1,-1,0
-163.59,3.69,-26.94,517,-3746,7362,-1,-1,0
-163.60,3.69,-26.95,512,-3749,7343,-1,-1,-1
-163.60,3.70,-26.96,522,-3757,7333,0,-1,-1
-163.59,3.71,-26.95,530,-3763,7340,0,-1,-1
-163.59,3.71,-26.95,541,-3758,7337,0,-1,-1
-163.58,3.72,-26.94,549,-3749,7343,0,-1,-1
-163.58,3.72,-26.93,557,-3747,7348,0,0,0
-163.57,3.72,-26.92,546,-3743,7349,0,0,0
-163.57,3.72,-26.92,546,-3726,7366,0,-1,0
-163.57,3.72,-26.92,542,-3730,7365,-1,-1,0
-163.57,3.72,-26.92,539,-3729,7349,-1,-1,0
-163.57,3.73,-26.92,544,-3730,7356,-1,-1,-1
-163.57,3.73,-26.93,550,-3738,7346,-1,-1,0
-163.57,3.74,-26.93,546,-3742,7344,-1,-1,0
-163.57,3.74,-26.94,541,-3749,7348,0,-1,0
-163.57,3.74,-26.93,539,-3755,7359,0,-1,0
-163.57,3.74,-26.93,537,-3750,7355,0,0,-1
-163.57,3.74,-26.92,537,-3742,7349,0,-1,-1
-163.57,3.74,-26.91,534,-3738,7354,0,-1,-1
-163.56,3.74,-26.91,542,-3729,7360,0,-1,0
-163.56,3.75,-26.90,550,-3722,7363,-1,-1,0
-163.57,3.75,-26.91,545,-3727,7365,-1,-1,0
-163.57,3.75,-26.91,540,-3725,7352,-1,-1,0
-163.57,3.75,-26.91,540,-3729,7358,-1,-1,0
-163.57,3.75,-26.91,544,-3734,7350,-1,0,0
-163.57,3.75,-26.92,539,-3739,7347,0,0,0
-163.57,3.75,-26.91,534,-3742,7344,0,-1,0
-163.57,3.74,-26.91,533,-3749,7351,0,0,-1
-163.57,3.75,-26.91,533,-3743,7343,0,-1,-1
-163.57,3.75,-26.91,525,-3734,7350,0,-1,0
-163.57,3.75,-26.91,534,-3731,7340,0,-1,-1
-163.57,3.75,-26.90,553,-3728,7346,0,-1,-1
-163.57,3.75,-26.90,548,-3726,7355,-1,-1,-1
-163.57,3.75,-26.90,541,-3724,7356,-1,0,0
-163.57,3.75,-26.90,543,-3728,7354,-1,0,-1
-163.57,3.75,-26.90,543,-3735,7345,-1,-1,0
-163.57,3.75,-26.90,535,-3736,7348,-1,-1,0
-163.57,3.76,-26.90,542,-3735,7349,0,-1,0
-163.57,3.76,-26.90,545,-3739,7348,-1,-1,0
-163.57,3.76,-26.91,548,-3739,7349,-1,0,0
-163.56,3.77,-26.91,550,-3744,7353,0,0,-1
-163.56,3.77,-26.90,546,-3736,7362,-1,-1,0
-163.57,3.76,-26.91,539,-3743,7350,-1,-1,0
-163.56,3.77,-26.91,540,-3744,7343,-1,-1,0
-163.57,3.77,-26.91,540,-3741,7340,0,-1,-1
-163.57,3.77,-26.91,551,-3742,7353,0,-1,-1
-163.56,3.78,-26.90,561,-3738,7361,0,-1,-1
-163.56,3.78,-26.90,563,-3735,7368,0,0,0
-163.56,3.78,-26.90,553,-3725,7363,-1,0,0
-163.56,3.77,-26.90,542,-3719,7356,-1,0,0
-163.57,3.76,-26.90,525,-3723,7347,-1,-1,0
-163.57,3.76,-26.91,525,-3728,7344,-1,-1,0
-163.57,3.77,-26.92,533,-3743,7347,-1,-1,-1
-163.57,3.78,-26.92,542,-3751,7336,0,-1,-1
-163.57,3.78,-26.92,549,-3755,7337,0,-1,-1
-163.57,3.78,-26.91,556,-3749,7350,0,-1,-1
-163.57,3.78,-26.91,546,-3737,7346,0,0,-1
-163.56,3.78,-26.90,552,-3722,7350,0,0,-1
-163.56,3.78,-26.89,545,-3719,7359,0,0,0
-163.56,3.78,-26.89,547,-3711,7370,-1,0,0
-163.56,3.77,-26.89,546,-3717,7368,-1,-1,0
-163.57,3.78,-26.91,552,-3724,7361,-1,-1,0
-163.57,3.78,-26.91,543,-3735,7357,-1,-1,0
-163.57,3.78,-26.92,545,-3739,7342,-1,-1,0
-163.57,3.78,-26.92,541,-3744,7339,0,-1,-1
-163.57,3.78,-26.91,542,-3742,7334,0,0,-1
-163.56,3.78,-26.92,539,-3749,7339,0,0,-1
-163.56,3.78,-26.91,537,-3743,7357,0,0,-1
-163.56,3.78,-26.91,539,-3734,7356,0,-1,-1
-163.56,3.78,-26.90,553,-3728,7352,-1,-1,0
-163.56,3.78,-26.91,554,-3724,7352,-1,-1,0
-163.56,3.78,-26.91,551,-3729,7354,-1,0,0
-163.56,3.78,-26.91,551,-3736,7356,-1,0,0
-163.56,3.78,-26.91,542,-3741,7362,-1,0,0
-163.56,3.78,-26.92,539,-3738,7348,-1,0,0
-163.56,3.78,-26.92,535,-3734,7346,-1,0,0
-163.56,3.78,-26.92,541,-3738,7344,0,0,0
-163.56,3.78,-26.92,546,-3736,7344,0,0,0
-163.56,3.78,-26.92,543,-3733,7344,0,0,-1
-163.56,3.78,-26.92,544,-3731,7339,-1,0,-1
-163.56,3.78,-26.92,547,-3729,7343,-1,-1,0
-163.56,3.78,-26.92,547,-3734,7352,-1,-1,0
-163.56,3.78,-26.92,546,-3732,7353,-1,-1,0
-163.56,3.78,-26.92,546,-3732,7352,-1,-1,0
-163.57,3.78,-26.93,546,-3739,7347,-1,0,0
-163.57,3.78,-26.93,552,-3739,7345,-1,0,0
-163.56,3.78,-26.93,551,-3741,7343,-1,0,0
-163.57,3.78,-26.94,550,-3744,7347,0,0,0
-163.56,3.78,-26.94,555,-3747,7349,0,0,-1
-163.56,3.78,-26.94,548,-3753,7352,-1,-1,0
-163.56,3.78,-26.94,544,-3755,7354,-1,-1,0
-163.57,3.79,-26.94,554,-3753,7352,-1,-1,0
-163.56,3.79,-26.95,560,-3748,7354,-1,-1,-1
-163.56,3.80,-26.95,557,-3745,7351,-1,-1,0
-163.57,3.79,-26.95,552,-3743,7353,-1,0,0
-163.57,3.79,-26.95,548,-3738,7356,-1,-1,0
-163.57,3.79,-26.96,545,-3739,7347,-1,-1,0
