Yaw,Pitch,Roll,AX,AY,AZ,GX,GY,GZ
-9.72,4.43,-10.25,622,-1461,8058,-1,0,0
-9.72,4.41,-10.26,616,-1470,8069,-1,0,-1
-9.71,4.41,-10.27,606,-1475,8076,-1,0,-1
-9.71,4.39,-10.27,604,-1469,8078,-1,0,-1
-9.71,4.39,-10.27,598,-1462,8079,-1,0,-1
-9.71,4.38,-10.28,604,-1466,8077,-1,0,-1
-9.71,4.37,-10.29,602,-1478,8062,-1,0,0
-9.71,4.37,-10.29,616,-1482,8062,-1,0,-1
-9.71,4.38,-10.29,618,-1481,8045,0,-1,0
-9.71,4.37,-10.29,624,-1481,8042,0,0,-1
-9.71,4.37,-10.29,620,-1475,8048,0,0,-1
-9.70,4.36,-10.29,618,-1469,8055,0,0,-1
-9.70,4.36,-10.28,607,-1470,8063,0,0,-1
-9.70,4.36,-10.28,604,-1461,8070,0,-1,-1
-9.70,4.36,-10.27,600,-1465,8068,0,-1,0
-9.70,4.37,-10.27,598,-1466,8066,-1,-1,0
-9.70,4.36,-10.27,600,-1468,8071,0,-1,0
-9.70,4.37,-10.27,598,-1471,8077,0,-1,0
-9.70,4.38,-10.26,603,-1463,8072,0,-1,0
-9.70,4.39,-10.26,611,-1463,8068,0,-1,0
-9.71,4.39,-10.25,616,-1454,8070,0,-1,0
-9.71,4.40,-10.25,616,-1449,8055,0,-1,0
-9.71,4.40,-10.25,615,-1463,8062,0,-1,0
-9.71,4.41,-10.24,610,-1459,8081,0,-1,0
-9.71,4.41,-10.24,612,-1457,8077,-1,-1,0
-9.71,4.42,-10.24,613,-1464,8076,-1,-1,0
-9.71,4.42,-10.24,612,-1468,8068,0,-1,-1
-9.71,4.43,-10.24,611,-1469,8074,0,-1,0
-9.72,4.44,-10.24,615,-1473,8074,-1,-1,-1
-9.71,4.44,-10.25,622,-1474,8077,0,-1,0
-9.71,4.45,-10.24,627,-1480,8068,0,-1,0
-9.71,4.45,-10.24,623,-1471,8063,0,-1,0
-9.72,4.45,-10.23,617,-1463,8058,0,-1,0
-9.72,4.46,-10.23,617,-1461,8070,0,-1,-1
-9.72,4.46,-10.21,610,-1447,8071,0,-1,0
-9.72,4.46,-10.21,610,-1445,8068,0,-1,0
-9.72,4.47,-10.21,608,-1451,8074,0,-1,0
-9.73,4.47,-10.21,623,-1463,8073,0,-1,0
-9.73,4.48,-10.21,631,-1462,8066,0,-1,0
-9.73,4.49,-10.22,636,-1463,8071,-1,-1,-1
-9.73,4.49,-10.22,641,-1464,8061,-1,-1,0
-9.73,4.49,-10.22,636,-1468,8063,-1,-1,-1
-9.73,4.49,-10.22,631,-1467,8067,0,-1,0
-9.73,4.50,-10.22,630,-1459,8076,0,-1,0
-9.73,4.50,-10.21,629,-1458,8082,0,-1,0
-9.73,4.50,-10.21,630,-1455,8080,-1,-1,0
-9.73,4.51,-10.21,624,-1463,8067,0,-1,0
-9.74,4.51,-10.21,631,-1459,8060,-1,-1,0
-9.74,4.51,-10.21,637,-1458,8065,0,-1,0
-9.74,4.51,-10.20,628,-1445,8078,0,-1,-1
-9.74,4.52,-10.21,628,-1455,8074,-1,-1,0
-9.74,4.52,-10.20,625,-1457,8068,0,-1,-1
-9.74,4.53,-10.19,631,-1459,8061,0,-1,-1
-9.74,4.54,-10.19,637,-1462,8051,0,-1,0
-9.74,4.55,-10.19,640,-1457,8059,0,-1,-1
-9.74,4.55,-10.18,636,-1439,8065,0,-1,0
-9.75,4.55,-10.18,636,-1443,8063,-1,-1,0
-9.74,4.56,-10.19,639,-1452,8067,-1,-1,0
-9.74,4.56,-10.19,641,-1458,8071,-1,-1,0
-9.75,4.56,-10.20,644,-1461,8068,-1,-1,0
-9.76,4.57,-10.20,636,-1463,8062,0,-1,0
-9.76,4.58,-10.19,641,-1457,8068,0,-1,0
-9.76,4.58,-10.18,644,-1457,8068,0,-1,-1
-9.76,4.59,-10.18,649,-1461,8074,0,-1,-1
-9.76,4.59,-10.17,649,-1453,8069,0,-1,-1
-9.76,4.59,-10.16,647,-1449,8078,0,-1,-1
-9.76,4.59,-10.16,642,-1442,8079,0,-1,-1
-9.76,4.59,-10.16,638,-1447,8079,-1,-1,0
-9.76,4.59,-10.16,638,-1448,8078,-1,-1,0
-9.76,4.60,-10.16,640,-1455,8069,0,-1,0
-9.76,4.61,-10.17,638,-1452,8069,-1,-1,-1
-9.76,4.61,-10.17,649,-1451,8063,-1,-1,0
-9.76,4.61,-10.17,653,-1458,8069,0,-1,0
-9.77,4.62,-10.17,656,-1449,8057,0,-1,0
-9.77,4.62,-10.17,649,-1458,8072,-1,-1,-1
-9.77,4.63,-10.18,652,-1454,8073,0,-1,0
-9.77,4.63,-10.18,646,-1454,8068,-1,-1,0
-9.78,4.63,-10.18,643,-1456,8075,-1,-1,0
-9.78,4.64,-10.18,646,-1463,8069,0,-1,0
-9.78,4.65,-10.18,649,-1461,8065,0,-1,0
-9.78,4.65,-10.18,651,-1460,8069,0,-1,0
-9.78,4.65,-10.17,653,-1452,8069,0,-1,0
-9.78,4.65,-10.17,653,-1442,8064,-1,-1,0
-9.78,4.65,-10.17,650,-1447,8059,0,-1,0
-9.78,4.65,-10.16,651,-1445,8070,0,-1,-1
-9.78,4.65,-10.16,642,-1441,8070,0,-1,0
-9.79,4.66,-10.17,642,-1451,8071,0,-1,0
-9.79,4.67,-10.17,656,-1456,8067,0,-1,0
-9.79,4.67,-10.17,651,-1458,8059,0,-1,0
-9.79,4.67,-10.17,648,-1457,8062,0,-1,0
-9.79,4.68,-10.16,655,-1447,8050,0,-1,0
-9.79,4.69,-10.16,658,-1443,8048,0,-1,0
-9.79,4.69,-10.16,654,-1448,8052,0,-1,0
-9.79,4.70,-10.16,658,-1439,8061,-1,-1,-1
-9.80,4.70,-10.16,659,-1440,8056,-1,-1,0
-9.80,4.70,-10.16,660,-1444,8064,-1,-1,0
-9.80,4.71,-10.16,660,-1453,8072,-1,-1,0
-9.81,4.71,-10.17,652,-1457,8075,-1,-1,0
-9.81,4.71,-10.17,660,-1457,8078,-1,-1,-1
-9.81,4.72,-10.17,667,-1449,8078,0,-1,0
-9.81,4.72,-10.17,670,-1449,8063,-1,-1,0
-9.81,4.73,-10.17,676,-1449,8064,0,0,0
-9.81,4.72,-10.17,670,-1452,8075,-1,0,-1
-9.81,4.72,-10.17,666,-1439,8070,0,-1,0
-9.81,4.72,-10.17,665,-1443,8059,-1,-1,0
-9.82,4.73,-10.17,665,-1449,8063,-1,-1,0
-9.82,4.73,-10.18,661,-1445,8061,-1,-1,0
-9.82,4.73,-10.18,659,-1440,8063,-1,-1,0
-9.83,4.72,-10.18,659,-1449,8063,-1,-1,0
-9.83,4.72,-10.19,653,-1471,8060,0,-1,0
-9.83,4.72,-10.19,652,-1471,8065,0,-1,0
-9.83,4.73,-10.18,658,-1462,8069,0,-1,0
-9.83,4.73,-10.18,658,-1456,8068,0,-1,-1
-9.83,4.74,-10.17,668,-1449,8067,0,-1,-1
-9.83,4.74,-10.17,669,-1444,8075,0,-1,0
-9.83,4.75,-10.16,667,-1440,8071,0,-1,0
-9.84,4.75,-10.16,673,-1443,8074,-1,-1,0
-9.84,4.75,-10.17,665,-1453,8069,-1,-1,0
-9.85,4.75,-10.17,665,-1453,8073,-1,-1,0
-9.85,4.75,-10.17,653,-1453,8067,0,-1,0
-9.85,4.74,-10.17,657,-1462,8063,0,-1,0
-9.85,4.76,-10.17,665,-1461,8068,0,-1,0
-9.85,4.76,-10.17,673,-1458,8066,0,-1,-1
-9.85,4.76,-10.17,675,-1453,8069,0,0,-1
-9.85,4.75,-10.16,682,-1440,8067,0,0,-1
-9.84,4.74,-10.15,682,-1441,8058,0,0,-1
-9.84,4.73,-10.15,672,-1439,8066,-1,0,-1
-9.84,4.71,-10.15,661,-1438,8064,-1,0,0
-9.84,4.71,-10.15,657,-1445,8070,0,0,-1
-9.84,4.71,-10.15,662,-1444,8077,0,-1,-1
-9.84,4.71,-10.15,666,-1450,8081,-1,-1,-1
-9.84,4.71,-10.15,660,-1450,8079,-1,-1,-1
-9.84,4.71,-10.15,672,-1459,8080,0,-1,-1
-9.84,4.71,-10.15,673,-1454,8079,0,0,-1
-9.84,4.71,-10.14,670,-1449,8071,0,0,-1
-9.83,4.70,-10.14,670,-1442,8068,0,0,-1
-9.83,4.70,-10.14,667,-1436,8068,0,0,-1
-9.83,4.69,-10.13,663,-1431,8070,-1,0,-1
-9.82,4.68,-10.13,658,-1440,8068,-1,0,0
-9.82,4.67,-10.14,652,-1441,8069,-1,0,0
-9.82,4.67,-10.15,652,-1448,8068,-1,0,-1
-9.82,4.67,-10.15,659,-1452,8062,-1,0,0
-9.82,4.67,-10.15,661,-1456,8051,-1,0,-1
-9.82,4.66,-10.15,658,-1464,8061,0,0,-1
-9.82,4.65,-10.15,656,-1451,8053,-1,0,-1
-9.83,4.64,-10.15,654,-1441,8061,-1,0,-1
-9.82,4.64,-10.15,653,-1436,8074,-1,0,-1
-9.82,4.63,-10.15,655,-1441,8074,0,0,0
-9.82,4.62,-10.15,662,-1443,8071,0,0,0
-9.82,4.61,-10.15,655,-1434,8069,-1,0,0
-9.83,4.60,-10.15,651,-1436,8071,-1,0,0
-9.83,4.60,-10.15,653,-1444,8070,-1,0,-1
-9.83,4.60,-10.15,647,-1442,8056,-1,0,-1
-9.82,4.60,-10.16,649,-1448,8068,-1,0,-1
-9.82,4.60,-10.16,650,-1455,8067,0,0,-1
-9.82,4.59,-10.16,650,-1453,8069,0,0,-1
-9.82,4.58,-10.16,647,-1449,8062,0,0,-1
-9.82,4.57,-10.16,642,-1446,8060,-1,0,0
-9.82,4.57,-10.16,651,-1454,8073,-1,0,0
-9.82,4.56,-10.16,652,-1450,8069,-1,0,0
-9.82,4.55,-10.16,646,-1445,8073,-1,0,-1
-9.82,4.55,-10.17,646,-1448,8067,-1,0,0
-9.82,4.54,-10.18,641,-1455,8079,-1,0,0
-9.83,4.52,-10.18,639,-1452,8083,-1,0,0
-9.83,4.52,-10.19,638,-1448,8084,-1,0,0
-9.83,4.50,-10.19,635,-1453,8075,-1,0,0
-9.83,4.49,-10.21,631,-1460,8074,-1,0,0
-9.83,4.49,-10.21,623,-1465,8069,-1,0,0
-9.83,4.48,-10.21,627,-1461,8067,-1,0,0
-9.83,4.47,-10.21,638,-1467,8069,0,0,-1
-9.82,4.46,-10.21,627,-1456,8069,0,0,-1
-9.82,4.46,-10.21,633,-1451,8060,-1,0,0
-9.82,4.44,-10.22,626,-1452,8062,-1,0,-1
-9.82,4.43,-10.22,624,-1451,8073,-1,0,0
-9.82,4.42,-10.23,619,-1451,8078,-1,0,0
-9.82,4.41,-10.23,611,-1463,8079,-1,0,-1
-9.83,4.40,-10.24,609,-1474,8076,-1,0,0
-9.83,4.39,-10.24,615,-1473,8074,0,0,-1
-9.82,4.39,-10.24,614,-1471,8069,-1,0,-1
-9.82,4.39,-10.24,618,-1462,8070,0,0,-1
-9.82,4.38,-10.24,618,-1456,8067,-1,0,-1
-9.83,4.37,-10.23,614,-1458,8072,0,0,-1
-9.83,4.36,-10.24,613,-1458,8073,-1,0,0
-9.83,4.34,-10.24,598,-1459,8068,-1,0,0
-9.83,4.33,-10.25,603,-1464,8071,-1,0,0
-9.83,4.33,-10.25,608,-1464,8067,-1,0,0
-9.83,4.33,-10.26,599,-1469,8065,-1,0,-1
-9.83,4.32,-10.27,601,-1477,8064,-1,0,0
-9.83,4.31,-10.27,601,-1475,8065,0,0,-1
-9.84,4.31,-10.27,605,-1471,8065,0,0,-1
-9.84,4.30,-10.26,605,-1472,8064,0,0,0
-9.84,4.29,-10.26,601,-1467,8062,0,0,0
-9.84,4.28,-10.26,597,-1468,8062,-1,0,-1
-9.84,4.28,-10.26,593,-1462,8066,0,0,0
-9.84,4.28,-10.26,587,-1454,8068,-1,0,-1
-9.84,4.28,-10.26,593,-1452,8070,-1,-1,-1
-9.84,4.28,-10.27,600,-1468,8068,-1,-1,-1
-9.84,4.28,-10.27,602,-1463,8066,0,-1,-1
-9.84,4.28,-10.27,597,-1465,8067,0,-1,-1
-9.84,4.28,-10.27,598,-1469,8068,0,-1,-1
-9.84,4.29,-10.26,598,-1462,8073,0,-1,-1
-9.84,4.29,-10.26,593,-1458,8067,0,-1,-1
-9.84,4.29,-10.26,604,-1464,8064,0,-1,-1
-9.84,4.29,-10.26,609,-1456,8079,-1,-1,-1
-9.83,4.29,-10.26,602,-1457,8078,-1,-1,0
-9.84,4.29,-10.26,593,-1466,8070,0,-1,0
-9.84,4.30,-10.26,603,-1467,8066,0,-1,0
-9.84,4.30,-10.26,602,-1472,8053,0,-1,-1
-9.84,4.31,-10.26,608,-1476,8066,0,-1,-1
-9.84,4.31,-10.26,604,-1474,8067,0,-1,0
-9.84,4.32,-10.25,605,-1470,8062,0,-1,-1
-9.84,4.33,-10.25,617,-1460,8071,0,-1,-1
-9.84,4.33,-10.24,621,-1453,8073,0,-1,0
-9.84,4.33,-10.24,618,-1460,8058,-1,-1,0
-9.84,4.34,-10.24,618,-1464,8065,-1,-1,0
-9.84,4.35,-10.24,618,-1467,8082,0,-1,0
-9.85,4.35,-10.23,610,-1459,8085,0,-1,0
-9.85,4.36,-10.24,603,-1461,8078,0,-1,-1
-9.85,4.36,-10.23,599,-1463,8080,0,-1,-1
-9.85,4.36,-10.23,604,-1463,8073,0,-1,-1
-9.85,4.37,-10.23,613,-1466,8072,0,-1,0
-9.85,4.38,-10.23,615,-1467,8070,0,-1,0
-9.85,4.38,-10.22,618,-1456,8066,0,-1,0
-9.85,4.39,-10.23,623,-1462,8067,0,-1,0
-9.85,4.40,-10.23,621,-1460,8062,0,-1,0
-9.85,4.41,-10.22,622,-1457,8062,0,-1,-1
-9.85,4.41,-10.21,627,-1453,8058,0,-1,-1
-9.85,4.41,-10.21,621,-1453,8072,0,-1,-1
-9.86,4.42,-10.20,619,-1457,8076,0,-1,0
-9.86,4.42,-10.20,622,-1452,8072,0,-1,0
-9.86,4.42,-10.20,618,-1454,8073,-1,-1,0
-9.86,4.43,-10.20,624,-1457,8069,-1,-1,0
-9.86,4.44,-10.19,624,-1459,8072,0,-1,0
-9.86,4.44,-10.20,622,-1465,8073,0,-1,0
-9.86,4.44,-10.20,622,-1455,8060,0,-1,0
-9.86,4.45,-10.19,624,-1450,8058,0,-1,-1
-9.86,4.45,-10.19,616,-1456,8057,0,-1,0
-9.86,4.46,-10.18,618,-1451,8062,-1,-1,0
-9.86,4.46,-10.18,628,-1443,8066,-1,-1,-1
-9.87,4.47,-10.18,628,-1444,8069,-1,-1,0
-9.87,4.47,-10.19,634,-1452,8066,0,-1,0
-9.88,4.48,-10.19,632,-1448,8058,0,-1,0
-9.88,4.48,-10.19,630,-1458,8064,-1,-1,0
-9.88,4.49,-10.19,631,-1461,8070,0,-1,0
-9.88,4.49,-10.19,627,-1458,8068,0,-1,-1
-9.88,4.50,-10.19,623,-1465,8068,0,-1,-1
-9.88,4.50,-10.17,631,-1458,8071,0,-1,-1
-9.88,4.51,-10.17,632,-1446,8065,0,-1,-1
-9.88,4.52,-10.16,631,-1435,8072,0,-1,0
-9.88,4.52,-10.15,629,-1437,8071,0,-1,-1
-9.88,4.53,-10.14,634,-1434,8074,0,-1,0
-9.88,4.53,-10.14,637,-1442,8080,0,-1,0
-9.88,4.54,-10.14,636,-1441,8076,0,-1,0
-9.89,4.54,-10.14,639,-1448,8071,-1,-1,0
-9.89,4.54,-10.14,636,-1450,8075,-1,-1,0
-9.89,4.54,-10.14,640,-1448,8066,-1,-1,0
-9.89,4.55,-10.14,653,-1447,8069,-1,0,0
-9.89,4.54,-10.15,636,-1437,8074,-1,0,0
-9.90,4.54,-10.15,629,-1448,8066,-1,-1,0
-9.90,4.55,-10.16,646,-1465,8064,-1,-1,0
-9.90,4.55,-10.16,644,-1469,8068,0,-1,0
-9.90,4.55,-10.15,635,-1451,8081,0,-1,0
-9.90,4.55,-10.15,634,-1455,8074,-1,-1,-1
-9.90,4.55,-10.15,645,-1462,8057,0,-1,-1
-9.90,4.55,-10.15,644,-1448,8053,0,-1,-1
-9.90,4.55,-10.15,640,-1437,8067,0,-1,0
-9.91,4.56,-10.15,637,-1451,8075,0,-1,0
-9.91,4.57,-10.14,643,-1449,8078,0,-1,0
-9.91,4.57,-10.14,643,-1435,8072,-1,-1,0
-9.91,4.57,-10.14,639,-1437,8062,-1,-1,0
-9.91,4.57,-10.15,638,-1444,8065,-1,-1,0
-9.91,4.57,-10.15,638,-1446,8072,-1,-1,0
-9.92,4.57,-10.16,638,-1461,8076,-1,-1,0
-9.92,4.57,-10.16,641,-1467,8086,-1,-1,0
-9.93,4.58,-10.16,642,-1473,8070,0,-1,0
-9.93,4.59,-10.16,640,-1479,8072,0,-1,0
-9.93,4.59,-10.16,635,-1477,8070,0,-1,-1
-9.93,4.60,-10.15,646,-1455,8062,0,-1,0
-9.93,4.61,-10.15,656,-1443,8053,0,-1,0
-9.93,4.62,-10.14,669,-1444,8060,0,-1,0
-9.93,4.62,-10.14,657,-1438,8069,-1,0,0
-9.93,4.62,-10.14,651,-1437,8067,-1,0,0
-9.94,4.61,-10.15,648,-1448,8069,-1,-1,0
-9.95,4.62,-10.16,642,-1448,8063,-1,-1,0
-9.95,4.62,-10.16,640,-1454,8068,0,-1,0
-9.95,4.63,-10.16,645,-1457,8064,0,-1,0
-9.96,4.64,-10.16,644,-1456,8057,0,-1,0
-9.96,4.65,-10.16,649,-1456,8052,0,-1,0
-9.96,4.65,-10.15,663,-1455,8055,0,-1,0
-9.96,4.65,-10.16,658,-1456,8056,-1,-1,0
-9.96,4.65,-10.16,666,-1446,8063,-1,0,0
-9.97,4.65,-10.16,667,-1444,8080,-1,0,0
-9.98,4.64,-10.17,657,-1452,8085,-1,0,0
-9.99,4.64,-10.17,656,-1456,8076,-1,0,0
-9.99,4.64,-10.17,648,-1461,8054,-1,0,0
-9.99,4.63,-10.18,652,-1461,8062,-1,0,0
-9.99,4.63,-10.19,656,-1461,8053,-1,-1,0
-10.00,4.63,-10.18,657,-1456,8050,0,-1,0
-10.00,4.63,-10.18,654,-1467,8065,0,-1,-1
-10.00,4.64,-10.17,649,-1445,8065,0,-1,-1
-10.00,4.64,-10.16,647,-1441,8066,0,-1,0
-10.00,4.65,-10.16,654,-1450,8071,-1,-1,-1
-10.00,4.66,-10.16,652,-1446,8069,0,-1,-1
-10.01,4.66,-10.16,653,-1443,8062,0,-1,0
-10.01,4.67,-10.16,662,-1452,8061,-1,-1,0
-10.01,4.67,-10.16,661,-1457,8060,0,-1,-1
-10.00,4.67,-10.16,663,-1456,8064,0,0,-1
-9.99,4.67,-10.14,647,-1441,8077,0,-1,-1
-9.99,4.67,-10.13,648,-1453,8079,0,-1,-1
-9.99,4.67,-10.13,647,-1463,8081,0,-1,-1
-9.98,4.68,-10.13,652,-1451,8077,0,-1,-1
-9.98,4.68,-10.11,664,-1443,8078,0,-1,-1
-9.98,4.69,-10.11,675,-1438,8088,0,-1,-1
-9.98,4.70,-10.11,670,-1433,8080,-1,-1,-1
-9.97,4.69,-10.11,674,-1424,8078,-1,0,-1
-9.97,4.69,-10.11,675,-1430,8073,-1,0,0
-9.97,4.68,-10.11,669,-1445,8069,-1,0,-1
-9.97,4.68,-10.12,661,-1452,8068,-1,0,-1
-9.97,4.67,-10.12,659,-1446,8064,-1,0,-1
-9.97,4.66,-10.12,656,-1449,8062,0,0,0
-9.97,4.66,-10.12,645,-1447,8066,0,0,-1
-9.97,4.65,-10.12,647,-1449,8055,-1,-1,-1
-9.97,4.66,-10.12,659,-1448,8066,0,-1,-1
-9.96,4.66,-10.11,669,-1433,8071,0,0,-1
-9.96,4.66,-10.12,670,-1434,8081,-1,0,-1
-9.96,4.64,-10.12,662,-1441,8076,-1,0,-1
-9.96,4.64,-10.12,657,-1442,8080,-1,0,0
-9.96,4.64,-10.13,661,-1445,8063,-1,0,0
-9.96,4.63,-10.14,656,-1456,8066,-1,0,0
-9.96,4.62,-10.13,655,-1456,8059,0,0,-1
-9.96,4.62,-10.13,658,-1455,8062,0,0,-1
-9.96,4.61,-10.13,654,-1445,8069,0,0,-1
-9.96,4.61,-10.13,653,-1453,8070,0,0,-1
-9.96,4.60,-10.12,655,-1441,8073,0,0,-1
-9.96,4.59,-10.12,653,-1434,8072,-1,0,-1
-9.95,4.58,-10.12,644,-1429,8080,-1,0,0
-9.95,4.57,-10.14,643,-1445,8072,-1,0,0
-9.96,4.57,-10.14,645,-1457,8058,-1,0,0
-9.96,4.56,-10.14,633,-1451,8055,-1,0,0
-9.96,4.55,-10.14,628,-1449,8072,-1,0,-1
-9.96,4.54,-10.15,640,-1445,8077,-1,0,-1
-9.96,4.54,-10.15,638,-1431,8075,-1,0,0
-9.96,4.53,-10.15,641,-1441,8062,-1,0,-1
-9.96,4.52,-10.15,649,-1437,8066,-1,0,0
-9.96,4.51,-10.16,643,-1453,8069,-1,0,0
-9.96,4.49,-10.16,635,-1444,8070,-1,0,0
-9.96,4.48,-10.17,630,-1451,8072,-1,0,-1
-9.96,4.47,-10.17,622,-1459,8064,-1,0,-1
-9.96,4.46,-10.18,619,-1468,8063,0,0,-1
-9.96,4.46,-10.17,619,-1459,8064,0,-1,-1
-9.96,4.46,-10.17,629,-1461,8066,0,0,-1
-9.96,4.46,-10.17,626,-1457,8066,0,-1,-1
-9.96,4.46,-10.17,634,-1459,8075,0,0,0
-9.96,4.45,-10.16,632,-1449,8081,0,0,-1
-9.96,4.45,-10.16,632,-1435,8084,-1,0,-1
-9.96,4.44,-10.17,626,-1441,8078,-1,0,0
-9.96,4.44,-10.17,622,-1443,8070,-1,0,-1
-9.96,4.44,-10.17,626,-1451,8072,-1,0,0
-9.96,4.44,-10.17,636,-1458,8075,-1,0,0
-9.96,4.43,-10.18,628,-1457,8077,-1,0,0
-9.96,4.42,-10.18,625,-1462,8069,-1,0,0
-9.96,4.41,-10.19,626,-1454,8069,-1,0,-1
-9.96,4.40,-10.19,621,-1454,8082,-1,0,0
-9.96,4.39,-10.20,621,-1457,8077,-1,0,0
-9.97,4.39,-10.20,620,-1461,8066,-1,0,0
-9.97,4.38,-10.21,618,-1464,8080,-1,0,-1
-9.97,4.37,-10.21,611,-1457,8085,0,0,-1
-9.97,4.36,-10.21,603,-1455,8079,-1,0,-1
-9.96,4.36,-10.21,599,-1454,8075,-1,0,-1
-9.97,4.35,-10.21,606,-1460,8074,0,0,0
-9.96,4.35,-10.21,616,-1458,8069,0,0,0
-9.96,4.35,-10.21,616,-1458,8069,-1,0,0
-9.97,4.34,-10.21,611,-1453,8076,-1,0,0
-9.97,4.33,-10.21,616,-1456,8065,-1,0,0
-9.97,4.33,-10.22,606,-1461,8062,-1,0,0
-9.97,4.32,-10.22,607,-1459,8063,-1,0,0
-9.97,4.32,-10.22,599,-1461,8067,-1,0,0
-9.97,4.31,-10.22,598,-1469,8071,-1,0,-1
-9.97,4.30,-10.22,592,-1462,8068,-1,0,-1
-9.97,4.30,-10.22,589,-1461,8066,-1,0,-1
-9.97,4.30,-10.23,590,-1464,8070,-1,0,0
-9.97,4.30,-10.23,594,-1463,8073,-1,-1,0
-9.97,4.30,-10.23,601,-1459,8078,0,-1,-1
-9.98,4.31,-10.22,603,-1458,8064,0,-1,0
-9.98,4.31,-10.22,607,-1461,8059,0,-1,0
-9.98,4.32,-10.22,608,-1471,8046,0,-1,-1
-9.98,4.33,-10.21,613,-1463,8064,0,-1,-1
-9.98,4.33,-10.20,610,-1458,8074,0,-1,-1
-9.98,4.34,-10.20,616,-1465,8079,0,-1,-1
-9.97,4.35,-10.21,614,-1463,8082,0,-1,-1
-9.98,4.35,-10.20,606,-1460,8074,0,-1,0
-9.98,4.35,-10.20,602,-1468,8071,0,-1,0
-9.98,4.36,-10.20,606,-1463,8078,0,-1,0
-9.98,4.36,-10.19,610,-1460,8066,0,-1,0
-9.98,4.36,-10.19,611,-1455,8064,0,-1,-1
-9.98,4.37,-10.19,617,-1451,8070,0,-1,-1
-9.98,4.37,-10.18,615,-1446,8062,0,-1,0
-9.98,4.38,-10.18,624,-1447,8063,-1,-1,0
-9.98,4.38,-10.19,622,-1450,8066,-1,-1,0
-9.99,4.38,-10.19,616,-1455,8067,-1,-1,0
-9.99,4.39,-10.19,620,-1458,8063,-1,-1,0
-9.99,4.39,-10.20,617,-1461,8062,-1,-1,-1
-9.99,4.39,-10.20,620,-1470,8068,0,-1,-1
-9.99,4.40,-10.19,621,-1468,8064,0,-1,-1
-9.99,4.40,-10.19,617,-1467,8067,0,-1,-1
-9.99,4.40,-10.18,622,-1455,8066,0,-1,-1
-9.99,4.41,-10.18,623,-1450,8065,0,-1,0
-9.99,4.41,-10.17,624,-1450,8073,0,-1,-1
-9.99,4.41,-10.16,629,-1444,8061,0,-1,0
-9.99,4.42,-10.16,623,-1446,8083,0,-1,0
-9.99,4.43,-10.16,622,-1440,8082,0,-1,0
-9.99,4.43,-10.16,614,-1447,8077,-1,-1,-1
-9.99,4.43,-10.17,623,-1457,8070,-1,-1,-1
-10.00,4.43,-10.17,625,-1459,8060,0,-1,0
-10.00,4.44,-10.17,634,-1449,8068,0,-1,0
-10.00,4.45,-10.17,632,-1453,8072,0,-1,-1
-10.00,4.45,-10.16,627,-1449,8069,0,-1,-1
-10.00,4.45,-10.16,628,-1449,8062,0,-1,-1
-10.00,4.45,-10.16,623,-1452,8057,-1,-1,0
-10.00,4.45,-10.17,623,-1457,8071,-1,-1,0
-10.00,4.45,-10.17,620,-1454,8072,-1,-1,0
-10.00,4.45,-10.17,621,-1451,8069,0,-1,0
-10.01,4.46,-10.17,624,-1459,8066,0,-1,0
-10.01,4.46,-10.16,627,-1452,8070,0,-1,0
-10.01,4.47,-10.16,629,-1446,8068,0,-1,0
-10.01,4.48,-10.15,635,-1446,8071,0,-1,0
-10.01,4.48,-10.15,631,-1446,8066,0,-1,0
-10.01,4.48,-10.14,637,-1445,8078,0,-1,0
-10.01,4.48,-10.14,638,-1451,8071,-1,-1,0
-10.01,4.49,-10.15,633,-1451,8076,0,-1,0
-10.02,4.50,-10.15,635,-1447,8076,0,-1,0
-10.02,4.50,-10.15,638,-1451,8069,0,-1,0
-10.02,4.50,-10.15,636,-1455,8074,0,-1,-1
-10.02,4.50,-10.15,627,-1445,8080,0,-1,0
-10.02,4.51,-10.14,631,-1435,8088,0,-1,-1
-10.02,4.51,-10.14,635,-1439,8082,-1,-1,0
-10.02,4.52,-10.15,642,-1452,8076,0,-1,0
-10.02,4.52,-10.15,643,-1455,8069,-1,-1,0
-10.02,4.52,-10.15,642,-1464,8071,0,-1,0
-10.03,4.53,-10.14,638,-1462,8065,0,-1,0
-10.03,4.54,-10.14,636,-1457,8076,0,-1,0
-10.03,4.55,-10.14,641,-1451,8063,0,-1,-1
-10.02,4.55,-10.13,650,-1448,8066,0,-1,-1
-10.02,4.55,-10.12,647,-1445,8064,0,-1,0
-10.03,4.56,-10.12,657,-1436,8069,0,0,0
-10.03,4.55,-10.12,639,-1426,8070,-1,0,-1
-10.03,4.55,-10.12,636,-1435,8064,-1,-1,0
-10.03,4.55,-10.13,645,-1447,8062,-1,0,0
-10.03,4.55,-10.13,631,-1439,8073,0,-1,0
-10.04,4.56,-10.13,636,-1441,8074,-1,-1,0
-10.04,4.56,-10.14,634,-1451,8076,-1,-1,0
-10.04,4.57,-10.13,641,-1448,8064,0,-1,0
-10.04,4.57,-10.13,636,-1447,8067,-1,-1,0
-10.04,4.57,-10.13,646,-1454,8074,-1,-1,0
-10.04,4.58,-10.14,645,-1460,8072,0,-1,0
-10.04,4.58,-10.13,647,-1458,8065,0,-1,0
-10.04,4.58,-10.13,646,-1449,8070,0,-1,0
-10.04,4.59,-10.13,642,-1446,8075,0,-1,0
-10.04,4.59,-10.13,653,-1443,8071,0,-1,0
-10.05,4.59,-10.13,648,-1440,8058,0,-1,0
-10.05,4.60,-10.13,648,-1438,8062,0,-1,0
-10.05,4.60,-10.12,650,-1440,8068,0,-1,-1
-10.05,4.61,-10.12,646,-1438,8071,0,-1,0
-10.05,4.62,-10.12,658,-1438,8068,0,-1,-1
-10.05,4.62,-10.11,661,-1429,8061,-1,-1,0
-10.05,4.62,-10.11,661,-1429,8058,0,-1,0
-10.05,4.62,-10.12,659,-1443,8064,-1,-1,0
-10.05,4.63,-10.12,658,-1445,8055,0,-1,0
-10.05,4.63,-10.12,653,-1439,8059,-1,-1,0
-10.05,4.64,-10.12,656,-1444,8064,-1,-1,0
-10.05,4.64,-10.12,664,-1450,8066,0,-1,0
-10.06,4.65,-10.12,660,-1444,8051,0,-1,0
-10.06,4.66,-10.12,662,-1441,8055,-1,-1,0
-10.06,4.66,-10.12,672,-1437,8059,0,-1,0
-10.06,4.66,-10.12,665,-1436,8058,-1,0,0
-10.06,4.66,-10.13,660,-1448,8055,-1,0,0
-10.06,4.66,-10.13,652,-1441,8066,-1,-1,0
-10.06,4.66,-10.14,657,-1459,8066,-1,-1,0
-10.06,4.66,-10.14,658,-1450,8058,0,-1,0
-10.06,4.67,-10.13,656,-1441,8058,0,-1,-1
-10.07,4.67,-10.13,655,-1442,8060,0,-1,0
-10.07,4.69,-10.13,666,-1436,8062,0,-1,0
-10.07,4.70,-10.13,666,-1432,8049,0,-1,0
-10.07,4.70,-10.13,672,-1429,8062,-1,-1,0
-10.08,4.70,-10.13,670,-1429,8066,-1,-1,0
-10.08,4.70,-10.13,669,-1439,8071,-1,-1,0
-10.08,4.70,-10.14,662,-1444,8065,-1,-1,0
-10.08,4.71,-10.14,665,-1449,8060,0,-1,0
-10.08,4.71,-10.14,667,-1452,8062,0,-1,0
-10.08,4.71,-10.14,675,-1451,8066,0,-1,0
-10.08,4.72,-10.14,672,-1451,8060,0,-1,-1
-10.08,4.72,-10.14,675,-1441,8060,0,-1,-1
-10.08,4.73,-10.13,678,-1442,8061,-1,-1,0
-10.08,4.73,-10.14,677,-1441,8065,-1,0,0
-10.09,4.73,-10.14,683,-1446,8058,-1,0,0
-10.09,4.72,-10.14,682,-1446,8069,-1,0,0
-10.08,4.71,-10.14,670,-1448,8065,0,0,-1
-10.08,4.70,-10.14,663,-1445,8070,0,0,-1
-10.08,4.69,-10.13,653,-1446,8068,0,0,-1
-10.08,4.69,-10.13,653,-1443,8066,0,0,-1
-10.08,4.68,-10.13,664,-1440,8065,0,0,-1
-10.07,4.68,-10.12,670,-1435,8068,0,0,-1
-10.07,4.68,-10.12,670,-1440,8061,-1,0,0
-10.07,4.67,-10.13,669,-1447,8054,-1,0,-1
-10.07,4.67,-10.13,677,-1450,8059,-1,0,-1
-10.07,4.66,-10.13,664,-1443,8065,-1,0,0
-10.07,4.65,-10.14,659,-1446,8075,-1,0,-1
-10.07,4.64,-10.13,654,-1444,8066,-1,0,-1
-10.07,4.63,-10.13,655,-1447,8067,0,0,-1
-10.07,4.63,-10.13,651,-1439,8068,0,0,-1
-10.07,4.62,-10.13,651,-1441,8067,0,0,-1
-10.07,4.61,-10.13,651,-1434,8071,-1,0,-1
-10.06,4.61,-10.13,656,-1438,8071,-1,0,0
-10.06,4.60,-10.14,659,-1443,8072,-1,0,0
-10.06,4.59,-10.14,656,-1445,8078,-1,0,0
-10.06,4.59,-10.15,655,-1454,8082,-1,0,0
-10.06,4.58,-10.15,654,-1459,8071,-1,0,0
-10.06,4.58,-10.16,650,-1457,8072,0,0,0
-10.06,4.57,-10.16,644,-1452,8072,0,0,-1
-10.06,4.56,-10.15,646,-1448,8071,0,0,0
-10.06,4.56,-10.15,650,-1453,8072,0,0,-1
-10.06,4.56,-10.15,651,-1437,8070,0,0,-1
-10.06,4.56,-10.15,645,-1434,8065,-1,0,-1
-10.06,4.56,-10.15,649,-1438,8072,-1,0,0
-10.06,4.55,-10.15,647,-1439,8069,-1,0,-1
-10.06,4.55,-10.15,649,-1441,8074,-1,0,0
-10.06,4.54,-10.16,648,-1441,8089,-1,0,0
-10.06,4.53,-10.17,646,-1452,8078,-1,0,0
-10.06,4.53,-10.16,646,-1450,8072,0,0,0
-10.06,4.53,-10.16,639,-1450,8076,-1,0,0
-10.06,4.52,-10.16,644,-1449,8073,0,0,-1
-10.06,4.52,-10.16,645,-1442,8069,-1,0,-1
-10.06,4.51,-10.16,647,-1442,8073,0,0,-1
-10.06,4.51,-10.16,645,-1439,8081,-1,0,0
-10.06,4.50,-10.17,643,-1439,8082,-1,0,0
-10.06,4.49,-10.18,641,-1449,8079,-1,0,0
-10.06,4.48,-10.18,642,-1454,8064,-1,0,0
-10.06,4.48,-10.18,643,-1446,8064,-1,0,0
-10.06,4.47,-10.19,632,-1451,8070,-1,0,-1
-10.06,4.46,-10.19,637,-1458,8056,-1,0,-1
-10.06,4.45,-10.19,638,-1454,8060,0,0,0
-10.06,4.45,-10.18,632,-1449,8067,0,0,0
-10.06,4.44,-10.19,637,-1453,8067,-1,0,-1
-10.06,4.43,-10.19,630,-1453,8080,0,0,0
-10.05,4.43,-10.19,625,-1445,8081,-1,0,-1
-10.05,4.43,-10.19,606,-1451,8067,-1,0,0
-10.06,4.42,-10.20,614,-1456,8064,0,-1,0
-10.06,4.42,-10.19,627,-1449,8063,-1,0,0
-10.06,4.42,-10.20,633,-1451,8070,-1,0,0
-10.06,4.42,-10.20,642,-1455,8069,0,0,0
-10.06,4.41,-10.19,637,-1444,8077,-1,0,-1
-10.06,4.40,-10.19,633,-1443,8084,-1,0,0
-10.06,4.40,-10.20,635,-1445,8081,-1,0,0
-10.06,4.39,-10.21,629,-1455,8069,-1,0,0
-10.06,4.39,-10.21,624,-1460,8072,0,0,0
-10.06,4.38,-10.21,620,-1450,8073,0,0,0
-10.06,4.37,-10.21,619,-1448,8067,-1,0,0
-10.06,4.37,-10.21,621,-1448,8067,-1,0,0
-10.06,4.37,-10.21,621,-1451,8068,-1,0,0
-10.06,4.36,-10.22,615,-1453,8065,-1,0,0
-10.06,4.35,-10.22,613,-1449,8081,-1,0,0
-10.07,4.35,-10.22,620,-1448,8077,-1,0,0
-10.07,4.35,-10.22,623,-1453,8070,-1,0,0
-10.07,4.34,-10.22,617,-1454,8074,-1,0,0
-10.07,4.34,-10.23,622,-1460,8076,-1,0,-1
-10.07,4.33,-10.23,618,-1466,8070,-1,0,-1
-10.07,4.33,-10.23,611,-1467,8075,-1,0,-1
-10.07,4.33,-10.23,608,-1466,8069,0,-1,-1
-10.07,4.33,-10.23,608,-1460,8069,0,-1,-1
-10.07,4.33,-10.23,613,-1458,8066,0,-1,-1
-10.07,4.34,-10.22,613,-1458,8065,0,0,-1
-10.07,4.33,-10.22,616,-1450,8063,0,0,0
-10.07,4.34,-10.22,626,-1443,8059,0,0,0
-10.07,4.34,-10.22,628,-1444,8064,-1,0,0
-10.07,4.33,-10.21,622,-1444,8064,-1,0,0
-10.07,4.33,-10.21,612,-1442,8075,-1,-1,0
-10.07,4.34,-10.22,613,-1450,8068,0,-1,0
-10.07,4.34,-10.22,617,-1464,8070,0,-1,-1
-10.07,4.35,-10.22,621,-1459,8067,0,-1,0
-10.07,4.35,-10.22,625,-1459,8063,0,-1,0
-10.07,4.36,-10.22,628,-1461,8059,0,-1,-1
-10.07,4.36,-10.21,633,-1457,8071,0,-1,0
-10.07,4.37,-10.21,619,-1460,8076,0,-1,0
-10.07,4.37,-10.21,619,-1452,8078,0,-1,0
-10.07,4.37,-10.20,621,-1447,8088,0,-1,-1
-10.07,4.37,-10.20,622,-1444,8077,-1,0,0
-10.07,4.38,-10.20,622,-1450,8078,-1,-1,0
-10.08,4.38,-10.21,624,-1455,8079,-1,-1,0
-10.08,4.38,-10.21,627,-1466,8082,0,-1,0
-10.09,4.39,-10.21,629,-1467,8072,0,-1,-1
-10.08,4.39,-10.21,622,-1464,8067,0,-1,-1
-10.08,4.40,-10.20,623,-1458,8063,0,-1,-1
-10.08,4.41,-10.19,634,-1449,8060,0,-1,-1
-10.08,4.42,-10.18,639,-1448,8064,0,-1,-1
-10.08,4.43,-10.18,634,-1452,8072,0,-1,-1
-10.08,4.43,-10.18,630,-1434,8074,0,-1,0
-10.08,4.43,-10.18,629,-1439,8074,-1,-1,0
-10.08,4.43,-10.18,632,-1438,8084,-1,-1,0
-10.09,4.43,-10.18,623,-1451,8068,-1,-1,0
-10.09,4.44,-10.18,627,-1457,8077,0,-1,0
-10.09,4.44,-10.19,631,-1447,8061,0,-1,0
-10.09,4.45,-10.17,633,-1447,8059,0,-1,-1
-10.09,4.47,-10.17,637,-1447,8059,0,-1,0
-10.09,4.47,-10.17,639,-1439,8058,0,-1,0
-10.09,4.47,-10.16,636,-1437,8077,-1,-1,0
-10.10,4.48,-10.16,637,-1441,8076,-1,-1,0
-10.10,4.48,-10.16,644,-1450,8073,-1,-1,0
-10.09,4.49,-10.17,645,-1453,8069,-1,-1,0
-10.10,4.49,-10.17,649,-1449,8073,-1,-1,0
-10.10,4.49,-10.17,636,-1454,8069,-1,-1,-1
-10.10,4.49,-10.18,635,-1459,8059,0,-1,0
-10.10,4.50,-10.17,647,-1455,8070,0,-1,0
-10.10,4.50,-10.17,646,-1456,8070,0,-1,-1
-10.10,4.51,-10.16,642,-1451,8069,0,-1,0
-10.11,4.51,-10.17,644,-1449,8067,0,-1,0
-10.11,4.52,-10.16,645,-1451,8065,0,-1,0
-10.11,4.52,-10.15,638,-1439,8060,0,-1,-1
-10.11,4.52,-10.16,634,-1445,8055,-1,-1,0
-10.11,4.53,-10.16,641,-1452,8064,0,-1,0
-10.11,4.54,-10.15,650,-1442,8053,0,-1,0
-10.11,4.54,-10.15,648,-1438,8052,0,-1,0
-10.11,4.55,-10.15,650,-1437,8060,0,-1,0
-10.11,4.55,-10.14,655,-1438,8068,0,-1,0
-10.11,4.56,-10.14,656,-1441,8075,-1,-1,-1
-10.10,4.56,-10.14,657,-1442,8066,-1,-1,-1
-10.10,4.57,-10.14,659,-1437,8069,-1,-1,0
-10.11,4.57,-10.14,648,-1441,8069,-1,-1,0
-10.11,4.57,-10.14,643,-1445,8069,0,-1,0
-10.11,4.58,-10.14,646,-1452,8073,0,-1,0
-10.12,4.58,-10.14,653,-1448,8079,0,-1,0
-10.12,4.59,-10.15,651,-1444,8071,0,-1,-1
-10.12,4.59,-10.14,645,-1438,8069,0,-1,0
-10.12,4.59,-10.14,655,-1439,8066,0,-1,0
-10.12,4.60,-10.13,655,-1442,8070,-1,-1,0
-10.12,4.61,-10.13,656,-1444,8059,0,-1,0
-10.12,4.61,-10.13,660,-1441,8057,0,-1,0
-10.12,4.61,-10.13,657,-1432,8051,-1,-1,0
-10.12,4.62,-10.14,661,-1440,8046,0,-1,0
-10.12,4.63,-10.14,659,-1439,8060,-1,-1,-1
-10.12,4.63,-10.14,666,-1440,8057,-1,-1,0
-10.13,4.63,-10.14,666,-1448,8066,-1,-1,0
-10.13,4.63,-10.14,663,-1451,8069,0,-1,0
-10.13,4.64,-10.15,672,-1461,8071,-1,-1,0
-10.13,4.65,-10.15,680,-1460,8075,0,-1,0
-10.13,4.65,-10.15,667,-1442,8079,-1,-1,-1
-10.13,4.65,-10.15,661,-1455,8064,-1,-1,0
-10.13,4.65,-10.16,681,-1470,8059,0,0,0
-10.13,4.65,-10.15,677,-1445,8063,0,0,0
-10.14,4.65,-10.15,669,-1435,8076,-1,0,0
-10.14,4.64,-10.17,662,-1451,8068,-1,0,0
-10.15,4.64,-10.17,663,-1457,8062,-1,0,0
-10.15,4.64,-10.17,659,-1458,8065,-1,0,0
-10.15,4.63,-10.18,652,-1460,8079,-1,-1,0
-10.16,4.63,-10.18,657,-1459,8065,0,0,0
-10.16,4.63,-10.18,655,-1452,8068,0,-1,-1
-10.16,4.63,-10.17,654,-1446,8075,-1,-1,0
-10.16,4.63,-10.18,658,-1447,8066,0,-1,0
-10.17,4.63,-10.18,668,-1448,8062,-1,0,0
-10.17,4.63,-10.18,667,-1443,8070,-1,0,0
-10.17,4.62,-10.19,666,-1448,8072,-1,0,0
-10.17,4.62,-10.20,668,-1448,8074,-1,0,0
-10.17,4.62,-10.20,665,-1453,8073,-1,0,0
-10.18,4.61,-10.21,672,-1463,8058,-1,0,0
-10.18,4.59,-10.21,670,-1461,8072,-1,0,-1
-10.18,4.57,-10.21,649,-1463,8061,0,0,-1
-10.18,4.55,-10.20,653,-1464,8066,0,0,-1
-10.17,4.53,-10.19,656,-1465,8068,0,0,-1
-10.17,4.52,-10.18,647,-1451,8069,0,0,-1
-10.18,4.50,-10.18,638,-1448,8067,0,0,0
-10.17,4.49,-10.17,643,-1438,8090,0,0,-1
-10.17,4.49,-10.17,632,-1432,8066,-1,0,0
-10.17,4.48,-10.18,631,-1446,8065,-1,0,-1
-10.16,4.48,-10.18,626,-1447,8061,-1,-1,-1
-10.16,4.49,-10.18,620,-1450,8062,0,-1,-1
-10.16,4.50,-10.18,644,-1456,8060,0,-1,-1
-10.15,4.51,-10.17,638,-1474,8069,0,-1,-1
-10.15,4.52,-10.16,638,-1446,8073,0,-1,-1
-10.14,4.53,-10.15,630,-1431,8075,0,-1,-1
-10.14,4.54,-10.15,645,-1435,8083,0,-1,-1
-10.14,4.56,-10.14,665,-1444,8089,0,-1,-1
-10.13,4.56,-10.14,657,-1433,8079,0,-1,-1
-10.13,4.56,-10.14,654,-1428,8080,-1,-1,-1
-10.13,4.56,-10.14,657,-1431,8068,-1,0,0
-10.13,4.56,-10.14,655,-1447,8065,-1,0,-1
-10.13,4.56,-10.15,654,-1447,8063,0,0,0
-10.13,4.55,-10.15,652,-1442,8064,-1,0,0
-10.13,4.55,-10.15,644,-1448,8064,0,0,-1
-10.13,4.55,-10.15,651,-1454,8072,0,0,-1
-10.13,4.54,-10.15,651,-1446,8064,-1,0,0
-10.13,4.54,-10.15,655,-1450,8059,0,0,0
-10.13,4.54,-10.15,659,-1443,8062,0,0,0
-10.13,4.54,-10.15,659,-1444,8060,-1,0,-1
-10.13,4.54,-10.15,652,-1437,8067,0,0,0
-10.12,4.53,-10.15,645,-1433,8075,-1,0,-1
-10.12,4.53,-10.15,645,-1435,8075,-1,0,-1
-10.12,4.52,-10.16,643,-1435,8080,-1,0,-1
-10.12,4.51,-10.16,646,-1442,8079,-1,0,0
-10.12,4.51,-10.17,640,-1450,8082,-1,0,0
-10.12,4.51,-10.17,639,-1447,8074,0,0,0
-10.12,4.50,-10.16,644,-1446,8072,0,0,0
-10.12,4.50,-10.16,641,-1441,8073,0,0,-1
-10.12,4.50,-10.16,647,-1437,8070,0,0,-1
-10.11,4.49,-10.16,637,-1442,8068,0,0,-1
-10.12,4.49,-10.16,639,-1437,8068,0,0,-1
-10.12,4.48,-10.16,633,-1441,8074,-1,0,0
-10.12,4.47,-10.16,627,-1438,8075,-1,0,0
-10.12,4.46,-10.17,629,-1445,8073,-1,0,0
-10.12,4.46,-10.17,635,-1453,8082,-1,0,0
-10.12,4.45,-10.17,627,-1456,8074,-1,0,0
-10.12,4.45,-10.17,632,-1450,8068,-1,0,-1
-10.12,4.44,-10.17,630,-1449,8077,0,0,-1
-10.12,4.44,-10.17,629,-1442,8077,-1,0,-1
-10.12,4.43,-10.18,631,-1441,8076,-1,0,0
-10.13,4.42,-10.18,630,-1444,8070,-1,0,0
-10.13,4.41,-10.19,629,-1448,8073,-1,0,0
-10.13,4.41,-10.20,629,-1454,8068,-1,0,0
-10.13,4.40,-10.20,620,-1461,8054,-1,0,-1
-10.12,4.40,-10.21,625,-1469,8058,-1,0,0
-10.12,4.40,-10.21,627,-1462,8058,0,0,-1
-10.12,4.39,-10.22,634,-1465,8064,0,0,-1
-10.12,4.39,-10.22,633,-1459,8064,0,0,-1
-10.11,4.38,-10.22,637,-1458,8073,0,0,-1
-10.11,4.38,-10.21,628,-1462,8076,0,0,-1
-10.11,4.36,-10.21,627,-1451,8073,0,0,-1
-10.11,4.36,-10.21,624,-1444,8072,-1,0,0
-10.12,4.35,-10.21,621,-1442,8075,-1,0,0
-10.12,4.34,-10.21,617,-1437,8073,-1,0,0
-10.12,4.34,-10.22,625,-1450,8070,-1,0,0
-10.12,4.33,-10.22,627,-1455,8070,-1,0,0
-10.12,4.33,-10.23,625,-1454,8067,-1,0,0
-10.12,4.32,-10.23,615,-1450,8074,-1,0,0
-10.12,4.31,-10.24,616,-1448,8066,-1,0,0
-10.12,4.30,-10.24,621,-1453,8057,-1,0,0
-10.12,4.30,-10.24,619,-1454,8059,-1,0,0
-10.12,4.30,-10.24,618,-1454,8060,-1,0,-1
-10.12,4.29,-10.25,615,-1458,8075,0,0,0
-10.12,4.29,-10.25,610,-1455,8073,-1,0,-1
-10.12,4.29,-10.25,605,-1457,8065,-1,-1,-1
-10.12,4.29,-10.25,602,-1462,8066,0,-1,-1
-10.12,4.29,-10.24,606,-1462,8065,0,-1,-1
-10.12,4.30,-10.23,613,-1460,8062,0,-1,-1
-10.12,4.30,-10.23,612,-1455,8067,0,-1,0
-10.12,4.31,-10.23,612,-1449,8070,0,-1,-1
-10.12,4.31,-10.23,607,-1452,8065,0,-1,0
-10.12,4.31,-10.22,609,-1449,8062,0,-1,0
-10.12,4.31,-10.22,606,-1453,8071,0,-1,0
-10.12,4.31,-10.23,610,-1458,8061,-1,-1,0
-10.12,4.31,-10.22,611,-1460,8062,0,-1,0
-10.12,4.32,-10.22,613,-1454,8055,0,-1,0
-10.12,4.33,-10.22,620,-1452,8058,0,-1,0
-10.12,4.33,-10.22,624,-1455,8068,0,-1,-1
-10.12,4.34,-10.22,626,-1454,8065,0,-1,-1
-10.12,4.34,-10.21,613,-1442,8074,-1,-1,0
-10.12,4.34,-10.21,609,-1442,8068,-1,-1,0
-10.12,4.35,-10.21,611,-1448,8065,0,-1,0
-10.12,4.35,-10.21,612,-1451,8064,-1,-1,0
-10.13,4.35,-10.22,608,-1461,8050,0,-1,0
-10.13,4.36,-10.21,629,-1462,8044,0,-1,0
-10.13,4.37,-10.21,624,-1465,8058,0,-1,-1
-10.13,4.38,-10.20,630,-1456,8064,0,-1,-1
-10.13,4.38,-10.19,623,-1443,8064,0,-1,-1
-10.12,4.38,-10.19,616,-1447,8071,0,-1,-1
-10.12,4.39,-10.19,625,-1451,8069,0,-1,0
-10.13,4.39,-10.18,628,-1444,8069,0,-1,0
-10.13,4.39,-10.18,626,-1443,8075,-1,-1,0
-10.13,4.40,-10.19,627,-1444,8073,-1,-1,0
-10.13,4.40,-10.18,630,-1444,8073,0,-1,0
-10.13,4.41,-10.19,631,-1459,8067,0,-1,-1
-10.13,4.41,-10.18,631,-1459,8061,0,-1,-1
-10.13,4.42,-10.18,633,-1459,8072,0,-1,-1
-10.13,4.42,-10.18,632,-1449,8071,0,-1,-1
-10.13,4.43,-10.18,634,-1442,8086,-1,-1,0
-10.13,4.43,-10.18,629,-1444,8089,-1,-1,0
-10.13,4.43,-10.18,630,-1449,8080,-1,-1,0
-10.13,4.43,-10.18,634,-1449,8071,0,-1,-1
-10.13,4.44,-10.17,639,-1444,8073,0,-1,0
-10.13,4.45,-10.17,642,-1447,8082,0,-1,0
-10.13,4.45,-10.17,640,-1451,8074,0,-1,0
-10.14,4.45,-10.17,632,-1448,8079,0,-1,0
-10.14,4.46,-10.16,637,-1446,8076,0,-1,0
-10.14,4.46,-10.15,637,-1440,8074,0,-1,0
-10.14,4.46,-10.15,641,-1441,8081,0,-1,0
-10.14,4.47,-10.15,653,-1445,8083,0,-1,-1
-10.14,4.47,-10.15,654,-1428,8085,-1,0,0
-10.14,4.47,-10.16,637,-1444,8088,-1,-1,0
-10.15,4.47,-10.16,639,-1458,8082,0,-1,0
-10.14,4.47,-10.16,638,-1448,8077,0,-1,-1
-10.14,4.47,-10.16,630,-1444,8077,-1,-1,0
-10.15,4.48,-10.16,632,-1451,8072,0,-1,0
-10.15,4.48,-10.16,638,-1452,8061,0,-1,-1
-10.15,4.48,-10.15,644,-1454,8069,0,-1,0
-10.15,4.49,-10.14,651,-1440,8067,0,0,0
-10.15,4.49,-10.14,647,-1436,8068,0,0,0
-10.15,4.48,-10.14,651,-1439,8072,0,0,0
-10.15,4.47,-10.13,648,-1438,8071,0,0,-1
-10.15,4.47,-10.13,646,-1447,8077,0,0,0
-10.15,4.45,-10.13,635,-1436,8082,-1,0,-1
-10.16,4.44,-10.13,624,-1427,8081,0,0,0
-10.16,4.44,-10.13,629,-1428,8085,-1,0,0
-10.16,4.44,-10.13,632,-1439,8072,-1,-1,0
-10.16,4.44,-10.13,640,-1435,8076,-1,0,0
-10.16,4.44,-10.14,631,-1431,8066,-1,0,0
-10.16,4.44,-10.15,634,-1449,8066,-1,0,-1
-10.16,4.43,-10.15,631,-1453,8065,-1,0,-1
-10.16,4.44,-10.15,627,-1459,8066,0,-1,0
-10.16,4.44,-10.14,628,-1450,8062,0,-1,-1
-10.15,4.45,-10.14,628,-1441,8057,0,-1,-1
-10.15,4.45,-10.13,630,-1437,8064,0,-1,-1
-10.16,4.45,-10.12,634,-1430,8067,0,-1,-1
-10.15,4.45,-10.12,618,-1440,8082,0,-1,-1
-10.15,4.46,-10.11,626,-1442,8090,0,-1,0
-10.15,4.47,-10.11,630,-1425,8087,0,-1,-1
-10.16,4.47,-10.11,621,-1426,8071,-1,-1,0
-10.15,4.48,-10.11,634,-1433,8063,-1,-1,0
-10.15,4.49,-10.11,647,-1432,8055,-1,-1,0
-10.15,4.50,-10.11,656,-1436,8072,-1,-1,0
-10.15,4.50,-10.11,647,-1435,8072,-1,-1,0
-10.16,4.51,-10.10,644,-1437,8073,0,-1,0
-10.16,4.51,-10.10,640,-1439,8069,0,-1,-1
-10.16,4.51,-10.10,631,-1445,8069,0,-1,-1
-10.16,4.52,-10.10,636,-1447,8061,0,-1,0
-10.16,4.54,-10.09,641,-1435,8073,0,-1,0
-10.16,4.55,-10.09,650,-1428,8070,0,-1,0
-10.16,4.56,-10.08,653,-1424,8071,0,-1,-1
-10.16,4.58,-10.08,654,-1423,8069,0,-1,0
-10.16,4.58,-10.07,657,-1421,8065,-1,-1,-1
-10.16,4.58,-10.08,659,-1429,8069,-1,-1,0
-10.16,4.58,-10.08,653,-1428,8079,-1,-1,0
-10.16,4.59,-10.08,644,-1437,8079,-1,-1,0
-10.16,4.59,-10.08,646,-1436,8077,-1,-1,0
-10.17,4.59,-10.09,647,-1439,8077,-1,-1,0
-10.17,4.60,-10.09,652,-1434,8074,-1,-1,0
-10.17,4.62,-10.09,663,-1444,8071,-1,-1,0
-10.17,4.62,-10.09,657,-1442,8077,0,-1,0
-10.18,4.63,-10.08,656,-1443,8073,0,-1,0
-10.17,4.64,-10.08,662,-1432,8079,0,-1,0
-10.17,4.64,-10.08,663,-1428,8067,0,-1,0
-10.18,4.65,-10.08,663,-1436,8058,0,-1,0
-10.18,4.66,-10.08,657,-1440,8075,-1,-1,0
-10.19,4.66,-10.08,660,-1437,8067,0,-1,0
-10.19,4.67,-10.08,662,-1441,8064,-1,-1,0
-10.19,4.68,-10.08,662,-1439,8066,-1,-1,0
-10.18,4.68,-10.08,673,-1446,8058,0,-1,-1
-10.19,4.68,-10.07,676,-1439,8069,0,-1,0
-10.19,4.68,-10.07,683,-1437,8074,0,0,-1
-10.19,4.68,-10.07,681,-1435,8077,0,0,-1
-10.18,4.67,-10.07,675,-1430,8068,-1,0,-1
-10.18,4.66,-10.07,671,-1427,8071,0,0,-1
-10.18,4.66,-10.07,669,-1428,8072,-1,0,-1
-10.17,4.66,-10.07,668,-1419,8076,-1,0,-1
-10.17,4.65,-10.06,659,-1420,8080,-1,0,-1
-10.17,4.65,-10.07,663,-1426,8085,-1,0,-1
-10.17,4.65,-10.07,677,-1430,8072,-1,0,-1
-10.17,4.65,-10.06,676,-1425,8062,-1,0,-1
-10.17,4.64,-10.07,668,-1431,8069,-1,0,-1
-10.16,4.64,-10.07,667,-1436,8072,0,0,0
-10.16,4.63,-10.07,658,-1430,8068,0,0,0
-10.16,4.62,-10.07,654,-1431,8062,-1,0,-1
-10.16,4.62,-10.07,654,-1430,8067,-1,0,-1
-10.16,4.62,-10.07,657,-1428,8066,-1,0,-1
-10.15,4.61,-10.07,661,-1423,8083,-1,0,-1
-10.15,4.60,-10.08,659,-1427,8082,-1,0,0
-10.16,4.60,-10.09,658,-1442,8072,-1,0,0
-10.16,4.59,-10.09,658,-1447,8064,-1,0,0
-10.16,4.59,-10.09,660,-1449,8053,0,0,-1
-10.16,4.59,-10.09,656,-1444,8048,-1,0,-1
-10.15,4.59,-10.09,667,-1441,8055,0,0,-1
-10.15,4.59,-10.08,667,-1428,8064,0,0,-1
-10.14,4.58,-10.08,655,-1430,8065,-1,0,-1
-10.14,4.58,-10.08,650,-1434,8070,-1,0,-1
-10.14,4.56,-10.09,655,-1425,8071,-1,0,-1
-10.14,4.55,-10.09,645,-1416,8071,-1,0,-1
-10.14,4.54,-10.10,640,-1434,8079,-1,0,0
-10.14,4.54,-10.11,646,-1438,8073,-1,0,0
-10.14,4.53,-10.11,649,-1437,8071,-1,0,0
-10.14,4.52,-10.11,642,-1435,8069,-1,0,-1
-10.14,4.51,-10.12,643,-1445,8077,-1,0,-1
-10.14,4.51,-10.12,643,-1455,8065,-1,0,0
-10.13,4.50,-10.12,644,-1452,8078,0,0,-1
-10.13,4.49,-10.12,635,-1448,8080,-1,0,0
-10.13,4.48,-10.13,641,-1453,8079,-1,0,0
-10.13,4.47,-10.13,649,-1455,8067,-1,0,0
-10.13,4.47,-10.13,645,-1437,8066,-1,0,-1
-10.13,4.46,-10.13,633,-1433,8069,-1,0,-1
-10.13,4.45,-10.13,630,-1436,8067,-1,0,-1
-10.13,4.45,-10.13,636,-1438,8070,-1,0,-1
-10.13,4.43,-10.13,627,-1437,8077,-1,0,0
-10.13,4.43,-10.13,633,-1432,8076,-1,0,0
-10.13,4.43,-10.14,626,-1435,8069,-1,0,-1
-10.12,4.42,-10.14,619,-1438,8072,0,0,-1
-10.12,4.42,-10.14,627,-1439,8073,-1,0,-1
-10.12,4.42,-10.14,626,-1438,8061,-1,0,-1
-10.12,4.41,-10.13,632,-1445,8061,-1,0,-1
-10.12,4.41,-10.14,638,-1443,8061,-1,0,0
-10.12,4.40,-10.14,638,-1439,8059,-1,0,0
-10.12,4.40,-10.14,632,-1436,8075,-1,0,0
-10.12,4.39,-10.15,631,-1439,8075,-1,0,0
-10.12,4.38,-10.14,634,-1442,8075,-1,0,0
-10.12,4.38,-10.15,633,-1446,8076,-1,0,0
-10.12,4.36,-10.16,620,-1445,8071,-1,0,0
-10.12,4.35,-10.17,621,-1448,8071,-1,0,0
-10.12,4.34,-10.18,613,-1451,8079,-1,0,0
-10.12,4.32,-10.18,608,-1448,8075,-1,0,0
-10.12,4.32,-10.18,615,-1439,8077,-1,0,0
-10.12,4.31,-10.19,618,-1448,8074,-1,0,0
-10.12,4.30,-10.19,616,-1443,8075,0,0,-1
-10.12,4.30,-10.18,616,-1443,8072,-1,0,-1
-10.12,4.29,-10.18,616,-1437,8066,-1,0,0
-10.12,4.28,-10.18,617,-1435,8068,-1,0,0
-10.12,4.27,-10.19,612,-1441,8070,-1,0,-1
-10.12,4.27,-10.19,607,-1442,8065,-1,0,-1
-10.12,4.26,-10.19,605,-1432,8073,-1,0,-1
-10.12,4.25,-10.19,599,-1439,8078,-1,0,0
-10.11,4.25,-10.20,602,-1450,8078,-1,0,-1
-10.11,4.24,-10.21,603,-1458,8079,-1,0,-1
-10.11,4.24,-10.21,601,-1468,8076,-1,0,0
-10.11,4.24,-10.21,607,-1461,8071,0,0,0
-10.11,4.24,-10.21,607,-1453,8057,0,-1,-1
-10.11,4.24,-10.21,609,-1450,8056,0,-1,-1
-10.11,4.24,-10.20,610,-1441,8056,0,0,-1
-10.10,4.24,-10.19,610,-1437,8061,-1,0,-1
-10.10,4.24,-10.19,601,-1443,8068,-1,0,0
-10.11,4.24,-10.19,600,-1453,8066,0,0,0
-10.11,4.24,-10.19,601,-1458,8073,-1,-1,0
-10.11,4.24,-10.20,596,-1459,8075,0,-1,0
-10.11,4.24,-10.19,594,-1457,8073,0,-1,0
-10.11,4.25,-10.19,599,-1455,8074,0,-1,-1
-10.11,4.25,-10.19,601,-1451,8082,0,-1,0
-10.11,4.26,-10.18,604,-1446,8074,0,-1,0
-10.11,4.26,-10.17,610,-1441,8073,0,-1,-1
-10.11,4.26,-10.17,614,-1433,8067,-1,-1,0
-10.11,4.26,-10.18,609,-1444,8073,-1,-1,0
-10.12,4.26,-10.18,612,-1444,8068,-1,0,0
-10.12,4.26,-10.19,606,-1448,8065,-1,-1,0
-10.12,4.26,-10.18,600,-1447,8065,0,-1,-1
-10.11,4.27,-10.18,600,-1450,8070,0,-1,-1
-10.11,4.27,-10.18,603,-1453,8078,0,-1,-1
-10.12,4.27,-10.18,603,-1449,8078,0,-1,-1
-10.11,4.28,-10.18,610,-1444,8074,0,-1,0
-10.12,4.28,-10.17,622,-1447,8069,0,-1,0
-10.12,4.28,-10.16,618,-1443,8061,0,-1,-1
-10.12,4.28,-10.16,621,-1442,8067,0,-1,0
-10.12,4.29,-10.16,624,-1436,8072,0,-1,0
-10.12,4.29,-10.16,611,-1437,8066,-1,-1,0
-10.11,4.29,-10.16,611,-1447,8056,-1,0,0
-10.11,4.29,-10.16,613,-1449,8055,0,-1,0
-10.11,4.30,-10.16,616,-1452,8059,-1,-1,-1
-10.11,4.31,-10.16,621,-1451,8070,0,-1,0
-10.11,4.31,-10.16,617,-1443,8070,0,-1,-1
-10.11,4.31,-10.16,621,-1442,8072,0,-1,0
-10.11,4.31,-10.16,620,-1439,8069,-1,-1,0
-10.11,4.31,-10.15,613,-1440,8066,-1,-1,0
-10.11,4.31,-10.15,619,-1440,8066,-1,-1,0
-10.11,4.31,-10.15,619,-1442,8066,-1,0,0
-10.11,4.31,-10.16,611,-1443,8068,-1,-1,0
-10.12,4.31,-10.15,612,-1437,8063,0,-1,0
-10.12,4.32,-10.16,611,-1442,8072,-1,-1,0
-10.12,4.33,-10.15,614,-1445,8074,0,-1,0
-10.12,4.33,-10.15,615,-1436,8073,0,-1,-1
-10.12,4.33,-10.15,616,-1440,8070,0,-1,-1
-10.12,4.35,-10.15,632,-1447,8060,0,-1,0
-10.12,4.36,-10.14,631,-1444,8057,0,-1,0
-10.12,4.36,-10.14,634,-1446,8052,0,-1,0
-10.12,4.37,-10.14,635,-1441,8064,0,-1,-1
-10.12,4.37,-10.13,630,-1436,8064,0,-1,0
-10.12,4.38,-10.13,625,-1436,8068,0,-1,-1
-10.12,4.38,-10.12,621,-1430,8067,-1,-1,0
-10.12,4.38,-10.13,619,-1438,8067,-1,-1,0
-10.12,4.38,-10.14,620,-1446,8079,-1,-1,0
-10.12,4.38,-10.14,624,-1449,8076,-1,-1,0
-10.13,4.39,-10.14,626,-1458,8070,0,-1,0
-10.13,4.40,-10.14,630,-1455,8066,0,-1,0
-10.13,4.40,-10.13,628,-1442,8065,0,-1,-1
-10.13,4.41,-10.12,630,-1431,8066,0,-1,-1
-10.13,4.42,-10.11,636,-1431,8068,0,-1,-1
-10.13,4.42,-10.11,641,-1426,8072,0,-1,0
-10.13,4.42,-10.11,638,-1425,8074,0,-1,0
-10.13,4.42,-10.11,633,-1434,8081,-1,-1,0
-10.13,4.43,-10.11,630,-1431,8074,-1,-1,0
-10.14,4.43,-10.11,632,-1438,8070,0,-1,0
-10.14,4.44,-10.10,632,-1439,8063,0,-1,0
-10.14,4.45,-10.10,627,-1437,8064,0,-1,0
-10.14,4.46,-10.10,636,-1434,8064,0,-1,0
-10.14,4.46,-10.09,643,-1426,8071,0,-1,-1
-10.14,4.46,-10.09,647,-1420,8073,-1,-1,0
-10.14,4.47,-10.09,648,-1430,8069,-1,-1,0
-10.14,4.47,-10.10,640,-1429,8065,-1,-1,0
-10.15,4.47,-10.11,643,-1436,8062,-1,-1,0
-10.15,4.48,-10.10,639,-1431,8065,-1,-1,0
-10.15,4.48,-10.10,631,-1433,8065,-1,-1,0
-10.15,4.48,-10.11,635,-1448,8058,0,-1,-1
-10.15,4.49,-10.10,639,-1448,8068,0,-1,0
-10.15,4.50,-10.10,643,-1448,8065,0,-1,0
-10.15,4.50,-10.10,650,-1447,8070,0,-1,0
-10.15,4.51,-10.10,653,-1438,8061,0,-1,0
-10.15,4.51,-10.09,647,-1434,8067,0,-1,0
-10.15,4.51,-10.08,652,-1433,8071,-1,-1,0
-10.15,4.52,-10.08,652,-1429,8075,-1,-1,0
-10.15,4.53,-10.09,650,-1433,8076,-1,-1,0
-10.15,4.53,-10.09,642,-1432,8078,-1,-1,0
-10.15,4.53,-10.08,649,-1427,8072,-1,-1,0
-10.15,4.54,-10.09,651,-1431,8069,0,-1,0
-10.15,4.55,-10.09,650,-1435,8077,-1,-1,0
-10.16,4.55,-10.09,651,-1427,8082,0,-1,0
-10.16,4.55,-10.09,652,-1424,8077,-1,-1,0
-10.16,4.55,-10.09,654,-1426,8064,-1,-1,0
-10.16,4.55,-10.09,648,-1426,8070,-1,-1,0
-10.16,4.56,-10.09,649,-1432,8068,-1,-1,0
-10.16,4.56,-10.09,648,-1431,8071,-1,-1,0
-10.16,4.56,-10.09,651,-1434,8077,-1,-1,0
-10.16,4.56,-10.09,653,-1434,8081,-1,0,0
-10.16,4.56,-10.09,650,-1428,8078,-1,-1,-1
-10.16,4.57,-10.10,652,-1434,8076,-1,-1,0
-10.17,4.57,-10.10,662,-1435,8069,-1,0,0
-10.17,4.56,-10.10,656,-1424,8072,-1,0,0
-10.17,4.56,-10.11,652,-1429,8076,-1,-1,0
-10.18,4.56,-10.12,651,-1443,8064,-1,-1,0
-10.18,4.56,-10.12,653,-1450,8071,0,-1,0
-10.18,4.56,-10.12,644,-1453,8072,-1,-1,0
-10.18,4.57,-10.12,637,-1445,8070,0,-1,-1
-10.18,4.58,-10.12,654,-1444,8059,0,-1,0
-10.18,4.58,-10.11,658,-1431,8067,-1,-1,0
-10.18,4.58,-10.12,659,-1431,8067,-1,-1,0
-10.19,4.58,-10.12,655,-1430,8069,-1,0,0
-10.19,4.57,-10.13,656,-1439,8062,-1,0,0
-10.19,4.57,-10.13,653,-1432,8078,-1,0,0
-10.20,4.57,-10.13,653,-1433,8071,-1,-1,0
-10.20,4.57,-10.13,642,-1438,8073,-1,-1,0
-10.20,4.57,-10.13,650,-1443,8070,-1,-1,0
-10.20,4.57,-10.13,652,-1442,8068,-1,-1,0
-10.20,4.57,-10.13,655,-1447,8071,-1,0,0
-10.20,4.57,-10.13,653,-1449,8069,0,0,-1
-10.20,4.56,-10.13,650,-1441,8070,0,0,-1
-10.20,4.55,-10.12,651,-1445,8070,0,0,-1
-10.19,4.55,-10.11,641,-1440,8077,0,0,-1
-10.19,4.54,-10.09,640,-1433,8076,0,0,-1
-10.19,4.54,-10.09,636,-1423,8066,0,-1,-1
-10.19,4.54,-10.08,632,-1415,8064,0,-1,-1
-10.18,4.55,-10.07,645,-1411,8074,-1,-1,0
-10.19,4.55,-10.08,649,-1415,8075,-1,-1,0
-10.19,4.55,-10.10,664,-1435,8071,-1,0,0
-10.19,4.55,-10.11,666,-1452,8074,-1,0,-1
-10.18,4.55,-10.11,654,-1446,8063,-1,-1,-1
-10.18,4.56,-10.11,647,-1448,8062,-1,-1,-1
-10.17,4.56,-10.11,652,-1452,8060,0,0,-1
-10.17,4.55,-10.10,649,-1448,8064,0,0,-1
-10.16,4.55,-10.10,656,-1443,8070,0,0,-1
-10.16,4.55,-10.09,662,-1441,8068,0,0,-1
-10.16,4.56,-10.09,663,-1428,8073,0,0,-1
-10.16,4.55,-10.09,655,-1425,8069,0,0,-1
-10.16,4.55,-10.08,659,-1420,8078,-1,0,-1
-10.16,4.55,-10.08,656,-1422,8073,-1,0,0
-10.16,4.55,-10.09,654,-1431,8070,-1,0,-1
-10.15,4.54,-10.09,651,-1431,8069,-1,0,0
-10.15,4.53,-10.09,652,-1432,8066,-1,0,-1
-10.15,4.53,-10.09,652,-1432,8059,-1,0,0
-10.15,4.52,-10.09,649,-1433,8068,-1,0,0
-10.15,4.52,-10.09,649,-1429,8071,-1,0,-1
-10.15,4.51,-10.10,638,-1431,8072,-1,0,-1
-10.15,4.50,-10.10,648,-1427,8084,-1,0,-1
-10.15,4.50,-10.10,647,-1431,8078,-1,0,0
-10.15,4.50,-10.11,657,-1437,8068,-1,0,0
-10.15,4.49,-10.11,655,-1435,8064,-1,0,0
-10.15,4.48,-10.11,653,-1439,8059,-1,0,-1
-10.15,4.47,-10.11,642,-1442,8068,0,0,-1
-10.15,4.47,-10.11,637,-1440,8077,-1,0,-1
-10.14,4.47,-10.11,633,-1443,8075,-1,0,-1
-10.14,4.47,-10.11,636,-1448,8066,0,0,-1
-10.14,4.47,-10.11,638,-1435,8066,0,-1,0
-10.14,4.47,-10.11,646,-1433,8065,-1,0,-1
-10.14,4.47,-10.11,652,-1424,8071,-1,0,-1
-10.14,4.46,-10.10,654,-1418,8076,-1,0,0
-10.14,4.46,-10.11,646,-1423,8075,-1,0,0
-10.14,4.44,-10.12,645,-1432,8067,-1,0,0
-10.14,4.43,-10.13,634,-1442,8062,-1,0,0
-10.14,4.42,-10.14,629,-1453,8061,-1,0,0
-10.14,4.42,-10.14,624,-1453,8065,0,0,0
-10.14,4.42,-10.14,629,-1446,8062,0,0,-1
-10.14,4.41,-10.13,627,-1440,8060,0,0,-1
-10.13,4.41,-10.13,627,-1438,8061,0,0,-1
-10.13,4.40,-10.13,634,-1429,8063,0,0,-1
-10.12,4.39,-10.12,644,-1417,8069,-1,0,-1
-10.13,4.38,-10.12,632,-1412,8078,-1,0,0
-10.13,4.36,-10.14,622,-1432,8069,-1,0,0
-10.13,4.35,-10.16,621,-1449,8071,-1,0,0
-10.13,4.35,-10.16,612,-1452,8075,-1,0,0
-10.13,4.34,-10.15,616,-1438,8075,-1,0,-1
-10.13,4.34,-10.15,612,-1443,8073,-1,0,-1
-10.13,4.33,-10.16,617,-1444,8068,-1,0,-1
-10.13,4.33,-10.15,624,-1436,8054,0,0,-1
-10.13,4.33,-10.15,630,-1439,8065,-1,0,0
-10.13,4.32,-10.16,623,-1438,8074,-1,0,0
-10.13,4.31,-10.16,617,-1439,8081,-1,0,0
-10.13,4.30,-10.16,619,-1446,8078,-1,0,-1
-10.13,4.29,-10.16,616,-1445,8070,-1,0,0
-10.12,4.28,-10.17,612,-1445,8068,-1,0,0
-10.12,4.26,-10.17,597,-1453,8072,-1,0,0
-10.12,4.25,-10.18,594,-1452,8077,-1,0,0
-10.13,4.25,-10.18,596,-1446,8073,-1,0,0
-10.12,4.24,-10.19,598,-1445,8074,-1,0,-1
-10.12,4.24,-10.19,598,-1449,8070,0,0,-1
-10.12,4.23,-10.18,607,-1448,8058,0,0,-1
-10.12,4.23,-10.18,613,-1444,8059,-1,0,-1
-10.12,4.23,-10.18,612,-1445,8066,-1,0,0
-10.13,4.22,-10.18,612,-1451,8062,-1,0,0
-10.13,4.21,-10.19,600,-1453,8075,-1,0,0
-10.13,4.20,-10.19,593,-1438,8072,-1,0,0
-10.13,4.20,-10.19,593,-1446,8074,-1,0,-1
-10.12,4.20,-10.20,597,-1448,8078,-1,-1,-1
-10.12,4.20,-10.20,602,-1448,8076,-1,-1,-1
-10.12,4.20,-10.20,604,-1446,8079,-1,0,-1
-10.12,4.20,-10.20,619,-1445,8074,-1,0,-1
-10.11,4.21,-10.19,609,-1435,8076,-1,0,0
-10.12,4.20,-10.20,617,-1433,8072,-1,0,0
-10.12,4.20,-10.20,605,-1448,8072,-1,-1,0
-10.12,4.20,-10.20,606,-1456,8071,-1,0,0
-10.12,4.19,-10.20,596,-1449,8079,0,0,-1
-10.12,4.20,-10.20,601,-1447,8075,-1,-1,0
-10.11,4.20,-10.20,598,-1450,8070,0,-1,-1
-10.11,4.21,-10.19,598,-1444,8070,0,-1,0
-10.12,4.22,-10.18,606,-1449,8069,0,-1,-1
-10.12,4.23,-10.18,610,-1442,8076,-1,-1,-1
-10.12,4.23,-10.19,606,-1448,8082,0,-1,0
-10.12,4.23,-10.19,608,-1449,8074,0,-1,0
-10.12,4.24,-10.18,604,-1449,8072,-1,-1,0
-10.12,4.24,-10.18,605,-1450,8053,0,-1,0
-10.12,4.25,-10.17,605,-1453,8076,0,-1,-1
-10.12,4.25,-10.17,603,-1445,8081,0,-1,-1
-10.12,4.26,-10.16,608,-1442,8077,-1,-1,-1
-10.12,4.26,-10.16,602,-1441,8072,-1,-1,-1
-10.12,4.26,-10.16,605,-1444,8081,-1,-1,0
-10.12,4.27,-10.16,605,-1442,8076,-1,-1,0
-10.12,4.27,-10.16,612,-1447,8079,0,-1,0
-10.12,4.28,-10.16,616,-1444,8063,0,-1,0
-10.12,4.28,-10.16,615,-1445,8065,0,-1,0
-10.12,4.28,-10.16,613,-1438,8070,0,-1,-1
-10.12,4.29,-10.16,614,-1439,8074,0,-1,-1
-10.12,4.29,-10.15,613,-1438,8068,0,-1,0
-10.12,4.30,-10.15,609,-1440,8073,-1,-1,0
-10.12,4.31,-10.15,610,-1441,8074,-1,-1,0
-10.12,4.31,-10.15,610,-1448,8072,-1,-1,0
-10.13,4.31,-10.15,619,-1442,8071,-1,-1,0
-10.13,4.31,-10.15,618,-1448,8067,0,-1,-1
-10.12,4.31,-10.14,619,-1442,8073,0,-1,-1
-10.12,4.32,-10.15,620,-1436,8076,-1,-1,-1
-10.12,4.32,-10.15,617,-1440,8073,-1,-1,-1
-10.12,4.32,-10.15,617,-1438,8064,-1,-1,0
-10.12,4.33,-10.14,622,-1439,8071,0,-1,0
-10.13,4.33,-10.14,619,-1439,8083,0,-1,0
-10.13,4.34,-10.13,622,-1442,8087,0,-1,0
-10.13,4.34,-10.13,618,-1442,8080,0,-1,0
-10.13,4.34,-10.13,623,-1435,8080,0,-1,0
-10.13,4.35,-10.13,622,-1431,8076,-1,-1,0
-10.13,4.36,-10.14,632,-1441,8070,0,-1,0
-10.13,4.36,-10.14,628,-1438,8074,0,-1,0
-10.13,4.36,-10.13,619,-1436,8083,0,-1,0
-10.13,4.37,-10.12,627,-1433,8074,0,-1,-1
-10.13,4.38,-10.12,625,-1441,8061,-1,-1,-1
-10.13,4.38,-10.12,629,-1441,8051,0,-1,0
-10.13,4.38,-10.12,625,-1445,8061,-1,-1,0
-10.13,4.39,-10.12,627,-1444,8073,0,-1,0
-10.13,4.39,-10.12,623,-1444,8081,-1,-1,0
-10.13,4.39,-10.12,613,-1443,8082,-1,-1,0
-10.13,4.40,-10.12,618,-1443,8071,0,-1,-1
-10.13,4.41,-10.11,623,-1439,8066,0,-1,0
-10.14,4.41,-10.11,627,-1436,8076,0,-1,0
-10.14,4.42,-10.11,633,-1428,8072,-1,-1,0
-10.14,4.43,-10.11,637,-1428,8063,0,-1,0
-10.14,4.43,-10.11,637,-1429,8067,-1,-1,0
-10.14,4.43,-10.11,627,-1428,8071,-1,-1,0
-10.14,4.43,-10.11,627,-1434,8073,-1,-1,0
-10.14,4.43,-10.11,623,-1434,8073,-1,-1,0
-10.14,4.44,-10.11,629,-1428,8070,-1,-1,0
-10.14,4.45,-10.11,640,-1434,8061,-1,-1,0
-10.14,4.45,-10.11,635,-1438,8070,0,-1,0
-10.15,4.46,-10.11,632,-1441,8071,0,-1,0
-10.15,4.46,-10.11,639,-1444,8067,0,-1,0
-10.15,4.47,-10.10,641,-1441,8073,0,-1,-1
-10.15,4.48,-10.09,644,-1434,8083,0,-1,0
-10.15,4.48,-10.09,648,-1429,8085,0,-1,-1
-10.15,4.48,-10.09,650,-1424,8080,-1,-1,0
-10.15,4.49,-10.09,644,-1429,8076,-1,-1,0
-10.15,4.49,-10.09,640,-1431,8076,-1,-1,0
-10.16,4.49,-10.09,642,-1432,8075,-1,-1,0
-10.16,4.49,-10.09,644,-1431,8079,-1,-1,0
-10.15,4.50,-10.10,639,-1447,8068,0,-1,0
-10.15,4.50,-10.10,641,-1446,8065,0,-1,-1
-10.15,4.51,-10.09,644,-1438,8058,0,-1,-1
-10.15,4.51,-10.08,648,-1428,8063,0,-1,-1
-10.15,4.52,-10.08,658,-1430,8073,0,-1,0
-10.16,4.53,-10.08,657,-1415,8068,-1,-1,0
-10.16,4.53,-10.08,657,-1428,8081,-1,-1,0
-10.16,4.53,-10.08,656,-1430,8079,-1,-1,0
-10.16,4.53,-10.08,651,-1429,8081,-1,-1,0
-10.16,4.53,-10.09,651,-1442,8070,-1,-1,0
-10.16,4.53,-10.09,652,-1447,8068,0,-1,-1
-10.16,4.54,-10.09,658,-1446,8068,0,-1,0
-10.16,4.54,-10.09,663,-1442,8076,-1,-1,0
-10.16,4.54,-10.09,660,-1438,8076,0,0,-1
-10.16,4.54,-10.09,658,-1432,8080,0,0,0
-10.16,4.54,-10.09,651,-1435,8077,0,0,0
-10.16,4.54,-10.09,653,-1431,8082,0,-1,0
-10.16,4.54,-10.09,649,-1438,8070,0,0,-1
-10.16,4.54,-10.09,640,-1434,8066,-1,-1,0
-10.16,4.54,-10.09,640,-1434,8063,0,-1,0
-10.16,4.54,-10.08,648,-1429,8070,0,-1,0
-10.17,4.54,-10.08,648,-1432,8069,0,-1,0
-10.17,4.54,-10.08,655,-1429,8073,0,-1,0
-10.16,4.54,-10.08,655,-1421,8075,-1,0,0
-10.16,4.54,-10.07,655,-1419,8077,-1,0,0
-10.16,4.54,-10.07,655,-1419,8071,-1,0,0
-10.17,4.54,-10.08,659,-1428,8070,-1,0,0
-10.17,4.54,-10.08,657,-1422,8076,-1,0,0
-10.17,4.54,-10.08,650,-1427,8074,-1,0,0
-10.17,4.54,-10.08,642,-1432,8073,-1,0,0
-10.17,4.53,-10.08,648,-1431,8071,-1,0,0
-10.17,4.54,-10.09,649,-1436,8067,0,-1,0
-10.17,4.54,-10.08,654,-1434,8073,0,-1,0
-10.17,4.54,-10.08,656,-1429,8076,0,0,0
-10.17,4.54,-10.08,648,-1425,8071,0,-1,0
-10.17,4.54,-10.08,656,-1428,8075,-1,-1,0
-10.17,4.54,-10.07,656,-1423,8074,-1,0,0
-10.17,4.53,-10.07,653,-1420,8073,-1,-1,0
-10.17,4.54,-10.07,661,-1418,8063,0,0,0
-10.17,4.54,-10.07,657,-1428,8075,-1,0,-1
-10.17,4.54,-10.07,656,-1429,8078,0,0,0
-10.17,4.54,-10.07,657,-1424,8076,-1,0,0
-10.17,4.54,-10.08,652,-1434,8075,-1,0,0
-10.17,4.53,-10.08,646,-1443,8076,-1,-1,0
-10.17,4.54,-10.08,658,-1439,8066,0,-1,0
-10.17,4.55,-10.08,666,-1443,8061,0,-1,0
-10.17,4.55,-10.08,665,-1439,8064,0,-1,-1
-10.17,4.55,-10.07,667,-1426,8058,0,0,-1
-10.17,4.55,-10.07,674,-1429,8063,0,0,-1
-10.16,4.55,-10.07,661,-1419,8071,-1,0,0
-10.16,4.54,-10.06,660,-1424,8066,-1,0,0
-10.17,4.54,-10.07,649,-1429,8073,-1,0,0
-10.17,4.53,-10.07,646,-1433,8078,-1,0,0
-10.17,4.53,-10.08,635,-1435,8068,-1,-1,-1
-10.17,4.53,-10.07,649,-1427,8067,0,-1,-1
-10.17,4.54,-10.06,653,-1427,8064,0,-1,-1
-10.16,4.54,-10.06,662,-1420,8062,0,-1,-1
-10.16,4.54,-10.06,663,-1422,8052,0,0,-1
-10.16,4.54,-10.06,660,-1415,8063,-1,0,-1
-10.16,4.54,-10.06,661,-1415,8071,-1,0,0
-10.16,4.54,-10.06,660,-1424,8069,-1,0,0
-10.16,4.53,-10.07,651,-1427,8062,-1,0,0
-10.16,4.53,-10.08,652,-1438,8065,-1,0,0
-10.16,4.53,-10.08,653,-1444,8070,-1,0,-1
-10.16,4.53,-10.08,655,-1446,8068,-1,0,-1
-10.16,4.52,-10.08,652,-1447,8064,-1,0,-1
-10.15,4.51,-10.08,649,-1442,8064,0,0,-1
-10.16,4.51,-10.07,646,-1435,8076,0,0,-1
-10.16,4.51,-10.07,648,-1421,8082,-1,0,0
-10.16,4.50,-10.07,650,-1419,8078,-1,0,-1
-10.16,4.50,-10.07,651,-1422,8079,-1,0,-1
-10.15,4.50,-10.07,657,-1427,8077,0,0,-1
-10.15,4.49,-10.07,649,-1425,8067,-1,0,0
-10.15,4.49,-10.07,645,-1430,8074,-1,0,-1
-10.15,4.49,-10.07,641,-1430,8073,-1,0,-1
-10.15,4.48,-10.07,650,-1427,8067,0,0,0
-10.14,4.48,-10.07,648,-1422,8069,-1,0,-1
-10.14,4.47,-10.07,647,-1420,8069,-1,0,-1
-10.14,4.46,-10.08,650,-1416,8068,-1,0,0
-10.14,4.46,-10.08,656,-1417,8067,-1,0,0
-10.14,4.45,-10.08,648,-1428,8080,-1,0,0
-10.14,4.44,-10.10,658,-1432,8086,-1,0,-1
-10.14,4.43,-10.10,637,-1434,8072,-1,0,-1
-10.14,4.42,-10.10,651,-1446,8072,-1,0,-1
-10.13,4.41,-10.11,633,-1445,8067,-1,0,-1
-10.13,4.41,-10.11,637,-1445,8072,0,0,-1
-10.13,4.41,-10.11,640,-1435,8073,-1,0,-1
-10.13,4.40,-10.10,633,-1428,8073,-1,0,-1
-10.13,4.40,-10.10,638,-1434,8070,-1,0,-1
-10.13,4.40,-10.10,638,-1431,8066,-1,0,-1
-10.13,4.39,-10.11,641,-1423,8064,-1,0,0
-10.13,4.39,-10.11,644,-1425,8072,-1,0,0
-10.13,4.38,-10.12,642,-1439,8070,-1,0,0
-10.13,4.37,-10.13,637,-1444,8064,-1,0,0
-10.13,4.36,-10.14,636,-1461,8064,-1,0,0
-10.13,4.36,-10.14,634,-1457,8071,0,0,-1
-10.13,4.36,-10.13,631,-1447,8072,0,0,-1
-10.13,4.36,-10.12,633,-1438,8077,0,0,-1
-10.12,4.36,-10.12,638,-1432,8082,0,0,-1
-10.12,4.35,-10.12,638,-1428,8083,-1,0,-1
-10.12,4.35,-10.12,645,-1428,8089,-1,0,0
-10.11,4.34,-10.12,643,-1423,8087,-1,0,0
-10.11,4.34,-10.13,640,-1424,8082,-1,0,0
-10.12,4.32,-10.13,635,-1433,8086,-1,0,0
-10.12,4.31,-10.14,627,-1437,8085,-1,0,0
-10.12,4.31,-10.14,618,-1447,8074,-1,0,-1
-10.12,4.30,-10.15,616,-1452,8075,-1,0,-1
-10.12,4.29,-10.15,621,-1444,8075,-1,0,-1
-10.12,4.29,-10.16,622,-1443,8079,-1,0,0
-10.11,4.28,-10.16,624,-1431,8077,-1,0,0
-10.11,4.26,-10.17,621,-1431,8075,-1,0,0
-10.11,4.26,-10.18,620,-1445,8067,-1,0,0
-10.11,4.25,-10.19,622,-1447,8058,-1,0,0
-10.11,4.23,-10.19,617,-1448,8065,-1,0,0
-10.11,4.22,-10.19,609,-1448,8064,-1,0,0
-10.11,4.21,-10.20,614,-1454,8072,-1,0,0
-10.11,4.20,-10.20,604,-1448,8077,0,0,-1
-10.11,4.19,-10.20,598,-1448,8083,-1,0,-1
-10.11,4.19,-10.20,594,-1450,8071,-1,0,0
-10.11,4.18,-10.20,601,-1452,8085,0,0,0
-10.11,4.18,-10.19,609,-1442,8083,0,0,0
-10.11,4.18,-10.19,611,-1443,8077,-1,0,0
-10.11,4.18,-10.19,607,-1445,8072,-1,0,0
-10.11,4.18,-10.19,612,-1451,8070,-1,0,0
-10.11,4.18,-10.19,609,-1453,8062,-1,0,-1
-10.11,4.17,-10.19,603,-1444,8061,0,0,-1
-10.11,4.17,-10.19,594,-1442,8061,0,0,-1
-10.11,4.17,-10.19,598,-1435,8063,-1,0,-1
-10.11,4.17,-10.19,601,-1443,8072,-1,-1,-1
-10.11,4.17,-10.19,603,-1441,8067,-1,-1,0
-10.11,4.18,-10.19,602,-1449,8066,-1,-1,-1
-10.11,4.18,-10.19,608,-1441,8065,0,-1,0
-10.11,4.19,-10.19,617,-1447,8062,-1,-1,0
-10.11,4.18,-10.19,615,-1443,8059,0,0,0
-10.11,4.19,-10.19,613,-1448,8063,-1,-1,-1
-10.11,4.19,-10.19,609,-1450,8067,0,-1,0
-10.11,4.20,-10.18,613,-1440,8074,0,-1,-1
-10.11,4.20,-10.18,604,-1445,8081,-1,-1,0
-10.11,4.21,-10.18,608,-1453,8084,0,-1,0
-10.11,4.22,-10.17,610,-1444,8081,0,-1,-1
-10.10,4.22,-10.16,612,-1445,8076,0,-1,-1
-10.10,4.23,-10.16,622,-1441,8068,0,-1,0
-10.10,4.24,-10.16,625,-1437,8068,0,-1,-1
-10.10,4.24,-10.16,619,-1431,8078,-1,0,0
-10.10,4.24,-10.16,618,-1439,8074,-1,0,0
-10.11,4.24,-10.16,616,-1450,8083,-1,-1,0
-10.10,4.24,-10.17,616,-1463,8074,-1,-1,0
-10.11,4.24,-10.17,616,-1456,8066,0,-1,0
-10.11,4.25,-10.17,619,-1453,8069,0,-1,-1
-10.11,4.26,-10.16,627,-1448,8063,0,-1,-1
-10.10,4.27,-10.15,632,-1434,8072,0,-1,-1
-10.10,4.27,-10.15,636,-1432,8064,-1,0,0
-10.10,4.27,-10.15,634,-1434,8076,-1,0,0
-10.10,4.27,-10.15,628,-1435,8079,-1,0,0
-10.11,4.27,-10.15,624,-1432,8080,-1,0,0
-10.11,4.26,-10.15,611,-1434,8076,-1,-1,0
-10.11,4.26,-10.15,609,-1442,8071,0,-1,0
-10.11,4.27,-10.15,617,-1444,8067,0,-1,-1
-10.11,4.29,-10.15,627,-1452,8068,0,-1,-1
-10.11,4.29,-10.14,639,-1444,8071,0,-1,-1
-10.11,4.30,-10.13,644,-1424,8076,0,-1,-1
-10.11,4.30,-10.13,637,-1426,8076,-1,0,0
-10.11,4.30,-10.13,640,-1429,8083,-1,0,0
-10.11,4.30,-10.14,638,-1434,8075,-1,0,0
-10.11,4.30,-10.14,630,-1438,8071,-1,0,0
-10.11,4.30,-10.14,630,-1442,8081,0,0,-1
-10.11,4.30,-10.14,619,-1434,8073,0,-1,-1
-10.10,4.30,-10.14,622,-1440,8071,-1,-1,-1
-10.10,4.31,-10.14,621,-1436,8061,0,-1,-1
-10.10,4.31,-10.14,627,-1438,8065,0,-1,0
-10.10,4.31,-10.13,624,-1438,8071,0,-1,0
-10.11,4.32,-10.12,627,-1434,8068,0,-1,0
-10.11,4.32,-10.12,631,-1429,8059,0,-1,0
-10.10,4.32,-10.12,633,-1427,8069,0,0,0
-10.10,4.32,-10.12,631,-1432,8073,-1,-1,0
-10.11,4.32,-10.12,633,-1427,8069,0,-1,0
-10.11,4.33,-10.12,634,-1437,8074,-1,-1,0
-10.11,4.33,-10.12,626,-1446,8064,0,-1,0
-10.11,4.34,-10.12,621,-1444,8071,0,-1,-1
-10.11,4.34,-10.12,624,-1453,8070,0,-1,-1
-10.11,4.35,-10.12,627,-1444,8068,0,-1,-1
-10.11,4.35,-10.11,628,-1442,8070,0,-1,-1
-10.11,4.36,-10.11,633,-1440,8067,0,-1,0
-10.11,4.36,-10.11,637,-1436,8085,-1,-1,0
-10.11,4.36,-10.11,636,-1423,8080,-1,0,0
-10.11,4.37,-10.11,636,-1427,8071,-1,-1,0
-10.11,4.37,-10.11,636,-1431,8068,-1,-1,0
-10.11,4.37,-10.11,638,-1436,8071,-1,-1,0
-10.11,4.37,-10.11,640,-1435,8078,0,-1,0
-10.11,4.38,-10.10,635,-1441,8082,0,-1,0
-10.11,4.38,-10.10,638,-1438,8079,0,-1,0
-10.11,4.39,-10.10,637,-1429,8074,-1,-1,0
-10.11,4.39,-10.10,642,-1436,8074,0,-1,0
-10.11,4.40,-10.09,649,-1430,8071,0,-1,0
-10.11,4.40,-10.09,641,-1440,8074,0,-1,0
-10.11,4.40,-10.08,643,-1431,8084,0,-1,0
-10.11,4.41,-10.08,646,-1428,8072,0,-1,-1
-10.11,4.41,-10.08,648,-1414,8066,-1,-1,0
-10.11,4.42,-10.08,645,-1429,8067,-1,-1,0
-10.11,4.42,-10.08,639,-1425,8070,-1,-1,0
-10.12,4.42,-10.09,635,-1442,8075,-1,-1,0
-10.12,4.42,-10.09,632,-1441,8075,0,-1,0
-10.12,4.43,-10.09,641,-1433,8075,0,-1,-1
-10.12,4.44,-10.08,647,-1430,8069,0,-1,-1
-10.11,4.45,-10.08,653,-1428,8071,0,-1,-1
-10.11,4.45,-10.07,654,-1421,8072,0,-1,-1
-10.11,4.45,-10.07,655,-1425,8078,-1,-1,0
-10.11,4.45,-10.07,649,-1422,8073,0,0,0
-10.12,4.45,-10.07,646,-1414,8071,-1,-1,0
-10.12,4.46,-10.08,647,-1423,8071,-1,-1,0
-10.12,4.46,-10.08,642,-1434,8066,0,-1,0
-10.12,4.47,-10.08,644,-1436,8053,0,-1,-1
-10.12,4.47,-10.07,644,-1425,8061,0,-1,0
-10.12,4.48,-10.06,651,-1419,8073,0,-1,0
-10.12,4.48,-10.06,653,-1416,8074,-1,-1,0
-10.12,4.48,-10.06,646,-1414,8079,-1,-1,0
-10.12,4.49,-10.06,652,-1409,8076,-1,-1,0
-10.12,4.49,-10.07,663,-1426,8062,-1,-1,0
-10.12,4.49,-10.08,663,-1432,8059,-1,-1,0
-10.12,4.49,-10.08,654,-1434,8061,-1,-1,0
-10.12,4.50,-10.08,650,-1430,8062,0,-1,-1
-10.12,4.51,-10.08,651,-1428,8056,-1,-1,-1
-10.12,4.51,-10.07,659,-1424,8067,0,-1,0
-10.12,4.52,-10.07,662,-1423,8063,0,-1,0
-10.13,4.52,-10.07,660,-1431,8082,-1,-1,0
-10.13,4.53,-10.07,661,-1426,8088,0,-1,0
-10.13,4.53,-10.06,651,-1417,8083,-1,-1,-1
-10.13,4.54,-10.06,649,-1425,8071,-1,-1,-1
-10.12,4.54,-10.07,656,-1428,8063,0,-1,0
-10.12,4.55,-10.06,661,-1424,8065,0,-1,0
-10.13,4.56,-10.07,664,-1425,8074,-1,-1,0
-10.13,4.56,-10.07,666,-1428,8060,0,-1,0
-10.13,4.57,-10.06,663,-1418,8060,-1,-1,0
-10.13,4.57,-10.06,666,-1419,8065,-1,-1,0
-10.13,4.57,-10.07,659,-1424,8065,-1,-1,0
-10.14,4.58,-10.07,658,-1429,8069,-1,-1,0
-10.14,4.58,-10.07,659,-1430,8066,-1,-1,0
-10.14,4.58,-10.08,667,-1436,8068,-1,-1,0
-10.14,4.58,-10.08,666,-1431,8068,-1,-1,0
-10.14,4.58,-10.08,662,-1431,8073,0,-1,0
-10.14,4.59,-10.07,672,-1433,8071,0,0,-1
-10.14,4.59,-10.07,672,-1434,8072,0,0,-1
-10.14,4.59,-10.06,676,-1420,8069,0,0,-1
-10.14,4.59,-10.06,674,-1424,8075,0,0,0
-10.14,4.59,-10.06,669,-1422,8072,-1,0,0
-10.14,4.59,-10.06,671,-1418,8068,-1,0,0
-10.14,4.59,-10.06,673,-1418,8069,-1,0,-1
-10.14,4.59,-10.06,673,-1424,8065,-1,0,-1
-10.13,4.58,-10.06,678,-1429,8069,-1,0,-1
-10.13,4.57,-10.07,663,-1434,8062,-1,0,0
-10.13,4.56,-10.07,659,-1435,8069,-1,0,0
-10.13,4.56,-10.08,657,-1443,8069,-1,0,0
-10.13,4.55,-10.08,660,-1437,8074,0,0,-1
-10.13,4.55,-10.07,657,-1434,8075,0,0,-1
-10.13,4.54,-10.07,660,-1439,8071,0,0,-1
-10.12,4.54,-10.07,670,-1434,8063,0,0,-1
-10.12,4.54,-10.06,675,-1428,8059,0,0,-1
-10.11,4.53,-10.06,669,-1425,8060,-1,0,-1
-10.11,4.52,-10.06,664,-1418,8068,-1,0,-1
-10.11,4.52,-10.06,659,-1418,8073,-1,0,-1
-10.11,4.50,-10.07,656,-1428,8072,-1,0,-1
-10.11,4.50,-10.06,658,-1425,8075,-1,0,-1
-10.11,4.49,-10.06,657,-1424,8065,-1,0,-1
-10.10,4.48,-10.06,650,-1423,8067,-1,0,-1
-10.10,4.48,-10.07,652,-1424,8067,-1,0,-1
-10.10,4.48,-10.07,658,-1422,8066,-1,0,-1
-10.10,4.47,-10.07,662,-1426,8065,-1,0,-1
-10.10,4.46,-10.07,650,-1429,8069,-1,0,-1
-10.10,4.46,-10.07,656,-1436,8068,-1,0,-1
-10.10,4.45,-10.08,655,-1432,8065,-1,0,-1
-10.09,4.43,-10.08,647,-1437,8062,0,0,-1
-10.09,4.43,-10.08,646,-1433,8062,0,0,-1
-10.08,4.43,-10.08,644,-1430,8069,-1,0,-1
-10.08,4.42,-10.08,643,-1429,8073,-1,0,0
-10.08,4.41,-10.08,642,-1423,8064,-1,0,-1
-10.08,4.41,-10.08,638,-1429,8064,-1,0,0
-10.08,4.41,-10.08,638,-1433,8074,0,0,0
-10.08,4.40,-10.07,637,-1419,8080,-1,0,-1
-10.08,4.39,-10.08,628,-1423,8077,-1,0,-1
-10.08,4.39,-10.08,620,-1431,8071,-1,0,-1
-10.08,4.39,-10.08,633,-1435,8070,0,0,-1
-10.08,4.38,-10.08,631,-1430,8065,-1,0,-1
-10.07,4.37,-10.08,644,-1434,8069,-1,0,-1
-10.07,4.37,-10.08,645,-1431,8070,-1,0,-1
-10.07,4.37,-10.08,645,-1436,8075,-1,0,-1
-10.07,4.36,-10.08,633,-1430,8068,-1,0,0
-10.07,4.35,-10.09,637,-1431,8061,-1,0,0
-10.07,4.34,-10.10,629,-1434,8070,-1,0,0
-10.07,4.33,-10.09,624,-1428,8075,-1,0,0
-10.08,4.31,-10.10,622,-1435,8078,-1,0,0
-10.07,4.31,-10.11,628,-1439,8074,-1,0,0
-10.07,4.31,-10.11,627,-1438,8071,-1,0,-1
-10.07,4.30,-10.11,627,-1438,8070,-1,0,0
-10.07,4.29,-10.11,625,-1428,8074,0,0,0
-10.07,4.29,-10.11,624,-1424,8081,-1,0,0
-10.07,4.28,-10.11,629,-1425,8073,-1,0,0
-10.07,4.28,-10.11,630,-1430,8061,-1,0,0
-10.07,4.27,-10.12,630,-1442,8070,-1,0,-1
-10.06,4.27,-10.12,616,-1429,8078,-1,0,-1
-10.06,4.26,-10.11,617,-1426,8073,-1,0,-1
-10.06,4.25,-10.12,617,-1429,8073,-1,0,-1
-10.06,4.24,-10.13,620,-1432,8073,-1,0,0
-10.07,4.23,-10.13,613,-1440,8067,-1,0,0
-10.07,4.22,-10.14,621,-1445,8065,-1,0,0
-10.07,4.22,-10.15,621,-1439,8069,-1,0,0
-10.07,4.21,-10.15,622,-1446,8063,-1,0,-1
-10.07,4.21,-10.15,623,-1442,8068,-1,0,-1
-10.06,4.20,-10.14,629,-1441,8074,-1,0,-1
-10.06,4.19,-10.14,627,-1437,8074,-1,0,-1
-10.06,4.18,-10.14,619,-1434,8080,-1,0,-1
-10.06,4.17,-10.15,612,-1434,8083,-1,0,0
-10.06,4.16,-10.15,606,-1437,8081,-1,0,0
-10.06,4.14,-10.16,597,-1441,8085,-1,0,0
-10.06,4.14,-10.17,589,-1445,8077,-1,0,0
-10.06,4.14,-10.17,590,-1448,8069,0,0,0
