Yaw,Pitch,Roll,AX,AY,AZ,GX,GY,GZ
-10.37,6.35,-5.47,888,-779,8128,0,-1,0
-10.37,6.35,-5.47,889,-783,8126,0,-1,0
-10.37,6.36,-5.47,894,-789,8126,0,-1,0
-10.37,6.36,-5.47,895,-783,8131,0,-1,-1
-10.37,6.36,-5.47,898,-775,8129,-1,0,0
-10.37,6.36,-5.47,894,-783,8115,-1,-1,0
-10.37,6.36,-5.47,892,-787,8115,0,-1,0
-10.37,6.36,-5.47,891,-780,8129,0,-1,-1
-10.38,6.36,-5.47,893,-772,8126,0,-1,-1
-10.37,6.37,-5.47,897,-770,8127,0,-1,0
-10.37,6.37,-5.47,901,-772,8121,-1,-1,0
-10.37,6.37,-5.47,897,-772,8124,-1,-1,0
-10.37,6.37,-5.47,900,-776,8132,-1,-1,0
-10.37,6.38,-5.47,900,-786,8127,0,-1,0
-10.37,6.38,-5.47,906,-790,8124,0,-1,0
-10.37,6.39,-5.46,905,-778,8116,0,-1,0
-10.37,6.40,-5.46,905,-773,8117,0,-1,-1
-10.38,6.40,-5.45,904,-770,8112,0,-1,0
-10.38,6.40,-5.44,906,-768,8112,0,-1,0
-10.38,6.41,-5.44,903,-773,8119,-1,-1,0
-10.38,6.41,-5.45,908,-786,8119,-1,-1,0
-10.39,6.41,-5.45,906,-780,8123,0,-1,0
-10.39,6.42,-5.45,906,-774,8127,-1,-1,0
-10.39,6.42,-5.45,896,-780,8114,0,-1,0
-10.39,6.42,-5.45,899,-783,8111,0,-1,-1
-10.39,6.42,-5.44,903,-778,8113,0,-1,-1
-10.39,6.43,-5.43,902,-762,8116,0,-1,0
-10.40,6.43,-5.43,905,-755,8121,-1,-1,0
-10.40,6.43,-5.43,902,-767,8130,-1,-1,0
-10.40,6.44,-5.44,900,-777,8131,-1,-1,0
-10.40,6.44,-5.45,901,-794,8121,0,-1,0
-10.40,6.44,-5.45,902,-794,8121,0,-1,-1
-10.40,6.44,-5.45,915,-786,8114,0,-1,0
-10.40,6.45,-5.44,919,-774,8111,0,-1,0
-10.40,6.45,-5.44,910,-770,8110,-1,-1,0
-10.40,6.45,-5.44,910,-783,8121,0,-1,0
-10.40,6.46,-5.44,912,-782,8125,0,-1,0
-10.41,6.46,-5.44,916,-772,8121,0,-1,0
-10.41,6.47,-5.43,918,-774,8119,0,-1,0
-10.41,6.47,-5.42,916,-767,8108,0,-1,0
-10.41,6.48,-5.42,917,-758,8118,0,-1,0
-10.41,6.48,-5.42,926,-755,8119,-1,-1,0
-10.41,6.48,-5.42,930,-762,8122,-1,-1,0
-10.42,6.48,-5.42,926,-758,8128,-1,-1,0
-10.42,6.48,-5.42,921,-767,8124,-1,-1,0
-10.42,6.49,-5.42,923,-766,8128,0,-1,0
-10.42,6.49,-5.42,927,-772,8127,-1,-1,0
-10.42,6.50,-5.42,928,-767,8116,0,-1,0
-10.42,6.50,-5.42,926,-772,8109,-1,-1,0
-10.42,6.50,-5.42,927,-774,8119,0,0,0
-10.42,6.50,-5.42,933,-776,8123,0,-1,-1
-10.42,6.50,-5.42,922,-779,8118,0,-1,0
-10.42,6.50,-5.42,909,-776,8108,0,-1,0
-10.42,6.50,-5.41,917,-772,8110,0,-1,0
-10.42,6.50,-5.41,923,-767,8120,0,-1,0
-10.43,6.50,-5.41,923,-762,8113,0,-1,0
-10.43,6.50,-5.41,933,-762,8115,0,-1,0
-10.43,6.51,-5.41,931,-766,8115,0,-1,0
-10.43,6.51,-5.41,926,-770,8118,0,0,0
-10.43,6.50,-5.41,924,-765,8119,0,-1,0
-10.43,6.50,-5.41,916,-763,8120,-1,0,0
-10.43,6.50,-5.41,914,-772,8127,-1,-1,0
-10.43,6.50,-5.41,916,-775,8124,0,-1,-1
-10.43,6.50,-5.41,923,-774,8136,0,-1,-1
-10.43,6.50,-5.41,928,-770,8122,-1,0,0
-10.43,6.50,-5.41,935,-769,8111,-1,0,0
-10.43,6.50,-5.41,931,-776,8120,-1,0,-1
-10.43,6.49,-5.42,925,-776,8125,-1,0,0
-10.43,6.48,-5.42,921,-775,8122,-1,0,-1
-10.43,6.48,-5.42,914,-782,8128,0,-1,-1
-10.43,6.49,-5.42,920,-784,8117,0,-1,-1
-10.42,6.49,-5.42,925,-778,8108,0,-1,-1
-10.43,6.49,-5.41,940,-772,8109,0,0,-1
-10.43,6.49,-5.41,940,-769,8110,-1,0,-1
-10.43,6.48,-5.41,925,-762,8116,0,0,-1
-10.43,6.48,-5.41,920,-765,8115,-1,0,0
-10.42,6.47,-5.41,913,-768,8111,-1,0,-1
-10.42,6.47,-5.41,906,-770,8107,-1,0,-1
-10.42,6.46,-5.42,907,-776,8110,0,0,-1
-10.42,6.46,-5.41,919,-772,8116,0,0,-1
-10.42,6.46,-5.41,927,-766,8120,0,0,-1
-10.41,6.46,-5.41,927,-770,8119,0,0,-1
-10.41,6.45,-5.40,919,-755,8121,0,0,-1
-10.41,6.44,-5.40,917,-756,8119,-1,0,-1
-10.41,6.43,-5.41,915,-763,8126,-1,0,0
-10.41,6.43,-5.41,921,-767,8118,-1,0,0
-10.41,6.43,-5.42,921,-779,8121,-1,0,0
-10.41,6.43,-5.42,924,-788,8121,0,0,-1
-10.41,6.43,-5.42,925,-779,8116,0,0,-1
-10.40,6.43,-5.42,923,-770,8113,0,0,-1
-10.40,6.42,-5.41,922,-755,8114,-1,0,0
-10.40,6.41,-5.42,912,-765,8113,-1,0,0
-10.40,6.41,-5.42,910,-773,8112,-1,0,0
-10.40,6.41,-5.42,912,-768,8132,0,-1,-1
-10.40,6.41,-5.42,912,-771,8124,0,0,-1
-10.40,6.41,-5.42,920,-767,8121,0,0,-1
-10.40,6.40,-5.41,916,-760,8126,0,0,-1
-10.40,6.40,-5.41,917,-761,8131,-1,0,0
-10.40,6.39,-5.41,915,-770,8129,-1,0,0
-10.40,6.38,-5.41,915,-770,8123,-1,0,-1
-10.40,6.38,-5.42,906,-775,8117,0,0,-1
-10.40,6.37,-5.42,897,-772,8112,-1,0,0
-10.40,6.36,-5.42,895,-770,8117,-1,0,0
-10.40,6.36,-5.43,908,-767,8116,-1,0,-1
-10.40,6.36,-5.43,907,-772,8123,-1,0,0
-10.39,6.35,-5.43,907,-776,8128,-1,0,-1
-10.39,6.34,-5.43,901,-781,8120,-1,0,-1
-10.39,6.33,-5.44,900,-781,8128,0,0,-1
-10.39,6.33,-5.44,901,-781,8123,0,0,-1
-10.38,6.32,-5.43,902,-782,8124,-1,0,-1
-10.38,6.31,-5.44,899,-781,8116,-1,0,0
-10.38,6.31,-5.44,892,-776,8112,0,0,0
-10.38,6.30,-5.44,898,-775,8125,-1,0,0
-10.38,6.29,-5.45,900,-782,8129,-1,0,0
-10.38,6.28,-5.45,895,-779,8122,-1,0,-1
-10.38,6.28,-5.45,893,-783,8123,-1,0,0
-10.38,6.28,-5.45,893,-780,8117,-1,0,0
-10.38,6.28,-5.45,890,-772,8115,-1,0,-1
-10.38,6.27,-5.46,887,-777,8125,-1,0,0
-10.38,6.26,-5.46,883,-779,8128,-1,0,0
-10.38,6.25,-5.47,882,-785,8131,-1,0,0
-10.38,6.25,-5.47,896,-794,8124,0,0,-1
-10.38,6.25,-5.47,900,-797,8111,0,0,-1
-10.38,6.25,-5.46,893,-780,8106,0,0,-1
-10.38,6.24,-5.46,898,-768,8113,0,0,-1
-10.38,6.23,-5.45,896,-763,8124,-1,0,-1
-10.38,6.23,-5.46,889,-762,8127,-1,0,0
-10.38,6.21,-5.46,881,-768,8133,-1,0,-1
-10.38,6.20,-5.47,880,-771,8128,-1,0,-1
-10.38,6.20,-5.47,877,-778,8131,-1,0,0
-10.38,6.20,-5.47,888,-773,8121,0,0,-1
-10.38,6.19,-5.46,891,-778,8117,0,0,0
-10.38,6.18,-5.47,888,-783,8131,-1,0,0
-10.38,6.18,-5.47,884,-780,8124,0,0,0
-10.38,6.17,-5.47,886,-778,8122,-1,0,-1
-10.38,6.16,-5.47,886,-770,8128,-1,0,0
-10.38,6.15,-5.47,881,-773,8115,-1,0,0
-10.38,6.15,-5.48,881,-783,8114,-1,0,-1
-10.38,6.14,-5.48,880,-783,8119,0,0,0
-10.38,6.14,-5.49,876,-783,8119,-1,0,-1
-10.37,6.13,-5.49,873,-782,8114,-1,0,-1
-10.37,6.13,-5.49,879,-775,8118,-1,0,0
-10.37,6.12,-5.48,874,-778,8129,-1,0,0
-10.37,6.11,-5.49,876,-786,8138,-1,0,0
-10.37,6.11,-5.49,879,-789,8136,0,0,0
-10.37,6.10,-5.49,873,-777,8127,0,0,0
-10.38,6.10,-5.49,873,-784,8119,-1,0,0
-10.38,6.10,-5.49,870,-773,8122,-1,-1,0
-10.37,6.10,-5.50,879,-785,8121,-1,0,-1
-10.37,6.09,-5.49,867,-780,8127,0,0,-1
-10.37,6.09,-5.49,872,-776,8119,0,0,0
-10.37,6.08,-5.49,872,-783,8114,-1,0,0
-10.37,6.09,-5.49,881,-785,8118,-1,0,-1
-10.37,6.08,-5.49,878,-774,8115,-1,0,-1
-10.36,6.08,-5.49,868,-777,8116,-1,0,-1
-10.36,6.08,-5.49,867,-778,8111,0,-1,-1
-10.37,6.08,-5.49,869,-778,8120,0,-1,-1
-10.36,6.08,-5.49,875,-778,8131,-1,0,0
-10.36,6.09,-5.50,878,-788,8116,-1,0,0
-10.36,6.08,-5.49,865,-792,8117,0,-1,-1
-10.36,6.09,-5.50,865,-777,8127,0,-1,-1
-10.36,6.09,-5.49,863,-772,8130,0,-1,-1
-10.36,6.10,-5.48,854,-778,8131,0,-1,-1
-10.36,6.11,-5.48,865,-778,8122,0,-1,0
-10.37,6.11,-5.48,872,-773,8122,-1,-1,0
-10.36,6.12,-5.48,875,-781,8124,0,-1,-1
-10.36,6.13,-5.48,882,-785,8129,0,-1,0
-10.36,6.13,-5.47,876,-777,8123,0,-1,0
-10.37,6.14,-5.47,881,-775,8126,0,-1,-1
-10.36,6.16,-5.47,878,-768,8124,0,-1,0
-10.36,6.16,-5.46,883,-763,8121,-1,-1,0
-10.36,6.17,-5.47,876,-778,8127,0,-1,0
-10.36,6.18,-5.47,871,-773,8134,-1,-1,0
-10.37,6.18,-5.47,877,-782,8133,-1,-1,0
-10.37,6.20,-5.47,894,-795,8115,0,-1,0
-10.37,6.20,-5.47,887,-793,8108,0,-1,-1
-10.37,6.21,-5.47,889,-781,8103,0,-1,-1
-10.37,6.22,-5.46,899,-774,8114,0,-1,-1
-10.37,6.22,-5.45,890,-767,8125,0,0,0
-10.37,6.22,-5.45,881,-758,8137,-1,-1,0
-10.38,6.23,-5.45,877,-763,8135,-1,-1,0
-10.38,6.24,-5.45,889,-776,8120,0,-1,0
-10.38,6.24,-5.45,890,-778,8119,0,-1,-1
-10.38,6.25,-5.45,891,-780,8108,0,-1,0
-10.38,6.26,-5.44,896,-776,8114,0,-1,0
-10.39,6.26,-5.44,899,-774,8114,0,-1,0
-10.39,6.26,-5.44,898,-766,8117,0,-1,0
-10.39,6.26,-5.44,889,-755,8125,-1,-1,-1
-10.39,6.27,-5.44,888,-750,8123,-1,-1,-1
-10.39,6.28,-5.44,890,-761,8122,-1,-1,0
-10.38,6.28,-5.44,893,-776,8113,-1,-1,0
-10.38,6.29,-5.45,904,-787,8107,-1,-1,0
-10.39,6.29,-5.45,914,-789,8120,0,0,0
-10.38,6.29,-5.44,909,-774,8121,0,0,-1
-10.38,6.29,-5.44,901,-771,8124,-1,-1,-1
-10.39,6.30,-5.44,903,-770,8133,-1,-1,0
-10.39,6.30,-5.45,906,-778,8130,-1,-1,0
-10.39,6.30,-5.45,908,-781,8128,-1,-1,0
-10.39,6.32,-5.45,915,-785,8121,0,-1,0
-10.40,6.33,-5.44,920,-784,8123,0,-1,0
-10.39,6.33,-5.44,916,-776,8120,0,-1,0
-10.40,6.33,-5.44,917,-767,8126,0,-1,-1
-10.40,6.33,-5.44,909,-772,8120,-1,-1,0
-10.40,6.33,-5.44,904,-771,8127,0,-1,0
-10.40,6.34,-5.44,901,-778,8120,0,-1,-1
-10.40,6.35,-5.44,906,-778,8115,0,-1,0
-10.40,6.35,-5.44,919,-771,8112,0,-1,0
-10.40,6.35,-5.44,915,-771,8123,0,-1,0
-10.40,6.36,-5.43,911,-775,8125,0,-1,0
-10.40,6.36,-5.44,911,-778,8119,-1,-1,0
-10.40,6.36,-5.43,902,-775,8114,0,-1,0
-10.40,6.36,-5.43,900,-771,8119,0,-1,-1
-10.40,6.36,-5.43,898,-777,8112,0,-1,0
-10.40,6.37,-5.43,909,-777,8115,0,-1,0
-10.41,6.38,-5.43,910,-773,8112,0,-1,0
-10.41,6.38,-5.43,908,-766,8106,0,-1,0
-10.41,6.38,-5.42,912,-769,8108,0,-1,0
-10.41,6.38,-5.42,918,-769,8116,0,-1,0
-10.41,6.39,-5.42,910,-767,8122,-1,-1,0
-10.41,6.39,-5.42,905,-763,8114,-1,-1,0
-10.41,6.39,-5.42,903,-784,8117,0,-1,0
-10.41,6.40,-5.42,913,-780,8121,0,-1,-1
-10.41,6.40,-5.42,906,-768,8122,0,-1,-1
-10.41,6.41,-5.41,911,-771,8115,0,-1,0
-10.41,6.41,-5.41,920,-762,8114,0,-1,0
-10.41,6.41,-5.40,922,-756,8115,-1,-1,0
-10.41,6.41,-5.41,923,-763,8129,-1,0,0
-10.42,6.41,-5.41,918,-773,8131,-1,-1,0
-10.42,6.42,-5.41,912,-776,8124,0,-1,0
-10.42,6.42,-5.41,914,-784,8133,0,-1,0
-10.42,6.43,-5.41,913,-780,8125,0,-1,0
-10.42,6.43,-5.41,917,-767,8117,0,-1,-1
-10.42,6.44,-5.39,922,-754,8115,0,-1,0
-10.42,6.44,-5.39,920,-754,8117,0,-1,0
-10.42,6.44,-5.39,927,-753,8119,0,0,0
-10.43,6.44,-5.39,925,-763,8114,0,0,0
-10.43,6.44,-5.39,917,-767,8111,0,-1,0
-10.43,6.44,-5.39,917,-767,8112,0,-1,0
-10.43,6.44,-5.38,919,-768,8106,0,-1,0
-10.43,6.44,-5.37,918,-760,8115,0,-1,0
-10.44,6.45,-5.37,923,-753,8116,0,-1,0
-10.44,6.45,-5.37,929,-753,8127,0,-1,0
-10.44,6.45,-5.37,923,-749,8128,-1,0,0
-10.44,6.45,-5.37,917,-756,8131,-1,-1,0
-10.44,6.45,-5.37,919,-766,8120,-1,-1,0
-10.44,6.45,-5.37,915,-771,8120,-1,-1,0
-10.44,6.46,-5.38,917,-782,8107,-1,-1,0
-10.45,6.46,-5.38,916,-777,8105,0,-1,0
-10.45,6.46,-5.38,926,-766,8109,0,-1,-1
-10.45,6.46,-5.37,927,-753,8119,-1,-1,0
-10.45,6.46,-5.37,917,-756,8120,-1,0,0
-10.45,6.46,-5.37,918,-765,8122,-1,0,0
-10.45,6.46,-5.37,916,-765,8129,0,-1,-1
-10.45,6.46,-5.37,920,-761,8130,0,0,-1
-10.45,6.45,-5.36,916,-762,8121,0,0,-1
-10.44,6.45,-5.36,921,-758,8123,0,0,0
-10.44,6.45,-5.35,924,-747,8125,0,0,0
-10.44,6.45,-5.35,926,-751,8124,-1,0,0
-10.44,6.45,-5.36,922,-756,8133,-1,0,0
-10.44,6.44,-5.36,923,-761,8119,-1,0,-1
-10.44,6.44,-5.36,923,-772,8120,-1,0,0
-10.44,6.44,-5.37,914,-777,8124,-1,-1,-1
-10.44,6.44,-5.37,926,-773,8128,-1,-1,-1
-10.44,6.44,-5.37,932,-766,8131,-1,0,0
-10.44,6.44,-5.37,927,-765,8123,-1,0,0
-10.44,6.44,-5.37,928,-769,8119,0,0,-1
-10.44,6.43,-5.37,921,-772,8115,0,0,0
-10.44,6.43,-5.37,912,-767,8121,0,0,0
-10.44,6.43,-5.37,917,-769,8122,0,0,0
-10.44,6.42,-5.36,911,-764,8128,0,0,-1
-10.44,6.42,-5.36,911,-760,8120,-1,0,0
-10.44,6.42,-5.36,917,-760,8116,-1,0,-1
-10.44,6.41,-5.37,926,-760,8121,-1,0,-1
-10.44,6.40,-5.37,917,-756,8117,-1,0,-1
-10.43,6.40,-5.37,918,-761,8112,-1,0,-1
-10.43,6.39,-5.37,917,-769,8114,-1,0,0
-10.43,6.38,-5.37,909,-765,8125,0,0,-1
-10.43,6.37,-5.37,913,-759,8109,-1,0,0
-10.43,6.37,-5.37,909,-757,8107,0,0,-1
-10.42,6.37,-5.36,913,-754,8109,0,0,-1
-10.42,6.36,-5.36,911,-757,8111,-1,0,-1
-10.42,6.35,-5.37,908,-760,8121,-1,0,-1
-10.42,6.35,-5.37,904,-761,8121,-1,0,0
-10.42,6.35,-5.37,909,-765,8115,-1,0,0
-10.42,6.35,-5.37,914,-766,8104,0,0,-1
-10.42,6.34,-5.37,916,-760,8108,0,0,-1
-10.42,6.33,-5.36,915,-744,8117,0,0,-1
-10.42,6.33,-5.36,912,-750,8122,-1,0,-1
-10.42,6.33,-5.36,906,-752,8124,-1,0,0
-10.42,6.32,-5.37,902,-754,8124,-1,0,0
-10.42,6.32,-5.37,897,-758,8123,0,0,-1
-10.42,6.31,-5.37,896,-759,8120,0,0,-1
-10.42,6.31,-5.37,901,-758,8121,0,0,-1
-10.42,6.31,-5.36,913,-754,8123,0,0,-1
-10.42,6.31,-5.36,919,-752,8121,0,0,0
-10.42,6.30,-5.35,913,-746,8118,-1,0,0
-10.42,6.29,-5.36,895,-748,8113,-1,0,0
-10.42,6.28,-5.36,887,-750,8132,-1,0,0
-10.42,6.28,-5.36,886,-754,8137,-1,0,0
-10.42,6.28,-5.36,887,-756,8127,-1,0,0
-10.42,6.27,-5.37,891,-769,8127,-1,0,0
-10.42,6.27,-5.37,892,-774,8111,-1,0,0
-10.42,6.26,-5.37,888,-773,8111,0,0,-1
-10.42,6.25,-5.37,896,-769,8124,0,0,-1
-10.41,6.25,-5.37,892,-765,8122,0,0,-1
-10.41,6.25,-5.37,889,-765,8118,0,0,-1
-10.41,6.24,-5.37,888,-763,8127,0,0,-1
-10.41,6.23,-5.37,889,-767,8118,0,0,0
-10.40,6.23,-5.37,896,-765,8117,-1,0,-1
-10.40,6.23,-5.37,897,-757,8121,-1,0,-1
-10.40,6.22,-5.37,892,-755,8117,-1,0,0
-10.40,6.21,-5.37,893,-763,8119,0,0,0
-10.40,6.21,-5.37,885,-775,8128,-1,0,0
-10.41,6.20,-5.37,888,-766,8126,-1,0,0
-10.41,6.19,-5.37,889,-766,8130,-1,0,0
-10.41,6.19,-5.37,894,-757,8125,-1,0,0
-10.41,6.18,-5.38,884,-757,8123,-1,0,0
-10.41,6.18,-5.39,885,-771,8123,-1,0,0
-10.41,6.18,-5.39,894,-774,8126,-1,0,0
-10.41,6.17,-5.40,890,-771,8130,-1,0,-1
-10.41,6.16,-5.40,887,-774,8129,-1,0,-1
-10.41,6.15,-5.41,888,-779,8116,0,0,-1
-10.41,6.15,-5.40,888,-774,8122,-1,0,0
-10.41,6.14,-5.40,882,-766,8125,-1,0,0
-10.41,6.13,-5.41,878,-768,8119,-1,0,-1
-10.41,6.12,-5.41,879,-778,8122,0,0,0
-10.41,6.12,-5.40,869,-774,8124,0,0,-1
-10.41,6.12,-5.39,870,-748,8134,-1,-1,0
-10.41,6.12,-5.40,881,-756,8119,-1,0,0
-10.41,6.12,-5.41,881,-766,8120,-1,0,0
-10.41,6.11,-5.41,873,-768,8123,-1,0,-1
-10.41,6.10,-5.42,870,-776,8129,-1,0,0
-10.41,6.10,-5.42,869,-783,8131,-1,0,0
-10.41,6.10,-5.43,870,-779,8129,0,0,-1
-10.41,6.09,-5.43,867,-779,8124,0,0,0
-10.41,6.09,-5.43,873,-777,8125,-1,0,0
-10.40,6.09,-5.43,878,-768,8117,-1,0,-1
-10.40,6.09,-5.43,875,-773,8126,-1,0,-1
-10.40,6.08,-5.43,867,-772,8130,-1,0,-1
-10.40,6.07,-5.42,861,-775,8138,0,0,-1
-10.40,6.07,-5.42,857,-772,8132,-1,0,-1
-10.40,6.07,-5.42,854,-776,8121,0,-1,0
-10.40,6.08,-5.42,851,-772,8119,0,-1,-1
-10.40,6.08,-5.41,872,-767,8121,0,-1,-1
-10.40,6.08,-5.41,878,-763,8117,0,0,-1
-10.40,6.09,-5.41,877,-761,8116,0,-1,0
-10.40,6.09,-5.41,871,-762,8119,-1,-1,0
-10.40,6.09,-5.41,864,-766,8135,-1,-1,0
-10.40,6.10,-5.41,871,-765,8128,0,-1,-1
-10.40,6.10,-5.41,873,-769,8132,-1,-1,0
-10.40,6.11,-5.41,875,-774,8120,-1,-1,0
-10.40,6.12,-5.42,878,-776,8116,0,-1,0
-10.40,6.12,-5.42,882,-772,8122,0,-1,0
-10.40,6.12,-5.42,878,-776,8114,-1,-1,0
-10.40,6.12,-5.42,876,-777,8127,0,-1,0
-10.40,6.13,-5.42,875,-778,8123,0,-1,0
-10.40,6.14,-5.42,877,-776,8126,0,-1,0
-10.40,6.15,-5.41,874,-773,8123,0,-1,0
-10.41,6.15,-5.41,878,-769,8117,0,-1,0
-10.41,6.16,-5.41,881,-766,8117,0,-1,0
-10.41,6.17,-5.41,889,-766,8115,0,-1,0
-10.41,6.17,-5.40,884,-770,8109,0,-1,0
-10.41,6.17,-5.40,886,-768,8109,0,-1,0
-10.41,6.17,-5.40,881,-768,8107,0,-1,0
-10.42,6.18,-5.39,878,-763,8108,0,-1,0
-10.42,6.19,-5.39,884,-766,8118,-1,-1,0
-10.42,6.20,-5.40,889,-766,8123,-1,-1,0
-10.42,6.20,-5.40,887,-769,8117,-1,-1,0
-10.43,6.20,-5.40,892,-777,8121,-1,-1,0
-10.42,6.20,-5.41,891,-788,8125,0,-1,0
-10.42,6.20,-5.41,884,-784,8117,0,-1,0
-10.42,6.20,-5.41,887,-777,8125,0,-1,0
-10.42,6.21,-5.41,894,-769,8129,-1,-1,0
-10.43,6.22,-5.41,892,-761,8114,0,-1,0
-10.43,6.22,-5.41,888,-767,8112,-1,-1,0
-10.43,6.23,-5.41,886,-774,8126,-1,-1,0
-10.43,6.23,-5.41,883,-777,8118,0,-1,0
-10.44,6.24,-5.42,888,-785,8122,0,-1,0
-10.44,6.25,-5.41,897,-783,8134,0,-1,0
-10.44,6.26,-5.40,893,-780,8113,0,-1,0
-10.44,6.27,-5.39,900,-765,8104,0,-1,0
-10.44,6.27,-5.38,905,-755,8107,0,-1,0
-10.44,6.27,-5.38,899,-737,8117,0,-1,0
-10.44,6.28,-5.38,904,-750,8133,-1,-1,0
-10.44,6.29,-5.39,894,-767,8148,-1,-1,0
-10.44,6.29,-5.39,889,-782,8137,0,-1,0
-10.45,6.29,-5.39,895,-776,8126,-1,-1,0
-10.45,6.30,-5.39,896,-777,8127,0,-1,-1
-10.45,6.31,-5.38,905,-755,8125,0,-1,0
-10.45,6.32,-5.37,910,-750,8121,0,-1,0
-10.45,6.32,-5.37,902,-775,8117,0,-1,0
-10.45,6.32,-5.36,896,-762,8127,0,-1,0
-10.45,6.33,-5.36,900,-744,8140,-1,-1,0
-10.46,6.34,-5.37,905,-761,8130,-1,-1,0
-10.46,6.35,-5.38,906,-796,8120,0,-1,0
-10.46,6.35,-5.38,910,-800,8116,0,-1,0
-10.47,6.36,-5.37,911,-784,8114,0,-1,0
-10.47,6.37,-5.37,920,-776,8115,0,-1,0
-10.47,6.37,-5.36,926,-759,8125,0,0,-1
-10.46,6.37,-5.36,916,-747,8135,-1,-1,0
-10.47,6.37,-5.36,909,-746,8147,-1,-1,0
-10.47,6.37,-5.36,902,-756,8133,-1,-1,0
-10.47,6.37,-5.36,909,-760,8135,0,-1,0
-10.47,6.38,-5.36,915,-763,8130,0,-1,-1
-10.47,6.38,-5.36,911,-761,8131,0,-1,0
-10.47,6.38,-5.35,905,-758,8130,0,-1,0
-10.47,6.39,-5.35,901,-755,8132,0,-1,0
-10.47,6.39,-5.35,905,-754,8131,0,-1,0
-10.47,6.39,-5.35,913,-758,8122,0,-1,0
-10.47,6.39,-5.36,923,-764,8122,0,-1,0
-10.47,6.40,-5.35,918,-756,8112,0,-1,0
-10.47,6.40,-5.35,921,-758,8111,0,-1,0
-10.47,6.40,-5.35,921,-760,8123,0,-1,0
-10.47,6.41,-5.35,918,-766,8121,-1,-1,0
-10.47,6.41,-5.35,920,-766,8113,0,-1,-1
-10.47,6.41,-5.35,916,-757,8106,0,-1,0
-10.48,6.41,-5.34,914,-758,8121,0,-1,0
-10.48,6.41,-5.34,916,-760,8118,0,-1,0
-10.48,6.42,-5.34,919,-762,8127,0,-1,0
-10.48,6.42,-5.34,916,-748,8127,-1,-1,0
-10.48,6.42,-5.34,922,-745,8118,0,-1,0
-10.48,6.42,-5.34,923,-755,8126,-1,-1,0
-10.49,6.42,-5.34,924,-759,8120,-1,-1,0
-10.49,6.42,-5.34,926,-756,8119,0,-1,0
-10.49,6.42,-5.34,924,-761,8128,0,-1,0
-10.49,6.43,-5.34,924,-756,8122,0,-1,0
-10.49,6.43,-5.34,922,-757,8120,-1,-1,0
-10.49,6.43,-5.34,923,-766,8108,0,-1,0
-10.49,6.43,-5.35,918,-766,8110,-1,0,0
-10.49,6.43,-5.35,921,-769,8110,0,-1,-1
-10.49,6.43,-5.34,916,-760,8105,0,-1,0
-10.49,6.44,-5.33,919,-755,8111,0,-1,-1
-10.49,6.44,-5.33,925,-736,8114,-1,-1,0
-10.49,6.44,-5.33,937,-736,8108,-1,0,0
-10.49,6.43,-5.34,924,-752,8116,-1,0,0
-10.49,6.43,-5.35,918,-759,8126,-1,0,-1
-10.49,6.42,-5.35,908,-760,8126,-1,-1,0
-10.49,6.42,-5.35,908,-773,8128,0,-1,-1
-10.49,6.43,-5.35,912,-779,8114,0,-1,-1
-10.49,6.43,-5.33,928,-759,8114,0,-1,-1
-10.49,6.43,-5.33,938,-751,8116,0,0,-1
-10.48,6.43,-5.33,937,-752,8122,-1,0,-1
-10.48,6.42,-5.33,919,-745,8130,-1,0,0
-10.48,6.42,-5.33,914,-754,8120,-1,0,0
-10.48,6.42,-5.34,914,-761,8127,0,0,0
-10.48,6.42,-5.33,912,-758,8124,0,0,-1
-10.48,6.42,-5.33,913,-765,8115,0,0,-1
-10.48,6.42,-5.33,912,-762,8113,0,0,-1
-10.47,6.41,-5.33,916,-755,8110,0,0,-1
-10.47,6.40,-5.32,918,-749,8113,0,0,-1
-10.47,6.40,-5.32,921,-748,8116,-1,0,-1
-10.47,6.39,-5.33,911,-751,8123,-1,0,-1
-10.47,6.39,-5.33,914,-756,8115,-1,0,-1
-10.47,6.38,-5.34,909,-766,8115,-1,0,0
-10.47,6.38,-5.35,921,-776,8118,-1,0,0
-10.46,6.38,-5.35,920,-775,8112,0,0,-1
-10.46,6.37,-5.35,918,-765,8117,0,0,-1
-10.45,6.37,-5.34,917,-746,8122,0,0,-1
-10.45,6.36,-5.34,924,-741,8121,-1,0,-1
-10.45,6.35,-5.34,910,-747,8113,-1,0,0
-10.45,6.34,-5.35,899,-758,8122,-1,0,-1
-10.45,6.33,-5.35,908,-767,8124,0,0,-1
-10.45,6.33,-5.34,893,-756,8125,0,-1,-1
-10.45,6.33,-5.34,899,-754,8120,0,0,-1
-10.44,6.33,-5.34,906,-756,8115,0,-1,-1
-10.44,6.33,-5.34,912,-759,8114,0,0,-1
-10.44,6.33,-5.34,913,-749,8122,-1,0,0
-10.44,6.33,-5.34,912,-762,8118,-1,0,0
-10.44,6.32,-5.34,901,-762,8120,0,0,-1
-10.44,6.32,-5.35,903,-763,8126,0,0,-1
-10.43,6.32,-5.35,907,-762,8124,-1,0,0
-10.44,6.31,-5.35,916,-763,8120,-1,0,0
-10.43,6.31,-5.35,915,-759,8123,-1,0,-1
-10.43,6.31,-5.35,915,-761,8118,-1,0,0
-10.43,6.30,-5.35,908,-761,8120,0,0,-1
-10.43,6.29,-5.35,907,-761,8120,-1,0,0
-10.43,6.28,-5.35,907,-756,8127,-1,0,0
-10.43,6.28,-5.35,915,-757,8122,-1,0,0
-10.43,6.28,-5.36,912,-764,8121,-1,0,0
-10.43,6.28,-5.36,901,-758,8121,0,0,-1
-10.43,6.27,-5.35,895,-762,8125,0,0,-1
-10.43,6.26,-5.35,900,-753,8125,-1,0,0
-10.43,6.26,-5.35,897,-754,8124,-1,0,-1
-10.43,6.25,-5.35,900,-752,8111,-1,0,0
-10.43,6.24,-5.36,893,-757,8128,0,0,-1
-10.43,6.23,-5.36,891,-759,8125,-1,0,-1
-10.43,6.23,-5.36,887,-768,8123,-1,0,-1
-10.43,6.23,-5.36,886,-765,8127,0,0,0
-10.43,6.23,-5.36,889,-758,8122,-1,0,-1
-10.43,6.23,-5.36,896,-763,8117,-1,0,0
-10.43,6.22,-5.36,894,-767,8112,-1,0,0
-10.43,6.21,-5.36,894,-753,8118,-1,0,0
-10.43,6.21,-5.36,887,-751,8123,-1,0,0
-10.43,6.20,-5.37,891,-756,8132,-1,0,0
-10.43,6.20,-5.38,888,-772,8127,-1,0,0
-10.43,6.19,-5.38,889,-776,8117,-1,0,0
-10.43,6.19,-5.38,892,-776,8112,0,0,-1
-10.43,6.18,-5.37,891,-758,8109,0,0,0
-10.43,6.18,-5.37,887,-757,8122,0,0,-1
-10.43,6.17,-5.37,888,-765,8121,-1,0,-1
-10.43,6.16,-5.37,885,-763,8130,-1,0,-1
-10.43,6.15,-5.38,877,-765,8119,-1,0,0
-10.43,6.14,-5.38,872,-773,8115,-1,0,0
-10.43,6.14,-5.38,873,-777,8115,0,0,-1
-10.43,6.13,-5.38,883,-764,8122,0,0,0
-10.43,6.13,-5.38,889,-755,8122,-1,0,-1
-10.43,6.13,-5.38,889,-766,8107,0,0,-1
-10.42,6.12,-5.37,869,-757,8125,0,0,-1
-10.43,6.11,-5.37,864,-729,8141,-1,0,0
-10.43,6.11,-5.37,866,-742,8141,-1,0,0
-10.43,6.11,-5.39,876,-781,8123,-1,0,0
-10.43,6.10,-5.40,873,-789,8117,0,0,-1
-10.43,6.11,-5.40,882,-784,8117,0,0,0
-10.43,6.11,-5.40,893,-780,8120,0,0,-1
-10.43,6.10,-5.40,888,-775,8127,0,0,-1
-10.42,6.10,-5.39,881,-767,8129,0,0,-1
-10.43,6.10,-5.39,869,-747,8150,0,-1,0
-10.43,6.10,-5.39,862,-755,8137,-1,-1,0
-10.43,6.11,-5.39,875,-771,8124,-1,-1,0
-10.43,6.12,-5.40,881,-771,8109,0,-1,-1
-10.42,6.12,-5.39,880,-776,8110,0,0,-1
-10.42,6.12,-5.37,871,-762,8128,0,-1,-1
-10.42,6.12,-5.37,879,-744,8137,-1,-1,0
-10.43,6.13,-5.37,887,-755,8124,-1,-1,0
-10.43,6.13,-5.38,880,-771,8122,0,-1,-1
-10.43,6.14,-5.37,873,-757,8119,-1,-1,-1
-10.43,6.14,-5.37,887,-749,8113,-1,-1,0
-10.43,6.16,-5.38,890,-775,8110,-1,-1,-1
-10.42,6.16,-5.38,898,-782,8102,0,0,-1
-10.42,6.16,-5.36,888,-776,8128,0,-1,-1
-10.42,6.17,-5.35,889,-749,8132,0,-1,0
-10.42,6.17,-5.35,886,-750,8131,-1,-1,0
-10.42,6.18,-5.36,881,-761,8122,-1,-1,0
-10.42,6.19,-5.36,874,-767,8115,0,-1,-1
-10.42,6.19,-5.35,879,-765,8102,0,-1,-1
-10.41,6.21,-5.35,890,-762,8115,0,-1,-1
-10.41,6.22,-5.33,897,-754,8117,0,-1,-1
-10.41,6.22,-5.33,903,-753,8126,0,-1,-1
-10.41,6.23,-5.32,905,-746,8126,0,-1,-1
-10.41,6.24,-5.32,902,-748,8123,-1,-1,-1
-10.41,6.24,-5.32,890,-749,8123,0,-1,0
-10.41,6.24,-5.31,894,-741,8126,-1,-1,-1
-10.41,6.25,-5.32,899,-748,8115,-1,-1,0
-10.41,6.25,-5.32,897,-756,8113,-1,-1,0
-10.41,6.25,-5.32,898,-756,8113,-1,0,0
-10.41,6.25,-5.33,893,-762,8116,-1,-1,0
-10.41,6.25,-5.34,893,-762,8133,-1,-1,0
-10.41,6.26,-5.34,895,-772,8128,0,-1,0
-10.41,6.26,-5.34,896,-771,8116,0,-1,-1
-10.41,6.27,-5.33,901,-758,8119,0,-1,0
-10.41,6.27,-5.33,908,-752,8113,0,-1,-1
-10.41,6.27,-5.33,909,-754,8112,-1,0,0
-10.41,6.28,-5.33,908,-756,8116,-1,-1,0
-10.41,6.28,-5.33,905,-758,8117,-1,0,0
-10.41,6.28,-5.34,893,-763,8132,0,-1,0
-10.41,6.28,-5.33,888,-758,8128,0,-1,-1
-10.41,6.29,-5.33,885,-760,8125,0,-1,-1
-10.41,6.29,-5.33,894,-759,8123,0,-1,0
-10.41,6.30,-5.33,899,-756,8130,0,-1,0
-10.41,6.30,-5.32,904,-751,8119,-1,-1,0
-10.42,6.30,-5.33,906,-753,8124,-1,-1,0
-10.42,6.30,-5.33,902,-758,8125,-1,-1,0
-10.42,6.30,-5.34,891,-761,8126,-1,-1,0
-10.42,6.30,-5.34,893,-761,8127,-1,-1,0
-10.42,6.31,-5.34,902,-756,8125,-1,-1,0
-10.43,6.31,-5.34,910,-762,8120,0,-1,0
-10.43,6.32,-5.34,909,-767,8110,0,-1,0
-10.43,6.32,-5.34,913,-761,8116,0,-1,0
-10.43,6.33,-5.34,915,-754,8121,0,-1,0
-10.43,6.33,-5.33,909,-744,8120,0,-1,0
-10.43,6.33,-5.33,904,-743,8119,0,-1,-1
-10.43,6.34,-5.33,902,-753,8124,0,-1,0
-10.43,6.34,-5.33,900,-754,8125,0,-1,0
-10.43,6.34,-5.33,902,-759,8126,0,-1,-1
-10.43,6.34,-5.33,908,-753,8128,0,-1,0
-10.43,6.34,-5.32,909,-754,8120,0,-1,-1
-10.43,6.35,-5.32,909,-757,8125,0,-1,0
-10.43,6.35,-5.32,914,-757,8131,0,-1,0
-10.43,6.36,-5.31,907,-757,8128,0,-1,0
-10.43,6.36,-5.32,904,-761,8125,-1,-1,0
-10.43,6.36,-5.32,909,-756,8119,-1,-1,0
-10.43,6.37,-5.31,910,-750,8113,0,-1,0
-10.43,6.37,-5.31,914,-747,8119,-1,-1,0
-10.43,6.37,-5.32,919,-754,8120,0,-1,0
-10.43,6.37,-5.32,918,-756,8117,0,-1,0
-10.43,6.38,-5.31,923,-748,8122,0,-1,0
-10.43,6.39,-5.31,922,-747,8127,0,-1,-1
-10.43,6.39,-5.30,919,-748,8117,-1,0,0
-10.43,6.39,-5.31,912,-747,8123,-1,-1,0
-10.43,6.39,-5.31,908,-768,8110,0,-1,0
-10.43,6.39,-5.31,919,-765,8123,0,-1,0
-10.44,6.40,-5.30,915,-741,8130,0,-1,-1
-10.43,6.41,-5.30,922,-755,8128,-1,-1,-1
-10.43,6.42,-5.30,927,-757,8119,0,-1,-1
-10.43,6.42,-5.29,910,-747,8114,0,-1,0
-10.44,6.42,-5.29,912,-742,8123,-1,-1,0
-10.43,6.42,-5.30,918,-747,8126,-1,-1,0
-10.43,6.42,-5.31,918,-765,8126,-1,-1,-1
-10.43,6.43,-5.31,925,-776,8116,0,-1,-1
-10.43,6.43,-5.31,926,-776,8122,0,-1,0
-10.43,6.44,-5.30,926,-756,8123,0,-1,-1
-10.43,6.44,-5.29,927,-738,8117,0,-1,-1
-10.43,6.44,-5.29,923,-734,8129,-1,-1,0
-10.43,6.44,-5.29,924,-741,8132,-1,-1,0
-10.43,6.44,-5.29,917,-751,8142,-1,-1,0
-10.43,6.44,-5.29,920,-754,8133,0,-1,0
-10.43,6.45,-5.30,926,-759,8118,0,-1,-1
-10.43,6.45,-5.30,925,-758,8118,0,-1,0
-10.43,6.45,-5.29,925,-750,8126,0,-1,0
-10.43,6.46,-5.28,936,-741,8118,0,-1,0
-10.43,6.46,-5.28,935,-740,8109,0,-1,0
-10.43,6.47,-5.28,932,-737,8113,-1,-1,0
-10.43,6.47,-5.28,925,-737,8121,-1,-1,0
-10.44,6.47,-5.28,931,-737,8128,-1,-1,0
-10.44,6.47,-5.28,932,-750,8129,-1,-1,0
-10.44,6.48,-5.28,933,-746,8120,-1,-1,0
-10.45,6.48,-5.28,931,-755,8110,0,-1,0
-10.45,6.48,-5.28,932,-758,8121,0,-1,-1
-10.45,6.49,-5.28,922,-739,8120,0,-1,-1
-10.45,6.49,-5.27,917,-730,8127,-1,-1,0
-10.45,6.49,-5.27,921,-743,8127,-1,-1,0
-10.45,6.49,-5.28,923,-752,8131,0,-1,0
-10.45,6.49,-5.27,928,-749,8126,0,-1,0
-10.45,6.50,-5.27,939,-751,8125,0,-1,0
-10.45,6.50,-5.27,937,-746,8118,0,0,0
-10.45,6.50,-5.27,927,-746,8124,0,-1,0
-10.46,6.50,-5.26,928,-741,8132,0,-1,0
-10.46,6.51,-5.26,925,-744,8130,0,-1,-1
-10.46,6.51,-5.26,927,-748,8122,0,-1,0
-10.45,6.52,-5.26,931,-753,8117,0,-1,0
-10.46,6.52,-5.26,933,-753,8113,0,-1,0
-10.46,6.52,-5.26,939,-754,8116,0,-1,0
-10.46,6.52,-5.26,940,-753,8113,0,0,0
-10.46,6.52,-5.26,941,-749,8117,-1,0,0
-10.46,6.52,-5.27,934,-748,8123,-1,0,0
-10.46,6.52,-5.27,938,-748,8128,-1,0,0
-10.46,6.52,-5.27,936,-754,8124,0,0,-1
-10.46,6.52,-5.27,934,-752,8121,0,0,0
-10.46,6.52,-5.27,937,-744,8115,0,0,-1
-10.45,6.52,-5.26,940,-742,8120,0,0,-1
-10.45,6.51,-5.27,939,-747,8119,0,0,-1
-10.46,6.51,-5.26,936,-744,8124,0,0,-1
-10.46,6.51,-5.26,933,-746,8136,0,-1,-1
-10.45,6.51,-5.26,936,-748,8124,0,0,0
-10.45,6.50,-5.26,939,-740,8126,-1,0,0
-10.45,6.50,-5.27,942,-756,8116,-1,0,0
-10.45,6.50,-5.27,935,-764,8118,0,-1,-1
-10.45,6.50,-5.26,934,-745,8125,0,0,-1
-10.45,6.50,-5.25,930,-734,8128,-1,0,-1
-10.44,6.50,-5.25,940,-738,8118,-1,0,-1
-10.44,6.50,-5.26,943,-738,8124,-1,0,0
-10.44,6.50,-5.26,935,-742,8131,-1,0,0
-10.44,6.50,-5.27,930,-748,8128,-1,0,-1
-10.44,6.49,-5.26,934,-751,8134,0,0,0
-10.44,6.48,-5.26,930,-752,8122,0,0,-1
-10.44,6.48,-5.26,932,-749,8120,0,0,-1
-10.44,6.48,-5.25,933,-741,8118,0,0,-1
-10.44,6.48,-5.25,942,-740,8117,0,0,0
-10.44,6.48,-5.25,937,-736,8121,-1,0,-1
-10.44,6.48,-5.26,934,-747,8121,-1,0,-1
-10.44,6.47,-5.25,929,-749,8115,-1,0,-1
-10.43,6.46,-5.25,917,-750,8118,0,0,-1
-10.43,6.46,-5.25,920,-754,8120,0,0,-1
-10.43,6.45,-5.25,923,-745,8117,0,0,0
-10.43,6.45,-5.25,916,-735,8118,0,0,-1
-10.43,6.44,-5.24,920,-742,8120,-1,0,0
-10.43,6.44,-5.25,917,-745,8119,-1,0,-1
-10.42,6.43,-5.25,922,-738,8129,-1,0,-1
-10.42,6.43,-5.26,916,-741,8122,-1,0,0
-10.43,6.43,-5.26,919,-750,8120,-1,0,0
-10.43,6.43,-5.27,917,-766,8112,-1,0,0
-10.43,6.43,-5.27,913,-767,8117,0,-1,0
-10.43,6.43,-5.27,913,-759,8113,0,0,-1
-10.43,6.42,-5.26,918,-749,8116,0,0,-1
-10.42,6.42,-5.26,921,-741,8114,0,0,0
-10.42,6.42,-5.26,916,-740,8122,-1,0,0
-10.42,6.42,-5.26,924,-748,8119,-1,0,-1
-10.42,6.41,-5.27,930,-762,8122,0,0,-1
-10.42,6.41,-5.26,918,-760,8118,0,0,-1
-10.42,6.41,-5.26,917,-753,8119,0,0,-1
-10.42,6.40,-5.25,922,-748,8127,0,0,0
-10.42,6.40,-5.25,924,-741,8118,-1,0,0
-10.42,6.39,-5.25,915,-736,8124,-1,0,0
-10.42,6.38,-5.26,915,-744,8128,-1,0,0
-10.42,6.38,-5.27,909,-753,8132,0,0,0
-10.42,6.38,-5.27,915,-757,8129,-1,-1,-1
-10.42,6.37,-5.27,910,-763,8131,0,0,0
-10.42,6.37,-5.26,909,-753,8118,0,0,0
-10.43,6.36,-5.25,908,-733,8127,-1,0,0
-10.43,6.36,-5.26,918,-738,8117,-1,0,-1
-10.42,6.36,-5.26,922,-752,8113,0,0,-1
-10.42,6.36,-5.26,905,-735,8122,-1,0,-1
-10.42,6.36,-5.26,914,-739,8116,-1,-1,0
-10.43,6.36,-5.27,920,-753,8117,-1,-1,0
-10.42,6.36,-5.27,918,-775,8118,0,0,-1
-10.42,6.35,-5.26,903,-753,8129,0,0,-1
-10.42,6.35,-5.26,905,-729,8126,-1,-1,0
-10.42,6.35,-5.26,919,-734,8125,-1,-1,0
-10.42,6.35,-5.26,921,-742,8125,-1,0,-1
-10.42,6.35,-5.27,912,-750,8124,-1,0,-1
-10.42,6.34,-5.27,911,-757,8120,0,0,-1
-10.42,6.34,-5.27,904,-738,8128,-1,-1,0
-10.42,6.34,-5.27,910,-740,8125,-1,0,-1
-10.42,6.34,-5.28,903,-736,8120,-1,0,-1
-10.42,6.34,-5.28,908,-742,8111,-1,0,-1
-10.41,6.33,-5.30,913,-760,8121,-1,0,-1
-10.41,6.33,-5.30,908,-767,8126,-1,0,0
-10.41,6.33,-5.30,905,-774,8119,0,0,-1
-10.41,6.33,-5.30,910,-766,8119,0,-1,-1
-10.41,6.33,-5.29,913,-760,8121,0,-1,-1
-10.41,6.33,-5.29,914,-758,8115,0,-1,-1
-10.41,6.33,-5.28,922,-747,8121,0,0,-1
-10.40,6.33,-5.27,905,-746,8117,0,0,-1
-10.40,6.33,-5.27,901,-748,8121,0,0,-1
-10.40,6.33,-5.27,904,-743,8128,0,-1,0
-10.40,6.34,-5.27,901,-729,8132,-1,-1,0
-10.39,6.34,-5.27,901,-742,8131,-1,-1,-1
-10.39,6.34,-5.27,896,-766,8128,0,-1,-1
-10.39,6.34,-5.27,902,-765,8125,0,-1,-1
-10.39,6.35,-5.25,909,-743,8118,0,-1,-1
-10.39,6.35,-5.25,918,-732,8126,0,-1,0
-10.39,6.35,-5.25,916,-717,8134,-1,-1,0
-10.39,6.35,-5.25,912,-724,8130,-1,-1,0
-10.39,6.36,-5.25,910,-739,8127,-1,-1,0
-10.39,6.36,-5.26,908,-743,8123,-1,-1,0
-10.39,6.37,-5.27,913,-755,8122,-1,-1,0
-10.39,6.37,-5.27,917,-764,8117,0,-1,-1
-10.39,6.38,-5.27,913,-759,8122,0,-1,-1
-10.39,6.38,-5.27,913,-749,8141,-1,-1,0
-10.39,6.38,-5.27,911,-748,8139,-1,-1,0
-10.39,6.38,-5.27,907,-756,8141,0,0,0
-10.39,6.38,-5.27,903,-755,8138,0,-1,0
-10.39,6.39,-5.26,911,-752,8124,0,-1,0
-10.39,6.39,-5.26,917,-740,8124,0,-1,-1
-10.39,6.39,-5.26,915,-736,8122,-1,0,0
-10.39,6.39,-5.26,920,-738,8119,-1,0,0
-10.39,6.39,-5.27,920,-746,8127,-1,-1,0
-10.39,6.39,-5.27,914,-763,8132,0,-1,0
-10.39,6.39,-5.27,908,-752,8131,0,-1,0
-10.39,6.39,-5.27,907,-746,8123,-1,-1,0
-10.39,6.40,-5.27,911,-743,8115,0,-1,0
-10.39,6.40,-5.27,915,-740,8118,-1,-1,0
-10.39,6.40,-5.27,915,-740,8121,-1,-1,0
-10.39,6.41,-5.27,923,-756,8123,-1,0,0
-10.39,6.40,-5.27,913,-752,8133,0,0,0
-10.39,6.40,-5.27,907,-756,8136,0,-1,0
-10.39,6.40,-5.27,917,-751,8129,0,-1,0
-10.39,6.41,-5.27,913,-746,8128,0,-1,0
-10.39,6.41,-5.27,917,-742,8119,-1,-1,0
-10.40,6.41,-5.27,923,-741,8124,-1,-1,0
-10.40,6.41,-5.27,925,-750,8129,0,-1,0
-10.40,6.41,-5.26,921,-748,8134,0,-1,-1
-10.39,6.42,-5.25,928,-749,8142,0,-1,-1
-10.39,6.42,-5.25,928,-738,8136,0,-1,0
-10.39,6.43,-5.26,922,-736,8118,0,-1,0
-10.39,6.43,-5.26,919,-733,8113,-1,-1,0
-10.39,6.43,-5.26,916,-738,8122,-1,-1,0
-10.40,6.43,-5.26,913,-754,8127,-1,-1,0
-10.40,6.43,-5.27,910,-754,8122,-1,-1,0
-10.40,6.44,-5.27,916,-767,8117,0,-1,0
-10.40,6.44,-5.26,923,-749,8115,0,-1,-1
-10.40,6.45,-5.26,936,-739,8111,0,0,-1
-10.40,6.45,-5.26,931,-736,8111,0,0,-1
-10.40,6.45,-5.26,928,-739,8115,-1,0,0
-10.40,6.45,-5.26,920,-749,8130,0,-1,0
-10.40,6.45,-5.26,914,-748,8138,0,-1,-1
-10.39,6.45,-5.26,907,-742,8138,0,-1,0
-10.39,6.46,-5.26,914,-745,8136,0,-1,0
-10.39,6.46,-5.25,918,-738,8124,0,-1,0
-10.40,6.46,-5.25,924,-737,8118,0,-1,0
-10.40,6.46,-5.25,930,-738,8116,0,0,0
-10.40,6.47,-5.24,929,-732,8113,-1,0,-1
-10.39,6.46,-5.24,923,-736,8120,-1,0,-1
-10.40,6.46,-5.25,920,-741,8131,-1,-1,0
-10.40,6.47,-5.25,920,-743,8132,-1,-1,0
-10.40,6.47,-5.25,928,-752,8119,0,-1,0
-10.40,6.48,-5.25,933,-760,8113,0,-1,-1
-10.40,6.48,-5.25,940,-758,8118,0,0,0
-10.40,6.48,-5.25,947,-749,8123,0,0,-1
-10.40,6.48,-5.24,941,-739,8123,0,0,-1
-10.40,6.48,-5.24,933,-738,8121,-1,0,0
-10.40,6.48,-5.24,927,-741,8120,0,-1,0
-10.40,6.48,-5.24,931,-747,8126,0,-1,0
-10.40,6.49,-5.24,939,-748,8119,0,-1,0
-10.40,6.49,-5.24,940,-753,8115,0,-1,0
-10.41,6.49,-5.23,942,-741,8113,0,-1,0
-10.41,6.50,-5.23,945,-740,8114,0,-1,0
-10.41,6.50,-5.23,944,-742,8126,0,0,0
-10.41,6.50,-5.23,936,-744,8124,0,-1,0
-10.42,6.51,-5.24,932,-751,8123,-1,-1,0
-10.42,6.51,-5.23,934,-748,8117,0,-1,0
-10.42,6.51,-5.23,931,-745,8115,0,-1,0
-10.42,6.51,-5.24,936,-749,8122,0,-1,0
-10.42,6.51,-5.23,935,-748,8121,0,-1,0
-10.42,6.51,-5.23,930,-750,8117,0,0,-1
-10.42,6.51,-5.23,932,-741,8112,-1,-1,0
-10.42,6.51,-5.23,929,-743,8115,-1,0,0
-10.42,6.51,-5.24,926,-748,8117,-1,-1,0
-10.42,6.51,-5.24,928,-754,8109,0,-1,-1
-10.42,6.52,-5.23,935,-749,8110,0,-1,-1
-10.42,6.52,-5.23,934,-746,8111,0,-1,0
-10.42,6.53,-5.22,940,-735,8103,0,-1,0
-10.42,6.54,-5.23,946,-730,8107,-1,-1,0
-10.43,6.54,-5.23,941,-739,8115,-1,0,-1
-10.43,6.54,-5.23,940,-738,8114,-1,0,0
-10.43,6.53,-5.23,934,-745,8115,0,0,0
-10.43,6.53,-5.23,938,-754,8122,-1,-1,0
-10.43,6.53,-5.23,940,-758,8124,0,-1,0
-10.43,6.54,-5.23,945,-752,8116,0,-1,-1
-10.43,6.54,-5.22,948,-738,8117,0,0,0
-10.43,6.54,-5.21,948,-732,8123,0,0,0
-10.43,6.54,-5.21,946,-727,8119,-1,0,0
-10.43,6.54,-5.21,947,-732,8126,-1,0,0
-10.43,6.54,-5.22,945,-736,8126,-1,0,0
-10.44,6.54,-5.23,933,-745,8120,-1,0,0
-10.44,6.54,-5.23,933,-752,8117,-1,0,0
-10.44,6.54,-5.23,938,-753,8112,0,0,0
-10.44,6.54,-5.23,943,-747,8116,0,0,0
-10.44,6.54,-5.22,945,-736,8121,0,0,0
-10.44,6.54,-5.22,947,-736,8112,0,0,-1
-10.44,6.54,-5.22,943,-732,8116,0,0,-1
-10.44,6.54,-5.22,940,-731,8127,-1,0,0
-10.43,6.54,-5.22,940,-740,8130,-1,-1,-1
-10.43,6.54,-5.23,942,-744,8118,-1,0,0
-10.43,6.53,-5.23,936,-747,8114,0,0,0
-10.43,6.53,-5.23,938,-750,8110,0,0,-1
-10.43,6.53,-5.23,941,-747,8124,0,0,-1
-10.43,6.52,-5.22,937,-732,8127,0,0,-1
-10.42,6.52,-5.22,930,-726,8132,-1,0,-1
-10.42,6.52,-5.22,934,-737,8127,-1,0,-1
-10.42,6.52,-5.22,933,-739,8123,-1,0,0
-10.42,6.52,-5.22,934,-746,8131,0,0,0
-10.42,6.52,-5.22,940,-747,8113,0,0,-1
-10.42,6.51,-5.22,937,-734,8115,0,0,-1
-10.42,6.50,-5.22,940,-739,8123,0,0,-1
-10.42,6.50,-5.22,931,-745,8126,0,0,0
-10.42,6.49,-5.22,929,-736,8119,-1,0,-1
-10.42,6.49,-5.22,932,-741,8117,-1,0,0
-10.42,6.49,-5.22,942,-742,8112,0,0,-1
-10.41,6.49,-5.22,944,-744,8112,-1,0,-1
-10.41,6.49,-5.22,945,-743,8105,-1,0,-1
-10.41,6.48,-5.23,938,-745,8118,-1,0,-1
-10.41,6.47,-5.23,942,-739,8126,-1,0,0
-10.41,6.47,-5.23,938,-738,8128,-1,0,-1
-10.41,6.47,-5.23,927,-749,8124,-1,0,0
-10.41,6.47,-5.23,923,-749,8115,-1,0,0
-10.41,6.47,-5.23,924,-738,8128,-1,0,0
-10.40,6.46,-5.23,927,-735,8134,-1,0,-1
-10.40,6.45,-5.23,929,-735,8121,-1,0,-1
-10.40,6.45,-5.23,935,-740,8128,-1,0,-1
-10.40,6.44,-5.24,927,-741,8119,-1,0,0
-10.40,6.44,-5.24,924,-740,8117,-1,0,0
-10.40,6.43,-5.24,924,-760,8118,0,0,-1
-10.40,6.42,-5.24,922,-751,8117,0,0,-1
-10.40,6.42,-5.23,928,-739,8120,0,0,-1
-10.40,6.42,-5.23,930,-734,8125,0,0,-1
-10.40,6.42,-5.23,924,-735,8118,-1,0,-1
-10.40,6.41,-5.23,924,-734,8119,-1,0,0
-10.40,6.41,-5.23,918,-738,8116,-1,0,0
-10.40,6.40,-5.24,923,-753,8119,-1,0,0
-10.40,6.39,-5.24,915,-749,8118,0,0,-1
-10.39,6.39,-5.24,926,-751,8120,0,0,-1
-10.39,6.39,-5.24,925,-743,8115,0,0,-1
-10.40,6.38,-5.24,928,-742,8104,0,0,0
-10.39,6.38,-5.23,926,-735,8110,0,0,-1
-10.39,6.37,-5.23,915,-733,8113,-1,0,-1
-10.39,6.36,-5.23,912,-742,8124,-1,0,-1
-10.39,6.35,-5.24,908,-748,8128,-1,0,-1
-10.38,6.35,-5.25,902,-753,8119,-1,0,-1
-10.38,6.34,-5.25,904,-756,8115,0,0,-1
-10.38,6.34,-5.25,911,-763,8118,0,0,-1
-10.38,6.33,-5.24,908,-756,8117,0,0,-1
-10.38,6.33,-5.24,916,-743,8119,-1,0,-1
-10.38,6.32,-5.24,920,-743,8123,-1,0,-1
-10.38,6.32,-5.24,920,-733,8123,-1,0,0
-10.38,6.31,-5.25,908,-744,8126,-1,0,0
-10.38,6.31,-5.26,907,-743,8130,-1,0,0
-10.38,6.30,-5.26,900,-746,8130,-1,0,-1
-10.38,6.30,-5.26,904,-756,8109,0,0,-1
-10.38,6.30,-5.26,912,-752,8107,0,0,-1
-10.38,6.30,-5.25,912,-744,8108,0,0,0
-10.38,6.30,-5.26,914,-747,8118,-1,0,0
-10.38,6.28,-5.26,905,-739,8129,-1,0,0
-10.38,6.27,-5.27,897,-746,8136,-1,0,-1
-10.38,6.27,-5.27,890,-754,8131,0,0,0
-10.37,6.27,-5.27,899,-763,8124,0,0,-1
-10.37,6.26,-5.26,898,-748,8121,0,0,0
-10.38,6.25,-5.26,899,-740,8121,0,0,-1
-10.38,6.25,-5.26,901,-730,8121,-1,0,-1
-10.38,6.24,-5.26,904,-730,8132,-1,0,0
-10.38,6.23,-5.26,898,-738,8138,-1,0,-1
-10.38,6.23,-5.26,890,-749,8142,-1,0,0
-10.38,6.22,-5.26,894,-746,8127,-1,0,-1
-10.38,6.21,-5.26,896,-740,8119,-1,0,0
-10.38,6.20,-5.26,905,-744,8109,-1,0,0
-10.38,6.20,-5.27,904,-742,8115,-1,0,0
-10.38,6.19,-5.27,900,-752,8129,-1,0,-1
-10.38,6.18,-5.27,894,-757,8127,0,0,-1
-10.38,6.17,-5.28,887,-752,8125,0,0,0
-10.38,6.17,-5.27,882,-744,8119,-1,0,-1
-10.37,6.17,-5.27,888,-745,8112,0,0,-1
-10.38,6.17,-5.27,889,-745,8112,0,0,0
-10.38,6.16,-5.27,896,-749,8118,-1,0,0
-10.38,6.16,-5.28,902,-744,8117,-1,0,0
-10.38,6.15,-5.28,885,-749,8118,0,0,0
-10.38,6.15,-5.27,880,-750,8126,0,0,-1
-10.38,6.14,-5.27,885,-749,8131,0,0,0
-10.38,6.14,-5.27,885,-745,8118,-1,0,0
-10.38,6.14,-5.28,883,-752,8112,-1,0,0
-10.37,6.13,-5.28,883,-770,8119,0,0,-1
-10.37,6.13,-5.28,881,-761,8125,0,0,-1
-10.37,6.13,-5.27,887,-761,8131,0,0,-1
-10.37,6.12,-5.26,879,-743,8136,0,0,-1
-10.37,6.11,-5.26,875,-733,8148,-1,0,0
-10.37,6.12,-5.26,878,-739,8137,-1,0,-1
-10.37,6.11,-5.26,866,-756,8127,0,0,-1
-10.37,6.11,-5.26,868,-751,8127,0,-1,0
-10.37,6.12,-5.26,867,-759,8122,0,-1,-1
-10.37,6.13,-5.26,882,-759,8125,0,-1,-1
-10.37,6.14,-5.25,889,-755,8129,0,-1,-1
-10.37,6.15,-5.25,899,-750,8116,0,-1,-1
-10.37,6.15,-5.24,893,-741,8125,0,-1,0
-10.37,6.16,-5.23,888,-735,8126,-1,-1,0
-10.37,6.16,-5.24,895,-745,8127,-1,-1,0
-10.38,6.17,-5.25,900,-763,8129,-1,-1,0
-10.38,6.17,-5.25,880,-771,8121,0,-1,0
-10.38,6.18,-5.24,886,-758,8126,0,-1,0
-10.38,6.19,-5.23,899,-752,8122,0,-1,0
-10.39,6.19,-5.22,909,-748,8120,0,-1,0
-10.39,6.20,-5.22,900,-749,8121,0,0,0
-10.39,6.19,-5.21,888,-745,8117,0,0,0
-10.39,6.20,-5.20,882,-737,8131,0,-1,0
-10.39,6.20,-5.20,897,-735,8133,-1,-1,0
-10.40,6.20,-5.20,893,-763,8124,0,0,0
-10.40,6.20,-5.20,884,-754,8118,0,-1,0
-10.40,6.20,-5.18,893,-739,8111,0,-1,0
-10.40,6.21,-5.18,912,-740,8109,0,0,0
-10.41,6.20,-5.17,922,-766,8114,0,0,0
-10.41,6.20,-5.15,906,-743,8121,0,0,0
-10.43,6.19,-5.15,934,-751,8137,0,0,0
-10.45,6.17,-5.15,977,-798,8149,0,1,0
-10.46,6.14,-5.12,906,-801,8137,1,0,0
-10.48,6.12,-5.07,830,-756,8090,2,-1,0
-10.49,6.14,-5.00,801,-708,8072,2,-2,-1
-10.49,6.18,-4.95,828,-663,8099,1,-2,0
-10.50,6.21,-4.91,867,-636,8133,0,-1,0
-10.51,6.22,-4.89,882,-631,8156,0,-1,0
-10.51,6.23,-4.89,873,-624,8157,-1,-1,0
-10.52,6.24,-4.90,875,-644,8143,-1,-1,0
-10.53,6.25,-4.91,896,-680,8110,-1,-1,0
-10.52,6.26,-4.93,911,-696,8099,-1,-1,0
-10.52,6.27,-4.93,910,-699,8102,-1,0,0
-10.52,6.27,-4.94,912,-709,8114,-1,0,-1
-10.52,6.27,-4.94,911,-714,8133,0,-1,-1
-10.52,6.28,-4.94,907,-711,8130,0,-1,-1
-10.52,6.29,-4.94,909,-701,8122,0,-1,-1
-10.52,6.29,-4.94,910,-702,8124,0,-1,0
-10.52,6.30,-4.94,911,-708,8120,0,-1,-1
-10.52,6.31,-4.94,913,-701,8121,0,-1,-1
-10.52,6.31,-4.94,911,-697,8119,0,-1,-1
-10.52,6.31,-4.93,911,-693,8133,0,-1,-1
-10.52,6.32,-4.93,911,-693,8140,-1,-1,0
-10.52,6.33,-4.93,912,-704,8141,-1,-1,0
-10.52,6.34,-4.93,917,-712,8125,0,-1,-1
-10.52,6.34,-4.93,916,-713,8124,0,-1,0
-10.52,6.35,-4.94,921,-707,8113,0,-1,0
-10.52,6.36,-4.93,926,-698,8112,0,-1,-1
-10.52,6.37,-4.92,925,-692,8125,-1,-1,0
-10.52,6.37,-4.93,925,-700,8131,-1,0,0
-10.52,6.37,-4.93,915,-700,8131,-1,0,0
-10.53,6.37,-4.94,904,-713,8126,-1,-1,0
-10.53,6.38,-4.95,912,-721,8125,0,-1,-1
-10.53,6.39,-4.93,922,-710,8107,0,-1,-1
-10.52,6.40,-4.93,925,-704,8125,0,-1,-1
-10.52,6.41,-4.93,931,-698,8132,0,-1,-1
-10.52,6.41,-4.92,930,-691,8138,0,-1,-1
-10.52,6.41,-4.92,934,-690,8136,-1,-1,0
-10.52,6.41,-4.92,933,-695,8142,-1,-1,0
-10.52,6.41,-4.93,923,-700,8141,-1,0,0
-10.52,6.41,-4.93,917,-701,8135,0,-1,-1
-10.53,6.42,-4.92,923,-706,8129,0,-1,0
-10.53,6.43,-4.92,924,-699,8134,0,-1,0
-10.53,6.43,-4.92,936,-691,8133,0,-1,0
-10.53,6.44,-4.92,935,-686,8117,0,0,0
-10.53,6.44,-4.92,930,-687,8118,-1,-1,0
-10.53,6.44,-4.92,926,-690,8121,-1,-1,0
-10.53,6.44,-4.92,923,-692,8118,-1,-1,0
-10.53,6.44,-4.92,924,-700,8114,-1,-1,0
-10.54,6.44,-4.93,928,-710,8109,-1,-1,0
-10.54,6.45,-4.93,930,-701,8111,0,-1,-1
-10.54,6.45,-4.93,935,-702,8114,0,0,0
-10.54,6.45,-4.93,928,-696,8113,0,0,-1
-10.54,6.45,-4.93,926,-697,8117,0,0,-1
-10.54,6.45,-4.92,929,-694,8117,0,-1,0
-10.54,6.46,-4.92,924,-692,8116,0,-1,0
-10.54,6.46,-4.92,926,-693,8112,0,-1,-1
-10.54,6.46,-4.91,925,-692,8120,0,-1,0
-10.54,6.46,-4.91,926,-691,8117,0,-1,0
-10.54,6.46,-4.91,928,-688,8121,-1,-1,0
-10.54,6.47,-4.91,927,-688,8124,-1,0,0
-10.54,6.47,-4.91,933,-687,8128,-1,-1,0
-10.54,6.47,-4.91,934,-697,8124,-1,-1,0
-10.54,6.48,-4.91,925,-696,8115,0,-1,0
-10.54,6.48,-4.91,925,-702,8125,0,-1,0
-10.54,6.48,-4.91,933,-698,8121,-1,-1,0
-10.54,6.48,-4.92,945,-698,8130,-1,-1,0
-10.54,6.49,-4.92,949,-700,8125,-1,0,0
-10.54,6.49,-4.92,936,-706,8129,0,-1,0
-10.54,6.49,-4.92,936,-702,8131,0,-1,-1
-10.54,6.49,-4.92,927,-700,8133,0,-1,-1
-10.54,6.49,-4.92,933,-700,8131,0,-1,0
-10.54,6.50,-4.92,933,-700,8123,0,-1,0
-10.54,6.51,-4.91,946,-696,8123,0,-1,0
-10.54,6.51,-4.91,949,-693,8129,0,-1,0
-10.54,6.52,-4.91,952,-690,8126,0,-1,0
-10.54,6.52,-4.90,946,-687,8125,0,-1,0
-10.55,6.52,-4.91,943,-683,8120,-1,-1,0
-10.55,6.53,-4.91,939,-685,8122,-1,-1,0
-10.55,6.53,-4.91,927,-694,8125,-1,-1,0
-10.55,6.53,-4.92,927,-702,8128,-1,-1,0
-10.55,6.53,-4.92,936,-715,8135,0,-1,0
-10.55,6.54,-4.92,946,-723,8123,0,-1,0
-10.55,6.54,-4.92,945,-717,8114,0,-1,-1
-10.56,6.54,-4.91,949,-693,8116,0,0,0
-10.56,6.54,-4.91,946,-693,8111,-1,0,0
-10.56,6.54,-4.91,943,-692,8111,-1,0,-1
-10.56,6.53,-4.91,940,-695,8116,-1,0,0
-10.56,6.53,-4.91,940,-698,8127,-1,0,0
-10.56,6.53,-4.91,942,-697,8125,0,0,0
-10.56,6.53,-4.91,938,-705,8124,0,0,0
-10.56,6.53,-4.91,939,-699,8122,0,0,0
-10.56,6.53,-4.91,936,-692,8125,0,0,0
-10.56,6.53,-4.91,940,-690,8129,-1,0,0
-10.56,6.52,-4.91,945,-690,8133,-1,0,0
-10.56,6.52,-4.91,932,-691,8133,-1,0,0
-10.56,6.52,-4.91,935,-691,8140,-1,0,-1
-10.56,6.51,-4.91,930,-695,8137,-1,0,-1
-10.56,6.51,-4.91,925,-703,8129,0,0,0
-10.56,6.51,-4.91,924,-707,8126,0,0,-1
-10.56,6.51,-4.91,937,-696,8121,0,0,-1
-10.55,6.51,-4.90,939,-679,8123,0,0,-1
-10.55,6.50,-4.90,942,-682,8132,-1,0,-1
-10.55,6.50,-4.90,942,-686,8116,-1,0,0
-10.55,6.50,-4.91,940,-700,8118,-1,0,0
-10.55,6.50,-4.91,943,-707,8128,0,0,-1
-10.55,6.49,-4.91,942,-702,8121,0,0,-1
-10.54,6.49,-4.90,942,-692,8126,0,0,-1
-10.54,6.49,-4.90,945,-690,8123,0,0,-1
-10.54,6.48,-4.90,940,-691,8126,-1,0,-1
-10.54,6.48,-4.90,938,-693,8119,-1,0,0
-10.54,6.47,-4.90,928,-697,8119,-1,0,-1
-10.54,6.46,-4.91,933,-701,8122,-1,0,-1
-10.54,6.46,-4.91,940,-698,8126,-1,0,-1
-10.54,6.46,-4.91,939,-693,8116,0,0,-1
-10.54,6.46,-4.90,940,-695,8123,-1,0,-1
-10.53,6.45,-4.90,936,-696,8126,-1,0,-1
-10.53,6.45,-4.90,938,-694,8132,-1,0,-1
-10.53,6.44,-4.91,937,-701,8134,-1,0,-1
-10.53,6.44,-4.91,935,-698,8133,-1,0,-1
-10.53,6.43,-4.92,923,-700,8129,-1,0,-1
-10.52,6.42,-4.91,921,-702,8132,-1,0,-1
-10.52,6.42,-4.91,924,-700,8127,-1,0,0
-10.52,6.41,-4.91,917,-695,8122,-1,0,0
-10.52,6.40,-4.92,914,-703,8115,-1,0,0
-10.52,6.40,-4.92,921,-713,8124,0,0,-1
-10.52,6.39,-4.92,918,-705,8130,0,0,-1
-10.52,6.39,-4.91,914,-688,8130,0,0,-1
-10.52,6.39,-4.92,916,-693,8114,-1,0,-1
-10.52,6.38,-4.92,924,-693,8123,-1,0,0
-10.52,6.38,-4.92,918,-699,8132,-1,0,0
-10.52,6.37,-4.93,913,-707,8135,-1,0,0
-10.52,6.36,-4.93,913,-711,8133,-1,0,0
-10.52,6.36,-4.94,913,-715,8122,0,0,0
-10.52,6.35,-4.93,921,-702,8113,0,0,-1
-10.51,6.35,-4.92,922,-688,8115,0,0,-1
-10.52,6.34,-4.92,922,-688,8118,-1,0,0
-10.52,6.34,-4.92,915,-686,8126,-1,0,0
-10.51,6.33,-4.93,909,-695,8129,-1,0,0
-10.51,6.32,-4.93,905,-698,8134,-1,0,-1
-10.51,6.31,-4.93,901,-700,8137,-1,0,-1
-10.51,6.29,-4.94,895,-702,8138,-1,0,-1
-10.51,6.29,-4.94,905,-704,8124,0,0,0
-10.51,6.29,-4.93,913,-693,8119,0,0,0
-10.51,6.28,-4.93,914,-697,8116,-1,0,0
-10.51,6.28,-4.93,917,-694,8125,0,0,-1
-10.51,6.27,-4.93,913,-685,8134,-1,0,0
-10.51,6.26,-4.93,904,-692,8137,-1,0,0
-10.51,6.25,-4.95,907,-702,8135,-1,0,0
-10.51,6.25,-4.95,904,-719,8134,-1,0,0
-10.51,6.24,-4.96,901,-722,8121,0,0,-1
-10.51,6.24,-4.95,895,-705,8132,0,0,-1
-10.51,6.23,-4.94,908,-690,8127,0,0,-1
-10.50,6.22,-4.94,902,-685,8121,-1,0,-1
-10.50,6.22,-4.95,895,-688,8136,-1,0,0
-10.50,6.21,-4.95,892,-699,8136,-1,0,0
-10.50,6.20,-4.95,886,-704,8125,-1,0,0
-10.50,6.19,-4.95,884,-704,8123,0,0,-1
-10.50,6.19,-4.95,890,-706,8124,0,0,-1
-10.50,6.18,-4.95,889,-704,8124,0,0,-1
-10.50,6.17,-4.95,882,-700,8124,-1,0,0
-10.50,6.17,-4.95,888,-693,8128,-1,0,0
-10.50,6.16,-4.95,889,-699,8128,-1,0,0
-10.50,6.15,-4.96,883,-702,8129,-1,0,-1
-10.50,6.14,-4.96,884,-702,8135,-1,0,-1
-10.50,6.14,-4.96,885,-710,8134,-1,0,0
-10.50,6.14,-4.96,888,-710,8135,-1,0,-1
-10.50,6.13,-4.97,889,-714,8139,-1,0,-1
-10.50,6.12,-4.97,888,-706,8134,-1,0,-1
-10.50,6.11,-4.97,884,-709,8132,-1,0,0
-10.50,6.11,-4.98,883,-713,8128,-1,0,0
-10.50,6.10,-4.98,880,-719,8135,-1,0,-1
-10.50,6.10,-4.98,878,-716,8143,0,0,-1
-10.50,6.10,-4.98,875,-699,8143,0,0,-1
-10.49,6.09,-4.98,875,-704,8138,-1,0,-1
-10.49,6.09,-4.98,876,-696,8133,-1,0,-1
-10.49,6.09,-4.98,880,-704,8124,0,0,0
-10.49,6.09,-4.98,880,-708,8125,-1,0,0
-10.49,6.09,-4.98,879,-714,8130,-1,0,-1
-10.49,6.09,-4.98,873,-712,8126,0,0,-1
-10.49,6.09,-4.97,876,-704,8132,0,-1,-1
-10.49,6.09,-4.97,878,-701,8140,0,-1,0
-10.49,6.10,-4.97,879,-696,8135,-1,0,0
-10.49,6.10,-4.98,872,-706,8129,-1,0,0
-10.49,6.10,-4.98,875,-714,8128,-1,0,0
-10.49,6.10,-4.98,864,-718,8138,0,-1,-1
-10.49,6.10,-4.98,870,-717,8137,0,-1,0
-10.49,6.11,-4.98,876,-721,8133,0,-1,-1
-10.49,6.12,-4.97,883,-709,8131,0,-1,-1
-10.49,6.12,-4.97,887,-698,8131,0,-1,-1
-10.49,6.12,-4.96,890,-699,8136,0,0,0
-10.49,6.12,-4.96,878,-694,8137,-1,-1,0
-10.49,6.12,-4.96,872,-696,8144,-1,-1,0
-10.49,6.13,-4.96,877,-699,8127,-1,-1,0
-10.49,6.14,-4.97,886,-714,8118,-1,-1,0
-10.49,6.14,-4.97,886,-711,8112,0,-1,0
-10.50,6.15,-4.96,892,-717,8121,0,-1,0
-10.50,6.16,-4.96,890,-711,8123,0,-1,-1
-10.50,6.16,-4.96,884,-698,8119,0,-1,0
-10.50,6.17,-4.95,886,-692,8121,-1,-1,0
-10.50,6.17,-4.95,887,-690,8120,-1,-1,0
-10.49,6.18,-4.96,885,-692,8122,-1,-1,0
-10.50,6.19,-4.96,893,-701,8125,-1,-1,0
-10.50,6.19,-4.97,897,-715,8121,-1,-1,-1
-10.50,6.19,-4.97,899,-709,8115,0,-1,0
-10.50,6.20,-4.96,899,-712,8126,0,-1,0
-10.50,6.20,-4.96,897,-702,8138,0,-1,0
-10.50,6.21,-4.96,903,-702,8144,-1,-1,0
-10.50,6.21,-4.96,895,-709,8147,-1,-1,0
-10.51,6.21,-4.96,895,-716,8138,-1,-1,0
-10.51,6.22,-4.96,898,-719,8136,0,-1,0
-10.51,6.23,-4.96,896,-715,8130,0,-1,-1
-10.51,6.24,-4.95,902,-707,8122,0,-1,-1
-10.51,6.24,-4.95,904,-698,8122,0,-1,0
-10.51,6.24,-4.95,901,-696,8121,-1,-1,0
-10.51,6.25,-4.95,898,-694,8126,-1,-1,0
-10.52,6.25,-4.95,896,-705,8127,-1,-1,0
-10.52,6.26,-4.95,896,-713,8118,0,-1,0
-10.51,6.26,-4.96,901,-715,8115,0,-1,-1
-10.51,6.26,-4.95,902,-707,8117,0,-1,0
-10.51,6.27,-4.96,906,-707,8118,0,-1,0
-10.51,6.27,-4.96,908,-700,8118,-1,-1,0
-10.51,6.28,-4.96,902,-700,8127,-1,-1,0
-10.51,6.28,-4.96,905,-698,8132,-1,-1,0
-10.51,6.28,-4.96,902,-701,8121,0,-1,0
-10.51,6.29,-4.95,900,-700,8124,0,-1,0
-10.51,6.29,-4.95,902,-703,8125,0,-1,-1
-10.51,6.30,-4.94,899,-695,8131,0,-1,0
-10.51,6.30,-4.94,903,-690,8125,-1,-1,0
-10.52,6.31,-4.95,902,-706,8130,0,-1,0
-10.52,6.31,-4.94,897,-702,8137,0,-1,0
-10.52,6.31,-4.94,898,-696,8128,0,-1,-1
-10.52,6.32,-4.93,899,-700,8124,0,-1,-1
-10.52,6.33,-4.93,910,-694,8121,0,-1,0
-10.52,6.33,-4.93,910,-691,8126,-1,-1,0
-10.52,6.34,-4.93,908,-702,8127,-1,-1,0
-10.52,6.34,-4.94,908,-710,8133,-1,-1,0
-10.53,6.34,-4.94,904,-722,8127,0,-1,-1
-10.53,6.35,-4.94,909,-716,8116,0,-1,-1
-10.53,6.35,-4.94,917,-707,8115,0,-1,0
-10.53,6.36,-4.94,917,-697,8113,0,-1,0
-10.53,6.36,-4.93,921,-691,8126,0,-1,0
-10.53,6.36,-4.93,915,-696,8135,-1,-1,-1
-10.53,6.36,-4.93,905,-698,8135,0,0,-1
-10.53,6.36,-4.93,905,-702,8136,0,-1,-1
-10.53,6.36,-4.93,906,-701,8133,0,-1,0
-10.53,6.37,-4.93,903,-701,8135,0,-1,0
-10.53,6.37,-4.92,911,-701,8132,0,-1,0
-10.53,6.38,-4.92,924,-693,8129,0,-1,-1
-10.53,6.39,-4.92,923,-686,8122,0,-1,0
-10.53,6.39,-4.91,920,-676,8130,-1,-1,0
-10.54,6.39,-4.91,917,-676,8142,-1,-1,0
-10.54,6.39,-4.92,922,-691,8134,-1,-1,0
-10.54,6.40,-4.92,916,-700,8129,-1,-1,0
-10.54,6.41,-4.93,920,-709,8118,0,-1,0
-10.54,6.41,-4.93,923,-709,8119,0,-1,0
-10.54,6.41,-4.92,924,-699,8124,0,-1,-1
-10.54,6.41,-4.91,927,-693,8134,0,0,0
-10.54,6.42,-4.92,930,-693,8125,-1,-1,0
-10.54,6.42,-4.92,931,-690,8116,-1,-1,0
-10.54,6.43,-4.92,925,-699,8113,0,-1,-1
-10.54,6.43,-4.92,928,-699,8118,0,-1,-1
-10.54,6.44,-4.92,929,-693,8130,0,-1,0
-10.54,6.45,-4.91,925,-692,8129,0,-1,0
-10.54,6.45,-4.91,918,-694,8116,-1,-1,0
-10.54,6.46,-4.91,925,-697,8116,-1,-1,0
-10.55,6.46,-4.91,933,-700,8117,0,-1,0
-10.55,6.46,-4.91,927,-701,8131,0,-1,0
-10.55,6.46,-4.91,925,-697,8124,0,-1,0
-10.55,6.46,-4.91,927,-697,8109,0,-1,0
-10.55,6.47,-4.91,933,-692,8117,-1,-1,0
-10.55,6.48,-4.91,936,-690,8109,-1,-1,0
-10.55,6.48,-4.92,944,-696,8119,-1,-1,0
-10.56,6.49,-4.92,943,-702,8125,-1,-1,0
-10.56,6.49,-4.92,940,-705,8121,-1,0,0
-10.56,6.49,-4.93,935,-711,8120,0,-1,0
-10.56,6.50,-4.92,929,-710,8122,0,-1,0
-10.56,6.50,-4.92,931,-693,8125,0,-1,0
-10.56,6.51,-4.91,938,-683,8118,0,-1,0
-10.56,6.51,-4.90,945,-678,8117,-1,-1,0
-10.56,6.51,-4.91,940,-676,8112,-1,-1,0
-10.56,6.52,-4.91,937,-684,8121,-1,-1,0
-10.56,6.52,-4.92,936,-699,8126,-1,-1,0
-10.57,6.53,-4.92,933,-712,8114,-1,-1,0
-10.57,6.53,-4.92,941,-713,8119,0,-1,0
-10.57,6.54,-4.92,956,-709,8116,0,-1,-1
-10.57,6.54,-4.91,959,-700,8114,0,0,0
-10.57,6.54,-4.91,951,-688,8116,-1,0,0
-10.57,6.53,-4.91,952,-680,8120,-1,0,0
-10.57,6.53,-4.91,940,-694,8133,-1,0,-1
-10.57,6.53,-4.91,934,-698,8127,0,0,-1
-10.57,6.52,-4.91,926,-699,8123,0,0,-1
-10.57,6.51,-4.91,922,-693,8120,-1,0,-1
-10.57,6.51,-4.91,929,-695,8121,0,0,-1
-10.57,6.51,-4.91,933,-685,8121,0,0,0
-10.57,6.51,-4.91,945,-692,8129,-1,0,-1
-10.56,6.51,-4.91,944,-694,8134,-1,0,-1
-10.56,6.51,-4.90,935,-685,8136,-1,0,-1
-10.56,6.50,-4.90,935,-689,8136,-1,0,0
-10.56,6.50,-4.90,930,-690,8138,-1,0,0
-10.56,6.50,-4.91,941,-697,8125,-1,0,-1
-10.56,6.50,-4.91,939,-706,8119,0,0,-1
-10.56,6.50,-4.91,942,-700,8119,0,0,-1
-10.56,6.49,-4.90,938,-691,8118,0,0,-1
-10.56,6.49,-4.89,940,-687,8126,-1,0,-1
-10.56,6.48,-4.89,937,-684,8129,-1,0,0
-10.56,6.47,-4.90,927,-689,8127,-1,0,0
-10.56,6.47,-4.90,932,-694,8124,-1,0,0
-10.56,6.47,-4.90,935,-697,8114,0,0,-1
-10.55,6.47,-4.90,943,-697,8125,0,0,-1
-10.55,6.46,-4.90,942,-691,8123,0,0,-1
-10.55,6.46,-4.90,938,-691,8130,0,0,-1
-10.55,6.46,-4.90,934,-691,8131,-1,0,0
-10.55,6.45,-4.91,921,-697,8130,-1,0,0
-10.55,6.44,-4.90,923,-704,8117,0,0,0
-10.55,6.44,-4.90,916,-703,8118,0,0,-1
-10.54,6.44,-4.90,929,-697,8126,0,0,-1
-10.54,6.44,-4.90,924,-693,8124,0,0,-1
-10.54,6.44,-4.90,930,-686,8132,-1,0,0
-10.54,6.43,-4.90,927,-686,8128,-1,0,0
-10.54,6.43,-4.90,934,-692,8121,-1,0,0
-10.54,6.42,-4.90,932,-693,8115,-1,0,0
-10.54,6.42,-4.90,921,-698,8121,0,0,0
-10.54,6.41,-4.90,916,-696,8133,0,0,-1
-10.54,6.40,-4.90,918,-694,8133,0,0,-1
-10.54,6.41,-4.90,931,-688,8119,-1,0,-1
-10.54,6.40,-4.90,923,-683,8121,-1,0,0
-10.54,6.39,-4.90,924,-682,8130,-1,0,-1
-10.54,6.39,-4.91,913,-686,8131,-1,0,0
-10.54,6.39,-4.91,917,-700,8139,-1,0,0
-10.54,6.38,-4.91,920,-713,8142,0,0,0
-10.54,6.38,-4.91,921,-722,8118,0,0,0
-10.54,6.37,-4.91,916,-714,8109,0,0,-1
-10.54,6.37,-4.90,924,-701,8115,0,0,-1
-10.54,6.37,-4.90,929,-691,8114,0,0,-1
-10.54,6.36,-4.90,923,-691,8129,-1,0,0
-10.54,6.35,-4.90,915,-694,8140,-1,0,0
-10.54,6.35,-4.91,901,-696,8131,-1,0,0
-10.54,6.34,-4.91,903,-705,8141,-1,0,-1
-10.53,6.34,-4.91,914,-701,8128,0,0,-1
-10.53,6.33,-4.91,921,-694,8121,0,0,0
-10.53,6.33,-4.91,920,-692,8116,-1,0,0
-10.54,6.32,-4.91,920,-692,8116,-1,0,0
-10.53,6.32,-4.91,910,-683,8135,-1,0,-1
-10.53,6.31,-4.91,905,-681,8131,-1,0,-1
-10.53,6.30,-4.91,908,-681,8124,-1,0,-1
-10.53,6.30,-4.92,909,-693,8125,-1,0,0
-10.53,6.30,-4.92,908,-704,8115,-1,0,0
-10.53,6.29,-4.92,910,-715,8109,0,0,0
-10.53,6.29,-4.92,911,-710,8120,0,0,-1
-10.53,6.29,-4.92,911,-700,8121,0,0,-1
-10.53,6.27,-4.91,900,-688,8132,-1,0,0
-10.53,6.27,-4.91,904,-687,8136,-1,0,0
-10.53,6.26,-4.92,897,-695,8132,-1,0,0
-10.53,6.25,-4.93,894,-695,8119,-1,0,0
-10.53,6.25,-4.93,901,-701,8117,0,0,-1
-10.53,6.25,-4.92,905,-699,8110,0,0,0
-10.53,6.24,-4.92,903,-696,8123,-1,0,-1
-10.53,6.24,-4.92,900,-689,8129,-1,0,0
-10.53,6.23,-4.92,902,-688,8142,-1,0,0
-10.53,6.22,-4.92,892,-696,8137,-1,0,0
-10.53,6.21,-4.93,892,-704,8136,-1,0,0
-10.52,6.21,-4.93,891,-706,8129,-1,0,-1
-10.52,6.20,-4.93,893,-702,8126,0,0,-1
-10.52,6.20,-4.93,894,-705,8127,-1,0,0
-10.52,6.19,-4.93,895,-706,8124,-1,0,0
-10.52,6.18,-4.94,888,-722,8130,-1,0,0
-10.52,6.17,-4.95,883,-716,8128,0,0,0
-10.52,6.17,-4.94,891,-703,8125,0,0,-1
-10.52,6.17,-4.94,892,-696,8115,-1,0,-1
-10.52,6.16,-4.94,887,-698,8117,0,0,-1
-10.52,6.15,-4.94,885,-691,8120,-1,0,0
-10.52,6.15,-4.94,886,-694,8130,-1,0,0
-10.52,6.15,-4.94,883,-702,8132,-1,0,0
-10.52,6.14,-4.95,879,-702,8135,-1,0,0
-10.52,6.13,-4.95,882,-694,8137,-1,0,0
-10.52,6.12,-4.95,884,-701,8130,-1,0,0
-10.52,6.12,-4.95,886,-700,8125,-1,0,0
-10.52,6.12,-4.95,881,-698,8127,-1,0,0
-10.52,6.11,-4.96,880,-708,8132,-1,0,0
-10.52,6.11,-4.95,879,-698,8129,0,0,-1
-10.52,6.10,-4.95,880,-697,8133,0,0,-1
-10.52,6.10,-4.95,884,-693,8127,-1,0,-1
-10.52,6.10,-4.95,884,-693,8134,-1,0,0
-10.52,6.10,-4.95,870,-694,8123,-1,0,-1
-10.52,6.09,-4.96,862,-698,8129,-1,0,-1
-10.52,6.09,-4.96,865,-707,8134,-1,-1,-1
-10.52,6.09,-4.97,871,-714,8126,-1,-1,0
-10.52,6.10,-4.97,885,-713,8115,0,-1,0
-10.52,6.11,-4.96,887,-702,8120,0,-1,-1
-10.52,6.12,-4.95,893,-695,8134,0,-1,-1
-10.51,6.12,-4.94,893,-686,8135,0,-1,-1
-10.52,6.12,-4.94,888,-682,8133,-1,-1,0
-10.52,6.13,-4.94,895,-699,8126,-1,-1,0
-10.52,6.13,-4.93,882,-721,8121,0,-1,-1
-10.52,6.13,-4.93,865,-700,8133,0,-1,0
-10.53,6.15,-4.92,873,-671,8141,-1,-1,0
-10.53,6.16,-4.93,892,-695,8127,-1,-1,0
-10.52,6.17,-4.94,893,-728,8122,0,-1,-1
-10.52,6.17,-4.93,880,-716,8129,0,-1,-1
-10.53,6.17,-4.92,875,-691,8130,0,-1,0
-10.53,6.18,-4.92,881,-679,8130,-1,-1,0
-10.52,6.19,-4.93,882,-685,8143,-1,-1,0
-10.53,6.20,-4.93,881,-702,8137,-1,-1,0
-10.53,6.20,-4.94,880,-716,8129,-1,-1,0
-10.53,6.21,-4.94,892,-716,8121,0,-1,0
-10.53,6.22,-4.94,892,-711,8128,0,-1,0
-10.53,6.22,-4.93,887,-707,8134,0,-1,0
-10.54,6.22,-4.93,881,-700,8139,-1,-1,0
-10.54,6.22,-4.93,881,-704,8137,0,-1,0
-10.54,6.23,-4.93,888,-709,8139,0,-1,0
-10.54,6.24,-4.92,883,-704,8145,0,-1,0
-10.54,6.25,-4.92,888,-700,8140,0,-1,-1
-10.54,6.25,-4.91,899,-687,8130,0,-1,-1
-10.54,6.25,-4.91,897,-680,8134,-1,-1,0
-10.54,6.26,-4.91,904,-683,8131,0,-1,0
-10.55,6.26,-4.91,895,-695,8127,-1,-1,0
-10.55,6.27,-4.91,886,-711,8139,0,-1,0
-10.55,6.27,-4.91,883,-709,8128,0,-1,-1
-10.55,6.28,-4.91,882,-698,8118,0,-1,0
-10.55,6.29,-4.91,890,-695,8116,0,-1,0
-10.54,6.30,-4.91,899,-692,8114,-1,-1,0
-10.55,6.30,-4.91,900,-694,8132,-1,-1,0
-10.55,6.30,-4.91,897,-704,8135,-1,-1,0
-10.55,6.31,-4.91,895,-706,8131,0,-1,-1
-10.55,6.31,-4.91,891,-697,8131,0,-1,0
-10.55,6.31,-4.90,890,-701,8128,0,-1,-1
-10.55,6.32,-4.91,890,-700,8132,0,-1,0
-10.55,6.32,-4.91,894,-701,8125,0,-1,0
-10.56,6.33,-4.91,890,-701,8132,0,-1,0
-10.56,6.34,-4.90,902,-696,8138,0,-1,0
-10.56,6.34,-4.90,902,-698,8129,0,-1,0
-10.56,6.34,-4.90,900,-702,8136,-1,-1,0
-10.56,6.34,-4.90,902,-705,8138,0,-1,0
-10.56,6.35,-4.90,901,-697,8130,0,-1,0
-10.56,6.36,-4.90,905,-699,8127,0,-1,0
-10.57,6.37,-4.90,909,-696,8121,0,-1,0
-10.57,6.37,-4.89,914,-699,8125,-1,-1,0
-10.57,6.38,-4.90,912,-697,8133,-1,-1,0
-10.57,6.38,-4.90,908,-692,8137,-1,-1,0
-10.57,6.39,-4.90,903,-703,8134,-1,-1,0
-10.57,6.39,-4.91,908,-708,8124,0,-1,0
-10.57,6.40,-4.90,912,-707,8113,0,-1,0
-10.57,6.41,-4.90,914,-701,8115,0,-1,0
-10.57,6.42,-4.90,913,-698,8127,0,-1,-1
-10.57,6.42,-4.89,912,-699,8126,0,-1,0
-10.57,6.42,-4.89,910,-692,8125,-1,-1,0
-10.57,6.42,-4.89,912,-702,8128,-1,-1,0
-10.57,6.42,-4.90,905,-707,8126,-1,-1,0
-10.57,6.43,-4.90,906,-709,8131,0,-1,0
-10.57,6.44,-4.89,909,-708,8116,0,-1,-1
-10.57,6.44,-4.89,909,-701,8116,0,-1,0
-10.57,6.45,-4.89,916,-695,8111,0,-1,0
-10.58,6.46,-4.88,917,-687,8118,0,-1,0
-10.58,6.46,-4.88,916,-693,8121,-1,-1,0
-10.58,6.46,-4.89,910,-698,8129,-1,-1,0
-10.58,6.47,-4.89,916,-701,8127,-1,-1,0
-10.58,6.47,-4.89,918,-698,8119,-1,-1,0
-10.58,6.48,-4.90,919,-710,8113,-1,-1,-1
-10.58,6.48,-4.90,921,-707,8117,0,-1,-1
-10.58,6.48,-4.90,917,-703,8116,0,-1,0
-10.59,6.49,-4.90,915,-703,8115,-1,-1,0
-10.59,6.49,-4.90,914,-702,8126,-1,-1,0
-10.59,6.50,-4.90,916,-704,8131,0,-1,-1
-10.59,6.50,-4.90,911,-705,8128,0,-1,0
-10.59,6.51,-4.89,915,-704,8116,0,-1,0
-10.59,6.51,-4.89,922,-694,8127,0,-1,-1
-10.59,6.52,-4.88,924,-690,8118,0,-1,0
-10.59,6.53,-4.88,924,-682,8120,-1,-1,0
-10.59,6.53,-4.88,924,-687,8115,0,-1,0
-10.59,6.54,-4.87,921,-687,8127,0,-1,0
-10.59,6.54,-4.87,924,-693,8132,-1,-1,0
-10.59,6.55,-4.88,926,-699,8130,-1,-1,0
-10.59,6.56,-4.88,932,-691,8120,-1,-1,0
-10.60,6.56,-4.88,932,-688,8114,-1,-1,-1
-10.60,6.57,-4.88,933,-695,8115,-1,-1,0
-10.60,6.57,-4.88,930,-699,8113,-1,-1,0
-10.60,6.58,-4.89,936,-693,8120,-1,-1,0
-10.60,6.58,-4.89,934,-700,8123,0,-1,0
-10.61,6.58,-4.89,934,-709,8119,0,-1,0
-10.61,6.58,-4.89,926,-710,8128,0,-1,0
-10.61,6.58,-4.88,925,-702,8127,0,-1,0
-10.61,6.58,-4.87,921,-694,8123,0,-1,0
-10.61,6.59,-4.87,926,-694,8130,0,-1,0
-10.61,6.60,-4.87,927,-691,8131,0,-1,0
-10.61,6.60,-4.87,931,-696,8133,0,-1,0
-10.61,6.61,-4.87,934,-691,8136,-1,-1,0
-10.62,6.61,-4.87,928,-689,8128,-1,-1,0
-10.62,6.61,-4.88,924,-685,8130,-1,-1,0
-10.61,6.60,-4.88,927,-701,8131,-1,-1,0
-10.62,6.61,-4.88,925,-717,8131,0,-1,0
-10.62,6.62,-4.88,934,-707,8114,0,-1,0
-10.62,6.63,-4.87,944,-688,8107,0,-1,0
-10.62,6.63,-4.87,949,-693,8102,0,-1,0
-10.62,6.63,-4.86,945,-690,8113,0,-1,-1
-10.62,6.63,-4.86,933,-680,8123,-1,-1,0
-10.62,6.63,-4.86,937,-683,8133,-1,-1,0
-10.62,6.63,-4.87,935,-689,8133,-1,-1,0
-10.63,6.63,-4.87,931,-694,8130,-1,-1,0
-10.62,6.63,-4.87,934,-703,8116,0,-1,-1
-10.62,6.63,-4.87,937,-709,8122,0,-1,-1
-10.62,6.63,-4.86,939,-694,8141,0,-1,-1
-10.62,6.63,-4.86,939,-682,8142,-1,-1,0
-10.62,6.63,-4.86,939,-686,8122,0,0,-1
-10.62,6.63,-4.86,936,-682,8118,0,-1,-1
-10.62,6.63,-4.86,937,-677,8124,-1,-1,0
-10.62,6.63,-4.86,939,-683,8116,-1,0,0
-10.62,6.63,-4.87,938,-709,8112,-1,0,-1
-10.62,6.63,-4.87,932,-710,8111,0,0,-1
-10.62,6.63,-4.87,935,-705,8122,0,-1,-1
-10.62,6.62,-4.86,933,-696,8116,0,0,-1
-10.62,6.62,-4.86,932,-677,8121,-1,-1,0
-10.62,6.62,-4.86,931,-679,8118,-1,0,-1
-10.62,6.61,-4.87,926,-690,8115,-1,-1,-1
-10.62,6.61,-4.87,923,-699,8120,-1,-1,-1
-10.62,6.61,-4.87,929,-699,8114,0,-1,-1
-10.62,6.61,-4.87,933,-693,8107,0,0,-1
-10.61,6.61,-4.87,922,-691,8113,0,0,-1
-10.61,6.60,-4.87,924,-695,8124,0,0,-1
-10.61,6.59,-4.86,922,-687,8131,0,0,-1
-10.61,6.59,-4.87,921,-696,8127,-1,0,-1
-10.61,6.59,-4.87,926,-702,8125,0,-1,-1
-10.61,6.59,-4.87,926,-702,8124,0,0,-1
-10.61,6.59,-4.87,926,-695,8126,0,0,-1
-10.61,6.58,-4.87,932,-689,8125,-1,0,-1
-10.60,6.57,-4.86,926,-688,8125,-1,0,-1
-10.60,6.56,-4.86,927,-689,8117,-1,0,0
-10.60,6.56,-4.87,926,-697,8123,-1,0,0
-10.60,6.56,-4.87,926,-699,8122,-1,0,-1
-10.60,6.56,-4.87,928,-699,8118,0,-1,-1
-10.60,6.56,-4.87,923,-693,8125,-1,0,0
-10.60,6.55,-4.87,922,-698,8123,-1,0,-1
-10.60,6.54,-4.88,920,-699,8115,-1,0,0
-10.60,6.54,-4.88,925,-704,8135,0,0,-1
-10.60,6.54,-4.88,921,-694,8129,0,0,-1
-10.60,6.54,-4.87,923,-696,8130,-1,-1,0
-10.60,6.54,-4.87,924,-702,8122,0,0,-1
-10.60,6.54,-4.87,923,-696,8123,-1,0,0
-10.60,6.53,-4.88,919,-703,8121,-1,0,0
-10.60,6.53,-4.88,931,-702,8113,0,0,-1
-10.60,6.52,-4.87,920,-697,8119,0,0,0
-10.60,6.51,-4.87,914,-686,8117,-1,0,-1
-10.60,6.52,-4.87,917,-680,8121,-1,0,-1
-10.59,6.51,-4.88,909,-680,8126,-1,0,0
-10.59,6.49,-4.88,903,-691,8133,-1,0,0
-10.60,6.48,-4.89,907,-698,8140,-1,0,0
-10.60,6.48,-4.90,907,-711,8125,-1,0,0
-10.60,6.48,-4.90,918,-715,8123,0,0,-1
-10.59,6.48,-4.89,918,-702,8126,0,0,-1
-10.59,6.47,-4.88,918,-689,8130,0,0,-1
-10.59,6.47,-4.87,909,-679,8126,0,0,-1
-10.59,6.46,-4.88,910,-685,8127,-1,0,-1
-10.59,6.46,-4.88,908,-696,8126,-1,0,-1
-10.59,6.45,-4.89,910,-700,8131,-1,0,0
-10.59,6.44,-4.89,906,-703,8127,-1,0,0
-10.59,6.44,-4.88,898,-702,8119,0,0,0
-10.59,6.43,-4.88,893,-696,8129,0,-1,-1
-10.59,6.42,-4.88,895,-687,8126,0,0,-1
-10.59,6.42,-4.88,890,-687,8132,0,0,-1
-10.59,6.42,-4.87,890,-680,8131,-1,0,-1
-10.59,6.42,-4.88,902,-681,8124,-1,0,0
