Yaw,Pitch,Roll,AX,AY,AZ,GX,GY,GZ
-12.65,6.65,-1.20,939,-163,8137,-1,0,-1
-12.65,6.64,-1.20,937,-168,8138,-1,0,-1
-12.65,6.63,-1.20,933,-164,8144,0,0,-1
-12.65,6.62,-1.20,930,-165,8142,-1,0,-1
-12.64,6.61,-1.21,936,-174,8137,-1,0,-1
-12.64,6.60,-1.21,940,-180,8133,0,0,-1
-12.64,6.60,-1.21,937,-181,8130,0,0,-1
-12.64,6.58,-1.21,931,-165,8136,0,0,-1
-12.64,6.58,-1.20,939,-163,8131,-1,0,0
-12.64,6.57,-1.21,930,-174,8143,-1,0,-1
-12.64,6.56,-1.21,929,-174,8147,0,0,0
-12.64,6.56,-1.21,928,-177,8147,0,0,-1
-12.63,6.55,-1.21,927,-176,8141,0,0,0
-12.63,6.54,-1.20,938,-166,8143,0,0,-1
-12.63,6.54,-1.19,932,-167,8141,0,0,-1
-12.63,6.54,-1.19,922,-166,8132,0,0,-1
-12.63,6.54,-1.19,923,-161,8143,0,0,-1
-12.63,6.53,-1.18,919,-153,8144,0,0,-1
-12.63,6.53,-1.18,924,-165,8152,0,0,-1
-12.63,6.53,-1.18,930,-167,8145,0,0,0
-12.63,6.52,-1.18,931,-164,8135,0,0,-1
-12.63,6.52,-1.18,933,-176,8137,-1,0,-1
-12.63,6.52,-1.19,929,-177,8143,0,-1,-1
-12.63,6.52,-1.18,924,-173,8151,0,0,-1
-12.63,6.52,-1.18,924,-172,8150,-1,-1,0
-12.63,6.53,-1.19,926,-176,8143,-1,-1,0
-12.63,6.53,-1.19,921,-169,8144,0,-1,0
-12.63,6.53,-1.18,925,-166,8146,0,-1,0
-12.63,6.53,-1.18,931,-167,8145,0,-1,-1
-12.63,6.53,-1.18,932,-156,8141,0,-1,-1
-12.63,6.53,-1.18,925,-159,8136,0,0,0
-12.63,6.53,-1.18,917,-162,8141,0,-1,0
-12.63,6.53,-1.18,914,-168,8140,-1,-1,0
-12.63,6.54,-1.18,921,-169,8131,0,-1,0
-12.63,6.54,-1.18,929,-165,8135,0,-1,-1
-12.63,6.54,-1.17,935,-162,8137,0,-1,-1
-12.63,6.54,-1.17,932,-152,8136,-1,-1,-1
-12.63,6.54,-1.17,924,-161,8134,-1,-1,0
-12.63,6.54,-1.17,922,-166,8144,-1,-1,0
-12.63,6.54,-1.18,917,-170,8151,-1,-1,0
-12.63,6.54,-1.18,924,-179,8144,-1,-1,-1
-12.63,6.54,-1.18,923,-181,8145,0,-1,-1
-12.63,6.55,-1.18,928,-179,8135,0,-1,-1
-12.63,6.55,-1.17,938,-169,8132,0,-1,-1
-12.63,6.55,-1.17,941,-163,8135,0,0,-1
-12.63,6.55,-1.17,933,-161,8142,-1,-1,0
-12.63,6.56,-1.17,931,-169,8149,-1,-1,-1
-12.63,6.56,-1.17,926,-174,8145,-1,-1,0
-12.63,6.56,-1.17,931,-172,8144,0,-1,0
-12.63,6.57,-1.17,931,-170,8146,0,-1,-1
-12.63,6.57,-1.17,932,-164,8144,0,-1,-1
-12.63,6.57,-1.16,928,-157,8133,0,-1,0
-12.63,6.57,-1.16,933,-157,8141,-1,-1,0
-12.63,6.57,-1.16,928,-159,8145,0,-1,0
-12.63,6.57,-1.16,925,-163,8135,-1,-1,-1
-12.63,6.57,-1.16,927,-167,8146,-1,-1,0
-12.63,6.57,-1.17,929,-176,8150,-1,-1,0
-12.63,6.57,-1.17,933,-177,8139,-1,-1,0
-12.63,6.57,-1.17,934,-181,8141,0,-1,-1
-12.63,6.57,-1.17,938,-174,8138,0,-1,-1
-12.63,6.57,-1.16,939,-162,8136,0,-1,-1
-12.63,6.57,-1.16,937,-159,8137,-1,-1,0
-12.63,6.57,-1.17,933,-169,8137,-1,-1,0
-12.63,6.58,-1.17,931,-170,8142,0,-1,-1
-12.63,6.59,-1.16,932,-166,8144,0,-1,-1
-12.63,6.59,-1.16,931,-156,8152,0,-1,0
-12.63,6.59,-1.15,935,-150,8144,0,-1,0
-12.64,6.60,-1.15,938,-147,8143,0,-1,0
-12.64,6.60,-1.15,932,-153,8139,-1,-1,-1
-12.64,6.60,-1.15,935,-160,8146,0,-1,0
-12.64,6.61,-1.14,926,-155,8143,0,-1,0
-12.64,6.61,-1.14,924,-157,8151,0,-1,-1
-12.64,6.61,-1.14,924,-161,8142,0,-1,0
-12.64,6.61,-1.14,923,-159,8137,0,-1,0
-12.64,6.62,-1.15,934,-155,8142,-1,-1,0
-12.64,6.62,-1.15,933,-164,8143,-1,-1,0
-12.64,6.62,-1.15,933,-166,8144,0,-1,-1
-12.64,6.62,-1.15,928,-162,8154,-1,-1,0
-12.64,6.62,-1.15,926,-165,8158,-1,-1,0
-12.64,6.62,-1.15,933,-168,8152,0,-1,0
-12.64,6.63,-1.15,937,-169,8148,0,-1,0
-12.64,6.64,-1.15,944,-162,8142,0,-1,-1
-12.64,6.64,-1.15,942,-155,8140,0,-1,-1
-12.64,6.64,-1.15,943,-148,8146,0,-1,-1
-12.64,6.65,-1.15,943,-148,8142,-1,-1,0
-12.64,6.65,-1.15,941,-160,8142,0,-1,0
-12.64,6.65,-1.14,939,-162,8135,0,-1,-1
-12.64,6.65,-1.14,939,-161,8135,-1,-1,0
-12.64,6.66,-1.14,946,-153,8136,-1,-1,0
-12.65,6.66,-1.14,947,-153,8130,-1,-1,0
-12.65,6.66,-1.15,937,-157,8138,-1,-1,0
-12.65,6.66,-1.15,934,-161,8148,-1,-1,0
-12.65,6.67,-1.15,938,-163,8150,-1,-1,0
-12.66,6.67,-1.15,943,-166,8148,0,-1,0
-12.66,6.68,-1.15,948,-163,8130,0,-1,-1
-12.66,6.68,-1.15,951,-157,8134,0,-1,0
-12.66,6.68,-1.15,955,-149,8145,0,-1,-1
-12.65,6.68,-1.15,948,-158,8142,0,-1,-1
-12.65,6.68,-1.15,955,-159,8148,0,-1,-1
-12.65,6.68,-1.15,951,-160,8137,0,0,0
-12.65,6.68,-1.14,948,-155,8136,0,-1,-1
-12.65,6.68,-1.14,950,-156,8141,0,-1,0
-12.65,6.68,-1.14,937,-164,8138,0,-1,-1
-12.65,6.68,-1.13,943,-153,8134,0,-1,-1
-12.65,6.68,-1.12,943,-145,8134,0,0,-1
-12.65,6.68,-1.12,944,-148,8132,-1,0,0
-12.65,6.68,-1.12,945,-148,8138,-1,0,-1
-12.65,6.68,-1.12,943,-152,8145,-1,-1,-1
-12.65,6.68,-1.13,954,-158,8139,-1,-1,0
-12.65,6.68,-1.13,954,-166,8129,-1,0,0
-12.65,6.68,-1.13,949,-167,8135,-1,0,0
-12.65,6.68,-1.14,945,-162,8136,-1,0,-1
-12.65,6.68,-1.14,948,-159,8143,-1,-1,-1
-12.65,6.68,-1.14,947,-160,8147,-1,0,0
-12.65,6.68,-1.14,943,-167,8151,-1,-1,-1
-12.65,6.67,-1.15,951,-176,8144,0,-1,-1
-12.65,6.67,-1.15,949,-179,8141,0,0,-1
-12.65,6.67,-1.14,941,-170,8140,0,0,-1
-12.65,6.67,-1.13,945,-160,8137,0,-1,-1
-12.65,6.67,-1.13,945,-154,8133,0,-1,0
-12.65,6.67,-1.13,945,-156,8133,-1,-1,0
-12.65,6.67,-1.13,936,-156,8132,-1,0,0
-12.65,6.67,-1.14,935,-163,8137,-1,-1,0
-12.65,6.67,-1.14,931,-163,8132,0,-1,-1
-12.65,6.67,-1.14,939,-165,8129,0,0,-1
-12.65,6.66,-1.14,940,-161,8132,-1,0,0
-12.65,6.65,-1.14,937,-160,8129,-1,0,0
-12.65,6.65,-1.14,945,-157,8133,-1,0,-1
-12.65,6.65,-1.15,942,-163,8148,-1,0,-1
-12.65,6.65,-1.15,944,-165,8147,-1,0,-1
-12.65,6.64,-1.15,944,-168,8138,-1,0,0
-12.65,6.64,-1.15,945,-166,8143,-1,0,0
-12.65,6.64,-1.15,950,-169,8141,0,0,-1
-12.65,6.63,-1.15,947,-164,8144,0,0,-1
-12.65,6.63,-1.15,950,-160,8147,0,0,0
-12.65,6.63,-1.15,950,-158,8146,0,0,0
-12.65,6.62,-1.14,947,-158,8143,-1,0,0
-12.65,6.61,-1.15,938,-165,8143,-1,0,0
-12.65,6.60,-1.15,932,-174,8141,-1,0,0
-12.65,6.60,-1.16,932,-177,8138,-1,0,0
-12.65,6.60,-1.16,940,-177,8134,0,0,0
-12.65,6.60,-1.15,938,-172,8132,0,0,-1
-12.65,6.59,-1.14,939,-162,8134,0,0,-1
-12.65,6.58,-1.14,936,-152,8136,0,0,-1
-12.65,6.58,-1.14,931,-151,8139,-1,0,0
-12.65,6.57,-1.15,930,-158,8135,-1,0,0
-12.65,6.57,-1.15,933,-168,8139,-1,0,0
-12.65,6.56,-1.15,926,-176,8143,0,0,0
-12.65,6.55,-1.15,921,-171,8145,0,0,-1
-12.65,6.55,-1.15,922,-167,8138,0,0,0
-12.65,6.54,-1.15,920,-165,8134,0,0,0
-12.65,6.53,-1.15,920,-157,8136,-1,0,0
-12.65,6.53,-1.15,927,-157,8134,-1,0,0
-12.65,6.53,-1.15,926,-162,8144,0,0,0
-12.66,6.53,-1.15,930,-161,8136,0,0,0
-12.66,6.52,-1.15,928,-163,8142,0,0,0
-12.66,6.51,-1.15,933,-168,8146,-1,0,0
-12.66,6.50,-1.16,924,-171,8144,-1,0,0
-12.67,6.50,-1.15,920,-167,8147,0,0,0
-12.67,6.48,-1.15,920,-163,8150,0,0,0
-12.67,6.48,-1.15,917,-160,8152,0,0,0
-12.67,6.46,-1.15,914,-152,8152,-1,0,0
-12.67,6.46,-1.15,913,-160,8151,0,0,0
-12.67,6.45,-1.15,916,-164,8156,0,0,-1
-12.68,6.44,-1.15,911,-160,8153,0,0,0
-12.68,6.43,-1.15,910,-153,8158,0,0,-1
-12.68,6.42,-1.14,907,-152,8149,0,0,-1
-12.68,6.42,-1.14,910,-158,8152,0,0,0
-12.68,6.41,-1.14,911,-168,8144,0,0,0
-12.68,6.40,-1.14,906,-165,8145,0,0,0
-12.67,6.39,-1.14,903,-158,8141,0,0,-1
-12.67,6.39,-1.13,897,-161,8148,0,0,0
-12.67,6.39,-1.13,898,-164,8142,0,0,-1
-12.67,6.38,-1.13,903,-156,8140,0,0,-1
-12.67,6.37,-1.13,894,-152,8137,-1,0,-1
-12.67,6.37,-1.13,897,-156,8134,0,0,-1
-12.67,6.37,-1.13,894,-170,8130,-1,-1,-1
-12.67,6.37,-1.13,894,-168,8134,0,-1,-1
-12.67,6.36,-1.13,894,-153,8134,0,-1,-1
-12.67,6.37,-1.13,887,-146,8144,-1,-1,0
-12.67,6.37,-1.12,893,-147,8141,-1,-1,0
-12.67,6.37,-1.13,900,-150,8142,-1,-1,0
-12.67,6.38,-1.13,899,-166,8141,-1,-1,0
-12.67,6.38,-1.13,900,-170,8148,0,-1,-1
-12.67,6.38,-1.12,907,-161,8146,0,-1,-1
-12.67,6.39,-1.12,901,-153,8144,0,-1,0
-12.67,6.39,-1.11,894,-145,8145,-1,-1,0
-12.67,6.40,-1.11,900,-146,8137,-1,-1,0
-12.67,6.40,-1.12,901,-154,8140,-1,-1,0
-12.68,6.40,-1.13,904,-166,8151,-1,-1,0
-12.68,6.41,-1.13,908,-172,8153,0,-1,0
-12.68,6.42,-1.12,909,-173,8147,0,-1,-1
-12.68,6.42,-1.12,913,-169,8138,0,-1,-1
-12.68,6.42,-1.12,917,-161,8139,0,-1,-1
-12.68,6.42,-1.12,917,-147,8140,-1,0,-1
-12.67,6.42,-1.12,911,-143,8147,-1,-1,-1
-12.67,6.42,-1.12,908,-149,8156,-1,-1,0
-12.67,6.42,-1.12,911,-160,8156,0,-1,-1
-12.67,6.42,-1.13,910,-164,8150,0,0,-1
-12.67,6.42,-1.12,908,-169,8140,0,-1,-1
-12.67,6.42,-1.12,911,-164,8134,0,-1,0
-12.67,6.43,-1.12,913,-155,8140,0,-1,0
-12.67,6.43,-1.11,909,-150,8147,0,-1,0
-12.67,6.43,-1.11,905,-146,8146,-1,-1,0
-12.67,6.44,-1.11,908,-151,8142,-1,-1,0
-12.67,6.45,-1.11,906,-157,8139,-1,-1,0
-12.67,6.45,-1.11,915,-166,8140,-1,-1,0
-12.67,6.45,-1.12,920,-172,8129,-1,-1,0
-12.67,6.45,-1.12,920,-169,8134,0,-1,-1
-12.67,6.45,-1.11,915,-162,8136,0,-1,-1
-12.67,6.46,-1.12,912,-155,8141,-1,-1,0
-12.68,6.46,-1.12,914,-148,8144,-1,-1,0
-12.68,6.47,-1.12,913,-146,8139,-1,-1,0
-12.68,6.47,-1.13,913,-159,8143,-1,-1,0
-12.68,6.47,-1.13,922,-169,8143,0,-1,0
-12.68,6.47,-1.12,922,-165,8149,0,-1,-1
-12.68,6.47,-1.12,916,-152,8137,0,-1,-1
-12.68,6.48,-1.11,921,-149,8136,0,-1,-1
-12.68,6.48,-1.11,921,-154,8139,-1,-1,0
-12.68,6.49,-1.12,911,-161,8144,-1,-1,0
-12.68,6.49,-1.12,908,-164,8139,0,-1,0
-12.68,6.49,-1.12,910,-172,8138,0,-1,-1
-12.68,6.49,-1.12,917,-161,8141,0,-1,0
-12.68,6.49,-1.12,920,-158,8148,0,-1,0
-12.68,6.50,-1.11,923,-152,8154,-1,-1,0
-12.68,6.49,-1.12,927,-149,8158,-1,-1,0
-12.68,6.50,-1.12,922,-159,8158,-1,-1,0
-12.68,6.50,-1.12,918,-162,8145,0,-1,-1
-12.68,6.51,-1.12,921,-164,8155,0,-1,-1
-12.68,6.51,-1.12,929,-155,8148,0,-1,0
-12.69,6.51,-1.12,927,-153,8147,-1,-1,0
-12.69,6.51,-1.11,926,-147,8136,-1,-1,0
-12.69,6.51,-1.12,919,-161,8145,-1,-1,-1
-12.69,6.52,-1.12,928,-163,8141,0,-1,-1
-12.69,6.52,-1.12,914,-151,8146,0,-1,-1
-12.69,6.52,-1.12,915,-163,8139,0,-1,0
-12.69,6.52,-1.12,926,-167,8136,0,-1,0
-12.69,6.53,-1.12,937,-160,8140,0,-1,0
-12.69,6.54,-1.11,939,-151,8146,-1,-1,0
-12.69,6.54,-1.11,938,-147,8142,-1,-1,0
-12.69,6.54,-1.11,928,-146,8146,-1,-1,0
-12.69,6.54,-1.12,928,-152,8146,-1,-1,0
-12.69,6.55,-1.12,926,-165,8142,-1,-1,0
-12.69,6.55,-1.12,931,-160,8147,0,-1,0
-12.70,6.56,-1.12,934,-160,8142,0,-1,0
-12.70,6.57,-1.11,947,-155,8138,0,-1,0
-12.70,6.57,-1.11,947,-144,8137,0,-1,0
-12.70,6.57,-1.11,937,-142,8141,-1,-1,0
-12.70,6.57,-1.11,932,-147,8143,-1,-1,0
-12.70,6.57,-1.12,928,-160,8140,-1,-1,0
-12.70,6.58,-1.12,930,-172,8138,0,-1,0
-12.70,6.58,-1.12,933,-175,8147,0,-1,-1
-12.70,6.59,-1.12,933,-155,8134,0,-1,0
-12.70,6.59,-1.11,929,-148,8135,0,-1,0
-12.71,6.59,-1.11,924,-150,8137,-1,-1,0
-12.71,6.59,-1.11,923,-148,8143,-1,-1,0
-12.71,6.60,-1.10,928,-147,8150,-1,-1,0
-12.71,6.59,-1.11,922,-151,8139,-1,-1,0
-12.71,6.60,-1.11,925,-153,8144,-1,-1,0
-12.72,6.60,-1.11,927,-163,8145,0,-1,0
-12.72,6.61,-1.11,933,-165,8143,0,-1,0
-12.72,6.61,-1.11,938,-163,8134,0,-1,0
-12.72,6.62,-1.11,943,-162,8120,-1,-1,0
-12.72,6.62,-1.11,939,-163,8130,-1,-1,0
-12.72,6.62,-1.11,945,-159,8137,0,-1,0
-12.72,6.62,-1.11,933,-155,8144,0,-1,0
-12.72,6.62,-1.11,928,-163,8150,0,-1,0
-12.72,6.62,-1.10,936,-157,8148,0,0,-1
-12.72,6.62,-1.09,938,-150,8146,0,-1,-1
-12.72,6.63,-1.09,941,-147,8143,0,-1,0
-12.72,6.63,-1.09,935,-147,8137,-1,-1,-1
-12.72,6.62,-1.09,933,-148,8133,0,-1,-1
-12.72,6.62,-1.09,930,-163,8147,0,-1,0
-12.72,6.62,-1.09,934,-162,8143,0,-1,0
-12.72,6.63,-1.09,935,-153,8150,0,-1,-1
-12.72,6.63,-1.09,945,-149,8133,0,-1,-1
-12.72,6.63,-1.09,943,-149,8140,-1,0,-1
-12.72,6.62,-1.09,943,-156,8148,-1,0,-1
-12.72,6.62,-1.09,937,-165,8148,-1,0,-1
-12.72,6.62,-1.09,932,-168,8145,0,0,-1
-12.72,6.62,-1.09,929,-158,8141,0,-1,-1
-12.72,6.61,-1.09,934,-149,8141,0,-1,0
-12.72,6.61,-1.09,938,-149,8150,0,0,0
-12.72,6.61,-1.09,935,-149,8143,0,-1,0
-12.72,6.61,-1.09,936,-149,8131,0,-1,-1
-12.72,6.61,-1.09,941,-149,8139,0,-1,0
-12.72,6.61,-1.08,943,-152,8140,0,-1,0
-12.73,6.61,-1.08,944,-153,8133,0,-1,0
-12.73,6.61,-1.08,941,-138,8133,-1,0,0
-12.73,6.61,-1.08,939,-147,8135,-1,-1,-1
-12.73,6.61,-1.08,935,-149,8138,0,0,0
-12.73,6.61,-1.08,931,-147,8135,-1,0,0
-12.72,6.60,-1.08,933,-164,8133,-1,0,0
-12.72,6.60,-1.08,930,-165,8142,0,-1,0
-12.73,6.60,-1.09,935,-161,8148,0,-1,0
-12.73,6.60,-1.09,937,-159,8148,0,0,0
-12.73,6.60,-1.09,949,-156,8144,0,0,0
-12.73,6.60,-1.08,943,-146,8136,0,0,0
-12.73,6.59,-1.08,936,-147,8143,-1,0,0
-12.73,6.58,-1.08,932,-156,8148,-1,0,0
-12.73,6.58,-1.09,929,-162,8141,-1,0,0
-12.74,6.58,-1.09,928,-159,8137,-1,0,0
-12.74,6.57,-1.09,929,-155,8145,0,0,0
-12.74,6.56,-1.09,933,-158,8149,0,0,0
-12.74,6.56,-1.09,928,-158,8138,0,0,0
-12.74,6.55,-1.09,932,-152,8130,0,0,0
-12.74,6.54,-1.09,935,-144,8126,-1,0,0
-12.74,6.53,-1.08,927,-147,8137,-1,0,0
-12.74,6.53,-1.08,920,-151,8140,-1,0,0
-12.74,6.52,-1.09,922,-153,8133,-1,0,0
-12.74,6.51,-1.09,923,-155,8140,-1,0,0
-12.74,6.50,-1.10,921,-160,8143,-1,0,0
-12.74,6.49,-1.09,915,-156,8134,-1,0,0
-12.74,6.48,-1.10,919,-160,8144,-1,0,0
-12.74,6.48,-1.10,920,-157,8141,0,0,0
-12.74,6.47,-1.09,915,-145,8142,0,0,0
-12.74,6.45,-1.10,909,-151,8138,-1,0,0
-12.74,6.45,-1.10,912,-159,8136,0,0,0
-12.74,6.45,-1.10,918,-163,8133,0,0,0
-12.74,6.43,-1.10,910,-158,8129,0,0,-1
-12.74,6.43,-1.09,916,-160,8137,0,0,0
-12.74,6.42,-1.09,911,-155,8135,0,0,0
-12.74,6.41,-1.09,907,-155,8137,-1,0,0
-12.75,6.40,-1.09,906,-160,8144,-1,0,0
-12.75,6.39,-1.09,907,-155,8140,0,0,0
-12.75,6.38,-1.09,910,-158,8127,0,0,0
-12.75,6.38,-1.09,907,-157,8129,0,0,-1
-12.75,6.37,-1.08,903,-151,8131,0,0,0
-12.75,6.36,-1.09,912,-154,8137,-1,0,0
-12.75,6.36,-1.09,902,-153,8148,-1,0,0
-12.75,6.34,-1.09,898,-162,8155,-1,0,-1
-12.75,6.34,-1.09,890,-157,8157,0,0,0
-12.75,6.33,-1.09,893,-156,8152,0,0,-1
-12.74,6.32,-1.09,895,-149,8146,0,0,-1
-12.74,6.31,-1.09,892,-147,8150,-1,0,-1
-12.74,6.31,-1.09,891,-151,8149,-1,0,0
-12.74,6.30,-1.09,891,-161,8145,0,0,-1
-12.74,6.30,-1.09,890,-157,8144,0,0,-1
-12.74,6.30,-1.09,884,-151,8140,0,-1,-1
-12.73,6.30,-1.09,888,-148,8146,-1,-1,-1
-12.73,6.30,-1.09,890,-148,8149,-1,0,-1
-12.73,6.29,-1.09,883,-151,8146,-1,-1,-1
-12.73,6.29,-1.09,878,-161,8141,0,-1,-1
-12.72,6.30,-1.09,887,-162,8143,0,-1,-1
-12.72,6.30,-1.09,894,-161,8135,0,-1,-1
-12.72,6.31,-1.08,898,-149,8136,0,-1,-1
-12.72,6.31,-1.07,905,-148,8140,0,-1,-1
-12.72,6.31,-1.07,900,-146,8150,-1,0,-1
-12.71,6.31,-1.08,894,-160,8149,-1,-1,-1
-12.71,6.31,-1.08,893,-166,8155,0,-1,-1
-12.71,6.31,-1.08,884,-162,8153,0,-1,-1
-12.71,6.32,-1.07,889,-151,8145,0,-1,-1
-12.71,6.32,-1.07,893,-145,8153,0,-1,-1
-12.71,6.32,-1.07,898,-135,8147,0,-1,-1
-12.70,6.33,-1.06,903,-140,8143,0,-1,0
-12.71,6.33,-1.05,903,-136,8142,-1,-1,-1
-12.71,6.34,-1.05,898,-143,8145,-1,-1,-1
-12.71,6.34,-1.05,900,-149,8142,-1,-1,0
-12.70,6.35,-1.06,898,-159,8146,-1,-1,-1
-12.71,6.35,-1.06,899,-161,8151,0,-1,0
-12.71,6.35,-1.06,895,-162,8147,0,-1,0
-12.71,6.36,-1.06,897,-162,8134,0,-1,0
-12.71,6.37,-1.06,906,-152,8133,0,-1,0
-12.71,6.37,-1.06,911,-149,8129,-1,-1,-1
-12.71,6.37,-1.06,914,-149,8136,-1,-1,0
-12.71,6.38,-1.07,904,-153,8138,0,-1,-1
-12.71,6.38,-1.07,899,-147,8143,0,-1,0
-12.71,6.39,-1.06,909,-154,8146,0,-1,0
-12.71,6.40,-1.06,911,-152,8145,0,-1,0
-12.71,6.40,-1.06,906,-148,8153,-1,-1,0
-12.71,6.40,-1.06,906,-146,8138,-1,-1,0
-12.71,6.41,-1.06,909,-149,8140,-1,-1,0
-12.71,6.41,-1.06,907,-152,8142,0,-1,0
-12.71,6.42,-1.06,911,-150,8140,0,-1,0
-12.71,6.42,-1.06,916,-153,8135,-1,-1,0
-12.71,6.42,-1.06,917,-148,8126,0,-1,0
-12.71,6.43,-1.06,916,-145,8139,0,-1,0
-12.71,6.43,-1.06,919,-144,8142,-1,-1,0
-12.71,6.44,-1.06,919,-143,8142,-1,-1,0
-12.71,6.44,-1.07,911,-147,8130,-1,-1,0
-12.71,6.44,-1.07,905,-155,8144,-1,-1,-1
-12.71,6.44,-1.07,911,-162,8146,0,-1,0
-12.71,6.44,-1.07,906,-150,8140,0,-1,-1
-12.71,6.44,-1.06,908,-144,8136,0,-1,0
-12.71,6.45,-1.06,911,-142,8138,-1,-1,0
-12.71,6.46,-1.06,919,-140,8137,-1,-1,-1
-12.71,6.46,-1.07,917,-154,8143,-1,-1,0
-12.71,6.46,-1.07,918,-166,8131,0,-1,-1
-12.71,6.47,-1.06,922,-159,8136,0,-1,-1
-12.71,6.48,-1.06,928,-149,8142,0,-1,0
-12.71,6.49,-1.06,930,-144,8146,0,-1,-1
-12.72,6.49,-1.06,932,-141,8142,-1,-1,0
-12.72,6.49,-1.06,925,-152,8146,-1,-1,0
-12.72,6.50,-1.07,924,-163,8153,-1,-1,0
-12.72,6.50,-1.07,929,-163,8152,0,-1,0
-12.72,6.51,-1.07,930,-160,8151,0,-1,-1
-12.72,6.51,-1.07,930,-151,8137,0,-1,0
-12.72,6.52,-1.06,926,-144,8137,0,-1,-1
-12.72,6.52,-1.06,933,-135,8141,-1,-1,0
-12.72,6.52,-1.07,925,-140,8149,-1,-1,0
-12.72,6.52,-1.07,928,-149,8147,-1,-1,0
-12.72,6.53,-1.07,927,-149,8146,-1,-1,-1
-12.72,6.53,-1.07,930,-150,8135,0,-1,0
-12.72,6.54,-1.07,940,-150,8133,0,-1,0
-12.72,6.54,-1.06,937,-147,8131,0,-1,0
-12.72,6.54,-1.06,930,-148,8136,-1,-1,0
-12.72,6.55,-1.06,929,-155,8134,0,-1,-1
-12.72,6.55,-1.06,934,-137,8132,0,-1,0
-12.72,6.56,-1.07,933,-139,8131,-1,-1,0
-12.72,6.56,-1.07,935,-145,8140,-1,-1,0
-12.72,6.56,-1.07,930,-158,8142,-1,-1,0
-12.72,6.57,-1.07,934,-155,8137,-1,-1,0
-12.72,6.57,-1.07,935,-160,8122,0,-1,-1
-12.72,6.57,-1.07,930,-154,8132,0,-1,0
-12.72,6.57,-1.07,931,-145,8138,-1,-1,0
-12.73,6.58,-1.07,937,-148,8131,-1,-1,0
-12.73,6.58,-1.08,936,-151,8136,-1,-1,0
-12.73,6.58,-1.08,941,-167,8131,-1,-1,0
-12.73,6.59,-1.08,941,-165,8140,0,-1,0
-12.73,6.58,-1.07,941,-155,8145,0,-1,-1
-12.73,6.59,-1.06,935,-138,8138,0,0,-1
-12.72,6.59,-1.05,938,-127,8138,-1,-1,-1
-12.72,6.59,-1.05,941,-137,8138,-1,0,0
-12.73,6.59,-1.06,943,-147,8135,-1,-1,0
-12.73,6.59,-1.06,943,-161,8134,0,0,-1
-12.72,6.59,-1.06,933,-160,8139,0,-1,-1
-12.72,6.59,-1.06,936,-155,8146,0,-1,-1
-12.72,6.59,-1.05,940,-138,8145,0,0,-1
-12.72,6.59,-1.05,942,-139,8139,-1,0,0
-12.72,6.59,-1.05,938,-146,8138,-1,0,0
-12.73,6.59,-1.06,941,-155,8138,-1,0,-1
-12.72,6.58,-1.07,938,-158,8148,0,-1,-1
-12.72,6.59,-1.06,938,-148,8140,0,0,-1
-12.72,6.59,-1.05,938,-140,8135,0,-1,0
-12.72,6.59,-1.05,946,-137,8133,0,-1,-1
-12.72,6.59,-1.05,945,-138,8134,-1,0,0
-12.72,6.59,-1.05,946,-144,8139,-1,-1,0
-12.72,6.59,-1.06,942,-146,8143,-1,0,-1
-12.72,6.59,-1.05,932,-143,8134,-1,0,-1
-12.72,6.59,-1.06,932,-157,8138,0,0,0
-12.72,6.59,-1.06,939,-160,8138,0,0,0
-12.72,6.59,-1.05,946,-151,8127,0,0,-1
-12.72,6.59,-1.05,944,-136,8136,-1,0,0
-12.72,6.58,-1.05,947,-138,8140,-1,0,0
-12.72,6.58,-1.06,941,-139,8142,-1,0,-1
-12.72,6.58,-1.06,944,-144,8150,-1,0,0
-12.72,6.58,-1.07,937,-153,8143,0,-1,0
-12.72,6.57,-1.07,937,-155,8148,0,0,0
-12.72,6.57,-1.06,944,-151,8140,0,0,0
-12.72,6.57,-1.06,946,-145,8136,0,0,0
-12.72,6.57,-1.05,955,-130,8137,0,0,-1
-12.72,6.57,-1.05,948,-132,8142,-1,0,0
-12.72,6.56,-1.06,941,-138,8140,-1,0,0
-12.72,6.56,-1.07,937,-152,8136,-1,0,0
-12.72,6.55,-1.07,930,-167,8143,0,-1,0
-12.72,6.55,-1.06,937,-162,8132,0,0,-1
-12.72,6.55,-1.06,931,-145,8129,0,0,0
-12.72,6.54,-1.06,935,-142,8132,0,0,0
-12.72,6.54,-1.06,937,-133,8143,-1,0,0
-12.72,6.54,-1.06,939,-141,8140,-1,0,0
-12.72,6.54,-1.06,935,-145,8134,-1,0,0
-12.72,6.54,-1.06,929,-145,8132,-1,0,0
-12.72,6.53,-1.06,921,-146,8135,-1,0,0
-12.73,6.53,-1.06,918,-149,8123,-1,0,0
-12.73,6.52,-1.06,926,-146,8128,-1,0,0
-12.73,6.52,-1.07,932,-149,8129,0,0,0
-12.73,6.51,-1.07,929,-148,8140,0,0,-1
-12.73,6.51,-1.06,926,-147,8142,-1,0,-1
-12.73,6.51,-1.07,937,-150,8149,-1,0,-1
-12.73,6.50,-1.07,931,-146,8146,-1,0,0
-12.73,6.50,-1.07,937,-158,8153,0,0,0
-12.73,6.49,-1.07,931,-160,8150,0,0,0
-12.73,6.49,-1.06,934,-150,8143,0,0,-1
-12.73,6.49,-1.05,932,-141,8147,0,0,-1
-12.72,6.49,-1.04,925,-129,8146,0,0,0
-12.73,6.49,-1.04,919,-137,8127,-1,0,0
-12.73,6.48,-1.05,916,-151,8115,-1,0,0
-12.73,6.48,-1.06,916,-170,8135,0,0,0
-12.73,6.47,-1.05,918,-154,8136,0,0,-1
-12.73,6.47,-1.04,914,-138,8143,0,0,-1
-12.73,6.47,-1.04,920,-139,8135,-1,0,0
-12.73,6.47,-1.05,923,-143,8130,-1,0,0
-12.73,6.47,-1.05,924,-141,8138,-1,0,0
-12.73,6.46,-1.05,927,-150,8141,-1,0,0
-12.73,6.46,-1.05,924,-151,8147,0,0,0
-12.73,6.45,-1.05,922,-158,8147,0,0,0
-12.74,6.45,-1.05,926,-155,8147,0,0,0
-12.73,6.45,-1.05,919,-140,8143,0,0,-1
-12.73,6.45,-1.05,916,-141,8137,0,0,-1
-12.73,6.44,-1.05,917,-140,8146,0,0,-1
-12.73,6.44,-1.05,919,-142,8147,0,0,-1
-12.73,6.44,-1.05,921,-138,8140,-1,0,-1
-12.73,6.44,-1.05,920,-144,8141,0,0,-1
-12.72,6.43,-1.04,916,-150,8137,0,0,-1
-12.72,6.43,-1.04,915,-146,8146,0,0,-1
-12.72,6.43,-1.04,921,-143,8134,0,-1,-1
-12.72,6.43,-1.03,914,-135,8140,0,0,-1
-12.72,6.43,-1.03,908,-127,8151,-1,0,0
-12.72,6.43,-1.03,906,-138,8147,-1,0,0
-12.72,6.43,-1.04,904,-150,8136,-1,-1,0
-12.72,6.43,-1.04,913,-167,8142,-1,-1,-1
-12.72,6.44,-1.04,923,-168,8144,0,-1,-1
-12.71,6.44,-1.04,926,-155,8137,0,-1,-1
-12.71,6.45,-1.03,931,-142,8132,0,-1,-1
-12.71,6.45,-1.03,940,-146,8131,-1,-1,0
-12.71,6.45,-1.04,924,-147,8148,-1,-1,0
-12.71,6.45,-1.04,922,-156,8155,-1,-1,0
-12.71,6.46,-1.04,918,-156,8142,0,-1,0
-12.71,6.46,-1.03,923,-153,8144,0,-1,0
-12.72,6.47,-1.03,923,-144,8151,0,-1,0
-12.72,6.48,-1.03,927,-143,8151,0,-1,-1
-12.72,6.48,-1.03,922,-146,8142,0,-1,0
-12.72,6.48,-1.03,926,-148,8144,0,-1,0
-12.72,6.48,-1.03,923,-149,8140,0,-1,0
-12.72,6.49,-1.03,916,-146,8141,-1,-1,0
-12.72,6.49,-1.04,916,-141,8142,-1,-1,0
-12.72,6.50,-1.04,919,-140,8136,-1,-1,0
-12.72,6.50,-1.04,923,-151,8134,0,-1,0
-12.72,6.50,-1.04,928,-149,8130,0,-1,-1
-12.72,6.51,-1.04,940,-144,8137,-1,-1,-1
-12.72,6.51,-1.04,940,-142,8142,-1,-1,0
-12.72,6.52,-1.04,928,-145,8145,0,-1,-1
-12.72,6.52,-1.04,934,-149,8147,-1,-1,-1
-12.72,6.52,-1.04,932,-142,8142,-1,-1,0
-12.72,6.53,-1.03,935,-143,8143,0,-1,0
-12.72,6.53,-1.03,935,-140,8134,-1,-1,0
-12.72,6.53,-1.03,923,-146,8150,0,-1,0
-12.72,6.53,-1.03,922,-146,8149,0,-1,0
-12.72,6.53,-1.03,923,-143,8142,0,-1,0
-12.72,6.54,-1.03,932,-140,8133,-1,-1,0
-12.72,6.55,-1.04,933,-140,8127,-1,-1,0
-12.72,6.55,-1.04,930,-143,8132,-1,-1,0
-12.72,6.55,-1.04,935,-146,8131,-1,-1,0
-12.72,6.55,-1.04,930,-141,8135,-1,-1,0
-12.72,6.56,-1.04,933,-142,8149,-1,-1,0
-12.72,6.56,-1.04,935,-151,8140,-1,-1,0
-12.72,6.57,-1.05,941,-152,8140,-1,-1,0
-12.72,6.57,-1.05,943,-163,8140,0,-1,0
-12.72,6.57,-1.05,937,-158,8152,0,-1,0
-12.73,6.57,-1.05,937,-149,8140,0,-1,0
-12.73,6.57,-1.05,931,-150,8140,0,-1,0
-12.73,6.58,-1.05,934,-146,8144,0,-1,0
-12.73,6.58,-1.05,934,-146,8145,0,-1,0
-12.73,6.58,-1.04,942,-132,8147,0,-1,0
-12.73,6.59,-1.04,946,-138,8133,-1,-1,0
-12.73,6.59,-1.05,941,-141,8137,-1,-1,0
-12.73,6.59,-1.05,938,-141,8137,-1,-1,0
-12.73,6.59,-1.06,931,-153,8140,-1,-1,0
-12.73,6.59,-1.06,928,-163,8147,0,-1,0
-12.73,6.60,-1.06,939,-165,8137,0,-1,-1
-12.73,6.61,-1.05,951,-151,8134,0,-1,0
-12.73,6.61,-1.04,958,-134,8132,0,0,-1
-12.73,6.61,-1.04,952,-131,8131,0,0,-1
-12.73,6.61,-1.04,943,-145,8139,-1,0,0
-12.73,6.61,-1.04,946,-149,8146,0,-1,-1
-12.72,6.61,-1.04,939,-151,8149,0,0,-1
-12.72,6.61,-1.04,940,-143,8144,0,-1,-1
-12.72,6.61,-1.04,943,-146,8135,0,-1,-1
-12.72,6.61,-1.03,945,-144,8136,0,-1,-1
-12.72,6.62,-1.03,950,-136,8130,0,0,-1
-12.72,6.61,-1.03,946,-145,8137,0,0,-1
-12.72,6.61,-1.03,937,-144,8145,0,-1,0
-12.72,6.61,-1.03,940,-150,8147,0,-1,-1
-12.72,6.61,-1.03,940,-152,8149,-1,-1,0
-12.72,6.62,-1.03,946,-149,8143,-1,-1,0
-12.72,6.62,-1.04,946,-149,8137,-1,0,0
-12.72,6.61,-1.04,946,-151,8142,0,0,0
-12.72,6.61,-1.04,945,-151,8147,0,0,-1
-12.72,6.61,-1.03,942,-145,8140,0,0,0
-12.72,6.60,-1.03,943,-141,8143,-1,0,0
-12.72,6.60,-1.03,944,-141,8139,-1,0,0
-12.72,6.60,-1.03,942,-146,8148,-1,0,0
-12.72,6.60,-1.04,939,-149,8135,-1,-1,0
-12.72,6.60,-1.04,940,-152,8135,0,-1,0
-12.72,6.61,-1.04,948,-142,8142,0,0,-1
-12.72,6.60,-1.03,945,-134,8139,0,0,-1
-12.72,6.60,-1.03,939,-130,8139,-1,0,0
-12.72,6.60,-1.03,938,-145,8131,-1,0,0
-12.72,6.60,-1.04,934,-158,8131,-1,0,-1
-12.72,6.60,-1.04,934,-163,8128,0,-1,-1
-12.72,6.59,-1.04,940,-158,8134,0,0,-1
-12.72,6.59,-1.04,938,-152,8141,-1,-1,0
-12.71,6.59,-1.04,948,-144,8138,-1,0,-1
-12.71,6.59,-1.04,941,-141,8132,-1,0,-1
-12.71,6.59,-1.05,946,-149,8136,-1,0,0
-12.71,6.58,-1.05,936,-158,8133,-1,0,0
-12.72,6.58,-1.05,931,-150,8133,-1,0,0
-12.72,6.57,-1.05,924,-151,8131,0,0,0
-12.72,6.57,-1.05,941,-148,8131,0,0,0
-12.72,6.57,-1.05,940,-141,8131,-1,0,0
-12.72,6.57,-1.05,941,-145,8140,-1,0,0
-12.72,6.56,-1.05,942,-145,8146,-1,0,0
-12.72,6.56,-1.06,941,-145,8151,-1,0,-1
-12.72,6.55,-1.06,936,-149,8143,-1,0,0
-12.72,6.55,-1.06,937,-153,8139,0,0,0
-12.72,6.55,-1.06,939,-152,8135,0,0,0
-12.71,6.54,-1.05,938,-143,8139,0,0,-1
-12.71,6.54,-1.05,930,-143,8130,-1,0,-1
-12.72,6.54,-1.05,934,-139,8138,-1,0,0
-12.72,6.53,-1.05,934,-143,8148,-1,0,-1
-12.72,6.53,-1.05,929,-147,8148,-1,0,0
-12.72,6.52,-1.06,934,-151,8146,-1,0,0
-12.72,6.52,-1.06,927,-155,8143,-1,0,0
-12.72,6.51,-1.07,934,-159,8145,0,0,0
-12.72,6.52,-1.05,931,-140,8133,0,0,-1
-12.72,6.51,-1.05,927,-128,8134,0,0,-1
-12.72,6.51,-1.05,928,-135,8148,-1,0,0
-12.72,6.50,-1.05,934,-147,8144,-1,0,0
-12.72,6.50,-1.06,929,-161,8151,-1,0,-1
-12.72,6.50,-1.07,930,-172,8144,0,0,-1
-12.72,6.49,-1.06,920,-165,8141,0,0,0
-12.71,6.49,-1.06,915,-160,8138,0,0,-1
-12.71,6.49,-1.06,918,-148,8135,0,0,0
-12.71,6.49,-1.05,923,-140,8137,-1,0,0
-12.71,6.49,-1.06,917,-144,8142,-1,0,-1
-12.71,6.49,-1.06,917,-145,8133,-1,0,0
-12.71,6.48,-1.06,916,-150,8131,-1,-1,-1
-12.71,6.49,-1.06,919,-153,8146,-1,-1,0
-12.71,6.49,-1.06,920,-158,8144,-1,-1,0
-12.71,6.49,-1.06,921,-156,8134,-1,0,0
-12.71,6.48,-1.06,925,-154,8128,0,-1,0
-12.71,6.48,-1.06,925,-141,8140,0,0,-1
-12.71,6.48,-1.06,922,-139,8140,-1,0,0
-12.71,6.48,-1.06,923,-147,8135,-1,-1,-1
-12.71,6.49,-1.06,923,-152,8138,-1,-1,-1
-12.71,6.49,-1.07,929,-161,8142,0,-1,0
-12.71,6.49,-1.07,918,-162,8149,0,-1,0
-12.71,6.49,-1.06,923,-156,8145,0,-1,-1
-12.70,6.50,-1.05,928,-136,8148,0,-1,-1
-12.70,6.50,-1.05,932,-132,8148,-1,0,0
-12.70,6.50,-1.05,933,-140,8153,-1,-1,-1
-12.71,6.49,-1.06,925,-159,8150,-1,-1,0
-12.71,6.50,-1.06,934,-162,8156,0,-1,-1
-12.70,6.51,-1.06,932,-158,8150,0,-1,-1
-12.70,6.51,-1.05,930,-147,8142,0,-1,0
-12.71,6.51,-1.05,931,-140,8141,-1,-1,0
-12.71,6.52,-1.05,935,-144,8140,-1,-1,0
-12.71,6.52,-1.06,931,-146,8147,-1,-1,0
-12.71,6.52,-1.06,928,-157,8151,-1,-1,0
-12.71,6.52,-1.06,927,-156,8155,0,-1,0
-12.71,6.52,-1.06,928,-156,8146,0,-1,-1
-12.71,6.52,-1.06,928,-148,8142,0,-1,0
-12.71,6.52,-1.05,932,-142,8136,0,-1,-1
-12.71,6.52,-1.05,926,-147,8138,-1,-1,0
-12.71,6.52,-1.05,925,-150,8142,-1,-1,0
-12.71,6.53,-1.06,937,-158,8153,0,-1,0
-12.71,6.53,-1.05,936,-148,8155,-1,-1,0
-12.71,6.54,-1.06,935,-158,8139,0,-1,0
-12.71,6.54,-1.06,935,-149,8137,0,-1,-1
-12.71,6.54,-1.05,943,-139,8137,0,-1,0
-12.71,6.55,-1.05,947,-136,8141,-1,-1,0
-12.71,6.55,-1.05,948,-139,8134,-1,-1,0
-12.71,6.56,-1.05,939,-142,8135,-1,-1,0
-12.71,6.56,-1.06,934,-155,8124,0,-1,0
-12.71,6.56,-1.06,935,-158,8137,0,-1,0
-12.72,6.56,-1.05,939,-152,8142,0,-1,0
-12.72,6.57,-1.05,945,-154,8140,0,-1,0
-12.72,6.57,-1.05,942,-155,8126,-1,-1,0
-12.72,6.57,-1.05,940,-154,8133,0,-1,0
-12.72,6.57,-1.05,940,-144,8131,0,-1,-1
-12.72,6.58,-1.05,935,-143,8136,-1,-1,-1
-12.72,6.58,-1.05,939,-154,8132,0,-1,0
-12.72,6.59,-1.05,936,-164,8139,0,-1,0
-12.72,6.59,-1.05,934,-161,8139,0,-1,0
-12.71,6.59,-1.05,932,-157,8136,0,-1,-1
-12.72,6.59,-1.05,928,-148,8129,0,-1,0
-12.71,6.59,-1.05,935,-143,8136,0,-1,0
-12.72,6.59,-1.05,937,-138,8139,-1,-1,0
-12.72,6.59,-1.05,940,-144,8139,-1,-1,0
-12.72,6.59,-1.05,937,-139,8135,-1,-1,0
-12.72,6.60,-1.06,930,-147,8140,-1,-1,0
-12.72,6.60,-1.06,935,-153,8134,-1,-1,0
-12.72,6.61,-1.06,944,-153,8142,-1,-1,0
-12.72,6.61,-1.06,-1,-1,-1,0,-1,-1
-12.72,6.61,-1.06,947,-154,8135,0,-1,-1
-12.72,6.61,-1.06,949,-148,8131,0,-1,0
-12.72,6.61,-1.06,951,-146,8137,-1,-1,0
-12.72,6.61,-1.06,949,-153,8135,0,-1,0
-12.72,6.61,-1.06,942,-154,8138,0,-1,0
-12.72,6.61,-1.06,937,-152,8137,0,-1,-1
-12.72,6.62,-1.05,946,-146,8149,0,-1,-1
-12.72,6.62,-1.04,950,-135,8143,0,0,0
-12.72,6.62,-1.04,942,-130,8135,0,0,-1
-12.72,6.62,-1.04,947,-141,8141,-1,0,0
-12.72,6.62,-1.04,943,-151,8146,0,-1,-1
-12.72,6.62,-1.04,940,-153,8139,0,-1,-1
-12.72,6.62,-1.03,934,-144,8142,0,-1,0
-12.71,6.62,-1.03,940,-140,8145,-1,-1,-1
-12.71,6.62,-1.03,949,-143,8132,0,0,-1
-12.71,6.62,-1.03,947,-145,8135,-1,0,0
-12.71,6.62,-1.04,944,-149,8135,-1,0,0
-12.71,6.62,-1.04,937,-145,8143,0,0,-1
-12.71,6.62,-1.04,945,-153,8145,0,0,-1
-12.71,6.62,-1.03,948,-163,8144,0,0,-1
-12.71,6.62,-1.03,951,-149,8145,0,-1,0
-12.71,6.62,-1.03,950,-142,8136,0,0,-1
-12.72,6.62,-1.02,953,-147,8140,0,0,-1
-12.72,6.62,-1.02,945,-136,8143,0,0,-1
-12.72,6.61,-1.02,942,-146,8146,0,0,0
-12.72,6.61,-1.01,937,-147,8140,0,0,0
-12.71,6.61,-1.01,937,-139,8143,0,-1,-1
-12.71,6.61,-1.01,949,-135,8139,-1,-1,-1
-12.71,6.61,-1.01,956,-132,8136,-1,0,0
-12.71,6.61,-1.01,945,-133,8135,0,0,0
-12.71,6.61,-1.01,941,-137,8137,0,0,-1
-12.71,6.60,-1.01,938,-139,8145,-1,0,0
-12.71,6.60,-1.01,943,-149,8138,-1,-1,0
-12.71,6.60,-1.01,954,-153,8127,0,0,0
-12.71,6.60,-1.01,954,-153,8130,0,0,-1
-12.71,6.61,-1.01,959,-140,8131,0,0,-1
-12.71,6.60,-1.01,950,-127,8140,-1,0,-1
-12.70,6.60,-1.00,944,-128,8141,-1,0,0
-12.71,6.60,-1.01,948,-139,8137,-1,0,0
-12.71,6.60,-1.01,940,-140,8133,0,0,-1
-12.70,6.60,-1.01,940,-148,8124,0,0,-1
-12.70,6.59,-1.00,933,-147,8123,0,0,-1
-12.70,6.58,-1.00,934,-140,8125,0,0,0
-12.70,6.58,-1.00,935,-135,8136,-1,0,0
-12.70,6.58,-1.00,939,-130,8137,-1,0,0
-12.70,6.58,-1.01,934,-134,8135,-1,0,0
-12.71,6.58,-1.01,938,-142,8142,-1,0,0
-12.71,6.58,-1.02,943,-143,8139,-1,0,0
-12.71,6.58,-1.02,951,-145,8136,-1,0,0
-12.71,6.59,-1.02,952,-145,8137,-1,0,0
-12.71,6.58,-1.02,947,-151,8143,-1,0,0
-12.71,6.58,-1.02,933,-145,8143,-1,0,0
-12.71,6.57,-1.03,937,-140,8137,-1,0,0
-12.70,6.57,-1.04,942,-141,8141,-1,0,0
-12.70,6.57,-1.04,941,-140,8146,-1,0,-1
-12.70,6.57,-1.04,939,-148,8141,0,-1,0
-12.70,6.57,-1.04,944,-143,8129,0,0,0
-12.70,6.57,-1.04,937,-138,8133,-1,0,0
-12.71,6.57,-1.04,942,-137,8124,-1,0,0
-12.71,6.57,-1.05,931,-141,8131,-1,-1,0
-12.71,6.57,-1.05,938,-147,8134,0,-1,-1
-12.71,6.57,-1.04,935,-151,8141,0,-1,0
-12.71,6.58,-1.04,934,-145,8141,0,-1,0
-12.71,6.58,-1.04,941,-142,8122,0,-1,0
-12.71,6.58,-1.04,945,-141,8126,-1,-1,0
-12.71,6.59,-1.04,949,-150,8127,-1,0,0
-12.71,6.59,-1.05,947,-149,8134,-1,0,0
-12.71,6.58,-1.05,946,-149,8143,-1,0,0
-12.71,6.59,-1.05,942,-151,8144,-1,-1,0
-12.71,6.59,-1.05,945,-156,8138,0,0,0
-12.71,6.59,-1.05,946,-159,8138,-1,0,0
-12.71,6.59,-1.05,941,-148,8143,-1,0,0
-12.71,6.59,-1.05,946,-163,8134,0,0,0
-12.71,6.58,-1.05,938,-161,8135,0,0,0
-12.71,6.58,-1.05,935,-148,8136,0,-1,-1
-12.71,6.58,-1.05,945,-140,8140,-1,0,0
-12.71,6.59,-1.05,946,-140,8140,-1,-1,0
-12.71,6.59,-1.05,950,-142,8140,-1,0,-1
-12.71,6.59,-1.05,949,-146,8138,-1,0,0
-12.71,6.59,-1.06,939,-152,8142,-1,0,0
-12.71,6.59,-1.06,941,-158,8143,0,-1,-1
-12.71,6.59,-1.06,950,-163,8138,0,0,-1
-12.71,6.59,-1.05,962,-153,8134,0,0,0
-12.71,6.59,-1.05,958,-152,8126,-1,0,0
-12.71,6.59,-1.06,944,-146,8130,-1,0,0
-12.71,6.59,-1.06,937,-154,8140,-1,0,0
-12.71,6.58,-1.07,930,-163,8140,0,0,0
-12.71,6.58,-1.07,935,-158,8142,0,0,-1
-12.71,6.58,-1.07,932,-152,8136,-1,0,-1
-12.71,6.58,-1.07,940,-145,8122,-1,0,-1
-12.71,6.58,-1.07,934,-151,8124,-1,0,0
-12.71,6.57,-1.07,935,-154,8137,0,-1,0
-12.71,6.57,-1.07,937,-147,8131,0,0,-1
-12.71,6.58,-1.07,941,-149,8131,-1,0,0
-12.71,6.58,-1.07,945,-154,8127,0,-1,0
-12.71,6.58,-1.07,947,-151,8130,-1,-1,0
-12.71,6.58,-1.07,955,-159,8135,-1,0,0
-12.72,6.58,-1.08,953,-160,8129,-1,0,0
-12.72,6.58,-1.08,951,-153,8128,0,0,0
-12.72,6.58,-1.07,942,-148,8130,0,0,0
-12.72,6.58,-1.07,938,-149,8134,0,0,0
-12.72,6.58,-1.07,943,-142,8138,-1,0,-1
-12.72,6.58,-1.08,942,-143,8141,-1,0,0
-12.72,6.58,-1.07,937,-156,8139,-1,0,0
-12.72,6.58,-1.08,940,-158,8129,0,0,-1
-12.72,6.58,-1.07,942,-151,8135,0,0,-1
-12.72,6.58,-1.07,945,-146,8139,0,0,0
-12.72,6.58,-1.08,945,-149,8142,-1,0,0
-12.72,6.58,-1.08,941,-154,8135,-1,-1,0
-12.72,6.58,-1.08,941,-156,8133,-1,0,0
-12.72,6.58,-1.08,941,-153,8145,0,0,0
-12.72,6.58,-1.08,948,-151,8147,0,-1,0
-12.72,6.58,-1.07,951,-145,8140,0,0,0
-12.72,6.58,-1.07,953,-145,8136,-1,0,0
-12.72,6.58,-1.07,952,-141,8142,-1,0,-1
-12.72,6.58,-1.07,950,-149,8136,-1,0,0
-12.72,6.58,-1.07,942,-146,8146,0,0,0
-12.72,6.58,-1.07,947,-153,8149,0,-1,-1
-12.72,6.58,-1.07,950,-140,8142,-1,0,0
-12.72,6.58,-1.07,947,-146,8141,-1,0,0
-12.72,6.58,-1.07,943,-151,8134,-1,0,0
-12.72,6.58,-1.07,941,-157,8148,-1,0,-1
-12.72,6.58,-1.07,933,-153,8145,0,0,0
-12.72,6.58,-1.07,933,-154,8139,0,0,0
-12.72,6.58,-1.07,938,-155,8136,0,-1,-1
-12.72,6.58,-1.07,946,-147,8134,0,0,0
-12.72,6.58,-1.06,952,-141,8137,-1,-1,-1
-12.72,6.59,-1.06,955,-141,8139,-1,0,0
-12.72,6.58,-1.07,954,-147,8145,-1,0,-1
-12.72,6.58,-1.07,938,-151,8146,-1,0,0
-12.72,6.58,-1.07,937,-158,8147,-1,-1,0
-12.72,6.58,-1.07,941,-161,8141,0,-1,0
-12.72,6.58,-1.07,948,-152,8137,0,-1,-1
-12.72,6.59,-1.06,948,-144,8130,0,0,0
-12.72,6.58,-1.06,947,-129,8128,0,0,-1
-12.72,6.58,-1.05,942,-132,8136,-1,0,0
-12.72,6.57,-1.06,938,-139,8148,-1,0,-1
-12.72,6.58,-1.06,937,-145,8149,-1,-1,0
-12.72,6.58,-1.07,939,-157,8137,0,-1,-1
-12.72,6.58,-1.07,943,-163,8134,0,0,-1
-12.72,6.58,-1.06,946,-153,8145,0,0,0
-12.72,6.58,-1.06,951,-151,8139,0,0,0
-12.72,6.58,-1.06,945,-149,8142,0,0,0
-12.72,6.58,-1.06,942,-149,8146,-1,0,0
-12.72,6.58,-1.06,937,-149,8149,-1,0,0
-12.72,6.58,-1.06,937,-151,8138,0,0,0
-12.72,6.57,-1.06,938,-158,8141,0,0,0
-12.72,6.58,-1.07,950,-164,8132,-1,0,-1
-12.72,6.57,-1.07,946,-164,8137,0,0,0
-12.72,6.57,-1.07,941,-157,8135,0,0,0
-12.72,6.57,-1.06,943,-148,8146,0,0,-1
-12.72,6.57,-1.06,950,-140,8144,-1,0,0
-12.72,6.57,-1.06,953,-137,8150,-1,0,0
-12.72,6.57,-1.07,950,-153,8148,-1,0,0
-12.72,6.56,-1.07,939,-167,8152,0,0,-1
-12.72,6.56,-1.07,938,-170,8152,0,0,-1
-12.72,6.56,-1.06,934,-154,8159,0,0,-1
-12.72,6.57,-1.05,935,-141,8145,0,-1,-1
-12.72,6.57,-1.05,940,-136,8145,-1,0,0
-12.72,6.57,-1.05,947,-142,8139,-1,0,0
-12.72,6.57,-1.05,947,-150,8140,-1,0,0
-12.72,6.56,-1.06,947,-159,8145,0,0,-1
-12.72,6.56,-1.05,944,-152,8144,0,0,-1
-12.72,6.57,-1.04,944,-148,8137,0,0,0
-12.72,6.56,-1.04,939,-147,8140,0,0,0
-12.72,6.56,-1.04,943,-145,8138,-1,0,0
-12.72,6.56,-1.05,942,-142,8142,-1,0,0
-12.72,6.56,-1.05,941,-150,8139,0,0,-1
-12.72,6.55,-1.05,938,-149,8151,0,0,0
-12.71,6.55,-1.05,939,-141,8157,0,0,-1
-12.71,6.55,-1.04,941,-137,8140,0,0,-1
-12.71,6.55,-1.04,939,-127,8136,-1,0,0
-12.71,6.55,-1.04,941,-132,8140,-1,0,0
-12.71,6.55,-1.04,937,-144,8132,-1,0,0
-12.71,6.54,-1.04,940,-146,8136,-1,0,0
-12.71,6.54,-1.05,939,-160,8141,0,0,0
-12.71,6.54,-1.05,935,-155,8140,0,0,-1
-12.71,6.54,-1.04,936,-143,8141,0,0,-1
-12.71,6.54,-1.03,944,-132,8135,0,0,-1
-12.71,6.53,-1.03,939,-127,8128,-1,0,0
-12.71,6.53,-1.04,936,-135,8135,-1,0,0
-12.71,6.52,-1.05,932,-155,8143,-1,0,-1
-12.71,6.52,-1.05,930,-157,8151,0,0,-1
-12.71,6.52,-1.05,929,-157,8155,0,0,-1
-12.71,6.52,-1.04,937,-152,8138,0,-1,0
-12.71,6.52,-1.04,946,-144,8128,0,0,0
-12.71,6.53,-1.03,955,-140,8126,0,0,0
-12.71,6.53,-1.04,955,-138,8126,-1,0,-1
-12.71,6.52,-1.04,950,-147,8140,-1,0,0
-12.71,6.52,-1.05,939,-156,8150,-1,0,0
-12.71,6.52,-1.05,936,-157,8152,0,-1,0
-12.71,6.52,-1.05,938,-153,8141,0,0,0
-12.71,6.52,-1.04,931,-140,8140,0,0,0
-12.71,6.52,-1.04,930,-144,8133,0,0,-1
-12.71,6.51,-1.04,930,-138,8137,0,0,0
-12.71,6.51,-1.04,933,-144,8150,0,0,0
-12.71,6.51,-1.04,927,-147,8138,0,0,-1
-12.71,6.51,-1.04,929,-145,8136,0,0,-1
-12.71,6.51,-1.04,933,-141,8132,0,0,0
-12.71,6.51,-1.04,933,-146,8128,-1,0,0
-12.71,6.51,-1.04,937,-156,8134,-1,0,-1
-12.71,6.51,-1.04,939,-158,8135,0,0,-1
-12.71,6.51,-1.04,941,-149,8141,0,0,-1
-12.71,6.50,-1.03,940,-141,8145,-1,0,0
-12.71,6.50,-1.04,940,-139,8145,-1,0,0
-12.71,6.50,-1.04,932,-149,8141,-1,0,0
-12.71,6.50,-1.04,931,-167,8149,0,0,-1
-12.71,6.50,-1.04,944,-165,8141,0,0,-1
-12.71,6.50,-1.04,928,-145,8137,0,0,-1
-12.71,6.50,-1.03,936,-136,8145,0,0,0
-12.71,6.50,-1.03,938,-129,8146,-1,0,0
-12.71,6.50,-1.03,932,-127,8142,-1,0,0
-12.71,6.50,-1.04,928,-137,8136,-1,0,0
-12.71,6.50,-1.04,931,-152,8138,0,0,0
-12.72,6.49,-1.04,928,-155,8125,0,0,0
-12.71,6.49,-1.04,931,-154,8125,0,0,0
-12.72,6.49,-1.04,931,-150,8123,-1,0,0
-12.72,6.48,-1.04,933,-142,8120,-1,0,0
-12.72,6.48,-1.04,929,-146,8120,-1,0,-1
-12.72,6.48,-1.05,930,-153,8119,-1,0,0
-12.72,6.47,-1.05,926,-157,8128,-1,0,-1
-12.72,6.47,-1.05,936,-155,8130,0,0,-1
-12.72,6.47,-1.05,935,-149,8134,0,0,0
-12.71,6.47,-1.05,936,-147,8131,-1,0,0
-12.71,6.47,-1.05,937,-148,8137,-1,0,0
-12.71,6.47,-1.05,932,-137,8132,-1,0,0
-12.72,6.47,-1.05,936,-143,8143,-1,-1,0
-12.71,6.48,-1.05,939,-147,8143,0,0,-1
-12.71,6.48,-1.06,940,-152,8144,-1,0,0
-12.71,6.48,-1.05,941,-143,8130,0,0,0
-12.71,6.47,-1.06,932,-146,8140,-1,0,0
-12.71,6.47,-1.06,929,-152,8153,0,0,-1
-12.71,6.47,-1.05,914,-146,8147,-1,-1,-1
-12.72,6.47,-1.06,914,-152,8137,-1,-1,0
-12.72,6.49,-1.06,929,-154,8149,-1,-1,0
-12.72,6.49,-1.06,934,-152,8144,0,-1,0
-12.72,6.50,-1.05,935,-151,8135,0,0,-1
-12.72,6.50,-1.05,936,-150,8128,0,0,-1
-12.72,6.50,-1.05,932,-136,8131,-1,-1,0
-12.72,6.50,-1.05,934,-137,8137,-1,-1,0
-12.72,6.50,-1.05,931,-147,8134,-1,-1,0
-12.72,6.50,-1.06,927,-150,8132,0,-1,0
-12.72,6.50,-1.05,937,-151,8131,0,-1,0
-12.72,6.51,-1.05,938,-146,8140,0,-1,-1
-12.72,6.51,-1.05,941,-142,8141,0,-1,-1
-12.72,6.52,-1.05,942,-140,8136,0,-1,0
-12.72,6.52,-1.05,944,-147,8132,-1,-1,-1
-12.72,6.52,-1.05,944,-145,8132,-1,0,-1
-12.72,6.52,-1.05,937,-153,8129,-1,0,0
-12.72,6.52,-1.06,936,-160,8140,-1,-1,0
-12.72,6.52,-1.06,932,-164,8138,0,-1,0
-12.72,6.53,-1.06,936,-163,8150,0,-1,-1
-12.72,6.53,-1.06,936,-151,8140,-1,0,0
-12.72,6.53,-1.06,939,-145,8140,-1,0,0
-12.72,6.53,-1.07,936,-150,8137,-1,0,0
-12.72,6.53,-1.07,934,-155,8136,-1,-1,0
-12.72,6.53,-1.07,933,-152,8134,0,0,-1
-12.72,6.54,-1.07,930,-149,8132,0,-1,0
-12.72,6.54,-1.06,940,-146,8139,0,-1,-1
-12.72,6.54,-1.06,941,-138,8143,0,-1,0
-12.72,6.54,-1.06,937,-131,8147,0,-1,-1
-12.72,6.54,-1.06,946,-147,8143,-1,0,0
-12.72,6.54,-1.06,943,-147,8139,0,0,0
-12.72,6.54,-1.06,947,-152,8145,-1,-1,0
-12.72,6.55,-1.06,946,-155,8149,0,-1,0
-12.72,6.55,-1.06,946,-158,8134,0,-1,0
-12.72,6.56,-1.06,945,-149,8129,-1,0,0
-12.73,6.56,-1.06,936,-150,8131,-1,0,0
-12.73,6.56,-1.07,935,-152,8141,-1,0,0
-12.73,6.56,-1.07,936,-156,8141,-1,-1,0
-12.73,6.56,-1.07,944,-164,8142,0,-1,0
-12.73,6.56,-1.07,944,-159,8142,0,0,0
-12.73,6.56,-1.07,943,-152,8150,0,0,0
-12.74,6.56,-1.07,940,-159,8135,-1,0,0
-12.74,6.56,-1.07,935,-157,8144,0,0,0
-12.74,6.56,-1.07,944,-143,8145,0,-1,-1
-12.73,6.56,-1.06,949,-133,8142,0,0,-1
-12.73,6.56,-1.06,942,-135,8140,-1,0,0
-12.73,6.56,-1.07,936,-143,8128,-1,0,0
-12.74,6.56,-1.07,937,-159,8138,-1,0,0
-12.73,6.56,-1.07,931,-163,8147,0,-1,-1
-12.73,6.56,-1.07,941,-161,8137,0,-1,-1
-12.73,6.56,-1.06,943,-150,8139,0,0,-1
-12.73,6.56,-1.06,946,-133,8126,-1,0,-1
-12.73,6.56,-1.06,951,-133,8125,-1,0,0
-12.73,6.56,-1.06,955,-138,8134,-1,0,-1
-12.73,6.56,-1.07,955,-161,8138,-1,0,-1
-12.73,6.56,-1.07,945,-157,8131,0,0,-1
-12.72,6.56,-1.07,943,-153,8137,0,0,-1
-12.72,6.56,-1.06,942,-142,8140,0,0,-1
-12.72,6.56,-1.06,940,-139,8136,-1,0,0
-12.72,6.55,-1.06,946,-142,8130,-1,0,0
-12.72,6.56,-1.07,947,-144,8125,-1,0,0
-12.72,6.55,-1.06,935,-152,8128,-1,0,0
-12.73,6.55,-1.06,937,-154,8138,0,0,-1
-12.73,6.54,-1.06,931,-146,8140,0,0,0
-12.73,6.54,-1.06,933,-140,8133,-1,-1,-1
-12.73,6.55,-1.06,943,-148,8124,-1,0,0
-12.73,6.55,-1.07,943,-160,8129,0,0,0
-12.73,6.55,-1.07,947,-161,8127,0,0,-1
-12.73,6.55,-1.07,956,-157,8134,0,0,0
-12.72,6.55,-1.07,945,-148,8141,-1,0,0
-12.72,6.54,-1.07,934,-144,8137,0,0,-1
-12.72,6.54,-1.07,935,-149,8142,0,0,0
-12.72,6.54,-1.07,936,-147,8142,0,-1,0
-12.73,6.54,-1.07,931,-151,8141,-1,0,0
-12.73,6.54,-1.07,937,-145,8140,-1,0,0
-12.73,6.54,-1.07,933,-153,8153,-1,-1,0
-12.73,6.54,-1.07,942,-154,8140,0,-1,-1
-12.73,6.54,-1.07,938,-150,8138,0,0,0
-12.73,6.54,-1.06,939,-147,8132,0,-1,0
-12.73,6.55,-1.06,941,-144,8132,0,-1,0
-12.73,6.55,-1.06,943,-152,8131,-1,-1,0
-12.73,6.56,-1.07,944,-151,8132,-1,0,0
-12.73,6.56,-1.07,951,-156,8139,-1,0,0
-12.73,6.56,-1.07,949,-143,8139,-1,0,-1
-12.73,6.56,-1.07,945,-148,8141,0,0,0
-12.73,6.56,-1.07,949,-156,8145,-1,0,0
-12.73,6.56,-1.07,953,-157,8147,-1,0,0
-12.73,6.56,-1.07,950,-152,8141,-1,0,0
-12.74,6.56,-1.08,943,-156,8150,-1,0,0
-12.74,6.56,-1.08,938,-157,8149,0,0,-1
-12.74,6.56,-1.07,946,-152,8154,0,0,0
-12.74,6.56,-1.07,945,-142,8142,0,0,0
-12.74,6.56,-1.07,937,-134,8139,-1,0,0
-12.74,6.56,-1.07,941,-137,8145,-1,0,0
-12.75,6.56,-1.08,933,-148,8149,-1,-1,0
-12.74,6.55,-1.09,926,-170,8150,-1,-1,-1
-12.74,6.56,-1.09,940,-202,8131,0,-1,-1
-12.74,6.56,-1.08,943,-181,8129,0,-1,-1
-12.74,6.57,-1.06,957,-143,8135,0,-1,-1
-12.74,6.57,-1.05,960,-123,8125,-1,0,0
-12.74,6.57,-1.06,957,-124,8126,-1,0,0
-12.74,6.56,-1.07,940,-150,8131,-1,0,-1
1.85,1.82,-0.31,-258,-258,-258,-258,-258,-258
-12.74,6.57,-1.07,948,-158,8142,0,-1,-1
-12.74,6.57,-1.07,945,-151,8138,0,-1,0
-12.74,6.57,-1.07,952,-141,8136,0,0,0
-12.74,6.57,-1.06,951,-136,8137,0,0,0
-12.74,6.57,-1.06,943,-134,8139,-1,0,0
-12.74,6.57,-1.07,943,-147,8143,-1,0,0
-12.74,6.57,-1.07,943,-148,8141,0,-1,0
-12.74,6.57,-1.07,939,-148,8129,0,-1,-1
-12.74,6.57,-1.07,941,-155,8139,0,-1,0
-12.74,6.58,-1.07,947,-156,8134,-1,-1,-1
-12.74,6.58,-1.08,946,-162,8142,0,0,0
-12.74,6.58,-1.08,945,-160,8138,0,0,-1
-12.74,6.57,-1.07,943,-160,8142,0,0,-1
-12.74,6.57,-1.07,946,-148,8143,0,0,-1
-12.74,6.57,-1.07,948,-146,8149,-1,0,-1
-12.74,6.57,-1.07,944,-142,8149,-1,0,-1
-12.74,6.57,-1.07,945,-142,8138,0,-1,0
-12.74,6.57,-1.07,946,-152,8141,0,0,-1
-12.74,6.58,-1.07,951,-153,8147,0,0,-1
-12.74,6.57,-1.06,945,-148,8143,0,0,-1
-12.73,6.58,-1.06,948,-139,8149,0,-1,-1
-12.73,6.58,-1.05,949,-135,8137,-1,-1,0
-12.74,6.58,-1.06,950,-149,8130,-1,0,0
-12.74,6.58,-1.06,936,-160,8139,0,-1,-1
-12.74,6.58,-1.06,938,-161,8145,0,-1,0
-12.74,6.58,-1.06,946,-156,8149,0,-1,-1
-12.73,6.59,-1.05,952,-141,8141,0,0,-1
-12.73,6.58,-1.05,946,-124,8136,0,0,-1
-12.73,6.58,-1.05,944,-135,8127,-1,0,-1
-12.73,6.58,-1.05,944,-141,8134,0,0,0
-12.73,6.58,-1.05,941,-147,8140,0,0,-1
-12.73,6.58,-1.04,952,-152,8144,0,0,-1
-12.73,6.58,-1.03,948,-140,8136,0,0,-1
-12.73,6.58,-1.03,947,-135,8135,0,-1,0
-12.73,6.58,-1.03,946,-144,8142,-1,-1,0
-12.73,6.58,-1.03,946,-140,8141,0,-1,0
-12.73,6.59,-1.03,952,-143,8132,-1,0,0
-12.73,6.58,-1.03,947,-154,8140,0,0,0
-12.73,6.58,-1.03,952,-156,8139,0,0,-1
-12.73,6.58,-1.03,949,-145,8149,0,0,-1
-12.73,6.58,-1.02,946,-140,8142,0,0,-1
-12.72,6.58,-1.02,943,-133,8134,-1,0,-1
-12.72,6.58,-1.02,942,-132,8139,-1,0,0
-12.72,6.58,-1.02,932,-141,8144,-1,0,0
-12.73,6.58,-1.02,932,-160,8138,0,0,0
-12.73,6.58,-1.02,942,-157,8147,0,-1,-1
-12.72,6.58,-1.01,947,-148,8150,0,0,-1
-12.73,6.58,-1.00,950,-136,8140,0,0,0
-12.72,6.58,-1.00,955,-127,8123,0,0,-1
-12.72,6.58,-1.00,947,-131,8132,-1,0,-1
-12.72,6.57,-1.00,944,-134,8138,-1,0,0
-12.72,6.57,-1.00,944,-140,8142,-1,0,-1
-12.72,6.57,-1.01,940,-138,8150,-1,-1,-1
-12.72,6.57,-1.01,948,-145,8140,0,0,0
-12.72,6.57,-1.01,943,-142,8138,0,0,-1
-12.72,6.57,-1.01,950,-143,8136,0,0,0
-12.72,6.57,-1.01,950,-142,8137,0,0,0
-12.72,6.56,-1.00,949,-131,8150,0,0,0
-12.72,6.56,-1.00,947,-133,8143,0,0,-1
-12.72,6.56,-1.00,940,-134,8139,-1,0,-1
-12.72,6.56,-1.01,938,-146,8139,-1,0,0
-12.72,6.56,-1.01,945,-152,8127,-1,0,0
-12.72,6.56,-1.02,943,-156,8124,0,0,0
-12.72,6.56,-1.02,942,-149,8121,0,0,-1
-12.72,6.55,-1.01,936,-143,8129,0,0,-1
-12.72,6.55,-1.01,939,-130,8126,-1,0,0
-12.72,6.55,-1.01,943,-131,8137,-1,0,0
-12.72,6.55,-1.01,940,-133,8135,-1,0,0
-12.72,6.55,-1.02,941,-152,8128,-1,0,0
-12.73,6.55,-1.02,944,-152,8142,0,0,0
-12.72,6.55,-1.01,953,-154,8151,0,0,-1
-12.73,6.55,-1.01,953,-137,8146,-1,0,0
-12.73,6.54,-1.01,942,-135,8145,-1,0,0
-12.73,6.54,-1.02,935,-141,8146,-1,0,0
-12.73,6.54,-1.03,936,-151,8159,-1,0,0
-12.73,6.54,-1.03,940,-146,8148,-1,0,-1
-12.73,6.53,-1.03,935,-155,8136,0,0,0
-12.73,6.54,-1.03,947,-154,8122,-1,0,0
-12.73,6.54,-1.03,945,-146,8125,-1,0,-1
-12.73,6.53,-1.03,941,-150,8131,-1,0,0
-12.72,6.52,-1.04,937,-155,8139,-1,0,0
-12.72,6.52,-1.04,922,-152,8129,-1,0,0
-12.72,6.52,-1.05,928,-152,8132,-1,0,0
-12.72,6.52,-1.05,939,-157,8141,-1,0,0
-12.73,6.52,-1.05,942,-153,8137,-1,0,0
-12.73,6.52,-1.05,940,-146,8138,0,0,0
-12.73,6.51,-1.05,941,-144,8145,0,0,0
-12.73,6.50,-1.05,936,-143,8145,0,0,0
-12.74,6.50,-1.05,938,-132,8145,-1,0,0
-12.74,6.50,-1.05,938,-143,8148,0,0,0
-12.74,6.49,-1.05,932,-149,8140,-1,0,0
-12.74,6.49,-1.06,937,-163,8135,0,0,0
-12.74,6.47,-1.05,918,-151,8145,0,0,0
-12.74,6.47,-1.05,927,-146,8142,0,0,-1
-12.74,6.47,-1.05,928,-142,8143,0,0,0
-12.74,6.46,-1.05,929,-139,8143,-1,0,0
-12.74,6.45,-1.05,923,-147,8139,-1,0,0
-12.74,6.44,-1.06,917,-167,8151,-1,0,0
-12.75,6.44,-1.07,917,-166,8156,-1,0,0
-12.75,6.43,-1.07,917,-158,8141,0,0,0
-12.76,6.42,-1.07,923,-146,8134,0,0,0
-12.76,6.42,-1.07,930,-139,8134,-1,0,0
-12.76,6.41,-1.07,931,-129,8131,-1,0,0
-12.76,6.40,-1.09,933,-148,8140,-1,0,0
-12.76,6.39,-1.10,924,-172,8139,-1,0,0
-12.77,6.38,-1.10,911,-169,8130,-1,0,0
-12.78,6.38,-1.11,910,-165,8141,-1,0,0
-12.77,6.37,-1.12,906,-159,8144,-1,0,0
-12.78,6.37,-1.12,911,-153,8137,-1,0,0
-12.79,6.37,-1.13,909,-149,8128,-1,0,0
-12.79,6.36,-1.13,911,-152,8140,-1,0,0
-12.80,6.36,-1.13,912,-161,8151,-1,0,0
-12.81,6.34,-1.14,905,-159,8154,-1,0,0
-12.81,6.34,-1.14,908,-154,8153,-1,0,0
-12.81,6.33,-1.14,917,-156,8149,-1,0,0
-12.82,6.32,-1.15,906,-162,8148,-1,0,0
-12.82,6.31,-1.16,912,-170,8130,-1,0,0
-12.82,6.29,-1.16,915,-173,8130,0,0,-1
-12.82,6.28,-1.16,912,-161,8140,-1,0,-1
-12.82,6.26,-1.16,901,-149,8145,0,0,-1
-12.81,6.25,-1.16,892,-153,8161,-1,0,-1
-12.80,6.24,-1.15,887,-163,8171,0,0,-1
-12.78,6.22,-1.14,884,-154,8158,0,0,-1
-12.76,6.20,-1.12,884,-143,8154,0,0,-1
-12.74,6.19,-1.10,903,-170,8130,0,0,-1
-12.73,6.19,-1.09,896,-182,8108,0,0,-1
-12.72,6.17,-1.06,864,-157,8126,0,0,-1
-12.72,6.16,-1.06,858,-155,8149,0,-1,-1
-12.71,6.16,-1.04,864,-140,8178,0,-1,-1
-12.71,6.18,-1.04,872,-135,8165,0,-1,-1
-12.71,6.19,-1.04,891,-147,8145,-1,-1,-1
-12.70,6.21,-1.04,895,-162,8122,-1,-1,-1
-12.70,6.21,-1.05,888,-168,8122,0,-1,0
-12.70,6.22,-1.05,888,-171,8134,0,-1,0
-12.71,6.23,-1.04,888,-161,8158,0,-1,0
-12.71,6.24,-1.04,883,-147,8159,0,-1,-1
-12.71,6.25,-1.03,884,-135,8146,0,-1,0
-12.71,6.26,-1.03,881,-136,8147,-1,-1,0
-12.71,6.27,-1.04,890,-141,8143,-1,-1,0
-12.71,6.29,-1.03,904,-146,8154,0,-1,-1
-12.71,6.29,-1.03,908,-143,8157,0,-1,0
-12.71,6.30,-1.04,912,-149,8159,0,-1,-1
-12.71,6.31,-1.03,903,-155,8150,0,-1,0
-12.71,6.31,-1.03,899,-152,8150,0,-1,-1
-12.71,6.32,-1.02,906,-146,8128,0,-1,-1
-12.71,6.33,-1.02,903,-131,8130,0,-1,-1
-12.71,6.34,-1.02,903,-136,8139,-1,-1,0
-12.72,6.35,-1.03,898,-138,8147,-1,-1,0
-12.72,6.36,-1.03,900,-145,8159,-1,-1,0
-12.72,6.37,-1.04,910,-157,8159,-1,-1,0
-12.72,6.38,-1.04,909,-161,8132,0,-1,-1
-12.72,6.38,-1.03,914,-156,8126,0,-1,-1
-12.72,6.39,-1.03,918,-148,8134,0,-1,-1
-12.72,6.40,-1.03,918,-145,8144,-1,-1,0
-12.72,6.41,-1.03,917,-144,8150,-1,-1,0
-12.72,6.41,-1.03,916,-149,8149,-1,-1,0
-12.72,6.42,-1.04,917,-145,8146,0,-1,0
-12.72,6.43,-1.04,918,-146,8150,0,-1,0
-12.72,6.43,-1.04,921,-142,8153,0,-1,0
-12.72,6.44,-1.03,919,-143,8145,0,-1,0
-12.73,6.44,-1.03,917,-138,8147,0,-1,0
-12.73,6.46,-1.03,924,-129,8153,0,-1,0
-12.73,6.46,-1.03,917,-128,8153,-1,-1,0
-12.73,6.46,-1.03,921,-132,8148,-1,-1,0
-12.74,6.47,-1.03,925,-142,8142,-1,-1,0
-12.74,6.47,-1.04,924,-158,8146,-1,-1,0
-12.74,6.48,-1.04,931,-156,8141,0,-1,-1
-12.74,6.48,-1.04,931,-151,8146,0,-1,-1
-12.74,6.49,-1.04,930,-140,8135,-1,-1,0
-12.74,6.49,-1.04,926,-139,8136,-1,-1,0
-12.74,6.50,-1.05,920,-142,8143,-1,-1,0
-12.74,6.50,-1.05,926,-152,8141,-1,-1,0
-12.74,6.50,-1.05,930,-153,8133,0,-1,0
-12.74,6.50,-1.05,930,-148,8140,0,-1,0
-12.74,6.51,-1.03,930,-147,8146,0,-1,-1
-12.74,6.52,-1.03,938,-145,8144,0,-1,-1
-12.74,6.52,-1.02,928,-136,8144,0,-1,0
-12.74,6.53,-1.02,925,-134,8142,0,-1,0
-12.74,6.53,-1.02,928,-144,8140,0,-1,0
-12.74,6.53,-1.01,931,-152,8138,0,-1,-1
-12.74,6.54,-1.01,940,-151,8130,-1,-1,0
-12.74,6.54,-1.02,926,-142,8130,0,0,0
-12.74,6.54,-1.01,930,-140,8129,0,-1,-1
-12.74,6.54,-1.01,931,-142,8138,-1,-1,-1
-12.74,6.54,-1.02,925,-139,8147,-1,0,0
-12.74,6.54,-1.03,928,-143,8142,-1,0,0
-12.75,6.54,-1.04,928,-154,8138,-1,-1,0
-12.75,6.54,-1.04,931,-160,8142,0,-1,-1
-12.74,6.54,-1.03,941,-148,8132,0,0,-1
-12.74,6.54,-1.02,934,-130,8142,-1,-1,0
-12.74,6.55,-1.02,932,-130,8148,-1,-1,0
-12.75,6.55,-1.03,933,-127,8136,-1,0,0
-12.75,6.54,-1.04,922,-132,8142,-1,0,0
-12.75,6.54,-1.05,928,-157,8146,-1,0,0
-12.75,6.54,-1.06,926,-166,8145,0,0,0
-12.75,6.53,-1.06,929,-162,8142,0,0,0
-12.75,6.53,-1.05,937,-153,8141,0,0,-1
-12.75,6.52,-1.04,931,-142,8145,0,0,-1
-12.75,6.52,-1.05,931,-136,8143,-1,0,0
-12.75,6.51,-1.05,930,-136,8148,-1,0,0
-12.75,6.51,-1.05,925,-146,8150,-1,0,-1
-12.75,6.50,-1.06,923,-150,8151,-1,0,0
-12.75,6.49,-1.07,932,-168,8140,0,0,0
-12.75,6.49,-1.07,926,-162,8136,0,0,0
-12.76,6.48,-1.07,923,-153,8138,0,0,0
-12.76,6.47,-1.06,928,-140,8153,-1,0,0
-12.76,6.46,-1.06,931,-132,8160,-1,0,0
-12.76,6.44,-1.06,929,-138,8155,-1,0,0
-12.76,6.43,-1.07,922,-149,8149,-1,0,0
-12.76,6.42,-1.07,921,-163,8149,0,0,0
-12.76,6.41,-1.07,921,-157,8141,-1,0,0
-12.76,6.39,-1.08,913,-156,8138,-1,0,0
-12.76,6.38,-1.08,914,-151,8139,0,0,0
-12.76,6.37,-1.08,921,-140,8137,0,0,0
-12.76,6.35,-1.07,913,-145,8133,0,0,-1
-12.76,6.34,-1.07,907,-144,8132,0,0,0
-12.76,6.32,-1.07,902,-150,8135,-1,0,0
-12.77,6.30,-1.07,902,-149,8142,0,0,-1
-12.76,6.28,-1.06,898,-147,8139,0,0,-1
-12.76,6.26,-1.06,898,-152,8134,0,0,-1
-12.76,6.25,-1.07,899,-148,8136,0,0,0
-12.76,6.23,-1.06,892,-138,8142,0,0,0
-12.76,6.21,-1.06,884,-145,8145,0,0,-1
-12.76,6.18,-1.05,888,-148,8148,0,0,0
-12.77,6.16,-1.06,879,-159,8157,0,0,0
-12.77,6.14,-1.06,873,-164,8152,0,0,0
-12.77,6.13,-1.05,884,-153,8157,0,0,0
-12.76,6.10,-1.04,881,-141,8149,0,1,0
-12.76,6.07,-1.04,877,-134,8145,-1,1,0
-12.77,6.04,-1.05,884,-148,8152,-1,1,0
-12.77,6.01,-1.06,871,-146,8158,-1,1,0
-12.77,5.99,-1.06,864,-144,8141,-1,1,0
-12.77,5.96,-1.06,858,-147,8140,-1,0,0
-12.77,5.94,-1.06,852,-143,8132,-1,0,0
-12.77,5.91,-1.07,847,-144,8131,-1,0,0
-12.77,5.89,-1.07,840,-153,8147,-1,0,0
-12.77,5.87,-1.08,836,-158,8127,0,0,-1
-12.77,5.86,-1.07,824,-155,8141,0,0,-1
-12.77,5.85,-1.07,825,-143,8158,-1,0,-1
-12.77,5.85,-1.07,828,-135,8155,-1,0,-1
-12.76,5.85,-1.07,824,-141,8155,-1,-1,-1
-12.75,5.85,-1.08,831,-143,8147,-1,0,-1
-12.74,5.84,-1.08,815,-157,8140,0,-1,-1
-12.74,5.85,-1.08,822,-173,8144,0,-1,-1
-12.74,5.86,-1.08,826,-179,8151,0,-1,-1
-12.74,5.87,-1.07,833,-168,8141,0,-1,-1
-12.73,5.89,-1.05,845,-146,8143,0,-1,-1
-12.73,5.90,-1.03,845,-123,8146,0,-1,-1
-12.73,5.91,-1.03,852,-115,8144,-1,-1,-1
-12.72,5.92,-1.03,846,-120,8147,-1,-1,-1
-12.72,5.93,-1.04,849,-150,8160,-1,-1,-1
-12.72,5.95,-1.04,847,-166,8161,0,-1,-1
-12.71,5.95,-1.03,848,-163,8153,0,-1,-1
-12.71,5.97,-1.03,855,-160,8140,0,-1,-1
-12.71,5.98,-1.01,855,-138,8137,0,-1,-1
-12.71,5.99,-1.01,852,-132,8141,-1,-1,0
-12.71,6.01,-1.02,859,-135,8157,-1,-1,0
-12.71,6.03,-1.02,861,-137,8150,-1,-1,0
-12.71,6.04,-1.03,863,-145,8151,-1,-1,-1
-12.71,6.06,-1.02,876,-155,8139,0,-1,-1
-12.71,6.07,-1.02,867,-158,8134,0,-1,0
-12.71,6.08,-1.02,872,-156,8143,0,-1,0
-12.71,6.10,-1.01,870,-150,8149,0,-1,-1
-12.71,6.11,-1.01,875,-137,8147,0,-1,-1
-12.71,6.13,-1.01,879,-131,8150,-1,-1,-1
-12.71,6.14,-1.02,883,-145,8155,-1,-1,0
-12.71,6.15,-1.02,878,-150,8155,-1,-1,0
-12.71,6.16,-1.02,878,-150,8158,0,-1,0
-12.71,6.17,-1.02,876,-139,8157,-1,-1,0
-12.71,6.17,-1.02,881,-127,8172,-1,-1,0
-12.71,6.18,-1.03,889,-125,8151,-1,-1,0
-12.72,6.19,-1.04,887,-133,8143,-1,-1,0
-12.72,6.19,-1.06,888,-148,8136,-1,-1,0
-12.72,6.20,-1.07,879,-165,8130,-1,-1,-1
-12.72,6.20,-1.07,866,-166,8133,-1,-1,0
-12.72,6.20,-1.08,872,-161,8134,-1,-1,0
-12.72,6.22,-1.08,878,-158,8142,-1,-1,0
-12.72,6.22,-1.08,885,-155,8149,-1,-1,-1
-12.73,6.23,-1.08,887,-155,8138,-1,-1,0
-12.73,6.24,-1.08,885,-153,8138,0,-1,0
-12.73,6.24,-1.08,880,-150,8140,-1,-1,0
-12.74,6.25,-1.08,876,-145,8136,-1,-1,0
-12.74,6.27,-1.08,886,-142,8141,-1,-1,0
-12.74,6.29,-1.09,903,-146,8147,0,-1,-1
-12.74,6.30,-1.08,895,-149,8150,0,-1,0
-12.74,6.32,-1.08,896,-156,8142,-1,-1,0
-12.74,6.33,-1.09,902,-166,8138,-1,-1,0
-12.75,6.34,-1.09,905,-175,8137,0,-1,0
-12.75,6.35,-1.08,915,-157,8147,0,-1,-1
-12.75,6.36,-1.07,906,-139,8160,0,-1,0
-12.76,6.37,-1.06,904,-129,8159,-1,-1,0
-12.76,6.37,-1.06,903,-129,8146,-1,-1,0
-12.76,6.39,-1.07,908,-152,8138,-1,-1,0
-12.77,6.39,-1.08,901,-171,8145,-1,-1,0
-12.77,6.41,-1.09,911,-178,8139,0,-1,0
-12.77,6.41,-1.09,909,-176,8135,0,-1,0
-12.77,6.42,-1.08,916,-166,8134,0,-1,-1
-12.77,6.43,-1.07,924,-150,8134,0,-1,-1
-12.77,6.44,-1.07,920,-147,8147,0,-1,0
-12.78,6.44,-1.07,920,-141,8141,0,-1,0
-12.78,6.44,-1.07,913,-146,8145,-1,-1,0
-12.78,6.44,-1.07,908,-147,8146,-1,-1,0
-12.79,6.46,-1.07,919,-154,8143,0,-1,0
-12.79,6.46,-1.07,921,-151,8142,0,-1,0
-12.79,6.47,-1.07,930,-153,8141,0,-1,0
-12.79,6.48,-1.07,934,-155,8133,0,-1,0
-12.79,6.48,-1.07,935,-154,8135,0,-1,0
-12.79,6.48,-1.06,923,-149,8122,0,0,-1
-12.79,6.48,-1.06,918,-147,8122,-1,-1,-1
-12.79,6.48,-1.06,925,-153,8131,0,-1,-1
-12.79,6.49,-1.05,928,-157,8144,0,-1,-1
-12.79,6.49,-1.05,932,-151,8148,0,-1,0
-12.78,6.49,-1.05,924,-151,8143,0,0,-1
-12.78,6.48,-1.05,923,-155,8137,0,0,-1
-12.78,6.48,-1.05,925,-146,8139,0,-1,-1
-12.78,6.48,-1.05,928,-131,8134,-1,0,0
-12.78,6.49,-1.05,926,-139,8146,-1,-1,0
-12.78,6.49,-1.05,940,-156,8134,-1,0,0
-12.79,6.49,-1.05,927,-163,8132,0,-1,0
-12.79,6.50,-1.06,925,-162,8139,0,-1,0
-12.80,6.51,-1.05,922,-131,8139,-1,-1,0
-12.79,6.52,-1.06,929,-123,8145,-1,-1,0
-12.79,6.53,-1.07,940,-150,8150,-1,-1,0
-12.80,6.53,-1.08,933,-158,8146,-1,-1,0
-12.80,6.54,-1.10,949,-157,8128,-1,0,0
-12.80,6.54,-1.10,941,-172,8130,-1,0,-1
-12.80,6.53,-1.10,946,-165,8136,0,0,-1
-12.80,6.53,-1.09,940,-147,8132,0,0,-1
-12.79,6.51,-1.09,926,-156,8130,-1,0,-1
-12.79,6.50,-1.10,931,-156,8142,0,0,0
-12.80,6.50,-1.10,930,-158,8144,0,0,0
-12.79,6.49,-1.10,920,-177,8128,0,0,-1
-12.80,6.49,-1.09,930,-132,8161,-1,-1,0
-12.80,6.48,-1.10,915,-141,8135,-1,0,0
-12.80,6.48,-1.11,920,-189,8136,0,0,0
-12.81,6.48,-1.11,926,-161,8147,-1,0,0
-12.81,6.47,-1.10,918,-138,8150,-1,0,0
-12.81,6.47,-1.10,917,-150,8151,-1,0,0
-12.81,6.46,-1.11,926,-156,8145,-1,0,0
-12.82,6.45,-1.11,927,-165,8140,-1,0,0
-12.82,6.44,-1.12,925,-171,8138,-1,0,0
-12.82,6.43,-1.13,929,-167,8123,-1,0,-1
-12.81,6.42,-1.13,925,-160,8134,0,0,-1
-12.81,6.39,-1.13,913,-163,8132,0,0,-1
-12.81,6.37,-1.13,905,-155,8142,-1,0,0
-12.81,6.35,-1.13,903,-165,8144,-1,0,0
-12.81,6.34,-1.13,909,-166,8149,0,0,0
-12.81,6.32,-1.13,920,-161,8139,0,0,-1
-12.80,6.30,-1.13,912,-160,8144,0,0,-1
-12.80,6.28,-1.12,900,-160,8145,0,0,-1
-12.80,6.25,-1.12,894,-151,8148,0,0,-1
-12.80,6.24,-1.12,897,-165,8139,0,0,-1
-12.80,6.22,-1.12,892,-155,8139,0,0,0
-12.80,6.21,-1.11,887,-155,8136,-1,0,0
-12.80,6.18,-1.12,881,-159,8139,-1,0,0
-12.80,6.16,-1.12,882,-161,8146,0,0,-1
-12.80,6.16,-1.12,884,-155,8149,0,0,-1
-12.80,6.14,-1.11,874,-150,8146,0,0,0
-12.80,6.12,-1.11,875,-155,8142,0,0,0
-12.80,6.10,-1.11,867,-153,8148,-1,0,0
-12.80,6.09,-1.11,869,-155,8155,-1,0,0
-12.80,6.07,-1.11,869,-157,8153,0,0,-1
-12.80,6.06,-1.11,873,-164,8140,-1,0,-1
-12.80,6.04,-1.11,869,-162,8145,0,0,-1
-12.80,6.03,-1.11,863,-160,8149,0,0,-1
-12.80,6.02,-1.11,859,-146,8149,0,0,-1
-12.79,6.01,-1.11,862,-138,8159,-1,0,-1
-12.79,6.00,-1.11,852,-152,8156,-1,0,-1
-12.79,5.99,-1.10,845,-152,8153,0,0,-1
-12.78,5.98,-1.10,849,-162,8148,0,0,-1
-12.78,5.98,-1.10,850,-163,8159,0,-1,-1
-12.78,5.98,-1.09,848,-153,8142,0,-1,0
-12.78,5.99,-1.08,848,-143,8142,0,-1,-1
-12.78,6.00,-1.08,846,-135,8150,-1,-1,0
-12.78,6.01,-1.08,854,-139,8147,0,-1,-1
-12.78,6.02,-1.07,858,-143,8141,0,-1,0
-12.77,6.03,-1.07,858,-157,8149,0,-1,-1
-12.77,6.05,-1.07,868,-156,8138,0,-1,-1
-12.76,6.06,-1.06,865,-154,8133,0,-1,-1
-12.76,6.07,-1.06,868,-154,8134,0,-1,-1
-12.76,6.08,-1.06,872,-148,8136,0,-1,-1
-12.76,6.09,-1.06,865,-150,8152,0,-1,-1
-12.76,6.10,-1.05,863,-148,8154,0,-1,-1
-12.76,6.11,-1.05,870,-143,8157,0,-1,-1
-12.76,6.12,-1.05,874,-153,8151,0,-1,-1
-12.76,6.13,-1.05,877,-152,8153,0,-1,-1
-12.76,6.14,-1.04,875,-146,8156,0,-1,-1
-12.76,6.14,-1.03,875,-131,8160,0,-1,-1
-12.75,6.15,-1.03,878,-131,8153,-1,-1,-1
-12.75,6.16,-1.03,880,-131,8155,-1,-1,0
-12.76,6.17,-1.04,881,-142,8155,-1,-1,0
-12.76,6.18,-1.04,882,-156,8147,-1,-1,0
-12.76,6.19,-1.04,887,-165,8154,0,-1,0
-12.76,6.19,-1.04,888,-162,8149,0,-1,-1
-12.76,6.20,-1.03,891,-146,8142,0,-1,-1
-12.75,6.20,-1.03,890,-137,8142,0,-1,-1
-12.75,6.21,-1.03,881,-138,8150,-1,-1,0
-12.76,6.21,-1.03,884,-145,8147,-1,-1,0
-12.76,6.22,-1.03,880,-143,8140,-1,-1,0
-12.76,6.22,-1.03,880,-147,8147,-1,-1,0
-12.76,6.22,-1.03,879,-141,8154,0,-1,0
-12.76,6.23,-1.03,884,-140,8143,0,-1,0
-12.76,6.24,-1.03,889,-142,8141,0,-1,0
-12.77,6.24,-1.03,894,-144,8135,0,-1,0
-12.77,6.25,-1.03,894,-144,8140,0,-1,0
-12.77,6.26,-1.03,890,-142,8130,0,-1,0
-12.77,6.26,-1.03,898,-147,8139,0,-1,0
-12.77,6.27,-1.02,895,-139,8144,-1,-1,0
-12.77,6.28,-1.03,894,-142,8147,-1,-1,0
-12.77,6.29,-1.03,898,-150,8142,-1,-1,0
-12.78,6.29,-1.03,896,-153,8135,0,-1,0
-12.78,6.30,-1.03,901,-149,8141,0,-1,0
-12.78,6.31,-1.03,905,-137,8137,0,-1,0
-12.78,6.31,-1.03,898,-132,8132,-1,-1,0
-12.78,6.32,-1.03,897,-135,8136,-1,-1,0
-12.78,6.33,-1.04,893,-139,8152,-1,-1,0
-12.78,6.33,-1.04,897,-148,8152,0,-1,0
-12.79,6.34,-1.04,906,-146,8141,0,-1,-1
-12.79,6.35,-1.04,909,-147,8139,-1,-1,0
-12.79,6.36,-1.04,907,-150,8145,-1,-1,0
-12.79,6.36,-1.04,907,-149,8156,-1,-1,0
-12.79,6.36,-1.04,906,-147,8149,0,-1,0
-12.79,6.37,-1.04,907,-147,8150,0,-1,0
-12.79,6.38,-1.04,909,-149,8140,0,-1,0
-12.79,6.38,-1.04,913,-143,8134,-1,-1,0
-12.79,6.39,-1.04,910,-153,8144,-1,-1,0
-12.79,6.40,-1.04,920,-154,8141,0,-1,0
-12.79,6.40,-1.04,910,-152,8136,0,-1,0
-12.79,6.40,-1.04,907,-145,8144,-1,-1,-1
-12.79,6.41,-1.05,917,-140,8148,-1,-1,0
-12.79,6.42,-1.05,913,-132,8149,-1,-1,0
-12.79,6.42,-1.05,910,-149,8155,0,-1,0
-12.80,6.42,-1.05,916,-143,8153,0,-1,0
-12.80,6.43,-1.05,917,-146,8150,-1,-1,0
-12.80,6.43,-1.06,920,-143,8150,0,-1,0
-12.80,6.44,-1.05,918,-142,8146,0,-1,0
-12.80,6.44,-1.05,913,-140,8140,0,-1,0
-12.80,6.45,-1.04,916,-132,8143,-1,-1,0
-12.81,6.45,-1.04,919,-134,8142,-1,-1,0
-12.81,6.45,-1.04,916,-140,8140,-1,-1,-1
-12.81,6.46,-1.05,916,-146,8137,-1,-1,0
-12.81,6.46,-1.05,914,-155,8134,0,-1,0
-12.81,6.46,-1.05,923,-156,8135,0,-1,-1
-12.81,6.46,-1.04,921,-150,8136,0,-1,0
-12.81,6.47,-1.03,934,-142,8133,0,-1,0
-12.81,6.47,-1.02,927,-129,8133,0,0,-1
-12.81,6.47,-1.02,928,-126,8134,-1,0,-1
-12.81,6.47,-1.02,924,-136,8144,-1,0,0
-12.81,6.46,-1.03,916,-153,8137,-1,0,-1
-12.81,6.45,-1.03,910,-149,8148,0,0,-1
-12.80,6.45,-1.03,917,-144,8148,0,0,-1
-12.81,6.46,-1.02,916,-137,8148,-1,0,0
-12.81,6.45,-1.02,922,-145,8138,-1,0,-1
-12.81,6.45,-1.02,928,-147,8130,-1,0,0
-12.81,6.45,-1.03,921,-149,8136,-1,-1,-1
-12.80,6.45,-1.03,934,-146,8132,0,0,-1
-12.80,6.45,-1.02,921,-136,8138,-1,0,0
-12.80,6.45,-1.02,925,-137,8139,-1,-1,0
-12.80,6.45,-1.03,926,-136,8144,-1,0,-1
-12.80,6.45,-1.03,925,-146,8141,-1,0,0
-12.80,6.44,-1.04,920,-154,8142,0,0,-1
-12.80,6.43,-1.03,917,-142,8138,0,0,-1
-12.80,6.43,-1.03,912,-134,8136,-1,0,0
-12.80,6.42,-1.03,914,-135,8142,-1,0,0
-12.80,6.42,-1.03,917,-149,8136,-1,0,0
-12.80,6.42,-1.04,916,-160,8143,-1,0,0
-12.80,6.41,-1.04,921,-162,8143,0,0,-1
-12.80,6.41,-1.04,926,-151,8138,0,0,-1
-12.80,6.41,-1.03,916,-143,8138,0,0,0
-12.80,6.40,-1.03,919,-133,8143,-1,0,0
-12.80,6.39,-1.03,919,-138,8158,-1,0,0
-12.80,6.39,-1.04,925,-143,8142,-1,0,0
-12.80,6.38,-1.04,920,-151,8136,0,0,0
-12.80,6.38,-1.04,916,-152,8136,0,0,0
-12.80,6.38,-1.04,919,-150,8136,0,0,-1
-12.80,6.37,-1.03,923,-148,8149,0,0,0
-12.80,6.36,-1.03,923,-142,8145,-1,0,-1
-12.80,6.36,-1.04,918,-142,8144,-1,0,0
-12.80,6.35,-1.05,918,-148,8144,-1,0,0
-12.80,6.33,-1.04,914,-152,8145,-1,0,0
-12.80,6.33,-1.05,911,-158,8163,0,0,0
-12.80,6.33,-1.05,913,-149,8168,0,0,-1
-12.80,6.32,-1.05,905,-144,8156,0,0,-1
-12.80,6.31,-1.05,910,-147,8147,-1,0,0
-12.80,6.30,-1.05,908,-143,8151,-1,0,0
-12.80,6.29,-1.05,905,-153,8158,-1,0,0
-12.80,6.28,-1.06,904,-167,8147,0,0,0
-12.80,6.27,-1.06,904,-157,8142,0,0,0
-12.80,6.26,-1.05,904,-146,8141,0,0,0
-12.80,6.25,-1.06,900,-141,8138,-1,0,0
-12.80,6.24,-1.05,900,-139,8145,-1,0,0
