Yaw,Pitch,Roll,AX,AY,AZ,GX,GY,GZ
-9.80,6.20,-5.68,878,-810,8125,0,-1,0
-9.80,6.20,-5.68,882,-813,8117,0,-1,0
-9.80,6.21,-5.68,873,-817,8115,-1,-1,0
-9.80,6.21,-5.68,877,-818,8119,0,-1,0
-9.81,6.21,-5.68,873,-806,8126,0,-1,0
-9.81,6.22,-5.67,877,-807,8129,0,-1,-1
-9.81,6.22,-5.67,867,-812,8128,0,-1,0
-9.80,6.22,-5.67,880,-814,8122,0,-1,-1
-9.81,6.23,-5.67,891,-811,8122,0,-1,0
-9.80,6.24,-5.67,890,-806,8122,0,-1,0
-9.80,6.25,-5.67,886,-806,8122,0,-1,0
-9.81,6.25,-5.66,885,-799,8124,-1,-1,0
-9.80,6.25,-5.67,888,-807,8113,-1,0,0
-9.80,6.25,-5.67,880,-803,8114,-1,-1,0
-9.80,6.25,-5.67,876,-802,8106,-1,-1,0
-9.81,6.25,-5.67,880,-810,8110,0,-1,0
-9.81,6.26,-5.66,888,-815,8115,0,-1,-1
-9.81,6.26,-5.66,881,-807,8132,0,-1,0
-9.81,6.26,-5.66,873,-802,8139,0,-1,0
-9.81,6.26,-5.66,874,-794,8138,-1,-1,0
-9.81,6.27,-5.66,877,-814,8132,-1,-1,0
-9.82,6.27,-5.67,889,-818,8116,0,-1,0
-9.82,6.29,-5.67,896,-815,8100,0,-1,0
-9.82,6.29,-5.66,889,-817,8115,0,-1,0
-9.82,6.30,-5.65,895,-810,8115,0,-1,-1
-9.82,6.30,-5.65,887,-801,8126,0,-1,-1
-9.82,6.30,-5.65,883,-800,8128,0,-1,0
-9.82,6.31,-5.65,886,-797,8117,0,-1,0
-9.82,6.31,-5.65,887,-810,8126,0,-1,-1
-9.83,6.32,-5.65,892,-814,8127,0,-1,0
-9.83,6.32,-5.64,891,-812,8124,0,-1,0
-9.83,6.32,-5.64,896,-798,8121,0,-1,0
-9.83,6.33,-5.64,896,-796,8121,0,-1,0
-9.83,6.33,-5.63,897,-789,8120,-1,-1,0
-9.83,6.33,-5.63,885,-788,8122,-1,-1,0
-9.83,6.34,-5.64,883,-790,8116,-1,-1,0
-9.83,6.34,-5.65,887,-805,8118,-1,-1,0
-9.83,6.34,-5.65,892,-814,8109,0,-1,0
-9.83,6.35,-5.65,896,-819,8117,0,-1,-1
-9.83,6.35,-5.65,906,-813,8122,0,-1,-1
-9.83,6.36,-5.64,907,-809,8126,0,-1,-1
-9.83,6.36,-5.64,910,-807,8112,0,-1,0
-9.83,6.36,-5.64,904,-808,8122,-1,-1,0
-9.83,6.36,-5.64,902,-815,8123,0,-1,-1
-9.83,6.37,-5.64,905,-812,8118,0,-1,0
-9.83,6.37,-5.64,896,-801,8123,0,-1,0
-9.83,6.37,-5.63,894,-807,8119,0,-1,0
-9.83,6.37,-5.63,899,-797,8122,0,-1,-1
-9.83,6.38,-5.63,899,-788,8125,0,-1,0
-9.84,6.38,-5.63,901,-791,8129,-1,-1,0
-9.84,6.39,-5.63,904,-802,8124,-1,-1,0
-9.84,6.39,-5.63,902,-801,8137,0,-1,0
-9.84,6.40,-5.63,906,-797,8120,0,-1,-1
-9.85,6.40,-5.63,905,-796,8113,-1,-1,0
-9.85,6.41,-5.63,906,-802,8111,-1,-1,0
-9.85,6.42,-5.63,908,-798,8110,-1,-1,0
-9.85,6.42,-5.64,910,-802,8118,-1,-1,0
-9.85,6.42,-5.64,910,-818,8121,0,-1,0
-9.85,6.42,-5.64,905,-806,8116,0,-1,-1
-9.85,6.42,-5.64,900,-812,8125,0,-1,0
-9.85,6.42,-5.63,900,-804,8130,0,-1,0
-9.85,6.43,-5.63,905,-807,8124,0,-1,0
-9.85,6.43,-5.63,906,-798,8124,0,-1,0
-9.85,6.44,-5.63,908,-793,8134,0,-1,0
-9.86,6.44,-5.63,912,-797,8123,0,-1,0
-9.86,6.44,-5.63,917,-798,8119,0,-1,0
-9.86,6.45,-5.62,915,-793,8122,0,-1,0
-9.86,6.45,-5.62,906,-797,8121,-1,-1,0
-9.86,6.45,-5.63,907,-803,8114,-1,-1,0
-9.87,6.46,-5.63,909,-812,8127,-1,-1,0
-9.86,6.46,-5.64,915,-815,8127,0,-1,0
-9.87,6.46,-5.63,920,-812,8118,0,-1,0
-9.87,6.47,-5.63,924,-812,8115,0,-1,0
-9.87,6.47,-5.62,920,-811,8114,0,0,0
-9.87,6.47,-5.62,922,-803,8119,0,0,0
-9.87,6.47,-5.62,915,-801,8129,-1,0,0
-9.87,6.46,-5.62,906,-801,8135,-1,-1,0
-9.87,6.46,-5.62,903,-807,8135,0,-1,0
-9.87,6.47,-5.63,918,-801,8134,0,-1,0
-9.87,6.48,-5.63,924,-806,8122,0,-1,0
-9.87,6.49,-5.62,934,-800,8117,0,-1,0
-9.88,6.48,-5.63,928,-808,8111,-1,-1,0
-9.88,6.49,-5.62,926,-803,8120,0,-1,0
-9.88,6.49,-5.62,913,-790,8121,0,-1,0
-9.88,6.49,-5.61,909,-790,8126,-1,-1,0
-9.88,6.49,-5.62,920,-796,8116,-1,-1,0
-9.88,6.50,-5.62,923,-805,8116,-1,-1,0
-9.88,6.50,-5.63,933,-808,8122,-1,0,0
-9.88,6.49,-5.63,926,-809,8115,0,0,-1
-9.88,6.49,-5.62,923,-801,8116,0,0,-1
-9.88,6.48,-5.62,916,-802,8122,0,0,-1
-9.88,6.47,-5.62,912,-792,8123,-1,0,0
-9.88,6.47,-5.62,915,-796,8121,-1,0,0
-9.88,6.46,-5.62,907,-794,8118,-1,0,0
-9.88,6.46,-5.63,909,-803,8118,-1,0,-1
-9.88,6.46,-5.64,913,-816,8107,0,-1,0
-9.88,6.46,-5.63,922,-813,8114,0,0,-1
-9.87,6.45,-5.63,925,-805,8112,0,0,-1
-9.87,6.44,-5.63,918,-798,8115,0,0,-1
-9.87,6.44,-5.62,920,-794,8124,0,-1,-1
-9.87,6.44,-5.62,911,-797,8117,0,0,0
-9.87,6.44,-5.62,916,-787,8108,-1,-1,0
-9.87,6.44,-5.62,921,-801,8106,-1,-1,-1
-9.87,6.44,-5.62,923,-800,8113,0,-1,0
-9.87,6.44,-5.62,928,-800,8121,0,0,0
-9.87,6.44,-5.61,929,-794,8122,0,0,-1
-9.87,6.43,-5.61,919,-792,8127,-1,0,0
-9.87,6.43,-5.62,906,-796,8125,-1,0,0
-9.87,6.42,-5.63,899,-812,8116,0,0,-1
-9.87,6.42,-5.62,897,-802,8123,0,-1,0
-9.87,6.42,-5.62,899,-797,8124,0,-1,-1
-9.87,6.42,-5.62,908,-799,8112,0,-1,-1
-9.87,6.42,-5.61,917,-798,8112,0,0,-1
-9.87,6.42,-5.61,917,-791,8125,-1,0,0
-9.87,6.42,-5.62,917,-803,8128,-1,0,0
-9.87,6.41,-5.62,917,-811,8119,0,0,-1
-9.87,6.41,-5.62,909,-806,8105,0,0,-1
-9.86,6.41,-5.62,911,-802,8106,0,-1,-1
-9.86,6.40,-5.62,907,-794,8111,-1,-1,-1
-9.86,6.40,-5.62,904,-786,8115,-1,0,0
-9.86,6.40,-5.62,902,-789,8120,-1,0,0
-9.86,6.39,-5.62,907,-802,8118,-1,0,0
-9.86,6.39,-5.62,907,-814,8124,-1,0,0
-9.86,6.39,-5.63,910,-821,8114,0,0,-1
-9.86,6.39,-5.62,919,-816,8119,0,0,-1
-9.86,6.38,-5.62,907,-799,8115,0,0,-1
-9.86,6.38,-5.62,908,-787,8123,-1,0,-1
-9.86,6.37,-5.61,906,-788,8136,-1,0,0
-9.86,6.37,-5.62,900,-789,8134,-1,0,0
-9.86,6.36,-5.62,894,-798,8135,-1,0,-1
-9.85,6.35,-5.63,894,-803,8130,-1,0,0
-9.85,6.35,-5.63,900,-810,8117,-1,0,-1
-9.85,6.35,-5.63,903,-809,8108,0,0,0
-9.85,6.35,-5.63,904,-810,8114,0,0,-1
-9.85,6.35,-5.62,897,-800,8127,0,0,0
-9.86,6.34,-5.62,896,-792,8120,0,0,-1
-9.86,6.33,-5.62,897,-790,8115,-1,0,-1
-9.86,6.33,-5.62,894,-796,8118,-1,0,0
-9.86,6.33,-5.62,897,-803,8111,-1,0,0
-9.85,6.32,-5.64,898,-814,8106,-1,0,0
-9.85,6.32,-5.64,905,-817,8111,0,0,-1
-9.85,6.31,-5.64,918,-803,8105,0,0,-1
-9.85,6.30,-5.63,898,-788,8126,-1,0,-1
-9.85,6.28,-5.64,887,-796,8128,-1,0,0
-9.85,6.27,-5.65,889,-807,8130,-1,0,0
-9.85,6.27,-5.65,886,-812,8135,-1,0,-1
-9.84,6.25,-5.66,886,-814,8133,-1,0,-1
-9.84,6.24,-5.66,883,-821,8120,0,0,-1
-9.84,6.24,-5.66,878,-813,8124,0,0,-1
-9.84,6.23,-5.65,877,-805,8109,0,0,-1
-9.84,6.23,-5.65,887,-796,8121,0,0,0
-9.83,6.22,-5.65,879,-793,8122,-1,0,-1
-9.83,6.22,-5.65,880,-799,8115,-1,0,0
-9.84,6.21,-5.65,880,-800,8118,-1,0,0
-9.84,6.21,-5.65,884,-805,8124,0,0,0
-9.84,6.21,-5.65,886,-803,8109,-1,0,0
-9.84,6.20,-5.65,882,-806,8121,0,0,-1
-9.84,6.20,-5.65,881,-797,8121,-1,0,0
-9.84,6.20,-5.65,878,-795,8130,-1,0,0
-9.84,6.20,-5.65,879,-801,8127,-1,0,0
-9.85,6.19,-5.65,870,-805,8130,-1,0,0
-9.85,6.19,-5.65,874,-808,8126,0,0,0
-9.85,6.19,-5.66,878,-809,8129,-1,0,0
-9.85,6.18,-5.66,876,-803,8131,0,0,0
-9.85,6.17,-5.66,876,-807,8123,-1,0,-1
-9.85,6.17,-5.66,878,-799,8128,0,0,-1
-9.85,6.16,-5.66,870,-795,8121,-1,0,0
-9.86,6.15,-5.66,856,-805,8117,0,0,0
-9.86,6.14,-5.66,858,-817,8127,0,0,0
-9.86,6.14,-5.66,865,-808,8130,0,0,0
-9.86,6.13,-5.65,871,-798,8132,-1,0,0
-9.86,6.13,-5.66,877,-809,8127,-1,0,-1
-9.86,6.12,-5.67,873,-806,8122,-1,0,-1
-9.86,6.12,-5.67,865,-797,8128,-1,0,0
-9.85,6.11,-5.67,872,-788,8132,-1,0,-1
-9.85,6.11,-5.67,871,-794,8134,-1,0,0
-9.85,6.09,-5.68,863,-808,8124,-1,0,0
-9.86,6.09,-5.69,858,-824,8126,-1,0,-1
-9.86,6.09,-5.69,863,-823,8128,0,-1,-1
-9.85,6.09,-5.68,857,-814,8121,0,-1,-1
-9.85,6.10,-5.68,861,-811,8115,0,-1,-1
-9.85,6.10,-5.67,875,-803,8120,0,-1,0
-9.85,6.11,-5.67,876,-797,8118,0,-1,-1
-9.85,6.11,-5.67,873,-799,8128,-1,0,0
-9.85,6.10,-5.67,871,-808,8126,-1,0,-1
-9.85,6.10,-5.67,861,-806,8117,-1,-1,0
-9.85,6.10,-5.67,860,-811,8119,0,-1,-1
-9.85,6.10,-5.67,860,-816,8117,0,-1,-1
-9.85,6.11,-5.67,863,-811,8119,0,-1,0
-9.85,6.12,-5.67,865,-808,8132,0,-1,-1
-9.84,6.12,-5.66,865,-790,8126,0,-1,-1
-9.84,6.12,-5.65,866,-787,8127,-1,-1,0
-9.85,6.12,-5.66,860,-788,8130,-1,-1,0
-9.85,6.12,-5.66,862,-799,8135,-1,-1,0
-9.85,6.12,-5.67,856,-819,8125,-1,-1,0
-9.85,6.12,-5.67,860,-826,8122,0,-1,0
-9.85,6.13,-5.67,867,-822,8119,0,-1,-1
-9.85,6.14,-5.65,875,-802,8116,0,-1,0
-9.85,6.14,-5.65,868,-796,8129,0,-1,-1
-9.85,6.14,-5.65,868,-799,8138,-1,-1,0
-9.85,6.14,-5.65,862,-804,8132,-1,-1,-1
-9.85,6.15,-5.66,863,-810,8132,-1,-1,0
-9.85,6.15,-5.66,870,-820,8116,0,-1,0
-9.86,6.15,-5.66,870,-813,8113,0,-1,0
-9.86,6.16,-5.66,868,-817,8119,0,-1,0
-9.86,6.16,-5.65,865,-807,8126,0,-1,-1
-9.86,6.17,-5.64,859,-797,8130,-1,-1,0
-9.86,6.17,-5.64,859,-799,8129,-1,-1,-1
-9.86,6.18,-5.64,864,-800,8123,0,-1,0
-9.86,6.18,-5.65,873,-805,8113,0,-1,-1
-9.86,6.19,-5.65,881,-809,8115,-1,-1,0
-9.86,6.19,-5.65,883,-809,8110,0,-1,0
-9.86,6.19,-5.65,880,-803,8122,0,-1,0
-9.86,6.20,-5.65,879,-803,8135,-1,-1,0
-9.86,6.20,-5.65,880,-805,8132,-1,-1,0
-9.86,6.20,-5.65,876,-817,8120,-1,-1,0
-9.86,6.21,-5.66,876,-818,8115,0,-1,0
-9.86,6.21,-5.66,878,-815,8118,0,-1,0
-9.86,6.21,-5.65,875,-809,8128,0,-1,0
-9.87,6.22,-5.64,882,-796,8126,0,-1,-1
-9.87,6.22,-5.64,878,-797,8129,0,-1,0
-9.87,6.23,-5.64,877,-793,8121,0,-1,0
-9.87,6.23,-5.64,882,-796,8115,0,-1,-1
-9.87,6.24,-5.64,887,-800,8120,-1,-1,0
-9.88,6.25,-5.64,891,-807,8132,0,-1,0
-9.88,6.25,-5.63,889,-813,8130,0,-1,0
-9.88,6.25,-5.63,885,-803,8125,0,-1,0
-9.88,6.26,-5.63,889,-799,8128,0,-1,-1
-9.88,6.26,-5.63,892,-794,8121,-1,-1,-1
-9.88,6.27,-5.63,890,-792,8121,-1,-1,0
-9.88,6.27,-5.63,886,-796,8112,-1,-1,0
-9.88,6.27,-5.64,881,-810,8120,-1,-1,0
-9.88,6.28,-5.64,886,-818,8128,0,-1,0
-9.88,6.29,-5.64,881,-814,8122,0,-1,-1
-9.88,6.29,-5.63,881,-806,8113,0,-1,-1
-9.88,6.30,-5.62,895,-801,8114,0,-1,-1
-9.88,6.31,-5.62,901,-797,8108,0,-1,0
-9.88,6.31,-5.62,899,-796,8122,-1,-1,0
-9.88,6.31,-5.62,899,-801,8134,-1,-1,0
-9.88,6.31,-5.62,892,-797,8122,0,-1,-1
-9.88,6.32,-5.62,890,-799,8119,0,-1,0
-9.89,6.32,-5.62,889,-799,8126,0,-1,0
-9.89,6.32,-5.61,903,-793,8129,0,-1,0
-9.89,6.34,-5.61,903,-796,8118,0,-1,0
-9.89,6.34,-5.61,908,-786,8121,0,-1,0
-9.89,6.34,-5.60,905,-791,8131,-1,-1,0
-9.89,6.34,-5.60,892,-789,8125,-1,-1,0
-9.89,6.35,-5.61,891,-799,8123,-1,-1,0
-9.90,6.34,-5.61,894,-806,8119,-1,-1,0
-9.90,6.35,-5.61,894,-811,8108,-1,-1,0
-9.90,6.36,-5.62,896,-807,8107,0,-1,0
-9.90,6.36,-5.62,899,-808,8116,0,-1,0
-9.90,6.36,-5.62,901,-794,8113,-1,-1,0
-9.90,6.36,-5.62,897,-796,8119,-1,-1,0
-9.90,6.37,-5.62,900,-803,8127,0,-1,0
-9.90,6.37,-5.62,899,-811,8123,0,-1,0
-9.90,6.37,-5.61,887,-806,8129,0,-1,0
-9.91,6.38,-5.60,895,-805,8122,0,-1,-1
-9.91,6.39,-5.60,904,-794,8117,0,-1,-1
-9.91,6.40,-5.59,909,-780,8120,0,-1,0
-9.91,6.40,-5.59,917,-782,8130,-1,-1,0
-9.91,6.40,-5.60,911,-794,8134,-1,-1,0
-9.92,6.40,-5.60,905,-809,8137,0,-1,0
-9.92,6.41,-5.60,904,-810,8123,0,-1,0
-9.92,6.42,-5.59,901,-799,8120,0,-1,-1
-9.92,6.42,-5.59,907,-795,8118,0,-1,0
-9.92,6.43,-5.59,911,-794,8116,0,-1,0
-9.92,6.43,-5.60,912,-796,8112,-1,-1,0
-9.92,6.44,-5.60,918,-804,8122,-1,-1,0
-9.93,6.44,-5.60,918,-807,8125,0,-1,0
-9.93,6.44,-5.60,912,-809,8110,0,-1,0
-9.93,6.44,-5.60,914,-801,8117,0,-1,0
-9.93,6.44,-5.60,919,-800,8110,0,-1,-1
-9.93,6.45,-5.59,920,-792,8112,-1,-1,0
-9.93,6.46,-5.59,921,-796,8109,0,-1,0
-9.93,6.46,-5.59,919,-797,8110,0,-1,0
-9.93,6.46,-5.59,922,-793,8118,0,-1,0
-9.93,6.47,-5.59,925,-794,8115,0,-1,0
-9.93,6.47,-5.59,913,-786,8122,0,-1,-1
-9.94,6.46,-5.59,910,-785,8120,-1,-1,0
-9.94,6.46,-5.59,908,-794,8117,-1,-1,0
-9.94,6.47,-5.59,911,-802,8120,-1,-1,0
-9.94,6.47,-5.60,917,-804,8122,-1,-1,0
-9.94,6.48,-5.60,924,-810,8128,0,-1,-1
-9.94,6.47,-5.59,938,-805,8132,0,0,-1
-9.94,6.46,-5.59,933,-800,8118,0,0,-1
-9.93,6.45,-5.59,928,-787,8121,0,0,-1
-9.93,6.44,-5.59,913,-785,8128,-1,0,-1
-9.93,6.43,-5.59,909,-786,8122,-1,0,-1
-9.93,6.42,-5.60,909,-792,8127,-1,0,-1
-9.93,6.42,-5.60,902,-798,8120,-1,-1,-1
-9.92,6.42,-5.59,915,-805,8121,0,-1,-1
-9.92,6.42,-5.59,917,-794,8118,0,0,-1
-9.92,6.42,-5.59,908,-793,8116,-1,0,-1
-9.92,6.41,-5.59,915,-818,8121,0,0,0
-9.92,6.40,-5.58,912,-801,8128,0,0,0
-9.93,6.40,-5.57,855,-749,8114,-1,-1,0
-9.94,6.42,-5.59,883,-789,8110,-1,-2,0
-9.95,6.45,-5.60,927,-856,8094,0,-1,0
-9.95,6.45,-5.58,922,-805,8113,0,0,-1
-9.95,6.45,-5.56,910,-767,8123,-1,0,-1
-9.94,6.44,-5.57,923,-790,8115,-1,0,-1
-9.94,6.44,-5.57,918,-786,8120,0,0,-1
-9.94,6.43,-5.57,921,-774,8118,-1,0,0
-9.94,6.42,-5.57,922,-781,8122,-1,0,0
-9.94,6.42,-5.58,911,-800,8127,-1,0,-1
-9.93,6.40,-5.59,893,-807,8119,0,0,-1
-9.93,6.40,-5.58,897,-800,8119,0,-1,-1
-9.93,6.40,-5.58,906,-796,8124,0,-1,-1
-9.93,6.40,-5.58,913,-793,8119,-1,0,0
-9.93,6.40,-5.58,925,-790,8120,0,0,-1
-9.93,6.40,-5.58,914,-794,8121,-1,0,-1
-9.93,6.39,-5.58,908,-807,8117,-1,0,-1
-9.93,6.38,-5.59,901,-801,8118,-1,0,0
-9.93,6.37,-5.59,894,-800,8125,-1,-1,0
-9.93,6.37,-5.59,905,-796,8120,-1,0,-1
-9.92,6.37,-5.59,911,-794,8119,-1,0,-1
-9.92,6.37,-5.60,908,-795,8119,-1,0,0
-9.92,6.37,-5.60,910,-795,8119,0,0,-1
-9.92,6.36,-5.60,909,-802,8122,-1,0,0
-9.92,6.35,-5.60,904,-803,8123,-1,0,-1
-9.92,6.35,-5.60,908,-806,8125,-1,0,-1
-9.91,6.33,-5.61,892,-810,8124,-1,0,-1
-9.91,6.33,-5.61,900,-820,8117,0,-1,0
-9.91,6.33,-5.61,901,-813,8121,-1,0,-1
-9.91,6.32,-5.61,897,-802,8117,-1,0,-1
-9.91,6.32,-5.62,903,-793,8119,-1,0,-1
-9.91,6.30,-5.62,885,-796,8129,-1,0,-1
-9.91,6.29,-5.62,898,-794,8136,-1,0,0
-9.91,6.29,-5.62,888,-793,8132,-1,0,0
-9.90,6.27,-5.64,887,-808,8138,-1,0,0
-9.91,6.27,-5.63,886,-822,8122,0,0,-1
-9.90,6.26,-5.64,896,-823,8113,0,0,-1
-9.91,6.25,-5.63,891,-804,8110,0,0,-1
-9.91,6.24,-5.63,901,-797,8109,-1,0,-1
-9.91,6.24,-5.63,889,-794,8106,-1,0,0
-9.91,6.23,-5.62,892,-794,8119,-1,0,-1
-9.91,6.22,-5.63,872,-785,8135,-1,0,0
-9.91,6.22,-5.64,872,-797,8139,-1,-1,0
-9.91,6.22,-5.64,875,-818,8123,-1,-1,0
-9.91,6.22,-5.64,890,-817,8125,0,-1,0
-9.91,6.22,-5.64,896,-800,8121,0,0,-1
-9.91,6.22,-5.63,894,-794,8131,-1,0,-1
-9.91,6.22,-5.64,900,-796,8120,0,0,0
-9.91,6.22,-5.63,895,-785,8123,-1,0,-1
-9.91,6.22,-5.64,890,-788,8133,-1,0,0
-9.91,6.21,-5.64,886,-801,8133,-1,0,0
-9.91,6.21,-5.65,881,-814,8125,-1,0,0
-9.91,6.20,-5.66,881,-819,8124,-1,0,-1
-9.91,6.20,-5.65,883,-810,8114,0,0,0
-9.91,6.19,-5.65,883,-797,8117,0,0,-1
-9.91,6.19,-5.65,884,-793,8122,-1,0,0
-9.91,6.19,-5.65,880,-801,8131,-1,0,0
-9.91,6.18,-5.65,865,-806,8133,-1,0,0
-9.91,6.17,-5.65,859,-811,8127,0,-1,0
-9.91,6.17,-5.65,870,-801,8136,-1,0,0
-9.91,6.17,-5.65,875,-805,8127,-1,0,0
-9.91,6.16,-5.65,871,-807,8112,-1,0,0
-9.91,6.16,-5.65,865,-801,8124,-1,0,0
-9.91,6.16,-5.65,867,-799,8128,0,0,-1
-9.91,6.15,-5.65,866,-803,8121,-1,0,0
-9.91,6.15,-5.66,860,-810,8117,-1,0,0
-9.91,6.15,-5.66,860,-807,8111,0,-1,0
-9.91,6.15,-5.66,868,-805,8120,-1,-1,0
-9.91,6.15,-5.66,877,-810,8121,0,0,0
-9.91,6.14,-5.66,879,-807,8117,0,0,-1
-9.91,6.14,-5.66,873,-804,8120,-1,0,0
-9.91,6.13,-5.66,870,-808,8119,-1,0,0
-9.91,6.13,-5.66,862,-805,8127,-1,0,-1
-9.91,6.12,-5.66,861,-803,8135,-1,0,-1
-9.91,6.12,-5.67,864,-810,8128,0,-1,-1
-9.91,6.12,-5.66,874,-805,8121,0,0,-1
-9.91,6.12,-5.66,878,-808,8118,0,-1,-1
-9.91,6.13,-5.66,878,-810,8123,0,-1,-1
-9.91,6.13,-5.66,868,-801,8118,0,-1,-1
-9.91,6.13,-5.66,870,-795,8119,-1,-1,0
-9.91,6.13,-5.66,866,-805,8125,0,-1,0
-9.91,6.13,-5.66,853,-814,8117,0,-1,-1
-9.91,6.14,-5.66,862,-813,8118,0,-1,-1
-9.90,6.15,-5.64,872,-793,8126,0,-1,0
-9.90,6.15,-5.64,876,-791,8117,-1,-1,0
-9.90,6.15,-5.64,866,-785,8108,-1,0,0
-9.90,6.14,-5.65,858,-801,8115,-1,-1,0
-9.91,6.15,-5.66,858,-814,8123,0,-1,0
-9.91,6.15,-5.65,856,-813,8130,0,-1,0
-9.91,6.16,-5.65,862,-815,8130,0,-1,-1
-9.91,6.17,-5.65,877,-809,8116,0,-1,-1
-9.91,6.18,-5.63,882,-799,8124,0,-1,0
-9.91,6.19,-5.63,887,-795,8120,0,-1,0
-9.91,6.20,-5.63,892,-794,8127,-1,-1,-1
-9.91,6.20,-5.63,879,-790,8139,-1,-1,0
-9.91,6.20,-5.64,880,-807,8137,-1,-1,-1
-9.91,6.20,-5.64,872,-815,8137,0,-1,0
-9.91,6.21,-5.64,873,-813,8125,0,-1,0
-9.91,6.22,-5.64,882,-814,8112,0,-1,0
-9.91,6.22,-5.63,882,-805,8111,0,-1,0
-9.91,6.22,-5.62,881,-795,8118,0,-1,0
-9.91,6.22,-5.62,877,-790,8121,-1,-1,0
-9.91,6.23,-5.62,881,-796,8127,-1,-1,0
-9.91,6.23,-5.63,882,-806,8132,-1,-1,0
-9.92,6.24,-5.63,884,-809,8137,-1,-1,0
-9.92,6.24,-5.64,884,-816,8130,-1,-1,0
-9.92,6.24,-5.64,879,-816,8113,0,-1,0
-9.92,6.24,-5.64,878,-814,8106,0,-1,0
-9.92,6.25,-5.63,883,-807,8112,0,-1,-1
-9.92,6.25,-5.63,885,-798,8121,0,-1,0
-9.92,6.26,-5.63,886,-800,8129,-1,-1,0
-9.93,6.26,-5.63,882,-798,8126,0,-1,0
-9.93,6.26,-5.63,882,-803,8130,0,-1,-1
-9.93,6.27,-5.62,886,-801,8123,0,-1,0
-9.93,6.28,-5.62,891,-795,8123,0,-1,0
-9.93,6.29,-5.62,898,-790,8119,0,-1,0
-9.94,6.29,-5.61,893,-790,8137,0,-1,0
-9.94,6.29,-5.61,888,-790,8145,0,-1,0
-9.94,6.30,-5.61,882,-792,8130,0,-1,-1
-9.94,6.31,-5.61,882,-802,8129,0,-1,-1
-9.93,6.32,-5.61,892,-796,8124,0,-1,0
-9.93,6.32,-5.61,902,-798,8114,-1,-1,0
-9.93,6.34,-5.61,906,-805,8112,-1,-1,0
-9.94,6.34,-5.61,903,-801,8122,0,-1,0
-9.94,6.34,-5.61,897,-805,8122,-1,-1,0
-9.94,6.34,-5.62,897,-810,8120,-1,-1,0
-9.94,6.34,-5.62,893,-806,8116,0,-1,0
-9.94,6.35,-5.62,901,-811,8118,-1,-1,0
-9.94,6.36,-5.62,899,-819,8117,0,-1,0
-9.95,6.36,-5.62,900,-818,8116,0,-1,0
-9.95,6.36,-5.62,895,-812,8120,0,-1,0
-9.95,6.37,-5.61,893,-811,8123,0,-1,0
-9.95,6.38,-5.61,901,-804,8118,-1,-1,0
-9.95,6.38,-5.61,904,-797,8122,0,-1,0
-9.95,6.38,-5.61,896,-800,8107,-1,-1,0
-9.95,6.39,-5.62,906,-818,8102,0,-1,0
-9.96,6.39,-5.60,903,-811,8111,0,-1,-1
-9.96,6.39,-5.59,893,-787,8120,0,-1,0
-9.96,6.40,-5.60,896,-782,8115,-1,-1,0
-9.97,6.41,-5.60,907,-785,8118,-1,-1,0
-9.97,6.41,-5.61,911,-818,8105,0,0,-1
-9.97,6.41,-5.60,896,-814,8108,0,-1,-1
-9.97,6.41,-5.60,898,-793,8108,0,-1,0
-9.97,6.41,-5.60,903,-780,8127,-1,-1,0
-9.98,6.42,-5.60,902,-785,8123,-1,-1,0
-9.98,6.43,-5.61,901,-802,8121,-1,-1,0
-9.98,6.43,-5.61,904,-810,8126,0,-1,0
-9.98,6.44,-5.61,906,-809,8118,0,-1,-1
-9.98,6.45,-5.60,915,-804,8115,0,-1,0
-9.98,6.46,-5.60,925,-794,8109,0,-1,0
-9.98,6.47,-5.59,929,-785,8125,0,-1,0
-9.98,6.47,-5.59,918,-787,8133,0,-1,0
-9.98,6.47,-5.59,914,-794,8134,-1,-1,0
-9.98,6.47,-5.59,910,-800,8134,0,-1,0
-9.99,6.48,-5.59,919,-797,8127,0,-1,0
-9.99,6.48,-5.58,916,-801,8134,0,-1,0
-9.99,6.48,-5.58,916,-799,8123,0,-1,0
-9.99,6.48,-5.58,921,-792,8119,0,-1,0
-10.00,6.49,-5.58,923,-787,8125,0,-1,0
-9.99,6.49,-5.57,915,-786,8130,-1,-1,-1
-10.00,6.49,-5.58,915,-784,8133,-1,-1,0
-10.00,6.50,-5.58,918,-793,8128,-1,-1,0
-10.00,6.50,-5.59,922,-803,8119,-1,-1,0
-10.00,6.50,-5.59,923,-804,8112,0,-1,0
-10.00,6.51,-5.59,921,-806,8109,0,-1,-1
-10.00,6.51,-5.59,920,-802,8121,0,-1,-1
-10.00,6.51,-5.58,927,-791,8120,0,-1,0
-10.00,6.51,-5.58,930,-790,8126,-1,0,0
-10.00,6.51,-5.58,925,-794,8130,0,0,0
-10.00,6.51,-5.58,918,-800,8124,0,0,-1
-10.00,6.50,-5.58,917,-795,8119,0,0,-1
-10.00,6.50,-5.57,921,-787,8119,0,0,-1
-9.99,6.49,-5.56,926,-784,8121,-1,0,-1
-9.99,6.49,-5.57,926,-787,8113,-1,0,-1
-9.99,6.49,-5.57,922,-791,8107,-1,0,0
-9.99,6.48,-5.57,919,-793,8124,0,-1,-1
-9.99,6.48,-5.57,911,-791,8125,0,0,-1
-9.98,6.48,-5.57,910,-791,8123,-1,0,-1
-9.98,6.48,-5.57,914,-795,8109,-1,-1,-1
-9.98,6.48,-5.58,919,-788,8106,-1,0,0
-9.98,6.47,-5.58,918,-789,8110,-1,0,-1
-9.97,6.47,-5.58,924,-796,8126,-1,0,-1
-9.98,6.46,-5.58,912,-795,8130,-1,0,-1
-9.97,6.45,-5.59,902,-796,8125,-1,-1,0
-9.97,6.45,-5.59,907,-807,8128,0,-1,0
-9.97,6.45,-5.59,917,-805,8117,0,-1,-1
-9.97,6.45,-5.58,922,-789,8117,0,0,-1
-9.97,6.44,-5.57,912,-783,8124,-1,0,-1
-9.97,6.44,-5.58,912,-795,8126,-1,0,-1
-9.97,6.44,-5.58,910,-793,8131,0,0,-1
-9.97,6.43,-5.58,906,-786,8131,-1,0,-1
-9.97,6.42,-5.58,906,-794,8116,-1,0,-1
-9.96,6.42,-5.58,905,-797,8108,0,0,-1
-9.96,6.42,-5.58,908,-797,8113,-1,0,0
-9.96,6.42,-5.58,904,-792,8127,-1,0,0
-9.96,6.41,-5.59,897,-803,8135,-1,0,-1
-9.96,6.41,-5.59,904,-807,8136,0,0,-1
-9.96,6.40,-5.59,902,-802,8120,0,0,-1
-9.96,6.40,-5.59,909,-799,8109,0,0,0
-9.96,6.39,-5.58,912,-794,8110,0,0,-1
-9.96,6.39,-5.58,912,-787,8121,0,0,-1
-9.96,6.38,-5.58,897,-777,8137,-1,0,0
-9.96,6.37,-5.58,890,-781,8126,-1,0,-1
-9.96,6.37,-5.58,890,-786,8136,-1,0,0
-9.95,6.37,-5.59,894,-795,8118,-1,-1,0
-9.95,6.37,-5.59,904,-813,8116,0,0,0
-9.95,6.37,-5.59,908,-803,8116,0,0,-1
-9.95,6.35,-5.59,899,-790,8126,-1,0,-1
-9.95,6.34,-5.59,901,-799,8130,0,0,-1
-9.95,6.34,-5.58,898,-793,8128,0,0,0
-9.95,6.33,-5.59,895,-782,8118,-1,0,0
-9.95,6.32,-5.59,890,-800,8113,-1,0,0
-9.95,6.32,-5.60,894,-807,8109,-1,0,0
-9.95,6.32,-5.60,892,-808,8102,0,0,-1
-9.95,6.32,-5.60,903,-805,8121,0,0,-1
-9.94,6.30,-5.60,896,-805,8127,0,0,-1
-9.94,6.30,-5.60,887,-789,8119,-1,0,-1
-9.94,6.29,-5.60,885,-786,8118,-1,0,0
-9.94,6.28,-5.60,879,-790,8131,-1,0,0
-9.94,6.27,-5.61,880,-803,8136,-1,0,-1
-9.94,6.27,-5.62,882,-808,8136,-1,0,0
-9.94,6.27,-5.62,884,-813,8118,0,0,0
-9.94,6.27,-5.61,883,-813,8106,0,0,-1
-9.94,6.26,-5.60,892,-806,8111,0,0,-1
-9.94,6.26,-5.59,895,-780,8109,0,0,-1
-9.93,6.25,-5.59,883,-776,8133,-1,0,-1
-9.93,6.25,-5.59,885,-770,8142,-1,0,0
-9.94,6.24,-5.60,878,-784,8126,-1,0,0
-9.94,6.24,-5.61,876,-793,8120,-1,0,0
-9.93,6.23,-5.63,881,-816,8122,-1,0,-1
-9.93,6.23,-5.63,885,-820,8103,-1,0,0
-9.93,6.22,-5.63,884,-821,8112,0,0,-1
-9.94,6.22,-5.62,880,-811,8120,0,0,0
-9.94,6.21,-5.62,885,-797,8120,0,0,0
-9.94,6.20,-5.62,874,-789,8125,-1,0,0
-9.94,6.19,-5.62,869,-794,8124,-1,0,0
-9.94,6.19,-5.63,872,-794,8124,-1,0,0
-9.94,6.18,-5.63,871,-800,8123,-1,0,-1
-9.94,6.18,-5.64,873,-805,8118,-1,0,0
-9.94,6.18,-5.64,878,-810,8123,0,0,-1
-9.94,6.17,-5.63,878,-800,8118,0,0,-1
-9.94,6.17,-5.63,875,-803,8128,-1,0,0
-9.94,6.17,-5.63,867,-803,8127,-1,0,0
-9.94,6.16,-5.63,871,-800,8118,-1,0,0
-9.94,6.16,-5.63,866,-799,8121,-1,0,-1
-9.94,6.16,-5.64,868,-804,8120,-1,-1,-1
-9.94,6.15,-5.65,863,-801,8117,-1,0,-1
-9.93,6.15,-5.65,863,-807,8123,-1,0,-1
-9.93,6.15,-5.65,859,-812,8127,0,-1,-1
-9.93,6.15,-5.65,872,-816,8125,-1,-1,0
-9.93,6.16,-5.65,875,-817,8129,0,-1,0
-9.93,6.16,-5.65,871,-812,8122,0,-1,-1
-9.93,6.16,-5.64,870,-798,8121,0,-1,0
-9.93,6.16,-5.63,870,-798,8127,0,-1,-1
-9.93,6.16,-5.63,869,-793,8131,-1,-1,0
-9.93,6.16,-5.63,869,-798,8130,-1,-1,0
-9.93,6.17,-5.64,868,-804,8135,-1,-1,0
-9.93,6.17,-5.64,866,-816,8125,0,-1,-1
-9.93,6.17,-5.64,864,-813,8136,0,-1,-1
-9.93,6.18,-5.64,871,-819,8124,0,-1,0
-9.93,6.18,-5.63,873,-806,8112,0,-1,-1
-9.93,6.19,-5.62,875,-795,8117,0,-1,0
-9.93,6.19,-5.61,879,-790,8118,0,-1,-1
-9.93,6.20,-5.62,873,-786,8128,-1,-1,0
-9.93,6.20,-5.62,875,-789,8130,-1,-1,0
-9.94,6.20,-5.62,865,-800,8133,-1,-1,0
-9.94,6.21,-5.63,871,-809,8119,-1,-1,0
-9.94,6.21,-5.63,877,-808,8132,0,-1,-1
-9.93,6.22,-5.63,884,-809,8128,0,-1,0
-9.93,6.22,-5.63,883,-803,8119,0,-1,0
-9.94,6.21,-5.63,878,-809,8115,0,-1,0
-9.94,6.22,-5.63,878,-809,8123,0,-1,0
-9.94,6.22,-5.63,874,-806,8126,-1,-1,-1
-9.94,6.23,-5.63,872,-810,8131,0,-1,-1
-9.94,6.24,-5.63,875,-807,8123,0,-1,-1
-9.94,6.25,-5.62,885,-808,8118,0,-1,0
-9.94,6.26,-5.62,890,-803,8115,0,-1,0
-9.94,6.26,-5.62,889,-804,8111,0,-1,0
-9.94,6.26,-5.61,888,-793,8121,0,-1,0
-9.94,6.26,-5.61,881,-797,8128,-1,-1,0
-9.95,6.26,-5.62,880,-796,8128,-1,-1,0
-9.95,6.27,-5.62,879,-800,8114,0,-1,0
-9.95,6.27,-5.62,872,-800,8116,-1,-1,0
-9.95,6.27,-5.62,876,-804,8109,0,-1,0
-9.95,6.28,-5.62,884,-797,8113,0,-1,0
-9.95,6.28,-5.62,888,-799,8124,0,-1,0
-9.95,6.29,-5.62,892,-803,8124,-1,-1,0
-9.95,6.29,-5.62,890,-807,8119,0,-1,0
-9.96,6.29,-5.62,895,-806,8123,0,-1,0
-9.96,6.29,-5.61,890,-802,8128,0,-1,0
-9.96,6.30,-5.61,889,-800,8122,0,-1,0
-9.96,6.31,-5.61,892,-806,8126,0,-1,0
-9.96,6.31,-5.61,896,-802,8127,0,-1,0
-9.96,6.32,-5.60,899,-801,8118,0,-1,-1
-9.96,6.32,-5.59,893,-789,8120,0,-1,0
-9.96,6.32,-5.59,898,-788,8116,-1,0,0
-9.96,6.32,-5.59,901,-797,8113,0,-1,0
-9.96,6.32,-5.59,887,-803,8105,0,-1,0
-9.96,6.33,-5.60,888,-805,8118,-1,-1,0
-9.96,6.33,-5.60,890,-811,8117,0,-1,0
-9.96,6.34,-5.60,890,-802,8124,0,-1,0
-9.96,6.34,-5.59,900,-797,8124,0,-1,0
-9.96,6.35,-5.59,902,-788,8123,-1,-1,0
-9.97,6.36,-5.59,899,-783,8111,-1,-1,0
-9.97,6.36,-5.59,897,-790,8121,-1,-1,0
-9.97,6.36,-5.60,890,-797,8118,-1,-1,0
-9.97,6.36,-5.60,891,-802,8115,-1,-1,0
-9.97,6.37,-5.60,894,-808,8118,-1,-1,0
-9.98,6.38,-5.60,896,-815,8120,0,-1,0
-9.98,6.39,-5.59,898,-805,8107,0,-1,0
-9.98,6.39,-5.59,906,-798,8111,0,-1,0
-9.98,6.39,-5.58,912,-792,8116,0,-1,0
-9.98,6.39,-5.58,899,-795,8126,0,-1,0
-9.98,6.39,-5.58,892,-797,8136,0,-1,0
-9.98,6.40,-5.58,893,-796,8129,-1,-1,0
-9.98,6.40,-5.58,897,-791,8116,-1,-1,0
-9.98,6.41,-5.58,899,-792,8113,0,-1,-1
-9.98,6.41,-5.58,904,-797,8122,0,-1,0
-9.99,6.41,-5.58,908,-792,8112,0,-1,0
-9.99,6.42,-5.58,908,-796,8119,-1,-1,0
-9.99,6.42,-5.58,906,-792,8131,-1,-1,0
-9.99,6.42,-5.58,904,-786,8135,-1,-1,0
-9.99,6.43,-5.58,909,-786,8122,-1,-1,0
-10.00,6.43,-5.59,913,-795,8114,-1,-1,0
-10.00,6.44,-5.59,906,-803,8108,-1,-1,0
-10.00,6.45,-5.60,907,-816,8120,0,-1,-1
-10.00,6.46,-5.59,912,-807,8115,0,-1,-1
-10.01,6.46,-5.58,907,-794,8114,0,-1,-1
-10.01,6.46,-5.57,910,-784,8110,0,-1,-1
-10.01,6.47,-5.57,914,-783,8120,0,-1,0
-10.00,6.48,-5.57,913,-784,8123,-1,-1,0
-10.01,6.48,-5.57,918,-795,8118,-1,-1,0
-10.01,6.49,-5.57,919,-800,8105,0,-1,0
-10.02,6.49,-5.57,921,-798,8110,0,-1,0
-10.02,6.49,-5.57,926,-785,8116,0,-1,0
-10.02,6.50,-5.56,921,-782,8115,-1,-1,0
-10.02,6.50,-5.56,920,-782,8116,-1,-1,0
-10.03,6.50,-5.57,916,-789,8119,-1,-1,0
-10.02,6.51,-5.57,918,-797,8123,-1,-1,0
-10.02,6.51,-5.57,920,-800,8121,0,-1,0
-10.03,6.51,-5.57,917,-800,8112,0,-1,0
-10.03,6.51,-5.57,927,-796,8108,0,-1,0
-10.03,6.52,-5.57,931,-801,8114,0,-1,0
-10.03,6.52,-5.56,932,-797,8119,0,-1,0
-10.03,6.53,-5.56,929,-794,8125,0,-1,0
-10.04,6.53,-5.56,924,-797,8120,0,-1,0
-10.04,6.52,-5.56,927,-791,8118,0,0,0
-10.04,6.51,-5.55,924,-784,8123,-1,0,-1
-10.03,6.51,-5.56,925,-787,8124,-1,0,-1
-10.03,6.50,-5.56,917,-786,8117,0,0,-1
-10.03,6.49,-5.56,913,-787,8118,-1,0,-1
-10.03,6.48,-5.56,915,-789,8119,-1,0,0
-10.03,6.48,-5.56,917,-785,8126,-1,0,-1
-10.03,6.47,-5.56,910,-785,8124,-1,0,-1
-10.03,6.47,-5.56,912,-789,8123,-1,-1,0
-10.03,6.48,-5.56,909,-809,8115,0,-1,0
-10.03,6.48,-5.56,906,-800,8111,0,-1,0
-10.03,6.48,-5.56,924,-798,8121,0,0,0
-10.03,6.48,-5.56,923,-789,8125,-1,0,-1
-10.03,6.47,-5.56,912,-785,8119,0,0,-1
-10.03,6.46,-5.56,916,-789,8109,0,0,0
-10.03,6.46,-5.55,907,-778,8116,-1,0,-1
-10.03,6.45,-5.55,900,-769,8119,-1,0,0
-10.03,6.45,-5.55,905,-787,8123,-1,0,0
-10.03,6.45,-5.55,903,-792,8120,-1,0,0
-10.03,6.44,-5.55,910,-800,8105,0,0,-1
-10.03,6.44,-5.55,917,-795,8103,0,0,-1
-10.02,6.44,-5.55,922,-789,8116,0,0,-1
-10.02,6.43,-5.54,914,-788,8116,0,0,-1
-10.02,6.42,-5.54,904,-782,8123,-1,0,-1
-10.02,6.42,-5.54,897,-788,8124,-1,0,-1
-10.01,6.41,-5.54,897,-794,8123,-1,0,-1
-10.01,6.41,-5.55,905,-803,8126,0,0,0
-10.02,6.41,-5.55,899,-809,8123,0,-1,0
-10.02,6.41,-5.54,900,-794,8116,0,0,-1
-10.02,6.41,-5.54,880,-774,8110,-1,-1,0
-10.03,6.43,-5.55,903,-788,8125,-1,-1,0
-10.03,6.44,-5.55,897,-785,8121,-1,-1,0
-10.03,6.44,-5.56,892,-802,8123,0,-1,0
-10.04,6.45,-5.56,912,-807,8139,0,-1,0
-10.04,6.46,-5.56,900,-783,8132,-1,-1,0
-10.05,6.47,-5.56,922,-767,8112,-1,-1,0
-10.05,6.48,-5.57,949,-785,8102,-1,0,-1
-10.04,6.46,-5.56,947,-780,8114,-1,0,-1
-10.03,6.45,-5.56,931,-777,8127,-1,0,-1
-10.03,6.43,-5.57,905,-778,8131,-1,0,0
-10.03,6.42,-5.57,895,-787,8122,-1,0,0
-10.04,6.41,-5.57,894,-789,8114,-1,0,0
-10.04,6.41,-5.57,897,-789,8111,0,0,-1
-10.03,6.41,-5.57,896,-791,8115,0,0,-1
-10.03,6.40,-5.56,914,-780,8109,0,0,-1
-10.03,6.40,-5.56,919,-781,8114,-1,0,0
-10.03,6.39,-5.57,919,-785,8119,-1,0,0
-10.03,6.38,-5.57,911,-791,8127,-1,0,0
-10.03,6.36,-5.57,895,-792,8127,0,0,-1
-10.03,6.36,-5.57,897,-790,8130,0,0,-1
-10.03,6.35,-5.57,893,-798,8124,-1,0,0
-10.03,6.35,-5.58,900,-801,8108,-1,0,-1
-10.03,6.34,-5.58,901,-798,8117,-1,0,-1
-10.02,6.34,-5.58,904,-788,8120,-1,0,-1
-10.02,6.33,-5.58,885,-789,8129,-1,0,0
-10.02,6.32,-5.59,889,-809,8133,-1,0,0
-10.02,6.32,-5.60,895,-807,8124,0,0,-1
-10.02,6.31,-5.59,892,-797,8127,0,0,0
-10.02,6.31,-5.59,893,-791,8125,-1,0,0
-10.02,6.30,-5.59,886,-791,8138,0,0,-1
-10.02,6.29,-5.59,883,-798,8133,0,0,-1
-10.02,6.29,-5.59,884,-790,8124,-1,0,0
-10.02,6.29,-5.59,895,-785,8121,-1,0,0
-10.02,6.28,-5.59,894,-790,8115,-1,0,-1
-10.02,6.27,-5.60,897,-796,8109,-1,0,0
-10.02,6.26,-5.61,889,-805,8118,-1,0,-1
-10.01,6.26,-5.61,887,-805,8126,-1,0,-1
-10.01,6.26,-5.61,890,-811,8127,-1,0,0
-10.01,6.25,-5.62,887,-813,8123,0,0,-1
-10.01,6.25,-5.61,887,-814,8120,0,0,-1
-10.01,6.24,-5.61,892,-805,8117,0,0,-1
-10.01,6.24,-5.60,889,-796,8119,-1,0,-1
-10.01,6.23,-5.61,886,-792,8115,-1,0,0
-10.01,6.21,-5.61,870,-794,8110,-1,0,0
-10.01,6.21,-5.61,873,-797,8132,-1,0,-1
-10.01,6.20,-5.61,862,-795,8128,-1,0,-1
-10.01,6.19,-5.61,860,-799,8127,-1,0,0
-10.01,6.19,-5.61,865,-799,8117,0,-1,0
-10.01,6.19,-5.61,880,-793,8112,-1,0,0
-10.01,6.19,-5.61,889,-795,8113,-1,0,0
-10.01,6.19,-5.62,892,-789,8121,-1,0,-1
-10.01,6.17,-5.62,873,-783,8130,-1,0,-1
-10.00,6.16,-5.63,865,-800,8123,-1,0,0
-10.00,6.16,-5.64,863,-812,8128,-1,0,0
-10.00,6.16,-5.64,867,-814,8117,-1,0,-1
-10.00,6.15,-5.65,876,-811,8111,-1,0,-1
-9.99,6.14,-5.65,879,-816,8106,0,0,-1
-9.99,6.14,-5.65,881,-818,8102,0,0,-1
-9.99,6.14,-5.64,879,-808,8117,0,0,-1
-9.99,6.13,-5.64,875,-793,8126,-1,0,-1
-9.99,6.13,-5.64,857,-796,8126,-1,-1,0
-9.99,6.13,-5.65,851,-818,8112,0,-1,0
-9.99,6.14,-5.65,863,-817,8114,0,-1,0
-9.99,6.15,-5.64,863,-795,8130,0,-1,-1
-9.99,6.16,-5.64,872,-790,8121,-1,-1,0
-9.99,6.16,-5.63,873,-794,8117,0,-1,0
-10.00,6.16,-5.63,866,-798,8120,0,-1,0
-10.00,6.17,-5.62,863,-800,8130,0,-1,-1
-10.00,6.18,-5.62,870,-798,8130,0,-1,-1
-10.00,6.19,-5.62,870,-801,8123,0,-1,0
-10.00,6.20,-5.62,877,-804,8119,0,-1,0
-10.00,6.21,-5.61,879,-803,8111,0,-1,0
-10.00,6.21,-5.61,876,-803,8109,-1,-1,-1
-10.00,6.22,-5.61,890,-809,8111,0,-1,-1
-10.00,6.22,-5.61,881,-802,8121,0,-1,0
-10.00,6.22,-5.61,875,-805,8131,-1,-1,-1
-10.01,6.23,-5.61,874,-802,8139,0,-1,0
-10.01,6.24,-5.61,880,-799,8127,-1,-1,0
-10.01,6.24,-5.61,880,-796,8123,0,-1,0
-10.01,6.25,-5.61,888,-797,8116,-1,-1,0
-10.01,6.25,-5.61,899,-805,8131,0,-1,-1
-10.01,6.25,-5.60,891,-795,8148,0,0,-1
-10.01,6.24,-5.61,859,-791,8133,-1,-1,0
-10.01,6.25,-5.61,870,-817,8109,0,-1,0
-10.01,6.26,-5.61,895,-805,8118,0,-1,-1
-10.01,6.26,-5.60,880,-786,8129,-1,-1,-1
-10.01,6.26,-5.61,876,-802,8122,-1,-1,0
-10.00,6.26,-5.62,884,-816,8119,0,-1,0
-10.01,6.26,-5.61,871,-809,8115,0,-1,0
-10.01,6.27,-5.62,868,-816,8121,-1,-1,0
-10.01,6.28,-5.61,889,-830,8115,0,-1,-1
-10.01,6.28,-5.60,888,-807,8112,0,-1,-1
-10.01,6.29,-5.59,894,-775,8113,0,-1,-1
-10.01,6.30,-5.58,897,-772,8118,-1,-1,0
-10.01,6.30,-5.58,895,-783,8136,-1,-1,0
-10.02,6.30,-5.58,893,-778,8133,-1,-1,0
-10.03,6.30,-5.59,877,-795,8136,-1,-1,0
-10.03,6.31,-5.59,879,-808,8132,0,-1,0
-10.03,6.31,-5.59,882,-807,8129,0,-1,0
-10.03,6.32,-5.58,880,-803,8120,0,-1,0
-10.04,6.33,-5.57,892,-796,8106,0,-1,0
-10.04,6.34,-5.56,899,-782,8112,0,-1,0
-10.04,6.34,-5.56,901,-777,8128,0,-1,0
-10.04,6.34,-5.57,898,-785,8124,-1,-1,0
-10.04,6.35,-5.57,891,-788,8120,-1,-1,0
-10.04,6.35,-5.57,893,-798,8124,-1,-1,0
-10.04,6.36,-5.57,893,-812,8123,0,-1,0
-10.04,6.36,-5.57,894,-807,8119,0,-1,-1
-10.04,6.36,-5.57,898,-794,8119,0,-1,0
-10.04,6.37,-5.56,899,-789,8114,0,-1,0
-10.04,6.37,-5.56,900,-789,8120,-1,-1,0
-10.05,6.38,-5.56,901,-795,8125,-1,-1,0
-10.05,6.38,-5.56,899,-797,8131,0,-1,0
-10.05,6.38,-5.56,893,-794,8121,0,-1,-1
-10.05,6.39,-5.56,888,-792,8126,0,-1,-1
-10.05,6.39,-5.56,893,-794,8108,0,-1,-1
-10.05,6.39,-5.56,897,-795,8101,0,-1,0
-10.05,6.40,-5.55,897,-788,8108,0,-1,0
-10.05,6.40,-5.55,895,-790,8118,-1,-1,-1
-10.05,6.40,-5.55,902,-784,8120,0,-1,0
-10.05,6.41,-5.55,904,-791,8119,0,-1,-1
-10.06,6.41,-5.55,903,-798,8123,0,-1,0
-10.06,6.41,-5.55,900,-794,8129,0,-1,0
-10.06,6.42,-5.55,900,-790,8121,0,-1,-1
-10.06,6.42,-5.55,901,-785,8136,-1,-1,0
-10.06,6.42,-5.55,904,-790,8134,-1,-1,0
-10.06,6.42,-5.55,905,-794,8128,-1,-1,0
-10.06,6.43,-5.55,902,-799,8127,-1,-1,-1
-10.06,6.44,-5.55,899,-800,8116,0,-1,0
-10.06,6.44,-5.54,904,-793,8121,0,-1,0
-10.06,6.44,-5.54,906,-788,8126,0,-1,-1
-10.06,6.45,-5.54,913,-782,8128,0,-1,0
-10.06,6.46,-5.54,918,-792,8125,-1,-1,0
-10.06,6.46,-5.54,916,-791,8119,0,-1,0
-10.07,6.46,-5.54,907,-794,8118,0,-1,0
-10.07,6.46,-5.54,900,-793,8108,0,-1,0
-10.07,6.46,-5.53,899,-792,8109,0,-1,-1
-10.07,6.48,-5.52,908,-782,8109,0,-1,0
-10.07,6.49,-5.53,912,-777,8116,-1,-1,0
-10.08,6.49,-5.53,914,-781,8118,-1,-1,0
-10.08,6.49,-5.53,912,-788,8113,-1,-1,0
-10.08,6.49,-5.53,909,-798,8121,-1,-1,0
-10.08,6.50,-5.54,907,-805,8135,0,-1,0
-10.08,6.50,-5.53,906,-805,8123,0,-1,0
-10.08,6.51,-5.53,911,-802,8123,0,-1,0
-10.09,6.51,-5.52,918,-791,8114,0,-1,0
-10.09,6.52,-5.52,921,-781,8119,0,-1,0
-10.09,6.53,-5.52,923,-779,8125,-1,-1,0
-10.09,6.53,-5.52,920,-779,8125,-1,-1,0
-10.10,6.53,-5.52,912,-792,8129,-1,-1,0
-10.10,6.53,-5.52,912,-806,8124,0,-1,0
-10.10,6.53,-5.52,909,-806,8117,0,-1,0
-10.11,6.53,-5.52,914,-798,8112,0,-1,0
-10.11,6.54,-5.52,914,-796,8100,0,-1,0
-10.11,6.54,-5.52,915,-794,8111,0,-1,0
-10.11,6.55,-5.51,924,-785,8115,0,-1,0
-10.11,6.55,-5.51,921,-769,8111,0,-1,0
-10.11,6.55,-5.51,916,-777,8119,-1,-1,0
-10.11,6.56,-5.51,927,-790,8124,-1,-1,0
-10.12,6.55,-5.52,924,-795,8110,-1,-1,0
-10.12,6.56,-5.53,924,-807,8107,-1,-1,0
-10.12,6.55,-5.53,932,-810,8107,0,0,-1
-10.12,6.55,-5.53,933,-799,8105,0,0,-1
-10.11,6.55,-5.52,927,-805,8121,0,0,-1
-10.12,6.55,-5.52,919,-783,8138,-1,0,0
-10.12,6.54,-5.52,920,-784,8132,-1,0,0
-10.12,6.54,-5.53,912,-801,8127,-1,0,0
-10.12,6.53,-5.53,910,-796,8128,0,0,-1
-10.11,6.53,-5.52,912,-791,8121,0,-1,0
-10.11,6.53,-5.53,925,-799,8109,0,-1,-1
-10.11,6.53,-5.52,918,-786,8115,0,0,-1
-10.11,6.52,-5.52,910,-774,8116,-1,0,-1
-10.11,6.52,-5.52,917,-787,8118,-1,0,0
-10.11,6.52,-5.52,919,-793,8126,-1,-1,-1
-10.11,6.52,-5.52,918,-786,8117,0,-1,-1
-10.11,6.52,-5.52,917,-786,8117,-1,-1,0
-10.11,6.52,-5.52,916,-788,8121,0,-1,0
-10.11,6.51,-5.52,914,-784,8130,0,0,-1
-10.11,6.51,-5.52,923,-778,8127,-1,0,0
-10.11,6.51,-5.52,929,-781,8122,-1,0,0
-10.11,6.51,-5.52,914,-785,8117,-1,0,-1
-10.11,6.50,-5.52,907,-794,8125,0,-1,-1
-10.11,6.50,-5.52,904,-794,8129,0,-1,-1
-10.11,6.50,-5.52,910,-794,8125,0,-1,-1
-10.11,6.50,-5.51,918,-788,8123,0,-1,0
-10.11,6.50,-5.51,917,-781,8123,0,0,-1
-10.11,6.50,-5.51,919,-783,8119,-1,-1,-1
-10.11,6.50,-5.51,917,-777,8110,-1,0,0
-10.11,6.49,-5.51,909,-778,8110,-1,0,0
-10.11,6.49,-5.52,907,-795,8116,-1,0,0
-10.11,6.49,-5.52,901,-798,8119,0,-1,0
-10.11,6.48,-5.52,900,-784,8126,0,-1,0
-10.11,6.49,-5.52,907,-786,8128,-1,-1,-1
-10.11,6.49,-5.52,918,-774,8124,-1,0,-1
-10.11,6.48,-5.52,917,-778,8115,-1,0,0
-10.11,6.47,-5.53,920,-784,8120,-1,0,0
-10.11,6.46,-5.53,907,-797,8129,-1,0,0
-10.11,6.45,-5.54,896,-806,8130,-1,0,0
-10.11,6.45,-5.55,898,-817,8124,0,-1,-1
-10.11,6.45,-5.54,900,-812,8117,0,-1,-1
-10.11,6.45,-5.53,917,-796,8109,0,0,-1
-10.11,6.44,-5.53,909,-784,8114,-1,0,0
-10.11,6.43,-5.53,915,-776,8111,-1,0,0
-10.11,6.43,-5.54,905,-790,8124,-1,0,-1
-10.11,6.42,-5.53,896,-798,8130,-1,0,0
-10.11,6.41,-5.53,889,-793,8139,0,0,-1
-10.10,6.41,-5.53,885,-791,8134,0,-1,-1
-10.10,6.41,-5.53,897,-793,8113,0,-1,-1
-10.10,6.41,-5.53,906,-792,8112,0,0,0
-10.10,6.40,-5.53,901,-782,8116,-1,0,-1
-10.10,6.39,-5.53,898,-780,8124,-1,0,0
-10.11,6.39,-5.53,894,-787,8128,-1,0,0
-10.11,6.39,-5.54,888,-792,8134,-1,-1,0
-10.11,6.38,-5.54,893,-790,8136,-1,-1,0
-10.11,6.38,-5.54,890,-796,8134,-1,-1,0
-10.11,6.38,-5.55,894,-799,8111,0,0,-1
-10.11,6.38,-5.55,897,-795,8104,0,0,0
-10.11,6.37,-5.55,897,-791,8112,0,0,0
-10.11,6.36,-5.54,895,-786,8128,-1,0,-1
-10.11,6.36,-5.54,898,-793,8130,0,0,-1
-10.11,6.35,-5.54,888,-788,8129,0,0,-1
-10.11,6.34,-5.54,885,-792,8132,0,0,0
-10.11,6.34,-5.53,891,-785,8135,0,0,0
-10.11,6.34,-5.53,895,-778,8127,0,0,-1
-10.11,6.33,-5.53,892,-777,8117,-1,0,0
-10.11,6.32,-5.53,891,-776,8132,-1,0,0
-10.11,6.32,-5.53,879,-783,8128,0,0,-1
-10.11,6.32,-5.53,875,-786,8130,-1,0,-1
-10.11,6.31,-5.54,879,-790,8127,-1,0,-1
-10.11,6.31,-5.54,886,-788,8126,-1,0,-1
-10.11,6.30,-5.54,884,-791,8124,-1,0,0
-10.11,6.30,-5.55,893,-797,8124,-1,0,0
-10.11,6.29,-5.55,891,-792,8123,-1,0,0
-10.11,6.28,-5.56,883,-798,8124,-1,0,0
-10.11,6.28,-5.56,883,-799,8124,-1,0,0
-10.11,6.26,-5.56,876,-799,8124,-1,0,-1
-10.11,6.26,-5.56,872,-796,8125,-1,0,0
-10.11,6.25,-5.57,877,-799,8123,-1,0,0
-10.11,6.24,-5.57,871,-796,8127,-1,0,-1
-10.11,6.23,-5.57,878,-791,8126,-1,0,-1
-10.11,6.23,-5.57,878,-799,8129,-1,0,0
-10.11,6.22,-5.57,876,-804,8134,0,0,-1
-10.11,6.21,-5.57,866,-797,8130,0,0,-1
-10.11,6.21,-5.56,869,-784,8127,-1,-1,0
-10.11,6.21,-5.57,875,-784,8122,-1,0,-1
-10.11,6.21,-5.58,878,-788,8115,-1,0,0
-10.11,6.19,-5.58,867,-795,8126,-1,0,-1
-10.10,6.18,-5.58,850,-801,8132,0,0,-1
-10.11,6.18,-5.58,848,-788,8128,-1,-1,0
-10.11,6.19,-5.59,868,-802,8121,-1,-1,-1
-10.10,6.20,-5.60,879,-814,8107,0,-1,-1
-10.10,6.20,-5.59,881,-812,8099,0,-1,-1
-10.10,6.20,-5.59,890,-809,8100,0,-1,-1
-10.10,6.20,-5.58,882,-791,8110,0,-1,-1
-10.10,6.20,-5.58,873,-794,8118,0,0,-1
-10.10,6.20,-5.58,869,-792,8136,-1,-1,-1
-10.10,6.20,-5.58,856,-795,8130,0,-1,-1
-10.09,6.21,-5.58,855,-805,8133,-1,-1,-1
-10.10,6.21,-5.58,865,-810,8114,0,-1,0
-10.10,6.21,-5.58,874,-807,8109,0,-1,-1
-10.10,6.22,-5.57,880,-801,8112,0,-1,-1
-10.09,6.22,-5.57,886,-794,8116,0,-1,-1
-10.10,6.22,-5.56,871,-788,8120,-1,-1,0
-10.10,6.22,-5.57,867,-788,8127,-1,-1,0
-10.10,6.23,-5.57,867,-793,8131,-1,-1,-1
-10.10,6.23,-5.58,872,-806,8116,-1,-1,0
-10.10,6.24,-5.59,879,-817,8114,0,-1,0
-10.11,6.24,-5.59,878,-816,8104,0,-1,0
-10.11,6.24,-5.59,877,-812,8135,0,-1,0
-10.11,6.25,-5.58,877,-797,8130,0,-1,-1
-10.10,6.25,-5.57,863,-789,8132,0,-1,-1
-10.11,6.25,-5.57,861,-792,8133,-1,-1,0
-10.11,6.26,-5.57,870,-789,8121,0,-1,0
-10.11,6.26,-5.57,874,-795,8121,0,-1,-1
-10.11,6.27,-5.57,883,-805,8116,0,-1,0
-10.11,6.28,-5.56,884,-792,8113,0,-1,0
-10.11,6.28,-5.56,883,-790,8118,0,-1,-1
-10.11,6.28,-5.56,886,-791,8123,0,-1,0
-10.11,6.29,-5.55,885,-792,8117,0,-1,0
-10.11,6.29,-5.55,875,-795,8115,-1,-1,0
-10.11,6.30,-5.55,881,-789,8109,0,-1,0
-10.12,6.31,-5.55,884,-789,8112,0,-1,0
-10.12,6.31,-5.55,887,-787,8115,-1,-1,0
-10.12,6.31,-5.55,889,-792,8128,-1,-1,0
-10.12,6.31,-5.55,884,-797,8121,-1,-1,0
-10.12,6.31,-5.56,883,-804,8120,-1,-1,0
-10.12,6.32,-5.56,878,-805,8120,0,-1,0
-10.12,6.32,-5.56,884,-798,8115,0,-1,0
-10.12,6.33,-5.55,887,-799,8107,0,-1,0
-10.13,6.33,-5.56,890,-802,8121,0,-1,0
-10.13,6.33,-5.56,886,-805,8120,0,-1,0
-10.13,6.34,-5.56,885,-803,8124,0,-1,-1
-10.13,6.34,-5.54,888,-791,8120,0,-1,-1
-10.13,6.35,-5.54,893,-778,8129,0,-1,0
-10.13,6.36,-5.54,899,-777,8121,-1,-1,0
-10.14,6.36,-5.53,899,-776,8115,0,-1,0
-10.14,6.37,-5.54,901,-787,8111,-1,-1,0
-10.13,6.38,-5.55,898,-796,8124,-1,-1,0
-10.13,6.38,-5.55,894,-806,8115,0,-1,-1
-10.14,6.38,-5.55,884,-812,8121,0,-1,0
-10.14,6.39,-5.54,893,-810,8113,0,-1,0
-10.14,6.40,-5.54,897,-805,8111,0,-1,0
-10.14,6.40,-5.53,902,-792,8106,0,-1,-1
-10.14,6.40,-5.53,906,-781,8112,0,-1,0
-10.15,6.40,-5.53,904,-779,8108,-1,-1,0
-10.15,6.40,-5.53,894,-787,8118,-1,-1,0
-10.15,6.40,-5.53,888,-786,8117,-1,-1,0
-10.15,6.41,-5.53,887,-793,8115,0,-1,0
-10.15,6.41,-5.53,891,-797,8113,0,-1,-1
-10.15,6.41,-5.53,899,-790,8119,0,-1,0
-10.15,6.42,-5.52,905,-789,8116,0,-1,-1
-10.15,6.43,-5.52,906,-784,8121,0,-1,0
-10.16,6.43,-5.52,905,-785,8123,0,-1,0
-10.16,6.43,-5.52,903,-779,8132,-1,-1,0
-10.16,6.43,-5.52,904,-790,8133,-1,-1,0
-10.16,6.43,-5.53,901,-789,8130,-1,-1,0
-10.16,6.44,-5.53,895,-803,8125,-1,-1,0
-10.16,6.44,-5.53,892,-800,8124,0,-1,0
-10.16,6.44,-5.53,894,-800,8124,0,-1,0
-10.16,6.45,-5.52,901,-792,8113,0,-1,0
-10.16,6.45,-5.51,901,-781,8120,-1,-1,0
-10.17,6.45,-5.52,906,-784,8132,-1,-1,0
-10.17,6.45,-5.52,905,-790,8136,-1,-1,0
-10.17,6.46,-5.52,905,-807,8135,0,-1,0
-10.17,6.47,-5.52,903,-813,8127,0,-1,-1
-10.17,6.48,-5.50,908,-786,8122,0,-1,0
-10.18,6.48,-5.49,907,-757,8129,-1,-1,0
-10.19,6.51,-5.50,932,-775,8126,-1,-1,0
-10.18,6.50,-5.51,938,-800,8119,-1,0,-1
-10.18,6.50,-5.52,910,-806,8121,0,-1,-1
-10.19,6.50,-5.51,893,-802,8120,0,-1,0
-10.18,6.50,-5.51,900,-801,8127,0,-1,0
-10.19,6.52,-5.51,914,-799,8124,0,-1,0
-10.19,6.53,-5.50,923,-785,8129,0,-1,0
-10.19,6.53,-5.50,928,-787,8125,-1,-1,0
-10.19,6.53,-5.50,919,-789,8120,0,-1,0
-10.20,6.54,-5.50,915,-789,8114,0,-1,0
-10.20,6.54,-5.50,917,-786,8129,0,-1,0
-10.20,6.54,-5.50,913,-786,8126,0,-1,0
-10.20,6.54,-5.50,903,-780,8123,-1,-1,0
-10.21,6.55,-5.50,910,-786,8120,0,-1,0
-10.21,6.55,-5.50,913,-779,8111,0,-1,0
-10.21,6.55,-5.49,914,-784,8115,0,-1,0
-10.21,6.56,-5.49,928,-785,8118,0,-1,0
-10.21,6.56,-5.48,920,-784,8118,0,-1,0
-10.21,6.56,-5.48,921,-789,8118,-1,-1,0
-10.21,6.57,-5.49,919,-788,8119,0,-1,0
-10.21,6.57,-5.49,918,-787,8119,0,-1,0
-10.21,6.58,-5.48,914,-780,8116,0,-1,0
-10.22,6.58,-5.48,928,-773,8116,-1,-1,0
-10.22,6.58,-5.48,929,-773,8111,-1,-1,0
-10.22,6.58,-5.49,924,-776,8122,-1,-1,0
-10.22,6.58,-5.49,920,-785,8120,-1,-1,0
-10.23,6.58,-5.49,917,-792,8115,-1,-1,0
-10.23,6.59,-5.50,926,-794,8112,0,-1,0
-10.23,6.59,-5.49,925,-801,8115,0,-1,0
-10.23,6.59,-5.49,924,-798,8116,0,-1,-1
-10.23,6.59,-5.48,931,-783,8112,0,0,-1
-10.23,6.58,-5.47,929,-773,8114,0,0,-1
-10.23,6.58,-5.48,931,-782,8126,-1,0,-1
-10.23,6.58,-5.48,923,-778,8132,-1,0,-1
-10.23,6.57,-5.48,915,-789,8129,-1,-1,0
-10.23,6.57,-5.49,919,-797,8127,0,-1,-1
-10.23,6.57,-5.49,920,-798,8120,0,-1,0
-10.23,6.56,-5.48,924,-787,8118,0,0,-1
-10.22,6.56,-5.47,918,-773,8139,0,-1,-1
-10.22,6.56,-5.47,924,-778,8131,-1,0,-1
-10.22,6.56,-5.47,926,-773,8135,-1,0,0
-10.22,6.56,-5.47,925,-767,8135,-1,0,-1
-10.22,6.55,-5.48,918,-781,8132,-1,0,-1
-10.22,6.54,-5.49,915,-796,8127,-1,0,-1
-10.22,6.54,-5.49,918,-803,8122,0,-1,-1
-10.22,6.54,-5.49,926,-797,8112,0,0,-1
-10.21,6.53,-5.49,916,-792,8120,0,0,-1
-10.21,6.53,-5.49,913,-783,8126,-1,0,-1
-10.21,6.52,-5.49,906,-774,8120,-1,0,0
-10.21,6.52,-5.49,911,-785,8122,-1,0,0
-10.21,6.52,-5.49,912,-791,8116,0,0,-1
-10.21,6.51,-5.49,908,-792,8108,0,0,-1
-10.21,6.50,-5.49,914,-787,8115,0,0,-1
-10.21,6.50,-5.49,902,-787,8110,0,0,0
-10.21,6.50,-5.49,908,-789,8109,0,0,-1
-10.21,6.49,-5.48,916,-780,8118,0,0,-1
-10.21,6.48,-5.48,907,-778,8128,-1,0,-1
-10.21,6.48,-5.48,900,-786,8118,-1,0,-1
-10.21,6.48,-5.49,906,-787,8112,-1,-1,-1
-10.21,6.48,-5.49,915,-790,8110,-1,0,-1
-10.21,6.48,-5.50,921,-795,8116,-1,0,0
-10.21,6.47,-5.50,916,-790,8122,-1,0,0
-10.20,6.46,-5.49,919,-786,8129,-1,0,0
-10.20,6.44,-5.50,904,-778,8138,-1,0,-1
-10.20,6.43,-5.51,890,-785,8130,-1,0,0
-10.20,6.43,-5.51,897,-805,8130,-1,0,-1
-10.20,6.43,-5.51,900,-806,8127,0,0,-1
-10.20,6.42,-5.51,902,-795,8129,0,0,-1
-10.20,6.42,-5.51,903,-792,8123,0,0,-1
-10.19,6.41,-5.50,906,-783,8113,0,0,-1
-10.20,6.41,-5.50,906,-780,8111,0,-1,0
-10.20,6.41,-5.49,894,-762,8114,-1,-1,0
-10.20,6.41,-5.49,897,-768,8122,-1,-1,0
-10.20,6.41,-5.50,908,-790,8111,-1,0,-1
-10.20,6.39,-5.50,893,-798,8118,0,0,0
-10.20,6.38,-5.50,885,-782,8123,-1,-1,0
-10.20,6.38,-5.51,901,-782,8119,-1,-1,0
-10.20,6.38,-5.51,902,-788,8121,0,0,0
-10.20,6.38,-5.50,897,-774,8124,-1,0,-1
-10.20,6.37,-5.51,891,-781,8126,-1,0,-1
-10.20,6.37,-5.51,888,-793,8127,-1,0,0
-10.20,6.36,-5.52,889,-796,8130,-1,0,0
-10.20,6.36,-5.52,888,-805,8125,0,-1,0
-10.20,6.36,-5.52,890,-812,8118,0,-1,-1
-10.20,6.36,-5.51,900,-792,8123,0,0,-1
-10.20,6.36,-5.51,904,-788,8125,0,0,-1
-10.20,6.36,-5.51,911,-776,8118,-1,0,-1
-10.20,6.36,-5.51,903,-774,8134,-1,0,0
-10.20,6.35,-5.51,892,-791,8137,-1,0,0
-10.20,6.34,-5.52,887,-795,8129,-1,0,0
-10.20,6.33,-5.52,886,-795,8132,0,0,0
-10.20,6.33,-5.52,891,-802,8133,-1,0,0
-10.20,6.33,-5.52,887,-797,8129,0,0,0
-10.20,6.32,-5.52,889,-792,8126,0,0,0
-10.20,6.32,-5.52,896,-783,8121,0,0,0
-10.20,6.31,-5.52,902,-775,8115,-1,0,0
-10.20,6.31,-5.52,888,-774,8127,-1,0,0
-10.21,6.30,-5.53,883,-788,8126,-1,0,0
-10.21,6.29,-5.54,881,-807,8138,-1,-1,0
-10.21,6.29,-5.54,876,-801,8126,-1,0,0
-10.21,6.28,-5.55,876,-813,8124,0,0,-1
-10.21,6.27,-5.55,879,-810,8114,0,0,-1
-10.21,6.27,-5.55,884,-796,8116,0,0,-1
-10.21,6.27,-5.55,881,-790,8117,-1,0,0
-10.21,6.26,-5.55,878,-792,8123,-1,0,0
-10.21,6.25,-5.55,869,-791,8129,0,0,0
-10.21,6.25,-5.54,863,-793,8129,0,0,0
-10.21,6.24,-5.54,859,-791,8126,0,0,-1
-10.21,6.23,-5.54,859,-784,8130,-1,0,0
-10.21,6.23,-5.54,866,-781,8132,-1,0,-1
-10.21,6.22,-5.54,876,-778,8123,-1,0,0
-10.21,6.22,-5.54,874,-782,8124,-1,0,0
-10.21,6.21,-5.55,870,-793,8118,-1,0,0
-10.21,6.21,-5.55,868,-799,8126,-1,0,-1
-10.21,6.20,-5.55,868,-798,8108,-1,0,-1
-10.21,6.20,-5.55,866,-797,8112,-1,-1,0
-10.21,6.20,-5.55,869,-804,8116,-1,-1,-1
-10.20,6.20,-5.56,870,-792,8120,-1,0,0
-10.20,6.20,-5.56,865,-799,8123,-1,-1,-1
-10.21,6.20,-5.57,863,-802,8111,-1,0,0
-10.20,6.19,-5.57,862,-807,8126,0,-1,-1
-10.20,6.20,-5.57,864,-806,8127,0,-1,-1
-10.20,6.20,-5.56,859,-797,8131,0,-1,-1
-10.20,6.20,-5.55,863,-793,8121,0,-1,-1
-10.20,6.21,-5.55,873,-797,8118,0,-1,0
-10.20,6.22,-5.55,875,-791,8122,-1,-1,0
-10.20,6.22,-5.56,879,-799,8122,-1,-1,0
-10.20,6.23,-5.56,877,-803,8115,0,-1,0
-10.20,6.23,-5.55,873,-801,8112,0,-1,0
-10.21,6.24,-5.55,871,-794,8115,0,-1,0
-10.21,6.24,-5.54,864,-790,8111,0,-1,0
-10.21,6.24,-5.54,861,-783,8120,-1,-1,0
-10.21,6.25,-5.55,870,-797,8125,-1,-1,0
-10.21,6.25,-5.56,875,-812,8125,-1,-1,0
-10.21,6.26,-5.57,878,-814,8131,0,-1,0
-10.21,6.26,-5.56,877,-823,8119,0,-1,-1
-10.21,6.27,-5.55,880,-806,8123,0,-1,-1
-10.21,6.27,-5.54,876,-775,8128,0,-1,0
-10.21,6.27,-5.54,880,-781,8117,-1,-1,0
-10.21,6.27,-5.55,873,-796,8119,-1,-1,-1
-10.21,6.27,-5.55,863,-794,8134,-1,-1,-1
-10.21,6.27,-5.55,866,-793,8140,0,-1,0
-10.21,6.27,-5.55,870,-795,8131,0,-1,-1
-10.21,6.27,-5.55,880,-795,8119,-1,-1,-1
-10.21,6.28,-5.54,879,-786,8109,0,-1,0
-10.21,6.28,-5.54,875,-790,8111,0,-1,-1
-10.22,6.29,-5.54,877,-786,8116,0,-1,0
-10.22,6.29,-5.54,875,-786,8116,-1,-1,0
-10.22,6.30,-5.54,872,-789,8114,-1,-1,0
-10.22,6.30,-5.54,876,-800,8118,-1,-1,0
-10.22,6.31,-5.55,889,-803,8107,-1,-1,0
-10.22,6.32,-5.55,895,-809,8108,-1,-1,0
-10.22,6.32,-5.56,899,-813,8111,0,-1,0
-10.22,6.32,-5.56,891,-807,8118,0,-1,0
-10.22,6.32,-5.55,887,-801,8116,0,-1,-1
-10.22,6.32,-5.55,881,-794,8128,0,-1,0
-10.22,6.32,-5.55,874,-792,8121,0,-1,0
-10.22,6.33,-5.55,876,-790,8118,0,-1,0
-10.23,6.33,-5.55,889,-794,8120,0,-1,0
-10.23,6.34,-5.54,887,-792,8121,0,-1,0
-10.23,6.35,-5.53,893,-787,8128,0,-1,0
-10.23,6.35,-5.54,891,-784,8127,0,-1,0
-10.23,6.35,-5.54,892,-787,8123,0,-1,0
-10.23,6.35,-5.54,897,-793,8111,0,-1,0
-10.23,6.36,-5.54,890,-796,8117,0,-1,0
-10.23,6.36,-5.54,895,-795,8124,-1,-1,0
-10.23,6.37,-5.54,892,-792,8124,0,-1,0
-10.23,6.37,-5.53,895,-789,8128,-1,-1,0
-10.24,6.37,-5.54,894,-790,8120,-1,-1,0
-10.24,6.38,-5.54,896,-796,8130,-1,-1,0
-10.24,6.38,-5.54,892,-797,8135,-1,-1,0
-10.25,6.38,-5.54,884,-801,8133,0,-1,0
-10.25,6.39,-5.54,888,-804,8127,0,-1,-1
-10.24,6.39,-5.53,900,-796,8126,0,-1,-1
-10.24,6.39,-5.53,902,-781,8124,-1,-1,0
-10.25,6.40,-5.53,904,-785,8112,0,-1,0
-10.25,6.40,-5.53,894,-793,8119,-1,-1,0
-10.25,6.40,-5.53,894,-798,8122,0,-1,0
-10.25,6.40,-5.53,887,-791,8123,0,-1,-1
-10.25,6.40,-5.52,883,-781,8125,-1,-1,-1
-10.25,6.41,-5.52,891,-784,8117,0,-1,0
-10.25,6.42,-5.52,895,-789,8111,-1,-1,0
-10.26,6.43,-5.52,910,-792,8106,-1,-1,0
-10.26,6.43,-5.53,912,-797,8112,-1,-1,0
-10.26,6.43,-5.53,901,-806,8122,0,-1,0
-10.26,6.43,-5.53,896,-810,8139,0,-1,0
-10.25,6.44,-5.53,887,-805,8122,0,-1,0
-10.26,6.44,-5.52,896,-793,8105,0,-1,0
-10.26,6.45,-5.51,907,-790,8103,0,-1,0
-10.26,6.46,-5.51,910,-777,8113,0,-1,0
-10.26,6.47,-5.51,918,-774,8116,-1,-1,0
-10.26,6.47,-5.51,911,-779,8127,-1,-1,0
-10.26,6.47,-5.51,910,-790,8129,-1,-1,0
-10.26,6.47,-5.51,907,-790,8128,-1,-1,0
-10.26,6.48,-5.52,908,-790,8124,0,-1,0
-10.27,6.49,-5.51,916,-796,8116,0,-1,0
-10.27,6.49,-5.50,917,-793,8119,0,-1,0
-10.27,6.50,-5.50,917,-784,8115,0,-1,0
-10.28,6.51,-5.50,920,-773,8110,0,-1,0
-10.28,6.51,-5.50,913,-773,8110,0,-1,0
-10.28,6.51,-5.49,906,-769,8114,-1,-1,0
-10.28,6.52,-5.50,906,-783,8117,-1,-1,0
-10.28,6.52,-5.50,908,-788,8116,0,-1,0
-10.28,6.52,-5.49,911,-779,8111,0,-1,0
-10.28,6.53,-5.50,919,-786,8102,-1,-1,-1
-10.29,6.54,-5.50,924,-809,8102,0,-1,0
-10.29,6.54,-5.49,912,-788,8128,0,-1,0
-10.29,6.54,-5.49,915,-768,8134,-1,-1,0
-10.29,6.55,-5.49,907,-774,8130,-1,-1,0
-10.29,6.55,-5.50,912,-794,8118,0,-1,-1
-10.30,6.56,-5.50,913,-793,8110,0,-1,0
-10.30,6.56,-5.49,915,-789,8117,0,-1,0
-10.30,6.56,-5.49,923,-787,8120,0,-1,0
-10.30,6.57,-5.48,925,-776,8116,0,-1,0
-10.30,6.57,-5.48,918,-780,8125,-1,0,0
-10.30,6.57,-5.48,914,-787,8120,0,-1,-1
-10.30,6.57,-5.48,920,-789,8115,-1,-1,-1
-10.30,6.57,-5.48,929,-788,8109,0,0,-1
-10.30,6.56,-5.48,931,-779,8107,-1,0,-1
-10.30,6.56,-5.48,937,-783,8107,0,0,0
-10.30,6.55,-5.48,932,-787,8105,-1,0,0
-10.30,6.55,-5.49,919,-780,8114,-1,0,0
-10.30,6.54,-5.49,915,-779,8126,-1,0,0
-10.30,6.54,-5.49,915,-782,8115,0,0,0
-10.30,6.54,-5.49,907,-783,8115,-1,0,-1
-10.30,6.53,-5.49,904,-788,8121,0,-1,-1
-10.30,6.53,-5.49,909,-788,8125,-1,0,-1
-10.29,6.52,-5.49,918,-779,8123,0,-1,-1
-10.29,6.52,-5.49,929,-785,8120,0,0,-1
-10.29,6.52,-5.48,928,-777,8116,0,0,-1
-10.29,6.52,-5.48,920,-777,8107,-1,0,0
-10.29,6.51,-5.48,922,-781,8106,-1,0,0
-10.29,6.50,-5.48,909,-790,8116,0,0,-1
-10.29,6.50,-5.48,914,-786,8116,0,0,-1
-10.29,6.50,-5.48,911,-784,8114,-1,-1,-1
-10.29,6.50,-5.48,912,-790,8108,0,0,-1
-10.28,6.50,-5.48,910,-779,8116,0,0,-1
-10.28,6.49,-5.47,911,-774,8125,-1,0,-1
-10.28,6.49,-5.47,917,-773,8126,-1,0,-1
-10.28,6.48,-5.47,911,-769,8134,-1,0,-1
-10.28,6.47,-5.48,906,-776,8127,-1,0,0
-10.28,6.47,-5.49,904,-786,8122,-1,0,0
-10.28,6.47,-5.49,905,-782,8125,0,0,0
-10.28,6.46,-5.49,909,-787,8117,0,0,0
-10.28,6.46,-5.49,917,-786,8116,0,-1,-1
-10.28,6.46,-5.48,922,-786,8117,0,0,-1
-10.27,6.45,-5.47,922,-773,8127,0,0,-1
-10.27,6.45,-5.47,920,-777,8127,-1,0,-1
-10.27,6.44,-5.47,909,-770,8127,-1,0,0
-10.27,6.43,-5.48,903,-781,8136,-1,0,0
-10.27,6.43,-5.48,894,-791,8131,-1,0,-1
-10.27,6.42,-5.48,884,-799,8118,0,-1,-1
-10.27,6.42,-5.48,893,-795,8126,0,0,-1
-10.27,6.41,-5.47,904,-788,8119,0,0,0
-10.27,6.41,-5.47,907,-777,8118,-1,0,0
-10.27,6.41,-5.47,907,-765,8111,-1,0,0
-10.27,6.40,-5.48,910,-773,8118,-1,0,-1
-10.27,6.39,-5.48,902,-771,8110,-1,0,-1
-10.27,6.38,-5.49,888,-784,8106,-1,0,0
-10.27,6.38,-5.50,892,-807,8101,-1,0,0
-10.27,6.38,-5.51,895,-810,8104,0,0,0
-10.27,6.38,-5.50,907,-798,8096,0,0,-1
-10.27,6.38,-5.50,911,-797,8114,0,0,-1
-10.27,6.37,-5.50,903,-785,8122,0,0,-1
-10.27,6.36,-5.50,898,-777,8121,-1,0,0
-10.27,6.35,-5.50,893,-787,8130,-1,0,0
-10.27,6.35,-5.50,890,-789,8136,-1,0,-1
-10.27,6.35,-5.50,890,-794,8131,-1,0,0
-10.27,6.34,-5.50,892,-793,8121,0,0,-1
-10.27,6.34,-5.49,891,-778,8117,0,0,-1
-10.27,6.33,-5.49,891,-774,8114,0,0,0
-10.27,6.33,-5.49,897,-781,8121,-1,0,0
-10.27,6.33,-5.50,898,-784,8128,-1,0,0
-10.27,6.32,-5.51,885,-788,8129,-1,0,0
-10.27,6.31,-5.51,885,-798,8129,-1,0,0
-10.27,6.31,-5.51,887,-790,8122,-1,0,-1
-10.27,6.30,-5.51,891,-789,8122,-1,0,0
-10.27,6.30,-5.52,894,-792,8117,-1,0,0
-10.27,6.29,-5.52,891,-798,8121,-1,0,0
-10.27,6.28,-5.52,887,-795,8127,0,0,-1
-10.27,6.27,-5.52,881,-790,8119,-1,0,-1
-10.27,6.27,-5.52,878,-794,8119,0,0,-1
-10.27,6.26,-5.52,878,-792,8121,0,0,-1
-10.27,6.26,-5.52,882,-791,8119,-1,0,0
-10.27,6.25,-5.52,885,-788,8112,-1,0,-1
-10.27,6.25,-5.53,885,-784,8116,0,0,0
-10.27,6.24,-5.53,872,-783,8116,-1,0,0
-10.27,6.23,-5.53,871,-786,8130,-1,0,0
-10.27,6.23,-5.54,875,-795,8128,-1,0,-1
-10.27,6.22,-5.55,872,-802,8124,-1,0,0
-10.27,6.22,-5.55,874,-796,8120,-1,0,0
-10.27,6.21,-5.56,868,-800,8119,-1,0,-1
-10.27,6.20,-5.55,870,-792,8125,0,0,-1
-10.27,6.19,-5.55,870,-788,8134,-1,0,0
-10.27,6.19,-5.55,867,-789,8122,-1,0,-1
-10.26,6.19,-5.56,863,-789,8119,-1,0,0
-10.27,6.18,-5.55,863,-784,8121,-1,0,-1
-10.26,6.17,-5.55,855,-787,8128,-1,0,0
-10.26,6.17,-5.56,851,-791,8126,-1,-1,0
-10.26,6.16,-5.57,856,-804,8129,-1,-1,-1
-10.26,6.17,-5.57,853,-813,8133,0,-1,-1
-10.26,6.17,-5.56,859,-804,8126,0,-1,-1
-10.26,6.17,-5.55,863,-796,8117,0,-1,-1
-10.26,6.18,-5.54,874,-776,8119,0,-1,-1
-10.25,6.18,-5.54,874,-780,8118,0,-1,-1
-10.25,6.18,-5.54,871,-784,8120,-1,-1,0
-10.26,6.18,-5.55,865,-799,8130,-1,-1,0
-10.26,6.18,-5.55,852,-801,8123,0,-1,-1
-10.26,6.18,-5.55,857,-806,8121,0,-1,-1
-10.26,6.18,-5.55,861,-802,8113,0,-1,-1
-10.26,6.18,-5.54,862,-784,8127,0,-1,0
-10.26,6.19,-5.54,864,-778,8128,-1,-1,0
-10.26,6.20,-5.54,866,-784,8117,-1,-1,0
-10.26,6.20,-5.54,864,-781,8124,-1,-1,0
-10.26,6.20,-5.54,867,-786,8131,-1,-1,0
-10.27,6.21,-5.55,869,-799,8128,-1,-1,0
-10.27,6.22,-5.55,870,-803,8125,-1,-1,0
-10.27,6.22,-5.55,869,-816,8113,0,-1,0
-10.27,6.23,-5.55,872,-806,8112,0,-1,-1
-10.27,6.24,-5.54,879,-794,8111,0,-1,-1
-10.27,6.24,-5.54,885,-779,8122,0,-1,-1
-10.27,6.24,-5.54,879,-779,8128,-1,-1,0
-10.27,6.24,-5.54,874,-784,8119,-1,-1,0
-10.27,6.25,-5.54,874,-800,8128,0,-1,0
-10.27,6.26,-5.54,879,-803,8119,0,-1,-1
-10.27,6.27,-5.53,881,-789,8112,0,-1,-1
-10.27,6.27,-5.52,875,-782,8111,0,-1,0
-10.28,6.27,-5.52,883,-782,8116,0,-1,0
-10.28,6.28,-5.52,883,-783,8121,-1,-1,0
-10.29,6.29,-5.53,887,-790,8120,-1,-1,0
-10.29,6.29,-5.53,884,-799,8124,-1,-1,0
-10.29,6.29,-5.53,877,-792,8122,-1,-1,0
-10.29,6.29,-5.53,882,-788,8119,0,-1,0
-10.29,6.30,-5.53,890,-791,8120,0,-1,0
-10.29,6.31,-5.53,890,-794,8121,-1,-1,0
-10.29,6.31,-5.54,885,-791,8122,0,-1,-1
-10.29,6.31,-5.53,882,-793,8123,0,-1,0
-10.29,6.32,-5.53,880,-789,8126,0,-1,0
-10.30,6.34,-5.53,887,-790,8132,-1,-1,0
-10.30,6.34,-5.52,885,-802,8124,0,-1,-1
-10.30,6.34,-5.52,886,-792,8129,0,-1,-1
-10.30,6.35,-5.51,894,-783,8126,0,-1,0
-10.30,6.36,-5.50,895,-775,8127,-1,-1,0
-10.30,6.36,-5.50,891,-774,8127,0,-1,0
-10.30,6.36,-5.50,894,-782,8137,-1,-1,0
-10.31,6.36,-5.51,896,-786,8136,-1,-1,0
-10.31,6.37,-5.51,890,-797,8123,0,-1,0
-10.31,6.38,-5.51,895,-799,8125,0,-1,0
-10.31,6.39,-5.50,899,-785,8113,0,-1,-1
-10.31,6.39,-5.50,890,-776,8109,-1,-1,0
-10.31,6.39,-5.50,890,-773,8116,-1,-1,0
-10.31,6.39,-5.51,885,-782,8122,-1,-1,0
-10.32,6.39,-5.51,880,-796,8140,-1,-1,0
-10.32,6.40,-5.51,888,-795,8136,0,-1,-1
-10.32,6.41,-5.50,891,-798,8121,0,-1,-1
-10.32,6.42,-5.50,903,-791,8107,0,-1,0
-10.32,6.43,-5.49,910,-775,8104,0,-1,0
-10.33,6.44,-5.49,911,-770,8118,0,-1,0
-10.33,6.44,-5.49,909,-778,8127,-1,-1,0
-10.33,6.44,-5.49,898,-779,8131,0,-1,0
-10.33,6.44,-5.49,899,-784,8125,0,-1,0
-10.33,6.45,-5.48,903,-786,8117,0,-1,0
-10.34,6.45,-5.48,895,-790,8118,0,-1,0
-10.34,6.47,-5.47,905,-782,8118,0,-1,0
-10.34,6.47,-5.47,918,-788,8122,0,-1,0
-10.34,6.47,-5.47,918,-794,8117,0,-1,0
-10.34,6.47,-5.47,914,-783,8115,0,0,0
-10.35,6.47,-5.46,894,-772,8120,-1,-1,0
-10.35,6.47,-5.46,897,-777,8124,-1,-1,0
-10.35,6.48,-5.47,909,-788,8123,-1,-1,0
-10.36,6.48,-5.47,904,-790,8110,0,-1,0
-10.36,6.49,-5.46,906,-787,8102,0,-1,0
-10.36,6.49,-5.46,908,-778,8112,0,-1,0
-10.37,6.49,-5.46,915,-778,8125,0,-1,0
-10.37,6.49,-5.46,906,-780,8127,0,-1,0
-10.37,6.49,-5.45,901,-784,8132,0,-1,0
-10.37,6.49,-5.45,905,-776,8129,0,-1,0
-10.37,6.49,-5.44,906,-771,8138,0,-1,0
-10.37,6.50,-5.44,910,-772,8118,0,-1,0
-10.38,6.50,-5.43,910,-773,8114,0,-1,0
-10.38,6.50,-5.43,910,-774,8118,0,-1,0
-10.38,6.51,-5.43,913,-771,8113,0,-1,0
-10.39,6.51,-5.43,910,-770,8122,0,-1,0
-10.39,6.52,-5.43,908,-768,8125,0,-1,0
-10.39,6.52,-5.43,918,-772,8125,0,-1,0
-10.39,6.53,-5.42,926,-774,8115,0,-1,0
-10.39,6.53,-5.42,925,-773,8115,-1,-1,0
-10.39,6.53,-5.43,928,-782,8121,0,-1,-1
-10.39,6.53,-5.42,914,-768,8124,-1,0,-1
-10.39,6.52,-5.43,909,-776,8127,-1,-1,-1
-10.38,6.52,-5.43,914,-784,8131,0,-1,-1
-10.38,6.52,-5.43,911,-781,8125,-1,-1,-1
-10.38,6.52,-5.43,908,-783,8119,0,-1,-1
-10.37,6.53,-5.43,915,-779,8116,0,-1,-1
-10.37,6.52,-5.43,919,-779,8123,-1,0,-1
-10.37,6.52,-5.43,914,-776,8122,0,0,-1
-10.38,6.51,-5.42,909,-776,8126,0,0,-1
-10.37,6.51,-5.42,914,-769,8124,-1,0,-1
-10.37,6.51,-5.42,916,-773,8113,-1,0,-1
-10.37,6.51,-5.42,918,-765,8107,-1,0,0
-10.36,6.50,-5.42,913,-771,8112,-1,0,0
-10.36,6.50,-5.43,906,-776,8123,-1,-1,-1
-10.36,6.49,-5.43,907,-780,8125,0,-1,-1
-10.36,6.49,-5.43,906,-786,8126,0,-1,-1
-10.36,6.49,-5.43,913,-793,8117,0,0,-1
-10.36,6.49,-5.43,919,-782,8110,0,0,0
-10.36,6.48,-5.42,924,-770,8116,0,0,-1
-10.36,6.48,-5.42,917,-764,8122,0,-1,-1
-10.35,6.48,-5.42,917,-763,8125,-1,0,-1
-10.35,6.47,-5.42,902,-770,8123,-1,0,-1
-10.35,6.47,-5.43,901,-781,8118,-1,-1,-1
-10.35,6.47,-5.43,902,-778,8107,-1,-1,-1
-10.35,6.47,-5.43,910,-781,8113,0,0,-1
-10.35,6.46,-5.43,919,-782,8121,0,0,-1
-10.35,6.46,-5.43,912,-771,8118,0,0,-1
-10.35,6.46,-5.43,917,-775,8119,-1,0,0
-10.35,6.45,-5.42,910,-768,8128,-1,0,0
-10.35,6.44,-5.42,911,-763,8121,-1,0,0
-10.35,6.43,-5.43,898,-767,8122,-1,0,-1
-10.35,6.43,-5.44,907,-776,8110,-1,0,-1
-10.35,6.43,-5.44,910,-786,8115,-1,0,0
-10.35,6.43,-5.44,906,-788,8110,0,0,-1
-10.35,6.42,-5.44,907,-784,8119,0,0,-1
-10.34,6.41,-5.43,906,-776,8122,-1,0,-1
-10.34,6.41,-5.43,908,-774,8123,-1,0,0
-10.34,6.40,-5.44,898,-775,8140,-1,0,0
-10.34,6.40,-5.44,897,-776,8136,-1,0,0
-10.35,6.39,-5.45,894,-783,8120,-1,0,0
-10.35,6.39,-5.45,893,-784,8116,0,0,0
-10.35,6.39,-5.45,899,-787,8113,0,0,0
-10.35,6.38,-5.45,904,-787,8113,0,0,0
-10.35,6.38,-5.45,900,-780,8118,-1,0,0
-10.35,6.37,-5.45,898,-775,8110,-1,0,0
-10.35,6.36,-5.45,887,-781,8120,-1,0,-1
-10.35,6.36,-5.45,882,-776,8113,0,0,-1
-10.34,6.36,-5.45,884,-769,8119,-1,-1,-1
-10.34,6.36,-5.45,898,-772,8122,-1,0,0
-10.34,6.36,-5.45,894,-775,8127,0,0,0
-10.34,6.35,-5.45,892,-769,8129,-1,0,-1
-10.34,6.34,-5.46,888,-779,8122,-1,0,0
-10.34,6.33,-5.46,890,-787,8129,-1,0,0
-10.34,6.33,-5.46,890,-789,8128,-1,0,-1
-10.34,6.32,-5.47,890,-786,8129,-1,0,0
-10.34,6.32,-5.47,892,-787,8129,-1,0,-1
-10.34,6.31,-5.47,886,-786,8126,0,0,0
-10.34,6.31,-5.47,883,-782,8129,-1,0,-1
-10.34,6.30,-5.47,883,-781,8130,-1,0,0
-10.34,6.30,-5.47,881,-781,8136,0,0,-1
-10.34,6.29,-5.46,882,-782,8137,-1,0,0
-10.34,6.29,-5.47,881,-781,8132,-1,0,0
-10.34,6.28,-5.47,888,-788,8122,-1,0,0
-10.34,6.28,-5.47,887,-786,8126,0,0,0
-10.34,6.28,-5.47,888,-786,8136,0,0,-1
-10.34,6.28,-5.47,897,-772,8131,-1,0,-1
-10.34,6.27,-5.47,890,-768,8128,-1,0,0
-10.34,6.26,-5.48,877,-774,8115,-1,0,0
-10.34,6.25,-5.48,867,-787,8121,-1,0,0
-10.35,6.25,-5.50,861,-791,8135,-1,0,0
-10.35,6.25,-5.50,866,-800,8125,0,-1,-1
-10.34,6.24,-5.49,859,-802,8117,0,-1,-1
-10.34,6.24,-5.49,870,-798,8108,0,-1,-1
-10.34,6.24,-5.48,874,-783,8107,0,0,-1
-10.34,6.24,-5.48,877,-781,8118,0,0,-1
-10.34,6.23,-5.48,889,-778,8116,-1,0,0
-10.34,6.23,-5.48,879,-778,8124,-1,0,0
-10.34,6.22,-5.49,866,-784,8137,-1,0,0
-10.34,6.22,-5.49,869,-794,8137,-1,-1,-1
-10.34,6.22,-5.49,876,-788,8127,0,-1,0
-10.33,6.22,-5.49,872,-789,8120,0,-1,-1
-10.33,6.22,-5.48,875,-779,8121,0,-1,-1
-10.33,6.22,-5.47,874,-765,8127,0,-1,0
-10.33,6.22,-5.47,876,-767,8136,-1,-1,-1
-10.33,6.22,-5.47,874,-771,8137,-1,-1,0
-10.33,6.22,-5.48,871,-780,8130,-1,-1,0
-10.33,6.23,-5.49,874,-786,8131,-1,-1,0
-10.33,6.23,-5.49,871,-788,8122,-1,-1,0
-10.34,6.23,-5.49,874,-800,8114,0,-1,-1
-10.33,6.24,-5.49,885,-784,8121,0,-1,-1
-10.33,6.24,-5.48,884,-778,8125,-1,-1,0
-10.34,6.24,-5.49,882,-779,8123,-1,-1,0
-10.34,6.24,-5.49,877,-784,8135,-1,-1,0
-10.34,6.25,-5.49,869,-786,8137,0,-1,0
-10.34,6.25,-5.48,869,-791,8138,0,-1,-1
-10.34,6.26,-5.48,872,-788,8129,0,-1,-1
-10.34,6.27,-5.48,883,-777,8119,0,-1,-1
-10.34,6.28,-5.47,882,-775,8121,0,-1,0
-10.34,6.28,-5.47,879,-772,8136,-1,-1,0
-10.34,6.28,-5.47,883,-781,8134,-1,-1,0
-10.35,6.28,-5.47,870,-773,8127,-1,-1,0
-10.35,6.29,-5.48,877,-780,8122,-1,-1,0
-10.35,6.30,-5.48,887,-790,8121,-1,-1,0
-10.35,6.32,-5.48,889,-788,8119,0,-1,0
-10.35,6.32,-5.48,900,-785,8119,0,-1,0
-10.35,6.32,-5.48,901,-787,8117,-1,-1,0
-10.36,6.33,-5.48,900,-795,8126,0,-1,0
-10.36,6.34,-5.48,884,-792,8135,0,-1,0
-10.36,6.34,-5.48,885,-787,8131,0,-1,0
-10.36,6.34,-5.49,882,-787,8131,0,-1,0
-10.36,6.34,-5.49,881,-790,8122,0,-1,0
-10.36,6.35,-5.48,891,-784,8121,0,-1,0
-10.37,6.35,-5.47,887,-773,8126,0,-1,0
