Yaw,Pitch,Roll,AX,AY,AZ,GX,GY,GZ
-19.13,12.70,14.24,1777,1951,7700,0,-1,0
-19.14,12.70,14.24,1780,1950,7708,0,-1,0
-19.14,12.70,14.25,1775,1956,7712,0,-1,0
-19.13,12.71,14.25,1775,1968,7704,0,-1,0
-19.13,12.71,14.26,1768,1965,7703,0,-1,0
-19.14,12.72,14.26,1773,1960,7704,0,-1,0
-19.14,12.73,14.26,1780,1960,7693,0,-1,0
-19.14,12.74,14.26,1783,1957,7697,-1,-1,0
-19.14,12.75,14.26,1784,1962,7696,-1,-1,0
-19.15,12.75,14.27,1781,1967,7683,-1,-1,0
-19.15,12.75,14.26,1782,1957,7687,-1,-1,0
-19.15,12.75,14.26,1783,1958,7711,0,-1,-1
-19.15,12.76,14.27,1789,1963,7696,0,-1,-1
-19.15,12.76,14.27,1789,1966,7692,-1,-1,0
-19.15,12.76,14.27,1791,1966,7696,0,-1,0
-19.15,12.76,14.27,1792,1960,7696,0,-1,-1
-19.16,12.76,14.27,1782,1972,7700,0,-1,0
-19.16,12.76,14.28,1790,1975,7697,0,-1,0
-19.16,12.77,14.28,1789,1974,7696,0,-1,0
-19.16,12.77,14.29,1785,1980,7700,-1,-1,0
-19.16,12.77,14.28,1792,1968,7709,-1,-1,0
-19.16,12.78,14.28,1786,1956,7702,-1,-1,0
-19.16,12.78,14.28,1785,1956,7696,0,-1,0
-19.16,12.79,14.28,1794,1962,7695,0,-1,0
-19.16,12.79,14.28,1782,1961,7696,0,-1,-1
-19.16,12.79,14.28,1791,1970,7696,-1,-1,0
-19.16,12.79,14.28,1786,1955,7699,-1,-1,0
-19.17,12.79,14.28,1781,1961,7697,-1,-1,0
-19.17,12.79,14.27,1781,1965,7703,-1,-1,0
-19.17,12.80,14.27,1786,1959,7692,0,-1,-1
-19.17,12.80,14.28,1783,1958,7694,0,-1,-1
-19.17,12.81,14.29,1789,1966,7692,0,-1,-1
-19.17,12.82,14.30,1795,1968,7695,0,-1,-1
-19.17,12.82,14.31,1797,1973,7688,0,-1,-1
-19.17,12.82,14.31,1798,1974,7690,0,-1,0
-19.17,12.82,14.31,1794,1973,7696,-1,0,0
-19.17,12.82,14.31,1790,1974,7700,-1,0,0
-19.17,12.82,14.31,1782,1980,7706,-1,0,0
-19.17,12.82,14.30,1786,1967,7706,-1,-1,0
-19.17,12.82,14.30,1780,1971,7695,-1,-1,0
-19.17,12.83,14.31,1779,1974,7697,0,-1,0
-19.18,12.84,14.31,1786,1972,7693,0,-1,0
-19.18,12.85,14.31,1799,1966,7697,0,-1,0
-19.19,12.85,14.31,1796,1970,7686,-1,-1,0
-19.19,12.85,14.30,1804,1967,7686,-1,-1,0
-19.19,12.85,14.30,1797,1960,7688,-1,-1,0
-19.19,12.85,14.30,1795,1958,7692,0,0,-1
-19.19,12.85,14.30,1791,1958,7689,0,-1,0
-19.19,12.85,14.30,1792,1964,7693,0,-1,-1
-19.19,12.85,14.30,1793,1962,7690,0,-1,-1
-19.19,12.86,14.31,1791,1967,7699,0,-1,-1
-19.19,12.86,14.31,1789,1963,7700,0,-1,0
-19.19,12.86,14.31,1793,1969,7700,-1,-1,0
-19.19,12.86,14.31,1793,1968,7701,0,-1,0
-19.19,12.86,14.32,1797,1974,7696,0,-1,0
-19.20,12.87,14.31,1797,1978,7687,-1,-1,0
-19.20,12.87,14.31,1801,1971,7698,-1,-1,0
-19.20,12.87,14.31,1800,1966,7698,0,-1,0
-19.21,12.88,14.31,1809,1967,7695,-1,0,0
-19.21,12.88,14.31,1803,1964,7691,0,-1,-1
-19.21,12.88,14.31,1799,1969,7693,0,-1,-1
-19.21,12.89,14.31,1800,1968,7684,-1,-1,0
-19.21,12.89,14.31,1797,1960,7683,0,-1,0
-19.21,12.89,14.32,1805,1968,7688,0,-1,0
-19.21,12.90,14.32,1808,1977,7697,-1,-1,0
-19.21,12.90,14.32,1808,1975,7702,-1,-1,0
-19.21,12.90,14.32,1804,1973,7702,0,-1,0
-19.22,12.91,14.32,1808,1976,7694,-1,-1,0
-19.22,12.91,14.32,1807,1965,7696,-1,-1,0
-19.22,12.92,14.32,1806,1968,7692,-1,-1,0
-19.22,12.92,14.32,1810,1969,7706,-1,-1,0
-19.23,12.92,14.32,1812,1974,7704,-1,-1,0
-19.22,12.92,14.32,1810,1968,7699,0,-1,-1
-19.22,12.92,14.32,1805,1976,7699,0,-1,-1
-19.22,12.92,14.32,1807,1975,7694,0,-1,0
-19.23,12.93,14.32,1808,1969,7686,-1,-1,0
-19.23,12.93,14.32,1811,1964,7687,-1,-1,0
-19.23,12.93,14.32,1811,1957,7695,-1,0,0
-19.23,12.93,14.32,1808,1963,7696,0,-1,0
-19.24,12.93,14.32,1805,1969,7694,0,-1,0
-19.24,12.93,14.32,1809,1980,7683,-1,-1,0
-19.24,12.94,14.33,1807,1986,7677,-1,-1,0
-19.24,12.94,14.33,1804,1983,7682,-1,-1,0
-19.24,12.94,14.33,1814,1965,7676,0,0,-1
-19.22,12.93,14.34,1818,1917,7639,0,0,-1
-19.18,12.89,14.40,1822,1836,7545,2,1,-3
-19.11,12.79,14.51,1815,1784,7509,4,4,-4
-19.06,12.70,14.65,1735,1906,7666,2,0,-2
-19.08,12.68,14.78,1672,2128,7844,2,-2,1
-19.14,12.74,14.82,1639,2214,7883,0,-4,2
-19.23,12.84,14.80,1653,2223,7802,-2,-5,3
-19.34,12.99,14.76,1675,2196,7742,-2,-6,4
-19.46,13.19,14.69,1758,2131,7663,-3,-7,4
-19.59,13.39,14.62,1850,2074,7626,-3,-6,4
-19.70,13.56,14.51,1938,1985,7587,-3,-4,3
-19.77,13.69,14.46,1967,1893,7596,0,-5,1
-19.81,13.82,14.49,1978,1888,7686,1,-6,0
-19.83,13.95,14.53,2042,1872,7670,1,-4,-1
-19.82,14.00,14.57,2056,1867,7633,2,-2,-2
-19.78,14.01,14.65,2030,1925,7575,2,0,-2
-19.74,13.97,14.71,2008,1949,7578,1,1,-2
-19.70,13.91,14.76,1967,2001,7610,1,1,-2
-19.66,13.87,14.82,1938,2035,7671,1,0,-2
-19.62,13.83,14.85,1923,2069,7711,0,0,-2
-19.59,13.80,14.88,1905,2085,7709,0,0,-1
-19.58,13.80,14.90,1903,2074,7689,0,-1,-1
-19.57,13.80,14.91,1915,2042,7665,0,-1,-1
-19.56,13.80,14.92,1916,2028,7636,0,-1,-1
-19.56,13.80,14.94,1928,2031,7614,0,-1,-1
-19.55,13.80,14.96,1937,2033,7614,0,0,-1
-19.53,13.79,14.98,1938,2057,7636,0,0,-1
-19.51,13.77,14.99,1939,2056,7643,0,0,-1
-19.50,13.75,15.01,1927,2065,7644,0,0,-1
-19.49,13.72,15.02,1916,2064,7633,0,0,-1
-19.48,13.71,15.03,1913,2056,7625,0,0,-1
-19.47,13.70,15.03,1905,2053,7625,0,0,-1
-19.47,13.69,15.03,1898,2049,7637,0,0,-1
-19.46,13.67,15.03,1898,2057,7646,-1,0,-1
-19.45,13.67,15.03,1910,2054,7648,0,0,-1
-19.45,13.66,15.03,1914,2050,7640,0,0,-1
-19.45,13.65,15.04,1918,2045,7642,0,0,-1
-19.44,13.64,15.05,1916,2051,7640,0,0,-1
-19.43,13.62,15.05,1918,2054,7636,0,0,-1
-19.42,13.60,15.05,1909,2055,7643,0,0,-1
-19.41,13.58,15.05,1903,2056,7648,0,0,-1
-19.40,13.57,15.06,1903,2060,7653,0,0,-1
-19.40,13.55,15.07,1901,2069,7647,0,0,-1
-19.39,13.53,15.07,1894,2062,7652,0,0,-1
-19.38,13.52,15.07,1883,2070,7652,0,0,-1
-19.38,13.50,15.07,1883,2071,7654,0,0,-1
-19.38,13.50,15.08,1878,2071,7665,0,0,-1
-19.37,13.48,15.08,1881,2068,7657,0,0,-1
-19.37,13.48,15.09,1885,2068,7647,0,0,-1
-19.37,13.46,15.09,1888,2074,7638,0,0,-1
-19.36,13.45,15.09,1884,2068,7633,0,0,-1
-19.36,13.44,15.09,1882,2058,7630,0,0,-1
-19.35,13.43,15.10,1869,2072,7635,0,0,-1
-19.35,13.41,15.10,1876,2080,7638,-1,0,-1
-19.35,13.40,15.10,1867,2069,7659,0,0,-1
-19.33,13.38,15.10,1862,2078,7661,0,0,-1
-19.33,13.38,15.10,1861,2065,7657,0,-1,-1
-19.33,13.39,15.11,1862,2066,7646,0,-1,-1
-19.34,13.39,15.12,1867,2074,7636,0,-1,-1
-19.34,13.40,15.13,1880,2073,7635,0,-1,-1
-19.33,13.40,15.14,1890,2076,7637,0,-1,0
-19.34,13.40,15.14,1886,2078,7638,0,0,-1
-19.33,13.40,15.14,1879,2074,7641,-1,0,-1
-19.33,13.39,15.15,1881,2073,7643,0,0,-1
-19.33,13.38,15.15,1873,2077,7647,0,0,-1
-19.33,13.38,15.15,1865,2077,7658,0,0,-1
-19.33,13.38,15.15,1860,2078,7641,0,-1,-1
-19.33,13.38,15.16,1864,2075,7637,0,-1,-1
-19.33,13.38,15.18,1862,2076,7642,0,-1,-1
-19.33,13.38,15.18,1869,2082,7643,0,-1,-1
-19.33,13.38,15.18,1868,2080,7648,0,-1,0
-19.33,13.38,15.19,1864,2091,7647,0,-1,-1
-19.34,13.38,15.19,1866,2083,7649,-1,0,0
-19.34,13.38,15.18,1868,2083,7646,-1,0,0
-19.34,13.38,15.18,1870,2075,7654,-1,0,0
-19.34,13.38,15.18,1879,2072,7658,0,-1,-1
-19.34,13.38,15.19,1871,2085,7652,0,-1,0
-19.34,13.38,15.19,1870,2080,7649,0,-1,-1
-19.34,13.39,15.19,1868,2076,7634,0,-1,-1
-19.34,13.39,15.20,1865,2078,7634,0,-1,0
-19.34,13.39,15.21,1872,2082,7634,0,-1,-1
-19.34,13.39,15.22,1870,2080,7640,0,-1,0
-19.34,13.40,15.22,1869,2094,7646,0,-1,0
-19.35,13.40,15.22,1875,2090,7646,0,-1,0
-19.35,13.40,15.23,1872,2090,7646,0,-1,0
-19.35,13.40,15.23,1865,2093,7637,0,-1,0
-19.36,13.40,15.23,1869,2086,7641,-1,-1,0
-19.36,13.40,15.23,1867,2085,7640,0,-1,0
-19.36,13.41,15.23,1863,2083,7638,0,-1,0
-19.36,13.41,15.24,1866,2085,7636,0,-1,0
-19.36,13.41,15.24,1878,2086,7636,0,-1,0
-19.37,13.42,15.24,1879,2081,7633,0,-1,0
-19.37,13.43,15.24,1878,2082,7639,0,-1,0
-19.37,13.43,15.25,1876,2093,7645,0,-1,0
-19.37,13.43,15.25,1874,2101,7650,0,-1,0
-19.37,13.44,15.25,1877,2098,7645,-1,-1,0
-19.38,13.45,15.26,1882,2089,7638,0,-1,0
-19.38,13.45,15.26,1877,2086,7637,0,-1,0
-19.38,13.45,15.27,1876,2089,7638,0,-1,0
-19.38,13.45,15.27,1876,2091,7634,0,-1,0
-19.38,13.46,15.28,1877,2089,7636,0,-1,-1
-19.39,13.46,15.29,1879,2099,7644,0,-1,0
-19.39,13.47,15.29,1881,2103,7649,0,-1,0
-19.39,13.48,15.30,1883,2102,7651,-1,-1,0
-19.39,13.48,15.30,1879,2101,7641,0,-1,0
-19.39,13.48,15.30,1888,2098,7646,0,0,0
-19.39,13.48,15.29,1881,2099,7652,-1,0,0
-19.39,13.47,15.29,1883,2088,7645,-1,0,0
-19.39,13.47,15.28,1884,2091,7653,-1,0,0
-19.40,13.47,15.29,1886,2084,7644,0,-1,0
-19.40,13.47,15.30,1878,2094,7647,0,-1,-1
-19.39,13.48,15.30,1879,2095,7642,0,-1,-1
-19.40,13.48,15.31,1883,2104,7634,0,-1,-1
-19.40,13.49,15.31,1891,2104,7638,0,-1,0
-19.40,13.49,15.31,1890,2095,7628,-1,0,-1
-19.40,13.49,15.31,1884,2100,7627,0,0,0
-19.40,13.48,15.31,1878,2097,7628,0,0,0
-19.40,13.48,15.32,1878,2106,7635,0,0,0
-19.40,13.48,15.32,1879,2113,7633,0,-1,0
-19.41,13.48,15.33,1886,2102,7633,0,-1,0
-19.41,13.49,15.32,1891,2096,7621,0,-1,0
-19.41,13.50,15.33,1896,2101,7627,0,-1,0
-19.42,13.50,15.33,1893,2105,7635,0,-1,0
-19.42,13.50,15.34,1890,2100,7641,0,-1,0
-19.42,13.50,15.33,1886,2102,7633,-1,-1,0
-19.43,13.51,15.34,1891,2096,7631,0,-1,0
-19.43,13.52,15.33,1887,2091,7629,0,-1,0
-19.43,13.52,15.33,1893,2100,7623,0,-1,0
-19.43,13.53,15.34,1895,2098,7617,0,-1,0
-19.44,13.53,15.35,1893,2102,7632,0,0,0
-19.44,13.52,15.35,1890,2099,7639,0,-1,-1
-19.44,13.53,15.35,1889,2099,7639,0,-1,0
-19.44,13.53,15.35,1884,2104,7640,0,-1,-1
-19.44,13.52,15.36,1884,2108,7640,0,-1,0
-19.44,13.53,15.36,1885,2103,7633,0,-1,0
-19.44,13.53,15.36,1886,2100,7643,0,-1,0
-19.44,13.53,15.36,1888,2099,7644,0,-1,0
-19.44,13.53,15.37,1893,2104,7637,0,-1,-1
-19.44,13.53,15.37,1894,2108,7637,-1,0,-1
-19.44,13.52,15.37,1895,2102,7638,0,0,-1
-19.43,13.52,15.37,1897,2095,7641,0,0,-1
-19.43,13.52,15.38,1896,2100,7640,-1,0,-1
-19.43,13.52,15.38,1891,2103,7641,-1,0,-1
-19.43,13.51,15.38,1888,2106,7634,0,0,-1
-19.42,13.50,15.38,1885,2109,7636,0,0,-1
-19.42,13.50,15.38,1880,2114,7626,-1,0,-1
-19.41,13.50,15.39,1878,2113,7624,0,0,-1
-19.41,13.49,15.38,1881,2106,7626,-1,0,-1
-19.41,13.49,15.39,1881,2109,7626,0,0,-1
-19.41,13.48,15.39,1876,2111,7638,-1,0,-1
-19.40,13.47,15.39,1878,2112,7635,0,0,-1
-19.40,13.47,15.39,1876,2114,7635,0,0,-1
-19.40,13.47,15.40,1877,2105,7634,0,0,-1
-19.40,13.46,15.40,1875,2106,7630,0,0,-1
-19.40,13.46,15.41,1879,2114,7627,0,0,-1
-19.40,13.46,15.41,1878,2114,7623,0,0,-1
-19.40,13.46,15.41,1881,2111,7620,-1,0,-1
-19.39,13.45,15.41,1886,2115,7622,-1,0,-1
-19.39,13.45,15.40,1882,2100,7636,-1,0,-1
-19.39,13.44,15.40,1884,2095,7634,-1,0,-1
-19.39,13.43,15.40,1872,2101,7635,0,0,-1
-19.39,13.42,15.40,1870,2093,7632,0,0,-1
-19.38,13.42,15.41,1872,2101,7622,0,0,-1
-19.38,13.42,15.41,1872,2109,7615,0,-1,-1
-19.37,13.42,15.42,1883,2119,7619,0,0,-1
-19.37,13.42,15.42,1886,2117,7620,-1,0,-1
-19.37,13.41,15.42,1880,2118,7626,-1,0,-1
-19.37,13.40,15.42,1870,2113,7633,-1,0,0
-19.37,13.39,15.42,1865,2115,7641,-1,0,-1
-19.37,13.38,15.42,1861,2113,7646,-1,0,-1
-19.36,13.38,15.42,1865,2104,7634,-1,0,-1
-19.36,13.37,15.41,1858,2103,7638,0,0,-1
-19.36,13.37,15.42,1864,2103,7636,0,0,-1
-19.36,13.36,15.42,1868,2106,7637,0,0,-1
-19.35,13.35,15.42,1869,2111,7643,0,0,-1
-19.35,13.35,15.43,1862,2122,7640,-1,0,-1
-19.35,13.34,15.43,1862,2117,7645,-1,0,-1
-19.34,13.33,15.43,1862,2114,7647,-1,0,-1
-19.34,13.32,15.42,1863,2123,7636,-1,0,-1
-19.34,13.32,15.42,1859,2114,7637,-1,0,-1
-19.33,13.32,15.43,1859,2114,7635,0,0,-1
-19.33,13.31,15.42,1856,2101,7641,-1,0,-1
-19.33,13.30,15.42,1864,2105,7641,0,0,-1
-19.33,13.30,15.42,1857,2105,7636,0,0,-1
-19.32,13.29,15.43,1853,2113,7645,0,0,-1
-19.32,13.29,15.43,1849,2112,7643,0,0,-1
-19.32,13.28,15.44,1848,2119,7642,0,-1,-1
-19.32,13.28,15.44,1849,2120,7635,-1,-1,0
-19.32,13.28,15.44,1850,2112,7636,-1,0,0
-19.32,13.28,15.44,1852,2110,7641,0,0,-1
-19.32,13.28,15.44,1853,2115,7635,0,-1,0
-19.32,13.28,15.44,1854,2109,7636,0,-1,0
-19.32,13.28,15.44,1853,2103,7638,0,-1,-1
-19.32,13.28,15.44,1853,2110,7634,-1,0,0
-19.32,13.28,15.44,1852,2112,7637,0,-1,0
-19.32,13.28,15.45,1854,2109,7640,-1,0,0
-19.32,13.28,15.44,1851,2110,7657,0,-1,0
-19.32,13.28,15.45,1857,2116,7647,-1,-1,-1
-19.32,13.28,15.45,1862,2119,7651,-1,-1,0
-19.32,13.28,15.44,1861,2111,7643,-1,-1,0
-19.32,13.29,15.45,1859,2111,7633,0,-1,0
-19.32,13.29,15.45,1865,2119,7633,0,-1,0
-19.32,13.30,15.45,1869,2119,7635,0,-1,0
-19.32,13.30,15.46,1865,2127,7630,0,-1,-1
-19.32,13.30,15.46,1865,2125,7639,-1,-1,0
-19.32,13.30,15.46,1863,2134,7637,-1,0,0
-19.32,13.30,15.46,1859,2135,7645,-1,0,0
-19.33,13.30,15.45,1858,2121,7634,-1,-1,0
-19.33,13.30,15.46,1854,2121,7633,0,-1,0
-19.33,13.31,15.46,1859,2123,7622,-1,-1,0
-19.34,13.32,15.46,1864,2114,7617,0,-1,0
-19.34,13.32,15.46,1872,2117,7617,0,-1,0
-19.34,13.33,15.47,1878,2115,7632,0,-1,-1
-19.34,13.33,15.47,1875,2119,7631,-1,0,-1
-19.34,13.33,15.47,1878,2112,7630,-1,0,-1
-19.34,13.32,15.47,1867,2111,7642,0,0,-1
-19.34,13.32,15.47,1859,2112,7646,0,-1,-1
-19.34,13.32,15.47,1851,2114,7643,0,-1,0
-19.34,13.33,15.47,1852,2117,7635,0,-1,0
-19.34,13.34,15.48,1859,2128,7632,0,-1,0
-19.35,13.35,15.48,1856,2137,7628,-1,-1,0
-19.35,13.35,15.48,1867,2124,7627,-1,-1,0
-19.36,13.36,15.48,1876,2122,7625,-1,-1,0
-19.36,13.36,15.48,1877,2124,7641,-1,-1,0
-19.36,13.37,15.47,1878,2114,7636,-1,-1,0
-19.37,13.38,15.47,1870,2109,7632,-1,-1,0
-19.37,13.38,15.47,1869,2097,7625,0,-1,0
-19.38,13.39,15.48,1876,2109,7625,0,-1,0
-19.38,13.40,15.48,1881,2115,7636,-1,-1,0
-19.38,13.41,15.47,1879,2112,7635,0,-1,0
-19.38,13.41,15.48,1882,2110,7632,0,-1,0
-19.39,13.41,15.48,1879,2120,7631,0,-1,0
-19.39,13.42,15.49,1874,2119,7630,0,-1,0
-19.39,13.42,15.49,1866,2126,7637,0,-1,0
-19.39,13.42,15.49,1863,2132,7636,0,-1,0
-19.39,13.42,15.50,1863,2131,7638,0,-1,0
-19.40,13.43,15.51,1874,2130,7636,0,-1,0
-19.40,13.43,15.51,1876,2130,7636,0,-1,0
-19.40,13.44,15.51,1871,2127,7628,-1,-1,0
-19.41,13.45,15.51,1881,2119,7614,0,-1,0
-19.41,13.46,15.51,1879,2115,7614,0,-1,0
-19.41,13.46,15.52,1881,2115,7611,0,-1,0
-19.41,13.46,15.52,1881,2117,7623,0,0,0
-19.42,13.46,15.52,1884,2131,7627,0,0,0
-19.42,13.46,15.52,1880,2125,7633,-1,0,-1
-19.42,13.47,15.52,1877,2130,7641,0,-1,0
-19.42,13.46,15.53,1874,2134,7630,0,-1,0
-19.42,13.47,15.53,1878,2132,7622,0,-1,0
-19.42,13.48,15.54,1884,2133,7622,0,-1,0
-19.42,13.48,15.54,1880,2127,7626,0,-1,-1
-19.42,13.48,15.54,1882,2127,7623,0,-1,0
-19.42,13.48,15.54,1877,2137,7627,-1,-1,0
-19.43,13.48,15.54,1880,2128,7627,0,-1,0
-19.44,13.49,15.54,1882,2124,7634,0,-1,0
-19.44,13.50,15.55,1883,2124,7633,0,-1,0
-19.44,13.50,15.55,1889,2126,7625,0,-1,-1
-19.44,13.50,15.56,1883,2128,7621,0,-1,-1
-19.43,13.50,15.57,1889,2134,7612,0,0,-1
-19.43,13.49,15.57,1887,2128,7616,-1,0,-1
-19.42,13.49,15.57,1886,2131,7626,-1,0,-1
-19.42,13.47,15.57,1874,2136,7628,-1,0,-1
-19.41,13.46,15.56,1878,2132,7644,-1,0,-1
-19.41,13.46,15.56,1877,2127,7630,0,0,-1
-19.41,13.45,15.57,1876,2133,7635,0,0,-1
-19.41,13.45,15.57,1880,2127,7636,0,-1,-1
-19.41,13.45,15.57,1880,2127,7637,0,-1,-1
-19.41,13.45,15.58,1875,2135,7636,-1,-1,-1
-19.40,13.45,15.58,1884,2132,7621,-1,-1,-1
-19.40,13.45,15.58,1887,2136,7619,-1,0,0
-19.40,13.44,15.58,1886,2134,7626,0,0,-1
-19.40,13.44,15.57,1890,2125,7635,-1,0,0
-19.40,13.44,15.57,1888,2123,7624,0,0,-1
-19.40,13.43,15.58,1885,2129,7623,0,0,-1
-19.39,13.43,15.58,1882,2128,7629,0,-1,-1
-19.39,13.42,15.59,1880,2137,7626,0,0,-1
-19.38,13.42,15.59,1877,2146,7630,-1,0,-1
-19.38,13.41,15.59,1877,2139,7640,0,0,-1
-19.38,13.41,15.60,1871,2148,7634,-1,0,-1
-19.38,13.41,15.60,1875,2150,7635,-1,0,-1
-19.38,13.41,15.59,1873,2141,7627,-1,0,0
-19.38,13.40,15.59,1867,2140,7622,-1,0,-1
-19.38,13.39,15.59,1872,2138,7623,-1,0,0
-19.37,13.39,15.59,1870,2135,7634,0,0,-1
-19.37,13.38,15.59,1868,2129,7634,-1,0,-1
-19.37,13.37,15.59,1855,2133,7634,0,0,-1
-19.37,13.37,15.60,1862,2134,7630,0,0,-1
-19.37,13.37,15.60,1862,2131,7633,0,0,-1
-19.36,13.37,15.60,1868,2139,7630,0,-1,-1
-19.36,13.37,15.60,1869,2138,7623,0,0,-1
-19.36,13.36,15.61,1874,2141,7630,0,0,-1
-19.36,13.36,15.61,1871,2142,7624,-1,0,-1
-19.36,13.36,15.61,1871,2142,7619,0,0,-1
-19.35,13.35,15.61,1864,2146,7625,0,0,-1
-19.35,13.34,15.61,1857,2140,7621,0,0,-1
-19.35,13.34,15.61,1861,2139,7623,-1,0,0
-19.35,13.34,15.61,1860,2132,7630,-1,0,-1
-19.35,13.33,15.61,1862,2142,7625,-1,0,0
-19.35,13.32,15.60,1858,2135,7643,-1,0,-1
-19.35,13.32,15.60,1856,2131,7639,0,0,-1
-19.34,13.31,15.61,1846,2140,7641,-1,0,-1
-19.34,13.31,15.60,1854,2135,7640,0,-1,-1
-19.34,13.31,15.60,1858,2131,7634,0,0,-1
-19.34,13.30,15.61,1858,2134,7626,-1,0,-1
-19.34,13.30,15.61,1863,2134,7622,-1,0,-1
-19.33,13.29,15.61,1860,2131,7636,-1,0,-1
-19.33,13.29,15.60,1862,2129,7632,-1,0,-1
-19.33,13.28,15.59,1855,2118,7621,0,0,-1
-19.33,13.27,15.60,1853,2129,7619,0,0,-1
-19.32,13.26,15.60,1853,2136,7622,0,0,-1
-19.32,13.25,15.61,1858,2140,7621,0,0,-1
-19.31,13.24,15.61,1855,2145,7627,0,0,-1
-19.31,13.24,15.62,1859,2153,7630,-1,0,-1
-19.31,13.23,15.62,1858,2148,7628,-1,0,-1
-19.30,13.21,15.61,1854,2143,7624,-1,0,-1
-19.31,13.21,15.61,1852,2147,7630,-1,0,-1
-19.29,13.19,15.61,1843,2134,7624,0,0,-1
-19.29,13.18,15.61,1834,2135,7635,0,0,-1
-19.29,13.17,15.61,1831,2132,7621,-1,0,-1
-19.28,13.16,15.61,1832,2126,7627,0,0,-1
-19.28,13.16,15.62,1835,2134,7640,0,0,-1
-19.28,13.15,15.62,1831,2138,7652,-1,0,-1
-19.28,13.14,15.62,1824,2136,7641,0,0,-1
-19.27,13.13,15.61,1818,2137,7641,-1,0,-1
-19.27,13.12,15.62,1824,2126,7633,-1,0,-1
-19.27,13.12,15.62,1826,2125,7632,0,0,-1
-19.27,13.11,15.62,1833,2131,7617,0,0,-1
-19.27,13.11,15.62,1840,2136,7623,-1,0,-1
-19.26,13.11,15.63,1836,2147,7618,0,0,-1
-19.26,13.10,15.63,1835,2141,7636,0,0,-1
-19.25,13.09,15.63,1836,2145,7641,0,0,-1
-19.25,13.09,15.63,1826,2151,7643,0,0,-1
-19.25,13.08,15.63,1817,2146,7637,0,0,-1
-19.25,13.08,15.64,1813,2144,7630,-1,-1,-1
-19.25,13.08,15.64,1816,2144,7630,-1,-1,0
-19.25,13.09,15.63,1826,2145,7640,-1,-1,0
-19.26,13.09,15.63,1829,2145,7637,0,-1,0
-19.26,13.09,15.63,1832,2140,7625,0,-1,0
-19.26,13.10,15.63,1839,2137,7638,0,-1,0
-19.26,13.11,15.64,1845,2145,7642,0,-1,-1
-19.26,13.11,15.64,1833,2146,7635,-1,-1,0
-19.26,13.12,15.64,1831,2134,7633,-1,-1,0
-19.27,13.11,15.64,1826,2141,7630,-1,-1,0
-19.27,13.11,15.64,1828,2139,7634,-1,-1,0
-19.27,13.12,15.64,1830,2137,7633,0,-1,0
-19.27,13.12,15.64,1836,2139,7637,0,-1,0
-19.27,13.12,15.64,1833,2137,7640,0,-1,0
-19.27,13.13,15.65,1837,2140,7634,0,-1,0
-19.27,13.14,15.65,1839,2139,7637,0,-1,0
-19.28,13.15,15.65,1842,2141,7636,0,-1,0
-19.28,13.15,15.65,1842,2140,7638,0,-1,0
-19.28,13.15,15.66,1845,2140,7641,0,0,0
-19.28,13.15,15.65,1842,2144,7638,-1,-1,0
-19.28,13.16,15.65,1840,2145,7642,0,-1,-1
-19.28,13.16,15.65,1840,2146,7638,-1,-1,0
-19.29,13.16,15.65,1838,2142,7638,-1,-1,0
-19.29,13.16,15.65,1838,2145,7631,0,-1,0
-19.29,13.16,15.65,1833,2147,7632,0,-1,0
-19.29,13.17,15.65,1832,2152,7636,-1,-1,0
-19.29,13.18,15.66,1837,2150,7626,0,-1,0
-19.29,13.18,15.66,1839,2147,7623,0,-1,0
-19.30,13.19,15.66,1839,2150,7624,-1,-1,0
-19.30,13.19,15.66,1832,2148,7630,-1,-1,0
-19.30,13.18,15.65,1835,2138,7645,-1,-1,0
-19.30,13.19,15.65,1835,2139,7636,0,-1,0
-19.30,13.20,15.66,1841,2140,7633,0,-1,0
-19.31,13.21,15.66,1848,2137,7632,0,-1,0
-19.31,13.23,15.67,1858,2140,7624,0,-1,0
-19.31,13.24,15.67,1869,2142,7619,-1,-1,0
-19.32,13.24,15.66,1862,2145,7626,-1,-1,0
-19.32,13.24,15.66,1858,2149,7625,-1,-1,0
-19.32,13.24,15.66,1855,2156,7632,-1,-1,0
-19.32,13.25,15.67,1845,2150,7628,0,-1,0
-19.32,13.25,15.67,1845,2144,7621,0,-1,0
-19.33,13.26,15.68,1845,2148,7623,0,-1,0
-19.33,13.27,15.67,1849,2146,7618,0,-1,0
-19.34,13.28,15.68,1856,2144,7618,0,-1,0
-19.35,13.29,15.68,1856,2151,7614,-1,-1,0
-19.35,13.29,15.69,1857,2155,7623,-1,-1,0
-19.35,13.30,15.68,1862,2153,7628,-1,-1,0
-19.35,13.31,15.68,1860,2152,7628,-1,-1,0
-19.36,13.31,15.67,1856,2144,7635,-1,-1,0
-19.36,13.31,15.67,1859,2142,7639,0,-1,0
-19.37,13.32,15.67,1859,2141,7633,0,-1,0
-19.37,13.33,15.68,1860,2139,7629,0,-1,0
-19.37,13.34,15.69,1867,2146,7631,0,-1,0
-19.38,13.34,15.68,1867,2145,7630,0,-1,0
-19.38,13.34,15.69,1862,2144,7636,0,-1,0
-19.38,13.35,15.70,1862,2145,7630,0,-1,0
-19.38,13.35,15.71,1857,2154,7624,0,-1,0
-19.38,13.36,15.71,1859,2156,7618,0,-1,0
-19.38,13.37,15.71,1869,2156,7628,-1,-1,0
-19.39,13.37,15.71,1863,2148,7625,-1,-1,0
-19.39,13.38,15.70,1866,2142,7621,-1,-1,0
-19.40,13.38,15.70,1867,2147,7630,-1,-1,0
-19.39,13.38,15.71,1874,2146,7621,0,-1,-1
-19.39,13.39,15.72,1876,2158,7627,0,-1,0
-19.39,13.39,15.72,1873,2153,7628,0,-1,0
-19.39,13.39,15.72,1870,2148,7627,0,-1,0
-19.40,13.40,15.72,1875,2160,7631,0,-1,0
-19.40,13.40,15.72,1873,2157,7630,-1,-1,0
-19.40,13.40,15.72,1872,2156,7629,0,-1,0
-19.40,13.40,15.73,1879,2161,7627,0,0,-1
-19.40,13.40,15.73,1875,2151,7619,-1,0,-1
-19.40,13.40,15.73,1883,2155,7619,0,0,-1
-19.39,13.39,15.73,1883,2157,7625,-1,0,-1
-19.39,13.39,15.73,1885,2151,7629,-1,0,-1
-19.39,13.38,15.73,1877,2149,7621,0,0,-1
-19.38,13.37,15.73,1873,2154,7624,0,0,-1
-19.38,13.37,15.73,1866,2157,7615,-1,0,0
-19.37,13.36,15.73,1872,2156,7624,-1,0,-1
-19.37,13.36,15.74,1873,2156,7628,0,0,-1
-19.37,13.36,15.74,1878,2158,7634,-1,0,-1
-19.37,13.35,15.73,1875,2153,7640,-1,0,0
-19.36,13.34,15.73,1872,2146,7622,-1,0,0
-19.36,13.33,15.73,1867,2141,7625,0,0,-1
-19.35,13.33,15.73,1863,2150,7635,0,0,-1
-19.35,13.32,15.74,1870,2155,7625,0,-1,-1
-19.34,13.32,15.75,1864,2165,7623,0,0,-1
-19.34,13.31,15.75,1864,2164,7627,-1,0,-1
-19.34,13.30,15.74,1855,2168,7622,-1,0,-1
-19.33,13.28,15.74,1858,2161,7628,-1,0,-1
-19.33,13.28,15.74,1856,2160,7626,-1,0,-1
-19.33,13.27,15.73,1853,2156,7629,-1,0,-1
-19.32,13.25,15.74,1843,2149,7637,-1,0,-1
-19.32,13.25,15.74,1844,2153,7631,0,0,-1
-19.32,13.25,15.74,1851,2156,7629,0,0,-1
-19.32,13.25,15.74,1861,2163,7623,-1,0,-1
-19.31,13.24,15.75,1865,2157,7624,-1,0,-1
-19.31,13.24,15.75,1863,2156,7616,-1,0,0
-19.31,13.22,15.74,1858,2147,7627,-1,0,-1
-19.30,13.22,15.73,1862,2151,7633,-1,0,-1
-19.30,13.21,15.73,1853,2150,7630,-1,0,-1
-19.30,13.20,15.72,1851,2148,7628,-1,0,-1
-19.29,13.19,15.72,1854,2150,7622,0,0,-1
-19.29,13.19,15.72,1853,2153,7627,-1,0,-1
-19.28,13.19,15.72,1859,2146,7633,0,0,-1
-19.28,13.18,15.73,1857,2156,7635,0,0,-1
-19.28,13.18,15.73,1853,2158,7631,-1,0,-1
-19.28,13.17,15.73,1851,2157,7632,0,0,-1
-19.28,13.16,15.73,1851,2161,7628,-1,0,-1
-19.28,13.16,15.73,1853,2153,7615,-1,0,0
-19.27,13.16,15.73,1846,2151,7615,-1,0,-1
-19.27,13.15,15.72,1845,2144,7621,-1,0,-1
-19.27,13.14,15.72,1844,2147,7629,-1,0,-1
-19.27,13.13,15.72,1849,2148,7625,-1,0,-1
-19.27,13.13,15.72,1849,2145,7625,-1,0,-1
-19.27,13.12,15.72,1844,2151,7623,-1,0,-1
-19.26,13.11,15.72,1838,2159,7629,-1,0,-1
-19.25,13.10,15.72,1842,2155,7630,-1,0,-1
-19.25,13.10,15.72,1847,2158,7629,-1,0,0
-19.25,13.10,15.71,1851,2159,7628,-1,0,-1
-19.25,13.09,15.71,1852,2156,7640,-1,0,-1
-19.25,13.08,15.71,1848,2155,7629,-1,0,-1
-19.25,13.07,15.71,1840,2150,7623,-1,0,-1
-19.24,13.06,15.71,1848,2153,7630,-1,0,-1
-19.24,13.05,15.71,1848,2164,7635,-1,0,-1
-19.24,13.05,15.71,1842,2166,7639,-1,0,-1
-19.23,13.03,15.72,1830,2163,7635,-1,0,-1
-19.23,13.02,15.72,1830,2161,7628,-1,0,-1
-19.22,13.02,15.72,1835,2153,7629,-1,0,-1
-19.22,13.00,15.71,1829,2158,7633,-1,0,-1
-19.22,13.00,15.71,1828,2153,7626,-1,0,-1
-19.21,12.99,15.71,1828,2148,7620,-1,0,-1
-19.21,12.98,15.72,1834,2155,7620,-1,0,-1
-19.21,12.97,15.72,1832,2158,7622,-1,0,-1
-19.20,12.96,15.71,1830,2159,7634,-1,0,-1
-19.20,12.94,15.71,1824,2155,7631,-1,0,-1
-19.19,12.94,15.71,1819,2151,7631,-1,0,-1
-19.19,12.93,15.71,1817,2145,7614,0,0,-1
-19.19,12.92,15.71,1816,2145,7628,0,0,-1
-19.18,12.92,15.71,1815,2154,7626,0,0,-1
-19.18,12.91,15.72,1814,2155,7631,0,0,-1
-19.17,12.90,15.72,1818,2159,7638,-1,0,-1
-19.17,12.89,15.72,1824,2169,7635,-1,0,-1
-19.16,12.88,15.72,1823,2159,7637,-1,0,-1
-19.16,12.86,15.72,1815,2154,7648,-1,0,-1
-19.16,12.86,15.72,1809,2158,7637,-1,0,-1
-19.15,12.84,15.72,1807,2159,7638,-1,0,-1
-19.15,12.84,15.72,1809,2158,7637,0,0,-1
-19.15,12.83,15.72,1809,2162,7634,0,0,-1
-19.14,12.82,15.72,1804,2162,7635,0,0,-1
-19.13,12.81,15.72,1799,2162,7633,-1,0,-1
-19.13,12.81,15.72,1802,2165,7624,-1,0,-1
-19.13,12.81,15.72,1802,2152,7632,-1,0,-1
-19.13,12.81,15.72,1799,2148,7634,-1,0,0
-19.13,12.81,15.71,1802,2147,7621,-1,0,0
-19.13,12.81,15.71,1795,2149,7625,0,0,-1
-19.13,12.81,15.72,1802,2152,7633,0,-1,0
-19.13,12.81,15.72,1808,2163,7636,-1,-1,-1
-19.13,12.81,15.72,1811,2163,7640,-1,-1,0
-19.13,12.81,15.72,1811,2163,7633,0,-1,0
-19.13,12.81,15.73,1814,2160,7633,-1,0,0
-19.13,12.82,15.73,1807,2157,7639,0,-1,-1
-19.13,12.82,15.74,1805,2167,7638,0,-1,0
-19.13,12.83,15.74,1809,2164,7635,0,-1,0
-19.13,12.84,15.74,1812,2169,7637,-1,-1,0
-19.14,12.84,15.74,1817,2167,7632,-1,-1,0
-19.14,12.85,15.74,1815,2161,7630,-1,-1,0
-19.14,12.85,15.74,1824,2156,7627,0,-1,-1
-19.14,12.85,15.75,1820,2169,7623,0,-1,-1
-19.14,12.85,15.75,1815,2168,7625,-1,0,-1
-19.14,12.85,15.75,1818,2164,7633,-1,-1,-1
-19.14,12.86,15.75,1819,2165,7627,-1,-1,0
-19.14,12.86,15.76,1822,2170,7637,-1,-1,-1
-19.13,12.86,15.76,1816,2168,7637,-1,-1,-1
-19.13,12.86,15.76,1812,2173,7635,-1,-1,-1
-19.13,12.87,15.76,1815,2166,7627,-1,-1,0
-19.13,12.87,15.76,1817,2166,7625,-1,0,0
-19.13,12.86,15.75,1812,2161,7624,-1,-1,0
-19.13,12.86,15.75,1814,2159,7627,-1,0,0
-19.13,12.86,15.75,1815,2161,7636,-1,-1,0
-19.14,12.87,15.75,1816,2159,7642,0,-1,0
-19.14,12.88,15.76,1820,2177,7638,0,-1,0
-19.14,12.88,15.76,1817,2166,7633,0,-1,0
-19.15,12.90,15.76,1825,2169,7626,0,-1,0
-19.16,12.90,15.77,1825,2170,7633,-1,-1,0
-19.16,12.91,15.76,1820,2186,7633,-1,-1,0
-19.16,12.91,15.76,1821,2180,7634,-1,-1,0
-19.16,12.91,15.76,1816,2170,7638,-1,-1,0
-19.17,12.92,15.75,1819,2164,7637,-1,-1,0
-19.17,12.93,15.75,1827,2157,7640,0,-1,0
-19.18,12.94,15.76,1829,2157,7633,0,-1,0
-19.19,12.95,15.76,1831,2161,7621,0,-1,0
-19.19,12.96,15.77,1843,2165,7614,0,-1,0
-19.19,12.96,15.77,1840,2159,7625,-1,-1,0
-19.19,12.97,15.77,1841,2162,7634,-1,-1,0
-19.19,12.97,15.77,1836,2169,7636,-1,0,0
-19.19,12.97,15.77,1827,2173,7635,-1,-1,0
-19.19,12.97,15.77,1827,2164,7632,-1,-1,0
-19.20,12.98,15.77,1828,2167,7621,0,-1,0
-19.21,12.99,15.78,1832,2166,7619,0,-1,0
-19.21,13.00,15.79,1832,2170,7624,0,-1,0
-19.21,13.00,15.79,1838,2174,7618,0,-1,0
-19.21,13.01,15.79,1841,2176,7617,-1,-1,0
-19.22,13.02,15.79,1845,2176,7625,-1,-1,0
-19.22,13.03,15.78,1843,2172,7621,-1,-1,0
-19.23,13.03,15.77,1841,2163,7631,-1,-1,0
-19.23,13.03,15.77,1837,2161,7624,-1,-1,0
-19.23,13.04,15.77,1842,2159,7613,-1,-1,0
-19.23,13.04,15.77,1846,2155,7618,-1,-1,0
-19.23,13.05,15.77,1847,2153,7611,0,-1,0
-19.24,13.05,15.77,1844,2153,7623,0,-1,0
-19.24,13.06,15.78,1849,2159,7621,0,-1,0
-19.24,13.06,15.79,1847,2172,7615,0,-1,0
-19.24,13.07,15.79,1841,2174,7620,0,-1,0
-19.24,13.08,15.80,1841,2169,7617,0,-1,0
-19.25,13.09,15.80,1846,2172,7614,0,-1,0
-19.25,13.09,15.80,1855,2176,7613,-1,-1,0
-19.25,13.10,15.80,1859,2171,7629,0,-1,0
-19.25,13.11,15.81,1858,2175,7625,-1,-1,0
-19.26,13.11,15.80,1851,2170,7624,-1,-1,0
-19.26,13.11,15.81,1852,2165,7612,0,0,0
-19.26,13.11,15.81,1850,2168,7612,0,-1,-1
-19.26,13.12,15.81,1848,2173,7616,0,-1,0
-19.26,13.12,15.82,1851,2177,7619,0,-1,0
-19.26,13.12,15.82,1850,2182,7624,0,-1,0
-19.26,13.12,15.83,1847,2184,7626,0,-1,0
-19.26,13.12,15.83,1852,2183,7628,-1,0,0
-19.26,13.12,15.83,1852,2176,7625,0,0,-1
-19.26,13.12,15.84,1856,2181,7623,0,0,-1
-19.26,13.12,15.84,1852,2182,7630,0,0,-1
-19.25,13.11,15.84,1849,2186,7629,0,0,-1
-19.25,13.11,15.84,1855,2185,7634,0,0,-1
-19.25,13.10,15.85,1854,2194,7628,-1,0,-1
-19.24,13.09,15.85,1847,2182,7627,-1,0,0
-19.25,13.09,15.85,1855,2175,7641,-1,0,0
-19.25,13.09,15.84,1855,2172,7627,-1,0,0
-19.25,13.08,15.84,1848,2163,7627,-1,0,-1
-19.24,13.08,15.84,1851,2172,7624,0,0,-1
-19.24,13.07,15.85,1848,2169,7621,-1,0,-1
-19.23,13.07,15.85,1856,2163,7612,0,0,-1
-19.23,13.06,15.85,1850,2169,7614,-1,0,-1
-19.22,13.05,15.85,1855,2168,7619,-1,0,-1
-19.21,13.04,15.85,1850,2175,7629,-1,0,-1
-19.21,13.03,15.85,1846,2188,7631,-1,0,-1
-19.20,13.01,15.85,1834,2182,7634,-1,0,-1
-19.20,13.00,15.85,1831,2181,7626,-1,0,-1
-19.20,13.00,15.85,1825,2176,7625,0,0,-1
-19.19,12.99,15.85,1827,2187,7625,0,0,-1
-19.19,12.98,15.86,1839,2185,7625,-1,0,-1
-19.19,12.98,15.86,1834,2190,7623,-1,0,-1
-19.19,12.97,15.86,1837,2187,7622,-1,0,-1
-19.19,12.97,15.85,1837,2179,7627,-1,0,0
-19.18,12.96,15.84,1844,2174,7627,-1,0,-1
-19.18,12.95,15.84,1841,2173,7625,-1,0,-1
-19.17,12.95,15.85,1832,2173,7620,-1,0,-1
-19.17,12.94,15.85,1832,2173,7619,-1,0,-1
-19.17,12.93,15.85,1827,2175,7619,-1,0,-1
-19.16,12.92,15.85,1827,2177,7617,-1,0,-1
-19.16,12.91,15.85,1823,2185,7618,-1,0,-1
-19.16,12.90,15.85,1825,2179,7620,-1,0,-1
-19.15,12.89,15.85,1822,2186,7625,0,0,-1
-19.15,12.88,15.86,1815,2188,7626,0,0,-1
-19.14,12.87,15.86,1817,2192,7629,-1,0,-1
-19.14,12.87,15.86,1823,2193,7624,-1,0,-1
-19.13,12.86,15.86,1821,2188,7622,-1,0,-1
-19.13,12.85,15.87,1808,2190,7623,-1,0,-1
-19.13,12.84,15.86,1819,2178,7626,-1,0,-1
-19.12,12.83,15.86,1826,2177,7618,-1,0,-1
-19.12,12.82,15.86,1823,2179,7633,-1,0,-1
-19.12,12.81,15.85,1823,2181,7634,-1,0,-1
-19.11,12.79,15.85,1814,2178,7631,-1,0,-1
-19.11,12.79,15.85,1806,2172,7632,-1,0,-1
-19.10,12.77,15.84,1802,2176,7626,-1,0,-1
-19.10,12.76,15.84,1799,2178,7627,-1,0,-1
-19.09,12.75,15.84,1801,2179,7635,-1,0,-1
-19.09,12.74,15.85,1799,2176,7643,-1,0,-1
-19.08,12.73,15.85,1802,2177,7633,0,0,-1
-19.08,12.72,15.85,1799,2174,7630,0,0,-1
-19.07,12.71,15.86,1796,2177,7632,0,0,-1
-19.07,12.70,15.87,1800,2178,7626,-1,0,-1
-19.07,12.69,15.87,1793,2183,7631,0,0,-1
-19.07,12.68,15.87,1800,2195,7632,-1,0,-1
-19.06,12.66,15.86,1796,2193,7645,-1,0,-1
-19.05,12.65,15.86,1794,2189,7655,-1,0,-1
-19.05,12.64,15.87,1786,2182,7648,-1,0,-1
-19.04,12.63,15.87,1784,2184,7644,0,0,-1
-19.04,12.62,15.87,1788,2191,7633,-1,0,-1
-19.03,12.61,15.87,1791,2191,7634,-1,0,-1
-19.03,12.60,15.88,1797,2199,7635,-1,0,-1
-19.03,12.59,15.88,1788,2198,7627,-1,0,-1
-19.02,12.58,15.87,1783,2187,7633,-1,0,-1
-19.02,12.56,15.88,1785,2194,7634,-1,0,-1
-19.01,12.55,15.87,1784,2191,7638,-1,0,-1
-19.00,12.53,15.87,1778,2187,7647,-1,0,-1
-19.00,12.52,15.87,1772,2174,7638,-1,0,-1
-18.99,12.50,15.87,1768,2181,7631,0,0,-1
-18.98,12.49,15.87,1760,2180,7632,0,0,-1
-18.98,12.48,15.88,1751,2181,7639,0,0,-1
-18.98,12.48,15.88,1754,2190,7644,-1,0,0
-18.98,12.48,15.88,1762,2190,7640,0,0,-1
-18.98,12.47,15.89,1765,2193,7634,-1,0,-1
-18.97,12.47,15.88,1764,2184,7638,-1,0,-1
-18.97,12.47,15.89,1767,2185,7632,-1,0,0
-18.97,12.48,15.88,1764,2189,7640,-1,-1,-1
-18.97,12.48,15.89,1768,2196,7640,-1,-1,0
-18.97,12.48,15.89,1766,2194,7639,-1,-1,0
-18.97,12.49,15.89,1760,2190,7639,-1,-1,0
-18.98,12.50,15.89,1760,2187,7640,0,-1,0
-18.99,12.51,15.90,1768,2190,7630,0,-1,0
-18.99,12.51,15.90,1780,2190,7634,-1,-1,0
-18.99,12.52,15.90,1783,2196,7626,-1,-1,0
-18.99,12.53,15.90,1787,2184,7625,-1,0,0
-19.00,12.53,15.90,1782,2182,7627,0,-1,0
-19.00,12.53,15.90,1773,2186,7627,0,-1,0
-19.00,12.54,15.90,1772,2187,7633,-1,-1,0
-19.00,12.55,15.91,1777,2190,7642,0,-1,0
-19.00,12.55,15.92,1775,2197,7637,0,-1,0
-19.01,12.56,15.91,1777,2197,7643,-1,-1,0
-19.01,12.56,15.91,1771,2200,7635,-1,-1,0
-19.01,12.57,15.91,1781,2189,7635,-1,-1,0
-19.02,12.58,15.91,1784,2184,7631,0,-1,0
-19.02,12.58,15.91,1791,2188,7634,0,-1,0
-19.02,12.59,15.92,1787,2195,7622,0,-1,0
-19.02,12.60,15.92,1788,2195,7620,-1,-1,0
-19.02,12.60,15.92,1789,2181,7617,-1,-1,-1
-19.03,12.61,15.92,1790,2193,7617,-1,0,0
-19.02,12.60,15.92,1781,2195,7621,-1,0,0
-19.02,12.60,15.92,1780,2189,7635,-1,0,0
-19.02,12.60,15.92,1768,2202,7639,-1,-1,0
-19.02,12.60,15.92,1769,2190,7637,-1,-1,0
-19.03,12.61,15.92,1778,2191,7625,0,-1,0
-19.03,12.61,15.93,1778,2196,7621,0,-1,0
-19.04,12.63,15.93,1785,2201,7618,-1,-1,0
-19.04,12.64,15.93,1787,2204,7620,-1,-1,0
-19.04,12.64,15.93,1801,2201,7617,-1,0,0
-19.04,12.64,15.93,1799,2197,7631,-1,0,0
-19.04,12.64,15.92,1794,2190,7639,-1,0,0
-19.05,12.64,15.92,1788,2187,7633,-1,0,0
-19.05,12.64,15.92,1786,2190,7626,-1,-1,0
-19.05,12.65,15.92,1778,2198,7634,-1,-1,0
-19.05,12.66,15.92,1787,2200,7631,-1,-1,0
-19.05,12.66,15.92,1786,2197,7636,-1,-1,0
-19.05,12.67,15.93,1793,2198,7629,-1,-1,0
-19.06,12.68,15.93,1796,2200,7630,-1,-1,0
-19.06,12.69,15.93,1798,2191,7629,-1,-1,0
-19.06,12.69,15.93,1799,2197,7622,-1,-1,0
-19.07,12.70,15.93,1801,2197,7625,-1,-1,0
-19.07,12.70,15.93,1804,2195,7628,-1,-1,0
-19.08,12.71,15.93,1806,2190,7632,-1,-1,0
-19.08,12.72,15.93,1800,2194,7638,-1,-1,0
-19.08,12.72,15.93,1798,2194,7634,-1,-1,0
-19.09,12.73,15.93,1803,2186,7632,-1,-1,0
-19.09,12.74,15.92,1796,2186,7631,-1,-1,0
-19.10,12.74,15.92,1798,2186,7612,-1,-1,0
-19.10,12.75,15.92,1797,2180,7628,-1,-1,0
-19.10,12.75,15.92,1804,2188,7631,0,-1,0
-19.10,12.75,15.93,1802,2193,7632,-1,-1,0
-19.11,12.76,15.93,1801,2199,7626,-1,-1,0
-19.11,12.77,15.93,1808,2194,7629,0,-1,0
-19.11,12.78,15.93,1809,2196,7624,0,-1,0
-19.12,12.79,15.94,1816,2187,7621,-1,-1,0
-19.12,12.79,15.94,1824,2198,7615,-1,-1,0
-19.12,12.80,15.94,1820,2189,7615,-1,-1,0
-19.13,12.81,15.94,1821,2182,7617,-1,-1,0
-19.13,12.81,15.94,1819,2179,7626,-1,-1,0
-19.13,12.81,15.94,1812,2185,7625,0,-1,0
-19.13,12.81,15.94,1813,2187,7619,0,-1,0
-19.13,12.82,15.94,1816,2194,7617,0,-1,0
-19.13,12.83,15.94,1811,2189,7635,-1,-1,0
-19.13,12.83,15.94,1799,2195,7639,-1,-1,0
-19.14,12.84,15.94,1809,2189,7627,-1,-1,0
-19.14,12.84,15.94,1816,2185,7637,-1,-1,0
-19.15,12.84,15.93,1816,2182,7624,-1,-1,0
-19.15,12.86,15.93,1822,2182,7620,-1,-1,0
-19.15,12.86,15.94,1825,2187,7606,0,-1,0
-19.16,12.87,15.94,1825,2189,7609,0,-1,0
-19.16,12.87,15.95,1824,2191,7616,-1,-1,-1
-19.16,12.88,15.95,1826,2199,7624,-1,-1,0
-19.16,12.89,15.95,1823,2196,7626,-1,0,0
-19.17,12.89,15.94,1824,2184,7632,-1,-1,0
-19.17,12.89,15.95,1825,2190,7622,-1,0,0
-19.17,12.89,15.94,1817,2184,7638,-1,-1,0
-19.17,12.90,15.95,1818,2184,7629,0,-1,0
-19.17,12.90,15.95,1819,2190,7618,0,-1,0
-19.17,12.91,15.96,1818,2191,7619,0,-1,0
-19.17,12.92,15.97,1831,2198,7625,0,-1,0
-19.17,12.93,15.96,1836,2197,7627,-1,0,0
-19.17,12.93,15.96,1844,2195,7621,-1,0,0
-19.17,12.93,15.96,1845,2193,7616,-1,0,-1
-19.17,12.91,15.97,1836,2195,7618,-1,0,-1
-19.17,12.90,15.96,1829,2190,7612,-1,0,-1
-19.16,12.89,15.97,1825,2201,7615,-1,0,-1
-19.16,12.88,15.96,1822,2209,7622,-1,0,-1
-19.16,12.88,15.96,1825,2197,7630,-1,0,-1
-19.16,12.88,15.96,1826,2192,7632,-1,0,-1
-19.15,12.87,15.96,1824,2198,7629,-1,0,-1
-19.15,12.87,15.96,1824,2194,7620,0,0,-1
-19.14,12.86,15.97,1824,2197,7613,0,0,-1
-19.14,12.86,15.98,1824,2197,7616,0,0,-1
-19.13,12.84,15.98,1818,2197,7610,0,0,-1
-19.13,12.83,15.98,1818,2194,7610,0,0,-1
-19.12,12.82,15.99,1817,2197,7613,-1,0,-1
-19.12,12.81,15.99,1819,2201,7612,-1,0,0
-19.12,12.81,15.99,1809,2198,7629,-1,0,-1
-19.12,12.80,15.99,1810,2205,7621,-1,0,0
-19.12,12.80,15.98,1809,2193,7627,-1,0,-1
-19.12,12.80,15.99,1820,2194,7625,0,0,-1
-19.10,12.79,15.98,1813,2194,7624,-1,0,-1
-19.10,12.78,15.98,1819,2192,7634,-1,0,-1
-19.10,12.78,15.99,1818,2201,7636,-1,0,-1
-19.10,12.77,15.99,1821,2198,7626,-1,0,-1
-19.10,12.77,15.99,1809,2199,7626,-1,0,-1
-19.09,12.76,15.99,1811,2209,7623,-1,0,-1
-19.09,12.75,15.99,1807,2209,7617,-1,0,-1
-19.08,12.75,15.99,1814,2195,7617,-1,0,-1
-19.08,12.74,15.99,1799,2198,7614,0,0,-1
-19.08,12.73,15.99,1794,2207,7619,-1,0,-1
-19.07,12.72,15.99,1808,2205,7620,0,0,-1
-19.07,12.72,15.99,1809,2206,7611,-1,0,-1
-19.07,12.72,16.00,1808,2207,7611,-1,0,-1
-19.06,12.71,16.00,1803,2201,7627,-1,0,-1
-19.06,12.70,15.99,1804,2194,7634,-1,0,-1
-19.06,12.69,15.99,1807,2196,7640,-1,0,-1
-19.06,12.69,15.99,1804,2198,7628,-1,0,-1
-19.06,12.69,15.99,1811,2197,7623,0,0,-1
-19.06,12.69,15.99,1803,2199,7616,-1,0,-1
-19.06,12.68,15.99,1806,2193,7614,-1,0,-1
-19.05,12.67,15.99,1806,2191,7620,-1,0,-1
-19.05,12.66,15.99,1800,2200,7629,-1,0,-1
-19.04,12.64,15.99,1792,2210,7623,-1,0,-1
-19.03,12.63,15.99,1782,2210,7624,-1,0,-1
-19.03,12.62,15.99,1781,2204,7631,-1,0,-1
-19.03,12.62,15.99,1790,2198,7635,0,0,-1
-19.03,12.62,15.99,1789,2200,7631,0,0,-1
-19.02,12.61,15.99,1793,2199,7624,-1,0,-1
-19.02,12.61,16.00,1789,2205,7615,-1,0,-1
-19.02,12.60,16.00,1788,2201,7621,-1,0,-1
-19.02,12.59,15.99,1788,2204,7631,-1,0,-1
-19.02,12.58,15.99,1791,2204,7636,-1,0,-1
-19.01,12.56,15.99,1787,2196,7639,-1,0,-1
-19.00,12.56,15.99,1784,2192,7631,-1,0,-1
-19.00,12.54,15.98,1777,2193,7627,-1,0,-1
-18.99,12.53,15.98,1782,2192,7628,0,0,-1
-18.98,12.52,15.99,1787,2196,7626,0,0,-1
-18.97,12.50,16.00,1772,2211,7630,0,0,-1
-18.96,12.49,16.00,1777,2219,7629,-1,0,-1
-18.96,12.48,16.01,1775,2235,7649,-1,0,-1
-18.95,12.46,16.01,1776,2215,7646,-1,0,-1
-18.95,12.45,16.00,1769,2203,7643,0,0,-1
-18.93,12.44,16.01,1762,2205,7638,-1,0,-1
-18.93,12.43,16.01,1770,2199,7652,-1,0,-1
-18.93,12.42,16.00,1754,2184,7644,-1,0,-1
-18.93,12.42,16.01,1766,2172,7635,0,0,-1
-18.92,12.40,16.02,1753,2179,7646,0,0,-1
-18.91,12.40,16.03,1746,2182,7630,0,-1,-1
-18.90,12.40,16.05,1754,2215,7631,0,-1,-1
-18.90,12.40,16.04,1750,2202,7622,-1,-1,0
-18.91,12.41,16.05,1744,2206,7634,0,-1,-1
-18.91,12.42,16.05,1747,2208,7648,0,-1,0
-18.91,12.44,16.05,1750,2197,7619,-1,-1,0
-18.92,12.45,16.04,1752,2203,7620,0,-1,0
-18.93,12.46,16.05,1752,2199,7606,-1,-1,0
-18.93,12.46,16.05,1739,2223,7617,-1,-1,0
-18.93,12.48,16.06,1774,2208,7620,0,-1,0
-18.93,12.49,16.07,1762,2215,7617,0,0,0
-18.94,12.49,16.06,1767,2207,7620,-1,0,-1
-18.93,12.48,16.07,1760,2210,7619,0,0,-1
-18.93,12.47,16.07,1750,2205,7620,-1,0,0
-18.93,12.46,16.05,1763,2236,7636,-1,0,0
-18.93,12.46,16.04,1764,2202,7613,-1,0,0
-18.94,12.46,16.03,1764,2175,7608,-1,0,-1
-18.94,12.46,16.03,1752,2203,7622,-1,0,-1
-18.94,12.45,16.03,1758,2202,7619,0,0,-1
-18.93,12.45,16.03,1758,2197,7632,0,0,-1
-18.93,12.44,16.04,1757,2200,7640,0,0,-1
-18.93,12.44,16.06,1754,2220,7642,0,0,-1
-18.93,12.43,16.07,1744,2240,7642,0,-1,0
-18.93,12.43,16.08,1731,2250,7652,-1,-1,0
-18.94,12.44,16.07,1737,2247,7652,-1,-1,0
-18.95,12.45,16.06,1748,2232,7642,-1,-1,0
-18.96,12.46,16.05,1750,2222,7633,-1,-1,0
-18.96,12.48,16.05,1749,2222,7629,-1,-1,0
-18.97,12.49,16.04,1756,2209,7622,-1,-1,0
-18.98,12.50,16.04,1768,2201,7627,-1,-1,0
-18.98,12.51,16.03,1774,2193,7630,-1,-1,0
-18.99,12.52,16.03,1770,2190,7635,-1,-1,0
-18.99,12.53,16.04,1766,2191,7632,0,-1,0
-19.00,12.53,16.04,1764,2199,7635,0,-1,0
-19.00,12.54,16.05,1764,2208,7627,0,-1,0
-19.00,12.55,16.05,1767,2213,7629,-1,-1,0
-19.00,12.55,16.05,1759,2204,7623,-1,-1,0
-19.01,12.56,16.05,1760,2205,7624,-1,-1,0
-19.01,12.56,16.04,1751,2200,7633,-1,-1,0
-19.01,12.56,16.04,1750,2208,7635,-1,-1,0
-19.01,12.57,16.04,1756,2207,7635,0,-1,0
-19.02,12.58,16.04,1756,2204,7636,0,-1,0
-19.02,12.59,16.04,1752,2198,7635,0,-1,0
-19.02,12.59,16.05,1763,2209,7625,-1,-1,0
-19.02,12.60,16.05,1770,2210,7630,-1,-1,0
-19.03,12.61,16.05,1771,2214,7632,-1,-1,0
-19.03,12.62,16.05,1769,2210,7622,-1,-1,0
-19.04,12.62,16.05,1768,2197,7613,0,-1,0
-19.04,12.63,16.05,1768,2201,7617,-1,-1,0
-19.04,12.63,16.05,1770,2206,7621,-1,-1,0
-19.05,12.64,16.05,1776,2197,7625,0,-1,0
-19.05,12.65,16.05,1772,2199,7618,0,-1,0
-19.05,12.65,16.05,1774,2210,7611,0,-1,0
-19.06,12.66,16.05,1774,2206,7621,0,-1,0
-19.06,12.67,16.06,1772,2208,7619,-1,-1,0
-19.07,12.67,16.05,1771,2205,7625,-1,-1,0
-19.07,12.68,16.05,1776,2205,7626,-1,-1,0
-19.08,12.69,16.05,1770,2207,7629,-1,-1,0
-19.08,12.69,16.05,1769,2203,7630,0,-1,0
-19.09,12.70,16.05,1778,2204,7626,0,-1,0
-19.09,12.71,16.05,1777,2210,7621,-1,-1,0
-19.10,12.72,16.05,1782,2209,7621,-1,-1,0
-19.10,12.72,16.05,1786,2209,7629,-1,-1,0
-19.11,12.73,16.05,1787,2214,7637,-1,-1,0
-19.11,12.73,16.04,1777,2206,7643,-1,-1,0
-19.12,12.73,16.04,1774,2204,7647,0,-1,0
-19.12,12.74,16.05,1774,2200,7639,0,-1,0
-19.13,12.75,16.04,1770,2196,7630,0,-1,0
-19.13,12.76,16.05,1778,2208,7625,0,-1,0
-19.13,12.77,16.06,1783,2209,7630,0,-1,0
-19.13,12.78,16.06,1789,2208,7628,0,-1,0
-19.14,12.79,16.07,1788,2210,7624,0,-1,0
-19.14,12.79,16.07,1790,2209,7631,-1,-1,0
-19.14,12.79,16.06,1791,2201,7635,-1,-1,0
-19.15,12.79,16.06,1790,2211,7636,-1,-1,0
-19.15,12.79,16.05,1781,2203,7647,-1,-1,0
-19.15,12.80,16.06,1780,2199,7638,0,-1,0
-19.16,12.81,16.06,1778,2205,7633,0,-1,0
-19.16,12.81,16.06,1777,2203,7625,0,-1,0
-19.17,12.83,16.07,1789,2206,7630,-1,-1,0
-19.17,12.84,16.07,1793,2200,7633,-1,-1,0
-19.17,12.84,16.06,1798,2202,7634,-1,-1,0
-19.17,12.84,16.06,1795,2207,7626,-1,-1,0
-19.17,12.84,16.06,1791,2206,7625,-1,-1,0
-19.18,12.84,16.06,1789,2203,7619,-1,-1,0
-19.18,12.85,16.06,1790,2198,7624,0,-1,0
-19.18,12.85,16.06,1787,2198,7627,0,-1,0
-19.18,12.86,16.06,1789,2211,7617,-1,-1,0
-19.18,12.86,16.06,1787,2208,7614,-1,-1,0
-19.19,12.87,16.06,1793,2210,7620,-1,-1,0
-19.19,12.87,16.06,1797,2211,7620,-1,-1,0
-19.19,12.87,16.06,1796,2206,7627,0,-1,0
-19.20,12.88,16.07,1796,2213,7638,0,-1,0
-19.20,12.88,16.07,1790,2211,7627,0,-1,0
-19.20,12.89,16.07,1796,2205,7616,0,-1,0
-19.20,12.90,16.07,1797,2200,7616,-1,-1,0
-19.21,12.90,16.07,1802,2198,7621,-1,-1,0
-19.21,12.91,16.06,1801,2197,7639,-1,-1,0
-19.22,12.91,16.06,1792,2208,7623,-1,-1,0
-19.22,12.91,16.06,1797,2201,7624,0,-1,0
-19.22,12.91,16.07,1799,2206,7618,0,-1,0
-19.22,12.92,16.07,1799,2210,7618,-1,-1,0
-19.22,12.92,16.07,1794,2214,7625,0,-1,0
-19.22,12.92,16.08,1793,2209,7624,0,-1,0
-19.22,12.92,16.08,1795,2212,7623,0,-1,0
-19.22,12.92,16.08,1791,2214,7625,0,-1,0
-19.22,12.92,16.08,1787,2213,7626,0,-1,0
-19.23,12.93,16.08,1789,2217,7631,-1,-1,0
-19.23,12.93,16.08,1797,2225,7629,-1,-1,0
-19.23,12.93,16.08,1802,2216,7615,-1,-1,0
-19.23,12.93,16.08,1807,2207,7622,0,0,0
-19.23,12.93,16.08,1805,2208,7623,-1,-1,0
-19.23,12.93,16.09,1801,2208,7625,0,-1,0
-19.23,12.93,16.09,1806,2213,7616,0,-1,-1
-19.23,12.93,16.09,1804,2216,7613,-1,0,0
-19.23,12.93,16.09,1799,2216,7626,-1,0,-1
-19.23,12.92,16.09,1802,2211,7629,-1,0,0
-19.23,12.92,16.08,1803,2204,7630,-1,-1,-1
-19.23,12.92,16.08,1801,2202,7629,0,-1,0
-19.23,12.92,16.09,1802,2206,7624,0,-1,0
-19.23,12.92,16.10,1795,2194,7612,0,-1,-1
-19.23,12.92,16.10,1797,2203,7608,0,-1,-1
-19.23,12.92,16.11,1803,2214,7609,-1,-1,-1
-19.22,12.91,16.10,1810,2215,7618,-1,0,-1
-19.22,12.90,16.10,1804,2222,7621,-1,0,-1
-19.22,12.90,16.09,1795,2219,7633,-1,0,-1
-19.22,12.88,16.10,1785,2206,7632,-1,0,-1
-19.22,12.88,16.10,1784,2206,7631,0,-1,-1
-19.22,12.88,16.10,1783,2213,7623,0,-1,0
-19.22,12.88,16.10,1779,2209,7622,0,-1,-1
-19.22,12.88,16.10,1782,2217,7629,-1,-1,-1
-19.22,12.88,16.11,1793,2222,7620,0,-1,0
-19.22,12.88,16.10,1790,2223,7618,-1,-1,0
-19.22,12.88,16.10,1791,2219,7618,-1,-1,0
-19.21,12.87,16.10,1792,2211,7631,-1,0,0
-19.21,12.87,16.10,1785,2209,7626,-1,0,-1
-19.21,12.86,16.09,1784,2201,7621,-1,0,0
-19.21,12.86,16.09,1785,2199,7623,-1,0,-1
-19.21,12.85,16.09,1791,2203,7624,0,0,-1
-19.21,12.85,16.09,1793,2208,7628,0,-1,-1
-19.20,12.85,16.10,1787,2210,7623,0,-1,-1
-19.20,12.84,16.10,1786,2214,7621,-1,0,-1
-19.20,12.84,16.10,1780,2213,7620,0,0,-1
-19.20,12.83,16.10,1781,2219,7619,-1,0,0
-19.20,12.83,16.10,1778,2220,7621,-1,0,-1
-19.20,12.83,16.10,1778,2220,7627,-1,0,0
-19.20,12.82,16.10,1771,2212,7626,-1,-1,0
-19.20,12.81,16.10,1769,2207,7621,0,0,-1
-19.20,12.81,16.10,1765,2211,7616,0,-1,0
-19.20,12.81,16.10,1775,2213,7619,0,0,-1
-19.20,12.81,16.11,1779,2213,7617,-1,0,-1
-19.19,12.80,16.11,1778,2214,7618,-1,0,-1
-19.18,12.79,16.11,1779,2210,7619,-1,0,0
-19.18,12.78,16.10,1781,2204,7622,-1,0,-1
-19.18,12.77,16.10,1774,2212,7632,-1,0,0
-19.18,12.76,16.09,1767,2205,7634,-1,0,-1
-19.18,12.75,16.09,1769,2212,7633,0,0,-1
-19.17,12.74,16.10,1759,2213,7630,0,0,-1
-19.17,12.73,16.10,1764,2211,7631,0,-1,-1
-19.17,12.73,16.10,1768,2219,7637,0,0,-1
-19.16,12.73,16.11,1772,2226,7644,-1,0,-1
-19.16,12.72,16.10,1767,2224,7636,-1,0,-1
-19.16,12.71,16.10,1755,2219,7631,-1,0,-1
-19.16,12.70,16.09,1764,2211,7636,-1,0,-1
-19.15,12.69,16.09,1754,2211,7641,-1,0,-1
-19.15,12.68,16.09,1746,2204,7628,0,0,-1
-19.15,12.68,16.09,1757,2207,7626,0,0,-1
-19.14,12.67,16.09,1756,2200,7626,-1,0,-1
-19.13,12.67,16.10,1761,2214,7640,0,0,-1
-19.12,12.65,16.10,1762,2218,7629,0,0,-1
-19.11,12.63,16.10,1754,2219,7628,0,0,-1
-19.09,12.61,16.11,1761,2211,7633,0,0,-1
-19.09,12.58,16.10,1747,2196,7620,-1,0,-1
-19.09,12.57,16.11,1744,2207,7642,0,0,-1
-19.08,12.55,16.11,1738,2213,7636,-1,0,-1
-19.07,12.53,16.11,1743,2206,7631,0,0,-1
-19.06,12.51,16.12,1726,2218,7619,-1,0,-1
-19.07,12.51,16.12,1743,2212,7615,-1,0,0
-19.07,12.49,16.11,1739,2229,7624,-1,0,-1
-19.06,12.49,16.10,1726,2222,7625,-1,0,0
-19.06,12.48,16.10,1731,2204,7630,0,-1,0
-19.06,12.48,16.09,1729,2207,7635,-1,-1,0
-19.07,12.48,16.09,1734,2201,7638,0,-1,0
-19.07,12.48,16.08,1737,2185,7639,0,-1,0
-19.07,12.48,16.09,1733,2193,7636,0,-1,-1
-19.07,12.48,16.09,1735,2209,7623,0,-1,0
-19.07,12.48,16.10,1735,2215,7629,0,-1,-1
-19.07,12.48,16.10,1727,2228,7640,0,-1,0
-19.07,12.48,16.11,1730,2231,7635,-1,-1,0
-19.07,12.48,16.11,1725,2228,7641,-1,-1,0
-19.08,12.49,16.10,1735,2235,7635,-1,-1,0
-19.09,12.50,16.10,1734,2229,7644,-1,-1,0
-19.09,12.51,16.10,1740,2207,7647,-1,-1,0
-19.09,12.52,16.10,1737,2201,7636,0,-1,0
-19.10,12.52,16.10,1744,2200,7623,0,-1,0
-19.10,12.53,16.10,1745,2206,7628,0,-1,0
-19.11,12.53,16.10,1746,2213,7644,0,-1,0
-19.11,12.53,16.10,1747,2215,7656,0,-1,0
-19.11,12.53,16.11,1736,2225,7646,0,-1,0
-19.11,12.53,16.11,1734,2223,7650,-1,-1,0
-19.11,12.54,16.11,1736,2217,7644,-1,-1,0
-19.12,12.54,16.11,1738,2216,7645,0,-1,0
-19.12,12.55,16.11,1744,2217,7643,-1,-1,0
-19.12,12.56,16.11,1751,2216,7639,-1,-1,0
-19.13,12.56,16.10,1744,2211,7636,0,-1,0
-19.13,12.56,16.11,1735,2218,7636,0,-1,0
-19.14,12.57,16.11,1734,2219,7627,0,-1,0
-19.14,12.58,16.11,1745,2219,7628,-1,-1,0
-19.14,12.58,16.11,1750,2210,7633,0,-1,0
-19.14,12.59,16.11,1750,2218,7633,-1,-1,0
-19.14,12.59,16.10,1747,2214,7649,-1,-1,0
-19.15,12.59,16.10,1740,2215,7646,-1,-1,0
-19.15,12.59,16.10,1735,2216,7644,0,-1,0
-19.16,12.60,16.11,1740,2209,7639,0,-1,0
-19.16,12.60,16.11,1741,2208,7629,0,-1,0
-19.16,12.61,16.12,1752,2210,7628,0,-1,0
-19.16,12.62,16.13,1754,2224,7632,0,-1,0
-19.17,12.62,16.13,1756,2237,7615,-1,-1,0
-19.17,12.62,16.13,1756,2232,7627,-1,0,0
-19.16,12.62,16.13,1755,2222,7637,-1,-1,0
-19.16,12.61,16.13,1743,2217,7634,-1,-1,0
-19.17,12.61,16.12,1737,2216,7643,-1,-1,0
-19.17,12.62,16.12,1739,2202,7650,0,-1,0
-19.18,12.63,16.12,1741,2210,7647,0,-1,0
-19.18,12.63,16.12,1741,2215,7644,0,-1,0
-19.19,12.65,16.12,1756,2212,7633,0,-1,0
-19.20,12.66,16.12,1766,2209,7627,-1,-1,0
-19.20,12.67,16.12,1764,2214,7627,-1,-1,0
-19.20,12.67,16.12,1765,2207,7630,-1,-1,0
-19.21,12.67,16.12,1764,2208,7628,0,-1,0
-19.21,12.67,16.12,1762,2223,7631,-1,-1,0
-19.21,12.67,16.12,1746,2214,7632,-1,-1,0
-19.21,12.68,16.12,1749,2220,7624,-1,-1,0
-19.22,12.68,16.11,1756,2220,7625,-1,-1,0
-19.22,12.69,16.11,1757,2218,7638,-1,-1,0
-19.23,12.70,16.11,1757,2222,7629,0,-1,0
-19.23,12.70,16.12,1759,2221,7632,0,-1,0
-19.23,12.71,16.12,1765,2221,7624,0,-1,0
-19.24,12.72,16.12,1769,2217,7634,0,-1,0
-19.24,12.73,16.12,1776,2221,7627,-1,-1,0
-19.25,12.73,16.12,1775,2209,7631,0,-1,0
-19.25,12.73,16.12,1770,2220,7622,-1,-1,0
-19.25,12.73,16.12,1762,2223,7633,-1,-1,0
-19.26,12.74,16.12,1764,2219,7635,-1,-1,0
-19.26,12.74,16.12,1769,2222,7632,0,-1,0
-19.26,12.74,16.12,1766,2219,7628,-1,-1,0
-19.26,12.75,16.13,1768,2221,7627,-1,-1,0
-19.26,12.75,16.13,1767,2218,7630,-1,-1,0
-19.26,12.75,16.13,1770,2212,7626,-1,-1,0
-19.27,12.76,16.12,1775,2219,7631,0,-1,0
-19.27,12.76,16.13,1769,2228,7631,-1,-1,0
-19.27,12.77,16.13,1778,2228,7631,0,-1,0
-19.27,12.77,16.13,1776,2220,7624,-1,-1,0
-19.28,12.77,16.13,1775,2218,7625,-1,-1,0
-19.28,12.77,16.13,1777,2217,7631,0,-1,0
-19.28,12.77,16.13,1776,2214,7630,0,-1,0
-19.28,12.78,16.13,1770,2213,7626,-1,-1,0
-19.29,12.78,16.13,1773,2213,7615,-1,-1,0
-19.29,12.79,16.13,1779,2218,7603,0,-1,0
-19.29,12.80,16.13,1778,2216,7625,-1,-1,0
-19.29,12.80,16.13,1779,2214,7618,-1,-1,0
-19.29,12.80,16.13,1772,2226,7619,-1,-1,0
-19.30,12.81,16.13,1774,2220,7620,-1,-1,0
-19.30,12.81,16.13,1772,2213,7636,0,-1,0
-19.30,12.81,16.13,1772,2212,7640,-1,-1,0
-19.30,12.81,16.13,1764,2213,7627,0,-1,0
-19.31,12.82,16.14,1763,2211,7622,0,-1,0
-19.31,12.83,16.14,1776,2216,7621,0,-1,0
-19.31,12.83,16.14,1778,2213,7626,-1,-1,0
-19.31,12.83,16.13,1781,2217,7625,-1,-1,0
-19.31,12.82,16.14,1777,2218,7615,-1,0,0
-19.31,12.82,16.13,1770,2218,7615,-1,0,0
-19.31,12.81,16.13,1765,2215,7624,-1,-1,0
-19.31,12.81,16.14,1765,2216,7626,0,-1,0
-19.31,12.82,16.13,1764,2218,7628,0,-1,0
-19.32,12.82,16.15,1765,2221,7625,0,-1,0
-19.32,12.83,16.16,1767,2218,7625,0,-1,0
-19.33,12.83,16.16,1769,2229,7620,0,-1,0
-19.33,12.84,16.16,1778,2231,7631,-1,-1,0
-19.33,12.84,16.16,1785,2230,7639,-1,-1,0
-19.33,12.84,16.15,1788,2225,7638,-1,-1,0
-19.33,12.84,16.15,1781,2225,7627,-1,-1,0
-19.33,12.84,16.15,1782,2215,7620,-1,-1,0
-19.33,12.84,16.15,1778,2214,7629,-1,-1,-1
-19.33,12.83,16.15,1781,2215,7621,-1,-1,0
-19.34,12.83,16.15,1781,2209,7625,-1,0,-1
-19.33,12.83,16.15,1775,2222,7631,0,-1,-1
-19.33,12.83,16.15,1775,2231,7629,0,-1,0
-19.33,12.83,16.16,1781,2224,7622,-1,-1,-1
-19.33,12.83,16.16,1776,2224,7616,0,-1,0
-19.33,12.84,16.17,1778,2230,7621,0,-1,0
-19.33,12.84,16.18,1781,2224,7622,0,-1,0
-19.33,12.83,16.17,1783,2222,7620,0,0,0
-19.33,12.83,16.18,1784,2227,7615,-1,0,0
-19.33,12.82,16.18,1787,2217,7614,0,0,-1
-19.33,12.82,16.18,1782,2226,7626,0,-1,-1
-19.33,12.82,16.18,1781,2229,7627,-1,-1,-1
-19.33,12.81,16.17,1779,2228,7619,-1,-1,0
-19.33,12.81,16.17,1778,2223,7627,-1,-1,0
-19.33,12.81,16.16,1780,2221,7632,-1,-1,0
-19.33,12.81,16.16,1776,2217,7623,-1,0,-1
-19.32,12.80,16.17,1775,2225,7618,-1,0,-1
-19.32,12.79,16.17,1773,2222,7618,0,0,-1
-19.32,12.79,16.17,1768,2222,7618,0,0,-1
-19.32,12.79,16.17,1771,2221,7624,0,0,-1
-19.31,12.78,16.17,1769,2219,7625,0,0,-1
-19.31,12.77,16.18,1763,2222,7627,0,-1,0
-19.31,12.77,16.18,1765,2228,7629,0,-1,-1
-19.30,12.76,16.18,1771,2232,7624,0,0,-1
-19.30,12.76,16.18,1766,2230,7629,-1,0,-1
-19.30,12.75,16.18,1764,2228,7633,-1,0,0
-19.30,12.74,16.17,1767,2216,7649,-1,0,0
-19.30,12.74,16.17,1762,2216,7642,0,-1,0
-19.30,12.74,16.17,1759,2220,7635,0,-1,0
-19.30,12.74,16.18,1763,2219,7619,0,-1,-1
-19.30,12.74,16.18,1769,2220,7618,0,-1,-1
-19.30,12.74,16.19,1773,2223,7633,0,-1,0
-19.30,12.74,16.19,1779,2221,7632,-1,0,-1
-19.30,12.74,16.19,1770,2228,7634,-1,0,-1
-19.30,12.73,16.18,1769,2226,7628,-1,0,-1
-19.30,12.72,16.18,1756,2222,7634,-1,0,0
-19.29,12.71,16.17,1745,2199,7633,0,-1,-1
-19.29,12.71,16.18,1746,2192,7643,0,-1,-1
-19.28,12.71,16.19,1744,2229,7636,0,-1,0
-19.29,12.72,16.20,1739,2253,7624,-1,-1,0
-19.29,12.73,16.20,1750,2250,7636,-1,-1,0
-19.31,12.75,16.19,1772,2246,7633,-1,-1,0
-19.32,12.77,16.18,1791,2239,7622,-1,-1,0
-19.33,12.78,16.16,1796,2220,7619,-1,-1,0
-19.33,12.78,16.14,1782,2193,7619,-1,-1,0
-19.33,12.78,16.14,1779,2176,7623,0,-1,-1
-19.32,12.78,16.15,1787,2186,7603,0,-1,-1
-19.32,12.78,16.16,1779,2227,7606,0,0,-1
-19.32,12.76,16.16,1768,2233,7613,-1,0,0
-19.32,12.76,16.16,1768,2216,7635,0,-1,0
-19.32,12.76,16.16,1767,2215,7640,0,-1,-1
-19.32,12.77,16.16,1762,2229,7636,0,-1,0
-19.32,12.77,16.16,1764,2229,7635,-1,-1,0
-19.32,12.78,16.17,1771,2223,7637,0,-1,0
-19.32,12.79,16.17,1774,2232,7627,-1,-1,0
-19.33,12.79,16.17,1772,2223,7628,-1,-1,0
-19.33,12.79,16.17,1770,2216,7625,-1,-1,0
-19.34,12.79,16.17,1762,2224,7624,0,-1,0
-19.34,12.79,16.16,1770,2221,7608,-1,-1,0
-19.34,12.80,16.16,1773,2217,7617,-1,-1,0
-19.34,12.80,16.16,1764,2216,7620,0,-1,0
-19.35,12.80,16.16,1774,2217,7630,-1,-1,0
-19.35,12.80,16.16,1773,2214,7630,-1,-1,0
-19.35,12.80,16.16,1783,2218,7625,-1,-1,0
-19.36,12.81,16.16,1783,2214,7627,0,-1,0
-19.36,12.81,16.16,1777,2221,7629,0,-1,0
-19.36,12.82,16.17,1781,2221,7628,0,-1,0
-19.36,12.82,16.17,1780,2228,7628,-1,-1,0
-19.36,12.83,16.17,1784,2221,7621,-1,-1,0
-19.37,12.83,16.16,1783,2224,7628,-1,-1,0
-19.37,12.83,16.16,1779,2219,7631,-1,-1,0
-19.37,12.83,16.16,1783,2217,7628,-1,-1,0
-19.37,12.83,16.16,1778,2208,7622,0,-1,0
-19.37,12.83,16.16,1773,2202,7621,0,-1,0
-19.38,12.84,16.16,1785,2210,7621,0,-1,0
-19.38,12.85,16.17,1781,2210,7629,0,-1,-1
-19.38,12.85,16.18,1780,2217,7613,0,-1,-1
-19.38,12.85,16.18,1786,2224,7613,-1,-1,0
-19.38,12.85,16.18,1785,2230,7627,-1,-1,0
-19.38,12.85,16.18,1784,2231,7629,-1,-1,0
-19.38,12.85,16.18,1781,2225,7632,-1,-1,0
-19.38,12.84,16.18,1776,2230,7621,-1,-1,0
-19.38,12.84,16.17,1775,2232,7621,0,-1,-1
-19.38,12.84,16.18,1772,2223,7623,0,-1,-1
-19.38,12.85,16.18,1769,2225,7626,0,-1,0
-19.39,12.86,16.18,1767,2242,7621,-1,-1,0
-19.39,12.87,16.17,1785,2219,7607,-1,-1,0
-19.40,12.88,16.16,1774,2214,7620,-1,-1,0
-19.40,12.89,16.16,1783,2219,7629,-1,-1,0
-19.41,12.89,16.15,1781,2200,7614,0,-1,0
-19.41,12.90,16.15,1793,2206,7615,0,-1,-1
-19.41,12.90,16.16,1786,2207,7620,0,-1,-1
-19.41,12.90,16.16,1798,2204,7619,0,0,0
-19.41,12.90,16.16,1794,2223,7612,0,0,0
-19.41,12.90,16.17,1788,2244,7620,0,0,-1
-19.41,12.89,16.18,1783,2246,7618,-1,-1,0
-19.41,12.89,16.17,1780,2225,7619,-1,-1,0
-19.42,12.89,16.16,1791,2229,7618,-1,0,0
-19.43,12.89,16.15,1779,2219,7637,-1,-1,0
-19.43,12.89,16.15,1779,2206,7632,-1,-1,0
-19.42,12.88,16.14,1766,2211,7638,-1,-1,0
-19.42,12.88,16.14,1774,2208,7631,-1,0,0
-19.42,12.87,16.14,1780,2207,7622,0,0,-1
-19.42,12.87,16.15,1788,2219,7626,0,0,0
-19.42,12.86,16.15,1774,2224,7632,-1,0,-1
-19.42,12.85,16.14,1778,2230,7626,-1,0,0
-19.42,12.84,16.13,1775,2221,7627,-1,0,0
-19.42,12.83,16.12,1786,2195,7628,-1,0,0
-19.42,12.82,16.12,1779,2211,7628,-1,0,-1
-19.42,12.81,16.11,1778,2204,7619,-1,0,0
-19.41,12.80,16.11,1780,2199,7632,0,0,0
-19.41,12.79,16.11,1775,2199,7636,0,0,-1
-19.41,12.78,16.12,1775,2207,7622,0,0,-1
-19.41,12.78,16.12,1781,2217,7628,0,0,-1
-19.41,12.77,16.12,1774,2226,7628,-1,0,0
-19.41,12.76,16.13,1777,2230,7626,-1,0,0
-19.41,12.75,16.13,1780,2228,7641,-1,0,0
-19.41,12.75,16.13,1774,2226,7638,-1,0,0
-19.41,12.75,16.13,1775,2214,7630,0,-1,0
-19.42,12.74,16.13,1783,2205,7621,0,0,0
-19.42,12.74,16.13,1767,2211,7625,0,-1,-1
-19.41,12.74,16.14,1776,2215,7618,0,-1,-1
-19.41,12.75,16.15,1782,2221,7620,0,-1,-1
-19.41,12.75,16.15,1784,2221,7617,0,-1,-1
-19.41,12.74,16.16,1779,2229,7623,0,0,0
-19.41,12.74,16.16,1783,2226,7618,-1,0,-1
-19.41,12.74,16.16,1772,2222,7624,-1,0,-1
-19.41,12.73,16.16,1774,2215,7625,-1,0,0
-19.41,12.72,16.16,1771,2220,7625,0,-1,0
-19.41,12.72,16.16,1772,2216,7635,-1,-1,0
-19.41,12.72,16.16,1777,2217,7634,0,-1,0
-19.41,12.73,16.15,1779,2213,7624,-1,-1,0
-19.41,12.73,16.15,1783,2213,7632,-1,-1,0
-19.41,12.72,16.15,1776,2205,7618,0,0,-1
-19.41,12.72,16.15,1778,2207,7620,0,-1,-1
-19.41,12.72,16.15,1783,2212,7629,-1,-1,0
-19.41,12.72,16.15,1785,2204,7630,0,-1,-1
-19.41,12.72,16.15,1781,2216,7634,0,-1,-1
-19.41,12.72,16.15,1779,2215,7639,0,0,-1
-19.41,12.72,16.15,1776,2213,7632,0,-1,-1
-19.41,12.71,16.16,1776,2216,7631,0,0,-1
-19.40,12.70,16.16,1778,2221,7627,0,0,-1
-19.40,12.69,16.16,1771,2214,7628,0,0,-1
-19.40,12.68,16.17,1777,2222,7623,0,0,-1
-19.39,12.67,16.17,1772,2231,7630,-1,0,-1
-19.39,12.67,16.17,1781,2230,7632,0,0,-1
-19.39,12.67,16.17,1781,2226,7640,-1,0,-1
-19.38,12.66,16.17,1777,2218,7622,0,0,-1
-19.38,12.66,16.17,1777,2210,7621,0,0,-1
-19.38,12.65,16.17,1781,2216,7615,0,0,-1
-19.38,12.65,16.18,1775,2215,7611,0,0,-1
-19.37,12.63,16.18,1775,2214,7616,0,0,-1
-19.37,12.62,16.18,1777,2213,7625,-1,0,-1
-19.36,12.61,16.17,1776,2202,7633,-1,0,-1
-19.36,12.60,16.18,1772,2210,7632,-1,0,-1
-19.35,12.59,16.18,1759,2216,7636,-1,0,-1
-19.34,12.57,16.17,1754,2214,7639,-1,0,-1
-19.34,12.57,16.17,1758,2223,7630,0,0,-1
-19.33,12.56,16.18,1762,2226,7624,0,0,-1
-19.33,12.55,16.19,1762,2219,7614,0,0,-1
-19.33,12.55,16.19,1764,2223,7619,-1,0,-1
-19.33,12.55,16.19,1763,2216,7630,0,0,-1
-19.33,12.54,16.18,1765,2214,7621,-1,0,-1
-19.33,12.53,16.18,1757,2215,7620,-1,0,-1
-19.33,12.52,16.18,1755,2215,7629,-1,0,-1
-19.32,12.51,16.18,1759,2217,7626,0,0,-1
-19.32,12.51,16.18,1762,2217,7631,-1,0,-1
-19.32,12.50,16.18,1755,2209,7631,0,0,-1
-19.32,12.49,16.18,1752,2221,7632,-1,0,-1
-19.30,12.49,16.18,1744,2223,7642,-1,0,-1
-19.30,12.48,16.18,1744,2216,7641,-1,0,-1
-19.30,12.47,16.18,1750,2217,7639,0,0,-1
-19.30,12.47,16.18,1747,2213,7627,0,0,0
-19.30,12.47,16.19,1761,2210,7626,0,0,-1
-19.30,12.47,16.19,1767,2227,7610,0,0,-1
-19.29,12.46,16.19,1764,2220,7617,-1,0,-1
-19.29,12.45,16.19,1760,2216,7630,-1,0,-1
-19.29,12.44,16.18,1757,2216,7631,-1,0,-1
-19.29,12.43,16.18,1747,2217,7635,-1,0,-1
-19.28,12.41,16.18,1737,2217,7644,-1,0,-1
-19.28,12.40,16.17,1734,2211,7648,-1,0,-1
-19.28,12.40,16.17,1742,2213,7643,0,0,-1
-19.27,12.39,16.18,1743,2219,7634,0,0,-1
-19.27,12.39,16.18,1741,2224,7628,0,0,-1
-19.27,12.38,16.18,1743,2224,7629,-1,0,-1
-19.27,12.38,16.18,1748,2222,7627,-1,0,-1
-19.26,12.37,16.18,1746,2228,7639,-1,0,-1
-19.26,12.36,16.18,1751,2228,7641,-1,0,-1
-19.26,12.35,16.17,1746,2219,7633,-1,0,-1
-19.25,12.33,16.17,1737,2222,7626,-1,0,-1
-19.25,12.33,16.16,1736,2215,7634,-1,0,-1
-19.25,12.32,16.17,1743,2216,7639,0,0,-1
-19.24,12.30,16.17,1732,2210,7638,0,0,-1
-19.24,12.30,16.17,1726,2216,7619,0,0,-1
-19.23,12.29,16.17,1731,2225,7623,-1,0,-1
-19.23,12.29,16.17,1742,2224,7620,-1,0,-1
-19.23,12.28,16.18,1737,2222,7624,0,0,-1
-19.22,12.27,16.18,1726,2223,7634,0,0,-1
-19.22,12.25,16.18,1726,2221,7647,-1,0,-1
-19.21,12.24,16.17,1728,2214,7651,-1,0,-1
-19.21,12.23,16.17,1724,2213,7649,0,0,-1
-19.21,12.22,16.17,1719,2221,7648,-1,0,-1
-19.21,12.20,16.17,1709,2214,7638,-1,0,-1
-19.20,12.20,16.17,1709,2214,7638,-1,0,-1
-19.20,12.19,16.17,1711,2216,7636,0,0,-1
-19.20,12.19,16.17,1722,2221,7634,0,0,-1
-19.20,12.18,16.17,1715,2211,7633,-1,0,-1
-19.20,12.17,16.16,1708,2215,7632,0,0,-1
-19.20,12.17,16.17,1708,2219,7632,0,0,-1
-19.19,12.17,16.17,1706,2221,7641,0,0,-1
-19.19,12.17,16.17,1706,2212,7634,-1,0,-1
-19.19,12.17,16.16,1703,2203,7633,0,-1,0
-19.19,12.17,16.17,1707,2208,7624,0,-1,0
-19.19,12.17,16.17,1712,2207,7632,0,-1,-1
-19.20,12.18,16.17,1719,2221,7639,0,-1,0
-19.20,12.18,16.18,1718,2224,7635,0,-1,0
-19.20,12.19,16.19,1714,2221,7631,0,-1,0
-19.20,12.20,16.19,1714,2226,7631,-1,-1,0
-19.21,12.20,16.18,1712,2227,7641,-1,-1,0
-19.21,12.20,16.18,1720,2219,7635,-1,-1,0
-19.21,12.21,16.18,1727,2217,7623,-1,-1,0
-19.22,12.22,16.17,1722,2206,7624,0,-1,0
-19.22,12.23,16.17,1731,2200,7631,0,-1,0
-19.22,12.23,16.18,1729,2209,7632,0,-1,-1
-19.22,12.24,16.19,1730,2215,7630,0,-1,-1
-19.22,12.23,16.19,1732,2223,7644,0,0,-1
-19.22,12.23,16.19,1732,2228,7641,-1,0,-1
-19.22,12.23,16.19,1728,2225,7641,0,-1,0
-19.22,12.23,16.19,1725,2224,7642,0,-1,0
-19.22,12.24,16.19,1721,2223,7635,0,-1,0
-19.22,12.25,16.19,1726,2224,7638,0,-1,0
-19.23,12.26,16.19,1736,2223,7635,0,-1,0
-19.23,12.27,16.20,1738,2221,7639,0,-1,0
-19.24,12.27,16.20,1738,2218,7635,0,-1,0
-19.24,12.27,16.20,1739,2221,7639,-1,-1,0
-19.24,12.28,16.20,1738,2224,7641,0,-1,0
-19.24,12.28,16.19,1739,2219,7637,-1,-1,0
-19.25,12.29,16.19,1737,2206,7634,-1,-1,0
-19.25,12.29,16.19,1740,2212,7619,0,-1,0
-19.25,12.29,16.19,1731,2213,7628,-1,-1,0
-19.25,12.29,16.19,1732,2213,7641,0,-1,0
-19.25,12.29,16.19,1731,2219,7647,0,-1,0
-19.26,12.31,16.18,1742,2220,7640,0,-1,0
-19.26,12.32,16.19,1746,2219,7635,0,-1,0
-19.26,12.32,16.19,1747,2217,7635,0,-1,0
-19.27,12.33,16.20,1742,2224,7632,-1,-1,0
-19.27,12.34,16.19,1741,2217,7631,0,-1,0
-19.28,12.34,16.19,1746,2220,7630,-1,-1,0
-19.28,12.35,16.19,1745,2216,7635,0,-1,0
-19.28,12.35,16.19,1743,2218,7629,-1,-1,0
-19.29,12.36,16.19,1749,2216,7629,0,-1,0
-19.29,12.36,16.19,1752,2212,7629,0,-1,0
-19.29,12.36,16.19,1749,2218,7625,0,-1,-1
-19.29,12.37,16.19,1744,2212,7628,-1,-1,0
-19.30,12.38,16.19,1750,2220,7633,-1,-1,0
-19.30,12.38,16.18,1756,2214,7642,-1,-1,-1
-19.30,12.38,16.18,1759,2211,7640,-1,-1,0
-19.30,12.39,16.18,1759,2210,7638,0,-1,-1
-19.29,12.39,16.18,1745,2218,7635,0,-1,-1
-19.29,12.40,16.19,1752,2226,7630,0,-1,-1
-19.30,12.40,16.19,1750,2223,7629,-1,-1,-1
-19.30,12.41,16.18,1737,2225,7636,-1,-1,0
-19.30,12.41,16.18,1742,2226,7642,-1,-1,0
-19.31,12.42,16.18,1731,2221,7650,0,-1,0
-19.31,12.44,16.17,1756,2208,7649,-1,-1,0
-19.33,12.47,16.18,1753,2199,7643,0,-1,0
-19.34,12.49,16.19,1767,2224,7647,0,-1,0
-19.36,12.52,16.19,1767,2191,7643,0,-1,0
-19.37,12.56,16.22,1757,2225,7656,0,-2,0
-19.41,12.62,16.22,1775,2244,7660,-1,-2,1
-19.44,12.66,16.19,1766,2217,7671,-1,-2,1
-19.52,12.76,16.12,1777,2220,7673,-5,-5,3
-19.57,12.84,16.09,1787,2180,7617,-1,-2,1
-19.60,12.89,16.09,1796,2176,7571,-1,-2,0
-19.62,12.92,16.10,1829,2180,7537,0,-1,0
-19.62,12.92,16.10,1836,2185,7522,0,0,-1
-19.61,12.91,16.11,1849,2194,7549,0,0,-1
-19.60,12.89,16.11,1879,2208,7575,-1,1,-1
-19.59,12.85,16.11,1838,2225,7610,-1,1,-1
-19.58,12.83,16.11,1823,2237,7619,-1,0,-1
-19.58,12.79,16.08,1805,2216,7631,-1,1,-1
-19.57,12.76,16.05,1780,2221,7602,-2,1,0
-19.57,12.72,16.03,1773,2174,7601,-1,0,-1
-19.56,12.72,16.02,1798,2131,7611,0,0,-1
-19.54,12.70,16.02,1792,2157,7633,0,0,-1
-19.53,12.69,16.04,1811,2166,7627,0,0,-1
-19.51,12.68,16.06,1819,2201,7643,0,0,-1
-19.50,12.66,16.08,1800,2228,7640,0,0,-1
-19.48,12.64,16.09,1789,2231,7641,0,0,-1
-19.48,12.62,16.10,1775,2222,7637,0,0,-1
-19.48,12.60,16.09,1771,2228,7649,-1,0,-1
-19.47,12.60,16.09,1770,2226,7648,-1,-1,-1
-19.47,12.60,16.08,1770,2213,7640,-1,0,0
-19.47,12.61,16.07,1780,2194,7634,-1,-1,-1
-19.47,12.61,16.07,1792,2192,7626,-1,-1,-1
-19.47,12.61,16.07,1793,2189,7624,0,0,-1
-19.47,12.61,16.06,1800,2183,7637,0,0,-1
-19.47,12.61,16.07,1796,2188,7622,0,0,-1
-19.46,12.59,16.07,1790,2189,7625,0,0,-1
-19.45,12.58,16.07,1782,2198,7629,0,0,-1
-19.45,12.57,16.08,1782,2207,7632,-1,0,-1
-19.45,12.56,16.08,1783,2207,7630,0,0,-1
-19.44,12.55,16.08,1771,2206,7634,-1,0,-1
-19.44,12.55,16.08,1768,2205,7634,-1,0,-1
-19.44,12.55,16.08,1775,2199,7630,-1,0,-1
-19.44,12.54,16.08,1774,2192,7622,-1,0,-1
-19.44,12.53,16.07,1773,2182,7625,0,0,-1
-19.43,12.52,16.07,1775,2189,7626,0,0,-1
-19.43,12.52,16.07,1768,2195,7626,0,0,-1
-19.42,12.52,16.07,1771,2200,7629,0,0,-1
-19.42,12.51,16.08,1769,2210,7630,-1,0,-1
-19.42,12.50,16.07,1763,2207,7635,-1,0,-1
-19.41,12.49,16.07,1765,2198,7635,-1,0,-1
-19.41,12.49,16.06,1760,2190,7647,-1,0,-1
-19.41,12.48,16.06,1764,2183,7636,0,0,-1
-19.41,12.47,16.06,1757,2192,7638,0,0,-1
-19.40,12.47,16.07,1759,2193,7620,0,0,-1
-19.40,12.47,16.07,1770,2205,7620,0,0,-1
-19.39,12.47,16.08,1773,2210,7620,0,0,-1
-19.39,12.46,16.08,1777,2211,7628,-1,0,-1
-19.39,12.44,16.08,1778,2217,7633,-1,0,-1
-19.39,12.43,16.07,1768,2206,7635,-1,0,-1
-19.38,12.42,16.07,1763,2203,7632,-1,0,-1
-19.38,12.41,16.06,1753,2193,7634,-1,0,-1
-19.37,12.39,16.06,1739,2194,7628,-1,0,-1
-19.37,12.39,16.06,1746,2192,7621,0,0,-1
-19.37,12.38,16.06,1744,2196,7635,0,0,-1
-19.37,12.38,16.06,1750,2198,7634,-1,0,-1
-19.36,12.37,16.06,1758,2196,7636,-1,0,-1
-19.36,12.36,16.06,1755,2200,7646,0,0,-1
-19.36,12.35,16.05,1754,2203,7647,-1,0,-1
-19.35,12.34,16.06,1753,2196,7645,0,0,-1
-19.35,12.33,16.05,1751,2193,7645,-1,0,-1
-19.34,12.32,16.04,1745,2193,7638,-1,0,-1
-19.34,12.31,16.05,1746,2196,7637,-1,0,-1
-19.33,12.29,16.04,1740,2193,7643,0,0,-1
-19.33,12.29,16.05,1741,2200,7645,0,0,-1
-19.32,12.28,16.05,1738,2196,7646,0,0,-1
-19.32,12.27,16.05,1733,2205,7634,0,0,-1
-19.31,12.27,16.06,1736,2211,7641,0,0,-1
-19.30,12.26,16.06,1741,2212,7641,0,0,-1
-19.29,12.26,16.06,1743,2213,7639,-1,0,-1
-19.28,12.25,16.07,1742,2204,7635,0,0,-1
-19.27,12.23,16.07,1740,2213,7653,-1,0,-1
-19.26,12.22,16.05,1739,2186,7652,0,0,-1
-19.26,12.20,16.05,1734,2188,7657,0,0,-1
