Yaw,Pitch,Roll,AX,AY,AZ,GX,GY,GZ
-25.29,2.78,14.04,406,1973,7897,0,-1,-1
-25.29,2.78,14.04,401,1978,7897,0,0,-1
-25.29,2.77,14.04,405,1974,7902,0,0,-1
-25.28,2.77,14.05,401,1981,7904,-1,0,0
-25.29,2.77,14.04,398,1970,7908,-1,0,0
-25.28,2.78,14.04,395,1970,7917,0,-1,-1
-25.28,2.77,14.04,392,1981,7910,0,-1,0
-25.28,2.77,14.05,389,1986,7917,0,-1,0
-25.29,2.78,14.04,399,1989,7915,-1,-1,0
-25.29,2.79,14.04,403,1981,7909,-1,-1,0
-25.29,2.78,14.04,402,1968,7914,-1,-1,0
-25.29,2.78,14.04,398,1960,7909,0,-1,0
-25.29,2.78,14.04,392,1969,7904,0,-1,-1
-25.29,2.79,14.04,391,1978,7911,-1,-1,0
-25.29,2.79,14.03,394,1981,7913,-1,-1,0
-25.29,2.79,14.03,393,1981,7914,-1,-1,0
-25.30,2.80,14.03,396,1970,7914,-1,-1,0
-25.30,2.80,14.03,405,1973,7914,-1,-1,0
-25.30,2.80,14.02,403,1975,7912,-1,-1,0
-25.30,2.80,14.02,401,1971,7913,0,0,0
-25.30,2.80,14.02,400,1972,7915,0,-1,0
-25.30,2.80,14.02,402,1968,7909,0,-1,0
-25.30,2.80,14.02,402,1978,7910,0,-1,0
-25.30,2.80,14.02,405,1988,7905,-1,-1,0
-25.30,2.81,14.02,404,1986,7914,-1,-1,0
-25.30,2.81,14.02,399,1976,7914,-1,-1,0
-25.31,2.82,14.01,399,1971,7920,-1,-1,0
-25.31,2.82,14.01,401,1965,7909,0,-1,0
-25.31,2.82,14.01,407,1965,7913,0,-1,0
-25.31,2.83,14.01,415,1968,7908,0,-1,0
-25.31,2.83,14.02,421,1977,7895,0,-1,0
-25.32,2.84,14.02,415,1968,7899,-1,-1,0
-25.31,2.84,14.02,416,1967,7904,-1,-1,-1
-25.32,2.85,14.01,414,1968,7912,-1,0,0
-25.32,2.84,14.00,412,1976,7912,-1,0,0
-25.33,2.84,14.00,398,1973,7910,0,-1,0
-25.33,2.84,13.99,407,1969,7902,-1,-1,-1
-25.33,2.86,13.99,419,1955,7899,0,-1,-1
-25.32,2.86,14.00,427,1968,7892,0,-1,-1
-25.32,2.86,14.00,419,1978,7893,-1,0,-1
-25.32,2.86,14.00,412,1981,7899,-1,-1,0
-25.32,2.86,14.00,411,1974,7907,0,-1,0
-25.32,2.86,14.00,395,1977,7904,-1,-1,0
-25.33,2.88,13.99,397,1990,7930,-1,-2,0
-25.34,2.92,13.97,427,1970,7894,-1,-1,0
-25.35,2.94,13.97,442,1958,7890,-1,-1,0
-25.35,2.94,13.96,442,1950,7898,0,0,0
-25.35,2.94,13.97,437,1952,7898,0,0,-1
-25.34,2.93,13.98,431,1969,7897,0,0,-1
-25.34,2.93,13.99,424,1981,7909,0,0,-1
-25.34,2.93,13.98,425,1973,7906,-1,0,0
-25.34,2.92,13.98,426,1961,7901,0,0,0
-25.34,2.92,13.98,427,1959,7901,0,0,0
-25.34,2.92,13.99,425,1974,7901,0,0,0
-25.34,2.91,13.99,416,1978,7903,-1,0,0
-25.34,2.91,13.99,420,1977,7910,-1,0,0
-25.35,2.91,13.99,414,1973,7917,0,0,0
-25.35,2.91,13.99,424,1964,7918,0,0,0
-25.35,2.91,13.99,423,1960,7906,0,0,0
-25.35,2.91,13.99,423,1966,7901,0,-1,0
-25.35,2.91,13.99,423,1971,7903,0,-1,-1
-25.35,2.92,13.99,423,1973,7907,0,0,0
-25.35,2.91,13.99,415,1971,7895,-1,0,0
-25.35,2.91,13.99,417,1960,7898,0,-1,-1
-25.35,2.91,13.99,416,1961,7900,-1,0,0
-25.35,2.91,13.99,421,1961,7901,0,-1,-1
-25.35,2.91,13.99,419,1968,7899,0,0,-1
-25.35,2.91,13.99,422,1973,7893,0,0,-1
-25.35,2.91,13.99,420,1967,7899,-1,0,0
-25.35,2.91,13.99,423,1963,7901,0,0,0
-25.35,2.91,13.99,415,1966,7900,0,-1,0
-25.35,2.91,13.99,418,1974,7897,-1,-1,0
-25.35,2.91,13.99,416,1972,7900,-1,-1,0
-25.35,2.91,13.99,416,1967,7908,-1,0,0
-25.35,2.91,13.98,411,1960,7910,-1,0,0
-25.35,2.91,13.98,410,1962,7900,0,-1,0
-25.35,2.91,13.98,412,1967,7902,0,-1,0
-25.35,2.91,13.98,417,1967,7902,0,-1,0
-25.35,2.92,13.98,419,1955,7899,0,-1,0
-25.35,2.92,13.98,418,1949,7898,0,-1,0
-25.35,2.92,13.98,417,1962,7898,0,0,-1
-25.35,2.92,13.98,418,1972,7905,-1,0,0
-25.35,2.91,13.98,408,1969,7902,-1,0,-1
-25.35,2.91,13.98,410,1964,7905,0,0,0
-25.35,2.91,13.98,415,1961,7896,0,-1,0
-25.35,2.91,13.99,414,1963,7898,0,-1,0
-25.35,2.91,13.98,412,1966,7908,-1,0,0
-25.35,2.91,13.98,422,1964,7910,-1,0,0
-25.36,2.92,13.98,421,1966,7912,-1,0,0
-25.36,2.92,13.98,414,1971,7902,0,0,0
-25.36,2.92,13.98,418,1972,7906,0,-1,0
-25.36,2.92,13.98,419,1972,7908,0,-1,0
-25.36,2.92,13.98,421,1970,7908,-1,-1,0
-25.36,2.93,13.98,426,1966,7899,-1,0,0
-25.36,2.93,13.98,428,1960,7897,0,0,0
-25.36,2.93,13.98,429,1964,7900,-1,0,0
-25.36,2.93,13.98,433,1969,7894,0,-1,-1
-25.36,2.93,13.98,426,1977,7901,-1,0,-1
-25.36,2.93,13.97,421,1964,7905,-1,-1,0
-25.36,2.93,13.97,414,1960,7910,0,0,0
-25.36,2.93,13.98,418,1962,7910,0,-1,-1
-25.36,2.93,13.98,417,1971,7909,0,0,-1
-25.36,2.93,13.98,421,1976,7909,0,0,0
-25.36,2.92,13.98,416,1975,7905,-1,0,0
-25.36,2.93,13.98,422,1972,7909,-1,-1,0
-25.37,2.93,13.97,427,1958,7908,0,-1,0
-25.36,2.93,13.98,425,1962,7901,0,-1,0
-25.37,2.93,13.98,425,1968,7901,0,0,0
-25.37,2.93,13.98,425,1974,7904,-1,-1,0
-25.37,2.93,13.98,424,1968,7901,-1,0,0
-25.36,2.93,13.98,415,1965,7903,0,0,-1
-25.36,2.93,13.98,417,1956,7906,-1,0,0
-25.36,2.93,13.98,413,1953,7900,-1,0,0
-25.36,2.92,13.98,412,1963,7899,0,0,0
-25.36,2.92,13.98,420,1969,7893,0,-1,0
-25.36,2.92,13.98,421,1978,7895,0,-1,-1
-25.36,2.92,13.98,421,1977,7901,-1,0,0
-25.36,2.92,13.98,421,1962,7908,0,-1,-1
-25.36,2.92,13.98,419,1955,7904,0,0,0
-25.36,2.92,13.98,421,1967,7897,0,-1,-1
-25.36,2.92,13.99,421,1976,7902,0,-1,0
-25.36,2.92,13.99,425,1979,7907,0,0,-1
-25.36,2.92,13.99,425,1976,7914,-1,0,0
-25.36,2.92,13.99,420,1970,7913,-1,0,-1
-25.36,2.92,13.98,423,1965,7901,-1,-1,0
-25.36,2.93,13.98,419,1959,7905,0,-1,0
-25.35,2.93,13.99,423,1966,7891,0,0,-1
-25.35,2.93,14.00,427,1965,7883,0,0,-1
-25.35,2.92,14.00,426,1971,7888,-1,0,-1
-25.35,2.92,14.00,421,1962,7908,-1,0,-1
-25.35,2.92,13.99,417,1964,7915,0,0,-1
-25.34,2.92,14.00,423,1969,7920,0,0,-1
-25.34,2.92,14.00,422,1966,7910,0,0,-1
-25.34,2.92,14.00,416,1976,7904,0,0,-1
-25.34,2.91,14.00,419,1973,7902,-1,0,-1
-25.34,2.92,14.00,421,1968,7892,0,0,-1
-25.34,2.91,14.00,418,1969,7898,-1,0,0
-25.34,2.91,14.00,418,1969,7891,0,0,-1
-25.34,2.91,14.01,418,1971,7887,0,0,0
-25.34,2.91,14.01,414,1971,7888,0,-1,0
-25.34,2.91,14.01,424,1974,7893,0,0,-1
-25.34,2.91,14.01,422,1976,7887,-1,0,-1
-25.34,2.91,14.01,423,1966,7889,0,0,-1
-25.33,2.90,14.01,423,1970,7902,0,0,-1
-25.33,2.90,14.01,422,1975,7904,-1,0,-1
-25.33,2.89,14.00,414,1975,7910,-1,0,-1
-25.32,2.89,14.00,413,1966,7912,-1,0,-1
-25.32,2.89,14.00,413,1962,7908,0,0,-1
-25.32,2.89,14.01,409,1965,7903,0,0,-1
-25.32,2.89,14.01,405,1974,7903,0,0,-1
-25.32,2.88,14.01,405,1981,7899,-1,0,0
-25.32,2.88,14.01,406,1977,7900,0,-1,-1
-25.31,2.87,14.02,405,1976,7898,0,0,-1
-25.31,2.87,14.02,405,1966,7890,0,0,-1
-25.31,2.88,14.02,407,1967,7897,0,0,0
-25.31,2.88,14.02,411,1973,7900,0,0,0
-25.31,2.88,14.02,414,1979,7899,0,0,-1
-25.31,2.87,14.02,414,1976,7896,-1,0,-1
-25.30,2.87,14.02,410,1973,7898,-1,0,-1
-25.30,2.86,14.02,410,1975,7913,-1,0,0
-25.30,2.86,14.01,410,1970,7913,-1,0,-1
-25.30,2.86,14.01,411,1969,7898,-1,0,-1
-25.30,2.85,14.01,412,1975,7892,-1,0,-1
-25.30,2.85,14.01,413,1966,7893,0,0,-1
-25.30,2.85,14.01,406,1965,7904,0,0,-1
-25.30,2.85,14.02,410,1981,7902,0,0,-1
-25.29,2.85,14.03,407,1995,7897,-1,0,0
-25.29,2.85,14.03,411,1987,7892,-1,0,0
-25.29,2.84,14.02,409,1969,7898,-1,0,-1
-25.29,2.84,14.02,404,1966,7909,0,0,0
-25.29,2.83,14.03,403,1966,7912,0,0,0
-25.29,2.84,14.02,413,1965,7906,0,-1,-1
-25.29,2.84,14.03,418,1976,7904,0,0,-1
-25.29,2.83,14.04,419,1972,7892,0,0,-1
-25.29,2.83,14.04,417,1973,7889,-1,0,-1
-25.29,2.83,14.03,406,1977,7902,-1,0,-1
-25.29,2.83,14.03,401,1968,7905,0,0,-1
-25.28,2.82,14.03,392,1968,7909,0,0,-1
-25.28,2.81,14.04,393,1982,7905,0,0,-1
-25.28,2.81,14.05,398,1992,7892,-1,0,0
-25.28,2.81,14.05,401,1992,7896,-1,0,0
-25.28,2.81,14.05,405,1984,7901,-1,0,-1
-25.28,2.81,14.04,402,1970,7902,-1,0,-1
-25.28,2.80,14.04,396,1971,7911,0,0,-1
-25.27,2.80,14.04,394,1975,7905,0,0,0
-25.28,2.79,14.04,397,1975,7911,-1,-1,0
-25.28,2.80,14.04,396,1971,7907,-1,0,0
-25.28,2.80,14.03,398,1965,7912,-1,0,0
-25.28,2.79,14.03,404,1957,7910,0,0,-1
-25.27,2.79,14.03,402,1964,7898,0,0,-1
-25.27,2.78,14.04,400,1975,7902,0,0,-1
-25.27,2.78,14.04,402,1980,7899,-1,0,-1
-25.27,2.78,14.03,399,1969,7901,-1,0,-1
-25.27,2.77,14.03,390,1961,7900,0,0,-1
-25.27,2.77,14.03,390,1968,7905,0,0,-1
-25.26,2.77,14.03,396,1979,7911,0,0,-1
-25.26,2.77,14.04,403,1981,7908,0,0,-1
-25.26,2.76,14.04,400,1979,7893,-1,0,-1
-25.26,2.76,14.04,395,1970,7889,0,0,0
-25.26,2.75,14.04,400,1966,7901,-1,0,-1
-25.26,2.76,14.04,408,1967,7904,0,0,-1
-25.26,2.75,14.04,402,1978,7892,0,0,-1
-25.26,2.76,14.05,399,1971,7894,0,0,-1
-25.26,2.76,14.05,400,1975,7897,-1,0,0
-25.26,2.75,14.04,398,1974,7899,-1,0,0
-25.26,2.75,14.04,401,1971,7900,-1,0,-1
-25.26,2.75,14.04,396,1976,7894,0,0,-1
-25.25,2.74,14.05,401,1976,7898,0,0,-1
-25.25,2.74,14.05,400,1979,7899,-1,0,0
-25.25,2.73,14.05,397,1983,7902,0,0,-1
-25.25,2.73,14.05,399,1984,7898,0,0,-1
-25.25,2.73,14.06,393,1985,7891,-1,0,0
-25.25,2.73,14.06,393,1979,7901,-1,0,-1
-25.25,2.73,14.05,390,1965,7904,0,0,-1
-25.25,2.72,14.06,384,1963,7898,0,0,-1
-25.24,2.72,14.06,389,1970,7894,0,-1,-1
-25.24,2.72,14.06,396,1975,7891,0,0,-1
-25.24,2.72,14.06,396,1983,7888,-1,0,0
-25.24,2.72,14.06,395,1970,7887,0,0,-1
-25.24,2.72,14.06,390,1969,7890,0,-1,-1
-25.24,2.72,14.06,384,1963,7896,0,-1,0
-25.24,2.72,14.07,394,1967,7905,0,-1,0
-25.24,2.73,14.08,397,1972,7900,0,-1,0
-25.24,2.73,14.08,400,1976,7893,0,-1,-1
-25.24,2.73,14.08,397,1986,7891,-1,0,0
-25.24,2.73,14.08,401,1985,7900,-1,-1,0
-25.24,2.74,14.08,403,1984,7896,0,-1,-1
-25.24,2.74,14.08,394,1982,7906,-1,-1,0
-25.24,2.74,14.08,392,1976,7908,0,-1,0
-25.24,2.75,14.08,393,1981,7906,0,-1,0
-25.24,2.75,14.08,398,1987,7902,-1,-1,0
-25.25,2.75,14.08,402,1985,7900,-1,-1,0
-25.25,2.75,14.08,401,1978,7905,0,-1,0
-25.25,2.76,14.08,401,1981,7899,-1,-1,0
-25.25,2.76,14.08,397,1981,7899,-1,-1,0
-25.25,2.77,14.07,399,1979,7900,-1,-1,0
-25.26,2.77,14.07,396,1971,7903,-1,-1,0
-25.26,2.77,14.07,396,1973,7895,-1,-1,0
-25.26,2.77,14.07,399,1971,7902,-1,-1,0
-25.27,2.78,14.07,407,1978,7893,0,-1,0
-25.27,2.78,14.07,404,1985,7902,-1,-1,0
-25.27,2.78,14.07,400,1983,7902,-1,-1,0
-25.27,2.79,14.06,403,1979,7904,-1,-1,0
-25.27,2.79,14.05,407,1967,7908,-1,-1,0
-25.27,2.79,14.05,405,1964,7898,0,-1,0
-25.27,2.79,14.05,400,1970,7900,0,-1,0
-25.27,2.79,14.06,403,1986,7900,0,-1,0
-25.28,2.80,14.05,398,1985,7903,-1,-1,0
-25.28,2.80,14.05,402,1978,7902,-1,-1,0
-25.28,2.81,14.05,398,1976,7900,-1,-1,0
-25.28,2.81,14.05,401,1974,7906,0,-1,0
-25.28,2.82,14.05,406,1973,7909,0,-1,0
-25.29,2.82,14.05,406,1972,7904,-1,-1,0
-25.29,2.82,14.04,408,1975,7899,-1,-1,0
-25.29,2.82,14.04,402,1971,7892,-1,-1,0
-25.29,2.82,14.04,405,1963,7898,0,-1,0
-25.29,2.82,14.04,406,1968,7896,0,-1,-1
-25.29,2.83,14.04,408,1969,7902,-1,0,0
-25.29,2.83,14.03,415,1962,7900,-1,-1,0
-25.29,2.83,14.03,414,1965,7893,-1,-1,0
-25.30,2.84,14.04,409,1983,7901,0,-1,0
-25.29,2.83,14.04,408,1988,7901,0,-1,-1
-25.29,2.84,14.05,409,1987,7900,-1,-1,0
-25.29,2.84,14.04,411,1978,7897,-1,-1,0
-25.30,2.84,14.04,407,1967,7903,-1,-1,0
-25.30,2.85,14.04,409,1962,7905,0,-1,0
-25.30,2.85,14.04,413,1972,7908,0,-1,0
-25.30,2.85,14.04,415,1974,7902,-1,-1,0
-25.30,2.86,14.04,414,1976,7899,-1,0,0
-25.30,2.86,14.03,407,1965,7905,-1,0,0
-25.31,2.86,14.03,405,1959,7912,-1,-1,0
-25.31,2.86,14.03,398,1960,7917,0,-1,0
-25.31,2.86,14.03,406,1957,7917,0,-1,0
-25.31,2.86,14.03,410,1966,7912,0,-1,0
-25.31,2.86,14.03,415,1971,7898,0,-1,0
-25.31,2.87,14.03,418,1975,7898,0,-1,0
-25.31,2.87,14.03,415,1977,7899,-1,-1,0
-25.32,2.87,14.02,413,1971,7901,-1,-1,0
-25.32,2.88,14.02,412,1965,7914,-1,-1,0
-25.32,2.88,14.02,413,1956,7914,0,-1,0
-25.32,2.88,14.02,420,1963,7906,0,-1,0
-25.32,2.88,14.02,416,1976,7900,0,-1,0
-25.33,2.88,14.02,411,1982,7894,0,-1,0
-25.33,2.88,14.02,417,1978,7903,-1,-1,0
-25.33,2.88,14.02,412,1970,7899,0,-1,0
-25.33,2.88,14.02,415,1974,7902,-1,0,0
-25.33,2.88,14.02,412,1974,7906,-1,-1,0
-25.33,2.89,14.02,407,1971,7907,-1,-1,0
-25.33,2.89,14.01,406,1961,7901,0,-1,0
-25.33,2.89,14.02,414,1964,7905,0,-1,0
-25.34,2.90,14.02,416,1966,7903,-1,-1,0
-25.34,2.90,14.01,413,1963,7894,-1,-1,0
-25.34,2.90,14.00,420,1962,7907,-1,0,0
-25.34,2.89,14.00,423,1964,7910,0,-1,-1
-25.34,2.90,14.00,417,1963,7909,0,0,-1
-25.34,2.90,14.00,409,1971,7918,0,0,0
-25.34,2.90,14.00,416,1968,7913,0,-1,0
-25.34,2.90,14.00,425,1967,7902,0,0,0
-25.34,2.90,14.01,420,1972,7900,0,-1,0
-25.35,2.91,14.01,421,1972,7893,0,-1,0
-25.35,2.91,14.01,418,1973,7898,-1,-1,0
-25.35,2.91,14.01,418,1966,7902,-1,-1,0
-25.35,2.90,14.00,418,1960,7907,0,-1,0
-25.35,2.91,14.00,416,1964,7901,-1,-1,0
-25.35,2.91,14.00,422,1964,7896,-1,-1,0
-25.36,2.92,14.00,425,1971,7899,-1,0,0
-25.36,2.92,13.99,423,1971,7906,-1,0,0
-25.36,2.92,13.99,423,1964,7907,-1,-1,0
-25.36,2.92,13.99,426,1963,7908,0,-1,0
-25.36,2.92,13.99,425,1965,7907,0,-1,0
-25.36,2.92,13.99,425,1964,7890,0,-1,0
-25.36,2.92,13.99,426,1966,7906,0,0,0
-25.36,2.92,13.99,425,1972,7907,-1,0,0
-25.36,2.92,13.99,425,1971,7901,-1,0,0
-25.36,2.92,13.99,421,1967,7909,-1,-1,0
-25.36,2.92,13.99,420,1961,7908,0,0,-1
-25.36,2.92,13.99,419,1972,7910,0,0,-1
-25.36,2.93,14.00,426,1978,7903,-1,0,-1
-25.36,2.92,13.99,420,1966,7902,-1,0,-1
-25.36,2.92,13.99,415,1965,7900,0,0,-1
-25.36,2.92,13.99,410,1959,7917,0,0,-1
-25.36,2.92,13.99,404,1963,7914,-1,-1,0
-25.36,2.92,13.99,413,1961,7911,0,-1,0
-25.36,2.92,13.99,427,1960,7893,0,-1,0
-25.36,2.92,13.99,424,1957,7888,0,0,-1
-25.36,2.92,14.00,418,1960,7892,0,0,-1
-25.35,2.92,14.00,414,1970,7901,-1,0,-1
-25.35,2.91,13.99,411,1972,7906,-1,0,-1
-25.35,2.91,13.99,406,1969,7909,0,-1,0
-25.34,2.91,14.00,418,1969,7906,0,-1,0
-25.34,2.91,14.00,418,1967,7909,0,0,-1
-25.34,2.91,14.00,417,1965,7907,-1,0,-1
-25.34,2.91,14.00,416,1968,7906,0,0,-1
-25.34,2.91,14.00,416,1972,7902,0,-1,0
-25.34,2.91,14.00,418,1968,7903,0,-1,-1
-25.34,2.91,14.00,417,1965,7905,-1,0,0
-25.34,2.91,14.00,414,1968,7899,-1,0,0
-25.34,2.91,14.00,416,1962,7888,-1,0,0
-25.34,2.91,14.00,422,1956,7897,0,0,-1
-25.34,2.91,14.00,424,1963,7898,0,0,-1
-25.34,2.91,14.00,422,1961,7896,-1,0,-1
-25.34,2.90,14.00,416,1971,7890,-1,0,-1
-25.33,2.90,13.99,413,1965,7891,-1,0,0
-25.33,2.90,13.99,413,1964,7900,-1,0,-1
-25.33,2.90,13.99,411,1957,7912,0,0,-1
-25.33,2.90,14.00,406,1964,7907,0,0,-1
-25.33,2.89,14.00,413,1974,7906,0,0,-1
-25.33,2.89,14.00,417,1980,7913,0,-1,-1
-25.33,2.90,14.00,420,1976,7913,0,0,0
-25.33,2.90,14.00,422,1972,7907,-1,0,0
-25.33,2.90,14.00,426,1962,7911,0,-1,0
-25.33,2.90,14.00,416,1957,7907,0,-1,0
-25.33,2.90,14.00,423,1965,7901,0,0,-1
-25.33,2.90,14.01,417,1979,7899,0,0,-1
-25.33,2.90,14.00,419,1967,7899,-1,0,0
-25.33,2.90,14.00,416,1968,7915,-1,0,0
-25.32,2.90,14.00,417,1971,7917,-1,0,-1
-25.32,2.90,14.00,419,1962,7912,-1,0,-1
-25.32,2.89,14.00,406,1962,7902,-1,0,-1
-25.32,2.89,14.00,407,1964,7902,0,0,-1
-25.32,2.89,14.00,416,1963,7891,0,0,-1
-25.31,2.89,14.01,415,1978,7894,0,0,-1
-25.31,2.89,14.01,421,1993,7892,-1,-1,-1
-25.31,2.89,14.01,416,1984,7896,-1,0,0
-25.31,2.89,14.01,418,1973,7895,0,0,-1
-25.31,2.88,14.01,412,1962,7916,0,0,-1
-25.31,2.88,14.01,415,1962,7922,0,-1,0
-25.31,2.88,14.01,414,1971,7917,0,-1,0
-25.31,2.88,14.01,415,1973,7912,0,-1,0
-25.31,2.88,14.01,420,1973,7895,0,0,-1
-25.31,2.88,14.01,421,1975,7886,-1,0,-1
-25.31,2.88,14.01,415,1973,7898,-1,0,-1
-25.30,2.87,14.02,417,1968,7905,0,0,-1
-25.30,2.87,14.02,409,1971,7901,0,0,-1
-25.30,2.87,14.02,411,1972,7900,0,0,-1
-25.30,2.87,14.02,415,1974,7899,0,0,-1
-25.30,2.87,14.02,414,1977,7887,-1,0,0
-25.30,2.87,14.02,416,1972,7895,0,-1,-1
-25.30,2.87,14.02,417,1975,7904,0,0,-1
-25.30,2.86,14.02,414,1974,7913,0,-1,-1
-25.30,2.86,14.02,412,1968,7912,0,0,0
-25.30,2.86,14.03,410,1973,7900,0,-1,0
-25.30,2.87,14.02,414,1973,7901,0,0,0
-25.30,2.86,14.03,413,1971,7895,0,0,0
-25.30,2.86,14.02,416,1964,7891,0,0,-1
-25.30,2.86,14.02,414,1968,7888,0,0,0
-25.30,2.85,14.02,411,1971,7890,-1,0,-1
-25.29,2.85,14.03,409,1974,7880,0,0,-1
-25.28,2.85,14.03,408,1982,7886,-1,0,-1
-25.28,2.84,14.02,406,1969,7906,0,0,-1
-25.28,2.84,14.02,408,1969,7915,0,0,-1
-25.28,2.84,14.03,411,1976,7918,0,0,-1
-25.28,2.84,14.03,413,1984,7910,0,0,-1
-25.28,2.83,14.03,407,1984,7902,-1,0,0
-25.28,2.83,14.03,405,1975,7912,-1,0,0
-25.28,2.83,14.03,403,1973,7915,0,0,-1
-25.28,2.83,14.03,411,1970,7910,0,0,-1
-25.28,2.82,14.03,411,1977,7905,0,-1,-1
-25.27,2.83,14.04,406,1981,7906,-1,0,0
-25.27,2.83,14.04,401,1970,7902,0,0,-1
-25.27,2.82,14.04,401,1970,7902,-1,0,0
-25.27,2.82,14.04,406,1969,7915,0,-1,-1
-25.27,2.82,14.04,409,1972,7916,0,0,-1
-25.27,2.81,14.04,394,1974,7910,0,0,-1
-25.27,2.80,14.04,395,1974,7912,0,0,-1
-25.27,2.80,14.04,397,1973,7902,0,0,-1
-25.27,2.80,14.04,402,1972,7891,-1,0,-1
-25.27,2.80,14.04,399,1965,7888,0,0,-1
-25.27,2.80,14.04,400,1967,7903,0,0,-1
-25.27,2.79,14.04,403,1977,7894,-1,0,-1
-25.27,2.79,14.04,402,1976,7897,-1,0,0
-25.27,2.79,14.03,401,1969,7905,-1,0,0
-25.27,2.79,14.03,397,1963,7904,-1,0,0
-25.27,2.78,14.03,392,1960,7905,0,0,-1
-25.27,2.78,14.03,395,1962,7918,0,0,0
-25.27,2.78,14.04,395,1974,7915,0,0,0
-25.26,2.78,14.04,408,1975,7906,0,0,-1
-25.26,2.78,14.04,404,1981,7902,0,0,-1
-25.26,2.78,14.04,404,1979,7901,-1,0,-1
-25.26,2.78,14.04,401,1975,7906,-1,0,-1
-25.26,2.77,14.04,394,1969,7907,-1,0,-1
-25.26,2.77,14.04,392,1973,7903,0,0,-1
-25.26,2.77,14.05,399,1975,7898,0,0,-1
-25.26,2.76,14.05,394,1976,7895,-1,0,0
-25.26,2.76,14.05,396,1978,7899,-1,0,-1
-25.26,2.76,14.05,398,1983,7891,-1,0,-1
-25.26,2.76,14.05,391,1971,7905,0,-1,0
-25.26,2.76,14.05,398,1972,7899,0,0,-1
-25.26,2.76,14.05,391,1979,7897,0,-1,-1
-25.26,2.76,14.05,389,1974,7911,0,-1,0
-25.26,2.76,14.05,395,1973,7906,0,-1,0
-25.26,2.77,14.05,401,1965,7910,0,-1,0
-25.26,2.77,14.05,404,1965,7902,0,-1,0
-25.26,2.77,14.05,409,1970,7897,0,0,0
-25.26,2.77,14.05,405,1986,7903,0,0,-1
-25.26,2.77,14.05,402,1987,7903,-1,0,0
-25.26,2.78,14.04,405,1972,7900,-1,-1,0
-25.26,2.78,14.04,396,1968,7900,0,-1,0
-25.26,2.78,14.04,394,1973,7900,0,-1,0
-25.26,2.78,14.05,397,1983,7907,0,-1,0
-25.27,2.79,14.05,402,1988,7894,-1,-1,0
-25.27,2.79,14.05,408,1979,7892,-1,-1,0
-25.27,2.79,14.04,411,1971,7897,-1,-1,0
-25.27,2.79,14.04,406,1968,7898,-1,-1,0
-25.28,2.80,14.04,399,1977,7909,-1,-1,0
-25.28,2.80,14.04,397,1978,7909,-1,-1,0
-25.28,2.81,14.04,401,1979,7905,-1,-1,0
-25.29,2.80,14.03,403,1974,7897,-1,-1,0
-25.29,2.80,14.03,410,1966,7892,-1,0,0
-25.29,2.81,14.03,413,1969,7899,0,-1,-1
-25.29,2.81,14.03,412,1971,7901,0,0,0
-25.29,2.81,14.03,403,1967,7905,-1,-1,0
-25.29,2.81,14.03,402,1970,7895,0,-1,0
-25.30,2.82,14.03,414,1966,7898,-1,0,0
-25.30,2.82,14.03,407,1969,7910,-1,-1,0
-25.30,2.83,14.03,409,1967,7902,0,-1,0
-25.30,2.82,14.03,423,1972,7878,0,0,0
-25.31,2.79,14.07,434,2014,7902,0,1,0
-25.34,2.74,14.07,366,1925,7945,0,1,1
-25.35,2.76,14.09,379,1930,7919,0,-2,0
-25.36,2.77,14.10,409,2026,7857,-1,1,0
-25.37,2.76,14.10,410,2010,7903,-1,-1,0
-25.38,2.77,14.09,411,1982,7902,-1,-1,-1
-25.36,2.79,14.08,401,1957,7898,-1,-2,-1
-25.34,2.81,14.08,410,1966,7905,0,-1,-1
-25.34,2.82,14.08,421,1977,7898,0,-1,-1
-25.33,2.83,14.10,404,2001,7896,-1,0,-1
-25.34,2.82,14.08,391,2005,7897,-1,-1,0
-25.34,2.83,14.07,398,1977,7888,-1,-1,0
-25.34,2.84,14.06,408,1963,7893,-1,-1,0
-25.34,2.84,14.06,412,1971,7903,-1,0,-1
-25.35,2.84,14.06,412,1974,7900,-1,-1,0
-25.35,2.84,14.05,414,1970,7891,-1,-1,0
-25.35,2.84,14.05,412,1970,7893,-1,-1,0
-25.36,2.85,14.05,416,1973,7894,-1,-1,0
-25.36,2.86,14.05,418,1968,7885,-1,-1,0
-25.36,2.86,14.04,416,1970,7880,-1,-1,0
-25.36,2.86,14.04,413,1976,7888,-1,-1,0
-25.36,2.87,14.04,421,1976,7899,0,-1,0
-25.36,2.87,14.04,420,1973,7905,-1,-1,0
-25.36,2.87,14.04,414,1962,7890,0,0,0
-25.36,2.87,14.04,418,1968,7893,-1,0,0
-25.37,2.87,14.03,417,1974,7903,-1,-1,0
-25.37,2.87,14.03,414,1978,7900,-1,0,-1
-25.37,2.87,14.03,409,1974,7906,-1,0,-1
-25.37,2.87,14.03,408,1966,7900,0,-1,0
-25.37,2.87,14.03,408,1963,7892,0,-1,0
-25.37,2.87,14.03,405,1970,7897,0,-1,-1
-25.36,2.87,14.04,408,1971,7898,0,-1,0
-25.36,2.87,14.04,413,1969,7892,-1,-1,0
-25.36,2.87,14.04,416,1976,7898,-1,0,0
-25.37,2.88,14.04,414,1969,7896,-1,-1,0
-25.37,2.88,14.04,416,1967,7901,0,-1,0
-25.37,2.88,14.04,415,1969,7896,-1,-1,0
-25.37,2.88,14.03,425,1969,7892,-1,0,0
-25.37,2.88,14.03,417,1974,7891,-1,0,-1
-25.37,2.88,14.03,412,1973,7905,-1,0,0
-25.37,2.88,14.02,412,1963,7900,-1,0,-1
-25.37,2.88,14.02,414,1969,7901,-1,0,0
-25.37,2.88,14.02,414,1964,7901,0,0,0
-25.37,2.88,14.02,415,1962,7908,0,0,0
-25.37,2.88,14.01,417,1963,7905,0,0,0
-25.37,2.88,14.02,412,1975,7899,-1,0,0
-25.37,2.88,14.02,417,1966,7890,0,-1,0
-25.37,2.88,14.02,416,1967,7900,0,-1,0
-25.37,2.88,14.02,426,1974,7903,0,-1,0
-25.37,2.89,14.03,428,1977,7895,-1,-1,0
-25.37,2.89,14.03,424,1976,7901,-1,0,0
-25.37,2.89,14.02,414,1970,7907,-1,0,0
-25.37,2.89,14.02,409,1970,7909,-1,-1,0
-25.37,2.89,14.02,414,1970,7918,-1,-1,0
-25.38,2.90,14.02,412,1968,7911,0,-1,0
-25.38,2.90,14.02,421,1970,7909,0,-1,0
-25.38,2.90,14.02,424,1970,7899,0,0,-1
-25.38,2.90,14.02,421,1966,7902,-1,0,-1
-25.38,2.90,14.02,415,1969,7907,-1,0,-1
-25.38,2.90,14.02,417,1969,7916,0,-1,-1
-25.37,2.90,14.02,418,1980,7917,0,-1,-1
-25.37,2.90,14.02,417,1988,7903,-1,0,0
-25.38,2.91,14.02,421,1981,7911,-1,-1,0
-25.38,2.91,14.02,422,1978,7912,-1,-1,0
-25.38,2.91,14.02,424,1974,7910,0,-1,-1
-25.37,2.91,14.03,419,1985,7903,0,0,-1
-25.37,2.91,14.03,417,1992,7902,-1,0,-1
-25.37,2.91,14.03,411,1983,7904,-1,0,0
-25.37,2.91,14.03,419,1980,7902,0,-1,0
-25.38,2.91,14.03,426,1967,7897,-1,-1,0
-25.38,2.91,14.02,428,1957,7892,0,0,-1
-25.37,2.91,14.02,428,1957,7905,0,0,-1
-25.37,2.90,14.02,429,1961,7908,0,0,-1
-25.37,2.90,14.02,421,1972,7909,-1,0,-1
-25.37,2.90,14.02,416,1968,7899,-1,0,-1
-25.37,2.90,14.02,407,1968,7904,-1,0,-1
-25.36,2.90,14.02,410,1961,7893,0,0,-1
-25.36,2.90,14.02,412,1969,7895,0,0,-1
-25.36,2.90,14.03,414,1980,7898,0,0,-1
-25.36,2.89,14.03,412,1977,7908,0,0,0
-25.36,2.89,14.03,405,1976,7906,-1,0,0
-25.36,2.89,14.03,413,1973,7904,-1,-1,0
-25.36,2.89,14.03,413,1965,7899,0,-1,0
-25.36,2.89,14.03,412,1965,7908,0,0,0
-25.36,2.89,14.03,413,1967,7909,0,-1,0
-25.36,2.89,14.03,412,1973,7900,-1,0,0
-25.36,2.90,14.02,416,1966,7905,-1,0,0
-25.36,2.90,14.02,414,1967,7915,-1,0,-1
-25.36,2.90,14.02,414,1968,7908,0,0,-1
-25.36,2.89,14.02,416,1970,7912,-1,0,-1
-25.36,2.89,14.01,415,1970,7917,-1,0,-1
-25.36,2.89,14.01,415,1958,7910,-1,0,0
-25.36,2.89,14.01,412,1959,7904,0,0,0
-25.36,2.89,14.01,420,1972,7902,0,-1,-1
-25.36,2.89,14.02,418,1985,7895,-1,0,-1
-25.36,2.89,14.02,412,1978,7893,-1,0,-1
-25.35,2.89,14.01,409,1973,7903,-1,-1,-1
-25.35,2.89,14.01,409,1967,7905,0,-1,0
-25.36,2.89,14.01,412,1966,7912,0,-1,0
-25.36,2.89,14.02,417,1964,7906,0,-1,0
-25.36,2.89,14.03,423,1974,7895,0,0,0
-25.36,2.89,14.03,427,1977,7895,-1,0,-1
-25.36,2.89,14.03,426,1973,7886,-1,0,-1
-25.36,2.89,14.03,423,1976,7890,-1,0,-1
-25.36,2.89,14.03,416,1972,7899,-1,0,-1
-25.36,2.89,14.03,417,1972,7907,0,0,-1
-25.35,2.89,14.03,424,1973,7906,0,0,-1
-25.35,2.89,14.03,423,1980,7902,0,0,-1
-25.35,2.88,14.04,413,1981,7908,-1,0,-1
-25.34,2.88,14.03,412,1977,7913,-1,0,-1
-25.34,2.88,14.03,406,1970,7908,-1,-1,0
-25.34,2.88,14.02,405,1966,7902,0,0,-1
-25.34,2.88,14.03,406,1971,7894,0,0,-1
-25.34,2.88,14.03,412,1973,7897,0,-1,0
-25.34,2.88,14.03,416,1968,7905,-1,0,0
-25.34,2.88,14.02,421,1965,7914,-1,0,-1
-25.34,2.88,14.02,417,1959,7906,0,0,-1
-25.34,2.88,14.02,416,1962,7894,0,0,-1
-25.34,2.88,14.03,417,1979,7901,0,0,-1
-25.34,2.87,14.03,412,1983,7902,-1,0,-1
-25.34,2.87,14.03,417,1964,7899,-1,0,-1
-25.34,2.87,14.02,413,1958,7899,-1,0,0
-25.34,2.87,14.02,408,1956,7912,0,-1,-1
-25.33,2.87,14.02,417,1972,7910,0,0,-1
-25.33,2.87,14.03,414,1988,7907,-1,0,0
-25.33,2.87,14.03,414,1981,7908,-1,0,0
-25.33,2.87,14.03,415,1975,7903,-1,-1,0
-25.33,2.87,14.03,417,1967,7904,0,0,0
-25.33,2.87,14.03,419,1962,7896,0,0,-1
-25.33,2.87,14.03,419,1962,7892,0,-1,-1
-25.33,2.87,14.03,423,1963,7900,0,0,0
-25.33,2.87,14.03,422,1967,7900,-1,0,-1
-25.33,2.87,14.03,419,1969,7906,-1,0,-1
-25.33,2.87,14.02,417,1971,7910,0,0,0
-25.33,2.87,14.02,416,1974,7912,-1,0,-1
-25.33,2.87,14.02,415,1967,7917,0,0,0
-25.33,2.87,14.02,425,1970,7909,0,0,-1
-25.33,2.87,14.03,417,1974,7909,0,0,-1
-25.33,2.87,14.03,417,1966,7902,0,0,0
-25.33,2.87,14.03,415,1970,7900,0,0,0
-25.33,2.87,14.03,413,1975,7898,-1,-1,0
-25.33,2.87,14.03,409,1975,7889,-1,0,0
-25.33,2.87,14.02,410,1977,7889,-1,-1,0
-25.33,2.87,14.02,405,1975,7904,-1,0,0
-25.33,2.87,14.02,405,1967,7911,0,0,0
-25.33,2.87,14.02,407,1962,7913,0,-1,0
-25.33,2.87,14.02,406,1962,7913,0,-1,0
-25.33,2.87,14.02,413,1968,7904,0,-1,0
-25.33,2.87,14.03,417,1974,7893,0,-1,-1
-25.33,2.88,14.03,417,1973,7891,0,0,-1
-25.33,2.87,14.03,419,1973,7906,-1,0,-1
-25.33,2.87,14.03,413,1974,7894,-1,0,0
-25.33,2.87,14.02,408,1974,7897,0,-1,0
-25.33,2.87,14.02,405,1972,7894,-1,0,0
-25.33,2.88,14.03,416,1977,7900,0,-1,0
-25.33,2.88,14.03,421,1986,7889,-1,0,-1
-25.33,2.88,14.03,414,1978,7893,-1,0,0
-25.33,2.88,14.03,412,1977,7901,-1,-1,0
-25.34,2.88,14.03,417,1975,7904,-1,-1,0
-25.34,2.89,14.03,417,1975,7910,0,0,0
-25.34,2.89,14.03,413,1982,7906,-1,0,0
-25.34,2.88,14.03,413,1979,7900,-1,0,0
-25.34,2.88,14.03,409,1968,7903,-1,0,0
-25.34,2.88,14.02,404,1965,7909,0,0,0
-25.34,2.88,14.02,409,1970,7912,0,-1,-1
-25.34,2.88,14.03,415,1983,7899,-1,0,-1
-25.34,2.88,14.02,416,1987,7903,-1,0,0
-25.34,2.88,14.02,419,1973,7900,-1,0,0
-25.34,2.89,14.02,417,1963,7909,0,0,0
-25.34,2.88,14.02,414,1966,7907,0,0,-1
-25.34,2.88,14.03,418,1978,7904,0,-1,0
-25.34,2.88,14.03,412,1987,7897,-1,-1,0
-25.34,2.88,14.03,413,1981,7899,-1,0,0
-25.34,2.88,14.03,412,1972,7905,-1,-1,-1
-25.34,2.89,14.02,416,1968,7907,0,-1,0
-25.35,2.89,14.02,415,1971,7902,0,-1,0
-25.34,2.89,14.03,416,1975,7905,0,-1,0
-25.34,2.89,14.03,419,1972,7903,-1,0,-1
-25.35,2.89,14.02,414,1969,7898,-1,0,0
-25.35,2.89,14.01,415,1966,7899,-1,0,-1
-25.35,2.89,14.01,412,1964,7897,0,-1,-1
-25.34,2.89,14.02,408,1972,7901,0,-1,-1
-25.34,2.89,14.02,414,1979,7907,0,0,0
-25.34,2.89,14.02,408,1975,7909,-1,-1,0
-25.34,2.89,14.02,415,1972,7908,-1,-1,0
-25.35,2.89,14.01,406,1960,7904,-1,0,0
-25.34,2.89,14.01,415,1958,7905,0,-1,-1
-25.34,2.89,14.01,414,1963,7900,0,0,-1
-25.34,2.89,14.02,413,1970,7902,0,-1,0
-25.35,2.90,14.02,419,1976,7895,-1,-1,0
-25.35,2.90,14.01,418,1969,7892,-1,-1,0
-25.35,2.90,14.01,419,1963,7892,-1,0,0
-25.35,2.90,14.01,411,1969,7895,0,0,-1
-25.35,2.90,14.01,414,1970,7908,0,0,0
-25.35,2.89,14.01,413,1970,7911,0,-1,0
-25.35,2.90,14.01,416,1961,7902,0,-1,0
-25.35,2.90,14.02,419,1968,7890,0,-1,-1
-25.35,2.90,14.02,424,1971,7888,0,0,-1
-25.35,2.90,14.02,418,1973,7902,-1,0,-1
-25.35,2.89,14.01,408,1969,7906,-1,0,0
-25.35,2.89,14.01,413,1960,7915,0,-1,-1
-25.35,2.89,14.02,415,1965,7911,0,0,0
-25.35,2.89,14.02,419,1975,7893,0,0,-1
-25.35,2.89,14.02,416,1976,7890,-1,0,0
-25.35,2.89,14.02,416,1969,7900,-1,0,0
-25.35,2.89,14.02,414,1973,7898,0,-1,0
-25.35,2.89,14.02,420,1972,7903,0,-1,0
-25.35,2.89,14.02,411,1968,7896,0,0,-1
-25.35,2.89,14.02,415,1976,7892,0,0,0
-25.35,2.89,14.03,416,1974,7895,0,0,0
-25.35,2.89,14.03,418,1973,7906,0,0,0
-25.35,2.89,14.02,413,1968,7896,-1,0,0
-25.35,2.89,14.03,417,1966,7895,0,0,0
-25.35,2.89,14.02,419,1972,7897,-1,0,-1
-25.35,2.89,14.02,426,1972,7895,0,-1,-1
-25.35,2.89,14.02,420,1964,7910,-1,0,-1
-25.35,2.89,14.02,421,1956,7908,0,0,0
-25.35,2.89,14.02,411,1961,7916,0,0,0
-25.35,2.89,14.02,415,1975,7903,0,-1,0
-25.34,2.89,14.03,410,1980,7901,0,0,-1
-25.34,2.89,14.03,407,1972,7900,-1,0,0
-25.34,2.89,14.03,411,1967,7902,0,0,0
-25.34,2.89,14.03,415,1963,7896,0,0,0
-25.35,2.88,14.03,418,1960,7892,0,0,0
-25.35,2.89,14.03,420,1963,7896,0,0,0
-25.35,2.89,14.03,424,1972,7914,-1,0,0
-25.36,2.89,14.03,423,1972,7909,-1,0,0
-25.35,2.89,14.03,418,1969,7901,-1,0,-1
-25.34,2.88,14.03,415,1969,7894,0,0,-1
-25.34,2.88,14.03,411,1969,7897,0,0,-1
-25.34,2.88,14.02,409,1976,7911,-1,0,0
-25.34,2.88,14.02,414,1977,7902,-1,0,0
-25.34,2.87,14.02,413,1972,7896,0,0,-1
-25.34,2.87,14.03,410,1974,7896,0,0,-1
-25.34,2.87,14.03,411,1974,7896,0,0,-1
-25.34,2.87,14.03,408,1978,7899,-1,0,0
-25.34,2.87,14.03,407,1969,7905,0,0,0
-25.34,2.87,14.03,410,1966,7898,0,0,-1
-25.34,2.87,14.03,407,1967,7894,-1,-1,0
-25.34,2.88,14.04,418,1974,7887,0,-1,-1
-25.34,2.87,14.04,411,1980,7881,0,0,-1
-25.33,2.86,14.04,405,1979,7898,-1,0,-1
-25.33,2.86,14.04,403,1973,7901,0,-1,0
-25.33,2.86,14.04,402,1970,7911,0,-1,0
-25.34,2.87,14.04,414,1969,7914,0,-1,0
-25.34,2.87,14.04,418,1962,7905,0,0,-1
-25.33,2.86,14.05,420,1969,7897,0,0,-1
-25.33,2.86,14.05,418,1978,7902,-1,0,-1
-25.33,2.86,14.05,413,1981,7906,-1,0,-1
-25.32,2.85,14.04,412,1970,7914,0,0,-1
-25.32,2.85,14.04,407,1966,7905,0,0,0
-25.32,2.85,14.04,406,1969,7899,0,0,-1
-25.32,2.85,14.05,412,1973,7906,0,0,-1
-25.31,2.85,14.05,414,1977,7894,0,0,-1
-25.31,2.84,14.06,409,1978,7887,0,0,-1
-25.31,2.84,14.06,410,1983,7883,-1,0,-1
-25.31,2.84,14.06,409,1982,7893,-1,0,-1
-25.31,2.84,14.06,409,1979,7898,0,-1,0
-25.31,2.84,14.06,408,1973,7899,0,-1,-1
-25.31,2.84,14.06,413,1976,7904,0,0,0
-25.31,2.84,14.06,415,1973,7908,-1,0,-1
-25.31,2.84,14.06,421,1967,7898,0,0,-1
-25.31,2.83,14.05,407,1967,7904,0,0,-1
-25.31,2.83,14.05,414,1975,7913,0,0,-1
-25.31,2.83,14.06,403,1978,7907,-1,0,-1
-25.31,2.83,14.06,403,1974,7901,-1,0,-1
-25.31,2.83,14.06,399,1971,7901,0,0,0
-25.31,2.83,14.06,405,1973,7901,0,0,-1
-25.30,2.82,14.06,408,1984,7905,0,0,-1
-25.30,2.82,14.06,406,1982,7904,0,0,-1
-25.30,2.82,14.06,406,1981,7902,0,0,0
-25.30,2.81,14.06,404,1968,7901,-1,0,0
-25.30,2.82,14.06,409,1958,7897,0,0,0
-25.30,2.81,14.06,413,1968,7896,0,0,-1
-25.30,2.81,14.06,413,1977,7890,0,0,-1
-25.30,2.81,14.07,413,1982,7888,-1,0,-1
-25.29,2.80,14.06,408,1979,7895,0,0,-1
-25.29,2.80,14.06,405,1979,7892,0,0,-1
-25.29,2.80,14.06,408,1980,7887,-1,0,-1
-25.29,2.80,14.06,403,1979,7895,-1,0,-1
-25.29,2.79,14.06,403,1980,7897,0,0,-1
-25.28,2.78,14.06,400,1964,7898,0,0,-1
-25.28,2.78,14.06,404,1966,7903,0,0,-1
-25.28,2.78,14.08,406,1987,7900,0,0,-1
-25.28,2.77,14.08,407,1990,7898,-1,0,0
-25.28,2.77,14.07,400,1983,7899,0,0,-1
-25.28,2.76,14.08,398,1981,7896,-1,0,-1
-25.29,2.76,14.07,416,1985,7889,-1,1,0
-25.30,2.72,14.07,391,2001,7913,-1,0,0
-25.33,2.70,14.06,374,1991,7912,-1,0,1
-25.35,2.71,14.05,376,1963,7912,0,-1,0
-25.34,2.73,14.07,402,1968,7893,0,-1,-1
-25.32,2.76,14.09,431,1951,7877,0,-1,-2
-25.29,2.76,14.09,437,1957,7861,0,0,-1
-25.27,2.74,14.11,407,1981,7871,0,0,-1
-25.26,2.73,14.11,376,1987,7912,-1,0,-1
-25.26,2.72,14.10,367,1989,7921,-1,-1,-1
-25.26,2.73,14.11,372,1986,7905,0,-1,0
-25.26,2.73,14.10,380,1988,7892,0,-1,0
-25.26,2.73,14.10,392,1988,7892,0,-1,0
-25.26,2.73,14.10,404,1982,7895,-1,0,-1
-25.26,2.73,14.10,402,1978,7904,0,0,-1
-25.25,2.72,14.11,391,1986,7905,0,0,-1
-25.25,2.72,14.11,382,1989,7914,0,0,-1
-25.25,2.71,14.12,382,1987,7907,0,0,0
-25.25,2.71,14.12,388,1982,7901,-1,0,0
-25.25,2.71,14.12,401,1980,7891,0,0,-1
-25.25,2.71,14.12,402,1990,7883,0,0,-1
-25.24,2.70,14.13,395,1984,7885,0,0,-1
-25.24,2.69,14.13,390,1989,7887,0,0,-1
-25.24,2.69,14.12,384,1984,7910,-1,0,-1
-25.24,2.69,14.12,384,1982,7906,0,0,-1
-25.24,2.68,14.13,379,1982,7908,0,0,-1
-25.23,2.68,14.13,381,1989,7900,0,0,-1
-25.23,2.67,14.13,384,1993,7895,0,0,-1
-25.23,2.67,14.13,383,1994,7897,-1,0,-1
-25.23,2.67,14.13,382,1993,7908,-1,0,-1
-25.23,2.66,14.13,378,1986,7912,0,0,-1
-25.23,2.65,14.14,378,1982,7906,0,0,-1
-25.23,2.65,14.14,381,1986,7898,0,0,0
-25.23,2.65,14.14,386,1986,7893,0,0,0
-25.23,2.65,14.14,381,1978,7890,-1,0,-1
-25.23,2.64,14.14,386,1988,7892,0,0,-1
-25.23,2.64,14.14,383,1988,7895,0,0,-1
-25.22,2.63,14.14,379,1988,7915,0,0,-1
-25.21,2.62,14.14,375,1991,7906,0,0,-1
-25.21,2.62,14.15,378,1997,7901,0,0,-1
-25.22,2.62,14.15,383,1999,7902,0,0,-1
-25.20,2.61,14.15,378,2002,7902,0,0,-1
-25.20,2.61,14.16,375,1999,7905,0,0,-1
-25.20,2.61,14.16,380,1987,7901,0,0,-1
-25.20,2.62,14.17,378,1997,7906,0,0,-1
-25.20,2.61,14.18,367,1996,7902,0,-1,0
-25.20,2.62,14.18,374,1997,7889,0,-1,-1
-25.20,2.62,14.18,380,1993,7891,-1,0,-1
-25.20,2.62,14.18,370,1992,7898,0,-1,-1
-25.19,2.62,14.19,363,1993,7901,0,-1,-1
-25.19,2.62,14.19,366,1991,7912,0,-1,0
-25.19,2.63,14.19,380,1985,7902,0,-1,0
-25.20,2.63,14.19,385,1991,7886,0,-1,0
-25.20,2.64,14.19,386,1996,7887,0,-1,0
-25.20,2.65,14.19,391,1991,7898,-1,-1,0
-25.20,2.65,14.19,381,1998,7910,0,-1,-1
-25.20,2.65,14.19,382,2002,7911,-1,-1,0
-25.20,2.65,14.18,376,1993,7909,-1,-1,0
-25.21,2.66,14.18,378,1986,7908,-1,-1,0
-25.21,2.66,14.18,378,1995,7899,-1,-1,0
-25.22,2.67,14.18,381,2000,7900,-1,-1,0
-25.22,2.67,14.18,386,2002,7900,-1,-1,0
-25.22,2.67,14.17,383,1997,7906,-1,-1,0
-25.23,2.68,14.17,391,1989,7897,-1,-1,0
-25.23,2.69,14.17,391,1988,7900,-1,-1,0
-25.23,2.69,14.16,389,1995,7903,-1,-1,0
-25.23,2.69,14.16,387,1985,7903,-1,-1,0
-25.24,2.70,14.15,386,1976,7905,-1,-1,0
-25.24,2.70,14.15,389,1971,7916,-1,-1,0
-25.24,2.70,14.15,381,1979,7913,0,-1,0
-25.24,2.71,14.15,391,1992,7919,-1,-1,0
-25.24,2.71,14.15,393,1995,7911,-1,-1,0
-25.24,2.72,14.14,396,1995,7910,-1,-1,0
-25.25,2.72,14.13,397,1968,7909,-1,-1,0
-25.25,2.72,14.13,400,1967,7904,0,-1,0
-25.26,2.73,14.13,397,1973,7909,0,-1,0
-25.26,2.73,14.13,406,1989,7903,0,-1,-1
-25.26,2.74,14.14,397,2009,7901,-1,-1,0
-25.26,2.74,14.14,393,2009,7903,-1,-1,0
-25.26,2.75,14.13,390,1990,7901,-1,-1,0
-25.27,2.75,14.13,390,1978,7897,-1,-1,0
-25.27,2.75,14.13,388,1973,7900,0,-1,0
-25.27,2.76,14.13,392,1981,7892,-1,-1,0
-25.27,2.76,14.13,397,1992,7887,-1,-1,0
-25.28,2.76,14.13,394,1993,7890,-1,0,0
-25.28,2.77,14.12,392,1987,7892,-1,-1,0
-25.28,2.77,14.12,394,1978,7888,-1,-1,0
-25.28,2.77,14.11,393,1972,7889,-1,-1,0
-25.29,2.77,14.11,403,1979,7902,-1,-1,0
-25.29,2.78,14.11,399,1986,7913,-1,-1,0
-25.29,2.78,14.11,405,1990,7914,-1,-1,0
-25.30,2.79,14.11,406,1988,7909,-1,-1,0
-25.30,2.79,14.11,403,1984,7896,-1,-1,0
-25.30,2.79,14.10,407,1974,7896,-1,-1,0
-25.31,2.80,14.10,405,1971,7896,0,-1,0
-25.31,2.80,14.10,406,1984,7894,-1,-1,0
-25.32,2.81,14.10,411,1992,7901,-1,-1,0
-25.32,2.82,14.09,409,1987,7890,-1,-1,0
-25.32,2.82,14.09,411,1988,7892,-1,-1,-1
-25.32,2.81,14.09,404,1982,7900,-1,0,0
-25.32,2.82,14.09,402,1974,7915,-1,-1,0
-25.33,2.82,14.09,407,1976,7919,-1,-1,0
-25.33,2.83,14.08,407,1969,7918,0,-1,0
-25.34,2.84,14.08,417,1973,7892,0,-1,-1
-25.34,2.84,14.09,414,1985,7893,-1,-1,0
-25.34,2.84,14.08,412,1978,7902,-1,-1,0
-25.34,2.84,14.07,406,1969,7903,-1,-1,0
-25.34,2.84,14.07,409,1968,7907,-1,-1,0
-25.35,2.84,14.07,405,1965,7896,0,0,0
-25.35,2.84,14.07,408,1972,7891,0,-1,-1
-25.35,2.84,14.07,401,1982,7895,-1,-1,0
-25.35,2.84,14.07,406,1977,7892,-1,-1,0
-25.36,2.84,14.07,400,1972,7895,-1,-1,0
-25.35,2.85,14.06,403,1976,7903,-1,-1,0
-25.36,2.85,14.07,401,1980,7897,-1,-1,0
-25.36,2.85,14.06,413,1979,7897,-1,-1,0
-25.36,2.86,14.06,411,1976,7893,-1,-1,0
-25.36,2.86,14.06,404,1970,7895,-1,-1,0
-25.37,2.86,14.06,411,1969,7893,0,0,0
-25.37,2.86,14.06,410,1967,7888,-1,0,0
-25.38,2.86,14.05,414,1976,7892,-1,0,0
-25.38,2.86,14.05,414,1974,7898,-1,0,0
-25.39,2.86,14.04,418,1964,7902,-1,0,0
-25.39,2.87,14.03,417,1954,7901,-1,-1,0
-25.39,2.87,14.03,411,1957,7910,0,0,0
-25.39,2.87,14.04,409,1971,7908,0,0,0
-25.39,2.87,14.05,408,1984,7901,0,-1,-1
-25.39,2.87,14.05,414,1993,7891,0,-1,-1
-25.39,2.86,14.05,405,1985,7892,-1,0,0
-25.39,2.87,14.04,403,1960,7897,-1,-1,-1
-25.39,2.87,14.03,404,1952,7906,-1,0,0
-25.39,2.87,14.04,410,1960,7910,0,-1,-1
-25.39,2.87,14.05,410,1981,7889,0,0,-1
-25.38,2.86,14.05,409,1994,7895,-1,0,-1
-25.38,2.86,14.05,413,1988,7898,-1,-1,-1
-25.38,2.86,14.05,407,1980,7903,-1,0,-1
-25.37,2.86,14.05,411,1975,7903,0,0,-1
-25.37,2.86,14.05,410,1977,7904,0,0,-1
-25.36,2.86,14.06,412,1981,7905,0,0,-1
-25.36,2.86,14.06,408,1980,7898,-1,0,-1
-25.35,2.85,14.06,408,1980,7906,0,0,-1
-25.35,2.85,14.06,405,1969,7898,0,0,-1
-25.35,2.85,14.06,411,1975,7904,0,0,-1
-25.35,2.84,14.06,405,1985,7904,-1,0,-1
-25.35,2.84,14.06,412,1974,7912,-1,-1,-1
-25.35,2.85,14.06,411,1968,7917,0,0,-1
-25.35,2.84,14.06,411,1972,7895,0,0,-1
-25.35,2.85,14.06,412,1976,7899,-1,0,-1
-25.35,2.84,14.05,419,1973,7905,-1,0,-1
-25.35,2.84,14.05,403,1976,7909,-1,0,-1
-25.34,2.84,14.05,395,1976,7915,-1,0,-1
-25.34,2.83,14.05,396,1975,7912,0,-1,-1
-25.34,2.84,14.05,408,1973,7902,0,-1,0
-25.34,2.84,14.06,408,1981,7896,0,0,-1
-25.34,2.83,14.06,412,1978,7886,0,0,-1
-25.34,2.83,14.06,411,1986,7884,0,0,-1
-25.33,2.83,14.07,415,1987,7894,0,0,-1
-25.33,2.82,14.06,408,1976,7901,0,0,-1
-25.32,2.82,14.06,400,1970,7894,-1,0,-1
-25.32,2.82,14.06,406,1967,7908,-1,0,-1
-25.32,2.82,14.06,407,1972,7903,0,0,-1
-25.32,2.82,14.06,408,1979,7907,0,0,-1
-25.32,2.82,14.06,412,1976,7905,0,0,-1
-25.31,2.81,14.07,400,1974,7903,0,0,-1
-25.31,2.80,14.07,402,1968,7895,0,0,-1
-25.31,2.80,14.07,398,1979,7899,0,0,-1
-25.31,2.79,14.07,389,1987,7906,0,0,-1
-25.31,2.79,14.08,390,1986,7906,0,0,-1
-25.31,2.78,14.07,395,1979,7893,0,0,-1
-25.30,2.78,14.08,398,1980,7894,0,0,-1
-25.30,2.78,14.08,411,1986,7885,0,0,-1
-25.30,2.77,14.08,410,1982,7895,0,0,-1
-25.30,2.76,14.08,403,1983,7901,-1,0,-1
-25.29,2.76,14.08,398,1977,7904,-1,0,-1
-25.29,2.75,14.09,403,1972,7909,0,0,-1
-25.29,2.75,14.09,403,1975,7905,0,0,-1
-25.29,2.75,14.09,400,1983,7899,0,0,-1
-25.28,2.74,14.10,399,1980,7895,0,0,-1
-25.28,2.73,14.10,390,1976,7904,0,0,-1
-25.28,2.74,14.10,386,1977,7905,0,0,-1
-25.27,2.72,14.11,378,1979,7917,0,0,-1
-25.27,2.72,14.11,385,1979,7906,0,0,-1
-25.27,2.71,14.11,388,1986,7896,0,0,-1
-25.27,2.71,14.11,395,1984,7890,0,0,-1
-25.26,2.71,14.12,399,1988,7888,0,0,-1
-25.26,2.70,14.12,398,1991,7883,0,0,-1
-25.26,2.69,14.12,388,1986,7894,-1,0,-1
-25.26,2.69,14.11,378,1989,7896,0,0,-1
-25.25,2.68,14.12,382,1986,7898,0,0,-1
-25.25,2.67,14.12,386,1983,7902,0,0,-1
-25.25,2.67,14.12,394,1987,7895,0,0,-1
-25.24,2.65,14.13,392,1988,7891,0,0,-1
-25.23,2.64,14.13,379,1984,7899,0,0,-1
-25.22,2.63,14.14,376,1981,7901,0,0,-1
-25.22,2.62,14.15,375,1981,7897,0,0,-1
-25.22,2.61,14.15,375,1991,7895,0,0,-1
-25.20,2.60,14.16,372,1998,7893,0,0,-1
-25.19,2.58,14.17,367,2000,7895,0,0,-1
-25.19,2.58,14.16,362,1988,7906,0,0,-1
-25.19,2.57,14.16,368,1979,7910,-1,0,-1
-25.19,2.56,14.17,362,1972,7907,0,0,-1
-25.19,2.56,14.17,371,1979,7899,0,0,-1
-25.18,2.54,14.18,376,1989,7896,0,0,-1
-25.17,2.53,14.18,375,1993,7897,0,0,-1
-25.17,2.51,14.18,375,1995,7894,0,0,-1
-25.16,2.51,14.18,377,1992,7902,0,0,-1
-25.15,2.49,14.19,367,1993,7891,0,0,-1
-25.14,2.47,14.21,354,2000,7893,0,0,-1
-25.13,2.46,14.22,352,2011,7893,0,0,-1
-25.13,2.45,14.22,351,2006,7899,0,0,-1
-25.12,2.44,14.23,349,2009,7889,0,0,-1
-25.12,2.42,14.23,344,2009,7890,0,0,-1
-25.12,2.42,14.24,352,1998,7891,0,0,-1
-25.11,2.41,14.24,351,2002,7893,0,0,-1
-25.10,2.40,14.25,347,2003,7896,0,0,-1
-25.10,2.39,14.25,340,2001,7896,0,0,-1
-25.09,2.38,14.26,350,1995,7903,0,0,-1
-25.08,2.37,14.27,343,2005,7890,0,0,-1
-25.08,2.36,14.27,347,2001,7896,0,0,-1
-25.08,2.35,14.28,344,2009,7890,0,0,-1
-25.08,2.35,14.28,338,2000,7897,0,0,-1
-25.06,2.34,14.28,334,2008,7886,0,0,-1
-25.06,2.33,14.29,327,2013,7898,0,0,-1
-25.06,2.34,14.29,331,2008,7904,0,-1,-1
-25.06,2.34,14.29,338,2014,7891,0,-1,-1
-25.06,2.34,14.30,340,2013,7893,0,-1,-1
-25.05,2.35,14.30,339,2009,7891,0,-1,-1
-25.05,2.36,14.30,341,2007,7886,0,-1,-1
-25.05,2.36,14.30,336,2005,7885,-1,-1,0
-25.06,2.36,14.29,335,2010,7894,-1,-1,0
-25.06,2.38,14.30,346,2007,7901,0,-1,0
-25.06,2.39,14.30,340,2012,7895,0,-1,0
-25.06,2.39,14.30,349,2019,7892,-1,-1,0
-25.07,2.40,14.30,352,2007,7894,-1,-1,-1
-25.07,2.40,14.29,350,1999,7898,-1,-1,-1
-25.07,2.41,14.29,343,1996,7890,-1,-1,0
-25.07,2.41,14.28,342,1997,7886,0,-1,0
-25.07,2.42,14.30,346,2024,7895,-1,-1,0
-25.08,2.43,14.29,350,2024,7896,-1,-1,0
-25.08,2.44,14.28,352,2015,7907,-1,-1,0
-25.09,2.44,14.27,357,1963,7876,0,0,0
-25.14,2.38,14.33,315,1847,7820,6,4,1
-25.19,2.25,14.52,249,1993,8138,5,2,3
-25.29,2.27,14.59,312,1795,8145,4,-1,3
-25.34,2.33,14.70,541,1889,7940,4,0,-1
-25.24,2.32,14.83,510,2183,7715,1,0,-5
-25.08,2.27,14.92,376,2389,7582,-1,0,-6
-24.99,2.22,14.86,201,2483,7657,-7,-1,-2
-25.01,2.23,14.69,106,2328,7851,-7,-3,1
-25.08,2.33,14.49,186,2124,8016,-6,-5,2
-25.16,2.46,14.34,333,1931,8032,-3,-4,2
-25.19,2.54,14.28,451,1791,7963,1,-2,0
-25.18,2.56,14.32,474,1791,7875,2,0,-1
-25.14,2.54,14.39,434,1892,7806,2,0,-2
-25.12,2.50,14.44,379,2034,7797,0,0,-1
-25.10,2.48,14.45,325,2134,7854,-1,0,-1
-25.09,2.47,14.42,304,2143,7946,-2,-1,0
-25.10,2.49,14.37,295,2078,7999,-2,-2,0
-25.12,2.52,14.33,327,1997,7977,-1,-2,0
-25.14,2.56,14.32,368,1942,7901,0,-1,0
-25.14,2.59,14.34,400,1942,7829,0,-1,0
-25.14,2.58,14.35,405,1980,7813,0,0,-1
-25.14,2.58,14.35,389,2037,7863,-1,0,-1
-25.14,2.57,14.34,366,2059,7937,-1,-1,-1
-25.14,2.58,14.31,353,2040,7959,-1,-1,0
-25.15,2.60,14.30,354,2000,7934,-1,-1,0
-25.16,2.61,14.30,366,1973,7890,0,-1,0
-25.16,2.63,14.30,386,1986,7856,0,-1,0
-25.17,2.62,14.30,386,2010,7866,-1,0,-1
-25.17,2.63,14.29,379,2019,7903,-1,0,-1
-25.16,2.63,14.27,379,2024,7932,-1,0,-1
-25.17,2.62,14.27,371,2013,7932,-1,-1,0
-25.17,2.63,14.26,366,1993,7913,0,-1,0
-25.17,2.64,14.26,373,1982,7884,0,-1,0
-25.18,2.65,14.26,383,1991,7867,-1,-1,0
-25.18,2.65,14.26,391,2004,7880,-1,0,0
-25.19,2.65,14.25,385,2007,7892,-1,-1,0
-25.19,2.66,14.25,383,2004,7910,-1,-1,0
-25.19,2.67,14.25,384,2000,7913,0,-1,0
-25.19,2.67,14.25,384,1999,7893,0,-1,0
-25.19,2.67,14.26,382,2006,7870,-1,-1,0
-25.19,2.67,14.25,381,2007,7872,-1,-1,0
-25.19,2.67,14.25,391,2006,7887,-1,-1,-1
-25.20,2.68,14.24,390,2005,7894,-1,-1,0
-25.20,2.68,14.24,379,2004,7901,-1,-1,0
-25.20,2.69,14.24,385,2004,7907,0,-1,0
-25.20,2.69,14.24,393,1998,7889,0,-1,0
-25.20,2.69,14.24,394,1997,7894,-1,-1,0
-25.21,2.69,14.23,386,1999,7881,-1,0,0
-25.21,2.69,14.23,386,2003,7886,-1,-1,0
-25.21,2.70,14.22,384,1995,7890,0,-1,0
-25.21,2.70,14.23,390,1996,7900,0,-1,0
-25.22,2.71,14.23,390,2000,7895,0,-1,0
-25.22,2.71,14.22,394,1998,7874,-1,-1,0
-25.23,2.71,14.22,389,1992,7882,-1,-1,0
-25.23,2.72,14.21,390,1980,7888,0,-1,-1
-25.22,2.72,14.21,383,1996,7909,0,-1,-1
-25.23,2.72,14.21,377,1998,7914,-1,-1,0
-25.23,2.72,14.21,384,1998,7898,0,-1,0
-25.24,2.73,14.21,395,1990,7892,0,-1,0
-25.24,2.73,14.21,400,1996,7888,0,-1,0
-25.24,2.73,14.21,402,1998,7885,-1,-1,-1
-25.24,2.74,14.21,395,2010,7888,-1,0,-1
-25.25,2.74,14.20,390,2007,7898,-1,-1,0
-25.25,2.74,14.20,387,1999,7900,-1,-1,0
-25.25,2.74,14.20,385,1986,7904,0,-1,0
-25.25,2.75,14.20,390,1993,7902,0,-1,0
-25.25,2.75,14.20,390,2003,7906,-1,-1,0
-25.25,2.75,14.20,395,2006,7908,-1,-1,0
-25.26,2.75,14.20,392,2002,7905,-1,-1,0
-25.26,2.75,14.19,392,2001,7903,-1,-1,0
-25.26,2.75,14.19,394,2004,7897,0,0,0
-25.26,2.75,14.19,393,2001,7894,0,-1,0
-25.27,2.76,14.19,391,2000,7887,-1,-1,0
-25.27,2.76,14.19,395,1994,7895,-1,0,0
-25.27,2.76,14.19,398,1983,7900,-1,-1,0
-25.28,2.77,14.18,403,1985,7907,-1,-1,0
-25.28,2.77,14.18,399,1989,7902,-1,0,0
-25.28,2.77,14.18,400,2000,7898,-1,-1,0
-25.28,2.77,14.18,396,1986,7898,-1,-1,-1
-25.28,2.76,14.17,394,1983,7896,-1,-1,0
-25.28,2.77,14.17,396,1984,7899,-1,0,0
-25.28,2.77,14.17,401,1991,7898,0,-1,0
-25.28,2.77,14.17,401,1997,7905,0,-1,-1
-25.28,2.78,14.17,404,2000,7896,0,-1,-1
-25.28,2.78,14.18,396,2004,7891,0,0,-1
-25.29,2.78,14.17,392,2000,7886,-1,-1,0
-25.30,2.78,14.17,394,1986,7888,-1,-1,0
-25.30,2.79,14.17,394,1983,7890,0,-1,0
-25.30,2.79,14.17,397,1987,7890,0,-1,0
-25.30,2.79,14.17,402,1986,7892,-1,-1,0
-25.31,2.79,14.17,406,1991,7892,-1,0,0
-25.31,2.79,14.16,407,1993,7894,-1,0,0
-25.31,2.79,14.16,396,1991,7891,-1,-1,0
-25.31,2.79,14.15,394,1987,7901,-1,-1,-1
-25.32,2.79,14.15,398,1982,7907,-1,0,0
-25.32,2.79,14.14,404,1982,7905,-1,-1,0
-25.32,2.80,14.15,406,1984,7894,0,-1,0
-25.32,2.80,14.15,402,1989,7895,0,-1,-1
-25.32,2.80,14.15,405,1993,7898,0,0,-1
-25.32,2.80,14.15,400,1991,7906,-1,0,0
-25.32,2.80,14.14,394,1982,7910,0,-1,0
-25.32,2.80,14.14,397,1979,7898,0,0,-1
-25.32,2.80,14.14,404,1984,7896,0,-1,-1
-25.32,2.80,14.14,401,1989,7892,-1,0,-1
-25.32,2.80,14.14,399,1989,7900,-1,0,-1
-25.32,2.80,14.14,393,1986,7908,0,-1,-1
-25.32,2.79,14.14,387,1984,7911,0,0,0
-25.32,2.79,14.14,397,1986,7907,0,-1,0
-25.32,2.80,14.14,402,1979,7899,-1,-1,0
-25.32,2.80,14.14,403,1977,7904,0,-1,-1
-25.32,2.80,14.14,406,1986,7893,0,0,-1
-25.31,2.80,14.15,408,2006,7890,0,0,-1
-25.31,2.79,14.15,401,2000,7896,-1,0,-1
-25.30,2.79,14.15,389,1989,7895,-1,-1,-1
-25.30,2.79,14.15,394,1984,7897,0,0,-1
-25.30,2.79,14.15,397,1988,7896,0,0,-1
-25.30,2.79,14.15,398,1995,7891,0,0,-1
-25.30,2.79,14.16,406,2000,7892,-1,0,0
-25.30,2.79,14.16,407,2000,7888,0,0,-1
-25.30,2.79,14.16,410,1990,7895,0,-1,-1
-25.30,2.79,14.16,405,1991,7901,-1,0,-1
-25.30,2.79,14.16,400,1996,7904,-1,0,-1
-25.29,2.79,14.16,395,1993,7913,0,-1,-1
-25.29,2.79,14.16,390,1985,7898,0,-1,-1
-25.29,2.79,14.15,398,1980,7897,0,0,-1
-25.29,2.78,14.15,398,1981,7890,-1,0,-1
-25.29,2.78,14.15,394,1987,7889,0,0,-1
-25.29,2.78,14.15,399,1992,7889,-1,0,-1
-25.29,2.78,14.15,403,1990,7897,-1,0,-1
-25.29,2.78,14.14,402,1977,7902,-1,-1,-1
-25.29,2.78,14.14,406,1977,7900,0,0,-1
-25.29,2.78,14.14,404,1986,7891,0,0,-1
-25.29,2.78,14.15,407,2000,7892,0,0,-1
-25.29,2.78,14.15,404,2002,7892,-1,0,-1
-25.29,2.78,14.15,395,1998,7893,-1,-1,-1
-25.29,2.78,14.15,397,1981,7907,0,-1,-1
-25.28,2.78,14.15,400,1983,7897,0,0,-1
-25.29,2.78,14.15,401,1988,7903,-1,0,-1
-25.29,2.78,14.15,401,1986,7895,-1,0,0
-25.29,2.78,14.15,388,1984,7888,0,-1,-1
-25.28,2.78,14.15,397,1992,7889,0,0,-1
-25.28,2.78,14.15,391,1994,7887,-1,0,-1
-25.28,2.77,14.15,392,1991,7886,-1,0,-1
-25.28,2.77,14.15,397,1985,7885,-1,0,-1
-25.27,2.77,14.15,406,1982,7883,0,0,-1
-25.27,2.77,14.15,403,1986,7890,0,0,-1
-25.27,2.77,14.15,397,1983,7885,0,0,-1
-25.27,2.77,14.15,389,1990,7889,0,0,-1
-25.27,2.77,14.15,401,1999,7895,-1,-1,-1
-25.27,2.77,14.15,401,1994,7893,-1,-1,-1
-25.27,2.77,14.15,394,1986,7897,-1,0,-1
-25.27,2.77,14.15,400,1980,7899,0,0,-1
-25.27,2.77,14.15,397,1979,7901,0,0,-1
-25.27,2.77,14.15,395,1978,7910,0,-1,0
-25.26,2.77,14.15,401,1982,7903,0,-1,-1
-25.26,2.77,14.16,395,1983,7892,0,0,-1
-25.26,2.77,14.16,405,1989,7887,-1,0,-1
-25.26,2.77,14.15,404,1982,7885,-1,0,-1
-25.26,2.77,14.15,402,1984,7891,-1,0,-1
-25.26,2.77,14.15,394,1982,7898,0,0,-1
-25.26,2.77,14.15,399,1984,7894,0,0,-1
-25.26,2.77,14.15,403,1991,7894,0,-1,-1
-25.26,2.77,14.16,401,1997,7896,-1,0,-1
-25.26,2.77,14.15,404,1999,7893,-1,0,-1
-25.26,2.77,14.15,402,1993,7894,-1,-1,0
-25.26,2.77,14.15,397,1984,7903,0,-1,-1
-25.26,2.77,14.15,400,1978,7895,0,0,-1
-25.26,2.77,14.15,399,1989,7890,0,0,-1
-25.26,2.77,14.15,398,1996,7893,-1,-1,0
-25.26,2.77,14.15,398,1993,7891,-1,-1,0
-25.27,2.78,14.15,400,1986,7894,0,-1,-1
-25.27,2.78,14.15,404,1978,7899,0,0,-1
-25.26,2.78,14.15,406,1982,7894,0,0,-1
-25.26,2.77,14.15,396,1996,7894,0,0,-1
-25.26,2.77,14.15,388,1996,7900,-1,0,-1
-25.26,2.77,14.15,388,1990,7894,-1,-1,-1
-25.26,2.77,14.15,392,1985,7895,0,0,0
-25.26,2.77,14.15,394,1986,7896,0,-1,0
-25.26,2.77,14.15,398,1999,7901,0,0,-1
-25.26,2.77,14.15,397,1990,7894,0,0,-1
-25.26,2.77,14.15,397,1993,7896,-1,0,-1
-25.26,2.77,14.15,394,1989,7892,-1,-1,0
-25.26,2.77,14.15,397,1982,7891,0,0,0
-25.26,2.77,14.15,399,1984,7903,0,0,0
-25.26,2.77,14.15,401,1987,7895,0,-1,0
-25.26,2.77,14.15,403,1986,7897,-1,0,-1
-25.27,2.78,14.15,405,1981,7895,-1,0,-1
-25.27,2.78,14.14,403,1980,7900,-1,0,-1
-25.27,2.78,14.14,395,1988,7901,-1,0,-1
-25.27,2.77,14.14,396,1989,7899,0,0,-1
-25.26,2.77,14.15,393,1996,7897,0,-1,-1
-25.26,2.77,14.15,393,1993,7899,-1,0,0
-25.27,2.77,14.14,385,1986,7903,-1,0,-1
-25.27,2.77,14.13,389,1985,7911,-1,0,-1
-25.27,2.77,14.14,401,1985,7915,0,-1,-1
-25.26,2.77,14.14,399,1994,7908,0,0,-1
-25.26,2.77,14.15,399,2009,7910,-1,-1,-1
-25.27,2.77,14.14,412,2016,7895,-1,0,0
-25.29,2.74,14.13,405,1994,7884,-1,2,1
-25.33,2.71,14.12,339,1952,7966,0,-1,0
-25.31,2.75,14.13,395,1969,7936,-1,-2,-1
-25.30,2.78,14.13,406,1954,7866,0,-1,-1
-25.28,2.78,14.16,425,2003,7859,0,0,-1
-25.27,2.78,14.17,407,2020,7877,-1,0,-1
-25.26,2.77,14.17,403,2030,7887,-1,0,-1
-25.26,2.76,14.16,391,2011,7904,-1,0,0
-25.26,2.76,14.15,391,1995,7904,-1,0,0
-25.28,2.75,14.14,409,2000,7869,-1,1,0
-25.30,2.72,14.13,376,1993,7882,-1,1,1
-25.32,2.71,14.11,380,1982,7912,-1,-1,0
-25.32,2.72,14.10,408,1988,7892,-1,0,-1
-25.33,2.70,14.08,391,1979,7891,-1,0,0
-25.34,2.69,14.08,371,1969,7928,-1,-1,0
-25.34,2.71,14.07,379,1959,7919,-1,-1,-1
-25.33,2.72,14.07,391,1949,7903,0,-1,-1
-25.31,2.73,14.09,404,1971,7885,0,0,-1
-25.31,2.72,14.10,394,1991,7891,0,0,-1
-25.31,2.72,14.10,391,2007,7903,-1,0,0
-25.31,2.72,14.09,390,1991,7911,-1,0,0
-25.32,2.71,14.07,398,1971,7914,-1,0,-1
-25.31,2.72,14.07,395,1958,7913,0,-1,-1
-25.31,2.72,14.07,388,1962,7903,0,-1,-1
-25.31,2.71,14.07,393,1971,7883,0,0,-1
-25.30,2.71,14.07,387,1988,7889,-1,0,-1
-25.30,2.70,14.08,388,1988,7898,-1,0,-1
-25.30,2.70,14.07,381,1982,7897,0,-1,-1
-25.30,2.70,14.08,383,1982,7899,0,-1,-1
-25.30,2.70,14.08,386,1981,7907,0,-1,-1
-25.30,2.70,14.08,387,1981,7887,0,-1,-1
-25.29,2.70,14.08,386,1982,7893,0,0,-1
-25.29,2.70,14.08,385,1976,7893,-1,0,-1
-25.29,2.70,14.08,384,1980,7895,0,0,-1
-25.29,2.70,14.08,389,1972,7896,0,-1,-1
-25.29,2.70,14.08,389,1980,7899,0,0,0
-25.29,2.70,14.08,394,1978,7899,0,0,-1
-25.29,2.70,14.08,399,1981,7903,0,0,-1
-25.28,2.70,14.08,395,1981,7899,0,0,-1
-25.28,2.70,14.08,392,1981,7898,0,0,-1
-25.28,2.70,14.09,391,1986,7902,0,-1,-1
-25.28,2.70,14.09,391,1987,7906,0,0,-1
-25.28,2.70,14.10,389,1988,7897,0,0,-1
-25.28,2.70,14.10,388,1988,7891,-1,0,-1
-25.28,2.70,14.10,388,1985,7898,0,0,-1
-25.28,2.70,14.10,391,1984,7894,0,0,-1
-25.27,2.69,14.10,383,1978,7903,-1,-1,-1
-25.27,2.69,14.10,381,1979,7898,0,-1,-1
-25.28,2.69,14.11,380,1980,7901,0,-1,-1
-25.27,2.70,14.11,393,1995,7895,0,-1,-1
-25.27,2.70,14.11,392,1997,7892,-1,0,0
-25.28,2.70,14.11,397,1980,7895,-1,0,-1
-25.27,2.70,14.10,388,1967,7909,-1,0,0
-25.27,2.70,14.09,382,1967,7916,0,-1,-1
-25.27,2.70,14.10,381,1978,7906,0,-1,-1
-25.27,2.70,14.11,382,1988,7900,0,-1,-1
-25.27,2.70,14.11,388,1986,7889,0,-1,-1
-25.27,2.70,14.11,394,1987,7887,0,0,-1
-25.27,2.70,14.12,396,1990,7894,-1,0,-1
-25.27,2.69,14.11,388,1982,7902,-1,0,-1
-25.26,2.69,14.11,386,1979,7909,0,0,-1
-25.26,2.69,14.11,380,1979,7896,0,0,-1
-25.26,2.70,14.12,378,1983,7901,0,0,-1
-25.26,2.70,14.12,387,1988,7907,0,-1,-1
-25.26,2.70,14.12,389,1993,7896,-1,0,0
-25.27,2.70,14.12,385,1992,7896,0,-1,-1
-25.26,2.70,14.12,392,1993,7902,0,0,-1
-25.26,2.70,14.12,389,1987,7899,0,0,-1
-25.26,2.70,14.12,383,1990,7908,0,0,-1
-25.26,2.69,14.12,375,1992,7900,-1,-1,0
-25.26,2.69,14.12,382,1983,7896,-1,-1,0
-25.26,2.69,14.11,388,1976,7899,-1,0,-1
-25.26,2.69,14.11,394,1982,7895,0,0,-1
-25.26,2.69,14.12,391,1993,7894,0,0,-1
-25.26,2.69,14.12,391,2000,7897,-1,-1,-1
-25.26,2.69,14.12,392,1990,7894,-1,-1,-1
-25.26,2.70,14.11,393,1978,7899,0,0,-1
-25.26,2.69,14.11,393,1973,7909,0,0,-1
-25.26,2.69,14.11,393,1973,7910,0,0,-1
-25.26,2.69,14.12,388,1980,7904,0,-1,-1
-25.25,2.70,14.13,391,1989,7899,0,-1,-1
-25.25,2.70,14.13,392,1994,7891,-1,0,0
-25.25,2.70,14.13,384,1986,7897,-1,-1,-1
-25.25,2.70,14.12,381,1974,7894,-1,0,-1
-25.25,2.70,14.12,388,1981,7900,0,-1,-1
-25.24,2.69,14.13,388,1991,7898,0,0,-1
-25.24,2.70,14.13,378,1994,7901,0,0,-1
-25.24,2.69,14.13,381,1987,7899,-1,-1,-1
-25.24,2.69,14.13,383,1990,7895,-1,0,-1
-25.24,2.69,14.13,388,1983,7905,0,0,-1
-25.24,2.69,14.13,390,1980,7906,0,0,-1
-25.24,2.69,14.13,382,1982,7898,0,0,-1
-25.24,2.69,14.13,384,1989,7901,0,0,-1
-25.23,2.69,14.14,381,1994,7896,0,0,-1
-25.23,2.69,14.14,384,1995,7890,-1,0,-1
-25.23,2.69,14.13,387,1982,7898,-1,0,-1
-25.23,2.69,14.13,389,1978,7907,0,-1,-1
-25.23,2.69,14.14,389,1985,7906,0,0,-1
-25.22,2.69,14.14,392,1998,7907,0,-1,-1
-25.22,2.69,14.14,389,1998,7906,0,-1,-1
-25.21,2.69,14.14,390,1999,7911,0,-1,-1
-25.21,2.69,14.14,384,1991,7906,-1,-1,-1
-25.21,2.69,14.14,387,1984,7896,-1,-1,-1
-25.21,2.70,14.13,394,1977,7896,0,-1,-1
-25.21,2.70,14.13,390,1978,7896,0,-1,-1
-25.21,2.70,14.14,400,1990,7899,0,0,-1
-25.20,2.70,14.14,399,1997,7882,-1,0,-1
-25.20,2.70,14.14,392,1991,7897,-1,0,-1
-25.20,2.69,14.14,389,1977,7903,-1,0,-1
-25.20,2.69,14.14,392,1975,7906,0,0,-1
-25.18,2.68,14.14,388,1981,7910,0,0,-1
-25.18,2.68,14.15,377,1998,7913,0,0,-1
-25.18,2.68,14.14,383,1997,7908,-1,0,-1
-25.18,2.68,14.15,392,1997,7895,-1,0,-1
-25.18,2.68,14.14,394,1992,7901,0,0,-1
-25.18,2.68,14.14,390,1982,7897,0,0,-1
-25.18,2.66,14.14,384,1997,7894,0,0,-1
-25.18,2.66,14.14,392,1994,7894,-1,0,-1
-25.18,2.66,14.14,387,1985,7904,-1,0,-1
-25.18,2.66,14.13,384,1988,7890,-1,0,-1
-25.18,2.65,14.14,390,1990,7891,-1,0,-1
-25.18,2.65,14.14,386,1989,7903,0,0,-1
-25.18,2.65,14.14,383,1991,7898,0,0,-1
-25.17,2.64,14.14,382,1995,7906,-1,0,-1
-25.17,2.64,14.14,385,1992,7909,-1,0,-1
-25.17,2.63,14.13,374,1987,7907,0,0,-1
-25.17,2.62,14.14,367,1983,7898,0,0,-1
-25.17,2.62,14.14,379,1984,7901,0,0,-1
-25.16,2.62,14.15,377,1996,7900,0,0,-1
-25.16,2.62,14.15,376,1994,7897,-1,0,-1
-25.16,2.62,14.14,374,1989,7893,-1,0,0
-25.16,2.61,14.15,376,1978,7908,0,-1,-1
-25.16,2.61,14.15,378,1979,7906,0,0,-1
-25.15,2.61,14.15,369,1987,7913,0,0,-1
-25.15,2.60,14.16,373,1991,7904,0,0,-1
-25.15,2.60,14.16,370,1989,7898,0,0,-1
-25.15,2.60,14.16,366,1984,7898,-1,0,-1
-25.14,2.60,14.15,364,1986,7899,-1,0,-1
-25.14,2.59,14.15,372,1989,7907,0,0,-1
-25.14,2.59,14.15,368,1986,7903,0,0,-1
-25.14,2.58,14.15,365,1983,7895,-1,0,-1
-25.14,2.57,14.15,365,1982,7894,0,0,-1
-25.13,2.57,14.15,366,1985,7892,0,0,-1
-25.13,2.57,14.16,369,1995,7894,0,0,-1
-25.13,2.57,14.16,370,1992,7897,0,0,-1
-25.13,2.57,14.16,371,1989,7904,0,0,-1
-25.13,2.56,14.16,370,1989,7919,0,0,-1
-25.13,2.56,14.15,364,1982,7910,0,0,-1
-25.13,2.56,14.15,362,1984,7912,0,0,0
-25.12,2.56,14.16,371,1983,7908,0,0,0
-25.12,2.56,14.16,374,1984,7902,0,0,-1
-25.12,2.55,14.16,375,1982,7893,0,0,-1
-25.12,2.55,14.16,379,1986,7896,0,0,-1
-25.12,2.55,14.16,374,1987,7903,0,0,-1
-25.11,2.54,14.15,369,1983,7909,-1,0,-1
-25.11,2.54,14.15,364,1978,7899,0,0,-1
-25.11,2.54,14.15,368,1980,7905,0,0,-1
-25.11,2.53,14.15,370,1989,7902,0,0,-1
-25.11,2.53,14.15,366,1997,7904,0,0,-1
-25.11,2.52,14.15,359,2001,7915,-1,0,-1
-25.11,2.52,14.15,359,2004,7913,-1,0,-1
-25.11,2.52,14.15,361,1999,7901,-1,0,-1
-25.10,2.51,14.15,358,1998,7897,0,0,-1
-25.10,2.51,14.15,363,1987,7901,0,0,-1
-25.09,2.51,14.16,363,1996,7898,0,0,-1
-25.09,2.51,14.16,363,1999,7901,-1,0,-1
-25.09,2.50,14.16,360,1985,7891,0,0,-1
-25.09,2.50,14.16,355,1983,7895,0,0,-1
-25.08,2.49,14.17,352,1995,7893,0,0,-1
-25.08,2.49,14.17,359,2002,7896,0,0,-1
-25.08,2.49,14.17,357,2000,7902,0,0,-1
-25.08,2.48,14.17,353,1992,7910,0,0,-1
-25.07,2.48,14.17,355,1991,7906,0,0,-1
-25.07,2.48,14.17,356,1990,7894,0,0,-1
-25.07,2.47,14.18,359,1995,7891,0,-1,-1
-25.07,2.48,14.19,357,2006,7900,0,0,-1
-25.07,2.48,14.19,360,2001,7901,-1,0,-1
-25.07,2.48,14.19,357,1992,7901,0,-1,-1
-25.07,2.48,14.19,361,1981,7903,0,0,0
-25.07,2.48,14.19,357,1983,7904,0,-1,-1
-25.07,2.48,14.20,365,1997,7896,0,-1,-1
-25.07,2.49,14.20,357,2007,7899,0,-1,0
-25.07,2.49,14.20,359,2005,7891,0,-1,0
-25.07,2.49,14.20,359,1998,7889,0,-1,-1
-25.07,2.49,14.20,361,1988,7891,0,-1,-1
-25.07,2.49,14.20,357,1985,7900,0,-1,-1
-25.07,2.49,14.21,358,1991,7893,0,-1,-1
-25.07,2.49,14.21,361,2005,7898,-1,-1,0
-25.07,2.49,14.21,362,2003,7906,-1,-1,0
-25.07,2.49,14.20,354,1993,7898,-1,-1,0
-25.07,2.50,14.20,358,1997,7898,0,-1,0
-25.07,2.50,14.21,363,2007,7896,0,-1,0
-25.07,2.51,14.20,367,2012,7888,-1,-1,0
-25.07,2.51,14.20,368,2006,7896,-1,-1,0
-25.07,2.51,14.20,363,1993,7891,-1,-1,-1
-25.07,2.52,14.20,359,1991,7898,-1,-1,-1
-25.08,2.52,14.19,354,1991,7907,0,-1,0
-25.08,2.52,14.19,360,1988,7909,0,-1,0
-25.08,2.53,14.20,359,1992,7908,0,-1,0
-25.09,2.53,14.20,362,1996,7902,0,-1,0
-25.09,2.53,14.20,363,2009,7896,0,-1,0
-25.09,2.53,14.20,371,2010,7895,-1,0,-1
-25.09,2.54,14.20,368,2006,7899,-1,-1,-1
-25.09,2.54,14.20,363,1994,7906,-1,-1,0
-25.09,2.53,14.19,357,1987,7911,-1,0,0
-25.09,2.53,14.19,356,1994,7909,-1,0,0
-25.09,2.53,14.19,361,2007,7902,0,-1,0
-25.09,2.54,14.19,369,2000,7902,0,-1,-1
-25.09,2.54,14.20,371,2002,7897,0,-1,0
-25.10,2.54,14.19,365,1997,7894,-1,-1,0
-25.10,2.55,14.19,369,1992,7881,0,-1,-1
-25.10,2.55,14.18,365,1991,7898,0,0,0
-25.10,2.56,14.19,363,1988,7899,0,-1,-1
-25.10,2.56,14.19,372,1992,7897,0,-1,0
-25.10,2.56,14.19,369,1988,7891,-1,-1,0
-25.10,2.57,14.18,376,1992,7897,0,-1,0
-25.10,2.57,14.18,379,1997,7896,0,-1,0
-25.10,2.57,14.18,374,2005,7896,0,0,-1
-25.10,2.57,14.18,373,2001,7894,-1,0,0
-25.10,2.58,14.18,370,1984,7893,0,-1,-1
-25.11,2.58,14.18,368,1983,7897,-1,-1,0
-25.11,2.58,14.18,371,1980,7892,0,-1,0
-25.11,2.58,14.18,368,1992,7905,0,-1,-1
-25.11,2.58,14.18,373,1999,7901,-1,-1,0
-25.11,2.58,14.18,373,2011,7899,-1,-1,0
-25.11,2.59,14.18,372,1999,7896,-1,-1,0
-25.12,2.59,14.18,375,1991,7902,0,-1,0
-25.12,2.60,14.18,373,1985,7906,0,-1,0
-25.12,2.60,14.18,372,1992,7911,0,-1,0
-25.12,2.60,14.18,369,1996,7900,-1,-1,0
-25.12,2.60,14.18,366,1995,7902,-1,-1,0
-25.12,2.60,14.17,370,1992,7901,-1,-1,-1
-25.12,2.60,14.17,374,1991,7895,-1,-1,-1
-25.12,2.60,14.17,366,1986,7897,-1,-1,-1
-25.13,2.60,14.17,369,1989,7891,0,-1,0
-25.13,2.61,14.18,372,1998,7890,0,-1,-1
-25.12,2.61,14.18,377,1997,7896,0,-1,-1
-25.13,2.61,14.17,374,1993,7897,-1,-1,0
-25.13,2.61,14.17,373,1988,7899,-1,-1,0
-25.13,2.61,14.16,370,1976,7907,-1,-1,0
-25.13,2.62,14.17,382,1980,7906,0,-1,-1
-25.13,2.62,14.17,378,2000,7894,0,-1,-1
-25.13,2.62,14.17,376,2001,7887,-1,-1,0
-25.13,2.63,14.16,378,1993,7889,-1,-1,0
-25.13,2.63,14.16,370,1987,7905,-1,-1,0
-25.13,2.62,14.16,372,1981,7908,0,-1,0
-25.14,2.62,14.16,368,1981,7910,0,-1,0
-25.14,2.63,14.16,374,1991,7905,0,-1,0
-25.14,2.63,14.16,380,1992,7889,0,0,0
-25.14,2.63,14.17,385,1998,7895,-1,0,-1
-25.14,2.63,14.17,381,2000,7884,-1,0,-1
-25.14,2.63,14.16,374,1999,7888,-1,0,0
-25.14,2.63,14.16,368,2000,7901,-1,-1,0
-25.14,2.63,14.16,372,1988,7911,0,-1,-1
-25.14,2.63,14.16,373,1995,7894,0,-1,-1
-25.14,2.63,14.17,373,1998,7884,0,-1,-1
-25.14,2.63,14.17,375,1995,7887,0,-1,0
-25.14,2.63,14.17,368,1991,7887,0,0,0
-25.14,2.63,14.17,371,1993,7893,0,-1,0
-25.14,2.63,14.17,373,1994,7895,-1,0,-1
-25.14,2.63,14.17,369,1990,7896,0,-1,-1
-25.14,2.63,14.17,373,1991,7896,-1,-1,0
-25.14,2.63,14.17,378,1985,7892,-1,-1,0
-25.14,2.63,14.16,384,1985,7900,-1,-1,-1
-25.14,2.64,14.16,385,1994,7897,0,-1,-1
-25.14,2.64,14.17,383,2002,7890,0,-1,-1
-25.14,2.64,14.17,385,2009,7884,-1,-1,-1
-25.14,2.64,14.17,385,2006,7893,-1,0,0
-25.14,2.64,14.16,379,1990,7908,-1,-1,-1
-25.14,2.64,14.15,386,1980,7897,-1,-1,0
-25.14,2.65,14.15,379,1980,7894,0,-1,-1
-25.15,2.65,14.17,382,1988,7890,0,-1,-1
-25.14,2.65,14.17,379,2003,7897,0,-1,-1
-25.15,2.65,14.17,378,2002,7892,-1,-1,0
-25.15,2.65,14.17,372,1995,7895,-1,-1,0
-25.15,2.66,14.17,382,1996,7901,0,-1,0
-25.15,2.66,14.17,385,1995,7908,0,-1,0
-25.15,2.66,14.17,384,1996,7899,0,-1,0
-25.15,2.66,14.17,390,2002,7892,-1,0,0
-25.15,2.66,14.17,386,2001,7888,-1,0,-1
-25.15,2.66,14.16,380,1996,7891,-1,-1,0
-25.16,2.66,14.16,382,1993,7888,-1,-1,0
-25.16,2.67,14.16,385,1993,7894,-1,-1,0
-25.16,2.67,14.16,382,1986,7901,-1,-1,0
-25.16,2.67,14.15,383,1982,7891,0,0,0
-25.16,2.67,14.15,381,1984,7894,-1,0,0
-25.16,2.67,14.15,383,1980,7891,-1,0,-1
-25.16,2.67,14.14,377,1981,7890,0,-1,0
-25.16,2.67,14.15,381,1994,7896,-1,-1,0
-25.17,2.67,14.14,390,2000,7889,-1,-1,0
-25.17,2.67,14.14,386,1995,7890,-1,-1,0
-25.17,2.67,14.14,377,1991,7904,-1,0,-1
-25.17,2.67,14.13,376,1983,7913,0,-1,0
-25.17,2.67,14.14,377,1979,7910,0,-1,0
-25.17,2.67,14.14,388,1983,7908,0,-1,-1
-25.17,2.68,14.15,390,1989,7897,0,0,-1
-25.17,2.68,14.15,395,1987,7893,-1,0,-1
-25.17,2.67,14.14,388,1982,7903,-1,0,-1
-25.16,2.67,14.14,386,1980,7901,0,0,-1
-25.16,2.67,14.14,382,1990,7903,0,0,-1
-25.16,2.66,14.15,383,1996,7901,0,0,-1
-25.16,2.66,14.15,378,1997,7903,0,0,-1
-25.16,2.66,14.15,381,1993,7901,0,0,-1
-25.16,2.66,14.15,381,1987,7911,0,0,-1
-25.15,2.66,14.15,380,1992,7901,0,0,-1
-25.15,2.65,14.15,373,1992,7902,-1,0,-1
-25.15,2.65,14.15,376,1995,7906,0,0,-1
-25.15,2.65,14.15,378,1990,7897,0,-1,-1
-25.15,2.65,14.15,383,1990,7898,-1,-1,-1
-25.15,2.65,14.15,384,1989,7900,-1,0,-1
-25.14,2.65,14.14,384,1980,7901,0,0,-1
-25.14,2.64,14.15,376,1984,7907,0,0,-1
-25.14,2.64,14.15,377,1993,7907,0,0,-1
-25.13,2.64,14.15,381,1994,7905,-1,0,-1
-25.13,2.64,14.15,383,1991,7908,-1,0,-1
-25.13,2.64,14.15,379,1984,7899,0,0,-1
-25.13,2.64,14.15,375,1976,7902,0,0,-1
