Yaw,Pitch,Roll,AX,AY,AZ,GX,GY,GZ
-163.77,3.70,-26.86,528,-3733,7363,-1,-1,0
-163.77,3.69,-26.86,527,-3731,7365,0,0,0
-163.77,3.70,-26.86,537,-3723,7349,-1,0,-1
-163.77,3.69,-26.86,530,-3728,7351,-1,-1,0
-163.77,3.70,-26.86,533,-3734,7354,-1,-1,0
-163.77,3.70,-26.86,539,-3741,7365,0,0,-1
-163.76,3.70,-26.86,542,-3743,7372,0,0,-1
-163.76,3.70,-26.86,544,-3742,7372,-1,0,-1
-163.76,3.69,-26.86,539,-3728,7379,-1,0,0
-163.76,3.69,-26.86,526,-3715,7366,-1,0,0
-163.77,3.69,-26.87,517,-3721,7370,-1,0,0
-163.77,3.68,-26.88,509,-3729,7362,-1,-1,0
-163.77,3.69,-26.89,520,-3747,7344,-1,-1,0
-163.77,3.69,-26.90,527,-3755,7348,-1,-1,-1
-163.77,3.69,-26.90,533,-3756,7344,0,-1,-1
-163.77,3.70,-26.90,541,-3753,7344,0,-1,-1
-163.77,3.70,-26.89,544,-3747,7349,0,0,-1
-163.77,3.70,-26.88,540,-3732,7356,0,0,-1
-163.77,3.69,-26.87,538,-3723,7372,0,0,0
-163.77,3.69,-26.87,538,-3714,7369,-1,0,0
-163.77,3.70,-26.88,531,-3709,7365,-1,-1,0
-163.77,3.69,-26.88,524,-3715,7356,-1,-1,0
-163.78,3.70,-26.90,524,-3727,7342,-1,-1,0
-163.78,3.70,-26.90,533,-3743,7348,-1,-1,0
-163.78,3.70,-26.92,538,-3757,7347,-1,0,0
-163.78,3.69,-26.92,537,-3754,7345,0,0,0
-163.78,3.69,-26.91,538,-3753,7351,0,0,0
-163.79,3.68,-26.91,530,-3740,7344,0,0,0
-163.79,3.68,-26.91,534,-3737,7342,0,-1,0
-163.79,3.68,-26.92,535,-3743,7346,-1,-1,0
-163.79,3.68,-26.92,537,-3734,7357,-1,0,0
-163.80,3.68,-26.92,536,-3732,7357,-1,0,0
-163.80,3.68,-26.94,538,-3734,7353,-1,0,0
-163.81,3.68,-26.94,543,-3731,7348,-1,0,0
-163.81,3.67,-26.95,545,-3742,7345,-1,0,0
-163.82,3.66,-26.96,534,-3736,7341,-1,0,0
-163.82,3.66,-26.97,530,-3751,7350,-1,0,0
-163.83,3.66,-26.97,520,-3757,7352,-1,0,0
-163.83,3.65,-26.97,524,-3749,7350,-1,0,0
-163.83,3.65,-26.98,518,-3749,7357,-1,-1,0
-163.84,3.65,-26.98,525,-3753,7358,-1,0,0
-163.84,3.64,-26.99,525,-3746,7354,-1,0,0
-163.84,3.64,-26.99,527,-3746,7352,-1,-1,0
-163.84,3.64,-26.99,525,-3744,7345,0,0,-1
-163.84,3.64,-26.99,528,-3747,7338,-1,-1,0
-163.85,3.63,-26.99,529,-3747,7357,-1,0,0
-163.85,3.63,-26.99,534,-3757,7339,0,0,0
-163.85,3.62,-26.98,521,-3752,7342,0,0,0
-163.85,3.62,-26.97,527,-3752,7342,0,0,0
-163.85,3.62,-26.96,521,-3744,7345,0,0,-1
-163.85,3.61,-26.94,519,-3754,7356,0,-1,0
-163.84,3.62,-26.94,531,-3742,7364,0,0,-1
-163.84,3.62,-26.92,541,-3734,7357,0,0,-1
-163.84,3.62,-26.91,535,-3719,7356,0,-1,0
-163.83,3.61,-26.90,526,-3714,7348,0,0,-1
-163.84,3.61,-26.90,523,-3729,7349,-1,-1,0
-163.83,3.61,-26.90,522,-3727,7365,0,0,-1
-163.83,3.60,-26.89,508,-3719,7371,-1,0,-1
-163.83,3.61,-26.89,508,-3725,7363,0,-1,-1
-163.82,3.62,-26.89,530,-3744,7349,0,-1,-1
-163.81,3.63,-26.88,548,-3737,7357,0,-1,-1
-163.81,3.64,-26.87,542,-3719,7358,0,-1,-1
-163.81,3.64,-26.87,527,-3723,7349,-1,0,-1
-163.81,3.63,-26.88,518,-3731,7351,0,0,-1
-163.81,3.63,-26.88,507,-3732,7346,0,0,-1
-163.81,3.63,-26.88,506,-3731,7363,-1,-1,-1
-163.80,3.64,-26.88,516,-3741,7350,-1,-1,-1
-163.80,3.65,-26.88,521,-3750,7366,0,-1,-1
-163.79,3.66,-26.88,527,-3755,7368,0,-1,-1
-163.79,3.66,-26.87,538,-3745,7363,0,0,-1
-163.78,3.66,-26.86,544,-3735,7363,0,0,0
-163.78,3.66,-26.85,549,-3728,7368,0,0,0
-163.78,3.65,-26.85,544,-3715,7366,0,0,0
-163.78,3.64,-26.84,522,-3714,7358,-1,0,0
-163.79,3.63,-26.85,515,-3718,7362,-1,-1,0
-163.79,3.64,-26.85,517,-3726,7358,-1,-1,-1
-163.79,3.64,-26.86,519,-3729,7350,-1,-1,0
-163.78,3.64,-26.86,522,-3729,7344,0,-1,-1
-163.78,3.64,-26.86,527,-3740,7359,0,0,-1
-163.78,3.65,-26.85,533,-3737,7371,0,0,-1
-163.78,3.64,-26.85,526,-3723,7365,0,0,-1
-163.78,3.64,-26.85,523,-3722,7355,0,0,-1
-163.78,3.64,-26.85,527,-3730,7350,0,0,0
-163.78,3.64,-26.85,536,-3732,7360,0,0,0
-163.78,3.64,-26.85,536,-3722,7370,-1,0,0
-163.78,3.64,-26.85,535,-3721,7366,-1,0,0
-163.78,3.64,-26.85,531,-3729,7364,-1,0,0
-163.78,3.64,-26.85,523,-3740,7355,0,0,0
-163.78,3.63,-26.85,519,-3739,7358,-1,0,0
-163.78,3.63,-26.85,521,-3730,7360,-1,0,0
-163.78,3.63,-26.85,524,-3730,7357,-1,0,-1
-163.78,3.63,-26.85,530,-3734,7351,0,0,-1
-163.78,3.63,-26.85,529,-3732,7349,0,0,-1
-163.78,3.63,-26.85,528,-3731,7361,-1,0,0
-163.78,3.62,-26.86,525,-3731,7358,-1,0,0
-163.78,3.62,-26.86,518,-3730,7358,-1,0,-1
-163.78,3.62,-26.86,517,-3738,7361,-1,0,0
-163.78,3.62,-26.86,525,-3730,7359,-1,0,0
-163.78,3.62,-26.87,522,-3736,7361,-1,0,0
-163.78,3.62,-26.87,523,-3737,7344,-1,0,0
-163.78,3.61,-26.87,515,-3734,7353,0,0,0
-163.78,3.61,-26.87,519,-3733,7370,-1,0,0
-163.78,3.61,-26.87,520,-3726,7370,-1,-1,-1
-163.78,3.61,-26.87,522,-3734,7360,0,0,-1
-163.78,3.61,-26.87,524,-3742,7355,0,0,0
-163.78,3.61,-26.87,523,-3735,7359,-1,0,0
-163.78,3.61,-26.87,528,-3728,7358,-1,0,0
-163.78,3.61,-26.87,521,-3717,7354,-1,0,0
-163.78,3.60,-26.88,516,-3727,7348,-1,0,0
-163.78,3.60,-26.88,512,-3722,7351,0,-1,0
-163.78,3.60,-26.88,520,-3735,7363,-1,0,-1
-163.78,3.60,-26.88,529,-3736,7357,0,0,-1
-163.77,3.60,-26.88,539,-3732,7360,-1,0,0
-163.78,3.60,-26.88,532,-3724,7358,-1,0,0
-163.78,3.59,-26.88,523,-3723,7355,-1,0,0
-163.79,3.58,-26.89,513,-3725,7350,-1,0,0
-163.79,3.58,-26.89,503,-3737,7349,-1,0,0
-163.79,3.57,-26.90,498,-3738,7354,-1,-1,-1
-163.79,3.57,-26.91,498,-3745,7351,-1,-1,-1
-163.79,3.58,-26.91,515,-3746,7346,-1,-1,-1
-163.79,3.58,-26.91,526,-3749,7345,0,-1,-1
-163.79,3.58,-26.91,532,-3743,7340,0,-1,0
-163.79,3.58,-26.91,530,-3746,7352,0,0,0
-163.79,3.58,-26.90,531,-3729,7367,0,0,0
-163.79,3.57,-26.89,508,-3722,7364,-1,0,0
-163.79,3.57,-26.89,507,-3725,7363,-1,-1,-1
-163.79,3.57,-26.90,512,-3733,7366,-1,-1,0
-163.79,3.58,-26.91,516,-3741,7363,-1,-1,0
-163.79,3.58,-26.91,519,-3743,7359,-1,-1,0
-163.79,3.58,-26.91,519,-3745,7355,0,-1,0
-163.79,3.58,-26.91,515,-3746,7353,0,-1,-1
-163.79,3.58,-26.91,517,-3740,7359,0,0,-1
-163.79,3.58,-26.90,517,-3735,7367,0,0,-1
-163.79,3.58,-26.90,511,-3742,7361,0,-1,-1
-163.79,3.58,-26.90,514,-3735,7358,0,-1,-1
-163.79,3.58,-26.90,522,-3725,7355,-1,-1,-1
-163.79,3.59,-26.90,526,-3728,7356,-1,-1,0
-163.79,3.59,-26.90,528,-3732,7355,-1,-1,0
-163.79,3.59,-26.90,527,-3740,7353,-1,-1,0
-163.79,3.59,-26.90,519,-3735,7351,0,-1,0
-163.78,3.60,-26.90,517,-3735,7353,-1,-1,0
-163.78,3.60,-26.90,513,-3739,7356,0,-1,0
-163.78,3.60,-26.90,512,-3736,7350,0,-1,-1
-163.78,3.60,-26.90,516,-3733,7352,0,-1,-1
-163.78,3.60,-26.90,526,-3726,7355,0,0,0
-163.78,3.61,-26.89,529,-3736,7356,0,-1,-1
-163.78,3.61,-26.89,523,-3738,7353,0,-1,0
-163.78,3.62,-26.89,525,-3741,7355,0,-1,-1
-163.78,3.62,-26.89,529,-3740,7363,0,-1,-1
-163.78,3.62,-26.89,526,-3737,7358,-1,-1,-1
-163.78,3.63,-26.89,530,-3731,7349,-1,-1,-1
-163.78,3.63,-26.89,534,-3731,7339,0,-1,-1
-163.77,3.64,-26.89,543,-3735,7342,0,-1,0
-163.77,3.64,-26.89,542,-3731,7349,0,0,-1
-163.77,3.64,-26.88,537,-3727,7359,0,0,0
-163.77,3.64,-26.88,525,-3731,7359,0,0,0
-163.77,3.64,-26.88,516,-3743,7356,0,-1,-1
-163.77,3.64,-26.88,519,-3738,7356,0,-1,0
-163.77,3.64,-26.87,513,-3734,7357,0,-1,0
-163.77,3.65,-26.87,532,-3727,7365,0,-1,-1
-163.76,3.65,-26.86,542,-3724,7381,0,-1,0
-163.77,3.65,-26.86,551,-3714,7384,-1,0,0
-163.77,3.64,-26.86,534,-3712,7377,-1,0,0
-163.77,3.63,-26.87,517,-3717,7363,-1,0,0
-163.78,3.63,-26.87,507,-3725,7348,-1,-1,0
-163.78,3.63,-26.88,507,-3735,7343,-1,-1,-1
-163.78,3.64,-26.89,511,-3749,7346,-1,-1,-1
-163.78,3.64,-26.89,522,-3755,7347,0,-1,-1
-163.77,3.65,-26.88,536,-3746,7349,0,-1,-1
-163.77,3.65,-26.87,539,-3745,7355,0,-1,0
-163.77,3.65,-26.86,541,-3734,7357,0,0,0
-163.77,3.65,-26.85,536,-3724,7368,0,0,0
-163.77,3.65,-26.85,522,-3725,7381,0,0,0
-163.77,3.64,-26.85,521,-3715,7374,-1,-1,0
-163.77,3.65,-26.85,523,-3713,7362,-1,-1,0
-163.78,3.65,-26.86,526,-3724,7353,-1,-1,0
-163.78,3.65,-26.87,530,-3742,7340,-1,-1,0
-163.78,3.65,-26.88,530,-3749,7333,-1,0,0
-163.78,3.65,-26.88,527,-3760,7353,0,-1,0
-163.78,3.65,-26.88,522,-3746,7346,0,0,-1
-163.78,3.65,-26.87,522,-3749,7355,0,-1,-1
-163.78,3.65,-26.87,526,-3736,7352,0,-1,-1
-163.77,3.66,-26.86,539,-3729,7359,0,-1,0
-163.77,3.66,-26.86,546,-3728,7367,0,-1,0
-163.77,3.66,-26.86,548,-3723,7352,-1,0,0
-163.77,3.66,-26.87,548,-3732,7355,-1,0,0
-163.78,3.65,-26.87,535,-3741,7357,-1,0,0
-163.78,3.65,-26.88,527,-3733,7353,-1,0,0
-163.78,3.65,-26.88,513,-3730,7350,-1,0,0
-163.79,3.64,-26.88,517,-3731,7349,-1,0,0
-163.79,3.64,-26.88,524,-3735,7349,-1,-1,-1
-163.79,3.65,-26.88,530,-3741,7355,-1,0,0
-163.79,3.64,-26.88,529,-3742,7350,0,0,0
-163.79,3.64,-26.88,529,-3737,7358,0,0,0
-163.79,3.64,-26.88,519,-3734,7355,-1,-1,0
-163.79,3.64,-26.88,525,-3737,7355,-1,-1,0
-163.79,3.64,-26.88,530,-3737,7359,-1,-1,-1
-163.79,3.64,-26.88,525,-3733,7358,-1,-1,-1
-163.79,3.64,-26.89,527,-3725,7359,-1,-1,0
-163.79,3.64,-26.89,530,-3725,7353,-1,0,0
-163.79,3.64,-26.89,523,-3734,7343,-1,0,0
-163.79,3.64,-26.89,518,-3735,7340,0,-1,0
-163.79,3.64,-26.90,515,-3745,7346,0,-1,-1
-163.79,3.65,-26.89,529,-3740,7353,0,-1,-1
-163.78,3.65,-26.89,541,-3738,7351,0,-1,-1
-163.78,3.65,-26.88,548,-3730,7362,0,-1,-1
-163.78,3.65,-26.87,546,-3722,7370,-1,0,0
-163.78,3.65,-26.87,535,-3713,7382,-1,0,0
-163.78,3.65,-26.87,520,-3709,7369,-1,-1,0
-163.79,3.65,-26.89,517,-3723,7359,-1,-1,-1
-163.79,3.65,-26.90,520,-3736,7351,-1,-1,-1
-163.78,3.66,-26.91,532,-3745,7342,-1,-1,-1
-163.78,3.66,-26.91,532,-3749,7339,0,-1,-1
-163.78,3.66,-26.91,529,-3754,7341,0,-1,-1
-163.78,3.66,-26.90,532,-3748,7353,0,0,0
-163.78,3.66,-26.90,532,-3741,7366,0,0,-1
-163.78,3.65,-26.88,527,-3727,7364,0,0,-1
-163.78,3.65,-26.88,528,-3721,7373,-1,0,0
-163.78,3.65,-26.88,529,-3722,7368,-1,-1,0
-163.78,3.66,-26.89,525,-3724,7359,-1,-1,0
-163.78,3.66,-26.89,527,-3732,7358,-1,-1,0
-163.78,3.66,-26.90,527,-3745,7358,-1,-1,0
-163.78,3.66,-26.91,526,-3745,7355,-1,-1,0
-163.78,3.66,-26.91,528,-3751,7356,0,0,-1
-163.78,3.66,-26.90,526,-3753,7355,0,0,-1
-163.78,3.66,-26.90,524,-3747,7350,0,0,-1
-163.77,3.67,-26.89,528,-3735,7344,0,-1,-1
-163.77,3.67,-26.89,536,-3734,7351,0,-1,-1
-163.77,3.68,-26.90,541,-3731,7352,-1,-1,0
-163.77,3.68,-26.90,533,-3735,7346,-1,-1,0
-163.78,3.68,-26.91,541,-3743,7355,-1,-1,0
-163.78,3.68,-26.91,537,-3738,7358,-1,0,0
-163.78,3.68,-26.91,530,-3749,7360,0,0,0
-163.78,3.68,-26.91,532,-3746,7357,0,0,-1
-163.78,3.68,-26.91,532,-3741,7360,0,0,-1
-163.78,3.68,-26.91,537,-3736,7360,0,-1,0
-163.78,3.68,-26.91,536,-3732,7353,0,-1,0
-163.78,3.68,-26.91,527,-3744,7356,-1,-1,0
-163.78,3.68,-26.91,532,-3739,7350,0,-1,-1
-163.78,3.68,-26.91,530,-3728,7347,-1,-1,-1
-163.78,3.69,-26.91,529,-3729,7347,-1,-1,-1
-163.78,3.69,-26.92,532,-3735,7349,-1,-1,0
-163.78,3.70,-26.92,533,-3732,7354,-1,-1,0
-163.78,3.70,-26.92,541,-3736,7353,-1,-1,0
-163.78,3.70,-26.93,540,-3742,7346,0,-1,0
-163.78,3.70,-26.92,536,-3739,7352,-1,-1,0
-163.78,3.70,-26.93,536,-3740,7357,0,0,-1
-163.78,3.70,-26.92,531,-3740,7350,0,0,-1
-163.78,3.70,-26.92,541,-3736,7353,0,0,0
-163.77,3.70,-26.91,546,-3729,7367,0,0,-1
-163.77,3.69,-26.90,540,-3724,7364,-1,0,-1
-163.77,3.69,-26.90,538,-3731,7356,0,0,0
-163.77,3.69,-26.90,536,-3740,7358,0,0,0
-163.77,3.69,-26.90,532,-3735,7352,0,0,0
-163.77,3.69,-26.90,532,-3740,7352,0,0,-1
-163.77,3.69,-26.90,537,-3743,7355,0,0,-1
-163.77,3.68,-26.89,534,-3735,7357,0,0,0
-163.77,3.68,-26.90,528,-3744,7353,0,0,0
-163.77,3.68,-26.89,523,-3741,7342,0,-1,0
-163.77,3.68,-26.89,528,-3744,7345,0,-1,0
-163.76,3.68,-26.88,535,-3730,7346,0,0,-1
-163.76,3.68,-26.88,541,-3725,7357,0,0,-1
-163.76,3.68,-26.87,539,-3725,7368,0,0,0
-163.76,3.67,-26.86,535,-3719,7358,0,0,0
-163.77,3.67,-26.86,520,-3710,7361,-1,0,0
-163.77,3.66,-26.87,519,-3721,7347,-1,-1,0
-163.77,3.66,-26.88,518,-3740,7358,-1,-1,-1
-163.77,3.67,-26.88,526,-3747,7353,0,-1,-1
-163.77,3.67,-26.89,523,-3752,7349,-1,-1,-1
-163.77,3.68,-26.88,548,-3753,7350,0,-1,-1
-163.76,3.69,-26.88,554,-3751,7340,0,0,-1
-163.76,3.68,-26.86,553,-3737,7349,0,0,0
-163.76,3.68,-26.85,550,-3727,7349,0,0,0
-163.75,3.67,-26.84,536,-3711,7356,0,0,0
-163.75,3.67,-26.83,530,-3707,7361,-1,0,0
-163.75,3.67,-26.84,525,-3714,7370,-1,-1,-1
-163.75,3.67,-26.84,529,-3724,7369,-1,-1,0
-163.76,3.67,-26.85,529,-3736,7359,-1,-1,-1
-163.76,3.68,-26.85,529,-3743,7358,0,-1,-1
-163.76,3.67,-26.85,526,-3744,7354,0,0,0
-163.75,3.67,-26.84,531,-3738,7362,0,0,-1
-163.75,3.67,-26.83,535,-3736,7369,0,0,-1
-163.74,3.67,-26.83,533,-3726,7363,0,0,-1
-163.74,3.67,-26.83,529,-3722,7355,0,-1,-1
-163.74,3.67,-26.82,539,-3716,7364,-1,0,-1
-163.74,3.67,-26.83,543,-3717,7377,-1,-1,0
-163.74,3.67,-26.83,538,-3721,7376,-1,-1,0
-163.75,3.67,-26.83,533,-3729,7373,-1,0,0
-163.75,3.67,-26.84,534,-3731,7364,-1,0,0
-163.75,3.67,-26.84,523,-3725,7351,-1,0,0
-163.75,3.66,-26.84,522,-3725,7339,0,-1,0
-163.75,3.66,-26.84,523,-3732,7357,0,-1,0
-163.75,3.66,-26.83,527,-3715,7370,0,-1,0
-163.75,3.66,-26.82,525,-3711,7371,-1,-1,0
-163.74,3.67,-26.82,528,-3718,7360,-1,-1,-1
-163.74,3.67,-26.82,531,-3714,7363,-1,-1,-1
-163.74,3.67,-26.83,541,-3722,7362,-1,-1,-1
-163.74,3.67,-26.83,538,-3728,7362,-1,0,0
-163.74,3.67,-26.83,531,-3725,7361,-1,0,0
-163.75,3.66,-26.83,517,-3729,7369,-1,0,0
-163.75,3.66,-26.83,519,-3739,7367,0,-1,0
-163.75,3.66,-26.83,524,-3735,7371,-1,0,0
-163.75,3.66,-26.83,532,-3731,7356,-1,0,0
-163.75,3.66,-26.83,531,-3728,7362,0,0,0
-163.75,3.65,-26.83,531,-3728,7347,-1,0,0
-163.75,3.65,-26.83,537,-3728,7359,-1,0,0
-163.74,3.66,-26.83,530,-3726,7363,-1,0,0
-163.75,3.65,-26.83,530,-3725,7354,-1,0,0
-163.75,3.65,-26.84,532,-3727,7361,-1,0,0
-163.74,3.65,-26.84,530,-3726,7358,-1,-1,-1
-163.74,3.65,-26.84,531,-3726,7352,-1,0,-1
-163.74,3.64,-26.85,531,-3728,7358,-1,0,0
-163.74,3.64,-26.85,533,-3720,7358,-1,0,0
-163.74,3.64,-26.85,525,-3729,7356,-1,0,0
-163.75,3.64,-26.85,521,-3735,7351,0,0,0
-163.75,3.64,-26.85,524,-3733,7363,0,0,0
-163.75,3.64,-26.85,524,-3729,7363,0,0,-1
-163.75,3.64,-26.84,529,-3727,7361,0,0,-1
-163.74,3.64,-26.84,539,-3724,7367,0,0,0
-163.74,3.64,-26.83,540,-3719,7369,0,0,0
-163.74,3.63,-26.83,531,-3707,7369,-1,0,0
-163.75,3.62,-26.84,516,-3711,7358,-1,0,0
-163.75,3.62,-26.85,510,-3715,7349,-1,0,0
-163.75,3.61,-26.86,514,-3729,7350,-1,-1,0
-163.75,3.61,-26.86,512,-3742,7363,-1,-1,0
-163.75,3.61,-26.87,512,-3748,7356,-1,-1,-1
-163.75,3.61,-26.88,526,-3748,7348,0,-1,-1
-163.74,3.62,-26.87,539,-3737,7352,0,0,0
-163.75,3.61,-26.87,536,-3731,7367,0,0,0
-163.75,3.61,-26.86,537,-3729,7369,0,0,0
-163.75,3.61,-26.85,532,-3720,7375,0,0,0
-163.75,3.60,-26.85,514,-3724,7371,-1,0,0
-163.75,3.60,-26.85,510,-3728,7382,-1,-1,-1
-163.75,3.60,-26.85,514,-3724,7374,-1,0,-1
-163.75,3.59,-26.86,512,-3727,7363,-1,0,0
-163.75,3.59,-26.87,514,-3727,7358,-1,-1,0
-163.76,3.59,-26.87,519,-3732,7341,-1,0,0
-163.76,3.59,-26.87,517,-3741,7356,0,0,0
-163.76,3.58,-26.87,513,-3737,7368,0,0,-1
-163.75,3.58,-26.87,503,-3730,7362,-1,-1,0
-163.75,3.58,-26.87,504,-3727,7349,-1,-1,-1
-163.75,3.59,-26.87,510,-3732,7350,0,-1,-1
-163.75,3.59,-26.87,521,-3729,7355,-1,-1,0
-163.75,3.60,-26.88,531,-3734,7354,-1,-1,0
-163.75,3.59,-26.88,528,-3737,7343,0,0,0
-163.75,3.59,-26.88,526,-3741,7343,0,0,0
-163.75,3.59,-26.88,523,-3739,7351,0,0,-1
-163.75,3.59,-26.88,517,-3735,7360,-1,-1,-1
-163.75,3.60,-26.88,516,-3741,7368,0,-1,-1
-163.75,3.60,-26.88,518,-3745,7360,0,-1,-1
-163.75,3.60,-26.87,523,-3732,7359,0,-1,0
-163.75,3.60,-26.87,520,-3734,7354,-1,-1,0
-163.75,3.60,-26.87,517,-3738,7354,0,-1,-1
-163.75,3.61,-26.87,518,-3738,7355,0,-1,-1
-163.75,3.61,-26.87,517,-3739,7365,0,-1,-1
-163.75,3.61,-26.87,520,-3742,7357,-1,-1,0
-163.75,3.62,-26.87,526,-3741,7354,0,-1,-1
-163.75,3.62,-26.87,525,-3740,7361,0,-1,0
-163.75,3.62,-26.87,524,-3730,7358,0,-1,-1
-163.74,3.62,-26.86,522,-3734,7355,0,0,-1
-163.75,3.61,-26.87,525,-3727,7355,-1,0,0
-163.74,3.62,-26.86,531,-3734,7355,-1,-1,0
-163.74,3.62,-26.86,529,-3733,7356,-1,0,0
-163.75,3.61,-26.87,520,-3740,7364,0,-1,0
-163.75,3.61,-26.87,524,-3734,7365,0,0,-1
-163.75,3.61,-26.87,516,-3732,7361,-1,-1,0
-163.74,3.62,-26.86,524,-3739,7358,0,-1,-1
-163.74,3.63,-26.86,531,-3741,7355,0,0,-1
-163.74,3.63,-26.86,535,-3734,7374,0,0,0
-163.74,3.63,-26.86,538,-3724,7376,-1,0,0
-163.74,3.62,-26.86,526,-3725,7366,-1,0,0
-163.74,3.62,-26.86,516,-3722,7358,-1,0,0
-163.75,3.61,-26.86,511,-3729,7352,-1,-1,0
-163.75,3.62,-26.86,513,-3735,7359,-1,-1,-1
-163.75,3.63,-26.86,519,-3741,7355,-1,-1,-1
-163.74,3.63,-26.87,526,-3745,7353,0,-1,-1
-163.74,3.63,-26.86,530,-3742,7358,0,-1,-1
-163.74,3.63,-26.86,540,-3733,7358,0,0,0
-163.74,3.63,-26.85,544,-3725,7361,0,0,0
-163.74,3.63,-26.85,537,-3719,7362,0,0,0
-163.74,3.63,-26.85,529,-3717,7366,-1,0,0
-163.74,3.63,-26.85,521,-3720,7371,-1,-1,0
-163.74,3.63,-26.85,515,-3730,7364,-1,-1,0
-163.74,3.63,-26.86,522,-3735,7361,-1,-1,0
-163.75,3.64,-26.87,523,-3739,7356,-1,-1,-1
-163.75,3.65,-26.87,527,-3734,7351,0,-1,0
-163.75,3.65,-26.87,528,-3732,7343,0,0,0
-163.75,3.65,-26.86,528,-3731,7342,0,-1,0
-163.74,3.65,-26.85,530,-3728,7354,0,-1,0
-163.74,3.65,-26.85,524,-3728,7378,0,-1,-1
-163.74,3.65,-26.85,518,-3717,7366,0,-1,-1
-163.74,3.65,-26.85,523,-3714,7365,-1,-1,0
-163.74,3.65,-26.85,531,-3719,7354,-1,-1,0
-163.73,3.66,-26.85,536,-3721,7353,-1,-1,0
-163.73,3.66,-26.86,541,-3728,7357,-1,0,0
-163.73,3.66,-26.86,538,-3729,7358,-1,0,0
-163.74,3.65,-26.86,525,-3741,7360,0,0,0
-163.74,3.65,-26.86,525,-3741,7349,0,0,0
-163.74,3.65,-26.86,515,-3729,7347,0,-1,-1
-163.74,3.65,-26.85,515,-3720,7355,0,-1,-1
-163.73,3.66,-26.85,526,-3723,7354,0,-1,-1
-163.73,3.66,-26.85,533,-3729,7347,0,-1,-1
-163.73,3.66,-26.85,532,-3726,7355,0,-1,0
-163.73,3.66,-26.85,525,-3726,7354,-1,-1,0
-163.73,3.66,-26.85,523,-3730,7358,-1,-1,0
-163.73,3.66,-26.86,522,-3730,7351,-1,-1,0
-163.74,3.66,-26.86,516,-3731,7339,0,-1,0
-163.74,3.66,-26.86,518,-3730,7336,0,-1,-1
-163.74,3.66,-26.86,526,-3729,7345,0,-1,-1
-163.74,3.66,-26.86,531,-3730,7348,0,0,0
-163.73,3.67,-26.86,531,-3732,7354,0,-1,0
-163.73,3.66,-26.85,528,-3723,7356,0,0,0
-163.73,3.66,-26.85,533,-3721,7361,0,-1,0
-163.73,3.66,-26.85,526,-3726,7356,-1,-1,0
-163.73,3.66,-26.86,524,-3726,7349,-1,-1,0
-163.73,3.66,-26.86,520,-3728,7348,-1,-1,-1
-163.73,3.67,-26.86,529,-3728,7353,0,-1,0
-163.73,3.67,-26.86,542,-3737,7348,0,-1,0
-163.73,3.67,-26.86,555,-3733,7360,0,0,0
-163.73,3.67,-26.86,549,-3732,7364,-1,0,0
-163.73,3.67,-26.85,535,-3718,7363,-1,0,0
-163.74,3.66,-26.86,511,-3712,7353,-1,-1,0
-163.74,3.66,-26.87,513,-3719,7350,-1,-1,0
-163.74,3.67,-26.87,525,-3729,7347,-1,-1,-1
-163.74,3.67,-26.89,535,-3735,7349,-1,-1,-1
-163.74,3.68,-26.88,540,-3740,7351,-1,-1,-1
-163.74,3.68,-26.89,541,-3751,7352,0,0,-1
-163.73,3.69,-26.88,551,-3744,7350,0,0,0
-163.73,3.68,-26.88,542,-3733,7355,0,0,0
-163.73,3.68,-26.87,540,-3728,7362,0,0,0
-163.73,3.68,-26.86,528,-3723,7370,-1,0,0
-163.74,3.68,-26.87,533,-3724,7371,-1,-1,0
-163.74,3.68,-26.88,527,-3723,7355,-1,-1,0
-163.74,3.68,-26.89,527,-3730,7353,-1,-1,0
-163.75,3.68,-26.90,527,-3736,7340,-1,-1,0
-163.75,3.68,-26.91,525,-3743,7335,-1,0,0
-163.75,3.67,-26.91,527,-3750,7340,0,0,0
-163.75,3.67,-26.91,531,-3745,7347,0,0,-1
-163.75,3.67,-26.90,529,-3735,7358,0,0,0
-163.75,3.67,-26.89,531,-3732,7355,0,0,0
-163.75,3.67,-26.89,534,-3727,7343,0,0,-1
-163.75,3.67,-26.89,535,-3721,7343,-1,-1,0
-163.75,3.68,-26.90,539,-3725,7360,-1,-1,0
-163.75,3.67,-26.91,540,-3724,7358,-1,0,0
-163.76,3.67,-26.91,534,-3728,7359,-1,0,0
-163.76,3.67,-26.92,532,-3740,7354,-1,0,0
-163.76,3.66,-26.92,526,-3743,7349,-1,0,0
-163.76,3.66,-26.92,529,-3744,7347,-1,0,0
-163.77,3.66,-26.92,532,-3735,7352,-1,0,0
-163.77,3.66,-26.92,529,-3741,7346,0,0,0
-163.77,3.66,-26.92,524,-3742,7351,0,0,0
-163.77,3.65,-26.93,523,-3740,7370,0,-1,0
-163.77,3.65,-26.93,522,-3736,7361,-1,-1,-1
-163.77,3.66,-26.92,518,-3735,7355,-1,-1,-1
-163.77,3.66,-26.93,526,-3740,7351,-1,-1,-1
-163.77,3.66,-26.93,536,-3744,7360,-1,-1,-1
-163.77,3.67,-26.93,543,-3741,7368,-1,0,-1
-163.77,3.66,-26.94,535,-3747,7354,-1,0,0
-163.76,3.65,-26.93,525,-3739,7346,0,0,-1
-163.76,3.65,-26.93,517,-3733,7346,0,0,0
-163.76,3.65,-26.93,516,-3741,7357,0,0,-1
-163.76,3.65,-26.93,517,-3743,7354,0,0,-1
-163.76,3.65,-26.93,519,-3733,7348,0,0,-1
-163.75,3.65,-26.92,524,-3725,7352,0,0,-1
-163.75,3.65,-26.92,529,-3734,7346,0,0,0
-163.75,3.65,-26.92,529,-3736,7349,0,0,-1
-163.75,3.65,-26.91,530,-3730,7351,0,0,0
-163.75,3.64,-26.91,530,-3733,7355,0,0,-1
-163.75,3.64,-26.91,527,-3728,7361,0,0,0
-163.75,3.65,-26.90,531,-3727,7360,0,0,-1
-163.75,3.65,-26.90,531,-3730,7364,-1,-1,0
-163.75,3.65,-26.90,532,-3741,7352,0,-1,0
-163.75,3.65,-26.90,525,-3740,7349,0,-1,0
-163.75,3.65,-26.90,525,-3746,7358,0,-1,-1
-163.75,3.65,-26.88,525,-3733,7363,0,0,-1
-163.74,3.66,-26.87,535,-3728,7375,0,0,-1
-163.75,3.65,-26.87,539,-3725,7369,0,0,0
-163.75,3.65,-26.87,528,-3716,7372,-1,0,0
-163.75,3.64,-26.87,521,-3716,7363,-1,0,0
-163.75,3.63,-26.87,506,-3721,7360,-1,-1,0
-163.76,3.63,-26.88,503,-3727,7350,-1,-1,0
-163.75,3.64,-26.88,507,-3737,7346,-1,-1,-1
-163.75,3.64,-26.89,525,-3747,7335,-1,-1,-1
-163.75,3.65,-26.89,538,-3745,7337,0,0,-1
-163.75,3.65,-26.88,536,-3740,7341,0,0,-1
-163.75,3.65,-26.87,547,-3741,7353,0,0,0
-163.74,3.64,-26.85,540,-3723,7370,0,0,0
-163.74,3.64,-26.85,529,-3716,7372,0,0,0
-163.74,3.63,-26.85,524,-3719,7376,-1,0,0
-163.74,3.63,-26.85,521,-3712,7366,-1,-1,0
-163.74,3.63,-26.85,525,-3723,7352,-1,-1,0
-163.75,3.64,-26.86,529,-3734,7347,-1,-1,0
-163.75,3.64,-26.87,533,-3742,7348,-1,0,0
-163.75,3.63,-26.87,529,-3747,7346,0,0,0
-163.75,3.63,-26.86,535,-3743,7343,0,0,0
-163.74,3.63,-26.86,531,-3734,7353,0,0,0
-163.74,3.63,-26.86,526,-3730,7356,0,0,-1
-163.74,3.63,-26.85,522,-3723,7362,0,0,-1
-163.74,3.63,-26.85,520,-3719,7372,-1,-1,-1
-163.74,3.63,-26.85,517,-3716,7365,-1,-1,0
-163.74,3.63,-26.86,527,-3725,7361,-1,0,0
-163.74,3.62,-26.86,527,-3723,7353,-1,-1,0
-163.74,3.62,-26.86,532,-3733,7362,0,0,-1
-163.75,3.61,-26.86,526,-3726,7379,0,0,0
-163.75,3.61,-26.86,520,-3727,7367,-1,0,-1
-163.75,3.61,-26.86,513,-3725,7356,0,0,-1
-163.74,3.61,-26.86,517,-3729,7364,0,0,-1
-163.74,3.61,-26.85,530,-3726,7369,0,-1,0
-163.74,3.61,-26.85,530,-3721,7366,-1,0,0
-163.74,3.61,-26.85,526,-3730,7369,-1,0,0
-163.74,3.61,-26.86,531,-3730,7364,-1,0,0
-163.75,3.61,-26.85,528,-3726,7364,0,0,0
-163.75,3.61,-26.85,523,-3721,7357,-1,0,0
-163.75,3.61,-26.85,522,-3724,7362,-1,-1,-1
-163.75,3.61,-26.85,526,-3728,7366,0,0,0
-163.75,3.61,-26.85,527,-3724,7367,0,0,0
-163.75,3.60,-26.85,527,-3721,7361,0,0,0
-163.75,3.60,-26.85,516,-3719,7363,-1,0,0
-163.75,3.59,-26.85,515,-3727,7358,-1,0,0
-163.75,3.59,-26.85,508,-3726,7351,-1,0,-1
-163.75,3.59,-26.85,510,-3734,7350,-1,-1,-1
-163.75,3.59,-26.86,519,-3728,7349,-1,0,-1
-163.75,3.59,-26.86,527,-3727,7352,-1,-1,0
-163.75,3.59,-26.86,537,-3734,7342,0,0,0
-163.75,3.59,-26.86,541,-3733,7359,0,0,0
-163.75,3.59,-26.86,527,-3727,7354,-1,0,0
-163.75,3.59,-26.86,527,-3722,7363,-1,0,0
-163.74,3.59,-26.86,523,-3720,7361,-1,-1,-1
-163.74,3.60,-26.86,528,-3727,7357,-1,0,-1
-163.75,3.59,-26.87,517,-3723,7350,-1,0,0
-163.75,3.59,-26.86,516,-3736,7360,0,0,0
-163.75,3.59,-26.86,516,-3733,7361,0,0,-1
-163.74,3.59,-26.85,520,-3725,7375,0,0,-1
-163.74,3.59,-26.85,525,-3724,7385,0,0,0
-163.75,3.58,-26.85,518,-3718,7369,-1,0,0
-163.75,3.57,-26.86,514,-3717,7367,-1,0,0
-163.75,3.57,-26.86,509,-3712,7361,-1,0,0
-163.76,3.57,-26.87,505,-3725,7355,-1,0,0
-163.76,3.57,-26.88,509,-3736,7359,-1,-1,-1
-163.76,3.57,-26.88,511,-3741,7353,-1,-1,-1
-163.76,3.57,-26.89,518,-3744,7348,0,-1,-1
-163.76,3.57,-26.89,524,-3747,7343,0,0,-1
-163.76,3.57,-26.88,528,-3734,7349,0,0,0
-163.76,3.57,-26.87,522,-3731,7350,0,0,0
-163.76,3.57,-26.87,523,-3727,7350,0,0,0
-163.76,3.56,-26.86,509,-3729,7355,0,0,0
-163.76,3.56,-26.87,507,-3730,7369,-1,-1,0
-163.76,3.56,-26.87,504,-3735,7374,-1,-1,-1
-163.76,3.57,-26.88,511,-3738,7362,-1,-1,-1
-163.76,3.57,-26.88,516,-3740,7357,-1,-1,0
-163.76,3.57,-26.88,521,-3740,7353,0,-1,-1
-163.76,3.58,-26.88,526,-3742,7358,0,0,0
-163.75,3.58,-26.88,519,-3741,7366,0,0,-1
-163.75,3.58,-26.87,508,-3741,7364,-1,-1,-1
-163.75,3.58,-26.87,510,-3729,7368,0,-1,-1
-163.75,3.59,-26.87,515,-3728,7367,-1,-1,0
-163.75,3.59,-26.87,527,-3733,7355,-1,-1,0
-163.75,3.60,-26.88,532,-3738,7362,-1,-1,0
-163.75,3.60,-26.88,531,-3739,7358,-1,0,0
-163.75,3.60,-26.88,528,-3734,7359,0,0,0
-163.75,3.60,-26.88,519,-3739,7361,0,0,0
-163.75,3.59,-26.87,516,-3728,7352,0,-1,-1
-163.75,3.59,-26.87,515,-3727,7358,0,-1,-1
-163.75,3.59,-26.87,520,-3720,7363,0,-1,-1
-163.75,3.60,-26.87,522,-3718,7359,-1,-1,-1
-163.75,3.61,-26.87,531,-3715,7359,-1,-1,0
-163.75,3.61,-26.87,523,-3727,7361,-1,-1,0
-163.75,3.61,-26.87,523,-3727,7364,-1,-1,0
-163.75,3.61,-26.87,517,-3728,7365,-1,-1,0
-163.75,3.61,-26.87,524,-3733,7365,-1,-1,-1
-163.75,3.61,-26.87,521,-3732,7356,0,-1,-1
-163.75,3.61,-26.87,526,-3726,7362,0,-1,0
-163.75,3.61,-26.87,521,-3725,7357,-1,-1,0
-163.75,3.61,-26.86,524,-3726,7351,-1,-1,0
-163.75,3.61,-26.86,522,-3737,7354,0,0,-1
-163.75,3.61,-26.86,523,-3729,7365,0,-1,-1
-163.75,3.62,-26.86,517,-3728,7359,-1,-1,-1
-163.75,3.62,-26.86,518,-3729,7352,-1,-1,-1
-163.75,3.62,-26.86,525,-3735,7336,0,-1,-1
-163.75,3.63,-26.86,530,-3738,7344,-1,0,0
-163.75,3.63,-26.86,526,-3733,7347,0,-1,0
-163.75,3.63,-26.86,520,-3736,7352,0,-1,0
-163.75,3.63,-26.86,524,-3737,7358,0,-1,0
-163.75,3.63,-26.86,524,-3728,7355,0,-1,-1
-163.75,3.63,-26.86,535,-3726,7353,0,0,0
-163.75,3.63,-26.86,538,-3723,7354,-1,0,0
-163.75,3.63,-26.86,536,-3720,7352,-1,0,0
-163.75,3.63,-26.86,526,-3726,7348,-1,-1,0
-163.75,3.63,-26.86,519,-3730,7347,-1,-1,0
-163.75,3.63,-26.87,520,-3738,7348,-1,0,0
-163.75,3.63,-26.87,519,-3741,7344,-1,-1,-1
-163.75,3.64,-26.88,531,-3745,7341,0,-1,-1
-163.75,3.64,-26.88,536,-3742,7346,0,-1,-1
-163.75,3.63,-26.87,532,-3734,7351,0,0,0
-163.75,3.63,-26.86,533,-3724,7371,0,0,0
-163.75,3.63,-26.86,527,-3713,7376,-1,0,0
-163.75,3.63,-26.86,528,-3711,7361,-1,-1,0
-163.75,3.63,-26.86,523,-3711,7368,-1,-1,0
-163.75,3.63,-26.86,520,-3719,7368,-1,-1,0
-163.75,3.63,-26.86,515,-3718,7364,-1,-1,0
-163.75,3.64,-26.86,520,-3725,7349,-1,-1,-1
-163.75,3.64,-26.86,524,-3731,7357,0,0,0
-163.75,3.64,-26.86,522,-3732,7358,0,0,0
-163.75,3.64,-26.85,531,-3713,7358,0,-1,-1
-163.75,3.64,-26.85,521,-3724,7366,0,0,-1
-163.75,3.64,-26.85,521,-3725,7365,0,-1,-1
-163.75,3.64,-26.85,521,-3716,7362,-1,-1,-1
-163.74,3.64,-26.85,521,-3716,7353,-1,-1,-1
-163.74,3.65,-26.85,531,-3725,7353,-1,-1,0
-163.74,3.65,-26.86,537,-3722,7351,-1,-1,0
-163.75,3.65,-26.87,532,-3731,7353,-1,0,0
-163.75,3.65,-26.87,527,-3742,7356,0,0,0
-163.75,3.65,-26.87,524,-3739,7356,0,0,0
-163.75,3.64,-26.86,519,-3739,7362,0,0,-1
-163.74,3.65,-26.86,524,-3740,7361,0,-1,0
-163.75,3.64,-26.86,524,-3739,7361,0,0,-1
-163.75,3.64,-26.85,526,-3734,7373,0,0,0
-163.75,3.64,-26.85,532,-3724,7368,-1,0,0
-163.75,3.64,-26.86,533,-3720,7356,-1,0,0
-163.75,3.64,-26.86,532,-3724,7350,-1,0,0
-163.75,3.63,-26.87,528,-3728,7357,-1,0,0
-163.75,3.63,-26.87,524,-3730,7351,-1,0,0
-163.75,3.63,-26.87,528,-3730,7358,-1,0,-1
-163.75,3.63,-26.87,531,-3733,7356,0,0,0
-163.75,3.63,-26.87,532,-3736,7353,0,0,0
-163.75,3.63,-26.87,534,-3738,7352,0,0,0
-163.75,3.63,-26.87,535,-3734,7359,0,0,0
-163.75,3.63,-26.87,523,-3736,7373,-1,0,0
-163.75,3.63,-26.87,524,-3726,7365,-1,-1,0
-163.75,3.63,-26.87,525,-3737,7361,-1,0,0
-163.75,3.63,-26.88,528,-3735,7354,-1,0,0
-163.75,3.63,-26.88,523,-3739,7353,0,-1,0
-163.76,3.63,-26.88,526,-3740,7343,0,-1,-1
-163.75,3.64,-26.88,535,-3733,7366,0,-1,0
-163.75,3.63,-26.87,540,-3723,7375,0,0,0
-163.75,3.63,-26.87,528,-3721,7361,-1,0,0
-163.76,3.63,-26.88,517,-3727,7351,-1,0,0
-163.76,3.62,-26.89,515,-3729,7352,-1,-1,0
-163.76,3.62,-26.89,515,-3728,7367,-1,-1,0
-163.76,3.63,-26.91,514,-3739,7361,-1,-1,-1
-163.76,3.63,-26.91,524,-3749,7353,-1,-1,-1
-163.76,3.64,-26.91,532,-3751,7346,0,-1,-1
-163.75,3.64,-26.91,540,-3745,7353,0,-1,0
-163.75,3.64,-26.90,546,-3741,7345,0,0,0
-163.75,3.64,-26.90,546,-3732,7348,0,0,0
-163.75,3.64,-26.89,545,-3717,7360,0,0,0
-163.75,3.64,-26.89,534,-3706,7370,-1,0,0
-163.76,3.64,-26.89,520,-3713,7362,-1,0,0
-163.76,3.64,-26.90,516,-3722,7360,-1,-1,0
-163.76,3.64,-26.91,522,-3738,7355,-1,-1,0
-163.76,3.64,-26.92,527,-3750,7346,-1,-1,0
-163.76,3.65,-26.93,532,-3747,7343,0,-1,-1
-163.76,3.64,-26.92,528,-3751,7343,0,0,0
-163.76,3.64,-26.92,521,-3743,7347,0,0,-1
-163.76,3.64,-26.91,516,-3735,7352,0,0,0
-163.76,3.64,-26.91,523,-3724,7358,0,-1,-1
-163.76,3.64,-26.90,527,-3721,7355,0,-1,-1
-163.76,3.64,-26.90,531,-3727,7354,0,-1,0
-163.76,3.65,-26.90,534,-3739,7350,-1,-1,0
-163.76,3.65,-26.90,530,-3744,7347,0,-1,0
-163.76,3.65,-26.90,524,-3736,7343,0,-1,0
-163.76,3.65,-26.90,534,-3734,7342,0,0,0
-163.76,3.65,-26.90,530,-3736,7342,0,-1,-1
-163.76,3.65,-26.89,528,-3737,7344,0,-1,-1
-163.75,3.65,-26.89,528,-3744,7354,0,0,-1
-163.75,3.65,-26.88,521,-3738,7356,0,-1,-1
-163.75,3.65,-26.88,517,-3734,7360,-1,-1,0
-163.75,3.65,-26.88,524,-3734,7354,-1,-1,-1
-163.75,3.65,-26.87,529,-3730,7353,0,-1,-1
-163.75,3.66,-26.88,545,-3728,7347,-1,-1,0
-163.75,3.66,-26.88,541,-3735,7352,-1,-1,0
-163.75,3.66,-26.88,532,-3740,7354,0,0,-1
-163.75,3.65,-26.87,524,-3734,7357,0,0,0
-163.75,3.65,-26.87,524,-3730,7350,0,0,-1
-163.74,3.66,-26.87,520,-3726,7350,0,-1,-1
-163.74,3.65,-26.87,522,-3728,7360,0,0,-1
-163.74,3.65,-26.87,528,-3728,7366,0,0,0
-163.75,3.65,-26.87,531,-3727,7354,0,0,0
-163.75,3.65,-26.87,526,-3728,7339,0,0,0
-163.74,3.65,-26.87,530,-3728,7348,0,0,0
-163.74,3.65,-26.86,528,-3719,7349,0,0,0
-163.74,3.65,-26.86,529,-3712,7365,0,0,-1
-163.74,3.65,-26.86,528,-3723,7365,0,0,0
-163.74,3.65,-26.85,528,-3721,7367,0,0,0
-163.74,3.65,-26.85,528,-3724,7363,-1,0,0
-163.74,3.65,-26.86,525,-3719,7350,-1,0,0
-163.74,3.65,-26.85,520,-3724,7353,0,-1,0
-163.74,3.65,-26.85,518,-3729,7359,0,-1,-1
-163.74,3.64,-26.85,523,-3732,7368,0,-1,-1
-163.74,3.65,-26.84,536,-3732,7366,0,0,-1
-163.74,3.64,-26.83,544,-3718,7363,0,0,0
-163.74,3.64,-26.82,537,-3701,7365,-1,0,0
-163.74,3.64,-26.83,525,-3696,7346,-1,0,0
-163.75,3.63,-26.83,512,-3708,7352,-1,-1,0
-163.75,3.63,-26.84,514,-3725,7357,-1,-1,-1
-163.75,3.64,-26.85,508,-3725,7346,-1,-1,-1
-163.75,3.64,-26.85,519,-3741,7337,-1,-1,-1
-163.74,3.65,-26.85,535,-3750,7340,0,-1,-1
-163.74,3.65,-26.85,543,-3746,7349,0,0,-1
-163.74,3.65,-26.84,532,-3736,7359,0,0,0
-163.73,3.64,-26.83,536,-3724,7366,0,0,0
-163.73,3.64,-26.82,534,-3711,7367,0,0,0
-163.73,3.63,-26.82,522,-3714,7365,-1,0,0
-163.74,3.63,-26.83,516,-3718,7365,-1,-1,0
-163.74,3.63,-26.83,508,-3718,7361,-1,-1,0
-163.74,3.63,-26.83,518,-3724,7360,-1,-1,0
-163.74,3.63,-26.84,530,-3729,7343,-1,0,0
-163.74,3.63,-26.84,536,-3733,7344,0,0,0
-163.74,3.62,-26.84,532,-3731,7350,0,0,0
-163.74,3.62,-26.83,527,-3721,7368,0,0,0
-163.74,3.61,-26.82,525,-3719,7368,0,0,-1
-163.73,3.62,-26.81,526,-3721,7371,0,-1,0
-163.73,3.62,-26.81,533,-3712,7372,-1,-1,-1
-163.73,3.62,-26.82,527,-3713,7367,-1,-1,0
-163.73,3.62,-26.83,535,-3722,7361,-1,0,0
-163.74,3.62,-26.83,540,-3721,7357,-1,0,0
-163.74,3.62,-26.84,528,-3729,7358,-1,0,0
-163.74,3.61,-26.84,519,-3735,7343,0,0,0
-163.74,3.61,-26.84,515,-3744,7357,0,0,0
-163.74,3.61,-26.84,510,-3737,7357,0,-1,-1
-163.74,3.61,-26.83,513,-3734,7363,0,-1,-1
-163.74,3.61,-26.83,525,-3737,7348,0,0,-1
-163.74,3.61,-26.83,529,-3729,7362,-1,0,-1
-163.74,3.61,-26.83,527,-3714,7361,-1,0,0
-163.74,3.61,-26.84,529,-3720,7362,-1,0,0
-163.74,3.61,-26.84,524,-3722,7355,-1,0,0
-163.75,3.60,-26.84,515,-3724,7353,-1,0,0
-163.75,3.60,-26.84,514,-3727,7362,-1,-1,0
-163.75,3.60,-26.85,518,-3731,7364,-1,0,0
-163.75,3.60,-26.85,521,-3733,7357,-1,0,0
-163.75,3.60,-26.85,524,-3736,7356,0,0,0
-163.75,3.59,-26.85,523,-3730,7357,0,0,0
-163.75,3.59,-26.85,524,-3731,7361,0,0,0
-163.75,3.59,-26.85,527,-3730,7361,-1,0,0
-163.75,3.59,-26.85,525,-3719,7361,0,0,0
-163.75,3.58,-26.85,522,-3717,7363,-1,0,0
-163.75,3.58,-26.85,522,-3718,7360,-1,0,0
-163.75,3.58,-26.85,514,-3712,7354,-1,0,0
-163.75,3.58,-26.86,520,-3722,7350,-1,0,0
-163.75,3.58,-26.86,519,-3723,7342,-1,0,0
-163.75,3.58,-26.86,517,-3729,7355,0,0,0
-163.75,3.58,-26.86,512,-3722,7359,0,0,0
-163.75,3.58,-26.86,510,-3720,7353,-1,-1,0
-163.75,3.58,-26.86,510,-3721,7345,0,-1,-1
-163.75,3.58,-26.86,517,-3731,7342,0,-1,-1
-163.75,3.58,-26.85,526,-3733,7356,0,-1,-1
-163.75,3.58,-26.85,532,-3729,7370,0,0,0
-163.75,3.58,-26.84,533,-3727,7376,-1,0,0
-163.75,3.58,-26.84,532,-3717,7374,-1,0,0
-163.75,3.57,-26.84,523,-3715,7366,-1,0,0
-163.76,3.56,-26.85,507,-3712,7363,-1,-1,0
-163.76,3.57,-26.86,499,-3721,7359,-1,-1,0
-163.76,3.57,-26.87,506,-3735,7362,-1,-1,-1
-163.76,3.58,-26.88,519,-3744,7347,-1,-1,-1
-163.75,3.58,-26.88,519,-3745,7342,0,-1,-1
-163.75,3.58,-26.88,529,-3740,7339,0,-1,-1
-163.75,3.58,-26.87,530,-3739,7340,0,0,0
-163.75,3.59,-26.86,531,-3731,7346,0,0,0
-163.75,3.58,-26.85,528,-3721,7366,0,0,0
-163.74,3.59,-26.85,521,-3713,7369,0,-1,-1
-163.74,3.59,-26.84,518,-3715,7366,-1,-1,0
-163.75,3.58,-26.85,520,-3717,7360,-1,-1,0
-163.75,3.59,-26.85,525,-3720,7353,-1,-1,0
-163.75,3.60,-26.86,528,-3724,7343,-1,-1,0
-163.76,3.60,-26.87,523,-3741,7352,0,-1,0
-163.76,3.60,-26.86,517,-3741,7353,0,0,-1
-163.75,3.60,-26.86,513,-3732,7355,0,-1,-1
-163.75,3.60,-26.86,520,-3728,7347,0,-1,-1
-163.75,3.61,-26.85,522,-3722,7356,0,-1,-1
-163.75,3.61,-26.85,530,-3723,7364,0,-1,-1
-163.75,3.61,-26.85,531,-3720,7360,-1,-1,0
-163.75,3.61,-26.85,532,-3723,7361,-1,-1,0
-163.75,3.61,-26.86,530,-3730,7357,-1,0,0
-163.75,3.61,-26.86,523,-3732,7361,0,-1,0
-163.75,3.61,-26.86,528,-3732,7364,-1,-1,0
-163.75,3.62,-26.86,526,-3733,7359,-1,-1,0
-163.75,3.62,-26.86,523,-3727,7351,0,-1,-1
-163.75,3.62,-26.86,522,-3729,7341,0,-1,0
-163.75,3.62,-26.86,521,-3729,7351,0,0,0
-163.75,3.62,-26.86,521,-3731,7349,-1,-1,0
-163.75,3.62,-26.86,519,-3728,7353,0,-1,0
-163.75,3.62,-26.86,524,-3730,7345,-1,-1,0
-163.75,3.62,-26.86,528,-3726,7345,0,-1,-1
-163.75,3.62,-26.86,528,-3730,7350,0,-1,0
-163.75,3.63,-26.86,526,-3734,7358,0,-1,0
-163.75,3.63,-26.86,527,-3727,7362,0,-1,0
-163.76,3.62,-26.86,529,-3727,7363,0,0,0
-163.76,3.62,-26.86,527,-3727,7354,-1,0,0
-163.76,3.62,-26.86,526,-3729,7352,-1,-1,0
-163.76,3.62,-26.86,528,-3725,7355,-1,-1,0
-163.76,3.62,-26.86,530,-3731,7363,0,-1,-1
-163.76,3.62,-26.86,528,-3724,7360,-1,-1,-1
-163.76,3.62,-26.86,533,-3722,7357,-1,0,0
-163.76,3.62,-26.86,528,-3724,7354,-1,-1,0
-163.75,3.63,-26.87,529,-3727,7346,-1,-1,0
-163.76,3.63,-26.87,521,-3738,7345,0,-1,0
-163.76,3.64,-26.87,527,-3742,7355,0,-1,0
-163.76,3.64,-26.87,522,-3735,7354,0,-1,-1
-163.76,3.64,-26.86,535,-3728,7355,0,0,-1
-163.75,3.64,-26.86,539,-3722,7355,0,0,0
-163.75,3.64,-26.86,540,-3713,7361,-1,0,0
-163.75,3.63,-26.86,527,-3704,7361,-1,0,0
-163.76,3.63,-26.86,513,-3713,7363,-1,0,0
-163.76,3.62,-26.87,511,-3721,7359,-1,-1,0
-163.76,3.63,-26.89,505,-3737,7349,-1,-1,-1
-163.76,3.63,-26.89,512,-3738,7342,-1,-1,-1
-163.76,3.63,-26.88,528,-3740,7343,-1,-1,-1
-163.76,3.63,-26.88,535,-3745,7343,0,0,0
-163.76,3.63,-26.88,545,-3739,7353,0,0,0
-163.76,3.63,-26.88,542,-3731,7364,0,0,0
-163.76,3.63,-26.88,538,-3727,7368,-1,0,0
-163.77,3.62,-26.88,518,-3724,7354,-1,0,0
-163.77,3.61,-26.88,508,-3721,7368,-1,-1,-1
-163.77,3.61,-26.89,507,-3729,7369,-1,-1,0
-163.77,3.61,-26.89,515,-3742,7366,-1,-1,0
-163.77,3.62,-26.90,526,-3746,7353,-1,0,0
-163.77,3.62,-26.90,526,-3746,7341,0,0,0
-163.77,3.61,-26.89,520,-3739,7352,0,0,-1
-163.77,3.61,-26.89,518,-3735,7361,0,0,-1
-163.77,3.61,-26.89,518,-3729,7370,0,0,-1
-163.77,3.61,-26.89,516,-3724,7361,-1,0,0
-163.77,3.61,-26.89,520,-3724,7361,-1,-1,0
-163.77,3.61,-26.89,518,-3739,7357,-1,-1,0
-163.77,3.61,-26.90,527,-3734,7348,-1,-1,0
-163.77,3.61,-26.91,523,-3730,7347,-1,-1,0
-163.78,3.62,-26.92,519,-3738,7346,-1,-1,0
-163.78,3.62,-26.92,518,-3742,7334,0,0,0
-163.78,3.62,-26.92,519,-3742,7349,0,0,0
-163.78,3.62,-26.92,525,-3741,7355,0,-1,0
-163.78,3.62,-26.92,524,-3737,7346,0,0,-1
-163.77,3.61,-26.91,519,-3729,7359,0,-1,0
-163.77,3.61,-26.91,517,-3725,7354,0,0,-1
-163.77,3.62,-26.91,523,-3726,7357,-1,-1,0
-163.77,3.62,-26.91,518,-3729,7360,-1,-1,0
-163.78,3.62,-26.92,527,-3738,7354,-1,-1,0
-163.78,3.62,-26.92,527,-3737,7352,-1,0,0
-163.78,3.62,-26.92,530,-3743,7353,-1,-1,0
-163.78,3.62,-26.93,520,-3753,7351,-1,-1,0
-163.78,3.62,-26.93,523,-3741,7344,0,0,0
-163.78,3.62,-26.92,518,-3740,7343,0,-1,0
-163.78,3.62,-26.92,522,-3744,7356,0,-1,-1
-163.78,3.62,-26.91,524,-3736,7358,0,0,0
-163.78,3.62,-26.91,526,-3733,7357,-1,-1,0
-163.78,3.62,-26.91,517,-3732,7352,0,-1,0
-163.79,3.62,-26.91,519,-3742,7356,0,-1,0
-163.79,3.63,-26.91,522,-3743,7360,0,-1,0
-163.79,3.62,-26.91,529,-3746,7361,0,0,-1
-163.78,3.63,-26.91,538,-3741,7360,-1,0,0
-163.78,3.62,-26.91,536,-3728,7355,-1,0,0
-163.79,3.61,-26.92,527,-3724,7353,-1,0,0
-163.79,3.60,-26.92,517,-3718,7358,-1,-1,0
-163.80,3.60,-26.93,513,-3732,7360,-1,-1,0
-163.80,3.61,-26.94,513,-3748,7353,-1,-1,0
-163.80,3.61,-26.94,521,-3754,7355,0,-1,-1
-163.80,3.61,-26.94,526,-3749,7337,0,0,-1
-163.79,3.61,-26.93,531,-3748,7331,0,0,-1
-163.78,3.61,-26.92,538,-3743,7350,0,0,-1
-163.78,3.60,-26.90,531,-3732,7370,0,0,0
-163.78,3.60,-26.88,524,-3721,7379,0,0,0
-163.78,3.59,-26.87,520,-3708,7377,0,0,0
-163.78,3.59,-26.87,514,-3715,7373,-1,0,-1
-163.78,3.59,-26.87,512,-3716,7361,-1,-1,0
-163.78,3.59,-26.88,513,-3726,7345,-1,-1,0
-163.78,3.60,-26.89,520,-3738,7346,-1,-1,0
-163.78,3.60,-26.89,529,-3742,7347,0,-1,0
-163.78,3.60,-26.88,530,-3749,7340,0,0,0
-163.78,3.60,-26.87,529,-3737,7333,0,0,-1
-163.77,3.60,-26.87,535,-3736,7337,0,0,-1
-163.77,3.60,-26.86,524,-3728,7346,0,0,-1
-163.77,3.60,-26.85,527,-3724,7355,0,-1,-1
-163.77,3.60,-26.84,531,-3726,7361,0,0,-1
-163.77,3.60,-26.84,530,-3724,7367,-1,0,0
-163.77,3.60,-26.84,523,-3720,7366,-1,0,0
-163.77,3.60,-26.84,519,-3725,7364,-1,0,0
-163.78,3.59,-26.85,525,-3726,7360,-1,0,0
-163.78,3.59,-26.85,512,-3734,7358,-1,0,0
-163.78,3.58,-26.85,513,-3738,7363,0,-1,0
-163.78,3.58,-26.85,516,-3737,7370,0,0,-1
-163.77,3.59,-26.84,518,-3729,7359,0,-1,-1
-163.77,3.59,-26.84,511,-3731,7353,0,-1,-1
-163.77,3.59,-26.83,517,-3722,7365,0,-1,-1
-163.76,3.60,-26.82,519,-3719,7357,0,0,-1
-163.76,3.60,-26.82,522,-3722,7358,-1,-1,0
-163.76,3.60,-26.82,519,-3723,7365,-1,-1,0
-163.76,3.60,-26.83,518,-3731,7366,0,-1,0
-163.76,3.60,-26.83,517,-3735,7356,-1,0,0
-163.76,3.59,-26.83,512,-3727,7362,0,0,0
-163.76,3.59,-26.83,510,-3726,7356,-1,0,-1
-163.76,3.59,-26.83,507,-3725,7363,0,-1,-1
-163.76,3.59,-26.83,513,-3718,7349,0,-1,0
-163.76,3.59,-26.82,512,-3721,7354,0,0,0
-163.76,3.59,-26.82,508,-3729,7361,0,-1,0
-163.76,3.58,-26.83,506,-3732,7360,0,0,0
-163.76,3.58,-26.82,507,-3718,7363,0,0,0
-163.76,3.58,-26.82,510,-3719,7368,0,0,0
-163.76,3.58,-26.82,513,-3725,7358,-1,-1,-1
-163.76,3.58,-26.82,514,-3727,7355,-1,0,0
-163.76,3.58,-26.83,514,-3732,7357,-1,0,0
-163.76,3.58,-26.83,521,-3737,7359,0,-1,0
-163.76,3.58,-26.83,532,-3735,7357,0,-1,-1
-163.75,3.59,-26.82,539,-3734,7363,0,0,0
-163.76,3.58,-26.81,531,-3719,7369,0,0,0
-163.76,3.58,-26.81,511,-3710,7365,-1,0,0
-163.76,3.57,-26.82,499,-3706,7355,-1,0,0
-163.76,3.57,-26.82,495,-3718,7365,-1,-1,0
-163.77,3.57,-26.83,502,-3732,7355,-1,-1,0
-163.76,3.57,-26.83,507,-3732,7355,-1,-1,-1
-163.76,3.57,-26.83,510,-3726,7354,0,0,-1
-163.76,3.57,-26.83,527,-3725,7349,0,0,-1
-163.76,3.57,-26.83,525,-3724,7350,0,0,-1
-163.75,3.57,-26.82,535,-3719,7365,0,0,0
-163.75,3.57,-26.81,526,-3711,7362,0,0,0
-163.75,3.57,-26.81,522,-3712,7370,-1,0,0
-163.76,3.56,-26.82,513,-3713,7360,-1,0,0
-163.76,3.56,-26.82,516,-3716,7353,-1,0,0
-163.76,3.56,-26.83,514,-3723,7349,-1,-1,0
-163.76,3.56,-26.84,512,-3733,7347,-1,-1,-1
-163.76,3.56,-26.84,514,-3735,7349,0,-1,-1
-163.76,3.56,-26.84,514,-3739,7359,0,0,-1
-163.76,3.56,-26.84,516,-3727,7359,0,0,0
-163.76,3.55,-26.83,517,-3725,7360,0,0,0
-163.76,3.55,-26.83,511,-3719,7359,0,0,0
-163.77,3.55,-26.83,502,-3725,7362,-1,0,-1
-163.77,3.55,-26.83,509,-3720,7370,-1,0,0
-163.77,3.55,-26.83,505,-3717,7372,-1,-1,-1
-163.77,3.55,-26.84,504,-3724,7363,-1,-1,0
-163.77,3.55,-26.85,514,-3734,7359,-1,0,0
-163.77,3.54,-26.85,515,-3734,7356,-1,0,0
-163.77,3.54,-26.85,511,-3732,7366,-1,0,0
-163.77,3.54,-26.85,515,-3736,7357,-1,0,0
-163.77,3.54,-26.85,509,-3735,7358,0,0,0
-163.77,3.53,-26.86,513,-3739,7362,0,0,-1
-163.76,3.54,-26.85,506,-3732,7361,0,-1,-1
-163.76,3.54,-26.85,509,-3731,7361,-1,-1,-1
-163.76,3.54,-26.85,516,-3728,7359,-1,-1,0
-163.76,3.54,-26.86,515,-3727,7360,-1,-1,0
-163.76,3.54,-26.86,516,-3732,7369,-1,0,0
-163.76,3.54,-26.86,517,-3729,7363,0,-1,0
-163.76,3.54,-26.86,510,-3729,7364,-1,-1,0
-163.76,3.54,-26.86,507,-3739,7360,0,0,-1
-163.76,3.54,-26.86,509,-3739,7345,0,-1,-1
-163.76,3.54,-26.86,509,-3737,7347,0,-1,-1
-163.76,3.54,-26.86,512,-3726,7353,0,-1,0
-163.76,3.54,-26.85,507,-3716,7355,0,-1,-1
-163.76,3.54,-26.85,508,-3716,7352,0,-1,-1
-163.76,3.54,-26.85,510,-3715,7354,-1,-1,0
-163.76,3.55,-26.85,515,-3717,7351,0,-1,-1
-163.76,3.56,-26.85,511,-3716,7347,-1,-1,0
-163.76,3.56,-26.85,513,-3725,7363,0,-1,-1
-163.76,3.56,-26.85,518,-3723,7368,0,-1,0
-163.76,3.56,-26.84,514,-3721,7362,-1,-1,0
-163.75,3.57,-26.85,510,-3727,7345,0,-1,-1
-163.75,3.57,-26.85,520,-3735,7338,0,-1,0
-163.75,3.58,-26.84,520,-3736,7349,0,-1,0
-163.75,3.58,-26.84,527,-3734,7361,0,-1,-1
-163.75,3.59,-26.83,531,-3730,7373,0,0,0
-163.75,3.58,-26.83,528,-3721,7368,0,0,0
-163.75,3.58,-26.83,524,-3708,7372,-1,0,0
-163.75,3.58,-26.83,511,-3703,7371,-1,0,0
-163.76,3.57,-26.83,506,-3712,7371,-1,-1,0
-163.76,3.57,-26.84,500,-3725,7367,-1,-1,-1
-163.76,3.58,-26.85,507,-3733,7359,-1,-1,-1
-163.76,3.58,-26.85,514,-3742,7354,-1,-1,-1
-163.76,3.59,-26.85,522,-3737,7358,0,-1,0
-163.76,3.59,-26.85,521,-3740,7345,0,-1,0
-163.76,3.59,-26.85,528,-3734,7352,0,0,0
-163.76,3.59,-26.84,525,-3727,7364,0,0,0
-163.76,3.59,-26.83,520,-3724,7374,0,-1,0
-163.76,3.59,-26.83,520,-3731,7363,0,-1,0
-163.76,3.59,-26.83,521,-3723,7358,-1,0,0
-163.76,3.59,-26.83,521,-3722,7361,-1,-1,0
-163.77,3.59,-26.84,514,-3724,7361,-1,-1,0
-163.77,3.59,-26.84,509,-3733,7355,-1,-1,0
-163.77,3.59,-26.85,515,-3731,7348,-1,0,0
-163.77,3.59,-26.85,525,-3736,7345,-1,-1,0
-163.77,3.59,-26.85,521,-3734,7345,0,-1,0
-163.77,3.59,-26.85,518,-3734,7354,-1,-1,0
-163.78,3.59,-26.85,524,-3731,7355,-1,-1,0
-163.78,3.59,-26.85,520,-3728,7362,-1,-1,0
-163.78,3.59,-26.85,519,-3731,7364,-1,-1,0
-163.77,3.60,-26.85,525,-3729,7359,-1,0,0
-163.78,3.59,-26.86,525,-3734,7356,-1,0,0
-163.78,3.59,-26.86,519,-3736,7366,0,0,0
-163.78,3.59,-26.86,514,-3735,7367,-1,0,0
-163.78,3.59,-26.86,507,-3732,7361,-1,0,0
-163.78,3.58,-26.86,506,-3729,7358,-1,0,-1
-163.78,3.59,-26.86,506,-3731,7360,-1,-1,-1
-163.78,3.59,-26.86,508,-3732,7359,-1,-1,-1
-163.78,3.59,-26.86,510,-3731,7362,-1,-1,0
-163.78,3.59,-26.87,521,-3731,7358,-1,-1,0
-163.78,3.59,-26.87,524,-3734,7350,-1,0,0
-163.78,3.59,-26.87,527,-3732,7343,0,0,0
-163.78,3.59,-26.87,529,-3729,7345,-1,0,0
-163.78,3.59,-26.87,527,-3728,7351,-1,0,0
-163.78,3.59,-26.87,519,-3728,7362,-1,0,0
-163.78,3.59,-26.87,523,-3726,7360,-1,0,-1
-163.78,3.59,-26.88,525,-3732,7362,-1,-1,0
-163.78,3.59,-26.88,527,-3729,7357,-1,0,0
-163.79,3.59,-26.88,525,-3726,7352,-1,0,0
-163.79,3.59,-26.88,520,-3741,7357,-1,0,0
-163.79,3.58,-26.89,514,-3744,7349,-1,0,0
-163.79,3.58,-26.89,508,-3744,7348,0,0,0
-163.79,3.57,-26.88,508,-3736,7355,0,0,-1
-163.79,3.57,-26.88,514,-3738,7357,0,-1,0
-163.79,3.57,-26.88,529,-3732,7357,-1,0,0
-163.79,3.58,-26.88,537,-3723,7370,-1,0,0
-163.79,3.57,-26.88,530,-3716,7364,-1,0,0
-163.80,3.57,-26.89,521,-3725,7358,-1,0,0
-163.80,3.57,-26.90,510,-3731,7353,-1,-1,0
-163.80,3.57,-26.91,500,-3738,7364,-1,-1,-1
-163.80,3.58,-26.91,497,-3745,7360,-1,-1,-1
-163.79,3.58,-26.91,510,-3753,7365,0,-1,-1
-163.79,3.59,-26.91,523,-3747,7359,0,0,-1
-163.79,3.59,-26.90,527,-3746,7357,0,-1,0
-163.79,3.59,-26.90,540,-3746,7358,0,0,0
-163.79,3.59,-26.90,531,-3740,7368,0,0,0
-163.79,3.59,-26.89,519,-3729,7374,0,-1,0
-163.79,3.59,-26.89,522,-3724,7365,-1,-1,0
-163.79,3.59,-26.89,521,-3722,7368,-1,-1,0
-163.79,3.60,-26.90,517,-3727,7363,-1,-1,0
-163.79,3.60,-26.90,514,-3736,7359,-1,-1,0
-163.79,3.60,-26.91,515,-3746,7354,-1,-1,0
-163.80,3.60,-26.92,509,-3750,7352,0,-1,0
-163.80,3.60,-26.91,508,-3749,7350,0,-1,-1
-163.80,3.60,-26.91,510,-3749,7353,0,-1,-1
-163.79,3.60,-26.90,521,-3743,7347,0,-1,-1
-163.79,3.60,-26.90,514,-3730,7351,0,-1,-1
-163.79,3.60,-26.90,516,-3724,7365,0,-1,-1
-163.79,3.60,-26.90,523,-3724,7364,-1,-1,0
-163.79,3.61,-26.90,524,-3725,7365,-1,-1,0
-163.79,3.61,-26.90,524,-3725,7350,-1,-1,0
-163.79,3.61,-26.91,518,-3736,7354,-1,0,-1
-163.79,3.61,-26.92,517,-3741,7361,-1,0,0
-163.79,3.60,-26.92,516,-3748,7359,-1,0,-1
-163.79,3.60,-26.92,516,-3740,7357,0,0,-1
-163.79,3.60,-26.92,517,-3735,7342,0,0,-1
-163.78,3.60,-26.91,522,-3733,7349,0,0,-1
-163.78,3.60,-26.90,517,-3736,7367,0,0,-1
-163.78,3.60,-26.90,521,-3724,7364,0,0,-1
-163.78,3.60,-26.90,514,-3726,7363,-1,-1,-1
-163.78,3.61,-26.90,511,-3729,7356,-1,-1,-1
-163.78,3.61,-26.90,515,-3729,7357,0,-1,-1
-163.77,3.61,-26.89,523,-3729,7357,0,-1,-1
-163.77,3.61,-26.89,522,-3739,7356,0,-1,-1
-163.77,3.61,-26.89,517,-3738,7350,0,-1,-1
-163.77,3.61,-26.89,519,-3742,7343,0,0,-1
-163.77,3.61,-26.89,517,-3739,7351,0,-1,0
-163.77,3.61,-26.88,516,-3740,7357,0,-1,-1
-163.77,3.61,-26.88,521,-3735,7353,0,0,-1
-163.76,3.61,-26.87,521,-3731,7351,0,0,-1
-163.76,3.61,-26.87,520,-3729,7345,0,0,-1
-163.76,3.61,-26.87,525,-3738,7346,0,0,-1
-163.76,3.61,-26.87,527,-3734,7346,0,0,-1
-163.75,3.61,-26.86,529,-3731,7345,0,0,-1
-163.75,3.61,-26.86,536,-3729,7360,0,0,0
-163.75,3.61,-26.85,537,-3721,7365,0,0,0
-163.76,3.60,-26.85,519,-3713,7365,-1,0,0
-163.76,3.59,-26.86,511,-3712,7351,-1,0,0
-163.76,3.59,-26.86,506,-3722,7339,-1,-1,0
-163.76,3.59,-26.88,508,-3734,7342,-1,-1,-1
-163.76,3.59,-26.88,513,-3744,7348,0,-1,-1
-163.76,3.59,-26.88,518,-3750,7349,0,-1,-1
-163.76,3.60,-26.87,523,-3747,7354,0,0,-1
-163.75,3.60,-26.85,519,-3735,7357,0,0,-1
-163.75,3.60,-26.84,519,-3721,7360,0,0,-1
-163.74,3.59,-26.82,526,-3714,7362,0,0,-1
-163.74,3.59,-26.82,526,-3706,7374,0,0,0
-163.74,3.59,-26.82,522,-3710,7363,-1,0,0
-163.75,3.58,-26.83,518,-3708,7357,-1,0,0
-163.75,3.58,-26.83,516,-3716,7354,-1,-1,0
-163.75,3.58,-26.85,512,-3737,7354,-1,-1,0
-163.75,3.58,-26.85,514,-3743,7351,0,0,-1
-163.75,3.58,-26.85,510,-3735,7358,0,0,-1
-163.75,3.58,-26.84,510,-3737,7361,0,0,-1
-163.75,3.57,-26.84,509,-3732,7368,0,0,-1
-163.75,3.57,-26.83,508,-3724,7356,0,0,-1
-163.75,3.57,-26.83,515,-3716,7360,0,0,-1
-163.75,3.57,-26.83,520,-3714,7363,-1,0,0
-163.75,3.57,-26.82,519,-3711,7360,-1,0,0
-163.75,3.56,-26.83,510,-3719,7361,-1,0,0
-163.76,3.55,-26.83,505,-3720,7366,-1,0,0
-163.76,3.55,-26.83,516,-3721,7362,-1,0,0
-163.76,3.55,-26.83,517,-3723,7368,-1,0,0
-163.76,3.54,-26.84,507,-3731,7358,-1,0,0
-163.76,3.54,-26.84,503,-3727,7351,0,0,0
-163.76,3.53,-26.83,504,-3728,7370,0,0,0
-163.76,3.53,-26.83,507,-3726,7370,-1,0,0
-163.76,3.53,-26.83,503,-3722,7362,-1,0,-1
-163.76,3.53,-26.83,510,-3716,7357,-1,0,-1
-163.76,3.52,-26.83,508,-3725,7360,-1,0,0
-163.76,3.52,-26.83,507,-3723,7354,-1,0,0
-163.76,3.52,-26.84,509,-3729,7351,-1,0,0
-163.76,3.51,-26.85,508,-3724,7349,-1,0,0
-163.76,3.50,-26.85,506,-3732,7348,-1,0,0
-163.76,3.51,-26.86,501,-3732,7364,-1,0,0
-163.76,3.50,-26.86,496,-3729,7361,-1,0,0
-163.77,3.49,-26.87,500,-3734,7362,-1,0,0
-163.77,3.49,-26.87,501,-3736,7363,-1,0,0
-163.77,3.49,-26.87,508,-3730,7368,-1,0,0
-163.77,3.48,-26.87,507,-3734,7362,-1,0,0
-163.77,3.48,-26.87,511,-3734,7367,-1,0,0
-163.77,3.47,-26.87,500,-3728,7362,-1,0,0
-163.77,3.47,-26.87,497,-3724,7358,-1,0,0
-163.78,3.45,-26.87,492,-3718,7359,-1,0,0
-163.78,3.45,-26.88,488,-3720,7361,-1,0,0
-163.78,3.45,-26.90,495,-3728,7347,-1,-1,0
-163.78,3.44,-26.90,489,-3741,7350,-1,0,0
-163.78,3.44,-26.91,488,-3746,7356,-1,-1,0
-163.78,3.44,-26.92,490,-3743,7345,-1,-1,-1
-163.78,3.45,-26.92,497,-3747,7337,-1,-1,-1
-163.78,3.45,-26.92,507,-3737,7336,0,0,0
-163.78,3.45,-26.92,514,-3739,7349,0,0,0
-163.78,3.44,-26.92,505,-3731,7357,-1,0,0
-163.78,3.43,-26.92,492,-3726,7360,-1,0,0
-163.78,3.43,-26.93,484,-3730,7341,-1,-1,0
-163.78,3.43,-26.93,479,-3744,7351,-1,-1,-1
-163.78,3.44,-26.93,482,-3747,7359,-1,-1,-1
-163.78,3.45,-26.93,496,-3748,7357,0,-1,-1
-163.77,3.46,-26.93,507,-3747,7350,0,-1,-1
-163.77,3.48,-26.93,517,-3743,7345,0,-1,-1
-163.77,3.47,-26.92,519,-3746,7338,0,0,-1
-163.76,3.47,-26.91,515,-3732,7345,0,0,0
-163.76,3.47,-26.90,504,-3724,7358,0,0,0
-163.76,3.47,-26.88,496,-3719,7372,0,-1,-1
-163.76,3.47,-26.88,488,-3720,7367,0,-1,-1
-163.76,3.48,-26.88,501,-3724,7354,-1,-1,-1
-163.76,3.48,-26.88,501,-3724,7358,-1,-1,-1
-163.75,3.49,-26.88,506,-3736,7350,0,-1,0
-163.75,3.49,-26.88,508,-3734,7351,0,-1,0
-163.75,3.49,-26.88,501,-3719,7349,0,0,-1
-163.75,3.49,-26.87,498,-3722,7353,0,0,-1
-163.75,3.49,-26.87,494,-3727,7349,0,0,-1
-163.75,3.49,-26.86,501,-3725,7356,0,-1,-1
-163.75,3.49,-26.86,504,-3723,7362,0,-1,0
-163.75,3.49,-26.86,504,-3722,7370,-1,0,0
-163.75,3.49,-26.86,501,-3717,7369,-1,0,0
-163.75,3.49,-26.87,504,-3727,7366,-1,0,0
-163.75,3.49,-26.87,502,-3729,7363,-1,0,0
-163.76,3.48,-26.87,494,-3722,7360,-1,0,0
-163.76,3.48,-26.86,495,-3727,7365,0,0,-1
-163.75,3.49,-26.86,504,-3725,7371,0,-1,-1
-163.75,3.49,-26.86,505,-3727,7362,0,0,-1
-163.75,3.49,-26.85,501,-3727,7363,0,-1,-1
-163.75,3.49,-26.85,508,-3722,7367,0,0,-1
-163.74,3.50,-26.85,507,-3722,7365,-1,-1,-1
-163.74,3.50,-26.85,506,-3722,7365,0,0,-1
-163.74,3.50,-26.85,509,-3723,7364,0,-1,0
-163.74,3.50,-26.85,507,-3726,7359,0,-1,0
-163.74,3.50,-26.85,507,-3733,7367,0,0,0
-163.74,3.50,-26.85,503,-3731,7365,0,0,0
-163.75,3.49,-26.85,498,-3730,7366,-1,-1,0
-163.74,3.50,-26.85,509,-3730,7373,-1,-1,0
-163.74,3.49,-26.85,506,-3722,7369,-1,-1,0
-163.74,3.49,-26.85,506,-3715,7357,-1,-1,0
-163.74,3.50,-26.85,506,-3728,7366,0,0,0
-163.74,3.50,-26.84,506,-3724,7365,0,-1,0
-163.74,3.50,-26.84,496,-3724,7350,-1,-1,-1
-163.74,3.50,-26.85,497,-3730,7344,-1,-1,-1
-163.74,3.50,-26.85,508,-3730,7343,0,-1,-1
-163.74,3.50,-26.84,516,-3723,7369,0,0,0
-163.74,3.50,-26.84,515,-3725,7365,0,0,0
-163.74,3.50,-26.84,497,-3726,7356,0,0,0
-163.74,3.50,-26.84,499,-3731,7359,0,-1,0
-163.74,3.50,-26.84,495,-3731,7351,0,-1,-1
-163.74,3.51,-26.84,500,-3720,7356,0,-1,-1
-163.74,3.51,-26.84,509,-3718,7368,-1,0,0
-163.73,3.51,-26.84,507,-3714,7366,-1,0,0
-163.74,3.50,-26.84,501,-3721,7365,-1,0,0
-163.74,3.49,-26.84,490,-3722,7361,-1,0,0
-163.75,3.49,-26.85,486,-3727,7363,-1,-1,0
-163.75,3.49,-26.85,486,-3737,7358,-1,-1,-1
-163.75,3.50,-26.86,496,-3747,7353,-1,-1,-1
-163.75,3.50,-26.86,507,-3744,7348,0,-1,-1
-163.74,3.51,-26.86,511,-3743,7357,0,-1,-1
-163.74,3.51,-26.86,516,-3738,7355,0,0,0
-163.73,3.51,-26.85,520,-3732,7353,0,0,-1
-163.74,3.50,-26.84,511,-3723,7358,0,0,0
-163.74,3.50,-26.84,502,-3722,7367,-1,0,0
-163.74,3.50,-26.84,495,-3713,7368,0,-1,-1
-163.74,3.50,-26.84,496,-3714,7359,-1,-1,-1
-163.74,3.50,-26.84,501,-3719,7365,-1,-1,-1
-163.74,3.50,-26.85,505,-3728,7361,-1,-1,0
-163.74,3.50,-26.85,507,-3727,7359,0,-1,0
-163.74,3.50,-26.85,505,-3733,7363,0,0,0
-163.74,3.50,-26.84,509,-3727,7365,0,0,0
-163.74,3.50,-26.84,490,-3728,7365,-1,-1,0
-163.74,3.50,-26.85,496,-3735,7355,-1,-1,-1
-163.74,3.51,-26.85,508,-3726,7360,-1,-1,-1
-163.74,3.51,-26.85,511,-3717,7361,-1,-1,-1
-163.74,3.51,-26.85,509,-3718,7364,-1,0,0
-163.74,3.51,-26.85,516,-3727,7361,-1,0,0
-163.74,3.51,-26.85,512,-3733,7358,0,0,0
-163.75,3.50,-26.86,500,-3734,7360,0,0,0
-163.75,3.50,-26.85,497,-3728,7354,0,0,-1
-163.75,3.50,-26.85,498,-3732,7365,-1,-1,0
-163.75,3.50,-26.85,501,-3732,7360,0,-1,0
-163.75,3.51,-26.86,509,-3729,7352,-1,-1,0
-163.75,3.51,-26.86,505,-3726,7352,-1,-1,0
-163.75,3.51,-26.86,501,-3723,7353,-1,-1,0
-163.75,3.51,-26.86,498,-3725,7361,-1,-1,0
-163.75,3.51,-26.86,502,-3729,7364,-1,-1,-1
-163.75,3.51,-26.86,501,-3730,7368,-1,-1,0
-163.75,3.51,-26.86,506,-3725,7370,0,-1,0
-163.75,3.51,-26.86,504,-3728,7368,-1,-1,0
-163.75,3.51,-26.86,509,-3729,7372,0,-1,0
-163.75,3.51,-26.85,507,-3728,7371,0,-1,0
-163.75,3.51,-26.85,511,-3729,7362,0,-1,0
-163.75,3.52,-26.85,508,-3725,7354,0,-1,0
-163.76,3.52,-26.85,506,-3732,7353,0,-1,0
-163.75,3.52,-26.85,509,-3726,7360,0,-1,-1
-163.76,3.52,-26.85,506,-3723,7366,-1,-1,0
-163.76,3.52,-26.85,511,-3725,7360,-1,-1,0
-163.76,3.52,-26.85,504,-3727,7353,0,-1,-1
-163.76,3.52,-26.85,506,-3730,7362,0,-1,0
-163.76,3.53,-26.84,514,-3732,7382,0,-1,0
-163.76,3.53,-26.83,513,-3721,7378,0,-1,-1
-163.76,3.53,-26.83,506,-3719,7371,-1,-1,0
-163.76,3.53,-26.84,501,-3723,7363,-1,0,0
-163.76,3.53,-26.84,500,-3722,7362,-1,-1,0
-163.76,3.53,-26.85,500,-3725,7362,-1,-1,0
-163.76,3.53,-26.85,494,-3733,7364,-1,-1,-1
-163.76,3.54,-26.85,497,-3734,7366,-1,-1,-1
-163.76,3.54,-26.85,499,-3741,7360,0,-1,-1
-163.76,3.54,-26.85,509,-3741,7356,0,-1,-1
-163.76,3.55,-26.85,515,-3730,7353,0,-1,-1
-163.76,3.55,-26.84,522,-3725,7358,0,0,-1
-163.75,3.55,-26.84,523,-3718,7358,0,0,0
-163.75,3.55,-26.83,519,-3715,7366,-1,0,0
-163.76,3.54,-26.84,508,-3719,7364,-1,0,0
-163.76,3.54,-26.84,507,-3712,7366,-1,-1,0
-163.76,3.55,-26.84,507,-3717,7363,-1,-1,0
-163.76,3.55,-26.85,513,-3726,7363,-1,-1,0
-163.76,3.55,-26.85,513,-3733,7366,0,-1,0
-163.76,3.56,-26.84,522,-3734,7364,0,0,-1
-163.76,3.56,-26.84,517,-3730,7367,0,0,-1
-163.76,3.55,-26.84,508,-3730,7360,0,0,-1
-163.76,3.55,-26.83,507,-3717,7357,0,-1,-1
-163.76,3.55,-26.82,513,-3708,7359,0,0,-1
-163.76,3.55,-26.82,516,-3714,7359,-1,0,0
-163.76,3.55,-26.83,519,-3715,7359,-1,0,0
-163.76,3.55,-26.83,521,-3722,7365,-1,0,0
-163.76,3.54,-26.83,515,-3731,7366,0,0,0
-163.76,3.54,-26.83,518,-3734,7352,0,0,0
-163.76,3.54,-26.83,512,-3734,7370,0,0,-1
-163.76,3.54,-26.82,503,-3725,7362,0,0,-1
-163.76,3.53,-26.83,495,-3727,7364,0,0,-1
-163.75,3.53,-26.82,507,-3723,7355,0,0,-1
-163.75,3.53,-26.82,513,-3720,7350,0,0,-1
-163.75,3.53,-26.81,511,-3723,7352,0,0,0
-163.75,3.53,-26.80,508,-3725,7370,0,0,0
-163.75,3.53,-26.80,509,-3720,7369,0,0,0
-163.75,3.53,-26.80,503,-3719,7371,0,0,-1
-163.75,3.53,-26.80,504,-3716,7366,0,0,-1
-163.75,3.53,-26.80,512,-3718,7368,0,0,-1
-163.75,3.53,-26.80,510,-3721,7371,0,0,-1
-163.75,3.52,-26.79,509,-3719,7381,0,0,0
-163.75,3.52,-26.79,514,-3719,7381,0,0,0
-163.75,3.52,-26.78,511,-3723,7373,0,0,0
-163.75,3.53,-26.78,511,-3734,7374,0,0,0
-163.75,3.52,-26.78,505,-3729,7377,0,0,0
-163.75,3.52,-26.77,508,-3719,7376,0,0,-1
-163.75,3.52,-26.77,505,-3717,7368,-1,0,0
-163.75,3.51,-26.77,501,-3716,7366,-1,0,0
-163.75,3.52,-26.77,508,-3718,7366,0,-1,-1
-163.75,3.52,-26.77,514,-3721,7352,0,0,-1
-163.75,3.52,-26.76,523,-3715,7369,0,0,-1
-163.75,3.52,-26.76,525,-3714,7375,0,0,0
-163.74,3.52,-26.76,515,-3711,7371,0,0,0
-163.74,3.51,-26.76,498,-3703,7374,-1,0,0
-163.75,3.51,-26.76,491,-3699,7366,-1,0,0
-163.75,3.50,-26.76,488,-3712,7365,-1,-1,-1
-163.75,3.51,-26.78,494,-3718,7352,-1,-1,-1
-163.75,3.52,-26.78,505,-3728,7358,0,-1,-1
-163.74,3.52,-26.78,512,-3733,-258,0,0,-1
-163.74,3.52,-26.77,511,-3734,7361,0,0,0
-163.74,3.52,-26.76,507,-3717,7366,0,0,0
-163.74,3.51,-26.75,503,-3715,7367,0,0,0
-163.74,3.50,-26.74,494,-3710,7378,0,0,0
-163.74,3.50,-26.74,495,-3703,7383,-1,0,0
-163.74,3.50,-26.75,495,-3707,7366,-1,-1,0
-163.74,3.50,-26.76,503,-3710,7353,-1,-1,0
-163.75,3.50,-26.76,504,-3721,7355,-1,-1,0
-163.75,3.50,-26.77,515,-3728,7356,-1,0,0
-163.75,3.49,-26.77,508,-3725,7354,0,0,0
-163.75,3.49,-26.77,506,-3733,7357,0,0,0
-163.75,3.49,-26.77,504,-3729,7366,0,0,0
-163.75,3.49,-26.76,504,-3722,7365,0,0,-1
-163.75,3.49,-26.75,496,-3713,7372,0,0,-1
-163.75,3.49,-26.75,508,-3705,7374,-1,0,0
-163.75,3.49,-26.75,511,-3698,7370,-1,-1,0
-163.75,3.49,-26.75,515,-3708,7369,-1,-1,0
-163.75,3.49,-26.76,509,-3719,7367,-1,0,0
-163.75,3.49,-26.76,511,-3712,7359,-1,0,0
-163.75,3.49,-26.77,498,-3719,7359,-1,0,0
-163.75,3.49,-26.77,501,-3730,7359,0,0,0
-163.75,3.49,-26.77,503,-3724,7361,0,0,-1
-163.76,3.48,-26.77,505,-3717,7359,0,0,0
-163.76,3.48,-26.76,501,-3713,7366,-1,0,0
-163.76,3.48,-26.76,500,-3708,7363,0,0,0
-163.76,3.47,-26.76,498,-3710,7364,-1,0,0
-163.76,3.48,-26.76,503,-3713,7372,0,-1,-1
-163.76,3.48,-26.76,502,-3717,7371,-1,0,-1
-163.76,3.48,-26.77,510,-3715,7371,-1,0,0
-163.76,3.48,-26.77,500,-3715,7368,-1,-1,-1
-163.76,3.48,-26.77,501,-3723,7365,-1,-1,0
-163.76,3.47,-26.77,494,-3718,7371,0,0,0
-163.76,3.47,-26.77,499,-3716,7363,-1,0,0
-163.76,3.47,-26.77,502,-3719,7358,-1,0,0
-163.77,3.46,-26.77,496,-3721,7362,0,0,0
-163.77,3.46,-26.77,490,-3722,7367,0,-1,-1
-163.76,3.47,-26.77,496,-3715,7364,0,0,-1
-163.76,3.47,-26.77,502,-3718,7361,-1,-1,-1
-163.76,3.47,-26.77,515,-3725,7359,0,-1,-1
-163.76,3.48,-26.77,510,-3723,7368,0,0,-1
-163.76,3.48,-26.77,502,-3720,7373,-1,-1,0
-163.76,3.47,-26.77,483,-3718,7364,-1,-1,-1
-163.76,3.48,-26.77,478,-3729,7367,-1,-1,-1
-163.76,3.48,-26.77,485,-3731,7360,0,-1,-1
-163.76,3.49,-26.77,510,-3733,7366,0,-1,-1
-163.75,3.50,-26.76,521,-3723,7372,0,-1,-1
-163.75,3.50,-26.76,517,-3711,7372,0,0,-1
-163.75,3.49,-26.76,504,-3704,7369,0,0,0
-163.75,3.49,-26.76,495,-3706,7364,-1,-1,0
-163.75,3.49,-26.76,493,-3711,7359,-1,-1,-1
-163.76,3.50,-26.76,498,-3717,7370,-1,-1,0
-163.76,3.51,-26.78,498,-3731,7365,-1,-1,-1
-163.76,3.51,-26.78,518,-3735,7362,0,-1,-1
-163.75,3.52,-26.78,523,-3727,7359,0,0,-1
-163.75,3.52,-26.77,515,-3715,7368,0,0,0
-163.76,3.51,-26.76,517,-3717,7364,0,0,0
-163.75,3.51,-26.76,515,-3714,7369,0,0,0
-163.75,3.51,-26.76,511,-3713,7373,0,-1,0
-163.75,3.51,-26.75,501,-3698,7376,-1,-1,0
-163.76,3.51,-26.76,501,-3702,7371,-1,-1,0
-163.76,3.52,-26.76,503,-3714,7361,-1,-1,0
-163.76,3.52,-26.76,499,-3711,7367,-1,-1,0
-163.76,3.52,-26.76,507,-3718,7359,-1,-1,0
-163.76,3.52,-26.77,515,-3724,7361,-1,0,0
-163.77,3.52,-26.76,513,-3716,7362,0,-1,0
-163.77,3.52,-26.76,510,-3721,7359,0,-1,0
-163.76,3.52,-26.75,506,-3715,7376,0,-1,-1
-163.76,3.53,-26.75,506,-3705,7374,0,-1,-1
-163.75,3.54,-26.74,507,-3707,7369,-1,-1,-1
-163.75,3.54,-26.75,515,-3713,7369,-1,-1,0
-163.75,3.54,-26.75,518,-3714,7373,-1,-1,0
-163.75,3.54,-26.76,517,-3710,7373,-1,0,0
-163.76,3.54,-26.76,511,-3716,7357,-1,0,0
-163.76,3.54,-26.76,502,-3720,7356,0,0,0
-163.76,3.54,-26.76,499,-3720,7360,0,0,0
-163.76,3.54,-26.76,497,-3722,7357,0,-1,-1
-163.76,3.54,-26.76,500,-3717,7356,0,-1,-1
-163.76,3.54,-26.76,507,-3715,7350,-1,-1,0
-163.76,3.54,-26.76,508,-3714,7359,-1,-1,0
-163.76,3.54,-26.76,512,-3714,7364,0,-1,0
-163.77,3.54,-26.76,507,-3714,7371,-1,0,0
-163.77,3.54,-26.76,509,-3723,7380,-1,-1,0
-163.77,3.54,-26.76,510,-3727,7370,-1,-1,0
-163.77,3.54,-26.77,513,-3722,7366,0,-1,-1
-163.77,3.54,-26.77,505,-3718,7359,0,-1,0
-163.77,3.54,-26.77,508,-3720,7361,0,0,-1
-163.77,3.54,-26.76,508,-3717,7368,0,0,0
-163.77,3.54,-26.76,515,-3717,7373,0,-1,0
-163.77,3.54,-26.76,506,-3723,7368,-1,0,0
-163.77,3.54,-26.76,510,-3720,7362,-1,0,-1
-163.77,3.54,-26.76,510,-3717,7369,-1,-1,-1
-163.77,3.54,-26.76,510,-3718,7383,-1,-1,0
-163.78,3.54,-26.77,511,-3721,7376,-1,-1,0
-163.77,3.55,-26.76,514,-3712,7367,-1,-1,0
-163.78,3.54,-26.77,507,-3718,7362,-1,0,0
-163.78,3.54,-26.77,506,-3717,7360,-1,-1,0
-163.78,3.54,-26.77,493,-3717,7355,-1,-1,0
-163.78,3.54,-26.77,500,-3724,7355,0,-1,-1
-163.77,3.55,-26.77,511,-3723,7355,0,-1,-1
-163.77,3.55,-26.76,530,-3717,7356,0,0,-1
-163.77,3.55,-26.76,531,-3713,7361,0,0,0
-163.77,3.55,-26.76,525,-3713,7371,0,0,0
-163.77,3.55,-26.76,516,-3704,7368,-1,0,0
-163.78,3.54,-26.77,498,-3700,7359,-1,-1,0
-163.78,3.54,-26.77,492,-3718,7357,-1,-1,0
-163.78,3.54,-26.78,496,-3726,7355,-1,-1,-1
-163.78,3.55,-26.79,512,-3730,7355,-1,-1,-1
-163.78,3.55,-26.79,516,-3736,7349,0,-1,-1
-163.78,3.55,-26.79,519,-3734,7347,0,0,0
-163.78,3.55,-26.79,516,-3725,7348,0,0,0
-163.78,3.55,-26.78,510,-3716,7351,0,0,0
-163.78,3.54,-26.77,506,-3703,7360,0,0,0
-163.78,3.54,-26.77,502,-3707,7368,-1,0,0
-163.78,3.53,-26.77,494,-3704,7374,-1,-1,0
-163.78,3.53,-26.78,493,-3714,7371,-1,-1,0
-163.79,3.54,-26.79,501,-3715,7364,-1,-1,0
-163.79,3.54,-26.79,502,-3722,7358,-1,-1,0
-163.79,3.54,-26.79,501,-3731,7359,0,-1,0
-163.79,3.54,-26.79,504,-3730,7360,0,0,0
-163.79,3.53,-26.78,505,-3718,7366,0,0,-1
-163.79,3.53,-26.78,507,-3707,7372,0,0,-1
-163.79,3.53,-26.78,503,-3709,7369,-1,0,-1
-163.79,3.53,-26.78,499,-3702,7364,-1,-1,-1
-163.79,3.53,-26.78,511,-3704,7376,-1,-1,0
-163.79,3.53,-26.78,516,-3709,7367,-1,-1,0
-163.79,3.53,-26.78,516,-3711,7372,-1,0,0
-163.80,3.53,-26.79,520,-3726,7369,-1,0,0
-163.80,3.53,-26.79,516,-3724,7383,0,0,0
-163.80,3.53,-26.79,495,-3721,7371,-1,0,0
-163.80,3.53,-26.79,497,-3726,7364,-1,-1,-1
-163.80,3.53,-26.80,507,-3730,7354,0,-1,-1
-163.80,3.54,-26.79,512,-3713,7364,0,-1,-1
-163.80,3.54,-26.79,512,-3716,7364,-1,-1,-1
-163.79,3.54,-26.79,519,-3722,7365,-1,0,0
-163.80,3.54,-26.80,506,-3721,7370,0,0,0
-163.80,3.53,-26.80,511,-3721,7359,-1,-1,0
-163.80,3.54,-26.80,507,-3723,7369,-1,-1,0
-163.80,3.54,-26.80,514,-3725,7360,-1,-1,-1
-163.80,3.54,-26.80,510,-3735,7362,-1,0,0
-163.80,3.54,-26.80,517,-3728,7370,-1,0,0
-163.80,3.54,-26.80,510,-3725,7374,-1,0,0
-163.80,3.54,-26.80,508,-3730,7379,-1,0,0
-163.80,3.54,-26.80,506,-3723,7377,0,0,0
-163.80,3.54,-26.80,499,-3720,7375,0,-1,-1
-163.80,3.54,-26.80,504,-3721,7372,-1,-1,0
-163.80,3.54,-26.80,517,-3710,7368,-1,-1,-1
-163.80,3.55,-26.80,513,-3717,7359,-1,-1,0
-163.80,3.54,-26.81,507,-3728,7352,-1,-1,0
-163.80,3.55,-26.81,509,-3735,7350,0,-1,0
-163.80,3.55,-26.81,508,-3727,7359,0,-1,0
-163.80,3.55,-26.80,517,-3718,7360,0,0,0
-163.80,3.55,-26.80,525,-3716,7364,-1,0,0
-163.80,3.54,-26.80,511,-3714,7365,-1,0,0
-163.80,3.54,-26.81,505,-3705,7362,-1,-1,0
-163.81,3.54,-26.81,500,-3715,7368,-1,-1,0
-163.81,3.54,-26.82,501,-3722,7370,-1,-1,0
-163.81,3.54,-26.82,495,-3728,7366,-1,-1,-1
-163.81,3.55,-26.82,502,-3733,7354,0,-1,-1
-163.81,3.55,-26.82,514,-3742,7354,0,-1,-1
-163.81,3.55,-26.82,517,-3734,7356,0,0,-1
-163.80,3.55,-26.81,525,-3725,7361,0,0,0
-163.81,3.55,-26.81,522,-3719,7359,0,0,0
-163.81,3.55,-26.80,515,-3714,7377,-1,0,0
-163.81,3.54,-26.80,503,-3715,7367,-1,0,0
-163.81,3.54,-26.81,503,-3709,7367,-1,-1,0
-163.82,3.54,-26.82,498,-3721,7360,-1,-1,0
-163.82,3.54,-26.83,494,-3728,7358,-1,-1,0
-163.82,3.55,-26.82,505,-3737,7354,-1,0,0
-163.82,3.54,-26.83,515,-3734,7358,0,0,0
-163.82,3.54,-26.82,510,-3727,7352,0,0,0
-163.82,3.54,-26.81,502,-3723,7338,0,0,-1
-163.81,3.53,-26.80,503,-3720,7359,0,0,-1
-163.81,3.53,-26.80,505,-3709,7367,0,0,-1
-163.81,3.54,-26.79,509,-3705,7371,-1,-1,0
-163.81,3.54,-26.80,515,-3706,7381,-1,-1,0
-163.81,3.54,-26.80,527,-3710,7363,-1,-1,0
-163.82,3.54,-26.80,519,-3712,7359,-1,0,0
-163.82,3.54,-26.80,510,-3725,7363,-1,0,0
-163.82,3.54,-26.80,504,-3729,7366,0,0,-1
-163.82,3.53,-26.80,501,-3728,7352,0,0,0
-163.82,3.53,-26.80,504,-3735,7349,0,0,-1
-163.81,3.53,-26.80,504,-3725,7353,0,0,-1
-163.81,3.53,-26.79,504,-3719,7356,0,-1,0
-163.82,3.53,-26.79,506,-3726,7364,0,0,0
-163.82,3.53,-26.78,501,-3720,7368,0,-1,0
-163.82,3.53,-26.79,506,-3723,7364,-1,-1,0
-163.82,3.53,-26.79,510,-3720,7365,-1,-1,0
-163.82,3.53,-26.79,514,-3720,7362,-1,-1,-1
-163.82,3.53,-26.79,518,-3724,7369,-1,-1,0
-163.82,3.53,-26.79,521,-3726,7366,0,0,0
-163.82,3.53,-26.79,514,-3727,7362,0,0,-1
-163.82,3.53,-26.78,507,-3720,7363,0,0,0
-163.82,3.53,-26.78,506,-3723,7366,0,0,-1
-163.81,3.53,-26.77,516,-3722,7369,0,0,0
-163.81,3.53,-26.77,514,-3716,7371,0,0,-1
-163.81,3.53,-26.77,515,-3712,7373,0,0,0
-163.81,3.53,-26.77,513,-3711,7369,-1,0,0
-163.81,3.53,-26.77,514,-3716,7363,-1,0,0
-163.81,3.53,-26.78,508,-3718,7363,-1,0,0
-163.82,3.52,-26.78,499,-3724,7354,-1,-1,0
-163.82,3.52,-26.78,508,-3726,7362,0,-1,-1
-163.81,3.53,-26.78,513,-3722,7363,0,0,-1
-163.81,3.53,-26.77,520,-3713,7369,0,0,-1
-163.81,3.52,-26.76,525,-3705,7365,0,0,0
-163.81,3.52,-26.76,524,-3696,7373,-1,0,0
-163.81,3.52,-26.76,503,-3696,7357,-1,0,0
-163.82,3.50,-26.77,482,-3708,7358,-1,0,0
-163.82,3.51,-26.77,483,-3715,7370,-1,-1,-1
-163.82,3.51,-26.78,476,-3726,7371,-1,-1,-1
-163.82,3.51,-26.78,483,-3736,7363,0,-1,-1
-163.81,3.52,-26.78,502,-3737,7354,0,-1,-1
-163.81,3.52,-26.78,512,-3730,7362,0,0,-1
-163.81,3.52,-26.76,513,-3718,7374,0,0,0
-163.81,3.51,-26.76,513,-3718,7382,0,0,0
-163.81,3.51,-26.75,510,-3705,7390,-1,0,0
-163.81,3.50,-26.76,501,-3707,7381,-1,0,0
-163.81,3.50,-26.76,499,-3705,7375,-1,-1,0
-163.82,3.50,-26.76,498,-3714,7371,-1,-1,0
-163.82,3.50,-26.77,503,-3723,7371,-1,-1,0
-163.82,3.51,-26.78,511,-3732,7368,-1,-1,0
-163.82,3.51,-26.78,516,-3733,7364,0,0,0
-163.82,3.50,-26.77,510,-3723,7362,0,0,-1
-163.82,3.50,-26.76,509,-3730,7372,0,0,-1
-163.81,3.50,-26.76,508,-3715,7371,0,0,-1
-163.81,3.50,-26.76,502,-3705,7371,0,-1,-1
-163.81,3.50,-26.76,498,-3709,7365,-1,-1,0
