Yaw,Pitch,Roll,AX,AY,AZ,GX,GY,GZ
-22.75,3.61,14.12,504,1996,7891,-1,-1,0
-22.76,3.62,14.12,511,1985,7894,-1,-1,0
-22.76,3.62,14.12,504,1986,7886,-1,-1,0
-22.76,3.62,14.12,505,1987,7894,0,-1,0
-22.76,3.62,14.12,508,1993,7910,0,-1,0
-22.76,3.62,14.12,506,1988,7905,-1,-1,0
-22.76,3.63,14.12,504,1979,7895,-1,-1,0
-22.76,3.63,14.12,509,1972,7895,-1,-1,0
-22.77,3.63,14.11,503,1977,7878,-1,-1,0
-22.78,3.64,14.11,506,1987,7881,-1,-1,0
-22.78,3.64,14.11,507,2008,7890,-1,-1,-1
-22.78,3.64,14.11,511,2002,7896,-1,-1,0
-22.78,3.64,14.10,506,1982,7893,-1,-1,0
-22.79,3.64,14.09,512,1960,7895,-1,0,0
-22.79,3.65,14.09,512,1964,7906,0,-1,-1
-22.79,3.65,14.10,506,1990,7891,0,-1,0
-22.79,3.65,14.10,509,2002,7887,-1,-1,0
-22.79,3.66,14.10,511,2001,7885,-1,-1,0
-22.79,3.66,14.09,512,1988,7883,-1,-1,0
-22.80,3.66,14.10,511,1977,7895,0,-1,0
-22.80,3.67,14.10,509,1984,7898,0,-1,0
-22.80,3.67,14.10,514,1988,7895,0,-1,0
-22.80,3.67,14.10,513,1987,7888,-1,-1,0
-22.80,3.67,14.10,507,1990,7893,-1,-1,0
-22.80,3.67,14.09,511,1989,7881,-1,-1,0
-22.80,3.67,14.09,508,1988,7890,-1,-1,0
-22.81,3.67,14.09,509,1989,7893,-1,-1,0
-22.81,3.67,14.09,507,1992,7895,-1,-1,0
-22.81,3.68,14.09,513,1988,7899,-1,-1,0
-22.81,3.68,14.09,518,1984,7892,-1,-1,0
-22.82,3.69,14.09,516,1989,7893,-1,-1,0
-22.82,3.69,14.09,512,1978,7898,-1,-1,0
-22.82,3.69,14.09,511,1978,7898,-1,-1,0
-22.83,3.69,14.09,518,1995,7894,-1,-1,0
-22.83,3.70,14.09,527,1997,7892,-1,-1,0
-22.83,3.71,14.09,526,1995,7890,-1,-1,0
-22.83,3.71,14.08,515,1982,7891,-1,-1,0
-22.83,3.71,14.08,512,1983,7889,-1,-1,0
-22.83,3.71,14.08,512,1984,7895,0,-1,0
-22.84,3.72,14.08,523,1983,7883,0,-1,0
-22.85,3.72,14.08,524,1985,7881,-1,-1,0
-22.85,3.72,14.08,523,1984,7878,-1,-1,0
-22.85,3.72,14.08,524,1982,7882,0,-1,0
-22.85,3.73,14.09,521,1985,7885,0,-1,0
-22.85,3.72,14.08,521,1981,7900,-1,-1,0
-22.85,3.73,14.07,517,1970,7902,-1,-1,0
-22.86,3.73,14.07,512,1970,7901,-1,-1,0
-22.86,3.73,14.07,514,1978,7898,0,-1,0
-22.86,3.74,14.07,522,1993,7898,0,-1,0
-22.86,3.74,14.07,518,2000,7899,-1,-1,0
-22.86,3.74,14.07,524,1992,7894,-1,0,0
-22.87,3.74,14.07,522,1980,7892,0,-1,0
-22.87,3.75,14.07,530,1973,7890,0,-1,0
-22.87,3.75,14.07,524,1983,7899,-1,-1,0
-22.87,3.75,14.08,524,1987,7892,-1,-1,0
-22.87,3.75,14.07,534,1984,7896,-1,-1,0
-22.88,3.76,14.07,532,1977,7905,-1,-1,0
-22.89,3.76,14.07,535,1977,7884,-1,-1,0
-22.89,3.76,14.07,533,1987,7886,-1,0,0
-22.89,3.76,14.07,529,1993,7889,-1,-1,0
-22.89,3.77,14.07,530,1989,7893,-1,-1,0
-22.89,3.77,14.06,531,1986,7902,-1,-1,0
-22.90,3.77,14.06,527,1977,7900,-1,-1,0
-22.90,3.78,14.07,531,1984,7882,0,-1,0
-22.90,3.78,14.07,523,1989,7884,-1,-1,0
-22.91,3.79,14.07,528,1997,7885,-1,-1,0
-22.91,3.78,14.06,530,1980,7890,-1,-1,0
-22.91,3.79,14.06,532,1976,7893,-1,-1,0
-22.91,3.79,14.06,529,1976,7894,-1,-1,0
-22.91,3.79,14.05,530,1971,7895,-1,-1,0
-22.93,3.80,14.05,531,1967,7894,-1,-1,0
-22.93,3.80,14.05,536,1970,7894,0,-1,-1
-22.93,3.80,14.05,540,1980,7886,-1,0,0
-22.93,3.80,14.05,538,1975,7893,-1,-1,0
-22.92,3.80,14.04,537,1965,7893,-1,0,0
-22.92,3.80,14.04,528,1964,7904,0,0,-1
-22.92,3.80,14.05,528,1969,7900,0,0,-1
-22.92,3.79,14.05,520,1982,7892,0,-1,-1
-22.93,3.80,14.05,526,1984,7896,-1,-1,0
-22.93,3.80,14.05,523,1978,7895,-1,-1,0
-22.92,3.80,14.05,527,1965,7896,0,0,-1
-22.92,3.80,14.05,525,1966,7882,0,-1,-1
-22.92,3.80,14.05,530,1984,7880,0,-1,-1
-22.92,3.80,14.05,535,1993,7879,-1,-1,0
-22.92,3.80,14.05,528,1984,7877,-1,0,-1
-22.92,3.79,14.05,525,1974,7875,-1,0,-1
-22.92,3.79,14.05,526,1968,7888,-1,-1,0
-22.92,3.79,14.05,529,1966,7901,0,-1,0
-22.92,3.80,14.05,537,1975,7897,0,-1,-1
-22.92,3.80,14.05,542,1978,7890,0,-1,-1
-22.91,3.80,14.06,542,1978,7895,0,0,-1
-22.91,3.79,14.06,536,1973,7892,-1,0,-1
-22.91,3.79,14.06,532,1973,7893,-1,0,-1
-22.90,3.79,14.06,528,1975,7907,0,0,-1
-22.90,3.78,14.06,522,1977,7909,0,0,-1
-22.90,3.78,14.06,527,1981,7901,0,0,-1
-22.90,3.78,14.06,530,1983,7892,-1,0,-1
-22.89,3.78,14.06,530,1985,7895,0,0,-1
-22.89,3.78,14.07,524,1988,7887,-1,0,0
-22.89,3.78,14.07,526,1986,7888,-1,0,-1
-22.89,3.77,14.07,528,1983,7885,-1,0,-1
-22.89,3.77,14.07,515,1977,7892,0,-1,-1
-22.89,3.77,14.07,527,1983,7890,0,0,-1
-22.89,3.76,14.08,525,1985,7885,-1,0,-1
-22.89,3.76,14.08,521,1975,7889,-1,0,-1
-22.88,3.76,14.08,524,1976,7891,0,0,-1
-22.88,3.75,14.08,527,1985,7897,0,0,-1
-22.88,3.75,14.08,529,1989,7899,-1,0,-1
-22.88,3.75,14.08,523,1984,7895,-1,0,-1
-22.87,3.74,14.08,519,1984,7895,-1,0,-1
-22.87,3.73,14.08,517,1980,7882,0,0,-1
-22.87,3.73,14.08,520,1978,7887,0,0,-1
-22.86,3.73,14.09,520,1987,7896,0,0,-1
-22.86,3.73,14.09,516,1988,7894,0,-1,-1
-22.86,3.72,14.09,521,1988,7897,-1,0,-1
-22.86,3.72,14.09,523,1977,7889,0,0,-1
-22.86,3.72,14.09,518,1977,7880,0,0,-1
-22.86,3.71,14.10,523,1981,7880,0,0,-1
-22.86,3.71,14.10,524,1988,7882,0,0,-1
-22.86,3.71,14.10,526,1983,7888,-1,0,-1
-22.85,3.71,14.10,521,1986,7886,-1,0,-1
-22.85,3.71,14.10,523,1986,7887,0,0,-1
-22.85,3.70,14.11,523,1997,7897,0,0,-1
-22.84,3.70,14.10,522,1987,7892,-1,0,-1
-22.84,3.69,14.10,520,1981,7892,-1,0,-1
-22.84,3.68,14.09,509,1969,7893,0,0,-1
-22.83,3.68,14.10,516,1979,7885,0,0,-1
-22.83,3.68,14.11,507,2006,7900,0,0,-1
-22.83,3.68,14.11,516,2008,7896,-1,0,-1
-22.82,3.67,14.12,505,1998,7891,-1,0,-1
-22.83,3.67,14.11,509,1986,7885,-1,0,-1
-22.82,3.66,14.11,501,1978,7895,0,0,-1
-22.82,3.66,14.11,508,1985,7903,0,-1,-1
-22.82,3.67,14.12,523,1987,7898,0,0,-1
-22.82,3.66,14.12,511,1971,7892,0,0,-1
-22.82,3.65,14.13,505,1995,7879,-1,0,-1
-22.81,3.65,14.13,503,1991,7881,-1,0,-1
-22.81,3.64,14.13,493,1986,7900,-1,0,-1
-22.81,3.64,14.12,500,1989,7901,-1,-1,0
-22.81,3.64,14.12,503,1980,7887,-1,-1,0
-22.81,3.64,14.12,513,1978,7869,0,0,-1
-22.81,3.64,14.13,515,1984,7878,0,0,-1
-22.81,3.63,14.13,516,1984,7875,-1,0,-1
-22.80,3.63,14.13,504,1989,7884,-1,-1,0
-22.81,3.63,14.13,504,1989,7880,0,-1,0
-22.81,3.63,14.14,510,1994,7883,0,-1,0
-22.81,3.63,14.14,513,1981,7877,0,0,-1
-22.81,3.63,14.14,510,1990,7887,0,0,0
-22.81,3.63,14.13,509,1989,7893,-1,0,-1
-22.81,3.63,14.13,507,1976,7891,0,0,-1
-22.81,3.62,14.13,499,1985,7893,-1,0,-1
-22.81,3.62,14.13,494,1982,7891,-1,-1,0
-22.81,3.63,14.13,506,1984,7878,-1,-1,0
-22.82,3.64,14.13,506,1990,7882,-1,-1,0
-22.82,3.64,14.12,515,1981,7886,-1,-1,-1
-22.82,3.64,14.12,509,1980,7888,0,0,-1
-22.82,3.64,14.13,497,1997,7885,0,-1,0
-22.83,3.64,14.13,497,2007,7890,-1,-1,0
-22.83,3.65,14.13,505,1997,7889,-1,-1,0
-22.83,3.65,14.13,510,1991,7894,-1,-1,0
-22.83,3.65,14.12,504,1983,7898,-1,-1,0
-22.83,3.65,14.12,504,1982,7904,-1,-1,0
-22.84,3.65,14.12,506,1978,7894,-1,-1,0
-22.84,3.65,14.12,505,1977,7892,0,-1,0
-22.84,3.65,14.12,506,1978,7890,-1,-1,0
-22.84,3.66,14.11,510,1983,7887,-1,-1,0
-22.85,3.67,14.11,512,1982,7886,-1,-1,0
-22.85,3.67,14.11,516,1981,7880,-1,-1,0
-22.85,3.67,14.10,506,1974,7896,-1,-1,0
-22.85,3.67,14.10,505,1984,7895,-1,-1,0
-22.85,3.67,14.10,508,1974,7894,0,-1,0
-22.85,3.67,14.10,507,1983,7883,0,-1,0
-22.86,3.67,14.11,507,1993,7883,-1,-1,0
-22.86,3.67,14.10,511,1986,7884,-1,-1,0
-22.86,3.67,14.10,513,1980,7882,-1,-1,0
-22.86,3.68,14.09,511,1975,7890,-1,-1,0
-22.86,3.68,14.09,504,1985,7891,-1,-1,0
-22.87,3.68,14.10,502,1985,7902,-1,-1,0
-22.87,3.69,14.09,510,1977,7902,-1,-1,0
-22.88,3.70,14.10,521,1977,7909,0,-1,0
-22.88,3.70,14.10,529,1978,7903,0,-1,0
-22.88,3.70,14.10,525,1981,7898,-1,-1,-1
-22.88,3.70,14.10,510,1985,7892,0,-1,-1
-22.88,3.70,14.10,519,1992,7900,-1,-1,0
-22.88,3.70,14.09,514,1987,7906,-1,-1,0
-22.88,3.70,14.09,517,1977,7889,-1,-1,0
-22.88,3.70,14.09,514,1987,7893,0,-1,0
-22.88,3.71,14.09,515,1993,7896,-1,-1,0
-22.89,3.71,14.09,506,1988,7890,-1,-1,0
-22.89,3.71,14.09,508,1988,7893,-1,-1,0
-22.89,3.71,14.09,514,1985,7895,-1,-1,0
-22.89,3.72,14.08,513,1978,7895,-1,-1,0
-22.90,3.72,14.08,514,1984,7896,-1,-1,0
-22.90,3.72,14.08,518,1983,7890,-1,-1,0
-22.91,3.72,14.08,514,1980,7898,-1,-1,0
-22.91,3.72,14.08,514,1969,7899,-1,-1,0
-22.91,3.73,14.07,521,1966,7897,0,-1,0
-22.92,3.73,14.07,520,1980,7898,0,-1,0
-22.92,3.73,14.07,521,1992,7902,-1,-1,0
-22.92,3.73,14.07,518,1993,7899,-1,-1,0
-22.92,3.74,14.07,524,1984,7908,-1,-1,0
-22.92,3.74,14.07,528,1979,7910,-1,-1,0
-22.92,3.74,14.07,525,1982,7903,0,-1,0
-22.93,3.75,14.07,531,1986,7893,0,-1,0
-22.93,3.75,14.07,531,1994,7892,-1,-1,-1
-22.93,3.75,14.07,532,1995,7892,-1,-1,0
-22.93,3.75,14.06,526,1974,7901,-1,-1,0
-22.94,3.76,14.05,525,1964,7896,-1,-1,0
-22.94,3.77,14.05,527,1972,7887,0,-1,0
-22.94,3.77,14.06,526,1989,7891,0,-1,0
-22.94,3.77,14.06,522,1997,7884,-1,-1,0
-22.94,3.77,14.06,528,1987,7878,-1,-1,0
-22.95,3.77,14.05,524,1978,7886,-1,-1,0
-22.95,3.77,14.05,526,1976,7896,-1,-1,0
-22.95,3.77,14.05,523,1978,7900,0,-1,0
-22.95,3.77,14.05,525,1976,7893,0,-1,0
-22.95,3.77,14.05,527,1984,7890,-1,0,0
-22.95,3.77,14.05,518,1982,7902,-1,-1,0
-22.96,3.78,14.04,525,1970,7891,0,-1,0
-22.96,3.78,14.05,527,1982,7887,0,-1,0
-22.97,3.79,14.05,533,1985,7893,-1,-1,0
-22.97,3.79,14.05,530,1988,7893,-1,-1,0
-22.97,3.79,14.04,534,1976,7905,-1,-1,0
-22.97,3.79,14.04,530,1976,7900,-1,-1,-1
-22.97,3.79,14.04,525,1981,7900,-1,-1,0
-22.97,3.79,14.04,526,1981,7903,0,-1,0
-22.98,3.80,14.05,531,1979,7892,-1,-1,0
-22.98,3.80,14.04,539,1979,7883,0,-1,0
-22.98,3.80,14.04,544,1986,7895,-1,-1,0
-22.98,3.80,14.04,540,1989,7889,-1,0,-1
-22.98,3.80,14.04,531,1983,7897,-1,0,-1
-22.98,3.80,14.04,529,1975,7902,-1,-1,0
-22.98,3.80,14.04,530,1973,7900,-1,-1,0
-22.98,3.80,14.04,524,1978,7908,-1,-1,0
-22.99,3.80,14.04,529,1977,7898,-1,-1,0
-22.99,3.80,14.04,536,1978,7888,0,-1,-1
-22.99,3.80,14.04,537,1995,7897,-1,0,0
-22.99,3.80,14.04,542,1981,7890,-1,-1,-1
-22.99,3.80,14.04,534,1977,7899,-1,0,0
-22.99,3.80,14.04,529,1970,7908,0,-1,-1
-22.98,3.81,14.04,537,1971,7901,0,-1,-1
-22.98,3.81,14.04,533,1970,7897,-1,0,-1
-22.98,3.81,14.04,531,1967,7891,-1,-1,-1
-22.98,3.81,14.04,533,1961,7889,0,-1,-1
-22.98,3.80,14.04,529,1972,7881,0,0,-1
-22.97,3.80,14.05,523,1982,7890,-1,0,-1
-22.97,3.80,14.05,522,1981,7897,-1,0,-1
-22.97,3.79,14.05,520,1974,7894,-1,0,-1
-22.97,3.78,14.04,519,1972,7902,0,0,-1
-22.97,3.78,14.05,524,1971,7894,0,0,-1
-22.97,3.78,14.06,526,1987,7880,0,0,-1
-22.97,3.78,14.06,530,1992,7884,-1,-1,0
-22.97,3.78,14.06,532,1981,7880,-1,-1,-1
-22.97,3.78,14.05,528,1964,7890,0,-1,-1
-22.97,3.78,14.05,522,1960,7897,0,0,-1
-22.96,3.77,14.05,526,1966,7894,0,0,-1
-22.96,3.78,14.06,530,1979,7895,0,0,-1
-22.96,3.78,14.06,535,1987,7891,-1,0,-1
-22.96,3.77,14.06,527,1980,7882,-1,0,-1
-22.96,3.77,14.05,529,1973,7885,-1,0,-1
-22.95,3.76,14.05,525,1975,7895,-1,0,-1
-22.95,3.76,14.05,523,1974,7897,0,0,-1
-22.95,3.75,14.05,517,1983,7891,0,0,-1
-22.95,3.75,14.06,520,1982,7886,0,0,-1
-22.94,3.75,14.06,522,1994,7887,-1,0,0
-22.94,3.75,14.06,524,1992,7889,-1,0,-1
-22.94,3.75,14.06,518,1976,7894,-1,0,0
-22.95,3.75,14.06,520,1969,7902,0,-1,-1
-22.94,3.74,14.06,523,1978,7894,0,0,-1
-22.94,3.74,14.07,528,1989,7884,0,-1,0
-22.94,3.75,14.07,533,1990,7881,-1,0,-1
-22.94,3.75,14.06,522,1980,7887,-1,0,-1
-22.94,3.74,14.06,508,1978,7879,-1,0,-1
-22.94,3.73,14.07,503,1978,7891,0,0,-1
-22.94,3.73,14.07,514,1973,7896,0,-1,-1
-22.94,3.73,14.07,519,1985,7886,0,-1,0
-22.94,3.73,14.07,529,1980,7884,0,0,-1
-22.93,3.73,14.08,532,1982,7877,0,0,-1
-22.93,3.72,14.08,521,1980,7870,-1,0,-1
-22.93,3.71,14.08,512,1984,7882,-1,0,-1
-22.92,3.71,14.08,511,1989,7899,0,0,-1
-22.92,3.70,14.08,509,1979,7896,0,0,-1
-22.91,3.71,14.09,509,1984,7895,0,0,-1
-22.91,3.70,14.09,510,1987,7886,0,0,-1
-22.91,3.70,14.09,511,1991,7875,0,0,-1
-22.91,3.69,14.10,506,1993,7873,0,0,-1
-22.90,3.69,14.10,504,1989,7887,0,0,-1
-22.90,3.68,14.11,512,1995,7882,0,0,-1
-22.90,3.68,14.11,516,1988,7885,0,0,-1
-22.90,3.68,14.11,516,1990,7889,-1,-1,0
-22.90,3.68,14.11,516,1982,7891,0,-1,-1
-22.90,3.68,14.11,520,1974,7879,0,0,-1
-22.90,3.67,14.11,514,1979,7890,-1,0,-1
-22.90,3.67,14.11,516,1976,7891,-1,0,0
-22.89,3.67,14.11,517,1982,7898,-1,0,-1
-22.90,3.66,14.10,520,1984,7898,-1,0,-1
-22.89,3.66,14.10,515,1987,7895,-1,0,-1
-22.89,3.66,14.11,505,1984,7897,0,0,-1
-22.89,3.66,14.11,512,1982,7893,0,0,0
-22.89,3.66,14.11,512,1984,7895,0,0,-1
-22.89,3.65,14.11,505,1988,7888,0,0,-1
-22.89,3.65,14.12,507,1994,7885,-1,0,-1
-22.88,3.65,14.12,502,1988,7885,-1,0,-1
-22.88,3.64,14.11,508,1975,7885,-1,0,0
-22.88,3.64,14.11,501,1975,7892,0,0,-1
-22.88,3.64,14.12,501,1990,7889,0,0,-1
-22.88,3.63,14.12,497,1999,7885,0,0,-1
-22.88,3.63,14.13,501,2004,7887,-1,0,-1
-22.87,3.63,14.12,502,1993,7884,-1,0,-1
-22.87,3.62,14.12,503,1985,7883,-1,0,-1
-22.87,3.62,14.12,500,1988,7890,-1,0,0
-22.87,3.62,14.11,499,1977,7902,-1,0,-1
-22.87,3.61,14.11,499,1987,7890,0,0,-1
-22.87,3.61,14.12,499,1994,7884,0,0,-1
-22.87,3.61,14.12,501,1994,7891,-1,0,-1
-22.86,3.60,14.12,498,1982,7898,0,-1,-1
-22.86,3.60,14.12,501,1990,7900,0,0,-1
-22.86,3.59,14.12,498,1988,7903,-1,-1,-1
-22.86,3.59,14.12,502,1992,7894,-1,0,0
-22.86,3.59,14.12,504,1990,7892,-1,-1,-1
-22.86,3.59,14.12,501,1991,7896,0,0,-1
-22.86,3.58,14.12,491,1996,7911,-1,0,-1
-22.86,3.58,14.11,494,1979,7909,-1,0,0
-22.86,3.58,14.11,489,1973,7900,0,-1,0
-22.86,3.58,14.12,498,1982,7900,0,0,-1
-22.86,3.57,14.12,510,1983,7897,0,0,-1
-22.85,3.57,14.12,503,1986,7903,0,0,-1
-22.85,3.56,14.12,501,1992,7900,-1,0,-1
-22.85,3.56,14.12,501,1986,7910,-1,0,-1
-22.84,3.55,14.11,496,1981,7900,-1,0,-1
-22.84,3.54,14.11,495,1987,7899,0,0,-1
-22.84,3.54,14.12,494,1993,7897,0,0,-1
-22.84,3.54,14.12,501,1995,7900,0,0,-1
-22.84,3.53,14.12,498,1994,7894,0,0,-1
-22.84,3.53,14.12,491,1994,7887,0,0,-1
-22.84,3.52,14.13,487,1996,7886,-1,0,-1
-22.83,3.51,14.12,488,1989,7895,-1,0,-1
-22.83,3.51,14.12,478,1980,7891,-1,0,0
-22.84,3.52,14.12,488,1978,7894,0,0,-1
-22.83,3.51,14.13,496,1987,7889,0,0,-1
-22.83,3.51,14.13,488,1984,7892,-1,0,-1
-22.83,3.50,14.12,485,1984,7889,-1,0,-1
-22.83,3.49,14.12,488,1985,7903,-1,0,-1
-22.83,3.49,14.12,486,1979,7890,-1,0,-1
-22.83,3.49,14.12,487,1993,7900,-1,0,-1
-22.83,3.49,14.12,479,1994,7897,-1,0,-1
-22.83,3.49,14.12,482,1993,7893,0,0,-1
-22.83,3.48,14.13,489,1994,7882,0,0,0
-22.82,3.48,14.13,487,1994,7890,0,-1,-1
-22.82,3.48,14.14,478,1994,7884,0,-1,-1
-22.82,3.48,14.14,481,1995,7887,0,-1,0
-22.82,3.48,14.15,485,1991,7893,0,-1,0
-22.83,3.48,14.15,485,1993,7900,0,-1,0
-22.83,3.48,14.15,481,1994,7899,0,-1,0
-22.83,3.49,14.16,484,2000,7891,0,-1,0
-22.83,3.49,14.17,488,2002,7890,0,-1,0
-22.83,3.49,14.17,488,1996,7888,-1,-1,0
-22.83,3.49,14.17,479,1993,7891,-1,-1,0
-22.83,3.49,14.16,485,1996,7895,0,-1,0
-22.83,3.49,14.16,486,1997,7891,0,-1,0
-22.84,3.50,14.16,482,1999,7893,-1,-1,0
-22.84,3.50,14.16,483,1991,7884,-1,-1,0
-22.84,3.50,14.16,485,1993,7883,0,-1,0
-22.84,3.50,14.17,490,1997,7887,0,-1,0
-22.84,3.51,14.17,493,2005,7889,0,-1,0
-22.84,3.51,14.17,493,2009,7890,-1,-1,0
-22.84,3.52,14.17,490,1995,7882,-1,-1,0
-22.84,3.52,14.17,488,1988,7886,-1,-1,0
-22.85,3.52,14.16,478,1989,7901,-1,-1,0
-22.85,3.53,14.16,487,1990,7902,0,-1,0
-22.85,3.54,14.16,494,1990,7897,0,-1,0
-22.86,3.55,14.17,494,1990,7879,-1,-1,0
-22.86,3.55,14.17,493,1996,7878,-1,-1,0
-22.87,3.55,14.16,499,1994,7889,-1,-1,0
-22.87,3.56,14.16,500,1994,7895,-1,-1,0
-22.88,3.56,14.16,492,1992,7893,-1,-1,0
-22.88,3.57,14.15,491,1987,7895,-1,-1,0
-22.89,3.58,14.15,496,1990,7893,-1,-1,0
-22.89,3.58,14.15,498,1992,7888,-1,-1,0
-22.90,3.59,14.14,503,1993,7886,-1,-1,0
-22.90,3.60,14.14,495,2009,7890,-1,-1,0
-22.90,3.60,14.14,499,2002,7896,-1,-1,0
-22.91,3.60,14.14,502,1990,7889,-1,-1,0
-22.92,3.61,14.13,497,1988,7893,0,-1,0
-22.92,3.61,14.13,499,1985,7887,-1,-1,0
-22.92,3.62,14.14,493,1990,7880,-1,-1,0
-22.92,3.62,14.13,503,1988,7877,-1,-1,0
-22.92,3.63,14.13,505,1982,7876,-1,-1,0
-22.92,3.63,14.13,507,1986,7878,0,-1,0
-22.93,3.63,14.14,512,1997,7886,-1,-1,0
-22.93,3.63,14.13,512,1997,7888,-1,-1,0
-22.94,3.64,14.13,507,1991,7892,-1,-1,0
-22.94,3.64,14.12,511,1985,7892,0,-1,0
-22.94,3.65,14.13,507,1990,7886,0,-1,0
-22.94,3.65,14.13,495,1996,7887,-1,-1,0
-22.94,3.65,14.13,501,1994,7885,-1,-1,0
-22.95,3.65,14.12,499,1983,7895,-1,-1,0
-22.95,3.66,14.12,504,1976,7887,0,-1,0
-22.96,3.66,14.12,497,1982,7886,0,-1,0
-22.96,3.67,14.12,498,1989,7894,-1,-1,0
-22.96,3.68,14.11,505,1984,7887,-1,-1,0
-22.96,3.68,14.11,502,1984,7893,-1,-1,0
-22.97,3.68,14.11,512,1979,7889,-1,-1,0
-22.97,3.68,14.11,510,1983,7882,-1,-1,0
-22.97,3.69,14.11,512,1986,7883,-1,-1,0
-22.98,3.69,14.10,512,1983,7894,-1,-1,0
-22.98,3.69,14.10,508,1989,7895,-1,-1,0
-22.98,3.70,14.10,515,1988,7895,-1,-1,0
-22.99,3.70,14.10,515,1993,7890,-1,-1,0
-22.99,3.70,14.10,520,1988,7880,-1,-1,0
-22.99,3.71,14.10,518,1988,7885,-1,-1,0
-23.00,3.71,14.10,514,1992,7887,-1,-1,0
-23.00,3.72,14.10,513,1981,7894,-1,-1,0
-23.01,3.72,14.10,515,1977,7890,0,-1,0
-23.01,3.73,14.10,516,1986,7891,0,-1,0
-23.01,3.73,14.10,522,1992,7887,-1,-1,0
-23.01,3.73,14.09,524,1988,7893,-1,-1,0
-23.01,3.74,14.09,516,1988,7886,-1,-1,0
-23.02,3.74,14.09,509,1981,7899,-1,-1,0
-23.02,3.74,14.08,508,1972,7906,-1,-1,0
-23.03,3.75,14.08,508,1974,7907,-1,-1,0
-23.03,3.75,14.08,521,1971,7897,0,-1,0
-23.04,3.76,14.08,525,1980,7897,0,-1,0
-23.04,3.76,14.08,526,1991,7893,-1,-1,0
-23.04,3.76,14.07,520,1986,7893,-1,-1,0
-23.04,3.76,14.07,519,1974,7891,-1,-1,0
-23.04,3.77,14.07,519,1976,7894,0,-1,-1
-23.05,3.77,14.07,519,1979,7895,-1,-1,0
-23.05,3.77,14.07,517,1975,7889,-1,-1,0
-23.06,3.77,14.06,522,1973,7906,-1,-1,0
-23.06,3.78,14.06,521,1978,7893,0,-1,0
-23.06,3.78,14.06,518,1993,7889,-1,-1,0
-23.07,3.78,14.06,515,1993,7892,-1,-1,0
-23.07,3.78,14.06,519,1981,7890,-1,-1,0
-23.08,3.78,14.06,519,1977,7893,-1,-1,0
-23.08,3.79,14.05,525,1976,7898,-1,-1,0
-23.08,3.79,14.05,521,1974,7896,-1,-1,0
-23.09,3.79,14.05,522,1971,7887,0,0,0
-23.09,3.79,14.06,522,1980,7891,-1,0,0
-23.10,3.79,14.05,525,1991,7894,-1,-1,0
-23.10,3.79,14.05,529,1984,7893,-1,-1,0
-23.11,3.79,14.04,526,1972,7900,-1,-1,0
-23.11,3.79,14.03,521,1970,7907,-1,-1,0
-23.11,3.79,14.03,526,1969,7900,0,-1,0
-23.11,3.79,14.04,527,1974,7902,0,-1,0
-23.11,3.79,14.05,535,1981,7898,0,-1,0
-23.12,3.79,14.05,554,1983,7887,0,0,0
-23.14,3.77,14.05,489,1943,7901,0,0,0
-23.13,3.79,14.07,529,2002,7898,-1,-1,-1
-23.13,3.80,14.07,545,2006,7883,-1,-1,-1
-23.13,3.80,14.06,543,1987,7883,-1,0,-1
-23.13,3.79,14.06,538,1984,7879,-1,0,-1
-23.12,3.79,14.05,527,1973,7886,-1,-1,0
-23.12,3.78,14.05,526,1959,7892,0,0,-1
-23.11,3.78,14.06,524,1984,7897,0,0,-1
-23.11,3.78,14.07,532,1994,7902,-1,-1,-1
-23.11,3.78,14.06,520,1982,7899,-1,-1,0
-23.11,3.78,14.06,522,1974,7889,-1,-1,0
-23.11,3.78,14.06,517,1967,7889,-1,-1,-1
-23.10,3.78,14.06,521,1976,7894,0,-1,-1
-23.10,3.78,14.06,518,1990,7885,0,0,-1
-23.10,3.78,14.06,518,1992,7895,-1,-1,-1
-23.10,3.78,14.06,521,1978,7895,-1,-1,0
-23.10,3.78,14.06,527,1963,7891,0,-1,-1
-23.10,3.78,14.06,527,1970,7884,0,-1,-1
-23.10,3.78,14.06,522,1979,7878,-1,-1,-1
-23.10,3.78,14.06,530,1974,7875,-1,0,0
-23.10,3.77,14.06,522,1980,7891,-1,0,-1
-23.09,3.77,14.06,516,1979,7897,0,-1,-1
-23.09,3.76,14.06,517,1979,7891,0,-1,-1
-23.09,3.77,14.06,522,1976,7890,-1,-1,0
-23.09,3.76,14.06,522,1973,7898,0,-1,-1
-23.09,3.77,14.07,521,1981,7890,0,0,-1
-23.08,3.76,14.07,521,1995,7887,0,-1,-1
-23.08,3.76,14.07,516,1993,7893,-1,0,-1
-23.08,3.75,14.07,519,1984,7895,-1,0,-1
-23.07,3.75,14.07,515,1980,7886,-1,0,-1
-23.07,3.74,14.07,509,1980,7892,0,-1,-1
-23.07,3.74,14.07,520,1984,7891,0,0,-1
-23.07,3.75,14.08,512,1985,7881,0,0,-1
-23.07,3.74,14.08,515,1980,7883,-1,0,0
-23.07,3.74,14.08,509,1976,7888,0,-1,-1
-23.06,3.73,14.08,512,1984,7893,-1,-1,0
-23.06,3.73,14.08,518,1985,7895,-1,0,-1
-23.06,3.73,14.08,515,1986,7894,-1,0,0
-23.06,3.72,14.08,514,1985,7903,0,-1,0
-23.06,3.72,14.08,521,1981,7899,0,-1,-1
-23.06,3.72,14.08,511,1988,7897,0,-1,0
-23.06,3.72,14.08,517,1988,7895,-1,0,0
-23.06,3.72,14.08,519,1979,7890,-1,0,-1
-23.06,3.72,14.08,521,1984,7893,-1,0,-1
-23.06,3.72,14.08,519,1974,7899,-1,0,0
-23.06,3.71,14.07,513,1973,7899,0,0,-1
-23.05,3.70,14.07,514,1980,7901,0,0,-1
-23.05,3.70,14.08,511,1981,7896,0,-1,0
-23.05,3.70,14.08,518,1985,7895,0,-1,-1
-23.05,3.70,14.09,518,1990,7895,0,0,0
-23.05,3.70,14.09,514,1985,7894,-1,-1,0
-23.05,3.70,14.09,509,1987,7905,0,0,-1
-23.05,3.70,14.09,512,1979,7902,0,-1,-1
-23.05,3.69,14.09,510,1982,7896,0,0,-1
-23.05,3.69,14.09,514,1982,7889,0,0,0
-23.04,3.69,14.10,512,1985,7887,0,0,-1
-23.04,3.68,14.10,512,1991,7890,-1,0,-1
-23.04,3.67,14.09,507,1988,7895,-1,0,-1
-23.04,3.67,14.09,498,1979,7891,-1,0,-1
-23.04,3.67,14.09,496,1985,7897,0,0,-1
-23.04,3.66,14.09,494,1986,7889,-1,0,0
-23.04,3.65,14.10,491,1982,7886,0,0,0
-23.04,3.65,14.10,490,1983,7888,-1,0,-1
-23.04,3.65,14.10,498,1986,7887,0,-1,-1
-23.03,3.65,14.10,496,1992,7895,0,0,-1
-23.03,3.65,14.10,508,1997,7905,-1,-1,0
-23.03,3.65,14.10,504,1993,7900,-1,-1,0
-23.03,3.64,14.11,503,1981,7888,0,0,0
-23.03,3.64,14.11,502,1981,7899,0,-1,0
-23.03,3.64,14.11,503,1982,7895,0,-1,-1
-23.03,3.64,14.11,503,1985,7894,-1,0,0
-23.03,3.63,14.11,502,1985,7892,-1,0,-1
-23.03,3.63,14.11,496,1985,7904,-1,0,-1
-23.03,3.62,14.10,488,1984,7907,-1,-1,0
-23.03,3.62,14.10,493,1985,7901,0,-1,0
-23.03,3.62,14.11,499,1985,7893,0,-1,-1
-23.02,3.61,14.12,503,1987,7892,0,0,-1
-23.02,3.61,14.12,511,1992,7894,0,0,-1
-23.02,3.61,14.12,511,1993,7895,-1,0,-1
-23.02,3.61,14.11,502,1988,7902,0,0,-1
-23.02,3.60,14.11,497,1988,7901,-1,0,-1
-23.01,3.59,14.11,490,1990,7895,0,0,0
-23.01,3.59,14.12,492,1995,7907,0,0,0
-23.01,3.59,14.12,498,1998,7910,0,0,-1
-23.01,3.59,14.13,502,1996,7904,-1,0,0
-23.01,3.59,14.13,490,1998,7901,-1,-1,-1
-23.01,3.58,14.12,489,1988,7886,-1,0,0
-23.01,3.57,14.13,480,1991,7887,-1,-1,0
-23.01,3.57,14.13,484,1997,7886,0,-1,-1
-23.01,3.57,14.13,489,1997,7893,-1,-1,0
-23.01,3.57,14.13,493,2000,7889,-1,-1,0
-23.01,3.57,14.13,493,2006,7871,-1,-1,0
-23.01,3.57,14.13,498,1978,7873,-1,-1,-1
-23.01,3.57,14.13,495,1980,7885,0,0,-1
-23.01,3.57,14.13,489,1987,7886,0,0,-1
-23.00,3.56,14.13,488,1984,7896,-1,0,0
-23.00,3.56,14.13,484,1989,7891,0,-1,0
-23.00,3.56,14.13,484,1991,7890,0,-1,0
-23.00,3.55,14.14,486,1992,7887,0,-1,0
-23.00,3.55,14.14,484,1992,7889,0,-1,0
-23.00,3.55,14.14,478,1996,7885,0,-1,-1
-23.00,3.55,14.14,484,1996,7893,0,-1,0
-23.00,3.55,14.15,480,1996,7892,0,-1,0
-23.00,3.55,14.15,482,1985,7888,0,-1,0
-22.99,3.55,14.15,485,1987,7891,0,-1,0
-22.99,3.55,14.15,483,2000,7890,0,-1,0
-23.00,3.55,14.16,482,2011,7891,0,-1,0
-23.00,3.55,14.16,490,2002,7892,-1,-1,0
-23.00,3.55,14.16,484,1995,7889,-1,-1,0
-23.00,3.55,14.15,480,1984,7890,-1,-1,0
-23.01,3.55,14.15,483,1994,7898,0,-1,0
-23.01,3.56,14.16,491,1993,7898,-1,-1,0
-23.01,3.56,14.15,494,1985,7888,-1,-1,-1
-23.01,3.56,14.16,490,1992,7885,-1,-1,0
-23.01,3.56,14.15,479,1986,7898,0,-1,0
-23.01,3.56,14.16,483,1998,7894,0,-1,0
-23.01,3.57,14.16,480,2009,7892,0,-1,0
-23.00,3.57,14.17,483,2009,7879,-1,-1,0
-23.01,3.57,14.16,483,2001,7880,-1,-1,0
-23.01,3.57,14.15,481,1987,7893,-1,-1,0
-23.01,3.58,14.15,487,1983,7889,0,-1,0
-23.02,3.58,14.15,492,1977,7894,0,-1,0
-23.02,3.59,14.16,490,1989,7886,0,-1,0
-23.02,3.59,14.16,501,1993,7883,-1,-1,0
-23.03,3.60,14.16,502,1995,7876,-1,-1,0
-23.03,3.60,14.16,505,1995,7890,-1,-1,-1
-23.03,3.60,14.16,500,1993,7885,-1,-1,0
-23.03,3.60,14.16,494,1994,7891,-1,-1,0
-23.03,3.60,14.15,494,1994,7902,-1,-1,0
-23.03,3.60,14.15,489,1989,7901,0,-1,0
-23.03,3.60,14.16,485,1992,7892,-1,-1,0
-23.04,3.61,14.15,498,1995,7891,-1,-1,0
-23.04,3.62,14.15,509,2000,7882,-1,-1,0
-23.05,3.62,14.14,508,1995,7885,-1,-1,0
-23.05,3.62,14.14,509,1993,7881,-1,-1,0
-23.05,3.62,14.14,497,1994,7881,-1,-1,0
-23.06,3.63,14.14,500,1986,7883,-1,-1,0
-23.06,3.64,14.14,508,1987,7882,-1,-1,0
-23.06,3.65,14.14,502,1991,7885,-1,-1,0
-23.07,3.65,14.14,498,1986,7893,-1,-1,0
-23.07,3.65,14.13,492,1982,7888,-1,-1,0
-23.08,3.65,14.13,493,1989,7888,-1,-1,0
-23.08,3.65,14.14,503,1998,7884,-1,-1,0
-23.08,3.66,14.13,503,1995,7881,-1,-1,0
-23.09,3.66,14.12,500,1984,7894,-1,-1,0
-23.09,3.67,14.12,502,1984,7904,-1,-1,0
-23.10,3.67,14.12,511,1987,7901,-1,-1,0
-23.10,3.67,14.12,513,1990,7900,-1,-1,0
-23.10,3.67,14.12,507,1992,7890,-1,-1,0
-23.10,3.67,14.12,505,1994,7890,-1,-1,0
-23.10,3.68,14.11,498,1985,7890,-1,-1,0
-23.11,3.68,14.11,493,1988,7884,0,-1,0
-23.11,3.68,14.12,495,1993,7888,-1,-1,0
-23.12,3.68,14.12,497,1991,7885,-1,-1,0
-23.12,3.69,14.12,503,1989,7882,-1,-1,0
-23.12,3.69,14.12,506,1985,7888,-1,-1,0
-23.13,3.69,14.12,507,1988,7891,-1,-1,0
-23.13,3.70,14.12,505,1989,7884,0,-1,0
-23.13,3.70,14.12,503,1989,7890,-1,-1,0
-23.13,3.70,14.12,510,1988,7887,-1,-1,0
-23.14,3.70,14.11,515,1990,7889,-1,-1,0
-23.14,3.71,14.11,522,1991,7896,-1,-1,0
-23.14,3.71,14.10,521,1981,7894,-1,-1,0
-23.14,3.72,14.10,517,1982,7892,0,-1,0
-23.15,3.72,14.10,510,1988,7887,-1,-1,0
-23.15,3.72,14.10,506,1998,7884,-1,-1,0
-23.16,3.73,14.10,508,1993,7884,-1,-1,0
-23.16,3.73,14.10,513,1999,7889,-1,-1,0
-23.16,3.73,14.10,506,1991,7897,-1,-1,0
-23.16,3.73,14.09,508,1986,7897,-1,-1,0
-23.18,3.74,14.08,508,1976,7898,-1,-1,0
-23.18,3.75,14.09,523,1977,7899,0,-1,0
-23.18,3.75,14.10,526,1992,7883,0,-1,0
-23.18,3.76,14.10,524,2000,7888,-1,-1,0
-23.18,3.76,14.10,517,1991,7890,-1,-1,0
-23.18,3.76,14.09,515,1985,7891,-1,-1,0
-23.18,3.76,14.09,525,1982,7895,-1,-1,0
-23.19,3.76,14.08,516,1976,7895,-1,-1,0
-23.18,3.76,14.09,508,1989,7891,0,-1,0
-23.19,3.76,14.09,519,1994,7881,-1,-1,0
-23.19,3.76,14.09,520,1989,7880,-1,-1,0
-23.20,3.77,14.09,522,1984,7890,-1,-1,0
-23.20,3.77,14.08,525,1977,7888,-1,-1,0
-23.20,3.77,14.08,521,1981,7893,-1,-1,0
-23.21,3.78,14.08,523,1986,7901,-1,-1,0
-23.21,3.78,14.08,527,1980,7900,-1,-1,0
-23.22,3.79,14.07,534,1969,7899,-1,-1,0
-23.22,3.79,14.07,535,1968,7901,-1,-1,0
-23.22,3.79,14.07,527,1974,7894,0,-1,0
-23.22,3.79,14.07,522,1985,7887,-1,-1,0
-23.22,3.79,14.07,518,1993,7887,-1,0,0
-23.22,3.79,14.07,522,1987,7896,-1,-1,0
-23.23,3.79,14.06,523,1978,7889,-1,-1,0
-23.23,3.79,14.06,520,1972,7895,0,-1,0
-23.23,3.79,14.06,523,1977,7891,0,-1,0
-23.23,3.79,14.07,523,1987,7884,0,-1,0
-23.22,3.79,14.07,528,1985,7879,0,-1,-1
-23.22,3.79,14.07,524,1990,7875,-1,-1,0
-23.22,3.79,14.08,523,1979,7889,-1,0,0
-23.22,3.79,14.08,520,1971,7895,-1,-1,0
-23.22,3.79,14.08,521,1964,7893,0,-1,-1
-23.22,3.79,14.08,527,1976,7896,0,-1,-1
-23.22,3.79,14.08,522,1988,7895,0,0,-1
-23.22,3.79,14.08,526,1987,7893,-1,-1,0
-23.22,3.78,14.08,525,1981,7885,-1,-1,-1
-23.22,3.78,14.08,526,1975,7889,0,-1,-1
-23.22,3.78,14.08,523,1974,7906,0,0,-1
-23.21,3.78,14.09,522,1984,7894,0,-1,0
-23.21,3.78,14.09,521,1992,7897,-1,-1,0
-23.21,3.78,14.09,532,1986,7893,-1,-1,0
-23.22,3.78,14.08,526,1983,7896,-1,-1,0
-23.22,3.78,14.08,519,1972,7881,-1,-1,0
-23.21,3.77,14.09,518,1976,7888,0,-1,0
-23.21,3.77,14.09,522,1986,7898,0,-1,-1
-23.21,3.77,14.09,516,1980,7883,0,-1,-1
-23.21,3.77,14.09,508,1986,7886,0,-1,-1
-23.21,3.76,14.10,507,1996,7888,-1,0,-1
-23.21,3.75,14.10,507,1989,7896,-1,0,-1
-23.19,3.74,14.10,502,1986,7901,-1,-1,0
-23.21,3.75,14.10,514,1982,7907,0,-1,0
-23.21,3.75,14.10,521,1984,7898,0,-1,0
-23.20,3.75,14.10,531,1984,7884,0,-1,-1
-23.20,3.75,14.11,524,1987,7872,0,0,-1
-23.20,3.74,14.11,520,1993,7876,-1,0,0
-23.19,3.74,14.11,520,1983,7892,-1,0,-1
-23.19,3.73,14.11,515,1983,7899,0,-1,-1
-23.19,3.73,14.11,518,1995,7890,0,-1,-1
-23.18,3.73,14.11,515,2001,7887,-1,-1,0
-23.19,3.73,14.11,516,1996,7886,-1,-1,0
-23.19,3.73,14.11,517,1992,7887,-1,0,-1
-23.19,3.73,14.11,517,1990,7893,0,0,-1
-23.18,3.72,14.11,525,1983,7889,0,0,-1
-23.18,3.73,14.12,517,1988,7895,0,0,-1
-23.18,3.72,14.12,510,1986,7897,-1,0,-1
-23.18,3.72,14.11,504,1984,7895,-1,-1,-1
-23.18,3.72,14.11,509,1982,7886,0,-1,0
-23.18,3.71,14.11,508,1985,7889,-1,0,-1
-23.17,3.71,14.11,514,1981,7893,0,0,-1
-23.17,3.70,14.12,513,1984,7890,0,0,-1
-23.17,3.70,14.11,506,1979,7882,-1,0,-1
-23.16,3.70,14.12,505,1980,7889,-1,0,-1
-23.16,3.69,14.12,508,1984,7891,0,0,-1
-23.16,3.69,14.12,508,1977,7894,0,0,-1
-23.16,3.68,14.12,508,1987,7886,0,0,0
-23.16,3.68,14.12,512,1989,7886,0,-1,-1
-23.15,3.68,14.14,511,2005,7886,0,-1,-1
-23.15,3.68,14.13,507,1993,7892,-1,-1,-1
-23.15,3.68,14.13,503,1983,7880,-1,0,0
-23.15,3.67,14.13,501,1980,7888,0,-1,-1
-23.15,3.67,14.13,497,1990,7891,0,0,-1
-23.14,3.67,14.14,508,2005,7881,0,-1,-1
-23.15,3.67,14.15,512,2003,7883,-1,-1,0
-23.14,3.67,14.14,510,1993,7884,-1,0,0
-23.14,3.66,14.14,506,1985,7886,-1,0,-1
-23.14,3.66,14.14,507,1980,7893,-1,0,-1
-23.14,3.65,14.14,504,1983,7894,0,0,-1
-23.14,3.65,14.14,504,1990,7890,-1,0,0
-23.14,3.64,14.14,499,1995,7893,-1,0,0
-23.14,3.64,14.13,494,1986,7891,-1,0,0
-23.14,3.63,14.13,497,1981,7895,0,0,-1
-23.14,3.63,14.14,498,1994,7895,0,-1,-1
-23.14,3.63,14.14,497,1996,7894,-1,-1,0
-23.14,3.63,14.14,498,1991,7894,0,0,-1
-23.14,3.62,14.14,500,1989,7896,0,0,0
-23.14,3.62,14.14,490,1984,7892,-1,0,0
-23.13,3.61,14.15,491,1990,7897,0,-1,0
-23.14,3.62,14.15,496,1994,7900,0,-1,0
-23.14,3.62,14.16,505,2011,7893,0,0,0
-23.14,3.62,14.16,506,1997,7883,-1,0,-1
-23.14,3.61,14.15,506,1984,7883,-1,0,0
-23.13,3.61,14.15,501,1985,7902,0,0,-1
-23.13,3.60,14.16,496,1988,7890,0,0,-1
-23.13,3.59,14.16,492,1990,7896,0,0,-1
-23.12,3.59,14.16,490,2000,7900,-1,0,-1
-23.12,3.58,14.16,495,2000,7892,-1,0,-1
-23.12,3.58,14.16,503,2000,7895,-1,0,-1
-23.12,3.57,14.16,493,1996,7892,-1,0,0
-23.12,3.57,14.16,489,2004,7898,0,0,-1
-23.11,3.56,14.17,489,2008,7892,-1,0,-1
-23.11,3.55,14.17,482,2002,7889,-1,0,-1
-23.11,3.55,14.17,474,1990,7898,-1,0,0
-23.11,3.54,14.16,476,1986,7899,-1,-1,0
-23.11,3.54,14.16,493,1976,7889,0,0,-1
-23.11,3.54,14.16,491,1983,7894,0,0,-1
-23.11,3.53,14.16,486,1985,7890,0,0,-1
-23.11,3.52,14.16,490,1987,7894,0,0,-1
-23.10,3.52,14.17,479,1990,7893,-1,0,-1
-23.10,3.52,14.17,485,1990,7891,-1,0,-1
-23.10,3.51,14.17,486,1995,7891,0,0,-1
-23.10,3.51,14.17,484,1994,7897,0,0,-1
-23.10,3.50,14.17,481,1994,7896,0,0,0
-23.10,3.50,14.17,479,1992,7896,-1,0,-1
-23.10,3.50,14.18,482,1994,7890,0,-1,-1
-23.10,3.50,14.18,481,2002,7893,0,0,-1
-23.09,3.50,14.18,468,2012,7899,0,-1,-1
-23.09,3.50,14.18,475,2001,7893,0,-1,0
-23.09,3.50,14.19,477,1992,7894,0,-1,-1
-23.09,3.50,14.19,485,1995,7884,0,-1,-1
-23.09,3.50,14.20,490,1993,7872,0,-1,-1
-23.09,3.50,14.20,480,2002,7876,-1,0,-1
-23.09,3.50,14.20,479,1998,7890,-1,-1,0
-23.09,3.50,14.20,482,2000,7893,-1,-1,0
-23.09,3.50,14.19,479,1986,7901,0,-1,-1
-23.09,3.50,14.20,480,1986,7889,0,-1,-1
-23.09,3.50,14.20,476,2004,7885,0,-1,0
-23.10,3.51,14.20,480,2011,7879,-1,-1,0
-23.11,3.51,14.19,484,2004,7881,-1,-1,0
-23.11,3.52,14.19,478,2004,7896,-1,-1,0
-23.11,3.52,14.19,469,1996,7904,-1,-1,0
-23.12,3.52,14.19,479,1988,7899,-1,-1,0
-23.13,3.53,14.18,489,1987,7902,0,-1,0
-23.13,3.54,14.19,493,1988,7909,0,-1,0
-23.13,3.55,14.19,494,1993,7888,0,-1,0
-23.13,3.55,14.19,495,1996,7886,-1,-1,0
-23.13,3.55,14.19,496,2007,7888,-1,-1,-1
-23.13,3.55,14.19,493,1998,7900,-1,-1,0
-23.14,3.56,14.18,489,1982,7890,0,-1,-1
-23.14,3.56,14.18,487,1982,7892,-1,-1,0
-23.14,3.57,14.18,486,1997,7889,0,-1,0
-23.14,3.57,14.18,497,2003,7880,0,-1,0
-23.14,3.57,14.18,485,2010,7887,-1,-1,0
-23.15,3.57,14.18,481,2009,7892,-1,-1,0
-23.15,3.57,14.17,485,1999,7896,-1,-1,0
-23.16,3.57,14.18,496,1994,7890,0,-1,0
-23.16,3.58,14.17,495,1990,7896,0,-1,0
-23.16,3.58,14.18,495,1996,7888,0,-1,0
-23.16,3.58,14.18,496,1994,7893,-1,-1,0
-23.17,3.59,14.17,497,1980,7888,-1,-1,0
-23.17,3.59,14.17,497,1985,7887,0,-1,0
-23.17,3.60,14.18,504,1993,7880,0,-1,0
-23.17,3.60,14.18,500,2002,7884,-1,-1,0
-23.18,3.60,14.17,503,1997,7890,-1,-1,0
-23.18,3.60,14.17,500,1993,7894,-1,-1,0
-23.18,3.60,14.17,498,1994,7892,0,-1,0
-23.18,3.61,14.17,500,1995,7893,0,-1,0
-23.19,3.61,14.17,496,2005,7883,-1,-1,0
-23.19,3.61,14.17,498,2006,7888,-1,-1,0
-23.20,3.61,14.17,490,2008,7895,-1,-1,0
-23.20,3.62,14.17,489,2004,7907,-1,-1,0
-23.21,3.62,14.17,495,1999,7904,-1,-1,0
-23.21,3.63,14.16,497,1990,7895,0,-1,0
-23.21,3.63,14.16,501,1990,7888,0,-1,0
-23.21,3.64,14.17,500,1997,7881,0,-1,0
-23.21,3.64,14.17,502,2005,7892,-1,-1,0
-23.21,3.64,14.17,502,2000,7892,-1,-1,0
-23.22,3.64,14.16,505,1999,7893,-1,-1,0
-23.22,3.65,14.16,502,1987,7887,-1,-1,0
-23.22,3.66,14.16,505,1984,7883,0,-1,-1
-23.23,3.66,14.17,510,1997,7887,0,-1,0
-23.23,3.66,14.17,503,2003,7885,-1,-1,0
-23.23,3.66,14.16,506,2003,7888,-1,-1,0
-23.24,3.67,14.16,508,1987,7894,-1,-1,0
-23.24,3.67,14.15,501,1980,7897,0,-1,0
-23.25,3.68,14.15,500,1983,7905,-1,-1,0
-23.25,3.68,14.15,505,1997,7891,-1,-1,0
-23.26,3.69,14.14,507,1994,7881,-1,-1,0
-23.26,3.69,14.14,505,1982,7879,-1,-1,0
-23.26,3.69,14.13,505,1978,7886,-1,-1,0
-23.27,3.70,14.13,511,1985,7898,0,-1,0
-23.27,3.70,14.13,512,1990,7898,0,-1,0
-23.27,3.70,14.13,516,1984,7895,0,-1,0
-23.27,3.71,14.13,517,1980,7883,0,-1,0
-23.28,3.71,14.13,519,1985,7880,-1,-1,0
-23.28,3.71,14.12,517,1989,7881,-1,-1,0
-23.28,3.71,14.12,515,1982,7888,-1,-1,0
-23.28,3.72,14.12,520,1983,7896,-1,-1,0
-23.29,3.72,14.12,513,1982,7896,-1,-1,0
-23.29,3.72,14.12,512,1991,7898,-1,-1,0
-23.29,3.73,14.12,515,1996,7891,-1,-1,0
-23.30,3.73,14.12,509,1987,7899,-1,-1,0
-23.30,3.73,14.11,511,1985,7895,-1,-1,0
-23.30,3.73,14.11,514,1984,7892,0,-1,0
-23.30,3.73,14.11,523,1986,7885,-1,-1,0
-23.31,3.74,14.11,521,1984,7890,-1,-1,0
-23.31,3.75,14.10,522,1981,7893,-1,-1,0
-23.32,3.74,14.09,526,1972,7891,-1,-1,0
-23.32,3.75,14.09,525,1962,7882,0,-1,-1
-23.32,3.75,14.09,520,1975,7873,-1,-1,0
-23.32,3.75,14.09,520,1991,7878,-1,-1,0
-23.32,3.76,14.09,518,1998,7881,-1,-1,0
-23.32,3.76,14.09,519,1991,7881,-1,-1,0
-23.32,3.76,14.08,524,1972,7897,-1,-1,0
-23.32,3.76,14.08,520,1971,7900,0,-1,0
-23.32,3.77,14.09,525,1986,7905,0,-1,-1
-23.33,3.77,14.09,522,1989,7899,0,-1,0
-23.33,3.77,14.09,523,1992,7890,-1,-1,0
-23.33,3.77,14.08,520,1986,7886,-1,-1,0
-23.34,3.77,14.08,513,1978,7889,-1,-1,0
-23.34,3.77,14.08,520,1974,7891,0,-1,0
-23.34,3.77,14.08,522,1979,7898,-1,-1,0
-23.34,3.77,14.08,524,1980,7897,0,-1,0
-23.35,3.78,14.08,520,1985,7893,-1,0,0
-23.35,3.77,14.08,519,1986,7890,-1,0,-1
-23.34,3.77,14.08,521,1985,7890,-1,0,-1
-23.34,3.77,14.08,520,1982,7898,-1,0,-1
-23.34,3.77,14.08,525,1979,7897,0,0,-1
-23.34,3.77,14.08,525,1980,7903,0,-1,-1
-23.34,3.76,14.08,518,1980,7904,0,0,-1
-23.34,3.76,14.08,515,1984,7905,0,-1,-1
-23.34,3.76,14.09,523,1988,7898,0,-1,-1
-23.34,3.76,14.09,525,1992,7902,-1,-1,-1
-23.34,3.76,14.09,518,1990,7902,-1,0,-1
-23.34,3.75,14.08,515,1981,7899,-1,0,0
-23.34,3.75,14.08,509,1971,7893,0,-1,-1
-23.33,3.75,14.09,517,1975,7889,0,-1,-1
-23.33,3.75,14.10,522,1996,7892,0,-1,-1
-23.33,3.75,14.09,525,1996,7883,-1,-1,0
-23.33,3.75,14.09,520,1989,7892,-1,-1,-1
-23.33,3.74,14.08,516,1971,7897,-1,0,-1
-23.33,3.74,14.08,509,1968,7909,0,0,-1
-23.33,3.74,14.08,508,1983,7900,0,0,0
-23.33,3.74,14.09,522,1985,7896,0,-1,0
-23.33,3.75,14.09,530,1979,7892,0,0,-1
-23.33,3.75,14.10,529,1989,7877,0,0,-1
-23.33,3.74,14.10,531,1996,7878,-1,0,-1
-23.33,3.74,14.10,526,1990,7887,-1,0,-1
-23.33,3.74,14.09,514,1987,7890,0,-1,-1
-23.32,3.74,14.10,514,1979,7887,0,-1,-1
-23.32,3.74,14.10,515,1982,7884,0,-1,-1
-23.32,3.73,14.11,521,1983,7875,0,0,-1
-23.32,3.73,14.11,519,1983,7888,-1,0,-1
-23.31,3.73,14.11,514,1997,7895,0,0,-1
-23.31,3.73,14.11,508,1994,7898,0,-1,-1
-23.31,3.73,14.11,516,1994,7886,-1,0,-1
-23.31,3.72,14.11,514,1986,7882,-1,0,-1
-23.31,3.72,14.11,512,1988,7888,-1,0,-1
-23.31,3.72,14.11,519,1985,7888,0,0,-1
-23.30,3.72,14.12,519,1994,7886,0,0,-1
-23.30,3.71,14.12,518,1988,7885,-1,0,-1
-23.30,3.71,14.12,515,1989,7873,0,0,0
-23.30,3.71,14.11,515,1985,7883,-1,0,-1
-23.30,3.71,14.11,519,1990,7883,0,0,-1
-23.30,3.71,14.11,514,1992,7887,-1,0,-1
-23.30,3.70,14.11,514,1984,7883,0,0,-1
-23.30,3.70,14.12,510,1983,7897,0,-1,-1
-23.30,3.70,14.12,508,1988,7901,0,0,-1
-23.29,3.69,14.13,506,1989,7890,0,-1,-1
-23.29,3.69,14.13,512,1991,7881,0,0,-1
-23.29,3.69,14.13,501,1991,7880,0,0,-1
-23.29,3.69,14.13,504,1990,7889,-1,0,-1
-23.29,3.69,14.13,503,1991,7886,0,-1,-1
-23.29,3.68,14.13,508,1989,7892,0,0,-1
-23.29,3.68,14.13,514,1988,7893,-1,0,-1
-23.29,3.68,14.13,515,1990,7890,-1,0,-1
-23.29,3.67,14.13,506,1988,7888,-1,0,-1
-23.28,3.67,14.13,509,1998,7889,-1,0,-1
-23.27,3.66,14.13,506,2000,7889,-1,0,-1
-23.27,3.66,14.13,504,1989,7887,0,0,-1
-23.27,3.66,14.14,505,1994,7887,0,0,-1
-23.27,3.66,14.14,506,1990,7891,0,0,-1
-23.27,3.65,14.14,511,1995,7892,0,0,-1
-23.27,3.65,14.14,511,1993,7894,0,0,-1
-23.27,3.65,14.14,507,1999,7887,-1,0,-1
-23.26,3.65,14.15,507,1994,7890,-1,0,-1
-23.27,3.64,14.14,506,1988,7891,-1,0,0
-23.26,3.64,14.14,497,1973,7887,0,0,-1
-23.26,3.64,14.15,500,1989,7889,0,0,-1
-23.26,3.63,14.16,502,1999,7888,0,0,-1
-23.26,3.63,14.15,508,1999,7897,-1,0,-1
-23.26,3.63,14.15,505,1999,7892,-1,0,-1
-23.26,3.62,14.14,492,1990,7891,-1,0,-1
-23.26,3.62,14.14,493,1992,7891,-1,0,-1
-23.26,3.62,14.14,490,1988,7892,0,0,0
-23.26,3.62,14.15,502,1989,7885,-1,-1,0
-23.25,3.61,14.15,510,1995,7874,0,0,-1
-23.25,3.61,14.15,505,1983,7868,-1,0,-1
-23.25,3.60,14.15,498,1982,7882,-1,0,-1
-23.25,3.60,14.15,492,1989,7897,-1,0,-1
-23.25,3.59,14.15,491,1988,7907,-1,0,-1
-23.25,3.59,14.15,490,1980,7905,0,0,-1
-23.25,3.59,14.16,495,1995,7887,0,0,-1
-23.24,3.58,14.16,490,1994,7893,0,0,-1
-23.24,3.58,14.16,493,1991,7890,-1,0,-1
-23.24,3.58,14.16,487,1993,7898,0,0,-1
-23.24,3.58,14.16,492,2001,7894,0,0,-1
-23.24,3.57,14.17,498,1999,7892,0,0,-1
-23.24,3.57,14.17,497,2002,7895,-1,0,0
-23.24,3.57,14.16,497,1996,7903,-1,-1,0
-23.24,3.57,14.15,500,1986,7897,-1,0,0
-23.24,3.57,14.15,496,1980,7893,-1,-1,-1
-23.24,3.57,14.15,497,1981,7889,0,0,-1
-23.24,3.56,14.16,496,1992,7880,-1,0,-1
-23.24,3.56,14.15,498,1994,7884,-1,0,-1
-23.24,3.55,14.15,497,1993,7898,-1,0,-1
-23.24,3.55,14.14,501,1980,7901,-1,0,-1
-23.24,3.54,14.14,492,1974,7897,0,0,-1
-23.24,3.54,14.15,484,1985,7888,0,0,-1
-23.23,3.54,14.16,488,2002,7890,-1,0,-1
-23.23,3.53,14.16,487,2007,7890,-1,0,-1
-23.23,3.53,14.16,489,1999,7893,-1,0,-1
-23.23,3.52,14.16,482,1987,7893,-1,0,0
-23.23,3.52,14.16,480,1988,7890,0,0,-1
-23.23,3.52,14.16,480,1990,7889,0,0,-1
-23.23,3.52,14.16,482,2000,7890,0,0,-1
-23.23,3.51,14.17,487,2001,7884,-1,0,-1
-23.23,3.51,14.17,486,2011,7885,-1,0,-1
-23.23,3.50,14.17,483,2002,7889,-1,0,-1
-23.23,3.50,14.16,482,1992,7887,-1,0,-1
-23.23,3.50,14.16,488,1988,7882,0,0,-1
-23.22,3.50,14.17,489,1995,7879,0,0,-1
-23.22,3.50,14.17,488,1990,7885,0,0,-1
-23.22,3.50,14.17,478,1993,7881,-1,-1,0
-23.22,3.49,14.17,475,1986,7888,0,0,-1
-23.21,3.49,14.18,482,1986,7888,0,-1,-1
-23.21,3.49,14.19,483,2009,7894,0,-1,0
-23.22,3.49,14.19,484,2011,7887,-1,-1,0
-23.22,3.50,14.19,482,2013,7890,-1,-1,0
-23.22,3.50,14.19,480,1999,7893,-1,-1,0
-23.22,3.50,14.19,480,1988,7893,0,-1,0
-23.22,3.50,14.19,478,1990,7898,0,-1,0
-23.23,3.51,14.19,482,2000,7895,0,-1,0
-23.23,3.51,14.19,492,2001,7885,0,-1,0
-23.23,3.52,14.20,494,2001,7877,-1,-1,0
-23.23,3.52,14.20,491,1997,7873,-1,-1,0
-23.23,3.52,14.19,487,2000,7877,-1,-1,0
-23.23,3.52,14.19,484,1997,7882,-1,-1,0
-23.23,3.52,14.19,481,2000,7890,-1,-1,0
-23.24,3.53,14.19,483,1999,7886,0,-1,0
-23.24,3.53,14.19,481,2002,7884,-1,-1,0
-23.24,3.53,14.19,486,2003,7890,-1,-1,0
-23.25,3.53,14.19,485,2003,7883,-1,-1,0
-23.25,3.53,14.19,484,2001,7886,-1,-1,0
-23.26,3.54,14.19,490,1997,7882,-1,-1,0
-23.26,3.54,14.18,490,1994,7880,-1,-1,0
-23.27,3.55,14.19,493,1995,7881,-1,-1,0
-23.27,3.56,14.19,494,1999,7892,0,-1,-1
-23.27,3.56,14.18,499,1997,7893,-1,-1,0
-23.28,3.56,14.18,502,1988,7894,-1,-1,0
-23.28,3.57,14.18,504,1986,7880,-1,-1,0
-23.28,3.57,14.17,491,1984,7894,0,-1,0
-23.28,3.58,14.17,503,1996,7891,0,-1,-1
-23.28,3.58,14.17,493,2002,7891,-1,-1,0
-23.28,3.58,14.17,486,2008,7884,-1,-1,0
-23.29,3.58,14.16,490,2007,7894,-1,-1,0
-23.30,3.59,14.17,498,2007,7893,-1,-1,0
-23.30,3.59,14.17,504,2001,7901,-1,-1,0
-23.30,3.60,14.17,506,1993,7897,-1,-1,0
-23.30,3.60,14.17,500,2000,7896,-1,-1,0
-23.31,3.60,14.17,495,1997,7897,-1,-1,0
-23.31,3.60,14.17,493,1996,7894,-1,-1,0
-23.32,3.61,14.17,493,2008,7888,-1,-1,0
-23.32,3.61,14.17,499,2005,7886,-1,-1,0
-23.32,3.61,14.17,500,1990,7888,-1,-1,0
-23.32,3.62,14.16,503,1990,7888,-1,-1,0
-23.32,3.62,14.16,506,1990,7892,-1,-1,-1
-23.32,3.62,14.15,504,1989,7898,-1,-1,0
-23.32,3.62,14.15,500,1993,7903,-1,-1,0
-23.33,3.62,14.15,497,2002,7896,-1,-1,0
-23.33,3.63,14.15,497,2001,7884,-1,-1,0
-23.33,3.63,14.15,502,1999,7882,-1,-1,0
-23.34,3.63,14.15,513,1993,7900,-1,-1,0
-23.34,3.63,14.14,505,1984,7897,-1,-1,0
-23.34,3.64,14.14,501,1984,7901,0,-1,0
-23.35,3.64,14.15,499,1995,7905,0,-1,0
-23.35,3.65,14.15,507,2008,7886,-1,-1,0
-23.35,3.65,14.15,510,2004,7885,-1,-1,0
-23.36,3.66,14.14,506,1990,7883,-1,-1,0
-23.36,3.66,14.14,504,1980,7896,-1,-1,0
-23.37,3.66,14.13,505,1978,7905,0,-1,0
-23.37,3.66,14.13,509,1990,7903,0,-1,0
-23.37,3.67,14.14,510,1992,7898,-1,-1,0
-23.37,3.68,14.14,514,1995,7888,-1,-1,0
-23.38,3.68,14.14,515,1994,7893,-1,-1,0
-23.38,3.69,14.14,516,1990,7887,-1,-1,0
-23.38,3.69,14.13,513,1990,7905,-1,-1,0
-23.38,3.69,14.13,515,1994,7910,-1,-1,0
-23.38,3.69,14.13,509,1994,7909,-1,-1,0
-23.39,3.69,14.13,509,1996,7895,-1,-1,0
-23.39,3.69,14.13,516,1997,7895,-1,-1,0
-23.40,3.70,14.13,524,1994,7892,-1,-1,0
-23.40,3.71,14.12,517,1997,7887,-1,-1,0
-23.41,3.71,14.12,517,1995,7898,-1,-1,0
-23.41,3.71,14.12,509,1989,7884,-1,-1,0
-23.41,3.71,14.12,513,1989,7880,-1,-1,0
-23.41,3.72,14.11,514,1988,7887,-1,-1,0
-23.41,3.72,14.11,513,1986,7878,-1,-1,0
-23.42,3.73,14.11,516,1978,7879,-1,-1,0
-23.42,3.73,14.11,518,1987,7888,-1,-1,0
-23.42,3.73,14.11,521,1992,7890,-1,-1,0
-23.42,3.73,14.10,519,1995,7893,-1,-1,0
-23.43,3.73,14.10,517,1990,7888,-1,-1,0
-23.43,3.74,14.09,521,1981,7879,-1,-1,0
-23.44,3.74,14.09,521,1976,7884,0,-1,0
-23.44,3.75,14.09,529,1974,7891,0,-1,0
-23.45,3.75,14.10,528,1984,7893,0,-1,0
-23.45,3.76,14.09,526,1994,7885,0,-1,0
-23.45,3.76,14.10,520,1996,7873,-1,-1,0
-23.46,3.76,14.09,516,1985,7884,-1,-1,0
-23.46,3.76,14.09,511,1966,7891,-1,-1,0
-23.46,3.76,14.08,513,1958,7905,0,-1,0
-23.46,3.77,14.08,509,1969,7903,0,-1,0
-23.46,3.78,14.08,522,1989,7890,-1,-1,0
-23.47,3.78,14.08,524,1992,7883,-1,-1,0
-23.47,3.78,14.08,527,1987,7879,-1,-1,0
-23.47,3.78,14.07,528,1975,7897,0,0,-1
-23.47,3.77,14.08,522,1972,7914,0,0,-1
-23.46,3.77,14.08,525,1966,7899,0,0,-1
-23.46,3.75,14.08,530,1972,7889,0,0,-1
-23.46,3.74,14.08,524,1980,7886,0,0,-1
-23.45,3.73,14.09,514,1990,7886,0,0,-1
-23.45,3.72,14.10,510,2007,7886,0,0,-1
-23.45,3.71,14.10,509,2010,7892,-1,0,0
-23.45,3.70,14.10,506,2000,7891,0,0,-1
-23.45,3.70,14.10,505,1989,7888,0,0,-1
-23.45,3.70,14.11,510,1983,7885,0,0,-1
-23.45,3.70,14.11,515,1987,7868,0,0,-1
-23.44,3.69,14.11,520,1988,7882,0,0,-1
-23.44,3.68,14.12,508,1990,7896,0,0,-1
-23.44,3.68,14.12,494,1996,7899,-1,-1,0
-23.44,3.68,14.12,493,1996,7897,0,-1,0
-23.44,3.68,14.13,502,1990,7887,0,-1,-1
-23.44,3.68,14.14,517,1985,7884,0,-1,-1
-23.44,3.68,14.14,520,1997,7888,0,0,-1
-23.44,3.68,14.14,509,1996,7893,-1,0,-1
-23.44,3.67,14.14,509,1991,7890,-1,0,0
-23.44,3.67,14.13,499,1978,7905,-1,-1,-1
-23.43,3.67,14.13,502,1979,7884,0,-1,-1
-23.43,3.67,14.14,504,1993,7876,0,-1,-1
-23.43,3.67,14.14,509,1998,7883,-1,-1,0
-23.43,3.67,14.14,511,1997,7883,-1,-1,0
-23.44,3.67,14.14,512,1999,7885,-1,-1,0
-23.44,3.67,14.14,509,1987,7887,0,-1,-1
-23.43,3.67,14.14,510,1991,7888,0,0,-1
-23.43,3.67,14.15,509,2001,7898,-1,0,-1
-23.43,3.67,14.14,511,1990,7897,-1,0,-1
-23.43,3.67,14.14,512,1981,7886,-1,0,-1
-23.43,3.66,14.13,509,1977,7891,0,0,-1
-23.43,3.66,14.13,512,1984,7890,0,0,-1
-23.42,3.66,14.14,512,1994,7885,0,0,-1
-23.42,3.65,14.14,508,2000,7883,-1,0,-1
-23.42,3.65,14.14,509,1994,7889,-1,0,-1
-23.42,3.65,14.14,500,1987,7887,0,0,-1
-23.42,3.64,14.14,507,1984,7891,0,0,-1
-23.42,3.64,14.14,503,1987,7892,0,0,-1
-23.42,3.64,14.15,500,1998,7895,0,0,-1
-23.41,3.64,14.15,499,2001,7889,0,-1,-1
-23.41,3.63,14.15,494,1996,7885,-1,0,-1
-23.41,3.63,14.15,495,1988,7888,-1,-1,-1
-23.42,3.63,14.15,504,1978,7900,-1,0,-1
-23.41,3.63,14.15,503,1977,7899,0,-1,-1
-23.41,3.63,14.16,506,1980,7894,0,0,-1
-23.40,3.62,14.16,506,1995,7899,0,0,-1
-23.40,3.62,14.16,504,2002,7897,-1,0,0
-23.41,3.62,14.15,503,1993,7894,-1,0,0
-23.41,3.62,14.15,502,1987,7902,-1,0,-1
-23.40,3.61,14.14,500,1980,7899,0,0,-1
-23.40,3.61,14.15,499,1984,7887,0,0,-1
-23.40,3.60,14.15,503,1997,7893,0,0,-1
-23.40,3.60,14.16,498,2002,7898,0,0,-1
-23.40,3.60,14.16,495,2004,7893,0,0,-1
-23.40,3.59,14.16,495,1998,7890,0,0,-1
-23.40,3.59,14.16,500,2002,7886,-1,0,-1
-23.40,3.58,14.16,496,1986,7887,0,0,0
-23.39,3.58,14.17,497,1995,7886,0,0,-1
-23.39,3.58,14.18,499,2007,7881,0,0,-1
-23.39,3.58,14.18,502,2004,7879,-1,0,-1
-23.39,3.57,14.17,494,1995,7886,0,0,-1
-23.38,3.56,14.18,490,2000,7892,0,0,-1
-23.38,3.56,14.18,484,2004,7896,-1,0,-1
-23.38,3.55,14.18,488,1988,7900,-1,0,-1
-23.38,3.55,14.17,495,1981,7900,-1,0,0
-23.38,3.55,14.17,501,1973,7899,0,-1,-1
-23.38,3.55,14.18,508,1989,7882,0,0,-1
-23.38,3.54,14.19,499,2007,7884,0,0,-1
-23.38,3.54,14.19,493,2002,7887,-1,0,-1
-23.38,3.53,14.18,488,1999,7893,-1,0,-1
-23.37,3.53,14.18,487,1995,7899,-1,0,-1
-23.37,3.53,14.18,495,1995,7904,0,0,-1
-23.37,3.52,14.18,487,1994,7890,0,0,-1
-23.37,3.51,14.19,483,1998,7888,-1,0,-1
-23.36,3.51,14.19,488,2006,7886,-1,0,-1
-23.36,3.51,14.19,486,2008,7885,-1,0,-1
-23.36,3.49,14.19,478,2008,7891,0,0,-1
-23.36,3.49,14.19,473,2008,7889,0,0,-1
-23.35,3.48,14.19,477,2007,7895,-1,0,-1
-23.35,3.48,14.19,481,1999,7897,0,0,-1
-23.35,3.48,14.19,484,1991,7891,-1,0,-1
-23.35,3.47,14.19,477,1990,7882,-1,0,-1
-23.34,3.46,14.20,485,2000,7875,-1,0,-1
-23.34,3.46,14.20,481,2003,7880,0,0,-1
-23.34,3.46,14.20,482,2006,7889,-1,0,-1
-23.33,3.45,14.19,479,1991,7892,-1,0,-1
-23.34,3.45,14.19,486,1982,7901,-1,0,0
-23.33,3.45,14.19,485,1981,7907,0,-1,-1
-23.33,3.44,14.20,480,2002,7900,0,0,-1
-23.33,3.43,14.20,472,2023,7893,-1,0,0
-23.33,3.43,14.20,475,2017,7892,-1,0,0
-23.33,3.43,14.20,480,2004,7886,-1,0,-1
-23.33,3.43,14.19,479,1986,7887,0,0,-1
-23.33,3.43,14.19,473,1987,7894,0,0,-1
-23.33,3.43,14.20,467,2008,7885,0,0,-1
-23.32,3.42,14.21,474,2014,7888,-1,0,-1
-23.32,3.42,14.21,474,2011,7884,0,0,-1
-23.31,3.41,14.21,471,2006,7894,-1,0,-1
-23.31,3.41,14.21,470,2006,7888,-1,0,-1
-23.31,3.41,14.21,468,2007,7891,0,0,-1
-23.31,3.41,14.22,475,2009,7904,0,-1,-1
-23.31,3.41,14.22,469,2006,7904,0,-1,-1
-23.31,3.41,14.22,470,2006,7898,0,-1,-1
-23.31,3.41,14.23,462,2006,7894,0,-1,-1
-23.30,3.40,14.24,467,2011,7885,-1,-1,-1
-23.30,3.41,14.24,471,2013,7880,-1,-1,0
-23.31,3.41,14.23,472,2007,7878,-1,-1,0
-23.31,3.41,14.23,464,2008,7882,-1,-1,0
-23.31,3.42,14.23,466,2004,7888,-1,-1,0
-23.31,3.42,14.23,467,1991,7896,-1,-1,0
-23.32,3.42,14.23,473,1983,7887,0,-1,0
-23.32,3.43,14.22,478,1982,7900,0,-1,0
-23.33,3.44,14.22,481,1996,7893,0,-1,0
-23.33,3.44,14.22,473,2004,7893,-1,-1,0
-23.33,3.44,14.21,474,1995,7898,-1,-1,0
-23.34,3.45,14.21,471,1994,7891,-1,-1,0
-23.34,3.46,14.20,468,1999,7901,-1,-1,0
-23.35,3.46,14.20,477,2000,7905,-1,-1,0
-23.36,3.47,14.19,483,1998,7893,0,-1,0
-23.36,3.47,14.19,487,2008,7879,-1,-1,0
-23.36,3.48,14.19,486,2015,7888,-1,-1,0
-23.36,3.48,14.19,486,2012,7895,-1,-1,0
-23.37,3.48,14.18,484,2003,7890,-1,-1,0
-23.37,3.48,14.18,480,1992,7889,-1,-1,0
-23.37,3.49,14.18,479,1995,7890,0,-1,0
-23.37,3.49,14.18,487,1995,7901,-1,-1,0
-23.37,3.49,14.18,492,1995,7898,-1,-1,0
-23.38,3.50,14.18,491,1995,7891,-1,-1,0
-23.38,3.50,14.18,489,1991,7898,-1,-1,0
-23.38,3.50,14.18,488,2002,7896,-1,-1,0
-23.38,3.49,14.18,486,2009,7885,-1,-1,-1
-23.38,3.50,14.18,490,2007,7897,-1,-1,0
-23.38,3.50,14.17,488,1997,7892,-1,-1,0
-23.39,3.51,14.17,486,1996,7888,0,-1,0
-23.39,3.51,14.18,490,1997,7892,0,-1,0
-23.39,3.51,14.18,497,1996,7897,-1,-1,0
-23.39,3.51,14.17,494,1990,7896,-1,-1,0
-23.40,3.52,14.17,497,1990,7901,0,-1,0
-23.40,3.52,14.18,493,1995,7896,0,-1,0
-23.40,3.53,14.18,491,2002,7892,0,-1,0
-23.41,3.53,14.18,492,1987,7887,-1,-1,0
-23.41,3.54,14.17,494,1987,7898,-1,-1,0
-23.42,3.54,14.16,496,1979,7910,-1,-1,0
-23.42,3.54,14.16,504,1984,7888,0,-1,0
-23.42,3.55,14.17,490,1995,7879,0,-1,0
-23.42,3.55,14.17,489,2005,7883,-1,-1,0
-23.43,3.55,14.17,492,1999,7893,-1,-1,0
-23.43,3.56,14.16,492,1990,7896,-1,-1,0
-23.44,3.56,14.16,501,1990,7898,-1,-1,0
-23.44,3.56,14.15,499,1987,7902,-1,-1,0
-23.44,3.57,14.16,500,1988,7892,0,-1,0
-23.45,3.57,14.16,497,1993,7891,-1,-1,0
-23.45,3.57,14.16,505,2000,7886,-1,-1,0
-23.45,3.58,14.16,503,2001,7885,-1,-1,0
-23.45,3.58,14.16,496,1998,7890,-1,-1,0
-23.45,3.58,14.15,495,1991,7894,-1,-1,0
-23.46,3.59,14.15,493,1981,7898,-1,-1,0
-23.46,3.59,14.15,500,1980,7904,0,-1,0
-23.47,3.60,14.15,502,1981,7898,0,-1,0
-23.47,3.60,14.15,505,1984,7893,0,-1,0
-23.47,3.60,14.15,511,1989,7882,-1,-1,0
-23.47,3.60,14.15,507,1991,7890,-1,-1,0
-23.47,3.60,14.15,505,1984,7889,-1,-1,-1
-23.47,3.61,14.14,509,1988,7893,-1,-1,0
-23.48,3.61,14.14,512,1989,7897,0,-1,0
-23.48,3.61,14.15,505,1991,7893,0,-1,0
-23.49,3.62,14.15,498,1997,7880,-1,-1,0
-23.49,3.62,14.14,498,1996,7879,-1,-1,0
-23.49,3.63,14.15,512,1997,7877,0,-1,0
-23.49,3.63,14.15,510,2010,7883,-1,-1,0
-23.49,3.63,14.15,499,1998,7884,-1,-1,0
-23.50,3.63,14.15,498,1990,7886,-1,-1,0
-23.50,3.63,14.15,501,1985,7901,0,-1,0
-23.51,3.64,14.15,501,1991,7889,0,-1,0
-23.51,3.64,14.15,498,2001,7894,0,0,0
-23.51,3.64,14.15,493,2004,7893,-1,-1,0
-23.52,3.64,14.15,506,2002,7881,-1,-1,0
-23.52,3.64,14.14,515,1995,7885,-1,-1,0
-23.52,3.65,14.14,511,1982,7887,-1,-1,0
-23.53,3.65,14.14,508,1980,7892,-1,-1,0
-23.53,3.65,14.14,510,1985,7893,-1,0,0
-23.52,3.64,14.14,505,1995,7894,0,-1,0
-23.52,3.64,14.14,502,1998,7894,0,-1,-1
-23.52,3.65,14.15,504,2002,7890,-1,-1,0
-23.52,3.65,14.14,506,1995,7879,-1,-1,0
-23.53,3.66,14.14,507,1988,7893,-1,-1,0
-23.53,3.66,14.13,512,1979,7901,-1,-1,0
-23.53,3.66,14.13,510,1980,7900,0,-1,0
-23.53,3.66,14.13,511,1989,7896,0,-1,0
-23.53,3.66,14.13,509,1991,7889,-1,-1,0
-23.53,3.66,14.13,510,1990,7889,-1,-1,0
-23.53,3.66,14.13,510,1986,7894,-1,-1,0
-23.53,3.66,14.13,508,1984,7898,-1,-1,0
-23.53,3.66,14.12,505,1985,7892,-1,-1,0
-23.53,3.66,14.12,512,1985,7895,-1,-1,0
-23.53,3.66,14.12,511,1988,7890,0,-1,0
-23.53,3.66,14.13,513,1991,7892,-1,0,-1
-23.53,3.66,14.12,507,1991,7895,-1,0,0
-23.53,3.66,14.12,516,1983,7890,-1,-1,-1
-23.53,3.66,14.12,514,1991,7895,0,0,-1
-23.53,3.66,14.13,519,2001,7894,-1,-1,0
-23.53,3.66,14.13,521,1990,7889,-1,-1,0
-23.53,3.66,14.12,516,1983,7898,-1,-1,-1
-23.53,3.66,14.12,514,1984,7892,0,-1,-1
-23.53,3.66,14.12,505,1998,7888,0,0,-1
-23.53,3.65,14.12,498,1998,7906,-1,0,-1
-23.53,3.65,14.12,505,1987,7904,-1,-1,0
-23.53,3.65,14.12,507,1982,7898,0,-1,-1
-23.53,3.66,14.12,515,1981,7893,0,-1,-1
-23.52,3.65,14.13,518,1994,7890,0,0,-1
-23.52,3.65,14.13,516,2001,7897,-1,0,-1
-23.52,3.65,14.13,514,1991,7898,-1,0,-1
-23.51,3.65,14.13,511,1984,7905,0,0,-1
-23.51,3.64,14.13,505,1985,7895,0,-1,-1
-23.51,3.64,14.13,504,1993,7904,0,0,-1
-23.50,3.64,14.13,508,1996,7901,0,0,-1
-23.50,3.63,14.13,512,1993,7888,0,0,-1
-23.50,3.63,14.14,510,1995,7884,0,0,-1
-23.49,3.63,14.14,514,1994,7881,-1,-1,-1
-23.49,3.63,14.14,510,1987,7887,-1,0,-1
-23.50,3.63,14.13,514,1982,7897,-1,-1,0
-23.50,3.63,14.13,508,1979,7895,-1,0,-1
-23.50,3.63,14.13,504,1984,7885,-1,-1,-1
-23.50,3.63,14.13,502,1985,7889,0,-1,-1
-23.49,3.62,14.13,507,1981,7887,0,0,-1
-23.49,3.62,14.13,508,1993,7886,-1,0,-1
-23.49,3.62,14.14,500,1995,7900,-1,0,-1
-23.49,3.61,14.13,503,1984,7895,-1,0,0
-23.48,3.62,14.12,505,1970,7900,0,-1,-1
-23.48,3.61,14.12,507,1976,7900,0,0,-1
-23.48,3.61,14.13,502,1989,7900,0,-1,-1
-23.48,3.61,14.14,502,2000,7898,0,0,-1
-23.48,3.61,14.14,496,2002,7884,-1,-1,0
-23.48,3.61,14.14,500,1994,7883,-1,-1,-1
-23.47,3.61,14.14,500,1985,7888,0,0,-1
-23.47,3.61,14.14,503,1984,7893,0,0,-1
-23.47,3.61,14.14,507,1982,7901,0,0,-1
-23.47,3.61,14.14,516,1984,7904,0,0,-1
-23.47,3.61,14.14,510,1986,7903,-1,0,-1
-23.47,3.60,14.14,510,1986,7897,-1,0,-1
-23.47,3.60,14.14,504,1989,7892,-1,0,-1
-23.46,3.59,14.14,498,1987,7901,-1,0,-1
-23.46,3.59,14.14,502,1992,7905,-1,0,-1
-23.46,3.59,14.14,499,1990,7902,0,0,-1
-23.46,3.58,14.14,502,1993,7895,0,0,-1
-23.46,3.58,14.14,499,1993,7893,0,0,-1
-23.45,3.57,14.15,492,1998,7884,0,0,-1
-23.45,3.57,14.15,495,2002,7889,-1,0,-1
-23.45,3.56,14.15,496,1990,7885,-1,0,-1
-23.45,3.56,14.15,491,1991,7892,0,0,-1
-23.45,3.56,14.15,495,1999,7896,0,0,-1
-23.45,3.56,14.15,500,1996,7888,-1,-1,0
-23.45,3.56,14.15,501,1998,7880,-1,0,-1
-23.45,3.55,14.16,498,1999,7884,0,0,-1
-23.45,3.55,14.16,493,2010,7888,0,0,-1
-23.45,3.54,14.16,490,1995,7895,-1,0,0
-23.45,3.54,14.16,489,1983,7898,-1,0,0
-23.45,3.54,14.15,493,1978,7904,0,-1,-1
-23.45,3.54,14.16,501,1987,7895,0,0,-1
-23.44,3.53,14.17,494,1998,7882,0,0,-1
-23.44,3.53,14.17,490,2001,7877,-1,0,-1
-23.44,3.52,14.16,483,2003,7881,-1,0,-1
-23.43,3.52,14.16,486,1995,7900,-1,0,-1
-23.43,3.51,14.17,482,1990,7900,0,0,-1
-23.43,3.50,14.17,483,1998,7892,0,0,-1
-23.42,3.50,14.17,480,2007,7888,-1,0,0
-23.42,3.49,14.18,485,2001,7886,-1,0,-1
-23.42,3.49,14.18,480,2001,7882,-1,0,-1
-23.42,3.48,14.18,476,1998,7887,-1,0,-1
-23.42,3.48,14.18,478,1998,7889,0,0,-1
-23.42,3.48,14.18,473,1999,7889,0,0,-1
-23.42,3.47,14.18,474,2004,7893,0,0,0
-23.42,3.47,14.18,478,1998,7898,-1,0,-1
-23.42,3.46,14.18,480,1990,7897,0,0,-1
-23.42,3.46,14.18,484,1999,7898,0,0,-1
-23.41,3.46,14.18,481,2000,7891,-1,0,-1
-23.41,3.45,14.18,479,2002,7889,-1,0,0
-23.41,3.44,14.18,476,1994,7900,-1,0,-1
-23.41,3.44,14.18,481,1998,7896,0,0,-1
-23.41,3.43,14.18,477,1994,7897,-1,0,-1
-23.41,3.43,14.18,479,1992,7885,0,0,-1
-23.41,3.43,14.19,480,1995,7885,0,0,-1
-23.41,3.43,14.19,485,2000,7883,0,0,-1
-23.40,3.43,14.20,483,2010,7892,-1,0,-1
-23.40,3.42,14.20,474,2004,7891,-1,-1,0
-23.41,3.43,14.20,475,1992,7889,0,-1,0
-23.40,3.42,14.20,475,1991,7891,0,-1,0
-23.40,3.42,14.20,475,2001,7888,0,-1,-1
-23.40,3.42,14.21,486,2008,7885,0,0,-1
-23.40,3.42,14.22,479,2010,7886,0,0,-1
-23.40,3.42,14.21,470,2003,7874,-1,0,-1
-23.40,3.42,14.21,479,2009,7886,-1,-1,-1
-23.40,3.42,14.21,484,2005,7894,-1,-1,0
-23.40,3.42,14.21,477,2007,7897,-1,-1,0
-23.40,3.42,14.22,474,2002,7892,0,-1,-1
-23.40,3.42,14.22,462,1999,7892,-1,0,0
-23.40,3.42,14.22,464,1996,7888,0,-1,0
-23.40,3.41,14.22,459,1999,7886,0,-1,0
-23.40,3.42,14.23,464,2010,7887,-1,-1,0
-23.40,3.42,14.23,472,2016,7889,-1,-1,0
-23.41,3.43,14.22,471,2009,7892,-1,-1,0
-23.41,3.43,14.22,469,2003,7893,-1,-1,0
-23.41,3.43,14.22,467,2000,7898,-1,-1,0
-23.41,3.43,14.22,470,1995,7887,-1,-1,0
-23.41,3.44,14.21,483,1990,7892,-1,-1,0
-23.42,3.44,14.21,475,2002,7875,-1,-1,0
-23.42,3.45,14.21,488,2003,7875,-1,-1,0
-23.42,3.46,14.21,490,2011,7880,-1,-1,0
-23.43,3.46,14.21,487,2014,7891,-1,-1,0
-23.43,3.46,14.20,477,1996,7889,-1,-1,0
-23.43,3.45,14.20,473,1990,7893,-1,0,0
-23.43,3.45,14.20,471,1988,7890,0,-1,0
-23.43,3.46,14.20,472,2003,7886,0,-1,0
-23.43,3.46,14.20,477,2010,7897,-1,-1,0
-23.44,3.46,14.20,483,2013,7894,-1,-1,0
-23.44,3.47,14.20,486,2005,7896,-1,-1,0
-23.44,3.48,14.20,487,2001,7893,0,-1,0
-23.44,3.48,14.20,488,1998,7902,0,-1,0
-23.44,3.48,14.20,487,2001,7896,0,-1,0
-23.45,3.48,14.20,486,2005,7907,-1,-1,0
-23.46,3.49,14.20,487,1995,7903,-1,-1,0
-23.46,3.49,14.19,490,1994,7884,-1,-1,0
-23.46,3.50,14.19,497,1994,7890,-1,-1,0
-23.46,3.50,14.20,494,2006,7887,-1,-1,0
-23.46,3.51,14.19,494,2007,7880,-1,-1,0
-23.47,3.51,14.19,490,1993,7884,-1,-1,0
-23.47,3.51,14.19,485,1991,7890,0,-1,0
-23.47,3.51,14.19,477,1993,7886,0,-1,0
-23.48,3.51,14.18,481,2005,7882,-1,-1,0
-23.48,3.52,14.19,482,2007,7886,-1,-1,0
-23.49,3.52,14.18,476,1999,7892,-1,-1,0
-23.49,3.53,14.18,478,1995,7889,-1,-1,0
-23.50,3.53,14.18,490,1991,7888,-1,-1,0
-23.50,3.53,14.17,490,1993,7894,-1,-1,0
-23.50,3.54,14.18,497,1993,7890,0,-1,0
-23.50,3.54,14.18,498,2004,7892,0,-1,0
-23.50,3.54,14.18,500,2002,7896,-1,0,0
-23.51,3.55,14.18,504,1998,7889,-1,-1,0
-23.51,3.56,14.17,502,1996,7887,-1,-1,0
-23.52,3.56,14.17,499,1995,7896,-1,-1,0
-23.51,3.56,14.17,493,1999,7893,0,-1,0
-23.51,3.56,14.17,489,2007,7901,-1,-1,0
-23.52,3.56,14.17,491,2001,7900,-1,-1,0
-23.52,3.57,14.17,496,2007,7896,-1,-1,0
-23.53,3.57,14.16,496,1996,7901,-1,-1,0
-23.53,3.58,14.16,494,1989,7906,0,-1,0
-23.54,3.57,14.17,490,1995,7905,0,-1,0
-23.54,3.58,14.16,495,1999,7890,-1,-1,0
-23.55,3.59,14.16,504,1996,7895,-1,-1,0
-23.55,3.59,14.16,497,1990,7895,-1,-1,0
-23.55,3.59,14.15,492,1980,7892,-1,-1,0
-23.55,3.59,14.15,501,1977,7893,0,-1,0
-23.55,3.59,14.15,503,1977,7898,0,-1,0
-23.56,3.60,14.15,504,1980,7899,0,-1,0
-23.56,3.60,14.17,502,1990,7888,0,0,0
-23.56,3.60,14.18,502,2004,7880,0,0,-1
-23.56,3.59,14.18,498,2014,7876,-1,-1,0
-23.56,3.59,14.18,499,2009,7877,-1,0,0
-23.57,3.59,14.18,491,2006,7885,-1,0,0
-23.57,3.59,14.18,489,2001,7894,-1,-1,0
-23.57,3.59,14.18,492,2001,7898,0,-1,0
-23.57,3.60,14.18,494,2007,7897,-1,-1,0
-23.57,3.60,14.18,499,2011,7892,-1,-1,0
-23.58,3.60,14.18,505,2005,7893,-1,-1,0
-23.58,3.60,14.19,509,2002,7893,0,-1,0
-23.58,3.61,14.20,511,2006,7888,0,0,0
-23.59,3.61,14.19,503,1999,7877,-1,-1,0
-23.59,3.61,14.19,502,1995,7871,-1,-1,0
-23.59,3.61,14.19,502,1981,7877,-1,-1,0
-23.59,3.61,14.19,507,1971,7868,0,0,-1
-23.59,3.61,14.19,509,1983,7877,0,0,-1
-23.59,3.60,14.20,506,1991,7873,0,0,-1
-23.59,3.59,14.20,505,2001,7881,0,0,-1
-23.58,3.59,14.21,496,2008,7897,0,0,-1
-23.58,3.59,14.21,496,1998,7894,0,0,-1
-23.58,3.59,14.21,499,1995,7898,0,0,0
-23.58,3.58,14.22,498,2001,7901,0,-1,0
-23.58,3.59,14.23,494,2007,7900,0,-1,0
-23.59,3.59,14.24,499,2015,7894,0,-1,-1
-23.59,3.59,14.23,503,2017,7885,0,-1,0
-23.59,3.59,14.23,494,2012,7889,-1,-1,0
-23.58,3.59,14.23,495,2002,7895,-1,-1,-1
-23.58,3.59,14.23,493,1997,7888,0,-1,-1
-23.58,3.59,14.23,500,2003,7879,0,-1,-1
-23.58,3.59,14.24,505,2003,7878,-1,-1,-1
-23.57,3.59,14.23,505,2004,7872,-1,-1,-1
-23.57,3.59,14.23,501,2001,7884,-1,-1,-1
-23.57,3.60,14.23,505,1999,7892,-1,-1,-1
-23.57,3.60,14.23,507,1998,7893,-1,0,-1
-23.57,3.59,14.22,503,1998,7886,-1,-1,-1
-23.56,3.60,14.23,502,2002,7884,0,-1,-1
-23.56,3.59,14.23,501,2012,7883,-1,0,-1
-23.55,3.59,14.23,496,2002,7891,-1,0,-1
-23.55,3.59,14.22,494,2005,7892,-1,0,0
-23.55,3.58,14.22,493,1985,7894,0,-1,-1
-23.54,3.58,14.22,497,1991,7889,0,-1,-1
-23.54,3.58,14.23,489,2015,7888,0,-1,-1
-23.54,3.58,14.24,496,2012,7881,-1,-1,0
-23.54,3.58,14.23,499,2012,7880,-1,-1,-1
-23.54,3.58,14.23,503,1996,7879,-1,0,-1
-23.54,3.58,14.22,495,1998,7875,-1,0,-1
-23.53,3.57,14.22,490,1996,7879,0,0,0
-23.53,3.57,14.22,493,1995,7888,-1,0,0
-23.53,3.56,14.23,496,1994,7887,0,-1,-1
-23.53,3.57,14.23,503,2002,7883,0,-1,-1
-23.53,3.57,14.23,503,2012,7874,-1,0,-1
-23.53,3.56,14.23,512,2002,7887,-1,0,-1
-23.53,3.56,14.23,505,1995,7894,-1,0,-1
-23.52,3.55,14.22,498,1989,7894,-1,0,-1
-23.52,3.55,14.22,495,1995,7896,0,0,-1
-23.52,3.56,14.23,499,2006,7891,0,0,-1
-23.52,3.55,14.23,493,2004,7891,-1,0,-1
-23.52,3.55,14.23,495,2002,7888,-1,0,-1
-23.52,3.54,14.23,494,2004,7883,-1,0,0
-23.51,3.54,14.23,494,2001,7886,0,0,-1
-23.51,3.54,14.23,497,2000,7878,0,0,-1
-23.51,3.53,14.23,493,1998,7884,0,0,-1
-23.51,3.53,14.23,500,2007,7888,0,0,-1
-23.51,3.53,14.24,493,2013,7880,-1,0,-1
-23.51,3.53,14.23,496,1997,7875,-1,0,-1
-23.51,3.52,14.23,492,1997,7864,0,0,-1
-23.50,3.51,14.24,485,2003,7873,0,0,-1
-23.50,3.51,14.24,492,2012,7878,-1,0,-1
-23.50,3.51,14.24,485,2009,7889,-1,0,-1
-23.50,3.51,14.24,484,2002,7885,-1,0,-1
-23.50,3.50,14.24,488,1999,7899,0,0,-1
-23.50,3.50,14.24,484,1997,7898,0,0,-1
-23.50,3.49,14.25,489,2014,7895,0,0,-1
-23.50,3.49,14.25,486,2015,7893,0,0,-1
-23.49,3.49,14.25,486,2017,7886,-1,0,-1
-23.50,3.49,14.24,485,2000,7891,-1,0,-1
-23.50,3.49,14.24,485,1998,7888,-1,0,-1
-23.50,3.49,14.24,482,2001,7888,0,0,-1
-23.49,3.48,14.24,485,2008,7892,-1,0,-1
-23.49,3.48,14.24,496,2008,7881,-1,0,-1
-23.49,3.48,14.24,489,2010,7884,-1,0,-1
-23.49,3.47,14.24,487,2001,7886,-1,0,-1
-23.49,3.47,14.24,477,1997,7889,-1,0,-1
-23.48,3.46,14.24,477,1991,7883,0,0,-1
-23.48,3.46,14.24,477,1996,7884,0,0,-1
-23.48,3.46,14.24,485,1998,7887,0,0,-1
-23.48,3.46,14.24,479,2012,7892,0,0,-1
-23.47,3.45,14.25,485,2008,7882,0,0,-1
-23.47,3.45,14.25,479,2011,7883,-1,0,-1
-23.47,3.44,14.24,485,2000,7892,-1,0,-1
-23.47,3.44,14.24,483,1990,7888,0,0,-1
-23.47,3.44,14.24,478,1996,7897,0,0,-1
-23.47,3.44,14.25,483,2004,7879,0,0,-1
-23.47,3.44,14.25,480,2022,7876,-1,0,-1
-23.47,3.44,14.25,475,2013,7885,-1,0,-1
-23.47,3.43,14.25,475,2005,7892,-1,0,-1
-23.47,3.43,14.25,475,1999,7902,-1,0,0
-23.47,3.43,14.25,480,1992,7898,0,0,0
-23.47,3.43,14.25,484,1997,7894,0,0,-1
-23.47,3.42,14.25,483,2014,7893,0,0,-1
-23.46,3.41,14.26,479,2012,7883,-1,0,-1
-23.46,3.41,14.26,473,2013,7878,-1,0,-1
