Yaw,Pitch,Roll,AX,AY,AZ,GX,GY,GZ
-13.18,6.48,-0.75,923,-109,8132,0,-1,0
-13.18,6.48,-0.75,924,-106,8128,-1,-1,0
-13.18,6.48,-0.74,926,-102,8133,-1,-1,0
-13.18,6.49,-0.75,923,-105,8136,-1,-1,0
-13.18,6.49,-0.75,920,-115,8135,-1,-1,0
-13.19,6.49,-0.76,918,-120,8144,0,-1,0
-13.19,6.49,-0.75,922,-113,8136,0,-1,-1
-13.19,6.50,-0.75,923,-104,8141,0,-1,0
-13.19,6.50,-0.75,923,-107,8151,-1,0,0
-13.19,6.50,-0.75,921,-106,8143,0,-1,-1
-13.19,6.50,-0.75,919,-118,8154,-1,-1,0
-13.19,6.50,-0.75,929,-114,8158,0,-1,-1
-13.19,6.51,-0.75,926,-106,8147,0,-1,-1
-13.19,6.51,-0.75,928,-103,8146,-1,-1,0
-13.19,6.51,-0.75,930,-114,8141,-1,-1,0
-13.19,6.51,-0.75,931,-106,8135,-1,-1,0
-13.19,6.51,-0.75,935,-100,8134,-1,-1,0
-13.19,6.51,-0.75,926,-106,8138,-1,-1,0
-13.19,6.51,-0.75,926,-108,8139,0,-1,0
-13.19,6.51,-0.75,920,-115,8143,0,-1,0
-13.19,6.51,-0.75,914,-106,8149,0,-1,0
-13.19,6.52,-0.75,926,-106,8153,0,-1,0
-13.19,6.52,-0.75,930,-104,8150,-1,-1,0
-13.19,6.52,-0.76,930,-104,8147,-1,-1,0
-13.19,6.52,-0.76,922,-111,8157,-1,-1,0
-13.19,6.52,-0.76,920,-123,8159,0,-1,0
-13.19,6.53,-0.76,928,-119,8159,0,-1,0
-13.19,6.53,-0.76,937,-113,8146,0,-1,-1
-13.19,6.53,-0.75,939,-113,8133,0,-1,-1
-13.19,6.53,-0.74,939,-100,8132,0,0,0
-13.19,6.53,-0.74,936,-91,8140,-1,-1,-1
-13.19,6.53,-0.74,924,-98,8147,-1,-1,0
-13.19,6.53,-0.75,919,-102,8147,-1,-1,0
-13.19,6.53,-0.75,920,-106,8152,0,-1,0
-13.19,6.53,-0.74,926,-103,8144,0,-1,-1
-13.19,6.53,-0.73,926,-94,8144,-1,0,0
-13.19,6.53,-0.73,920,-104,8142,-1,-1,0
-13.19,6.53,-0.74,922,-106,8135,-1,0,0
-13.20,6.53,-0.74,920,-111,8152,-1,-1,0
-13.20,6.53,-0.74,931,-108,8148,0,-1,-1
-13.19,6.53,-0.73,927,-98,8134,0,-1,0
-13.19,6.53,-0.73,929,-103,8140,-1,-1,0
-13.20,6.53,-0.73,931,-106,8135,0,0,0
-13.20,6.53,-0.73,926,-109,8140,0,0,0
-13.19,6.53,-0.73,928,-110,8135,0,0,-1
-13.19,6.52,-0.73,926,-102,8139,0,0,-1
-13.19,6.52,-0.73,923,-89,8142,-1,0,-1
-13.19,6.52,-0.73,920,-87,8146,-1,-1,0
-13.19,6.52,-0.73,925,-103,8142,-1,-1,0
-13.19,6.52,-0.74,926,-113,8142,0,0,-1
-13.19,6.52,-0.73,919,-112,8137,0,0,-1
-13.19,6.52,-0.73,918,-99,8138,0,0,-1
-13.19,6.51,-0.72,922,-92,8130,0,-1,-1
-13.19,6.52,-0.72,931,-87,8126,-1,-1,0
-13.19,6.52,-0.72,926,-89,8129,-1,0,0
-13.19,6.51,-0.73,922,-103,8136,-1,-1,0
-13.19,6.52,-0.73,924,-114,8145,0,0,0
-13.19,6.51,-0.73,921,-109,8149,0,-1,0
-13.19,6.51,-0.72,926,-105,8145,0,-1,0
-13.19,6.51,-0.71,929,-100,8138,0,0,-1
-13.19,6.51,-0.71,930,-88,8133,-1,0,0
-13.19,6.51,-0.71,932,-98,8143,-1,0,0
-13.20,6.50,-0.72,920,-111,8137,-1,0,0
-13.20,6.50,-0.72,921,-116,8142,0,-1,-1
-13.19,6.49,-0.72,915,-108,8143,0,0,-1
-13.19,6.49,-0.71,913,-93,8150,0,-1,-1
-13.19,6.49,-0.71,925,-94,8142,-1,-1,0
-13.20,6.49,-0.71,928,-92,8139,-1,0,0
-13.20,6.48,-0.72,922,-100,8133,-1,0,0
-13.20,6.48,-0.72,918,-105,8138,-1,0,0
-13.20,6.48,-0.71,923,-104,8140,0,0,0
-13.20,6.48,-0.72,920,-108,8151,-1,0,0
-13.20,6.47,-0.72,924,-110,8145,0,0,0
-13.20,6.47,-0.72,923,-109,8146,-1,0,0
-13.19,6.46,-0.72,927,-94,8142,-1,0,0
-13.19,6.45,-0.73,931,-90,8152,-1,0,-1
-13.19,6.45,-0.72,924,-94,8158,-1,0,0
-13.19,6.44,-0.73,910,-94,8148,-1,0,0
-13.19,6.44,-0.74,901,-107,8138,-1,0,0
-13.19,6.43,-0.74,899,-111,8145,0,0,0
-13.20,6.43,-0.74,914,-116,8143,0,0,0
-13.20,6.42,-0.74,919,-112,8134,0,0,0
-13.20,6.42,-0.74,912,-106,8146,0,0,0
-13.20,6.41,-0.74,913,-92,8147,0,0,-1
-13.20,6.40,-0.73,908,-90,8150,-1,0,0
-13.20,6.40,-0.74,912,-109,8151,-1,0,0
-13.20,6.39,-0.75,901,-115,8143,-1,0,0
-13.20,6.39,-0.75,895,-118,8150,0,0,0
-13.20,6.38,-0.75,905,-118,8141,0,0,-1
-13.20,6.37,-0.75,903,-107,8144,0,0,0
-13.20,6.37,-0.74,905,-92,8152,-1,0,0
-13.20,6.36,-0.74,899,-95,8157,-1,0,0
-13.21,6.35,-0.74,898,-102,8152,-1,0,0
-13.21,6.35,-0.75,894,-106,8137,-1,0,0
-13.20,6.34,-0.76,897,-113,8147,-1,0,0
-13.20,6.34,-0.76,900,-113,8153,-1,0,0
-13.20,6.33,-0.75,898,-114,8148,-1,0,0
-13.21,6.33,-0.76,902,-113,8141,-1,0,0
-13.21,6.32,-0.76,899,-102,8146,-1,0,0
-13.21,6.32,-0.76,896,-97,8142,-1,0,-1
-13.21,6.31,-0.76,897,-100,8151,-1,0,0
-13.21,6.30,-0.77,899,-108,8157,-1,0,0
-13.21,6.29,-0.76,893,-112,8150,0,0,-1
-13.20,6.29,-0.76,896,-112,8140,0,0,-1
-13.20,6.28,-0.76,892,-105,8144,0,0,-1
-13.20,6.27,-0.76,883,-93,8149,0,0,-1
-13.20,6.27,-0.75,885,-97,8146,0,0,-1
-13.20,6.27,-0.75,886,-108,8141,0,0,-1
-13.20,6.26,-0.75,885,-106,8142,-1,0,0
-13.20,6.26,-0.75,887,-117,8151,0,-1,-1
-13.20,6.26,-0.75,882,-116,8138,0,-1,0
-13.20,6.26,-0.75,881,-120,8150,0,-1,-1
-13.19,6.26,-0.75,885,-112,8146,0,-1,-1
-13.19,6.26,-0.74,878,-101,8147,0,-1,-1
-13.19,6.27,-0.74,878,-105,8157,-1,-1,-1
-13.19,6.27,-0.74,882,-103,8160,-1,-1,-1
-13.19,6.28,-0.74,887,-107,8155,-1,-1,0
-13.19,6.28,-0.75,890,-118,8147,0,-1,0
-13.18,6.28,-0.74,893,-115,8141,0,-1,-1
-13.18,6.29,-0.73,891,-104,8140,0,-1,0
-13.18,6.30,-0.74,889,-98,8142,0,-1,0
-13.18,6.30,-0.74,883,-95,8152,-1,-1,0
-13.19,6.30,-0.74,885,-104,8151,-1,-1,0
-13.19,6.31,-0.74,881,-108,8143,0,-1,-1
-13.18,6.32,-0.74,888,-100,8143,0,-1,-1
-13.18,6.32,-0.73,896,-92,8132,0,-1,0
-13.18,6.33,-0.73,893,-92,8136,-1,-1,0
-13.19,6.33,-0.73,888,-98,8137,-1,-1,0
-13.19,6.33,-0.73,893,-108,8147,-1,-1,0
-13.19,6.34,-0.74,893,-116,8150,0,-1,0
-13.19,6.35,-0.73,897,-113,8130,0,-1,0
-13.19,6.35,-0.74,901,-113,8137,0,-1,0
-13.19,6.35,-0.73,906,-99,8139,0,-1,0
-13.19,6.36,-0.73,915,-97,8145,-1,-1,0
-13.20,6.37,-0.74,902,-101,8146,-1,-1,0
-13.20,6.37,-0.74,901,-107,8142,-1,-1,0
-13.20,6.39,-0.75,902,-99,8143,-1,-1,0
-13.20,6.40,-0.75,910,-104,8142,-1,-1,0
-13.20,6.40,-0.76,906,-114,8139,-1,-1,0
-13.20,6.41,-0.75,906,-109,8132,0,-1,-1
-13.20,6.42,-0.75,905,-118,8141,0,-1,-1
-13.20,6.42,-0.75,918,-109,8148,0,-1,0
-13.20,6.42,-0.75,912,-111,8142,0,-1,-1
-13.20,6.43,-0.74,911,-108,8150,-1,-1,0
-13.20,6.44,-0.75,917,-111,8143,-1,-1,0
-13.20,6.44,-0.75,924,-120,8140,-1,-1,0
-13.21,6.45,-0.76,927,-124,8144,0,-1,0
-13.21,6.45,-0.76,925,-124,8139,0,-1,0
-13.21,6.45,-0.75,920,-116,8134,0,-1,-1
-13.21,6.45,-0.75,910,-103,8135,0,-1,0
-13.21,6.45,-0.75,911,-94,8138,-1,-1,0
-13.21,6.46,-0.76,907,-99,8131,-1,-1,0
-13.21,6.46,-0.76,912,-99,8133,-1,-1,0
-13.21,6.46,-0.76,909,-112,8139,0,-1,0
-13.21,6.47,-0.75,919,-103,8145,0,-1,-1
-13.21,6.47,-0.75,920,-99,8140,0,-1,0
-13.21,6.47,-0.74,922,-92,8146,0,-1,0
-13.21,6.47,-0.74,923,-94,8136,-1,-1,0
-13.21,6.48,-0.74,920,-100,8142,0,-1,0
-13.21,6.48,-0.74,916,-102,8141,0,-1,0
-13.21,6.49,-0.74,921,-107,8145,0,-1,0
-13.21,6.49,-0.74,920,-104,8147,0,-1,0
-13.21,6.49,-0.74,922,-108,8157,-1,-1,0
-13.21,6.49,-0.74,925,-107,8148,-1,-1,0
-13.21,6.50,-0.75,927,-109,8138,-1,-1,-1
-13.21,6.50,-0.74,927,-101,8142,-1,-1,0
-13.22,6.50,-0.75,931,-99,8149,-1,0,0
-13.22,6.50,-0.75,925,-101,8148,-1,-1,0
-13.22,6.50,-0.75,917,-111,8145,-1,-1,0
-13.22,6.51,-0.75,923,-108,8148,-1,-1,0
-13.22,6.51,-0.75,930,-109,8140,0,-1,-1
-13.22,6.51,-0.75,926,-99,8145,-1,-1,0
-13.22,6.51,-0.75,924,-106,8145,-1,-1,0
-13.22,6.51,-0.76,918,-117,8141,-1,-1,0
-13.22,6.51,-0.76,927,-113,8144,0,-1,-1
-13.22,6.52,-0.75,935,-108,8139,0,-1,-1
-13.22,6.53,-0.75,933,-105,8130,0,-1,-1
-13.22,6.53,-0.75,926,-97,8129,-1,-1,0
-13.22,6.53,-0.76,922,-106,8134,-1,-1,0
-13.21,6.53,-0.76,925,-105,8135,-1,-1,0
-13.21,6.53,-0.76,923,-114,8145,-1,-1,0
-13.21,6.53,-0.76,927,-111,8144,0,-1,0
-13.21,6.53,-0.76,926,-109,8145,0,-1,-1
-13.22,6.53,-0.76,927,-99,8139,0,0,0
-13.22,6.53,-0.76,933,-92,8140,-1,0,-1
-13.22,6.53,-0.76,932,-93,8147,-1,0,0
-13.21,6.52,-0.76,924,-100,8148,-1,0,-1
-13.21,6.52,-0.76,916,-107,8149,-1,-1,0
-13.21,6.52,-0.77,915,-121,8144,0,-1,0
-13.21,6.52,-0.77,906,-109,8138,0,-1,-1
-13.22,6.53,-0.76,910,-71,8145,-1,-1,-1
-13.21,6.54,-0.77,934,-70,8148,-1,-1,0
-13.22,6.55,-0.79,933,-107,8149,-1,-1,0
-13.21,6.54,-0.81,920,-144,8134,-1,0,0
-13.21,6.54,-0.82,910,-179,8114,0,0,-1
-13.21,6.54,-0.80,930,-147,8130,0,-1,-1
-13.21,6.55,-0.79,938,-111,8146,0,-1,0
-13.22,6.55,-0.79,935,-109,8147,-1,0,0
-13.22,6.54,-0.79,925,-118,8143,0,0,0
-13.21,6.54,-0.79,924,-121,8145,0,-1,0
-13.22,6.55,-0.78,921,-103,8133,0,-1,0
-13.22,6.55,-0.78,925,-101,8136,-1,-1,0
-13.22,6.55,-0.79,934,-108,8136,-1,-1,0
-13.22,6.55,-0.79,924,-116,8139,0,-1,-1
-13.22,6.55,-0.78,928,-125,8152,0,-1,-1
-13.22,6.55,-0.77,928,-121,8150,0,-1,0
-13.22,6.55,-0.77,928,-110,8147,0,0,0
-13.22,6.54,-0.76,928,-97,8152,0,-1,-1
-13.22,6.54,-0.76,921,-97,8152,-1,-1,0
-13.22,6.54,-0.76,929,-111,8140,-1,-1,0
-13.21,6.54,-0.77,929,-123,8134,0,0,0
-13.21,6.54,-0.77,929,-125,8145,0,-1,-1
-13.21,6.53,-0.76,930,-124,8140,0,0,0
-13.22,6.53,-0.76,931,-109,8135,0,0,0
-13.22,6.53,-0.76,924,-102,8133,-1,0,-1
-13.22,6.53,-0.76,926,-98,8148,-1,0,0
-13.21,6.52,-0.76,922,-98,8152,-1,0,0
-13.21,6.52,-0.76,923,-109,8151,-1,0,0
-13.21,6.52,-0.77,922,-114,8144,-1,0,0
-13.21,6.51,-0.77,926,-117,8137,0,0,-1
-13.21,6.51,-0.76,928,-104,8137,0,0,-1
-13.22,6.51,-0.75,924,-93,8138,0,0,0
-13.22,6.50,-0.75,917,-99,8144,-1,-1,0
-13.21,6.50,-0.76,917,-105,8139,-1,0,0
-13.21,6.50,-0.76,922,-110,8146,-1,-1,-1
-13.21,6.50,-0.76,920,-106,8151,0,0,-1
-13.21,6.49,-0.76,920,-105,8155,0,0,-1
-13.21,6.49,-0.76,922,-110,8137,0,0,-1
-13.21,6.49,-0.76,920,-105,8135,0,0,0
-13.21,6.49,-0.76,917,-105,8132,-1,0,0
-13.21,6.49,-0.76,920,-101,8143,-1,0,-1
-13.21,6.47,-0.76,915,-100,8149,-1,0,0
-13.21,6.46,-0.76,904,-100,8142,-1,0,0
-13.21,6.46,-0.77,909,-113,8148,-1,0,0
-13.21,6.46,-0.77,915,-123,8145,0,0,0
-13.21,6.46,-0.77,924,-115,8146,0,0,0
-13.21,6.45,-0.77,925,-108,8134,0,0,-1
-13.21,6.45,-0.77,926,-101,8135,0,0,0
-13.21,6.44,-0.77,927,-99,8141,-1,0,-1
-13.21,6.44,-0.77,917,-106,8149,-1,0,0
-13.21,6.43,-0.77,909,-110,8144,-1,0,0
-13.21,6.43,-0.77,911,-118,8145,-1,0,0
-13.21,6.42,-0.77,903,-117,8153,0,0,0
-13.21,6.41,-0.77,902,-112,8138,0,0,0
-13.21,6.41,-0.76,913,-107,8140,0,0,-1
-13.21,6.40,-0.76,915,-89,8144,-1,0,0
-13.21,6.39,-0.76,911,-96,8148,-1,0,-1
-13.21,6.39,-0.77,907,-105,8141,-1,0,0
-13.21,6.38,-0.78,896,-112,8152,-1,0,0
-13.21,6.38,-0.77,899,-111,8154,-1,0,0
-13.21,6.37,-0.78,901,-115,8151,-1,0,0
-13.21,6.37,-0.78,905,-116,8145,-1,0,0
-13.21,6.37,-0.78,907,-116,8141,-1,0,0
-13.22,6.36,-0.78,908,-112,8144,0,0,0
-13.21,6.36,-0.78,905,-112,8145,-1,0,-1
-13.21,6.35,-0.79,902,-109,8150,0,0,0
-13.21,6.34,-0.78,894,-110,8158,-1,0,0
-13.21,6.33,-0.78,896,-110,8150,0,0,0
-13.21,6.33,-0.78,898,-109,8150,0,0,-1
-13.21,6.33,-0.78,900,-108,8150,0,0,-1
-13.21,6.33,-0.78,895,-104,8140,0,0,-1
-13.21,6.32,-0.77,891,-99,8139,0,0,-1
-13.21,6.32,-0.77,894,-98,8146,-1,-1,-1
-13.20,6.32,-0.77,886,-101,8140,-1,0,-1
-13.20,6.31,-0.77,886,-111,8146,-1,-1,-1
-13.20,6.31,-0.77,888,-113,8141,0,-1,-1
-13.20,6.32,-0.77,893,-110,8143,0,-1,-1
-13.20,6.32,-0.76,897,-103,8141,0,-1,-1
-13.20,6.32,-0.76,895,-96,8143,-1,0,0
-13.20,6.32,-0.76,900,-107,8140,-1,-1,0
-13.20,6.32,-0.77,894,-119,8142,-1,-1,0
-13.19,6.31,-0.77,884,-125,8148,0,-1,-1
-13.19,6.31,-0.77,882,-125,8143,0,-1,-1
-13.20,6.32,-0.76,884,-111,8151,0,-1,-1
-13.19,6.32,-0.75,902,-99,8153,0,-1,0
-13.19,6.33,-0.75,903,-99,8144,0,-1,0
-13.19,6.33,-0.75,901,-103,8150,0,-1,-1
-13.20,6.34,-0.75,904,-112,8146,0,-1,0
-13.19,6.34,-0.75,895,-110,8140,0,-1,-1
-13.19,6.34,-0.74,886,-104,8139,0,-1,-1
-13.19,6.35,-0.75,895,-108,8146,-1,-1,0
-13.20,6.35,-0.75,893,-108,8136,0,-1,0
-13.20,6.35,-0.74,894,-104,8142,0,-1,0
-13.20,6.36,-0.74,901,-110,8142,-1,-1,0
-13.20,6.36,-0.75,901,-114,8143,-1,-1,-1
-13.20,6.36,-0.75,899,-111,8145,0,-1,-1
-13.19,6.36,-0.74,892,-104,8157,0,-1,-1
-13.20,6.37,-0.74,896,-102,8158,0,-1,0
-13.20,6.37,-0.75,903,-112,8154,0,-1,0
-13.20,6.37,-0.75,904,-117,8144,0,-1,0
-13.20,6.38,-0.74,913,-110,8134,0,-1,0
-13.20,6.39,-0.73,912,-94,8145,0,-1,-1
-13.20,6.39,-0.73,910,-91,8147,-1,-1,0
-13.20,6.40,-0.73,905,-101,8154,-1,-1,0
-13.20,6.40,-0.74,905,-108,8154,-1,-1,0
-13.20,6.40,-0.74,904,-119,8147,0,-1,0
-13.20,6.40,-0.74,905,-117,8141,0,-1,-1
-13.20,6.41,-0.74,906,-102,8136,0,-1,-1
-13.20,6.41,-0.73,904,-88,8138,0,-1,0
-13.20,6.42,-0.72,907,-87,8141,-1,-1,0
-13.20,6.42,-0.73,905,-91,8149,-1,-1,0
-13.21,6.42,-0.73,911,-105,8146,-1,-1,0
-13.21,6.42,-0.73,914,-109,8153,0,-1,0
-13.21,6.43,-0.73,906,-101,8153,-1,-1,0
-13.21,6.44,-0.73,915,-105,8143,-1,-1,0
-13.21,6.45,-0.74,915,-107,8139,-1,-1,0
-13.21,6.45,-0.74,916,-111,8140,-1,-1,0
-13.21,6.45,-0.74,916,-110,8139,-1,-1,0
-13.21,6.45,-0.74,918,-113,8144,-1,-1,0
-13.21,6.45,-0.74,913,-112,8146,0,-1,0
-13.21,6.45,-0.74,908,-113,8137,0,-1,0
-13.21,6.45,-0.74,907,-114,8143,0,-1,0
-13.21,6.45,-0.74,912,-112,8142,0,-1,0
-13.22,6.46,-0.73,912,-104,8135,0,-1,0
-13.22,6.46,-0.73,918,-93,8132,0,-1,0
-13.21,6.46,-0.72,913,-95,8130,-1,-1,-1
-13.22,6.47,-0.73,913,-93,8131,-1,-1,0
-13.22,6.47,-0.73,915,-104,8144,-1,-1,0
-13.22,6.47,-0.73,912,-105,8155,0,-1,0
-13.22,6.48,-0.72,911,-101,8151,0,-1,-1
-13.22,6.48,-0.72,919,-89,8142,-1,-1,-1
-13.22,6.48,-0.72,918,-94,8138,-1,0,0
-13.22,6.48,-0.73,916,-108,8144,-1,-1,0
-13.22,6.48,-0.74,912,-109,8149,-1,-1,0
-13.22,6.48,-0.74,917,-109,8152,-1,-1,0
-13.22,6.49,-0.74,919,-106,8142,0,-1,-1
-13.22,6.49,-0.73,917,-97,8153,0,-1,-1
-13.22,6.49,-0.73,924,-94,8150,-1,-1,0
-13.22,6.49,-0.73,920,-95,8150,-1,-1,0
-13.22,6.49,-0.73,920,-100,8155,0,-1,0
-13.22,6.48,-0.73,915,-103,8153,0,-1,0
-13.22,6.49,-0.73,917,-98,8148,0,-1,0
-13.22,6.48,-0.73,918,-92,8144,-1,-1,0
-13.22,6.48,-0.73,916,-101,8145,-1,0,0
-13.22,6.48,-0.73,917,-103,8147,-1,-1,-1
-13.22,6.48,-0.74,921,-114,8143,-1,-1,0
-13.22,6.49,-0.74,922,-113,8142,0,-1,0
-13.22,6.49,-0.74,925,-116,8141,0,-1,0
-13.22,6.49,-0.74,932,-114,8122,0,-1,-1
-13.22,6.50,-0.73,936,-102,8123,0,0,-1
-13.22,6.49,-0.73,928,-91,8135,-1,0,-1
-13.21,6.49,-0.73,920,-97,8137,-1,0,0
-13.21,6.48,-0.74,911,-100,8147,-1,-1,0
-13.21,6.48,-0.74,916,-106,8140,0,-1,0
-13.21,6.48,-0.74,918,-104,8149,0,-1,0
-13.21,6.48,-0.74,916,-101,8141,0,-1,-1
-13.21,6.48,-0.73,924,-98,8145,-1,-1,0
-13.21,6.48,-0.74,928,-101,8139,-1,-1,0
-13.22,6.48,-0.74,928,-101,8140,-1,-1,0
-13.22,6.48,-0.74,925,-100,8144,0,-1,0
-13.21,6.48,-0.73,928,-93,8140,0,0,-1
-13.22,6.48,-0.73,921,-98,8142,-1,0,0
-13.22,6.48,-0.73,930,-105,8141,-1,-1,0
-13.22,6.48,-0.74,927,-111,8134,-1,-1,0
-13.22,6.48,-0.74,927,-123,8139,0,0,-1
-13.22,6.48,-0.74,931,-118,8147,0,0,-1
-13.22,6.48,-0.73,930,-98,8155,0,0,0
-13.22,6.47,-0.73,925,-95,8148,-1,-1,-1
-13.21,6.47,-0.74,924,-95,8145,-1,0,-1
-13.21,6.47,-0.74,925,-107,8137,-1,0,0
-13.21,6.47,-0.74,925,-112,8139,0,0,0
-13.21,6.47,-0.74,925,-111,8139,0,0,-1
-13.21,6.47,-0.73,929,-104,8147,0,0,-1
-13.21,6.47,-0.73,928,-100,8150,-1,-1,0
-13.21,6.47,-0.73,928,-106,8148,-1,-1,0
-13.21,6.47,-0.74,923,-104,8142,-1,0,0
-13.21,6.47,-0.74,920,-107,8143,0,0,-1
-13.21,6.47,-0.74,923,-117,8140,0,0,0
-13.21,6.47,-0.73,928,-111,8144,0,0,-1
-13.21,6.46,-0.73,927,-112,8145,0,0,0
-13.21,6.46,-0.73,924,-102,8137,-1,0,0
-13.21,6.46,-0.73,924,-100,8137,-1,0,-1
-13.21,6.45,-0.73,919,-106,8138,0,0,-1
-13.21,6.45,-0.73,925,-112,8131,0,0,0
-13.21,6.45,-0.74,926,-105,8136,-1,0,0
-13.21,6.45,-0.74,921,-108,8145,-1,0,-1
-13.21,6.45,-0.74,912,-110,8160,-1,0,0
-13.21,6.44,-0.75,918,-113,8165,0,0,-1
-13.21,6.45,-0.74,922,-104,8148,0,0,-1
-13.21,6.45,-0.74,926,-101,8140,0,0,0
-13.21,6.45,-0.74,924,-99,8141,0,0,-1
-13.21,6.44,-0.74,916,-108,8141,-1,0,0
-13.21,6.43,-0.75,905,-108,8138,-1,0,-1
-13.21,6.43,-0.74,905,-109,8137,0,0,-1
-13.20,6.43,-0.74,912,-111,8138,0,-1,-1
-13.20,6.43,-0.74,923,-108,8134,0,0,0
-13.20,6.43,-0.74,933,-107,8134,0,0,-1
-13.20,6.43,-0.73,933,-105,8138,0,0,-1
-13.20,6.42,-0.73,926,-104,8147,0,0,-1
-13.20,6.42,-0.73,919,-101,8138,-1,0,-1
-13.20,6.42,-0.74,913,-99,8139,-1,0,0
-13.20,6.41,-0.74,910,-106,8147,-1,0,0
-13.20,6.41,-0.74,912,-111,8143,-1,0,0
-13.19,6.41,-0.74,910,-104,8140,0,0,0
-13.20,6.41,-0.74,916,-100,8147,-1,-1,0
-13.19,6.41,-0.73,910,-100,8135,-1,0,-1
-13.20,6.41,-0.74,913,-100,8141,-1,-1,0
-13.20,6.41,-0.74,914,-97,8140,-1,-1,0
-13.20,6.41,-0.74,912,-98,8140,0,-1,0
-13.20,6.41,-0.74,919,-99,8148,0,-1,0
-13.20,6.42,-0.74,921,-104,8152,-1,-1,0
-13.20,6.42,-0.74,924,-107,8150,-1,-1,0
-13.20,6.42,-0.74,926,-113,8152,0,-1,0
-13.20,6.42,-0.74,928,-107,8143,0,-1,-1
-13.20,6.42,-0.74,923,-108,8140,0,-1,0
-13.20,6.42,-0.74,918,-103,8145,-1,0,0
-13.20,6.42,-0.74,918,-104,8156,-1,-1,0
-13.20,6.42,-0.74,925,-112,8151,0,-1,-1
-13.21,6.42,-0.75,921,-121,8143,0,-1,0
-13.21,6.42,-0.74,923,-115,8134,0,-1,-1
-13.21,6.42,-0.74,918,-110,8139,0,-1,0
-13.21,6.43,-0.74,918,-97,8147,0,-1,0
-13.21,6.43,-0.74,918,-92,8143,-1,-1,-1
-13.21,6.43,-0.74,914,-100,8138,-1,-1,0
-13.21,6.44,-0.74,923,-104,8137,-1,-1,0
-13.21,6.44,-0.74,926,-106,8135,0,-1,0
-13.21,6.45,-0.73,927,-100,8140,0,-1,-1
-13.21,6.45,-0.73,929,-102,8135,0,-1,0
-13.21,6.45,-0.73,922,-95,8138,0,-1,0
-13.21,6.45,-0.73,918,-92,8141,-1,-1,0
-13.21,6.45,-0.73,919,-97,8136,-1,-1,0
-13.21,6.45,-0.73,924,-106,8144,-1,-1,-1
-13.21,6.45,-0.74,921,-109,8139,0,-1,0
-13.22,6.45,-0.73,919,-103,8140,0,-1,0
-13.21,6.45,-0.73,922,-101,8149,0,-1,0
-13.21,6.45,-0.73,914,-99,8149,0,-1,0
-13.21,6.45,-0.73,913,-95,8147,-1,-1,0
-13.21,6.45,-0.73,917,-102,8151,-1,-1,-1
-13.21,6.45,-0.73,921,-112,8157,0,-1,0
-13.21,6.45,-0.73,926,-107,8154,0,-1,-1
-13.21,6.45,-0.73,932,-100,8149,-1,-1,0
-13.21,6.45,-0.73,930,-94,8145,-1,-1,0
-13.21,6.45,-0.73,928,-95,8146,-1,0,0
-13.22,6.45,-0.73,917,-100,8151,-1,0,0
-13.22,6.45,-0.73,915,-108,8158,-1,-1,0
-13.22,6.45,-0.74,921,-114,8163,0,-1,0
-13.22,6.45,-0.73,927,-118,8151,0,-1,-1
-13.22,6.46,-0.73,936,-108,8133,0,0,-1
-13.22,6.46,-0.73,933,-96,8135,-1,0,0
-13.22,6.46,-0.73,930,-94,8136,-1,0,-1
-13.22,6.45,-0.73,923,-101,8137,-1,0,0
-13.22,6.45,-0.73,922,-102,8145,0,-1,-1
-13.22,6.46,-0.73,923,-109,8141,0,-1,-1
-13.22,6.46,-0.73,917,-107,8145,0,-1,0
-13.22,6.45,-0.73,923,-109,8137,0,0,0
-13.22,6.46,-0.73,931,-102,8140,0,0,0
-13.22,6.46,-0.73,932,-103,8135,0,0,0
-13.22,6.46,-0.73,929,-106,8136,0,-1,-1
-13.22,6.45,-0.73,921,-96,8129,0,-1,0
-13.22,6.46,-0.73,927,-97,8142,-1,-1,0
-13.22,6.46,-0.73,920,-107,8141,-1,-1,0
-13.22,6.46,-0.73,923,-109,8139,-1,-1,0
-13.22,6.46,-0.73,930,-116,8134,0,0,0
-13.22,6.46,-0.73,926,-113,8133,0,0,-1
-13.22,6.46,-0.73,926,-111,8138,0,0,-1
-13.22,6.46,-0.73,931,-105,8152,0,-1,0
-13.22,6.46,-0.73,933,-99,8146,-1,-1,-1
-13.22,6.46,-0.73,925,-103,8147,-1,-1,0
-13.22,6.46,-0.73,929,-114,8147,0,-1,0
-13.22,6.46,-0.73,925,-107,8151,0,0,0
-13.22,6.46,-0.73,930,-103,8147,0,0,-1
-13.22,6.46,-0.72,924,-92,8136,0,0,0
-13.22,6.46,-0.72,927,-92,8134,-1,0,0
-13.22,6.46,-0.72,933,-94,8142,-1,0,0
-13.22,6.46,-0.73,929,-107,8143,-1,0,0
-13.22,6.46,-0.73,920,-117,8142,0,-1,0
-13.22,6.46,-0.72,923,-105,8137,0,0,-1
-13.22,6.45,-0.72,927,-97,8143,0,0,0
-13.22,6.45,-0.72,932,-97,8145,-1,0,-1
-13.22,6.45,-0.72,931,-102,8139,-1,0,0
-13.22,6.45,-0.73,926,-111,8142,-1,-1,-1
-13.22,6.45,-0.73,924,-113,8153,0,0,-1
-13.22,6.45,-0.73,919,-119,8160,0,0,-1
-13.22,6.44,-0.73,922,-111,8159,0,0,-1
-13.22,6.44,-0.72,919,-109,8149,0,0,-1
-13.22,6.44,-0.72,925,-104,8140,-1,0,-1
-13.22,6.44,-0.72,930,-107,8132,0,0,-1
-13.22,6.43,-0.72,924,-104,8127,0,0,-1
-13.22,6.43,-0.72,920,-102,8134,-1,0,-1
-13.22,6.43,-0.72,925,-101,8134,-1,0,-1
-13.22,6.43,-0.72,925,-108,8140,-1,0,-1
-13.22,6.43,-0.72,923,-110,8141,0,0,0
-13.21,6.43,-0.72,916,-112,8142,0,0,-1
-13.21,6.42,-0.72,916,-115,8140,-1,0,-1
-13.21,6.42,-0.72,916,-110,8139,-1,0,0
-13.21,6.41,-0.73,915,-106,8138,-1,0,-1
-13.21,6.40,-0.73,910,-100,8148,-1,0,0
-13.21,6.40,-0.73,903,-109,8155,-1,0,0
-13.21,6.40,-0.73,909,-109,8157,0,0,0
-13.21,6.40,-0.73,916,-104,8149,0,0,-1
-13.21,6.40,-0.73,925,-99,8139,0,0,-1
-13.21,6.40,-0.72,931,-91,8129,0,0,-1
-13.21,6.39,-0.72,921,-85,8137,-1,0,0
-13.21,6.38,-0.72,913,-92,8134,-1,0,0
-13.21,6.38,-0.73,915,-103,8142,-1,0,0
-13.21,6.38,-0.73,916,-112,8136,-1,0,-1
-13.21,6.38,-0.73,921,-113,8143,0,0,0
-13.20,6.37,-0.72,924,-111,8157,0,0,-1
-13.20,6.36,-0.72,922,-104,8152,0,0,-1
-13.20,6.35,-0.71,914,-88,8142,0,0,-1
-13.20,6.34,-0.71,906,-86,8139,-1,0,0
-13.20,6.34,-0.71,900,-88,8138,-1,0,0
-13.20,6.34,-0.72,906,-98,8147,-1,-1,0
-13.20,6.34,-0.73,923,-110,8150,-1,-1,0
-13.20,6.35,-0.73,924,-123,8144,-1,0,0
-13.20,6.34,-0.74,925,-124,8134,0,0,0
-13.20,6.33,-0.74,916,-118,8134,0,0,-1
-13.20,6.33,-0.74,908,-107,8132,0,0,-1
-13.20,6.33,-0.73,905,-95,8141,-1,0,-1
-13.20,6.32,-0.74,904,-89,8148,-1,0,0
-13.20,6.32,-0.74,910,-102,8149,-1,0,0
-13.19,6.32,-0.75,910,-105,8156,-1,0,0
-13.19,6.31,-0.74,909,-113,8147,0,0,-1
-13.19,6.31,-0.74,901,-110,8141,0,0,0
-13.19,6.31,-0.73,900,-96,8144,0,0,-1
-13.19,6.31,-0.72,896,-85,8144,-1,0,0
-13.19,6.31,-0.73,899,-89,8144,-1,-1,0
-13.19,6.30,-0.74,891,-101,8146,-1,-1,0
-13.19,6.30,-0.74,893,-113,8149,-1,-1,-1
-13.19,6.30,-0.74,895,-111,8148,0,-1,-1
-13.19,6.31,-0.73,895,-102,8141,0,-1,-1
-13.19,6.31,-0.73,896,-99,8134,-1,-1,0
-13.19,6.30,-0.74,903,-96,8140,-1,-1,0
-13.19,6.30,-0.74,897,-105,8147,-1,-1,0
-13.19,6.31,-0.74,896,-109,8150,0,-1,0
-13.19,6.31,-0.74,901,-110,8146,0,-1,-1
-13.19,6.31,-0.74,906,-110,8153,0,-1,0
-13.19,6.31,-0.74,899,-108,8143,0,-1,0
-13.19,6.31,-0.74,906,-110,8140,0,-1,-1
-13.19,6.31,-0.74,901,-101,8146,0,-1,-1
-13.19,6.32,-0.73,899,-92,8144,-1,-1,-1
-13.19,6.33,-0.73,909,-99,8144,-1,-1,0
-13.19,6.33,-0.73,910,-93,8140,0,-1,0
-13.19,6.33,-0.73,906,-102,8142,0,-1,0
-13.19,6.33,-0.73,902,-109,8146,-1,-1,0
-13.19,6.34,-0.73,907,-112,8154,0,-1,0
-13.20,6.35,-0.73,913,-113,8143,0,-1,0
-13.20,6.35,-0.74,920,-109,8145,0,-1,0
-13.20,6.35,-0.73,919,-103,8134,-1,-1,0
-13.20,6.36,-0.73,915,-103,8141,-1,-1,0
-13.20,6.36,-0.74,915,-111,8142,0,-1,-1
-13.20,6.37,-0.74,921,-112,8131,-1,-1,0
-13.20,6.37,-0.74,918,-116,8140,-1,0,-1
-13.20,6.37,-0.75,914,-114,8135,0,-1,-1
-13.20,6.37,-0.75,912,-115,8129,0,-1,0
-13.20,6.37,-0.75,912,-109,8142,0,-1,0
-13.20,6.38,-0.74,915,-103,8139,0,-1,0
-13.20,6.38,-0.74,917,-95,8142,-1,-1,0
-13.21,6.39,-0.74,921,-101,8138,-1,-1,0
-13.21,6.40,-0.74,922,-101,8137,-1,-1,0
-13.21,6.40,-0.74,925,-101,8137,0,-1,0
-13.21,6.40,-0.74,926,-101,8146,0,-1,-1
-13.21,6.40,-0.74,920,-104,8144,0,-1,-1
-13.21,6.41,-0.74,916,-105,8136,-1,-1,0
-13.21,6.41,-0.74,924,-110,8134,-1,-1,0
-13.21,6.41,-0.74,932,-108,8141,0,0,-1
-13.21,6.41,-0.75,919,-101,8137,-1,-1,0
-13.21,6.41,-0.76,913,-111,8125,-1,-1,0
-13.22,6.41,-0.77,921,-123,8129,-1,-1,0
-13.22,6.41,-0.77,925,-114,8149,0,0,0
-13.22,6.41,-0.77,918,-122,8150,-1,-1,0
-13.23,6.41,-0.77,937,-123,8146,0,0,0
-13.23,6.41,-0.76,930,-109,8142,0,0,-1
-13.23,6.39,-0.75,902,-88,8144,0,0,-1
-13.22,6.39,-0.75,889,-82,8145,-1,-1,-1
-13.22,6.40,-0.75,891,-89,8152,-1,-1,0
-13.22,6.41,-0.76,902,-97,8154,-1,-1,0
-13.22,6.43,-0.77,922,-114,8149,-1,-1,0
-13.22,6.44,-0.78,936,-136,8132,-1,-1,0
-13.22,6.45,-0.78,963,-148,8130,0,0,-1
-13.22,6.43,-0.77,942,-133,8132,0,0,-1
-13.22,6.41,-0.76,905,-108,8145,0,0,-1
-13.22,6.42,-0.75,889,-90,8149,-1,-1,0
-13.22,6.42,-0.75,895,-86,8146,-1,-1,0
-13.22,6.43,-0.76,910,-95,8136,-1,-1,0
-13.22,6.43,-0.77,927,-110,8135,-1,-1,0
-13.22,6.44,-0.78,934,-129,8140,0,0,-1
-13.22,6.43,-0.77,927,-129,8139,0,0,-1
-13.22,6.44,-0.76,924,-112,8148,0,-1,0
-13.22,6.44,-0.76,924,-97,8146,0,-1,0
-13.22,6.44,-0.75,917,-87,8141,-1,-1,0
-13.22,6.44,-0.76,919,-92,8145,-1,-1,0
-13.22,6.44,-0.77,923,-111,8142,-1,-1,0
-13.22,6.45,-0.77,927,-125,8143,0,-1,0
-13.22,6.45,-0.77,935,-132,8144,0,0,-1
-13.22,6.45,-0.76,929,-117,8139,0,0,-1
-13.22,6.44,-0.75,922,-96,8146,0,-1,0
-13.22,6.44,-0.75,921,-88,8140,-1,-1,0
-13.22,6.44,-0.75,926,-89,8140,-1,0,0
-13.22,6.44,-0.75,921,-93,8141,-1,0,0
-13.22,6.44,-0.76,916,-104,8137,-1,-1,0
-13.23,6.44,-0.76,924,-122,8141,0,0,0
-13.23,6.44,-0.76,923,-114,8154,0,0,-1
-13.22,6.44,-0.75,921,-95,8151,0,0,0
-13.23,6.44,-0.75,914,-92,8144,0,-1,0
-13.23,6.44,-0.75,917,-90,8152,-1,-1,0
-13.23,6.44,-0.75,924,-103,8144,-1,-1,0
-13.23,6.44,-0.75,925,-113,8148,0,-1,-1
-13.23,6.44,-0.75,920,-112,8151,0,0,-1
-13.23,6.44,-0.74,904,-103,8143,-1,-1,0
-13.23,6.44,-0.75,921,-102,8133,-1,-1,0
-13.23,6.44,-0.75,941,-109,8132,0,0,-1
-13.23,6.44,-0.75,928,-114,8139,0,0,-1
-13.23,6.44,-0.75,926,-112,8140,0,0,-1
-13.23,6.44,-0.74,916,-99,8135,0,0,-1
-13.23,6.44,-0.74,918,-96,8137,-1,-1,0
-13.23,6.44,-0.75,928,-107,8138,-1,-1,0
-13.23,6.44,-0.75,927,-112,8144,-1,-1,0
-13.23,6.44,-0.75,929,-119,8150,0,0,-1
-13.23,6.44,-0.75,925,-114,8149,0,0,-1
-13.22,6.44,-0.74,923,-103,8135,0,0,-1
-13.22,6.44,-0.73,924,-94,8138,-1,0,0
-13.22,6.44,-0.74,923,-100,8135,-1,-1,0
-13.23,6.44,-0.75,926,-117,8137,-1,-1,0
-13.23,6.44,-0.75,933,-114,8142,-1,-1,0
-13.23,6.45,-0.75,937,-119,8135,0,0,-1
-13.22,6.44,-0.75,933,-111,8136,0,0,-1
-13.22,6.44,-0.75,927,-104,8133,0,0,0
-13.22,6.45,-0.74,919,-98,8137,-1,0,0
-13.22,6.44,-0.75,916,-103,8138,-1,0,0
-13.22,6.44,-0.75,921,-105,8143,-1,-1,0
-13.22,6.44,-0.75,925,-114,8155,0,-1,0
-13.22,6.44,-0.75,922,-116,8149,0,-1,-1
-13.22,6.44,-0.74,929,-107,8140,0,0,0
-13.22,6.44,-0.74,930,-102,8135,-1,0,-1
-13.22,6.43,-0.74,926,-102,8140,0,0,0
-13.22,6.43,-0.74,919,-99,8147,0,0,0
-13.22,6.43,-0.73,930,-87,8144,0,-1,-1
-13.22,6.43,-0.73,928,-93,8141,-1,-1,0
-13.22,6.43,-0.73,930,-106,8131,0,0,0
-13.22,6.43,-0.74,923,-115,8130,-1,0,0
-13.22,6.42,-0.75,915,-120,8142,0,-1,-1
-13.22,6.42,-0.74,912,-112,8144,0,0,-1
-13.22,6.43,-0.73,915,-102,8151,0,-1,-1
-13.22,6.43,-0.73,923,-113,8142,0,-1,0
-13.22,6.43,-0.73,930,-111,8138,0,0,-1
-13.22,6.43,-0.72,929,-104,8136,0,0,-1
-13.22,6.43,-0.72,935,-96,8144,-1,0,-1
-13.21,6.42,-0.72,922,-89,8149,-1,0,-1
-13.21,6.41,-0.72,915,-94,8145,-1,0,0
-13.21,6.41,-0.73,920,-106,8144,-1,0,0
-13.21,6.41,-0.73,923,-104,8148,0,0,-1
-13.21,6.41,-0.73,925,-100,8140,0,0,0
-13.21,6.41,-0.73,925,-94,8136,-1,0,0
-13.21,6.41,-0.72,926,-90,8133,0,0,0
-13.21,6.41,-0.72,928,-99,8139,0,0,0
-13.21,6.40,-0.72,921,-94,8144,0,0,-1
-13.21,6.40,-0.72,920,-97,8151,-1,-1,0
-13.21,6.40,-0.73,924,-100,8153,-1,0,0
-13.21,6.40,-0.73,931,-109,8151,-1,0,0
-13.21,6.41,-0.74,931,-116,8144,0,0,0
-13.21,6.40,-0.73,932,-109,8149,0,0,-1
-13.21,6.40,-0.72,929,-93,8139,0,0,-1
-13.21,6.40,-0.72,925,-86,8141,-1,0,0
-13.21,6.40,-0.72,923,-90,8137,-1,0,0
-13.21,6.40,-0.73,920,-96,8137,-1,0,0
-13.21,6.40,-0.73,917,-108,8146,-1,0,0
-13.21,6.40,-0.73,915,-107,8144,0,0,-1
-13.21,6.39,-0.72,914,-101,8139,0,0,-1
-13.21,6.39,-0.72,911,-99,8135,0,0,0
-13.21,6.39,-0.72,911,-89,8133,-1,0,0
-13.21,6.39,-0.72,915,-91,8138,-1,0,0
-13.21,6.39,-0.72,916,-102,8138,0,-1,0
-13.21,6.39,-0.72,919,-107,8142,0,-1,0
-13.21,6.39,-0.72,919,-109,8139,0,0,-1
-13.21,6.39,-0.72,915,-115,8139,0,0,-1
-13.21,6.39,-0.71,922,-102,8140,0,-1,-1
-13.21,6.39,-0.71,920,-99,8147,-1,0,0
-13.21,6.38,-0.71,915,-102,8145,0,0,0
-13.21,6.38,-0.71,903,-100,8154,-1,0,0
-13.21,6.38,-0.72,919,-102,8160,-1,-1,0
-13.21,6.38,-0.72,915,-112,8150,0,-1,0
-13.21,6.38,-0.72,913,-119,8153,0,-1,-1
-13.21,6.38,-0.71,913,-98,8143,0,0,-1
-13.21,6.39,-0.70,910,-80,8129,0,0,0
-13.22,6.38,-0.69,918,-30,8146,-1,-1,0
-13.25,6.39,-0.71,985,49,8124,-2,1,1
-13.25,6.33,-0.82,711,-134,8203,-4,-3,-1
-13.26,6.44,-0.88,967,-301,8169,1,-2,-1
-13.25,6.45,-0.82,995,-175,8073,1,1,-1
-13.24,6.42,-0.80,885,-143,8126,0,-1,-1
-13.24,6.44,-0.79,933,-144,8149,0,-1,0
-13.24,6.44,-0.78,958,-110,8132,0,0,-1
-13.23,6.42,-0.77,931,-90,8139,0,0,-1
-13.23,6.42,-0.75,899,-84,8185,0,-1,0
-13.23,6.42,-0.76,888,-78,8173,-1,-1,0
-13.23,6.44,-0.78,941,-98,8131,-1,-1,0
-13.23,6.44,-0.78,943,-119,8125,0,0,-1
-13.23,6.43,-0.76,921,-119,8151,0,0,-1
-13.23,6.44,-0.75,919,-106,8148,0,-1,0
-13.24,6.44,-0.73,910,-101,8149,0,-1,0
-13.24,6.44,-0.74,925,-110,8145,-1,-1,0
-13.24,6.44,-0.74,913,-109,8149,0,-1,0
-13.24,6.46,-0.74,923,-108,8137,-1,-1,0
-13.24,6.47,-0.75,939,-111,8125,-1,-1,0
-13.25,6.48,-0.75,944,-106,8116,0,0,0
-13.25,6.47,-0.74,940,-69,8139,-1,0,0
-13.25,6.46,-0.75,919,-71,8176,-1,0,0
-13.25,6.47,-0.77,925,-88,8167,-1,-1,0
-13.25,6.47,-0.79,915,-132,8142,-1,-1,-1
-13.25,6.47,-0.80,935,-141,8128,0,0,-1
-13.24,6.47,-0.79,948,-119,8132,0,0,-1
-13.24,6.46,-0.79,946,-119,8144,0,0,-1
-13.23,6.44,-0.78,911,-128,8171,0,0,-1
-13.23,6.44,-0.78,907,-123,8175,0,-1,-1
-13.23,6.44,-0.76,911,-108,8154,0,-1,-1
-13.23,6.44,-0.75,911,-130,8085,1,0,-1
-13.22,6.44,-0.73,884,-128,8123,0,-1,-1
-13.22,6.47,-0.69,967,-32,8159,0,-1,0
-13.22,6.49,-0.70,955,-111,8134,-1,-2,0
-13.23,6.49,-0.71,900,-147,8110,0,-1,0
-13.24,6.50,-0.71,904,-128,8151,0,-1,0
-13.24,6.52,-0.70,957,-66,8164,-1,-1,-1
-13.23,6.53,-0.69,965,-3,8149,-1,0,0
-13.24,6.53,-0.72,943,-29,8135,-2,0,0
-13.24,6.52,-0.77,930,-154,8122,-1,0,0
-13.24,6.52,-0.78,956,-144,8132,0,0,0
-13.24,6.50,-0.78,946,-132,8152,-1,0,-1
-13.23,6.48,-0.77,924,-155,8175,0,0,-1
-13.23,6.48,-0.76,921,-120,8170,0,-1,-1
-13.23,6.49,-0.75,929,-77,8135,0,0,0
-13.24,6.48,-0.75,925,-72,8116,-1,0,0
-13.24,6.47,-0.74,915,-83,8123,0,0,-1
-13.23,6.45,-0.75,885,-143,8150,0,-1,-1
-13.24,6.47,-0.72,964,-55,8181,0,-1,0
-13.24,6.46,-0.71,978,-37,8106,-2,1,-1
-13.22,6.41,-0.74,910,-193,8104,0,1,-1
-13.21,6.40,-0.72,883,-173,8171,1,-1,0
-13.23,6.42,-0.70,916,-63,8129,-1,0,0
-13.23,6.41,-0.72,876,-80,8138,-1,0,0
-13.24,6.42,-0.72,914,-88,8150,-1,-1,0
-13.23,6.43,-0.73,905,-144,8141,0,-1,-1
-13.23,6.46,-0.71,986,-117,8109,0,-1,0
-13.22,6.45,-0.71,957,-127,8105,0,0,-1
-13.22,6.44,-0.70,924,-116,8124,0,0,0
-13.23,6.42,-0.67,904,-98,8187,0,-1,0
-13.23,6.42,-0.68,924,-104,8161,-1,0,-1
-13.23,6.42,-0.69,897,-71,8153,-1,-1,0
-13.23,6.43,-0.70,902,-129,8111,0,-1,0
-13.22,6.41,-0.70,942,-76,8181,-1,0,0
-13.22,6.39,-0.71,932,-99,8155,1,1,-1
-13.22,6.38,-0.70,898,-51,8142,-1,-1,0
-13.22,6.37,-0.68,906,-62,8156,0,0,-1
-13.21,6.37,-0.67,912,-74,8140,0,0,-1
-13.20,6.37,-0.67,909,-74,8127,-1,0,-1
-13.20,6.37,-0.69,926,-88,8142,-1,0,-1
-13.19,6.37,-0.69,916,-108,8151,-1,0,-1
-13.19,6.37,-0.70,918,-122,8139,-1,0,-1
-13.19,6.36,-0.71,925,-125,8136,0,0,-1
-13.18,6.34,-0.71,918,-117,8145,-1,0,-1
-13.18,6.33,-0.71,918,-106,8140,-1,0,0
-13.18,6.31,-0.72,910,-97,8126,-1,0,0
-13.18,6.30,-0.72,923,-120,8126,-1,0,0
-13.18,6.28,-0.73,900,-75,8144,-1,0,0
-13.18,6.26,-0.74,884,-114,8118,0,0,-1
-13.18,6.26,-0.73,828,-140,8184,0,-2,0
-13.18,6.30,-0.71,922,-98,8185,0,-1,-1
-13.18,6.31,-0.70,898,-114,8146,0,-1,-1
-13.17,6.32,-0.70,957,-109,8111,0,0,-1
-13.17,6.30,-0.68,901,-48,8095,-1,0,0
-13.18,6.29,-0.68,890,-42,8135,-2,0,0
-13.18,6.29,-0.71,907,-100,8174,-1,-1,0
-13.18,6.30,-0.71,901,-121,8139,0,0,0
-13.18,6.29,-0.71,870,-119,8139,0,-1,-1
-13.18,6.30,-0.70,895,-126,8144,0,-1,0
-13.18,6.32,-0.70,913,-110,8130,0,-1,0
-13.19,6.32,-0.69,918,-86,8133,-1,0,0
-13.19,6.32,-0.69,915,-72,8140,-1,0,0
-13.18,6.32,-0.70,905,-99,8143,-1,0,0
-13.18,6.31,-0.71,901,-101,8160,-1,0,0
-13.19,6.31,-0.72,911,-106,8160,-1,-1,0
-13.19,6.31,-0.72,904,-111,8145,-1,0,0
-13.19,6.31,-0.72,893,-98,8135,0,-1,-1
-13.19,6.32,-0.72,919,-92,8126,0,-1,-1
-13.19,6.31,-0.72,908,-86,8127,-1,0,0
-13.20,6.31,-0.72,900,-80,8144,-1,-1,0
-13.20,6.31,-0.74,910,-98,8146,-1,0,0
-13.20,6.31,-0.75,899,-116,8160,-1,0,0
-13.20,6.31,-0.76,897,-126,8146,-1,-1,0
-13.20,6.31,-0.77,904,-131,8132,-1,0,0
-13.20,6.31,-0.77,911,-107,8154,-1,0,0
-13.21,6.30,-0.77,921,-90,8147,-1,0,0
-13.21,6.29,-0.77,915,-93,8154,-1,0,0
-13.21,6.29,-0.78,914,-95,8156,-1,0,0
-13.22,6.27,-0.80,896,-99,8160,-1,0,0
-13.22,6.26,-0.81,887,-109,8151,-1,0,0
-13.22,6.25,-0.82,892,-119,8146,-1,0,0
-13.22,6.24,-0.83,891,-111,8149,-1,0,0
-13.22,6.23,-0.83,890,-108,8153,-1,0,0
-13.22,6.22,-0.84,893,-117,8146,-1,0,-1
-13.22,6.21,-0.83,885,-121,8146,0,0,-1
-13.21,6.20,-0.83,885,-127,8150,0,0,-1
-13.21,6.19,-0.83,879,-127,8147,0,0,-1
-13.21,6.18,-0.83,876,-124,8140,0,0,-1
-13.21,6.18,-0.83,888,-121,8151,0,0,-1
-13.20,6.17,-0.83,889,-117,8145,0,0,0
-13.20,6.17,-0.83,887,-128,8137,0,0,-1
-13.20,6.17,-0.82,885,-129,8142,0,0,-1
-13.20,6.16,-0.82,873,-123,8153,0,0,-1
-13.20,6.16,-0.81,879,-117,8158,0,-1,-1
-13.20,6.16,-0.81,872,-119,8157,0,-1,-1
-13.19,6.16,-0.81,868,-123,8150,0,-1,-1
-13.19,6.16,-0.80,877,-125,8142,0,-1,-1
-13.19,6.17,-0.79,887,-116,8135,0,-1,-1
-13.18,6.17,-0.78,889,-109,8149,0,-1,-1
-13.18,6.18,-0.77,894,-106,8157,0,-1,-1
-13.18,6.18,-0.77,894,-106,8158,0,-1,-1
-13.18,6.19,-0.77,891,-108,8161,0,-1,0
-13.18,6.19,-0.77,895,-114,8157,-1,-1,0
-13.18,6.20,-0.77,893,-117,8144,0,-1,-1
-13.18,6.21,-0.77,894,-121,8141,0,-1,-1
-13.18,6.21,-0.77,900,-121,8137,0,-1,-1
-13.17,6.22,-0.76,896,-107,8142,0,-1,-1
-13.17,6.22,-0.76,903,-113,8143,-1,-1,0
-13.17,6.22,-0.76,901,-113,8142,-1,-1,0
-13.17,6.22,-0.76,893,-114,8153,0,-1,-1
-13.17,6.23,-0.76,892,-114,8146,0,-1,-1
-13.17,6.23,-0.76,893,-109,8144,0,-1,-1
-13.17,6.24,-0.76,898,-105,8142,0,-1,-1
-13.17,6.25,-0.76,903,-102,8143,-1,-1,-1
-13.17,6.25,-0.75,903,-101,8148,0,-1,-1
-13.17,6.25,-0.75,901,-102,8158,0,-1,-1
-13.17,6.26,-0.74,900,-104,8153,0,-1,-1
-13.17,6.26,-0.74,901,-108,8145,0,-1,0
-13.17,6.27,-0.75,903,-109,8149,0,-1,0
-13.17,6.27,-0.75,905,-110,8150,0,-1,-1
-13.17,6.28,-0.74,904,-103,8153,0,-1,-1
-13.17,6.28,-0.73,907,-98,8152,-1,-1,-1
-13.17,6.29,-0.73,906,-97,8154,0,-1,-1
-13.16,6.29,-0.73,899,-92,8146,0,-1,-1
-13.16,6.29,-0.73,888,-91,8138,0,-1,-1
-13.16,6.30,-0.73,899,-102,8143,0,-1,-1
-13.16,6.30,-0.73,897,-114,8143,0,-1,-1
-13.16,6.31,-0.72,902,-114,8142,0,-1,-1
-13.16,6.31,-0.72,913,-115,8133,0,-1,-1
-13.16,6.32,-0.72,917,-101,8143,0,-1,-1
-13.16,6.32,-0.71,912,-94,8142,0,-1,0
-13.16,6.32,-0.71,913,-98,8145,-1,-1,0
-13.16,6.33,-0.71,904,-103,8155,-1,-1,-1
-13.16,6.33,-0.72,901,-118,8152,0,-1,-1
-13.16,6.33,-0.72,900,-116,8156,0,-1,-1
-13.16,6.34,-0.71,904,-105,8145,0,-1,0
-13.16,6.34,-0.70,908,-101,8145,0,-1,0
-13.16,6.34,-0.70,912,-104,8140,0,-1,-1
-13.16,6.35,-0.71,906,-102,8135,0,-1,0
-13.16,6.35,-0.71,906,-94,8133,-1,-1,0
-13.16,6.36,-0.71,912,-88,8142,-1,-1,0
-13.16,6.36,-0.71,904,-95,8146,-1,-1,0
-13.16,6.36,-0.71,911,-103,8150,-1,-1,0
-13.16,6.37,-0.71,912,-110,8151,-1,-1,0
-13.16,6.37,-0.71,920,-118,8142,0,-1,0
-13.16,6.38,-0.71,924,-106,8138,0,-1,0
-13.16,6.38,-0.71,922,-96,8139,0,-1,0
-13.17,6.38,-0.71,919,-98,8141,-1,-1,0
-13.17,6.38,-0.72,918,-103,8150,-1,-1,0
-13.17,6.39,-0.72,919,-110,8147,0,-1,0
-13.17,6.39,-0.71,912,-107,8149,0,-1,0
-13.17,6.39,-0.70,917,-101,8147,0,-1,-1
-13.17,6.39,-0.70,914,-93,8155,0,-1,0
-13.17,6.40,-0.70,913,-95,8158,0,-1,0
-13.17,6.40,-0.70,914,-94,8141,-1,-1,0
-13.17,6.40,-0.70,912,-96,8137,-1,-1,-1
-13.17,6.40,-0.70,913,-108,8143,0,-1,-1
-13.17,6.40,-0.70,918,-107,8155,0,-1,0
-13.17,6.40,-0.70,925,-103,8148,0,-1,0
-13.17,6.41,-0.70,923,-99,8146,-1,0,0
-13.18,6.40,-0.70,918,-98,8136,-1,0,0
-13.18,6.40,-0.71,910,-102,8145,-1,0,0
-13.18,6.39,-0.71,909,-104,8150,0,-1,-1
-13.17,6.39,-0.71,915,-98,8140,-1,0,0
-13.18,6.39,-0.71,912,-100,8138,-1,0,0
-13.18,6.39,-0.71,918,-93,8126,-1,0,0
-13.18,6.39,-0.71,912,-101,8131,-1,0,-1
-13.17,6.39,-0.71,918,-100,8139,0,0,-1
-13.17,6.38,-0.70,913,-89,8144,0,0,-1
-13.17,6.38,-0.70,919,-93,8134,-1,0,0
-13.18,6.38,-0.71,914,-96,8137,-1,0,0
-13.18,6.37,-0.71,914,-102,8136,-1,0,0
-13.18,6.37,-0.72,915,-104,8138,-1,0,0
-13.18,6.36,-0.72,911,-113,8142,-1,0,0
-13.18,6.36,-0.72,901,-113,8140,0,0,0
-13.18,6.35,-0.72,902,-105,8143,-1,0,0
-13.18,6.34,-0.73,903,-105,8148,-1,0,0
-13.18,6.33,-0.73,900,-99,8146,-1,0,0
-13.18,6.33,-0.73,899,-103,8144,-1,0,0
-13.18,6.32,-0.74,901,-104,8151,-1,0,0
-13.18,6.30,-0.74,901,-103,8149,-1,0,0
-13.18,6.30,-0.74,907,-109,8150,0,0,0
-13.18,6.30,-0.74,911,-119,8150,-1,0,0
-13.18,6.29,-0.74,912,-115,8139,0,0,0
-13.18,6.28,-0.74,907,-109,8133,0,0,0
-13.18,6.27,-0.74,905,-105,8138,-1,0,0
-13.18,6.26,-0.75,899,-106,8146,-1,0,0
-13.18,6.25,-0.75,887,-110,8149,-1,0,-1
-13.18,6.24,-0.75,889,-112,8141,0,0,-1
-13.18,6.23,-0.75,894,-112,8137,0,0,0
-13.18,6.22,-0.75,889,-110,8137,0,0,0
-13.18,6.20,-0.75,888,-106,8131,0,0,0
-13.18,6.19,-0.74,884,-105,8145,0,0,0
-13.18,6.18,-0.74,888,-100,8141,0,0,0
-13.18,6.17,-0.73,889,-101,8138,0,0,0
-13.18,6.16,-0.73,888,-99,8142,-1,0,0
-13.18,6.14,-0.74,887,-103,8142,-1,0,0
-13.18,6.13,-0.74,884,-107,8147,-1,0,0
-13.18,6.12,-0.74,885,-112,8142,-1,0,0
-13.18,6.11,-0.75,882,-115,8136,0,0,0
-13.18,6.09,-0.74,879,-114,8142,0,0,-1
-13.18,6.08,-0.74,881,-101,8148,0,0,-1
-13.18,6.06,-0.74,873,-107,8138,-1,0,0
-13.18,6.05,-0.74,869,-107,8147,0,0,0
-13.18,6.04,-0.73,868,-100,8142,0,0,-1
-13.17,6.02,-0.73,862,-107,8152,0,0,0
-13.17,6.01,-0.73,862,-108,8149,0,0,-1
-13.17,5.99,-0.72,864,-107,8142,0,0,0
-13.17,5.98,-0.71,862,-97,8143,0,0,0
-13.17,5.97,-0.72,860,-101,8145,0,0,0
-13.17,5.95,-0.72,850,-112,8147,0,0,0
-13.17,5.94,-0.71,848,-111,8148,0,0,0
-13.17,5.93,-0.71,853,-109,8150,0,0,-1
-13.17,5.93,-0.71,857,-107,8155,-1,0,-1
-13.17,5.93,-0.71,852,-103,8157,-1,0,-1
-13.17,5.92,-0.72,861,-104,8150,-1,0,0
-13.17,5.92,-0.73,850,-115,8151,-1,0,-1
-13.17,5.92,-0.73,842,-122,8139,-1,-1,0
-13.17,5.92,-0.73,839,-116,8142,-1,-1,0
-13.17,5.92,-0.73,839,-107,8149,-1,-1,0
-13.17,5.92,-0.73,842,-101,8147,0,-1,0
-13.17,5.93,-0.73,843,-95,8148,-1,-1,-1
-13.17,5.94,-0.74,851,-101,8152,-1,-1,-1
-13.16,5.94,-0.74,854,-104,8150,0,-1,-1
-13.17,5.95,-0.74,849,-109,8148,0,-1,0
-13.16,5.96,-0.73,851,-104,8160,0,-1,-1
-13.16,5.97,-0.72,862,-100,8161,0,-1,-1
-13.16,5.98,-0.73,866,-96,8157,0,-1,-1
-13.15,5.98,-0.72,862,-90,8153,-1,-1,-1
-13.15,5.99,-0.73,862,-98,8141,-1,-1,-1
-13.15,6.00,-0.73,853,-109,8145,-1,-1,-1
-13.15,6.01,-0.73,859,-118,8150,0,-1,0
-13.16,6.02,-0.73,864,-114,8149,0,-1,0
-13.16,6.03,-0.72,868,-108,8147,0,-1,-1
-13.16,6.04,-0.72,872,-109,8146,0,-1,-1
-13.15,6.05,-0.72,870,-104,8143,0,-1,-1
-13.15,6.05,-0.72,870,-97,8151,-1,-1,-1
-13.15,6.05,-0.72,871,-100,8146,0,-1,-1
-13.15,6.06,-0.71,852,-110,8153,0,-1,-1
-13.14,6.06,-0.71,856,-104,8145,0,-1,-1
-13.14,6.07,-0.71,862,-93,8147,0,-1,-1
-13.14,6.08,-0.70,864,-99,8149,0,-1,0
-13.14,6.08,-0.70,867,-99,8140,0,-1,0
-13.14,6.09,-0.70,863,-105,8152,-1,-1,0
-13.14,6.10,-0.70,874,-102,8153,0,-1,0
-13.14,6.10,-0.70,876,-103,8134,0,-1,-1
-13.14,6.11,-0.70,875,-102,8134,0,-1,-1
-13.14,6.12,-0.70,879,-98,8137,-1,-1,0
-13.14,6.12,-0.71,884,-110,8135,-1,-1,0
-13.14,6.14,-0.71,890,-115,8132,-1,-1,0
-13.14,6.14,-0.71,886,-112,8130,0,-1,-1
-13.14,6.14,-0.71,884,-101,8142,0,-1,-1
-13.14,6.15,-0.70,877,-86,8150,-1,-1,0
-13.14,6.15,-0.70,875,-91,8152,-1,-1,0
-13.14,6.15,-0.70,877,-99,8147,-1,-1,0
-13.14,6.16,-0.70,881,-103,8147,0,-1,0
-13.14,6.17,-0.71,886,-113,8141,0,-1,0
-13.14,6.17,-0.70,887,-100,8148,0,-1,0
-13.15,6.18,-0.70,888,-101,8152,0,-1,0
-13.15,6.18,-0.70,893,-95,8143,0,-1,0
-13.15,6.19,-0.69,889,-96,8137,0,-1,0
-13.15,6.19,-0.69,889,-100,8131,0,-1,-1
-13.15,6.20,-0.69,895,-103,8133,0,-1,0
-13.15,6.20,-0.69,896,-95,8134,0,-1,-1
-13.15,6.21,-0.69,896,-97,8143,0,-1,0
-13.15,6.21,-0.69,893,-95,8145,0,-1,0
-13.15,6.22,-0.69,890,-97,8146,-1,-1,0
-13.15,6.22,-0.69,889,-99,8141,-1,-1,0
-13.15,6.22,-0.69,885,-101,8142,0,-1,0
-13.15,6.23,-0.69,887,-97,8149,0,-1,-1
-13.15,6.23,-0.68,897,-91,8146,0,-1,0
-13.15,6.23,-0.68,895,-96,8145,-1,-1,0
-13.16,6.24,-0.68,890,-87,8144,-1,-1,0
-13.15,6.25,-0.69,885,-103,8152,-1,-1,0
-13.15,6.25,-0.69,893,-104,8154,0,-1,0
-13.16,6.25,-0.69,889,-91,8150,0,-1,-1
-13.16,6.26,-0.68,889,-82,8144,0,-1,0
-13.16,6.27,-0.67,897,-75,8141,-1,-1,0
-13.16,6.28,-0.67,892,-81,8141,-1,-1,0
-13.16,6.28,-0.68,897,-95,8144,-1,-1,0
-13.16,6.28,-0.68,898,-102,8152,-1,-1,0
-13.16,6.29,-0.68,896,-103,8149,0,-1,0
-13.16,6.30,-0.68,901,-107,8151,0,-1,0
-13.16,6.30,-0.69,913,-102,8138,0,-1,0
-13.17,6.30,-0.68,917,-99,8129,-1,-1,-1
-13.17,6.31,-0.68,914,-93,8128,-1,-1,0
-13.16,6.31,-0.69,908,-88,8139,-1,-1,0
-13.16,6.31,-0.69,901,-96,8147,-1,-1,0
-13.17,6.32,-0.69,898,-112,8145,-1,-1,0
-13.17,6.32,-0.70,898,-115,8150,0,-1,0
-13.17,6.32,-0.70,903,-114,8156,0,-1,0
-13.17,6.33,-0.70,907,-109,8153,0,-1,0
-13.18,6.33,-0.70,905,-106,8145,-1,-1,0
-13.18,6.34,-0.70,906,-102,8144,-1,-1,0
-13.18,6.34,-0.70,907,-99,8136,-1,-1,0
-13.18,6.34,-0.71,908,-93,8144,-1,-1,0
-13.18,6.35,-0.71,904,-93,8144,-1,-1,0
-13.19,6.35,-0.71,906,-98,8154,-1,-1,0
-13.19,6.36,-0.71,912,-114,8148,-1,-1,0
-13.19,6.36,-0.72,912,-104,8140,-1,-1,0
-13.19,6.36,-0.72,918,-105,8130,-1,-1,0
-13.19,6.36,-0.72,920,-99,8133,-1,0,0
-13.20,6.36,-0.72,912,-102,8148,-1,-1,-1
-13.19,6.37,-0.72,916,-106,8149,0,0,-1
-13.19,6.36,-0.72,905,-110,8155,0,-1,0
-13.19,6.37,-0.72,915,-115,8155,0,-1,-1
-13.19,6.37,-0.72,917,-103,8153,0,-1,-1
-13.19,6.37,-0.71,920,-95,8155,0,-1,-1
-13.19,6.37,-0.71,923,-99,8154,0,-1,-1
-13.19,6.37,-0.71,918,-111,8146,0,0,-1
-13.19,6.37,-0.71,912,-110,8151,-1,0,-1
-13.19,6.37,-0.72,917,-112,8151,0,-1,0
-13.19,6.37,-0.71,913,-103,8140,0,-1,-1
-13.19,6.37,-0.70,919,-98,8147,0,-1,0
-13.19,6.37,-0.71,922,-97,8144,-1,0,0
-13.19,6.37,-0.71,926,-98,8130,-1,0,0
-13.19,6.37,-0.71,919,-100,8141,-1,0,0
-13.19,6.37,-0.71,911,-109,8147,0,0,0
-13.19,6.36,-0.71,910,-112,8144,-1,0,-1
-13.19,6.36,-0.71,912,-104,8144,-1,0,0
-13.19,6.36,-0.71,915,-102,8146,0,0,0
-13.19,6.36,-0.71,920,-100,8149,-1,0,0
-13.19,6.36,-0.71,915,-103,8149,-1,0,-1
-13.19,6.36,-0.71,915,-105,8156,0,0,0
-13.19,6.36,-0.71,919,-102,8156,0,0,-1
-13.18,6.35,-0.71,909,-96,8155,-1,0,0
-13.18,6.35,-0.71,910,-101,8152,-1,0,0
-13.18,6.35,-0.71,915,-99,8139,0,0,0
-13.18,6.34,-0.71,908,-104,8153,-1,0,-1
-13.18,6.34,-0.71,921,-109,8151,0,0,-1
-13.18,6.34,-0.70,916,-102,8141,0,0,-1
-13.18,6.34,-0.70,912,-99,8144,-1,-1,0
-13.18,6.34,-0.70,914,-95,8141,-1,0,0
-13.18,6.34,-0.71,916,-96,8142,-1,0,0
-13.18,6.33,-0.72,912,-96,8152,-1,0,-1
-13.18,6.31,-0.72,897,-103,8148,-1,0,0
-13.18,6.31,-0.72,897,-107,8144,-1,0,0
-13.18,6.31,-0.72,897,-109,8156,-1,0,-1
-13.18,6.30,-0.72,900,-106,8151,0,0,-1
-13.18,6.29,-0.72,908,-98,8148,0,0,-1
-13.18,6.29,-0.71,915,-92,8152,0,0,-1
-13.18,6.29,-0.71,913,-93,8144,-1,0,-1
-13.18,6.28,-0.72,905,-99,8147,-1,0,0
-13.18,6.27,-0.72,902,-109,8153,-1,0,0
-13.18,6.26,-0.72,897,-115,8147,0,0,0
-13.18,6.26,-0.72,899,-112,8138,0,0,-1
-13.18,6.25,-0.72,892,-109,8132,0,0,-1
-13.18,6.24,-0.72,897,-104,8141,0,0,0
-13.18,6.24,-0.71,892,-95,8145,0,0,-1
-13.18,6.22,-0.71,890,-89,8147,-1,0,0
-13.18,6.21,-0.72,884,-93,8133,-1,0,0
-13.18,6.21,-0.72,882,-100,8149,-1,0,0
-13.19,6.21,-0.73,886,-107,8155,-1,0,0
-13.19,6.20,-0.72,893,-105,8147,-1,0,0
-13.19,6.19,-0.73,897,-110,8145,-1,0,0
-13.19,6.19,-0.73,898,-109,8143,0,0,-1
-13.19,6.18,-0.72,894,-93,8142,0,0,-1
-13.19,6.17,-0.72,887,-87,8153,0,0,-1
-13.19,6.16,-0.72,889,-90,8152,-1,0,0
-13.19,6.15,-0.72,887,-100,8142,0,0,0
-13.19,6.14,-0.72,881,-102,8146,0,0,0
-13.19,6.13,-0.71,883,-105,8153,0,0,0
-13.19,6.12,-0.71,880,-98,8148,0,0,0
-13.19,6.11,-0.70,881,-95,8147,0,0,0
-13.19,6.10,-0.70,881,-92,8145,0,0,0
-13.19,6.10,-0.70,875,-96,8147,-1,0,0
-13.19,6.08,-0.70,865,-102,8151,0,0,0
-13.19,6.07,-0.70,868,-106,8157,0,0,0
-13.18,6.06,-0.71,872,-119,8154,0,0,0
-13.18,6.05,-0.71,864,-108,8152,0,0,0
-13.19,6.04,-0.70,868,-102,8147,0,0,0
-13.19,6.03,-0.70,859,-86,8150,0,0,-1
-13.19,6.02,-0.70,863,-90,8151,-1,0,0
-13.19,6.01,-0.70,858,-89,8159,-1,0,0
-13.18,6.01,-0.70,861,-107,8160,-1,0,-1
-13.18,6.01,-0.70,861,-110,8158,0,0,-1
-13.18,6.01,-0.70,860,-107,8140,0,0,-1
-13.19,6.01,-0.69,857,-97,8150,0,-1,0
-13.19,6.01,-0.69,861,-84,8149,-1,-1,0
-13.19,6.01,-0.70,857,-87,8142,-1,-1,0
-13.19,6.01,-0.70,865,-95,8146,-1,-1,0
-13.19,6.02,-0.70,867,-99,8153,-1,-1,-1
-13.19,6.03,-0.70,863,-97,8144,-1,-1,0
-13.19,6.03,-0.71,868,-102,8145,0,-1,0
-13.19,6.04,-0.71,860,-100,8140,0,-1,-1
-13.19,6.04,-0.70,858,-96,8139,-1,-1,-1
-13.19,6.05,-0.71,872,-99,8137,-1,-1,0
-13.19,6.05,-0.71,875,-105,8140,-1,-1,-1
-13.19,6.06,-0.71,864,-106,8146,0,-1,-1
-13.18,6.06,-0.71,859,-102,8159,-1,-1,-1
-13.18,6.07,-0.71,857,-107,8152,0,-1,0
-13.19,6.08,-0.70,867,-109,8148,0,-1,-1
-13.19,6.09,-0.70,876,-102,8141,0,-1,-1
-13.19,6.10,-0.69,883,-96,8146,0,-1,0
-13.19,6.10,-0.69,880,-95,8147,0,-1,-1
-13.19,6.11,-0.69,873,-101,8153,-1,-1,0
-13.19,6.11,-0.70,870,-108,8162,-1,-1,-1
-13.18,6.12,-0.69,867,-108,8160,0,-1,-1
-13.18,6.12,-0.69,869,-99,8153,0,-1,-1
-13.18,6.13,-0.69,878,-96,8155,0,-1,-1
-13.18,6.14,-0.69,878,-98,8146,0,-1,-1
-13.18,6.14,-0.68,875,-86,8156,0,-1,-1
-13.18,6.15,-0.68,877,-91,8156,0,-1,-1
-13.18,6.15,-0.68,874,-91,8148,0,-1,0
-13.18,6.16,-0.68,867,-94,8149,-1,-1,0
-13.18,6.16,-0.68,868,-98,8149,-1,-1,0
-13.18,6.17,-0.69,867,-101,8147,-1,-1,0
-13.18,6.18,-0.69,882,-106,8148,-1,-1,0
-13.18,6.19,-0.69,884,-113,8140,-1,-1,0
-13.18,6.20,-0.70,887,-110,8140,0,-1,0
-13.18,6.20,-0.70,880,-99,8153,0,-1,0
-13.18,6.20,-0.70,879,-95,8159,-1,-1,0
-13.18,6.20,-0.70,880,-90,8167,-1,-1,0
-13.18,6.21,-0.70,882,-99,8157,0,-1,0
-13.18,6.22,-0.69,883,-94,8153,0,-1,-1
-13.18,6.23,-0.68,884,-94,8154,0,-1,-1
-13.18,6.23,-0.68,886,-83,8151,0,-1,0
-13.18,6.23,-0.68,887,-94,8141,0,-1,-1
-13.18,6.23,-0.69,883,-98,8140,-1,-1,0
-13.18,6.24,-0.69,884,-114,8152,-1,-1,0
-13.18,6.25,-0.69,886,-112,8149,0,-1,0
-13.18,6.25,-0.69,889,-95,8143,0,-1,-1
-13.19,6.25,-0.68,893,-89,8144,-1,-1,0
-13.19,6.26,-0.68,898,-87,8140,-1,-1,0
-13.18,6.27,-0.69,894,-89,8138,-1,-1,0
-13.18,6.27,-0.69,895,-101,8146,-1,-1,-1
-13.18,6.27,-0.70,894,-109,8140,0,-1,-1
-13.18,6.27,-0.69,894,-105,8152,0,-1,-1
-13.18,6.28,-0.69,890,-101,8152,0,-1,-1
-13.18,6.28,-0.68,887,-94,8147,0,-1,0
-13.19,6.29,-0.68,890,-96,8147,0,-1,0
-13.19,6.29,-0.68,892,-92,8136,-1,-1,0
-13.19,6.30,-0.69,891,-98,8143,0,-1,0
-13.19,6.30,-0.69,888,-98,8143,0,-1,-1
-13.19,6.30,-0.68,892,-97,8141,0,-1,0
-13.19,6.31,-0.68,895,-92,8141,-1,-1,0
-13.19,6.31,-0.68,891,-94,8144,-1,-1,0
-13.19,6.32,-0.68,889,-94,8136,-1,-1,0
-13.19,6.32,-0.69,888,-103,8135,-1,-1,0
-13.19,6.32,-0.69,893,-103,8151,0,-1,0
-13.19,6.33,-0.69,899,-109,8148,0,-1,-1
-13.19,6.34,-0.68,900,-103,8139,0,-1,-1
-13.19,6.34,-0.68,910,-97,8133,0,-1,-1
-13.19,6.35,-0.68,908,-88,8133,-1,-1,0
-13.19,6.35,-0.68,907,-91,8139,-1,-1,0
-13.19,6.35,-0.69,903,-97,8151,0,-1,0
-13.19,6.36,-0.68,901,-91,8150,0,-1,-1
-13.19,6.36,-0.68,898,-93,8145,-1,-1,0
-13.19,6.37,-0.68,899,-93,8137,0,-1,0
-13.19,6.37,-0.68,907,-95,8142,0,-1,0
-13.19,6.37,-0.68,903,-96,8141,0,-1,0
-13.19,6.38,-0.68,900,-94,8150,0,-1,0
-13.19,6.38,-0.67,903,-88,8147,0,-1,0
-13.20,6.39,-0.68,901,-89,8143,0,-1,0
-13.20,6.39,-0.67,900,-89,8133,0,-1,0
-13.20,6.40,-0.68,912,-95,8141,-1,-1,0
-13.20,6.40,-0.68,906,-96,8137,-1,-1,0
-13.20,6.41,-0.68,908,-96,8133,-1,-1,0
-13.20,6.41,-0.69,913,-100,8144,0,-1,0
-13.20,6.41,-0.68,911,-93,8144,0,-1,0
-13.20,6.42,-0.68,916,-89,8140,-1,-1,0
-13.20,6.42,-0.68,913,-89,8140,-1,-1,0
-13.20,6.42,-0.69,907,-100,8149,-1,-1,0
-13.20,6.42,-0.69,912,-103,8154,-1,-1,0
-13.20,6.42,-0.69,915,-104,8154,0,-1,0
-13.20,6.43,-0.69,912,-103,8150,0,-1,0
-13.20,6.43,-0.68,917,-86,8154,0,-1,0
-13.20,6.43,-0.68,918,-88,8148,-1,-1,0
-13.21,6.43,-0.68,919,-94,8145,-1,-1,0
-13.21,6.44,-0.69,913,-109,8149,-1,-1,0
-13.21,6.44,-0.68,916,-100,8146,0,-1,-1
-13.21,6.44,-0.68,909,-94,8141,0,-1,-1
-13.21,6.45,-0.68,915,-88,8145,-1,-1,0
-13.21,6.45,-0.68,917,-88,8141,-1,-1,0
-13.21,6.45,-0.68,918,-94,8150,-1,-1,0
-13.21,6.45,-0.69,918,-103,8150,-1,-1,0
-13.21,6.45,-0.69,920,-109,8157,0,-1,-1
-13.21,6.45,-0.69,912,-103,8146,0,-1,0
-13.21,6.45,-0.69,915,-98,8143,-1,-1,0
-13.21,6.46,-0.69,916,-98,8139,0,-1,0
-13.21,6.46,-0.69,919,-88,8150,0,-1,0
-13.22,6.46,-0.69,923,-91,8152,0,-1,0
-13.22,6.46,-0.69,922,-98,8146,-1,-1,0
-13.22,6.47,-0.69,924,-102,8154,0,-1,0
-13.22,6.47,-0.69,919,-103,8147,0,-1,-1
-13.22,6.47,-0.68,922,-92,8140,0,-1,0
-13.22,6.47,-0.68,915,-86,8136,-1,-1,-1
-13.22,6.47,-0.68,915,-82,8139,-1,-1,0
-13.22,6.47,-0.68,908,-91,8133,-1,-1,0
-13.22,6.47,-0.69,903,-98,8148,0,-1,0
-13.22,6.47,-0.68,911,-100,8155,0,-1,0
-13.22,6.47,-0.68,914,-102,8154,0,-1,0
-13.22,6.47,-0.68,922,-100,8148,0,-1,0
-13.22,6.47,-0.67,927,-103,8126,0,0,0
-13.22,6.47,-0.68,923,-102,8137,-1,0,-1
-13.22,6.47,-0.67,923,-99,8132,0,0,-1
-13.21,6.47,-0.67,911,-95,8151,-1,-1,0
-13.21,6.47,-0.68,912,-95,8146,-1,-1,0
-13.21,6.47,-0.68,917,-107,8139,0,-1,0
-13.21,6.47,-0.68,912,-102,8131,0,-1,0
-13.21,6.47,-0.68,922,-102,8134,0,0,-1
-13.21,6.47,-0.67,919,-91,8134,0,0,-1
-13.21,6.46,-0.67,915,-85,8154,-1,-1,0
-13.21,6.46,-0.67,912,-89,8141,0,-1,0
-13.21,6.46,-0.67,915,-88,8139,0,-1,-1
-13.21,6.46,-0.67,919,-94,8140,-1,-1,0
-13.21,6.47,-0.67,922,-100,8135,-1,-1,0
-13.21,6.46,-0.67,918,-101,8142,0,0,-1
-13.21,6.46,-0.67,917,-99,8150,0,0,-1
-13.21,6.45,-0.67,914,-93,8153,0,0,-1
-13.21,6.45,-0.67,916,-85,8150,0,0,-1
-13.21,6.45,-0.67,920,-84,8154,-1,0,0
-13.21,6.45,-0.67,910,-88,8150,-1,0,0
-13.21,6.44,-0.68,904,-89,8155,0,0,-1
-13.20,6.44,-0.67,914,-99,8149,0,0,0
-13.21,6.44,-0.67,915,-110,8136,0,0,0
-13.21,6.44,-0.67,917,-103,8130,0,0,0
-13.21,6.43,-0.67,912,-98,8140,0,0,0
-13.21,6.43,-0.67,910,-90,8135,0,0,-1
-13.20,6.43,-0.66,902,-87,8137,-1,-1,0
-13.21,6.43,-0.67,905,-101,8141,-1,-1,0
-13.21,6.43,-0.67,907,-104,8136,0,0,0
-13.21,6.43,-0.67,905,-103,8140,0,0,0
-13.21,6.43,-0.67,915,-102,8140,0,0,-1
-13.21,6.43,-0.67,915,-102,8131,-1,0,0
-13.21,6.42,-0.67,912,-88,8139,-1,0,0
-13.21,6.41,-0.67,911,-92,8146,-1,0,0
-13.21,6.41,-0.68,904,-94,8149,-1,0,0
-13.21,6.40,-0.68,899,-97,8142,-1,0,0
-13.21,6.40,-0.68,906,-102,8139,0,0,0
-13.21,6.40,-0.68,906,-97,8129,0,0,0
-13.21,6.40,-0.67,906,-94,8137,0,0,-1
-13.21,6.39,-0.67,905,-91,8138,0,0,-1
-13.21,6.38,-0.67,902,-96,8150,-1,0,0
-13.21,6.38,-0.68,903,-93,8152,-1,0,0
-13.21,6.37,-0.67,904,-91,8146,-1,0,0
-13.21,6.37,-0.67,909,-95,8141,0,0,0
-13.21,6.37,-0.67,910,-90,8145,-1,0,0
-13.21,6.37,-0.67,910,-86,8137,-1,0,0
-13.21,6.36,-0.68,897,-113,8148,-1,0,-1
-13.21,6.35,-0.68,889,-111,8154,0,0,-1
-13.21,6.35,-0.68,892,-92,8147,-1,-1,0
-13.21,6.35,-0.68,888,-92,8145,-1,-1,0
-13.21,6.35,-0.68,892,-94,8151,-1,0,0
-13.22,6.34,-0.69,885,-104,8150,-1,0,0
-13.22,6.34,-0.69,891,-102,8144,0,-1,0
-13.22,6.34,-0.69,893,-105,8139,0,0,0
-13.22,6.34,-0.69,894,-105,8132,0,-1,-1
-13.22,6.34,-0.68,900,-98,8141,0,-1,0
-13.22,6.34,-0.68,898,-87,8144,-1,-1,0
-13.22,6.34,-0.69,891,-91,8148,-1,-1,0
-13.22,6.34,-0.69,891,-110,8150,-1,-1,-1
-13.21,6.34,-0.69,884,-112,8143,0,-1,-1
-13.22,6.34,-0.69,887,-101,8142,0,-1,-1
-13.21,6.34,-0.68,895,-98,8139,0,-1,-1
-13.21,6.33,-0.68,890,-99,8149,0,-1,-1
-13.21,6.33,-0.68,885,-96,8148,0,-1,0
-13.21,6.33,-0.67,885,-90,8149,0,-1,0
-13.22,6.33,-0.67,891,-92,8145,-1,-1,0
-13.22,6.33,-0.68,895,-93,8139,-1,-1,0
-13.22,6.33,-0.68,900,-105,8142,-1,-1,-1
-13.22,6.34,-0.69,897,-105,8143,0,-1,-1
-13.22,6.34,-0.69,892,-105,8141,0,-1,-1
-13.21,6.34,-0.68,894,-105,8144,0,-1,-1
-13.22,6.35,-0.69,901,-97,8133,0,-1,0
-13.21,6.35,-0.69,903,-96,8138,-1,-1,0
-13.22,6.35,-0.69,901,-101,8136,-1,-1,0
-13.21,6.35,-0.69,896,-106,8152,0,-1,-1
-13.21,6.35,-0.69,888,-102,8153,0,-1,-1
-13.21,6.35,-0.69,887,-102,8146,0,-1,-1
-13.21,6.35,-0.68,895,-101,8143,0,-1,-1
-13.21,6.36,-0.68,896,-95,8140,0,-1,0
-13.21,6.36,-0.67,896,-94,8144,0,-1,0
-13.21,6.36,-0.67,892,-94,8152,-1,-1,0
-13.21,6.36,-0.68,894,-98,8154,-1,-1,0
-13.22,6.36,-0.68,890,-104,8144,-1,-1,0
-13.22,6.37,-0.68,886,-101,8141,0,-1,0
-13.22,6.37,-0.68,893,-95,8140,0,-1,0
-13.22,6.37,-0.68,898,-94,8140,0,-1,-1
-13.22,6.37,-0.68,904,-93,8134,-1,-1,0
-13.22,6.37,-0.68,901,-93,8134,-1,-1,0
-13.22,6.38,-0.69,909,-105,8134,-1,-1,0
-13.22,6.38,-0.69,904,-109,8152,0,-1,-1
-13.22,6.38,-0.69,901,-97,8149,0,-1,-1
-13.22,6.39,-0.68,906,-97,8140,0,-1,0
-13.22,6.39,-0.68,913,-87,8139,0,-1,0
-13.22,6.40,-0.68,912,-93,8144,0,-1,-1
-13.22,6.40,-0.68,910,-99,8147,0,-1,0
-13.22,6.40,-0.68,908,-101,8137,0,-1,0
-13.22,6.40,-0.67,898,-94,8156,0,-1,0
-13.22,6.40,-0.67,901,-98,8149,0,-1,0
-13.22,6.40,-0.67,902,-101,8148,0,-1,0
-13.22,6.40,-0.67,908,-91,8142,0,-1,0
-13.22,6.41,-0.67,915,-86,8141,0,-1,-1
-13.22,6.41,-0.67,916,-84,8137,-1,-1,0
-13.22,6.41,-0.67,908,-88,8145,0,-1,0
-13.22,6.41,-0.67,904,-88,8152,-1,-1,-1
-13.22,6.41,-0.67,902,-106,8148,-1,-1,0
-13.22,6.42,-0.67,898,-110,8132,0,-1,0
-13.22,6.42,-0.67,908,-103,8134,0,-1,-1
-13.22,6.43,-0.66,912,-88,8129,0,-1,-1
-13.22,6.43,-0.66,920,-87,8129,0,0,0
-13.22,6.43,-0.66,914,-85,8136,-1,-1,0
-13.22,6.43,-0.67,912,-97,8150,-1,-1,-1
-13.22,6.43,-0.67,917,-110,8149,0,-1,-1
-13.22,6.43,-0.66,908,-103,8143,0,-1,-1
-13.22,6.43,-0.66,907,-95,8139,0,-1,0
-13.22,6.44,-0.66,909,-95,8151,-1,-1,0
-13.22,6.44,-0.65,906,-89,8148,0,-1,0
-13.22,6.44,-0.66,904,-99,8162,-1,-1,0
-13.22,6.44,-0.66,904,-94,8154,0,-1,0
-13.22,6.44,-0.66,902,-95,8151,-1,-1,0
-13.22,6.45,-0.66,900,-93,8149,-1,-1,0
-13.22,6.45,-0.66,902,-96,8150,-1,-1,0
-13.23,6.45,-0.67,912,-106,8139,-1,-1,0
-13.23,6.45,-0.67,919,-109,8147,-1,-1,0
-13.23,6.45,-0.67,911,-106,8136,0,-1,0
-13.23,6.45,-0.67,901,-99,8140,0,-1,0
-13.23,6.45,-0.67,906,-93,8148,-1,-1,0
-13.23,6.45,-0.68,912,-96,8146,-1,-1,0
-13.23,6.45,-0.68,908,-98,8142,-1,-1,-1
-13.23,6.45,-0.68,913,-103,8149,0,-1,0
-13.23,6.45,-0.68,906,-102,8147,0,-1,0
-13.23,6.46,-0.67,912,-96,8152,0,-1,0
-13.23,6.46,-0.66,912,-88,8154,0,-1,-1
-13.23,6.47,-0.67,922,-82,8146,-1,-1,0
-13.23,6.47,-0.67,920,-86,8146,-1,-1,0
-13.23,6.47,-0.67,916,-98,8135,-1,-1,0
-13.23,6.47,-0.67,914,-114,8141,0,-1,0
-13.23,6.47,-0.67,923,-106,8129,0,-1,-1
-13.23,6.47,-0.67,911,-94,8131,-1,-1,-1
-13.23,6.48,-0.67,925,-90,8133,-1,-1,0
-13.23,6.48,-0.67,919,-90,8132,-1,-1,0
-13.23,6.48,-0.68,919,-103,8138,-1,-1,0
-13.23,6.49,-0.68,922,-109,8144,-1,-1,-1
-13.23,6.49,-0.68,919,-101,8143,0,-1,-1
-13.23,6.49,-0.68,919,-98,8149,0,-1,-1
-13.23,6.49,-0.68,920,-95,8148,-1,-1,0
-13.23,6.49,-0.68,918,-93,8144,0,-1,0
-13.23,6.49,-0.68,915,-98,8141,0,-1,0
-13.23,6.49,-0.68,922,-89,8142,0,-1,0
-13.23,6.50,-0.67,920,-79,8142,-1,-1,0
-13.23,6.50,-0.67,918,-91,8141,-1,-1,0
-13.23,6.49,-0.68,923,-92,8137,0,-1,0
-13.23,6.50,-0.68,919,-101,8145,-1,-1,0
-13.23,6.50,-0.68,912,-109,8139,0,-1,0
-13.23,6.50,-0.68,916,-112,8143,0,-1,0
-13.23,6.50,-0.68,913,-109,8151,0,-1,0
-13.23,6.50,-0.68,913,-104,8136,0,-1,-1
-13.23,6.50,-0.67,920,-90,8140,0,-1,-1
-13.23,6.50,-0.67,922,-80,8141,-1,0,0
-13.23,6.50,-0.68,920,-86,8146,-1,-1,0
-13.23,6.50,-0.68,917,-96,8153,-1,-1,0
-13.23,6.50,-0.68,914,-101,8164,-1,-1,0
-13.23,6.51,-0.68,920,-97,8153,0,-1,-1
-13.23,6.51,-0.68,920,-92,8137,-1,-1,0
-13.23,6.51,-0.69,923,-87,8139,-1,-1,0
-13.23,6.52,-0.69,922,-89,8143,-1,-1,0
-13.24,6.51,-0.69,926,-90,8144,-1,-1,0
-13.24,6.52,-0.69,927,-99,8137,0,-1,-1
-13.24,6.52,-0.69,927,-99,8144,0,-1,0
-13.24,6.52,-0.69,923,-99,8152,-1,-1,0
-13.24,6.52,-0.69,922,-95,8146,-1,-1,0
-13.24,6.52,-0.69,922,-95,8141,-1,-1,0
-13.24,6.52,-0.69,918,-101,8129,0,-1,0
-13.24,6.52,-0.69,920,-102,8134,0,0,-1
-13.24,6.52,-0.69,922,-96,8142,-1,0,0
-13.24,6.51,-0.69,921,-85,8154,-1,0,-1
-13.24,6.51,-0.69,925,-95,8154,-1,-1,0
-13.24,6.51,-0.70,922,-104,8142,-1,-1,-1
-13.24,6.52,-0.70,922,-107,8145,0,-1,-1
-13.24,6.51,-0.69,923,-99,8145,0,-1,0
-13.24,6.51,-0.69,924,-89,8145,0,-1,0
-13.24,6.52,-0.69,915,-82,8148,-1,-1,0
-13.25,6.53,-0.69,925,-84,8149,-1,-1,0
-13.25,6.53,-0.70,925,-100,8141,-1,-1,0
-13.25,6.53,-0.71,924,-121,8129,-1,-1,0
-13.25,6.54,-0.71,927,-125,8129,0,-1,-1
-13.25,6.54,-0.70,933,-101,8137,0,0,-1
-13.25,6.54,-0.70,931,-91,8139,0,0,0
-13.25,6.54,-0.70,931,-92,8135,-1,0,0
-13.25,6.53,-0.70,922,-97,8130,-1,-1,0
-13.25,6.53,-0.70,923,-107,8138,-1,-1,-1
-13.25,6.53,-0.70,926,-107,8132,0,0,-1
-13.24,6.53,-0.70,923,-99,8139,0,-1,-1
-13.24,6.53,-0.70,925,-99,8138,0,-1,-1
-13.24,6.53,-0.70,928,-99,8139,0,-1,-1
-13.24,6.53,-0.70,919,-97,8140,-1,0,0
-13.24,6.53,-0.70,912,-95,8138,-1,0,-1
-13.24,6.53,-0.70,918,-105,8140,0,-1,-1
-13.24,6.52,-0.70,916,-109,8142,0,0,-1
-13.23,6.52,-0.69,923,-95,8137,0,-1,-1
-13.23,6.52,-0.69,936,-88,8137,-1,-1,-1
-13.23,6.52,-0.69,929,-90,8140,-1,0,-1
-13.23,6.51,-0.70,923,-96,8147,-1,0,-1
-13.23,6.51,-0.70,924,-102,8147,0,-1,-1
-13.23,6.51,-0.69,921,-98,8145,-1,0,0
-13.23,6.51,-0.70,924,-102,8146,-1,-1,-1
-13.22,6.51,-0.70,927,-99,8132,0,0,0
-13.22,6.51,-0.70,932,-102,8140,0,0,-1
-13.23,6.51,-0.69,933,-93,8137,0,0,-1
-13.23,6.51,-0.68,927,-85,8133,-1,0,-1
-13.22,6.50,-0.69,920,-90,8136,-1,0,0
-13.22,6.50,-0.69,919,-103,8138,-1,0,0
-13.22,6.50,-0.70,919,-106,8143,0,0,-1
-13.22,6.50,-0.70,919,-113,8149,0,0,-1
-13.22,6.49,-0.69,914,-106,8155,0,0,0
-13.22,6.49,-0.69,917,-103,8155,0,0,0
-13.22,6.49,-0.69,917,-97,8142,-1,0,0
-13.22,6.49,-0.69,911,-95,8148,-1,-1,0
-13.23,6.49,-0.69,908,-99,8136,-1,-1,0
-13.22,6.48,-0.69,909,-101,8134,0,0,0
-13.22,6.48,-0.69,910,-105,8136,-1,0,-1
-13.22,6.48,-0.69,917,-103,8152,-1,0,-1
-13.22,6.47,-0.69,918,-99,8154,0,0,-1
-13.22,6.47,-0.69,921,-104,8142,-1,0,0
-13.22,6.46,-0.70,915,-106,8142,0,0,0
-13.22,6.46,-0.70,921,-102,8146,0,0,0
-13.22,6.46,-0.70,918,-96,8140,-1,0,-1
-13.22,6.46,-0.70,917,-95,8141,-1,0,0
-13.22,6.46,-0.71,913,-107,8145,-1,0,-1
-13.22,6.46,-0.71,914,-119,8133,0,0,-1
-13.22,6.45,-0.71,911,-111,8138,0,-1,-1
-13.22,6.45,-0.69,904,-88,8136,0,0,-1
-13.22,6.44,-0.69,904,-85,8144,-1,-1,0
-13.22,6.44,-0.69,903,-79,8138,-1,-1,0
-13.22,6.44,-0.69,909,-89,8137,-1,-1,0
-13.22,6.44,-0.70,905,-106,8132,0,0,0
-13.22,6.44,-0.70,915,-106,8137,0,0,-1
-13.22,6.44,-0.69,912,-89,8138,0,0,0
-13.22,6.43,-0.69,912,-84,8142,-1,-1,0
-13.22,6.43,-0.69,911,-90,8146,-1,0,0
-13.22,6.43,-0.70,913,-91,8149,-1,0,0
-13.22,6.42,-0.70,909,-92,8152,-1,0,0
-13.22,6.42,-0.69,905,-93,8151,-1,0,0
-13.22,6.41,-0.70,902,-106,8142,0,0,-1
-13.22,6.41,-0.69,906,-97,8143,0,0,-1
-13.22,6.41,-0.69,905,-96,8139,0,0,-1
-13.22,6.41,-0.69,913,-93,8145,-1,0,-1
-13.22,6.40,-0.69,910,-87,8144,0,0,0
-13.22,6.40,-0.69,907,-89,8143,0,0,0
-13.22,6.40,-0.69,902,-89,8152,0,-1,-1
-13.22,6.40,-0.69,905,-97,8150,-1,0,0
-13.22,6.40,-0.69,903,-101,8143,0,0,-1
-13.22,6.40,-0.69,905,-107,8143,-1,0,0
-13.22,6.40,-0.69,910,-109,8142,0,-1,0
-13.22,6.40,-0.69,907,-100,8143,-1,0,-1
-13.22,6.39,-0.69,894,-95,8148,-1,-1,-1
-13.21,6.40,-0.70,894,-100,8148,-1,-1,0
-13.21,6.40,-0.70,896,-107,8152,-1,-1,0
-13.22,6.41,-0.70,906,-114,8140,0,-1,0
-13.22,6.41,-0.69,915,-105,8134,0,0,-1
-13.22,6.40,-0.69,912,-89,8132,0,0,-1
-13.22,6.40,-0.68,905,-83,8148,0,-1,0
-13.22,6.40,-0.69,903,-87,8154,-1,-1,0
-13.22,6.40,-0.69,909,-94,8146,-1,-1,-1
-13.22,6.41,-0.69,914,-110,8136,-1,-1,0
-13.22,6.41,-0.69,912,-109,8135,0,-1,0
-13.22,6.42,-0.69,916,-102,8141,0,-1,0
-13.22,6.42,-0.68,907,-98,8149,0,-1,0
-13.22,6.42,-0.67,913,-86,8142,0,-1,0
-13.22,6.42,-0.67,905,-89,8141,0,-1,0
-13.22,6.42,-0.67,903,-92,8139,-1,-1,0
-13.23,6.43,-0.67,912,-86,8131,-1,-1,0
-13.23,6.43,-0.68,913,-92,8141,-1,-1,0
-13.23,6.43,-0.68,899,-99,8138,-1,-1,0
-13.23,6.43,-0.68,907,-106,8132,-1,-1,0
-13.23,6.44,-0.68,916,-101,8134,0,-1,-1
-13.23,6.44,-0.68,921,-97,8141,0,-1,0
-13.23,6.44,-0.68,916,-94,8142,-1,-1,0
-13.22,6.44,-0.69,909,-93,8139,-1,0,0
-13.23,6.44,-0.70,909,-101,8150,-1,-1,-1
-13.22,6.44,-0.70,910,-113,8149,0,-1,-1
-13.22,6.45,-0.69,917,-102,8146,0,-1,-1
-13.23,6.46,-0.69,921,-95,8139,0,-1,0
-13.23,6.46,-0.68,921,-86,8141,0,-1,-1
-13.23,6.46,-0.68,913,-81,8146,-1,-1,-1
-13.23,6.46,-0.68,915,-94,8157,-1,-1,0
-13.23,6.46,-0.69,910,-103,8157,-1,-1,0
-13.22,6.46,-0.69,909,-99,8155,-1,-1,0
-13.22,6.46,-0.70,913,-100,8150,-1,-1,-1
-13.22,6.47,-0.71,910,-94,8138,-1,-1,-1
-13.22,6.47,-0.72,919,-94,8138,-1,-1,-1
-13.22,6.47,-0.72,922,-94,8145,-1,0,-1
-13.22,6.47,-0.73,914,-99,8149,-1,0,-1
-13.22,6.47,-0.74,917,-101,8138,-1,-1,-1
-13.22,6.47,-0.75,917,-104,8141,-1,-1,-1
-13.22,6.47,-0.75,918,-104,8146,-1,-1,-1
-13.21,6.47,-0.74,916,-101,8149,0,0,-1
-13.21,6.47,-0.75,919,-106,8156,-1,-1,0
-13.21,6.47,-0.75,918,-109,8156,-1,-1,0
-13.21,6.47,-0.76,916,-113,8145,0,-1,0
-13.21,6.48,-0.75,919,-115,8137,0,-1,-1
-13.21,6.49,-0.74,930,-104,8140,0,-1,0
