Yaw,Pitch,Roll,AX,AY,AZ,GX,GY,GZ
-11.15,6.17,-2.74,893,-398,8133,-1,-1,0
-11.15,6.18,-2.74,888,-395,8147,0,-1,0
-11.15,6.18,-2.74,882,-384,8145,0,-1,0
-11.15,6.19,-2.74,877,-380,8148,-1,-1,0
-11.15,6.19,-2.74,884,-378,8136,-1,-1,0
-11.16,6.20,-2.74,882,-382,8132,-1,-1,0
-11.16,6.21,-2.75,885,-386,8128,-1,-1,0
-11.16,6.21,-2.75,890,-394,8136,0,-1,-1
-11.16,6.21,-2.74,887,-392,8133,0,-1,-1
-11.16,6.21,-2.73,891,-387,8137,0,-1,-1
-11.16,6.22,-2.73,893,-376,8142,0,-1,0
-11.16,6.23,-2.73,893,-382,8136,-1,-1,0
-11.16,6.23,-2.73,894,-383,8139,-1,-1,0
-11.16,6.23,-2.73,893,-387,8150,-1,-1,0
-11.16,6.24,-2.73,894,-386,8144,0,-1,0
-11.16,6.25,-2.73,899,-380,8133,0,-1,0
-11.16,6.26,-2.73,905,-392,8125,0,-1,0
-11.17,6.26,-2.73,903,-391,8135,0,-1,0
-11.17,6.26,-2.72,899,-393,8141,0,-1,0
-11.17,6.27,-2.72,895,-389,8148,0,-1,-1
-11.17,6.28,-2.72,897,-379,8140,0,-1,-1
-11.17,6.28,-2.72,904,-377,8138,0,-1,0
-11.17,6.29,-2.72,903,-381,8136,-1,-1,0
-11.17,6.29,-2.73,903,-386,8137,-1,-1,0
-11.17,6.30,-2.72,908,-388,8148,0,-1,0
-11.17,6.30,-2.72,907,-385,8148,0,-1,0
-11.17,6.31,-2.71,903,-379,8152,-1,-1,-1
-11.17,6.31,-2.72,902,-380,8143,-1,-1,0
-11.17,6.31,-2.72,901,-385,8142,-1,-1,0
-11.17,6.32,-2.72,911,-386,8139,-1,-1,0
-11.17,6.33,-2.72,918,-389,8135,0,-1,0
-11.17,6.33,-2.72,918,-386,8138,0,-1,0
-11.17,6.33,-2.72,918,-383,8147,0,-1,0
-11.17,6.33,-2.72,911,-385,8146,0,-1,0
-11.18,6.34,-2.72,910,-391,8139,0,-1,0
-11.18,6.34,-2.72,917,-392,8140,0,-1,0
-11.18,6.35,-2.71,918,-383,8140,0,-1,-1
-11.18,6.36,-2.71,916,-378,8129,0,-1,0
-11.18,6.36,-2.71,915,-376,8132,-1,-1,0
-11.18,6.36,-2.71,907,-374,8133,-1,0,0
-11.18,6.36,-2.72,912,-386,8141,-1,-1,0
-11.18,6.36,-2.72,918,-394,8133,0,-1,0
-11.18,6.37,-2.72,921,-408,8136,0,-1,0
-11.18,6.37,-2.71,918,-389,8135,0,-1,-1
-11.18,6.37,-2.71,919,-384,8130,0,0,0
-11.18,6.37,-2.70,925,-372,8138,0,-1,-1
-11.18,6.37,-2.70,924,-366,8149,-1,-1,-1
-11.18,6.37,-2.70,922,-369,8146,-1,0,0
-11.18,6.37,-2.71,917,-384,8143,-1,0,0
-11.18,6.36,-2.71,907,-396,8137,-1,0,0
-11.18,6.36,-2.71,907,-405,8149,0,-1,-1
-11.18,6.37,-2.71,916,-392,8148,0,0,-1
-11.18,6.36,-2.71,909,-378,8141,0,0,0
-11.18,6.36,-2.70,913,-371,8137,-1,0,0
-11.18,6.36,-2.71,918,-369,8136,-1,0,-1
-11.18,6.36,-2.71,918,-374,8130,-1,0,0
-11.18,6.36,-2.71,911,-375,8138,-1,0,0
-11.18,6.36,-2.71,921,-382,8145,-1,0,-1
-11.18,6.36,-2.71,913,-385,8144,-1,0,0
-11.18,6.35,-2.72,911,-395,8137,-1,0,0
-11.18,6.34,-2.72,907,-395,8138,0,0,-1
-11.18,6.33,-2.72,912,-387,8132,-1,0,-1
-11.18,6.33,-2.72,908,-377,8140,-1,0,0
-11.18,6.32,-2.72,906,-372,8137,-1,0,0
-11.18,6.31,-2.72,910,-383,8147,-1,0,0
-11.18,6.31,-2.73,910,-389,8141,-1,0,0
-11.18,6.31,-2.73,907,-385,8141,0,0,-1
-11.18,6.30,-2.73,908,-384,8145,0,0,0
-11.18,6.29,-2.72,904,-377,8141,0,0,0
-11.18,6.28,-2.72,898,-376,8138,-1,0,0
-11.18,6.28,-2.72,899,-374,8141,-1,0,-1
-11.18,6.28,-2.72,900,-364,8143,-1,0,0
-11.18,6.27,-2.73,899,-373,8130,-1,0,0
-11.18,6.26,-2.72,900,-380,8132,0,0,0
-11.18,6.26,-2.72,903,-385,8137,-1,0,0
-11.18,6.26,-2.73,905,-391,8141,0,0,-1
-11.18,6.25,-2.72,898,-384,8136,0,0,0
-11.18,6.24,-2.73,900,-381,8138,-1,0,-1
-11.18,6.24,-2.73,898,-383,8137,-1,0,0
-11.18,6.23,-2.73,893,-379,8138,-1,0,0
-11.18,6.23,-2.73,897,-399,8143,0,0,0
-11.18,6.22,-2.73,897,-399,8145,0,0,-1
-11.18,6.21,-2.73,897,-384,8149,-1,0,0
-11.19,6.21,-2.73,895,-383,8144,0,0,0
-11.19,6.20,-2.73,899,-380,8143,-1,0,0
-11.19,6.19,-2.73,896,-387,8147,-1,0,0
-11.19,6.18,-2.74,889,-392,8148,-1,0,0
-11.19,6.18,-2.74,890,-388,8140,0,0,-1
-11.18,6.18,-2.74,891,-385,8145,-1,0,-1
-11.18,6.17,-2.74,886,-388,8146,-1,0,-1
-11.18,6.16,-2.74,889,-393,8147,-1,0,0
-11.18,6.16,-2.75,890,-392,8150,-1,0,-1
-11.18,6.15,-2.75,885,-395,8142,-1,0,-1
-11.18,6.15,-2.74,889,-384,8143,0,0,-1
-11.17,6.15,-2.73,889,-371,8150,0,0,-1
-11.17,6.15,-2.73,890,-375,8143,-1,-1,-1
-11.17,6.15,-2.73,887,-376,8134,-1,0,0
-11.18,6.15,-2.74,880,-387,8141,-1,0,-1
-11.17,6.15,-2.75,880,-402,8148,0,-1,-1
-11.17,6.15,-2.74,879,-396,8149,0,-1,-1
-11.17,6.16,-2.74,876,-397,8147,0,-1,0
-11.18,6.17,-2.74,893,-395,8133,0,-1,0
-11.18,6.18,-2.74,902,-389,8134,0,-1,-1
-11.18,6.19,-2.73,899,-378,8132,0,-1,-1
-11.17,6.19,-2.72,903,-379,8130,0,-1,-1
-11.17,6.19,-2.72,893,-381,8131,0,-1,-1
-11.17,6.19,-2.72,889,-395,8143,0,-1,-1
-11.17,6.20,-2.72,889,-394,8143,0,-1,0
-11.18,6.21,-2.72,892,-389,8135,0,-1,0
-11.18,6.22,-2.71,896,-384,8141,0,-1,0
-11.18,6.22,-2.71,897,-375,8136,0,-1,0
-11.18,6.22,-2.71,895,-378,8137,0,-1,0
-11.18,6.23,-2.71,895,-380,8143,-1,-1,0
-11.18,6.23,-2.71,894,-375,8137,-1,-1,0
-11.18,6.24,-2.71,902,-369,8144,-1,-1,0
-11.18,6.24,-2.71,898,-377,8143,-1,-1,0
-11.19,6.24,-2.72,898,-381,8147,-1,-1,0
-11.19,6.25,-2.72,899,-386,8143,0,-1,-1
-11.18,6.26,-2.72,903,-392,8136,0,-1,-1
-11.19,6.26,-2.72,906,-393,8131,0,-1,0
-11.19,6.26,-2.71,911,-386,8129,0,-1,0
-11.19,6.26,-2.71,904,-384,8136,-1,-1,0
-11.19,6.27,-2.72,896,-390,8147,-1,-1,0
-11.19,6.27,-2.71,899,-388,8152,0,-1,0
-11.18,6.28,-2.71,900,-384,8144,0,-1,-1
-11.19,6.29,-2.71,900,-384,8143,0,-1,0
-11.19,6.29,-2.71,908,-376,8140,0,-1,0
-11.19,6.29,-2.70,907,-370,8151,0,-1,0
-11.19,6.29,-2.70,909,-375,8150,-1,-1,0
-11.19,6.30,-2.70,906,-373,8145,0,-1,0
-11.19,6.30,-2.70,900,-383,8148,-1,-1,0
-11.19,6.30,-2.70,899,-381,8142,0,-1,0
-11.19,6.31,-2.70,908,-380,8142,0,-1,0
-11.20,6.32,-2.70,911,-377,8148,0,-1,0
-11.20,6.32,-2.70,913,-385,8146,0,-1,0
-11.20,6.32,-2.70,912,-386,8147,-1,-1,0
-11.20,6.32,-2.70,909,-390,8140,-1,-1,0
-11.20,6.32,-2.70,909,-390,8150,-1,-1,-1
-11.20,6.32,-2.70,904,-392,8146,0,-1,0
-11.20,6.33,-2.70,906,-388,8144,0,-1,0
-11.20,6.33,-2.70,910,-381,8140,0,-1,-1
-11.20,6.34,-2.70,919,-382,8135,0,-1,0
-11.20,6.34,-2.70,917,-379,8134,0,-1,0
-11.20,6.34,-2.70,921,-378,8131,0,-1,0
-11.20,6.34,-2.69,917,-373,8138,0,-1,0
-11.20,6.35,-2.69,919,-374,8143,0,-1,0
-11.20,6.35,-2.69,919,-375,8136,-1,-1,0
-11.20,6.35,-2.70,916,-383,8139,-1,-1,0
-11.20,6.36,-2.70,913,-387,8140,0,-1,0
-11.20,6.36,-2.69,913,-378,8137,0,-1,-1
-11.20,6.36,-2.69,924,-370,8138,0,-1,0
-11.20,6.36,-2.69,925,-374,8137,-1,0,0
-11.20,6.36,-2.69,917,-372,8146,-1,0,0
-11.20,6.36,-2.69,903,-384,8149,-1,-1,0
-11.20,6.36,-2.69,903,-389,8145,0,-1,-1
-11.20,6.36,-2.69,915,-387,8147,0,-1,0
-11.20,6.37,-2.69,920,-391,8130,0,-1,-1
-11.21,6.37,-2.69,929,-386,8129,0,0,-1
-11.21,6.37,-2.68,924,-377,8130,0,0,0
-11.21,6.37,-2.68,928,-380,8131,-1,0,0
-11.21,6.37,-2.68,925,-381,8131,-1,0,-1
-11.21,6.37,-2.68,913,-379,8127,0,0,-1
-11.20,6.37,-2.68,908,-389,8126,0,0,-1
-11.20,6.37,-2.68,904,-387,8136,0,-1,0
-11.21,6.37,-2.68,913,-383,8132,0,-1,-1
-11.21,6.37,-2.67,916,-380,8134,0,-1,0
-11.21,6.37,-2.67,920,-371,8136,0,0,0
-11.20,6.37,-2.67,918,-377,8134,0,0,-1
-11.20,6.37,-2.67,911,-380,8130,-1,0,0
-11.20,6.37,-2.67,909,-378,8136,-1,-1,0
-11.21,6.37,-2.68,914,-381,8141,-1,-1,0
-11.21,6.37,-2.68,915,-385,8145,-1,-1,0
-11.21,6.37,-2.68,921,-379,8133,-1,0,0
-11.21,6.37,-2.68,923,-377,8128,0,0,0
-11.21,6.37,-2.68,922,-383,8132,-1,0,-1
-11.21,6.37,-2.69,922,-387,8138,0,0,-1
-11.20,6.36,-2.69,919,-387,8143,-1,0,0
-11.20,6.37,-2.69,914,-383,8139,0,0,-1
-11.20,6.37,-2.68,921,-381,8137,0,0,0
-11.20,6.36,-2.69,925,-381,8135,0,0,0
-11.20,6.36,-2.68,920,-381,8132,0,0,0
-11.20,6.36,-2.68,916,-372,8150,0,0,-1
-11.20,6.35,-2.68,915,-371,8144,0,0,-1
-11.20,6.35,-2.68,914,-365,8142,-1,0,0
-11.20,6.35,-2.68,915,-383,8140,-1,0,0
-11.20,6.35,-2.69,918,-386,8140,-1,0,0
-11.20,6.35,-2.69,915,-391,8137,0,0,0
-11.20,6.35,-2.69,912,-398,8145,0,-1,0
-11.20,6.36,-2.69,924,-378,8145,-1,0,0
-11.20,6.35,-2.69,914,-375,8153,-1,0,0
-11.20,6.35,-2.70,914,-382,8152,-1,0,0
-11.20,6.34,-2.71,920,-388,8152,-1,0,-1
-11.20,6.34,-2.71,915,-385,8158,-1,0,-1
-11.21,6.35,-2.71,895,-378,8170,-1,-1,0
-11.21,6.35,-2.72,921,-382,8155,-1,-1,0
-11.22,6.37,-2.74,897,-399,8137,-1,-1,0
-11.22,6.38,-2.73,914,-392,8127,0,-1,0
-11.22,6.39,-2.73,926,-382,8114,-1,0,0
-11.22,6.38,-2.73,924,-377,8113,0,0,0
-11.22,6.38,-2.72,932,-379,8121,0,0,-1
-11.22,6.36,-2.72,923,-380,8130,0,0,-1
-11.21,6.35,-2.71,916,-367,8140,0,0,-1
-11.21,6.35,-2.71,926,-362,8139,-1,0,0
-11.21,6.33,-2.72,921,-378,8135,-1,0,0
-11.21,6.33,-2.73,906,-391,8146,-1,0,0
-11.21,6.32,-2.73,904,-409,8160,0,0,-1
-11.21,6.32,-2.72,911,-412,8147,0,0,-1
-11.20,6.32,-2.72,919,-408,8142,0,0,-1
-11.20,6.32,-2.72,926,-392,8139,0,0,-1
-11.20,6.31,-2.71,923,-372,8123,0,0,-1
-11.20,6.31,-2.71,917,-370,8133,-1,0,0
-11.20,6.30,-2.71,910,-376,8150,0,0,-1
-11.20,6.29,-2.71,908,-384,8152,-1,0,-1
-11.20,6.29,-2.71,908,-387,8158,0,0,0
-11.20,6.29,-2.71,906,-382,8162,-1,0,0
-11.20,6.29,-2.71,912,-386,8145,-1,0,-1
-11.20,6.28,-2.71,913,-377,8143,0,0,-1
-11.20,6.27,-2.71,909,-379,8147,-1,0,-1
-11.20,6.27,-2.71,903,-384,8143,-1,0,-1
-11.20,6.26,-2.71,911,-381,8142,0,0,-1
-11.20,6.26,-2.71,895,-375,8145,-1,0,-1
-11.19,6.26,-2.71,895,-377,8150,-1,0,0
-11.20,6.26,-2.72,895,-385,8146,-1,0,0
-11.19,6.26,-2.72,903,-397,8141,-1,0,-1
-11.19,6.26,-2.72,911,-401,8133,0,0,0
-11.19,6.26,-2.72,908,-398,8132,0,0,-1
-11.19,6.25,-2.72,905,-380,8136,-1,0,0
-11.19,6.25,-2.72,909,-386,8147,-1,0,-1
-11.19,6.25,-2.72,904,-388,8138,0,0,-1
-11.19,6.25,-2.72,893,-390,8140,-1,-1,0
-11.19,6.26,-2.72,899,-382,8142,0,-1,0
-11.19,6.26,-2.72,909,-388,8140,0,-1,0
-11.19,6.26,-2.72,909,-376,8138,0,-1,0
-11.19,6.27,-2.71,912,-376,8143,0,0,0
-11.19,6.27,-2.71,907,-371,8145,0,0,0
-11.19,6.27,-2.71,895,-383,8140,-1,-1,0
-11.19,6.27,-2.71,901,-384,8136,0,-1,0
-11.19,6.28,-2.71,905,-385,8137,0,-1,-1
-11.19,6.29,-2.71,911,-391,8138,0,-1,0
-11.19,6.29,-2.71,910,-388,8136,0,-1,0
-11.19,6.29,-2.71,915,-385,8134,0,-1,-1
-11.19,6.30,-2.71,915,-382,8142,0,-1,0
-11.19,6.30,-2.71,912,-389,8143,-1,-1,0
-11.19,6.30,-2.71,906,-389,8134,0,-1,0
-11.19,6.31,-2.72,904,-385,8139,-1,-1,0
-11.19,6.31,-2.72,911,-391,8146,-1,-1,0
-11.20,6.31,-2.72,906,-379,8142,0,-1,0
-11.20,6.32,-2.71,915,-380,8147,0,-1,-1
-11.19,6.32,-2.70,921,-375,8149,0,-1,0
-11.20,6.33,-2.70,916,-371,8137,-1,-1,0
-11.20,6.33,-2.70,916,-374,8123,-1,0,0
-11.20,6.33,-2.71,907,-383,8137,-1,-1,0
-11.20,6.33,-2.71,915,-396,8136,0,-1,-1
-11.20,6.34,-2.71,919,-388,8136,0,-1,-1
-11.19,6.34,-2.70,923,-384,8138,0,-1,-1
-11.19,6.35,-2.70,927,-370,8133,-1,-1,0
-11.20,6.35,-2.70,928,-367,8135,-1,-1,0
-11.20,6.36,-2.70,916,-373,8134,-1,0,0
-11.20,6.36,-2.71,916,-391,8131,-1,0,-1
-11.20,6.36,-2.71,908,-384,8143,-1,-1,0
-11.19,6.36,-2.71,913,-392,8146,0,-1,0
-11.20,6.36,-2.71,910,-395,8142,0,-1,0
-11.20,6.36,-2.71,925,-388,8139,0,-1,-1
-11.20,6.37,-2.70,930,-379,8137,0,0,0
-11.20,6.37,-2.69,932,-365,8131,-1,0,0
-11.20,6.37,-2.69,923,-366,8143,-1,0,-1
-11.20,6.37,-2.70,920,-376,8154,-1,-1,0
-11.20,6.37,-2.70,912,-386,8160,-1,-1,0
-11.20,6.38,-2.70,913,-385,8148,0,-1,-1
-11.20,6.38,-2.70,922,-387,8138,0,-1,-1
-11.20,6.38,-2.69,928,-381,8138,0,-1,0
-11.20,6.38,-2.70,922,-375,8142,0,0,0
-11.21,6.38,-2.69,921,-376,8151,-1,0,0
-11.20,6.38,-2.70,917,-374,8154,-1,0,0
-11.20,6.38,-2.70,913,-379,8146,-1,-1,0
-11.20,6.39,-2.70,913,-379,8133,0,-1,0
-11.20,6.39,-2.70,923,-385,8140,-1,-1,0
-11.20,6.39,-2.70,926,-384,8141,-1,0,0
-11.21,6.39,-2.70,924,-391,8141,0,0,-1
-11.21,6.39,-2.70,915,-394,8135,0,-1,0
-11.20,6.39,-2.70,914,-386,8136,0,-1,-1
-11.20,6.39,-2.70,923,-377,8139,0,0,-1
-11.21,6.39,-2.69,915,-368,8142,-1,0,0
-11.20,6.39,-2.70,917,-375,8148,-1,-1,0
-11.20,6.39,-2.70,922,-388,8139,0,-1,-1
-11.20,6.39,-2.69,930,-384,8133,0,0,-1
-11.21,6.39,-2.68,924,-377,8129,0,0,0
-11.21,6.39,-2.68,926,-373,8130,0,0,0
-11.21,6.39,-2.67,920,-364,8138,-1,0,0
-11.21,6.39,-2.68,914,-370,8143,-1,-1,-1
-11.21,6.39,-2.68,914,-371,8138,-1,0,0
-11.20,6.39,-2.69,915,-385,8134,-1,0,-1
-11.20,6.39,-2.69,927,-388,8137,0,0,0
-11.20,6.39,-2.69,934,-384,8128,0,0,-1
-11.20,6.39,-2.69,934,-389,8139,0,0,0
-11.20,6.39,-2.69,923,-378,8148,-1,0,0
-11.20,6.38,-2.69,921,-379,8149,-1,0,0
-11.20,6.38,-2.69,914,-384,8149,-1,-1,0
-11.20,6.39,-2.70,926,-393,8126,0,-1,0
-11.20,6.39,-2.70,913,-395,8128,0,0,0
-11.21,6.39,-2.69,916,-376,8146,0,-1,0
-11.21,6.39,-2.68,917,-367,8152,-1,0,-1
-11.21,6.39,-2.68,914,-364,8148,-1,0,0
-11.21,6.38,-2.69,926,-381,8144,-1,0,0
-11.20,6.38,-2.70,922,-387,8122,-1,0,0
-11.20,6.38,-2.70,919,-391,8131,-1,0,0
-11.20,6.38,-2.70,921,-389,8135,0,0,-1
-11.21,6.37,-2.69,919,-368,8134,-1,0,0
-11.20,6.36,-2.69,912,-368,8147,-1,0,0
-11.20,6.36,-2.69,914,-370,8140,0,0,0
-11.20,6.36,-2.69,913,-373,8142,-1,0,0
-11.20,6.36,-2.70,920,-386,8125,-1,0,0
-11.20,6.35,-2.71,923,-386,8131,-1,0,-1
-11.20,6.35,-2.71,917,-373,8133,-1,0,-1
-11.20,6.34,-2.71,906,-379,8136,-1,0,-1
-11.20,6.34,-2.71,908,-381,8140,-1,0,0
-11.20,6.34,-2.71,917,-376,8141,-1,-1,0
-11.20,6.34,-2.71,928,-380,8133,0,0,0
-11.20,6.35,-2.71,932,-381,8130,0,0,-1
-11.20,6.35,-2.70,926,-379,8121,0,0,-1
-11.20,6.35,-2.70,924,-364,8134,0,0,-1
-11.20,6.34,-2.69,919,-365,8140,-1,0,-1
-11.20,6.34,-2.70,914,-378,8139,-1,0,0
-11.20,6.34,-2.70,903,-383,8135,0,-1,0
-11.20,6.34,-2.69,908,-381,8135,0,-1,-1
-11.20,6.34,-2.68,912,-377,8140,0,-1,-1
-11.20,6.34,-2.68,910,-369,8139,-1,0,0
-11.20,6.34,-2.68,918,-364,8132,-1,0,0
-11.20,6.34,-2.68,915,-376,8136,-1,0,0
-11.20,6.34,-2.69,910,-381,8140,0,-1,0
-11.20,6.34,-2.68,906,-383,8136,0,-1,-1
-11.20,6.34,-2.69,899,-380,8147,-1,-1,0
-11.20,6.35,-2.69,911,-377,8147,-1,-1,0
-11.20,6.35,-2.69,914,-380,8136,-1,-1,0
-11.20,6.36,-2.69,909,-383,8133,-1,-1,0
-11.20,6.36,-2.69,912,-387,8133,0,-1,0
-11.20,6.36,-2.69,920,-382,8132,0,-1,0
-11.20,6.36,-2.69,917,-379,8149,0,-1,-1
-11.21,6.37,-2.69,923,-382,8149,-1,-1,0
-11.21,6.37,-2.69,915,-383,8146,-1,-1,0
-11.21,6.37,-2.69,917,-388,8146,0,-1,0
-11.21,6.37,-2.68,922,-382,8141,0,-1,0
-11.21,6.38,-2.68,917,-379,8137,0,-1,0
-11.21,6.38,-2.67,914,-374,8136,0,-1,-1
-11.21,6.38,-2.67,909,-371,8134,-1,-1,0
-11.21,6.38,-2.68,911,-374,8122,-1,-1,0
-11.21,6.39,-2.68,918,-377,8139,-1,-1,0
-11.21,6.39,-2.68,920,-385,8144,-1,-1,0
-11.21,6.39,-2.68,915,-376,8152,0,-1,0
-11.21,6.39,-2.68,918,-377,8147,0,-1,0
-11.21,6.40,-2.68,926,-368,8142,0,-1,-1
-11.21,6.40,-2.68,924,-370,8136,-1,-1,0
-11.21,6.41,-2.68,921,-376,8138,-1,-1,0
-11.21,6.41,-2.68,922,-381,8134,-1,-1,0
-11.21,6.41,-2.68,917,-389,8142,0,-1,-1
-11.21,6.42,-2.68,921,-382,8148,0,-1,-1
-11.21,6.42,-2.67,923,-369,8145,0,-1,-1
-11.21,6.42,-2.66,923,-367,8137,0,-1,-1
-11.21,6.42,-2.66,922,-370,8145,-1,-1,0
-11.21,6.42,-2.67,922,-378,8156,-1,-1,0
-11.21,6.43,-2.67,923,-381,8153,-1,-1,0
-11.21,6.43,-2.67,928,-383,8145,0,0,0
-11.21,6.43,-2.67,917,-383,8148,-1,-1,0
-11.21,6.43,-2.67,922,-388,8149,0,0,0
-11.21,6.43,-2.67,918,-384,8143,0,-1,-1
-11.21,6.44,-2.67,917,-380,8146,-1,-1,0
-11.21,6.44,-2.67,919,-371,8134,-1,0,-1
-11.21,6.44,-2.67,922,-371,8137,-1,0,0
-11.21,6.44,-2.67,916,-372,8143,-1,0,0
-11.21,6.43,-2.67,906,-372,8147,0,-1,0
-11.21,6.44,-2.67,902,-374,8151,-1,-1,0
-11.21,6.44,-2.67,913,-377,8141,0,-1,0
-11.22,6.44,-2.67,922,-382,8136,0,-1,0
-11.22,6.44,-2.66,936,-377,8135,0,-1,-1
-11.21,6.45,-2.66,933,-369,8128,-1,0,-1
-11.21,6.45,-2.66,932,-371,8129,-1,0,0
-11.21,6.45,-2.66,930,-379,8128,-1,-1,-1
-11.21,6.45,-2.67,923,-387,8131,-1,-1,0
-11.21,6.45,-2.67,920,-389,8136,0,0,0
-11.21,6.45,-2.67,928,-387,8140,0,-1,-1
-11.21,6.46,-2.66,936,-383,8135,0,-1,-1
-11.21,6.46,-2.65,937,-366,8134,0,0,0
-11.21,6.46,-2.65,929,-370,8146,-1,0,0
-11.21,6.46,-2.65,926,-374,8142,-1,0,0
-11.22,6.45,-2.66,917,-375,8142,-1,-1,0
-11.22,6.46,-2.66,913,-385,8149,0,-1,0
-11.22,6.46,-2.66,920,-385,8138,-1,-1,0
-11.22,6.47,-2.66,924,-382,8141,0,-1,-1
-11.22,6.47,-2.66,935,-387,8135,0,0,-1
-11.22,6.47,-2.66,931,-377,8140,0,0,-1
-11.21,6.46,-2.65,935,-373,8147,0,0,-1
-11.21,6.46,-2.65,933,-372,8148,-1,0,-1
-11.21,6.46,-2.65,927,-371,8144,-1,0,0
-11.21,6.46,-2.65,925,-374,8133,-1,0,-1
-11.21,6.46,-2.66,927,-383,8133,0,0,-1
-11.21,6.46,-2.65,926,-378,8140,0,0,-1
-11.21,6.45,-2.65,930,-369,8141,0,0,-1
-11.21,6.45,-2.65,930,-363,8146,0,0,-1
-11.21,6.45,-2.65,919,-366,8146,-1,0,-1
-11.21,6.45,-2.65,927,-367,8140,-1,0,-1
-11.21,6.45,-2.65,925,-374,8146,0,0,-1
-11.21,6.44,-2.64,918,-378,8148,-1,0,0
-11.21,6.44,-2.64,918,-378,8148,-1,0,-1
-11.21,6.44,-2.64,922,-372,8146,0,0,0
-11.21,6.44,-2.64,922,-366,8136,-1,0,0
-11.21,6.43,-2.65,924,-371,8143,-1,0,0
-11.21,6.43,-2.66,922,-371,8137,-1,0,0
-11.20,6.43,-2.66,923,-377,8132,-1,0,-1
-11.20,6.42,-2.66,918,-379,8139,-1,0,0
-11.20,6.42,-2.66,921,-381,8140,-1,0,-1
-11.20,6.42,-2.66,926,-380,8142,-1,0,0
-11.20,6.42,-2.66,926,-386,8154,0,0,-1
-11.20,6.42,-2.66,925,-385,8149,0,0,-1
-11.20,6.41,-2.66,920,-375,8138,0,0,-1
-11.20,6.41,-2.66,924,-363,8140,-1,0,0
-11.20,6.41,-2.66,926,-364,8139,-1,0,0
-11.20,6.41,-2.66,926,-368,8150,-1,0,0
-11.20,6.40,-2.67,921,-382,8150,-1,0,0
-11.20,6.39,-2.68,911,-386,8147,-1,0,0
-11.20,6.39,-2.68,913,-398,8151,-1,0,0
-11.20,6.39,-2.68,916,-400,8146,0,0,0
-11.20,6.39,-2.68,920,-388,8134,0,0,-1
-11.20,6.39,-2.67,918,-382,8136,0,0,-1
-11.20,6.38,-2.67,919,-382,8129,-1,0,-1
-11.20,6.38,-2.67,918,-380,8139,-1,0,-1
-11.20,6.37,-2.68,916,-382,8146,-1,0,-1
-11.20,6.37,-2.68,908,-387,8154,0,0,0
-11.20,6.36,-2.68,905,-385,8152,0,0,-1
-11.19,6.35,-2.68,914,-387,8138,0,0,-1
-11.19,6.35,-2.68,914,-382,8141,-1,0,-1
-11.19,6.35,-2.68,910,-380,8145,-1,0,0
-11.19,6.34,-2.68,902,-374,8149,-1,0,0
-11.19,6.33,-2.68,903,-375,8149,-1,0,-1
-11.19,6.32,-2.68,902,-373,8145,-1,0,0
-11.19,6.32,-2.68,901,-373,8136,-1,0,0
-11.20,6.32,-2.69,900,-378,8144,-1,0,0
-11.20,6.31,-2.69,897,-388,8146,-1,0,-1
-11.20,6.31,-2.69,902,-397,8144,0,0,0
-11.20,6.30,-2.69,902,-395,8145,0,0,0
-11.19,6.29,-2.69,906,-386,8143,0,0,-1
-11.19,6.29,-2.69,896,-375,8141,-1,0,0
-11.19,6.29,-2.69,891,-378,8147,-1,0,0
-11.19,6.28,-2.69,889,-373,8151,-1,0,0
-11.19,6.27,-2.70,888,-385,8143,-1,0,-1
-11.19,6.27,-2.70,893,-388,8137,0,0,0
-11.19,6.27,-2.70,900,-384,8127,0,-1,-1
-11.19,6.28,-2.69,906,-383,8130,0,-1,0
-11.19,6.28,-2.69,903,-377,8137,-1,-1,0
-11.19,6.28,-2.69,903,-384,8139,-1,-1,-1
-11.19,6.29,-2.69,903,-387,8139,0,-1,-1
-11.18,6.29,-2.69,899,-387,8140,0,-1,-1
-11.18,6.29,-2.69,900,-383,8134,0,-1,-1
-11.18,6.30,-2.69,906,-379,8134,0,-1,0
-11.18,6.30,-2.69,901,-377,8134,0,-1,-1
-11.18,6.30,-2.69,904,-374,8133,-1,-1,-1
-11.18,6.30,-2.69,904,-378,8138,-1,-1,-1
-11.18,6.31,-2.69,902,-378,8137,-1,-1,0
-11.18,6.31,-2.69,905,-383,8130,0,-1,-1
-11.18,6.31,-2.68,902,-382,8128,0,-1,0
-11.18,6.32,-2.68,902,-380,8147,0,-1,0
-11.18,6.32,-2.68,903,-382,8155,0,-1,0
-11.18,6.32,-2.67,902,-378,8149,0,-1,-1
-11.18,6.33,-2.67,906,-376,8147,-1,-1,0
-11.19,6.33,-2.68,903,-376,8143,-1,-1,0
-11.19,6.34,-2.68,906,-390,8136,0,-1,0
-11.19,6.35,-2.68,905,-387,8139,0,-1,-1
-11.19,6.35,-2.67,910,-381,8132,0,-1,-1
-11.19,6.36,-2.67,908,-375,8133,0,-1,0
-11.19,6.36,-2.67,908,-373,8138,-1,-1,0
-11.19,6.37,-2.67,903,-372,8136,-1,-1,0
-11.19,6.37,-2.67,903,-376,8141,-1,-1,0
-11.20,6.37,-2.68,907,-390,8142,-1,-1,0
-11.20,6.38,-2.68,907,-395,8135,0,-1,-1
-11.20,6.38,-2.67,911,-391,8134,0,-1,0
-11.20,6.39,-2.67,923,-378,8137,0,-1,0
-11.19,6.40,-2.66,919,-368,8141,-1,-1,-1
-11.19,6.40,-2.66,910,-363,8146,-1,-1,0
-11.19,6.40,-2.67,909,-366,8159,-1,-1,0
-11.19,6.40,-2.67,912,-369,8152,-1,-1,0
-11.20,6.40,-2.67,915,-376,8153,0,-1,-1
-11.19,6.40,-2.66,915,-379,8140,0,-1,0
-11.19,6.40,-2.66,911,-379,8139,0,-1,0
-11.20,6.41,-2.66,910,-372,8135,0,-1,0
-11.20,6.41,-2.66,915,-367,8137,0,-1,0
-11.20,6.42,-2.65,917,-364,8136,-1,-1,0
-11.20,6.42,-2.66,910,-368,8134,-1,-1,0
-11.20,6.42,-2.66,908,-369,8132,-1,-1,0
-11.20,6.42,-2.66,910,-377,8137,-1,-1,0
-11.20,6.42,-2.66,920,-382,8146,0,-1,0
-11.20,6.43,-2.66,922,-386,8147,-1,-1,0
-11.20,6.43,-2.66,922,-383,8137,0,-1,0
-11.20,6.43,-2.66,917,-375,8136,0,-1,0
-11.20,6.43,-2.66,910,-369,8147,-1,-1,0
-11.20,6.43,-2.66,911,-376,8149,-1,-1,-1
-11.20,6.43,-2.66,912,-382,8143,-1,-1,0
-11.20,6.44,-2.66,920,-384,8137,0,-1,0
-11.21,6.45,-2.66,923,-386,8133,0,-1,0
-11.21,6.45,-2.66,923,-384,8130,0,-1,-1
-11.20,6.45,-2.65,932,-372,8129,0,-1,-1
-11.21,6.45,-2.65,923,-364,8134,0,0,0
-11.21,6.45,-2.65,916,-361,8141,-1,-1,0
-11.21,6.45,-2.65,916,-365,8137,-1,-1,0
-11.21,6.45,-2.65,918,-382,8133,-1,-1,-1
-11.21,6.46,-2.65,926,-385,8129,0,-1,0
-11.21,6.46,-2.65,925,-381,8130,0,-1,0
-11.21,6.47,-2.65,931,-375,8136,0,0,-1
-11.21,6.47,-2.65,934,-374,8137,0,0,-1
-11.21,6.47,-2.65,927,-377,8132,-1,0,0
-11.21,6.46,-2.65,918,-381,8141,-1,-1,-1
-11.21,6.46,-2.65,912,-381,8136,0,-1,-1
-11.21,6.46,-2.65,914,-380,8129,0,-1,0
-11.21,6.47,-2.65,922,-373,8142,0,-1,-1
-11.21,6.47,-2.65,922,-372,8143,0,0,0
-11.21,6.47,-2.65,925,-374,8140,0,-1,0
-11.21,6.47,-2.65,926,-376,8150,-1,-1,-1
-11.21,6.47,-2.65,919,-373,8147,0,-1,-1
-11.21,6.47,-2.65,924,-382,8144,0,-1,0
-11.21,6.48,-2.64,934,-379,8135,0,0,-1
-11.21,6.47,-2.64,926,-375,8134,0,0,-1
-11.21,6.47,-2.64,931,-367,8130,-1,0,-1
-11.21,6.47,-2.65,925,-380,8133,-1,-1,-1
-11.21,6.47,-2.65,925,-381,8135,0,-1,-1
-11.20,6.47,-2.64,917,-383,8136,0,0,0
-11.20,6.47,-2.64,919,-384,8133,0,-1,-1
-11.20,6.47,-2.63,927,-369,8132,0,0,-1
-11.20,6.47,-2.63,929,-365,8138,-1,0,-1
-11.20,6.47,-2.63,928,-370,8143,-1,0,-1
-11.20,6.47,-2.64,932,-373,8144,-1,0,-1
-11.20,6.46,-2.64,919,-377,8142,0,0,0
-11.20,6.46,-2.64,925,-383,8151,-1,-1,0
-11.20,6.46,-2.64,924,-387,8144,0,-1,0
-11.20,6.46,-2.64,918,-392,8143,0,0,-1
-11.20,6.46,-2.64,926,-388,8133,0,0,-1
-11.20,6.46,-2.64,924,-376,8132,0,0,-1
-11.20,6.46,-2.63,931,-374,8129,-1,0,-1
-11.19,6.45,-2.64,922,-373,8136,-1,0,-1
-11.19,6.45,-2.64,916,-375,8139,-1,0,-1
-11.19,6.44,-2.64,919,-386,8136,-1,0,0
-11.19,6.44,-2.64,920,-378,8143,0,0,0
-11.19,6.43,-2.64,927,-375,8141,0,0,0
-11.19,6.43,-2.64,929,-374,8141,0,0,0
-11.19,6.43,-2.64,926,-370,8136,0,0,0
-11.19,6.42,-2.63,925,-361,8135,0,0,-1
-11.19,6.42,-2.63,918,-362,8128,-1,0,0
-11.19,6.41,-2.63,917,-371,8133,-1,0,-1
-11.20,6.41,-2.64,910,-380,8142,-1,0,0
-11.20,6.41,-2.65,918,-380,8147,-1,-1,0
-11.20,6.41,-2.65,922,-388,8140,0,0,0
-11.20,6.41,-2.65,917,-396,8136,0,0,0
-11.20,6.40,-2.66,916,-390,8137,0,0,0
-11.20,6.40,-2.65,915,-376,8140,-1,0,-1
-11.20,6.40,-2.65,912,-378,8144,-1,0,0
-11.20,6.39,-2.66,913,-382,8151,-1,0,-1
-11.20,6.38,-2.66,908,-373,8148,0,0,-1
-11.20,6.37,-2.66,904,-384,8149,0,0,0
-11.20,6.38,-2.65,910,-375,8151,0,0,0
-11.20,6.38,-2.65,909,-371,8137,0,0,-1
-11.20,6.37,-2.65,907,-367,8141,0,0,0
-11.21,6.36,-2.65,908,-354,8136,-1,0,0
-11.21,6.35,-2.65,898,-361,8142,-1,0,0
-11.21,6.35,-2.65,897,-374,8142,-1,0,0
-11.21,6.35,-2.65,902,-376,8143,0,0,-1
-11.21,6.34,-2.65,905,-372,8142,-1,0,0
-11.21,6.33,-2.66,910,-376,8145,-1,0,0
-11.21,6.33,-2.66,910,-377,8141,-1,0,0
-11.21,6.32,-2.66,906,-377,8147,-1,0,-1
-11.21,6.31,-2.66,905,-372,8150,0,0,-1
-11.21,6.30,-2.66,902,-372,8147,-1,0,0
-11.21,6.30,-2.66,905,-379,8151,0,0,-1
-11.21,6.30,-2.66,900,-372,8132,-1,0,0
-11.21,6.29,-2.66,900,-380,8135,-1,0,-1
-11.21,6.29,-2.66,905,-381,8142,0,0,-1
-11.20,6.28,-2.66,895,-375,8153,0,0,-1
-11.20,6.28,-2.66,901,-378,8157,-1,0,-1
-11.20,6.28,-2.66,898,-369,8153,0,0,-1
-11.20,6.28,-2.66,889,-370,8144,-1,0,-1
-11.20,6.28,-2.66,893,-374,8143,-1,0,-1
-11.19,6.28,-2.66,895,-381,8138,-1,0,-1
-11.19,6.28,-2.66,890,-379,8128,0,0,-1
-11.19,6.28,-2.66,893,-382,8141,0,-1,0
-11.19,6.28,-2.66,901,-380,8137,0,-1,-1
-11.19,6.28,-2.66,902,-376,8137,-1,-1,-1
-11.19,6.28,-2.66,895,-378,8134,-1,0,-1
-11.19,6.28,-2.66,890,-381,8144,-1,0,0
-11.19,6.28,-2.66,892,-380,8148,-1,-1,0
-11.19,6.28,-2.66,894,-384,8151,0,-1,0
-11.19,6.29,-2.66,902,-387,8146,0,-1,-1
-11.19,6.30,-2.65,909,-377,8141,0,-1,-1
-11.19,6.30,-2.64,916,-370,8131,0,-1,-1
-11.19,6.31,-2.64,912,-375,8134,0,-1,0
-11.19,6.31,-2.64,901,-378,8146,0,-1,0
-11.19,6.31,-2.64,903,-377,8148,0,-1,-1
-11.19,6.31,-2.65,908,-378,8146,0,-1,0
-11.19,6.31,-2.65,900,-376,8141,-1,-1,0
-11.19,6.32,-2.65,899,-380,8141,0,-1,0
-11.19,6.32,-2.64,897,-376,8138,0,-1,0
-11.20,6.33,-2.64,894,-377,8146,0,-1,0
-11.19,6.33,-2.64,897,-365,8138,0,-1,-1
-11.19,6.34,-2.63,901,-357,8145,-1,-1,-1
-11.19,6.34,-2.63,896,-366,8140,-1,-1,0
-11.20,6.34,-2.64,897,-376,8142,-1,-1,0
-11.20,6.35,-2.64,901,-379,8135,-1,-1,0
-11.20,6.35,-2.65,903,-388,8133,-1,-1,0
-11.20,6.35,-2.65,904,-387,8130,0,-1,0
-11.20,6.36,-2.64,908,-375,8140,0,-1,0
-11.20,6.36,-2.64,909,-370,8146,0,-1,0
-11.20,6.37,-2.64,914,-375,8140,-1,-1,0
-11.20,6.37,-2.65,919,-380,8136,-1,-1,0
-11.20,6.38,-2.65,917,-387,8137,0,-1,-1
-11.20,6.38,-2.65,908,-389,8138,0,-1,0
-11.20,6.38,-2.65,909,-386,8142,0,-1,-1
-11.20,6.38,-2.64,918,-373,8151,0,-1,0
-11.20,6.39,-2.64,909,-373,8146,0,-1,0
-11.21,6.39,-2.64,918,-378,8138,-1,-1,0
-11.21,6.40,-2.64,913,-376,8131,-1,-1,0
-11.21,6.40,-2.64,909,-372,8124,-1,-1,0
-11.21,6.40,-2.64,909,-370,8128,0,-1,0
-11.21,6.41,-2.64,915,-368,8127,0,-1,0
-11.21,6.42,-2.64,923,-371,8133,-1,-1,0
-11.21,6.42,-2.64,924,-376,8134,-1,-1,0
-11.21,6.43,-2.64,912,-379,8149,-1,-1,0
-11.21,6.42,-2.65,912,-382,8142,-1,-1,-1
-11.21,6.42,-2.65,916,-388,8138,0,-1,0
-11.21,6.43,-2.65,919,-391,8136,-1,-1,0
-11.21,6.43,-2.65,920,-383,8137,0,-1,-1
-11.21,6.43,-2.65,916,-382,8135,0,-1,0
-11.21,6.44,-2.65,917,-374,8144,0,-1,-1
-11.21,6.44,-2.64,920,-368,8141,0,-1,-1
-11.21,6.44,-2.64,920,-365,8138,-1,-1,0
-11.21,6.45,-2.64,931,-371,8139,-1,-1,0
-11.21,6.45,-2.64,924,-379,8135,0,-1,0
-11.21,6.45,-2.64,921,-379,8135,0,-1,0
-11.21,6.46,-2.64,925,-375,8128,0,-1,-1
-11.21,6.46,-2.64,923,-374,8136,0,-1,0
-11.21,6.46,-2.64,919,-371,8128,-1,0,-1
-11.21,6.46,-2.65,916,-369,8137,-1,-1,0
-11.22,6.46,-2.65,917,-378,8144,-1,-1,0
-11.22,6.47,-2.66,916,-393,8138,0,-1,0
-11.22,6.47,-2.66,916,-392,8127,0,-1,0
-11.22,6.47,-2.65,926,-382,8130,0,-1,0
-11.22,6.47,-2.64,924,-368,8130,0,0,-1
-11.22,6.47,-2.63,916,-354,8138,0,-1,0
-11.22,6.47,-2.63,914,-358,8131,-1,-1,0
-11.22,6.47,-2.64,914,-365,8142,-1,-1,-1
-11.22,6.47,-2.64,913,-378,8137,-1,-1,0
-11.22,6.47,-2.64,920,-387,8132,0,-1,-1
-11.22,6.47,-2.64,913,-383,8132,0,-1,-1
-11.22,6.48,-2.64,928,-387,8125,0,-1,0
-11.22,6.48,-2.64,935,-376,8124,0,-1,0
-11.22,6.48,-2.63,920,-378,8124,0,0,0
-11.22,6.48,-2.63,917,-372,8135,-1,0,0
-11.22,6.48,-2.63,922,-369,8155,-1,-1,0
-11.22,6.48,-2.63,923,-366,8154,-1,-1,0
-11.22,6.48,-2.63,929,-369,8144,-1,0,0
-11.22,6.48,-2.64,924,-380,8143,-1,0,-1
-11.22,6.47,-2.63,925,-382,8137,0,0,0
-11.22,6.47,-2.63,926,-381,8137,0,0,-1
-11.22,6.47,-2.62,925,-361,8145,0,0,0
-11.22,6.46,-2.62,922,-369,8148,-1,0,-1
-11.22,6.46,-2.63,920,-365,8142,-1,-1,0
-11.22,6.46,-2.63,923,-384,8145,-1,-1,-1
-11.22,6.46,-2.63,927,-385,8142,0,0,-1
-11.22,6.46,-2.63,926,-382,8139,0,0,-1
-11.22,6.46,-2.62,924,-376,8144,0,0,-1
-11.22,6.46,-2.62,925,-373,8153,0,0,0
-11.22,6.46,-2.62,931,-369,8152,-1,0,0
-11.22,6.46,-2.62,922,-370,8152,-1,0,0
-11.22,6.45,-2.62,919,-373,8152,0,0,0
-11.22,6.45,-2.62,913,-365,8146,0,0,0
-11.22,6.45,-2.62,911,-370,8144,-1,-1,0
-11.22,6.44,-2.62,915,-372,8134,-1,-1,0
-11.22,6.45,-2.62,926,-368,8124,-1,0,0
-11.22,6.44,-2.62,923,-376,8130,-1,0,0
-11.22,6.43,-2.62,920,-368,8145,-1,0,-1
-11.22,6.43,-2.62,914,-370,8141,-1,0,-1
-11.22,6.43,-2.63,908,-374,8139,-1,0,0
-11.22,6.43,-2.63,915,-381,8125,-1,0,0
-11.22,6.43,-2.63,918,-381,8117,0,0,-1
-11.22,6.42,-2.63,919,-376,8125,-1,0,0
-11.22,6.42,-2.64,923,-383,8129,0,0,-1
-11.22,6.42,-2.63,916,-377,8130,0,0,0
-11.22,6.42,-2.63,924,-367,8137,0,0,-1
-11.22,6.41,-2.62,916,-364,8140,-1,0,0
-11.22,6.41,-2.63,919,-378,8125,0,0,0
-11.22,6.41,-2.62,917,-377,8116,0,0,-1
-11.22,6.41,-2.62,919,-373,8132,0,0,-1
-11.22,6.41,-2.61,931,-365,8127,0,0,-1
-11.22,6.41,-2.61,923,-360,8142,-1,0,-1
-11.22,6.41,-2.62,915,-366,8146,-1,0,0
-11.22,6.41,-2.63,923,-372,8139,-1,0,0
-11.22,6.40,-2.63,916,-377,8143,-1,0,0
-11.22,6.40,-2.63,916,-391,8144,0,0,0
-11.22,6.40,-2.63,924,-389,8141,0,0,0
-11.22,6.39,-2.63,921,-378,8138,0,0,0
-11.22,6.38,-2.63,923,-368,8130,-1,0,0
-11.22,6.37,-2.63,909,-357,8140,-1,0,0
-11.22,6.36,-2.64,903,-366,8142,-1,0,0
-11.22,6.35,-2.64,902,-367,8151,-1,0,0
-11.22,6.35,-2.65,903,-381,8135,-1,0,0
-11.22,6.34,-2.65,894,-388,8134,0,0,-1
-11.22,6.33,-2.65,897,-382,8136,0,0,0
-11.22,6.33,-2.64,910,-379,8141,0,0,0
-11.22,6.32,-2.64,909,-373,8144,0,0,0
-11.22,6.31,-2.64,903,-368,8138,-1,0,0
-11.22,6.31,-2.64,894,-364,8140,-1,0,0
-11.23,6.30,-2.65,899,-367,8142,-1,0,0
-11.23,6.29,-2.65,895,-376,8138,-1,0,0
-11.23,6.28,-2.66,895,-390,8138,-1,0,0
-11.23,6.28,-2.66,893,-396,8129,-1,0,0
-11.23,6.27,-2.67,894,-393,8145,-1,0,-1
-11.23,6.26,-2.66,892,-387,8149,0,0,-1
-11.23,6.25,-2.66,892,-369,8142,-1,0,0
-11.23,6.24,-2.66,894,-367,8150,-1,0,0
-11.23,6.23,-2.67,889,-369,8144,-1,0,0
-11.23,6.23,-2.67,888,-377,8148,-1,0,0
-11.23,6.22,-2.67,889,-386,8150,0,0,0
-11.23,6.22,-2.67,882,-387,8147,0,0,-1
-11.23,6.21,-2.66,883,-368,8135,0,0,-1
-11.22,6.21,-2.66,884,-364,8140,-1,0,-1
-11.22,6.21,-2.66,887,-367,8143,-1,0,-1
-11.22,6.20,-2.66,884,-375,8136,-1,0,-1
-11.22,6.20,-2.66,881,-378,8144,-1,0,-1
-11.21,6.20,-2.66,880,-381,8141,0,0,-1
-11.21,6.20,-2.66,885,-382,8140,0,0,-1
-11.21,6.20,-2.66,891,-376,8139,0,0,-1
-11.21,6.20,-2.66,886,-373,8131,-1,-1,-1
-11.21,6.20,-2.66,884,-372,8141,-1,0,-1
-11.21,6.19,-2.65,870,-379,8145,-1,-1,-1
-11.20,6.20,-2.66,878,-379,8143,0,-1,-1
-11.20,6.20,-2.65,877,-372,8148,-1,-1,-1
-11.20,6.20,-2.66,883,-371,8137,-1,-1,-1
-11.19,6.21,-2.66,885,-381,8119,0,-1,0
-11.20,6.21,-2.66,885,-389,8127,0,-1,0
-11.20,6.22,-2.65,886,-380,8127,0,-1,-1
-11.20,6.23,-2.64,884,-373,8139,0,-1,0
-11.19,6.24,-2.64,881,-360,8140,-1,-1,0
-11.19,6.25,-2.64,888,-361,8135,-1,-1,-1
-11.20,6.26,-2.64,888,-371,8147,-1,-1,0
-11.20,6.26,-2.64,891,-380,8129,0,-1,0
-11.20,6.27,-2.64,889,-381,8137,0,-1,-1
-11.20,6.27,-2.64,889,-374,8134,0,-1,0
-11.20,6.28,-2.64,891,-373,8133,0,-1,-1
-11.20,6.29,-2.64,889,-373,8142,-1,-1,0
-11.20,6.29,-2.64,887,-375,8150,-1,-1,0
-11.20,6.29,-2.64,880,-379,8154,-1,-1,0
-11.21,6.30,-2.65,894,-392,8150,0,-1,0
-11.21,6.31,-2.65,901,-398,8157,0,-1,0
-11.21,6.32,-2.65,910,-388,8139,0,-1,0
-11.21,6.33,-2.64,909,-374,8126,0,-1,-1
-11.21,6.34,-2.63,910,-363,8135,0,-1,-1
-11.21,6.34,-2.63,899,-362,8149,0,-1,0
-11.21,6.34,-2.63,896,-366,8155,-1,-1,0
-11.21,6.35,-2.64,895,-377,8150,-1,-1,0
-11.21,6.36,-2.64,895,-374,8149,0,-1,-1
-11.21,6.36,-2.63,904,-370,8137,0,-1,0
-11.21,6.37,-2.63,913,-374,8137,0,-1,0
-11.21,6.37,-2.62,915,-374,8141,0,-1,0
-11.21,6.38,-2.62,904,-366,8146,0,-1,0
-11.21,6.38,-2.62,903,-362,8151,0,-1,-1
-11.21,6.39,-2.61,903,-357,8149,-1,-1,0
-11.22,6.39,-2.61,907,-357,8144,-1,-1,0
-11.22,6.39,-2.63,903,-373,8132,-1,-1,0
-11.22,6.41,-2.63,915,-381,8126,-1,-1,0
-11.22,6.41,-2.64,915,-390,8146,-1,-1,-1
-11.22,6.41,-2.63,918,-385,8149,0,-1,-1
-11.22,6.42,-2.63,914,-377,8157,0,-1,-1
-11.22,6.42,-2.62,920,-374,8147,-1,-1,0
-11.22,6.43,-2.62,918,-371,8147,-1,-1,0
-11.22,6.43,-2.62,917,-367,8151,0,-1,0
-11.22,6.44,-2.62,910,-377,8148,0,-1,-1
-11.22,6.45,-2.62,918,-374,8142,0,-1,-1
-11.22,6.45,-2.61,915,-361,8144,0,-1,0
-11.22,6.45,-2.60,916,-360,8145,0,-1,0
-11.22,6.46,-2.61,914,-367,8147,-1,-1,0
-11.22,6.46,-2.61,917,-375,8142,-1,-1,0
-11.22,6.46,-2.61,917,-373,8135,-1,-1,0
-11.22,6.47,-2.61,917,-363,8134,0,-1,0
-11.22,6.47,-2.61,917,-374,8134,0,-1,0
-11.22,6.48,-2.61,918,-377,8140,0,-1,0
-11.23,6.48,-2.61,918,-378,8138,-1,-1,0
-11.23,6.48,-2.61,917,-372,8139,-1,-1,0
-11.23,6.48,-2.62,919,-368,8139,-1,-1,0
-11.23,6.48,-2.62,923,-377,8140,-1,-1,0
-11.23,6.49,-2.62,917,-379,8144,0,-1,0
-11.23,6.49,-2.62,921,-376,8131,0,-1,0
-11.23,6.49,-2.61,918,-381,8129,0,-1,0
-11.23,6.50,-2.61,918,-373,8137,0,-1,0
-11.23,6.50,-2.61,918,-370,8147,0,-1,0
-11.24,6.50,-2.61,911,-372,8143,-1,-1,0
-11.24,6.50,-2.60,916,-382,8144,0,-1,-1
-11.24,6.51,-2.60,920,-376,8157,0,-1,0
-11.24,6.51,-2.60,927,-373,8149,-1,-1,0
-11.24,6.51,-2.60,926,-374,8140,-1,-1,0
-11.24,6.51,-2.60,918,-366,8133,0,0,0
-11.24,6.51,-2.60,911,-368,8143,-1,-1,0
-11.24,6.51,-2.60,917,-373,8145,-1,-1,-1
-11.24,6.52,-2.61,912,-372,8140,0,-1,-1
-11.24,6.52,-2.61,920,-376,8130,0,-1,-1
-11.24,6.53,-2.60,928,-376,8122,0,-1,-1
-11.24,6.54,-2.59,933,-367,8126,0,-1,0
-11.24,6.54,-2.59,941,-371,8131,0,-1,-1
-11.24,6.54,-2.59,931,-370,8138,0,0,-1
-11.24,6.54,-2.59,928,-376,8142,-1,0,-1
-11.24,6.54,-2.59,918,-383,8147,0,-1,-1
-11.24,6.53,-2.59,916,-381,8143,0,-1,-1
-11.24,6.54,-2.59,918,-379,8137,-1,-1,-1
-11.24,6.54,-2.59,925,-370,8133,0,-1,0
-11.24,6.54,-2.59,923,-369,8136,0,-1,0
-11.24,6.54,-2.59,926,-363,8145,0,0,-1
-11.24,6.54,-2.59,926,-369,8144,-1,0,-1
-11.24,6.53,-2.59,922,-371,8150,-1,0,0
-11.24,6.53,-2.59,922,-372,8145,-1,-1,0
-11.24,6.53,-2.60,920,-376,8132,-1,-1,0
-11.24,6.53,-2.60,919,-385,8137,-1,0,0
-11.24,6.53,-2.61,927,-390,8140,0,0,0
-11.24,6.53,-2.61,928,-383,8150,0,0,-1
-11.24,6.52,-2.60,933,-365,8149,0,0,-1
-11.24,6.52,-2.61,921,-365,8147,-1,0,0
-11.24,6.51,-2.60,918,-357,8140,-1,0,0
-11.24,6.51,-2.61,919,-373,8140,-1,-1,0
-11.24,6.51,-2.62,921,-382,8139,0,-1,-1
-11.24,6.51,-2.61,926,-378,8127,0,0,-1
-11.23,6.51,-2.60,929,-368,8125,0,-1,-1
-11.23,6.51,-2.60,934,-361,8136,0,0,0
-11.23,6.51,-2.60,924,-354,8141,-1,0,0
-11.23,6.51,-2.60,926,-368,8141,-1,0,0
-11.24,6.51,-2.60,924,-369,8141,-1,0,0
-11.24,6.51,-2.60,922,-375,8138,0,0,-1
-11.24,6.51,-2.60,920,-378,8144,-1,0,-1
-11.24,6.50,-2.61,929,-383,8138,-1,0,0
-11.24,6.49,-2.62,926,-381,8134,-1,0,0
-11.24,6.49,-2.62,922,-380,8134,-1,0,0
-11.24,6.48,-2.62,914,-377,8145,-1,0,-1
-11.23,6.47,-2.63,916,-378,8144,-1,0,-1
-11.23,6.47,-2.63,923,-380,8140,-1,0,0
-11.23,6.46,-2.63,916,-380,8140,-1,0,0
-11.24,6.45,-2.63,917,-382,8138,-1,0,0
-11.24,6.44,-2.64,910,-384,8146,0,0,0
-11.24,6.43,-2.63,909,-377,8142,0,0,-1
-11.24,6.43,-2.63,912,-370,8139,0,0,0
-11.24,6.43,-2.63,905,-375,8138,-1,0,0
-11.23,6.42,-2.64,914,-379,8144,-1,0,0
-11.24,6.42,-2.64,912,-369,8142,-1,0,0
-11.24,6.41,-2.64,906,-382,8148,-1,0,0
-11.23,6.41,-2.65,911,-389,8143,-1,0,0
-11.23,6.41,-2.65,919,-397,8139,0,0,-1
-11.24,6.40,-2.64,915,-382,8135,0,0,-1
-11.24,6.40,-2.64,908,-367,8130,-1,0,0
-11.24,6.39,-2.64,903,-365,8129,-1,0,-1
-11.24,6.38,-2.64,904,-358,8139,-1,0,0
-11.24,6.38,-2.64,903,-366,8140,-1,0,0
-11.24,6.37,-2.65,896,-383,8137,-1,0,0
-11.24,6.36,-2.65,894,-378,8139,0,0,0
-11.24,6.35,-2.65,888,-373,8145,0,0,-1
-11.24,6.35,-2.65,892,-379,8149,0,0,0
-11.24,6.34,-2.64,899,-374,8144,0,0,-1
-11.24,6.33,-2.65,896,-373,8145,-1,0,0
-11.23,6.33,-2.65,892,-376,8144,-1,0,0
-11.23,6.33,-2.65,897,-378,8145,-1,0,-1
-11.23,6.32,-2.66,892,-376,8149,-1,0,0
-11.23,6.32,-2.65,888,-385,8138,-1,0,-1
-11.23,6.31,-2.66,886,-391,8133,-1,0,-1
-11.23,6.31,-2.66,889,-392,8134,0,0,-1
-11.23,6.30,-2.66,891,-384,8139,0,0,-1
-11.23,6.30,-2.65,886,-375,8146,0,0,-1
-11.22,6.30,-2.65,890,-369,8149,0,0,-1
-11.22,6.30,-2.65,888,-359,8146,-1,0,-1
-11.22,6.30,-2.65,888,-367,8143,-1,0,0
-11.22,6.30,-2.65,887,-381,8139,0,-1,-1
-11.22,6.30,-2.65,883,-383,8132,0,-1,0
-11.21,6.30,-2.64,891,-382,8136,0,-1,-1
-11.21,6.31,-2.65,899,-379,8128,0,-1,-1
-11.21,6.31,-2.64,889,-380,8129,0,-1,-1
-11.21,6.31,-2.64,882,-380,8129,0,-1,-1
-11.21,6.31,-2.63,884,-382,8127,0,-1,-1
-11.21,6.32,-2.63,893,-380,8132,0,-1,0
-11.21,6.33,-2.63,890,-374,8139,0,-1,0
-11.21,6.34,-2.63,895,-372,8140,0,-1,-1
-11.21,6.34,-2.63,895,-375,8140,-1,-1,0
-11.21,6.35,-2.64,895,-385,8139,-1,-1,-1
-11.21,6.35,-2.64,890,-374,8142,-1,-1,0
-11.21,6.36,-2.64,895,-375,8138,-1,-1,0
-11.21,6.36,-2.64,896,-378,8140,0,-1,0
-11.21,6.36,-2.64,902,-382,8137,0,-1,0
-11.21,6.37,-2.64,899,-381,8133,0,-1,-1
-11.21,6.37,-2.63,899,-378,8132,-1,-1,0
-11.22,6.38,-2.63,898,-373,8134,-1,-1,0
-11.22,6.38,-2.64,900,-374,8140,-1,-1,0
-11.22,6.38,-2.64,899,-381,8148,-1,-1,0
-11.22,6.39,-2.64,897,-388,8150,0,-1,0
-11.22,6.39,-2.64,899,-389,8144,0,-1,-1
-11.22,6.40,-2.63,904,-377,8138,0,-1,0
-11.22,6.41,-2.64,909,-377,8139,-1,-1,0
-11.22,6.41,-2.64,906,-377,8137,-1,-1,0
-11.22,6.41,-2.64,900,-380,8146,-1,-1,0
-11.22,6.42,-2.64,898,-382,8153,-1,-1,0
-11.22,6.43,-2.64,901,-380,8154,0,-1,0
-11.22,6.43,-2.64,901,-385,8146,0,-1,0
-11.23,6.44,-2.64,920,-384,8137,0,-1,0
-11.23,6.45,-2.63,924,-374,8132,0,-1,0
-11.22,6.45,-2.63,922,-361,8138,0,-1,-1
-11.22,6.45,-2.63,918,-368,8146,-1,-1,0
-11.22,6.45,-2.63,909,-372,8151,-1,-1,0
-11.22,6.45,-2.63,903,-375,8162,-1,-1,0
-11.23,6.45,-2.64,903,-382,8157,-1,-1,0
-11.23,6.46,-2.64,909,-383,8144,0,-1,0
-11.23,6.46,-2.64,912,-383,8133,0,-1,0
-11.23,6.47,-2.63,916,-379,8137,0,-1,0
-11.23,6.47,-2.63,910,-370,8141,0,-1,-1
-11.23,6.47,-2.63,911,-374,8140,0,-1,0
-11.23,6.48,-2.62,917,-366,8146,0,-1,0
-11.23,6.48,-2.62,911,-370,8137,-1,-1,0
-11.23,6.48,-2.62,913,-374,8133,-1,-1,0
-11.24,6.49,-2.63,913,-378,8145,-1,-1,0
-11.24,6.49,-2.63,921,-389,8146,0,-1,0
-11.24,6.50,-2.63,925,-388,8138,0,-1,0
-11.24,6.50,-2.63,927,-375,8129,0,-1,0
-11.24,6.50,-2.62,920,-370,8139,0,-1,0
-11.24,6.50,-2.62,922,-362,8149,-1,-1,0
-11.24,6.50,-2.63,913,-365,8141,-1,-1,0
-11.24,6.50,-2.63,908,-375,8145,-1,-1,0
-11.24,6.50,-2.63,912,-377,8140,0,-1,0
-11.24,6.50,-2.63,914,-376,8143,0,-1,0
-11.24,6.51,-2.62,917,-366,8146,0,-1,-1
-11.24,6.51,-2.62,921,-365,8141,0,-1,0
-11.24,6.51,-2.61,919,-361,8146,-1,-1,0
-11.24,6.52,-2.61,911,-360,8153,-1,-1,0
-11.24,6.52,-2.62,910,-372,8152,-1,-1,0
-11.24,6.52,-2.62,911,-375,8156,0,-1,0
-11.24,6.52,-2.62,921,-382,8148,0,-1,0
-11.25,6.53,-2.61,923,-374,8136,0,-1,0
-11.25,6.53,-2.61,923,-369,8140,0,-1,0
-11.25,6.53,-2.61,922,-370,8140,-1,-1,0
-11.25,6.53,-2.61,923,-371,8146,-1,-1,0
-11.25,6.53,-2.61,915,-372,8152,0,-1,-1
-11.25,6.53,-2.61,922,-375,8138,0,-1,-1
-11.24,6.53,-2.61,933,-374,8140,0,-1,-1
-11.25,6.53,-2.61,922,-369,8146,-1,0,0
-11.25,6.53,-2.61,922,-372,8142,0,0,0
-11.25,6.53,-2.61,918,-379,8145,0,-1,0
-11.25,6.53,-2.61,923,-369,8154,0,-1,-1
-11.24,6.53,-2.60,919,-364,8142,0,0,0
-11.24,6.52,-2.60,921,-369,8146,-1,-1,-1
-11.24,6.52,-2.60,928,-367,8147,0,-1,-1
-11.24,6.53,-2.60,925,-373,8140,-1,-1,0
-11.24,6.53,-2.60,925,-383,8145,0,-1,-1
-11.24,6.53,-2.60,928,-381,8141,0,0,-1
-11.24,6.52,-2.60,926,-372,8147,0,0,-1
-11.24,6.52,-2.60,923,-362,8148,0,0,0
-11.24,6.52,-2.60,926,-364,8152,-1,-1,-1
-11.24,6.52,-2.60,910,-367,8147,-1,-1,0
-11.24,6.51,-2.60,911,-372,8150,-1,-1,0
-11.24,6.52,-2.61,919,-376,8141,-1,-1,0
-11.24,6.52,-2.61,931,-379,8133,0,-1,0
-11.24,6.53,-2.60,938,-372,8130,0,0,-1
-11.24,6.52,-2.60,938,-368,8144,0,0,-1
-11.23,6.52,-2.59,934,-359,8135,-1,0,-1
-11.23,6.52,-2.59,923,-356,8133,-1,0,-1
-11.23,6.51,-2.60,923,-364,8140,-1,0,0
-11.23,6.51,-2.60,916,-382,8139,0,0,0
-11.23,6.51,-2.60,916,-377,8132,0,0,0
-11.23,6.51,-2.60,913,-379,8140,0,-1,-1
-11.23,6.51,-2.60,921,-374,8136,0,0,0
-11.23,6.51,-2.59,921,-368,8136,0,0,0
-11.23,6.51,-2.59,924,-367,8128,-1,0,0
-11.23,6.50,-2.60,917,-371,8146,-1,0,0
-11.23,6.50,-2.60,919,-368,8154,-1,-1,0
-11.23,6.50,-2.60,914,-369,8139,-1,-1,0
-11.24,6.50,-2.61,914,-383,8147,-1,-1,0
-11.23,6.51,-2.62,923,-388,8137,-1,-1,0
-11.24,6.50,-2.62,925,-384,8133,0,0,0
-11.24,6.50,-2.62,927,-373,8144,0,0,0
-11.24,6.50,-2.61,923,-367,8140,-1,0,0
-11.24,6.49,-2.62,913,-367,8148,-1,0,0
-11.24,6.49,-2.62,920,-370,8148,-1,-1,0
-11.24,6.49,-2.62,923,-373,8143,-1,-1,0
-11.24,6.49,-2.62,921,-372,8136,0,0,0
-11.24,6.49,-2.62,921,-373,8135,0,0,0
-11.24,6.48,-2.62,918,-372,8147,0,0,0
-11.25,6.48,-2.62,922,-368,8141,-1,0,0
-11.25,6.48,-2.62,919,-369,8138,-1,0,0
-11.24,6.48,-2.62,914,-372,8141,-1,0,0
-11.24,6.48,-2.62,909,-375,8145,-1,-1,0
-11.24,6.48,-2.63,906,-373,8136,-1,-1,0
-11.24,6.48,-2.64,904,-372,8127,-1,-1,0
-11.24,6.50,-2.65,912,-368,8128,-1,-1,0
-11.25,6.50,-2.66,917,-371,8131,-1,-1,0
-11.24,6.50,-2.67,908,-357,8144,-1,-1,0
-11.24,6.50,-2.69,917,-362,8136,-1,-1,0
-11.24,6.51,-2.71,920,-385,8136,-1,0,0
-11.23,6.51,-2.73,896,-389,8158,-1,-1,-1
-11.21,6.53,-2.76,903,-371,8132,-2,-2,-1
-11.21,6.54,-2.78,932,-369,8150,-1,0,-1
-11.19,6.54,-2.82,882,-359,8160,-2,-2,-1
-11.17,6.57,-2.85,927,-374,8117,-2,-1,-1
-11.16,6.58,-2.88,947,-404,8128,-2,0,-1
-11.15,6.58,-2.91,944,-437,8129,-1,0,-1
-11.15,6.57,-2.93,938,-471,8113,-1,0,-1
-11.15,6.56,-2.94,932,-476,8119,0,0,-1
-11.15,6.55,-2.92,931,-445,8120,0,0,-1
-11.15,6.55,-2.91,930,-421,8128,0,0,0
-11.15,6.54,-2.90,920,-416,8141,0,0,0
-11.16,6.53,-2.90,916,-413,8144,0,0,0
-11.16,6.53,-2.90,914,-435,8134,0,-1,0
-11.16,6.53,-2.89,924,-449,8121,0,-1,0
-11.17,6.54,-2.88,929,-443,8106,0,0,0
-11.17,6.53,-2.86,936,-426,8103,0,0,0
-11.18,6.53,-2.84,935,-412,8119,0,0,0
-11.18,6.52,-2.81,927,-390,8123,0,0,0
-11.19,6.51,-2.79,919,-386,8132,0,0,0
-11.19,6.50,-2.79,922,-380,8139,0,0,0
-11.19,6.50,-2.77,916,-379,8141,0,0,0
-11.19,6.49,-2.76,910,-385,8130,0,-1,0
-11.19,6.49,-2.76,917,-387,8123,0,-1,0
-11.20,6.49,-2.75,920,-390,8136,0,-1,0
-11.20,6.49,-2.74,924,-386,8132,0,0,0
-11.20,6.50,-2.72,928,-385,8133,0,0,0
-11.20,6.49,-2.72,912,-390,8137,0,0,0
-11.20,6.48,-2.71,907,-374,8135,0,-1,0
-11.20,6.48,-2.71,904,-377,8143,0,-1,0
-11.21,6.48,-2.70,910,-380,8142,0,-1,0
-11.21,6.49,-2.70,915,-388,8128,0,-1,-1
-11.21,6.49,-2.70,908,-389,8130,0,-1,-1
-11.20,6.49,-2.69,916,-387,8133,0,-1,-1
-11.20,6.49,-2.69,917,-378,8131,0,-1,0
-11.20,6.49,-2.68,916,-374,8143,0,-1,0
-11.20,6.49,-2.68,913,-374,8143,0,-1,0
-11.21,6.49,-2.67,910,-377,8149,0,-1,0
-11.21,6.49,-2.66,906,-376,8150,0,-1,0
-11.21,6.49,-2.66,911,-372,8151,0,-1,-1
-11.21,6.50,-2.66,922,-378,8151,0,-1,0
-11.21,6.51,-2.66,924,-380,8145,0,-1,0
-11.21,6.51,-2.65,917,-382,8141,0,-1,0
-11.21,6.51,-2.65,915,-382,8139,0,-1,-1
-11.21,6.51,-2.65,913,-383,8155,0,-1,0
-11.21,6.51,-2.64,926,-370,8145,0,-1,0
-11.21,6.52,-2.63,929,-366,8141,0,-1,0
-11.22,6.53,-2.63,928,-372,8133,0,-1,0
-11.21,6.53,-2.63,924,-375,8139,-1,-1,-1
-11.21,6.52,-2.64,925,-377,8141,-1,-1,0
-11.22,6.52,-2.64,924,-377,8140,-1,-1,0
-11.22,6.53,-2.63,920,-375,8147,0,-1,0
-11.22,6.53,-2.63,916,-375,8136,0,-1,0
-11.22,6.53,-2.63,918,-376,8136,0,-1,0
-11.22,6.53,-2.63,926,-373,8134,0,-1,0
-11.22,6.53,-2.63,935,-379,8140,0,-1,0
-11.22,6.54,-2.63,931,-376,8150,0,-1,0
-11.22,6.54,-2.63,924,-380,8149,0,-1,0
-11.22,6.54,-2.63,925,-381,8137,0,-1,-1
-11.22,6.55,-2.62,925,-374,8132,0,-1,0
-11.22,6.55,-2.61,923,-374,8130,0,-1,0
-11.22,6.55,-2.61,933,-368,8131,0,-1,-1
-11.22,6.55,-2.61,930,-369,8130,-1,-1,-1
-11.22,6.55,-2.61,922,-376,8131,-1,0,0
-11.22,6.55,-2.62,926,-379,8140,-1,-1,0
-11.22,6.55,-2.62,927,-389,8140,-1,-1,0
-11.22,6.55,-2.62,926,-397,8138,0,-1,0
-11.22,6.56,-2.62,928,-388,8136,0,-1,-1
-11.22,6.56,-2.61,930,-376,8129,0,-1,-1
-11.22,6.56,-2.60,940,-362,8131,0,0,-1
-11.22,6.56,-2.59,937,-352,8128,-1,0,0
-11.22,6.56,-2.60,930,-359,8142,-1,0,0
-11.22,6.56,-2.61,925,-376,8138,-1,-1,0
-11.22,6.56,-2.61,927,-390,8135,0,-1,0
-11.22,6.56,-2.61,935,-384,8129,0,0,-1
-11.22,6.56,-2.60,932,-377,8132,0,0,-1
-11.22,6.56,-2.59,930,-371,8134,0,0,0
-11.22,6.56,-2.59,932,-362,8142,0,-1,-1
-11.22,6.56,-2.59,931,-362,8159,-1,-1,-1
-11.22,6.56,-2.59,932,-357,8155,-1,-1,0
-11.22,6.56,-2.59,937,-368,8147,-1,-1,-1
-11.22,6.56,-2.60,929,-377,8140,-1,-1,-1
-11.22,6.56,-2.60,922,-375,8143,-1,-1,0
-11.22,6.56,-2.60,928,-376,8133,0,0,0
-11.22,6.56,-2.60,936,-382,8132,0,0,-1
-11.22,6.56,-2.60,930,-374,8128,0,0,0
-11.21,6.55,-2.60,929,-366,8138,-1,0,-1
-11.21,6.55,-2.60,928,-368,8138,-1,0,0
-11.21,6.55,-2.60,922,-370,8140,-1,-1,-1
-11.21,6.55,-2.60,919,-373,8141,0,-1,-1
-11.21,6.55,-2.60,926,-374,8136,0,-1,0
-11.21,6.54,-2.59,923,-372,8132,0,-1,-1
-11.21,6.54,-2.59,922,-360,8125,0,0,-1
-11.21,6.54,-2.59,922,-354,8127,-1,-1,0
-11.21,6.54,-2.58,924,-361,8138,-1,0,0
-11.21,6.54,-2.58,920,-365,8144,-1,-1,0
-11.21,6.54,-2.59,917,-370,8136,0,-1,-1
-11.21,6.54,-2.58,923,-367,8131,-1,0,0
-11.21,6.54,-2.59,927,-375,8121,0,-1,-1
-11.21,6.54,-2.58,926,-367,8130,0,0,0
-11.21,6.53,-2.59,918,-370,8140,-1,0,-1
-11.21,6.53,-2.59,916,-374,8138,-1,0,-1
-11.20,6.52,-2.59,917,-370,8135,-1,0,-1
-11.20,6.51,-2.60,919,-375,8137,-1,0,-1
-11.20,6.51,-2.60,923,-372,8138,-1,0,-1
-11.20,6.51,-2.60,924,-373,8139,0,0,0
-11.20,6.51,-2.60,929,-368,8139,0,0,0
-11.20,6.50,-2.59,922,-370,8145,0,0,0
-11.20,6.49,-2.59,916,-366,8143,0,0,0
-11.20,6.49,-2.59,910,-370,8142,-1,0,-1
-11.20,6.49,-2.59,918,-369,8150,-1,0,0
-11.20,6.48,-2.59,915,-373,8144,-1,0,0
-11.20,6.47,-2.59,906,-373,8142,0,0,0
-11.20,6.47,-2.59,915,-364,8137,0,0,-1
-11.20,6.47,-2.59,920,-362,8140,0,0,0
-11.20,6.46,-2.59,918,-357,8139,-1,0,0
-11.20,6.45,-2.59,915,-363,8134,-1,0,0
-11.20,6.44,-2.59,910,-364,8144,-1,0,0
-11.20,6.43,-2.60,903,-376,8144,-1,0,0
-11.21,6.42,-2.61,896,-384,8147,-1,0,0
-11.21,6.42,-2.61,899,-385,8142,0,0,0
-11.21,6.42,-2.61,919,-383,8142,0,0,-1
-11.21,6.41,-2.60,919,-367,8146,0,0,0
-11.21,6.40,-2.60,911,-366,8143,-1,0,0
-11.21,6.39,-2.60,905,-361,8149,-1,0,0
-11.21,6.39,-2.61,898,-374,8152,-1,0,0
-11.21,6.38,-2.61,898,-378,8152,-1,0,-1
-11.21,6.37,-2.62,899,-386,8148,0,0,0
-11.21,6.37,-2.61,898,-380,8143,0,0,-1
-11.21,6.37,-2.61,903,-382,8139,0,0,0
-11.22,6.36,-2.61,906,-374,8142,0,0,0
-11.22,6.35,-2.60,904,-368,8140,0,0,0
-11.22,6.34,-2.61,908,-364,8139,-1,0,0
-11.22,6.32,-2.60,902,-358,8140,-1,0,0
-11.22,6.32,-2.60,901,-366,8146,-1,0,0
-11.22,6.31,-2.61,897,-370,8144,-1,0,0
-11.22,6.29,-2.62,896,-383,8136,-1,0,0
-11.22,6.29,-2.62,898,-386,8139,0,0,0
-11.22,6.28,-2.62,897,-379,8141,0,0,-1
-11.22,6.27,-2.62,894,-362,8150,0,0,-1
-11.22,6.26,-2.62,888,-360,8149,-1,0,-1
-11.22,6.25,-2.63,888,-370,8153,-1,0,-1
-11.21,6.24,-2.62,876,-374,8154,-1,0,-1
-11.21,6.23,-2.63,880,-384,8149,0,0,-1
-11.21,6.23,-2.63,887,-388,8143,0,0,-1
-11.21,6.23,-2.62,894,-376,8137,0,0,-1
-11.21,6.22,-2.62,888,-371,8138,0,0,-1
-11.21,6.22,-2.61,881,-363,8138,-1,0,0
-11.21,6.22,-2.61,882,-367,8155,-1,-1,-1
-11.21,6.22,-2.61,876,-366,8149,0,-1,-1
-11.20,6.22,-2.61,872,-368,8137,0,-1,-1
-11.20,6.22,-2.62,880,-371,8132,0,-1,-1
-11.20,6.22,-2.62,878,-373,8130,0,-1,-1
-11.20,6.23,-2.62,892,-376,8137,0,-1,-1
-11.20,6.23,-2.62,891,-376,8156,-1,-1,-1
-11.20,6.24,-2.62,889,-375,8152,-1,-1,-1
-11.20,6.23,-2.62,880,-374,8157,-1,-1,-1
-11.20,6.24,-2.62,882,-380,8157,0,-1,0
-11.20,6.24,-2.62,884,-382,8155,0,-1,0
-11.20,6.25,-2.63,886,-381,8147,0,-1,0
-11.20,6.26,-2.63,887,-381,8136,0,-1,0
-11.20,6.27,-2.62,888,-376,8127,0,-1,0
-11.20,6.27,-2.62,895,-374,8133,0,-1,-1
-11.20,6.27,-2.61,884,-369,8144,0,-1,0
-11.21,6.28,-2.61,894,-374,8151,0,-1,0
-11.21,6.29,-2.62,895,-376,8152,0,-1,0
-11.21,6.29,-2.62,897,-374,8149,-1,-1,0
-11.21,6.30,-2.61,905,-365,8138,-1,-1,0
-11.21,6.31,-2.61,898,-364,8142,0,-1,-1
-11.21,6.31,-2.61,892,-368,8148,0,-1,-1
-11.21,6.31,-2.61,890,-369,8155,-1,-1,0
-11.21,6.32,-2.62,886,-380,8157,-1,-1,0
-11.22,6.32,-2.62,895,-376,8147,0,-1,0
-11.21,6.33,-2.62,897,-379,8139,0,-1,0
-11.22,6.34,-2.61,908,-373,8145,0,-1,-1
-11.22,6.34,-2.61,913,-365,8136,0,-1,-1
-11.22,6.35,-2.60,913,-362,8145,0,-1,-1
-11.22,6.35,-2.60,910,-357,8145,-1,-1,0
-11.22,6.36,-2.60,905,-357,8144,-1,-1,0
-11.22,6.37,-2.60,901,-365,8141,0,-1,0
-11.22,6.37,-2.60,896,-379,8148,0,-1,0
-11.22,6.37,-2.60,900,-373,8142,0,-1,0
-11.22,6.38,-2.59,905,-362,8138,0,-1,0
-11.22,6.38,-2.59,905,-362,8143,0,-1,0
-11.23,6.39,-2.58,914,-355,8143,0,-1,0
-11.23,6.40,-2.58,909,-355,8153,-1,-1,0
-11.23,6.40,-2.58,900,-357,8150,-1,-1,0
-11.22,6.40,-2.59,906,-362,8140,-1,-1,0
-11.23,6.41,-2.59,905,-363,8132,-1,-1,0
-11.23,6.41,-2.59,906,-370,8125,0,-1,0
-11.23,6.42,-2.59,917,-368,8122,0,-1,0
-11.23,6.42,-2.59,919,-356,8132,0,-1,0
-11.23,6.42,-2.59,920,-351,8145,0,-1,0
-11.23,6.42,-2.59,915,-353,8148,-1,-1,0
-11.23,6.42,-2.59,914,-359,8152,-1,-1,0
-11.23,6.43,-2.60,916,-370,8154,0,-1,-1
-11.23,6.43,-2.59,913,-380,8148,0,-1,0
-11.23,6.44,-2.59,916,-371,8144,0,-1,-1
-11.23,6.44,-2.58,915,-354,8142,0,-1,-1
-11.23,6.44,-2.58,915,-355,8140,-1,-1,0
-11.24,6.45,-2.58,912,-362,8137,-1,-1,0
-11.24,6.45,-2.58,915,-372,8137,-1,-1,0
-11.24,6.45,-2.58,915,-377,8144,-1,-1,0
-11.24,6.45,-2.58,923,-367,8147,0,-1,-1
-11.24,6.45,-2.58,921,-353,8143,0,-1,-1
-11.24,6.45,-2.58,913,-357,8141,-1,-1,0
-11.24,6.46,-2.58,921,-362,8133,-1,-1,0
-11.25,6.46,-2.59,923,-362,8136,-1,-1,0
-11.25,6.46,-2.59,924,-368,8134,0,-1,0
-11.24,6.47,-2.59,928,-375,8139,-1,-1,0
-11.24,6.47,-2.59,927,-365,8136,0,-1,0
-11.25,6.47,-2.59,924,-371,8142,0,-1,0
-11.25,6.47,-2.59,923,-371,8140,0,-1,0
-11.25,6.47,-2.59,919,-371,8131,0,-1,-1
-11.25,6.47,-2.59,915,-364,8131,0,-1,-1
-11.25,6.47,-2.59,927,-360,8131,-1,-1,0
-11.25,6.48,-2.59,930,-355,8136,-1,-1,0
-11.25,6.48,-2.59,928,-354,8144,-1,-1,0
-11.25,6.48,-2.59,921,-360,8140,-1,-1,0
-11.25,6.48,-2.59,922,-368,8142,-1,0,0
-11.25,6.48,-2.59,920,-374,8135,0,-1,0
-11.25,6.48,-2.59,922,-371,8131,0,0,-1
-11.25,6.48,-2.59,922,-367,8134,0,0,-1
-11.25,6.47,-2.58,926,-357,8135,0,0,-1
-11.25,6.47,-2.58,931,-358,8133,-1,0,0
-11.25,6.47,-2.58,930,-361,8135,-1,0,-1
-11.25,6.47,-2.59,925,-363,8137,-1,0,0
-11.25,6.47,-2.59,920,-375,8130,0,0,-1
-11.25,6.47,-2.59,916,-374,8126,0,0,0
-11.25,6.46,-2.59,911,-367,8146,0,-1,-1
-11.25,6.47,-2.59,928,-364,8136,0,0,-1
-11.25,6.47,-2.58,924,-357,8141,-1,-1,-1
-11.25,6.47,-2.59,921,-365,8145,-1,-1,0
-11.25,6.47,-2.59,919,-364,8140,-1,0,0
-11.25,6.46,-2.59,912,-361,8148,0,0,-1
-11.25,6.46,-2.59,909,-372,8144,0,0,0
-11.25,6.46,-2.59,914,-372,8140,0,0,-1
-11.25,6.45,-2.58,911,-366,8143,-1,0,0
-11.25,6.45,-2.59,911,-373,8140,-1,0,0
-11.25,6.45,-2.59,921,-375,8140,0,0,0
-11.24,6.44,-2.59,915,-369,8132,-1,0,-1
-11.24,6.44,-2.59,916,-363,8136,-1,0,0
-11.24,6.44,-2.59,919,-357,8141,-1,0,-1
-11.24,6.44,-2.60,913,-363,8145,-1,0,0
-11.24,6.44,-2.60,916,-365,8151,0,0,-1
-11.24,6.43,-2.59,918,-363,8148,0,0,-1
-11.24,6.43,-2.60,919,-362,8139,-1,0,0
-11.24,6.43,-2.60,920,-366,8136,-1,0,0
-11.24,6.42,-2.60,909,-365,8139,0,0,0
-11.25,6.42,-2.60,909,-373,8144,0,0,0
-11.24,6.42,-2.59,906,-370,8147,0,0,-1
-11.24,6.41,-2.59,907,-361,8135,-1,0,0
-11.25,6.41,-2.59,922,-368,8120,-1,0,0
-11.25,6.41,-2.59,920,-365,8111,-1,0,0
-11.25,6.40,-2.59,916,-373,8134,-1,0,0
-11.25,6.40,-2.59,925,-370,8149,0,0,-1
-11.25,6.39,-2.59,916,-360,8154,-1,0,-1
-11.25,6.39,-2.60,919,-364,8155,-1,0,0
-11.25,6.39,-2.60,915,-371,8149,-1,0,0
-11.24,6.38,-2.61,912,-373,8140,-1,0,0
-11.24,6.38,-2.61,917,-383,8143,-1,0,0
-11.24,6.37,-2.61,922,-382,8130,0,0,0
-11.24,6.37,-2.61,918,-366,8139,0,0,0
-11.24,6.37,-2.61,907,-360,8148,-1,0,0
-11.24,6.36,-2.61,900,-355,8148,-1,0,0
-11.25,6.35,-2.61,898,-362,8137,-1,0,0
-11.24,6.35,-2.62,904,-368,8145,-1,0,0
-11.24,6.34,-2.62,898,-365,8148,-1,0,0
-11.24,6.34,-2.62,901,-373,8155,0,0,0
-11.24,6.34,-2.62,912,-379,8142,0,0,0
-11.24,6.33,-2.61,910,-379,8135,0,0,-1
-11.24,6.33,-2.61,922,-373,8129,0,0,-1
-11.24,6.32,-2.61,914,-358,8126,0,0,-1
-11.24,6.32,-2.61,909,-355,8139,-1,0,0
-11.24,6.31,-2.61,907,-358,8145,-1,0,0
-11.24,6.29,-2.61,902,-358,8147,-1,0,0
-11.24,6.29,-2.62,893,-367,8136,-1,0,0
-11.24,6.28,-2.62,896,-368,8137,0,0,0
-11.25,6.28,-2.62,901,-380,8144,-1,0,0
-11.25,6.27,-2.62,903,-371,8147,0,0,0
-11.25,6.27,-2.62,898,-359,8150,0,0,0
-11.25,6.26,-2.61,893,-361,8150,0,0,0
-11.25,6.26,-2.61,895,-359,8137,-1,0,0
-11.26,6.25,-2.62,894,-361,8145,-1,0,0
-11.26,6.24,-2.63,895,-364,8150,-1,0,0
-11.26,6.24,-2.63,899,-377,8153,-1,0,0
-11.26,6.23,-2.63,895,-369,8139,0,0,-1
-11.26,6.23,-2.63,904,-376,8129,0,0,-1
-11.26,6.22,-2.62,900,-368,8134,0,0,-1
-11.25,6.21,-2.62,898,-356,8135,-1,0,-1
-11.25,6.20,-2.62,889,-352,8146,-1,0,-1
-11.25,6.19,-2.63,886,-363,8157,-1,0,0
-11.25,6.19,-2.63,882,-364,8151,-1,0,-1
-11.24,6.19,-2.63,890,-375,8144,0,0,-1
-11.24,6.19,-2.62,887,-368,8149,0,0,-1
-11.24,6.18,-2.62,887,-363,8151,-1,0,-1
-11.24,6.18,-2.62,894,-363,8147,-1,0,-1
-11.24,6.18,-2.62,881,-371,8148,-1,0,0
-11.24,6.18,-2.62,887,-380,8147,0,-1,-1
-11.24,6.19,-2.62,885,-370,8148,0,-1,0
-11.24,6.19,-2.62,892,-381,8143,0,-1,-1
-11.23,6.20,-2.62,890,-373,8134,0,-1,-1
-11.23,6.20,-2.62,884,-373,8134,-1,-1,-1
-11.23,6.20,-2.62,890,-372,8143,0,-1,-1
-11.24,6.20,-2.61,886,-365,8138,0,-1,-1
-11.23,6.20,-2.61,885,-366,8143,0,-1,-1
-11.23,6.21,-2.62,891,-366,8148,-1,-1,-1
-11.23,6.22,-2.61,894,-364,8148,-1,-1,-1
-11.23,6.22,-2.61,898,-372,8144,0,-1,-1
-11.23,6.23,-2.62,894,-375,8147,0,-1,-1
-11.23,6.23,-2.61,887,-370,8144,0,-1,0
-11.23,6.24,-2.61,892,-371,8145,0,-1,0
-11.23,6.25,-2.61,888,-377,8139,0,-1,0
-11.23,6.25,-2.61,887,-377,8139,-1,-1,0
-11.23,6.25,-2.61,887,-365,8144,-1,-1,0
-11.23,6.26,-2.61,890,-366,8138,-1,-1,0
-11.23,6.27,-2.61,893,-371,8142,-1,-1,0
-11.24,6.27,-2.61,892,-380,8133,0,-1,0
-11.24,6.27,-2.62,889,-383,8131,0,-1,-1
-11.24,6.27,-2.61,890,-373,8138,0,-1,0
-11.24,6.28,-2.61,897,-363,8141,0,-1,-1
-11.24,6.29,-2.61,902,-361,8151,-1,-1,0
-11.24,6.29,-2.61,894,-359,8144,-1,-1,0
-11.24,6.30,-2.61,902,-366,8150,-1,-1,0
-11.24,6.31,-2.62,899,-378,8139,-1,-1,0
-11.24,6.31,-2.62,898,-382,8143,0,-1,0
-11.24,6.32,-2.61,902,-380,8146,0,-1,0
-11.24,6.33,-2.61,912,-361,8136,0,-1,-1
-11.24,6.34,-2.60,922,-356,8139,-1,-1,0
-11.24,6.34,-2.60,916,-357,8137,-1,-1,0
-11.25,6.34,-2.60,902,-367,8144,-1,-1,0
-11.24,6.34,-2.62,892,-385,8153,-1,-1,0
-11.24,6.35,-2.62,902,-390,8150,0,-1,-1
-11.25,6.35,-2.61,900,-385,8142,0,-1,0
-11.25,6.35,-2.60,901,-376,8141,0,-1,0
-11.25,6.36,-2.60,910,-371,8138,0,-1,0
-11.25,6.37,-2.59,909,-362,8133,0,-1,-1
-11.25,6.37,-2.59,906,-357,8141,-1,-1,0
-11.25,6.37,-2.59,910,-364,8136,-1,-1,0
-11.25,6.38,-2.59,906,-356,8135,-1,-1,0
-11.25,6.39,-2.60,906,-370,8140,-1,-1,0
-11.26,6.39,-2.61,902,-378,8142,-1,-1,0
-11.26,6.39,-2.61,902,-384,8141,-1,-1,-1
-11.26,6.40,-2.61,910,-385,8144,0,-1,0
-11.26,6.41,-2.61,917,-376,8135,0,-1,0
-11.26,6.41,-2.60,919,-369,8143,0,-1,0
-11.26,6.41,-2.60,910,-365,8147,-1,-1,0
-11.26,6.41,-2.61,915,-370,8145,-1,-1,0
-11.26,6.41,-2.61,913,-375,8138,0,-1,0
-11.26,6.42,-2.60,909,-373,8139,0,-1,0
-11.26,6.42,-2.60,918,-373,8141,0,-1,-1
-11.26,6.42,-2.60,922,-363,8138,0,-1,-1
-11.26,6.43,-2.60,924,-359,8134,0,-1,-1
-11.26,6.43,-2.60,916,-358,8136,-1,-1,-1
-11.26,6.43,-2.60,916,-363,8151,-1,-1,-1
-11.25,6.44,-2.60,913,-364,8150,-1,-1,-1
-11.25,6.44,-2.61,913,-354,8145,-1,-1,-1
-11.25,6.44,-2.62,923,-359,8143,-1,-1,-1
-11.24,6.45,-2.63,931,-367,8135,-1,-1,0
-11.24,6.45,-2.64,931,-378,8124,-1,-1,0
-11.24,6.45,-2.65,933,-375,8130,-1,-1,-1
-11.24,6.45,-2.65,925,-374,8120,-1,-1,-1
-11.24,6.45,-2.65,917,-368,8128,-1,-1,-1
-11.24,6.46,-2.66,920,-373,8134,-1,-1,-1
-11.24,6.47,-2.66,924,-376,8132,-1,-1,0
-11.23,6.48,-2.67,932,-376,8127,-1,-1,0
-11.23,6.49,-2.68,934,-383,8123,-1,0,-1
-11.23,6.48,-2.68,920,-369,8134,0,0,-1
-11.23,6.48,-2.68,921,-367,8131,-1,0,0
-11.23,6.48,-2.69,922,-365,8133,-1,-1,0
-11.23,6.48,-2.69,921,-368,8136,-1,-1,-1
-11.23,6.48,-2.69,916,-379,8134,0,0,-1
-11.23,6.48,-2.69,914,-389,8138,0,0,-1
-11.23,6.48,-2.69,917,-386,8127,0,-1,-1
-11.23,6.48,-2.68,923,-377,8127,0,-1,-1
-11.23,6.48,-2.67,930,-369,8139,0,0,-1
-11.23,6.48,-2.67,932,-370,8131,-1,0,0
-11.23,6.48,-2.67,927,-373,8138,-1,0,-1
-11.23,6.47,-2.67,918,-372,8152,-1,-1,0
-11.23,6.47,-2.67,919,-370,8147,-1,-1,-1
-11.22,6.48,-2.68,920,-366,8155,-1,-1,0
-11.23,6.48,-2.69,919,-372,8144,-1,-1,0
-11.23,6.49,-2.70,929,-380,8132,-1,-1,0
-11.23,6.49,-2.71,936,-388,8123,-1,0,0
-11.22,6.49,-2.71,943,-379,8121,0,0,-1
-11.22,6.49,-2.71,930,-367,8145,-1,0,-1
-11.22,6.49,-2.71,911,-349,8149,-1,-1,-1
-11.22,6.49,-2.74,922,-356,8139,-1,-1,0
-11.21,6.50,-2.77,929,-394,8150,-1,-1,0
-11.22,6.50,-2.79,925,-411,8138,-1,-1,0
-11.22,6.50,-2.79,925,-414,8110,0,0,-1
-11.21,6.50,-2.79,923,-411,8119,0,0,-1
-11.21,6.50,-2.79,926,-401,8126,0,0,-1
-11.21,6.50,-2.78,935,-386,8137,0,0,0
-11.21,6.50,-2.78,924,-379,8154,-1,0,0
-11.21,6.49,-2.78,926,-385,8140,-1,0,0
-11.21,6.49,-2.78,916,-385,8134,-1,0,0
-11.21,6.49,-2.78,916,-391,8132,-1,-1,-1
-11.21,6.49,-2.78,929,-396,8130,0,0,-1
-11.21,6.48,-2.77,933,-391,8132,0,0,-1
-11.21,6.48,-2.77,932,-394,8138,0,0,-1
-11.22,6.48,-2.76,930,-391,8147,0,0,-1
-11.21,6.47,-2.76,925,-386,8149,0,0,-1
-11.21,6.47,-2.76,922,-389,8145,0,0,-1
-11.21,6.46,-2.75,920,-389,8148,0,0,-1
-11.21,6.46,-2.75,919,-392,8142,0,0,0
-11.21,6.46,-2.75,921,-377,8132,0,0,0
-11.21,6.46,-2.74,923,-381,8141,0,0,0
-11.21,6.44,-2.74,916,-384,8142,0,0,0
-11.21,6.44,-2.74,919,-386,8142,0,0,0
-11.22,6.44,-2.73,913,-382,8128,0,0,0
-11.22,6.44,-2.73,919,-396,8123,0,-1,-1
-11.22,6.44,-2.72,922,-395,8117,0,0,0
-11.22,6.43,-2.72,918,-384,8134,0,0,-1
-11.21,6.43,-2.71,921,-373,8143,0,0,-1
-11.21,6.43,-2.71,921,-370,8141,-1,0,0
-11.21,6.42,-2.71,916,-375,8146,-1,0,-1
-11.21,6.41,-2.71,917,-386,8131,-1,0,0
-11.21,6.41,-2.71,913,-401,8134,0,0,0
-11.21,6.40,-2.71,919,-399,8147,0,0,-1
-11.21,6.40,-2.70,911,-383,8155,0,0,-1
-11.21,6.39,-2.70,908,-374,8148,-1,0,0
-11.21,6.39,-2.70,906,-371,8139,-1,0,0
-11.21,6.38,-2.70,905,-378,8132,-1,0,0
-11.22,6.37,-2.71,906,-385,8136,0,0,0
-11.22,6.36,-2.71,915,-389,8143,0,0,-1
-11.22,6.36,-2.71,908,-387,8133,0,0,0
-11.22,6.36,-2.71,909,-381,8132,0,0,0
-11.21,6.35,-2.71,904,-381,8131,-1,0,0
-11.21,6.34,-2.71,901,-379,8139,-1,0,0
-11.22,6.33,-2.71,893,-384,8144,-1,0,0
-11.22,6.33,-2.71,890,-392,8147,-1,0,-1
-11.22,6.33,-2.71,898,-392,8148,0,0,0
-11.22,6.32,-2.71,909,-385,8140,0,0,0
-11.22,6.31,-2.70,911,-378,8143,0,0,0
-11.22,6.31,-2.70,911,-378,8141,0,0,-1
-11.22,6.31,-2.70,906,-376,8158,-1,0,0
-11.22,6.30,-2.70,902,-373,8163,-1,0,0
-11.22,6.29,-2.70,903,-377,8151,0,0,0
-11.22,6.29,-2.70,896,-382,8145,0,0,-1
-11.22,6.29,-2.70,896,-380,8139,0,0,0
-11.22,6.28,-2.70,901,-386,8140,0,0,-1
-11.22,6.28,-2.70,895,-387,8138,0,0,0
-11.22,6.27,-2.70,895,-378,8135,-1,0,0
-11.22,6.27,-2.70,897,-377,8139,0,0,-1
-11.21,6.27,-2.69,892,-371,8131,0,0,-1
-11.21,6.27,-2.69,885,-372,8127,-1,-1,0
-11.21,6.27,-2.70,891,-380,8129,-1,-1,0
-11.22,6.27,-2.70,894,-382,8131,-1,0,-1
-11.21,6.27,-2.70,897,-389,8138,0,0,-1
-11.21,6.27,-2.70,898,-388,8135,0,0,-1
-11.21,6.27,-2.70,894,-380,8141,0,0,-1
-11.21,6.26,-2.69,892,-378,8139,0,-1,0
-11.21,6.26,-2.69,896,-379,8147,-1,-1,0
-11.21,6.26,-2.69,889,-378,8145,0,-1,0
-11.21,6.27,-2.68,890,-377,8142,0,-1,-1
-11.21,6.27,-2.68,897,-378,8139,0,-1,0
-11.21,6.27,-2.68,895,-374,8139,0,-1,-1
-11.21,6.28,-2.67,892,-371,8136,0,-1,-1
-11.21,6.28,-2.67,896,-379,8140,0,-1,0
-11.21,6.28,-2.67,895,-387,8142,0,-1,0
-11.21,6.28,-2.67,889,-387,8141,0,-1,0
-11.22,6.29,-2.67,892,-387,8133,0,-1,0
-11.22,6.30,-2.67,892,-387,8126,0,-1,0
-11.22,6.30,-2.67,895,-377,8130,0,-1,0
-11.22,6.30,-2.67,900,-376,8135,0,-1,0
-11.22,6.31,-2.66,909,-380,8134,0,-1,-1
-11.22,6.32,-2.66,909,-372,8143,-1,0,0
-11.23,6.32,-2.66,902,-374,8145,-1,-1,0
-11.23,6.32,-2.66,901,-384,8141,0,-1,0
-11.23,6.32,-2.67,896,-392,8140,0,-1,0
-11.23,6.32,-2.66,905,-381,8136,0,-1,0
-11.23,6.33,-2.65,904,-370,8135,0,-1,0
-11.24,6.34,-2.65,908,-362,8144,0,-1,0
-11.24,6.34,-2.65,908,-362,8145,-1,-1,0
-11.24,6.35,-2.65,910,-370,8143,-1,-1,0
-11.24,6.35,-2.65,908,-379,8154,-1,-1,0
-11.24,6.36,-2.66,910,-391,8141,0,-1,0
-11.24,6.37,-2.65,919,-391,8133,0,-1,0
-11.24,6.38,-2.65,918,-384,8120,0,-1,0
-11.24,6.38,-2.64,923,-367,8116,0,-1,-1
-11.24,6.38,-2.63,921,-368,8123,0,-1,0
-11.24,6.38,-2.63,914,-367,8136,-1,-1,0
-11.24,6.38,-2.63,908,-374,8149,-1,-1,0
-11.25,6.39,-2.64,906,-385,8144,0,-1,0
-11.25,6.39,-2.64,901,-380,8143,0,-1,0
-11.25,6.40,-2.64,914,-379,8145,0,-1,0
-11.25,6.40,-2.64,922,-370,8144,0,-1,0
-11.25,6.41,-2.63,922,-360,8146,0,-1,0
-11.25,6.41,-2.63,918,-355,8140,0,-1,0
-11.25,6.41,-2.63,917,-358,8142,-1,-1,0
-11.25,6.41,-2.63,915,-363,8137,0,-1,0
-11.25,6.42,-2.63,910,-367,8147,-1,-1,0
-11.25,6.43,-2.63,913,-377,8150,-1,-1,0
-11.26,6.43,-2.63,915,-379,8140,-1,-1,0
-11.26,6.43,-2.63,921,-385,8135,0,-1,0
-11.26,6.43,-2.63,924,-381,8132,0,-1,-1
-11.25,6.43,-2.63,918,-372,8135,0,-1,-1
-11.25,6.43,-2.62,918,-355,8149,-1,0,0
-11.25,6.43,-2.63,919,-355,8144,-1,-1,0
-11.26,6.43,-2.63,913,-375,8143,-1,-1,0
-11.26,6.43,-2.63,908,-387,8150,0,-1,-1
-11.25,6.44,-2.63,918,-385,8154,0,-1,-1
-11.25,6.44,-2.63,921,-361,8150,0,-1,-1
-11.25,6.44,-2.62,925,-362,8149,0,-1,0
-11.26,6.44,-2.62,919,-366,8139,-1,-1,0
-11.26,6.44,-2.63,914,-370,8139,-1,-1,0
-11.26,6.44,-2.62,914,-372,8139,0,-1,0
-11.26,6.45,-2.63,921,-377,8140,0,-1,0
-11.26,6.45,-2.62,923,-371,8134,0,-1,0
