Yaw,Pitch,Roll,AX,AY,AZ,GX,GY,GZ
-11.57,6.41,-1.83,873,-269,8148,0,-1,-1
-11.57,6.41,-1.82,880,-262,8139,0,-1,0
-11.57,6.42,-1.82,893,-253,8136,0,-1,0
-11.57,6.43,-1.81,888,-254,8141,0,-1,0
-11.57,6.43,-1.81,884,-254,8154,-1,-1,0
-11.57,6.43,-1.82,875,-268,8155,-1,-1,-1
-11.57,6.43,-1.82,872,-276,8147,0,-1,-1
-11.57,6.43,-1.82,880,-267,8152,0,-1,0
-11.57,6.44,-1.82,882,-266,8152,0,-1,0
-11.57,6.44,-1.82,888,-259,8150,0,-1,0
-11.57,6.45,-1.82,879,-261,8142,-1,-1,0
-11.57,6.45,-1.82,882,-258,8154,0,-1,0
-11.57,6.45,-1.81,890,-249,8143,0,-1,0
-11.58,6.46,-1.81,881,-248,8143,-1,-1,0
-11.58,6.46,-1.82,881,-256,8152,-1,-1,0
-11.58,6.46,-1.83,882,-267,8147,-1,-1,0
-11.58,6.46,-1.83,883,-269,8142,0,-1,0
-11.58,6.47,-1.83,887,-268,8139,0,-1,0
-11.58,6.47,-1.82,887,-270,8140,0,-1,0
-11.58,6.47,-1.82,883,-263,8157,0,-1,0
-11.58,6.47,-1.82,889,-258,8157,-1,-1,-1
-11.59,6.48,-1.82,888,-260,8156,-1,-1,0
-11.59,6.48,-1.82,886,-267,8153,0,-1,0
-11.59,6.48,-1.82,883,-274,8145,0,-1,0
-11.59,6.48,-1.82,884,-272,8142,0,-1,-1
-11.59,6.48,-1.81,889,-252,8147,0,-1,-1
-11.59,6.48,-1.81,894,-244,8149,0,-1,-1
-11.59,6.49,-1.80,896,-237,8145,-1,-1,0
-11.59,6.48,-1.81,885,-257,8149,-1,-1,0
-11.60,6.48,-1.81,882,-272,8146,-1,-1,0
-11.60,6.48,-1.82,876,-278,8152,-1,-1,-1
-11.60,6.48,-1.81,884,-268,8144,0,-1,-1
-11.59,6.49,-1.81,889,-260,8152,0,-1,-1
-11.60,6.49,-1.82,890,-262,8152,-1,-1,0
-11.59,6.49,-1.81,892,-265,8144,-1,-1,-1
-11.60,6.49,-1.82,895,-263,8148,-1,-1,0
-11.60,6.50,-1.82,899,-269,8138,0,-1,-1
-11.60,6.50,-1.82,899,-270,8137,0,-1,0
-11.60,6.50,-1.82,902,-264,8135,0,-1,-1
-11.60,6.50,-1.82,901,-261,8147,0,-1,0
-11.60,6.50,-1.81,894,-252,8153,0,-1,0
-11.60,6.50,-1.81,897,-257,8156,-1,-1,0
-11.60,6.51,-1.81,901,-257,8156,-1,-1,0
-11.60,6.51,-1.81,895,-260,8152,0,-1,0
-11.60,6.51,-1.81,901,-266,8151,0,-1,0
-11.60,6.51,-1.81,899,-262,8145,0,-1,-1
-11.60,6.51,-1.81,899,-260,8137,0,-1,0
-11.60,6.50,-1.82,894,-263,8142,-1,0,0
-11.60,6.50,-1.82,894,-272,8142,0,0,0
-11.60,6.50,-1.82,892,-267,8143,0,0,0
-11.60,6.49,-1.82,897,-257,8139,0,0,0
-11.60,6.49,-1.82,893,-258,8139,0,0,0
-11.60,6.48,-1.81,895,-261,8142,-1,0,0
-11.60,6.48,-1.82,897,-258,8148,-1,0,0
-11.60,6.48,-1.82,887,-261,8151,-1,-1,0
-11.60,6.47,-1.82,885,-266,8151,0,-1,0
-11.60,6.48,-1.82,897,-271,8142,0,-1,-1
-11.60,6.47,-1.82,905,-261,8139,0,0,0
-11.60,6.47,-1.81,901,-261,8136,0,0,0
-11.60,6.46,-1.81,903,-256,8142,0,0,0
-11.60,6.46,-1.82,898,-261,8150,-1,0,-1
-11.60,6.46,-1.82,903,-260,8139,0,0,-1
-11.60,6.46,-1.82,900,-259,8143,0,0,-1
-11.60,6.45,-1.82,891,-266,8153,0,-1,0
-11.60,6.45,-1.82,896,-264,8150,0,0,0
-11.60,6.44,-1.82,899,-266,8139,0,0,-1
-11.60,6.44,-1.81,894,-256,8141,0,0,0
-11.60,6.43,-1.81,893,-250,8146,-1,0,-1
-11.60,6.43,-1.81,888,-240,8141,0,0,0
-11.60,6.42,-1.81,883,-245,8152,-1,0,0
-11.60,6.42,-1.82,886,-256,8146,-1,-1,0
-11.60,6.42,-1.82,888,-264,8151,-1,-1,0
-11.61,6.42,-1.82,898,-270,8149,-1,0,0
-11.61,6.41,-1.82,898,-270,8143,0,0,-1
-11.61,6.41,-1.82,897,-269,8142,0,0,0
-11.60,6.41,-1.81,898,-259,8149,0,0,-1
-11.60,6.41,-1.81,896,-256,8146,-1,0,0
-11.60,6.40,-1.82,896,-263,8149,-1,0,0
-11.60,6.40,-1.82,892,-265,8147,0,0,0
-11.60,6.39,-1.82,887,-272,8143,0,0,-1
-11.60,6.38,-1.82,887,-260,8145,0,0,-1
-11.60,6.39,-1.81,885,-253,8144,0,0,0
-11.60,6.38,-1.81,891,-247,8144,-1,0,-1
-11.60,6.38,-1.81,895,-251,8147,-1,-1,0
-11.60,6.38,-1.82,892,-265,8140,-1,-1,-1
-11.60,6.37,-1.82,894,-259,8150,-1,0,0
-11.60,6.37,-1.82,891,-258,8142,0,0,0
-11.60,6.36,-1.82,894,-252,8143,0,0,0
-11.60,6.36,-1.82,890,-249,8150,-1,0,0
-11.60,6.36,-1.82,893,-248,8146,0,0,0
-11.60,6.36,-1.82,894,-251,8136,-1,0,0
-11.60,6.36,-1.82,893,-262,8147,-1,0,0
-11.60,6.36,-1.82,897,-267,8145,0,0,-1
-11.60,6.35,-1.82,897,-268,8145,0,0,0
-11.60,6.35,-1.82,894,-268,8141,0,0,0
-11.60,6.34,-1.82,891,-264,8139,0,0,0
-11.60,6.34,-1.82,893,-253,8146,-1,0,0
-11.61,6.34,-1.82,895,-254,8142,-1,-1,0
-11.61,6.34,-1.82,901,-255,8144,-1,0,-1
-11.61,6.34,-1.82,901,-255,8148,-1,0,0
-11.61,6.34,-1.83,898,-263,8148,-1,0,0
-11.61,6.34,-1.83,898,-274,8143,0,-1,0
-11.61,6.33,-1.83,898,-263,8148,0,0,0
-11.61,6.34,-1.82,897,-246,8142,0,0,-1
-11.61,6.34,-1.82,900,-238,8145,-1,0,-1
-11.61,6.34,-1.82,897,-248,8144,-1,0,-1
-11.61,6.33,-1.83,894,-262,8158,-1,0,0
-11.61,6.33,-1.83,901,-278,8155,-1,-1,0
-11.61,6.33,-1.83,902,-286,8149,0,-1,-1
-11.61,6.33,-1.83,899,-283,8144,0,-1,-1
-11.61,6.34,-1.82,906,-263,8148,0,0,-1
-11.61,6.33,-1.81,906,-248,8142,0,0,-1
-11.61,6.33,-1.81,900,-244,8152,-1,0,0
-11.61,6.32,-1.81,896,-247,8140,-1,0,0
-11.61,6.32,-1.82,888,-253,8135,-1,0,0
-11.61,6.32,-1.83,890,-269,8151,0,-1,-1
-11.61,6.32,-1.82,895,-265,8153,0,0,-1
-11.60,6.32,-1.82,896,-260,8144,0,0,-1
-11.60,6.32,-1.81,900,-252,8149,0,0,0
-11.60,6.32,-1.81,900,-244,8144,-1,0,0
-11.60,6.32,-1.81,902,-247,8148,-1,0,0
-11.61,6.31,-1.82,902,-258,8139,-1,0,0
-11.60,6.31,-1.82,896,-262,8125,0,0,-1
-11.61,6.31,-1.82,893,-258,8130,-1,0,0
-11.61,6.31,-1.82,891,-263,8142,-1,-1,0
-11.61,6.31,-1.82,894,-267,8136,-1,0,0
-11.61,6.31,-1.82,896,-266,8126,-1,0,0
-11.61,6.30,-1.82,897,-260,8131,0,0,0
-11.61,6.30,-1.83,893,-259,8137,0,0,0
-11.61,6.29,-1.83,888,-257,8143,0,0,0
-11.61,6.29,-1.83,885,-259,8143,-1,0,0
-11.61,6.29,-1.83,888,-262,8137,-1,0,0
-11.61,6.29,-1.83,894,-266,8137,0,0,0
-11.61,6.29,-1.83,902,-267,8139,0,0,-1
-11.61,6.29,-1.83,904,-260,8149,0,0,0
-11.61,6.28,-1.83,895,-258,8142,0,0,0
-11.61,6.28,-1.83,891,-261,8149,-1,-1,0
-11.61,6.28,-1.84,887,-274,8145,0,0,0
-11.61,6.28,-1.84,892,-269,8138,0,0,-1
-11.61,6.28,-1.84,890,-263,8139,0,0,0
-11.61,6.28,-1.83,897,-246,8139,0,0,0
-11.61,6.28,-1.83,895,-250,8148,-1,0,0
-11.61,6.28,-1.83,897,-258,8145,0,0,0
-11.61,6.28,-1.83,900,-250,8139,-1,0,0
-11.61,6.27,-1.83,890,-253,8152,-1,0,-1
-11.61,6.27,-1.84,891,-260,8152,-1,0,0
-11.61,6.27,-1.83,890,-257,8156,0,0,0
-11.61,6.27,-1.83,898,-260,8153,0,0,0
-11.61,6.27,-1.83,898,-259,8155,0,0,0
-11.61,6.26,-1.83,898,-254,8148,0,0,0
-11.61,6.26,-1.83,891,-249,8149,0,0,0
-11.61,6.26,-1.83,885,-255,8149,-1,-1,0
-11.61,6.26,-1.83,893,-256,8148,0,-1,0
-11.61,6.26,-1.83,898,-255,8134,-1,0,0
-11.61,6.26,-1.83,896,-253,8141,-1,0,0
-11.61,6.26,-1.83,897,-260,8143,0,0,0
-11.61,6.26,-1.82,894,-258,8144,0,0,-1
-11.61,6.26,-1.82,899,-248,8145,0,-1,0
-11.61,6.27,-1.81,907,-247,8150,-1,0,0
-11.61,6.26,-1.82,903,-249,8140,-1,-1,0
-11.61,6.26,-1.82,895,-255,8145,-1,0,0
-11.61,6.26,-1.83,889,-264,8148,-1,0,0
-11.62,6.26,-1.83,896,-276,8155,-1,0,-1
-11.62,6.26,-1.83,894,-274,8146,0,-1,0
-11.62,6.26,-1.83,893,-272,8145,0,-1,-1
-11.62,6.26,-1.83,897,-263,8147,0,0,-1
-11.61,6.26,-1.82,899,-244,8148,0,0,-1
-11.61,6.26,-1.82,900,-246,8150,0,0,-1
-11.61,6.25,-1.82,888,-248,8151,-1,0,0
-11.61,6.25,-1.83,888,-263,8150,-1,0,0
-11.61,6.25,-1.83,895,-274,8148,0,0,0
-11.61,6.25,-1.83,895,-279,8153,0,0,-1
-11.61,6.25,-1.83,901,-269,8149,0,0,-1
-11.61,6.25,-1.82,895,-261,8140,0,0,0
-11.61,6.24,-1.82,899,-250,8147,-1,0,0
-11.61,6.24,-1.82,894,-258,8152,-1,0,0
-11.61,6.24,-1.83,898,-261,8154,-1,0,0
-11.61,6.24,-1.83,895,-259,8142,-1,0,0
-11.61,6.24,-1.83,902,-256,8138,-1,0,0
-11.61,6.24,-1.83,902,-260,8142,0,0,0
-11.61,6.24,-1.83,896,-262,8149,-1,0,0
-11.61,6.24,-1.83,895,-266,8133,0,0,-1
-11.61,6.24,-1.83,891,-261,8138,0,0,-1
-11.61,6.24,-1.83,890,-257,8146,-1,0,0
-11.61,6.24,-1.82,893,-249,8148,-1,0,0
-11.61,6.24,-1.83,894,-258,8144,-1,0,0
-11.61,6.24,-1.83,896,-264,8150,0,0,-1
-11.61,6.24,-1.83,889,-262,8143,0,0,-1
-11.61,6.24,-1.82,888,-258,8148,0,0,-1
-11.61,6.24,-1.82,899,-252,8146,0,0,0
-11.61,6.24,-1.82,891,-244,8143,0,0,0
-11.61,6.23,-1.82,885,-251,8150,-1,0,0
-11.61,6.24,-1.82,893,-254,8155,-1,0,0
-11.62,6.24,-1.83,894,-260,8149,-1,-1,0
-11.62,6.24,-1.83,898,-266,8146,0,0,0
-11.62,6.24,-1.83,896,-258,8154,0,0,0
-11.61,6.24,-1.82,898,-254,8150,-1,0,-1
-11.61,6.24,-1.82,900,-249,8136,-1,0,0
-11.62,6.23,-1.82,890,-250,8137,-1,0,0
-11.62,6.23,-1.83,887,-259,8134,-1,0,0
-11.61,6.23,-1.83,887,-266,8136,0,0,-1
-11.61,6.23,-1.82,901,-262,8136,0,0,-1
-11.61,6.23,-1.82,902,-257,8146,0,0,0
-11.61,6.23,-1.82,905,-254,8144,0,0,0
-11.61,6.23,-1.82,892,-261,8142,0,0,-1
-11.61,6.23,-1.82,891,-256,8147,0,0,-1
-11.61,6.23,-1.82,895,-261,8151,0,0,-1
-11.61,6.22,-1.82,893,-260,8148,-1,-1,-1
-11.61,6.23,-1.82,900,-257,8148,0,-1,0
-11.61,6.23,-1.82,907,-253,8146,-1,0,0
-11.61,6.23,-1.82,908,-251,8148,-1,0,-1
-11.61,6.23,-1.82,905,-259,8151,-1,0,-1
-11.61,6.23,-1.82,899,-267,8149,0,0,0
-11.61,6.23,-1.82,894,-261,8144,0,0,-1
-11.61,6.23,-1.82,898,-250,8152,-1,0,0
-11.61,6.23,-1.82,898,-247,8145,-1,-1,0
-11.61,6.23,-1.82,899,-258,8151,-1,0,-1
-11.61,6.23,-1.83,895,-258,8153,-1,0,0
-11.61,6.23,-1.83,901,-258,8154,0,0,0
-11.61,6.23,-1.83,899,-264,8149,0,-1,-1
-11.61,6.23,-1.82,900,-252,8146,0,-1,0
-11.61,6.24,-1.82,901,-246,8142,0,0,0
-11.61,6.24,-1.81,904,-247,8139,0,0,0
-11.61,6.23,-1.81,901,-240,8140,-1,0,0
-11.61,6.23,-1.82,897,-249,8148,-1,0,0
-11.61,6.23,-1.82,884,-261,8149,-1,0,0
-11.61,6.22,-1.82,886,-269,8153,0,0,0
-11.61,6.22,-1.82,889,-270,8152,0,0,-1
-11.61,6.22,-1.81,893,-255,8144,0,0,0
-11.61,6.22,-1.81,896,-258,8136,0,0,0
-11.62,6.22,-1.81,897,-260,8137,-1,0,0
-11.62,6.22,-1.82,895,-261,8155,-1,-1,0
-11.62,6.22,-1.82,901,-262,8149,0,0,0
-11.62,6.22,-1.82,889,-253,8146,-1,0,-1
-11.62,6.22,-1.82,893,-254,8147,-1,-1,0
-11.62,6.22,-1.82,899,-255,8155,-1,-1,0
-11.62,6.22,-1.82,900,-262,8154,-1,0,-1
-11.62,6.23,-1.82,907,-274,8148,0,0,0
-11.62,6.22,-1.82,901,-265,8145,0,0,-1
-11.62,6.22,-1.82,900,-249,8139,0,0,-1
-11.62,6.22,-1.81,912,-244,8147,-1,0,0
-11.62,6.23,-1.81,906,-251,8149,-1,-1,0
-11.62,6.23,-1.82,897,-261,8145,0,0,-1
-11.62,6.23,-1.82,897,-255,8142,0,0,0
-11.62,6.22,-1.81,897,-272,8138,0,0,-1
-11.61,6.23,-1.80,903,-246,8143,0,-1,-1
-11.62,6.23,-1.79,907,-235,8149,0,0,-1
-11.62,6.23,-1.79,895,-237,8143,0,-1,0
-11.62,6.23,-1.79,894,-239,8140,-1,-1,0
-11.62,6.23,-1.79,889,-254,8136,0,0,-1
-11.62,6.23,-1.79,890,-265,8142,0,0,0
-11.62,6.23,-1.79,897,-261,8146,0,0,0
-11.62,6.23,-1.79,900,-258,8138,0,0,-1
-11.62,6.23,-1.78,903,-246,8147,-1,0,0
-11.62,6.23,-1.78,904,-243,8141,-1,0,0
-11.62,6.23,-1.79,899,-260,8136,-1,0,0
-11.62,6.23,-1.79,900,-263,8138,0,-1,0
-11.62,6.23,-1.79,895,-264,8132,0,0,-1
-11.62,6.23,-1.79,891,-255,8144,0,0,0
-11.62,6.23,-1.78,892,-251,8138,0,0,-1
-11.62,6.23,-1.78,888,-251,8145,0,0,0
-11.62,6.22,-1.78,892,-251,8148,0,0,-1
-11.62,6.23,-1.78,898,-252,8148,0,0,0
-11.62,6.22,-1.77,892,-249,8155,0,0,0
-11.62,6.22,-1.78,898,-249,8143,-1,0,0
-11.62,6.22,-1.78,896,-254,8140,0,0,0
-11.62,6.22,-1.78,897,-255,8137,-1,0,0
-11.62,6.22,-1.78,899,-262,8136,0,0,0
-11.62,6.22,-1.78,898,-256,8134,0,0,-1
-11.62,6.22,-1.78,900,-254,8144,0,0,0
-11.62,6.22,-1.78,901,-252,8150,-1,0,-1
-11.62,6.21,-1.78,903,-251,8156,-1,0,0
-11.62,6.20,-1.79,893,-249,8156,-1,0,0
-11.61,6.20,-1.79,893,-258,8143,-1,0,-1
-11.61,6.20,-1.79,890,-268,8155,0,-1,0
-11.61,6.20,-1.79,891,-268,8157,0,-1,0
-11.62,6.20,-1.79,901,-253,8139,0,0,-1
-11.61,6.20,-1.79,901,-245,8138,-1,0,-1
-11.61,6.20,-1.79,899,-245,8147,-1,0,-1
-11.61,6.19,-1.79,889,-253,8147,-1,0,-1
-11.61,6.19,-1.79,897,-260,8150,0,0,0
-11.61,6.19,-1.79,897,-260,8150,0,0,-1
-11.61,6.19,-1.79,882,-259,8142,-1,0,0
-11.61,6.18,-1.80,885,-260,8144,0,0,0
-11.61,6.18,-1.79,896,-256,8139,0,0,-1
-11.61,6.18,-1.79,899,-252,8138,0,0,-1
-11.61,6.18,-1.79,892,-251,8134,-1,0,-1
-11.60,6.17,-1.80,895,-260,8140,-1,0,0
-11.60,6.16,-1.80,877,-253,8150,-1,0,0
-11.61,6.16,-1.80,879,-258,8152,-1,0,0
-11.61,6.16,-1.80,877,-257,8159,-1,-1,0
-11.61,6.16,-1.81,884,-264,8150,-1,0,0
-11.60,6.16,-1.82,890,-269,8144,-1,0,0
-11.60,6.16,-1.82,884,-268,8141,0,0,-1
-11.60,6.15,-1.82,891,-261,8143,-1,0,-1
-11.60,6.15,-1.81,890,-256,8145,-1,0,0
-11.60,6.15,-1.81,888,-255,8150,-1,0,-1
-11.60,6.14,-1.82,884,-263,8146,-1,0,0
-11.60,6.14,-1.82,881,-265,8137,0,0,-1
-11.60,6.14,-1.82,886,-257,8144,0,-1,-1
-11.60,6.14,-1.81,889,-244,8154,-1,0,0
-11.60,6.14,-1.81,885,-247,8160,-1,0,-1
-11.60,6.14,-1.82,884,-266,8156,-1,0,0
-11.60,6.14,-1.83,879,-269,8161,0,-1,0
-11.60,6.14,-1.82,882,-268,8151,0,-1,0
-11.60,6.14,-1.82,879,-263,8146,0,-1,0
-11.60,6.14,-1.82,887,-255,8147,-1,-1,-1
-11.60,6.14,-1.82,893,-250,8141,0,0,0
-11.60,6.14,-1.82,889,-247,8153,-1,-1,0
-11.60,6.14,-1.82,889,-252,8155,-1,-1,0
-11.60,6.15,-1.83,887,-258,8151,-1,0,0
-11.60,6.15,-1.83,884,-254,8155,-1,-1,0
-11.60,6.15,-1.83,883,-258,8156,0,-1,0
-11.60,6.16,-1.82,890,-257,8158,0,-1,0
-11.60,6.16,-1.82,891,-254,8152,0,-1,0
-11.60,6.17,-1.82,894,-250,8149,-1,-1,0
-11.61,6.17,-1.82,895,-243,8161,-1,-1,0
-11.61,6.17,-1.82,893,-251,8154,0,0,0
-11.61,6.17,-1.82,891,-250,8145,0,-1,0
-11.61,6.17,-1.82,898,-254,8149,0,-1,0
-11.61,6.18,-1.82,901,-253,8143,-1,0,0
-11.61,6.18,-1.82,897,-251,8151,-1,0,0
-11.61,6.18,-1.82,891,-248,8145,0,-1,0
-11.61,6.18,-1.82,895,-247,8151,-1,-1,0
-11.61,6.19,-1.83,891,-254,8149,-1,-1,0
-11.61,6.19,-1.83,894,-264,8139,-1,-1,0
-11.61,6.19,-1.83,897,-269,8146,0,-1,-1
-11.61,6.19,-1.83,904,-264,8140,0,0,-1
-11.61,6.19,-1.82,900,-251,8144,0,0,-1
-11.61,6.20,-1.81,892,-246,8155,-1,0,-1
-11.61,6.19,-1.82,888,-254,8146,-1,0,0
-11.61,6.19,-1.82,887,-256,8144,-1,-1,0
-11.61,6.19,-1.82,886,-256,8145,0,-1,-1
-11.61,6.19,-1.82,891,-258,8150,0,-1,0
-11.61,6.19,-1.82,896,-246,8144,0,0,0
-11.61,6.20,-1.81,900,-244,8150,0,-1,0
-11.61,6.20,-1.81,897,-253,8153,-1,-1,0
-11.61,6.20,-1.81,896,-250,8148,-1,0,0
-11.61,6.20,-1.81,892,-251,8149,-1,-1,0
-11.61,6.20,-1.81,895,-253,8143,-1,-1,0
-11.61,6.20,-1.82,895,-258,8149,-1,-1,0
-11.61,6.20,-1.82,894,-253,8153,0,0,0
-11.61,6.20,-1.82,895,-263,8150,0,0,-1
-11.61,6.20,-1.82,895,-263,8150,0,0,0
-11.61,6.20,-1.81,899,-256,8149,0,0,-1
-11.61,6.20,-1.82,905,-253,8159,-1,0,0
-11.61,6.20,-1.82,903,-258,8157,-1,0,0
-11.61,6.20,-1.82,904,-263,8163,-1,0,-1
-11.61,6.20,-1.82,898,-263,8154,0,-1,0
-11.61,6.21,-1.82,901,-256,8147,0,-1,-1
-11.61,6.21,-1.81,900,-250,8144,0,0,0
-11.61,6.21,-1.81,895,-252,8139,-1,0,0
-11.61,6.21,-1.82,891,-263,8141,-1,0,0
-11.61,6.21,-1.82,896,-263,8151,0,-1,0
-11.61,6.21,-1.81,895,-257,8147,0,0,-1
-11.61,6.21,-1.81,890,-257,8153,-1,-1,0
-11.61,6.21,-1.82,895,-247,8143,-1,-1,-1
-11.61,6.21,-1.83,897,-247,8137,-1,0,0
-11.61,6.21,-1.84,897,-263,8149,-1,-1,0
-11.61,6.21,-1.85,896,-285,8144,-1,-1,0
-11.61,6.22,-1.85,907,-296,8127,0,0,0
-11.61,6.22,-1.84,909,-279,8132,0,0,-1
-11.61,6.21,-1.84,893,-259,8150,0,0,-1
-11.61,6.20,-1.83,881,-254,8159,0,0,0
-11.61,6.21,-1.84,880,-260,8167,0,-1,0
-11.61,6.21,-1.83,881,-245,8151,0,-1,0
-11.61,6.21,-1.83,896,-244,8148,-1,-1,0
-11.61,6.21,-1.83,902,-252,8151,-1,0,0
-11.61,6.21,-1.83,899,-256,8148,-1,0,0
-11.61,6.21,-1.83,895,-255,8154,0,0,0
-11.61,6.21,-1.83,891,-257,8158,-1,0,-1
-11.61,6.21,-1.83,894,-256,8153,-1,-1,0
-11.62,6.21,-1.83,901,-269,8153,0,-1,0
-11.62,6.21,-1.83,905,-264,8148,0,-1,-1
-11.61,6.22,-1.82,909,-260,8144,0,0,-1
-11.61,6.22,-1.82,916,-246,8140,0,0,0
-11.61,6.22,-1.82,916,-244,8141,-1,0,-1
-11.61,6.22,-1.82,897,-250,8140,-1,0,0
-11.61,6.21,-1.83,891,-262,8155,-1,-1,0
-11.61,6.21,-1.83,892,-263,8147,0,0,-1
-11.61,6.22,-1.82,895,-252,8149,0,0,0
-11.61,6.22,-1.82,896,-251,8136,0,-1,0
-11.61,6.22,-1.82,903,-248,8146,0,0,0
-11.61,6.22,-1.82,907,-245,8147,-1,0,-1
-11.61,6.22,-1.82,898,-249,8150,-1,0,0
-11.61,6.22,-1.82,898,-254,8151,0,0,0
-11.61,6.22,-1.82,893,-249,8145,0,-1,0
-11.61,6.22,-1.82,897,-261,8152,-1,-1,0
-11.61,6.22,-1.82,893,-266,8147,-1,-1,-1
-11.61,6.22,-1.82,897,-265,8143,-1,0,0
-11.62,6.22,-1.82,893,-270,8138,0,0,0
-11.62,6.22,-1.82,897,-258,8137,0,0,0
-11.61,6.22,-1.82,897,-254,8149,0,0,-1
-11.61,6.22,-1.82,897,-251,8148,-1,0,0
-11.61,6.22,-1.82,897,-258,8141,-1,0,0
-11.61,6.22,-1.83,893,-262,8145,-1,0,0
-11.61,6.21,-1.83,890,-271,8137,0,0,-1
-11.61,6.21,-1.83,896,-262,8141,0,0,0
-11.61,6.22,-1.82,900,-250,8143,0,0,0
-11.61,6.22,-1.82,902,-242,8134,-1,0,0
-11.61,6.21,-1.83,902,-254,8139,-1,0,0
-11.62,6.21,-1.84,893,-264,8129,-1,0,0
-11.62,6.21,-1.84,896,-269,8142,-1,-1,-1
-11.62,6.22,-1.84,906,-270,8131,0,0,-1
-11.61,6.21,-1.83,897,-243,8135,0,0,-1
-11.61,6.21,-1.83,898,-246,8137,-1,0,0
-11.61,6.21,-1.84,904,-253,8149,0,0,-1
-11.61,6.21,-1.84,898,-265,8152,-1,-1,0
-11.62,6.21,-1.84,897,-280,8133,-1,0,0
-11.61,6.21,-1.84,905,-282,8129,0,0,-1
-11.61,6.21,-1.83,901,-267,8141,0,0,-1
-11.61,6.20,-1.83,896,-257,8147,0,0,0
-11.62,6.20,-1.82,894,-254,8155,0,0,0
-11.62,6.20,-1.82,885,-246,8148,0,0,0
-11.62,6.20,-1.82,892,-249,8140,-1,0,0
-11.62,6.19,-1.82,895,-249,8151,-1,0,0
-11.62,6.19,-1.82,893,-261,8144,-1,0,0
-11.62,6.19,-1.82,894,-257,8140,0,0,0
-11.62,6.19,-1.82,900,-263,8138,0,0,0
-11.62,6.19,-1.82,897,-255,8149,-1,0,0
-11.62,6.19,-1.82,897,-263,8148,0,0,0
-11.62,6.19,-1.82,893,-263,8144,0,0,-1
-11.62,6.19,-1.81,900,-258,8147,0,0,-1
-11.62,6.19,-1.81,905,-244,8140,-1,0,0
-11.62,6.18,-1.81,911,-246,8141,-1,0,-1
-11.62,6.18,-1.82,896,-253,8139,-1,0,0
-11.62,6.17,-1.83,890,-257,8147,-1,0,0
-11.61,6.17,-1.82,887,-255,8150,0,0,-1
-11.61,6.17,-1.82,887,-258,8153,0,0,0
-11.61,6.17,-1.82,888,-264,8147,0,-1,0
-11.61,6.17,-1.81,896,-254,8138,0,0,-1
-11.61,6.18,-1.81,900,-246,8138,0,0,0
-11.61,6.17,-1.81,904,-248,8131,-1,0,-1
-11.61,6.17,-1.81,901,-250,8147,0,0,-1
-11.61,6.17,-1.81,892,-251,8157,-1,0,0
-11.61,6.17,-1.82,885,-259,8161,-1,-1,0
-11.61,6.17,-1.82,887,-262,8151,0,0,0
-11.61,6.17,-1.82,890,-258,8144,0,0,0
-11.61,6.17,-1.81,894,-256,8141,0,0,0
-11.61,6.17,-1.81,895,-245,8135,0,0,0
-11.61,6.16,-1.81,892,-249,8146,-1,0,0
-11.62,6.16,-1.81,890,-256,8138,-1,0,0
-11.62,6.15,-1.82,881,-254,8137,-1,0,0
-11.62,6.14,-1.82,884,-258,8137,-1,0,0
-11.62,6.14,-1.83,882,-266,8139,-1,0,0
-11.62,6.14,-1.83,892,-263,8143,-1,0,0
-11.62,6.14,-1.83,897,-260,8141,0,0,0
-11.63,6.14,-1.83,896,-255,8144,-1,0,0
-11.63,6.13,-1.83,896,-251,8149,-1,0,0
-11.63,6.13,-1.84,889,-260,8149,-1,0,0
-11.63,6.12,-1.84,886,-267,8157,0,0,0
-11.62,6.12,-1.83,876,-265,8161,0,0,-1
-11.62,6.12,-1.83,876,-264,8157,0,0,0
-11.62,6.12,-1.83,883,-260,8154,0,0,0
-11.62,6.11,-1.83,882,-255,8157,0,0,0
-11.62,6.11,-1.83,883,-248,8153,-1,0,0
-11.62,6.10,-1.83,885,-254,8148,-1,0,0
-11.62,6.09,-1.83,878,-255,8150,-1,0,0
-11.62,6.09,-1.84,875,-267,8147,-1,0,0
-11.62,6.09,-1.85,872,-270,8151,-1,0,0
-11.62,6.09,-1.85,877,-266,8147,-1,0,0
-11.62,6.08,-1.84,874,-265,8139,-1,0,0
-11.62,6.08,-1.85,875,-268,8142,-1,0,0
-11.62,6.07,-1.85,871,-271,8148,-1,0,0
-11.62,6.06,-1.85,872,-268,8152,-1,0,0
-11.62,6.06,-1.85,871,-262,8157,-1,0,-1
-11.62,6.05,-1.86,870,-255,8154,-1,0,0
-11.62,6.04,-1.85,864,-260,8157,-1,0,0
-11.62,6.04,-1.85,858,-264,8141,0,0,0
-11.62,6.03,-1.85,862,-264,8138,0,0,-1
-11.62,6.02,-1.85,865,-250,8151,-1,0,0
-11.62,6.02,-1.85,858,-256,8156,-1,0,-1
-11.62,6.01,-1.85,857,-257,8143,-1,0,0
-11.62,6.01,-1.86,861,-265,8142,-1,0,0
-11.62,6.01,-1.86,854,-265,8133,0,0,-1
-11.62,6.01,-1.85,849,-257,8138,0,0,-1
-11.62,6.01,-1.85,860,-255,8145,-1,0,-1
-11.62,6.01,-1.85,865,-250,8153,-1,0,-1
-11.61,6.01,-1.85,859,-256,8146,-1,0,-1
-11.61,6.00,-1.84,861,-257,8153,-1,0,-1
-11.61,6.00,-1.84,855,-262,8146,0,-1,-1
-11.60,6.00,-1.84,852,-267,8156,0,-1,-1
-11.60,6.01,-1.84,866,-271,8149,0,-1,-1
-11.60,6.02,-1.84,875,-274,8148,0,-1,-1
-11.60,6.02,-1.84,873,-273,8136,0,-1,-1
-11.60,6.03,-1.83,876,-257,8142,0,-1,-1
-11.60,6.03,-1.83,872,-254,8152,0,-1,-1
-11.60,6.04,-1.82,869,-251,8158,0,-1,-1
-11.60,6.04,-1.82,868,-254,8163,0,-1,-1
-11.60,6.05,-1.83,866,-259,8157,0,-1,0
-11.60,6.05,-1.83,864,-260,8156,0,-1,0
-11.60,6.06,-1.83,861,-263,8149,0,-1,0
-11.60,6.07,-1.82,865,-253,8155,0,-1,-1
-11.60,6.07,-1.82,869,-259,8148,0,-1,-1
-11.60,6.07,-1.82,868,-260,8139,0,-1,-1
-11.60,6.07,-1.82,868,-258,8144,-1,-1,0
-11.60,6.08,-1.82,863,-256,8145,0,-1,0
-11.60,6.10,-1.82,869,-264,8129,-1,-1,0
-11.60,6.10,-1.83,870,-266,8126,-1,-1,0
-11.60,6.10,-1.83,873,-271,8140,-1,-1,0
-11.60,6.11,-1.83,877,-270,8153,0,-1,-1
-11.60,6.12,-1.83,869,-252,8150,0,-1,-1
-11.60,6.12,-1.83,869,-246,8157,-1,-1,0
-11.60,6.12,-1.83,875,-252,8155,0,-1,-1
-11.60,6.12,-1.83,873,-258,8152,0,-1,0
-11.60,6.13,-1.83,873,-266,8144,0,-1,-1
-11.60,6.14,-1.82,879,-268,8143,0,-1,-1
-11.60,6.15,-1.81,882,-257,8134,0,-1,-1
-11.60,6.15,-1.81,884,-252,8145,0,-1,0
-11.60,6.15,-1.81,882,-251,8145,0,-1,0
-11.61,6.16,-1.81,880,-252,8143,-1,-1,0
-11.61,6.16,-1.81,875,-257,8142,-1,-1,0
-11.61,6.17,-1.81,877,-264,8150,-1,-1,0
-11.61,6.17,-1.81,877,-264,8148,0,-1,0
-11.61,6.18,-1.81,881,-263,8141,0,-1,-1
-11.61,6.19,-1.81,884,-263,8136,-1,-1,-1
-11.61,6.19,-1.81,884,-261,8141,-1,-1,-1
-11.61,6.19,-1.82,878,-257,8138,-1,-1,0
-11.61,6.19,-1.82,884,-263,8142,-1,-1,-1
-11.61,6.20,-1.82,891,-267,8149,0,-1,0
-11.61,6.20,-1.82,893,-259,8143,0,-1,0
-11.61,6.21,-1.81,891,-253,8145,0,-1,0
-11.61,6.21,-1.81,889,-246,8149,0,-1,0
-11.61,6.22,-1.81,892,-254,8164,0,-1,-1
-11.61,6.22,-1.81,890,-256,8152,0,-1,0
-11.61,6.22,-1.80,887,-249,8150,0,-1,0
-11.61,6.22,-1.80,886,-246,8140,-1,-1,0
-11.61,6.23,-1.80,886,-251,8137,-1,-1,0
-11.61,6.23,-1.80,892,-247,8132,0,-1,-1
-11.61,6.24,-1.80,885,-243,8140,-1,-1,-1
-11.61,6.24,-1.80,883,-252,8147,-1,-1,0
-11.61,6.25,-1.80,888,-266,8143,-1,-1,0
-11.61,6.24,-1.81,891,-269,8142,0,-1,0
-11.61,6.25,-1.81,898,-269,8141,0,-1,-1
-11.61,6.25,-1.80,892,-254,8137,0,0,-1
-11.61,6.25,-1.79,888,-241,8145,0,0,-1
-11.61,6.25,-1.79,887,-241,8146,-1,-1,0
-11.61,6.25,-1.80,880,-251,8140,-1,-1,-1
-11.61,6.25,-1.80,884,-264,8145,-1,-1,0
-11.61,6.25,-1.80,891,-265,8141,-1,-1,0
-11.61,6.26,-1.81,890,-265,8153,0,-1,0
-11.61,6.26,-1.80,891,-263,8149,0,-1,0
-11.61,6.26,-1.80,894,-262,8143,0,0,-1
-11.61,6.26,-1.80,896,-259,8145,0,-1,0
-11.61,6.26,-1.80,890,-254,8136,0,-1,0
-11.61,6.26,-1.80,888,-252,8131,0,-1,0
-11.61,6.27,-1.80,890,-247,8141,-1,-1,0
-11.61,6.27,-1.80,893,-256,8141,-1,-1,0
-11.61,6.27,-1.80,896,-256,8150,-1,0,0
-11.61,6.27,-1.80,891,-256,8144,0,0,0
-11.61,6.27,-1.80,898,-257,8134,0,0,0
-11.61,6.26,-1.79,894,-251,8148,0,0,0
-11.61,6.26,-1.79,890,-241,8155,-1,-1,0
-11.62,6.27,-1.81,902,-255,8142,-1,0,0
-11.62,6.27,-1.81,895,-269,8146,0,0,0
-11.62,6.27,-1.81,891,-273,8153,-1,-1,0
-11.62,6.27,-1.81,895,-268,8147,0,-1,0
-11.62,6.27,-1.81,904,-271,8131,0,0,-1
-11.62,6.27,-1.81,890,-263,8153,-1,-1,-1
-11.62,6.27,-1.81,902,-268,8151,0,-1,-1
-11.61,6.27,-1.80,901,-258,8149,0,0,-1
-11.61,6.27,-1.79,895,-247,8160,0,-1,-1
-11.62,6.27,-1.79,895,-242,8155,-1,-1,0
-11.61,6.28,-1.79,898,-248,8143,-1,-1,0
-11.62,6.28,-1.79,898,-256,8147,0,-1,0
-11.62,6.28,-1.79,903,-254,8147,0,0,-1
-11.61,6.28,-1.79,897,-256,8144,0,0,0
-11.61,6.28,-1.79,893,-245,8150,-1,0,0
-11.62,6.27,-1.79,892,-248,8151,0,-1,0
-11.62,6.27,-1.79,895,-249,8146,0,-1,0
-11.62,6.28,-1.79,893,-251,8139,0,0,-1
-11.62,6.28,-1.79,895,-262,8139,0,0,0
-11.62,6.27,-1.79,897,-254,8153,-1,0,0
-11.62,6.27,-1.79,895,-264,8155,0,0,-1
-11.62,6.27,-1.79,891,-256,8142,0,0,-1
-11.62,6.27,-1.79,895,-251,8152,0,0,-1
-11.62,6.27,-1.79,899,-259,8153,0,0,-1
-11.62,6.27,-1.79,901,-261,8146,0,-1,-1
-11.62,6.27,-1.79,896,-259,8150,0,0,0
-11.62,6.27,-1.79,900,-261,8154,0,0,-1
-11.62,6.27,-1.79,899,-264,8150,-1,0,0
-11.62,6.27,-1.79,899,-265,8143,0,0,0
-11.62,6.27,-1.79,896,-257,8144,0,-1,-1
-11.62,6.27,-1.79,896,-248,8142,0,0,0
-11.62,6.27,-1.79,897,-240,8140,-1,0,-1
-11.61,6.27,-1.79,891,-247,8141,-1,0,0
-11.61,6.26,-1.80,887,-256,8154,-1,0,-1
-11.61,6.26,-1.80,884,-257,8157,-1,0,0
-11.61,6.25,-1.81,883,-262,8148,-1,0,0
-11.61,6.25,-1.81,882,-268,8152,0,-1,-1
-11.61,6.26,-1.81,896,-278,8141,0,0,0
-11.61,6.25,-1.80,905,-259,8134,0,0,-1
-11.61,6.25,-1.79,913,-244,8140,0,0,-1
-11.61,6.25,-1.79,906,-234,8143,-1,0,0
-11.62,6.24,-1.79,877,-233,8152,-1,-1,0
-11.61,6.24,-1.81,888,-268,8147,-1,-1,-1
-11.61,6.24,-1.81,894,-283,8139,0,0,-1
-11.61,6.24,-1.80,881,-277,8138,0,0,-1
-11.61,6.24,-1.80,882,-250,8139,0,0,0
-11.62,6.23,-1.79,899,-229,8153,-1,0,0
-11.62,6.23,-1.79,895,-214,8162,-1,0,0
-11.62,6.22,-1.80,875,-223,8168,-1,-1,0
-11.62,6.22,-1.82,886,-261,8148,-1,-1,0
-11.62,6.22,-1.82,882,-288,8132,0,0,-1
-11.62,6.22,-1.82,883,-288,8149,0,0,-1
-11.62,6.22,-1.82,887,-276,8151,0,0,0
-11.62,6.22,-1.81,894,-266,8152,0,0,0
-11.62,6.22,-1.81,895,-256,8151,0,0,-1
-11.62,6.22,-1.81,898,-246,8149,-1,0,0
-11.62,6.22,-1.81,895,-253,8148,-1,0,0
-11.62,6.22,-1.82,892,-257,8144,-1,0,0
-11.62,6.21,-1.82,898,-271,8155,-1,-1,0
-11.62,6.21,-1.82,895,-271,8156,0,0,-1
-11.62,6.21,-1.82,891,-271,8153,0,0,-1
-11.62,6.21,-1.82,884,-260,8138,0,0,0
-11.62,6.20,-1.81,884,-244,8136,0,0,0
-11.63,6.20,-1.81,884,-241,8149,-1,0,0
-11.63,6.19,-1.81,885,-247,8156,-1,0,0
-11.63,6.19,-1.82,879,-262,8146,-1,0,0
-11.63,6.18,-1.83,874,-278,8148,-1,0,0
-11.63,6.17,-1.83,874,-278,8143,0,0,-1
-11.63,6.17,-1.82,880,-267,8148,0,0,0
-11.63,6.17,-1.82,882,-257,8137,-1,0,0
-11.63,6.16,-1.82,882,-248,8141,-1,0,0
-11.63,6.15,-1.82,872,-243,8141,-1,0,0
-11.63,6.14,-1.82,873,-249,8153,-1,0,0
-11.63,6.14,-1.83,869,-256,8144,-1,0,0
-11.63,6.13,-1.82,871,-260,8145,0,0,-1
-11.62,6.12,-1.82,870,-261,8143,0,0,-1
-11.62,6.12,-1.82,874,-263,8148,0,0,-1
-11.61,6.12,-1.82,875,-260,8143,0,0,-1
-11.61,6.12,-1.81,874,-259,8143,0,0,-1
-11.61,6.11,-1.80,868,-252,8144,0,0,0
-11.61,6.11,-1.81,866,-252,8148,-1,0,-1
-11.61,6.11,-1.81,863,-253,8147,-1,-1,-1
-11.62,6.11,-1.81,879,-248,8140,0,0,0
-11.62,6.10,-1.80,848,-237,8154,-1,-1,0
-11.62,6.10,-1.82,851,-253,8145,-1,-1,0
-11.62,6.10,-1.83,863,-276,8142,0,0,0
-11.61,6.10,-1.82,843,-274,8164,0,-1,-1
-11.61,6.11,-1.82,873,-287,8148,0,-1,-1
-11.61,6.12,-1.81,883,-293,8133,0,0,-1
-11.61,6.11,-1.79,865,-260,8148,0,-1,-1
-11.61,6.11,-1.78,866,-233,8158,0,-1,0
-11.61,6.12,-1.78,867,-215,8157,-1,-1,0
-11.61,6.13,-1.78,866,-227,8161,-1,-1,0
-11.61,6.13,-1.79,860,-251,8143,-1,-1,0
-11.61,6.13,-1.80,857,-266,8138,-1,-1,0
-11.61,6.14,-1.80,865,-273,8153,0,-1,0
-11.61,6.15,-1.79,878,-268,8145,0,-1,-1
-11.61,6.16,-1.79,885,-259,8143,0,-1,0
-11.61,6.16,-1.78,887,-248,8140,0,0,-1
-11.61,6.16,-1.78,875,-244,8139,-1,0,-1
-11.61,6.16,-1.78,883,-251,8141,0,-1,0
-11.62,6.16,-1.78,878,-246,8165,-1,-1,0
-11.62,6.16,-1.79,878,-253,8160,-1,-1,0
-11.62,6.17,-1.79,875,-266,8141,0,-1,-1
-11.62,6.17,-1.78,883,-267,8131,0,0,-1
-11.62,6.17,-1.78,880,-254,8146,0,0,0
-11.62,6.17,-1.77,873,-233,8158,0,-1,0
-11.62,6.17,-1.78,874,-237,8153,-1,-1,-1
-11.62,6.18,-1.78,872,-247,8149,-1,-1,-1
-11.62,6.18,-1.78,869,-256,8150,0,-1,-1
-11.62,6.18,-1.78,877,-255,8153,0,-1,0
-11.62,6.19,-1.78,888,-259,8159,-1,-1,0
-11.62,6.20,-1.79,895,-271,8156,0,0,-1
-11.62,6.19,-1.78,889,-272,8147,0,0,-1
-11.62,6.19,-1.78,882,-262,8146,0,0,-1
-11.62,6.19,-1.78,881,-255,8156,0,-1,-1
-11.61,6.20,-1.78,891,-258,8153,-1,-1,0
-11.62,6.20,-1.79,883,-264,8148,0,-1,0
-11.61,6.20,-1.79,889,-268,8148,0,-1,0
-11.61,6.21,-1.78,895,-270,8141,0,-1,-1
-11.61,6.21,-1.77,886,-263,8141,0,-1,-1
-11.61,6.21,-1.77,884,-251,8154,0,-1,0
-11.61,6.22,-1.76,891,-243,8150,0,-1,-1
-11.60,6.22,-1.75,891,-238,8153,0,-1,-1
-11.60,6.23,-1.76,888,-250,8153,-1,-1,0
-11.60,6.23,-1.76,885,-248,8144,0,-1,0
-11.61,6.24,-1.76,886,-249,8142,0,-1,0
-11.60,6.24,-1.75,885,-253,8143,0,-1,-1
-11.60,6.24,-1.75,886,-250,8143,-1,-1,0
-11.60,6.24,-1.75,882,-251,8148,0,-1,0
-11.60,6.24,-1.75,890,-244,8137,-1,-1,0
-11.61,6.24,-1.77,883,-253,8137,-1,0,0
-11.61,6.24,-1.77,885,-259,8149,0,-1,-1
-11.60,6.25,-1.77,887,-256,8140,0,0,-1
-11.60,6.24,-1.76,884,-256,8136,0,-1,-1
-11.60,6.25,-1.76,888,-252,8148,0,-1,-1
-11.60,6.25,-1.75,901,-248,8140,0,-1,-1
-11.60,6.25,-1.75,900,-245,8139,0,-1,0
-11.60,6.26,-1.75,898,-236,8143,-1,-1,0
-11.60,6.25,-1.75,888,-243,8142,-1,0,0
-11.60,6.25,-1.75,875,-255,8152,0,-1,0
-11.60,6.26,-1.76,882,-245,8146,0,-1,0
-11.60,6.26,-1.76,899,-226,8132,-1,0,0
-11.61,6.26,-1.77,892,-241,8127,-1,0,0
-11.61,6.25,-1.78,883,-261,8158,-1,-1,0
-11.61,6.26,-1.79,895,-276,8161,-1,-1,-1
-11.61,6.26,-1.79,889,-283,8149,0,-1,-1
-11.61,6.26,-1.78,890,-270,8144,0,-1,-1
-11.61,6.27,-1.78,897,-257,8142,0,-1,0
-11.61,6.27,-1.78,902,-255,8140,0,0,0
-11.61,6.27,-1.77,897,-240,8146,-1,0,-1
-11.61,6.26,-1.77,892,-234,8153,-1,0,-1
-11.61,6.26,-1.77,886,-238,8160,-1,-1,0
-11.61,6.26,-1.78,881,-252,8154,-1,-1,0
-11.61,6.27,-1.78,891,-263,8147,0,-1,-1
-11.61,6.26,-1.78,886,-262,8143,0,-1,0
-11.61,6.26,-1.78,882,-260,8143,0,-1,-1
-11.61,6.26,-1.77,891,-250,8145,0,0,-1
-11.61,6.26,-1.77,889,-239,8153,-1,-1,0
-11.61,6.26,-1.78,885,-243,8154,-1,-1,0
-11.61,6.26,-1.78,888,-256,8151,-1,-1,0
-11.61,6.27,-1.78,888,-262,8150,-1,-1,-1
-11.61,6.27,-1.79,900,-267,8152,-1,0,0
-11.61,6.27,-1.78,899,-259,8147,0,0,0
-11.61,6.27,-1.79,900,-260,8146,0,0,0
-11.61,6.27,-1.79,902,-258,8152,0,-1,0
-11.61,6.27,-1.78,902,-251,8155,0,-1,0
-11.61,6.27,-1.78,899,-243,8150,-1,0,0
-11.61,6.27,-1.78,899,-248,8154,-1,0,0
-11.61,6.27,-1.79,900,-251,8153,-1,0,0
-11.61,6.27,-1.79,890,-256,8153,0,-1,-1
-11.61,6.27,-1.78,887,-250,8149,0,-1,0
-11.61,6.27,-1.78,887,-250,8139,0,-1,-1
-11.61,6.27,-1.78,889,-250,8137,0,-1,0
-11.61,6.27,-1.77,887,-242,8143,0,0,0
-11.60,6.27,-1.77,886,-245,8143,-1,0,-1
-11.60,6.27,-1.77,891,-255,8149,0,-1,0
-11.61,6.27,-1.77,892,-259,8151,0,-1,0
-11.61,6.27,-1.77,893,-255,8144,0,-1,-1
-11.61,6.27,-1.77,890,-256,8139,0,0,-1
-11.61,6.27,-1.77,891,-247,8140,0,-1,0
-11.61,6.27,-1.77,894,-251,8157,-1,0,0
-11.61,6.27,-1.77,899,-249,8155,-1,0,-1
-11.61,6.27,-1.77,893,-243,8151,0,0,0
-11.61,6.27,-1.77,893,-251,8149,-1,-1,0
-11.61,6.27,-1.77,898,-249,8149,0,-1,0
-11.61,6.27,-1.77,892,-251,8148,0,-1,0
-11.61,6.27,-1.77,893,-248,8149,0,-1,0
-11.61,6.28,-1.77,890,-249,8148,0,-1,-1
-11.61,6.28,-1.77,898,-237,8143,-1,0,0
-11.61,6.28,-1.77,892,-252,8151,-1,-1,0
-11.61,6.27,-1.77,893,-261,8141,0,0,0
-11.61,6.28,-1.77,895,-262,8152,0,-1,-1
-11.61,6.28,-1.77,898,-249,8145,0,-1,-1
-11.61,6.28,-1.76,895,-239,8142,-1,-1,0
-11.61,6.28,-1.76,891,-240,8141,-1,0,0
-11.61,6.28,-1.77,885,-243,8145,-1,-1,0
-11.61,6.28,-1.77,887,-257,8146,-1,-1,0
-11.61,6.28,-1.77,901,-268,8152,0,-1,0
-11.61,6.28,-1.77,902,-268,8144,0,0,0
-11.61,6.28,-1.77,898,-255,8133,0,-1,-1
-11.61,6.28,-1.76,896,-247,8140,0,-1,-1
-11.61,6.28,-1.76,896,-243,8141,0,0,0
-11.61,6.28,-1.76,891,-239,8141,-1,0,-1
-11.61,6.28,-1.76,891,-243,8140,-1,0,-1
-11.61,6.28,-1.77,894,-248,8140,-1,-1,0
-11.61,6.28,-1.77,895,-258,8148,0,-1,0
-11.61,6.28,-1.76,892,-260,8150,0,0,-1
-11.61,6.28,-1.76,896,-259,8146,0,0,0
-11.61,6.28,-1.76,906,-254,8135,0,0,-1
-11.61,6.27,-1.75,901,-244,8145,0,0,-1
-11.61,6.27,-1.75,895,-244,8156,-1,0,0
-11.61,6.27,-1.76,895,-249,8151,-1,0,0
-11.61,6.27,-1.76,892,-250,8143,-1,-1,0
-11.61,6.28,-1.76,899,-252,8139,0,-1,-1
-11.61,6.28,-1.76,894,-256,8135,0,0,0
-11.61,6.27,-1.76,895,-261,8135,-1,0,0
-11.61,6.27,-1.76,893,-257,8127,0,0,0
-11.61,6.26,-1.76,886,-249,8137,0,0,-1
-11.61,6.26,-1.76,889,-234,8138,0,0,-1
-11.61,6.26,-1.76,891,-240,8143,-1,0,-1
-11.60,6.26,-1.76,884,-254,8137,-1,0,-1
-11.60,6.26,-1.76,889,-267,8132,0,-1,-1
-11.60,6.26,-1.76,892,-262,8136,0,0,0
-11.60,6.26,-1.76,892,-253,8138,0,0,0
-11.60,6.25,-1.75,895,-244,8142,0,0,-1
-11.60,6.25,-1.75,892,-233,8137,-1,0,-1
-11.60,6.25,-1.75,892,-246,8145,-1,0,0
-11.60,6.25,-1.76,891,-257,8138,-1,0,0
-11.60,6.25,-1.76,895,-259,8142,-1,0,-1
-11.60,6.24,-1.76,897,-257,8154,0,0,-1
-11.60,6.24,-1.76,898,-248,8151,0,0,-1
-11.60,6.24,-1.76,901,-244,8138,-1,0,-1
-11.60,6.24,-1.76,897,-244,8136,-1,0,0
-11.60,6.24,-1.76,895,-247,8147,-1,0,0
-11.60,6.23,-1.77,895,-253,8151,-1,0,0
-11.60,6.22,-1.77,893,-254,8149,0,0,-1
-11.60,6.21,-1.77,882,-255,8148,0,0,0
-11.60,6.21,-1.77,887,-260,8156,0,0,-1
-11.60,6.21,-1.76,892,-250,8158,0,0,0
-11.60,6.21,-1.76,889,-249,8152,-1,0,0
-11.60,6.20,-1.76,892,-253,8147,-1,0,0
-11.59,6.20,-1.77,883,-259,8156,-1,0,-1
-11.59,6.19,-1.77,881,-259,8154,0,0,0
-11.59,6.19,-1.77,873,-255,8141,0,0,-1
-11.59,6.19,-1.77,883,-253,8142,0,0,0
-11.59,6.19,-1.77,894,-260,8146,0,0,0
-11.59,6.18,-1.77,889,-254,8149,0,0,0
-11.59,6.18,-1.77,891,-245,8147,0,0,-1
-11.59,6.17,-1.77,883,-244,8144,0,0,-1
-11.59,6.16,-1.77,877,-247,8142,-1,0,-1
-11.59,6.16,-1.77,876,-256,8148,-1,0,-1
-11.59,6.15,-1.77,876,-263,8149,-1,0,0
-11.59,6.14,-1.78,872,-263,8160,0,0,-1
-11.59,6.14,-1.78,878,-261,8154,0,0,-1
-11.59,6.14,-1.77,886,-257,8151,0,0,-1
-11.59,6.13,-1.76,890,-243,8148,0,0,-1
-11.59,6.13,-1.76,889,-247,8147,-1,0,-1
-11.59,6.12,-1.77,875,-246,8154,-1,0,0
-11.59,6.11,-1.77,872,-254,8157,-1,0,0
-11.59,6.11,-1.77,875,-266,8160,-1,0,0
-11.59,6.10,-1.78,884,-265,8152,0,0,0
-11.59,6.09,-1.77,879,-250,8146,0,0,0
-11.59,6.09,-1.77,881,-245,8141,-1,0,0
-11.59,6.08,-1.77,877,-243,8133,-1,0,0
-11.59,6.07,-1.77,867,-245,8143,-1,0,0
-11.59,6.06,-1.78,863,-244,8143,-1,0,0
-11.59,6.06,-1.78,862,-250,8134,-1,0,0
-11.59,6.05,-1.79,856,-252,8146,-1,0,-1
-11.59,6.04,-1.79,856,-254,8154,-1,0,0
-11.59,6.03,-1.80,864,-256,8159,-1,0,0
-11.59,6.03,-1.80,859,-260,8152,-1,0,0
-11.59,6.03,-1.79,861,-258,8149,0,0,-1
-11.58,6.02,-1.79,860,-248,8144,0,0,-1
-11.58,6.01,-1.79,854,-251,8152,-1,0,-1
-11.58,6.01,-1.79,853,-255,8158,-1,0,-1
-11.58,6.01,-1.79,851,-255,8151,0,0,-1
-11.58,6.01,-1.79,852,-258,8152,0,0,-1
-11.58,6.01,-1.79,856,-265,8148,0,-1,0
-11.57,6.01,-1.78,852,-259,8145,0,-1,-1
-11.57,6.01,-1.78,847,-250,8148,0,-1,-1
-11.57,6.01,-1.76,849,-243,8147,0,-1,-1
-11.57,6.02,-1.76,852,-249,8147,-1,-1,0
-11.57,6.02,-1.77,843,-254,8139,-1,-1,0
-11.57,6.04,-1.77,850,-260,8141,0,-1,0
-11.57,6.05,-1.77,855,-261,8141,0,-1,-1
-11.58,6.06,-1.77,866,-252,8138,0,-1,0
-11.58,6.07,-1.77,862,-255,8136,0,-1,0
-11.58,6.07,-1.77,862,-259,8139,-1,-1,0
-11.58,6.08,-1.77,855,-262,8152,0,-1,-1
-11.58,6.09,-1.77,850,-258,8159,0,-1,-1
-11.58,6.09,-1.77,851,-256,8154,0,-1,0
-11.58,6.11,-1.77,865,-250,8146,0,-1,0
-11.58,6.12,-1.77,873,-247,8145,0,-1,0
-11.58,6.12,-1.77,878,-248,8149,0,-1,0
-11.59,6.14,-1.76,880,-253,8159,0,-1,0
-11.59,6.14,-1.76,877,-249,8154,0,-1,0
-11.59,6.15,-1.76,870,-246,8150,0,-1,-1
-11.59,6.16,-1.76,867,-245,8148,-1,-1,0
-11.59,6.16,-1.77,870,-244,8144,-1,-1,0
-11.59,6.17,-1.77,877,-248,8136,-1,-1,0
-11.59,6.18,-1.77,877,-258,8128,0,-1,0
-11.59,6.19,-1.77,884,-256,8144,0,-1,0
-11.59,6.19,-1.76,877,-254,8141,0,-1,0
-11.59,6.19,-1.76,875,-253,8141,0,-1,-1
-11.59,6.20,-1.76,873,-250,8147,-1,-1,0
-11.60,6.20,-1.76,871,-250,8147,-1,-1,0
-11.60,6.21,-1.76,871,-251,8143,-1,-1,0
-11.60,6.21,-1.77,871,-261,8158,0,-1,0
-11.60,6.23,-1.77,881,-266,8153,0,-1,0
-11.60,6.24,-1.77,887,-261,8145,0,-1,0
-11.61,6.23,-1.77,885,-254,8144,0,-1,0
-11.61,6.24,-1.76,893,-243,8160,0,-1,0
-11.61,6.24,-1.76,884,-243,8152,-1,-1,0
-11.61,6.25,-1.77,876,-249,8164,-1,-1,0
-11.61,6.26,-1.77,884,-263,8148,-1,-1,0
-11.61,6.26,-1.77,879,-268,8152,0,-1,-1
-11.61,6.26,-1.77,882,-264,8149,0,-1,-1
-11.61,6.26,-1.76,890,-246,8153,0,-1,0
-11.61,6.27,-1.76,892,-235,8150,0,-1,0
-11.61,6.27,-1.76,894,-236,8147,-1,-1,0
-11.61,6.27,-1.76,887,-232,8149,-1,-1,0
-11.62,6.28,-1.76,887,-240,8149,-1,-1,0
-11.62,6.28,-1.77,880,-250,8147,-1,-1,0
-11.62,6.28,-1.77,873,-255,8148,-1,-1,0
-11.62,6.29,-1.77,883,-264,8149,-1,-1,0
-11.62,6.29,-1.77,894,-265,8140,-1,-1,0
-11.62,6.29,-1.77,890,-257,8143,0,-1,-1
-11.62,6.30,-1.78,893,-254,8152,0,-1,0
-11.63,6.30,-1.77,897,-245,8151,0,-1,-1
-11.62,6.30,-1.78,901,-245,8151,-1,0,0
-11.62,6.30,-1.78,900,-248,8159,-1,-1,0
-11.62,6.30,-1.78,901,-259,8148,-1,-1,-1
-11.62,6.31,-1.78,903,-256,8148,0,-1,-1
-11.63,6.31,-1.76,901,-237,8145,0,-1,-1
-11.63,6.31,-1.76,892,-231,8150,-1,-1,0
-11.63,6.31,-1.76,890,-234,8152,-1,-1,0
-11.63,6.31,-1.76,894,-240,8141,-1,-1,0
-11.63,6.32,-1.76,893,-252,8139,-1,-1,-1
-11.63,6.32,-1.76,897,-256,8140,0,-1,0
-11.62,6.33,-1.77,895,-260,8138,0,-1,0
-11.63,6.32,-1.76,892,-251,8143,0,-1,0
-11.62,6.33,-1.77,892,-248,8148,-1,-1,0
-11.63,6.33,-1.77,890,-250,8153,-1,-1,0
-11.63,6.33,-1.77,890,-248,8153,-1,-1,0
-11.63,6.33,-1.78,890,-258,8150,-1,-1,0
-11.63,6.33,-1.78,892,-260,8142,0,-1,-1
-11.63,6.33,-1.77,896,-255,8148,0,-1,-1
-11.63,6.33,-1.77,897,-243,8145,0,-1,-1
-11.63,6.33,-1.76,897,-241,8149,0,-1,0
-11.63,6.33,-1.76,892,-245,8147,-1,-1,0
-11.63,6.33,-1.77,891,-253,8144,-1,-1,0
-11.63,6.33,-1.77,886,-255,8144,0,-1,-1
-11.63,6.33,-1.77,891,-260,8141,0,-1,0
-11.63,6.33,-1.77,894,-249,8135,0,-1,-1
-11.63,6.33,-1.77,895,-243,8136,-1,-1,0
-11.63,6.33,-1.77,895,-249,8141,-1,0,0
-11.63,6.33,-1.78,891,-260,8148,-1,-1,0
-11.64,6.33,-1.78,885,-273,8151,0,-1,0
-11.64,6.34,-1.78,896,-269,8146,0,-1,0
-11.64,6.34,-1.78,898,-266,8146,0,-1,-1
-11.64,6.34,-1.78,908,-255,8135,0,0,0
-11.64,6.34,-1.77,893,-246,8146,-1,0,-1
-11.64,6.33,-1.77,890,-240,8154,-1,-1,-1
-11.64,6.33,-1.77,890,-244,8141,-1,-1,-1
-11.63,6.33,-1.77,882,-252,8147,-1,-1,0
-11.64,6.33,-1.78,891,-263,8157,0,-1,0
-11.64,6.34,-1.77,897,-247,8148,0,-1,0
-11.64,6.34,-1.77,901,-248,8156,0,-1,-1
-11.64,6.34,-1.77,905,-246,8149,0,0,-1
-11.64,6.34,-1.77,890,-237,8149,0,-1,0
-11.64,6.34,-1.77,887,-243,8149,-1,-1,0
-11.64,6.34,-1.77,890,-244,8151,0,-1,0
-11.64,6.34,-1.77,891,-247,8148,0,-1,0
-11.64,6.35,-1.77,906,-253,8137,-1,-1,0
-11.64,6.35,-1.77,904,-252,8136,-1,-1,0
-11.64,6.35,-1.77,893,-252,8144,-1,-1,0
-11.64,6.35,-1.77,895,-251,8145,-1,-1,0
-11.64,6.35,-1.77,901,-255,8141,0,0,-1
-11.64,6.35,-1.77,901,-242,8144,0,-1,-1
-11.64,6.35,-1.77,902,-244,8136,-1,-1,-1
-11.64,6.35,-1.77,894,-248,8148,0,-1,0
-11.64,6.35,-1.77,891,-250,8149,-1,-1,-1
-11.64,6.35,-1.77,890,-260,8147,0,-1,0
-11.64,6.35,-1.77,895,-261,8143,0,-1,-1
-11.64,6.35,-1.77,895,-252,8149,0,-1,0
-11.64,6.35,-1.76,903,-250,8151,0,-1,-1
-11.64,6.35,-1.76,899,-248,8152,-1,0,0
-11.64,6.35,-1.76,888,-258,8147,-1,-1,-1
-11.64,6.35,-1.76,891,-259,8144,0,0,0
-11.64,6.35,-1.76,889,-261,8155,0,-1,0
-11.64,6.36,-1.75,903,-252,8147,0,-1,-1
-11.64,6.36,-1.75,902,-242,8141,0,-1,0
-11.64,6.36,-1.75,896,-242,8135,-1,-1,0
-11.64,6.35,-1.76,896,-252,8142,-1,0,-1
-11.64,6.35,-1.76,889,-254,8145,-1,-1,0
-11.64,6.35,-1.76,894,-258,8150,0,0,0
-11.64,6.35,-1.76,892,-259,8151,0,0,-1
-11.64,6.35,-1.76,885,-250,8155,0,-1,0
-11.64,6.35,-1.76,894,-255,8142,0,-1,-1
-11.64,6.35,-1.76,896,-250,8146,0,-1,0
-11.64,6.35,-1.76,893,-253,8145,-1,-1,-1
-11.64,6.35,-1.77,889,-253,8140,-1,0,0
-11.64,6.34,-1.77,883,-258,8149,-1,-1,0
-11.64,6.34,-1.77,885,-259,8150,0,-1,0
-11.64,6.34,-1.77,894,-263,8143,0,-1,0
-11.65,6.34,-1.77,892,-251,8138,0,-1,-1
-11.65,6.34,-1.76,896,-243,8143,0,-1,0
-11.65,6.35,-1.76,900,-246,8147,-1,-1,0
-11.65,6.35,-1.76,899,-251,8147,-1,-1,0
-11.65,6.35,-1.77,894,-253,8156,-1,-1,0
-11.65,6.35,-1.77,888,-254,8153,-1,-1,0
-11.65,6.35,-1.77,891,-269,8152,0,-1,0
-11.65,6.35,-1.77,892,-260,8149,0,-1,0
-11.65,6.35,-1.77,891,-256,8143,0,-1,0
-11.65,6.35,-1.76,908,-243,8137,0,0,0
-11.65,6.35,-1.76,904,-240,8127,-1,0,0
-11.65,6.35,-1.76,901,-247,8131,-1,-1,-1
-11.65,6.35,-1.77,894,-253,8149,-1,-1,0
-11.65,6.35,-1.77,889,-263,8159,-1,-1,-1
-11.65,6.35,-1.77,894,-264,8152,0,-1,-1
-11.65,6.35,-1.77,895,-269,8142,0,-1,-1
-11.65,6.35,-1.77,899,-253,8138,-1,-1,0
-11.65,6.35,-1.77,898,-242,8145,0,0,0
-11.65,6.35,-1.76,894,-241,8160,-1,-1,0
-11.65,6.35,-1.77,900,-249,8153,-1,-1,0
-11.65,6.35,-1.77,899,-250,8141,-1,-1,0
-11.65,6.35,-1.77,897,-249,8148,-1,-1,-1
-11.65,6.35,-1.77,897,-252,8149,-1,-1,0
-11.65,6.36,-1.77,896,-254,8148,-1,-1,-1
-11.65,6.36,-1.78,895,-253,8151,-1,-1,0
-11.65,6.36,-1.78,899,-258,8144,0,0,-1
-11.65,6.35,-1.77,893,-244,8136,0,-1,0
-11.65,6.35,-1.77,895,-244,8146,-1,0,-1
-11.65,6.35,-1.77,902,-240,8152,-1,-1,0
-11.65,6.35,-1.77,899,-241,8149,-1,-1,0
-11.65,6.35,-1.77,899,-249,8153,0,-1,0
-11.65,6.36,-1.77,902,-257,8143,0,-1,0
-11.66,6.36,-1.76,903,-253,8143,0,-1,0
-11.66,6.36,-1.76,891,-239,8153,0,-1,0
-11.66,6.36,-1.75,905,-233,8156,0,-1,0
-11.66,6.36,-1.76,901,-237,8155,-1,-1,0
-11.66,6.36,-1.76,892,-252,8152,-1,-1,0
-11.67,6.36,-1.76,890,-260,8150,0,-1,-1
-11.66,6.36,-1.76,891,-260,8155,0,-1,-1
-11.66,6.36,-1.76,896,-252,8151,0,0,-1
-11.66,6.36,-1.76,889,-245,8155,-1,0,-1
-11.66,6.35,-1.75,887,-243,8144,-1,0,-1
-11.66,6.35,-1.75,890,-242,8144,-1,0,0
-11.66,6.35,-1.76,888,-246,8149,-1,-1,0
-11.66,6.35,-1.77,892,-266,8140,-1,0,0
-11.66,6.34,-1.77,892,-269,8140,0,0,-1
-11.66,6.34,-1.76,899,-262,8146,0,-1,-1
-11.66,6.34,-1.76,896,-249,8149,0,0,-1
-11.65,6.33,-1.75,893,-232,8157,-1,-1,-1
-11.66,6.34,-1.75,892,-235,8142,-1,-1,0
-11.66,6.34,-1.75,898,-239,8138,-1,-1,0
-11.65,6.34,-1.75,900,-250,8139,0,0,-1
-11.65,6.34,-1.75,900,-257,8145,0,0,0
-11.65,6.33,-1.75,896,-256,8152,0,0,-1
-11.65,6.33,-1.75,890,-248,8159,-1,-1,-1
-11.65,6.33,-1.75,900,-244,8150,-1,-1,0
-11.66,6.33,-1.75,892,-248,8147,-1,-1,0
-11.66,6.33,-1.76,897,-249,8134,-1,0,0
-11.66,6.33,-1.75,899,-238,8148,-1,0,-1
-11.66,6.33,-1.76,894,-237,8155,-1,0,0
-11.66,6.32,-1.77,885,-245,8155,-1,0,0
-11.66,6.31,-1.76,886,-247,8156,-1,0,0
-11.66,6.31,-1.78,880,-266,8151,-1,-1,0
-11.66,6.31,-1.78,883,-274,8140,0,-1,0
-11.66,6.31,-1.78,889,-265,8140,0,0,0
-11.66,6.30,-1.77,897,-250,8146,0,0,0
-11.66,6.30,-1.77,895,-239,8149,-1,0,0
-11.66,6.30,-1.77,890,-240,8146,-1,0,0
-11.66,6.29,-1.78,888,-248,8146,-1,0,-1
-11.66,6.28,-1.78,884,-260,8144,-1,0,0
-11.66,6.28,-1.78,878,-264,8141,0,0,-1
-11.66,6.28,-1.78,877,-260,8145,0,0,-1
-11.66,6.27,-1.78,879,-254,8138,0,0,0
-11.66,6.26,-1.78,878,-250,8140,0,0,0
-11.66,6.25,-1.78,880,-245,8156,-1,0,-1
-11.66,6.24,-1.77,881,-247,8145,0,0,0
-11.66,6.23,-1.78,875,-247,8145,-1,0,0
-11.66,6.23,-1.78,872,-245,8147,-1,0,0
-11.66,6.22,-1.78,868,-248,8151,-1,0,0
-11.66,6.22,-1.78,874,-255,8155,-1,0,0
-11.66,6.22,-1.79,884,-257,8155,-1,0,-1
-11.66,6.22,-1.80,879,-267,8140,0,0,-1
-11.66,6.21,-1.80,871,-257,8139,0,0,-1
-11.66,6.20,-1.79,864,-246,8149,0,0,-1
-11.66,6.20,-1.79,870,-248,8151,0,0,0
-11.66,6.20,-1.79,868,-258,8154,0,-1,-1
-11.66,6.20,-1.79,870,-258,8140,0,-1,0
-11.66,6.20,-1.78,863,-264,8145,0,-1,-1
-11.66,6.20,-1.78,868,-254,8146,0,-1,0
-11.66,6.21,-1.77,873,-240,8142,0,-1,-1
-11.65,6.21,-1.76,878,-239,8138,0,-1,-1
-11.66,6.21,-1.77,877,-246,8132,-1,-1,0
-11.66,6.21,-1.77,873,-258,8139,-1,-1,0
-11.66,6.22,-1.77,870,-262,8141,0,-1,0
-11.66,6.22,-1.77,863,-256,8144,0,-1,0
-11.66,6.23,-1.76,869,-249,8141,0,-1,0
-11.66,6.23,-1.76,868,-245,8153,-1,-1,0
-11.66,6.23,-1.76,870,-246,8144,-1,-1,0
-11.67,6.24,-1.77,879,-254,8155,-1,-1,0
-11.67,6.25,-1.77,881,-259,8151,-1,-1,0
-11.67,6.25,-1.77,877,-258,8148,0,-1,0
-11.67,6.25,-1.77,877,-265,8156,0,-1,0
-11.67,6.25,-1.77,876,-260,8150,0,-1,0
-11.67,6.26,-1.77,878,-253,8147,0,-1,0
-11.67,6.26,-1.77,879,-244,8148,0,-1,0
-11.67,6.27,-1.77,883,-247,8152,0,-1,0
-11.67,6.28,-1.77,887,-247,8160,-1,-1,0
-11.67,6.28,-1.77,882,-250,8155,-1,-1,0
-11.67,6.28,-1.77,886,-256,8147,-1,-1,0
-11.67,6.28,-1.77,884,-259,8145,-1,-1,0
-11.68,6.29,-1.77,882,-258,8144,0,-1,0
-11.68,6.29,-1.77,876,-254,8144,0,-1,0
-11.68,6.30,-1.77,887,-244,8138,0,-1,0
-11.68,6.30,-1.76,886,-241,8139,-1,-1,-1
-11.68,6.30,-1.76,883,-242,8140,-1,-1,0
-11.68,6.30,-1.77,879,-250,8151,-1,-1,0
-11.68,6.30,-1.78,876,-264,8150,-1,-1,0
-11.68,6.30,-1.78,879,-273,8153,0,-1,0
-11.68,6.31,-1.78,888,-267,8161,0,-1,0
-11.68,6.31,-1.77,890,-251,8145,0,-1,-1
-11.68,6.31,-1.77,889,-248,8156,0,-1,-1
-11.68,6.31,-1.77,891,-244,8149,-1,-1,0
-11.68,6.32,-1.77,885,-253,8153,-1,-1,-1
-11.68,6.32,-1.78,889,-265,8152,-1,-1,0
-11.68,6.32,-1.78,889,-269,8152,0,-1,0
-11.68,6.32,-1.78,891,-266,8148,0,-1,0
-11.68,6.32,-1.78,890,-251,8145,0,-1,0
-11.68,6.33,-1.77,895,-244,8154,0,-1,0
-11.69,6.33,-1.77,901,-243,8155,0,-1,0
-11.69,6.33,-1.77,897,-243,8155,-1,-1,0
-11.69,6.32,-1.78,884,-248,8151,-1,-1,0
-11.69,6.32,-1.78,887,-252,8143,-1,-1,0
-11.69,6.33,-1.79,890,-258,8143,-1,-1,-1
-11.69,6.33,-1.79,899,-259,8150,-1,-1,0
-11.69,6.33,-1.79,893,-261,8144,-1,-1,0
-11.69,6.33,-1.79,891,-257,8136,-1,-1,0
-11.69,6.33,-1.79,890,-258,8145,0,-1,-1
-11.69,6.33,-1.79,893,-249,8146,0,-1,-1
-11.69,6.33,-1.79,891,-252,8148,-1,-1,0
-11.69,6.33,-1.79,899,-252,8153,-1,-1,0
-11.69,6.34,-1.79,894,-258,8154,0,-1,0
-11.69,6.34,-1.79,889,-260,8152,0,-1,-1
-11.69,6.34,-1.78,898,-251,8144,0,-1,-1
-11.70,6.34,-1.78,897,-239,8146,0,-1,0
-11.69,6.34,-1.78,890,-247,8144,-1,-1,0
-11.69,6.34,-1.78,892,-246,8135,-1,-1,0
-11.70,6.34,-1.78,889,-253,8152,-1,-1,0
-11.70,6.34,-1.78,887,-255,8147,0,-1,0
-11.70,6.34,-1.78,889,-248,8145,0,0,-1
-11.70,6.34,-1.78,888,-244,8151,-1,-1,0
-11.70,6.34,-1.78,893,-240,8140,-1,-1,0
-11.70,6.34,-1.78,892,-244,8143,-1,-1,0
-11.70,6.34,-1.78,897,-253,8142,-1,-1,-1
-11.70,6.34,-1.79,894,-264,8132,-1,-1,0
-11.70,6.34,-1.79,894,-250,8138,0,0,0
-11.70,6.34,-1.78,895,-251,8140,0,-1,0
-11.70,6.34,-1.78,889,-245,8149,0,-1,0
-11.70,6.34,-1.78,890,-241,8146,0,-1,-1
-11.70,6.34,-1.78,900,-247,8143,0,-1,0
-11.70,6.34,-1.78,898,-249,8144,-1,-1,0
-11.70,6.34,-1.78,895,-252,8134,0,-1,0
-11.70,6.35,-1.78,895,-256,8135,0,-1,-1
-11.70,6.35,-1.78,894,-247,8144,0,-1,-1
-11.70,6.35,-1.77,894,-242,8143,0,-1,0
-11.70,6.35,-1.78,891,-248,8138,-1,-1,0
-11.71,6.35,-1.78,892,-254,8140,-1,-1,0
-11.71,6.34,-1.78,887,-257,8141,-1,0,0
-11.71,6.34,-1.78,885,-257,8152,-1,-1,0
-11.71,6.34,-1.79,895,-271,8157,0,-1,0
-11.71,6.35,-1.79,896,-276,8147,0,-1,0
-11.71,6.35,-1.78,899,-263,8151,0,-1,0
-11.71,6.35,-1.77,901,-249,8148,0,0,-1
-11.71,6.35,-1.77,891,-241,8142,-1,0,0
-11.71,6.35,-1.78,890,-244,8146,-1,-1,-1
-11.72,6.35,-1.78,887,-251,8149,-1,-1,0
-11.72,6.34,-1.79,887,-266,8154,0,-1,-1
-11.71,6.35,-1.78,896,-265,8145,0,-1,-1
-11.71,6.35,-1.78,894,-254,8139,0,-1,0
-11.71,6.35,-1.78,894,-254,8139,0,-1,0
-11.72,6.35,-1.77,894,-245,8146,0,-1,0
-11.72,6.35,-1.77,896,-245,8144,-1,-1,0
-11.72,6.35,-1.77,901,-246,8149,-1,-1,0
-11.72,6.35,-1.77,896,-250,8149,0,0,0
-11.72,6.35,-1.77,890,-252,8146,-1,-1,0
-11.72,6.35,-1.78,905,-255,8143,-1,-1,0
-11.72,6.35,-1.78,897,-259,8141,0,-1,0
-11.72,6.35,-1.78,898,-255,8146,0,-1,0
-11.72,6.35,-1.78,893,-244,8139,0,-1,-1
-11.72,6.35,-1.77,890,-247,8142,-1,0,0
-11.72,6.35,-1.77,895,-242,8149,0,-1,-1
-11.72,6.35,-1.78,892,-251,8157,-1,0,0
-11.72,6.35,-1.78,888,-267,8156,0,-1,0
-11.72,6.35,-1.78,892,-257,8155,0,-1,-1
-11.72,6.35,-1.77,893,-257,8141,0,-1,0
-11.72,6.35,-1.77,900,-244,8142,0,-1,-1
-11.72,6.35,-1.76,898,-236,8132,0,0,-1
-11.72,6.34,-1.76,898,-241,8141,-1,0,0
-11.72,6.34,-1.76,896,-242,8148,0,0,0
-11.72,6.34,-1.76,895,-247,8151,0,-1,-1
-11.72,6.34,-1.76,895,-247,8137,0,0,-1
-11.72,6.33,-1.76,893,-249,8137,0,-1,-1
-11.72,6.34,-1.76,893,-247,8143,0,-1,-1
-11.71,6.33,-1.76,889,-240,8143,-1,0,-1
-11.71,6.33,-1.75,886,-248,8151,-1,0,0
-11.71,6.33,-1.76,891,-257,8148,-1,0,0
-11.71,6.33,-1.77,891,-260,8151,-1,0,0
-11.72,6.33,-1.77,891,-264,8149,0,-1,0
-11.72,6.32,-1.77,886,-262,8149,0,0,0
-11.72,6.32,-1.77,888,-250,8152,0,0,0
-11.72,6.32,-1.77,894,-257,8155,-1,-1,-1
-11.72,6.32,-1.78,886,-255,8156,-1,-1,0
-11.72,6.32,-1.78,894,-252,8161,-1,0,-1
-11.72,6.31,-1.77,895,-249,8162,-1,0,0
-11.72,6.31,-1.77,891,-250,8156,0,-1,0
-11.72,6.31,-1.77,892,-252,8149,-1,0,0
-11.72,6.31,-1.78,893,-257,8147,-1,0,0
-11.72,6.31,-1.78,891,-256,8139,0,0,0
-11.72,6.30,-1.78,892,-252,8145,0,0,0
-11.72,6.30,-1.77,886,-244,8149,-1,0,0
-11.72,6.30,-1.78,892,-237,8151,-1,0,0
-11.72,6.30,-1.79,884,-244,8149,-1,0,0
-11.72,6.29,-1.79,888,-258,8145,-1,0,0
-11.72,6.28,-1.79,885,-259,8160,-1,0,0
-11.72,6.27,-1.80,885,-268,8165,-1,0,-1
-11.72,6.27,-1.81,878,-264,8156,-1,0,0
-11.72,6.27,-1.80,886,-257,8146,0,-1,-1
-11.72,6.27,-1.80,892,-253,8139,0,0,-1
-11.72,6.27,-1.80,893,-248,8140,-1,0,-1
-11.72,6.26,-1.80,892,-250,8141,-1,0,0
-11.72,6.25,-1.80,886,-252,8141,-1,0,0
-11.72,6.25,-1.80,882,-256,8155,-1,0,0
-11.72,6.24,-1.81,878,-262,8148,0,0,0
-11.72,6.24,-1.81,880,-264,8145,0,0,0
-11.73,6.24,-1.80,881,-258,8144,-1,0,0
-11.73,6.24,-1.80,885,-253,8146,0,0,0
-11.73,6.23,-1.80,873,-243,8144,-1,0,0
-11.73,6.23,-1.80,879,-240,8145,-1,0,0
-11.73,6.22,-1.80,872,-245,8144,-1,0,-1
-11.73,6.22,-1.81,875,-252,8150,-1,0,-1
-11.73,6.21,-1.81,876,-260,8158,-1,0,0
-11.73,6.20,-1.81,878,-263,8158,0,0,-1
-11.73,6.19,-1.81,874,-268,8151,0,0,-1
-11.73,6.19,-1.81,862,-266,8147,0,0,0
-11.73,6.18,-1.81,871,-252,8149,0,0,0
-11.73,6.18,-1.80,873,-248,8158,0,0,-1
-11.72,6.17,-1.80,873,-246,8164,0,0,0
-11.72,6.17,-1.80,873,-249,8150,0,0,-1
-11.72,6.17,-1.80,868,-255,8139,0,0,0
-11.72,6.17,-1.80,869,-263,8140,0,0,-1
-11.72,6.16,-1.79,869,-253,8154,0,-1,-1
-11.71,6.16,-1.77,869,-244,8142,0,-1,-1
-11.72,6.16,-1.77,869,-242,8145,0,-1,-1
-11.71,6.17,-1.77,873,-248,8146,0,-1,0
-11.71,6.17,-1.77,872,-248,8139,0,-1,0
-11.71,6.18,-1.77,877,-254,8146,0,-1,-1
-11.71,6.18,-1.77,879,-259,8155,0,-1,-1
-11.71,6.19,-1.76,878,-250,8149,0,-1,0
-11.71,6.19,-1.76,868,-248,8141,0,-1,-1
-11.72,6.20,-1.76,872,-253,8140,-1,-1,0
-11.72,6.21,-1.76,880,-256,8142,-1,-1,-1
-11.72,6.21,-1.76,878,-254,8153,-1,-1,0
-11.71,6.21,-1.76,876,-255,8148,0,-1,0
-11.71,6.21,-1.76,870,-255,8148,0,-1,0
-11.72,6.22,-1.76,869,-245,8151,0,-1,0
-11.72,6.22,-1.75,871,-245,8150,0,-1,0
-11.72,6.23,-1.75,877,-243,8144,-1,-1,-1
-11.72,6.24,-1.75,878,-238,8149,-1,-1,0
-11.72,6.24,-1.75,885,-242,8148,0,-1,0
-11.72,6.25,-1.75,884,-241,8152,-1,-1,0
-11.72,6.25,-1.75,882,-241,8149,-1,-1,0
-11.72,6.26,-1.75,879,-250,8143,-1,-1,-1
-11.72,6.26,-1.76,879,-264,8139,-1,-1,0
-11.72,6.26,-1.76,877,-260,8146,0,-1,0
-11.72,6.27,-1.76,886,-252,8138,0,-1,-1
-11.72,6.27,-1.75,883,-238,8146,-1,-1,0
-11.72,6.28,-1.75,885,-237,8145,-1,-1,0
-11.72,6.28,-1.76,881,-239,8150,-1,-1,0
-11.72,6.28,-1.76,883,-244,8148,-1,-1,0
-11.72,6.29,-1.76,882,-261,8158,-1,-1,0
-11.72,6.29,-1.76,882,-265,8150,0,-1,0
-11.72,6.30,-1.76,893,-265,8143,0,-1,0
-11.72,6.30,-1.75,890,-249,8141,0,-1,0
-11.72,6.30,-1.75,889,-241,8157,-1,-1,0
-11.73,6.31,-1.75,890,-242,8158,-1,-1,0
-11.73,6.31,-1.75,881,-243,8156,-1,-1,0
-11.73,6.31,-1.75,881,-254,8152,0,-1,0
-11.73,6.31,-1.75,885,-251,8145,0,-1,-1
-11.73,6.31,-1.75,885,-250,8145,0,-1,0
-11.73,6.31,-1.74,885,-245,8139,0,-1,0
-11.73,6.31,-1.74,886,-242,8129,0,-1,-1
-11.73,6.31,-1.73,892,-239,8133,-1,-1,0
-11.73,6.32,-1.73,892,-240,8139,-1,-1,0
-11.73,6.32,-1.73,891,-238,8142,-1,-1,0
-11.74,6.32,-1.74,887,-249,8146,-1,-1,0
-11.74,6.33,-1.75,886,-254,8143,-1,-1,0
-11.74,6.33,-1.75,888,-253,8141,0,-1,-1
-11.74,6.33,-1.74,897,-252,8140,0,-1,0
-11.74,6.33,-1.75,888,-250,8141,-1,0,0
-11.74,6.33,-1.75,896,-247,8134,0,-1,-1
-11.74,6.33,-1.74,896,-247,8137,-1,-1,0
-11.74,6.33,-1.75,892,-250,8151,-1,-1,0
-11.74,6.33,-1.74,894,-250,8140,0,-1,-1
-11.74,6.33,-1.74,890,-247,8140,0,-1,-1
-11.74,6.34,-1.74,895,-243,8138,0,-1,0
-11.74,6.34,-1.73,900,-238,8142,0,-1,0
-11.74,6.34,-1.73,897,-239,8151,-1,-1,0
-11.74,6.34,-1.73,888,-241,8154,-1,-1,-1
-11.74,6.34,-1.74,886,-251,8141,-1,-1,0
-11.74,6.34,-1.73,885,-250,8139,0,-1,-1
-11.74,6.34,-1.73,896,-248,8149,0,-1,0
-11.74,6.34,-1.73,898,-248,8147,0,-1,0
-11.74,6.34,-1.73,897,-241,8144,-1,-1,-1
-11.74,6.34,-1.73,902,-247,8151,-1,-1,0
-11.74,6.34,-1.74,892,-254,8153,-1,-1,0
-11.74,6.34,-1.74,892,-257,8145,-1,-1,0
-11.74,6.34,-1.74,896,-260,8158,0,-1,-1
-11.74,6.34,-1.74,893,-254,8146,0,-1,0
-11.74,6.34,-1.74,895,-250,8133,0,-1,0
-11.74,6.34,-1.74,893,-243,8136,0,-1,-1
-11.74,6.34,-1.74,893,-249,8138,0,-1,0
-11.74,6.34,-1.74,894,-248,8141,-1,-1,0
-11.74,6.33,-1.74,889,-255,8145,-1,-1,0
-11.74,6.33,-1.74,880,-266,8139,0,-1,0
-11.74,6.33,-1.74,883,-256,8152,0,-1,0
-11.74,6.34,-1.74,896,-243,8155,0,-1,-1
-11.74,6.34,-1.74,893,-239,8146,-1,0,0
-11.75,6.34,-1.74,901,-248,8137,-1,0,0
-11.75,6.33,-1.74,897,-251,8144,-1,0,0
-11.75,6.34,-1.76,893,-267,8158,-1,-1,-1
-11.75,6.34,-1.76,898,-260,8152,0,-1,0
-11.75,6.35,-1.75,901,-261,8153,0,-1,-1
-11.75,6.35,-1.75,901,-250,8142,0,-1,0
-11.75,6.35,-1.75,899,-246,8133,0,0,-1
-11.74,6.34,-1.74,896,-246,8139,-1,0,0
-11.74,6.34,-1.74,899,-246,8145,-1,0,-1
-11.74,6.34,-1.74,891,-252,8151,-1,-1,-1
-11.74,6.34,-1.74,888,-257,8149,-1,-1,-1
-11.74,6.34,-1.74,887,-257,8146,0,-1,-1
-11.74,6.34,-1.74,894,-258,8149,0,-1,0
-11.74,6.34,-1.74,905,-252,8145,0,-1,-1
-11.74,6.34,-1.74,901,-244,8139,-1,0,0
-11.74,6.34,-1.74,898,-243,8146,-1,-1,0
-11.74,6.34,-1.74,902,-249,8152,0,-1,-1
-11.74,6.34,-1.74,894,-238,8150,0,-1,0
-11.74,6.34,-1.74,899,-253,8139,-1,-1,0
-11.74,6.34,-1.74,904,-249,8148,-1,0,0
-11.74,6.34,-1.74,900,-255,8140,-1,-1,-1
-11.74,6.34,-1.74,902,-253,8148,0,0,0
-11.74,6.34,-1.74,900,-250,8145,-1,-1,-1
-11.74,6.34,-1.74,901,-249,8150,-1,-1,0
-11.74,6.34,-1.74,905,-252,8150,-1,0,-1
-11.74,6.34,-1.74,898,-253,8151,-1,0,0
-11.74,6.33,-1.75,897,-248,8151,-1,-1,0
-11.74,6.33,-1.74,899,-242,8148,0,-1,-1
-11.74,6.34,-1.74,898,-236,8147,0,0,0
-11.74,6.34,-1.74,901,-237,8141,-1,-1,0
-11.74,6.33,-1.74,905,-246,8138,-1,0,0
-11.74,6.33,-1.74,893,-252,8141,-1,-1,0
-11.74,6.33,-1.74,891,-254,8150,-1,-1,-1
-11.74,6.33,-1.74,890,-243,8147,0,0,-1
-11.74,6.33,-1.74,891,-239,8149,-1,-1,0
-11.74,6.32,-1.74,895,-250,8139,0,0,0
-11.74,6.32,-1.74,902,-253,8138,-1,0,0
-11.74,6.32,-1.74,899,-260,8137,-1,0,-1
-11.74,6.31,-1.75,894,-265,8139,-1,0,-1
-11.74,6.31,-1.75,886,-248,8142,0,0,0
-11.74,6.30,-1.75,883,-248,8139,-1,0,0
-11.74,6.29,-1.75,884,-244,8137,-1,0,0
-11.74,6.29,-1.75,884,-246,8144,-1,0,0
-11.74,6.29,-1.74,881,-247,8147,-1,0,0
-11.74,6.28,-1.74,884,-252,8145,0,0,0
-11.74,6.28,-1.74,888,-252,8144,0,0,-1
-11.74,6.27,-1.74,883,-253,8145,0,0,0
-11.74,6.26,-1.74,874,-256,8150,0,0,-1
-11.74,6.25,-1.74,874,-253,8145,0,0,-1
-11.74,6.24,-1.73,885,-246,8139,0,0,-1
-11.74,6.24,-1.73,882,-240,8139,-1,0,0
-11.73,6.24,-1.73,881,-242,8140,-1,0,-1
-11.73,6.22,-1.74,874,-251,8148,-1,0,-1
-11.73,6.22,-1.74,879,-260,8155,0,0,0
-11.73,6.21,-1.74,878,-266,8158,0,0,-1
-11.73,6.22,-1.74,881,-260,8149,0,0,-1
-11.72,6.21,-1.73,884,-258,8132,0,0,-1
-11.72,6.21,-1.72,890,-252,8127,0,-1,-1
-11.72,6.21,-1.71,887,-241,8137,0,0,-1
-11.72,6.21,-1.71,876,-236,8144,-1,0,0
-11.72,6.21,-1.72,869,-238,8150,-1,-1,0
-11.72,6.21,-1.72,871,-253,8139,-1,-1,0
-11.72,6.22,-1.73,869,-253,8152,-1,-1,0
-11.72,6.22,-1.73,873,-258,8156,-1,-1,-1
-11.72,6.22,-1.73,877,-251,8148,0,-1,0
-11.72,6.22,-1.73,878,-242,8149,0,-1,0
-11.72,6.22,-1.73,885,-242,8151,-1,-1,0
-11.72,6.23,-1.73,886,-248,8154,-1,-1,0
-11.73,6.23,-1.74,878,-244,8148,-1,-1,0
-11.73,6.23,-1.74,878,-248,8158,-1,-1,0
-11.73,6.24,-1.75,881,-254,8150,-1,-1,0
-11.73,6.24,-1.75,877,-258,8150,-1,-1,0
-11.74,6.24,-1.75,882,-258,8140,-1,-1,0
-11.74,6.25,-1.75,886,-258,8131,0,-1,0
-11.74,6.25,-1.75,886,-249,8135,0,-1,0
-11.74,6.26,-1.75,888,-243,8139,-1,-1,0
-11.74,6.26,-1.75,880,-247,8149,-1,-1,0
-11.74,6.26,-1.75,882,-250,8159,-1,-1,0
-11.74,6.27,-1.75,886,-254,8155,0,-1,-1
-11.75,6.27,-1.75,891,-253,8146,0,-1,0
-11.75,6.28,-1.74,903,-252,8129,0,-1,0
-11.75,6.28,-1.74,891,-237,8130,0,0,0
-11.75,6.27,-1.74,865,-259,8153,-1,-1,0
-11.75,6.27,-1.74,872,-227,8161,-1,-1,-1
-11.75,6.28,-1.74,876,-282,8156,0,-1,-1
-11.75,6.29,-1.72,882,-207,8151,0,-1,0
-11.75,6.29,-1.73,918,-197,8120,-1,0,0
-11.75,6.28,-1.75,897,-279,8115,-1,0,-1
-11.74,6.28,-1.76,888,-281,8148,0,0,-1
-11.75,6.27,-1.75,886,-259,8159,0,0,-1
-11.75,6.27,-1.74,872,-244,8166,0,-1,-1
-11.75,6.27,-1.74,880,-240,8169,-1,-1,0
-11.75,6.28,-1.74,887,-245,8152,-1,-1,0
-11.75,6.28,-1.74,890,-250,8142,0,-1,-1
-11.75,6.28,-1.74,892,-248,8145,-1,0,-1
-11.74,6.28,-1.74,886,-249,8156,0,-1,-1
-11.74,6.28,-1.74,882,-252,8173,0,-1,0
-11.74,6.28,-1.74,875,-248,8166,0,-1,0
-11.75,6.28,-1.73,886,-241,8145,0,-1,0
-11.75,6.29,-1.73,890,-241,8137,-1,-1,0
-11.75,6.29,-1.73,896,-249,8133,0,-1,0
-11.74,6.29,-1.72,892,-254,8140,0,-1,-1
-11.74,6.30,-1.72,897,-241,8148,0,-1,-1
-11.74,6.30,-1.72,893,-242,8153,0,-1,-1
-11.74,6.30,-1.71,889,-242,8157,0,-1,0
-11.74,6.30,-1.71,882,-245,8153,0,-1,-1
-11.74,6.30,-1.71,882,-239,8150,0,-1,0
-11.74,6.30,-1.71,883,-249,8148,-1,-1,0
-11.74,6.31,-1.72,891,-257,8138,-1,-1,0
-11.74,6.31,-1.72,888,-261,8147,0,-1,0
-11.74,6.32,-1.71,890,-251,8142,0,-1,-1
-11.74,6.32,-1.71,892,-240,8141,0,-1,0
-11.74,6.32,-1.71,899,-235,8140,-1,-1,0
-11.74,6.32,-1.71,894,-241,8138,-1,-1,0
-11.74,6.32,-1.71,890,-244,8149,-1,-1,0
-11.74,6.33,-1.71,894,-253,8156,0,-1,0
-11.74,6.33,-1.71,896,-255,8153,0,-1,-1
-11.74,6.33,-1.70,898,-237,8147,0,-1,0
-11.75,6.34,-1.70,905,-236,8143,0,-1,0
-11.75,6.34,-1.69,897,-232,8143,-1,-1,0
-11.75,6.35,-1.70,900,-232,8144,-1,-1,0
-11.75,6.35,-1.70,899,-239,8136,-1,-1,0
-11.76,6.35,-1.71,896,-243,8143,-1,-1,0
-11.76,6.35,-1.71,895,-253,8153,-1,-1,0
-11.76,6.35,-1.72,897,-258,8164,-1,-1,0
-11.76,6.35,-1.72,899,-256,8167,-1,-1,0
-11.76,6.35,-1.72,898,-254,8164,0,-1,0
-11.76,6.35,-1.72,903,-242,8164,-1,-1,-1
-11.76,6.35,-1.72,902,-238,8168,-1,0,0
-11.76,6.35,-1.72,900,-238,8163,-1,-1,0
-11.76,6.35,-1.72,890,-246,8154,-1,-1,0
-11.76,6.35,-1.73,885,-257,8153,-1,-1,0
-11.76,6.35,-1.73,886,-253,8148,0,-1,0
-11.76,6.35,-1.72,888,-254,8143,0,-1,-1
-11.76,6.35,-1.72,896,-241,8147,0,0,-1
-11.76,6.34,-1.72,894,-233,8153,-1,0,0
-11.76,6.34,-1.72,893,-233,8153,-1,-1,0
-11.76,6.34,-1.72,894,-240,8138,-1,-1,0
-11.76,6.35,-1.72,893,-252,8147,0,-1,-1
-11.76,6.35,-1.72,897,-255,8136,0,-1,-1
-11.76,6.35,-1.72,894,-250,8151,-1,0,0
-11.76,6.35,-1.72,900,-243,8137,-1,-1,0
-11.76,6.35,-1.72,903,-250,8141,-1,-1,0
-11.76,6.34,-1.72,886,-248,8153,-1,0,0
-11.76,6.34,-1.72,891,-246,8146,-1,-1,-1
-11.76,6.34,-1.73,898,-258,8148,0,0,-1
-11.76,6.34,-1.72,893,-245,8148,0,0,0
-11.76,6.34,-1.73,897,-250,8148,-1,-1,-1
-11.76,6.34,-1.72,893,-245,8162,0,-1,0
-11.76,6.34,-1.72,899,-242,8160,0,-1,-1
-11.76,6.34,-1.72,901,-242,8150,0,-1,0
-11.76,6.34,-1.72,897,-238,8146,-1,0,0
-11.76,6.34,-1.72,905,-246,8142,0,0,0
-11.76,6.34,-1.72,899,-246,8144,0,0,-1
-11.76,6.34,-1.72,902,-261,8152,-1,0,-1
-11.76,6.33,-1.72,890,-255,8155,0,0,-1
-11.76,6.33,-1.72,889,-252,8150,-1,-1,-1
-11.76,6.33,-1.72,892,-242,8143,-1,0,-1
-11.76,6.33,-1.72,891,-240,8142,-1,0,0
-11.76,6.32,-1.72,890,-242,8143,-1,0,-1
-11.76,6.32,-1.73,884,-240,8149,-1,0,0
-11.76,6.31,-1.73,882,-258,8148,-1,0,0
-11.75,6.31,-1.74,883,-265,8146,0,-1,0
-11.76,6.31,-1.74,880,-271,8129,0,0,0
-11.76,6.31,-1.74,893,-265,8133,0,0,-1
-11.76,6.30,-1.74,891,-251,8128,0,0,-1
-11.76,6.29,-1.73,888,-241,8136,-1,0,0
-11.76,6.29,-1.74,893,-250,8130,-1,0,0
-11.75,6.28,-1.75,891,-254,8136,-1,0,-1
-11.76,6.28,-1.75,884,-257,8144,-1,0,0
-11.75,6.27,-1.75,880,-263,8144,0,0,-1
-11.75,6.26,-1.75,887,-260,8135,0,0,0
-11.75,6.26,-1.75,890,-251,8140,0,0,0
-11.75,6.25,-1.75,881,-239,8142,-1,0,0
-11.75,6.24,-1.75,877,-230,8148,-1,0,-1
-11.75,6.23,-1.75,873,-230,8152,-1,0,0
-11.75,6.22,-1.75,871,-240,8154,-1,0,0
-11.76,6.21,-1.75,867,-248,8149,-1,0,0
-11.76,6.21,-1.76,869,-259,8143,-1,0,0
-11.76,6.20,-1.77,876,-260,8140,-1,0,0
-11.76,6.19,-1.76,879,-261,8141,-1,0,-1
-11.76,6.18,-1.76,876,-255,8145,-1,0,0
-11.76,6.18,-1.76,874,-249,8152,-1,0,0
-11.76,6.17,-1.77,876,-247,8148,-1,0,0
-11.76,6.16,-1.77,878,-254,8152,0,0,-1
-11.76,6.16,-1.77,874,-259,8162,0,0,0
-11.76,6.15,-1.77,872,-259,8164,0,0,-1
-11.75,6.15,-1.76,872,-247,8155,0,0,-1
-11.75,6.14,-1.76,862,-242,8150,0,0,-1
-11.75,6.14,-1.75,860,-242,8150,0,0,-1
-11.75,6.13,-1.75,862,-242,8150,0,0,-1
-11.74,6.13,-1.75,856,-243,8148,0,0,-1
-11.74,6.12,-1.74,856,-247,8138,0,0,-1
-11.74,6.12,-1.73,861,-243,8140,0,0,-1
-11.74,6.12,-1.73,868,-246,8144,0,0,-1
-11.74,6.12,-1.73,860,-250,8141,0,0,-1
-11.73,6.12,-1.73,857,-251,8150,0,0,-1
-11.73,6.12,-1.73,859,-259,8148,-1,-1,-1
-11.73,6.12,-1.73,850,-260,8152,0,-1,0
-11.73,6.12,-1.73,851,-255,8152,0,-1,-1
-11.73,6.12,-1.73,855,-255,8162,0,-1,-1
-11.73,6.13,-1.73,859,-252,8149,0,-1,-1
-11.73,6.13,-1.72,857,-249,8142,0,-1,0
-11.73,6.13,-1.72,857,-256,8138,0,-1,0
-11.73,6.14,-1.72,863,-249,8141,0,-1,0
-11.73,6.15,-1.71,871,-237,8155,0,-1,0
-11.73,6.16,-1.71,866,-236,8153,0,-1,0
-11.73,6.16,-1.70,868,-227,8151,-1,-1,0
-11.73,6.16,-1.71,868,-232,8151,-1,-1,0
-11.73,6.17,-1.71,860,-238,8146,-1,-1,0
-11.73,6.18,-1.71,868,-248,8145,0,-1,0
-11.73,6.18,-1.71,869,-251,8153,0,-1,-1
-11.73,6.19,-1.70,872,-244,8151,0,-1,0
-11.73,6.20,-1.69,883,-245,8145,0,-1,0
-11.73,6.20,-1.69,878,-242,8138,0,-1,0
