Yaw,Pitch,Roll,AX,AY,AZ,GX,GY,GZ
175.62,1.91,-35.08,264,-4752,6774,-1,0,0
175.62,1.91,-35.08,279,-4767,6777,-1,-1,0
175.61,1.92,-35.08,284,-4761,6768,0,0,0
175.61,1.92,-35.08,289,-4765,6788,-1,0,0
175.61,1.91,-35.08,264,-4745,6774,0,-1,0
175.60,1.91,-35.09,278,-4761,6778,-1,-1,0
175.61,1.92,-35.09,296,-4759,6771,0,0,0
175.61,1.91,-35.08,264,-4765,6781,-1,0,0
175.60,1.90,-35.09,263,-4756,6794,-1,-1,0
175.60,1.91,-35.10,275,-4770,6779,0,-1,-1
175.60,1.91,-35.10,269,-4773,6774,-1,-1,0
175.60,1.91,-35.10,274,-4757,6765,0,0,-1
175.60,1.91,-35.10,270,-4751,6774,-1,-1,0
175.60,1.92,-35.09,284,-4773,6787,0,-1,-1
175.60,1.92,-35.09,289,-4773,6785,-1,0,0
175.60,1.92,-35.10,260,-4745,6771,-1,-1,-1
175.60,1.93,-35.10,263,-4746,6747,-1,-1,-1
175.60,1.93,-35.11,271,-4775,6767,0,-1,-1
175.61,1.95,-35.09,280,-4772,6774,0,-1,-1
175.61,1.95,-35.09,272,-4756,6774,-1,-1,-1
175.61,1.95,-35.09,293,-4747,6772,0,0,-1
175.61,1.95,-35.09,290,-4752,6775,-1,0,0
175.61,1.95,-35.09,272,-4758,6765,-1,0,0
175.61,1.95,-35.10,271,-4775,6770,-1,0,-1
175.61,1.95,-35.10,268,-4760,6772,-1,0,0
175.61,1.95,-35.10,273,-4774,6776,-1,-1,0
175.61,1.95,-35.10,275,-4768,6795,-1,0,0
175.61,1.94,-35.11,269,-4772,6782,-1,-1,0
175.61,1.94,-35.11,297,-4766,6780,-1,0,0
175.60,1.94,-35.11,296,-4772,6781,0,0,0
175.60,1.93,-35.10,274,-4754,6797,-1,-1,0
175.60,1.94,-35.11,299,-4748,6769,-1,0,0
175.59,1.92,-35.11,266,-4747,6785,-1,0,0
175.59,1.92,-35.11,275,-4773,6782,-1,0,0
175.59,1.92,-35.11,303,-4772,6775,-1,0,0
175.58,1.91,-35.11,270,-4747,6744,0,0,0
175.57,1.90,-35.12,260,-4764,6768,-1,-1,0
175.58,1.90,-35.13,287,-4788,6764,0,0,-1
175.58,1.89,-35.11,261,-4747,6781,-1,0,-1
175.57,1.90,-35.11,264,-4750,6786,-1,-1,0
175.57,1.92,-35.12,282,-4799,6768,0,-1,-1
175.58,1.91,-35.11,288,-4767,6761,0,0,-1
175.58,1.91,-35.10,265,-4755,6790,0,0,0
175.58,1.91,-35.11,281,-4754,6759,-1,-1,0
175.57,1.90,-35.10,253,-4766,6795,0,0,-1
175.57,1.90,-35.11,261,-4769,6781,-1,0,-1
175.58,1.91,-35.11,283,-4756,6795,-1,-1,0
175.58,1.90,-35.11,282,-4769,6767,0,0,0
175.58,1.90,-35.11,278,-4764,6769,0,0,-1
175.58,1.90,-35.11,270,-4767,6793,-1,0,0
175.58,1.90,-35.11,280,-4765,6789,0,0,-1
175.58,1.90,-35.11,261,-4759,6780,0,0,-1
175.58,1.90,-35.09,256,-4737,6785,-1,-1,-1
175.59,1.91,-35.09,269,-4755,6770,0,-1,-1
175.59,1.91,-35.09,283,-4747,6801,-1,0,0
175.59,1.91,-35.08,273,-4766,6804,0,-1,0
175.59,1.91,-35.08,283,-4767,6802,-1,0,0
175.59,1.91,-35.08,270,-4764,6779,0,0,0
175.59,1.90,-35.08,261,-4730,6792,-1,0,0
175.59,1.90,-35.08,262,-4752,6775,-1,0,-1
175.60,1.90,-35.08,288,-4763,6788,-1,0,-1
175.60,1.90,-35.08,266,-4771,6783,0,-1,0
175.59,1.89,-35.08,276,-4767,6779,-1,0,0
175.59,1.89,-35.08,259,-4760,6773,0,-1,-1
175.59,1.90,-35.07,282,-4743,6780,-1,0,0
175.59,1.89,-35.06,271,-4758,6788,0,-1,-1
175.59,1.90,-35.07,281,-4751,6771,-1,0,0
175.59,1.89,-35.06,267,-4754,6775,0,0,-1
175.59,1.89,-35.06,277,-4747,6775,-1,0,0
175.59,1.89,-35.06,277,-4764,6774,0,0,-1
175.59,1.89,-35.06,281,-4750,6791,-1,0,0
175.58,1.88,-35.06,258,-4756,6790,0,-1,-1
175.58,1.88,-35.07,271,-4750,6779,-1,0,0
175.58,1.88,-35.06,249,-4760,6784,0,-1,-1
175.58,1.87,-35.06,265,-4765,6783,-1,0,0
175.58,1.87,-35.07,264,-4774,6777,0,0,-1
175.58,1.87,-35.06,263,-4749,6791,-1,0,0
175.58,1.87,-35.05,246,-4743,6782,0,-1,-1
175.58,1.87,-35.06,272,-4752,6781,-1,0,0
175.58,1.87,-35.05,264,-4766,6799,0,0,-1
175.58,1.88,-35.05,274,-4748,6787,-1,-1,0
175.58,1.89,-35.05,284,-4756,6782,-1,-1,0
175.59,1.89,-35.06,264,-4770,6773,0,-1,-1
175.58,1.89,-35.05,272,-4751,6788,-1,-1,0
175.58,1.89,-35.05,266,-4758,6794,0,0,-1
175.59,1.89,-35.05,267,-4754,6789,-1,-1,-1
175.59,1.90,-35.06,290,-4762,6783,-1,0,0
175.59,1.90,-35.06,275,-4758,6781,0,0,-1
175.59,1.90,-35.06,289,-4758,6785,-1,0,0
175.59,1.89,-35.06,268,-4754,6789,0,0,-1
175.59,1.89,-35.07,272,-4755,6773,-1,-1,0
175.59,1.90,-35.07,269,-4757,6773,-1,-1,-1
175.59,1.90,-35.08,276,-4774,6781,-1,0,-1
175.59,1.90,-35.08,273,-4761,6782,-1,0,-1
175.59,1.90,-35.08,269,-4763,6780,-1,-1,-1
175.59,1.89,-35.08,278,-4756,6781,-1,0,0
175.60,1.90,-35.08,284,-4755,6765,0,0,-1
175.59,1.89,-35.08,274,-4764,6776,-1,0,0
175.60,1.90,-35.08,269,-4746,6784,0,-1,-1
175.59,1.91,-35.08,284,-4762,6786,-1,-1,0
175.59,1.91,-35.08,271,-4750,6781,0,0,0
175.59,1.91,-35.08,285,-4752,6782,-1,-1,0
175.58,1.90,-35.09,278,-4768,6767,-1,0,0
175.58,1.89,-35.10,260,-4759,6801,-1,-1,0
175.58,1.89,-35.11,272,-4766,6775,-1,0,0
175.57,1.88,-35.11,260,-4773,6772,0,0,0
175.56,1.88,-35.11,252,-4777,6793,-1,-1,0
175.56,1.88,-35.12,272,-4763,6767,0,0,0
175.55,1.87,-35.12,264,-4777,6767,0,-1,0
175.55,1.88,-35.12,270,-4773,6778,0,-1,0
175.55,1.88,-35.12,265,-4776,6766,0,-1,0
175.55,1.88,-35.11,266,-4743,6765,-1,-1,-1
175.55,1.88,-35.12,282,-4757,6754,0,0,0
175.55,1.87,-35.11,253,-4760,6794,-1,-1,-1
175.55,1.87,-35.12,254,-4763,6768,0,0,-1
175.55,1.88,-35.11,274,-4747,6792,-1,-1,0
175.55,1.88,-35.13,266,-4768,6763,0,0,-1
175.55,1.88,-35.13,274,-4779,6779,-1,-1,0
175.55,1.88,-35.13,278,-4783,6767,0,0,0
175.55,1.88,-35.13,261,-4773,6761,-1,0,0
175.55,1.88,-35.13,282,-4761,6780,-1,-1,-1
175.55,1.88,-35.13,274,-4747,6757,0,0,-1
175.55,1.88,-35.12,263,-4744,6784,-1,-1,0
175.55,1.88,-35.13,272,-4759,6787,-1,0,0
175.54,1.88,-35.14,265,-4780,6770,-1,-1,0
175.55,1.89,-35.14,286,-4766,6782,-1,0,0
175.54,1.88,-35.14,256,-4787,6755,0,-1,-1
175.55,1.89,-35.14,291,-4765,6793,-1,-1,0
175.55,1.89,-35.14,253,-4791,6735,1,-1,-1
175.55,1.89,-35.12,278,-4753,6799,-1,-1,0
175.54,1.89,-35.13,266,-4766,6765,0,0,-1
175.54,1.89,-35.13,265,-4757,6781,-1,-1,0
175.55,1.88,-35.13,259,-4769,6773,0,0,-1
175.55,1.89,-35.14,275,-4775,6776,-1,-1,0
175.55,1.89,-35.14,259,-4773,6776,0,-1,-1
175.55,1.89,-35.14,270,-4771,6786,-1,-1,0
175.55,1.90,-35.14,290,-4774,6765,0,0,0
175.54,1.89,-35.13,269,-4759,6785,-1,-1,-1
175.54,1.90,-35.12,280,-4766,6799,0,-1,0
175.54,1.89,-35.12,280,-4749,6785,-1,0,-1
175.54,1.89,-35.12,283,-4765,6798,0,-1,0
175.54,1.89,-35.12,255,-4774,6772,-1,0,0
175.54,1.89,-35.13,275,-4755,6763,-1,-1,-1
175.54,1.89,-35.13,264,-4770,6777,0,0,-1
175.54,1.89,-35.13,247,-4785,6778,-1,-1,-1
175.55,1.89,-35.13,276,-4756,6775,0,0,-1
175.55,1.90,-35.13,260,-4788,6760,0,-1,-1
175.55,1.90,-35.12,272,-4770,6772,0,0,0
175.55,1.90,-35.12,256,-4772,6779,0,-1,-1
175.55,1.91,-35.12,290,-4769,6777,-1,0,0
175.55,1.90,-35.11,273,-4772,6800,0,-1,-1
175.56,1.90,-35.12,285,-4774,6765,-1,0,0
175.55,1.89,-35.11,241,-4757,6782,0,-1,-1
175.56,1.91,-35.11,281,-4760,6782,-1,0,0
175.56,1.89,-35.11,247,-4770,6785,0,-1,-1
175.56,1.90,-35.11,272,-4770,6775,-1,-1,0
175.56,1.90,-35.11,261,-4776,6775,0,-1,-1
175.57,1.91,-35.11,295,-4769,6756,0,-1,0
175.57,1.91,-35.10,278,-4768,6767,0,0,-1
175.57,1.90,-35.09,288,-4758,6781,0,0,0
175.56,1.90,-35.09,264,-4772,6789,0,-1,-1
175.57,1.90,-35.09,290,-4760,6782,0,0,0
175.57,1.90,-35.09,261,-4751,6777,0,-1,-1
175.57,1.90,-35.10,266,-4769,6773,0,0,-1
175.56,1.89,-35.09,266,-4755,6778,0,-1,-1
175.57,1.90,-35.09,280,-4764,6779,0,-1,0
175.57,1.90,-35.08,281,-4768,6791,0,0,-1
175.57,1.90,-35.08,280,-4755,6775,0,0,0
175.56,1.89,-35.07,266,-4757,6778,0,-1,-1
175.57,1.89,-35.06,272,-4749,6794,-1,0,-1
175.57,1.89,-35.06,260,-4746,6793,0,-1,-1
175.57,1.90,-35.07,276,-4767,6786,-1,-1,0
175.58,1.90,-35.07,272,-4773,6786,0,0,-1
175.58,1.90,-35.07,271,-4762,6773,0,0,0
175.58,1.90,-35.06,267,-4740,6781,0,-1,-1
175.57,1.90,-35.06,278,-4759,6779,-1,0,0
175.58,1.90,-35.06,268,-4757,6784,0,0,-1
175.57,1.89,-35.06,259,-4755,6773,-1,0,-1
175.57,1.89,-35.05,263,-4741,6784,0,-1,-1
175.57,1.89,-35.06,272,-4759,6771,0,-1,0
175.58,1.90,-35.05,283,-4771,6789,0,0,-1
175.57,1.90,-35.05,278,-4764,6792,0,0,-1
175.58,1.89,-35.03,274,-4736,6796,-1,0,-1
175.57,1.89,-35.04,276,-4741,6796,-1,0,0
175.57,1.88,-35.05,267,-4758,6783,-1,-1,0
175.57,1.88,-35.05,257,-4769,6775,0,-1,0
175.57,1.88,-35.05,261,-4767,6777,0,-1,-1
175.57,1.88,-35.05,260,-4762,6780,0,0,0
175.57,1.89,-35.04,278,-4754,6790,0,-1,0
175.57,1.89,-35.04,279,-4748,6779,0,0,-1
175.57,1.88,-35.03,274,-4736,6780,-1,0,0
175.57,1.88,-35.04,264,-4752,6783,-1,-1,0
175.57,1.89,-35.05,273,-4763,6778,-1,-1,-1
175.57,1.89,-35.05,262,-4762,6770,0,0,-1
175.57,1.89,-35.04,265,-4745,6772,-1,-1,0
175.57,1.89,-35.04,267,-4754,6774,-1,0,-1
175.58,1.89,-35.04,281,-4751,6785,0,0,-1
175.58,1.89,-35.04,276,-4754,6803,-1,0,0
175.58,1.89,-35.04,271,-4739,6789,-1,0,-1
175.58,1.88,-35.05,263,-4744,6789,-1,0,0
175.58,1.89,-35.05,267,-4754,6782,-1,-1,-1
175.58,1.89,-35.06,258,-4781,6770,-1,-1,-1
175.58,1.89,-35.06,259,-4766,6764,0,-1,-1
175.58,1.89,-35.06,265,-4764,6775,0,-1,0
175.58,1.90,-35.06,262,-4757,6775,-1,-1,-1
175.58,1.90,-35.06,278,-4758,6775,0,0,0
175.58,1.90,-35.05,267,-4750,6797,-1,0,0
175.58,1.90,-35.06,277,-4757,6775,-1,-1,-1
175.58,1.90,-35.06,272,-4750,6768,-1,0,0
175.58,1.90,-35.07,281,-4759,6776,0,0,-1
175.58,1.90,-35.07,283,-4767,6791,-1,0,0
175.58,1.90,-35.07,278,-4762,6782,0,0,-1
175.58,1.89,-35.08,277,-4773,6775,-1,-1,0
175.59,1.90,-35.08,269,-4769,6771,0,0,-1
175.58,1.90,-35.08,268,-4770,6773,-1,-1,0
175.59,1.90,-35.07,276,-4749,6791,0,-1,-1
175.58,1.90,-35.07,284,-4750,6793,-1,0,0
175.58,1.89,-35.07,272,-4741,6788,-1,0,0
175.58,1.89,-35.08,261,-4771,6770,0,-1,0
175.58,1.89,-35.08,265,-4764,6768,-1,-1,-1
175.58,1.89,-35.08,264,-4762,6759,-1,0,0
175.58,1.88,-35.09,255,-4747,6767,-1,0,0
175.57,1.88,-35.10,256,-4775,6777,-1,-1,-1
175.58,1.89,-35.10,271,-4788,6770,0,0,0
175.58,1.89,-35.09,273,-4772,6792,0,0,-1
175.57,1.89,-35.08,273,-4747,6778,-1,-1,0
175.58,1.89,-35.09,274,-4754,6778,-1,-1,0
175.58,1.89,-35.10,269,-4763,6784,-1,0,-1
175.58,1.89,-35.09,277,-4754,6772,0,0,-1
175.58,1.89,-35.10,286,-4759,6782,-1,-1,0
175.58,1.89,-35.10,283,-4768,6774,-1,0,0
175.58,1.89,-35.11,272,-4768,6763,-1,-1,0
175.58,1.89,-35.10,258,-4764,6780,0,-1,-1
175.57,1.90,-35.11,274,-4766,6774,-1,-1,0
175.57,1.90,-35.10,265,-4774,6776,-1,-1,-1
175.57,1.90,-35.10,268,-4762,6773,0,-1,-1
175.57,1.91,-35.09,287,-4756,6787,-1,-1,0
175.57,1.91,-35.09,288,-4766,6790,0,0,0
175.57,1.91,-35.09,284,-4754,6785,-1,0,0
175.57,1.90,-35.10,273,-4763,6775,0,0,0
175.57,1.90,-35.11,268,-4770,6774,-1,-1,0
175.57,1.90,-35.11,273,-4769,6774,0,-1,0
175.58,1.91,-35.11,273,-4776,6785,-1,0,0
175.58,1.91,-35.11,271,-4770,6764,0,0,-1
175.58,1.91,-35.11,275,-4759,6773,-1,0,0
175.58,1.91,-35.10,269,-4752,6775,0,-1,-1
175.58,1.91,-35.10,280,-4757,6775,-1,-1,0
175.58,1.91,-35.10,281,-4760,6779,-1,0,-1
175.58,1.91,-35.10,278,-4760,6768,-1,0,-1
175.59,1.92,-35.10,274,-4762,6758,0,-1,-1
175.59,1.93,-35.09,287,-4763,6769,0,-1,-1
175.59,1.94,-35.09,305,-4764,6778,0,-1,0
175.59,1.94,-35.09,292,-4766,6788,0,0,0
175.59,1.93,-35.09,284,-4757,6789,-1,0,0
175.58,1.92,-35.08,274,-4740,6792,-1,0,-1
175.59,1.92,-35.09,264,-4745,6776,-1,0,-1
175.59,1.92,-35.09,257,-4761,6770,-1,-1,-1
175.59,1.92,-35.10,262,-4776,6758,-1,-1,-1
175.59,1.93,-35.10,262,-4801,6768,0,-1,-1
175.60,1.94,-35.09,292,-4788,6776,0,-1,-1
175.60,1.95,-35.07,295,-4774,6781,0,0,-1
175.60,1.94,-35.05,303,-4740,6794,0,0,0
175.60,1.93,-35.05,296,-4737,6814,-1,0,0
175.59,1.91,-35.06,283,-4747,6802,-1,0,0
175.59,1.89,-35.08,247,-4753,6786,-1,0,0
175.58,1.88,-35.10,239,-4762,6758,-1,0,-1
175.59,1.88,-35.12,239,-4775,6736,-1,-1,-1
175.59,1.89,-35.13,266,-4782,6739,0,-1,-1
175.60,1.90,-35.12,271,-4798,6734,0,-1,-1
175.59,1.91,-35.09,296,-4797,6758,1,-1,0
175.58,1.91,-35.06,291,-4792,6795,1,0,0
175.58,1.90,-35.01,301,-4738,6826,0,0,0
175.58,1.90,-35.00,282,-4705,6831,0,0,0
175.57,1.88,-34.99,280,-4685,6831,-1,0,0
175.57,1.87,-35.02,254,-4709,6810,-2,0,0
175.57,1.86,-35.05,253,-4747,6797,-2,0,0
175.57,1.85,-35.08,247,-4784,6779,-1,0,-1
175.57,1.84,-35.10,252,-4780,6771,-1,0,0
175.58,1.84,-35.12,265,-4798,6768,-1,-1,-1
175.58,1.85,-35.13,295,-4798,6763,-1,0,0
175.57,1.85,-35.14,294,-4793,6745,0,0,0
175.55,1.82,-35.13,298,-4783,6745,0,0,0
175.55,1.80,-35.12,264,-4772,6765,0,0,0
175.53,1.78,-35.11,261,-4753,6784,-1,0,0
175.52,1.76,-35.11,237,-4743,6773,-1,0,0
175.51,1.74,-35.12,240,-4738,6758,-1,0,0
175.51,1.73,-35.13,226,-4756,6788,-1,-1,0
175.50,1.73,-35.15,245,-4786,6790,-1,0,0
175.49,1.72,-35.17,239,-4804,6767,0,0,0
175.49,1.71,-35.16,228,-4788,6743,0,0,0
175.48,1.70,-35.14,238,-4773,6786,0,0,0
175.48,1.70,-35.13,232,-4774,6819,0,0,0
175.48,1.70,-35.10,245,-4739,6826,0,0,-1
175.49,1.69,-35.09,258,-4705,6832,-1,0,-1
175.50,1.69,-35.10,253,-4693,6837,-2,0,-1
175.50,1.68,-35.14,277,-4701,6787,-2,0,0
175.50,1.66,-35.18,285,-4749,6769,-2,1,0
175.50,1.62,-35.22,240,-4810,6769,-2,1,0
175.48,1.57,-35.27,183,-4834,6758,-2,1,0
175.48,1.54,-35.33,160,-4858,6728,-2,0,-1
175.48,1.53,-35.36,144,-4864,6746,-1,-1,-1
175.49,1.55,-35.40,171,-4859,6693,-1,-1,-1
175.51,1.59,-35.41,222,-4835,6676,0,-2,-1
175.53,1.64,-35.38,310,-4814,6692,1,-1,-1
175.54,1.67,-35.35,367,-4757,6728,0,-1,0
175.52,1.67,-35.33,390,-4765,6769,0,0,1
175.50,1.64,-35.31,377,-4741,6807,-1,1,1
175.47,1.58,-35.30,307,-4732,6802,-1,2,1
175.44,1.52,-35.31,210,-4709,6787,-1,1,1
175.40,1.45,-35.33,158,-4713,6787,-2,0,0
175.39,1.41,-35.38,125,-4768,6761,-2,1,0
175.39,1.39,-35.42,96,-4823,6745,-2,-1,0
175.38,1.38,-35.46,124,-4848,6733,-1,-1,-1
175.39,1.40,-35.48,160,-4870,6696,0,-1,-1
175.39,1.41,-35.48,187,-4868,6711,0,-1,-1
175.38,1.41,-35.46,202,-4846,6728,0,-1,0
175.38,1.41,-35.44,227,-4833,6759,0,-1,0
175.37,1.41,-35.41,218,-4765,6775,0,0,0
175.36,1.39,-35.40,173,-4743,6764,-1,0,0
175.35,1.36,-35.40,134,-4753,6761,-1,0,-1
175.37,1.36,-35.42,126,-4788,6758,-1,-1,-1
175.38,1.38,-35.44,152,-4825,6797,-1,-1,-1
175.40,1.41,-35.45,183,-4827,6760,-1,-1,-1
175.41,1.42,-35.46,188,-4838,6739,0,-1,-1
175.43,1.45,-35.45,203,-4823,6696,0,-1,-1
175.43,1.45,-35.43,185,-4831,6737,0,-1,-1
175.44,1.45,-35.41,171,-4823,6772,0,0,-1
175.46,1.48,-35.38,175,-4772,6789,0,-2,-1
175.47,1.52,-35.37,180,-4755,6773,0,-2,-1
175.48,1.56,-35.37,215,-4781,6786,0,-2,-1
175.50,1.61,-35.36,265,-4771,6769,0,-2,-1
175.52,1.66,-35.35,316,-4744,6776,-1,-2,-1
175.53,1.68,-35.38,303,-4783,6748,-1,1,0
175.48,1.61,-35.42,146,-4842,6714,-2,1,1
175.47,1.56,-35.43,89,-4914,6776,1,0,-1
175.50,1.63,-35.39,128,-4862,6759,1,-4,-2
175.54,1.73,-35.32,186,-4790,6792,2,-4,-2
175.60,1.87,-35.30,358,-4700,6758,-1,-4,-2
175.66,1.99,-35.32,541,-4761,6670,0,-2,-1
175.69,2.05,-35.27,628,-4767,6780,1,0,0
175.64,1.99,-35.27,567,-4782,6834,-2,3,2
175.56,1.81,-35.32,354,-4830,6782,-2,5,2
175.49,1.64,-35.35,140,-4797,6748,-1,3,1
175.45,1.55,-35.35,-19,-4757,6732,-1,0,0
175.44,1.52,-35.39,-113,-4818,6759,-1,-2,-1
175.47,1.59,-35.43,-53,-4881,6726,-1,-4,-3
175.54,1.74,-35.43,120,-4904,6705,1,-5,-3
175.58,1.88,-35.38,273,-4868,6729,1,-5,-2
175.62,1.99,-35.33,386,-4857,6719,2,-3,-1
175.67,2.08,-35.26,504,-4810,6707,3,-2,-1
175.69,2.15,-35.15,590,-4667,6756,2,-1,0
175.68,2.14,-35.11,576,-4642,6819,-1,2,1
175.65,2.05,-35.11,487,-4652,6867,-1,3,1
175.61,1.94,-35.13,378,-4646,6883,-3,3,1
175.56,1.83,-35.20,251,-4675,6833,-3,2,1
175.52,1.74,-35.30,133,-4757,6776,-5,2,1
175.51,1.67,-35.41,75,-4855,6711,-3,0,-1
175.52,1.66,-35.48,80,-4885,6683,-2,-2,-1
175.53,1.70,-35.52,118,-4926,6628,-1,-2,-1
175.52,1.73,-35.52,139,-4945,6611,1,-2,-1
175.51,1.75,-35.47,133,-4944,6644,2,-2,0
175.49,1.77,-35.39,110,-4890,6704,3,-2,-1
175.48,1.80,-35.29,78,-4828,6759,3,-3,-1
175.50,1.88,-35.18,90,-4786,6795,3,-4,-2
175.53,1.99,-35.07,169,-4734,6820,3,-5,-3
175.58,2.12,-34.93,247,-4643,6873,4,-5,-2
175.62,2.26,-34.82,343,-4522,6903,1,-4,-2
175.66,2.36,-34.81,420,-4534,6926,-3,-3,-1
175.70,2.41,-34.89,402,-4652,6901,-3,-1,-1
175.73,2.44,-34.96,365,-4719,6844,-3,-1,-2
175.78,2.51,-35.02,374,-4754,6753,-2,-3,-2
175.84,2.62,-35.07,442,-4798,6697,-2,-4,-2
175.87,2.70,-35.12,479,-4880,6691,-1,-2,-1
175.87,2.73,-35.15,453,-4936,6729,-1,-1,0
175.88,2.76,-35.15,446,-4946,6738,1,-2,-1
175.89,2.83,-35.10,508,-4890,6712,3,-2,-1
175.90,2.88,-35.01,514,-4771,6735,3,-2,0
175.88,2.90,-34.93,503,-4673,6781,1,-1,0
175.87,2.91,-34.89,487,-4648,6814,0,-1,0
175.87,2.91,-34.89,472,-4679,6816,-1,0,0
175.87,2.91,-34.89,468,-4687,6828,-1,-1,0
175.87,2.92,-34.89,479,-4685,6834,-1,0,0
175.87,2.91,-34.89,467,-4682,6853,-1,0,0
175.85,2.87,-34.90,442,-4701,6833,-1,1,0
175.84,2.83,-34.91,383,-4688,6793,-1,1,0
175.82,2.78,-34.93,328,-4661,6775,-2,0,0
175.81,2.75,-35.00,286,-4729,6748,-3,-1,-1
175.85,2.78,-35.07,314,-4819,6687,-2,-2,-2
175.88,2.85,-35.08,395,-4849,6703,0,-3,-2
175.90,2.92,-35.08,477,-4885,6757,1,-2,0
175.89,2.93,-35.03,502,-4850,6788,2,0,0
175.87,2.91,-34.98,499,-4762,6796,1,0,1
175.84,2.88,-34.93,439,-4698,6783,1,0,0
175.83,2.86,-34.91,410,-4645,6770,0,0,0
175.84,2.86,-34.90,395,-4623,6808,-1,0,-1
175.85,2.86,-34.91,399,-4662,6848,-2,-1,0
175.84,2.85,-34.95,394,-4739,6844,-2,0,0
175.83,2.82,-34.98,336,-4781,6806,-1,0,0
175.83,2.81,-34.99,310,-4799,6769,-1,-1,0
175.82,2.82,-34.99,301,-4789,6726,0,-2,-1
175.82,2.84,-34.97,311,-4779,6754,0,-2,-1
175.83,2.88,-34.96,313,-4782,6767,0,-3,-1
175.85,2.95,-34.95,368,-4779,6756,0,-3,-1
175.86,3.01,-34.93,387,-4786,6758,1,-3,-1
175.86,3.06,-34.91,401,-4803,6770,1,-3,-1
175.88,3.12,-34.87,443,-4791,6785,2,-2,-1
175.91,3.18,-34.79,478,-4708,6787,2,-3,-1
175.93,3.26,-34.72,515,-4620,6819,1,-3,-2
175.96,3.35,-34.70,573,-4604,6806,-1,-2,-1
175.98,3.40,-34.69,621,-4614,6813,-1,-1,-1
176.00,3.42,-34.72,623,-4667,6801,-2,-1,0
176.01,3.43,-34.76,627,-4716,6803,-2,0,0
176.00,3.40,-34.81,595,-4758,6786,-2,1,0
176.00,3.37,-34.84,552,-4770,6759,-1,1,0
175.99,3.34,-34.85,521,-4766,6749,0,0,0
175.98,3.31,-34.83,473,-4733,6748,0,0,0
175.97,3.30,-34.81,447,-4691,6766,0,-1,0
175.96,3.30,-34.80,424,-4705,6776,0,-1,-1
175.96,3.32,-34.79,441,-4712,6789,0,-1,-1
175.97,3.33,-34.77,467,-4711,6815,0,-1,-1
175.97,3.34,-34.78,478,-4733,6828,-1,0,0
175.98,3.33,-34.80,482,-4733,6792,-1,0,0
175.97,3.32,-34.80,497,-4705,6761,0,0,0
175.97,3.32,-34.80,469,-4703,6749,-1,-1,0
175.96,3.32,-34.80,456,-4719,6765,0,0,0
175.96,3.30,-34.79,425,-4751,6807,0,0,0
175.95,3.26,-34.78,366,-4748,6837,0,0,-1
175.96,3.25,-34.78,353,-4737,6802,-1,-1,-1
175.99,3.30,-34.80,403,-4716,6815,-2,-3,-2
176.04,3.40,-34.85,530,-4752,6752,-2,-3,-2
176.10,3.51,-34.86,698,-4743,6738,0,-2,-1
176.10,3.54,-34.85,740,-4747,6750,0,1,1
176.07,3.48,-34.82,703,-4715,6779,1,2,1
176.03,3.40,-34.79,657,-4673,6813,0,3,1
175.98,3.31,-34.77,555,-4647,6829,-1,2,1
175.94,3.20,-34.79,456,-4649,6857,-2,3,1
175.92,3.11,-34.84,371,-4665,6848,-3,2,0
175.92,3.06,-34.91,366,-4669,6790,-3,0,-1
175.93,3.05,-34.95,407,-4670,6761,-2,0,-1
175.93,3.04,-35.02,460,-4723,6741,-3,0,0
175.93,3.00,-35.08,463,-4788,6730,-2,2,0
175.90,2.93,-35.12,433,-4843,6735,-1,2,0
175.88,2.85,-35.15,371,-4864,6761,-1,2,0
175.86,2.79,-35.15,310,-4835,6762,0,1,0
175.84,2.75,-35.14,263,-4781,6780,-1,0,0
175.84,2.75,-35.15,291,-4750,6757,-1,-1,-1
175.86,2.79,-35.18,349,-4763,6753,-1,-2,-1
175.88,2.83,-35.19,405,-4768,6734,-1,-2,-1
175.88,2.85,-35.17,442,-4755,6715,0,-1,-1
175.89,2.88,-35.14,472,-4736,6710,0,-1,-1
175.90,2.90,-35.12,493,-4735,6734,0,0,-1
175.90,2.88,-35.09,469,-4747,6798,0,1,0
175.89,2.85,-35.08,437,-4731,6837,-1,1,0
175.88,2.81,-35.10,391,-4746,6825,-2,1,0
175.88,2.80,-35.13,386,-4759,6810,-2,0,-1
175.89,2.80,-35.18,403,-4793,6766,-2,0,-1
175.91,2.81,-35.20,423,-4798,6759,-1,0,-1
175.90,2.79,-35.22,422,-4810,6732,-1,0,0
175.90,2.78,-35.23,444,-4774,6737,-1,0,0
175.89,2.75,-35.30,406,-4844,6704,-3,1,0
175.91,2.72,-35.33,385,-4898,6736,0,0,-1
175.92,2.74,-35.31,443,-4822,6758,0,0,-1
175.93,2.74,-35.29,482,-4757,6761,-1,0,0
175.93,2.73,-35.31,537,-4729,6729,-1,1,0
175.91,2.68,-35.30,533,-4668,6722,-1,2,1
175.87,2.61,-35.32,493,-4662,6725,-2,2,1
175.84,2.54,-35.36,435,-4760,6740,-2,2,1
175.80,2.43,-35.37,340,-4823,6796,0,4,1
175.75,2.28,-35.38,199,-4840,6866,-1,4,0
175.73,2.15,-35.43,105,-4813,6878,-4,3,-1
175.75,2.10,-35.55,58,-4820,6840,-6,0,-2
175.80,2.14,-35.70,150,-4919,6773,-5,-2,-3
175.86,2.22,-35.79,282,-4957,6698,-2,-2,-2
175.90,2.27,-35.82,366,-4914,6622,0,-1,-1
175.90,2.29,-35.80,426,-4848,6591,0,0,0
175.89,2.28,-35.78,466,-4842,6570,1,1,0
175.87,2.21,-35.69,396,-4802,6664,3,2,1
175.82,2.15,-35.61,339,-4758,6787,1,1,0
175.80,2.11,-35.54,320,-4712,6849,0,1,0
175.77,2.06,-35.54,268,-4740,6864,-1,1,0
175.76,2.01,-35.56,251,-4740,6848,-2,1,0
175.75,1.97,-35.59,228,-4729,6785,-2,1,0
175.74,1.93,-35.63,230,-4716,6747,-3,1,0
175.74,1.89,-35.72,181,-4830,6695,-3,1,0
175.74,1.85,-35.79,174,-4937,6705,-2,0,-1
175.75,1.86,-35.81,201,-4963,6687,0,-1,-1
175.75,1.87,-35.80,209,-4950,6702,0,-1,-1
175.76,1.88,-35.80,217,-4946,6658,0,-1,-1
175.77,1.89,-35.78,238,-4939,6666,1,-1,-1
175.77,1.91,-35.73,243,-4896,6705,1,-1,-1
175.78,1.93,-35.71,256,-4870,6714,0,-1,-1
175.79,1.96,-35.67,265,-4831,6752,1,-1,-1
175.81,1.99,-35.65,288,-4807,6727,0,-2,-2
175.84,2.05,-35.60,358,-4733,6725,1,-1,-1
175.84,2.08,-35.60,386,-4779,6746,-2,-1,0
175.85,2.10,-35.61,425,-4801,6731,1,1,0
175.83,2.06,-35.61,374,-4829,6754,-2,0,1
175.81,2.02,-35.61,316,-4845,6740,1,0,0
175.79,2.01,-35.58,322,-4783,6738,0,-1,0
175.78,2.00,-35.57,317,-4764,6720,-1,0,0
175.77,1.99,-35.59,300,-4780,6698,-1,0,0
175.75,1.97,-35.59,286,-4843,6684,0,0,0
175.73,1.97,-35.55,305,-4828,6726,1,0,0
175.70,1.93,-35.52,248,-4831,6763,0,1,1
175.67,1.88,-35.51,200,-4820,6754,0,0,0
175.66,1.85,-35.51,166,-4850,6749,-1,0,0
175.66,1.85,-35.50,139,-4867,6742,1,-1,-1
175.66,1.87,-35.46,152,-4832,6750,1,-2,-1
175.68,1.91,-35.42,194,-4786,6764,0,-3,-1
175.69,1.96,-35.41,245,-4778,6738,0,-2,-1
175.71,2.00,-35.41,267,-4809,6729,-1,-2,-1
175.73,2.05,-35.41,300,-4833,6716,0,-2,-1
175.74,2.08,-35.38,316,-4838,6708,1,-2,-1
175.74,2.11,-35.33,339,-4818,6726,1,-1,-1
175.74,2.13,-35.30,342,-4818,6737,1,-1,-1
175.74,2.15,-35.23,336,-4784,6739,2,-1,0
175.73,2.17,-35.15,321,-4738,6773,2,-2,0
175.72,2.20,-35.10,330,-4716,6748,1,-2,0
175.71,2.24,-35.07,370,-4722,6706,1,-2,-1
175.71,2.28,-35.01,406,-4710,6674,2,-2,0
175.70,2.32,-34.93,431,-4708,6701,2,-2,0
175.67,2.33,-34.90,456,-4768,6726,1,-1,1
175.64,2.32,-34.87,442,-4834,6744,2,0,1
175.58,2.27,-34.82,393,-4857,6764,2,0,2
175.52,2.24,-34.73,360,-4886,6731,5,0,1
175.46,2.20,-34.57,355,-4818,6763,6,0,1
175.41,2.17,-34.36,359,-4722,6759,8,0,1
175.34,2.13,-34.12,333,-4609,6829,7,0,1
175.26,2.08,-33.91,316,-4549,6925,5,0,2
175.18,2.04,-33.75,287,-4532,6993,4,0,2
175.11,1.98,-33.63,275,-4517,7037,2,1,1
175.07,1.90,-33.55,224,-4483,7045,1,2,1
175.03,1.83,-33.50,183,-4455,7020,0,2,0
175.03,1.78,-33.48,190,-4416,7004,-1,1,-1
175.05,1.75,-33.50,190,-4413,6982,-3,1,-1
175.06,1.73,-33.56,187,-4471,6939,-3,0,-1
175.08,1.72,-33.65,225,-4530,6917,-4,0,-1
175.11,1.71,-33.75,238,-4609,6842,-4,0,-1
175.12,1.69,-33.85,258,-4689,6806,-3,1,-1
175.13,1.67,-33.93,260,-4779,6769,-1,0,0
175.13,1.64,-33.95,247,-4858,6790,1,1,0
175.11,1.61,-33.87,221,-4804,6886,3,0,0
175.08,1.58,-33.77,175,-4690,6932,2,-1,0
175.03,1.56,-33.70,133,-4644,6858,2,-1,0
175.02,1.58,-33.60,176,-4600,6883,3,-2,-1
175.01,1.64,-33.50,231,-4570,6920,3,-2,-1
175.00,1.65,-33.39,227,-4541,6964,3,-1,0
175.01,1.66,-33.29,252,-4485,6982,2,-1,-1
175.03,1.69,-33.23,305,-4447,6982,1,-1,-1
175.05,1.70,-33.18,344,-4385,7049,0,0,-1
175.05,1.67,-33.19,321,-4371,7075,-2,1,0
175.06,1.64,-33.23,312,-4377,7075,-3,1,-1
175.07,1.62,-33.31,309,-4373,7041,-5,1,0
175.07,1.56,-33.46,254,-4428,6993,-7,1,0
175.08,1.50,-33.66,197,-4534,6903,-7,2,0
175.10,1.45,-33.85,174,-4637,6786,-6,1,-1
175.13,1.42,-34.00,170,-4693,6732,-4,1,-1
175.14,1.39,-34.12,133,-4772,6748,-4,0,-1
175.16,1.37,-34.20,142,-4860,6764,-1,0,-1
175.17,1.38,-34.21,163,-4838,6771,1,-1,-1
175.17,1.40,-34.17,206,-4785,6801,1,-1,0
175.16,1.41,-34.12,201,-4756,6790,3,-1,0
175.14,1.41,-34.00,197,-4654,6774,4,-1,0
175.12,1.43,-33.89,181,-4605,6813,3,-2,0
175.11,1.48,-33.81,225,-4621,6872,2,-2,-1
175.12,1.51,-33.71,221,-4578,6933,3,-1,-1
175.11,1.52,-33.61,244,-4501,6979,2,-1,-1
175.12,1.53,-33.54,259,-4443,6997,0,-1,-1
175.13,1.54,-33.53,272,-4442,7021,-2,0,-1
175.14,1.53,-33.55,258,-4461,7030,-2,1,-1
175.15,1.49,-33.62,233,-4471,6990,-4,1,-1
175.17,1.47,-33.72,207,-4501,6935,-5,0,-1
175.20,1.46,-33.85,210,-4574,6863,-5,0,-1
175.22,1.45,-33.98,201,-4660,6801,-4,0,-1
175.24,1.43,-34.06,195,-4698,6792,-3,0,-1
175.25,1.43,-34.15,201,-4739,6805,-3,0,-1
175.26,1.43,-34.23,238,-4796,6812,-3,-1,0
175.25,1.43,-34.31,226,-4837,6792,-2,-1,0
175.23,1.42,-34.33,226,-4870,6733,1,0,0
175.20,1.40,-34.23,212,-4779,6699,5,0,0
175.16,1.38,-34.06,173,-4639,6766,5,-1,0
175.13,1.38,-33.90,156,-4570,6864,4,-1,0
175.11,1.40,-33.79,151,-4534,6992,2,-2,0
175.10,1.42,-33.71,162,-4504,7031,1,-1,-1
175.11,1.44,-33.69,189,-4474,7014,-1,-1,-1
175.12,1.46,-33.68,222,-4451,6978,-1,0,-1
175.13,1.46,-33.74,235,-4467,6947,-4,0,-1
175.16,1.45,-33.83,249,-4517,6908,-5,1,-1
175.18,1.43,-33.96,235,-4587,6840,-5,1,-1
175.20,1.41,-34.09,207,-4671,6805,-4,1,-1
175.23,1.40,-34.19,187,-4767,6775,-2,0,-1
175.25,1.41,-34.24,207,-4808,6806,-1,0,-1
175.25,1.41,-34.24,208,-4802,6824,0,-1,0
175.24,1.42,-34.22,216,-4749,6836,0,-1,0
175.22,1.44,-34.19,224,-4723,6811,1,-1,0
175.21,1.46,-34.13,237,-4693,6783,2,-1,0
175.19,1.47,-34.05,245,-4642,6810,2,-1,0
175.17,1.47,-33.98,264,-4600,6847,2,-1,0
175.15,1.46,-33.93,266,-4579,6876,1,0,0
175.11,1.42,-33.89,222,-4556,6909,0,1,0
175.10,1.38,-33.87,177,-4576,6933,-1,1,0
175.08,1.33,-33.86,114,-4571,6960,-1,0,-1
175.08,1.32,-33.88,85,-4550,6926,-1,0,-1
175.09,1.32,-33.91,74,-4537,6884,-2,-1,-1
175.12,1.36,-33.94,116,-4592,6827,-1,-2,-2
175.15,1.41,-33.96,168,-4645,6837,-1,-2,-1
175.18,1.45,-33.95,216,-4691,6850,1,-1,-1
175.19,1.48,-33.91,225,-4675,6876,0,-1,-1
175.19,1.49,-33.89,222,-4672,6878,1,-1,-1
175.19,1.50,-33.85,192,-4648,6894,0,-1,0
175.18,1.50,-33.82,168,-4632,6891,1,-1,-1
175.19,1.53,-33.78,157,-4599,6932,0,-2,-1
175.22,1.58,-33.76,193,-4586,6933,0,-2,-2
175.25,1.63,-33.75,228,-4555,6973,-1,-2,-1
175.28,1.69,-33.77,282,-4556,6987,-2,-2,-1
175.31,1.74,-33.81,329,-4544,6978,-3,-1,-1
175.32,1.76,-33.87,348,-4543,6965,-3,0,-1
175.34,1.75,-33.95,279,-4539,6918,-5,-1,-1
175.38,1.81,-34.05,378,-4592,6814,-2,0,-1
175.39,1.79,-34.11,347,-4604,6926,-4,0,0
175.39,1.76,-34.20,311,-4623,6812,-3,1,0
175.38,1.70,-34.27,239,-4617,6835,-4,1,0
175.38,1.68,-34.37,191,-4680,6765,-3,0,-1
175.39,1.67,-34.44,157,-4727,6781,-2,0,-1
175.40,1.66,-34.49,127,-4774,6785,-2,-1,-1
175.41,1.68,-34.53,113,-4796,6802,-1,-2,-1
175.43,1.72,-34.54,137,-4789,6803,-1,-2,-1
175.45,1.78,-34.55,184,-4770,6790,-1,-3,-1
175.48,1.85,-34.56,229,-4762,6776,0,-3,-1
175.51,1.93,-34.55,298,-4752,6725,1,-3,-1
175.53,1.99,-34.52,334,-4738,6746,1,-3,-1
175.54,2.05,-34.49,385,-4744,6772,1,-2,-1
175.54,2.09,-34.44,395,-4730,6803,1,-1,-1
175.54,2.12,-34.39,415,-4689,6829,1,-1,0
175.54,2.14,-34.35,426,-4657,6835,1,-1,0
175.53,2.14,-34.30,443,-4596,6866,0,0,1
175.49,2.12,-34.27,425,-4566,6868,0,0,1
175.47,2.08,-34.27,405,-4543,6870,-1,0,1
175.43,2.06,-34.29,406,-4524,6846,-2,0,1
175.40,2.03,-34.34,386,-4578,6801,-3,1,1
175.35,1.96,-34.41,354,-4636,6749,-3,1,1
175.30,1.87,-34.50,297,-4776,6685,-2,3,1
175.26,1.75,-34.52,204,-4869,6684,1,3,1
175.21,1.64,-34.49,137,-4912,6707,3,2,0
175.18,1.57,-34.39,88,-4885,6765,4,1,0
175.14,1.53,-34.26,72,-4820,6846,4,-1,0
175.12,1.54,-34.12,99,-4739,6860,4,-2,0
175.09,1.58,-33.99,164,-4664,6830,4,-3,0
175.07,1.64,-33.85,230,-4621,6834,5,-3,0
175.03,1.67,-33.70,270,-4607,6862,5,-2,1
174.99,1.69,-33.52,304,-4582,6929,5,-1,1
174.95,1.70,-33.39,324,-4555,6956,3,-1,1
174.91,1.68,-33.29,321,-4539,6991,3,1,1
174.88,1.63,-33.21,288,-4524,7040,2,1,0
174.85,1.58,-33.14,257,-4482,7062,1,1,0
174.82,1.51,-33.09,212,-4437,7064,0,1,0
174.80,1.46,-33.08,174,-4405,7030,-1,1,0
174.79,1.41,-33.09,167,-4394,7007,-1,1,0
174.80,1.39,-33.09,167,-4394,6986,-2,0,-1
174.79,1.35,-33.14,150,-4435,6961,-3,0,0
174.80,1.34,-33.19,140,-4494,6938,-2,0,-1
174.81,1.32,-33.25,153,-4568,6924,-2,0,-1
174.83,1.31,-33.28,166,-4601,6926,-1,0,-1
174.84,1.28,-33.30,172,-4613,6927,-1,1,-1
174.85,1.26,-33.30,152,-4563,6905,0,1,-1
174.87,1.24,-33.32,152,-4548,6884,-1,0,-1
174.90,1.25,-33.34,176,-4569,6873,-1,0,-1
174.92,1.26,-33.36,186,-4607,6843,0,0,-1
174.95,1.28,-33.33,225,-4585,6838,1,-1,-1
174.96,1.30,-33.28,258,-4576,6843,1,0,-1
174.97,1.30,-33.24,266,-4591,6848,2,0,0
174.96,1.28,-33.18,256,-4622,6842,2,1,0
174.95,1.25,-33.09,221,-4636,6872,4,1,0
174.93,1.22,-32.96,190,-4624,6961,4,0,0
174.90,1.20,-32.82,177,-4571,6972,5,0,0
174.87,1.19,-32.64,156,-4458,6995,5,0,0
174.85,1.19,-32.50,152,-4422,6999,4,-1,0
174.83,1.18,-32.39,127,-4425,7034,3,-1,0
174.82,1.19,-32.28,121,-4410,7074,3,-2,-1
174.81,1.21,-32.19,141,-4376,7118,2,-1,-1
174.81,1.24,-32.13,165,-4337,7111,1,-1,-1
174.80,1.24,-32.11,178,-4310,7076,-1,0,0
174.80,1.22,-32.14,162,-4296,7016,-2,0,0
174.80,1.21,-32.20,166,-4365,6991,-2,0,-1
174.83,1.21,-32.23,192,-4400,6976,-1,0,-1
174.85,1.21,-32.24,223,-4400,6959,-1,0,-1
174.87,1.22,-32.26,275,-4379,6933,-1,0,-1
174.88,1.22,-32.31,314,-4403,6873,-2,0,0
174.87,1.17,-32.36,298,-4530,6850,-1,3,1
174.83,1.06,-32.38,226,-4669,6876,2,3,1
174.79,0.94,-32.28,136,-4657,6937,4,4,1
174.75,0.83,-32.14,26,-4558,7009,5,1,0
174.72,0.78,-32.01,41,-4483,7061,4,1,0
174.69,0.74,-31.87,15,-4386,7009,5,0,0
174.66,0.71,-31.71,4,-4325,7035,4,0,0
174.64,0.73,-31.57,38,-4308,7059,4,-2,0
174.63,0.74,-31.44,108,-4310,7077,4,-1,0
174.62,0.75,-31.28,97,-4295,7062,6,0,-1
174.61,0.74,-31.12,86,-4233,7116,4,0,-1
174.61,0.76,-30.99,137,-4219,7129,3,-1,-1
174.62,0.76,-30.87,156,-4218,7063,5,0,-1
174.62,0.74,-30.68,142,-4104,7115,5,2,-1
174.63,0.71,-30.57,114,-4088,7214,1,0,-1
174.65,0.73,-30.50,146,-4107,7242,2,0,-1
174.67,0.72,-30.46,119,-4110,7234,0,-1,-1
174.69,0.73,-30.44,144,-4090,7202,-1,0,-1
174.71,0.74,-30.47,178,-4077,7197,-3,0,-1
174.72,0.71,-30.55,158,-4150,7139,-3,1,-1
174.73,0.66,-30.65,99,-4208,7105,-4,1,0
174.73,0.60,-30.79,34,-4398,7026,-4,1,0
174.74,0.55,-30.81,11,-4384,7002,1,2,-1
174.74,0.52,-30.81,-26,-4308,7072,-2,0,-1
174.75,0.51,-30.91,-47,-4481,7090,-2,-1,-1
174.77,0.53,-30.89,-11,-4592,7069,5,-1,-2
174.80,0.55,-30.68,49,-4348,7102,7,0,-2
174.81,0.59,-30.50,68,-4143,7166,2,-3,-1
174.80,0.65,-30.47,128,-4195,7147,0,-3,0
174.82,0.70,-30.44,215,-4303,7039,3,-1,-1
174.83,0.69,-30.31,202,-4214,7065,5,1,-1
174.81,0.66,-30.18,170,-4115,7150,2,0,0
174.80,0.64,-30.10,164,-4073,7203,2,1,0
174.79,0.61,-30.01,136,-4025,7272,1,0,0
174.79,0.59,-29.97,116,-4014,7267,0,1,-1
174.78,0.56,-29.95,89,-3981,7285,-2,0,0
174.77,0.53,-29.99,56,-4001,7249,-3,0,0
174.76,0.50,-30.04,37,-4044,7197,-3,0,0
174.75,0.47,-30.11,0,-4103,7162,-3,-1,-1
174.76,0.48,-30.16,10,-4159,7116,-1,-1,-1
174.78,0.51,-30.17,59,-4181,7134,-1,-1,-1
174.81,0.54,-30.19,118,-4173,7153,-1,-1,-1
174.81,0.54,-30.19,162,-4125,7146,-1,0,0
174.79,0.52,-30.21,157,-4150,7097,-1,0,1
174.77,0.47,-30.16,28,-4200,6967,3,1,-1
174.80,0.43,-30.06,50,-4295,7217,3,1,-2
174.83,0.44,-29.96,68,-4300,7282,2,-1,-1
174.86,0.45,-29.90,-29,-4274,7172,4,0,-2
174.88,0.47,-29.77,8,-4038,7069,3,-2,-1
174.88,0.50,-29.68,82,-3882,7072,0,-1,0
174.87,0.51,-29.69,102,-4091,7143,-1,-1,0
174.88,0.51,-29.67,78,-4344,7123,6,1,-2
174.92,0.46,-29.46,55,-4283,7306,7,2,-2
174.94,0.47,-29.28,93,-4092,7387,3,-1,-1
174.95,0.49,-29.22,99,-4058,7255,2,0,-1
174.97,0.47,-29.11,61,-4055,7180,5,1,-2
175.00,0.44,-28.93,83,-3984,7219,5,1,-1
175.02,0.42,-28.78,90,-3906,7245,3,2,-1
175.04,0.34,-28.71,18,-3937,7272,3,4,-2
175.06,0.23,-28.59,-65,-3939,7344,4,3,-1
175.08,0.16,-28.41,-33,-3724,7501,3,1,-2
175.11,0.21,-28.41,78,-3616,7573,-7,-1,-1
175.16,0.19,-28.59,23,-3795,7383,-6,2,-2
175.20,0.13,-28.69,-24,-3836,7328,-4,2,-2
175.25,0.13,-28.77,14,-3787,7287,-5,0,-3
175.32,0.15,-28.93,83,-3755,7261,-9,1,-2
175.38,0.14,-29.19,34,-3894,7185,-10,1,-2
175.43,0.09,-29.45,-21,-4097,7135,-7,2,-2
175.49,0.07,-29.55,-46,-4009,7278,-4,0,-3
175.53,0.15,-29.68,-19,-3829,7460,-10,-5,-2
175.58,0.32,-29.99,42,-3866,7478,-15,-7,-1
175.61,0.45,-30.45,87,-4152,7260,-16,-5,-1
175.67,0.53,-30.84,121,-4352,7041,-11,-2,-2
175.73,0.60,-31.13,158,-4336,7011,-10,-2,-2
175.77,0.67,-31.43,197,-4374,6944,-12,-1,0
175.79,0.66,-31.75,143,-4578,6833,-8,0,-1
175.80,0.65,-31.97,124,-4667,6843,-5,0,0
175.82,0.66,-32.11,118,-4656,6850,-3,-1,-1
175.82,0.65,-32.20,107,-4679,6834,-2,0,0
175.82,0.64,-32.20,87,-4630,6865,1,0,0
175.81,0.64,-32.17,60,-4600,6910,2,-2,0
175.79,0.67,-32.10,54,-4556,6969,2,-2,0
175.78,0.70,-32.05,66,-4539,6975,3,-2,0
175.77,0.73,-31.95,76,-4490,6977,4,-2,0
175.76,0.76,-31.80,97,-4365,6977,4,-2,0
175.75,0.79,-31.65,98,-4285,7038,4,-1,-1
175.74,0.81,-31.55,119,-4275,7084,2,-1,-1
175.76,0.83,-31.49,127,-4291,7091,2,-1,-1
175.77,0.84,-31.41,154,-4289,7070,3,0,-1
175.79,0.84,-31.28,131,-4211,7106,4,0,-1
175.79,0.82,-31.18,91,-4112,7112,1,0,-1
175.81,0.82,-31.15,117,-4118,7089,-1,1,-1
175.84,0.81,-31.15,86,-4147,7120,-1,0,-2
175.86,0.83,-31.18,99,-4141,7190,-4,-2,-1
175.87,0.89,-31.28,117,-4177,7153,-5,-3,-1
175.89,0.94,-31.40,151,-4231,7055,-5,-2,0
175.90,0.98,-31.51,162,-4317,7027,-4,-2,-1
175.90,1.01,-31.59,178,-4432,7043,-2,-1,-1
175.91,1.03,-31.60,188,-4416,7113,-1,-1,0
175.91,1.05,-31.65,177,-4416,7085,-2,-1,0
175.91,1.04,-31.70,191,-4427,7020,-2,0,0
175.90,1.00,-31.71,145,-4398,7000,0,1,-1
175.88,0.95,-31.72,111,-4369,7036,-1,1,0
175.89,0.93,-31.73,96,-4384,7030,-1,0,-1
175.89,0.91,-31.74,82,-4419,7018,0,0,-1
175.91,0.89,-31.71,70,-4410,7036,1,0,-1
175.91,0.87,-31.66,81,-4439,7032,2,1,-2
175.94,0.83,-31.59,56,-4400,7029,2,2,-2
175.97,0.79,-31.54,11,-4340,7050,1,1,-2
176.01,0.78,-31.51,20,-4293,6967,1,0,-2
176.04,0.77,-31.43,-8,-4305,7073,3,0,-2
176.06,0.78,-31.35,-25,-4253,7208,0,-2,-1
176.08,0.83,-31.36,-44,-4257,7243,-2,-3,-1
176.09,0.86,-31.42,-81,-4330,7261,-2,-3,-1
176.09,0.92,-31.42,-89,-4327,7329,-1,-4,-1
176.09,1.02,-31.44,-56,-4283,7425,-3,-6,-2
176.15,1.23,-31.55,31,-4103,7508,-9,-10,-2
176.22,1.54,-31.85,125,-4040,7414,-15,-14,-2
176.28,1.93,-32.33,293,-4081,7117,-20,-15,0
176.33,2.28,-32.91,498,-4168,6734,-21,-13,0
176.39,2.60,-33.48,650,-4313,6394,-18,-11,0
176.42,2.81,-33.93,758,-4578,6367,-12,-6,1
176.39,2.90,-34.24,749,-4875,6533,-7,-4,3
176.31,2.89,-34.38,651,-5042,6609,-2,-1,3
176.21,2.81,-34.41,508,-5005,6619,1,1,3
176.14,2.73,-34.40,432,-5009,6611,1,1,2
176.10,2.62,-34.33,347,-5068,6541,6,4,-1
176.08,2.48,-34.10,233,-4861,6652,9,4,-1
176.05,2.40,-33.85,183,-4636,6882,6,0,0
176.03,2.40,-33.68,170,-4583,6993,4,-2,-1
176.04,2.48,-33.56,245,-4468,6934,2,-4,-1
176.04,2.57,-33.50,305,-4438,6825,1,-4,-1
176.06,2.68,-33.46,397,-4466,6751,2,-4,-1
176.08,2.78,-33.37,448,-4549,6729,5,-4,-1
176.08,2.86,-33.21,571,-4648,6800,7,-1,0
176.04,2.87,-32.98,549,-4639,6930,9,-1,0
175.98,2.87,-32.76,602,-4560,7000,6,0,2
175.91,2.85,-32.59,587,-4506,6980,5,-1,2
175.83,2.84,-32.45,620,-4388,6813,5,0,2
175.74,2.79,-32.26,570,-4372,6716,8,2,2
175.62,2.66,-31.98,412,-4449,6953,11,2,3
175.50,2.57,-31.67,312,-4478,7218,10,0,2
175.41,2.51,-31.39,225,-4442,7314,8,-1,1
175.32,2.50,-31.15,185,-4292,7198,7,-2,1
175.27,2.51,-30.94,226,-4210,7107,7,-2,0
175.24,2.53,-30.73,253,-4185,7114,6,-2,0
175.21,2.57,-30.54,260,-4196,7209,6,-3,0
175.18,2.62,-30.36,283,-4134,7212,4,-3,0
175.15,2.66,-30.24,304,-4162,7227,3,-3,0
175.14,2.69,-30.15,382,-4158,7225,2,0,0
175.13,2.66,-30.10,402,-4147,7260,1,1,-1
175.12,2.61,-30.08,383,-4079,7288,-1,2,0
175.10,2.55,-30.10,371,-4058,7255,-3,2,0
175.08,2.49,-30.16,317,-4027,7215,-3,1,0
175.07,2.46,-30.21,276,-3989,7232,-4,0,0
175.09,2.47,-30.27,236,-4000,7242,-3,-2,-2
175.13,2.55,-30.34,281,-4012,7219,-4,-3,-2
175.19,2.65,-30.45,327,-4070,7148,-5,-4,-3
175.26,2.76,-30.58,432,-4143,7078,-5,-3,-2
175.31,2.84,-30.72,492,-4207,7029,-5,-2,-2
175.35,2.87,-30.85,547,-4276,7022,-4,0,-1
175.36,2.86,-30.95,541,-4310,7036,-4,1,0
175.38,2.83,-31.05,503,-4326,7039,-3,1,0
175.39,2.84,-31.13,509,-4329,7004,-3,0,0
175.40,2.84,-31.18,491,-4347,6967,-1,-1,-1
175.40,2.86,-31.20,495,-4355,6958,0,-1,0
175.39,2.87,-31.17,478,-4325,6985,1,-2,0
175.38,2.91,-31.12,486,-4337,6974,2,-2,0
175.35,2.94,-31.03,504,-4363,6991,4,-2,0
175.32,2.96,-30.92,518,-4347,7008,4,-1,1
175.27,2.93,-30.78,477,-4329,7049,5,0,1
175.22,2.89,-30.63,475,-4290,7128,4,1,1
175.17,2.82,-30.50,389,-4289,7181,4,1,0
175.12,2.75,-30.37,334,-4196,7218,3,1,1
175.08,2.69,-30.27,275,-4107,7189,2,0,0
175.04,2.65,-30.23,258,-4103,7198,0,0,0
175.03,2.63,-30.21,225,-4103,7185,-1,-1,-1
175.03,2.64,-30.20,243,-4138,7163,0,-1,-1
175.04,2.67,-30.17,296,-4113,7145,1,-2,-1
175.05,2.71,-30.12,336,-4111,7123,2,-2,-1
175.07,2.74,-30.07,408,-4141,7118,1,-1,-1
175.09,2.77,-30.01,426,-4175,7141,2,-1,-2
175.12,2.81,-29.92,508,-4132,7187,2,0,-1
175.13,2.82,-29.87,528,-4151,7195,1,0,-1
175.11,2.79,-29.80,513,-4090,7199,2,2,0
175.10,2.74,-29.70,470,-3974,7165,2,1,0
175.09,2.70,-29.65,424,-3994,7188,0,2,0
175.07,2.62,-29.64,338,-4036,7219,0,2,0
175.06,2.54,-29.62,246,-4015,7226,0,1,-1
175.07,2.51,-29.63,245,-3988,7247,-2,0,-1
175.09,2.52,-29.67,254,-4043,7231,-2,-1,-2
175.13,2.54,-29.73,300,-4094,7224,-3,-1,-1
175.17,2.58,-29.79,330,-4117,7178,-2,-2,-2
175.19,2.62,-29.85,402,-4128,7142,-2,-1,-1
175.22,2.66,-29.91,453,-4149,7121,-2,-1,-1
175.23,2.67,-29.96,480,-4194,7106,-1,0,0
175.23,2.66,-29.98,488,-4211,7102,0,1,0
175.20,2.62,-29.97,453,-4222,7092,1,1,0
175.18,2.59,-29.94,430,-4192,7118,1,1,1
175.14,2.54,-29.88,368,-4159,7135,2,1,0
175.12,2.49,-29.82,336,-4145,7151,1,1,0
175.09,2.44,-29.77,283,-4158,7154,2,0,0
175.07,2.42,-29.72,278,-4140,7192,2,0,0
175.06,2.40,-29.64,286,-4076,7197,2,-1,-1
175.06,2.41,-29.60,309,-4066,7229,1,-1,-1
175.06,2.43,-29.56,343,-4074,7267,1,-1,-1
175.05,2.42,-29.54,356,-4061,7272,0,0,0
175.04,2.40,-29.52,366,-4042,7248,0,0,0
175.03,2.37,-29.50,369,-4003,7213,0,1,0
175.03,2.35,-29.49,350,-3986,7207,-1,0,0
175.02,2.33,-29.50,339,-4003,7205,-2,0,-1
175.02,2.30,-29.54,326,-4059,7234,-2,1,0
175.03,2.27,-29.58,313,-4050,7236,-2,0,0
175.03,2.24,-29.64,288,-4078,7218,-2,1,0
175.03,2.20,-29.68,276,-4080,7186,-2,0,-1
175.04,2.19,-29.72,280,-4090,7169,-2,0,-1
175.06,2.19,-29.77,307,-4114,7149,-2,0,-1
175.08,2.19,-29.82,326,-4169,7141,-2,0,-1
175.09,2.19,-29.85,352,-4174,7123,-1,0,-1
175.08,2.19,-29.85,353,-4184,7111,0,-1,0
175.08,2.18,-29.84,365,-4159,7151,0,0,0
175.06,2.16,-29.82,323,-4164,7163,1,0,0
175.04,2.14,-29.81,311,-4157,7179,0,0,0
175.03,2.12,-29.78,283,-4149,7156,1,-1,0
175.02,2.12,-29.74,296,-4115,7171,1,0,0
175.02,2.12,-29.68,292,-4080,7171,1,-1,-1
175.02,2.13,-29.64,317,-4065,7219,1,0,0
175.02,2.12,-29.60,326,-4038,7217,0,0,-1
175.02,2.11,-29.59,335,-4031,7233,-1,0,0
175.02,2.10,-29.60,320,-4039,7230,-2,0,0
175.01,2.07,-29.64,314,-4052,7250,-2,0,0
175.02,2.05,-29.66,288,-4028,7225,-2,0,0
175.02,2.03,-29.71,266,-4047,7200,-2,0,-1
175.03,2.03,-29.76,262,-4072,7164,-2,-1,-1
175.04,2.04,-29.79,267,-4111,7151,-1,-1,-1
175.06,2.05,-29.81,293,-4129,7168,-1,0,-1
175.07,2.06,-29.82,306,-4131,7178,-1,0,-1
175.08,2.06,-29.82,345,-4122,7189,-1,0,-1
175.09,2.05,-29.85,342,-4140,7168,-1,0,-1
175.09,2.03,-29.88,335,-4132,7156,-2,0,0
175.07,2.01,-29.91,311,-4143,7127,-1,0,0
175.06,1.98,-29.92,292,-4161,7133,-1,0,0
175.05,1.97,-29.92,267,-4176,7148,0,0,0
175.04,1.95,-29.91,263,-4160,7151,0,0,0
175.04,1.95,-29.89,249,-4154,7150,0,-1,-1
175.03,1.94,-29.87,268,-4152,7167,0,0,0
175.03,1.94,-29.84,270,-4143,7156,1,0,-1
175.02,1.93,-29.81,260,-4117,7155,1,0,0
175.01,1.94,-29.75,267,-4082,7143,1,-1,-1
175.02,1.96,-29.71,270,-4092,7199,1,-1,-1
175.03,1.98,-29.66,298,-4080,7209,1,-1,-1
175.02,1.99,-29.63,294,-4065,7239,0,-1,-1
175.03,2.02,-29.61,292,-4055,7239,0,-1,-1
175.04,2.04,-29.60,319,-4030,7257,-1,-1,-1
175.05,2.05,-29.61,312,-4051,7246,-2,-1,-1
175.07,2.06,-29.65,329,-4033,7247,-2,0,-1
175.08,2.04,-29.69,294,-4020,7204,-3,0,-1
175.09,2.03,-29.76,300,-4064,7199,-3,0,0
175.11,2.03,-29.83,260,-4133,7169,-2,0,-1
175.13,2.02,-29.89,274,-4218,7157,-1,0,-1
175.15,2.00,-29.91,260,-4211,7101,0,1,-2
175.19,1.98,-29.91,264,-4227,7079,0,1,-2
175.21,1.94,-29.90,256,-4262,7078,1,2,-2
175.24,1.91,-29.85,236,-4271,7109,3,1,-2
175.26,1.88,-29.74,226,-4167,7144,3,1,-1
175.27,1.87,-29.63,198,-4098,7163,3,-1,-2
175.29,1.88,-29.51,222,-4030,7221,3,-1,-1
175.31,1.92,-29.42,219,-4001,7220,2,-2,-1
175.32,1.95,-29.38,228,-3966,7284,0,-2,-1
175.33,2.00,-29.36,209,-3959,7298,-1,-3,-1
175.35,2.07,-29.40,271,-3990,7291,-2,-3,-1
175.40,2.14,-29.45,349,-4007,7197,-2,-1,-2
175.45,2.18,-29.49,386,-4032,7173,-2,-1,-2
175.51,2.21,-29.52,420,-4006,7176,-2,0,-2
175.54,2.23,-29.55,425,-4027,7151,-2,0,-2
175.58,2.21,-29.60,441,-4054,7153,-2,2,-1
175.59,2.17,-29.64,400,-4155,7138,-1,1,-1
175.60,2.12,-29.65,368,-4163,7159,0,2,0
175.59,2.08,-29.62,327,-4129,7149,1,1,-1
175.59,2.05,-29.61,324,-4115,7166,0,1,0
175.58,2.02,-29.59,289,-4140,7141,1,1,-1
175.58,2.00,-29.53,268,-4107,7160,2,-1,0
175.57,2.00,-29.47,266,-4073,7128,2,-1,-1
175.56,2.00,-29.40,280,-4061,7144,2,-1,-1
175.57,2.01,-29.33,315,-4045,7160,2,-1,-1
175.58,2.03,-29.24,363,-4031,7179,2,-1,-1
175.58,2.05,-29.15,399,-4003,7163,3,0,0
175.56,2.03,-29.05,395,-4002,7149,3,1,0
175.54,1.98,-28.97,385,-4001,7188,2,2,1
175.49,1.88,-28.94,334,-4083,7256,1,3,1
175.45,1.75,-28.91,249,-4126,7371,1,4,1
175.40,1.63,-28.89,140,-4107,7423,0,2,1
175.35,1.54,-28.87,79,-4034,7432,0,1,1
175.30,1.49,-28.86,11,-3953,7363,0,-1,0
175.27,1.47,-28.84,-1,-3906,7307,-1,-2,0
175.27,1.52,-28.85,24,-3932,7211,-1,-3,-1
175.29,1.59,-28.87,73,-3952,7136,-1,-4,-2
175.32,1.66,-28.86,109,-3954,7067,1,-2,-2
175.34,1.71,-28.83,129,-3960,7038,1,-2,-2
175.39,1.77,-28.76,175,-4015,7086,3,-2,-3
175.45,1.86,-28.67,255,-4059,7195,3,-3,-3
175.53,1.98,-28.56,377,-4061,7286,4,-3,-3
175.59,2.10,-28.43,472,-4025,7334,4,-3,-2
175.61,2.20,-28.28,565,-3989,7284,5,-2,-1
175.60,2.26,-28.11,612,-3949,7233,6,0,0
175.57,2.23,-27.91,585,-3920,7274,7,2,1
175.53,2.14,-27.71,525,-3858,7306,6,4,1
175.48,2.02,-27.54,433,-3824,7377,5,4,1
175.43,1.89,-27.38,363,-3780,7424,4,5,1
175.40,1.74,-27.28,259,-3729,7480,2,5,0
175.37,1.58,-27.24,157,-3689,7501,-1,5,0
175.35,1.44,-27.24,58,-3639,7496,-2,3,0
175.35,1.35,-27.30,32,-3634,7437,-4,2,-1
175.36,1.29,-27.42,4,-3652,7392,-5,1,-1
175.38,1.26,-27.57,20,-3702,7364,-7,0,-1
175.40,1.26,-27.74,41,-3795,7344,-6,-1,-1
175.43,1.27,-27.90,62,-3869,7336,-6,-1,-1
175.45,1.31,-28.04,93,-3918,7301,-5,-2,-1
175.48,1.34,-28.15,137,-3970,7272,-4,-2,-1
175.51,1.38,-28.23,168,-3984,7248,-2,-2,-1
175.55,1.46,-28.28,233,-3993,7226,-2,-3,-2
175.58,1.54,-28.29,286,-3965,7204,0,-2,-1
175.59,1.58,-28.28,302,-3941,7189,0,-1,-1
175.59,1.59,-28.27,298,-3926,7164,0,0,0
175.58,1.55,-28.27,254,-3951,7197,0,1,0
175.58,1.53,-28.26,223,-3978,7230,0,0,-1
175.58,1.52,-28.26,192,-4021,7298,0,0,-1
175.59,1.53,-28.23,178,-3989,7315,0,-1,-1
175.59,1.55,-28.21,186,-3964,7321,0,-2,-1
175.61,1.59,-28.19,230,-3949,7305,0,-1,-1
175.62,1.63,-28.17,261,-3966,7291,1,-2,-1
175.63,1.67,-28.12,305,-3936,7320,1,-1,0
175.62,1.70,-28.06,321,-3893,7352,2,-2,0
175.62,1.74,-28.00,348,-3839,7360,1,-1,0
175.60,1.77,-27.96,350,-3790,7370,0,-1,0
175.58,1.75,-27.95,367,-3814,7333,0,1,0
175.57,1.69,-27.94,324,-3804,7290,0,2,0
175.56,1.59,-27.94,296,-3755,7288,-2,4,0
175.55,1.49,-27.96,233,-3763,7297,-2,3,0
175.54,1.39,-28.00,143,-3798,7317,-2,3,-1
175.55,1.32,-28.03,82,-3808,7310,-2,1,-1
175.56,1.29,-28.09,61,-3846,7302,-3,0,-1
175.58,1.29,-28.15,52,-3883,7239,-2,-1,-2
175.60,1.30,-28.19,81,-3892,7210,-2,-1,-1
175.62,1.34,-28.24,103,-3952,7196,-1,-2,-2
175.65,1.39,-28.25,160,-3990,7242,-1,-2,-1
175.67,1.45,-28.26,185,-4037,7242,1,-2,-1
175.68,1.50,-28.24,226,-4024,7269,1,-2,0
175.68,1.54,-28.20,244,-3987,7278,1,-2,-1
175.67,1.57,-28.15,270,-3975,7319,1,-2,0
175.66,1.61,-28.11,260,-3963,7305,2,-2,0
175.64,1.63,-28.04,230,-3942,7323,2,-2,0
175.64,1.68,-27.98,223,-3883,7332,2,-2,0
175.64,1.73,-27.93,284,-3824,7289,0,-2,-1
175.64,1.75,-27.90,346,-3813,7251,1,1,0
175.62,1.72,-27.86,317,-3776,7311,0,1,0
175.59,1.68,-27.85,297,-3763,7482,-2,1,1
175.55,1.64,-27.88,228,-3804,7540,-3,0,0
175.53,1.62,-27.95,209,-3773,7500,-4,0,0
175.52,1.62,-28.06,205,-3758,7375,-5,-1,0
175.51,1.61,-28.20,193,-3778,7283,-6,-1,0
175.52,1.61,-28.34,182,-3844,7208,-5,-1,-1
175.53,1.61,-28.48,182,-3911,7186,-5,-1,-1
175.56,1.62,-28.61,206,-3972,7184,-4,0,-1
175.58,1.62,-28.71,207,-4013,7188,-4,0,-1
175.59,1.61,-28.80,212,-4048,7211,-3,0,-1
175.59,1.60,-28.89,195,-4081,7216,-3,-1,-1
175.60,1.63,-28.95,225,-4098,7176,-2,-1,0
175.60,1.64,-28.98,208,-4123,7122,0,-1,-1
175.60,1.66,-28.97,221,-4115,7118,1,-1,0
175.60,1.69,-28.93,226,-4123,7125,2,-2,-1
175.60,1.73,-28.86,261,-4105,7168,3,-2,-1
175.60,1.76,-28.76,295,-4078,7204,3,-1,-1
175.59,1.77,-28.66,333,-4056,7244,3,0,0
175.58,1.77,-28.55,356,-3999,7279,4,0,0
175.55,1.74,-28.43,344,-3945,7310,3,1,0
175.53,1.70,-28.33,315,-3874,7329,2,1,1
175.49,1.65,-28.26,271,-3852,7343,1,1,0
175.46,1.58,-28.21,224,-3821,7365,0,1,1
175.43,1.53,-28.18,169,-3807,7384,0,0,0
175.42,1.50,-28.19,165,-3776,7386,-2,0,0
175.42,1.48,-28.21,143,-3787,7369,-2,0,-1
175.42,1.48,-28.27,164,-3813,7341,-3,0,-1
175.44,1.48,-28.35,178,-3852,7300,-3,0,-1
175.46,1.47,-28.43,176,-3882,7271,-4,0,-1
175.47,1.47,-28.52,183,-3926,7244,-3,0,-1
175.48,1.46,-28.59,190,-3964,7227,-3,0,-1
175.49,1.46,-28.65,197,-4002,7219,-2,0,-1
175.50,1.47,-28.69,194,-4044,7211,-1,-1,-1
175.50,1.48,-28.71,197,-4059,7219,-1,-1,-1
175.51,1.48,-28.70,198,-4071,7221,1,-1,-1
175.52,1.49,-28.67,215,-4060,7225,1,-1,-1
175.52,1.51,-28.63,222,-4040,7235,2,-1,-1
175.53,1.53,-28.57,249,-4017,7254,2,-1,-1
175.53,1.55,-28.50,261,-3967,7263,2,-1,-1
175.53,1.56,-28.43,280,-3927,7304,1,0,-1
175.53,1.56,-28.38,283,-3895,7313,1,0,0
175.52,1.54,-28.35,271,-3885,7328,0,0,0
175.51,1.53,-28.32,248,-3866,7321,0,0,0
175.50,1.50,-28.33,234,-3853,7323,-1,0,0
175.50,1.48,-28.34,219,-3846,7317,-2,0,0
175.50,1.47,-28.39,211,-3884,7300,-2,0,0
175.49,1.45,-28.43,195,-3910,7295,-2,0,0
175.49,1.43,-28.48,189,-3928,7270,-2,0,0
175.50,1.42,-28.53,176,-3953,7248,-2,0,-1
175.50,1.41,-28.57,185,-3997,7240,-2,0,-1
175.50,1.41,-28.59,193,-4008,7232,-1,0,0
175.50,1.40,-28.60,197,-4008,7230,0,0,0
175.49,1.40,-28.60,198,-4011,7221,0,0,0
175.49,1.40,-28.59,190,-4026,7226,1,-1,0
175.48,1.40,-28.55,190,-4017,7227,1,-1,0
175.47,1.39,-28.52,188,-3997,7252,1,0,0
175.46,1.40,-28.46,187,-3958,7283,1,-1,-1
175.46,1.41,-28.42,201,-3941,7291,1,-1,-1
175.47,1.43,-28.37,216,-3918,7302,1,-1,-1
175.47,1.43,-28.33,236,-3897,7310,1,-1,-1
175.47,1.44,-28.30,234,-3872,7311,0,0,0
175.47,1.43,-28.29,228,-3874,7325,0,0,0
175.47,1.42,-28.29,229,-3868,7325,-1,0,-1
175.47,1.41,-28.31,240,-3892,7321,-1,0,0
175.47,1.39,-28.34,234,-3898,7287,-1,0,0
175.47,1.37,-28.36,232,-3911,7281,-1,0,0
175.46,1.36,-28.37,223,-3906,7261,-1,0,0
175.44,1.31,-28.41,195,-3943,7259,-2,1,0
175.42,1.27,-28.45,151,-3966,7238,-2,1,0
175.41,1.22,-28.48,134,-4002,7240,-1,0,0
175.41,1.21,-28.49,119,-4009,7243,0,0,-1
175.41,1.21,-28.47,122,-3980,7255,0,-1,-1
175.41,1.23,-28.45,150,-3959,7244,0,-1,-1
175.42,1.25,-28.44,162,-3983,7258,0,-1,-1
175.42,1.28,-28.41,188,-3974,7272,1,-1,-1
175.43,1.30,-28.37,199,-3947,7272,1,-1,-1
175.43,1.32,-28.33,219,-3913,7291,1,-1,-1
175.43,1.34,-28.29,224,-3886,7311,0,-1,-1
175.44,1.35,-28.26,224,-3881,7310,0,-1,-1
175.43,1.35,-28.24,214,-3874,7299,0,0,0
175.43,1.33,-28.23,169,-3871,7287,0,0,-1
175.43,1.33,-28.23,174,-3874,7300,-1,0,-1
175.44,1.34,-28.25,163,-3875,7312,-1,-1,-1
175.45,1.35,-28.28,187,-3905,7318,-2,-1,-1
175.47,1.36,-28.31,195,-3901,7310,-2,-1,-1
175.46,1.37,-28.35,203,-3914,7285,-2,-1,0
175.47,1.38,-28.39,213,-3914,7247,-2,-1,0
175.47,1.38,-28.42,207,-3959,7235,-1,-1,-1
175.47,1.38,-28.43,215,-3965,7240,-1,0,0
175.47,1.38,-28.44,190,-3989,7246,0,-1,-1
175.47,1.38,-28.44,204,-3975,7267,0,0,0
175.46,1.38,-28.44,179,-3987,7249,0,-1,-1
175.46,1.38,-28.42,200,-3966,7259,0,0,0
175.46,1.38,-28.41,186,-3955,7271,0,-1,-1
175.47,1.38,-28.40,195,-3929,7301,0,0,0
175.47,1.39,-28.38,191,-3935,7291,0,-1,-1
175.47,1.41,-28.37,217,-3927,7311,0,-1,0
175.47,1.42,-28.36,205,-3914,7296,0,-1,-1
175.47,1.42,-28.36,213,-3909,7311,-1,-1,0
175.47,1.43,-28.36,207,-3907,7317,-1,-1,-1
175.47,1.43,-28.37,214,-3897,7322,-1,-1,-1
175.48,1.44,-28.38,210,-3884,7302,-1,-1,-1
175.48,1.44,-28.40,209,-3896,7286,-1,-1,-1
175.48,1.44,-28.41,220,-3900,7283,-1,-1,-1
175.49,1.45,-28.44,219,-3941,7275,-1,-1,-1
175.50,1.45,-28.46,222,-3939,7291,-1,0,0
175.50,1.44,-28.48,212,-3949,7277,-1,-1,-1
175.50,1.44,-28.50,215,-3956,7256,-1,0,0
175.50,1.45,-28.51,204,-3982,7240,0,-1,-1
175.50,1.45,-28.51,208,-3977,7248,0,0,0
175.51,1.46,-28.51,203,-3981,7228,0,-1,-1
175.51,1.46,-28.50,210,-3976,7255,0,-1,0
175.52,1.47,-28.48,215,-3974,7257,1,-1,-1
175.52,1.48,-28.46,231,-3950,7271,0,-1,0
175.52,1.49,-28.44,226,-3933,7269,0,-1,-1
175.51,1.49,-28.41,220,-3921,7295,0,-1,0
175.51,1.48,-28.40,216,-3907,7291,0,0,-1
175.51,1.48,-28.40,216,-3904,7299,-1,0,0
175.51,1.47,-28.40,199,-3900,7295,-1,0,-1
175.51,1.47,-28.42,208,-3913,7290,-1,-1,0
175.51,1.48,-28.44,202,-3915,7277,-1,-1,-1
175.52,1.48,-28.46,205,-3929,7270,-1,-1,-1
175.53,1.50,-28.48,220,-3933,7258,-1,-1,-1
175.53,1.49,-28.50,230,-3948,7249,-1,0,-1
175.54,1.50,-28.52,231,-3961,7246,-1,0,-1
175.54,1.50,-28.53,229,-3978,7240,-1,-1,0
175.53,1.50,-28.54,232,-4000,7251,0,0,0
175.53,1.49,-28.52,220,-3986,7260,0,-1,0
175.52,1.49,-28.51,204,-3964,7267,0,0,0
175.51,1.48,-28.50,195,-3965,7255,0,-1,0
175.51,1.49,-28.48,188,-3949,7266,0,-1,0
175.51,1.49,-28.47,198,-3937,7274,0,-1,-1
175.51,1.49,-28.45,216,-3921,7286,0,-1,0
175.52,1.51,-28.45,223,-3915,7280,-1,-1,0
175.52,1.51,-28.44,224,-3915,7281,-1,0,0
175.51,1.50,-28.44,223,-3912,7290,-1,0,0
175.51,1.50,-28.45,229,-3922,7287,-1,0,0
175.50,1.49,-28.46,213,-3934,7279,-1,0,0
175.50,1.46,-28.46,198,-3931,7269,-1,0,0
175.50,1.45,-28.48,186,-3945,7256,-1,0,-1
175.50,1.44,-28.48,184,-3949,7271,-1,0,-1
175.51,1.45,-28.49,185,-3962,7260,-1,-1,-1
175.51,1.45,-28.49,201,-3955,7266,0,-1,-1
175.51,1.45,-28.49,217,-3954,7261,0,0,0
175.51,1.45,-28.48,221,-3942,7245,0,0,0
175.51,1.44,-28.47,211,-3947,7256,0,0,0
175.51,1.44,-28.46,220,-3941,7258,0,0,0
175.50,1.43,-28.44,210,-3948,7286,0,0,0
175.50,1.42,-28.43,200,-3926,7292,0,0,0
175.50,1.42,-28.43,195,-3935,7286,0,-1,-1
175.50,1.42,-28.42,208,-3933,7275,0,0,-1
175.50,1.42,-28.42,211,-3944,7285,0,0,0
175.50,1.41,-28.42,210,-3931,7279,-1,0,0
175.50,1.41,-28.43,214,-3943,7282,0,0,0
175.50,1.41,-28.43,218,-3943,7268,-1,0,0
175.49,1.39,-28.42,217,-3950,7271,0,0,0
175.48,1.39,-28.42,203,-3944,7282,-1,0,0
175.48,1.38,-28.42,201,-3951,7281,0,0,0
175.48,1.38,-28.42,193,-3933,7264,0,0,-1
175.48,1.37,-28.41,184,-3939,7270,0,0,0
175.48,1.37,-28.41,185,-3936,7265,-1,0,-1
175.48,1.37,-28.41,197,-3944,7274,0,-1,-1
175.48,1.37,-28.41,201,-3929,7277,0,-1,0
175.48,1.37,-28.40,204,-3925,7277,0,0,0
175.48,1.36,-28.40,213,-3916,7279,-1,0,0
175.48,1.36,-28.40,201,-3916,7283,-1,0,0
175.48,1.36,-28.40,206,-3923,7285,-1,-1,0
175.48,1.35,-28.41,194,-3944,7288,0,-1,0
175.48,1.35,-28.40,187,-3930,7287,0,-1,0
175.47,1.35,-28.40,171,-3934,7269,-1,-1,-1
175.47,1.35,-28.40,174,-3948,7259,0,-1,-1
175.48,1.36,-28.40,188,-3946,7263,0,-1,-1
175.48,1.36,-28.40,196,-3952,7275,0,0,-1
175.48,1.36,-28.39,199,-3936,7276,0,-1,0
175.48,1.36,-28.39,204,-3940,7268,0,0,0
175.48,1.36,-28.38,208,-3942,7277,0,0,0
175.48,1.36,-28.36,206,-3932,7275,0,0,0
175.47,1.36,-28.36,199,-3923,7277,0,0,0
175.47,1.36,-28.34,187,-3923,7287,0,-1,-1
175.47,1.36,-28.33,192,-3916,7296,0,0,-1
175.48,1.36,-28.33,192,-3914,7300,-1,0,-1
175.48,1.36,-28.33,204,-3914,7310,-1,0,0
175.48,1.36,-28.34,202,-3913,7304,-1,0,-1
175.48,1.37,-28.35,212,-3915,7291,-1,-1,0
175.48,1.36,-28.36,199,-3922,7274,-1,-1,-1
175.48,1.36,-28.39,200,-3938,7265,-1,0,0
175.49,1.37,-28.39,197,-3945,7255,-1,-1,-1
175.48,1.37,-28.41,199,-3966,7270,-1,-1,0
175.48,1.39,-28.41,190,-3964,7268,0,-1,0
175.48,1.40,-28.41,198,-3967,7273,0,-1,0
175.48,1.41,-28.40,204,-3950,7256,0,-1,-1
175.48,1.41,-28.39,215,-3947,7270,0,0,0
175.48,1.41,-28.38,207,-3930,7274,0,0,0
175.47,1.41,-28.37,201,-3931,7288,0,-1,0
175.47,1.41,-28.37,201,-3925,7282,-1,0,0
175.47,1.41,-28.37,199,-3930,7284,0,0,0
175.47,1.40,-28.37,200,-3910,7280,-1,0,0
175.47,1.40,-28.38,186,-3925,7274,-1,-1,-1
175.47,1.40,-28.39,193,-3920,7279,-1,-1,0
175.47,1.40,-28.40,192,-3922,7274,-1,-1,-1
175.47,1.41,-28.40,203,-3916,7278,-1,-1,0
175.47,1.42,-28.42,211,-3939,7264,-1,-1,-1
175.48,1.42,-28.42,212,-3935,7269,-1,0,0
175.47,1.42,-28.43,194,-3941,7266,-1,-1,-1
175.47,1.42,-28.43,203,-3945,7269,-1,0,0
175.47,1.41,-28.44,188,-3956,7252,0,-1,-1
175.47,1.41,-28.43,195,-3944,7268,-1,-1,0
175.47,1.41,-28.44,187,-3956,7256,0,-1,-1
175.47,1.42,-28.43,198,-3938,7283,0,-1,0
175.47,1.43,-28.43,201,-3932,7274,0,-1,-1
175.47,1.43,-28.42,204,-3924,7285,0,-1,0
175.47,1.43,-28.41,204,-3929,7276,0,-1,-1
175.47,1.44,-28.41,215,-3926,7279,-1,0,0
175.47,1.44,-28.41,207,-3928,7281,-1,0,-1
175.47,1.44,-28.42,213,-3918,7283,-1,0,0
175.47,1.44,-28.43,197,-3936,7276,-1,-1,-1
175.47,1.44,-28.43,208,-3937,7281,-1,0,0
175.47,1.44,-28.44,207,-3934,7275,-1,-1,-1
175.48,1.45,-28.45,212,-3940,7282,-1,-1,0
175.48,1.45,-28.46,212,-3944,7270,-1,-1,-1
175.48,1.45,-28.46,214,-3939,7262,-1,-1,0
175.48,1.45,-28.46,213,-3944,7262,-1,-1,0
175.48,1.45,-28.46,211,-3950,7261,-1,-1,0
175.48,1.45,-28.46,208,-3944,7270,0,-1,-1
175.48,1.46,-28.46,214,-3940,7269,0,0,-1
175.48,1.45,-28.45,207,-3931,7257,0,0,0
175.48,1.45,-28.45,195,-3935,7257,-1,-1,0
175.48,1.45,-28.45,208,-3939,7261,-1,-1,0
175.48,1.45,-28.45,208,-3947,7285,0,-1,-1
175.48,1.46,-28.44,209,-3935,7281,0,0,0
175.48,1.46,-28.44,200,-3939,7273,-1,-1,-1
175.48,1.45,-28.45,206,-3939,7275,-1,0,-1
175.48,1.44,-28.44,200,-3943,7288,0,0,-1
175.49,1.44,-28.44,208,-3945,7285,-1,0,-1
175.49,1.44,-28.44,204,-3943,7279,0,0,-1
175.49,1.44,-28.44,217,-3943,7278,-1,0,0
175.49,1.44,-28.43,216,-3947,7270,0,0,-1
175.48,1.44,-28.43,206,-3937,7274,-1,0,0
175.48,1.43,-28.43,203,-3940,7282,-1,0,0
175.48,1.43,-28.43,209,-3936,7276,-1,0,0
175.48,1.42,-28.43,218,-3937,7270,-1,0,0
175.48,1.42,-28.43,217,-3936,7272,-1,0,0
175.48,1.41,-28.43,205,-3942,7270,0,0,0
175.48,1.40,-28.43,201,-3935,7267,0,-1,0
175.48,1.41,-28.43,197,-3940,7276,0,0,0
175.48,1.40,-28.42,202,-3934,7285,0,0,-1
175.48,1.40,-28.41,205,-3940,7274,0,0,0
175.48,1.40,-28.41,209,-3938,7267,0,0,0
175.48,1.39,-28.41,207,-3940,7265,0,0,0
175.48,1.39,-28.40,211,-3925,7254,0,-1,0
175.48,1.39,-28.40,199,-3941,7276,-1,0,0
175.48,1.38,-28.39,196,-3935,7278,0,0,0
175.47,1.37,-28.39,191,-3929,7284,-1,0,0
175.47,1.37,-28.39,187,-3941,7276,0,-1,-1
175.47,1.37,-28.39,191,-3937,7273,-1,0,-1
175.48,1.37,-28.40,197,-3943,7269,0,0,-1
175.48,1.37,-28.40,198,-3935,7270,-1,0,0
175.48,1.37,-28.40,198,-3942,7273,0,0,0
175.48,1.36,-28.40,202,-3947,7264,0,0,0
175.48,1.35,-28.40,202,-3945,7275,0,0,0
175.48,1.35,-28.39,196,-3939,7272,0,0,0
175.47,1.35,-28.38,187,-3943,7275,0,0,-1
175.47,1.35,-28.38,190,-3935,7276,0,-1,-1
175.47,1.35,-28.37,194,-3928,7276,0,0,-1
175.47,1.35,-28.36,205,-3926,7276,0,-1,0
175.47,1.35,-28.36,205,-3931,7280,-1,0,0
175.47,1.35,-28.36,192,-3928,7288,-1,0,0
175.46,1.34,-28.36,195,-3928,7288,0,0,0
175.47,1.34,-28.36,191,-3921,7292,-1,0,0
175.47,1.34,-28.36,187,-3926,7288,-1,0,0
175.47,1.34,-28.36,192,-3919,7271,-1,-1,0
175.47,1.34,-28.37,193,-3937,7276,0,0,-1
175.47,1.34,-28.35,189,-3926,7276,0,-1,0
175.47,1.34,-28.35,191,-3916,7275,-1,-1,-1
175.47,1.34,-28.36,196,-3927,7267,0,-1,-1
175.47,1.35,-28.36,197,-3929,7264,0,-1,-1
175.47,1.35,-28.35,194,-3928,7258,0,-1,-1
175.48,1.36,-28.35,193,-3920,7268,0,-1,-1
175.48,1.37,-28.34,207,-3921,7278,0,-1,0
175.48,1.37,-28.34,198,-3928,7282,-1,-1,-1
175.48,1.37,-28.35,201,-3928,7279,-1,-1,0
175.48,1.37,-28.35,200,-3927,7274,-1,0,-1
175.48,1.37,-28.36,189,-3929,7273,-1,-1,0
175.48,1.37,-28.36,188,-3925,7271,-1,-1,-1
175.48,1.37,-28.36,199,-3931,7283,-1,-1,0
175.49,1.38,-28.37,199,-3928,7262,-1,-1,-1
175.49,1.38,-28.37,199,-3934,7272,-1,-1,0
175.49,1.39,-28.37,210,-3933,7265,0,-1,-1
175.49,1.39,-28.37,210,-3936,7272,0,-1,0
175.49,1.39,-28.36,203,-3936,7286,0,-1,0
175.49,1.39,-28.36,201,-3923,7285,-1,-1,0
175.49,1.39,-28.36,195,-3929,7273,0,0,-1
175.49,1.39,-28.36,195,-3916,7270,-1,0,0
175.49,1.40,-28.36,193,-3923,7276,-1,-1,-1
175.49,1.40,-28.37,202,-3929,7273,-1,0,-1
175.49,1.40,-28.37,194,-3935,7287,0,-1,-1
175.49,1.40,-28.37,196,-3919,7279,-1,-1,0
175.49,1.41,-28.38,195,-3933,7269,-1,-1,-1
175.50,1.41,-28.39,213,-3942,7258,-1,0,-1
175.50,1.42,-28.40,210,-3944,7259,0,-1,-1
175.50,1.42,-28.40,219,-3935,7268,-1,-1,0
175.49,1.42,-28.40,209,-3943,7268,0,-1,-1
175.50,1.42,-28.40,211,-3943,7269,-1,0,0
175.50,1.42,-28.39,206,-3941,7280,0,-1,-1
175.49,1.42,-28.39,203,-3935,7269,-1,-1,0
175.49,1.42,-28.39,204,-3936,7274,0,-1,-1
175.49,1.43,-28.38,211,-3931,7272,-1,0,0
175.49,1.43,-28.38,199,-3927,7267,0,-1,-1
175.49,1.43,-28.39,207,-3929,7277,-1,-1,0
175.49,1.44,-28.39,212,-3927,7266,-1,-1,-1
175.49,1.44,-28.39,216,-3930,7278,-1,0,0
175.49,1.43,-28.39,200,-3926,7283,-1,-1,0
175.49,1.43,-28.39,191,-3931,7274,-1,0,0
175.49,1.43,-28.39,194,-3934,7275,-1,-1,-1
175.49,1.43,-28.39,203,-3933,7275,-1,-1,0
175.49,1.43,-28.39,205,-3935,7274,0,-1,-1
175.49,1.44,-28.40,208,-3944,7271,-1,-1,-1
175.49,1.45,-28.40,215,-3940,7270,-1,-1,-1
175.49,1.45,-28.40,216,-3929,7278,-1,-1,0
175.49,1.45,-28.40,214,-3930,7277,-1,0,0
175.49,1.45,-28.41,216,-3927,7272,-1,0,0
175.49,1.45,-28.41,205,-3921,7268,0,-1,-1
175.49,1.45,-28.41,197,-3928,7269,-1,-1,0
175.49,1.45,-28.41,203,-3930,7286,0,-1,-1
175.49,1.45,-28.40,193,-3926,7278,-1,-1,0
175.49,1.45,-28.40,202,-3935,7276,-1,-1,-1
175.50,1.46,-28.40,212,-3935,7265,0,-1,-1
175.50,1.46,-28.40,213,-3932,7266,0,-1,0
175.50,1.47,-28.39,223,-3923,7274,0,0,0
175.50,1.46,-28.39,213,-3930,7269,0,-1,-1
175.50,1.46,-28.39,208,-3926,7275,-1,0,0
175.50,1.46,-28.39,203,-3926,7273,0,0,-1
175.50,1.46,-28.39,204,-3932,7276,-1,0,0
175.50,1.46,-28.39,204,-3942,7273,-1,-1,-1
175.50,1.47,-28.40,201,-3940,7280,-1,-1,0
175.50,1.47,-28.40,211,-3925,7276,-1,-1,-1
175.50,1.47,-28.41,216,-3929,7277,-1,-1,0
175.50,1.47,-28.41,223,-3930,7269,-1,0,0
175.50,1.47,-28.41,224,-3938,7274,-1,0,0
175.50,1.47,-28.41,213,-3926,7272,-1,0,0
175.49,1.47,-28.42,212,-3929,7261,-1,-1,0
175.49,1.47,-28.42,211,-3937,7268,-1,0,0
175.49,1.46,-28.42,217,-3944,7269,0,0,0
175.49,1.47,-28.42,219,-3942,7266,0,0,0
175.49,1.47,-28.42,214,-3935,7273,-1,-1,0
175.49,1.47,-28.42,214,-3926,7264,-1,0,0
175.49,1.47,-28.42,213,-3927,7266,-1,0,0
175.49,1.47,-28.41,211,-3918,7271,0,0,0
175.48,1.46,-28.41,204,-3932,7281,-1,0,0
175.48,1.46,-28.41,202,-3940,7293,0,0,0
175.48,1.45,-28.41,200,-3930,7289,-1,0,0
175.49,1.45,-28.41,198,-3933,7276,-1,0,-1
175.49,1.45,-28.41,210,-3937,7270,0,0,-1
175.49,1.44,-28.41,212,-3932,7282,0,0,0
175.49,1.44,-28.41,219,-3918,7287,-1,0,-1
175.49,1.45,-28.41,216,-3925,7278,-1,0,-1
175.49,1.45,-28.41,212,-3939,7269,0,0,-1
175.49,1.45,-28.41,210,-3942,7267,0,0,-1
175.49,1.45,-28.41,204,-3924,7275,0,0,-1
175.49,1.44,-28.40,204,-3932,7287,-1,-1,-1
175.49,1.45,-28.41,209,-3939,7276,0,-1,-1
175.50,1.45,-28.40,210,-3937,7270,0,0,-1
175.50,1.45,-28.40,211,-3935,7274,0,0,-1
175.50,1.44,-28.39,210,-3930,7275,0,0,-1
175.50,1.45,-28.39,208,-3938,7274,0,-1,0
175.50,1.44,-28.39,210,-3935,7276,0,0,0
175.49,1.44,-28.38,208,-3935,7276,0,0,0
175.49,1.43,-28.38,203,-3930,7280,0,0,-1
175.49,1.43,-28.38,202,-3920,7274,0,0,-1
175.49,1.43,-28.38,209,-3921,7279,-1,-1,-1
175.49,1.44,-28.38,206,-3924,7275,0,0,-1
175.49,1.44,-28.38,202,-3923,7283,-1,-1,-1
175.49,1.44,-28.38,208,-3932,7285,-1,-1,-1
175.49,1.44,-28.38,210,-3932,7280,-1,0,0
175.49,1.43,-28.38,207,-3931,7286,-1,0,0
175.49,1.43,-28.39,209,-3940,7278,-1,0,0
175.49,1.43,-28.39,205,-3937,7279,-1,-1,0
175.49,1.43,-28.39,215,-3945,7260,0,0,0
175.49,1.43,-28.38,211,-3935,7266,0,0,0
175.49,1.42,-28.38,200,-3936,7278,0,0,0
175.49,1.42,-28.37,206,-3933,7277,0,-1,0
175.49,1.42,-28.37,204,-3921,7267,0,0,-1
175.49,1.41,-28.36,200,-3922,7260,0,0,0
175.49,1.41,-28.36,199,-3919,7262,0,0,-1
175.49,1.41,-28.35,200,-3917,7271,0,0,0
175.49,1.41,-28.35,207,-3917,7275,0,0,0
175.49,1.40,-28.35,201,-3923,7277,-1,0,0
175.49,1.40,-28.35,209,-3928,7283,-1,0,0
175.48,1.40,-28.35,196,-3925,7284,-1,0,0
175.48,1.39,-28.35,197,-3924,7276,0,0,0
175.48,1.38,-28.35,194,-3919,7262,-1,0,0
175.48,1.38,-28.35,190,-3926,7270,0,-1,-1
175.48,1.38,-28.35,199,-3929,7270,0,0,-1
175.48,1.38,-28.34,194,-3928,7287,0,-1,0
175.48,1.38,-28.34,205,-3927,7268,-1,-1,0
175.48,1.38,-28.35,199,-3931,7271,-1,0,0
175.48,1.37,-28.34,199,-3921,7268,0,0,-1
175.48,1.37,-28.34,197,-3913,7274,-1,0,0
175.48,1.36,-28.34,197,-3927,7276,0,0,0
175.47,1.36,-28.33,200,-3921,7278,0,0,0
175.48,1.36,-28.33,197,-3932,7269,0,0,-1
175.48,1.36,-28.33,198,-3924,7268,-1,0,-1
175.48,1.36,-28.33,198,-3929,7272,0,-1,0
175.48,1.36,-28.33,203,-3927,7270,0,0,0
175.48,1.36,-28.32,202,-3920,7263,0,0,0
175.48,1.36,-28.32,201,-3922,7274,0,0,0
175.47,1.35,-28.32,199,-3920,7272,0,0,0
175.47,1.34,-28.32,185,-3922,7276,-1,0,0
175.47,1.34,-28.32,188,-3924,7281,-1,0,-1
175.47,1.34,-28.32,189,-3926,7278,0,0,-1
175.48,1.35,-28.32,202,-3929,7279,-1,0,-1
175.48,1.35,-28.32,199,-3923,7285,0,-1,0
175.48,1.35,-28.32,198,-3932,7286,-1,-1,0
175.48,1.35,-28.32,201,-3933,7288,0,0,0
175.48,1.35,-28.32,193,-3926,7285,-1,0,0
175.48,1.35,-28.32,183,-3926,7274,-1,0,-1
175.48,1.35,-28.32,188,-3927,7273,0,-1,-1
175.48,1.35,-28.32,193,-3927,7269,0,-1,-1
175.49,1.36,-28.31,202,-3920,7272,0,-1,-1
175.49,1.37,-28.31,213,-3921,7277,0,-1,-1
175.49,1.38,-28.31,202,-3926,7272,0,-1,-1
175.48,1.38,-28.31,206,-3926,7284,-1,-1,0
175.48,1.38,-28.31,199,-3922,7284,-1,-1,-1
175.49,1.39,-28.32,200,-3927,7281,-1,-1,0
175.49,1.39,-28.32,196,-3922,7273,-1,-1,-1
175.49,1.39,-28.32,189,-3920,7281,-1,-1,-1
175.49,1.39,-28.32,192,-3934,7278,-1,-1,-1
175.49,1.39,-28.33,200,-3936,7287,0,-1,0
175.49,1.40,-28.33,201,-3923,7292,-1,-1,0
175.48,1.40,-28.33,201,-3921,7273,-1,-1,0
175.48,1.40,-28.33,190,-3928,7274,0,-1,-1
175.48,1.41,-28.33,192,-3916,7276,-1,-1,0
175.48,1.41,-28.33,189,-3926,7288,0,-1,-1
175.49,1.41,-28.33,199,-3918,7294,-1,-1,0
175.49,1.41,-28.33,201,-3920,7292,-1,-1,-1
175.49,1.42,-28.34,204,-3925,7274,-1,-1,-1
175.49,1.43,-28.34,204,-3923,7272,-1,-1,-1
175.49,1.43,-28.34,206,-3916,7280,-1,-1,0
175.49,1.43,-28.35,209,-3923,7280,-1,-1,-1
175.49,1.43,-28.35,209,-3934,7273,0,0,-1
175.49,1.43,-28.35,208,-3944,7283,-1,0,0
175.49,1.43,-28.35,208,-3946,7279,0,-1,-1
175.49,1.43,-28.35,210,-3928,7278,-1,-1,0
175.49,1.44,-28.35,200,-3927,7286,0,-1,0
175.49,1.44,-28.35,201,-3916,7272,-1,-1,0
175.49,1.44,-28.35,198,-3925,7280,-1,-1,0
175.49,1.44,-28.35,206,-3919,7275,-1,0,0
175.49,1.44,-28.35,206,-3922,7280,-1,-1,0
175.49,1.44,-28.35,208,-3922,7284,-1,-1,-1
175.49,1.44,-28.36,205,-3922,7283,-1,-1,0
175.49,1.44,-28.36,214,-3924,7273,-1,0,-1
175.49,1.44,-28.37,211,-3922,7283,-1,-1,0
175.49,1.45,-28.38,209,-3928,7279,0,-1,-1
175.49,1.46,-28.38,216,-3933,7277,-1,-1,0
175.49,1.45,-28.38,210,-3940,7289,0,-1,-1
175.49,1.45,-28.38,207,-3932,7283,-1,-1,0
