Yaw,Pitch,Roll,AX,AY,AZ,GX,GY,GZ
-165.82,8.28,-57.05,1208,-6906,4478,-1,-1,0
-165.82,8.28,-57.05,1208,-6910,4472,-1,0,0
-165.82,8.28,-57.06,1190,-6915,4466,0,0,0
-165.82,8.28,-57.06,1188,-6917,4468,0,-1,-1
-165.82,8.28,-57.06,1194,-6928,4470,0,0,-1
-165.81,8.29,-57.05,1206,-6924,4480,0,-1,-1
-165.80,8.30,-57.05,1211,-6907,4483,-1,0,-1
-165.80,8.30,-57.05,1213,-6897,4465,-1,0,-1
-165.80,8.30,-57.06,1204,-6904,4457,0,0,-1
-165.80,8.30,-57.06,1203,-6909,4464,-1,0,-1
-165.80,8.30,-57.06,1197,-6910,4464,0,-1,-1
-165.80,8.30,-57.06,1199,-6907,4474,0,-1,-1
-165.80,8.30,-57.06,1199,-6905,4477,-1,-1,-1
-165.79,8.30,-57.06,1202,-6915,4480,-1,-1,-1
-165.79,8.31,-57.06,1206,-6894,4479,-1,-1,-1
-165.79,8.31,-57.07,1202,-6895,4452,-1,0,-1
-165.79,8.31,-57.07,1205,-6898,4459,0,-1,0
-165.79,8.31,-57.06,1210,-6913,4472,0,0,0
-165.80,8.30,-57.06,1202,-6929,4493,-1,0,0
-165.80,8.30,-57.06,1198,-6931,4495,0,0,-1
-165.79,8.30,-57.06,1197,-6931,4486,0,-1,-1
-165.78,8.31,-57.05,1213,-6890,4493,-1,-1,-1
-165.78,8.32,-57.06,1220,-6876,4484,-1,-1,0
-165.79,8.31,-57.07,1206,-6929,4453,0,-1,0
-165.79,8.31,-57.06,1204,-6935,4468,0,0,-1
-165.78,8.31,-57.06,1195,-6915,4473,0,0,-1
-165.78,8.32,-57.06,1203,-6900,4474,0,-1,-1
-165.77,8.32,-57.05,1215,-6898,4479,-1,-1,-1
-165.77,8.32,-57.06,1214,-6901,4489,-1,0,0
-165.77,8.32,-57.05,1220,-6903,4474,0,0,0
-165.77,8.33,-57.05,1212,-6906,4469,0,-1,0
-165.77,8.32,-57.05,1209,-6907,4479,0,0,0
-165.77,8.32,-57.05,1203,-6896,4487,-1,-1,-1
-165.77,8.32,-57.05,1198,-6902,4476,-1,-1,-1
-165.77,8.33,-57.06,1211,-6910,4475,0,-1,-1
-165.77,8.33,-57.06,1214,-6915,4484,0,0,0
-165.77,8.33,-57.05,1211,-6921,4479,0,0,0
-165.77,8.33,-57.05,1208,-6913,4491,-1,0,0
-165.77,8.33,-57.05,1212,-6912,4480,-1,-1,-1
-165.76,8.33,-57.06,1221,-6908,4466,-1,-1,0
-165.77,8.33,-57.07,1212,-6908,4465,-1,0,0
-165.77,8.33,-57.07,1211,-6912,4461,0,-1,-1
-165.76,8.33,-57.07,1209,-6902,4461,0,0,-1
-165.76,8.34,-57.06,1221,-6892,4474,0,-1,-1
-165.76,8.34,-57.06,1228,-6892,4467,-1,0,0
-165.77,8.34,-57.07,1220,-6923,4448,0,-1,0
-165.77,8.33,-57.05,1204,-6926,4482,0,0,0
-165.77,8.33,-57.05,1197,-6914,4499,-1,-1,-1
-165.77,8.33,-57.06,1208,-6903,4474,-1,-1,-1
-165.77,8.34,-57.07,1217,-6902,4452,0,-1,0
-165.77,8.34,-57.06,1227,-6897,4458,0,0,0
-165.78,8.33,-57.06,1213,-6903,4470,0,0,0
-165.79,8.32,-57.06,1205,-6915,4469,0,0,0
-165.78,8.31,-57.05,1202,-6917,4475,0,0,0
-165.78,8.31,-57.05,1197,-6921,4476,0,0,-1
-165.78,8.32,-57.04,1210,-6913,4490,0,-1,-1
-165.77,8.32,-57.04,1221,-6905,4487,-1,-1,0
-165.77,8.32,-57.04,1220,-6897,4481,-1,0,0
-165.78,8.31,-57.05,1214,-6892,4476,-1,0,0
-165.79,8.31,-57.06,1200,-6910,4452,0,0,0
-165.79,8.30,-57.05,1187,-6926,4456,0,0,-1
-165.79,8.31,-57.03,1196,-6922,4484,0,-1,-1
-165.78,8.31,-57.02,1204,-6916,4506,0,-1,-1
-165.77,8.32,-57.01,1227,-6893,4509,-1,0,-1
-165.78,8.31,-57.02,1223,-6882,4496,-1,0,0
-165.79,8.31,-57.03,1209,-6890,4472,-1,0,0
-165.80,8.30,-57.04,1207,-6913,4465,-1,0,0
-165.80,8.29,-57.04,1199,-6931,4455,0,0,0
-165.80,8.29,-57.04,1188,-6923,4468,0,-1,-1
-165.80,8.30,-57.03,1198,-6898,4481,0,0,-1
-165.79,8.30,-57.02,1201,-6889,4501,-1,-1,-1
-165.79,8.30,-57.02,1229,-6898,4496,-1,0,0
-165.79,8.30,-57.03,1218,-6922,4476,0,0,0
-165.80,8.29,-57.03,1214,-6914,4483,-1,0,0
-165.81,8.28,-57.03,1201,-6919,4479,0,0,0
-165.81,8.28,-57.03,1199,-6905,4480,-1,0,0
-165.81,8.28,-57.04,1198,-6907,4472,-1,0,0
-165.82,8.27,-57.04,1206,-6915,4469,0,-1,0
-165.82,8.27,-57.04,1211,-6919,4478,0,0,0
-165.82,8.27,-57.04,1209,-6907,4492,-1,0,0
-165.82,8.27,-57.04,1210,-6903,4481,-1,0,0
-165.83,8.26,-57.05,1201,-6898,4483,-1,0,0
-165.84,8.25,-57.05,1196,-6903,4485,-1,0,0
-165.84,8.25,-57.05,1194,-6906,4480,-1,0,0
-165.84,8.25,-57.05,1193,-6920,4480,0,0,-1
-165.84,8.25,-57.04,1206,-6908,4498,0,0,0
-165.84,8.25,-57.04,1200,-6900,4499,-1,0,0
-165.85,8.24,-57.05,1204,-6892,4494,-1,0,0
-165.85,8.24,-57.06,1205,-6900,4480,-1,0,0
-165.86,8.23,-57.06,1202,-6905,4475,0,0,0
-165.86,8.23,-57.06,1192,-6920,4472,-1,0,0
-165.86,8.22,-57.06,1192,-6923,4486,0,0,0
-165.87,8.22,-57.06,1194,-6916,4489,-1,-1,0
-165.87,8.22,-57.06,1197,-6909,4468,-1,-1,0
-165.88,8.22,-57.07,1202,-6908,-1,-1,-1,0
-165.88,8.22,-57.07,1192,-6939,4462,0,0,0
-165.88,8.22,-57.06,1200,-6940,4495,0,0,-1
-165.88,8.22,-57.05,1201,-6904,4523,-1,0,0
-165.88,8.21,-57.06,1202,-6877,4485,-1,0,0
-165.88,8.21,-57.07,1207,-6887,4440,0,0,0
-165.89,8.20,-57.07,1203,-6909,4455,0,0,0
-165.90,8.20,-57.07,1184,-6918,4487,0,-1,0
-165.91,8.19,-57.06,1177,-6922,4491,-1,0,-1
-165.91,8.19,-57.06,1187,-6910,4489,-1,-1,0
-165.91,8.19,-57.07,1198,-6914,4465,-1,0,0
-165.91,8.19,-57.07,1199,-6916,4457,0,-1,0
-165.91,8.19,-57.08,1194,-6915,4464,0,0,0
-165.91,8.19,-57.07,1187,-6908,4475,0,-1,0
-165.91,8.19,-57.07,1180,-6918,4469,0,-1,-1
-165.91,8.19,-57.07,1194,-6917,4474,0,-1,-1
-165.91,8.19,-57.06,1194,-6917,4480,0,-1,-1
-165.91,8.20,-57.05,1194,-6902,4485,0,-1,-1
-165.89,8.21,-57.05,1198,-6897,4481,0,0,0
-165.89,8.21,-57.05,1188,-6907,4485,-1,-1,0
-165.90,8.20,-57.05,1184,-6915,4479,-1,-1,0
-165.91,8.20,-57.06,1173,-6926,4465,-1,-1,-1
-165.90,8.20,-57.05,1177,-6916,4469,0,-1,-1
-165.90,8.21,-57.05,1186,-6907,4468,0,-1,-1
-165.89,8.22,-57.05,1196,-6892,4476,-1,-1,0
-165.89,8.22,-57.06,1186,-6917,4478,-1,-1,-1
-165.89,8.22,-57.05,1185,-6915,4477,0,0,-1
-165.89,8.22,-57.06,1185,-6917,4474,-1,0,-1
-165.88,8.22,-57.06,1188,-6906,4468,-1,-1,-1
-165.88,8.22,-57.07,1187,-6919,4459,0,0,-1
-165.88,8.23,-57.06,1190,-6908,4490,-1,-1,-1
-165.87,8.23,-57.06,1187,-6908,4493,-1,-1,-1
-165.87,8.24,-57.06,1189,-6896,4483,-1,-1,-1
-165.87,8.24,-57.07,1197,-6897,4474,0,0,-1
-165.87,8.24,-57.07,1202,-6913,4481,-1,-1,0
-165.87,8.24,-57.07,1190,-6925,4472,0,0,-1
-165.86,8.25,-57.07,1196,-6929,4488,-1,-1,-1
-165.86,8.25,-57.07,1199,-6920,4487,0,0,-1
-165.86,8.25,-57.08,1193,-6916,4473,-1,-1,-1
-165.86,8.25,-57.08,1192,-6915,4452,0,0,-1
-165.85,8.25,-57.08,1187,-6914,4471,0,-1,-1
-165.84,8.27,-57.07,1205,-6902,4488,-1,-1,-1
-165.83,8.28,-57.07,1209,-6904,4485,-1,-1,-1
-165.83,8.28,-57.08,1211,-6899,4473,0,-1,0
-165.83,8.28,-57.08,1206,-6910,4480,-1,0,0
-165.84,8.26,-57.08,1191,-6914,4474,0,0,0
-165.84,8.26,-57.08,1184,-6924,4479,-1,0,-1
-165.85,8.25,-57.08,1176,-6914,4459,0,0,-1
-165.84,8.26,-57.08,1181,-6910,4463,0,0,-1
-165.83,8.27,-57.08,1204,-6909,4473,0,0,-1
-165.82,8.28,-57.08,1206,-6921,4474,0,0,-1
-165.82,8.28,-57.06,1205,-6911,4488,0,0,0
-165.82,8.28,-57.07,1204,-6912,4474,-1,0,-1
-165.82,8.27,-57.08,1198,-6915,4467,-1,0,-1
-165.82,8.28,-57.08,1202,-6904,4459,0,0,-1
-165.82,8.28,-57.08,1208,-6907,4469,-1,-1,0
-165.82,8.28,-57.08,1208,-6916,4456,0,0,0
-165.82,8.28,-57.08,1203,-6921,4463,0,0,-1
-165.82,8.28,-57.08,1204,-6912,4456,0,0,-1
-165.82,8.28,-57.08,1210,-6913,4461,-1,0,-1
-165.81,8.28,-57.08,1218,-6908,4470,0,0,-1
-165.81,8.28,-57.08,1196,-6907,4477,-1,-1,-1
-165.81,8.28,-57.08,1196,-6900,4464,-1,-1,-1
-165.80,8.30,-57.09,1207,-6910,4452,0,0,-1
-165.80,8.29,-57.08,1217,-6910,4464,0,0,-1
-165.80,8.30,-57.08,1217,-6927,4479,0,0,0
-165.80,8.29,-57.08,1208,-6931,4481,0,0,0
-165.79,8.30,-57.08,1207,-6924,4487,-1,0,-1
-165.79,8.30,-57.08,1202,-6908,4461,0,-1,-1
-165.79,8.30,-57.07,1201,-6916,4465,0,0,-1
-165.78,8.31,-57.07,1208,-6914,4462,0,0,-1
-165.78,8.31,-57.07,1205,-6912,4473,0,-1,-1
-165.77,8.32,-57.07,1217,-6895,4489,-1,0,-1
-165.77,8.32,-57.07,1212,-6911,4474,-1,0,0
-165.77,8.31,-57.08,1207,-6919,4463,-1,0,0
-165.77,8.31,-57.08,1192,-6924,4453,0,0,-1
-165.77,8.31,-57.07,1196,-6919,4467,0,-1,-1
-165.77,8.32,-57.07,1204,-6913,4476,0,0,-1
-165.77,8.32,-57.06,1213,-6906,4496,-1,0,0
-165.77,8.31,-57.07,1208,-6906,4487,-1,0,0
-165.78,8.30,-57.07,1197,-6909,4482,-1,0,0
-165.78,8.30,-57.07,1197,-6910,4466,-1,-1,0
-165.78,8.30,-57.07,1197,-6907,4461,0,-1,0
-165.78,8.31,-57.07,1215,-6900,4463,0,-1,-1
-165.78,8.31,-57.07,1209,-6908,4481,0,0,0
-165.78,8.31,-57.07,1216,-6908,4484,-1,-1,0
-165.78,8.31,-57.08,1204,-6910,4472,-1,-1,0
-165.79,8.30,-57.08,1204,-6907,4484,-1,-1,0
-165.79,8.30,-57.09,1205,-6913,4475,-1,0,0
-165.79,8.30,-57.09,1202,-6919,4475,-1,-1,0
-165.80,8.30,-57.09,1206,-6923,4467,0,-1,0
-165.80,8.30,-57.09,1210,-6915,4465,0,-1,0
-165.80,8.30,-57.09,1209,-6912,4454,0,0,0
-165.80,8.30,-57.08,1212,-6913,4476,0,-1,0
-165.80,8.30,-57.08,1210,-6912,4474,-1,0,0
-165.81,8.29,-57.09,1206,-6906,4461,-1,0,0
-165.81,8.29,-57.09,1214,-6919,4454,0,-1,0
-165.82,8.28,-57.09,1211,-6921,4462,0,0,0
-165.82,8.28,-57.09,1207,-6918,4479,-1,0,0
-165.83,8.26,-57.09,1194,-6896,4482,-1,0,0
-165.84,8.25,-57.10,1182,-6911,4454,-1,0,0
-165.85,8.25,-57.10,1182,-6932,4452,0,0,0
-165.84,8.25,-57.09,1196,-6932,4460,0,0,0
-165.85,8.25,-57.08,1193,-6937,4477,0,0,-1
-165.84,8.25,-57.06,1198,-6930,4485,0,0,-1
-165.83,8.26,-57.04,1219,-6901,4500,0,0,0
-165.83,8.25,-57.03,1214,-6888,4505,-1,0,0
-165.84,8.24,-57.04,1205,-6882,4491,-1,0,0
-165.86,8.23,-57.06,1186,-6905,4469,-1,0,0
-165.85,8.24,-57.05,1185,-6909,4457,0,0,-1
-165.85,8.24,-57.05,1193,-6919,4463,0,0,-1
-165.85,8.24,-57.05,1199,-6914,4483,0,0,0
-165.84,8.24,-57.04,1201,-6918,4478,0,0,-1
-165.85,8.23,-57.03,1195,-6907,4501,0,0,0
-165.85,8.23,-57.03,1206,-6898,4508,-1,0,0
-165.86,8.23,-57.04,1192,-6902,4497,-1,0,0
-165.87,8.22,-57.05,1189,-6917,4466,-1,0,0
-165.87,8.22,-57.06,1191,-6913,4467,-1,0,0
-165.87,8.22,-57.06,1193,-6922,4457,0,0,0
-165.87,8.22,-57.06,1194,-6920,4475,0,-1,0
-165.87,8.21,-57.06,1195,-6913,4467,0,0,0
-165.87,8.21,-57.05,1196,-6901,4487,-1,0,0
-165.87,8.21,-57.06,1198,-6908,4478,-1,0,0
-165.88,8.21,-57.06,1200,-6893,4480,-1,-1,0
-165.88,8.21,-57.06,1196,-6895,4476,-1,0,0
-165.89,8.20,-57.08,1203,-6905,4472,-1,-1,0
-165.90,8.20,-57.09,1203,-6917,4474,-1,0,0
-165.91,8.19,-57.10,1192,-6926,4463,-1,-1,0
-165.92,8.18,-57.11,1179,-6936,4460,-1,-1,-1
-165.92,8.18,-57.11,1181,-6922,4464,0,-1,-1
-165.92,8.19,-57.11,1192,-6922,4457,-1,-1,0
-165.92,8.18,-57.11,1191,-6905,4471,0,-1,0
-165.93,8.18,-57.12,1189,-6914,4471,-1,0,0
-165.94,8.17,-57.12,1184,-6917,4481,-1,0,0
-165.95,8.16,-57.13,1182,-6925,4456,-1,0,0
-165.95,8.16,-57.13,1185,-6918,4460,0,0,0
-165.95,8.15,-57.13,1182,-6920,4453,0,0,0
-165.96,8.14,-57.12,1180,-6920,4461,0,0,0
-165.97,8.14,-57.11,1185,-6923,4467,0,0,0
-165.97,8.13,-57.11,1182,-6918,4482,0,0,0
-165.98,8.12,-57.11,1177,-6924,4478,0,0,0
-165.98,8.11,-57.10,1172,-6908,4476,0,0,0
-165.98,8.11,-57.10,1166,-6906,4466,-1,-1,0
-165.98,8.11,-57.10,1169,-6922,4458,0,0,-1
-165.98,8.11,-57.10,1188,-6930,4462,0,0,-1
-165.98,8.11,-57.09,1180,-6928,4462,0,0,0
-165.98,8.11,-57.08,1186,-6916,4476,0,0,0
-165.98,8.11,-57.08,1176,-6903,4485,-1,-1,0
-165.98,8.11,-57.08,1169,-6911,4464,-1,0,-1
-165.98,8.11,-57.08,1160,-6909,4461,0,-1,-1
-165.98,8.12,-57.08,1164,-6923,4461,0,-1,-1
-165.97,8.12,-57.07,1174,-6914,4485,0,-1,0
-165.97,8.13,-57.06,1187,-6913,4483,-1,-1,0
-165.98,8.12,-57.07,1187,-6904,4491,0,-1,0
-165.97,8.13,-57.06,1190,-6908,4488,0,0,-1
-165.97,8.13,-57.05,1188,-6902,4496,-1,-1,-1
-165.97,8.13,-57.06,1178,-6903,4487,-1,-1,-1
-165.97,8.13,-57.06,1185,-6913,4485,-1,-1,-1
-165.96,8.15,-57.07,1180,-6912,4468,0,0,-1
-165.96,8.15,-57.07,1179,-6916,4466,-1,0,-1
-165.95,8.15,-57.07,1178,-6920,4457,0,0,-1
-165.95,8.15,-57.07,1188,-6909,4482,-1,0,-1
-165.94,8.16,-57.06,1178,-6899,4483,-1,-1,-1
-165.94,8.16,-57.07,1197,-6898,4485,-1,-1,0
-165.94,8.16,-57.09,1193,-6899,4477,-1,-1,0
-165.95,8.16,-57.10,1187,-6913,4474,-1,-1,0
-165.96,8.16,-57.12,1173,-6931,4455,-1,0,0
-165.96,8.16,-57.12,1173,-6931,4464,-1,-1,-1
-165.94,8.17,-57.12,1160,-6940,4472,0,-1,-1
-165.92,8.19,-57.11,1203,-6920,4462,-1,-1,-1
-165.92,8.20,-57.11,1197,-6907,4461,0,0,-1
-165.92,8.20,-57.11,1203,-6896,4479,-1,-1,0
-165.92,8.20,-57.11,1194,-6912,4477,-1,0,0
-165.92,8.20,-57.12,1187,-6926,4458,-1,0,0
-165.92,8.19,-57.12,1175,-6942,4454,0,0,-1
-165.92,8.20,-57.12,1182,-6927,4458,0,-1,-1
-165.92,8.20,-57.12,1185,-6915,4454,0,0,-1
-165.90,8.21,-57.10,1193,-6901,4474,0,0,-1
-165.90,8.21,-57.10,1191,-6911,4465,0,0,-1
-165.89,8.22,-57.09,1195,-6919,4470,0,0,-1
-165.88,8.22,-57.09,1189,-6924,4468,0,0,-1
-165.87,8.23,-57.08,1190,-6932,4459,0,0,-1
-165.86,8.24,-57.07,1193,-6917,4470,0,0,-1
-165.84,8.25,-57.05,1207,-6896,4490,0,0,-1
-165.84,8.25,-57.05,1193,-6886,4487,0,-1,-1
-165.83,8.26,-57.05,1202,-6891,4485,-1,-1,-1
-165.83,8.26,-57.04,1199,-6902,4483,0,0,-1
-165.83,8.26,-57.04,1195,-6913,4483,0,0,-1
-165.82,8.27,-57.03,1196,-6903,4476,0,-1,-1
-165.81,8.28,-57.03,1201,-6916,4466,-1,-1,-1
-165.81,8.27,-57.03,1200,-6908,4480,0,0,-1
-165.80,8.28,-57.02,1204,-6902,4502,-1,0,-1
-165.80,8.28,-57.02,1201,-6896,4484,0,-1,-1
-165.79,8.29,-57.02,1203,-6921,4481,0,-1,-1
-165.79,8.29,-57.01,1207,-6912,4492,0,0,-1
-165.78,8.30,-57.01,1204,-6914,4484,0,0,-1
-165.77,8.30,-57.00,1198,-6893,4492,0,-1,-1
-165.76,8.31,-57.00,1200,-6893,4491,0,-1,-1
-165.76,8.31,-57.00,1211,-6904,4496,-1,0,-1
-165.76,8.31,-57.00,1207,-6912,4493,-1,0,0
-165.77,8.31,-57.01,1199,-6909,4472,-1,0,-1
-165.77,8.31,-57.01,1197,-6908,4465,0,0,-1
-165.76,8.31,-57.02,1199,-6911,4460,0,-1,-1
-165.76,8.31,-57.01,1197,-6924,4475,0,-1,-1
-165.76,8.31,-57.01,1200,-6916,4479,0,0,-1
-165.75,8.32,-57.01,1206,-6907,4482,-1,0,-1
-165.75,8.33,-57.02,1203,-6907,4461,-1,-1,-1
-165.75,8.33,-57.02,1209,-6907,4460,0,-1,-1
-165.75,8.33,-57.02,1219,-6897,4465,0,-1,0
-165.75,8.33,-57.03,1221,-6893,4470,-1,-1,0
-165.75,8.33,-57.04,1206,-6916,4476,-1,-1,0
-165.76,8.32,-57.05,1199,-6920,4470,-1,-1,-1
-165.76,8.33,-57.06,1198,-6935,4457,0,0,-1
-165.75,8.34,-57.06,1199,-6933,4464,0,-1,-1
-165.74,8.34,-57.06,1215,-6920,4459,0,-1,-1
-165.74,8.35,-57.05,1219,-6905,4477,-1,-1,0
-165.74,8.34,-57.06,1213,-6897,4483,-1,0,0
-165.74,8.34,-57.06,1205,-6904,4476,-1,0,0
-165.75,8.34,-57.06,1207,-6918,4471,0,0,0
-165.75,8.34,-57.06,1206,-6924,4472,0,-1,-1
-165.74,8.34,-57.06,1213,-6918,4468,0,0,-1
-165.74,8.34,-57.05,1203,-6906,4463,0,0,-1
-165.74,8.34,-57.04,1204,-6909,4473,0,0,-1
-165.74,8.34,-57.04,1202,-6917,4467,0,0,-1
-165.73,8.35,-57.03,1202,-6915,4466,0,0,-1
-165.72,8.36,-57.02,1208,-6912,4475,0,-1,-1
-165.72,8.36,-57.02,1210,-6902,4475,0,0,-1
-165.71,8.36,-57.01,1211,-6899,4498,-1,-1,-1
-165.71,8.36,-57.02,1216,-6907,4487,-1,-1,-1
-165.72,8.35,-57.02,1215,-6915,4474,0,0,-1
-165.71,8.36,-57.01,1208,-6915,4481,0,0,-1
-165.71,8.36,-57.01,1206,-6897,4486,0,0,-1
-165.71,8.36,-57.01,1209,-6898,4481,0,0,-1
-165.71,8.36,-57.01,1204,-6887,4480,0,-1,-1
-165.71,8.36,-57.01,1210,-6893,4486,-1,0,0
-165.71,8.36,-57.01,1211,-6906,4468,0,0,0
-165.71,8.36,-57.01,1207,-6906,4467,0,0,0
-165.71,8.36,-57.01,1198,-6908,4470,0,0,0
-165.71,8.36,-57.01,1200,-6912,4476,0,-1,-1
-165.71,8.36,-57.01,1203,-6916,4480,0,-1,-1
-165.71,8.36,-57.00,1215,-6903,4490,0,-1,0
-165.71,8.36,-57.01,1215,-6903,4486,-1,0,0
-165.71,8.36,-57.01,1220,-6898,4480,0,0,0
-165.72,8.35,-57.01,1205,-6913,4485,-1,-1,0
-165.72,8.35,-57.01,1195,-6921,4465,0,0,0
-165.73,8.34,-57.01,1189,-6910,4469,0,0,-1
-165.72,8.35,-57.01,1195,-6898,4464,0,0,-1
-165.72,8.35,-57.01,1206,-6899,4477,0,0,-1
-165.72,8.35,-57.00,1205,-6896,4489,0,0,0
-165.72,8.35,-57.00,1200,-6904,4497,-1,-1,0
-165.72,8.35,-57.00,1199,-6889,4492,-1,-1,0
-165.73,8.34,-57.01,1208,-6880,4491,-1,-1,0
-165.74,8.34,-57.02,1195,-6886,4491,-1,-1,0
-165.75,8.33,-57.05,1189,-6919,4466,-1,-1,0
-165.75,8.33,-57.06,1191,-6937,4450,0,-1,-1
-165.75,8.34,-57.06,1207,-6920,4450,0,0,0
-165.76,8.33,-57.05,1202,-6900,4467,0,-1,0
-165.76,8.32,-57.06,1199,-6903,4475,-1,0,0
-165.76,8.32,-57.07,1202,-6913,4478,-1,0,0
-165.77,8.32,-57.07,1198,-6916,4472,-1,0,0
-165.77,8.32,-57.07,1191,-6919,4457,0,0,0
-165.78,8.31,-57.07,1194,-6914,4459,0,0,0
-165.77,8.31,-57.07,1193,-6920,4470,0,0,-1
-165.77,8.31,-57.06,1195,-6913,4480,0,0,-1
-165.77,8.31,-57.05,1206,-6905,4483,-1,0,0
-165.77,8.30,-57.05,1205,-6907,4481,-1,0,0
-165.77,8.30,-57.06,1205,-6911,4467,0,0,0
-165.78,8.29,-57.05,1202,-6906,4464,0,0,0
-165.79,8.29,-57.05,1181,-6908,4478,0,0,-1
-165.79,8.29,-57.04,1189,-6912,4492,0,0,-1
-165.78,8.29,-57.05,1204,-6928,4481,-1,-1,-1
-165.78,8.30,-57.05,1202,-6921,4469,0,0,0
-165.78,8.30,-57.05,1197,-6908,4481,0,0,0
-165.79,8.29,-57.04,1197,-6904,4487,-1,0,0
-165.79,8.29,-57.04,1201,-6913,4480,0,0,0
-165.79,8.29,-57.04,1195,-6914,4482,0,0,0
-165.79,8.28,-57.04,1186,-6915,4485,-1,0,0
-165.79,8.28,-57.04,1192,-6905,4476,-1,0,0
-165.80,8.27,-57.05,1188,-6914,4463,0,0,0
-165.80,8.27,-57.05,1187,-6921,4469,0,0,0
-165.80,8.27,-57.05,1192,-6917,4476,0,0,0
-165.80,8.26,-57.04,1184,-6905,4493,0,0,-1
-165.80,8.26,-57.04,1202,-6896,4490,-1,-1,0
-165.80,8.27,-57.04,1197,-6905,4486,-1,0,0
-165.81,8.26,-57.05,1203,-6911,4483,-1,0,0
-165.81,8.26,-57.05,1190,-6920,4476,-1,0,0
-165.82,8.25,-57.05,1185,-6921,4472,0,0,0
-165.82,8.25,-57.05,1188,-6911,4476,-1,0,-1
-165.82,8.25,-57.05,1193,-6911,4482,-1,-1,0
-165.82,8.25,-57.05,1197,-6909,4482,-1,0,0
-165.83,8.24,-57.06,1194,-6921,4473,-1,0,0
-165.84,8.23,-57.06,1183,-6921,4487,-1,0,0
-165.85,8.23,-57.07,1175,-6922,4484,-1,0,0
-165.85,8.23,-57.08,1175,-6926,4469,-1,0,-1
-165.85,8.23,-57.09,1181,-6932,4460,0,-1,-1
-165.85,8.23,-57.09,1184,-6923,4454,0,-1,-1
-165.85,8.24,-57.09,1190,-6913,4467,0,-1,-1
-165.84,8.23,-57.08,1197,-6910,4472,-1,-1,0
-165.85,8.23,-57.09,1190,-6920,4482,-1,0,0
-165.85,8.23,-57.09,1191,-6917,4488,-1,-1,0
-165.85,8.23,-57.10,1192,-6926,4479,-1,-1,0
-165.86,8.23,-57.10,1187,-6925,4460,-1,-1,-1
-165.85,8.23,-57.10,1197,-6928,4464,0,0,-1
-165.85,8.23,-57.09,1192,-6912,4475,0,-1,0
-165.85,8.23,-57.09,1195,-6916,4477,0,0,0
-165.85,8.23,-57.09,1188,-6925,4479,-1,-1,-1
-165.85,8.23,-57.09,1185,-6929,4475,0,-1,-1
-165.85,8.23,-57.08,1185,-6924,4467,0,0,-1
-165.85,8.24,-57.08,1187,-6913,4478,0,-1,-1
-165.84,8.24,-57.07,1181,-6915,4484,0,-1,-1
-165.84,8.24,-57.07,1186,-6923,4473,0,-1,-1
-165.84,8.25,-57.07,1193,-6926,4472,0,0,-1
-179.52,-6.70,7.65,-258,-258,-258,-258,-258,-258
-165.82,8.25,-57.05,1189,-6920,4479,0,0,-1
-165.81,8.26,-57.04,1188,-6907,4477,0,-1,-1
-165.80,8.27,-57.04,1195,-6900,4488,-1,-1,-1
-165.80,8.27,-57.05,1193,-6902,4467,0,0,-1
-165.79,8.28,-57.03,1188,-6921,4460,0,0,-1
-165.78,8.28,-57.02,1190,-6916,4484,0,-1,-1
-165.77,8.30,-57.02,1197,-6914,4485,0,-1,-1
-165.76,8.30,-57.02,1188,-6896,4473,-1,-1,-1
-165.76,8.31,-57.02,1193,-6897,4467,-1,-1,-1
-165.75,8.32,-57.03,1213,-6916,4465,0,-1,-1
-165.74,8.33,-57.02,1219,-6919,4471,0,0,-1
-165.73,8.33,-57.01,1214,-6911,4490,0,0,-1
-165.73,8.33,-57.01,1219,-6888,4501,-1,-1,0
-165.74,8.33,-57.02,1203,-6893,4497,-1,-1,0
-165.74,8.33,-57.03,1196,-6893,4497,-1,-1,0
-165.74,8.33,-57.06,1186,-6924,4458,-1,-1,-1
-165.74,8.34,-57.06,1197,-6946,4457,0,-1,-1
-165.72,8.35,-57.06,1208,-6937,4453,0,0,-1
-165.71,8.36,-57.05,1206,-6906,4465,0,0,-1
-165.70,8.36,-57.03,1220,-6890,4486,0,0,-1
-165.70,8.37,-57.03,1222,-6891,4490,-1,0,-1
-165.70,8.37,-57.04,1217,-6897,4493,-1,-1,0
-165.70,8.37,-57.05,1205,-6922,4467,-1,0,0
-165.70,8.37,-57.06,1206,-6928,4462,-1,-1,-1
-165.71,8.36,-57.06,1201,-6935,4461,0,0,-1
-165.70,8.36,-57.05,1198,-6922,4468,0,0,-1
-165.70,8.36,-57.04,1204,-6912,4483,0,-1,-1
-165.69,8.37,-57.04,1203,-6919,4466,0,0,-1
-165.69,8.37,-57.03,1203,-6903,4472,0,0,-1
-165.69,8.37,-57.03,1203,-6890,4473,0,-1,-1
-165.68,8.38,-57.04,1213,-6912,4462,-1,-1,-1
-165.68,8.38,-57.03,1216,-6918,4463,0,0,-1
-165.68,8.38,-57.02,1217,-6923,4484,0,0,-1
-165.68,8.38,-57.00,1209,-6908,4488,0,0,0
-165.67,8.38,-57.00,1204,-6901,4492,0,0,-1
-165.66,8.38,-57.00,1209,-6898,4507,-1,0,-1
-165.66,8.38,-57.00,1209,-6915,4475,0,-1,-1
-165.65,8.39,-57.00,1214,-6918,4481,0,0,-1
-165.64,8.40,-56.99,1221,-6907,4483,0,0,-1
-165.64,8.40,-56.99,1224,-6892,4489,-1,0,-1
-165.64,8.40,-56.99,1215,-6903,4481,-1,0,-1
-165.64,8.40,-57.00,1210,-6900,4474,-1,0,-1
-165.64,8.40,-57.01,1201,-6898,4482,-1,-1,-1
-165.64,8.40,-57.00,1207,-6890,4481,0,-1,0
-165.64,8.40,-57.00,1202,-6887,4481,0,0,-1
-165.64,8.40,-57.00,1214,-6883,4492,-1,0,0
-165.65,8.39,-57.01,1199,-6905,4463,-1,0,0
-165.66,8.39,-57.03,1205,-6917,4452,-1,0,0
-165.66,8.38,-57.03,1205,-6910,4450,0,-1,0
-165.67,8.38,-57.03,1204,-6906,4470,-1,-1,0
-165.67,8.38,-57.03,1205,-6904,4489,0,0,0
-165.68,8.37,-57.04,1206,-6922,4485,-1,0,0
-165.68,8.37,-57.04,1207,-6923,4488,-1,-1,-1
-165.68,8.37,-57.04,1203,-6920,4476,0,-1,-1
-165.68,8.37,-57.04,1216,-6895,4469,-1,-1,0
-165.68,8.37,-57.04,1214,-6889,4470,-1,0,0
-165.69,8.36,-57.05,1204,-6902,4471,-1,-1,0
-165.69,8.37,-57.07,1208,-6916,4469,-1,-1,0
-165.70,8.36,-57.08,1211,-6920,4461,-1,0,0
-165.71,8.35,-57.08,1205,-6914,4457,0,0,0
-165.71,8.35,-57.09,1200,-6925,4448,0,0,0
-165.71,8.34,-57.08,1205,-6914,4460,0,0,0
-165.72,8.33,-57.07,1200,-6922,4463,0,0,0
-165.72,8.33,-57.07,1186,-6927,4477,0,0,-1
-165.72,8.33,-57.07,1188,-6939,4470,0,0,-1
-165.71,8.33,-57.06,1203,-6927,4469,0,-1,-1
-165.71,8.33,-57.06,1213,-6915,4462,0,0,0
-165.72,8.33,-57.05,1211,-6891,4483,-1,0,0
-165.72,8.32,-57.05,1200,-6890,4465,0,0,0
-165.73,8.31,-57.06,1189,-6919,4456,-1,0,0
-165.74,8.30,-57.06,1194,-6935,4448,0,0,0
-165.73,8.30,-57.05,1184,-6935,4452,0,0,-1
-165.73,8.30,-57.03,1190,-6912,4465,0,0,-1
-165.73,8.30,-57.03,1198,-6902,4481,0,0,-1
-165.73,8.30,-57.02,1196,-6891,4499,-1,-1,0
-165.73,8.30,-57.03,1201,-6913,4478,-1,0,-1
-165.72,8.31,-57.03,1202,-6923,4481,0,0,-1
-165.72,8.30,-57.02,1204,-6911,4479,0,0,0
-165.72,8.30,-57.01,1202,-6876,4497,-1,-1,0
-165.73,8.29,-57.03,1196,-6884,4484,-1,0,0
-165.74,8.29,-57.04,1193,-6910,4485,-1,-1,0
-165.75,8.28,-57.05,1194,-6930,4480,-1,0,0
-165.75,8.28,-57.06,1200,-6927,4468,-1,0,0
-165.75,8.28,-57.06,1200,-6909,4478,-1,0,0
-165.76,8.27,-57.07,1182,-6912,4468,-1,-1,0
-165.76,8.27,-57.07,1187,-6907,4477,-1,-1,0
-165.77,8.26,-57.08,1189,-6914,4481,-1,0,0
-165.78,8.26,-57.08,1191,-6916,4483,-1,-1,0
-165.78,8.26,-57.08,1201,-6917,4479,0,0,0
-165.79,8.25,-57.07,1196,-6901,4497,-1,0,0
-165.81,8.23,-57.09,1183,-6906,4478,-1,0,0
-165.81,8.22,-57.10,1168,-6913,4469,-1,0,0
-165.82,8.22,-57.10,1169,-6931,4473,0,0,-1
-165.82,8.22,-57.10,1180,-6927,4471,-1,-1,-1
-165.82,8.22,-57.10,1187,-6926,4465,0,0,0
-165.83,8.21,-57.11,1185,-6905,4477,-1,-1,0
-165.83,8.21,-57.11,1179,-6910,4464,-1,0,0
-165.84,8.20,-57.12,1184,-6916,4465,-1,-1,0
-165.85,8.19,-57.12,1186,-6931,4458,0,0,0
-165.84,8.19,-57.11,1187,-6911,4459,-1,-1,0
-165.85,8.18,-57.12,1172,-6919,4448,0,0,0
-165.85,8.18,-57.11,1182,-6918,4450,0,0,-1
-165.86,8.17,-57.10,1173,-6934,4466,0,0,-1
-165.85,8.18,-57.09,1179,-6934,4470,0,-1,-1
-165.85,8.18,-57.08,1173,-6931,4458,0,0,-1
-165.85,8.18,-57.07,1173,-6908,4472,0,-1,-1
-165.85,8.18,-57.07,1184,-6895,4475,0,-1,0
-165.85,8.18,-57.07,1183,-6908,4479,-1,-1,0
-165.86,8.17,-57.08,1176,-6925,4472,-1,0,0
-165.87,8.17,-57.09,1166,-6934,4449,0,-1,-1
-165.86,8.17,-57.08,1166,-6920,4457,0,-1,-1
-165.86,8.18,-57.07,1177,-6912,4458,0,0,-1
-165.86,8.18,-57.07,1176,-6911,4472,-1,-1,0
-165.86,8.18,-57.07,1181,-6923,4469,0,-1,-1
-165.86,8.18,-57.07,1187,-6915,4475,0,-1,0
-165.86,8.18,-57.07,1171,-6921,4471,0,0,-1
-165.86,8.17,-57.06,1169,-6911,4482,-1,-1,-1
-165.86,8.18,-57.07,1167,-6913,4471,0,-1,-1
-165.85,8.18,-57.07,1177,-6912,4478,-1,-1,-1
-165.85,8.19,-57.07,1178,-6915,4462,0,-1,-1
-165.85,8.19,-57.07,1176,-6916,4479,-1,-1,-1
-165.85,8.19,-57.07,1189,-6911,4469,0,-1,-1
-165.84,8.20,-57.07,1176,-6915,4483,-1,-1,-1
-165.84,8.20,-57.07,1186,-6901,4478,-1,-1,-1
-165.84,8.21,-57.08,1176,-6917,4469,-1,-1,-1
-165.83,8.21,-57.08,1180,-6910,4485,-1,-1,-1
-165.83,8.21,-57.08,1185,-6919,4478,0,-1,-1
-165.83,8.22,-57.08,1193,-6913,4489,-1,-1,0
-165.84,8.21,-57.09,1176,-6917,4470,0,0,0
-165.84,8.21,-57.10,1170,-6915,4468,-1,-1,-1
-165.84,8.21,-57.10,1171,-6919,4468,0,-1,-1
-165.83,8.23,-57.11,1181,-6928,4464,-1,-1,-1
-165.82,8.23,-57.10,1195,-6912,4467,0,-1,-1
-165.82,8.24,-57.10,1192,-6918,4468,0,-1,-1
-165.82,8.24,-57.10,1196,-6901,4484,-1,0,0
-165.82,8.24,-57.11,1190,-6921,4461,-1,0,-1
-165.82,8.24,-57.11,1189,-6921,4473,-1,-1,-1
-165.81,8.24,-57.11,1185,-6925,4457,0,0,-1
-165.81,8.24,-57.11,1189,-6925,4454,0,-1,-1
-165.80,8.24,-57.11,1195,-6918,4452,0,0,-1
-165.80,8.24,-57.11,1183,-6933,4458,-1,-1,-1
-165.80,8.25,-57.10,1180,-6928,4467,0,0,-1
-165.79,8.25,-57.09,1184,-6926,4458,0,0,-1
-165.78,8.26,-57.09,1208,-6920,4475,0,0,-1
-165.77,8.26,-57.09,1202,-6925,4464,0,0,-1
-165.77,8.27,-57.07,1202,-6909,4478,0,0,0
-165.77,8.26,-57.07,1184,-6914,4482,0,-1,-1
-165.76,8.27,-57.07,1189,-6915,4489,-1,-1,-1
-165.76,8.27,-57.07,1180,-6929,4467,0,0,-1
-165.75,8.28,-57.06,1192,-6921,4474,0,-1,-1
-165.74,8.28,-57.06,1193,-6915,4477,0,0,-1
-165.74,8.29,-57.05,1206,-6903,4489,-1,-1,-1
-165.73,8.29,-57.05,1202,-6906,4480,0,0,-1
-165.73,8.29,-57.06,1202,-6913,4468,-1,0,-1
-165.73,8.29,-57.05,1197,-6905,4471,0,-1,-1
-165.73,8.30,-57.05,1198,-6909,4475,-1,-1,-1
-165.73,8.30,-57.05,1207,-6907,4480,-1,-1,-1
-165.72,8.30,-57.05,1198,-6912,4473,0,0,-1
-165.72,8.30,-57.05,1206,-6912,4478,-1,-1,-1
-165.72,8.30,-57.05,1199,-6913,4470,0,0,-1
-165.72,8.30,-57.04,1196,-6893,4494,-1,-1,0
-165.72,8.30,-57.05,1183,-6886,4485,-1,-1,0
-165.73,8.30,-57.06,1188,-6891,4475,-1,-1,0
-165.74,8.30,-57.08,1185,-6916,4457,-1,-1,0
-165.74,8.30,-57.09,1184,-6934,4464,-1,-1,-1
-165.74,8.30,-57.10,1179,-6942,4457,0,-1,-1
-165.73,8.31,-57.10,1197,-6922,4461,-1,-1,-1
-165.73,8.31,-57.10,1199,-6914,4462,-1,-1,-1
-165.73,8.31,-57.10,1202,-6911,4472,-1,-1,0
-165.73,8.31,-57.11,1192,-6918,4455,-1,0,0
-165.73,8.31,-57.11,1196,-6927,4466,-1,0,-1
-165.73,8.31,-57.11,1184,-6942,4469,0,-1,-1
-165.73,8.31,-57.11,1196,-6937,4464,0,0,-1
-165.73,8.31,-57.10,1190,-6918,4454,0,0,0
-165.73,8.31,-57.10,1197,-6911,4457,-1,0,0
-165.73,8.31,-57.10,1194,-6917,4460,0,0,-1
-165.73,8.31,-57.10,1198,-6946,4455,0,0,-1
-165.72,8.31,-57.09,1198,-6942,4456,0,0,-1
-165.71,8.32,-57.07,1200,-6925,4452,0,0,-1
-165.70,8.32,-57.05,1191,-6894,4483,0,0,-1
-165.70,8.32,-57.03,1194,-6880,4502,-1,-1,-1
-165.70,8.32,-57.04,1195,-6891,4491,-1,-1,-1
-165.70,8.32,-57.05,1205,-6919,4479,0,0,-1
-165.70,8.32,-57.05,1207,-6921,4477,0,0,0
-165.70,8.32,-57.04,1197,-6920,4466,0,0,0
-165.70,8.32,-57.04,1189,-6903,4466,0,-1,0
-165.70,8.32,-57.05,1189,-6903,4462,0,0,-1
-165.71,8.31,-57.04,1196,-6905,4475,0,-1,-1
-165.70,8.32,-57.04,1201,-6915,4475,0,0,-1
-165.70,8.32,-57.04,1198,-6915,4485,0,0,-1
-165.70,8.32,-57.04,1200,-6903,4475,-1,0,-1
-165.70,8.32,-57.05,1200,-6890,4473,-1,-1,0
-165.71,8.32,-57.06,1201,-6909,4463,-1,-1,0
-165.71,8.31,-57.07,1208,-6909,4468,-1,-1,0
-165.71,8.31,-57.07,1194,-6918,4478,-1,-1,0
-165.72,8.31,-57.08,1202,-6921,4486,-1,-1,0
-165.72,8.31,-57.09,1193,-6938,4461,-1,0,-1
-165.72,8.31,-57.10,1186,-6914,4456,-1,-1,-1
-165.72,8.31,-57.10,1198,-6919,4453,-1,-1,-1
-165.72,8.31,-57.10,1199,-6917,4465,0,-1,-1
-165.72,8.31,-57.10,1207,-6928,4462,0,0,0
-165.73,8.31,-57.10,1204,-6927,4466,0,0,0
-165.73,8.31,-57.10,1202,-6923,4475,0,0,0
-165.73,8.30,-57.09,1193,-6912,4476,-1,-1,0
-165.73,8.30,-57.10,1189,-6918,4461,-1,0,-1
-165.73,8.30,-57.10,1194,-6926,4468,0,0,-1
-165.72,8.31,-57.10,1196,-6932,4468,0,0,-1
-165.72,8.31,-57.10,1207,-6918,4474,0,0,-1
-165.72,8.31,-57.10,1214,-6899,4483,-1,0,0
-165.73,8.30,-57.11,1205,-6910,4475,-1,0,0
-165.74,8.29,-57.12,1196,-6927,4472,-1,0,0
-165.75,8.28,-57.12,1185,-6925,4475,-1,0,0
-165.76,8.28,-57.12,1186,-6928,4466,-1,0,-1
-165.75,8.28,-57.12,1192,-6918,4457,-1,-1,-1
-165.75,8.29,-57.13,1207,-6918,4460,0,0,-1
-165.75,8.29,-57.12,1204,-6907,4470,0,-1,0
-165.75,8.28,-57.12,1208,-6910,4465,-1,0,0
-165.76,8.27,-57.12,1196,-6910,4491,-1,-1,0
-165.77,8.26,-57.14,1199,-6922,4474,-1,0,0
-165.78,8.26,-57.16,1190,-6927,4452,-1,0,0
-165.79,8.25,-57.16,1185,-6934,4457,-1,0,0
-165.80,8.24,-57.16,1181,-6932,4457,0,0,0
-165.80,8.24,-57.15,1185,-6921,4465,-1,0,-1
-165.79,8.24,-57.15,1198,-6899,4477,-1,0,-1
-165.80,8.24,-57.17,1206,-6915,4453,-1,0,0
-165.80,8.24,-57.16,1193,-6925,4461,0,0,0
-165.81,8.23,-57.16,1182,-6925,4474,-1,0,0
-165.82,8.22,-57.16,1168,-6918,4480,-1,-1,0
-165.82,8.22,-57.18,1173,-6933,4462,-1,-1,-1
-165.82,8.22,-57.18,1186,-6932,4458,0,-1,0
-165.82,8.22,-57.18,1199,-6926,4461,-1,0,0
-165.83,8.21,-57.18,1185,-6925,4463,0,0,0
-165.84,8.21,-57.18,1178,-6927,4468,-1,0,0
-165.85,8.20,-57.18,1166,-6926,4474,-1,0,0
-165.85,8.20,-57.19,1173,-6930,4460,-1,-1,0
-165.85,8.19,-57.20,1177,-6941,4442,0,0,0
-165.86,8.19,-57.20,1185,-6949,4438,0,0,0
-165.86,8.19,-57.18,1184,-6934,4450,0,0,0
-165.86,8.19,-57.17,1179,-6927,4461,-1,-1,0
-165.86,8.18,-57.17,1181,-6918,4450,0,-1,0
-165.86,8.18,-57.18,1166,-6932,4441,0,0,0
-165.86,8.18,-57.17,1166,-6940,4451,0,0,-1
-165.85,8.18,-57.16,1177,-6934,4449,0,0,-1
-165.85,8.18,-57.14,1179,-6913,4468,0,-1,-1
-165.84,8.19,-57.13,1183,-6903,4477,0,-1,0
-165.84,8.19,-57.13,1180,-6895,4464,-1,-1,0
-165.84,8.20,-57.13,1186,-6910,4458,-1,-1,0
-165.85,8.19,-57.14,1190,-6930,4453,0,-1,0
-165.85,8.19,-57.14,1178,-6945,4451,0,0,0
-165.85,8.19,-57.13,1165,-6932,4452,0,0,-1
-165.85,8.19,-57.12,1165,-6917,4470,0,-1,-1
-165.84,8.20,-57.12,1178,-6895,4477,-1,-1,-1
-165.83,8.21,-57.12,1187,-6904,4468,-1,-1,-1
-165.83,8.21,-57.13,1185,-6918,4462,0,-1,-1
-165.82,8.22,-57.13,1189,-6921,4457,0,0,-1
-165.82,8.22,-57.13,1190,-6914,4455,0,0,-1
-165.81,8.22,-57.13,1175,-6926,4451,0,0,-1
-165.81,8.22,-57.11,1171,-6923,4469,0,-1,-1
-165.80,8.23,-57.11,1180,-6934,4491,-1,-1,-1
-165.79,8.24,-57.11,1187,-6924,4478,0,-1,-1
-165.78,8.25,-57.12,1200,-6913,4470,-1,0,-1
-165.78,8.25,-57.12,1195,-6908,4451,0,0,-1
-165.78,8.25,-57.12,1189,-6919,4452,-1,-1,-1
-165.78,8.26,-57.12,1186,-6929,4466,0,0,-1
-165.78,8.26,-57.12,1186,-6936,4467,-1,0,-1
-165.77,8.26,-57.12,1178,-6931,4450,0,0,-1
-165.77,8.26,-57.11,1187,-6920,4457,0,0,-1
-165.76,8.27,-57.11,1187,-6917,4462,0,-1,-1
-165.75,8.28,-57.11,1197,-6910,4472,-1,-1,-1
-165.75,8.28,-57.11,1194,-6920,4468,0,-1,-1
-165.74,8.29,-57.11,1203,-6914,4471,-1,0,-1
-165.74,8.29,-57.11,1200,-6913,4448,0,0,-1
-165.74,8.29,-57.12,1196,-6913,4449,-1,-1,0
-165.74,8.29,-57.12,1191,-6912,4462,0,0,-1
-165.74,8.30,-57.12,1196,-6918,4464,-1,-1,-1
-165.73,8.30,-57.11,1195,-6923,4466,0,-1,-1
-165.73,8.30,-57.11,1198,-6917,4477,-1,0,-1
-165.73,8.30,-57.11,1201,-6911,4478,-1,0,0
-165.73,8.30,-57.11,1196,-6921,4464,-1,-1,-1
-165.73,8.30,-57.10,1193,-6923,4461,0,0,-1
-165.72,8.31,-57.10,1195,-6918,4475,-1,-1,-1
-165.72,8.31,-57.10,1198,-6913,4470,-1,-1,-1
-165.72,8.31,-57.11,1195,-6925,4468,-1,-1,-1
-165.72,8.32,-57.11,1193,-6914,4461,0,-1,-1
-165.71,8.32,-57.11,1198,-6916,4466,-1,-1,-1
-165.71,8.32,-57.11,1205,-6923,4460,0,-1,-1
-165.71,8.33,-57.10,1207,-6938,4474,0,-1,-1
-165.70,8.33,-57.10,1196,-6917,4476,0,0,-1
-165.70,8.33,-57.10,1191,-6911,4475,-1,0,-1
-165.70,8.33,-57.10,1198,-6899,4480,-1,-1,-1
-165.70,8.34,-57.10,1206,-6906,4458,0,0,0
-165.70,8.34,-57.10,1210,-6911,4471,-1,0,0
-165.70,8.33,-57.10,1199,-6920,4460,0,0,-1
-165.70,8.33,-57.10,1200,-6914,4464,-1,-1,-1
-165.70,8.33,-57.10,1198,-6918,4457,0,0,-1
-165.69,8.33,-57.10,1204,-6922,4477,-1,0,-1
-165.69,8.33,-57.10,1197,-6928,4469,0,-1,-1
-165.68,8.34,-57.09,1198,-6921,4486,-1,-1,-1
-165.68,8.34,-57.09,1199,-6906,4484,0,0,-1
-165.68,8.34,-57.10,1211,-6896,4472,-1,0,0
-165.69,8.34,-57.10,1194,-6907,4444,-1,0,0
-165.69,8.34,-57.10,1195,-6918,4446,0,0,-1
-165.69,8.34,-57.10,1184,-6929,4454,0,-1,-1
-165.68,8.34,-57.10,1192,-6923,4473,0,-1,-1
-165.68,8.34,-57.09,1187,-6916,4467,0,0,-1
-165.68,8.35,-57.09,1202,-6908,4470,-1,0,-1
-165.67,8.36,-57.09,1207,-6916,4469,0,-1,-1
-165.67,8.36,-57.09,1212,-6921,4471,-1,0,-1
-165.67,8.36,-57.09,1214,-6917,4473,0,0,0
-165.67,8.36,-57.09,1205,-6918,4458,-1,0,0
-165.67,8.35,-57.09,1197,-6916,4466,0,0,-1
-165.67,8.35,-57.09,1202,-6914,4474,-1,-1,-1
-165.67,8.35,-57.09,1192,-6921,4463,0,-1,-1
-165.67,8.35,-57.09,1195,-6919,4462,0,-1,0
-165.67,8.35,-57.08,1196,-6909,4465,0,-1,-1
-165.67,8.35,-57.08,1201,-6902,4466,-1,-1,0
-165.67,8.35,-57.08,1199,-6930,4462,0,-1,0
-165.68,8.35,-57.08,1193,-6925,4476,0,-1,0
-165.68,8.34,-57.08,1184,-6901,4486,-1,0,-1
-165.67,8.35,-57.09,1189,-6901,4471,-1,-1,-1
-165.67,8.36,-57.10,1214,-6919,4434,0,0,-1
-165.66,8.36,-57.09,1232,-6916,4451,0,0,0
-165.67,8.35,-57.08,1216,-6918,4464,0,0,0
-165.68,8.34,-57.08,1191,-6909,4475,-1,0,0
-165.68,8.35,-57.09,1195,-6907,4466,0,-1,-1
-165.68,8.34,-57.08,1199,-6906,4488,-1,-1,0
-165.68,8.35,-57.09,1207,-6914,4467,0,-1,0
-165.68,8.35,-57.08,1208,-6912,4469,0,0,0
-165.68,8.34,-57.08,1203,-6903,4469,0,0,0
-165.68,8.34,-57.07,1197,-6900,4485,-1,-1,0
-165.68,8.34,-57.08,1200,-6912,4469,-1,0,0
-165.69,8.34,-57.08,1198,-6916,4455,0,0,0
-165.69,8.34,-57.08,1196,-6919,4445,0,0,-1
-165.68,8.33,-57.07,1201,-6922,4461,0,0,-1
-165.68,8.34,-57.06,1198,-6917,4477,0,0,-1
-165.68,8.33,-57.06,1194,-6905,4487,-1,-1,0
-165.68,8.33,-57.06,1197,-6908,4477,-1,0,0
-165.69,8.33,-57.07,1192,-6906,4470,-1,0,0
-165.69,8.32,-57.08,1197,-6916,4456,-1,0,0
-165.70,8.32,-57.07,1185,-6929,4467,0,0,-1
-165.70,8.32,-57.07,1201,-6917,4470,-1,0,0
-165.70,8.32,-57.07,1194,-6916,4460,0,0,0
-165.70,8.31,-57.07,1191,-6906,4456,-1,-1,0
-165.71,8.31,-57.07,1176,-6923,4453,0,-1,-1
-165.71,8.31,-57.07,1190,-6912,4473,-1,-1,-1
-165.71,8.31,-57.07,1205,-6921,4472,-1,0,0
-165.71,8.31,-57.08,1195,-6921,4462,-1,0,0
-165.72,8.30,-57.08,1190,-6927,4458,0,0,0
-165.72,8.29,-57.07,1181,-6907,4479,-1,-1,-1
-165.72,8.29,-57.08,1178,-6900,4467,-1,-1,-1
-165.72,8.30,-57.09,1187,-6908,4452,-1,-1,-1
-165.72,8.30,-57.09,1203,-6928,4461,0,0,-1
-165.71,8.30,-57.08,1211,-6926,4492,0,0,-1
-165.71,8.30,-57.08,1198,-6914,4489,-1,0,0
-165.72,8.29,-57.09,1201,-6898,4483,-1,0,0
-165.73,8.28,-57.11,1199,-6912,4453,-1,0,0
-165.74,8.27,-57.10,1198,-6915,4465,0,0,0
-165.74,8.27,-57.10,1183,-6919,4474,-1,0,0
-165.75,8.26,-57.11,1185,-6915,4466,-1,0,0
-165.75,8.26,-57.12,1187,-6927,4453,-1,0,0
-165.75,8.25,-57.12,1188,-6918,4468,-1,0,0
-165.76,8.25,-57.12,1178,-6929,4450,-1,0,0
-165.77,8.24,-57.13,1177,-6935,4455,0,0,0
-165.77,8.24,-57.11,1180,-6927,4470,0,0,-1
-165.77,8.24,-57.11,1196,-6901,4479,-1,-1,0
-165.77,8.24,-57.12,1191,-6907,4475,-1,0,0
-165.78,8.23,-57.12,1190,-6912,4456,-1,0,0
-165.79,8.22,-57.13,1186,-6936,4450,-1,0,0
-165.79,8.22,-57.13,1181,-6934,4441,0,0,0
-165.79,8.22,-57.13,1175,-6931,4451,-1,0,0
-165.80,8.21,-57.13,1171,-6923,4445,0,-1,-1
-165.80,8.21,-57.13,1180,-6924,4449,0,-1,-1
-165.80,8.22,-57.12,1189,-6914,4472,-1,-1,0
-165.80,8.21,-57.13,1193,-6921,4463,-1,0,0
-165.80,8.21,-57.13,1206,-6906,4483,-1,0,0
-165.81,8.20,-57.14,1182,-6934,4457,-1,0,0
-165.82,8.18,-57.15,1162,-6932,4461,-1,-1,0
-165.83,8.17,-57.15,1158,-6930,4449,0,-1,0
-165.84,8.17,-57.15,1161,-6902,4460,-1,0,0
-165.84,8.16,-57.16,1165,-6900,4463,-1,0,0
-165.85,8.16,-57.16,1195,-6894,4474,-1,0,0
-165.86,8.15,-57.19,1192,-6919,4448,-1,0,0
-165.88,8.12,-57.20,1171,-6948,4453,-1,0,0
-165.91,8.10,-57.20,1165,-6953,4450,0,0,0
-165.92,8.08,-57.21,1161,-6940,4467,-1,0,0
-165.94,8.06,-57.21,1154,-6939,4458,-1,0,0
-165.95,8.05,-57.22,1159,-6945,4453,0,-1,0
-165.96,8.04,-57.22,1163,-6949,4438,0,0,0
-165.98,8.02,-57.22,1150,-6942,4441,0,0,0
-165.99,8.01,-57.21,1160,-6920,4466,-1,0,0
-166.01,8.00,-57.22,1150,-6925,4466,-1,0,0
-166.02,7.98,-57.23,1155,-6925,4465,-1,0,0
-166.05,7.96,-57.25,1128,-6937,4453,-1,0,0
-166.06,7.95,-57.26,1141,-6930,4454,-1,0,0
-166.07,7.94,-57.27,1142,-6943,4442,-1,0,0
-166.08,7.92,-57.28,1119,-6952,4436,0,0,-1
-166.08,7.92,-57.28,1130,-6940,4447,-1,-1,0
-166.10,7.91,-57.30,1106,-6957,4438,-1,-1,0
-166.11,7.91,-57.31,1152,-6942,4462,-1,-1,0
-166.13,7.91,-57.33,1194,-6919,4462,-2,-1,1
-166.16,7.88,-57.36,1163,-6916,4424,-1,-1,0
-166.19,7.86,-57.38,1137,-6920,4411,-1,-1,0
-166.20,7.85,-57.39,1120,-6936,4399,-1,-1,0
-166.22,7.84,-57.39,1102,-6971,4398,0,0,0
-166.22,7.84,-57.39,1082,-6978,4408,0,-1,-1
-166.21,7.85,-57.37,1095,-6936,4449,-1,-1,-1
-166.19,7.87,-57.37,1131,-6934,4446,-1,-1,-1
-166.18,7.88,-57.37,1145,-6947,4450,-1,0,-1
-166.17,7.89,-57.37,1140,-6922,4443,0,-1,-1
-166.16,7.90,-57.37,1127,-6949,4467,-1,-1,-1
-166.16,7.91,-57.38,1109,-6967,4458,-1,-1,-1
-166.13,7.94,-57.40,1129,-6971,4426,-1,-1,-1
-166.12,7.96,-57.39,1164,-6960,4406,0,-1,-1
-166.11,7.97,-57.38,1166,-6962,4391,0,-1,-1
-166.10,7.98,-57.35,1152,-6941,4428,0,-1,-1
-166.09,7.98,-57.33,1125,-6928,4462,0,-1,-1
-166.08,7.99,-57.34,1129,-6918,4468,-1,-1,-1
-166.07,8.01,-57.36,1153,-6946,4426,-1,-1,-1
-166.06,8.02,-57.35,1171,-6956,4420,0,-1,-1
-166.05,8.03,-57.35,1165,-6962,4405,0,0,-1
-166.05,8.03,-57.33,1156,-6946,4441,0,-1,-1
-166.04,8.04,-57.31,1143,-6937,4457,0,-1,-1
-166.02,8.06,-57.31,1163,-6917,4472,-1,-1,-1
-166.01,8.07,-57.33,1172,-6926,4444,-1,0,-1
-166.00,8.08,-57.33,1181,-6944,4436,-1,0,-1
-166.00,8.08,-57.33,1156,-6960,4426,0,0,-1
-165.99,8.08,-57.32,1150,-6969,4434,0,-1,-1
-165.98,8.10,-57.30,1151,-6944,4452,0,-1,-1
-165.96,8.11,-57.30,1164,-6929,4456,0,0,-1
-165.95,8.12,-57.29,1177,-6920,4437,0,-1,-1
-165.94,8.13,-57.29,1184,-6942,4427,0,0,-1
-165.94,8.13,-57.28,1186,-6946,4432,0,0,-1
-165.93,8.13,-57.27,1151,-6971,4413,0,0,-1
-165.91,8.14,-57.24,1163,-6950,4427,0,0,-1
-165.89,8.16,-57.22,1176,-6924,4442,0,0,-1
-165.88,8.17,-57.20,1192,-6915,4467,0,0,-1
-165.87,8.17,-57.20,1184,-6922,4457,0,0,-1
-165.87,8.17,-57.19,1183,-6936,4467,0,-1,-1
-165.86,8.18,-57.17,1163,-6937,4446,0,0,-1
-165.85,8.19,-57.16,1173,-6917,4465,0,-1,-1
-165.84,8.20,-57.15,1173,-6896,4462,0,-1,-1
-165.83,8.21,-57.15,1181,-6915,4458,-1,-1,-1
-165.82,8.22,-57.15,1181,-6931,4449,0,-1,-1
-165.82,8.22,-57.14,1175,-6941,4452,0,-1,-1
-165.80,8.23,-57.12,1176,-6923,4487,0,0,-1
-165.80,8.23,-57.12,1154,-6921,4483,-1,-1,-1
-165.78,8.24,-57.13,1183,-6907,4481,-1,-1,-1
-165.76,8.26,-57.13,1210,-6894,4459,-1,0,-1
-165.76,8.27,-57.13,1227,-6907,4448,-1,0,0
-165.77,8.25,-57.13,1203,-6919,4471,0,0,0
-165.78,8.25,-57.13,1186,-6927,4498,-1,0,0
-165.79,8.24,-57.13,1167,-6935,4494,-1,-1,-1
-165.79,8.24,-57.17,1157,-6961,4464,-1,-1,-1
-165.78,8.25,-57.17,1168,-6920,4428,0,-1,-1
-165.76,8.27,-57.18,1175,-6912,4425,-1,0,-1
-165.75,8.28,-57.17,1205,-6919,4452,0,0,-1
-165.75,8.28,-57.17,1207,-6948,4463,0,0,-1
-165.75,8.28,-57.17,1212,-6932,4491,-1,0,0
-165.75,8.27,-57.18,1182,-6918,4471,-1,0,0
-165.76,8.27,-57.20,1187,-6903,4446,-1,0,-1
-165.76,8.27,-57.21,1203,-6897,4405,0,0,0
-165.77,8.26,-57.21,1211,-6929,4410,0,0,0
-165.78,8.25,-57.19,1179,-6967,4434,1,0,0
-165.78,8.24,-57.16,1162,-6974,4489,0,0,-1
-165.77,8.24,-57.14,1157,-6938,4521,0,0,-1
-165.78,8.24,-57.15,1147,-6916,4495,-1,0,-1
-165.76,8.25,-57.16,1156,-6895,4444,-1,-1,-1
-165.75,8.26,-57.16,1183,-6895,4411,0,0,-1
-165.74,8.27,-57.15,1207,-6921,4424,0,0,-1
-165.74,8.26,-57.13,1200,-6955,4454,1,0,0
-165.75,8.25,-57.11,1190,-6955,4502,-1,0,0
-165.75,8.25,-57.11,1165,-6939,4486,0,0,-1
-165.74,8.26,-57.11,1164,-6912,4472,-1,-1,-1
-165.73,8.27,-57.12,1172,-6906,4451,0,-1,-1
-165.73,8.27,-57.12,1190,-6896,4453,-1,-1,-1
-165.73,8.27,-57.11,1205,-6897,4464,0,0,0
-165.73,8.27,-57.12,1190,-6916,4462,-1,0,0
-165.73,8.26,-57.11,1181,-6941,4474,0,0,-1
-165.73,8.26,-57.12,1160,-6962,4469,0,-1,-1
-165.72,8.27,-57.11,1168,-6931,4476,0,-1,-1
-165.71,8.28,-57.11,1180,-6895,4474,-1,-1,-1
-165.70,8.30,-57.11,1209,-6895,4472,-1,-1,-1
-165.71,8.29,-57.13,1223,-6941,4440,0,0,0
-165.72,8.28,-57.12,1210,-6956,4438,0,0,0
-165.73,8.27,-57.10,1185,-6927,4470,0,0,0
-165.73,8.27,-57.09,1169,-6906,4492,-1,0,-1
-165.73,8.27,-57.10,1168,-6907,4486,-1,-1,-1
-165.73,8.27,-57.12,1188,-6919,4452,-1,-1,-1
-165.72,8.27,-57.12,1198,-6946,4441,0,0,0
-165.73,8.27,-57.12,1201,-6950,4451,0,0,0
-165.73,8.27,-57.11,1197,-6928,4469,0,0,0
-165.73,8.26,-57.11,1183,-6912,4473,-1,0,0
-165.74,8.25,-57.12,1193,-6879,4474,-1,0,0
-165.75,8.25,-57.14,1183,-6902,4448,-1,0,0
-165.76,8.24,-57.16,1171,-6943,4432,0,0,0
-165.76,8.24,-57.15,1173,-6951,4446,0,0,0
-165.77,8.23,-57.14,1173,-6928,4474,0,0,0
-165.77,8.23,-57.14,1184,-6915,4462,-1,0,0
-165.78,8.22,-57.15,1175,-6928,4448,0,-1,0
-165.77,8.23,-57.14,1182,-6930,4453,0,0,-1
-165.77,8.23,-57.14,1181,-6922,4477,0,-1,0
-165.77,8.23,-57.14,1181,-6913,4479,-1,-1,0
-165.78,8.22,-57.14,1168,-6909,4464,0,-1,0
-165.78,8.22,-57.14,1182,-6907,4447,-1,-1,0
-165.79,8.21,-57.14,1189,-6936,4442,0,0,0
-165.79,8.21,-57.14,1199,-6935,4463,0,0,0
-165.80,8.20,-57.13,1179,-6923,4467,0,0,0
-165.81,8.19,-57.13,1169,-6903,4468,-1,0,0
-165.81,8.19,-57.14,1169,-6912,4452,0,0,-1
-165.81,8.19,-57.13,1181,-6923,4470,0,-1,0
-165.81,8.19,-57.12,1185,-6929,4478,0,0,0
-165.82,8.18,-57.12,1179,-6921,4475,-1,0,0
-165.82,8.18,-57.13,1176,-6929,4454,0,0,0
-165.83,8.17,-57.13,1172,-6922,4460,-1,0,0
-165.83,8.17,-57.13,1164,-6929,4455,0,0,0
-165.84,8.17,-57.14,1172,-6929,4455,-1,-1,-1
-165.83,8.17,-57.14,1184,-6929,4440,0,0,-1
-165.83,8.17,-57.14,1193,-6919,4457,-1,-1,0
-165.83,8.17,-57.14,1180,-6922,4451,0,0,0
-165.84,8.16,-57.14,1163,-6923,4463,-1,-1,0
-165.85,8.16,-57.15,1162,-6940,4462,-1,-1,-1
-165.85,8.17,-57.16,1169,-6959,4445,0,-1,-1
-165.84,8.17,-57.14,1193,-6938,4440,0,0,0
-165.84,8.17,-57.13,1188,-6928,4457,0,-1,0
-165.84,8.16,-57.13,1172,-6931,4463,0,0,-1
-165.84,8.17,-57.13,1161,-6940,4457,0,-1,-1
-165.83,8.17,-57.12,1168,-6935,4474,0,-1,-1
-165.82,8.19,-57.11,1180,-6924,4470,0,-1,-1
-165.81,8.19,-57.11,1174,-6924,4462,0,0,-1
-165.82,8.18,-57.11,1178,-6925,4488,-1,0,-1
-165.82,8.18,-57.11,1167,-6933,4477,-1,-1,-1
-165.81,8.19,-57.11,1182,-6923,4472,-1,-1,-1
-165.81,8.19,-57.12,1169,-6934,4460,0,-1,-1
-165.80,8.20,-57.11,1177,-6925,4467,0,0,-1
-165.80,8.20,-57.11,1176,-6919,4473,0,0,-1
-165.79,8.21,-57.10,1184,-6915,4485,-1,-1,-1
-165.79,8.21,-57.11,1183,-6915,4471,-1,-1,-1
-165.79,8.22,-57.11,1194,-6913,4458,-1,0,-1
-165.78,8.22,-57.11,1189,-6920,4452,0,0,-1
-165.78,8.22,-57.11,1185,-6920,4455,0,-1,-1
-165.78,8.22,-57.11,1178,-6918,4471,0,-1,-1
-165.77,8.23,-57.10,1186,-6908,4484,-1,-1,-1
-165.77,8.24,-57.11,1186,-6926,4463,0,-1,-1
-165.77,8.24,-57.10,1190,-6920,4473,0,0,-1
-165.76,8.24,-57.10,1182,-6908,4481,-1,0,-1
-165.76,8.23,-57.11,1184,-6901,4469,-1,-1,-1
-165.76,8.23,-57.11,1179,-6924,4466,0,0,-1
-165.76,8.24,-57.11,1184,-6932,4472,0,-1,-1
-165.76,8.24,-57.11,1172,-6932,4468,0,0,-1
-165.75,8.24,-57.10,1179,-6920,4482,-1,-1,-1
-165.75,8.25,-57.11,1193,-6913,4473,-1,0,-1
-165.74,8.26,-57.11,1207,-6896,4473,-1,0,0
-165.75,8.25,-57.13,1207,-6918,4448,-1,0,0
-165.76,8.24,-57.13,1191,-6934,4447,0,-1,0
-165.76,8.24,-57.13,1169,-6949,4463,0,0,-1
-165.75,8.24,-57.12,1168,-6932,4493,-1,-1,-1
-165.75,8.25,-57.13,1179,-6917,4481,-1,-1,-1
-165.74,8.26,-57.14,1200,-6900,4459,-1,0,-1
-165.74,8.26,-57.15,1196,-6902,4452,-1,0,0
-165.75,8.25,-57.16,1201,-6916,4453,-1,0,0
-165.76,8.24,-57.17,1180,-6945,4444,-1,0,0
-165.76,8.24,-57.17,1183,-6956,4458,0,0,0
-165.76,8.24,-57.17,1176,-6951,4451,0,0,-1
-165.76,8.24,-57.16,1173,-6932,4455,-1,0,-1
-165.75,8.24,-57.16,1171,-6911,4453,-1,0,-1
-165.75,8.24,-57.17,1177,-6911,4469,-1,-1,-1
-165.75,8.24,-57.18,1179,-6928,4456,-1,-1,-1
-165.74,8.25,-57.19,1188,-6932,4451,-1,-1,-1
-165.74,8.26,-57.19,1189,-6915,4447,0,-1,0
-165.75,8.25,-57.19,1190,-6911,4447,-1,0,0
-165.75,8.25,-57.20,1186,-6908,4452,-1,0,0
-165.76,8.24,-57.22,1186,-6934,4451,-1,0,0
-165.76,8.24,-57.22,1190,-6953,4439,-1,0,0
-165.76,8.24,-57.22,1165,-6954,4429,0,-1,-1
-165.76,8.23,-57.21,1165,-6894,4449,-1,0,0
-165.76,8.23,-57.22,1146,-6917,4452,-1,-1,-1
-165.76,8.24,-57.23,1142,-6953,4440,-1,-1,-1
-165.74,8.27,-57.23,1185,-6981,4435,0,-1,-1
-165.72,8.29,-57.20,1228,-6949,4452,0,-1,-1
-165.71,8.29,-57.19,1237,-6918,4458,0,0,0
-165.72,8.28,-57.18,1209,-6891,4466,-1,0,0
-165.74,8.26,-57.18,1168,-6885,4458,-1,0,0
-165.74,8.26,-57.20,1168,-6922,4457,-1,-1,-1
-165.74,8.27,-57.21,1188,-6935,4449,0,-1,-1
-165.73,8.28,-57.21,1210,-6954,4437,0,-1,0
-165.73,8.27,-57.20,1209,-6948,4443,0,0,0
-165.73,8.27,-57.18,1205,-6945,4465,0,0,0
-165.74,8.26,-57.18,1184,-6926,4481,-1,0,0
-165.74,8.26,-57.18,1174,-6915,4460,-1,-1,-1
-165.74,8.26,-57.19,1166,-6927,4434,-1,-1,-1
-165.74,8.27,-57.20,1173,-6947,4414,0,0,-1
-165.72,8.28,-57.18,1192,-6950,4429,0,-1,-1
-165.71,8.29,-57.16,1200,-6944,4452,0,0,-1
-165.70,8.29,-57.15,1199,-6936,4470,0,0,-1
-165.70,8.29,-57.14,1200,-6915,4478,0,0,-1
-165.71,8.28,-57.14,1191,-6906,4471,-1,0,0
-165.70,8.29,-57.14,1200,-6911,4449,0,0,-1
-165.70,8.29,-57.12,1190,-6921,4468,0,-1,-1
-165.70,8.29,-57.12,1197,-6924,4483,0,-1,-1
-165.70,8.29,-57.11,1196,-6929,4477,0,-1,-1
-165.70,8.30,-57.12,1197,-6928,4468,0,-1,-1
-165.70,8.30,-57.12,1199,-6903,4463,-1,-1,0
-165.70,8.30,-57.12,1191,-6915,4470,-1,0,-1
-165.70,8.30,-57.14,1192,-6928,4468,-1,-1,-1
-165.70,8.30,-57.15,1186,-6944,4451,-1,-1,-1
-165.69,8.31,-57.15,1192,-6945,4444,0,-1,-1
-165.69,8.31,-57.14,1199,-6931,4442,0,0,-1
-165.69,8.31,-57.12,1208,-6910,4464,0,0,-1
-165.69,8.31,-57.13,1208,-6908,4475,-1,0,0
-165.69,8.31,-57.14,1211,-6910,4473,-1,0,0
-165.71,8.29,-57.15,1192,-6919,4455,-1,0,0
-165.71,8.29,-57.15,1187,-6914,4454,0,0,0
-165.72,8.28,-57.15,1180,-6926,4445,0,0,-1
-165.71,8.29,-57.14,1181,-6928,4455,0,-1,-1
-165.71,8.29,-57.13,1189,-6928,4454,0,-1,-1
-165.71,8.29,-57.12,1191,-6916,4476,-1,-1,0
-165.71,8.29,-57.13,1205,-6922,4468,-1,0,0
-165.71,8.28,-57.14,1185,-6928,4456,-1,-1,0
-165.71,8.28,-57.14,1183,-6925,4465,-1,0,-1
-165.71,8.28,-57.15,1179,-6927,4473,-1,-1,-1
-165.71,8.28,-57.16,1193,-6927,4461,-1,-1,0
-165.72,8.28,-57.16,1194,-6914,4460,0,0,0
-165.72,8.28,-57.16,1189,-6919,4450,-1,0,0
-165.72,8.28,-57.16,1198,-6923,4457,0,0,0
-165.72,8.27,-57.16,1189,-6928,4472,-1,0,0
-165.73,8.26,-57.16,1183,-6928,4476,-1,-1,0
-165.73,8.26,-57.16,1185,-6922,4462,-1,0,-1
-165.73,8.26,-57.16,1200,-6915,4461,0,0,0
-165.73,8.27,-57.17,1211,-6913,4452,-1,0,0
-165.74,8.26,-57.18,1187,-6941,4441,0,0,0
-165.75,8.24,-57.16,1167,-6936,4462,0,-1,0
-165.75,8.24,-57.16,1163,-6913,4455,0,0,-1
-165.75,8.25,-57.16,1179,-6910,4456,-1,-1,-1
-165.75,8.25,-57.17,1198,-6928,4444,0,0,0
-165.75,8.25,-57.16,1212,-6940,4445,0,0,0
-165.76,8.24,-57.14,1192,-6929,4458,0,0,0
-165.76,8.23,-57.13,1180,-6903,4471,0,0,0
-165.76,8.23,-57.13,1172,-6895,4456,-1,-1,-1
-165.76,8.24,-57.14,1186,-6913,4436,-1,-1,-1
-165.76,8.24,-57.14,1191,-6943,4452,0,-1,0
-165.76,8.24,-57.13,1195,-6938,4469,0,-1,0
-165.76,8.24,-57.13,1176,-6925,4462,0,0,-1
-165.76,8.24,-57.12,1177,-6903,4470,0,-1,-1
-165.76,8.24,-57.12,1182,-6896,4469,-1,-1,-1
-165.75,8.24,-57.13,1190,-6906,4468,-1,-1,-1
-165.75,8.25,-57.14,1188,-6934,4441,0,0,-1
-165.76,8.24,-57.13,1189,-6921,4430,0,0,0
-165.76,8.24,-57.13,1186,-6930,4439,0,0,-1
-165.75,8.24,-57.11,1189,-6918,4468,0,-1,-1
-165.75,8.24,-57.11,1191,-6905,4488,-1,-1,0
-165.75,8.24,-57.11,1182,-6908,4487,-1,-1,0
-165.75,8.24,-57.12,1196,-6931,4468,-1,0,0
-165.76,8.23,-57.12,1196,-6921,4459,0,0,0
-165.77,8.23,-57.13,1191,-6932,4461,-1,-1,0
-165.77,8.23,-57.13,1182,-6924,4459,-1,0,0
-165.77,8.23,-57.14,1183,-6929,4459,-1,-1,-1
-165.77,8.23,-57.14,1180,-6923,4455,-1,-1,-1
-165.77,8.23,-57.14,1191,-6923,4455,-1,-1,-1
-165.77,8.23,-57.15,1179,-6923,4444,-1,0,-1
-165.76,8.24,-57.15,1193,-6920,4442,0,-1,-1
-165.76,8.24,-57.14,1197,-6922,4453,0,-1,0
-165.76,8.24,-57.14,1205,-6919,4463,-1,0,0
-165.77,8.24,-57.14,1198,-6920,4461,0,0,0
-165.77,8.24,-57.14,1188,-6916,4466,-1,-1,-1
-165.77,8.24,-57.15,1194,-6919,4461,-1,-1,-1
-165.76,8.25,-57.15,1194,-6923,4457,0,0,-1
-165.76,8.25,-57.14,1200,-6920,4463,0,0,0
-165.76,8.25,-57.14,1190,-6922,4446,0,0,-1
-165.76,8.24,-57.13,1184,-6934,4456,0,0,-1
-165.75,8.24,-57.12,1182,-6935,4465,0,0,-1
-165.74,8.25,-57.11,1195,-6920,4476,0,0,-1
-165.73,8.25,-57.10,1188,-6905,4478,0,0,-1
-165.73,8.25,-57.09,1195,-6901,4477,-1,0,-1
-165.74,8.25,-57.10,1193,-6913,4463,0,0,-1
-165.73,8.26,-57.10,1201,-6925,4471,-1,0,-1
-165.73,8.25,-57.10,1191,-6928,4460,0,0,-1
-165.73,8.26,-57.09,1190,-6929,4465,0,0,-1
-165.72,8.26,-57.09,1192,-6913,4472,0,0,-1
-165.72,8.26,-57.09,1194,-6913,4480,-1,0,-1
-165.72,8.26,-57.08,1193,-6921,4470,-1,0,-1
-165.72,8.26,-57.09,1205,-6921,4464,0,0,-1
-165.71,8.27,-57.08,1209,-6911,4468,0,0,0
-165.71,8.27,-57.08,1196,-6917,4475,0,-1,-1
-165.71,8.26,-57.07,1191,-6909,4474,0,0,-1
-165.71,8.26,-57.07,1186,-6910,4487,0,-1,-1
-165.71,8.27,-57.07,1198,-6912,4481,0,-1,-1
-165.70,8.27,-57.07,1198,-6914,4468,0,0,-1
-165.70,8.27,-57.06,1205,-6909,4476,-1,0,0
-165.70,8.27,-57.06,1198,-6918,4483,0,0,0
-165.70,8.27,-57.06,1197,-6910,4482,0,-1,0
-165.70,8.27,-57.06,1198,-6916,4474,-1,-1,0
-165.71,8.27,-57.07,1196,-6909,4476,-1,-1,0
-165.71,8.27,-57.07,1198,-6920,4480,-1,-1,0
-165.71,8.27,-57.08,1195,-6923,4475,-1,-1,0
-165.72,8.27,-57.09,1195,-6928,4469,-1,-1,0
-165.72,8.27,-57.10,1181,-6926,4462,-1,0,-1
-165.72,8.27,-57.10,1186,-6938,4463,-1,-1,-1
-165.71,8.28,-57.10,1200,-6931,4460,0,-1,-1
-165.71,8.28,-57.10,1205,-6926,4464,0,-1,-1
-165.71,8.28,-57.10,1207,-6912,4473,0,-1,0
-165.71,8.28,-57.10,1202,-6906,4478,-1,0,0
-165.71,8.28,-57.10,1202,-6916,4473,-1,0,0
-165.72,8.27,-57.11,1200,-6936,4465,-1,0,0
-165.72,8.27,-57.11,1193,-6934,4467,0,0,-1
-165.71,8.27,-57.10,1200,-6922,4468,0,0,-1
-165.71,8.27,-57.09,1198,-6918,4468,0,0,-1
-165.71,8.27,-57.08,1217,-6918,4468,0,0,0
-165.71,8.27,-57.07,1203,-6917,4483,0,0,0
-165.71,8.27,-57.07,1198,-6920,4480,-1,0,0
-165.71,8.27,-57.07,1184,-6923,4458,0,0,-1
-165.71,8.27,-57.07,1192,-6917,4450,0,0,-1
-165.71,8.27,-57.07,1194,-6912,4461,0,0,-1
-165.70,8.27,-57.06,1197,-6910,4466,0,0,0
-165.70,8.27,-57.06,1197,-6910,4476,-1,0,0
-165.71,8.27,-57.07,1196,-6921,4467,-1,-1,0
-165.71,8.27,-57.07,1190,-6921,4464,0,0,-1
-165.70,8.27,-57.06,1193,-6918,4460,0,0,-1
-165.70,8.27,-57.05,1185,-6904,4473,0,-1,-1
-165.70,8.27,-57.05,1192,-6907,4481,-1,0,0
-165.71,8.26,-57.05,1194,-6920,4491,-1,-1,0
-165.71,8.26,-57.05,1197,-6920,4479,-1,-1,0
-165.71,8.26,-57.06,1192,-6925,4462,0,0,0
-165.71,8.26,-57.06,1200,-6917,4464,0,-1,0
-165.71,8.26,-57.06,1195,-6910,4471,0,0,0
-165.71,8.26,-57.06,1199,-6913,4479,-1,0,0
-165.72,8.25,-57.06,1188,-6924,4462,0,0,-1
-165.72,8.25,-57.06,1193,-6910,4465,-1,0,0
-165.72,8.25,-57.07,1197,-6909,4460,-1,0,0
-165.72,8.25,-57.07,1196,-6908,4461,0,-1,-1
-165.72,8.25,-57.06,1197,-6916,4475,0,0,0
-165.72,8.25,-57.06,1199,-6915,4490,-1,-1,0
-165.73,8.25,-57.07,1188,-6909,4482,-1,0,0
-165.73,8.24,-57.07,1188,-6903,4484,-1,-1,0
-165.74,8.24,-57.07,1190,-6902,4476,-1,-1,0
-165.75,8.24,-57.08,1184,-6904,4480,-1,-1,0
-165.75,8.24,-57.10,1192,-6915,4475,-1,-1,0
-165.76,8.23,-57.10,1190,-6916,4467,-1,-1,0
-165.76,8.23,-57.10,1182,-6919,4447,0,0,-1
-165.76,8.23,-57.10,1174,-6915,4456,0,-1,-1
-165.75,8.23,-57.10,1185,-6924,4464,-1,-1,-1
-165.75,8.24,-57.10,1203,-6911,4477,-1,-1,0
-165.76,8.24,-57.11,1203,-6908,4476,-1,0,0
-165.76,8.23,-57.11,1201,-6904,4474,-1,-1,0
-165.77,8.22,-57.12,1197,-6924,4472,-1,0,0
-165.78,8.21,-57.12,1198,-6937,4474,0,0,0
-165.78,8.21,-57.12,1198,-6931,4474,0,0,0
-165.78,8.21,-57.11,1181,-6914,4479,0,0,0
-165.78,8.21,-57.11,1181,-6906,4486,0,-1,0
-165.79,8.20,-57.11,1181,-6921,4472,0,0,0
-165.79,8.20,-57.11,1187,-6927,4472,0,0,0
-165.79,8.20,-57.10,1186,-6919,4476,0,0,0
-165.78,8.20,-57.08,1188,-6907,4477,0,0,-1
-165.78,8.20,-57.07,1194,-6903,4473,0,0,0
-165.78,8.20,-57.08,1182,-6902,4482,-1,-1,0
-165.78,8.20,-57.08,1191,-6902,4485,-1,0,0
-165.78,8.20,-57.07,1188,-6910,4474,0,0,0
-165.78,8.20,-57.08,1188,-6919,4464,0,0,0
-165.78,8.20,-57.08,1191,-6919,4464,0,0,0
-165.78,8.20,-57.08,1191,-6921,4469,0,0,-1
-165.78,8.20,-57.07,1188,-6920,4471,0,-1,-1
-165.78,8.20,-57.07,1188,-6912,4465,0,0,-1
-165.78,8.20,-57.07,1192,-6904,4475,0,-1,-1
-165.77,8.20,-57.06,1193,-6901,4490,-1,-1,0
-165.78,8.20,-57.07,1186,-6910,4481,-1,0,0
-165.78,8.20,-57.07,1178,-6917,4470,0,0,-1
-165.78,8.20,-57.07,1181,-6906,4473,0,0,-1
-165.78,8.20,-57.07,1178,-6912,4487,0,-1,-1
-165.77,8.21,-57.06,1183,-6910,4484,0,-1,-1
-165.77,8.21,-57.06,1182,-6912,4482,0,0,-1
-165.77,8.21,-57.06,1183,-6904,4490,-1,0,-1
-165.76,8.21,-57.06,1187,-6914,4477,-1,0,-1
-165.77,8.20,-57.06,1184,-6903,4475,-1,0,0
-165.77,8.20,-57.07,1178,-6907,4466,-1,0,0
-165.77,8.20,-57.07,1183,-6897,4474,-1,-1,-1
-165.77,8.20,-57.07,1182,-6900,4482,-1,-1,-1
-165.78,8.21,-57.09,1187,-6918,4467,-1,-1,0
-165.78,8.21,-57.09,1191,-6930,4462,0,0,0
-165.78,8.20,-57.09,1180,-6919,4468,0,-1,-1
-165.78,8.21,-57.09,1187,-6919,4466,0,-1,-1
-165.78,8.21,-57.09,1186,-6912,4472,-1,-1,-1
-165.78,8.21,-57.10,1190,-6923,4473,-1,-1,-1
-165.77,8.22,-57.10,1191,-6919,4467,0,-1,0
-165.77,8.22,-57.11,1189,-6920,4456,0,0,0
-165.78,8.21,-57.10,1193,-6914,4472,0,-1,0
-165.77,8.22,-57.11,1194,-6923,4465,-1,-1,-1
-165.77,8.22,-57.11,1195,-6922,4472,0,0,0
-165.78,8.21,-57.11,1189,-6926,4465,0,0,0
-165.78,8.21,-57.10,1192,-6922,4470,0,0,0
-165.78,8.21,-57.10,1179,-6923,4461,0,0,-1
-165.78,8.21,-57.09,1189,-6927,4468,0,0,-1
-165.77,8.21,-57.09,1194,-6933,4457,0,0,-1
-165.76,8.21,-57.08,1199,-6922,4469,0,0,-1
-165.76,8.22,-57.07,1195,-6900,4472,0,0,-1
-165.75,8.22,-57.07,1199,-6897,4488,-1,-1,-1
-165.75,8.22,-57.07,1198,-6908,4473,0,0,0
-165.75,8.22,-57.07,1194,-6912,4467,0,-1,-1
-165.75,8.22,-57.07,1193,-6910,4470,0,0,0
-165.75,8.22,-57.06,1195,-6911,4477,0,0,-1
-165.75,8.22,-57.06,1182,-6915,4490,-1,-1,-1
-165.75,8.22,-57.06,1190,-6917,4471,0,-1,-1
-165.74,8.23,-57.06,1190,-6903,4469,0,-1,-1
-165.74,8.23,-57.05,1186,-6904,4471,0,-1,-1
-165.74,8.23,-57.06,1194,-6910,4474,-1,-1,0
-165.74,8.23,-57.06,1191,-6921,4467,0,0,-1
-165.74,8.23,-57.06,1197,-6916,4461,-1,0,0
-165.74,8.23,-57.06,1190,-6917,4454,0,0,-1
-165.74,8.23,-57.06,1191,-6912,4461,0,0,-1
-165.73,8.24,-57.06,1195,-6907,4472,0,-1,-1
-165.73,8.24,-57.06,1198,-6903,4482,-1,-1,0
-165.73,8.24,-57.06,1198,-6903,4484,-1,0,0
-165.74,8.23,-57.06,1191,-6913,4475,-1,0,0
-165.74,8.23,-57.07,1190,-6913,4476,-1,0,0
-165.74,8.24,-57.07,1184,-6917,4457,0,0,-1
-165.74,8.24,-57.07,1192,-6913,4453,0,-1,-1
-165.73,8.24,-57.07,1191,-6907,4458,0,0,-1
-165.73,8.24,-57.07,1198,-6901,4473,-1,-1,0
-165.73,8.24,-57.07,1201,-6898,4481,-1,-1,0
-165.73,8.24,-57.08,1215,-6901,4487,-1,-1,0
-165.74,8.24,-57.09,1207,-6913,4469,-1,0,0
-165.74,8.24,-57.10,1189,-6927,4456,-1,0,0
-165.75,8.23,-57.11,1181,-6929,4456,0,0,-1
-165.74,8.23,-57.10,1183,-6923,4474,0,-1,-1
-165.74,8.24,-57.09,1203,-6921,4471,0,-1,-1
-165.74,8.25,-57.10,1205,-6910,4468,-1,-1,0
-165.74,8.24,-57.09,1201,-6895,4476,-1,0,0
-165.75,8.23,-57.10,1200,-6904,4479,-1,0,0
-165.76,8.23,-57.10,1195,-6933,4476,-1,0,0
-165.76,8.23,-57.10,1189,-6933,4473,0,0,0
-165.76,8.23,-57.10,1193,-6927,4470,0,-1,-1
-165.76,8.23,-57.10,1192,-6912,4464,0,0,-1
-165.75,8.24,-57.10,1196,-6911,4459,-1,0,-1
-165.75,8.23,-57.10,1198,-6924,4464,0,0,0
-165.75,8.23,-57.10,1204,-6920,4478,0,0,0
-165.75,8.23,-57.09,1183,-6933,4485,-1,-1,-1
-165.74,8.23,-57.10,1195,-6929,4467,-1,0,-1
-165.74,8.23,-57.10,1192,-6918,4460,0,0,0
-165.74,8.23,-57.09,1201,-6902,4477,-1,-1,0
-165.74,8.24,-57.09,1208,-6909,4464,-1,0,0
-165.75,8.24,-57.10,1210,-6910,4470,-1,-1,0
-165.75,8.23,-57.10,1197,-6921,4461,0,0,0
-165.75,8.23,-57.10,1195,-6923,4475,0,-1,0
-165.75,8.23,-57.10,1195,-6915,4465,0,0,0
-165.76,8.22,-57.09,1190,-6909,4468,0,0,0
-165.76,8.22,-57.09,1199,-6911,4471,0,0,0
-165.76,8.22,-57.08,1189,-6913,4477,0,-1,0
-165.76,8.22,-57.07,1201,-6912,4479,0,-1,0
-165.76,8.22,-57.07,1197,-6910,4483,0,0,0
-165.75,8.22,-57.06,1201,-6898,4488,-1,-1,0
-165.76,8.21,-57.06,1188,-6903,4472,0,0,0
-165.76,8.21,-57.06,1184,-6904,4469,-1,-1,0
-165.77,8.21,-57.07,1184,-6914,4458,0,0,-1
-165.77,8.21,-57.07,1194,-6920,4472,0,-1,0
-165.77,8.22,-57.07,1198,-6919,4464,0,0,-1
-165.76,8.22,-57.06,1199,-6909,4474,0,0,0
-165.76,8.22,-57.06,1201,-6910,4463,0,0,0
-165.77,8.21,-57.06,1199,-6906,4484,-1,-1,0
-165.77,8.21,-57.06,1196,-6915,4475,-1,0,0
-165.77,8.21,-57.07,1200,-6912,4482,0,0,0
-165.77,8.21,-57.07,1194,-6913,4472,0,0,0
-165.78,8.20,-57.07,1186,-6914,4468,0,0,0
-165.78,8.20,-57.07,1190,-6913,4466,-1,0,0
-165.78,8.20,-57.07,1192,-6911,4480,0,-1,0
-165.78,8.20,-57.07,1198,-6917,4476,-1,0,0
-165.79,8.19,-57.07,1190,-6907,4477,-1,0,0
-165.79,8.19,-57.07,1185,-6914,4475,-1,0,0
-165.80,8.18,-57.08,1182,-6922,4466,0,0,0
-165.80,8.18,-57.07,1182,-6928,4479,-1,-1,0
-165.80,8.18,-57.08,1176,-6925,4475,0,0,-1
-165.80,8.18,-57.08,1182,-6905,4475,-1,-1,0
-165.80,8.18,-57.08,1191,-6909,4474,-1,0,0
-165.80,8.18,-57.08,1192,-6912,4475,-1,0,0
-165.80,8.18,-57.08,1197,-6920,4477,0,0,0
-165.81,8.17,-57.08,1199,-6919,4470,0,0,0
-165.81,8.17,-57.08,1195,-6920,4471,-1,0,0
-165.81,8.17,-57.08,1187,-6915,4481,0,0,0
-165.81,8.17,-57.08,1196,-6911,4489,-1,0,0
-165.82,8.16,-57.08,1188,-6912,4479,-1,0,0
-165.82,8.16,-57.08,1187,-6910,4472,-1,0,0
-165.83,8.15,-57.08,1181,-6917,4466,-1,0,0
-165.83,8.15,-57.09,1185,-6919,4466,0,0,0
-165.84,8.14,-57.09,1179,-6924,4465,0,0,0
-165.83,8.14,-57.08,1178,-6912,4476,0,0,0
-165.84,8.14,-57.08,1179,-6914,4478,-1,-1,0
-165.84,8.14,-57.08,1184,-6925,4472,0,-1,0
-165.84,8.14,-57.08,1194,-6909,4481,0,0,0
-165.85,8.13,-57.08,1177,-6904,4472,0,0,0
-165.86,8.12,-57.08,1164,-6912,4468,-1,0,0
-165.85,8.12,-57.08,1161,-6938,4464,0,0,-1
-165.85,8.12,-57.07,1173,-6925,4459,0,-1,-1
-165.84,8.13,-57.07,1184,-6911,4454,0,0,0
-165.85,8.12,-57.06,1182,-6891,4476,0,-1,0
-165.85,8.12,-57.06,1183,-6893,4480,-1,0,0
-165.85,8.12,-57.06,1174,-6918,4487,-1,-1,0
-165.86,8.12,-57.06,1181,-6919,4483,-1,0,0
-165.86,8.11,-57.06,1178,-6917,4481,0,0,0
-165.87,8.11,-57.07,1171,-6913,4470,0,0,0
-165.87,8.11,-57.07,1175,-6915,4477,0,0,0
-165.87,8.11,-57.07,1173,-6911,4493,-1,-1,0
-165.87,8.10,-57.07,1172,-6924,4470,-1,-1,0
-165.87,8.11,-57.07,1177,-6920,4466,0,-1,0
-165.87,8.11,-57.07,1168,-6917,4471,0,-1,0
-165.88,8.11,-57.07,1168,-6905,4469,0,-1,0
-165.88,8.11,-57.07,1180,-6910,4469,-1,-1,0
-165.88,8.10,-57.07,1179,-6918,4467,0,-1,0
-165.88,8.11,-57.07,1176,-6923,4476,-1,-1,0
-165.88,8.11,-57.07,1164,-6922,4474,0,-1,-1
-165.88,8.11,-57.07,1174,-6913,4478,0,0,-1
-165.88,8.11,-57.07,1171,-6919,4470,0,-1,-1
-165.87,8.12,-57.06,1187,-6915,4481,0,0,-1
-165.87,8.12,-57.06,1182,-6905,4491,0,-1,-1
-165.86,8.13,-57.06,1183,-6907,4479,-1,-1,-1
-165.86,8.13,-57.07,1172,-6918,4467,0,0,-1
-165.85,8.14,-57.07,1181,-6922,4475,-1,-1,-1
-165.85,8.14,-57.07,1184,-6922,4472,0,-1,-1
-165.85,8.14,-57.07,1194,-6914,4473,-1,-1,-1
-165.84,8.15,-57.07,1188,-6915,4473,0,-1,-1
-165.84,8.15,-57.07,1183,-6914,4469,0,-1,-1
-165.84,8.15,-57.07,1179,-6924,4468,0,-1,-1
-165.83,8.16,-57.07,1183,-6926,4480,-1,-1,-1
-165.83,8.16,-57.07,1182,-6916,4461,0,-1,-1
-165.82,8.17,-57.07,1184,-6915,4463,-1,-1,-1
-165.82,8.17,-57.07,1189,-6910,4479,0,-1,-1
-165.82,8.18,-57.07,1182,-6913,4470,-1,-1,-1
-165.82,8.18,-57.07,1182,-6918,4470,0,-1,-1
-165.81,8.18,-57.07,1195,-6914,4474,-1,0,0
-165.81,8.18,-57.07,1202,-6901,4482,-1,-1,0
-165.81,8.19,-57.07,1193,-6906,4474,-1,-1,-1
-165.81,8.19,-57.08,1189,-6907,4467,-1,-1,-1
-165.81,8.19,-57.08,1187,-6916,4462,0,-1,-1
-165.81,8.19,-57.08,1191,-6912,4472,-1,0,-1
-165.81,8.19,-57.08,1180,-6913,4468,0,0,-1
-165.80,8.20,-57.08,1188,-6910,4473,-1,-1,-1
-165.79,8.20,-57.07,1194,-6907,4482,0,0,-1
-165.79,8.20,-57.07,1198,-6901,4487,-1,0,0
-165.80,8.20,-57.08,1188,-6907,4483,-1,0,0
-165.80,8.20,-57.09,1195,-6917,4470,0,0,-1
-165.80,8.20,-57.09,1190,-6921,4487,-1,-1,-1
-165.80,8.20,-57.09,1185,-6927,4471,-1,0,-1
-165.80,8.20,-57.09,1171,-6911,4461,0,0,-1
-165.79,8.21,-57.09,1186,-6901,4471,0,-1,-1
-165.79,8.21,-57.09,1192,-6905,4474,-1,0,-1
-165.79,8.21,-57.10,1188,-6907,4469,0,0,-1
-165.79,8.21,-57.10,1195,-6920,4476,-1,-1,-1
-165.78,8.22,-57.10,1196,-6913,4476,-1,-1,-1
-165.78,8.22,-57.10,1190,-6914,4467,0,0,-1
-165.78,8.22,-57.10,1196,-6912,4472,-1,0,-1
-165.78,8.22,-57.10,1194,-6910,4471,-1,-1,0
-165.77,8.22,-57.10,1191,-6922,4467,-1,0,-1
-165.77,8.22,-57.10,1189,-6925,4478,0,0,-1
-165.77,8.22,-57.10,1187,-6923,4466,0,0,-1
-165.77,8.22,-57.10,1194,-6913,4474,0,0,-1
-165.77,8.23,-57.10,1195,-6919,4460,0,0,-1
-165.77,8.23,-57.09,1194,-6922,4471,0,0,-1
-165.76,8.23,-57.09,1194,-6924,4468,0,0,-1
-165.76,8.23,-57.09,1198,-6920,4467,0,0,-1
-165.75,8.23,-57.08,1190,-6900,4463,0,0,-1
-165.75,8.23,-57.08,1188,-6902,4471,0,0,-1
-165.75,8.23,-57.07,1191,-6906,4470,0,-1,-1
-165.75,8.23,-57.07,1191,-6908,4477,0,-1,-1
-165.74,8.24,-57.07,1207,-6902,4484,-1,0,-1
-165.74,8.24,-57.07,1193,-6906,4476,0,0,-1
-165.73,8.25,-57.06,1207,-6906,4473,0,0,0
-165.73,8.24,-57.06,1186,-6910,4474,0,-1,-1
-165.73,8.25,-57.06,1195,-6909,4474,-1,-1,-1
-165.72,8.26,-57.06,1201,-6909,4467,0,0,-1
-165.72,8.26,-57.06,1206,-6910,4474,0,-1,-1
-165.72,8.26,-57.06,1199,-6912,4475,0,0,0
-165.72,8.26,-57.06,1194,-6907,4470,-1,0,0
-165.72,8.26,-57.06,1194,-6902,4477,-1,0,-1
-165.72,8.25,-57.06,1187,-6910,4468,-1,-1,-1
-165.72,8.26,-57.06,1194,-6918,4460,0,0,-1
-165.71,8.26,-57.05,1198,-6927,4474,0,0,-1
-165.71,8.26,-57.04,1206,-6913,4483,0,0,0
-165.71,8.26,-57.04,1195,-6900,4490,0,0,0
-165.71,8.26,-57.04,1196,-6894,4491,-1,0,0
-165.71,8.26,-57.05,1196,-6907,4473,-1,-1,0
-165.72,8.26,-57.05,1196,-6918,4465,0,0,0
-165.72,8.26,-57.05,1191,-6922,4466,0,0,-1
-165.72,8.25,-57.05,1197,-6913,4474,0,-1,0
-165.72,8.25,-57.05,1193,-6908,4473,-1,-1,0
-165.73,8.25,-57.06,1204,-6904,4467,-1,-1,0
-165.73,8.25,-57.05,1200,-6906,4472,0,0,0
-165.73,8.25,-57.05,1205,-6904,4480,0,0,0
-165.73,8.25,-57.05,1202,-6910,4483,-1,0,0
-165.73,8.25,-57.05,1203,-6910,4478,-1,0,0
-165.74,8.24,-57.06,1197,-6910,4472,0,0,0
-165.74,8.24,-57.06,1190,-6911,4473,0,-1,-1
-165.74,8.24,-57.05,1186,-6912,4479,0,0,0
-165.74,8.24,-57.05,1187,-6915,4494,-1,-1,-1
-165.73,8.25,-57.06,1191,-6916,4501,-1,-1,-1
-165.73,8.25,-57.07,1201,-6903,4476,-1,-1,0
-165.74,8.25,-57.08,1208,-6894,4461,-1,0,0
-165.75,8.25,-57.09,1194,-6910,4456,0,-1,0
-165.75,8.24,-57.09,1191,-6920,4458,0,-1,0
-165.75,8.24,-57.08,1193,-6923,4478,0,0,0
-165.75,8.24,-57.08,1195,-6920,4477,-1,-1,-1
-165.75,8.24,-57.08,1197,-6921,4476,0,-1,-1
-165.75,8.24,-57.08,1201,-6919,4479,0,0,0
-165.75,8.24,-57.08,1205,-6919,4469,0,0,0
-165.76,8.23,-57.08,1184,-6910,4475,0,0,0
-165.76,8.23,-57.08,1199,-6904,4474,-1,-1,0
-165.76,8.24,-57.09,1195,-6912,4468,-1,0,0
-165.77,8.23,-57.09,1194,-6910,4471,-1,0,0
-165.77,8.23,-57.09,1195,-6912,4462,-1,0,0
-165.77,8.23,-57.09,1195,-6909,4468,0,0,-1
-165.76,8.23,-57.09,1197,-6910,4464,0,-1,-1
-165.76,8.23,-57.09,1200,-6916,4477,-1,0,0
-165.76,8.23,-57.09,1204,-6909,4475,-1,0,0
-165.77,8.22,-57.10,1194,-6902,4468,-1,0,0
-165.79,8.21,-57.10,1174,-6909,4467,-1,0,0
-165.79,8.21,-57.10,1195,-6915,4452,0,0,0
-165.79,8.21,-57.10,1186,-6933,4466,0,-1,0
-165.79,8.21,-57.10,1194,-6926,4472,0,0,0
-165.78,8.21,-57.08,1187,-6918,4468,0,0,-1
-165.78,8.20,-57.07,1198,-6904,4476,0,0,0
-165.78,8.20,-57.07,1203,-6900,4474,0,0,0
-165.79,8.20,-57.06,1194,-6907,4486,0,0,0
-165.79,8.20,-57.05,1192,-6908,4482,0,0,0
-165.80,8.19,-57.05,1180,-6906,4465,0,0,0
-165.80,8.19,-57.05,1176,-6909,4471,0,0,-1
-165.80,8.19,-57.04,1189,-6901,4481,-1,0,0
-165.80,8.19,-57.05,1186,-6906,4470,-1,0,0
-165.80,8.18,-57.05,1191,-6907,4480,0,-1,0
-165.80,8.18,-57.05,1194,-6903,4485,-1,0,0
-165.81,8.17,-57.05,1187,-6913,4474,0,0,0
-165.81,8.17,-57.05,1190,-6916,4480,0,0,0
-165.81,8.17,-57.05,1178,-6913,4479,0,0,0
-165.82,8.16,-57.05,1170,-6911,4485,0,0,0
-165.82,8.16,-57.05,1177,-6902,4481,-1,0,0
-165.82,8.16,-57.05,1182,-6899,4479,-1,0,0
-165.82,8.16,-57.05,1192,-6907,4464,-1,-1,0
-165.82,8.16,-57.05,1194,-6921,4466,0,0,0
-165.83,8.15,-57.05,1173,-6928,4484,0,-1,0
-165.83,8.15,-57.05,1181,-6896,4479,-1,-1,0
-165.82,8.16,-57.05,1183,-6882,4479,-1,-1,0
-165.83,8.16,-57.05,1183,-6888,4477,-1,-1,0
-165.83,8.16,-57.06,1190,-6913,4478,-1,0,0
-165.83,8.15,-57.07,1200,-6918,4478,-1,0,0
-165.83,8.15,-57.07,1189,-6917,4472,-1,0,0
-165.84,8.14,-57.08,1170,-6913,4465,-1,0,0
-165.85,8.14,-57.09,1173,-6925,4473,-1,-1,0
-165.85,8.14,-57.09,1187,-6927,4475,-1,-1,-1
-165.85,8.14,-57.09,1193,-6925,4465,-1,0,0
-165.85,8.14,-57.09,1195,-6918,4466,0,0,0
-165.85,8.13,-57.09,1186,-6911,4460,-1,0,0
-165.87,8.12,-57.10,1170,-6917,4470,-1,0,0
-165.87,8.12,-57.10,-258,-258,-258,-1,-258,-258
-165.88,8.11,-57.10,1169,-6931,4478,0,0,0
-165.87,8.12,-57.10,1174,-6924,4475,0,-1,-1
-165.87,8.12,-57.10,1191,-6913,4479,-1,-1,0
-165.88,8.11,-57.11,1196,-6914,4473,-1,-1,0
-165.88,8.11,-57.11,1197,-6911,4478,-1,0,0
-165.90,8.10,-57.12,1182,-6914,4478,-1,0,0
-165.91,8.09,-57.13,1170,-6922,4471,-1,0,0
-165.91,8.09,-57.14,1161,-6929,4454,0,0,0
-165.92,8.08,-57.14,1163,-6933,4448,0,0,-1
-165.91,8.09,-57.13,1176,-6927,4454,0,0,0
-165.91,8.09,-57.12,1180,-6927,4469,0,0,0
-165.91,8.08,-57.11,1188,-6906,4488,0,0,0
-165.92,8.07,-57.11,1172,-6909,4470,0,0,0
-165.93,8.06,-57.11,1169,-6904,4465,0,0,0
-165.94,8.06,-57.11,1159,-6912,4468,-1,0,0
-165.94,8.05,-57.10,1151,-6926,4474,0,0,-1
-165.93,8.06,-57.09,1168,-6923,4477,0,-1,-1
-165.93,8.06,-57.09,1177,-6913,4480,0,-1,0
-165.93,8.06,-57.09,1172,-6914,4471,0,-1,0
-165.94,8.06,-57.09,1170,-6918,4472,0,0,0
-165.94,8.05,-57.08,1163,-6913,4487,0,0,0
-165.94,8.05,-57.08,1172,-6923,4477,0,-1,0
-165.94,8.05,-57.07,1163,-6925,4471,0,-1,-1
-165.94,8.06,-57.06,1169,-6908,4488,0,-1,0
-165.93,8.06,-57.05,1161,-6913,4481,0,-1,-1
-165.93,8.06,-57.05,1165,-6918,4476,-1,-1,-1
-165.93,8.06,-57.05,1164,-6912,4474,0,0,-1
-165.92,8.07,-57.05,1170,-6905,4472,-1,-1,-1
-165.92,8.08,-57.06,1165,-6913,4471,0,0,-1
-165.91,8.09,-57.05,1173,-6913,4467,0,-1,-1
-165.90,8.09,-57.05,1182,-6906,4474,-1,-1,-1
-165.90,8.09,-57.06,1175,-6907,4460,-1,0,-1
-165.89,8.10,-57.06,1181,-6913,4473,-1,-1,-1
-165.89,8.10,-57.06,1179,-6904,4485,-1,-1,-1
-165.89,8.11,-57.06,1186,-6901,4486,-1,-1,0
-165.90,8.10,-57.08,1177,-6905,4482,-1,-1,0
-165.91,8.10,-57.09,1166,-6910,4479,-1,-1,0
-165.91,8.11,-57.10,1166,-6920,4467,-1,-1,-1
-165.89,8.12,-57.11,1166,-6932,4462,-1,0,-1
-165.88,8.12,-57.10,1167,-6932,4463,0,-1,-1
-165.88,8.13,-57.10,1180,-6919,4461,0,-1,-1
-165.87,8.14,-57.10,1186,-6914,4467,0,-1,-1
-165.87,8.15,-57.10,1188,-6909,4484,0,0,-1
-165.87,8.15,-57.10,1180,-6915,4483,-1,-1,0
-165.87,8.15,-57.10,1188,-6922,4473,-1,0,0
-165.87,8.14,-57.11,1162,-6929,4472,-1,-1,0
