Yaw,Pitch,Roll,AX,AY,AZ,GX,GY,GZ
-30.25,-2.83,36.00,-392,4733,6552,0,-1,-1
-30.24,-2.83,36.01,-395,4754,6543,0,0,-1
-30.25,-2.83,36.02,-400,4781,6540,-1,0,-1
-30.25,-2.83,36.02,-401,4782,6532,-1,0,0
-30.25,-2.83,36.01,-399,4785,6534,-1,0,0
-30.25,-2.83,36.00,-393,4771,6559,-1,-1,0
-30.26,-2.83,35.98,-393,4734,6567,-1,-1,-1
-30.26,-2.83,35.97,-406,4718,6568,0,0,-1
-30.26,-2.84,35.97,-412,4724,6581,0,-1,0
-30.26,-2.83,35.98,-404,4746,6566,0,-1,0
-30.26,-2.82,35.99,-398,4771,6549,0,-1,0
-30.26,-2.82,35.99,-391,4778,6544,-1,-1,0
-30.27,-2.82,35.98,-390,4762,6548,-1,-1,0
-30.27,-2.82,35.97,-394,4735,6552,-1,-1,0
-30.27,-2.82,35.98,-395,4738,6561,0,-1,0
-30.27,-2.81,35.99,-392,4761,6551,0,-1,0
-30.28,-2.80,36.00,-390,4771,6545,0,-1,0
-30.28,-2.80,36.01,-388,4772,6534,-1,-1,0
-30.29,-2.79,36.00,-381,4761,6528,-1,-1,0
-30.30,-2.79,35.99,-380,4749,6539,-1,-1,0
-30.31,-2.78,35.97,-396,4731,6564,-1,-1,0
-30.31,-2.79,35.96,-402,4721,6586,-1,-1,-1
-30.31,-2.79,35.95,-396,4706,6579,0,0,-1
-30.30,-2.79,35.96,-397,4717,6553,0,0,-1
-30.30,-2.80,35.96,-394,4750,6543,0,0,-1
-30.30,-2.80,35.96,-389,4763,6534,-1,0,-1
-30.29,-2.81,35.96,-386,4777,6524,-1,0,-1
-30.29,-2.81,35.95,-398,4797,6546,-1,0,0
-30.30,-2.81,35.95,-394,4787,6551,-1,0,0
-30.31,-2.81,35.93,-397,4753,6568,-1,0,0
-30.32,-2.80,35.92,-394,4738,6568,0,-1,0
-30.32,-2.80,35.92,-397,4737,6558,0,0,0
-30.32,-2.80,35.93,-399,4748,6570,0,-1,0
-30.33,-2.79,35.93,-390,4752,6568,0,-1,0
-30.33,-2.78,35.93,-382,4752,6562,0,-1,0
-30.34,-2.77,35.94,-377,4740,6557,0,-1,0
-30.33,-2.77,35.94,-374,4741,6544,0,0,-1
-30.33,-2.77,35.97,-390,4780,6555,0,0,0
-30.33,-2.77,35.97,-405,4783,6587,-1,-1,0
-30.34,-2.76,35.95,-401,4733,6584,-1,-1,0
-30.33,-2.76,35.94,-404,4702,6566,0,0,-1
-30.33,-2.76,35.95,-398,4717,6574,0,0,-1
-30.33,-2.76,35.96,-388,4753,6569,0,0,-1
-30.32,-2.76,35.97,-375,4782,6557,0,0,-1
-30.32,-2.77,35.97,-379,4787,6544,-1,0,-1
-30.32,-2.77,35.96,-387,4775,6536,-1,0,-1
-30.31,-2.78,35.95,-392,4748,6533,-1,0,-1
-30.32,-2.78,35.94,-389,4736,6545,-1,0,-1
-30.32,-2.78,35.93,-377,4736,6552,-1,0,-1
-30.31,-2.79,35.94,-372,4753,6552,0,0,-1
-30.30,-2.79,35.95,-388,4770,6564,0,0,-1
-30.29,-2.80,35.95,-395,4769,6575,0,0,-1
-30.28,-2.81,35.96,-405,4753,6556,0,0,0
-30.29,-2.81,35.95,-408,4738,6543,0,-1,0
-30.29,-2.80,35.96,-395,4739,6540,0,-1,0
-30.29,-2.78,35.98,-377,4774,6550,0,-1,0
-30.29,-2.78,35.97,-369,4775,6549,-1,-1,0
-30.30,-2.78,35.97,-380,4750,6549,-1,-1,0
-30.30,-2.78,35.96,-382,4722,6560,0,0,-1
-30.29,-2.78,35.97,-385,4726,6567,0,0,-1
-30.29,-2.78,35.98,-396,4744,6559,0,0,0
-30.28,-2.78,35.98,-402,4761,6550,-1,-1,0
-30.28,-2.78,35.98,-393,4759,6542,-1,-1,0
-30.29,-2.78,35.98,-384,4754,6541,-1,0,-1
-30.29,-2.78,35.98,-381,4753,6545,0,0,-1
-30.29,-2.78,35.98,-379,4757,6540,0,0,-1
-30.29,-2.79,35.98,-387,4757,6540,-1,0,-1
-30.28,-2.80,35.97,-389,4756,6548,-1,0,-1
-30.29,-2.80,35.97,-396,4754,6545,-1,-1,0
-30.29,-2.79,35.96,-395,4750,6559,-1,0,0
-30.29,-2.79,35.96,-399,4751,6565,-1,-1,0
-30.29,-2.80,35.95,-396,4751,6570,-1,-1,0
-30.29,-2.80,35.95,-395,4746,6561,0,0,-1
-30.29,-2.79,35.96,-392,4752,6549,0,0,-1
-30.28,-2.79,35.96,-392,4750,6550,0,0,-1
-30.28,-2.80,35.97,-398,4745,6551,0,0,-1
-30.28,-2.80,35.97,-403,4748,6550,0,0,0
-30.28,-2.79,35.98,-402,4747,6544,0,-1,0
-30.28,-2.79,35.99,-393,4751,6544,0,-1,0
-30.27,-2.79,35.99,-388,4753,6540,0,0,-1
-30.27,-2.80,35.99,-389,4758,6542,-1,0,-1
-30.27,-2.80,35.99,-393,4755,6543,-1,0,0
-30.27,-2.80,35.98,-398,4751,6547,-1,0,-1
-30.27,-2.80,35.98,-393,4757,6545,-1,0,-1
-30.26,-2.81,35.98,-389,4759,6536,-1,0,-1
-30.26,-2.81,35.98,-392,4764,6547,-1,0,-1
-30.26,-2.81,35.98,-391,4749,6545,-1,0,-1
-30.26,-2.82,35.97,-382,4738,6539,0,0,-1
-30.24,-2.83,35.98,-395,4746,6541,0,0,-1
-30.24,-2.85,35.99,-408,4757,6538,0,0,-1
-30.24,-2.84,35.99,-410,4766,6536,-1,0,0
-30.24,-2.84,35.99,-414,4763,6545,-1,-1,0
-30.25,-2.83,35.99,-395,4761,6550,-1,-1,0
-30.25,-2.83,35.99,-388,4749,6543,-1,-1,-1
-30.25,-2.83,35.99,-390,4749,6545,-1,0,-1
-30.24,-2.84,35.99,-388,4739,6554,0,0,-1
-30.24,-2.84,35.99,-393,4751,6561,0,0,-1
-30.24,-2.84,35.99,-402,4760,6567,0,0,-1
-30.24,-2.84,36.00,-397,4765,6554,-1,0,0
-30.24,-2.84,36.00,-396,4764,6555,-1,0,0
-30.24,-2.84,36.00,-387,4752,6545,0,0,-1
-30.24,-2.84,35.99,-381,4751,6545,-1,0,-1
-30.24,-2.85,35.99,-394,4756,6549,-1,0,-1
-30.24,-2.85,35.98,-393,4744,6556,-1,0,-1
-30.24,-2.85,35.98,-393,4747,6559,0,0,-1
-30.23,-2.86,35.99,-403,4753,6547,0,0,-1
-30.23,-2.86,35.99,-406,4758,6555,0,0,-1
-30.23,-2.87,35.99,-404,4760,6554,-1,0,-1
-30.23,-2.87,35.99,-406,4751,6556,0,0,-1
-30.22,-2.88,35.99,-401,4749,6550,0,0,-1
-30.21,-2.89,36.00,-403,4759,6552,0,0,-1
-30.21,-2.89,36.01,-406,4763,6554,0,0,-1
-30.20,-2.90,36.01,-406,4768,6550,0,0,-1
-30.20,-2.91,36.01,-403,4769,6552,0,0,-1
-30.20,-2.91,36.03,-406,4776,6545,0,0,-1
-30.20,-2.92,36.02,-414,4769,6551,-1,0,-1
-30.20,-2.92,36.02,-406,4771,6545,0,0,-1
-30.20,-2.92,36.02,-410,4775,6547,-1,0,0
-30.20,-2.92,36.01,-418,4769,6552,-1,0,0
-30.20,-2.93,36.01,-417,4760,6547,-1,0,0
-30.21,-2.92,36.01,-410,4752,6554,-1,0,0
-30.21,-2.93,36.00,-416,4749,6544,-1,0,-1
-30.21,-2.93,36.00,-408,4756,6547,-1,0,-1
-30.21,-2.93,36.00,-409,4754,6557,-1,0,0
-30.21,-2.93,35.99,-408,4751,6563,-1,-1,-1
-30.21,-2.94,35.99,-419,4752,6547,0,0,-1
-30.21,-2.94,35.99,-424,4759,6547,-1,0,0
-30.21,-2.94,35.99,-423,4757,6540,-1,-1,0
-30.22,-2.94,35.99,-413,4753,6548,0,-1,0
-30.21,-2.94,35.98,-404,4747,6549,0,-1,-1
-30.21,-2.93,35.99,-409,4745,6543,0,0,-1
-30.20,-2.94,35.99,-411,4744,6541,0,0,-1
-30.20,-2.95,36.00,-416,4749,6546,0,0,-1
-30.19,-2.95,36.00,-424,4753,6558,0,-1,-1
-30.18,-2.96,36.01,-425,4756,6552,0,0,-1
-30.18,-2.95,36.02,-421,4767,6554,0,-1,-1
-30.17,-2.95,36.02,-415,4761,6550,0,-1,-1
-30.17,-2.95,36.02,-409,4766,6545,0,-1,-1
-30.17,-2.95,36.02,-410,4757,6547,0,-1,-1
-30.15,-2.96,36.03,-416,4755,6550,0,0,-1
-30.15,-2.97,36.04,-414,4762,6536,0,0,-1
-30.14,-2.97,36.05,-414,4764,6538,0,-1,-1
-30.14,-2.96,36.05,-413,4761,6553,0,0,-1
-30.14,-2.96,36.05,-412,4755,6549,-1,0,0
-30.14,-2.96,36.05,-409,4753,6542,0,-1,0
-30.14,-2.95,36.04,-407,4759,6538,0,-1,-1
-30.14,-2.95,36.05,-410,4762,6541,0,-1,-1
-30.14,-2.95,36.05,-409,4764,6545,-1,0,0
-30.14,-2.95,36.05,-410,4765,6539,0,0,0
-30.14,-2.95,36.05,-414,4760,6547,0,-1,0
-30.14,-2.95,36.05,-415,4761,6548,0,-1,-1
-30.13,-2.95,36.06,-419,4777,6550,0,-1,0
-30.13,-2.94,36.06,-410,4768,6545,0,-1,-1
-30.13,-2.94,36.06,-410,4764,6544,0,-1,-1
-30.12,-2.95,36.06,-410,4750,6537,0,0,-1
-30.11,-2.96,36.07,-421,4759,6539,0,-1,-1
-30.11,-2.96,36.07,-409,4767,6555,0,0,-1
-30.10,-2.96,36.08,-428,4773,6551,0,-1,-1
-30.09,-2.96,36.09,-419,4781,6555,0,-1,-1
-30.09,-2.95,36.09,-411,4758,6537,-1,-1,0
-30.08,-2.95,36.09,-401,4753,6535,0,0,-1
-30.08,-2.96,36.10,-418,4774,6529,0,0,-1
-30.08,-2.96,36.10,-418,4772,6543,0,-1,0
-30.08,-2.96,36.11,-420,4771,6540,0,-1,0
-30.07,-2.95,36.12,-432,4779,6526,0,-1,0
-30.08,-2.93,36.12,-416,4778,6530,-1,-1,0
-30.09,-2.92,36.11,-404,4753,6530,-1,-1,0
-30.10,-2.91,36.11,-390,4764,6538,-1,0,0
-30.10,-2.92,36.10,-415,4762,6544,-1,-1,-1
-30.10,-2.92,36.10,-399,4757,6538,0,0,-1
-30.09,-2.92,36.11,-422,4783,6537,-1,-1,0
-30.10,-2.91,36.11,-423,4774,6544,-1,-1,0
-30.11,-2.90,36.10,-414,4762,6539,-1,0,0
-30.12,-2.89,36.10,-411,4756,6539,-1,-1,0
-30.13,-2.89,36.09,-395,4760,6532,-1,0,-1
-30.12,-2.89,36.09,-417,4780,6535,-1,-1,0
-30.12,-2.88,36.09,-395,4775,6540,0,0,-1
-30.13,-2.89,36.09,-417,4765,6538,-1,-1,0
-30.14,-2.88,36.08,-407,4766,6538,-1,0,0
-30.14,-2.88,36.08,-416,4763,6529,-1,-1,0
-30.14,-2.88,36.07,-426,4763,6527,-1,-1,0
-30.15,-2.87,36.06,-412,4753,6535,-1,0,0
-30.15,-2.87,36.06,-418,4750,6540,0,-1,0
-30.15,-2.86,36.06,-397,4756,6548,-1,0,0
-30.15,-2.87,36.05,-407,4759,6544,-1,-1,0
-30.15,-2.86,36.06,-399,4759,6537,0,0,-1
-30.15,-2.86,36.06,-412,4767,6531,0,-1,0
-30.15,-2.85,36.07,-401,4778,6539,0,-1,0
-30.16,-2.84,36.07,-392,4778,6531,-1,0,0
-30.16,-2.85,36.07,-409,4763,6530,-1,-1,0
-30.17,-2.84,36.06,-408,4757,6552,-1,0,0
-30.17,-2.84,36.06,-410,4742,6542,0,-1,0
-30.17,-2.83,36.06,-392,4757,6536,-1,0,-1
-30.17,-2.82,36.06,-399,4750,6529,0,-1,0
-30.18,-2.82,36.06,-402,4756,6525,-1,-1,0
-30.19,-2.81,36.05,-398,4751,6535,-1,-1,0
-30.20,-2.79,36.05,-385,4759,6545,-1,-1,0
-30.20,-2.78,36.05,-396,4743,6544,0,-1,0
-30.22,-2.77,36.04,-391,4763,6545,-1,0,0
-30.22,-2.76,36.05,-385,4759,6543,-1,-1,0
-30.22,-2.75,36.04,-374,4754,6539,-1,0,0
-30.22,-2.76,36.05,-397,4758,6543,0,-1,0
-30.22,-2.76,36.05,-381,4774,6540,-1,0,-1
-30.22,-2.77,36.03,-394,4772,6548,0,-1,0
-30.22,-2.77,36.03,-396,4770,6539,-1,0,-1
-30.23,-2.77,36.02,-399,4772,6559,-1,-1,0
-30.23,-2.78,36.01,-396,4763,6550,-1,0,-1
-30.23,-2.77,36.00,-390,4761,6540,-1,-1,-1
-30.23,-2.77,36.00,-390,4758,6534,-1,0,0
-30.24,-2.77,35.98,-387,4749,6553,-1,0,0
-30.24,-2.77,35.98,-389,4739,6554,0,0,0
-30.24,-2.78,35.98,-396,4748,6555,0,0,0
-30.23,-2.78,35.98,-394,4759,6560,0,-1,-1
-30.23,-2.78,35.98,-390,4758,6552,-1,0,0
-30.24,-2.78,35.98,-390,4749,6544,-1,0,0
-30.24,-2.79,35.98,-389,4743,6536,-1,0,0
-30.24,-2.79,35.98,-387,4753,6551,-1,-1,-1
-30.24,-2.78,35.98,-384,4758,6556,0,0,-1
-30.24,-2.79,35.98,-389,4761,6549,-1,-1,0
-30.25,-2.78,35.97,-390,4764,6561,-1,-1,0
-30.25,-2.77,35.97,-389,4755,6569,-1,-1,0
-30.26,-2.77,35.96,-386,4747,6564,-1,-1,0
-30.26,-2.76,35.96,-388,4755,6551,0,-1,0
-30.26,-2.76,35.96,-387,4754,6545,-1,0,0
-30.27,-2.76,35.96,-390,4748,6547,-1,-1,-1
-30.27,-2.76,35.95,-385,4746,6550,-1,0,-1
-30.27,-2.76,35.95,-390,4743,6550,0,-1,0
-30.27,-2.76,35.96,-385,4752,6549,0,0,0
-30.27,-2.76,35.96,-390,4757,6550,0,-1,0
-30.27,-2.76,35.96,-389,4766,6547,-1,-1,0
-30.28,-2.76,35.96,-390,4763,6551,-1,0,0
-30.28,-2.76,35.96,-390,4761,6557,-1,0,0
-30.28,-2.76,35.95,-385,4751,6551,-1,0,0
-30.28,-2.75,35.95,-388,4746,6558,-1,-1,0
-30.29,-2.75,35.95,-392,4747,6567,-1,0,0
-30.29,-2.75,35.94,-394,4751,6568,-1,0,0
-30.29,-2.76,35.94,-395,4753,6564,-1,0,0
-30.29,-2.76,35.94,-392,4740,6559,-1,0,0
-30.30,-2.76,35.94,-396,4741,6556,0,0,0
-30.30,-2.76,35.94,-389,4739,6549,0,0,-1
-30.30,-2.76,35.94,-384,4749,6550,0,0,0
-30.30,-2.76,35.94,-391,4750,6557,-1,0,0
-30.30,-2.76,35.93,-390,4746,6555,-1,0,0
-30.30,-2.76,35.93,-390,4751,6554,0,-1,0
-30.30,-2.76,35.93,-389,4757,6555,0,0,0
-30.30,-2.76,35.93,-390,4759,6552,-1,-1,0
-30.32,-2.75,35.93,-395,4750,6546,-1,-1,0
-30.32,-2.75,35.92,-383,4743,6542,-1,-1,0
-30.33,-2.74,35.92,-381,4746,6557,-1,-1,0
-30.32,-2.74,35.92,-387,4736,6555,0,0,-1
-30.32,-2.75,35.92,-382,4741,6547,-1,0,-1
-30.32,-2.75,35.92,-393,4745,6553,0,-1,-1
-30.32,-2.75,35.92,-379,4745,6553,0,0,-1
-30.33,-2.74,35.92,-392,4759,6556,-1,-1,0
-30.33,-2.74,35.91,-379,4756,6560,-1,0,0
-30.34,-2.74,35.91,-401,4747,6544,0,-1,0
-30.34,-2.74,35.91,-386,4749,6557,-1,-1,0
-30.35,-2.74,35.90,-387,4748,6571,-1,0,-1
-30.35,-2.74,35.90,-394,4746,6565,-1,-1,0
-30.36,-2.73,35.89,-378,4738,6558,-1,0,0
-30.36,-2.73,35.89,-396,4739,6559,-1,-1,0
-30.37,-2.72,35.89,-376,4733,6558,-1,-1,0
-30.37,-2.72,35.89,-365,4730,6553,0,0,-1
-30.36,-2.73,35.89,-388,4740,6560,0,-1,-1
-30.36,-2.72,35.89,-388,4734,6556,0,-1,0
-30.35,-2.71,35.90,-388,4747,6556,0,0,0
-30.36,-2.72,35.90,-394,4751,6562,-1,0,0
-30.37,-2.72,35.91,-387,4737,6548,-1,0,0
-30.36,-2.73,35.91,-387,4739,6544,0,-1,-1
-30.36,-2.73,35.91,-368,4742,6541,-1,0,-1
-30.36,-2.73,35.90,-380,4753,6568,-1,-1,-1
-30.35,-2.73,35.90,-393,4752,6565,-1,-1,-1
-30.36,-2.73,35.89,-387,4763,6572,-1,-1,-1
-30.36,-2.72,35.88,-390,4744,6574,-1,-1,-1
-30.35,-2.72,35.88,-377,4718,6566,0,-1,-1
-30.35,-2.72,35.88,-379,4722,6559,0,-1,-1
-30.35,-2.71,35.88,-372,4735,6555,0,-1,-1
-30.35,-2.72,35.88,-376,4741,6546,0,0,-1
-30.34,-2.72,35.89,-379,4755,6546,0,0,-1
-30.33,-2.72,35.89,-387,4750,6555,-1,0,-1
-30.34,-2.73,35.89,-385,4741,6570,0,-1,-1
-30.33,-2.72,35.89,-383,4738,6569,0,-1,0
-30.33,-2.72,35.89,-376,4738,6557,0,0,-1
-30.33,-2.72,35.90,-375,4734,6541,0,0,-1
-30.33,-2.72,35.90,-380,4736,6544,-1,0,-1
-30.33,-2.73,35.89,-377,4740,6552,-1,0,-1
-30.32,-2.73,35.90,-387,4744,6562,0,0,-1
-30.31,-2.73,35.90,-391,4747,6553,0,0,-1
-30.31,-2.74,35.91,-398,4757,6553,0,0,-1
-30.30,-2.75,35.91,-390,4752,6560,0,0,-1
-30.30,-2.75,35.91,-390,4747,6568,0,0,-1
-30.29,-2.75,35.91,-380,4743,6566,0,0,-1
-30.28,-2.75,35.92,-383,4750,6559,0,0,-1
-30.28,-2.76,35.93,-401,4757,6551,-1,-1,-1
-30.28,-2.76,35.93,-376,4754,6550,-1,0,-1
-30.28,-2.77,35.93,-393,4753,6549,0,0,-1
-30.27,-2.77,35.93,-388,4750,6550,-1,-1,-1
-30.27,-2.77,35.93,-378,4738,6544,0,0,-1
-30.27,-2.77,35.94,-395,4746,6551,0,-1,-1
-30.27,-2.77,35.94,-379,4754,6555,-1,0,-1
-30.26,-2.78,35.94,-396,4754,6553,0,0,-1
-30.25,-2.79,35.94,-404,4745,6546,0,0,-1
-30.25,-2.79,35.94,-401,4753,6566,0,0,-1
-30.25,-2.79,35.95,-390,4747,6550,0,0,-1
-30.25,-2.79,35.96,-385,4752,6552,0,0,-1
-30.24,-2.80,35.96,-387,4760,6554,0,0,-1
-30.23,-2.81,35.96,-403,4757,6549,0,0,-1
-30.23,-2.81,35.97,-394,4753,6551,0,-1,-1
-30.22,-2.82,35.97,-413,4755,6551,0,-1,-1
-30.22,-2.81,35.98,-404,4757,6541,0,-1,0
-30.23,-2.81,35.98,-394,4759,6553,-1,0,-1
-30.22,-2.81,35.99,-410,4763,6557,0,-1,0
-30.23,-2.80,35.98,-394,4737,6556,0,0,0
-30.22,-2.81,35.99,-391,4757,6560,0,-1,-1
-30.21,-2.81,36.00,-401,4755,6545,-1,-1,0
-30.21,-2.80,36.00,-403,4746,6554,0,-1,0
-30.22,-2.80,36.00,-411,4757,6544,0,0,0
-30.23,-2.79,36.00,-405,4759,6544,-1,-1,0
-30.24,-2.77,36.00,-411,4769,6565,0,-1,0
-30.26,-2.75,35.99,-383,4754,6537,-1,-1,0
-30.27,-2.74,35.98,-387,4766,6529,-1,-1,0
-30.29,-2.73,35.97,-379,4737,6539,-1,-1,0
-30.28,-2.74,35.97,-383,4738,6519,0,0,-1
-30.28,-2.73,35.97,-365,4743,6559,0,0,0
-30.27,-2.75,35.98,-391,4731,6558,1,0,-1
-30.28,-2.74,35.98,-387,4747,6544,0,0,-1
-30.26,-2.74,36.00,-386,4780,6590,0,-1,0
-30.26,-2.75,36.00,-395,4767,6543,0,1,-1
-30.26,-2.74,36.00,-370,4748,6511,0,0,-1
-30.26,-2.76,35.99,-404,4744,6527,-1,0,-1
-30.26,-2.76,35.99,-389,4763,6537,-1,-1,0
-30.26,-2.78,35.98,-380,4776,6520,-1,0,-1
-30.26,-2.80,35.95,-392,4748,6544,-1,0,-1
-30.25,-2.81,35.95,-394,4755,6554,-1,0,-1
-30.25,-2.82,35.94,-401,4750,6550,-1,0,-1
-30.25,-2.82,35.94,-400,4753,6551,-1,0,0
-30.26,-2.82,35.92,-391,4743,6546,-1,0,-1
-30.26,-2.82,35.92,-395,4736,6553,-1,0,-1
-30.26,-2.83,35.91,-399,4730,6564,-1,0,-1
-30.25,-2.84,35.91,-388,4737,6558,0,0,-1
-30.25,-2.85,35.92,-399,4753,6565,0,0,-1
-30.25,-2.85,35.93,-396,4760,6564,0,0,-1
-30.24,-2.86,35.94,-400,4756,6547,0,0,-1
-30.24,-2.86,35.94,-410,4753,6558,0,0,-1
-30.23,-2.87,35.94,-408,4751,6552,0,0,-1
-30.23,-2.86,35.94,-395,4756,6547,0,-1,-1
-30.22,-2.87,35.95,-402,4765,6556,0,0,-1
-30.22,-2.87,35.95,-404,4758,6553,0,-1,-1
-30.21,-2.87,35.96,-400,4750,6544,0,-1,-1
-30.20,-2.88,35.97,-407,4754,6540,0,0,-1
-30.19,-2.88,35.98,-402,4760,6546,0,-1,-1
-30.18,-2.89,35.98,-406,4759,6552,-1,0,-1
-30.18,-2.88,35.98,-409,4744,6558,-1,-1,-1
-30.18,-2.88,35.98,-402,4746,6553,0,0,-1
-30.17,-2.88,35.99,-410,4770,6547,0,-1,0
-30.18,-2.87,35.99,-418,4775,6549,-1,-1,0
-30.17,-2.85,36.00,-406,4774,6543,0,-1,0
-30.17,-2.85,36.00,-410,4766,6551,-1,0,0
-30.18,-2.84,35.99,-398,4754,6544,-1,-1,0
-30.18,-2.84,36.00,-398,4755,6533,0,0,0
-30.19,-2.82,36.02,-400,4774,6545,0,-1,0
-30.22,-2.83,36.03,-392,4798,6576,-1,1,0
-30.25,-2.82,36.01,-425,4747,6574,0,-1,1
-30.27,-2.79,36.03,-407,4752,6588,0,-1,1
-30.31,-2.76,36.03,-387,4765,6535,0,-1,0
-30.31,-2.75,36.06,-398,4793,6512,0,-1,0
-30.32,-2.73,36.06,-409,4811,6541,-1,-1,0
-30.35,-2.68,36.05,-430,4832,6552,-2,-3,1
-30.39,-2.61,36.03,-412,4820,6542,-1,-3,1
-30.43,-2.53,36.03,-396,4847,6540,-1,-2,1
-30.48,-2.47,36.03,-397,4877,6529,-1,-2,1
-30.55,-2.40,35.97,-385,4818,6548,-3,-2,2
-30.61,-2.33,35.91,-371,4748,6567,-2,-2,1
-30.66,-2.26,35.91,-361,4730,6566,0,-2,2
-30.72,-2.17,35.88,-321,4715,6548,-2,-3,2
-30.76,-2.10,35.85,-307,4697,6551,-1,-2,1
-30.79,-2.01,35.84,-303,4688,6589,0,-3,1
-30.81,-1.92,35.86,-312,4729,6584,1,-4,2
-30.88,-1.80,35.86,-303,4804,6633,-2,-3,3
-30.99,-1.66,35.82,-394,4748,6591,-2,-5,4
-31.05,-1.45,35.84,-361,4633,6615,2,-9,3
-31.10,-1.22,35.94,-218,4597,6587,5,-6,4
-31.19,-1.00,36.06,-159,4586,6596,4,-5,6
-31.32,-0.81,36.17,-116,4614,6604,4,-4,6
-31.45,-0.59,36.24,-63,4682,6552,1,-5,6
-31.62,-0.38,36.23,3,4793,6551,-4,-3,6
-31.81,-0.21,36.14,26,4896,6468,-4,-2,6
-32.01,-0.08,36.04,56,4937,6470,-6,-1,5
-32.18,0.01,35.93,71,5007,6462,-5,0,4
-32.36,0.07,35.80,54,4950,6515,-6,0,4
-32.51,0.12,35.66,22,4781,6568,-5,0,3
-32.61,0.19,35.55,-23,4592,6599,-2,-3,2
-32.68,0.29,35.53,-69,4426,6597,2,-4,2
-32.68,0.44,35.64,-157,4332,6659,8,-8,3
-32.66,0.72,35.97,-89,4482,6691,14,-11,5
-32.67,1.03,36.37,24,4674,6642,13,-8,7
-32.73,1.32,36.76,221,4897,6550,12,-6,7
-32.83,1.53,37.07,308,5018,6488,8,-2,7
-32.96,1.69,37.29,295,5009,6359,8,-1,6
-33.10,1.86,37.50,270,5173,6414,3,-3,8
-33.36,2.08,37.56,335,5249,6413,-1,-1,10
-33.70,2.29,37.52,454,5273,6394,-4,1,11
-34.11,2.46,37.42,666,5263,6369,-5,6,12
-34.61,2.50,37.28,603,5339,6573,-8,9,14
-35.16,2.56,36.98,610,5232,6515,-12,9,13
-35.74,2.57,36.64,621,4926,6525,-10,12,13
-36.28,2.54,36.37,543,4732,6574,-7,12,12
-36.70,2.42,36.22,436,4513,6444,-2,12,10
-37.02,2.29,36.20,286,4369,6432,1,10,7
-37.34,2.20,36.17,295,4161,6488,3,10,9
-37.58,2.04,36.31,203,4200,6433,9,12,5
-37.62,1.77,36.51,-113,4327,6410,6,8,1
-37.59,1.65,36.65,-46,4255,6479,8,2,-2
-37.45,1.54,36.92,47,4387,6456,12,2,-3
-37.21,1.46,37.31,108,4626,6507,15,-2,-3
-36.97,1.42,37.74,193,4873,6528,15,-1,-5
-36.67,1.32,38.19,254,5099,6410,15,2,-7
-36.37,1.17,38.55,290,5288,6419,8,2,-7
-36.14,1.02,38.76,270,5372,6273,3,2,-6
-35.99,0.84,38.83,262,5191,6253,1,4,-6
-35.86,0.59,38.88,262,5043,6161,3,8,-7
-35.71,0.24,39.07,124,5084,6044,7,11,-6
-35.55,-0.03,39.38,60,5342,6052,5,9,-3
-35.50,-0.24,39.45,122,5391,6551,0,5,-3
-35.52,-0.44,39.41,122,5076,6485,1,11,-3
-35.43,-0.71,39.58,-183,5036,6411,9,6,-4
-35.26,-0.87,39.82,-138,5005,6347,10,2,-2
-35.12,-0.98,40.08,-198,5033,6262,11,1,-3
-34.97,-1.09,40.40,-122,5090,6224,11,7,-3
-34.85,-1.23,40.64,-188,5148,6159,11,3,-2
-34.70,-1.36,41.00,-160,5282,6099,12,4,-2
-34.62,-1.46,41.32,-270,5325,6168,11,5,1
-34.54,-1.48,41.72,-368,5257,6074,19,2,4
-34.43,-1.40,42.30,-460,5137,6056,23,-3,6
-34.09,-1.34,43.08,-461,5399,6166,21,-8,2
-33.79,-1.09,43.53,-299,5362,5870,21,-12,-1
-33.42,-0.90,44.15,-183,5612,5700,15,-6,-3
-33.02,-0.76,44.62,15,5786,5646,18,-11,-5
-32.64,-0.73,45.09,282,5890,5555,13,0,-8
-32.25,-0.85,45.47,119,5984,5533,11,0,-7
-31.96,-1.02,45.76,48,5951,5600,11,-2,-5
-31.69,-1.16,46.09,14,5859,5638,10,5,-6
-31.48,-1.33,46.40,-3,5768,5585,12,5,-4
-31.21,-1.59,46.77,-97,5883,5573,13,6,-8
-30.82,-1.78,47.26,-186,5815,5463,15,5,-7
-30.41,-2.02,47.68,-364,5809,5417,18,0,-9
-29.96,-2.20,48.20,-251,6053,5359,14,4,-7
-29.54,-2.40,48.59,-329,5967,5499,14,-2,-8
-29.09,-2.55,49.10,-82,6257,5169,18,4,-9
-28.72,-2.85,49.48,-374,6268,5259,11,4,-10
-28.38,-3.04,49.72,19,6169,5152,10,7,-10
-27.92,-3.53,50.02,-440,6044,5056,8,8,-15
-27.42,-3.98,50.29,-454,6000,5378,12,9,-14
-26.93,-4.37,50.56,-589,5873,5230,13,4,-15
-26.28,-4.84,50.97,-674,5669,5244,18,4,-14
-25.38,-5.40,51.65,-1061,6112,5048,22,4,-19
-24.69,-5.76,52.00,-1022,5980,4954,13,-5,-14
-23.74,-6.10,52.65,-1080,6030,4939,27,-4,-17
-22.92,-6.32,53.27,-1024,6360,4948,21,-5,-12
-22.33,-6.46,53.78,-969,6264,4842,19,-2,-8
-21.63,-6.68,54.40,-1028,6272,4617,25,-2,-9
-20.99,-6.84,55.13,-1144,6520,4477,24,0,-6
-20.49,-6.92,55.68,-1050,7023,4457,11,-3,-4
-20.36,-6.84,55.93,-826,7252,4431,3,2,3
-20.65,-6.70,55.80,-968,7309,4614,-10,-2,7
-21.05,-6.47,55.56,-916,7259,4514,-12,-2,9
-21.59,-6.24,55.17,-820,7079,4472,-17,1,9
-22.20,-6.07,54.75,-792,6838,4482,-17,4,9
-22.73,-5.94,54.38,-818,6643,4524,-14,4,7
-23.20,-5.83,54.03,-865,6555,4641,-13,2,7
-23.64,-5.70,53.71,-778,6401,4792,-9,2,6
-23.95,-5.61,53.56,-813,6324,4820,-4,3,6
-24.17,-5.51,53.48,-834,6266,4856,-2,-1,5
-24.36,-5.39,53.41,-801,6347,4742,-3,-1,5
-24.52,-5.27,53.35,-738,6425,4724,-3,-1,4
-24.68,-5.18,53.28,-699,6438,4762,-4,1,3
-24.85,-5.13,53.17,-694,6483,4784,-6,1,3
-25.03,-5.10,53.08,-783,6626,4822,-4,3,5
-25.33,-4.99,52.88,-858,6476,4914,-8,-1,7
-25.62,-4.82,52.74,-750,6551,4756,-5,-1,6
-25.82,-4.69,52.58,-694,6511,4852,-7,-3,3
-25.99,-4.59,52.44,-571,6422,4830,-5,0,2
-26.12,-4.55,52.30,-617,6278,4874,-5,-1,0
-26.12,-4.55,52.23,-572,6242,5035,-2,-1,-2
-26.19,-4.51,52.17,-676,6215,4982,-1,-1,3
-26.30,-4.41,52.17,-689,6192,4994,0,-2,4
-26.37,-4.30,52.23,-595,6436,4919,1,0,3
-26.44,-4.21,52.29,-642,6459,4947,1,-2,3
-26.48,-4.10,52.30,-587,6327,4959,1,-4,2
-26.55,-4.00,52.35,-518,6423,4841,1,1,4
-26.75,-3.89,52.39,-615,6434,4887,-1,1,8
-26.97,-3.74,52.37,-532,6411,4853,-3,0,5
-27.09,-3.67,52.31,-435,6389,4867,-3,0,0
-27.18,-3.70,52.21,-394,6448,4818,-6,3,-1
-27.31,-3.77,52.05,-501,6457,4862,-8,3,-1
-27.41,-3.83,51.87,-495,6436,4885,-7,2,-1
-27.55,-3.89,51.66,-527,6391,4976,-8,2,-1
-27.67,-3.94,51.45,-537,6267,5028,-8,1,-2
-27.77,-3.99,51.25,-508,6249,5012,-6,1,-2
-27.83,-4.09,51.12,-555,6268,5049,-5,3,-3
-27.88,-4.16,50.95,-628,6237,5126,-7,-1,-2
-27.96,-4.16,50.76,-612,6183,5090,-6,-1,-1
-28.02,-4.18,50.63,-579,6207,5098,-5,-1,-1
-28.05,-4.20,50.51,-581,6228,5112,-5,-1,-2
-28.07,-4.23,50.39,-581,6240,5117,-5,-1,-2
-28.10,-4.27,50.27,-578,6237,5118,-5,0,-2
-28.12,-4.31,50.15,-597,6205,5136,-4,0,-2
-28.15,-4.35,50.04,-611,6189,5163,-5,0,-2
-28.18,-4.37,49.93,-617,6147,5168,-4,-1,-2
-28.18,-4.41,49.84,-623,6123,5180,-4,-1,-2
-28.18,-4.44,49.75,-611,6141,5178,-3,0,-2
-28.19,-4.48,49.68,-621,6160,5204,-3,0,-2
-28.22,-4.50,49.60,-648,6166,5224,-4,-1,-1
-28.27,-4.50,49.51,-634,6182,5223,-4,0,-1
-28.32,-4.50,49.40,-632,6184,5227,-5,0,-1
-28.39,-4.52,49.27,-642,6176,5241,-6,0,-1
-28.48,-4.53,49.11,-638,6140,5230,-6,0,0
-28.58,-4.54,48.95,-644,6093,5266,-6,0,0
-28.65,-4.55,48.82,-666,6068,5303,-5,-1,-1
-28.70,-4.54,48.70,-654,6061,5306,-4,-1,-1
-28.76,-4.53,48.61,-636,6018,5319,-4,-1,-1
-28.80,-4.53,48.52,-628,5994,5337,-3,0,-1
-28.84,-4.53,48.46,-640,6014,5339,-2,-1,-1
-28.87,-4.53,48.39,-636,6032,5347,-3,-1,0
-28.91,-4.53,48.34,-632,5997,5355,-2,0,0
-28.93,-4.54,48.29,-644,5984,5360,-2,0,-1
-28.94,-4.55,48.27,-640,6008,5356,-1,0,-1
-28.93,-4.55,48.25,-637,6010,5371,-1,-1,-1
-28.94,-4.56,48.23,-639,6020,5368,-1,0,-1
-28.93,-4.58,48.21,-659,6029,5370,-1,-1,-1
-28.91,-4.60,48.19,-650,6016,5361,-1,-1,-1
-28.89,-4.61,48.17,-647,6010,5380,-1,-1,-1
-28.88,-4.62,48.14,-636,6001,5365,-1,-1,-1
-28.88,-4.64,48.11,-642,5986,5377,-1,0,-1
-28.86,-4.66,48.09,-648,6001,5383,-1,0,-1
-28.85,-4.68,48.07,-655,6016,5393,-1,-1,-1
-28.84,-4.69,48.05,-654,6025,5388,-2,0,-1
-28.84,-4.70,48.01,-662,6008,5402,-2,-1,-1
-28.85,-4.72,47.97,-656,5985,5390,-2,0,-1
-28.86,-4.73,47.93,-675,5988,5386,-2,0,-1
-28.85,-4.74,47.90,-676,5987,5392,-2,-1,-1
-28.85,-4.75,47.86,-661,5982,5392,-2,-1,-1
-28.86,-4.75,47.82,-659,5966,5388,-2,-1,-1
-28.84,-4.77,47.81,-673,5970,5397,-1,-1,-1
-28.84,-4.78,47.78,-665,5969,5407,-1,-1,-1
-28.83,-4.78,47.76,-674,5954,5411,-2,-1,-1
-28.84,-4.79,47.72,-672,5959,5416,-1,-1,-1
-28.83,-4.80,47.70,-672,5963,5413,-2,-1,-1
-28.81,-4.81,47.67,-669,5962,5428,-2,-1,-1
-28.81,-4.82,47.62,-682,5955,5441,-2,-1,-1
-28.80,-4.83,47.59,-670,5944,5435,-2,-1,-1
-28.78,-4.84,47.56,-683,5954,5436,-1,-1,-1
-28.77,-4.85,47.53,-684,5962,5443,-1,-1,-1
-28.75,-4.85,47.50,-679,5958,5448,-2,-1,-2
-28.72,-4.86,47.47,-666,5926,5439,-1,-1,-2
-28.69,-4.89,47.44,-684,5920,5432,-1,-1,-2
-28.65,-4.91,47.42,-698,5930,5428,-1,-1,-2
-28.63,-4.92,47.40,-693,5934,5436,-1,-1,-1
-28.61,-4.92,47.37,-703,5948,5445,-2,-2,-1
-28.60,-4.91,47.34,-696,5945,5465,-2,-2,-1
-28.57,-4.92,47.30,-688,5936,5466,-1,-1,-1
-28.55,-4.92,47.27,-690,5920,5469,-2,-1,-2
-28.53,-4.93,47.25,-688,5908,5461,-1,-1,-2
-28.51,-4.93,47.22,-692,5903,5467,-1,-1,-1
-28.49,-4.95,47.20,-703,5897,5468,-1,-1,-1
-28.47,-4.95,47.19,-704,5889,5477,-1,-1,-1
-28.44,-4.95,47.18,-708,5891,5466,-1,-1,-1
-28.42,-4.95,47.17,-709,5893,5477,-1,-1,-1
-28.41,-4.95,47.16,-696,5898,5485,-1,-1,-1
-28.39,-4.95,47.16,-696,5900,5470,-1,-1,-1
-28.39,-4.94,47.15,-690,5917,5464,-1,-1,-1
-28.37,-4.94,47.14,-691,5932,5466,-1,-1,-1
-28.37,-4.94,47.12,-693,5922,5468,-1,-1,-1
-28.36,-4.94,47.10,-697,5902,5470,-1,-1,-1
-28.35,-4.94,47.09,-697,5893,5489,-1,-1,-1
-28.34,-4.94,47.07,-699,5892,5498,-1,-1,-1
-28.33,-4.93,47.05,-699,5880,5505,-1,-1,-1
-28.33,-4.93,47.04,-695,5879,5500,-1,-1,-1
-28.32,-4.93,47.04,-695,5876,5495,0,-1,-1
-28.31,-4.93,47.04,-690,5891,5489,0,-1,-1
-28.30,-4.93,47.05,-696,5892,5497,0,0,-1
-28.30,-4.93,47.05,-699,5895,5506,0,-1,-1
-28.29,-4.92,47.06,-696,5908,5486,-1,-1,-1
-28.28,-4.92,47.06,-689,5906,5481,0,-1,-1
-28.27,-4.92,47.07,-695,5905,5488,0,-1,-1
-28.26,-4.92,47.06,-692,5901,5480,-1,-1,-1
-28.26,-4.92,47.07,-694,5902,5501,-1,-1,-1
-28.26,-4.92,47.05,-699,5911,5492,-1,-1,-1
-28.26,-4.91,47.04,-694,5906,5494,-1,-1,0
-28.28,-4.89,47.02,-686,5892,5487,-1,-1,-1
-28.27,-4.89,47.01,-684,5890,5486,-1,-1,-1
-28.28,-4.89,46.99,-682,5890,5499,-1,-1,-1
-28.27,-4.89,46.98,-695,5887,5499,-1,-1,-1
-28.28,-4.88,46.97,-695,5892,5491,-1,-1,-1
-28.28,-4.87,46.95,-692,5911,5498,-1,-1,0
-28.29,-4.86,46.92,-686,5904,5496,-2,-1,0
-28.31,-4.85,46.89,-690,5886,5507,-2,-1,0
-28.32,-4.84,46.86,-686,5863,5513,-1,-1,0
-28.33,-4.84,46.84,-685,5862,5513,-1,-1,0
-28.33,-4.83,46.83,-685,5863,5517,-1,-1,0
-28.34,-4.82,46.81,-680,5866,5523,-1,-1,0
-28.35,-4.81,46.81,-675,5882,5521,-1,-1,0
-28.35,-4.81,46.80,-684,5872,5520,-1,-1,0
-28.36,-4.79,46.79,-676,5865,5519,-1,-1,0
-28.37,-4.79,46.78,-673,5861,5513,-1,-1,0
-28.38,-4.78,46.77,-674,5865,5513,-1,-1,0
-28.38,-4.78,46.76,-673,5870,5523,-1,-1,0
-28.40,-4.77,46.75,-680,5880,5520,-1,-1,0
-28.40,-4.75,46.74,-666,5881,5523,-1,-1,0
-28.41,-4.74,46.72,-657,5888,5521,-1,-1,0
-28.43,-4.73,46.70,-656,5882,5523,-2,-1,0
-28.44,-4.72,46.67,-666,5876,5535,-2,-1,0
-28.46,-4.71,46.64,-661,5866,5544,-1,-1,-1
-28.47,-4.70,46.61,-669,5856,5534,-1,-1,-1
-28.47,-4.69,46.59,-659,5856,5536,-1,-1,-1
-28.49,-4.68,46.56,-650,5859,5546,-1,-1,0
-28.50,-4.68,46.53,-655,5841,5553,-1,-1,0
-28.51,-4.67,46.51,-648,5834,5561,-1,-1,0
-28.53,-4.66,46.50,-652,5838,5558,-1,-1,0
-28.53,-4.65,46.49,-654,5835,5557,-1,-1,0
-28.54,-4.64,46.49,-650,5850,5552,-1,-1,0
-28.54,-4.64,46.47,-655,5850,5551,-1,-1,0
-28.55,-4.63,46.47,-654,5841,5551,-1,0,0
-28.56,-4.64,46.46,-665,5833,5562,-1,0,-1
-28.55,-4.64,46.46,-670,5832,5561,0,-1,0
-28.56,-4.64,46.47,-661,5840,5559,0,0,0
-28.57,-4.63,46.47,-668,5823,5570,0,-1,0
-28.57,-4.63,46.48,-655,5824,5552,0,0,0
-28.56,-4.63,46.50,-652,5835,5549,0,0,0
-28.56,-4.63,46.50,-653,5846,5552,0,0,0
-28.57,-4.62,46.51,-659,5866,5551,-1,-1,0
-28.58,-4.62,46.50,-651,5872,5541,-1,0,0
-28.60,-4.61,46.49,-652,5859,5556,-1,0,0
-28.62,-4.60,46.48,-650,5845,5554,-1,-1,0
-28.64,-4.59,46.47,-640,5834,5555,-1,-1,0
-28.65,-4.57,46.47,-636,5833,5547,-1,0,0
-28.67,-4.57,46.48,-645,5836,5552,0,0,0
-28.67,-4.55,46.50,-662,5828,5559,0,-1,0
-28.68,-4.53,46.52,-636,5815,5566,1,-1,1
-28.69,-4.50,46.55,-642,5857,5560,1,-1,0
-28.70,-4.48,46.58,-623,5895,5530,-1,-1,0
-28.74,-4.45,46.57,-618,5896,5531,-1,0,0
-28.78,-4.44,46.53,-610,5874,5524,-2,0,0
-28.82,-4.43,46.50,-619,5856,5519,-2,0,0
-28.85,-4.43,46.47,-626,5833,5528,-2,-1,0
-28.88,-4.41,46.44,-630,5845,5542,-1,0,0
-28.91,-4.39,46.42,-620,5837,5565,-1,-1,0
-28.94,-4.38,46.39,-618,5825,5561,-1,-1,0
-28.96,-4.37,46.38,-612,5832,5558,-1,-1,0
-28.97,-4.36,46.37,-610,5831,5563,-1,0,0
-28.98,-4.36,46.35,-613,5829,5558,-1,0,0
-28.99,-4.36,46.34,-607,5824,5556,-1,-1,0
-29.00,-4.36,46.33,-617,5827,5566,-1,0,-1
-28.99,-4.37,46.33,-610,5826,5577,-1,-1,-1
-28.99,-4.36,46.32,-614,5830,5577,-1,-1,0
-28.99,-4.36,46.33,-606,5838,5567,-1,0,0
-29.00,-4.35,46.32,-611,5827,5575,-1,-1,0
-29.00,-4.35,46.31,-607,5826,5563,-1,-1,-1
-29.00,-4.36,46.30,-604,5824,5554,-1,0,-1
-29.00,-4.36,46.29,-609,5824,5558,-1,-1,-1
-29.00,-4.36,46.29,-613,5835,5558,-1,-1,0
-29.02,-4.36,46.28,-605,5834,5572,-1,0,0
-29.02,-4.35,46.27,-609,5823,5575,-1,-1,0
-29.02,-4.35,46.26,-613,5830,5578,-1,-1,0
-29.03,-4.34,46.25,-607,5829,5572,-1,-1,0
-29.04,-4.34,46.24,-605,5837,5573,-1,-1,0
-29.05,-4.33,46.22,-603,5827,5575,-1,0,0
-29.07,-4.33,46.21,-609,5827,5576,-1,-1,0
-29.07,-4.32,46.20,-607,5820,5582,-1,-1,0
-29.09,-4.30,46.18,-599,5826,5576,-1,-1,0
-29.09,-4.30,46.17,-599,5814,5566,-1,0,0
-29.10,-4.30,46.15,-602,5803,5579,-1,-1,-1
-29.11,-4.30,46.15,-607,5801,5580,-1,-1,-1
-29.10,-4.30,46.14,-605,5804,5581,-1,0,0
-29.11,-4.30,46.14,-611,5806,5588,-1,-1,0
-29.12,-4.29,46.13,-613,5813,5577,-1,-1,0
-29.13,-4.28,46.12,-605,5821,5585,-1,0,0
-29.14,-4.28,46.10,-600,5815,5593,-1,-1,0
-29.15,-4.28,46.09,-595,5813,5597,-1,0,-1
-29.15,-4.28,46.07,-602,5800,5600,-1,-1,-1
-29.15,-4.28,46.06,-599,5800,5599,-1,-1,-1
-29.15,-4.29,46.05,-611,5808,5596,-1,-1,-1
-29.15,-4.28,46.05,-604,5814,5593,-1,-1,0
-29.15,-4.28,46.04,-608,5821,5596,-1,-1,0
-29.15,-4.27,46.03,-601,5812,5588,-1,-1,0
-29.16,-4.27,46.01,-598,5793,5610,-1,0,0
-29.18,-4.26,45.99,-601,5789,5601,-1,-1,0
-29.18,-4.27,45.98,-608,5794,5600,-1,-1,0
-29.20,-4.26,45.96,-602,5797,5611,-1,-1,0
-29.20,-4.25,45.95,-601,5799,5607,-1,-1,0
-29.21,-4.24,45.94,-594,5805,5605,-1,-1,0
-29.21,-4.24,45.93,-592,5791,5608,-1,-1,0
-29.23,-4.24,45.91,-590,5780,5609,-1,0,0
-29.23,-4.23,45.90,-590,5778,5624,-1,-1,-1
-29.24,-4.24,45.89,-597,5786,5620,-1,-1,-1
-29.23,-4.24,45.88,-601,5789,5612,-1,-1,-1
-29.24,-4.23,45.87,-603,5796,5607,-1,-1,-1
-29.23,-4.23,45.87,-600,5804,5613,-1,-1,-1
-29.23,-4.22,45.85,-592,5802,5607,-1,-1,-1
-29.23,-4.22,45.84,-584,5789,5603,-1,-1,-1
-29.24,-4.22,45.82,-596,5772,5618,-1,-1,-1
-29.24,-4.21,45.80,-595,5774,5609,-1,-1,-1
-29.24,-4.21,45.79,-588,5780,5616,-1,-1,-1
-29.24,-4.21,45.78,-596,5781,5628,-1,-1,-1
-29.24,-4.21,45.77,-594,5778,5631,-1,-1,-1
-29.24,-4.20,45.76,-585,5783,5637,-1,-1,0
-29.25,-4.20,45.75,-590,5783,5636,-1,-1,0
-29.25,-4.20,45.74,-587,5772,5627,-1,-1,-1
-29.25,-4.20,45.73,-588,5770,5620,-1,-1,-1
-29.24,-4.20,45.73,-590,5767,5628,-1,-1,-1
-29.24,-4.20,45.72,-598,5767,5626,-1,-1,-1
-29.24,-4.21,45.72,-605,5771,5628,-1,-1,-1
-29.23,-4.21,45.71,-597,5776,5631,-1,-1,-1
-29.23,-4.20,45.71,-595,5776,5622,-1,-1,-1
-29.23,-4.21,45.70,-590,5784,5621,-1,0,-1
-29.23,-4.21,45.68,-596,5767,5628,-1,0,-1
-29.23,-4.21,45.67,-592,5764,5627,-1,-1,-1
-29.23,-4.21,45.67,-597,5759,5638,-1,-1,-1
-29.22,-4.22,45.66,-602,5772,5634,-1,-1,-1
-29.23,-4.22,45.65,-599,5770,5647,-1,-1,0
-29.23,-4.21,45.65,-590,5771,5644,-1,-1,0
-29.23,-4.21,45.64,-585,5772,5643,-1,0,-1
-29.24,-4.21,45.62,-585,5761,5653,-1,-1,-1
-29.23,-4.21,45.62,-588,5764,5644,-1,-1,-1
-29.24,-4.21,45.61,-585,5762,5639,-1,-1,0
-29.24,-4.20,45.61,-591,5772,5649,-1,-1,0
-29.25,-4.19,45.60,-584,5769,5653,-1,-1,0
-29.25,-4.19,45.59,-583,5756,5648,-1,-1,0
-29.26,-4.19,45.58,-585,5761,5651,-1,-1,-1
-29.26,-4.18,45.57,-591,5755,5650,0,-1,-1
-29.26,-4.18,45.57,-584,5763,5644,-1,0,-1
-29.26,-4.19,45.56,-598,5756,5657,-1,-1,0
-29.26,-4.18,45.56,-594,5757,5648,0,-1,-1
-29.25,-4.18,45.56,-587,5759,5647,0,-1,-1
-29.25,-4.18,45.57,-591,5769,5637,0,-1,0
-29.25,-4.18,45.57,-586,5770,5637,-1,-1,0
-29.26,-4.17,45.56,-580,5766,5640,-1,-1,0
-29.27,-4.17,45.55,-585,5758,5648,-1,0,0
-29.27,-4.17,45.54,-582,5747,5641,-1,-1,0
-29.27,-4.17,45.54,-583,5757,5641,-1,-1,0
-29.27,-4.17,45.54,-590,5760,5650,-1,-1,-1
-29.27,-4.17,45.53,-591,5769,5645,-1,0,0
-29.28,-4.17,45.53,-592,5762,5655,-1,-1,0
-29.28,-4.16,45.52,-577,5749,5652,-1,0,-1
-29.28,-4.17,45.53,-577,5738,5651,0,0,0
-29.28,-4.17,45.53,-588,5733,5656,0,-1,-1
-29.27,-4.17,45.54,-579,5756,5639,0,0,-1
-29.27,-4.18,45.55,-575,5769,5636,0,0,0
-29.27,-4.18,45.57,-584,5753,5658,0,0,0
-29.26,-4.18,45.57,-589,5742,5664,0,-1,-1
-29.26,-4.17,45.58,-579,5765,5632,0,0,-1
-29.26,-4.18,45.57,-589,5769,5638,-1,-1,-1
-29.26,-4.16,45.56,-584,5768,5640,-1,-1,0
-29.27,-4.17,45.55,-588,5771,5640,-1,0,0
-29.27,-4.17,45.54,-587,5757,5646,-1,-1,0
-29.28,-4.17,45.52,-588,5752,5657,-1,-1,0
-29.28,-4.16,45.51,-588,5751,5653,-1,-1,-1
-29.27,-4.17,45.51,-583,5752,5645,-1,-1,-1
-29.27,-4.16,45.50,-589,5747,5644,-1,-1,-1
-29.27,-4.17,45.50,-590,5742,5646,-1,-1,-1
-29.27,-4.17,45.50,-583,5760,5653,-1,0,-1
-29.27,-4.17,45.49,-591,5756,5655,-1,-1,-1
-29.27,-4.17,45.48,-586,5743,5650,-1,-1,-1
-29.27,-4.17,45.49,-587,5751,5656,-1,-1,-1
-29.26,-4.17,45.48,-590,5750,5657,0,-1,-1
-29.26,-4.17,45.48,-585,5759,5645,-1,0,0
-29.27,-4.17,45.47,-591,5744,5654,-1,0,-1
-29.26,-4.18,45.47,-593,5740,5645,-1,-1,-1
-29.25,-4.19,45.47,-596,5737,5640,-1,0,-1
-29.25,-4.19,45.47,-596,5747,5647,-1,0,0
-29.26,-4.18,45.47,-598,5765,5654,-1,-1,0
-29.26,-4.17,45.46,-592,5761,5652,-1,-1,0
-29.27,-4.17,45.46,-583,5752,5660,-1,-1,0
-29.28,-4.17,45.44,-579,5740,5662,-1,0,0
-29.28,-4.17,45.44,-582,5734,5668,-1,0,-1
-29.28,-4.17,45.44,-585,5739,5667,-1,0,-1
-29.27,-4.18,45.44,-587,5750,5659,0,0,-1
-29.26,-4.18,45.44,-589,5759,5665,-1,-1,-1
-29.26,-4.18,45.44,-592,5757,5659,-1,-1,0
-29.26,-4.18,45.44,-591,5753,5666,-1,-1,0
-29.26,-4.18,45.44,-585,5746,5658,-1,-1,-1
-29.27,-4.17,45.43,-591,5744,5644,-1,0,-1
-29.27,-4.17,45.43,-582,5746,5647,-1,0,-1
-29.27,-4.18,45.42,-587,5745,5652,-1,-1,0
-29.27,-4.18,45.42,-589,5745,5653,-1,-1,0
-29.27,-4.17,45.42,-588,5736,5658,-1,-1,-1
-29.27,-4.17,45.42,-587,5733,5652,0,-1,-1
-29.26,-4.17,45.41,-585,5744,5646,-1,-1,0
-29.26,-4.17,45.41,-578,5746,5633,-1,0,-1
-29.26,-4.18,45.40,-592,5724,5650,-1,-1,-1
-29.25,-4.18,45.40,-588,5727,5657,0,0,-1
-29.25,-4.19,45.40,-594,5737,5661,0,0,-1
-29.24,-4.19,45.41,-599,5760,5659,-1,-1,0
-29.24,-4.19,45.41,-594,5769,5662,-1,-1,0
-29.25,-4.18,45.40,-589,5760,5663,-1,-1,0
-29.25,-4.18,45.39,-587,5748,5676,-1,0,-1
-29.25,-4.19,45.39,-586,5736,5667,-1,0,-1
-29.24,-4.19,45.38,-588,5731,5663,-1,0,-1
-29.24,-4.19,45.38,-591,5735,5666,-1,0,-1
-29.24,-4.19,45.38,-595,5741,5658,-1,-1,-1
-29.24,-4.20,45.37,-599,5747,5661,-1,-1,0
-29.24,-4.19,45.37,-596,5751,5667,-1,-1,-1
-29.24,-4.19,45.36,-589,5736,5671,-1,-1,-1
-29.24,-4.20,45.35,-588,5728,5669,-1,-1,-1
-29.25,-4.19,45.35,-581,5730,5685,-1,-1,-1
-29.24,-4.19,45.35,-582,5727,5669,0,-1,-1
-29.23,-4.20,45.35,-586,5739,5674,0,0,-1
-29.22,-4.21,45.35,-598,5739,5664,0,-1,-1
-29.21,-4.21,45.35,-596,5752,5662,-1,-1,0
-29.22,-4.21,45.35,-589,5736,5658,-1,0,0
-29.23,-4.21,45.34,-596,5719,5670,-1,-1,0
-29.23,-4.20,45.33,-595,5727,5670,0,-1,-1
-29.22,-4.20,45.33,-595,5729,5676,-1,-1,-1
-29.22,-4.20,45.33,-586,5730,5671,-1,0,-1
-29.22,-4.21,45.33,-583,5731,5674,-1,0,-1
-29.22,-4.21,45.33,-583,5737,5672,-1,0,-1
-29.22,-4.21,45.33,-589,5731,5674,-1,0,-1
-29.21,-4.21,45.32,-592,5732,5675,-1,-1,-1
-29.21,-4.21,45.32,-593,5732,5673,-1,-1,-1
-29.21,-4.21,45.32,-590,5728,5666,-1,-1,-1
-29.21,-4.21,45.32,-590,5731,5656,-1,0,-1
-29.20,-4.22,45.32,-592,5738,5663,-1,-1,-1
-29.20,-4.22,45.31,-589,5730,5668,-1,-1,-1
-29.21,-4.22,45.30,-598,5726,5664,-1,0,-1
-29.21,-4.22,45.30,-602,5727,5671,-1,0,-1
-29.21,-4.22,45.29,-595,5729,5667,-1,-1,-1
-29.21,-4.22,45.29,-589,5733,5671,-1,-1,-1
-29.20,-4.22,45.29,-593,5728,5683,-1,0,-1
-29.20,-4.22,45.29,-587,5726,5688,-1,-1,-1
-29.20,-4.23,45.28,-589,5719,5689,-1,0,-1
-29.20,-4.23,45.28,-599,5724,5683,0,-1,-1
-29.19,-4.23,45.29,-600,5729,5670,0,0,-1
-29.19,-4.24,45.29,-607,5749,5674,-1,-1,-1
-29.19,-4.24,45.29,-597,5746,5669,-1,0,-1
-29.19,-4.24,45.28,-607,5725,5684,-1,-1,0
-29.18,-4.24,45.28,-601,5728,5673,0,0,-1
-29.18,-4.25,45.28,-604,5729,5670,0,0,-1
-29.18,-4.25,45.28,-594,5743,5671,-1,-1,0
-29.18,-4.24,45.28,-591,5742,5665,-1,-1,-1
-29.18,-4.24,45.28,-584,5733,5673,-1,0,-1
-29.18,-4.24,45.28,-584,5729,5677,-1,0,-1
-29.19,-4.25,45.27,-589,5719,5676,-1,0,-1
-29.18,-4.25,45.27,-590,5723,5677,-1,-1,-1
-29.18,-4.25,45.26,-598,5721,5677,-1,0,-1
-29.18,-4.26,45.26,-599,5737,5671,-1,0,-1
-29.17,-4.26,45.26,-606,5746,5681,-1,-1,-1
-29.17,-4.25,45.26,-595,5741,5679,-1,-1,-1
-29.17,-4.25,45.26,-598,5730,5675,-1,0,-1
-29.16,-4.27,45.26,-604,5723,5667,-1,0,-1
-29.16,-4.27,45.26,-607,5730,5668,-1,0,-1
-29.16,-4.27,45.26,-612,5729,5670,-1,0,-1
-29.16,-4.27,45.26,-604,5736,5673,-1,-1,-1
-29.16,-4.27,45.26,-602,5727,5659,0,0,-1
-29.16,-4.27,45.26,-597,5726,5668,-1,-1,-1
-29.16,-4.27,45.26,-598,5724,5677,0,0,-1
-29.15,-4.28,45.25,-592,5741,5674,-1,-1,-1
-29.16,-4.28,45.25,-596,5723,5679,-1,0,-1
-29.16,-4.29,45.24,-598,5716,5690,0,-1,-1
-29.15,-4.29,45.25,-598,5720,5675,0,0,-1
-29.14,-4.29,45.26,-603,5731,5691,0,-1,-1
-29.14,-4.29,45.26,-604,5742,5681,0,-1,0
-29.13,-4.29,45.26,-603,5740,5673,-1,0,-1
-29.13,-4.29,45.26,-595,5737,5671,-1,0,-1
-29.14,-4.29,45.26,-592,5725,5686,-1,0,-1
-29.13,-4.30,45.25,-601,5724,5690,-1,0,-1
-29.13,-4.31,45.25,-610,5725,5687,-1,0,-1
-29.13,-4.31,45.25,-609,5724,5700,-1,0,-1
-29.12,-4.32,45.25,-609,5730,5696,0,0,-1
-29.12,-4.32,45.25,-613,5740,5685,-1,0,-1
-29.11,-4.32,45.25,-615,5727,5675,-1,0,-1
-29.12,-4.32,45.24,-608,5724,5682,-1,0,-1
-29.11,-4.33,45.24,-607,5728,5679,0,0,-1
-29.11,-4.34,45.25,-611,5720,5677,0,0,-1
-29.09,-4.34,45.26,-609,5724,5679,0,0,-1
-29.08,-4.34,45.26,-613,5732,5672,0,0,-1
-29.08,-4.35,45.26,-619,5732,5670,0,-1,0
-29.08,-4.34,45.26,-619,5726,5673,0,-1,0
-29.09,-4.34,45.26,-611,5726,5676,-1,-1,-1
-29.08,-4.34,45.27,-609,5718,5660,-1,-1,-1
-29.08,-4.34,45.26,-603,5727,5668,-1,0,-1
-29.08,-4.35,45.26,-605,5731,5674,0,-1,-1
-29.07,-4.35,45.25,-607,5735,5672,-1,0,0
-29.08,-4.35,45.25,-613,5716,5683,-1,0,0
-29.08,-4.35,45.25,-610,5708,5677,0,-1,0
-29.08,-4.34,45.25,-616,5713,5679,0,-1,0
-29.08,-4.34,45.26,-622,5726,5678,0,-1,0
-29.08,-4.34,45.26,-621,5728,5674,-1,-1,0
-29.08,-4.34,45.25,-618,5724,5672,-1,-1,0
-29.08,-4.34,45.25,-613,5721,5688,-1,-1,-1
-29.08,-4.34,45.24,-615,5716,5679,-1,0,0
-29.09,-4.34,45.24,-611,5729,5680,-1,0,0
-29.10,-4.33,45.23,-606,5735,5679,-1,-1,0
-29.10,-4.33,45.23,-609,5742,5684,-1,-1,-1
-29.10,-4.33,45.22,-615,5739,5683,-1,0,-1
-29.10,-4.33,45.22,-613,5728,5685,-1,0,-1
-29.11,-4.33,45.21,-617,5722,5686,-1,-1,0
-29.11,-4.33,45.21,-614,5720,5687,-1,-1,0
-29.12,-4.33,45.21,-612,5727,5688,-1,-1,0
-29.12,-4.32,45.20,-596,5721,5683,-1,-1,0
-29.12,-4.31,45.20,-594,5716,5677,-1,-1,0
-29.12,-4.31,45.20,-595,5721,5680,-1,0,0
-29.13,-4.32,45.19,-606,5720,5683,-1,0,-1
-29.13,-4.32,45.19,-606,5717,5684,-1,0,-1
-29.13,-4.32,45.19,-610,5719,5684,-1,0,-1
-29.13,-4.32,45.19,-621,5720,5683,-1,-1,-1
-29.12,-4.32,45.19,-614,5717,5690,-1,-1,0
-29.11,-4.32,45.19,-613,5722,5680,0,-1,-1
-29.13,-4.31,45.18,-600,5725,5677,-1,0,0
-29.14,-4.31,45.17,-606,5710,5680,-1,0,0
-29.14,-4.31,45.17,-602,5709,5676,-1,-1,-1
-29.14,-4.31,45.17,-604,5708,5678,0,-1,0
-29.14,-4.30,45.17,-602,5725,5672,-1,-1,0
-29.15,-4.29,45.17,-604,5733,5678,-1,-1,0
-29.15,-4.29,45.17,-594,5725,5678,-1,0,0
-29.16,-4.29,45.16,-593,5716,5680,-1,-1,0
-29.16,-4.29,45.15,-596,5706,5680,-1,0,-1
-29.16,-4.29,45.15,-600,5706,5689,-1,0,-1
-29.17,-4.29,45.15,-603,5712,5692,-1,0,-1
-29.16,-4.29,45.15,-610,5719,5688,-1,-1,-1
-29.16,-4.29,45.15,-613,5727,5685,-1,-1,0
-29.17,-4.28,45.14,-607,5724,5691,-1,-1,0
-29.17,-4.28,45.14,-606,5714,5677,-1,-1,0
-29.18,-4.28,45.13,-603,5714,5684,-1,-1,0
-29.17,-4.28,45.13,-605,5713,5687,-1,-1,0
-29.18,-4.28,45.12,-606,5716,5686,-1,-1,0
-29.18,-4.28,45.12,-607,5712,5680,-1,-1,0
-29.18,-4.28,45.12,-604,5706,5680,-1,-1,0
-29.19,-4.27,45.12,-599,5712,5677,-1,-1,0
-29.19,-4.27,45.12,-594,5714,5686,-1,-1,0
-29.19,-4.27,45.11,-591,5710,5695,-1,-1,0
-29.19,-4.27,45.11,-591,5708,5695,-1,0,-1
-29.20,-4.26,45.10,-595,5712,5700,-1,0,0
-29.20,-4.26,45.10,-594,5713,5699,-1,-1,0
-29.21,-4.26,45.09,-598,5713,5698,-1,-1,0
-29.20,-4.26,45.09,-600,5713,5692,-1,-1,0
-29.21,-4.26,45.09,-599,5710,5692,-1,-1,0
-29.21,-4.25,45.09,-595,5704,5691,-1,-1,0
-29.21,-4.25,45.09,-595,5707,5688,0,-1,-1
-29.20,-4.25,45.09,-594,5719,5693,-1,-1,-1
-29.20,-4.25,45.09,-606,5718,5689,-1,0,0
-29.21,-4.25,45.08,-607,5712,5696,-1,-1,0
-29.21,-4.25,45.08,-602,5708,5682,0,-1,0
-29.21,-4.24,45.08,-596,5714,5696,0,-1,0
-29.22,-4.23,45.08,-583,5723,5693,-1,-1,0
-29.23,-4.23,45.07,-581,5706,5687,-1,0,0
-29.24,-4.23,45.07,-587,5702,5698,-1,0,-1
-29.24,-4.23,45.07,-595,5704,5704,0,0,-1
-29.24,-4.24,45.06,-597,5696,5697,0,0,-1
-29.23,-4.24,45.07,-602,5698,5689,0,0,0
-29.23,-4.24,45.07,-602,5708,5696,0,-1,0
-29.24,-4.23,45.08,-592,5714,5702,0,0,0
-29.24,-4.23,45.08,-593,5721,5699,-1,-1,0
-29.24,-4.23,45.08,-587,5716,5687,-1,0,0
-29.24,-4.23,45.08,-598,5715,5700,-1,0,-1
-29.25,-4.23,45.07,-601,5712,5713,-1,0,0
-29.25,-4.23,45.07,-599,5718,5699,0,0,0
-29.25,-4.23,45.07,-597,5716,5708,0,0,0
-29.25,-4.23,45.07,-597,5717,5705,0,0,0
-29.26,-4.22,45.08,-594,5707,5704,0,0,0
-29.26,-4.23,45.08,-591,5710,5705,0,0,0
-29.27,-4.23,45.07,-590,5704,5708,-1,0,0
-29.27,-4.23,45.07,-595,5703,5705,0,0,-1
-29.26,-4.24,45.08,-600,5708,5706,0,0,0
-29.27,-4.23,45.08,-597,5709,5702,0,0,0
-29.27,-4.23,45.08,-594,5709,5708,0,0,0
-29.27,-4.23,45.08,-598,5714,5695,0,0,0
-29.28,-4.23,45.09,-592,5709,5683,0,0,0
-29.28,-4.24,45.09,-599,5707,5692,-1,0,0
-29.29,-4.23,45.09,-601,5705,5688,0,0,0
-29.29,-4.23,45.09,-593,5707,5703,-1,0,0
-29.30,-4.24,45.09,-599,5700,5705,-1,0,0
-29.31,-4.24,45.09,-599,5694,5706,-1,-1,0
-29.31,-4.23,45.08,-587,5688,5693,0,0,-1
-29.31,-4.24,45.09,-594,5694,5703,0,0,0
-29.31,-4.24,45.10,-598,5712,5704,0,0,0
-29.32,-4.23,45.10,-590,5718,5700,-1,0,0
-29.33,-4.23,45.09,-588,5717,5698,-1,0,0
-29.34,-4.23,45.10,-586,5707,5694,0,0,0
-29.34,-4.23,45.10,-594,5692,5698,0,0,0
-29.35,-4.23,45.09,-597,5697,5696,0,0,-1
-29.34,-4.23,45.10,-595,5700,5696,0,0,-1
-29.34,-4.23,45.10,-597,5713,5704,-1,-1,0
-29.35,-4.23,45.09,-603,5723,5706,-1,-1,0
-29.35,-4.22,45.09,-597,5710,5703,-1,-1,0
-29.36,-4.21,45.07,-588,5700,5701,-1,-1,0
-29.36,-4.21,45.07,-586,5690,5711,-1,0,0
-29.37,-4.21,45.07,-582,5685,5705,0,0,-1
-29.36,-4.21,45.07,-589,5693,5712,0,0,-1
-29.36,-4.22,45.08,-598,5706,5707,0,0,-1
-29.35,-4.22,45.08,-600,5708,5708,0,-1,-1
-29.35,-4.22,45.08,-597,5704,5695,0,-1,0
-29.35,-4.22,45.08,-593,5703,5686,0,0,0
-29.35,-4.22,45.08,-592,5702,5690,0,0,-1
-29.35,-4.22,45.08,-588,5699,5699,0,0,-1
-29.35,-4.22,45.08,-591,5695,5708,-1,0,-1
-29.35,-4.22,45.08,-596,5698,5702,-1,0,-1
-29.35,-4.23,45.07,-601,5702,5701,-1,0,-1
-29.35,-4.22,45.07,-591,5695,5700,0,0,0
-29.35,-4.22,45.07,-594,5701,5712,0,-1,-1
-29.35,-4.22,45.07,-590,5711,5707,-1,0,0
-29.36,-4.22,45.05,-601,5684,5713,-1,-1,0
-29.36,-4.22,45.05,-581,5680,5714,0,0,-1
-29.35,-4.22,45.06,-593,5684,5717,0,0,-1
-29.34,-4.23,45.06,-597,5702,5720,0,0,-1
-29.34,-4.23,45.06,-603,5710,5718,0,0,-1
-29.34,-4.23,45.07,-595,5717,5706,0,0,0
-29.34,-4.23,45.07,-589,5703,5701,0,0,0
-29.35,-4.23,45.07,-590,5701,5695,0,0,0
-29.35,-4.23,45.07,-591,5697,5695,0,0,-1
-29.35,-4.23,45.07,-590,5700,5692,0,0,-1
-29.34,-4.24,45.08,-589,5700,5703,0,0,-1
-29.34,-4.24,45.08,-589,5705,5705,0,0,-1
-29.34,-4.24,45.08,-592,5699,5699,0,0,-1
-29.34,-4.24,45.08,-591,5698,5707,0,0,-1
-29.33,-4.25,45.08,-592,5693,5705,0,0,-1
-29.33,-4.25,45.08,-591,5697,5704,0,0,-1
-29.33,-4.26,45.08,-590,5697,5703,0,0,-1
-29.33,-4.26,45.08,-594,5699,5699,0,0,-1
-29.32,-4.26,45.09,-597,5703,5702,0,0,-1
-29.31,-4.27,45.09,-602,5708,5700,0,0,-1
-29.31,-4.28,45.10,-609,5709,5710,0,0,-1
-29.31,-4.28,45.10,-608,5714,5701,0,0,0
-29.31,-4.28,45.10,-607,5708,5703,0,-1,-1
-29.30,-4.28,45.10,-594,5696,5701,0,0,-1
-29.30,-4.28,45.10,-596,5702,5712,-1,-1,-1
-29.30,-4.28,45.10,-591,5701,5699,-1,0,-1
-29.31,-4.29,45.09,-608,5686,5711,0,-1,-1
-29.30,-4.29,45.10,-602,5694,5706,0,0,-1
-29.29,-4.30,45.11,-609,5701,5706,0,0,-1
-29.29,-4.30,45.11,-606,5712,5704,0,0,0
-29.29,-4.30,45.12,-609,5709,5698,0,0,0
-29.29,-4.30,45.12,-601,5707,5708,0,0,-1
-29.28,-4.31,45.13,-601,5705,5701,0,0,-1
-29.28,-4.31,45.13,-589,5703,5701,0,0,-1
-29.28,-4.31,45.13,-599,5698,5699,0,0,-1
-29.27,-4.32,45.13,-599,5699,5697,0,0,-1
-29.27,-4.33,45.13,-607,5696,5698,0,0,-1
-29.27,-4.33,45.13,-606,5699,5699,0,0,0
-29.28,-4.33,45.14,-601,5700,5701,0,0,-1
-29.28,-4.33,45.14,-601,5708,5697,0,0,-1
-29.28,-4.33,45.14,-605,5699,5699,0,0,-1
-29.27,-4.33,45.14,-600,5692,5702,0,0,-1
-29.26,-4.34,45.15,-603,5691,5700,0,0,-1
-29.26,-4.34,45.15,-612,5702,5702,0,0,-1
-29.26,-4.35,45.16,-611,5711,5703,0,0,-1
-29.25,-4.35,45.16,-616,5719,5714,0,0,0
-29.25,-4.36,45.17,-612,5718,5710,0,0,-1
-29.25,-4.36,45.17,-614,5708,5704,0,0,-1
-29.25,-4.36,45.17,-610,5702,5698,0,0,-1
-29.24,-4.37,45.17,-613,5706,5695,0,0,-1
-29.24,-4.37,45.17,-607,5712,5697,0,0,-1
-29.25,-4.37,45.16,-616,5693,5710,-1,0,0
-29.25,-4.37,45.16,-611,5692,5701,0,0,-1
-29.25,-4.38,45.17,-619,5695,5700,0,0,-1
-29.24,-4.39,45.17,-622,5711,5699,0,0,0
-29.24,-4.39,45.18,-617,5711,5698,0,0,0
-29.25,-4.38,45.18,-611,5707,5701,0,0,-1
-29.24,-4.39,45.18,-606,5698,5699,0,0,-1
-29.23,-4.40,45.19,-618,5704,5689,0,0,-1
-29.22,-4.41,45.20,-625,5709,5686,0,0,-1
-29.22,-4.42,45.20,-633,5713,5693,0,0,-1
-29.22,-4.42,45.20,-633,5721,5691,0,0,-1
-29.21,-4.42,45.21,-634,5719,5693,0,0,0
-29.22,-4.42,45.20,-619,5704,5688,0,0,0
-29.22,-4.43,45.20,-618,5697,5693,0,0,-1
-29.22,-4.43,45.20,-622,5695,5693,0,0,-1
-29.21,-4.44,45.21,-627,5692,5695,0,0,-1
-29.20,-4.45,45.21,-625,5695,5694,0,0,-1
-29.19,-4.46,45.23,-629,5710,5692,0,0,-1
-29.18,-4.46,45.23,-633,5722,5705,0,0,-1
-29.18,-4.46,45.24,-630,5717,5699,0,0,-1
-29.17,-4.47,45.24,-627,5706,5690,0,0,-1
-29.17,-4.47,45.25,-630,5710,5685,0,0,-1
-29.16,-4.48,45.26,-636,5713,5683,0,0,-1
-29.16,-4.48,45.26,-624,5716,5687,0,0,-1
-29.16,-4.49,45.26,-626,5715,5682,0,0,-1
-29.16,-4.49,45.26,-627,5728,5684,0,0,-1
-29.15,-4.49,45.26,-634,5703,5688,-1,0,0
-29.15,-4.49,45.26,-631,5702,5696,0,-1,-1
-29.15,-4.49,45.26,-635,5704,5696,0,0,-1
-29.14,-4.49,45.27,-631,5717,5692,0,-1,-1
-29.14,-4.50,45.27,-631,5716,5684,0,-1,-1
-29.13,-4.50,45.27,-630,5712,5682,0,0,-1
-29.13,-4.50,45.28,-635,5715,5687,0,0,-1
-29.12,-4.51,45.28,-632,5715,5678,0,-1,-1
-29.12,-4.51,45.29,-637,5719,5675,0,0,-1
-29.12,-4.51,45.29,-641,5710,5679,0,-1,0
-29.12,-4.51,45.29,-636,5718,5676,0,0,-1
-29.11,-4.51,45.30,-635,5719,5677,0,-1,-1
-29.11,-4.52,45.29,-634,5716,5682,0,-1,-1
-29.11,-4.51,45.29,-634,5715,5693,0,0,-1
-29.11,-4.51,45.29,-634,5719,5691,0,-1,-1
-29.11,-4.51,45.29,-633,5713,5689,0,-1,-1
-29.11,-4.51,45.29,-633,5714,5690,0,-1,0
-29.11,-4.50,45.29,-632,5709,5689,0,0,0
-29.11,-4.50,45.29,-630,5710,5682,0,-1,0
-29.11,-4.50,45.29,-628,5710,5680,0,-1,0
-29.12,-4.49,45.28,-623,5717,5679,0,-1,0
-29.12,-4.49,45.28,-623,5722,5680,0,0,0
-29.12,-4.49,45.28,-629,5727,5691,-1,0,0
-29.12,-4.49,45.28,-638,5720,5684,-1,-1,0
-29.13,-4.49,45.28,-634,5714,5683,0,0,0
-29.13,-4.49,45.28,-632,5715,5673,0,-1,-1
-29.13,-4.48,45.28,-630,5716,5688,-1,0,0
-29.15,-4.47,45.27,-627,5706,5693,-1,0,0
-29.16,-4.47,45.26,-622,5701,5692,0,0,0
-29.15,-4.47,45.27,-635,5703,5694,0,0,-1
-29.15,-4.47,45.27,-642,5720,5689,0,0,0
-29.15,-4.47,45.27,-639,5721,5685,-1,-1,0
-29.16,-4.46,45.26,-634,5718,5685,-1,-1,0
-29.17,-4.45,45.26,-627,5711,5685,-1,-1,0
-29.18,-4.45,45.25,-621,5712,5694,0,-1,0
-29.18,-4.45,45.25,-617,5707,5698,-1,0,0
-29.19,-4.45,45.25,-615,5706,5695,-1,0,0
-29.20,-4.45,45.24,-624,5701,5695,-1,-1,0
-29.20,-4.44,45.24,-626,5696,5705,0,0,0
-29.20,-4.44,45.24,-631,5704,5700,0,-1,0
-29.21,-4.44,45.24,-633,5712,5701,0,-1,0
-29.20,-4.44,45.24,-628,5711,5688,0,-1,0
-29.21,-4.44,45.24,-622,5710,5680,0,0,0
-29.21,-4.44,45.24,-628,5710,5689,0,0,0
-29.21,-4.44,45.24,-630,5709,5681,0,0,0
-29.21,-4.43,45.24,-625,5706,5685,0,-1,0
-29.22,-4.43,45.24,-623,5704,5694,-1,0,0
-29.22,-4.42,45.23,-619,5706,5697,-1,-1,0
-29.23,-4.42,45.23,-623,5708,5698,0,-1,0
-29.23,-4.42,45.23,-622,5712,5702,0,0,0
-29.24,-4.41,45.23,-622,5714,5693,-1,0,0
-29.24,-4.41,45.23,-614,5716,5692,-1,0,0
-29.24,-4.42,45.22,-612,5711,5693,0,0,0
-29.24,-4.42,45.22,-614,5712,5697,0,0,-1
-29.25,-4.41,45.22,-622,5710,5698,0,0,0
-29.25,-4.41,45.22,-624,5712,5701,0,-1,0
-29.25,-4.40,45.23,-617,5715,5696,0,-1,0
-29.26,-4.40,45.22,-617,5712,5682,0,-1,0
-29.26,-4.40,45.22,-617,5713,5688,-1,-1,0
-29.27,-4.39,45.22,-621,5704,5681,0,0,0
-29.26,-4.40,45.22,-623,5711,5679,0,-1,-1
-29.27,-4.39,45.22,-609,5716,5681,-1,0,0
-29.28,-4.39,45.21,-622,5698,5692,-1,0,0
-29.29,-4.38,45.20,-620,5694,5690,0,-1,0
-29.29,-4.39,45.21,-625,5689,5692,0,0,0
-29.29,-4.39,45.21,-623,5708,5687,0,-1,0
-29.29,-4.38,45.20,-617,5718,5696,-1,0,0
-29.30,-4.38,45.20,-613,5711,5694,-1,0,0
-29.31,-4.38,45.20,-618,5709,5694,-1,0,0
-29.31,-4.37,45.19,-606,5703,5697,0,0,0
-29.32,-4.37,45.19,-604,5700,5698,-1,0,0
-29.33,-4.37,45.19,-606,5713,5695,0,0,0
-29.33,-4.36,45.19,-612,5714,5695,0,0,0
-29.33,-4.36,45.18,-610,5718,5704,-1,0,0
-29.34,-4.36,45.19,-609,5715,5705,-1,0,0
-29.35,-4.35,45.17,-607,5705,5701,-1,0,0
-29.35,-4.35,45.17,-609,5694,5701,0,0,0
-29.36,-4.35,45.17,-607,5696,5710,0,0,0
-29.37,-4.34,45.16,-613,5694,5713,-1,0,0
-29.37,-4.35,45.16,-618,5698,5711,0,0,0
-29.38,-4.34,45.16,-612,5701,5712,0,0,0
-29.39,-4.34,45.16,-605,5699,5701,0,0,0
-29.39,-4.34,45.16,-611,5701,5701,0,0,0
-29.39,-4.35,45.16,-609,5702,5705,0,0,-1
-29.39,-4.35,45.16,-613,5702,5703,0,0,0
-29.40,-4.35,45.15,-617,5704,5708,-1,0,0
-29.41,-4.34,45.15,-612,5712,5711,-1,-1,0
-29.43,-4.34,45.14,-605,5709,5708,-1,0,0
-29.44,-4.33,45.14,-597,5702,5708,-1,0,0
-29.45,-4.33,45.13,-603,5691,5711,-1,0,0
-29.46,-4.33,45.12,-601,5690,5709,0,0,0
-29.46,-4.33,45.12,-609,5694,5709,0,0,0
-29.47,-4.33,45.12,-616,5697,5716,0,0,0
-29.47,-4.33,45.13,-613,5712,5716,0,0,0
-29.48,-4.33,45.13,-614,5709,5696,-1,0,0
-29.49,-4.32,45.13,-609,5705,5692,-1,-1,0
-29.51,-4.31,45.13,-594,5700,5699,0,0,0
-29.51,-4.32,45.13,-596,5700,5706,0,0,0
-29.52,-4.32,45.12,-601,5702,5720,-1,0,0
-29.54,-4.32,45.12,-606,5702,5707,-1,0,0
-29.54,-4.32,45.12,-609,5705,5704,-1,0,0
-29.56,-4.32,45.11,-604,5699,5725,-1,0,0
-29.58,-4.31,45.10,-599,5692,5718,-1,0,0
-29.59,-4.31,45.10,-598,5687,5725,-1,0,0
-29.59,-4.31,45.09,-601,5680,5717,0,-1,0
-29.59,-4.31,45.09,-598,5687,5723,0,0,-1
-29.58,-4.32,45.09,-610,5694,5714,0,0,-1
-29.58,-4.33,45.10,-609,5699,5713,0,-1,-1
-29.57,-4.33,45.09,-609,5702,5711,0,0,-1
-29.56,-4.34,45.10,-610,5701,5699,0,-1,-1
-29.56,-4.34,45.10,-611,5709,5706,-1,0,-1
-29.56,-4.33,45.09,-605,5693,5711,0,0,-1
-29.56,-4.33,45.09,-609,5696,5709,-1,-1,-1
-29.56,-4.33,45.09,-606,5698,5714,-1,-1,-1
-29.56,-4.33,45.08,-612,5706,5712,-1,-1,-1
-29.56,-4.33,45.08,-606,5702,5716,-1,-1,0
-29.57,-4.32,45.06,-605,5707,5707,-1,-1,0
-29.58,-4.32,45.05,-610,5699,5708,-1,-1,0
-29.59,-4.31,45.04,-604,5684,5706,-1,-1,0
-29.60,-4.30,45.03,-592,5680,5716,-1,0,0
-29.60,-4.30,45.02,-591,5676,5706,0,-1,-1
-29.59,-4.30,45.02,-591,5671,5708,0,-1,-1
-29.59,-4.30,45.03,-599,5683,5713,0,0,-1
-29.58,-4.31,45.03,-597,5700,5713,0,0,-1
-29.58,-4.31,45.03,-609,5683,5716,-1,0,-1
-29.58,-4.31,45.03,-606,5683,5715,0,-1,-1
-29.58,-4.31,45.03,-614,5684,5707,0,0,-1
-29.57,-4.32,45.04,-610,5692,5718,0,-1,-1
-29.57,-4.32,45.04,-607,5695,5718,0,-1,-1
-29.57,-4.31,45.03,-595,5689,5719,0,-1,-1
-29.56,-4.31,45.04,-598,5686,5713,0,0,-1
-29.56,-4.32,45.04,-613,5684,5712,0,0,-1
-29.55,-4.33,45.05,-615,5687,5719,0,0,-1
-29.55,-4.34,45.04,-628,5690,5715,0,0,-1
-29.54,-4.34,45.04,-619,5687,5709,0,0,-1
-29.55,-4.34,45.04,-620,5684,5715,0,-1,0
-29.54,-4.34,45.04,-616,5691,5713,0,-1,-1
-29.54,-4.34,45.04,-604,5688,5724,0,0,-1
-29.54,-4.34,45.04,-605,5680,5721,0,0,-1
-29.54,-4.35,45.04,-609,5682,5718,0,0,-1
-29.52,-4.36,45.05,-608,5683,5722,0,0,-1
-29.52,-4.36,45.05,-617,5682,5723,0,0,-1
-29.52,-4.37,45.05,-619,5694,5726,0,0,-1
-29.51,-4.37,45.06,-624,5692,5720,0,0,0
-29.51,-4.37,45.06,-621,5698,5712,0,0,-1
-29.51,-4.37,45.07,-610,5687,5712,0,0,-1
-29.50,-4.38,45.07,-610,5685,5706,0,0,-1
-29.50,-4.39,45.08,-601,5691,5714,0,0,-1
-29.49,-4.39,45.08,-610,5691,5711,0,0,-1
-29.49,-4.40,45.08,-617,5701,5716,0,0,-1
-29.49,-4.40,45.08,-615,5704,5716,-1,0,0
-29.50,-4.40,45.07,-617,5691,5719,0,-1,0
-29.50,-4.40,45.07,-608,5683,5713,0,0,-1
-29.49,-4.41,45.07,-616,5684,5715,0,0,-1
-29.49,-4.41,45.08,-614,5701,5712,0,0,-1
-29.47,-4.42,45.09,-621,5704,5716,0,0,-1
-29.47,-4.42,45.09,-623,5703,5719,0,0,-1
-29.48,-4.42,45.09,-619,5698,5717,0,0,-1
-29.46,-4.43,45.10,-622,5699,5714,0,0,-1
-29.46,-4.43,45.10,-624,5693,5707,0,0,-1
-29.46,-4.43,45.10,-622,5694,5710,0,0,-1
-29.46,-4.43,45.10,-619,5702,5707,0,0,-1
-29.46,-4.44,45.10,-620,5705,5712,-1,0,-1
-29.47,-4.45,45.09,-627,5698,5716,0,0,-1
-29.45,-4.45,45.09,-622,5686,5713,0,0,-1
-29.46,-4.45,45.10,-619,5693,5707,0,0,-1
-29.44,-4.46,45.11,-626,5704,5706,0,0,-1
-29.43,-4.47,45.11,-620,5696,5705,0,0,-1
-29.42,-4.48,45.12,-620,5688,5702,0,0,-1
-29.41,-4.49,45.12,-636,5688,5705,0,0,-1
-29.41,-4.50,45.12,-634,5678,5707,0,0,-1
-29.39,-4.51,45.13,-637,5688,5707,0,0,-1
-29.38,-4.51,45.14,-631,5704,5701,0,0,-1
-29.38,-4.53,45.14,-638,5705,5699,-1,0,-1
-29.38,-4.53,45.14,-635,5691,5712,0,0,-1
-29.37,-4.53,45.15,-638,5689,5692,0,0,-1
-29.36,-4.55,45.16,-638,5695,5691,0,0,-1
-29.35,-4.55,45.17,-638,5706,5699,0,0,-1
-29.34,-4.56,45.18,-634,5712,5682,0,0,-1
-29.33,-4.56,45.18,-640,5707,5684,0,0,-1
-29.33,-4.57,45.18,-645,5702,5691,0,0,-1
-29.33,-4.58,45.18,-651,5702,5702,0,0,-1
-29.33,-4.58,45.17,-651,5700,5712,0,0,0
-29.33,-4.58,45.17,-648,5696,5712,0,-1,-1
-29.32,-4.58,45.18,-640,5690,5712,0,0,-1
-29.31,-4.59,45.18,-640,5700,5717,0,0,-1
-29.31,-4.59,45.18,-642,5698,5708,0,0,-1
-29.30,-4.60,45.18,-660,5703,5709,0,0,-1
-29.30,-4.60,45.18,-658,5704,5714,0,-1,0
-29.30,-4.60,45.18,-650,5706,5701,0,0,0
-29.30,-4.60,45.18,-645,5712,5700,0,0,0
-29.31,-4.61,45.20,-639,5725,5678,0,0,0
-29.32,-4.61,45.19,-666,5691,5721,0,-1,0
-29.30,-4.60,45.20,-645,5662,5703,0,-1,-1
-29.28,-4.60,45.22,-642,5715,5676,0,-1,-1
-29.27,-4.60,45.22,-638,5708,5679,0,-1,-1
-29.26,-4.60,45.22,-639,5710,5675,-1,0,-1
-29.27,-4.61,45.22,-645,5713,5685,-1,0,0
-29.27,-4.61,45.21,-654,5709,5697,-1,-1,0
-29.27,-4.60,45.20,-656,5711,5702,0,-1,0
-29.28,-4.59,45.20,-651,5714,5695,-1,-1,0
-29.30,-4.58,45.19,-641,5701,5701,-1,-1,0
-29.31,-4.57,45.18,-639,5696,5705,-1,0,0
-29.31,-4.57,45.18,-640,5687,5691,0,0,0
-29.31,-4.57,45.18,-640,5703,5706,-1,0,-1
-29.31,-4.57,45.17,-643,5703,5722,0,-1,0
-29.32,-4.56,45.17,-643,5710,5716,-1,-1,0
-29.33,-4.55,45.17,-642,5709,5702,-1,-1,0
-29.34,-4.54,45.16,-638,5700,5690,-1,-1,0
-29.35,-4.53,45.16,-641,5698,5679,-1,-1,0
-29.36,-4.53,45.15,-631,5706,5688,-1,-1,0
-29.37,-4.52,45.14,-636,5703,5705,-1,-1,0
-29.37,-4.52,45.14,-640,5703,5702,-1,-1,0
-29.38,-4.51,45.13,-643,5687,5704,-1,-1,0
-29.38,-4.51,45.13,-637,5685,5701,0,0,0
-29.38,-4.51,45.12,-634,5690,5703,0,0,-1
-29.39,-4.51,45.12,-633,5698,5709,-1,0,0
-29.39,-4.51,45.11,-644,5699,5722,-1,-1,0
-29.40,-4.50,45.11,-636,5702,5718,-1,0,0
-29.40,-4.50,45.11,-631,5699,5718,0,-1,0
-29.41,-4.49,45.10,-636,5690,5717,0,-1,0
-29.41,-4.49,45.11,-633,5693,5695,0,0,-1
-29.41,-4.50,45.11,-637,5703,5700,0,0,-1
-29.41,-4.50,45.11,-632,5697,5695,0,0,0
-29.40,-4.49,45.12,-633,5710,5692,0,0,0
-29.40,-4.49,45.12,-631,5711,5697,-1,-1,0
-29.42,-4.48,45.11,-615,5702,5698,-1,-1,0
-29.43,-4.47,45.10,-619,5687,5715,0,-1,0
-29.44,-4.47,45.10,-631,5678,5718,0,0,0
-29.43,-4.47,45.11,-632,5674,5714,0,0,0
-29.43,-4.47,45.12,-629,5689,5715,0,0,0
-29.43,-4.47,45.13,-634,5714,5712,0,-1,0
-29.42,-4.46,45.14,-632,5717,5717,0,-1,0
-29.42,-4.46,45.14,-631,5701,5702,0,-1,0
-29.43,-4.46,45.13,-630,5690,5685,0,-1,0
-29.43,-4.46,45.13,-626,5698,5694,0,0,0
-29.44,-4.45,45.13,-627,5708,5703,-1,-1,0
-29.45,-4.44,45.12,-625,5705,5717,-1,0,0
-29.45,-4.44,45.11,-630,5686,5733,-1,-1,0
-29.47,-4.44,45.10,-627,5674,5726,0,0,0
-29.46,-4.43,45.10,-621,5678,5718,0,-1,0
-29.46,-4.43,45.11,-619,5685,5697,0,0,-1
-29.47,-4.43,45.10,-616,5684,5698,0,0,-1
-29.47,-4.43,45.10,-614,5696,5692,-1,0,-1
-29.47,-4.44,45.10,-617,5707,5692,-1,0,-1
-29.47,-4.44,45.09,-620,5717,5700,-1,0,-1
-29.48,-4.44,45.09,-625,5711,5710,-1,0,0
-29.49,-4.44,45.07,-621,5696,5722,-1,0,0
-29.50,-4.44,45.07,-636,5681,5730,-1,0,0
-29.50,-4.44,45.06,-636,5673,5729,0,-1,0
-29.50,-4.44,45.06,-628,5675,5726,0,-1,-1
-29.50,-4.43,45.07,-621,5689,5712,0,0,0
-29.50,-4.43,45.07,-624,5701,5707,0,-1,0
-29.50,-4.43,45.08,-617,5711,5698,0,0,0
-29.50,-4.43,45.08,-613,5711,5700,-1,0,0
-29.51,-4.42,45.07,-614,5702,5697,-1,0,0
-29.52,-4.42,45.06,-619,5693,5715,-1,-1,0
-29.53,-4.41,45.06,-619,5696,5716,0,-1,0
-29.53,-4.41,45.06,-615,5695,5719,0,-1,0
-29.52,-4.41,45.06,-614,5683,5714,0,0,-1
-29.52,-4.41,45.06,-621,5676,5711,0,0,0
-29.53,-4.41,45.06,-614,5693,5714,0,-1,-1
-29.52,-4.40,45.07,-619,5706,5703,0,-1,0
-29.52,-4.40,45.07,-616,5722,5698,-1,-1,0
-29.53,-4.40,45.06,-608,5711,5702,-1,-1,0
-29.55,-4.39,45.04,-605,5691,5700,-1,0,0
-29.56,-4.39,45.03,-606,5673,5703,-1,0,0
-29.56,-4.40,45.02,-603,5661,5718,0,0,-1
-29.56,-4.40,45.03,-613,5672,5728,0,0,0
-29.56,-4.40,45.04,-620,5702,5720,0,0,0
-29.55,-4.40,45.04,-628,5712,5707,-1,-1,0
-29.56,-4.40,45.04,-622,5716,5694,-1,-1,0
-29.57,-4.39,45.03,-620,5707,5695,-1,-1,0
-29.58,-4.38,45.02,-615,5685,5697,-1,-1,0
-29.58,-4.37,45.02,-607,5675,5701,-1,-1,0
-29.59,-4.38,45.01,-607,5677,5710,0,0,0
-29.59,-4.38,45.01,-610,5690,5715,0,0,-1
-29.59,-4.38,45.01,-619,5698,5719,0,0,0
-29.59,-4.38,45.01,-625,5694,5719,-1,-1,0
-29.60,-4.37,45.00,-620,5687,5713,-1,-1,0
-29.61,-4.37,44.99,-618,5681,5716,-1,-1,0
-29.61,-4.37,44.99,-621,5681,5720,-1,-1,0
-29.62,-4.36,44.98,-617,5687,5710,-1,0,0
-29.62,-4.36,44.98,-620,5690,5712,-1,0,-1
-29.62,-4.37,44.98,-620,5696,5716,0,0,-1
-29.62,-4.37,44.98,-621,5701,5711,0,0,0
-29.62,-4.37,44.98,-614,5700,5716,-1,0,0
-29.63,-4.37,44.98,-616,5692,5714,-1,0,0
-29.64,-4.36,44.97,-614,5686,5716,-1,-1,0
-29.65,-4.36,44.96,-603,5668,5717,-1,0,0
-29.65,-4.36,44.96,-608,5678,5729,0,-1,-1
-29.65,-4.37,44.96,-607,5691,5732,-1,0,0
-29.65,-4.36,44.95,-617,5682,5724,-1,0,0
-29.66,-4.37,44.95,-622,5673,5726,0,-1,0
-29.66,-4.36,44.94,-610,5674,5718,0,-1,0
-29.66,-4.36,44.94,-605,5685,5710,0,0,-1
-29.66,-4.36,44.94,-606,5696,5707,-1,-1,-1
-29.67,-4.35,44.94,-608,5693,5713,-1,0,0
-29.68,-4.35,44.93,-612,5689,5722,-1,0,0
-29.69,-4.35,44.92,-606,5684,5722,-1,0,0
-29.70,-4.34,44.92,-607,5679,5711,-1,-1,0
-29.70,-4.34,44.91,-606,5672,5706,-1,0,0
-29.71,-4.34,44.90,-609,5675,5713,-1,-1,0
-29.71,-4.34,44.90,-606,5684,5708,-1,0,0
-29.72,-4.34,44.89,-609,5682,5716,-1,0,-1
-29.73,-4.34,44.89,-611,5680,5723,-1,-1,0
-29.73,-4.34,44.89,-614,5687,5721,-1,0,0
-29.73,-4.34,44.89,-616,5695,5716,-1,-1,0
-29.74,-4.33,44.88,-611,5688,5722,-1,-1,0
-29.74,-4.33,44.88,-611,5683,5722,-1,0,0
-29.75,-4.33,44.88,-608,5685,5725,-1,0,0
-29.75,-4.32,44.87,-648,5653,5744,0,-2,0
-29.76,-4.29,44.88,-606,5607,5752,1,-1,0
-29.76,-4.28,44.93,-582,5727,5717,0,0,-1
-29.76,-4.29,44.94,-576,5756,5703,-1,1,-1
-29.77,-4.31,44.92,-612,5730,5725,-1,0,0
-29.78,-4.31,44.90,-613,5700,5709,-1,0,-1
-29.79,-4.32,44.88,-607,5658,5724,-1,0,-1
-29.78,-4.32,44.87,-615,5642,5741,0,-1,0
-29.78,-4.31,44.87,-592,5652,5734,0,-1,-1
-29.77,-4.32,44.87,-595,5679,5750,0,0,-1
-29.76,-4.31,44.89,-601,5689,5737,0,-1,-1
-29.76,-4.31,44.90,-607,5695,5718,0,-1,-1
-29.76,-4.30,44.89,-596,5682,5709,-1,-1,-1
-29.76,-4.31,44.88,-606,5667,5713,-1,-1,0
-29.76,-4.31,44.88,-603,5668,5722,0,-1,-1
-29.76,-4.31,44.88,-604,5666,5732,0,0,-1
-29.76,-4.31,44.88,-600,5680,5727,0,0,-1
-29.75,-4.31,44.88,-604,5680,5729,0,-1,0
-29.75,-4.31,44.88,-608,5685,5734,0,0,-1
-29.75,-4.31,44.88,-608,5677,5729,0,0,-1
-29.75,-4.31,44.88,-604,5667,5730,0,0,-1
-29.75,-4.32,44.88,-603,5671,5721,0,0,-1
-29.75,-4.32,44.88,-611,5679,5723,0,0,-1
-29.75,-4.32,44.88,-610,5688,5727,-1,0,-1
-29.75,-4.32,44.88,-609,5684,5733,-1,-1,-1
-29.75,-4.32,44.88,-614,5682,5731,0,-1,0
-29.74,-4.32,44.88,-600,5684,5724,0,-1,-1
-29.74,-4.32,44.88,-593,5689,5716,0,-1,-1
-29.74,-4.32,44.88,-609,5693,5725,-1,0,-1
-29.75,-4.32,44.86,-601,5677,5732,-1,-1,-1
-29.75,-4.32,44.85,-598,5658,5737,0,0,-1
-29.74,-4.32,44.85,-605,5654,5735,0,0,-1
-29.73,-4.33,44.86,-610,5669,5732,0,0,-1
-29.72,-4.34,44.88,-612,5689,5725,0,0,-1
-29.72,-4.34,44.88,-616,5694,5720,0,0,-1
-29.72,-4.35,44.88,-615,5690,5711,-1,-1,0
-29.71,-4.35,44.88,-625,5684,5714,-1,-1,-1
-29.71,-4.35,44.87,-618,5671,5724,0,0,-1
-29.71,-4.35,44.87,-621,5678,5732,0,0,-1
-29.71,-4.35,44.87,-614,5677,5732,-1,0,-1
-29.71,-4.36,44.87,-626,5672,5734,-1,0,0
-29.71,-4.36,44.87,-616,5678,5735,0,0,-1
-29.71,-4.36,44.87,-616,5680,5732,0,-1,-1
-29.71,-4.36,44.87,-618,5691,5728,-1,-1,0
-29.71,-4.36,44.87,-609,5680,5729,-1,-1,-1
-29.71,-4.36,44.87,-611,5677,5719,0,0,-1
-29.70,-4.36,44.86,-606,5678,5721,0,0,-1
-29.70,-4.37,44.87,-608,5674,5727,0,0,-1
-29.70,-4.37,44.88,-615,5684,5725,0,0,-1
-29.69,-4.37,44.88,-616,5685,5723,0,0,-1
-29.69,-4.38,44.88,-620,5686,5724,0,0,-1
-29.69,-4.38,44.88,-617,5684,5714,-1,0,-1
-29.68,-4.39,44.88,-621,5689,5710,-1,0,-1
-29.68,-4.39,44.88,-624,5684,5711,0,0,-1
-29.68,-4.39,44.88,-624,5678,5711,0,0,-1
-29.68,-4.40,44.89,-615,5676,5713,0,0,-1
-29.68,-4.40,44.89,-615,5683,5721,0,0,-1
-29.68,-4.40,44.89,-612,5684,5733,0,0,-1
-29.67,-4.40,44.89,-623,5679,5733,0,0,-1
-29.67,-4.40,44.89,-625,5683,5722,0,0,-1
-29.67,-4.41,44.89,-625,5687,5717,0,0,-1
-29.66,-4.41,44.90,-620,5690,5713,0,0,-1
-29.66,-4.42,44.90,-621,5683,5716,0,0,-1
-29.66,-4.41,44.90,-620,5681,5709,0,0,-1
-29.66,-4.42,44.90,-618,5681,5716,0,0,-1
-29.65,-4.42,44.91,-624,5698,5717,0,0,-1
-29.65,-4.43,44.91,-621,5699,5714,-1,0,-1
-29.65,-4.43,44.91,-624,5694,5718,-1,0,0
-29.65,-4.43,44.91,-628,5681,5719,0,-1,-1
-29.65,-4.43,44.91,-630,5682,5722,0,0,-1
-29.65,-4.43,44.91,-633,5691,5720,0,0,-1
-29.64,-4.44,44.92,-634,5691,5721,0,0,-1
-29.64,-4.44,44.92,-622,5694,5720,0,0,-1
-29.64,-4.44,44.92,-627,5690,5720,0,0,-1
-29.63,-4.45,44.92,-627,5689,5710,0,0,-1
-29.63,-4.46,44.93,-626,5683,5701,0,0,-1
-29.62,-4.46,44.93,-627,5686,5708,0,0,-1
-29.62,-4.46,44.94,-629,5698,5715,0,0,-1
-29.62,-4.46,44.94,-625,5694,5705,0,0,-1
-29.61,-4.47,44.94,-633,5700,5708,-1,0,-1
-29.61,-4.48,44.93,-631,5692,5717,-1,0,-1
-29.61,-4.48,44.93,-633,5688,5708,0,0,-1
-29.61,-4.48,44.94,-629,5691,5718,0,0,-1
-29.61,-4.48,44.95,-629,5690,5711,0,0,-1
-29.60,-4.48,44.95,-630,5691,5715,0,0,-1
-29.59,-4.49,44.96,-643,5699,5723,0,0,-1
-29.59,-4.50,44.95,-640,5695,5729,0,0,-1
-29.59,-4.49,44.96,-642,5705,5721,0,-1,0
-29.59,-4.49,44.96,-640,5700,5712,0,-1,0
-29.59,-4.49,44.96,-632,5695,5710,-1,-1,0
-29.59,-4.49,44.96,-624,5686,5704,0,-1,-1
-29.59,-4.49,44.96,-625,5686,5708,-1,0,-1
-29.58,-4.49,44.96,-629,5683,5714,0,0,-1
-29.58,-4.50,44.96,-639,5678,5730,-1,0,0
-29.58,-4.49,44.95,-639,5685,5722,0,-1,0
-29.58,-4.49,44.96,-638,5691,5717,0,-1,0
-29.58,-4.49,44.97,-639,5700,5700,-1,-1,0
-29.58,-4.48,44.97,-637,5703,5697,-1,-1,0
-29.59,-4.48,44.96,-633,5689,5695,-1,0,0
-29.59,-4.48,44.96,-628,5684,5706,-1,0,0
-29.59,-4.48,44.96,-633,5686,5705,-1,0,-1
-29.59,-4.48,44.96,-632,5693,5707,-1,0,0
-29.59,-4.48,44.96,-637,5686,5706,-1,0,0
-29.60,-4.47,44.95,-635,5690,5712,-1,-1,0
-29.61,-4.46,44.95,-633,5683,5710,-1,-1,0
-29.61,-4.46,44.95,-629,5684,5709,-1,-1,0
-29.61,-4.46,44.94,-628,5681,5717,-1,-1,0
-29.61,-4.46,44.94,-628,5685,5716,0,0,0
-29.62,-4.46,44.93,-637,5688,5713,0,-1,0
-29.62,-4.46,44.94,-634,5687,5715,-1,0,0
-29.62,-4.46,44.94,-635,5688,5721,0,0,0
-29.62,-4.46,44.94,-634,5690,5707,0,0,0
