Yaw,Pitch,Roll,AX,AY,AZ,GX,GY,GZ
-48.55,8.59,15.06,1196,2083,7779,-1,0,-1
-48.55,8.59,15.06,1184,2088,7792,0,-1,0
-48.55,8.59,15.07,1187,2107,7775,-1,-1,0
-48.55,8.59,15.06,1184,2122,7767,-1,-1,0
-48.55,8.59,15.05,1195,2109,7769,-1,-1,0
-48.55,8.59,15.04,1197,2097,7778,-1,0,0
-48.55,8.59,15.03,1197,2091,7790,-1,-1,0
-48.56,8.58,15.02,1185,2067,7790,-1,0,-1
-48.55,8.57,15.01,1193,2061,7786,0,0,-1
-48.54,8.56,15.02,1176,2073,7778,0,0,-1
-48.54,8.56,15.02,1185,2085,7781,0,0,-1
-48.54,8.55,15.02,1187,2086,7782,0,0,-1
-48.53,8.54,15.03,1193,2099,7779,-1,0,-1
-48.53,8.54,15.03,1185,2098,7781,-1,0,0
-48.53,8.52,15.02,1187,2092,7784,-1,0,-1
-48.53,8.51,15.01,1168,2083,7780,-1,0,0
-48.53,8.51,15.00,1178,2080,7784,-1,-1,-1
-48.53,8.51,14.99,1183,2092,7788,-1,-1,0
-48.54,8.51,14.99,1176,2074,7782,-1,0,0
-48.53,8.50,14.97,1182,2068,7798,-1,0,0
-48.53,8.50,14.97,1184,2068,7794,0,0,-1
-48.53,8.49,14.97,1166,2082,7794,-1,0,-1
-48.53,8.49,14.97,1168,2079,7799,-1,-1,-1
-48.53,8.49,14.97,1175,2089,7792,0,-1,-1
-48.53,8.49,14.97,1169,2108,7792,-1,-1,0
-48.53,8.49,14.97,1183,2101,7787,-1,-1,0
-48.53,8.49,14.97,1175,2097,7766,-1,0,-1
-48.52,8.48,14.97,1171,2086,7753,-1,0,0
-48.52,8.48,14.95,1175,2090,7774,-1,0,0
-48.52,8.47,14.95,1174,2094,7794,-1,0,-1
-48.53,8.46,14.94,1169,2089,7807,-1,-1,0
-48.52,8.46,14.93,1170,2075,7812,-1,-1,0
-48.52,8.46,14.92,1171,2066,7809,-1,-1,-1
-48.52,8.46,14.91,1173,2058,7802,-1,-1,-1
-48.52,8.46,14.92,1173,2059,7793,0,-1,-1
-48.52,8.45,14.92,1166,2061,7785,0,0,-1
-48.51,8.45,14.92,1161,2058,7781,0,0,-1
-48.51,8.44,14.92,1152,2068,7787,0,-1,0
-48.50,8.45,14.94,1153,2075,7794,0,-1,-1
-48.50,8.45,14.94,1158,2089,7788,0,-1,0
-48.51,8.46,14.94,1163,2093,7790,-1,-1,0
-48.51,8.46,14.94,1178,2087,7782,-1,-1,0
-48.51,8.47,14.93,1182,2078,7782,-1,-1,0
-48.51,8.47,14.92,1188,2060,7782,-1,-1,0
-48.51,8.47,14.91,1175,2060,7787,-1,0,-1
-48.51,8.47,14.91,1162,2060,7798,0,-1,0
-48.51,8.47,14.91,1164,2053,7799,0,-1,0
-48.50,8.47,14.92,1166,2062,7793,0,-1,-1
-48.50,8.48,14.92,1177,2074,7779,0,-1,0
-48.50,8.48,14.93,1173,2081,7785,0,-1,0
-48.50,8.48,14.94,1176,2084,7786,-1,-1,0
-48.51,8.49,14.93,1185,2082,7787,-1,-1,0
-48.51,8.50,14.94,1181,2085,7786,0,-1,0
-48.51,8.51,14.93,1188,2072,7779,-1,-1,0
-48.51,8.52,14.93,1190,2074,7777,0,-1,-1
-48.51,8.53,14.94,1195,2049,7774,0,-1,-1
-48.52,8.53,14.95,1179,2057,7774,0,-1,0
-48.52,8.54,14.97,1184,2079,7786,0,0,0
-48.51,8.53,14.99,1170,2088,7786,0,-1,-1
-48.50,8.52,15.00,1171,2084,7798,0,-1,-1
-48.51,8.52,15.01,1157,2090,7789,0,0,0
-48.51,8.52,15.03,1213,2067,7789,0,0,0
-48.51,8.51,15.05,1196,2101,7771,1,1,-1
-48.50,8.49,15.07,1167,2142,7784,-1,-1,0
-48.51,8.49,15.07,1217,2084,7758,0,1,-1
-48.50,8.45,15.08,1142,2122,7783,0,0,0
-48.51,8.46,15.08,1167,2064,7784,0,-1,0
-48.50,8.43,15.11,1182,2128,7786,0,1,-1
-48.50,8.42,15.12,1132,2109,7795,-1,-2,0
-48.51,8.46,15.10,1247,2032,7749,1,1,0
-48.50,8.38,15.15,1160,2113,7795,0,2,-1
-48.51,8.37,15.14,1110,2113,7793,-1,-2,0
-48.52,8.39,15.15,1201,2026,7738,1,1,0
-48.50,8.33,15.20,1129,2142,7810,1,0,-1
-48.51,8.34,15.22,1130,2120,7804,0,-1,0
-48.50,8.34,15.23,1178,2139,7755,0,0,-1
-48.50,8.31,15.25,1132,2156,7820,-2,0,0
-48.52,8.32,15.22,1162,2106,7730,1,-1,0
-48.52,8.29,15.26,1157,2140,7799,0,1,-1
-48.52,8.27,15.24,1138,2070,7760,0,-1,0
-48.53,8.26,15.25,1165,2113,7785,0,1,-1
-48.51,8.24,15.27,1094,2112,7748,0,-2,-1
-48.53,8.24,15.27,1146,2131,7785,-1,0,0
-48.53,8.24,15.28,1138,2115,7732,0,-1,-1
-48.52,8.24,15.32,1162,2124,7786,1,1,-1
-48.54,8.22,15.31,1120,2170,7772,-1,-1,0
-48.54,8.24,15.31,1144,2122,7751,0,-1,-1
-48.54,8.24,15.32,1156,2132,7784,-1,0,0
-48.54,8.24,15.31,1107,2145,7781,0,-2,-1
-48.55,8.26,15.29,1177,2123,7723,-1,0,0
-48.56,8.26,15.28,1113,2137,7757,-1,-2,0
-48.58,8.31,15.25,1172,2073,7715,-1,-1,0
-48.56,8.30,15.26,1118,2113,7794,0,-1,-1
-48.57,8.34,15.25,1120,2097,7822,0,-2,0
-48.57,8.37,15.26,1166,2155,7814,-1,-1,0
-48.58,8.38,15.25,1174,2152,7809,-1,-1,0
-48.60,8.40,15.24,1172,2126,7781,0,-1,0
-48.61,8.38,15.24,1221,2101,7769,-1,0,-1
-48.60,8.35,15.23,1170,2094,7760,0,0,-1
-48.61,8.36,15.24,1163,2066,7756,-1,-1,0
-48.60,8.32,15.26,1138,2105,7749,1,1,-1
-48.58,8.32,15.32,1109,2164,7790,0,-2,0
-48.58,8.32,15.32,1177,2160,7771,-1,0,-1
-48.59,8.33,15.32,1117,2162,7807,-1,-2,0
-48.60,8.34,15.32,1211,2149,7747,0,1,-1
-48.60,8.32,15.30,1088,2119,7809,-2,-2,0
-48.62,8.35,15.30,1218,2092,7735,1,1,-1
-48.61,8.32,15.33,1131,2102,7798,-1,-1,0
-48.61,8.33,15.34,1182,2107,7773,2,-1,-1
-48.61,8.33,15.36,1120,2144,7767,-1,-1,0
-48.62,8.34,15.38,1147,2157,7743,1,-1,0
-48.62,8.34,15.38,1121,2158,7782,-2,-2,0
-48.62,8.36,15.38,1152,2169,7775,-1,-1,-1
-48.63,8.38,15.35,1161,2119,7749,0,-1,0
-48.64,8.40,15.35,1169,2118,7756,-1,-1,0
-48.64,8.39,15.34,1147,2117,7764,-1,-1,-1
-48.65,8.41,15.33,1178,2123,7773,-1,-1,0
-48.65,8.42,15.32,1155,2105,7755,-1,-1,0
-48.65,8.44,15.33,1159,2119,7754,0,-1,0
-48.66,8.45,15.34,1169,2153,7778,-1,-1,0
-48.66,8.47,15.34,1153,2170,7774,-1,-2,0
-48.66,8.49,15.32,1186,2171,7762,-1,-1,0
-48.67,8.50,15.29,1180,2151,7781,-1,-1,0
-48.68,8.52,15.27,1171,2136,7775,-1,-2,0
-48.68,8.54,15.25,1169,2121,7779,-1,-2,0
-48.69,8.57,15.23,1178,2089,7777,-1,-1,0
-48.69,8.58,15.22,1200,2078,7789,0,-1,0
-48.69,8.59,15.23,1201,2091,7791,0,-1,0
-48.69,8.60,15.23,1189,2112,7777,0,-1,-1
-48.68,8.61,15.24,1201,2117,7781,0,-1,-1
-48.68,8.59,15.25,1185,2138,7777,-1,-1,0
-48.68,8.60,15.25,1185,2118,7777,-1,-1,0
-48.69,8.61,15.24,1198,2111,7769,-1,0,0
-48.69,8.61,15.24,1199,2116,7765,-1,-1,0
-48.69,8.61,15.24,1223,2107,7767,0,0,-1
-48.69,8.60,15.24,1190,2115,7770,-1,0,0
-48.70,8.60,15.24,1193,2120,7770,-1,-1,0
-48.70,8.61,15.24,1207,2103,7774,-1,0,0
-48.70,8.60,15.23,1184,2102,7777,0,-1,0
-48.70,8.60,15.24,1198,2114,7770,0,-1,0
-48.70,8.60,15.25,1191,2116,7781,0,-1,0
-48.70,8.61,15.24,1188,2115,7765,-1,-1,0
-48.71,8.62,15.24,1192,2093,7762,0,-1,0
-48.72,8.62,15.25,1217,2095,7759,0,0,-1
-48.72,8.62,15.27,1210,2116,7767,0,0,0
-48.71,8.62,15.28,1204,2118,7762,0,-1,-1
-48.71,8.62,15.30,1202,2124,7764,0,0,0
-48.72,8.60,15.31,1202,2126,7763,-1,0,0
-48.72,8.60,15.31,1176,2138,7764,0,-1,0
-48.72,8.59,15.31,1176,2154,7773,-1,0,0
-48.72,8.60,15.30,1190,2116,7752,-1,-1,0
-48.73,8.60,15.30,1193,2122,7761,0,0,0
-48.73,8.59,15.30,1173,2113,7758,-1,-1,0
-48.74,8.60,15.30,1190,2122,7764,0,-1,0
-48.74,8.61,15.31,1179,2137,7757,0,-1,0
-48.74,8.61,15.30,1179,2152,7767,-1,-1,0
-48.75,8.62,15.29,1200,2143,7772,-1,-1,0
-48.75,8.63,15.27,1193,2127,7778,-1,-1,0
-48.76,8.64,15.26,1185,2112,7774,-1,-1,0
-48.77,8.65,15.25,1202,2098,7770,-1,-1,0
-48.78,8.67,15.24,1201,2096,7756,-1,-1,0
-48.78,8.68,15.24,1200,2107,7744,-1,-1,0
-48.78,8.69,15.24,1211,2105,7756,-1,-1,0
-48.78,8.70,15.23,1204,2113,7775,-1,-1,0
-48.78,8.70,15.23,1195,2124,7786,-1,-1,0
-48.78,8.71,15.23,1196,2137,7779,-1,-1,0
-48.78,8.73,15.22,1200,2129,7786,-1,-1,0
-48.78,8.74,15.22,1207,2113,7781,-1,-1,0
-48.78,8.75,15.21,1217,2109,7764,-1,-1,0
-48.78,8.76,15.21,1233,2116,7758,-1,0,0
-48.77,8.75,15.20,1220,2114,7764,-1,-1,-1
-48.77,8.75,15.20,1213,2108,7779,0,-1,-1
-48.76,8.75,15.20,1208,2125,7790,-1,-1,-1
-48.77,8.76,15.20,1210,2113,7792,-1,-1,0
-48.77,8.77,15.20,1219,2106,7775,-1,-1,0
-48.76,8.77,15.19,1213,2104,7774,-1,-1,0
-48.76,8.78,15.18,1216,2089,7758,-1,-1,0
-48.76,8.78,15.19,1222,2091,7753,0,-1,-1
-48.75,8.79,15.19,1226,2099,7761,0,-1,-1
-48.74,8.78,15.20,1218,2123,7763,0,-1,-1
-48.73,8.78,15.20,1215,2131,7767,-1,-1,-1
-48.73,8.78,15.20,1216,2125,7768,-1,-1,0
-48.74,8.78,15.20,1213,2124,7765,-1,-1,0
-48.74,8.79,15.19,1223,2114,7772,-1,0,-1
-48.73,8.78,15.18,1228,2109,7769,-1,0,-1
-48.73,8.78,15.18,1228,2095,7777,-1,0,-1
-48.73,8.78,15.17,1235,2090,7767,0,0,-1
-48.71,8.76,15.19,1207,2108,7780,0,0,-1
-48.71,8.75,15.19,1203,2098,7772,0,-1,-1
-48.70,8.75,15.20,1221,2099,7767,0,0,-1
-48.70,8.74,15.21,1203,2128,7786,-1,0,0
-48.70,8.74,15.21,1209,2119,7766,0,-1,0
-48.69,8.74,15.21,1237,2088,7756,0,0,-1
-48.68,8.71,15.21,1198,2105,7783,-1,-1,0
-48.69,8.72,15.22,1229,2100,7772,0,0,-1
-48.68,8.70,15.24,1211,2133,7773,-1,0,-1
-48.67,8.69,15.23,1195,2097,7758,0,-1,-1
-48.67,8.68,15.23,1218,2116,7775,0,0,-1
-48.67,8.66,15.23,1190,2116,7768,-1,0,0
-48.68,8.66,15.21,1225,2084,7768,-1,0,0
-48.67,8.64,15.22,1196,2099,7774,0,0,-1
-48.66,8.63,15.24,1197,2116,7780,0,0,-1
-48.65,8.62,15.25,1193,2117,7781,0,-1,-1
-48.65,8.62,15.24,1210,2124,7769,-1,0,0
-48.65,8.60,15.25,1206,2134,7771,0,0,-1
-48.65,8.58,15.25,1190,2118,7771,-1,0,-1
-48.64,8.57,15.24,1186,2111,7763,-1,0,0
-48.64,8.56,15.24,1170,2105,7770,0,-1,-1
-48.64,8.56,15.24,1179,2101,7772,-1,-1,0
-48.64,8.56,15.24,1193,2105,7762,0,-1,-1
-48.64,8.55,15.24,1200,2112,7773,-1,0,-1
-48.63,8.55,15.23,1197,2122,7772,-1,-1,0
-48.63,8.55,15.23,1195,2110,7748,-1,0,-1
-48.63,8.53,15.23,1179,2116,7764,-1,0,-1
-48.62,8.52,15.22,1168,2122,7767,-1,0,-1
-48.62,8.52,15.21,1171,2113,7759,-1,0,0
-48.62,8.52,15.21,1173,2116,7785,-1,-1,0
-48.63,8.52,15.21,1184,2128,7784,-1,-1,0
-48.63,8.52,15.20,1180,2123,7767,-1,-1,-1
-48.62,8.52,15.18,1190,2111,7754,-1,0,-1
-48.63,8.52,15.17,1197,2105,7759,-1,0,0
-48.63,8.52,15.16,1183,2104,7769,-1,0,-1
-48.63,8.50,15.15,1177,2099,7779,-1,0,0
-48.62,8.50,15.14,1173,2102,7788,-1,-1,-1
-48.62,8.50,15.14,1172,2100,7787,0,-1,-1
-48.62,8.49,15.15,1174,2106,7785,-1,0,-1
-48.62,8.49,15.14,1182,2107,7788,-1,0,0
-48.62,8.49,15.13,1180,2107,7787,-1,0,0
-48.61,8.48,15.13,1185,2106,7777,-1,-1,-1
-48.62,8.48,15.12,1187,2102,7785,-1,-1,-1
-48.62,8.48,15.12,1189,2112,7782,-1,0,-1
-48.61,8.47,15.11,1194,2095,7776,-1,0,-1
-48.61,8.46,15.09,1185,2071,7784,-1,0,-1
-48.60,8.45,15.09,1178,2065,7778,0,0,-1
-48.60,8.43,15.10,1158,2087,7789,0,0,-1
-48.59,8.43,15.11,1149,2089,7784,0,-1,-1
-48.58,8.42,15.12,1172,2105,7780,0,-1,-1
-48.57,8.42,15.15,1162,2131,7785,0,-1,-1
-48.56,8.42,15.15,1180,2116,7781,-1,0,-1
-48.56,8.39,15.15,1162,2118,7770,-1,0,-1
-48.56,8.38,15.15,1196,2066,7762,0,0,0
-48.56,8.35,15.16,1176,2102,7777,0,1,-1
-48.54,8.32,15.19,1136,2117,7792,0,0,-1
-48.52,8.30,15.19,1173,2118,7775,-1,1,-1
-48.53,8.26,15.19,1110,2104,7772,0,0,0
-48.54,8.26,15.20,1162,2107,7764,0,0,0
-48.54,8.24,15.21,1130,2120,7809,0,0,-1
-48.53,8.22,15.21,1127,2099,7777,-1,0,-1
-48.52,8.20,15.21,1120,2122,7770,-1,-1,-1
-48.52,8.20,15.22,1128,2100,7762,0,0,-1
-48.51,8.19,15.23,1140,2130,7772,0,0,-1
-48.51,8.19,15.24,1098,2149,7799,-1,-1,0
-48.52,8.19,15.22,1135,2110,7761,-1,-1,0
-48.52,8.20,15.23,1126,2141,7784,0,-1,-1
-48.52,8.20,15.22,1116,2141,7790,-1,-1,0
-48.52,8.22,15.20,1131,2104,7778,-1,-1,0
-48.53,8.23,15.19,1157,2098,7802,0,-1,0
-48.53,8.23,15.19,1140,2097,7797,-1,-1,0
-48.53,8.24,15.19,1153,2068,7780,0,-1,0
-48.53,8.25,15.20,1147,2109,7787,0,0,-1
-48.52,8.25,15.22,1125,2142,7792,0,-1,0
-48.52,8.26,15.22,1148,2144,7768,-1,-1,0
-48.53,8.27,15.21,1138,2134,7783,-1,-1,0
-48.54,8.28,15.20,1134,2141,7786,-1,-1,0
-48.54,8.29,15.18,1151,2120,7778,-1,-1,0
-48.55,8.32,15.16,1164,2087,7766,-1,-1,0
-48.55,8.33,15.16,1161,2076,7773,0,-1,0
-48.56,8.34,15.16,1158,2088,7771,0,-1,0
-48.56,8.35,15.17,1162,2107,7793,-1,-1,0
-48.56,8.36,15.17,1160,2111,7790,0,-1,0
-48.56,8.37,15.17,1155,2116,7782,-1,-1,0
-48.58,8.39,15.16,1160,2115,7788,-1,-1,0
-48.58,8.40,15.16,1153,2113,7789,-1,-1,0
-48.58,8.42,15.15,1159,2115,7773,-1,-1,0
-48.58,8.43,15.14,1173,2108,7757,-1,-1,0
-48.59,8.44,15.15,1178,2125,7773,-1,-1,0
-48.59,8.45,15.14,1175,2123,7780,-1,-1,0
-48.59,8.45,15.13,1167,2106,7788,-1,-1,0
-48.59,8.46,15.13,1173,2102,7804,-1,-1,0
-48.60,8.47,15.12,1175,2097,7794,-1,-1,0
-48.60,8.48,15.12,1172,2092,7783,-1,-1,0
-48.60,8.49,15.12,1177,2095,7777,-1,-1,0
-48.60,8.49,15.12,1177,2103,7789,0,-1,0
-48.61,8.49,15.12,1179,2102,7790,-1,-1,0
-48.61,8.50,15.12,1182,2105,7786,-1,-1,0
-48.61,8.51,15.12,1187,2105,7798,-1,-1,0
-48.61,8.52,15.12,1183,2106,7785,0,-1,0
-48.61,8.52,15.12,1177,2108,7770,-1,-1,0
-48.62,8.53,15.11,1173,2113,7777,-1,-1,0
-48.62,8.53,15.11,1185,2103,7774,-1,-1,0
-48.63,8.54,15.10,1180,2105,7773,-1,-1,0
-48.63,8.54,15.10,1183,2100,7787,-1,-1,0
-48.63,8.55,15.09,1181,2097,7789,-1,-1,0
-48.64,8.55,15.09,1181,2090,7778,0,-1,0
-48.64,8.56,15.09,1184,2100,7780,0,-1,0
-48.64,8.57,15.10,1183,2108,7775,0,-1,0
-48.64,8.57,15.10,1183,2124,7774,-1,-1,0
-48.64,8.58,15.11,1190,2117,7780,-1,-1,0
-48.65,8.58,15.11,1192,2113,7779,-1,-1,0
-48.65,8.59,15.10,1187,2103,7778,-1,-1,0
-48.65,8.60,15.09,1194,2089,7795,-1,-1,0
-48.66,8.61,15.09,1200,2085,7775,-1,-1,0
-48.66,8.61,15.09,1197,2083,7777,-1,-1,0
-48.66,8.61,15.09,1203,2080,7779,0,-1,0
-48.66,8.61,15.09,1199,2094,7795,-1,0,0
-48.66,8.61,15.09,1184,2094,7797,0,-1,0
-48.67,8.62,15.09,1190,2098,7797,-1,-1,0
-48.67,8.62,15.09,1187,2099,7786,0,-1,0
-48.67,8.62,15.10,1190,2100,7774,0,-1,0
-48.67,8.63,15.10,1197,2105,7775,0,-1,0
-48.68,8.64,15.11,1201,2106,7778,-1,-1,0
-48.68,8.64,15.11,1206,2101,7773,-1,-1,0
-48.68,8.65,15.10,1208,2100,7775,-1,-1,0
-48.69,8.65,15.10,1202,2099,7781,-1,-1,0
-48.69,8.65,15.09,1199,2092,7784,-1,-1,0
-48.69,8.66,15.09,1198,2087,7782,-1,-1,0
-48.70,8.67,15.09,1200,2080,7781,0,-1,0
-48.69,8.67,15.09,1206,2094,7783,0,-1,0
-48.71,8.68,15.09,1206,2091,7771,-1,-1,0
-48.71,8.68,15.09,1207,2087,7766,-1,-1,0
-48.71,8.68,15.09,1199,2084,7778,0,-1,0
-48.71,8.69,15.09,1203,2092,7779,0,-1,0
-48.71,8.69,15.11,1197,2104,7779,0,-1,0
-48.71,8.70,15.10,1194,2108,7775,-1,-1,0
-48.72,8.71,15.11,1210,2111,7771,-1,-1,0
-48.72,8.71,15.10,1212,2117,7762,-1,-1,0
-48.73,8.72,15.09,1214,2101,7777,-1,-1,0
-48.74,8.72,15.08,1211,2087,7792,-1,-1,0
-48.74,8.72,15.08,1210,2088,7783,0,-1,0
-48.74,8.72,15.08,1199,2088,7786,0,-1,0
-48.74,8.73,15.09,1207,2091,7776,0,-1,0
-48.74,8.74,15.09,1211,2092,7769,0,-1,0
-48.75,8.75,15.10,1216,2104,7772,0,-1,0
-48.75,8.75,15.10,1219,2106,7762,0,-1,0
-48.75,8.75,15.10,1215,2111,7769,-1,-1,0
-48.75,8.75,15.10,1208,2105,7776,-1,-1,0
-48.75,8.76,15.10,1216,2104,7787,0,-1,0
-48.76,8.77,15.10,1209,2098,7778,0,-1,0
-48.76,8.78,15.10,1224,2089,7755,0,-1,0
-48.76,8.79,15.10,1228,2089,7759,0,-1,0
-48.77,8.79,15.11,1231,2080,7761,0,-1,0
-48.77,8.80,15.12,1219,2081,7776,0,-1,0
-48.77,8.80,15.13,1216,2095,7786,0,-1,0
-48.77,8.80,15.14,1207,2103,7792,0,-1,0
-48.78,8.81,15.14,1226,2104,7781,0,-1,0
-48.78,8.82,15.14,1228,2107,7771,-1,-1,0
-48.79,8.83,15.14,1244,2113,7767,-1,-1,0
-48.79,8.83,15.14,1233,2101,7765,-1,0,0
-48.79,8.83,15.13,1218,2089,7765,-1,-1,0
-48.79,8.83,15.13,1216,2096,7771,0,-1,0
-48.80,8.83,15.13,1206,2100,7786,-1,-1,0
-48.81,8.85,15.13,1222,2104,7786,0,-1,0
-48.82,8.86,15.13,1232,2101,7775,0,-1,0
-48.82,8.86,15.13,1240,2091,7768,0,-1,0
-48.83,8.87,15.14,1252,2089,7769,0,0,0
-48.84,8.87,15.14,1246,2087,7763,0,0,0
-48.83,8.86,15.14,1243,2088,7766,0,0,0
-48.84,8.87,15.16,1237,2106,7779,0,0,0
-48.84,8.86,15.17,1241,2112,7771,0,-1,0
-48.84,8.86,15.17,1234,2128,7772,0,-1,-1
-48.84,8.87,15.17,1242,2130,7774,-1,-1,0
-48.84,8.87,15.16,1253,2108,7767,-1,0,0
-48.84,8.87,15.16,1247,2110,7757,-1,0,-1
-48.84,8.86,15.15,1233,2111,7766,-1,0,-1
-48.83,8.85,15.15,1232,2104,7783,-1,0,-1
-48.84,8.85,15.14,1221,2096,7790,-1,0,-1
-48.83,8.85,15.14,1216,2088,7779,0,-1,-1
-48.83,8.85,15.14,1219,2092,7767,0,-1,0
-48.83,8.85,15.14,1230,2098,7760,-1,0,0
-48.83,8.85,15.14,1229,2087,7758,0,-1,-1
-48.82,8.84,15.15,1225,2100,7767,0,0,-1
-48.81,8.84,15.16,1221,2125,7772,-1,-1,-1
-48.81,8.84,15.16,1227,2131,7773,-1,-1,0
-48.82,8.83,15.15,1222,2113,7775,-1,-1,0
-48.82,8.83,15.13,1224,2094,7766,-1,-1,0
-48.82,8.83,15.13,1239,2092,7766,-1,0,-1
-48.81,8.83,15.14,1230,2084,7765,0,-1,-1
-48.80,8.83,15.14,1234,2084,7761,0,0,-1
-48.80,8.83,15.16,1220,2100,7780,0,0,-1
-48.80,8.81,15.16,1216,2102,7776,0,-1,-1
-48.79,8.81,15.18,1232,2108,7768,0,0,-1
-48.78,8.80,15.21,1231,2101,7766,1,0,-1
-48.78,8.79,15.23,1231,2119,7799,0,0,0
-48.78,8.77,15.23,1203,2137,7752,-1,-1,-1
-48.78,8.77,15.22,1224,2092,7722,0,0,-1
-48.78,8.76,15.23,1220,2134,7761,-1,0,0
-48.79,8.75,15.23,1213,2117,7767,0,-1,0
-48.78,8.74,15.23,1225,2132,7760,-1,0,-1
-48.77,8.72,15.23,1184,2124,7789,0,0,-1
-48.78,8.73,15.22,1230,2092,7785,-1,-1,0
-48.78,8.73,15.22,1205,2090,7767,0,0,-1
-48.77,8.72,15.24,1203,2114,7764,0,-1,0
-48.77,8.71,15.23,1193,2098,7775,-1,0,0
-48.78,8.71,15.22,1225,2082,7751,0,0,0
-48.77,8.69,15.25,1198,2154,7797,0,0,-1
-48.76,8.68,15.25,1194,2137,7764,-1,0,-1
-48.76,8.68,15.24,1201,2125,7762,-1,-1,-1
-48.76,8.67,15.25,1199,2142,7760,-1,0,0
-48.76,8.67,15.23,1176,2136,7747,-1,-1,0
-48.76,8.68,15.21,1214,2110,7758,-1,0,-1
-48.76,8.68,15.20,1203,2106,7778,-1,0,-1
-48.76,8.67,15.20,1215,2106,7778,-1,-1,-1
-48.75,8.67,15.19,1210,2099,7767,-1,0,-1
-48.75,8.67,15.19,1206,2105,7770,-1,-1,-1
-48.75,8.66,15.18,1209,2097,7758,-1,-1,-1
-48.75,8.66,15.17,1197,2092,7754,0,0,-1
-48.74,8.65,15.18,1195,2110,7767,-1,-1,0
-48.75,8.65,15.17,1202,2121,7765,-1,-1,0
-48.75,8.65,15.16,1205,2121,7772,-1,-1,0
-48.75,8.66,15.14,1206,2114,7777,-1,-1,0
-48.75,8.65,15.14,1199,2099,7772,-1,-1,0
-48.75,8.65,15.13,1203,2087,7775,-1,-1,0
-48.75,8.65,15.12,1210,2090,7773,-1,0,-1
-48.75,8.64,15.12,1204,2095,7767,-1,0,-1
-48.75,8.63,15.12,1204,2085,7781,-1,0,-1
-48.74,8.62,15.11,1187,2083,7795,-1,0,-1
-48.74,8.62,15.12,1183,2098,7783,0,-1,-1
-48.74,8.62,15.12,1185,2107,7793,-1,-1,-1
-48.73,8.62,15.12,1199,2111,7783,-1,-1,-1
-48.74,8.62,15.12,1200,2120,7775,-1,0,-1
-48.73,8.61,15.11,1198,2117,7773,-1,0,-1
-48.73,8.60,15.10,1199,2102,7769,-1,0,0
-48.73,8.60,15.09,1199,2097,7776,-1,0,0
-48.74,8.59,15.08,1197,2089,7785,-1,0,-1
-48.73,8.58,15.07,1197,2088,7785,-1,0,-1
-48.73,8.57,15.06,1191,2084,7781,-1,0,-1
-48.73,8.56,15.06,1185,2080,7778,-1,0,-1
-48.72,8.55,15.06,1183,2093,7770,0,0,-1
-48.72,8.54,15.06,1183,2083,7785,-1,0,-1
-48.71,8.54,15.07,1183,2094,7780,0,0,-1
-48.69,8.53,15.09,1179,2108,7794,0,0,-1
-48.68,8.52,15.10,1174,2128,7795,0,-1,-1
-48.68,8.53,15.11,1200,2116,7783,-1,0,-1
-48.67,8.52,15.10,1206,2091,7784,0,0,-1
-48.67,8.50,15.11,1173,2073,7782,0,0,0
-48.67,8.49,15.12,1190,2060,7759,1,0,-1
-48.65,8.46,15.15,1188,2091,7804,1,1,-1
-48.64,8.42,15.19,1129,2150,7808,0,0,-1
-48.65,8.42,15.18,1143,2114,7767,-1,0,0
-48.65,8.39,15.18,1153,2116,7787,0,0,0
-48.66,8.39,15.19,1147,2105,7786,0,-1,0
-48.66,8.39,15.19,1163,2102,7744,-1,0,-1
-48.65,8.37,15.21,1172,2104,7775,0,0,-1
-48.65,8.36,15.21,1179,2072,7793,0,0,0
-48.64,8.34,15.25,1172,2130,7778,1,0,-1
-48.63,8.31,15.27,1151,2153,7805,0,0,-1
-48.63,8.30,15.29,1151,2133,7800,0,0,-1
-48.63,8.28,15.29,1151,2133,7754,0,0,0
-48.63,8.26,15.30,1131,2134,7811,0,0,0
-48.64,8.26,15.29,1138,2081,7766,-1,-1,0
-48.62,8.25,15.33,1143,2123,7764,2,0,-2
-48.63,8.24,15.34,1148,2088,7781,0,0,0
-48.60,8.22,15.37,1110,2162,7799,0,-1,-1
-48.62,8.23,15.36,1133,2114,7764,0,0,0
-48.62,8.22,15.39,1097,2147,7760,0,-1,0
-48.61,8.22,15.42,1157,2169,7785,0,0,-1
-48.63,8.22,15.42,1113,2120,7794,0,-1,0
-48.63,8.23,15.45,1185,2176,7750,-1,0,0
-48.62,8.20,15.48,1126,2144,7772,2,0,-1
-48.63,8.19,15.46,1186,2142,7770,-1,1,0
-48.64,8.18,15.49,1109,2139,7766,1,-2,0
-48.63,8.18,15.50,1136,2149,7762,0,1,-1
-48.63,8.14,15.51,1088,2182,7803,-1,-1,0
-48.65,8.18,15.50,1138,2124,7738,1,-1,0
-48.64,8.17,15.52,1131,2183,7761,-1,0,0
-48.64,8.16,15.52,1131,2160,7793,-1,-1,0
-48.65,8.17,15.52,1137,2142,7777,0,-1,-1
-48.65,8.17,15.53,1148,2137,7735,1,0,-1
-48.64,8.17,15.55,1093,2165,7761,-1,-2,0
-48.64,8.20,15.56,1192,2169,7766,0,0,-1
-48.63,8.17,15.57,1117,2157,7763,0,-1,0
-48.63,8.18,15.58,1155,2177,7792,0,0,-1
-48.64,8.17,15.58,1100,2193,7746,-1,0,-1
-48.63,8.17,15.58,1133,2146,7766,-1,-1,0
-48.65,8.18,15.57,1156,2151,7775,-1,0,0
-48.65,8.17,15.57,1105,2159,7735,0,-1,0
-48.66,8.18,15.56,1106,2136,7774,-1,-1,0
-48.66,8.20,15.57,1117,2156,7751,0,-1,-1
-48.66,8.22,15.56,1137,2182,7742,-1,-1,0
-48.67,8.23,15.54,1140,2209,7749,-2,0,0
-48.68,8.24,15.50,1114,2187,7768,-2,-2,0
-48.69,8.27,15.47,1137,2157,7760,-1,-2,0
-48.70,8.30,15.46,1136,2149,7773,-1,-1,0
-48.71,8.32,15.43,1131,2163,7771,-1,-2,0
-48.71,8.35,15.40,1145,2152,7763,-2,-2,0
-48.71,8.38,15.36,1159,2116,7750,-1,-1,0
-48.72,8.40,15.34,1166,2103,7766,-1,-1,0
-48.71,8.41,15.33,1147,2119,7783,-1,-1,0
-48.72,8.43,15.31,1164,2119,7775,-1,-2,0
-48.72,8.45,15.30,1182,2123,7771,-1,-1,0
-48.72,8.47,15.30,1181,2124,7762,-1,-1,0
-48.72,8.48,15.29,1184,2123,7765,-1,-1,0
-48.73,8.49,15.28,1185,2119,7780,-1,-1,0
-48.73,8.50,15.27,1174,2128,7769,-1,-1,0
-48.73,8.51,15.27,1177,2136,7749,-1,-1,0
-48.74,8.53,15.25,1184,2125,7760,-1,-1,0
-48.74,8.54,15.24,1189,2123,7775,-1,-1,0
-48.74,8.55,15.23,1192,2117,7789,-1,-1,0
-48.75,8.56,15.22,1192,2100,7790,-1,-1,0
-48.75,8.57,15.21,1190,2087,7788,-1,-1,0
-48.75,8.58,15.21,1190,2100,7793,-1,-1,-1
-48.75,8.59,15.21,1184,2103,7788,-1,-1,0
-48.75,8.60,15.21,1189,2104,7773,0,-1,0
-48.75,8.60,15.21,1191,2113,7782,0,-1,0
-48.75,8.61,15.22,1188,2124,7766,0,-1,0
-48.75,8.63,15.22,1192,2129,7772,-1,-1,0
-48.75,8.64,15.22,1201,2129,7765,-1,-1,0
-48.76,8.65,15.21,1196,2134,7764,-1,-1,0
-48.76,8.65,15.20,1199,2127,7767,-1,-1,0
-48.76,8.66,15.19,1198,2111,7762,-1,-1,0
-48.77,8.66,15.19,1208,2104,7769,-1,-1,0
-48.77,8.67,15.18,1202,2107,7765,-1,-1,0
-48.77,8.68,15.18,1201,2100,7773,-1,-1,0
-48.77,8.68,15.18,1204,2097,7780,0,-1,0
-48.78,8.69,15.18,1205,2104,7772,0,-1,0
-48.78,8.70,15.19,1208,2111,7755,0,-1,-1
-48.78,8.70,15.19,1214,2113,7754,-1,-1,0
-48.78,8.70,15.19,1202,2117,7770,-1,-1,0
-48.78,8.71,15.19,1208,2117,7767,0,-1,0
-48.79,8.72,15.19,1194,2125,7772,-1,-1,0
-48.79,8.73,15.19,1212,2114,7766,-1,-1,0
-48.79,8.75,15.18,1218,2114,7761,-1,-1,0
-48.80,8.75,15.17,1216,2100,7760,-1,-1,0
-48.80,8.75,15.17,1216,2083,7774,0,-1,0
-48.80,8.75,15.17,1210,2091,7773,0,-1,0
-48.80,8.75,15.17,1206,2095,7778,0,-1,0
-48.80,8.75,15.19,1199,2111,7782,0,-1,0
-48.81,8.75,15.19,1197,2120,7776,0,-1,0
-48.81,8.76,15.20,1207,2121,7771,0,-1,0
-48.82,8.77,15.20,1215,2122,7764,0,-1,0
-48.82,8.77,15.20,1222,2128,7754,-1,-1,0
-48.82,8.77,15.19,1222,2124,7760,-1,-1,0
-48.82,8.78,15.18,1220,2111,7767,-1,-1,0
-48.83,8.78,15.18,1217,2105,7775,-1,-1,0
-48.84,8.78,15.18,1221,2107,7780,-1,-1,0
-48.84,8.79,15.18,1222,2104,7769,0,-1,0
-48.84,8.79,15.18,1224,2104,7774,0,-1,0
-48.84,8.80,15.18,1226,2103,7776,0,-1,0
-48.84,8.80,15.18,1221,2103,7785,0,-1,0
-48.84,8.80,15.18,1215,2106,7781,0,-1,0
-48.84,8.80,15.18,1216,2109,7776,0,-1,0
-48.85,8.80,15.19,1218,2115,7767,0,-1,0
-48.85,8.80,15.19,1218,2123,7755,-1,-1,0
-48.85,8.80,15.19,1215,2119,7768,-1,-1,0
-48.85,8.81,15.18,1222,2115,7771,-1,-1,0
-48.85,8.81,15.18,1224,2114,7761,-1,-1,0
-48.86,8.81,15.18,1218,2101,7759,-1,-1,0
-48.86,8.81,15.17,1218,2100,7770,-1,-1,0
-48.86,8.81,15.17,1220,2095,7768,-1,-1,0
-48.87,8.82,15.16,1224,2090,7773,-1,-1,0
-48.87,8.83,15.16,1226,2090,7767,0,-1,0
-48.88,8.83,15.17,1224,2094,7771,0,-1,0
-48.87,8.83,15.18,1234,2101,7768,0,-1,0
-48.87,8.83,15.18,1236,2115,7771,0,-1,0
-48.88,8.83,15.18,1227,2119,7780,0,-1,0
-48.88,8.83,15.18,1224,2122,7767,-1,-1,0
-48.89,8.84,15.19,1222,2125,7770,-1,-1,0
-48.90,8.85,15.18,1236,2121,7766,-1,-1,0
-48.90,8.85,15.18,1246,2108,7758,-1,-1,0
-48.90,8.85,15.18,1241,2098,7759,0,-1,0
-48.91,8.86,15.18,1236,2086,7764,0,0,0
-48.91,8.85,15.18,1229,2083,7770,0,0,-1
-48.91,8.85,15.19,1225,2092,7778,0,0,0
-48.90,8.84,15.21,1224,2107,7775,0,-1,0
-48.90,8.85,15.21,1226,2121,7780,0,-1,0
-48.91,8.85,15.22,1224,2125,7772,0,-1,0
-48.91,8.86,15.22,1234,2128,7766,-1,-1,0
-48.91,8.86,15.22,1233,2121,7761,-1,-1,0
-48.92,8.86,15.21,1235,2123,7764,-1,0,0
-48.92,8.85,15.20,1225,2115,7765,-1,-1,-1
-48.92,8.86,15.19,1230,2108,7767,-1,-1,0
-48.91,8.85,15.19,1230,2107,7765,-1,0,0
-48.92,8.85,15.18,1227,2099,7768,-1,0,-1
-48.92,8.85,15.17,1224,2100,7768,-1,-1,0
-48.92,8.85,15.17,1224,2093,7768,-1,-1,-1
-48.91,8.85,15.17,1229,2088,7768,-1,-1,-1
-48.91,8.85,15.17,1233,2096,7763,0,-1,-1
-48.91,8.85,15.17,1227,2101,7766,0,-1,-1
-48.90,8.85,15.18,1227,2109,7771,0,-1,0
-48.90,8.85,15.18,1235,2106,7771,0,-1,-1
-48.90,8.84,15.18,1230,2118,7764,-1,0,-1
-48.90,8.84,15.18,1235,2115,7763,-1,0,0
-48.90,8.84,15.17,1223,2105,7754,-1,-1,0
-48.91,8.84,15.16,1227,2092,7763,-1,0,0
-48.90,8.83,15.15,1222,2088,7774,-1,-1,-1
-48.90,8.83,15.14,1224,2083,7778,0,-1,-1
-48.90,8.83,15.15,1225,2080,7776,0,-1,-1
-48.89,8.83,15.16,1234,2091,7770,0,0,-1
-48.89,8.82,15.16,1243,2112,7766,0,0,-1
-48.87,8.80,15.18,1225,2138,7771,0,0,-1
-48.85,8.78,15.19,1217,2133,7768,0,0,-1
-48.84,8.77,15.18,1223,2114,7782,-1,0,-1
-48.85,8.77,15.18,1214,2097,7769,0,0,0
-48.84,8.77,15.19,1213,2095,7759,0,-1,-1
-48.82,8.74,15.20,1234,2075,7770,0,0,-1
-48.82,8.72,15.22,1218,2095,7792,0,0,-1
-48.81,8.69,15.24,1209,2115,7795,0,0,-1
-48.80,8.67,15.23,1205,2077,7775,0,0,-1
-48.79,8.64,15.26,1202,2116,7761,1,1,-1
-48.77,8.60,15.31,1158,2119,7809,0,-1,-1
-48.76,8.60,15.32,1254,2144,7770,0,1,-1
-48.76,8.57,15.34,1145,2132,7773,0,-1,0
-48.77,8.58,15.36,1266,2122,7756,1,0,-1
-48.74,8.52,15.40,1203,2176,7762,0,2,-2
-48.75,8.48,15.39,1133,2177,7788,-1,-1,0
-48.75,8.48,15.38,1201,2095,7723,0,0,-1
-48.75,8.43,15.40,1153,2127,7772,0,1,-1
-48.75,8.40,15.40,1161,2120,7773,0,0,-1
-48.75,8.39,15.42,1154,2134,7765,0,0,-1
-48.74,8.38,15.40,1161,2116,7747,-1,-1,-1
-48.73,8.37,15.42,1150,2142,7757,0,-1,0
-48.73,8.36,15.42,1159,2161,7721,-1,0,-1
-48.73,8.35,15.40,1157,2108,7768,-1,-1,0
-48.72,8.35,15.40,1188,2138,7770,0,1,-1
-48.71,8.33,15.43,1134,2130,7772,0,-1,-1
-48.71,8.33,15.44,1173,2155,7770,0,0,-1
-48.69,8.32,15.45,1113,2182,7749,-1,-1,-1
-48.69,8.33,15.45,1178,2194,7757,-1,0,0
-48.69,8.32,15.44,1155,2158,7756,0,0,-1
-48.70,8.30,15.43,1153,2141,7777,-1,0,-1
-48.70,8.29,15.43,1143,2159,7793,0,-1,-1
-48.68,8.30,15.43,1148,2138,7761,-1,-1,-1
-48.69,8.29,15.41,1162,2125,7779,-1,0,0
-48.69,8.27,15.42,1101,2142,7755,-1,-1,-1
-48.69,8.29,15.41,1154,2113,7773,-1,-1,0
-48.69,8.27,15.41,1149,2156,7772,0,0,-1
-48.68,8.27,15.42,1126,2173,7776,-1,-1,0
-48.68,8.26,15.40,1135,2162,7753,-1,0,0
-48.69,8.27,15.39,1138,2165,7777,-1,-1,0
-48.69,8.27,15.38,1141,2166,7778,-1,-1,0
-48.71,8.28,15.35,1144,2144,7766,-1,-1,0
-48.71,8.29,15.32,1154,2129,7767,-1,-1,0
-48.72,8.31,15.29,1146,2105,7749,-1,-1,0
-48.72,8.30,15.28,1155,2100,7770,-1,0,0
-48.72,8.29,15.26,1138,2114,7771,-1,-1,0
-48.72,8.30,15.26,1137,2116,7772,-1,-1,0
-48.72,8.30,15.25,1131,2133,7786,-1,-1,-1
-48.72,8.30,15.25,1146,2138,7789,-1,-1,0
-48.73,8.30,15.24,1147,2129,7779,-1,-1,0
-48.72,8.31,15.23,1148,2131,7780,-1,-1,-1
-48.73,8.30,15.21,1143,2110,7769,-1,-1,0
-48.72,8.30,15.21,1153,2109,7764,-1,0,-1
-48.72,8.29,15.20,1143,2115,7767,-1,0,0
-48.72,8.29,15.19,1141,2119,7772,-1,0,0
-48.72,8.29,15.18,1138,2118,7777,-1,0,0
-48.73,8.29,15.17,1143,2110,7785,-1,-1,0
-48.73,8.29,15.17,1146,2101,7784,-1,-1,-1
-48.73,8.29,15.16,1141,2102,7775,-1,-1,-1
-48.72,8.29,15.16,1143,2097,7783,-1,-1,-1
-48.72,8.30,15.16,1149,2104,7781,-1,-1,-1
-48.72,8.30,15.16,1143,2103,7783,-1,-1,0
-48.71,8.29,15.16,1149,2105,7789,-1,-1,-1
-48.71,8.30,15.16,1149,2108,7786,0,-1,-1
-48.70,8.31,15.16,1149,2120,7771,-1,-1,-1
-48.70,8.32,15.17,1145,2113,7769,-1,-1,0
-48.70,8.33,15.16,1147,2116,7761,-1,-1,0
-48.70,8.35,15.16,1152,2108,7770,-1,-1,0
-48.70,8.35,15.15,1158,2097,7784,-1,-1,0
-48.71,8.36,15.14,1158,2078,7792,-1,-1,0
-48.71,8.37,15.14,1162,2073,7795,0,-1,-1
-48.70,8.37,15.15,1160,2087,7792,0,-1,-1
-48.70,8.37,15.15,1158,2101,7784,0,-1,-1
-48.70,8.38,15.16,1156,2109,7783,0,-1,0
-48.70,8.39,15.16,1167,2113,7785,0,-1,0
-48.70,8.39,15.17,1151,2131,7780,-1,-1,0
-48.70,8.40,15.17,1172,2121,7769,-1,-1,0
-48.70,8.41,15.17,1176,2104,7778,0,-1,0
-48.70,8.41,15.17,1174,2118,7776,-1,0,0
-48.70,8.41,15.17,1171,2102,7763,0,-1,0
-48.70,8.42,15.16,1178,2072,7802,0,0,-1
-48.70,8.41,15.17,1153,2095,7794,0,0,0
-48.70,8.42,15.18,1150,2094,7794,0,-1,0
-48.70,8.42,15.19,1169,2102,7794,0,-1,-1
-48.70,8.42,15.21,1154,2137,7772,0,-1,0
-48.70,8.43,15.21,1177,2122,7757,-1,-1,0
-48.71,8.44,15.21,1180,2117,7761,-1,-1,0
-48.71,8.44,15.21,1174,2116,7750,0,-1,0
-48.71,8.44,15.22,1158,2118,7757,-1,0,0
-48.72,8.44,15.21,1181,2114,7771,-1,-1,0
-48.73,8.44,15.21,1166,2138,7780,-1,-1,0
-48.73,8.45,15.20,1168,2111,7775,-1,-1,0
-48.74,8.46,15.19,1177,2095,7779,-1,-1,0
-48.74,8.46,15.19,1178,2100,7771,-1,-1,0
-48.75,8.47,15.19,1171,2102,7759,0,-1,0
-48.75,8.48,15.19,1179,2111,7767,-1,-1,0
-48.75,8.48,15.20,1172,2115,7777,0,-1,0
-48.75,8.49,15.20,1165,2117,7791,0,-1,0
-48.76,8.49,15.20,1172,2120,7778,0,-1,0
-48.76,8.51,15.20,1174,2117,7767,-1,-1,0
-48.76,8.52,15.20,1187,2122,7762,-1,-1,0
-48.77,8.52,15.19,1184,2106,7757,-1,-1,0
-48.78,8.53,15.18,1193,2100,7783,-1,-1,0
-48.78,8.53,15.18,1176,2115,7795,-1,-1,0
-48.78,8.54,15.18,1171,2106,7799,-1,-1,0
-48.78,8.55,15.18,1178,2098,7800,0,-1,0
-48.78,8.55,15.17,1176,2097,7782,0,-1,0
-48.78,8.56,15.18,1177,2099,7778,-1,-1,0
-48.79,8.56,15.18,1186,2095,7772,0,-1,0
-48.79,8.57,15.18,1180,2110,7774,0,-1,0
-48.79,8.58,15.19,1181,2126,7775,-1,-1,0
-48.80,8.58,15.18,1183,2126,7777,-1,-1,0
-48.80,8.60,15.18,1189,2133,7781,-1,-1,0
-48.81,8.61,15.18,1192,2119,7780,-1,-1,0
-48.81,8.62,15.17,1197,2104,7782,-1,-1,0
-48.82,8.62,15.16,1199,2086,7786,-1,-1,0
-48.82,8.63,15.16,1200,2083,7784,0,-1,0
-48.82,8.63,15.16,1195,2091,7780,0,-1,0
-48.82,8.64,15.18,1192,2107,7783,0,-1,0
-48.82,8.64,15.18,1189,2109,7786,0,-1,0
-48.82,8.65,15.18,1190,2117,7771,0,-1,0
-48.83,8.66,15.19,1200,2118,7758,0,-1,0
-48.83,8.67,15.19,1208,2124,7751,-1,-1,0
-48.84,8.68,15.19,1210,2116,7765,-1,-1,0
-48.84,8.68,15.18,1216,2119,7768,-1,-1,0
-48.85,8.69,15.17,1208,2109,7779,-1,-1,0
-48.85,8.70,15.16,1208,2102,7796,-1,-1,0
-48.86,8.70,15.16,1206,2099,7779,0,-1,0
-48.86,8.71,15.16,1202,2102,7779,-1,-1,0
-48.86,8.72,15.16,1207,2100,7774,0,-1,0
-48.87,8.73,15.16,1208,2095,7771,0,-1,0
-48.87,8.74,15.16,1206,2100,7773,-1,-1,0
-48.87,8.74,15.16,1218,2101,7779,0,-1,0
-48.87,8.74,15.17,1213,2105,7778,0,-1,0
-48.87,8.75,15.17,1214,2108,7767,0,-1,0
-48.87,8.76,15.18,1214,2114,7774,0,-1,0
-48.88,8.76,15.17,1212,2115,7779,-1,-1,0
-48.88,8.77,15.17,1215,2116,7766,-1,-1,0
-48.88,8.77,15.16,1214,2111,7769,-1,-1,0
-48.89,8.77,15.16,1215,2103,7766,-1,-1,0
-48.89,8.78,15.15,1217,2091,7770,-1,-1,0
-48.89,8.79,15.15,1220,2086,7774,0,-1,0
-48.90,8.79,15.15,1214,2091,7772,0,-1,0
-48.90,8.79,15.15,1212,2102,7774,0,-1,0
-48.90,8.79,15.16,1220,2106,7767,0,-1,0
-48.90,8.79,15.16,1218,2111,7768,0,0,0
-48.90,8.79,15.16,1215,2119,7761,-1,-1,0
-48.90,8.79,15.16,1210,2117,7777,-1,-1,0
-48.90,8.79,15.15,1221,2107,7780,-1,-1,0
-48.91,8.79,15.15,1222,2089,7778,0,-1,0
-48.91,8.80,15.16,1228,2094,7773,0,-1,-1
-48.91,8.80,15.16,1225,2101,7768,-1,-1,0
-48.91,8.81,15.15,1222,2089,7780,-1,-1,0
-48.91,8.80,15.16,1224,2083,7783,0,0,0
-48.91,8.80,15.17,1220,2095,7789,0,-1,0
-48.91,8.80,15.18,1221,2098,7784,0,0,-1
-48.91,8.79,15.18,1204,2108,7776,0,-1,-1
-48.91,8.80,15.20,1226,2113,7757,0,-1,0
-48.91,8.79,15.21,1227,2122,7763,0,0,0
-48.91,8.79,15.21,1216,2114,7749,0,-1,0
-48.92,8.80,15.21,1243,2109,7761,0,0,0
-48.92,8.78,15.21,1213,2101,7761,0,0,0
-48.92,8.77,15.22,1214,2108,7769,0,-1,0
-48.92,8.78,15.23,1218,2123,7785,0,0,0
-48.93,8.78,15.23,1208,2122,7787,-1,-1,0
-48.94,8.77,15.22,1220,2107,7775,-1,0,0
-48.94,8.77,15.22,1212,2109,7777,0,0,0
-48.94,8.77,15.22,1213,2116,7781,-1,-1,0
-48.94,8.77,15.22,1213,2108,7781,-1,-1,0
-48.94,8.78,15.22,1224,2108,7767,0,-1,0
-48.95,8.78,15.23,1231,2129,7765,-1,-1,0
-48.94,8.78,15.22,1207,2129,7762,-1,-1,0
-48.94,8.78,15.22,1226,2117,7770,-1,-1,0
-48.94,8.79,15.22,1217,2130,7760,-1,-1,0
-48.94,8.78,15.21,1217,2131,7765,-1,-1,0
-48.95,8.79,15.20,1237,2114,7775,-1,-1,-1
-48.95,8.78,15.19,1223,2111,7775,-1,0,0
-48.94,8.79,15.18,1221,2091,7776,-1,-1,-1
-48.94,8.78,15.18,1221,2073,7767,0,-1,-1
-48.94,8.78,15.19,1205,2109,7773,0,-1,-1
-48.94,8.79,15.19,1224,2107,7774,-1,-1,0
-48.93,8.79,15.20,1233,2110,7765,0,0,-1
-48.94,8.78,15.20,1207,2131,7750,-1,-1,0
-48.94,8.79,15.21,1230,2122,7758,-1,-1,0
-48.93,8.79,15.21,1226,2128,7756,-1,0,-1
-48.93,8.78,15.20,1215,2125,7763,-1,0,-1
-48.93,8.78,15.19,1215,2113,7772,-1,-1,0
-48.93,8.79,15.19,1222,2112,7774,-1,-1,0
-48.93,8.78,15.18,1226,2108,7778,-1,-1,0
-48.94,8.80,15.17,1232,2095,7771,-1,0,0
-48.94,8.79,15.17,1228,2094,7765,-1,-1,-1
-48.93,8.79,15.17,1230,2094,7766,0,0,-1
-48.92,8.79,15.18,1219,2102,7771,0,-1,-1
-48.92,8.78,15.18,1224,2113,7769,-1,0,-1
-48.92,8.77,15.19,1207,2124,7765,-1,0,-1
-48.92,8.77,15.19,1211,2118,7775,-1,-1,-1
-48.91,8.77,15.19,1218,2111,7768,-1,0,-1
-48.91,8.77,15.18,1231,2101,7772,-1,0,-1
-48.91,8.76,15.17,1229,2103,7757,-1,0,-1
-48.91,8.75,15.17,1212,2099,7770,-1,0,-1
-48.90,8.74,15.17,1201,2101,7771,0,0,-1
-48.90,8.74,15.17,1195,2106,7781,0,-1,-1
-48.90,8.74,15.17,1204,2105,7785,-1,-1,-1
-48.90,8.74,15.17,1216,2100,7777,-1,-1,0
-48.90,8.73,15.16,1213,2095,7764,-1,0,-1
-48.90,8.73,15.16,1210,2092,7762,-1,0,-1
-48.89,8.72,15.16,1213,2094,7769,0,0,-1
-48.89,8.72,15.16,1211,2097,7766,0,0,-1
-48.88,8.71,15.17,1211,2109,7776,0,0,-1
-48.88,8.70,15.17,1200,2124,7776,-1,0,0
-48.88,8.70,15.17,1205,2122,7775,-1,0,-1
-48.88,8.69,15.17,1198,2124,7768,-1,0,-1
-48.87,8.68,15.16,1205,2120,7774,-1,0,-1
-48.87,8.67,15.16,1207,2111,7780,-1,0,-1
-48.86,8.66,15.15,1200,2102,7783,0,0,-1
-48.86,8.66,15.16,1211,2106,7789,0,0,-1
-48.85,8.65,15.15,1196,2086,7791,0,0,-1
-48.84,8.63,15.16,1196,2083,7782,0,0,-1
-48.83,8.63,15.17,1203,2089,7780,-1,0,-1
-48.83,8.62,15.18,1213,2088,7760,0,0,-1
-48.82,8.60,15.19,1195,2110,7764,0,0,-1
-48.82,8.59,15.20,1175,2125,7763,0,-1,-1
-48.80,8.57,15.20,1194,2136,7759,-1,0,-1
-48.80,8.56,15.20,1168,2137,7760,-1,0,-1
-48.81,8.54,15.19,1178,2131,7783,-1,-1,0
-48.81,8.55,15.18,1189,2097,7801,-1,0,0
-48.81,8.54,15.16,1192,2096,7780,-1,0,-1
-48.80,8.53,15.17,1182,2090,7770,0,-1,-1
-48.81,8.53,15.16,1209,2085,7762,-1,0,-1
-48.80,8.50,15.16,1189,2100,7792,-1,0,-1
-48.79,8.49,15.16,1167,2099,7793,0,0,-1
-48.79,8.48,15.16,1161,2113,7788,-1,0,0
-48.78,8.48,15.17,1164,2128,7775,0,-1,0
-48.79,8.48,15.17,1169,2145,7767,-1,-1,0
-48.78,8.48,15.16,1177,2134,7765,-1,-1,0
-48.79,8.48,15.15,1168,2116,7777,-1,-1,0
-48.79,8.48,15.14,1175,2109,7778,-1,0,0
-48.79,8.48,15.14,1179,2111,7783,0,-1,-1
-48.79,8.48,15.14,1180,2110,7781,-1,0,-1
-48.79,8.47,15.13,1174,2102,7774,-1,0,0
-48.80,8.46,15.12,1167,2090,7784,0,0,0
-48.80,8.46,15.12,1165,2097,7781,0,-1,0
-48.78,8.46,15.12,1161,2104,7782,0,-1,-1
-48.78,8.45,15.13,1171,2108,7776,0,-1,-1
-48.78,8.45,15.14,1164,2122,7780,0,0,-1
-48.78,8.45,15.14,1164,2120,7782,-1,-1,0
-48.77,8.44,15.14,1179,2117,7781,-1,0,-1
-48.77,8.44,15.14,1161,2110,7777,0,-1,0
-48.77,8.44,15.14,1166,2107,7772,-1,-1,0
-48.77,8.44,15.14,1173,2105,7778,-1,0,0
-48.76,8.44,15.14,1165,2109,7773,-1,-1,-1
-48.76,8.43,15.14,1164,2109,7771,-1,0,-1
-48.76,8.43,15.14,1158,2112,7787,-1,-1,0
-48.77,8.44,15.13,1157,2102,7782,-1,-1,0
-48.77,8.44,15.13,1165,2090,7791,-1,-1,0
-48.77,8.44,15.13,1166,2092,7793,0,-1,0
-48.77,8.44,15.14,1162,2101,7793,0,-1,0
-48.76,8.45,15.14,1160,2097,7797,0,-1,-1
-48.76,8.46,15.15,1168,2106,7789,-1,-1,0
-48.77,8.46,15.14,1166,2115,7766,0,-1,0
-48.77,8.47,15.15,1169,2110,7773,0,-1,0
-48.77,8.46,15.15,1164,2122,7792,-1,-1,0
-48.77,8.46,15.15,1160,2124,7784,-1,-1,0
-48.77,8.47,15.15,1158,2119,7783,-1,-1,0
-48.78,8.48,15.14,1176,2104,7777,-1,-1,0
-48.79,8.49,15.14,1178,2100,7777,-1,-1,0
-48.79,8.50,15.13,1191,2092,7774,-1,-1,0
-48.79,8.50,15.13,1194,2091,7785,0,-1,0
-48.79,8.50,15.13,1182,2087,7776,0,0,-1
-48.79,8.50,15.14,1173,2088,7785,0,-1,0
-48.79,8.50,15.15,1169,2097,7780,0,-1,0
-48.79,8.50,15.16,1171,2120,7785,0,-1,0
-48.79,8.51,15.16,1173,2130,7784,-1,-1,0
-48.79,8.51,15.16,1182,2127,7770,-1,-1,0
-48.80,8.52,15.16,1186,2121,7769,-1,-1,0
-48.80,8.52,15.16,1182,2119,7770,-1,-1,0
-48.80,8.52,15.15,1173,2106,7783,-1,-1,0
-48.80,8.51,15.14,1171,2099,7784,-1,-1,0
-48.81,8.52,15.14,1178,2098,7790,0,-1,0
-48.81,8.52,15.14,1180,2097,7785,0,-1,0
-48.81,8.53,15.14,1176,2101,7780,0,-1,0
-48.81,8.53,15.15,1180,2105,7782,0,-1,0
-48.81,8.53,15.15,1186,2103,7773,0,-1,-1
-48.81,8.54,15.15,1183,2098,7781,0,-1,0
-48.81,8.54,15.15,1182,2094,7780,0,-1,-1
-48.81,8.54,15.15,1184,2098,7781,0,0,0
-48.81,8.54,15.15,1174,2106,7777,-1,-1,0
-48.82,8.55,15.16,1182,2118,7769,-1,-1,0
-48.82,8.55,15.16,1182,2116,7765,-1,-1,0
-48.82,8.55,15.16,1186,2114,7764,-1,-1,0
-48.83,8.56,15.15,1183,2108,7769,-1,-1,0
-48.83,8.56,15.14,1195,2093,7774,-1,-1,0
-48.83,8.57,15.13,1186,2085,7791,-1,-1,0
-48.83,8.57,15.13,1183,2089,7783,0,-1,0
-48.83,8.57,15.13,1180,2093,7772,0,-1,0
-48.83,8.57,15.13,1184,2101,7773,0,-1,0
-48.83,8.58,15.14,1191,2107,7776,-1,-1,0
-48.84,8.58,15.15,1185,2109,7773,0,-1,0
-48.84,8.59,15.14,1190,2111,7769,0,-1,0
-48.84,8.59,15.15,1187,2114,7764,0,-1,0
-48.84,8.59,15.15,1185,2120,7759,-1,-1,0
-48.84,8.59,15.14,1185,2122,7769,-1,-1,0
-48.85,8.59,15.13,1185,2112,7776,-1,-1,0
-48.85,8.60,15.13,1191,2100,7781,-1,-1,0
-48.85,8.61,15.12,1196,2090,7779,-1,-1,0
-48.86,8.62,15.11,1202,2085,7767,-1,-1,0
-48.86,8.62,15.11,1205,2085,7777,0,-1,0
-48.86,8.62,15.11,1199,2079,7774,0,0,0
-48.86,8.62,15.12,1198,2098,7782,0,-1,-1
-48.86,8.62,15.14,1190,2106,7778,0,-1,0
-48.85,8.63,15.14,1194,2123,7769,-1,-1,0
-48.86,8.63,15.14,1196,2125,7771,-1,-1,0
-48.86,8.63,15.14,1202,2118,7757,-1,-1,0
-48.87,8.64,15.13,1197,2106,7772,-1,-1,0
-48.87,8.65,15.13,1194,2099,7773,-1,-1,0
-48.87,8.64,15.12,1193,2096,7771,-1,-1,0
-48.87,8.64,15.12,1192,2093,7771,0,-1,0
-48.87,8.65,15.13,1197,2095,7763,-1,-1,0
-48.87,8.66,15.13,1201,2096,7761,-1,-1,0
-48.87,8.66,15.13,1205,2091,7773,0,-1,0
-48.87,8.66,15.13,1206,2091,7775,0,0,-1
-48.87,8.66,15.13,1204,2103,7774,0,0,-1
-48.87,8.64,15.14,1200,2091,7777,0,0,0
-48.86,8.64,15.15,1199,2096,7768,0,-1,-1
-48.86,8.64,15.17,1179,2129,7781,0,-1,-1
-48.85,8.65,15.17,1200,2110,7785,0,-1,0
-48.86,8.64,15.17,1207,2096,7767,-1,0,0
-48.86,8.63,15.17,1201,2101,7761,0,0,0
-48.86,8.62,15.17,1200,2104,7786,-1,0,0
-48.87,8.62,15.18,1198,2090,7763,0,0,0
-48.87,8.61,15.19,1195,2086,7790,0,0,0
-48.88,8.61,15.20,1210,2082,7764,1,0,-1
-48.87,8.58,15.22,1165,2143,7784,-1,0,0
-48.88,8.60,15.21,1176,2085,7774,-1,-2,0
-48.89,8.62,15.20,1209,2056,7767,1,0,0
-48.91,8.61,15.24,1177,2110,7791,0,0,0
-48.91,8.62,15.24,1190,2131,7758,0,-1,0
-48.92,8.62,15.26,1184,2102,7756,0,-1,0
-48.94,8.63,15.28,1202,2104,7761,1,-1,0
-48.94,8.63,15.29,1195,2173,7748,-1,0,0
-48.94,8.64,15.30,1177,2167,7768,-1,-1,0
-48.94,8.66,15.30,1221,2153,7760,-1,-1,0
-48.94,8.66,15.29,1178,2176,7759,-1,-1,0
-48.95,8.67,15.27,1174,2150,7778,-1,-2,0
-48.96,8.70,15.23,1218,2086,7765,-2,-1,0
-48.98,8.71,15.22,1238,2079,7760,0,0,-1
-48.96,8.71,15.22,1223,2097,7761,0,-1,-1
-48.96,8.71,15.23,1210,2094,7755,0,-1,-1
-48.96,8.71,15.23,1205,2104,7766,0,-1,0
-48.96,8.72,15.24,1199,2126,7765,0,-1,0
-48.97,8.73,15.23,1200,2141,7762,-1,-1,0
-48.97,8.73,15.23,1218,2135,7772,-1,-1,0
-48.97,8.74,15.23,1219,2141,7776,-1,-1,0
-48.98,8.75,15.22,1218,2121,7766,-1,-1,0
-48.98,8.76,15.20,1228,2096,7762,-1,-1,0
-48.98,8.76,15.20,1220,2093,7770,0,-1,0
-48.99,8.76,15.20,1209,2097,7777,-1,-1,0
-48.99,8.77,15.20,1220,2097,7781,0,-1,0
-48.99,8.78,15.20,1226,2113,7790,0,-1,0
-48.99,8.78,15.21,1214,2125,7789,-1,-1,0
-48.99,8.78,15.21,1216,2115,7785,-1,-1,0
-49.00,8.80,15.20,1223,2107,7772,-1,-1,0
-49.00,8.81,15.20,1231,2101,7763,0,-1,0
-49.00,8.81,15.21,1237,2105,7764,0,-1,0
-49.00,8.81,15.21,1226,2116,7771,0,-1,0
-49.00,8.82,15.22,1225,2133,7771,0,-1,0
-49.00,8.83,15.23,1219,2142,7769,-1,-1,0
-49.01,8.83,15.23,1227,2131,7767,-1,-1,0
-49.01,8.84,15.22,1230,2124,7764,-1,-1,0
-49.01,8.84,15.21,1227,2114,7763,-1,-1,0
-49.01,8.85,15.20,1232,2095,7768,-1,-1,0
-49.02,8.85,15.20,1219,2090,7768,-1,-1,0
-49.02,8.85,15.20,1227,2089,7778,0,-1,0
-49.02,8.85,15.20,1225,2097,7782,0,-1,-1
-49.01,8.86,15.21,1223,2100,7777,0,-1,-1
-49.01,8.86,15.21,1228,2113,7778,0,-1,0
-49.01,8.86,15.21,1236,2124,7767,-1,-1,0
-49.01,8.87,15.21,1241,2126,7760,-1,-1,-1
-49.00,8.87,15.21,1234,2128,7772,-1,-1,0
-49.00,8.87,15.20,1225,2119,7780,-1,-1,0
-49.01,8.87,15.19,1226,2111,7782,-1,-1,0
-49.01,8.87,15.18,1229,2095,7782,-1,-1,0
-49.01,8.88,15.18,1236,2091,7779,-1,-1,-1
-49.01,8.88,15.19,1242,2099,7767,-1,-1,0
-49.01,8.88,15.18,1240,2093,7763,0,0,-1
-49.01,8.87,15.18,1231,2099,7770,0,-1,-1
-49.00,8.87,15.19,1229,2112,7779,0,-1,-1
-49.00,8.87,15.19,1229,2107,7776,0,-1,-1
-49.00,8.87,15.19,1229,2113,7766,-1,-1,0
-49.00,8.87,15.19,1234,2112,7754,-1,0,0
-49.00,8.87,15.18,1242,2102,7759,0,-1,-1
-48.99,8.87,15.19,1235,2116,7763,0,0,-1
-48.99,8.86,15.19,1228,2117,7770,-1,0,-1
-48.98,8.85,15.19,1223,2111,7776,-1,0,0
-48.98,8.85,15.18,1213,2116,7773,-1,-1,0
-48.98,8.85,15.18,1216,2109,7771,-1,-1,0
-48.98,8.85,15.17,1227,2099,7768,-1,-1,-1
-48.98,8.85,15.17,1233,2094,7765,0,0,-1
-48.98,8.84,15.18,1231,2099,7770,-1,0,-1
-48.98,8.84,15.18,1225,2101,7767,0,0,-1
-48.97,8.82,15.18,1226,2109,7775,0,0,-1
-48.97,8.81,15.18,1223,2108,7776,0,0,-1
-48.96,8.81,15.18,1220,2111,7772,0,0,-1
-48.96,8.80,15.19,1220,2117,7760,0,0,-1
-48.96,8.79,15.19,1219,2130,7763,-1,0,-1
-48.96,8.79,15.19,1227,2122,7770,-1,0,-1
-48.96,8.78,15.19,1233,2119,7774,-1,0,-1
-48.96,8.77,15.18,1228,2107,7775,-1,0,-1
-48.96,8.76,15.17,1221,2100,7776,-1,0,0
-48.96,8.75,15.17,1222,2102,7792,0,0,-1
-48.96,8.74,15.16,1222,2107,7795,-1,0,-1
-48.95,8.74,15.17,1217,2098,7777,-1,0,-1
-48.95,8.73,15.16,1216,2101,7777,0,0,-1
-48.95,8.72,15.17,1218,2099,7770,0,0,-1
-48.94,8.71,15.17,1221,2101,7770,0,0,-1
-48.94,8.70,15.18,1215,2111,7758,0,0,-1
-48.93,8.70,15.19,1212,2129,7764,-1,0,-1
-48.93,8.69,15.18,1215,2129,7764,-1,0,-1
-48.94,8.68,15.18,1207,2126,7774,-1,0,0
-48.94,8.68,15.17,1219,2112,7777,-1,0,-1
-48.94,8.67,15.16,1218,2091,7766,-1,0,-1
-48.93,8.67,15.15,1220,2082,7769,-1,0,-1
-48.93,8.65,15.15,1215,2082,7768,-1,0,-1
-48.93,8.64,15.15,1216,2077,7770,0,0,-1
-48.93,8.64,15.15,1207,2087,7776,0,0,-1
-48.92,8.62,15.16,1204,2099,7781,0,0,-1
-48.92,8.62,15.16,1202,2107,7778,0,0,-1
-48.91,8.61,15.16,1202,2119,7767,-1,0,-1
-48.91,8.60,15.17,1204,2114,7762,-1,0,-1
-48.91,8.59,15.16,1206,2114,7763,-1,0,-1
-48.90,8.58,15.16,1204,2110,7764,-1,0,-1
-48.90,8.57,15.16,1201,2103,7770,-1,0,-1
-48.90,8.56,15.15,1206,2101,7776,-1,0,-1
-48.90,8.55,15.14,1191,2099,7778,-1,0,0
-48.90,8.54,15.14,1201,2100,7786,0,0,-1
-48.89,8.54,15.14,1198,2108,7778,-1,0,-1
-48.88,8.53,15.14,1188,2108,7773,0,-1,-1
-48.87,8.53,15.15,1218,2085,7776,0,0,-1
-48.86,8.51,15.17,1191,2114,7782,0,0,-1
-48.85,8.51,15.17,1196,2097,7771,0,-1,-1
-48.84,8.49,15.18,1217,2119,7784,0,1,-1
-48.82,8.47,15.19,1171,2113,7769,0,-1,-1
-48.81,8.46,15.20,1217,2134,7790,0,1,-1
-48.81,8.44,15.20,1172,2124,7786,-1,0,0
-48.82,8.44,15.19,1225,2081,7771,0,0,-1
-48.80,8.40,15.22,1168,2139,7756,0,0,-1
-48.78,8.38,15.22,1195,2138,7766,-1,0,-1
-48.77,8.36,15.22,1150,2127,7769,-1,-1,-1
-48.77,8.36,15.21,1177,2084,7792,0,0,0
-48.77,8.34,15.22,1176,2118,7789,-1,0,-1
-48.76,8.33,15.22,1182,2082,7779,0,0,-1
-48.74,8.31,15.26,1188,2136,7813,0,0,-1
-48.73,8.30,15.25,1156,2109,7742,-1,0,-1
-48.74,8.29,15.27,1174,2110,7754,1,0,-1
-48.72,8.27,15.28,1204,2159,7811,-2,0,-1
-48.73,8.25,15.27,1169,2129,7775,0,0,-1
-48.72,8.23,15.28,1140,2126,7775,-1,-1,-1
-48.72,8.23,15.27,1161,2103,7785,0,0,0
-48.72,8.24,15.29,1146,2131,7768,0,-1,-1
-48.72,8.23,15.28,1200,2117,7751,-1,0,-1
-48.72,8.22,15.28,1167,2116,7771,0,0,-1
-48.73,8.22,15.27,1143,2102,7749,-1,-1,0
-48.73,8.22,15.27,1170,2076,7769,0,0,-1
-48.72,8.21,15.29,1133,2137,7805,0,-1,-1
-48.72,8.22,15.28,1121,2149,7767,-1,-1,0
-48.73,8.24,15.27,1171,2124,7760,0,-1,0
-48.74,8.25,15.27,1167,2156,7778,-1,0,0
-48.74,8.25,15.25,1163,2124,7765,-1,-1,0
-48.75,8.25,15.24,1167,2095,7785,-1,0,0
-48.75,8.25,15.24,1157,2082,7779,0,-1,-1
-48.75,8.26,15.24,1165,2124,7775,0,-1,0
-48.74,8.27,15.25,1167,2112,7779,0,-1,-1
-48.75,8.27,15.24,1192,2111,7757,-1,0,-1
-48.74,8.26,15.26,1150,2131,7792,0,-1,0
-48.75,8.26,15.27,1182,2099,7778,0,0,0
-48.75,8.25,15.29,1173,2098,7793,1,0,-1
-48.75,8.24,15.31,1139,2113,7794,-1,0,0
-48.77,8.25,15.32,1176,2088,7744,1,-1,0
-48.76,8.23,15.36,1224,2105,7790,1,2,-1
-48.76,8.19,15.39,1091,2169,7754,0,-1,0
-48.76,8.23,15.41,1212,2168,7751,0,0,-1
-48.78,8.21,15.40,1146,2143,7752,0,0,0
-48.78,8.20,15.42,1185,2185,7761,0,1,0
-48.80,8.16,15.39,1115,2165,7758,-2,0,0
-48.80,8.19,15.36,1179,2124,7778,-1,-2,-1
-48.81,8.19,15.35,1161,2100,7730,0,0,-1
-48.80,8.20,15.37,1150,2153,7750,-1,-1,-1
-48.81,8.21,15.35,1146,2106,7750,-1,-1,0
-48.81,8.23,15.34,1202,2116,7756,-1,-1,0
-48.81,8.23,15.34,1167,2132,7760,0,0,-1
-48.82,8.24,15.34,1151,2179,7789,-2,-2,0
-48.82,8.27,15.32,1196,2150,7744,-1,-1,0
-48.82,8.28,15.31,1178,2161,7770,-1,-1,0
-48.83,8.29,15.28,1167,2145,7781,-1,-1,0
-48.85,8.30,15.26,1171,2126,7780,-1,-1,0
-48.86,8.31,15.25,1159,2102,7797,-1,-1,0
-48.86,8.34,15.23,1200,2079,7786,0,-1,0
-48.86,8.35,15.24,1207,2088,7767,0,-1,-1
-48.85,8.35,15.25,1201,2106,7772,-1,-1,-1
-48.85,8.36,15.25,1212,2106,7778,0,0,-1
-48.86,8.36,15.27,1188,2119,7782,0,0,-1
-48.86,8.35,15.26,1175,2120,7794,-1,-1,0
-48.86,8.36,15.27,1193,2112,7764,0,0,-1
-48.85,8.36,15.28,1173,2135,7787,-1,-1,0
-48.87,8.36,15.29,1226,2117,7757,0,0,0
-48.87,8.34,15.29,1160,2118,7783,0,-1,-1
-48.88,8.37,15.29,1249,2071,7738,0,0,0
-48.87,8.33,15.33,1187,2147,7809,0,0,0
-48.89,8.32,15.32,1184,2093,7757,0,0,0
-48.89,8.32,15.34,1226,2098,7787,1,0,-1
-48.89,8.29,15.37,1135,2138,7788,0,0,0
-48.90,8.31,15.39,1155,2121,7727,0,-2,-1
-48.90,8.31,15.39,1179,2164,7749,-2,0,0
-48.91,8.32,15.38,1212,2133,7739,0,-1,0
-48.90,8.31,15.40,1178,2171,7763,-1,0,-1
-48.91,8.31,15.39,1183,2131,7735,-1,-1,0
-48.91,8.32,15.39,1179,2158,7789,-1,-1,0
-48.92,8.33,15.36,1175,2141,7729,-1,-1,0
-48.91,8.34,15.38,1183,2155,7741,0,-1,-1
-48.90,8.35,15.36,1153,2166,7769,-2,-1,0
-48.91,8.38,15.33,1194,2147,7759,-1,-1,0
-48.92,8.39,15.31,1174,2161,7787,-1,-1,-1
-48.92,8.42,15.28,1191,2134,7787,-2,-1,0
-48.93,8.44,15.24,1231,2094,7790,-1,-1,0
-48.93,8.45,15.24,1224,2072,7798,0,-1,-1
-48.93,8.46,15.23,1205,2072,7775,0,-1,-1
-48.92,8.48,15.25,1213,2097,7760,0,-1,-1
-48.92,8.48,15.26,1214,2121,7765,0,-1,-1
-48.92,8.48,15.26,1212,2146,7766,-1,-1,0
-48.92,8.48,15.26,1211,2163,7781,-1,0,0
-48.93,8.49,15.24,1209,2148,7778,-1,-1,0
-48.93,8.50,15.22,1211,2116,7772,-1,-1,0
-48.94,8.51,15.20,1210,2091,7762,-1,-1,0
-48.94,8.52,15.19,1211,2074,7759,-1,-1,0
-48.95,8.53,15.18,1226,2071,7752,-1,-1,-1
-48.94,8.53,15.19,1216,2083,7757,0,0,-1
-48.94,8.53,15.20,1211,2112,7775,0,-1,-1
-48.94,8.53,15.20,1211,2127,7783,0,-1,-1
-48.94,8.54,15.20,1214,2131,7771,-1,-1,0
-48.94,8.56,15.20,1221,2120,7763,-1,-1,0
-48.95,8.56,15.20,1225,2115,7747,-1,-1,0
-48.95,8.57,15.19,1218,2111,7764,-1,-1,0
-48.95,8.58,15.19,1229,2109,7761,0,-1,0
-48.95,8.58,15.19,1219,2116,7764,-1,-1,-1
-48.95,8.58,15.19,1208,2115,7771,-1,-1,0
-48.95,8.59,15.18,1216,2112,7770,-1,-1,0
-48.95,8.59,15.18,1222,2106,7769,-1,-1,0
-48.96,8.60,15.17,1230,2094,7760,-1,-1,0
-48.96,8.60,15.17,1235,2096,7760,-1,0,-1
-48.96,8.61,15.17,1240,2086,7750,0,0,-1
-48.96,8.61,15.18,1233,2091,7755,0,0,-1
-48.96,8.60,15.18,1227,2093,7767,0,-1,-1
-48.96,8.60,15.18,1217,2106,7767,0,0,0
-48.96,8.60,15.19,1220,2113,7770,0,-1,0
-48.96,8.60,15.19,1225,2119,7768,-1,-1,0
-48.96,8.61,15.18,1225,2108,7765,-1,-1,0
-48.96,8.61,15.18,1236,2104,7765,-1,0,-1
-48.96,8.61,15.18,1237,2110,7764,-1,0,-1
-48.96,8.60,15.19,1235,2113,7763,0,0,-1
-48.95,8.59,15.18,1203,2132,7767,-1,0,-1
-48.96,8.60,15.17,1210,2105,7769,-1,-1,0
-48.96,8.60,15.16,1220,2076,7766,0,-1,0
-48.96,8.61,15.17,1225,2083,7773,0,-1,0
-48.96,8.62,15.18,1244,2099,7772,0,-1,-1
-48.96,8.62,15.19,1239,2108,7771,0,0,-1
-48.96,8.61,15.19,1229,2120,7762,0,0,-1
-48.96,8.61,15.20,1230,2141,7770,-1,0,-1
-48.95,8.60,15.20,1212,2136,7776,-1,-1,0
-48.96,8.61,15.19,1224,2124,7786,-1,-1,0
-48.96,8.61,15.19,1236,2109,7778,0,-1,0
-48.97,8.62,15.18,1246,2113,7764,-1,0,0
-48.97,8.62,15.17,1247,2100,7774,-1,-1,0
-48.98,8.63,15.16,1246,2079,7766,0,0,-1
-48.98,8.62,15.17,1228,2086,7781,0,0,-1
-48.97,8.62,15.17,1231,2090,7781,0,-1,-1
-48.97,8.63,15.18,1221,2105,7780,0,-1,-1
-48.97,8.63,15.18,1223,2121,7773,0,-1,0
-48.97,8.64,15.19,1238,2128,7770,-1,-1,0
-48.98,8.64,15.18,1243,2123,7754,-1,-1,0
-48.98,8.64,15.19,1249,2124,7754,-1,0,-1
-48.97,8.64,15.18,1241,2117,7760,-1,0,-1
-48.97,8.64,15.17,1233,2111,7759,-1,0,-1
-48.97,8.64,15.16,1234,2107,7769,-1,0,-1
-48.97,8.64,15.16,1227,2100,7771,-1,-1,-1
-48.97,8.64,15.17,1229,2105,7772,-1,-1,-1
-48.97,8.64,15.17,1236,2100,7762,-1,0,-1
-48.97,8.65,15.16,1241,2095,7762,-1,0,-1
-48.96,8.64,15.16,1235,2087,7768,-1,0,-1
-48.96,8.64,15.16,1233,2087,7773,0,0,-1
-48.96,8.64,15.16,1232,2099,7773,0,0,-1
-48.96,8.63,15.17,1224,2107,7770,0,0,-1
-48.95,8.63,15.17,1230,2118,7767,0,0,-1
-48.95,8.63,15.17,1235,2127,7769,-1,0,-1
-48.94,8.63,15.17,1240,2123,7765,-1,0,-1
-48.95,8.63,15.16,1243,2111,7762,-1,0,-1
-48.95,8.62,15.16,1230,2095,7766,-1,0,-1
-48.95,8.62,15.15,1229,2091,7765,0,0,-1
-48.94,8.61,15.16,1220,2107,7765,-1,0,-1
-48.93,8.61,15.16,1228,2107,7778,0,0,-1
-48.93,8.61,15.16,1240,2108,7768,0,0,-1
-48.93,8.61,15.17,1236,2108,7766,0,0,-1
-48.92,8.61,15.17,1239,2105,7769,0,0,-1
-48.92,8.60,15.17,1237,2109,7758,0,0,-1
-48.91,8.59,15.18,1222,2122,7762,-1,0,-1
-48.91,8.58,15.18,1219,2122,7774,-1,0,-1
-48.91,8.57,15.17,1221,2119,7776,-1,0,0
-48.91,8.57,15.16,1234,2100,7784,-1,-1,-1
-48.92,8.58,15.16,1233,2096,7780,-1,0,-1
-48.91,8.57,15.15,1232,2089,7776,-1,0,-1
-48.91,8.56,15.14,1233,2072,7771,0,0,-1
-48.91,8.56,15.15,1224,2076,7779,0,0,-1
-48.89,8.54,15.15,1219,2088,7776,0,0,-1
-48.89,8.53,15.16,1209,2108,7774,0,0,-1
-48.89,8.52,15.17,1210,2121,7773,0,0,-1
-48.89,8.52,15.17,1215,2125,7769,-1,0,-1
-48.89,8.52,15.17,1215,2130,7766,-1,0,-1
-48.89,8.51,15.16,1223,2111,7766,-1,0,-1
-48.88,8.49,15.15,1227,2095,7778,-1,0,-1
-48.88,8.48,15.15,1218,2090,7785,0,0,-1
-48.87,8.47,15.14,1206,2097,7777,-1,0,-1
-48.87,8.47,15.15,1208,2098,7771,-1,0,-1
-48.87,8.47,15.15,1213,2101,7772,-1,0,-1
-48.87,8.46,15.14,1218,2098,7773,-1,0,-1
-48.86,8.46,15.14,1221,2100,7776,0,0,-1
-48.86,8.45,15.15,1222,2097,7778,0,0,-1
-48.85,8.45,15.16,1214,2104,7786,0,0,-1
-48.84,8.43,15.18,1232,2113,7770,0,0,-1
-48.85,8.40,15.22,1260,2115,7768,2,2,0
-48.84,8.33,15.28,1168,2139,7835,1,2,-1
-48.83,8.31,15.27,1185,2145,7795,-1,0,-1
-48.83,8.30,15.28,1162,2159,7771,-1,0,-1
-48.83,8.29,15.27,1199,2060,7732,0,0,0
-48.84,8.26,15.29,1241,2093,7758,0,2,-1
-48.83,8.20,15.30,1165,2096,7801,0,1,-2
-48.80,8.19,15.32,1204,2109,7765,0,0,-1
-48.80,8.16,15.35,1164,2111,7765,1,1,-1
-48.79,8.12,15.36,1156,2146,7806,0,1,0
-48.80,8.09,15.36,1153,2129,7762,-1,0,-1
-48.79,8.07,15.39,1177,2141,7786,0,0,0
-48.79,8.04,15.41,1125,2139,7771,1,0,-1
-48.79,8.03,15.43,1203,2182,7784,-1,0,0
-48.79,8.01,15.41,1140,2141,7736,-1,1,-1
-48.79,7.99,15.41,1160,2135,7742,0,0,-1
-48.79,7.96,15.41,1134,2142,7798,-1,0,-1
-48.79,7.96,15.40,1157,2138,7746,0,0,0
-48.79,7.94,15.40,1118,2154,7778,-1,0,-1
-48.79,7.94,15.38,1144,2127,7765,-1,0,-1
-48.79,7.93,15.38,1143,2146,7799,-1,0,0
-48.79,7.92,15.37,1124,2124,7785,0,-1,0
-48.78,7.91,15.38,1119,2137,7777,-1,-1,-1
-48.78,7.92,15.37,1165,2129,7787,0,0,-1
-48.78,7.90,15.37,1120,2147,7779,-1,0,-1
-48.78,7.90,15.38,1138,2114,7790,0,0,-1
-48.77,7.88,15.38,1146,2135,7774,0,0,-1
-48.76,7.86,15.39,1130,2156,7783,0,0,-1
-48.76,7.84,15.39,1112,2139,7764,0,1,0
-48.76,7.82,15.39,1133,2152,7799,-1,0,-1
-48.77,7.80,15.40,1118,2130,7770,1,1,-1
-48.77,7.78,15.42,1094,2160,7775,-1,0,-1
-48.77,7.78,15.41,1101,2120,7772,0,0,-1
-48.77,7.77,15.41,1122,2119,7766,-1,0,0
-48.77,7.77,15.43,1106,2141,7762,-1,0,0
-48.77,7.76,15.42,1106,2124,7778,0,-1,0
-48.77,7.75,15.42,1109,2151,7747,0,0,-1
-48.76,7.76,15.43,1102,2145,7744,-1,-2,0
-48.76,7.76,15.44,1079,2182,7774,-1,0,-1
-48.77,7.77,15.41,1106,2148,7773,-1,-1,0
-48.77,7.79,15.40,1119,2164,7759,-1,0,-1
-48.77,7.80,15.40,1099,2158,7783,-1,-1,0
-48.78,7.82,15.37,1155,2154,7772,-1,-1,0
-48.77,7.82,15.35,1112,2135,7768,-1,-1,-1
-48.77,7.83,15.33,1114,2126,7772,-1,-1,-1
-48.77,7.84,15.32,1120,2131,7781,-1,-1,-1
-48.76,7.86,15.31,1122,2127,7776,-1,-1,0
-48.76,7.87,15.30,1125,2103,7780,-1,-1,-1
-48.77,7.88,15.28,1138,2115,7770,-1,-1,-1
-48.77,7.89,15.29,1136,2121,7774,0,-1,-1
-48.76,7.90,15.29,1132,2142,7780,-1,-1,-1
-48.76,7.91,15.28,1124,2149,7778,-1,-1,0
-48.76,7.93,15.28,1137,2143,7769,-1,-1,0
-48.77,7.94,15.27,1149,2129,7788,-1,-1,0
-48.77,7.95,15.26,1137,2124,7782,-1,-1,0
-48.78,7.96,15.25,1149,2106,7776,-1,-1,-1
-48.78,7.96,15.25,1153,2110,7782,-1,-1,0
-48.79,7.97,15.25,1150,2117,7790,-1,-1,0
-48.79,7.97,15.25,1146,2104,7786,0,0,0
-48.79,7.98,15.25,1138,2115,7785,0,-1,-1
-48.79,7.98,15.25,1142,2129,7790,0,-1,-1
-48.78,7.99,15.26,1148,2125,7783,-1,-1,-1
-48.79,8.00,15.25,1156,2122,7775,0,-1,0
-48.79,8.01,15.25,1152,2133,7773,-1,-1,0
-48.79,8.01,15.25,1153,2125,7776,-1,-1,0
-48.79,8.02,15.24,1156,2124,7776,-1,-1,0
-48.79,8.02,15.24,1147,2127,7785,-1,-1,-1
-48.80,8.02,15.23,1145,2121,7789,-1,-1,0
-48.81,8.03,15.22,1153,2114,7794,-1,-1,0
-48.81,8.04,15.22,1157,2099,7782,-1,-1,0
-48.81,8.04,15.22,1149,2102,7796,-1,-1,-1
-48.81,8.06,15.22,1155,2111,7785,0,-1,-1
-48.81,8.06,15.22,1142,2113,7787,-1,-1,0
-48.81,8.06,15.22,1153,2100,7780,0,-1,0
-48.82,8.07,15.22,1166,2110,7766,0,-1,0
-48.81,8.08,15.23,1159,2119,7782,0,-1,-1
-48.82,8.08,15.23,1158,2118,7784,-1,-1,0
-48.82,8.08,15.22,1154,2123,7764,-1,0,0
-48.82,8.09,15.22,1150,2129,7757,-1,-1,0
-48.82,8.09,15.21,1154,2124,7752,-1,-1,0
-48.83,8.11,15.20,1163,2116,7764,-1,-1,0
-48.84,8.13,15.18,1163,2105,7777,-1,-1,0
-48.84,8.14,15.17,1167,2100,7784,-1,-1,0
-48.84,8.15,15.16,1177,2096,7793,-1,-1,-1
-48.84,8.16,15.16,1172,2091,7779,-1,-1,-1
-48.84,8.17,15.15,1183,2084,7776,-1,-1,-1
-48.84,8.19,15.15,1177,2095,7774,0,-1,-1
-48.84,8.19,15.17,1168,2112,7765,0,-1,-1
-48.83,8.20,15.17,1172,2132,7770,-1,-1,-1
-48.83,8.20,15.18,1176,2147,7773,-1,-1,0
-48.83,8.22,15.17,1172,2134,7777,-1,-1,0
-48.84,8.22,15.16,1173,2125,7776,-1,-1,0
-48.84,8.23,15.16,1180,2103,7777,-1,-1,0
-48.84,8.25,15.15,1185,2090,7776,0,-1,-1
-48.84,8.25,15.16,1191,2090,7783,0,-1,-1
-48.83,8.26,15.17,1182,2093,7773,0,-1,-1
-48.83,8.27,15.19,1197,2079,7799,0,0,0
-48.83,8.26,15.21,1184,2129,7795,0,0,0
-48.84,8.26,15.23,1164,2128,7789,0,-1,0
-48.85,8.27,15.22,1189,2091,7781,0,-1,0
-48.85,8.26,15.24,1200,2110,7772,0,0,-1
-48.86,8.26,15.26,1173,2148,7752,0,0,0
-48.85,8.27,15.26,1182,2154,7779,-1,-1,0
-48.86,8.26,15.25,1179,2142,7771,-1,0,0
-48.87,8.26,15.23,1171,2131,7775,-1,0,0
-48.87,8.27,15.21,1178,2113,7784,-1,-1,0
-48.88,8.28,15.20,1178,2109,7796,-1,-1,0
-48.88,8.28,15.20,1183,2109,7788,-1,-1,0
-48.89,8.29,15.19,1188,2091,7762,-1,-1,0
-48.89,8.30,15.18,1193,2084,7761,0,0,0
-48.88,8.30,15.19,1186,2102,7769,0,-1,0
-48.89,8.31,15.20,1186,2109,7777,0,-1,-1
-48.89,8.31,15.20,1178,2118,7780,0,-1,0
-48.89,8.32,15.21,1187,2124,7766,0,-1,0
-48.89,8.32,15.21,1190,2135,7767,-1,-1,0
-48.90,8.34,15.21,1196,2136,7756,-1,-1,0
-48.90,8.34,15.20,1194,2126,7754,-1,-1,0
-48.91,8.34,15.19,1196,2114,7765,-1,0,0
-48.91,8.35,15.19,1189,2115,7776,-1,-1,0
-48.91,8.35,15.19,1186,2109,7783,-1,-1,-1
-48.91,8.35,15.18,1183,2096,7778,-1,-1,0
-48.91,8.36,15.18,1195,2093,7785,0,-1,0
-48.92,8.37,15.19,1203,2102,7782,0,-1,0
-48.92,8.38,15.19,1196,2105,7774,0,-1,0
-48.92,8.39,15.20,1207,2106,7763,0,-1,-1
-48.92,8.39,15.20,1197,2114,7760,0,0,0
-48.92,8.39,15.20,1193,2120,7771,-1,-1,0
-48.92,8.40,15.20,1196,2121,7773,-1,-1,0
-48.93,8.41,15.20,1198,2117,7766,-1,-1,0
-48.93,8.42,15.19,1208,2112,7774,-1,-1,0
-48.94,8.43,15.19,1212,2104,7780,-1,-1,0
-48.94,8.44,15.18,1217,2100,7772,-1,-1,0
-48.94,8.44,15.18,1202,2098,7771,0,-1,-1
-48.94,8.44,15.19,1201,2092,7773,0,0,-1
-48.94,8.44,15.20,1200,2109,7776,0,-1,-1
-48.94,8.44,15.21,1199,2118,7779,0,-1,0
-48.94,8.44,15.22,1199,2127,7772,0,-1,0
-48.95,8.45,15.23,1211,2128,7763,0,-1,0
-48.94,8.45,15.23,1214,2122,7760,0,0,0
-48.95,8.45,15.23,1218,2106,7763,0,0,-1
-48.94,8.44,15.23,1201,2116,7765,-1,0,-1
-48.95,8.43,15.23,1198,2101,7764,0,0,0
-48.95,8.43,15.23,1214,2106,7772,0,0,-1
-48.95,8.42,15.24,1200,2102,7776,-1,0,0
-48.95,8.43,15.24,1217,2095,7759,0,0,0
-48.95,8.41,15.26,1207,2104,7779,0,0,0
-48.96,8.41,15.27,1182,2108,7777,0,-1,0
-48.96,8.42,15.28,1229,2104,7762,1,0,-1
-48.95,8.40,15.31,1183,2149,7781,0,0,-1
-48.95,8.41,15.31,1223,2121,7766,0,0,0
-48.97,8.40,15.32,1197,2143,7780,0,0,0
-48.97,8.39,15.32,1201,2132,7775,0,0,0
-48.98,8.39,15.32,1211,2134,7760,0,0,-1
-48.96,8.38,15.33,1173,2162,7771,-1,-1,0
-48.98,8.40,15.31,1198,2127,7759,-1,-1,0
-48.97,8.39,15.30,1226,2119,7768,0,1,-1
-48.98,8.37,15.30,1188,2120,7774,-1,0,0
-48.97,8.38,15.28,1205,2106,7766,-1,-1,-1
-48.97,8.38,15.28,1207,2091,7763,0,0,-1
-48.96,8.37,15.29,1180,2100,7760,0,-1,-1
-48.96,8.38,15.30,1215,2121,7751,-1,0,-1
-48.95,8.37,15.31,1206,2135,7738,0,0,-1
-48.95,8.35,15.31,1199,2139,7740,0,0,-1
-48.95,8.35,15.31,1187,2134,7767,-1,-1,0
-48.94,8.34,15.32,1198,2145,7772,0,0,-1
-48.94,8.34,15.31,1183,2117,7763,-1,-1,0
-48.95,8.34,15.33,1256,2090,7792,1,1,-1
-48.93,8.30,15.37,1166,2153,7790,0,0,-1
-48.93,8.31,15.37,1228,2090,7768,1,0,-1
-48.93,8.27,15.40,1216,2138,7783,0,2,-1
-48.93,8.24,15.40,1155,2080,7767,0,-1,-1
-48.92,8.24,15.46,1220,2163,7750,1,2,-1
-48.92,8.20,15.47,1114,2169,7791,-1,-1,0
-48.92,8.21,15.48,1172,2153,7747,0,0,-1
-48.92,8.19,15.49,1143,2184,7758,0,0,0
-48.93,8.20,15.48,1183,2129,7734,-1,-1,0
-48.92,8.19,15.50,1195,2182,7782,-1,1,-1
-48.93,8.17,15.46,1162,2128,7747,-1,-1,-1
-48.92,8.18,15.47,1198,2158,7761,0,0,-1
-48.92,8.15,15.48,1145,2148,7772,-1,0,0
-48.92,8.15,15.45,1175,2119,7784,-1,-1,0
-48.93,8.15,15.46,1166,2151,7766,0,0,-1
-48.92,8.15,15.44,1138,2137,7754,-1,-1,-1
-48.93,8.17,15.43,1203,2098,7747,0,0,-1
-48.92,8.17,15.45,1184,2165,7754,0,0,-1
-48.91,8.16,15.46,1161,2186,7774,-1,-1,-1
-48.91,8.16,15.45,1175,2168,7774,-1,0,-1
-48.91,8.17,15.43,1170,2164,7785,-1,-1,0
-48.91,8.17,15.41,1169,2140,7753,-1,-1,0
-48.92,8.18,15.40,1192,2130,7737,-1,0,-1
-48.91,8.18,15.38,1185,2139,7770,-1,0,-1
-48.90,8.17,15.37,1167,2129,7783,-1,0,-1
-48.90,8.17,15.36,1171,2125,7767,-1,-1,-1
-48.89,8.17,15.35,1164,2134,7785,-1,-1,-1
-48.89,8.17,15.34,1169,2138,7772,-1,0,-1
-48.90,8.17,15.33,1172,2133,7780,-1,-1,-1
-48.89,8.17,15.33,1174,2113,7783,0,-1,-1
-48.88,8.17,15.33,1178,2128,7778,0,0,-1
-48.88,8.17,15.34,1183,2142,7753,-1,0,-1
-48.87,8.15,15.33,1176,2139,7763,-1,0,-1
-48.87,8.14,15.33,1173,2142,7775,-1,0,-1
-48.87,8.12,15.33,1159,2155,7783,-1,0,-1
-48.86,8.13,15.32,1158,2143,7787,-1,0,-1
-48.86,8.13,15.31,1165,2121,7782,-1,-1,-1
-48.86,8.13,15.31,1174,2120,7762,-1,0,-1
-48.86,8.12,15.30,1167,2120,7761,-1,0,-1
-48.85,8.11,15.30,1160,2112,7773,-1,0,-1
-48.86,8.10,15.29,1159,2109,7766,-1,0,-1
-48.84,8.09,15.29,1149,2129,7771,-1,0,-1
-48.84,8.09,15.29,1151,2127,7777,-1,0,-1
-48.85,8.08,15.29,1155,2128,7778,-1,0,-1
-48.84,8.08,15.28,1151,2128,7769,-1,0,-1
-48.84,8.08,15.28,1160,2130,7761,-1,0,-1
-48.84,8.07,15.28,1161,2137,7758,-1,0,-1
-48.83,8.07,15.27,1160,2136,7763,-1,0,-1
-48.83,8.05,15.26,1154,2134,7782,-1,0,-1
-48.83,8.05,15.25,1151,2120,7785,-1,0,-1
-48.83,8.05,15.24,1153,2114,7795,-1,0,-1
-48.83,8.04,15.23,1151,2110,7787,-1,0,-1
-48.83,8.04,15.22,1148,2108,7781,-1,0,-1
-48.83,8.03,15.22,1145,2107,7784,-1,0,-1
-48.82,8.02,15.21,1145,2106,7780,-1,0,-1
-48.82,8.01,15.21,1148,2106,7776,-1,0,-1
-48.81,8.01,15.21,1147,2106,7774,-1,0,-1
-48.81,8.01,15.21,1147,2113,7776,0,0,-1
-48.80,8.01,15.21,1160,2122,7770,0,0,-1
-48.80,8.01,15.21,1159,2134,7769,-1,0,-1
-48.79,8.00,15.20,1155,2121,7766,-1,0,0
-48.79,7.99,15.19,1147,2113,7773,-1,0,-1
-48.80,7.98,15.18,1138,2104,7775,-1,0,-1
-48.79,7.98,15.17,1127,2107,7789,-1,0,-1
-48.79,7.98,15.17,1131,2093,7800,-1,-1,-1
-48.79,7.98,15.17,1137,2104,7786,0,0,-1
-48.79,7.98,15.18,1146,2103,7772,0,-1,-1
-48.78,7.99,15.18,1150,2103,7774,0,-1,-1
-48.78,7.98,15.18,1152,2113,7772,0,0,-1
-48.78,7.98,15.19,1151,2125,7775,-1,0,-1
-48.78,7.98,15.18,1140,2125,7780,-1,0,-1
-48.78,7.98,15.18,1136,2127,7782,-1,0,0
-48.78,7.99,15.17,1131,2123,7780,-1,-1,0
-48.78,7.99,15.17,1136,2116,7788,-1,-1,-1
-48.78,8.00,15.17,1145,2109,7781,-1,-1,0
-48.78,8.01,15.16,1158,2085,7779,-1,-1,-1
-48.78,8.01,15.15,1158,2080,7783,0,-1,-1
-48.78,8.02,15.16,1147,2087,7779,0,-1,-1
-48.77,8.02,15.17,1145,2092,7785,0,-1,-1
-48.77,8.02,15.17,1135,2104,7777,0,-1,-1
-48.77,8.03,15.17,1138,2100,7776,0,-1,-1
-48.78,8.03,15.18,1138,2110,7784,-1,-1,0
-48.78,8.04,15.19,1142,2121,7776,0,-1,-1
-48.77,8.05,15.19,1137,2124,7773,-1,-1,0
-48.78,8.06,15.19,1156,2127,7781,-1,-1,0
-48.78,8.07,15.18,1162,2118,7782,-1,-1,0
-48.78,8.08,15.17,1158,2110,7792,-1,-1,0
-48.78,8.09,15.17,1169,2103,7789,-1,-1,0
-48.78,8.09,15.16,1164,2100,7781,0,-1,0
-48.79,8.10,15.17,1162,2094,7783,0,-1,-1
-48.79,8.10,15.17,1159,2101,7776,0,-1,-1
-48.79,8.11,15.18,1153,2105,7776,0,-1,-1
-48.79,8.11,15.18,1155,2104,7773,0,-1,-1
-48.79,8.12,15.18,1153,2116,7775,0,-1,-1
-48.79,8.12,15.19,1156,2126,7762,0,-1,-1
-48.79,8.13,15.19,1171,2124,7770,0,-1,-1
-48.79,8.14,15.19,1172,2126,7772,-1,-1,0
-48.79,8.14,15.19,1173,2127,7776,-1,-1,0
-48.79,8.14,15.19,1175,2124,7770,-1,-1,0
-48.80,8.15,15.19,1174,2109,7768,-1,0,0
-48.80,8.15,15.18,1167,2111,7782,-1,-1,0
-48.80,8.16,15.18,1169,2112,7789,0,-1,0
-48.80,8.16,15.18,1167,2116,7790,0,-1,-1
-48.79,8.17,15.19,1176,2114,7780,0,0,-1
-48.78,8.16,15.19,1172,2110,7769,-1,0,-1
-48.78,8.17,15.19,1177,2099,7765,0,0,-1
-48.78,8.17,15.19,1175,2101,7777,0,0,-1
-48.77,8.17,15.21,1175,2121,7778,0,0,-1
-48.77,8.15,15.22,1150,2135,7775,-1,0,0
-48.79,8.16,15.21,1166,2116,7766,-1,-1,0
-48.79,8.17,15.21,1164,2130,7772,-1,-1,0
-48.79,8.17,15.20,1165,2119,7775,-1,-1,0
-48.80,8.18,15.19,1180,2084,7769,-1,-1,0
-48.80,8.18,15.19,1176,2077,7767,0,0,-1
-48.80,8.18,15.19,1178,2086,7775,0,0,0
-48.81,8.18,15.19,1186,2081,7778,0,-1,-1
-48.80,8.18,15.20,1180,2094,7789,0,0,-1
