Yaw,Pitch,Roll,AX,AY,AZ,GX,GY,GZ
-49.75,8.74,15.51,1274,2206,7751,-2,0,0
-49.76,8.74,15.48,1264,2161,7755,-1,0,0
-49.77,8.75,15.46,1251,2137,7743,-1,-1,0
-49.78,8.75,15.44,1236,2132,7745,-1,-1,0
-49.79,8.77,15.42,1239,2129,7756,-1,-1,0
-49.79,8.79,15.41,1238,2127,7776,-1,-1,0
-49.80,8.80,15.39,1241,2115,7783,-1,-1,0
-49.80,8.82,15.38,1255,2122,7783,-1,-1,0
-49.80,8.83,15.38,1258,2121,7774,-1,-1,0
-49.80,8.85,15.36,1255,2125,7758,-1,-1,0
-49.81,8.87,15.35,1271,2123,7731,-1,-1,0
-49.82,8.88,15.36,1282,2162,7716,0,0,0
-49.82,8.87,15.37,1238,2117,7738,0,0,0
-49.81,8.88,15.36,1218,2015,7791,0,-1,-1
-49.80,8.89,15.39,1222,1979,7800,2,-1,-1
-49.76,8.92,15.48,1232,2020,7775,3,-3,-2
-49.71,8.98,15.59,1288,2061,7738,3,-3,-2
-49.66,9.03,15.71,1333,2102,7705,3,-2,-2
-49.60,9.07,15.82,1341,2160,7677,3,-2,-2
-49.56,9.08,15.93,1349,2255,7692,2,-1,-2
-49.53,9.09,16.01,1325,2310,7722,1,-1,-1
-49.51,9.08,16.05,1288,2331,7743,0,-1,-1
-49.51,9.08,16.07,1285,2342,7772,-1,-1,0
-49.51,9.08,16.07,1290,2321,7751,-1,0,0
-49.54,9.08,16.04,1297,2283,7730,-1,0,0
-49.55,9.09,16.03,1313,2243,7703,-1,0,0
-49.56,9.08,16.01,1310,2219,7694,-1,0,0
-49.57,9.06,15.98,1305,2221,7709,-1,0,0
-49.56,9.04,15.96,1296,2235,7742,-2,0,0
-49.57,9.02,15.92,1285,2204,7767,-2,0,-1
-49.58,9.01,15.90,1267,2172,7766,-1,0,-1
-49.58,9.01,15.89,1245,2156,7756,0,-1,0
-49.57,9.04,15.91,1266,2164,7729,0,-2,-1
-49.57,9.07,15.93,1295,2182,7702,0,-1,-1
-49.56,9.09,15.95,1334,2210,7691,0,0,-1
-49.56,9.08,15.95,1335,2237,7691,-1,0,-1
-49.55,9.07,15.94,1323,2237,7726,-1,0,-1
-49.55,9.06,15.93,1294,2223,7761,-1,0,-1
-49.54,9.05,15.92,1255,2206,7782,-1,-1,-1
-49.54,9.06,15.92,1232,2187,7774,0,-1,0
-49.54,9.08,15.93,1222,2165,7773,0,-2,0
-49.54,9.12,15.95,1245,2166,7745,1,-2,0
-49.54,9.16,15.99,1286,2192,7699,1,-2,-1
-49.53,9.21,16.03,1341,2231,7663,0,-1,0
-49.53,9.24,16.05,1384,2269,7636,0,-1,0
-49.53,9.25,16.06,1404,2288,7643,-1,0,-1
-49.53,9.26,16.05,1405,2279,7675,-1,0,-1
-49.53,9.24,16.02,1375,2251,7687,-1,0,0
-49.54,9.22,16.00,1345,2221,7692,-1,0,0
-49.56,9.21,16.00,1320,2237,7704,-1,0,0
-49.56,9.19,15.98,1285,2246,7743,-2,0,-1
-49.56,9.18,15.93,1273,2219,7777,-2,0,-1
-49.57,9.16,15.87,1269,2174,7787,-2,0,0
-49.58,9.13,15.81,1244,2130,7783,-2,0,0
-49.59,9.12,15.77,1243,2104,7781,-1,0,0
-49.59,9.12,15.74,1253,2088,7772,-1,-1,-1
-49.59,9.12,15.74,1278,2099,7761,0,-1,-1
-49.58,9.13,15.75,1301,2134,7723,0,-1,-1
-49.57,9.14,15.77,1324,2189,7679,0,0,-1
-49.55,9.14,15.78,1343,2251,7657,-1,0,-1
-49.55,9.14,15.78,1364,2273,7658,-2,0,-1
-49.55,9.11,15.74,1351,2278,7674,-2,1,0
-49.56,9.09,15.69,1349,2255,7704,-3,1,0
-49.58,9.06,15.62,1330,2202,7738,-3,1,0
-49.59,9.03,15.56,1300,2159,7765,-2,1,-1
-49.59,9.00,15.52,1275,2118,7789,-1,0,-1
-49.59,8.99,15.50,1261,2101,7796,-1,0,-1
-49.60,8.98,15.48,1265,2098,7786,-1,0,-1
-49.59,8.98,15.49,1273,2111,7754,0,0,-1
-49.58,8.98,15.49,1283,2123,7749,-1,0,-1
-49.57,8.97,15.48,1296,2142,7743,-1,0,-1
-49.55,8.95,15.48,1293,2151,7747,-1,0,-1
-49.55,8.94,15.48,1269,2160,7761,-1,0,-1
-49.54,8.93,15.48,1261,2160,7761,-1,0,-1
-49.54,8.92,15.48,1251,2174,7761,-1,0,-1
-49.53,8.92,15.48,1254,2194,7758,-1,-1,-1
-49.53,8.93,15.46,1256,2176,7741,-1,-1,0
-49.54,8.93,15.43,1267,2150,7730,-2,0,0
-49.56,8.93,15.39,1271,2118,7755,-2,0,0
-49.56,8.92,15.35,1285,2082,7768,-2,0,-1
-49.56,8.90,15.31,1286,2054,7762,-1,0,-1
-49.56,8.89,15.28,1284,2041,7756,-1,0,-1
-49.54,8.87,15.28,1286,2059,7731,0,0,-1
-49.53,8.85,15.29,1290,2110,7700,0,0,-1
-49.51,8.82,15.31,1309,2174,7693,-1,1,-1
-49.51,8.79,15.31,1310,2230,7713,-1,1,-1
-49.50,8.76,15.30,1302,2260,7740,-2,1,-1
-49.51,8.73,15.26,1261,2235,7780,-3,1,0
-49.53,8.70,15.20,1239,2151,7768,-2,0,0
-49.55,8.69,15.16,1228,2093,7752,-1,0,0
-49.57,8.68,15.17,1235,2097,7756,0,0,0
-49.58,8.67,15.17,1245,2133,7770,-1,0,0
-49.58,8.64,15.14,1233,2145,7777,-2,1,0
-49.59,8.60,15.06,1203,2101,7797,-3,1,-1
-49.60,8.56,14.97,1157,2032,7830,-3,0,-1
-49.61,8.53,14.88,1132,1951,7861,-2,0,-1
-49.61,8.53,14.84,1135,1884,7878,0,-1,-1
-49.60,8.54,14.85,1163,1877,7868,2,-2,-1
-49.58,8.57,14.93,1210,1932,7811,3,-2,-1
-49.55,8.60,15.03,1278,2034,7721,3,-1,-1
-49.51,8.62,15.16,1321,2172,7650,3,0,-1
-49.49,8.62,15.26,1338,2321,7624,1,0,-1
-49.47,8.61,15.29,1323,2394,7655,-2,1,-1
-49.49,8.58,15.25,1289,2388,7721,-4,1,0
-49.51,8.54,15.13,1224,2253,7811,-5,1,0
-49.56,8.49,15.00,1152,2080,7876,-4,1,0
-49.59,8.46,14.88,1100,1954,7908,-2,0,0
-49.61,8.46,14.82,1071,1863,7898,-1,-1,0
-49.62,8.48,14.81,1099,1815,7836,1,-2,0
-49.61,8.51,14.87,1174,1871,7775,3,-1,-1
-49.59,8.53,14.97,1239,2010,7739,3,-1,-1
-49.56,8.55,15.06,1284,2137,7720,1,0,-1
-49.55,8.54,15.09,1305,2219,7705,-1,0,-1
-49.55,8.52,15.09,1279,2237,7707,-2,1,-1
-49.56,8.49,15.06,1256,2189,7720,-2,1,0
-49.58,8.47,15.02,1243,2143,7736,-2,1,0
-49.59,8.45,15.00,1234,2126,7756,-1,0,0
-49.60,8.43,14.97,1221,2114,7786,-1,0,0
-49.62,8.42,14.93,1213,2086,7800,-2,0,0
-49.63,8.39,14.88,1200,2035,7803,-2,0,-1
-49.63,8.37,14.84,1187,1988,7793,-1,0,-1
-49.63,8.34,14.81,1159,1981,7823,-1,0,-1
-49.62,8.33,14.81,1159,1982,7840,0,0,-1
-49.61,8.32,14.83,1166,2009,7835,1,0,-1
-49.60,8.31,14.85,1154,2055,7847,0,0,-1
-49.58,8.29,14.85,1138,2084,7866,-1,0,-1
-49.57,8.28,14.82,1127,2050,7884,-2,-1,-1
-49.56,8.27,14.77,1122,2000,7866,-1,-1,-1
-49.55,8.28,14.75,1122,1959,7833,0,-1,-1
-49.52,8.30,14.77,1143,1947,7771,1,-1,-1
-49.50,8.33,14.83,1196,1984,7716,2,-1,-1
-49.47,8.36,14.91,1276,2054,7641,2,-1,-1
-49.45,8.37,15.02,1312,2191,7619,2,0,-1
-49.42,8.39,15.09,1342,2313,7634,0,0,-1
-49.42,8.39,15.10,1348,2346,7667,-2,1,0
-49.43,8.36,15.05,1302,2294,7714,-3,1,0
-49.45,8.30,14.97,1221,2207,7787,-3,1,0
-49.47,8.24,14.87,1120,2108,7876,-4,1,0
-49.50,8.20,14.74,1035,1963,7951,-4,0,0
-49.51,8.19,14.63,993,1806,7953,-2,-1,0
-49.51,8.20,14.60,1003,1708,7919,1,-2,-1
-49.48,8.23,14.66,1064,1723,7856,4,-2,-1
-49.45,8.29,14.80,1163,1869,7787,5,-3,-2
-49.39,8.34,14.97,1264,2074,7750,5,-2,-2
-49.33,8.37,15.13,1319,2271,7716,2,-1,-2
-49.28,8.38,15.22,1305,2387,7697,0,0,-1
-49.28,8.38,15.24,1273,2401,7687,-2,0,0
-49.30,8.39,15.21,1223,2342,7730,-3,-1,1
-49.34,8.41,15.16,1178,2245,7779,-3,-1,1
-49.37,8.44,15.08,1163,2119,7816,-3,-1,1
-49.41,8.46,15.00,1150,1985,7816,-2,-1,0
-49.43,8.47,14.95,1145,1903,7795,0,-1,0
-49.43,8.49,14.95,1166,1873,7771,1,-1,-1
-49.42,8.51,14.97,1209,1908,7737,1,-1,-1
-49.41,8.52,15.03,1258,2015,7708,1,0,-1
-49.39,8.51,15.08,1277,2131,7699,0,0,-1
-49.38,8.49,15.09,1273,2206,7701,-2,1,-1
-49.38,8.44,15.05,1234,2230,7729,-3,1,0
-49.40,8.40,14.97,1190,2173,7753,-4,1,0
-49.42,8.37,14.85,1161,2068,7776,-4,1,0
-49.44,8.35,14.76,1158,1983,7778,-2,0,0
-49.45,8.33,14.73,1173,1968,7802,-1,0,0
-49.45,8.33,14.75,1209,2031,7817,0,0,0
-49.46,8.34,14.78,1261,2126,7821,0,-1,0
-49.46,8.36,14.79,1289,2166,7783,-1,0,0
-49.47,8.34,14.77,1281,2180,7720,-2,1,0
-49.48,8.30,14.76,1247,2215,7682,-2,1,0
-49.49,8.25,14.73,1188,2273,7720,-4,1,0
-49.52,8.20,14.59,1129,2281,7832,-7,1,1
-49.57,8.17,14.34,1084,2163,7962,-11,0,1
-49.64,8.17,14.01,1041,1863,8013,-10,-1,1
-49.70,8.20,13.76,1020,1553,7964,-5,-2,0
-49.71,8.25,13.69,1058,1431,7835,2,-3,-1
-49.69,8.33,13.78,1137,1534,7750,5,-3,-2
-49.64,8.40,13.93,1221,1747,7746,4,-3,-3
-49.56,8.44,14.03,1272,1953,7807,1,-2,-3
-49.50,8.45,14.06,1304,2053,7863,-1,-1,-2
-49.46,8.45,14.08,1286,2104,7858,0,-1,-1
-49.43,8.44,14.10,1246,2133,7841,-1,0,-1
-49.41,8.43,14.11,1190,2134,7823,-1,-1,-1
-49.42,8.45,14.13,1195,2125,7752,0,-1,0
-49.45,8.48,14.17,1201,2253,7761,-1,-1,1
-49.51,8.53,14.13,1190,2263,7888,-3,-2,3
-49.63,8.61,14.02,1097,2077,8059,-5,-4,4
-49.73,8.67,13.78,1030,1686,8103,-6,-3,2
-49.82,8.76,13.63,991,1344,7981,1,-5,2
-49.86,8.89,13.70,979,1215,7765,9,-7,0
-49.85,9.11,13.99,1048,1179,7658,15,-10,-1
-49.75,9.37,14.50,1183,1415,7610,20,-11,-4
-49.56,9.64,15.09,1346,1797,7646,18,-11,-5
-49.36,9.87,15.64,1429,2053,7671,16,-10,-7
-49.13,10.10,16.13,1515,2287,7645,14,-10,-7
-48.92,10.31,16.54,1522,2456,7626,9,-9,-6
-48.74,10.49,16.86,1527,2526,7568,8,-8,-5
-48.58,10.67,17.12,1538,2536,7493,7,-8,-5
-48.42,10.84,17.40,1580,2623,7499,7,-8,-5
-48.28,11.02,17.60,1672,2685,7584,3,-8,-4
-48.18,11.20,17.70,1744,2636,7592,1,-6,-3
-48.11,11.33,17.77,1765,2617,7592,1,-4,-3
-48.05,11.38,17.80,1709,2658,7636,-3,-2,-2
-48.02,11.39,17.67,1629,2531,7752,-7,-1,-2
-48.02,11.36,17.45,1552,2210,7806,-5,0,-1
-48.02,11.35,17.38,1511,1993,7841,3,-1,-1
-48.00,11.35,17.53,1523,2064,7843,8,-2,-1
-47.92,11.36,17.81,1507,2318,7853,8,-2,-3
-47.81,11.38,18.00,1495,2503,7818,3,-3,-4
-47.69,11.40,18.08,1507,2454,7652,0,-3,-4
-47.58,11.43,18.13,1520,2319,7403,2,-3,-4
-47.50,11.48,18.29,1573,2335,7202,6,-3,-3
-47.40,11.56,18.54,1676,2504,7129,6,-3,-4
-47.26,11.64,18.81,1813,2709,7192,7,-3,-5
-47.12,11.70,19.09,1930,2979,7360,4,-3,-5
-47.01,11.72,19.19,1918,3092,7546,-2,-1,-3
-46.96,11.68,19.10,1831,2854,7607,-5,1,-2
-46.97,11.64,18.99,1716,2592,7572,-2,1,-1
-46.99,11.59,18.97,1610,2478,7543,1,0,0
-47.01,11.57,19.01,1589,2422,7459,2,0,0
-47.03,11.57,19.09,1621,2496,7374,3,0,0
-47.03,11.56,19.18,1677,2622,7350,1,0,0
-47.03,11.55,19.19,1728,2665,7395,-1,1,-1
-47.04,11.49,19.14,1763,2621,7483,-2,3,-1
-47.05,11.42,19.11,1773,2555,7533,1,3,-1
-47.05,11.33,19.17,1710,2554,7579,3,3,-1
-47.03,11.24,19.28,1650,2572,7598,4,2,-1
-46.99,11.17,19.41,1570,2593,7597,4,1,-2
-46.93,11.11,19.52,1486,2600,7607,3,0,-3
-46.86,11.06,19.62,1432,2587,7619,3,0,-3
-46.79,11.01,19.75,1395,2611,7657,5,0,-2
-46.72,10.98,19.92,1388,2727,7734,5,-2,-2
-46.66,10.99,20.08,1381,2787,7772,4,-3,-2
-46.61,11.03,20.21,1365,2760,7770,4,-4,-1
-46.58,11.14,20.36,1408,2710,7672,6,-6,-1
-46.54,11.29,20.56,1460,2697,7501,7,-7,-1
-46.49,11.46,20.78,1543,2739,7324,6,-7,-1
-46.44,11.63,21.01,1620,2816,7196,6,-6,-2
-46.36,11.77,21.22,1701,2933,7162,4,-5,-2
-46.28,11.87,21.36,1787,3016,7173,2,-3,-3
-46.22,11.91,21.43,1836,3063,7207,0,-1,-2
-46.18,11.91,21.45,1841,3076,7267,-2,0,-2
-46.17,11.89,21.40,1800,3064,7346,-3,0,-1
-46.18,11.87,21.33,1762,3018,7399,-4,1,0
-46.20,11.83,21.21,1707,2924,7436,-4,1,0
-46.24,11.77,21.08,1654,2818,7479,-4,2,0
-46.27,11.70,20.95,1620,2746,7507,-3,2,0
-46.30,11.66,20.88,1610,2701,7507,-1,1,0
-46.31,11.64,20.86,1612,2696,7518,0,0,-1
-46.30,11.62,20.88,1626,2720,7502,1,0,-1
-46.28,11.60,20.92,1643,2772,7470,1,0,-2
-46.24,11.58,20.96,1659,2815,7446,1,0,-2
-46.20,11.56,21.00,1649,2849,7434,1,0,-2
-46.16,11.54,21.05,1639,2861,7439,1,0,-2
-46.12,11.52,21.10,1638,2885,7435,1,0,-2
-46.07,11.50,21.16,1624,2900,7428,1,0,-2
-46.04,11.50,21.23,1635,2905,7419,2,-1,-2
-46.00,11.50,21.30,1642,2913,7415,2,-1,-1
-45.97,11.51,21.37,1650,2931,7398,2,-1,-1
-45.94,11.51,21.45,1655,2952,7385,1,-1,-1
-45.92,11.51,21.50,1635,2943,7363,1,-1,-1
-45.90,11.51,21.55,1639,2931,7361,1,-1,-1
-45.88,11.50,21.59,1640,2936,7345,1,0,-1
-45.86,11.48,21.64,1627,2941,7347,1,0,-1
-45.84,11.46,21.66,1625,2948,7366,0,0,-1
-45.82,11.44,21.68,1624,2953,7367,0,0,-1
-45.81,11.41,21.71,1624,2955,7382,0,0,-1
-45.79,11.39,21.73,1614,2954,7391,0,0,-1
-45.76,11.35,21.74,1607,2948,7378,0,0,-1
-45.73,11.32,21.76,1597,2971,7373,0,0,-2
-45.71,11.28,21.77,1597,2987,7390,-1,1,-1
-45.69,11.25,21.77,1595,2990,7400,-1,0,-1
-45.67,11.22,21.76,1599,2987,7414,-1,0,-1
-45.65,11.18,21.71,1567,2931,7439,-1,0,-1
-45.65,11.17,21.70,1550,2916,7444,-1,-1,-1
-45.64,11.18,21.70,1547,2912,7419,0,-1,-1
-45.63,11.19,21.72,1542,2939,7405,0,-1,-1
-45.62,11.21,21.73,1565,2958,7394,-1,-1,-1
-45.62,11.23,21.73,1588,2962,7368,-1,-1,-1
-45.62,11.25,21.72,1611,2976,7359,-1,-1,-1
-45.61,11.25,21.71,1625,2975,7367,-1,0,-1
-45.61,11.25,21.68,1628,2979,7372,-2,0,-1
-45.61,11.24,21.64,1625,2961,7384,-2,0,-1
-45.61,11.22,21.60,1609,2940,7418,-2,0,-1
-45.62,11.21,21.57,1598,2914,7432,-1,0,-1
-45.62,11.21,21.54,1581,2901,7432,-1,0,-1
-45.62,11.20,21.54,1574,2895,7429,0,-1,-1
-45.61,11.21,21.55,1573,2895,7413,0,-1,-1
-45.60,11.21,21.57,1589,2903,7414,0,-1,-1
-45.59,11.22,21.59,1587,2920,7387,0,-1,-1
-45.58,11.22,21.61,1594,2932,7379,0,0,-1
-45.56,11.21,21.64,1609,2940,7371,0,0,-1
-45.56,11.21,21.66,1628,2965,7355,0,0,-1
-45.55,11.20,21.69,1633,2985,7363,0,0,-1
-45.54,11.18,21.70,1634,3011,7371,-1,1,-1
-45.53,11.15,21.69,1618,3007,7401,-1,1,-1
-45.50,11.10,21.67,1587,2981,7414,-2,1,-1
-45.49,11.05,21.63,1560,2967,7416,-1,1,-1
-45.49,10.98,21.61,1490,3025,7422,-3,1,-1
-45.49,10.95,21.54,1420,2941,7436,-3,-1,-1
-45.46,10.97,21.48,1424,2776,7480,-1,-3,-2
-45.41,11.03,21.49,1445,2689,7498,2,-4,-3
-45.30,11.09,21.59,1472,2710,7462,4,-5,-4
-45.17,11.17,21.74,1534,2786,7399,4,-4,-4
-45.05,11.23,21.90,1567,2904,7353,4,-4,-4
-44.93,11.29,22.04,1611,3018,7333,3,-4,-4
-44.83,11.35,22.15,1655,3102,7335,1,-3,-3
-44.76,11.40,22.21,1683,3163,7351,0,-3,-2
-44.71,11.44,22.24,1684,3186,7365,-1,-2,-2
-44.69,11.47,22.23,1678,3188,7377,-2,-1,-1
-44.71,11.49,22.17,1641,3145,7393,-3,-1,0
-44.73,11.52,22.09,1615,3038,7402,-3,-2,0
-44.76,11.57,22.02,1611,2948,7402,-2,-2,0
-44.79,11.61,21.98,1611,2910,7425,-1,-2,0
-44.81,11.67,21.95,1631,2873,7423,-1,-2,0
-44.83,11.72,21.94,1662,2825,7399,0,-2,0
-44.83,11.77,21.98,1684,2826,7363,2,-2,-1
-44.79,11.82,22.09,1711,2887,7321,4,-2,-2
-44.73,11.86,22.22,1730,2990,7312,3,-2,-2
-44.67,11.90,22.31,1742,3037,7288,1,-2,-2
-44.61,11.91,22.37,1709,3072,7302,1,-2,-2
-44.54,11.91,22.40,1666,3085,7347,-1,-2,-3
-44.48,11.91,22.39,1628,3043,7386,-1,-1,-2
-44.44,11.91,22.42,1603,3039,7413,1,-2,-2
-44.39,11.92,22.47,1601,3044,7426,1,-2,-2
-44.34,11.94,22.51,1606,3040,7433,1,-3,-2
-44.28,11.98,22.57,1628,3025,7424,1,-3,-2
-44.23,12.03,22.65,1665,3026,7365,2,-3,-2
-44.17,12.08,22.75,1692,3123,7290,2,-2,-2
-44.11,12.09,22.82,1644,3176,7262,0,-3,-2
-44.03,12.13,22.84,1640,3109,7303,-1,-4,-3
-43.96,12.18,22.85,1693,3007,7315,0,-3,-3
-43.88,12.23,22.90,1741,2988,7265,1,-3,-3
-43.80,12.25,22.98,1773,3072,7228,2,-2,-3
-43.75,12.28,23.03,1798,3154,7219,-1,-2,-2
-43.72,12.30,23.04,1820,3177,7213,-2,-1,-1
-43.70,12.32,23.03,1837,3170,7228,-2,-1,-1
-43.68,12.32,23.02,1822,3166,7275,-1,-1,-1
-43.66,12.32,23.02,1790,3162,7291,-1,-1,-1
-43.65,12.33,23.01,1766,3152,7314,-1,-1,-1
-43.65,12.34,22.99,1743,3129,7321,-1,-1,-1
-43.66,12.33,22.94,1724,3122,7353,-2,0,0
-43.67,12.32,22.87,1698,3086,7377,-3,0,0
-43.68,12.32,22.79,1674,3025,7390,-2,-1,0
-43.70,12.35,22.76,1672,2985,7414,-1,-2,0
-43.71,12.41,22.76,1705,2971,7381,1,-3,0
-43.70,12.49,22.80,1725,2974,7367,1,-4,-1
-43.69,12.58,22.85,1747,3008,7344,1,-4,-1
-43.68,12.67,22.90,1757,3053,7333,1,-4,0
-43.67,12.76,22.93,1788,3072,7296,0,-4,-1
-43.65,12.85,22.95,1811,3067,7278,0,-4,-1
-43.64,12.92,22.97,1835,3047,7273,0,-3,-1
-43.62,12.99,22.98,1857,3046,7266,0,-3,-1
-43.59,13.04,23.04,1855,3071,7234,2,-3,-1
-43.56,13.10,23.12,1862,3117,7227,2,-3,-2
-43.53,13.16,23.20,1874,3169,7209,1,-3,-1
-43.50,13.24,23.26,1876,3206,7201,1,-4,-1
-43.47,13.31,23.32,1875,3232,7221,0,-3,-1
-43.44,13.37,23.33,1850,3239,7251,-1,-3,-1
-43.43,13.42,23.30,1818,3215,7321,-2,-3,-1
-43.42,13.46,23.24,1796,3166,7341,-3,-3,0
-43.43,13.52,23.20,1768,3201,7342,-2,-4,0
-43.46,13.61,23.12,1804,3190,7312,-5,-4,1
-43.48,13.71,23.02,1819,3115,7266,-3,-5,0
-43.47,13.83,22.98,1871,3100,7279,-2,-5,-1
-43.43,13.94,22.97,1963,3173,7252,-3,-5,-2
-43.36,14.04,22.93,1906,3299,7283,-5,-7,-2
-43.33,14.18,22.79,1915,3337,7268,-9,-7,-1
-43.35,14.38,22.55,2002,3299,7228,-12,-7,1
-43.42,14.54,22.24,2125,3200,7221,-13,-4,1
-43.51,14.66,21.91,2161,3191,7262,-13,-2,3
-43.59,14.72,21.48,2159,3002,7234,-17,0,0
-43.63,14.71,21.05,2100,2847,7320,-15,-1,1
-43.65,14.73,20.64,2040,2694,7293,-13,-2,-1
-43.59,14.74,20.36,2031,2544,7208,-9,0,-5
-43.48,14.70,20.18,1975,2567,7422,-7,-4,-2
-43.46,14.82,20.00,2015,2588,7452,-7,-6,-1
-43.48,15.06,19.94,2078,2669,7420,-3,-11,0
-43.50,15.29,19.94,2200,2773,7323,-2,-7,0
-43.53,15.46,19.88,2235,2911,7303,-6,-5,2
-43.60,15.61,19.69,2209,2982,7372,-10,-5,3
-43.71,15.75,19.38,2211,2899,7369,-13,-4,4
-43.83,15.84,18.95,2244,2588,7369,-13,-1,3
-43.94,15.88,18.56,2225,2325,7518,-10,-1,3
-44.09,15.97,18.25,2146,2233,7672,-7,-5,4
-44.23,16.14,18.03,2142,2248,7624,-7,-7,4
-44.36,16.35,17.85,2198,2283,7432,-5,-6,4
-44.48,16.56,17.69,2249,2314,7338,-6,-7,4
-44.57,16.75,17.51,2341,2273,7212,-7,-5,2
-44.61,16.89,17.35,2440,2175,7156,-4,-4,0
-44.60,16.99,17.26,2503,2194,7202,-3,-3,-2
-44.56,17.02,17.19,2526,2209,7184,-3,0,-3
-44.49,16.99,17.14,2506,2197,7278,-3,0,-3
-44.43,16.97,17.09,2485,2201,7413,-3,0,-2
-44.41,16.95,17.03,2440,2217,7520,-2,0,-1
-44.39,16.96,16.98,2399,2273,7526,-2,-1,0
-44.40,16.99,16.93,2362,2314,7496,-3,-2,0
-44.40,17.02,16.85,2287,2280,7461,-5,-3,0
-44.41,17.08,16.71,2211,2246,7489,-6,-4,1
-44.42,17.18,16.58,2232,2213,7406,-4,-4,-1
-44.37,17.25,16.53,2270,2202,7403,-2,-4,-2
-44.30,17.33,16.51,2338,2241,7432,-3,-5,-3
-44.20,17.43,16.48,2419,2223,7440,-3,-5,-4
-44.07,17.52,16.47,2410,2168,7487,-3,-5,-6
-43.89,17.57,16.44,2361,2095,7463,-4,-4,-7
-43.76,17.64,16.32,2381,2042,7515,-6,-5,-4
-43.72,17.75,16.17,2409,2109,7571,-7,-6,-1
-43.75,17.88,15.96,2480,2241,7505,-10,-4,2
-43.86,18.03,15.72,2555,2375,7428,-10,-4,4
-44.01,18.20,15.40,2638,2339,7357,-11,-4,6
-44.20,18.35,15.07,2612,2279,7380,-12,-4,7
-44.42,18.53,14.67,2662,2114,7382,-12,-4,8
-44.64,18.70,14.34,2693,2014,7437,-9,-5,7
-44.86,18.88,14.05,2724,1902,7420,-8,-4,7
-45.05,18.99,13.78,2710,1768,7381,-7,-2,6
-45.22,19.10,13.55,2698,1637,7405,-4,-3,5
-45.39,19.24,13.46,2743,1588,7336,1,-4,5
-45.56,19.39,13.49,2823,1601,7247,2,-3,5
-45.70,19.50,13.59,2743,1607,7265,7,-3,3
-45.79,19.57,13.78,2690,1749,7332,7,-2,2
-45.85,19.62,13.99,2648,1811,7388,8,-3,1
-45.91,19.72,14.19,2650,1841,7427,6,-5,1
-45.98,19.84,14.34,2659,1873,7520,5,-5,2
-46.07,19.98,14.44,2706,1872,7554,3,-6,2
-46.13,20.16,14.54,2748,1867,7576,3,-7,1
-46.18,20.34,14.65,2812,1874,7560,4,-7,1
-46.23,20.51,14.77,2851,1877,7487,5,-6,1
-46.29,20.67,14.92,2933,1979,7395,4,-5,1
-46.35,20.77,15.02,2988,2047,7226,2,-2,2
-46.41,20.79,15.04,3027,2101,7116,-2,2,2
-46.46,20.72,15.00,3072,2147,7149,-2,5,2
-46.53,20.58,14.94,3082,2181,7186,-3,8,2
-46.55,20.36,14.81,3011,2016,7239,-4,9,0
-46.55,20.09,14.69,2890,1873,7314,-2,8,0
-46.55,19.86,14.66,2791,1730,7287,2,8,-1
-46.51,19.60,14.69,2656,1709,7382,1,7,-3
-46.43,19.40,14.74,2548,1747,7523,3,4,-2
-46.41,19.32,14.84,2550,1859,7583,3,0,0
-46.45,19.34,14.92,2575,1986,7603,3,-3,2
-46.54,19.49,15.04,2709,2089,7546,4,-6,3
-46.70,19.72,15.17,2701,2239,7542,4,-9,7
-46.97,20.04,15.25,2750,2399,7632,2,-12,11
-47.47,20.53,15.13,2844,2292,7478,0,-13,20
-48.12,21.00,15.00,3013,2088,7531,2,-11,23
-48.95,21.49,14.82,3069,1873,7492,7,-12,29
-49.84,22.08,14.65,3259,1824,7203,4,-11,31
-50.73,22.57,14.53,3295,1659,6964,9,-6,29
-51.66,22.96,14.46,3325,1550,6923,14,-7,32
-52.61,23.44,14.55,3280,1666,6814,16,-10,32
-53.54,24.04,14.53,3294,1804,6573,8,-13,31
-54.40,24.62,14.54,3122,2061,6440,8,-15,30
-55.28,25.38,14.38,2991,2020,6088,0,-23,30
-55.93,26.21,14.32,2733,2197,5737,4,-27,16
-56.09,26.92,14.52,2544,2683,6458,-4,-32,5
-56.21,27.79,14.23,3103,2390,7136,-22,-33,1
-56.09,28.35,13.62,3815,1884,7926,-26,-18,-10
-55.65,28.51,12.90,4092,1738,8497,-40,-11,-14
-55.41,28.80,12.13,3972,964,8301,-17,-18,-8
-55.29,29.15,11.91,4288,788,7929,-4,-9,-9
-54.97,29.17,11.92,4335,1020,7421,-9,0,-14
-54.60,29.11,11.95,4073,866,6908,-1,0,-15
-54.26,29.08,12.19,3926,1041,6604,2,-2,-13
-53.95,29.08,12.41,4005,1200,6289,0,0,-12
-53.62,29.04,12.65,4054,1208,6271,3,1,-14
-53.21,28.91,13.02,4014,1460,6549,4,1,-15
-52.90,28.84,13.32,4061,1477,6750,5,-1,-11
-52.68,28.80,13.61,4125,1336,6956,8,0,-10
-52.40,28.71,13.98,4165,1438,7118,8,1,-13
-51.98,28.52,14.41,4029,1830,7327,5,2,-17
-51.56,28.43,14.69,3887,1918,7323,-1,-5,-14
-51.20,28.45,14.94,3936,1628,7085,4,-4,-15
-50.77,28.44,15.37,3720,1732,7014,6,-7,-18
-50.37,28.61,15.79,3532,1969,6897,3,-15,-14
-50.02,28.84,16.23,3660,2103,6877,5,-14,-14
-49.68,29.06,16.56,3990,2085,6679,-1,-8,-15
-49.26,29.07,16.81,4112,2005,6567,-1,-1,-17
-48.81,28.95,17.03,4074,1989,6571,0,1,-17
-48.33,28.75,17.32,4156,2147,6721,0,3,-17
-47.93,28.59,17.53,4089,2148,6696,1,2,-14
-47.58,28.42,17.83,3944,2147,6684,5,2,-13
-47.29,28.28,18.20,3727,2173,6687,8,0,-10
-47.07,28.20,18.54,3755,2240,6824,8,0,-9
-46.85,28.10,18.87,3845,2462,6839,5,-1,-8
-46.71,28.07,19.12,3778,2473,6894,6,-4,-4
-46.71,28.20,19.38,3782,2533,6877,6,-7,-1
-46.70,28.34,19.56,3860,2609,6858,2,-5,-2
-46.66,28.47,19.67,3864,2604,6853,0,-6,-2
-46.65,28.60,19.76,3878,2584,6846,1,-7,0
-46.66,28.81,19.85,3711,2552,6862,2,-11,-1
-46.66,29.06,19.93,3696,2478,6769,0,-12,0
-46.72,29.40,20.11,3814,2299,6704,8,-14,-1
-46.76,29.72,20.40,3888,2377,6651,5,-13,-1
-46.77,30.00,20.68,4079,2287,6601,9,-9,-3
-46.81,30.16,20.93,4463,2136,6346,8,1,-3
-46.75,30.08,21.19,4623,1984,6208,11,7,-7
-46.55,29.93,21.58,4443,2120,6331,12,1,-11
-46.22,29.82,22.03,4332,2665,6253,4,0,-13
-45.86,29.71,22.27,4054,2989,6417,-5,-3,-10
-45.66,29.71,22.28,3711,3045,6453,-5,-8,-5
-45.55,29.77,22.30,3780,3200,6601,-7,-3,-1
-45.54,29.73,22.07,3957,3021,6634,-9,3,1
-45.58,29.65,21.76,3951,2753,6731,-8,3,1
-45.49,29.65,21.63,3635,2852,6783,-6,-9,-5
-45.17,29.71,21.60,3583,3093,6837,-14,-11,-11
-44.73,29.82,21.57,3576,3147,6784,-15,-12,-16
-44.10,29.74,21.45,3837,2896,6733,-18,-2,-24
-43.37,29.47,21.28,3801,2698,6865,-17,-2,-25
-42.54,29.15,21.22,3779,2665,6869,-18,2,-29
-41.64,28.75,21.17,3890,2498,6850,-14,2,-30
-40.82,28.40,21.19,4017,2221,6720,-9,6,-29
-40.00,27.90,21.28,4146,1919,6557,-3,12,-30
-39.14,27.29,21.56,4060,1954,6600,1,12,-31
-38.20,26.64,21.85,3818,2034,6615,0,12,-35
-37.13,25.96,22.24,3456,2249,6700,-2,6,-38
-36.03,25.42,22.62,3359,2363,6653,-1,2,-39
-34.98,24.93,23.06,3449,2471,6783,1,3,-39
-33.97,24.53,23.61,3486,2640,6717,7,0,-37
-32.89,24.11,24.32,3467,2979,6753,6,-2,-43
-31.70,23.61,24.95,3340,3208,6745,2,0,-43
-30.45,23.10,25.58,3074,3482,6771,2,-3,-47
-29.08,22.46,26.13,2859,3527,6786,-1,-1,-49
-27.69,21.84,26.71,2971,3773,6809,-1,1,-52
-26.23,21.09,27.26,2994,4187,6891,-4,4,-49
-24.77,20.13,27.54,2827,4411,7102,-9,12,-51
-23.18,19.01,27.76,2985,4676,6953,-15,22,-56
-21.62,17.68,27.43,2750,4589,7062,-33,26,-47
-20.11,16.33,26.87,2306,4429,7097,-32,24,-47
-18.67,15.16,26.18,1635,4338,7106,-39,14,-41
-17.37,14.27,25.40,1330,3945,7016,-35,11,-41
-16.14,13.61,24.57,1267,3580,7081,-39,-2,-32
-15.15,13.22,23.86,1669,3509,7436,-29,3,-34
-14.17,12.76,23.11,1816,3604,7486,-39,8,-29
-13.21,12.10,22.14,1970,3445,7442,-39,15,-30
-12.41,11.51,21.11,2060,3154,7357,-43,16,-21
-11.79,10.93,20.07,1856,2721,7209,-34,15,-18
-11.19,10.42,19.31,1801,2460,7130,-27,13,-17
-10.73,10.00,18.70,1815,2376,7098,-20,10,-13
-10.50,9.92,18.22,1838,2412,7083,-18,0,-4
-10.41,10.00,17.83,1803,2317,7120,-13,-4,-3
-10.25,10.02,17.49,1770,2248,7222,-12,0,-6
-10.10,9.99,17.07,1678,2114,7285,-16,1,-4
-10.04,10.05,16.66,1564,2041,7327,-12,-5,0
-10.07,10.24,16.35,1583,2082,7480,-11,-6,2
-10.13,10.35,16.20,1603,2154,7622,-2,-3,1
-10.12,10.34,16.15,1593,2197,7641,-4,3,-3
-9.93,10.11,16.02,1578,2019,7707,-5,8,-10
-9.67,9.86,15.90,1663,1925,7644,-4,7,-8
-9.51,9.73,15.83,1550,1963,7718,-5,1,-4
-9.44,9.69,15.68,1573,1921,7630,-3,2,-2
-9.41,9.59,15.61,1590,1927,7690,-3,5,-1
-9.39,9.46,15.50,1503,1815,7662,0,5,-1
-9.31,9.23,15.54,1370,1829,7680,1,7,-5
-9.21,8.98,15.62,1363,1918,7726,3,8,-4
-9.15,8.80,15.76,1447,1985,7724,7,5,-2
-9.17,8.61,15.86,1461,2182,7790,0,7,1
-9.29,8.50,15.88,1439,2209,7788,0,7,5
-9.45,8.47,15.80,1343,2276,7640,-3,1,6
-9.66,8.50,15.69,1245,2344,7693,-5,1,8
-9.86,8.62,15.49,1098,2524,7795,-12,-6,8
-10.08,8.92,15.25,1112,2686,7813,-14,-8,9
-10.16,9.10,14.61,1111,2808,7979,-29,-5,5
-10.21,9.12,13.79,1225,2633,8242,-33,4,5
-10.19,9.09,12.80,1311,2425,8193,-38,1,3
-10.18,9.13,11.69,1292,2276,8252,-44,-2,4
-10.12,9.20,10.23,1309,2101,8357,-58,-5,5
-10.02,9.39,8.57,1314,1846,8323,-63,-8,4
-9.94,9.67,6.80,1318,1488,8022,-65,-12,7
-9.99,10.15,5.03,1339,1205,7968,-60,-20,13
-10.12,10.73,3.18,1331,1344,8225,-73,-20,13
-9.79,11.02,0.87,1378,1276,8182,-94,-8,-3
-9.24,11.10,-1.65,1362,874,7797,-91,0,-1
-8.45,10.92,-4.19,998,644,7771,-102,2,-17
-6.99,10.83,-7.62,780,1031,8013,-163,9,-31
-4.42,10.14,-12.75,692,492,7616,-215,30,-61
-2.00,10.42,-19.05,1350,-2261,6364,-209,-14,-25
-1.30,10.97,-23.83,1955,-5935,5592,-94,-13,25
-1.67,10.54,-25.36,1796,-6966,5456,9,19,13
-2.01,9.97,-24.63,1399,-5695,5843,38,14,-1
-2.21,9.74,-23.43,1177,-4448,6250,41,4,-2
-2.37,9.56,-22.39,1144,-3429,6717,28,6,-3
-2.44,9.56,-21.55,1264,-3130,6888,30,0,-4
-2.61,9.60,-20.51,1201,-3061,6945,41,-5,1
-3.01,9.72,-19.22,1229,-2837,7298,48,-7,3
-3.28,9.80,-17.84,1136,-2326,7846,42,-7,2
-3.46,10.14,-16.94,1459,-1825,8490,19,-17,-1
-3.38,10.62,-16.36,1758,-1842,8377,17,-6,-12
-3.14,11.00,-15.80,1722,-1723,8788,9,-21,-11
-2.93,11.75,-15.57,1891,-1691,8636,2,-25,-7
-2.77,12.48,-15.54,1934,-1787,8351,-1,-26,-7
-2.62,13.22,-15.59,1864,-1896,8056,-3,-26,-4
-2.59,13.86,-15.75,1824,-2051,7806,-5,-24,0
-2.61,14.44,-15.81,1932,-2162,7528,1,-22,0
-2.67,14.96,-15.74,2173,-2206,7390,7,-16,0
-2.78,15.37,-15.50,2343,-2295,7366,13,-12,0
-2.94,15.68,-15.05,2373,-2058,7529,16,-11,0
-3.07,15.96,-14.67,2397,-1880,7661,10,-10,0
-3.12,16.23,-14.38,2436,-1959,7691,11,-9,-2
-3.26,16.44,-13.97,2488,-2062,7739,18,-5,1
-3.52,16.48,-13.54,2461,-1910,7777,14,-2,4
-3.79,16.48,-13.19,2442,-1862,7801,12,-1,6
-4.17,16.30,-13.01,2414,-1828,7702,7,8,12
-4.64,15.82,-12.93,2346,-1942,7579,8,19,17
-5.37,14.94,-12.63,2169,-2206,7649,22,31,25
-6.49,13.57,-12.05,2014,-2836,7376,45,49,34
-7.98,11.82,-10.39,1895,-2855,7404,78,58,35
-9.14,10.24,-8.09,1522,-1865,7692,83,47,17
-9.71,9.28,-6.01,1196,-920,8027,61,22,2
-9.87,8.85,-4.43,998,-541,8107,47,8,-5
-9.78,8.78,-3.15,998,-357,8062,40,-1,-14
-9.50,8.92,-2.12,1136,-78,8025,26,-6,-16
-9.19,9.17,-1.52,1352,66,7932,11,-10,-15
-8.94,9.54,-1.10,1416,2,7721,14,-13,-10
-8.74,9.88,-0.66,1526,60,7741,12,-11,-10
-8.51,10.13,-0.33,1595,316,7945,4,-7,-11
-8.18,10.28,-0.38,1689,739,8116,-17,-3,-11
-7.83,10.25,-0.91,1542,704,8090,-27,3,-8
-7.48,10.03,-1.70,1424,566,8091,-36,9,-6
-7.15,9.75,-2.70,1056,696,7982,-44,6,-4
-6.92,9.63,-3.99,999,327,7902,-51,0,2
-6.86,9.61,-5.29,1032,-408,7740,-37,-1,5
-6.86,9.64,-6.19,1099,-674,7803,-28,-4,5
-6.83,9.75,-6.94,1084,-637,7915,-28,-7,1
-6.74,9.98,-7.74,1154,-796,7949,-30,-10,2
-6.59,10.23,-8.53,1242,-810,7908,-29,-9,-3
-6.14,10.40,-9.35,1045,-598,8212,-41,-7,-14
-5.41,10.60,-10.66,1049,-546,8556,-60,-6,-18
-4.39,10.92,-12.71,1261,-889,8389,-90,-11,-21
-3.44,11.35,-14.92,1467,-2164,7705,-69,-12,-16
-2.74,11.82,-16.70,1602,-3580,7184,-40,-14,-11
-2.37,12.13,-17.29,1850,-4187,7125,0,-4,-10
-2.28,12.24,-16.97,2048,-3955,7505,23,2,-6
-2.20,12.15,-16.31,2146,-3120,7955,18,9,-11
-1.85,12.01,-15.93,2231,-2662,8209,3,11,-15
-1.48,11.77,-15.72,2230,-2577,8320,6,16,-13
-1.21,11.43,-15.51,1975,-2277,8503,-2,13,-9
-1.00,11.13,-15.60,1636,-2006,8509,-11,9,-6
-0.78,10.97,-16.01,1451,-1904,8456,-23,5,-4
-0.61,10.83,-16.70,1467,-1948,8398,-32,4,0
-0.47,10.61,-17.75,1503,-2253,7865,-39,8,3
-0.37,10.37,-18.79,1499,-2655,7425,-32,7,3
-0.40,10.18,-19.54,1598,-2944,7180,-15,7,7
-0.57,9.93,-19.89,1751,-2742,7361,-13,8,9
-0.72,9.75,-20.35,1687,-2709,7417,-18,1,8
-0.93,9.85,-20.86,1487,-3026,7365,-13,-14,11
-1.25,10.25,-21.20,1255,-3416,7221,-1,-26,12
-1.64,10.80,-21.21,1243,-3688,7327,12,-28,11
-2.02,11.36,-20.90,1386,-3666,7308,22,-24,8
-2.35,11.95,-20.28,1488,-3207,7431,25,-26,4
-2.62,12.64,-19.71,1453,-3058,7603,22,-33,3
-2.94,13.48,-19.06,1690,-2968,7710,31,-35,3
-3.33,14.33,-18.28,1970,-2705,7841,30,-33,5
-3.74,15.10,-17.52,2290,-2459,7923,29,-27,6
-4.34,15.64,-16.85,2510,-2329,7983,25,-20,16
-5.16,15.83,-16.34,2682,-2881,7866,31,-6,23
-6.53,15.55,-15.17,2518,-3935,7703,87,5,34
-8.53,15.05,-12.22,2380,-4131,7339,146,12,29
-10.39,14.75,-7.74,2305,-3158,7184,181,6,10
-11.87,14.82,-2.80,2122,-853,7413,157,-10,4
-12.95,15.23,1.10,2084,1515,7809,96,-18,6
-13.64,15.71,2.87,1844,2452,7748,33,-21,12
-14.16,16.28,3.50,2052,2186,7535,10,-19,12
-14.61,16.78,3.71,2085,1854,7188,7,-16,12
-14.98,17.15,3.67,2339,1828,7237,-12,-10,15
-15.40,17.47,2.94,2390,1976,7244,-36,-10,25
-15.79,17.81,1.48,2577,1832,7289,-58,-9,27
-15.85,18.00,-0.49,2690,1152,7104,-68,-3,17
-15.95,18.22,-2.15,2691,376,7089,-47,-9,19
-15.80,18.18,-3.92,2991,70,7141,-69,13,9
-15.25,17.62,-5.96,2654,-262,7599,-74,20,3
-14.29,16.87,-8.16,2285,-340,7998,-89,26,-13
-12.48,16.18,-10.72,2000,1423,9110,-158,26,-36
-10.09,16.03,-15.90,2392,-94,8943,-205,-4,1
-8.90,16.45,-21.60,2173,-3457,7442,-161,-31,27
-8.39,16.58,-25.26,2249,-5716,5612,-59,-1,12
-8.14,16.31,-26.14,2587,-4908,5576,-9,15,-2
-7.92,16.22,-26.56,2643,-3361,6318,-34,1,3
-7.47,16.23,-27.81,2489,-3320,6456,-52,-1,3
-7.26,16.01,-29.26,2111,-4629,6275,-32,2,12
-7.65,15.69,-29.83,1659,-5582,5821,12,-2,14
-8.19,15.60,-29.27,1962,-5108,5810,36,-3,5
-8.62,15.65,-28.29,2520,-3841,6275,28,4,2
-8.93,15.66,-27.76,2414,-3351,7173,5,-9,8
-9.31,15.83,-27.66,2248,-3815,7238,15,-14,7
-9.72,16.09,-27.15,2254,-3805,7635,21,-17,4
-10.22,16.49,-26.58,2336,-3809,7673,28,-23,7
-10.85,16.94,-25.68,2546,-3643,7639,38,-19,6
-11.74,17.23,-24.51,2738,-3925,7367,58,-11,13
-13.21,17.07,-22.49,2480,-4393,7560,100,0,21
-15.08,16.95,-19.53,2423,-4001,7636,120,-10,15
-16.50,17.26,-16.30,2682,-2073,7600,100,-14,1
-17.30,17.80,-14.24,2712,-275,8142,35,-24,6
-17.63,18.46,-14.05,2634,249,7914,-19,-25,9
-17.71,18.98,-14.95,2253,-257,7322,-35,-24,13
-17.92,19.51,-16.10,2248,-1017,6700,-31,-26,19
-18.14,20.05,-17.18,2578,-1564,6511,-29,-24,15
-18.31,20.60,-18.24,2722,-2054,6445,-27,-24,14
-18.47,21.11,-19.15,2745,-2333,6735,-28,-27,11
-18.39,21.70,-20.18,2934,-2748,6502,-22,-18,5
-18.25,22.12,-20.94,3011,-2700,6914,-29,-18,3
-17.98,22.51,-21.85,3136,-3137,6955,-25,-16,1
-17.80,22.93,-22.52,3191,-3529,6954,-12,-19,-1
-17.71,23.48,-22.82,3235,-3608,6997,-3,-22,-6
-17.57,24.14,-22.94,3332,-3542,7035,-3,-24,-9
-17.44,24.84,-23.01,3458,-3509,6935,2,-23,-8
-17.47,25.47,-22.94,3527,-3453,6834,7,-22,-5
-17.62,26.05,-22.73,3583,-3314,6748,12,-20,-5
-17.82,26.64,-22.42,3599,-3187,6716,14,-21,-6
-18.05,27.25,-22.03,3607,-2975,6663,16,-22,-6
-18.31,27.91,-21.64,3674,-2839,6647,15,-24,-6
-18.57,28.56,-21.22,3778,-2710,6604,17,-22,-7
-18.83,29.17,-20.74,3885,-2567,6608,16,-21,-7
-19.13,29.70,-20.27,3951,-2377,6634,16,-19,-4
-19.44,30.21,-19.94,4018,-2291,6639,12,-19,-2
-19.74,30.75,-19.75,4099,-2299,6655,8,-21,-1
-20.05,31.25,-19.61,4195,-2393,6626,8,-18,0
-20.41,31.69,-19.47,4269,-2479,6545,11,-17,2
-20.83,32.07,-19.28,4316,-2502,6459,12,-15,2
-21.20,32.39,-19.05,4332,-2486,6453,12,-13,1
-21.57,32.74,-18.80,4392,-2463,6401,13,-13,0
-21.97,33.04,-18.51,4444,-2402,6456,14,-12,1
-22.43,33.33,-18.20,4485,-2341,6419,17,-11,2
-22.91,33.58,-17.87,4515,-2261,6518,14,-11,3
-23.36,33.78,-17.54,4551,-2169,6505,15,-8,2
-23.75,33.96,-17.18,4569,-2065,6477,13,-7,0
-24.02,34.13,-16.83,4550,-1976,6475,12,-7,-2
-24.23,34.35,-16.49,4516,-1866,6483,10,-8,-5
-24.30,34.58,-16.15,4557,-1743,6522,6,-7,-6
-24.33,34.78,-15.86,4619,-1791,6429,8,-5,-6
-24.39,34.92,-15.51,4633,-1722,6460,8,-4,-6
-24.40,35.04,-15.20,4672,-1626,6518,5,-3,-6
-24.35,35.17,-14.95,4723,-1664,6511,5,-4,-6
-24.37,35.29,-14.69,4794,-1787,6469,8,-3,-5
-24.52,35.36,-14.34,4838,-1763,6457,12,-1,-3
-24.68,35.38,-13.94,4802,-1560,6525,10,-1,-3
-24.76,35.47,-13.65,4807,-1521,6505,7,-3,-4
-24.84,35.56,-13.35,4834,-1475,6489,7,-3,-4
-24.94,35.63,-13.06,4761,-1408,6463,8,-2,-2
-25.10,35.71,-12.82,4745,-1438,6390,8,-3,-1
-25.32,35.79,-12.56,4766,-1425,6378,9,-3,0
-25.60,35.88,-12.31,4779,-1388,6381,11,-4,2
-25.94,35.96,-12.07,4778,-1268,6451,9,-4,3
-26.22,36.02,-11.91,4831,-1197,6500,6,-4,4
-26.45,36.08,-11.84,4881,-1154,6460,3,-2,4
-26.62,36.08,-11.86,4861,-1220,6434,1,-1,4
-26.75,36.08,-11.92,4827,-1259,6375,0,-1,4
-26.87,36.08,-11.99,4821,-1296,6390,-1,-1,3
-26.97,36.09,-12.07,4843,-1393,6381,0,-1,3
-27.11,36.09,-12.09,4874,-1397,6415,2,-1,3
-27.24,36.09,-12.12,4903,-1366,6468,1,0,3
-27.29,36.07,-12.18,4896,-1375,6504,-2,-1,2
-27.33,36.09,-12.25,4896,-1421,6441,0,-1,1
-27.31,36.09,-12.32,4880,-1353,6500,-5,-1,0
-27.22,36.11,-12.44,4873,-1427,6487,-5,-1,-1
-27.15,36.13,-12.55,4862,-1474,6409,-3,0,-1
-27.06,36.13,-12.59,4853,-1431,6411,-4,0,-2
-26.90,36.15,-12.66,4870,-1403,6412,-5,0,-3
-26.70,36.16,-12.72,4884,-1392,6409,-6,0,-4
-26.45,36.15,-12.84,4909,-1407,6411,-8,2,-4
-26.14,36.11,-12.99,4887,-1459,6390,-9,2,-5
-25.83,36.06,-13.13,4861,-1493,6395,-9,3,-5
-25.49,35.99,-13.28,4863,-1508,6405,-10,3,-5
-25.16,35.91,-13.45,4854,-1560,6408,-9,4,-4
-24.86,35.84,-13.61,4837,-1606,6383,-9,3,-4
-24.57,35.77,-13.75,4833,-1639,6413,-8,3,-4
-24.33,35.71,-13.90,4849,-1633,6415,-8,3,-3
-24.10,35.62,-14.08,4827,-1655,6448,-9,3,-2
-23.90,35.52,-14.26,4811,-1779,6449,-6,4,-1
-23.79,35.41,-14.36,4754,-1818,6453,-3,3,-1
-23.70,35.31,-14.39,4691,-1783,6459,-2,3,-2
-23.59,35.23,-14.40,4644,-1698,6515,-4,1,-2
-23.42,35.21,-14.45,4658,-1654,6481,-5,1,-3
-23.22,35.17,-14.50,4676,-1646,6512,-6,2,-4
-22.99,35.14,-14.56,4665,-1676,6488,-5,1,-5
-22.75,35.12,-14.60,4674,-1705,6465,-5,2,-5
-22.51,35.10,-14.63,4688,-1703,6471,-5,1,-5
-22.30,35.09,-14.69,4709,-1666,6477,-5,1,-4
-22.10,35.08,-14.78,4739,-1676,6479,-7,1,-3
-21.89,35.07,-14.91,4756,-1751,6430,-6,1,-3
-21.74,35.06,-14.97,4767,-1812,6408,-3,0,-3
-21.66,35.07,-15.01,4777,-1839,6400,-1,0,-2
-21.61,35.06,-15.01,4770,-1789,6426,-1,0,-2
-21.54,35.06,-15.02,4762,-1755,6440,-2,0,-1
-21.49,35.05,-15.05,4768,-1768,6426,-2,1,-1
-21.45,35.04,-15.05,4747,-1768,6436,-1,0,-1
-21.42,35.03,-15.03,4750,-1699,6471,-2,0,-1
-21.33,35.01,-15.05,4739,-1678,6490,-3,1,-2
-21.21,34.98,-15.09,4738,-1694,6468,-3,1,-2
-21.08,34.94,-15.12,4698,-1702,6466,-4,2,-3
-20.93,34.90,-15.15,4683,-1719,6468,-4,1,-3
-20.80,34.87,-15.19,4670,-1698,6497,-4,1,-2
-20.66,34.85,-15.25,4678,-1726,6522,-4,1,-2
-20.53,34.81,-15.31,4695,-1755,6538,-4,1,-2
-20.42,34.78,-15.36,4683,-1767,6530,-3,1,-2
-20.33,34.74,-15.41,4662,-1759,6523,-4,1,-1
-20.24,34.71,-15.49,4660,-1770,6507,-4,1,-1
-20.18,34.67,-15.58,4657,-1779,6503,-4,1,0
-20.12,34.64,-15.67,4654,-1801,6499,-4,1,0
-20.07,34.60,-15.76,4644,-1827,6499,-3,1,0
-20.04,34.56,-15.85,4634,-1854,6489,-3,1,0
-20.03,34.52,-15.92,4630,-1861,6498,-2,0,0
-20.01,34.50,-15.98,4644,-1874,6504,-2,0,1
-20.01,34.47,-16.04,4636,-1885,6508,-2,0,1
-20.02,34.44,-16.09,4646,-1899,6484,-1,0,1
-20.05,34.42,-16.12,4643,-1900,6495,-1,0,1
-20.07,34.42,-16.15,4630,-1888,6494,-1,-1,1
-20.10,34.42,-16.20,4631,-1905,6486,-1,-1,1
-20.13,34.41,-16.24,4643,-1916,6485,-1,-1,1
-20.18,34.41,-16.27,4639,-1917,6481,0,-1,1
-20.21,34.39,-16.30,4641,-1898,6476,-1,0,1
-20.23,34.37,-16.33,4627,-1896,6474,-1,0,1
-20.23,34.36,-16.37,4627,-1896,6473,-1,0,0
-20.23,34.34,-16.40,4627,-1908,6483,-1,0,0
-20.21,34.32,-16.43,4617,-1918,6487,-1,1,0
-20.19,34.28,-16.46,4623,-1930,6475,-1,1,0
-20.16,34.24,-16.48,4607,-1944,6484,-1,1,0
-20.14,34.21,-16.49,4594,-1940,6493,-1,0,-1
-20.11,34.19,-16.51,4591,-1953,6493,-1,0,-1
-20.10,34.19,-16.52,4597,-1950,6500,-1,0,-1
-20.10,34.18,-16.53,4601,-1953,6502,0,0,0
-20.10,34.18,-16.52,4591,-1944,6513,0,-1,-1
-20.11,34.19,-16.50,4596,-1945,6513,0,-1,-1
-20.11,34.19,-16.49,4595,-1933,6521,0,-1,-1
-20.12,34.19,-16.48,4594,-1935,6499,0,-1,-1
-20.13,34.20,-16.47,4582,-1931,6489,0,-1,-1
-20.14,34.21,-16.45,4588,-1919,6482,0,-1,0
-20.16,34.21,-16.44,4597,-1918,6475,0,-1,0
-20.17,34.21,-16.44,4599,-1924,6486,0,-1,0
-20.19,34.22,-16.42,4620,-1923,6486,0,-1,0
-20.24,34.23,-16.41,4626,-1909,6492,0,-1,0
-20.26,34.23,-16.40,4623,-1903,6492,0,-1,0
-20.28,34.23,-16.39,4627,-1892,6497,0,0,0
-20.29,34.22,-16.39,4620,-1890,6491,-1,0,0
-20.29,34.22,-16.40,4624,-1891,6488,-1,0,0
-20.29,34.21,-16.41,4622,-1902,6505,-1,0,0
-20.29,34.20,-16.43,4618,-1899,6516,-1,0,0
-20.29,34.19,-16.45,4613,-1905,6517,-1,0,0
-20.27,34.18,-16.49,4607,-1916,6519,-1,0,0
-20.28,34.17,-16.51,4619,-1917,6509,-1,0,0
-20.28,34.16,-16.54,4609,-1919,6507,-1,0,0
-20.27,34.14,-16.57,4599,-1924,6503,-1,0,0
-20.27,34.13,-16.60,4603,-1934,6501,-1,0,0
-20.28,34.12,-16.62,4600,-1936,6504,-1,0,0
-20.30,34.11,-16.65,4591,-1933,6502,-1,0,0
-20.31,34.09,-16.67,4596,-1932,6497,-1,0,0
-20.31,34.08,-16.70,4592,-1943,6497,-1,0,0
-20.32,34.06,-16.73,4595,-1952,6506,-1,0,0
-20.32,34.05,-16.76,4605,-1961,6488,-1,0,0
-20.32,34.03,-16.79,4599,-1966,6483,-1,0,0
-20.31,34.01,-16.82,4593,-1980,6488,-1,0,0
-20.31,33.99,-16.84,4595,-1984,6501,-1,0,0
-20.30,33.99,-16.86,4592,-1985,6504,-1,0,0
-20.29,33.98,-16.89,4588,-1989,6500,-1,0,0
-20.27,33.97,-16.91,4588,-1992,6506,-1,0,0
-20.26,33.96,-16.94,4584,-1999,6495,-1,0,0
-20.25,33.94,-16.97,4581,-2010,6491,-1,0,0
-20.23,33.93,-16.98,4577,-2014,6488,-1,0,0
-20.22,33.91,-17.00,4573,-2014,6488,-1,0,0
-20.22,33.90,-17.02,4572,-2016,6488,-1,0,0
-20.20,33.88,-17.03,4582,-2022,6485,-1,0,0
-20.19,33.86,-17.04,4575,-2030,6485,-1,0,-1
-20.19,33.85,-17.03,4573,-2025,6496,0,0,-1
-20.18,33.83,-17.03,4571,-2021,6505,0,0,-1
-20.16,33.82,-17.02,4560,-2008,6500,0,0,-1
-20.15,33.81,-17.01,4574,-2014,6514,-1,0,-1
-20.14,33.79,-17.01,4566,-2018,6517,0,0,-1
-20.13,33.79,-16.98,4549,-2018,6522,0,0,-1
-20.12,33.78,-16.96,4558,-2002,6524,0,0,-1
-20.11,33.78,-16.94,4558,-1991,6515,0,0,-1
-20.10,33.77,-16.91,4558,-1999,6510,0,0,-1
-20.09,33.77,-16.87,4562,-1995,6509,0,0,-1
-20.09,33.77,-16.84,4557,-1992,6516,0,0,-1
-20.10,33.75,-16.80,4556,-1975,6527,0,0,-1
-20.09,33.75,-16.77,4551,-1965,6529,0,0,-1
-20.07,33.75,-16.75,4558,-1958,6528,0,0,-1
-20.06,33.73,-16.73,4561,-1956,6524,0,0,-1
-20.05,33.72,-16.71,4560,-1953,6518,0,0,-1
-20.04,33.72,-16.69,4565,-1949,6528,0,0,-1
-20.02,33.71,-16.67,4556,-1941,6530,0,0,-1
-20.01,33.70,-16.66,4577,-1939,6530,0,0,-1
-20.01,33.69,-16.64,4566,-1945,6533,0,0,-1
-20.02,33.69,-16.62,4556,-1936,6541,0,0,-1
-20.02,33.68,-16.61,4562,-1922,6540,-1,0,0
-20.02,33.67,-16.60,4564,-1919,6539,0,0,-1
-20.02,33.67,-16.60,4566,-1926,6544,0,0,0
-20.03,33.66,-16.59,4566,-1923,6534,0,0,0
-20.05,33.65,-16.58,4551,-1923,6550,0,0,0
-20.06,33.64,-16.58,4552,-1914,6561,-1,0,0
-20.07,33.63,-16.60,4549,-1917,6557,-1,0,0
-20.08,33.62,-16.61,4548,-1918,6554,-1,0,0
-20.10,33.61,-16.63,4540,-1909,6553,-1,0,0
-20.11,33.61,-16.66,4541,-1929,6545,-1,-1,0
-20.12,33.60,-16.69,4540,-1943,6540,-1,0,0
-20.14,33.59,-16.72,4535,-1952,6548,-1,0,0
-20.16,33.59,-16.75,4550,-1954,6543,-1,-1,1
-20.17,33.58,-16.79,4550,-1977,6537,-1,0,1
-20.19,33.57,-16.83,4544,-1976,6540,-1,-1,1
-20.21,33.56,-16.87,4545,-1977,6538,-1,-1,1
-20.23,33.56,-16.91,4549,-1975,6533,-1,-1,1
-20.24,33.56,-16.96,4544,-1987,6523,-1,0,1
-20.26,33.55,-16.99,4546,-1996,6526,-1,0,1
-20.28,33.54,-17.02,4545,-1994,6525,-1,0,0
-20.29,33.52,-17.05,4538,-2000,6518,-1,0,0
-20.29,33.51,-17.09,4532,-2016,6516,-1,0,0
-20.29,33.51,-17.12,4527,-2038,6508,-1,0,0
-20.30,33.49,-17.14,4531,-2041,6505,-1,0,0
-20.31,33.48,-17.16,4526,-2047,6509,-1,0,0
-20.31,33.47,-17.17,4522,-2057,6525,-1,0,0
-20.30,33.45,-17.19,4518,-2073,6531,-1,0,0
-20.30,33.44,-17.20,4527,-2076,6532,-1,0,0
-20.30,33.42,-17.21,4520,-2082,6541,0,0,0
-20.31,33.42,-17.21,4515,-2074,6547,0,0,0
-20.31,33.42,-17.21,4512,-2067,6552,0,-1,-1
-20.30,33.41,-17.19,4517,-2052,6554,-1,0,-1
-20.29,33.41,-17.19,4509,-2070,6546,0,0,-1
-20.28,33.40,-17.17,4510,-2061,6529,0,0,-1
-20.27,33.40,-17.14,4508,-2041,6535,0,0,-1
-20.25,33.40,-17.11,4508,-2047,6526,0,0,-1
-20.24,33.40,-17.08,4504,-2039,6528,0,0,-1
-20.23,33.40,-17.04,4509,-2035,6539,0,0,-1
-20.22,33.40,-17.00,4517,-2029,6543,0,0,-1
-20.21,33.39,-16.97,4514,-2025,6544,0,0,-1
-20.20,33.39,-16.92,4523,-2010,6546,1,0,-1
-20.18,33.39,-16.88,4520,-2003,6542,1,0,-1
-20.18,33.39,-16.83,4528,-1992,6548,1,0,-1
-20.17,33.39,-16.79,4518,-1991,6547,0,0,-1
-20.18,33.38,-16.75,4518,-1978,6561,1,0,-1
-20.17,33.40,-16.70,4522,-1959,6562,0,-1,-1
-20.18,33.41,-16.67,4525,-1960,6559,0,0,-1
-20.18,33.41,-16.63,4534,-1955,6552,1,0,-1
-20.19,33.40,-16.58,4527,-1949,6555,1,0,-1
-20.20,33.40,-16.54,4520,-1935,6559,1,0,-1
-20.21,33.40,-16.50,4527,-1924,6562,1,0,-1
-20.22,33.40,-16.46,4527,-1906,6562,0,0,-1
-20.22,33.40,-16.43,4525,-1901,6566,0,0,-1
-20.23,33.39,-16.42,4518,-1917,6569,0,0,-1
-20.23,33.39,-16.39,4522,-1923,6577,0,0,-1
-20.25,33.38,-16.36,4518,-1916,6579,0,0,-1
-20.25,33.38,-16.35,4523,-1914,6565,0,0,-1
-20.26,33.39,-16.34,4529,-1910,6564,0,-1,-1
-20.27,33.38,-16.34,4538,-1920,6565,0,0,0
-20.27,33.38,-16.34,4528,-1920,6561,0,0,0
-20.29,33.38,-16.33,4523,-1910,6573,0,-1,0
-20.32,33.39,-16.33,4533,-1915,6573,0,-1,0
-20.33,33.39,-16.33,4532,-1915,6573,0,-1,0
-20.35,33.39,-16.34,4523,-1917,6564,0,-1,0
-20.38,33.38,-16.34,4520,-1916,6561,0,0,0
-20.41,33.37,-16.35,4516,-1914,6571,-1,0,0
-20.43,33.37,-16.36,4513,-1912,6571,-1,-1,0
-20.45,33.36,-16.39,4517,-1921,6573,-1,-1,0
-20.46,33.35,-16.41,4511,-1932,6569,-1,0,0
-20.48,33.35,-16.45,4509,-1938,6575,-1,0,0
-20.49,33.34,-16.48,4509,-1940,6582,-1,0,0
-20.48,33.32,-16.52,4508,-1941,6584,-2,0,0
-20.47,33.31,-16.58,4507,-1950,6559,-2,0,0
-20.47,33.30,-16.63,4527,-1959,6544,-2,0,0
-20.45,33.29,-16.68,4503,-1973,6547,-2,0,0
-20.45,33.27,-16.73,4491,-1978,6548,-2,-1,0
-20.45,33.26,-16.78,4497,-1991,6555,-2,0,0
-20.44,33.25,-16.82,4510,-2001,6547,-1,0,0
-20.45,33.25,-16.84,4515,-2005,6544,-1,0,0
-20.45,33.23,-16.87,4498,-2011,6538,-1,0,0
-20.45,33.21,-16.88,4495,-2008,6549,-1,0,0
-20.44,33.20,-16.91,4482,-2008,6550,-1,0,0
-20.43,33.18,-16.92,4491,-2013,6555,-1,0,0
-20.42,33.18,-16.94,4494,-2024,6555,-1,0,-1
-20.42,33.17,-16.95,4504,-2031,6557,-1,0,-1
-20.40,33.16,-16.94,4493,-2029,6556,-1,0,-1
-20.39,33.15,-16.95,4491,-2033,6552,-1,0,-1
-20.38,33.15,-16.93,4491,-2029,6546,0,0,-1
-20.36,33.15,-16.93,4498,-2028,6533,0,0,-1
-20.35,33.14,-16.93,4490,-2042,6543,0,0,-1
-20.34,33.13,-16.91,4475,-2028,6560,0,0,-1
-20.33,33.14,-16.90,4484,-2016,6567,0,-1,-1
-20.31,33.15,-16.88,4493,-2013,6559,0,0,-1
-20.29,33.15,-16.86,4497,-2024,6562,0,0,-1
-20.28,33.14,-16.82,4492,-2006,6568,0,0,-1
-20.27,33.14,-16.79,4489,-1990,6566,0,0,-1
-20.25,33.14,-16.77,4486,-1982,6560,0,0,-1
-20.23,33.14,-16.74,4487,-1975,6560,0,0,-1
-20.21,33.14,-16.71,4494,-1973,6561,0,0,-1
-20.20,33.14,-16.68,4491,-1965,6563,0,0,-1
-20.18,33.13,-16.64,4489,-1961,6572,0,0,-1
-20.16,33.13,-16.60,4484,-1948,6580,0,0,-1
-20.14,33.13,-16.57,4483,-1950,6586,0,0,-1
-20.12,33.13,-16.55,4486,-1944,6568,0,0,-1
-20.11,33.13,-16.52,4487,-1957,6568,0,0,-1
-20.11,33.12,-16.49,4479,-1947,6580,0,0,-1
-20.09,33.12,-16.46,4477,-1937,6584,0,0,-1
-20.07,33.13,-16.45,4486,-1937,6586,-1,0,-1
-20.06,33.13,-16.43,4485,-1937,6576,0,0,-1
-20.06,33.12,-16.41,4489,-1932,6589,0,0,-1
-20.06,33.12,-16.39,4495,-1924,6601,0,0,-1
-20.07,33.11,-16.37,4490,-1923,6589,0,0,-1
-20.07,33.11,-16.37,4489,-1916,6590,0,0,-1
-20.06,33.12,-16.36,4496,-1914,6575,0,-1,-1
-20.06,33.12,-16.35,4496,-1904,6568,0,0,0
-20.06,33.11,-16.35,4484,-1918,6581,0,0,-1
-20.06,33.11,-16.34,4482,-1922,6582,0,0,-1
-20.07,33.12,-16.33,4495,-1921,6580,-1,0,-1
-20.06,33.11,-16.33,4493,-1913,6572,-1,0,-1
-20.06,33.11,-16.34,4499,-1929,6572,-1,0,0
-20.06,33.09,-16.33,4482,-1932,6581,0,0,-1
-20.06,33.09,-16.33,4480,-1928,6582,-1,0,-1
-20.06,33.09,-16.34,4485,-1933,6588,-1,0,0
-20.06,33.09,-16.35,4492,-1945,6592,0,0,0
-20.07,33.09,-16.34,4484,-1944,6589,0,0,0
-20.08,33.09,-16.34,4482,-1923,6585,0,0,0
-20.08,33.08,-16.34,4485,-1919,6595,-1,0,0
-20.07,33.08,-16.34,4482,-1934,6600,-1,0,0
-20.07,33.08,-16.35,4473,-1940,6599,-1,0,0
-20.08,33.08,-16.35,4476,-1950,6589,0,0,0
-20.09,33.08,-16.36,4474,-1939,6594,-1,-1,0
-20.09,33.08,-16.36,4469,-1948,6587,-1,-1,0
-20.09,33.08,-16.37,4479,-1947,6592,-1,0,-1
-20.08,33.08,-16.38,4484,-1956,6577,-1,0,-1
-20.08,33.08,-16.38,4487,-1946,6570,0,0,0
-20.08,33.07,-16.38,4480,-1946,6588,-1,0,0
-20.08,33.07,-16.38,4476,-1937,6595,-1,-1,-1
-20.07,33.08,-16.39,4485,-1932,6596,-1,-1,-1
-20.06,33.08,-16.39,4486,-1944,6590,-1,0,-1
-20.05,33.08,-16.40,4483,-1951,6585,-1,0,-1
-20.05,33.07,-16.40,4484,-1950,6585,-1,0,0
-20.05,33.06,-16.41,4476,-1947,6585,-1,0,0
-20.04,33.05,-16.42,4470,-1947,6577,-1,0,-1
-20.02,33.04,-16.44,4475,-1956,6589,-1,0,0
-20.02,33.04,-16.45,4477,-1950,6593,-1,0,-1
-20.01,33.02,-16.46,4473,-1951,6596,-1,0,-1
-20.00,33.01,-16.46,4469,-1958,6606,-1,0,-1
-20.00,33.01,-16.46,4464,-1957,6598,-1,0,-1
-19.99,33.01,-16.46,4468,-1959,6603,-1,0,-1
-19.98,33.01,-16.46,4464,-1957,6590,-1,0,-1
-19.98,33.01,-16.47,4479,-1954,6576,0,0,0
-19.98,33.00,-16.48,4462,-1964,6575,0,0,0
-19.98,32.99,-16.47,4459,-1957,6591,-1,-1,-1
-19.97,32.99,-16.47,4466,-1951,6600,-1,-1,-1
-19.96,32.99,-16.49,4473,-1967,6589,-1,0,-1
-19.96,32.99,-16.49,4479,-1975,6590,0,0,-1
-19.96,32.98,-16.47,4473,-1955,6588,0,0,-1
-19.95,32.97,-16.46,4468,-1948,6586,-1,0,-1
-19.94,32.97,-16.45,4468,-1946,6591,-1,0,-1
-19.94,32.96,-16.45,4470,-1947,6588,-1,0,-1
-19.94,32.96,-16.45,4474,-1953,6585,-1,0,-1
-19.92,32.95,-16.45,4471,-1950,6588,-1,0,-1
-19.91,32.95,-16.45,4468,-1945,6586,-1,0,-1
-19.91,32.93,-16.44,4468,-1934,6593,-1,0,-1
-19.90,32.93,-16.45,4472,-1943,6599,-1,0,-1
-19.90,32.93,-16.45,4466,-1937,6597,-1,0,-1
-19.90,32.92,-16.44,4466,-1937,6594,-1,0,0
-19.90,32.92,-16.45,4471,-1933,6581,-1,0,0
-19.90,32.91,-16.47,4456,-1955,6584,-1,0,0
-19.92,32.90,-16.47,4454,-1954,6585,0,-1,0
-19.92,32.91,-16.47,4460,-1934,6592,-1,-1,0
-19.93,32.91,-16.48,4460,-1932,6600,-1,0,0
-19.93,32.90,-16.50,4464,-1950,6600,-1,0,0
-19.93,32.89,-16.51,4464,-1955,6594,0,0,0
-19.95,32.89,-16.51,4465,-1949,6579,-1,0,0
-19.95,32.89,-16.52,4455,-1950,6586,-1,0,0
-19.96,32.89,-16.53,4461,-1952,6598,-1,0,0
-19.96,32.88,-16.55,4462,-1958,6592,-1,0,0
-19.96,32.88,-16.56,4464,-1965,6587,-1,0,0
-19.96,32.88,-16.58,4460,-1968,6586,-1,0,0
-19.97,32.87,-16.59,4454,-1970,6589,-1,0,0
-19.97,32.87,-16.60,4460,-1976,6588,-1,0,0
-19.97,32.87,-16.61,4455,-1977,6592,-1,0,0
-19.97,32.87,-16.62,4455,-1985,6591,-1,0,0
-19.96,32.86,-16.63,4450,-1982,6588,-1,0,0
-19.97,32.86,-16.64,4450,-1990,6583,-1,0,0
-19.97,32.85,-16.64,4450,-1986,6566,-1,0,0
-19.97,32.85,-16.64,4463,-1994,6573,-1,0,0
-19.98,32.84,-16.65,4456,-1999,6597,0,0,0
-19.99,32.84,-16.65,4459,-1982,6604,0,-1,0
-19.99,32.85,-16.66,4464,-1979,6602,-1,-1,-1
-19.99,32.85,-16.66,4460,-1994,6600,0,0,-1
-19.99,32.85,-16.65,4452,-1998,6595,0,0,-1
-20.00,32.84,-16.64,4454,-1980,6595,0,0,-1
-20.00,32.84,-16.63,4454,-1974,6607,0,0,-1
-20.00,32.83,-16.63,4450,-1976,6607,-1,0,-1
-19.99,32.83,-16.63,4442,-1971,6601,0,0,-1
-19.99,32.83,-16.61,4445,-1973,6599,0,0,-1
-19.99,32.82,-16.60,4455,-1977,6595,0,0,-1
-19.98,32.82,-16.59,4453,-1968,6597,0,0,-1
-19.98,32.82,-16.58,4456,-1967,6583,0,0,-1
-19.97,32.82,-16.57,4456,-1971,6580,0,0,-1
-19.97,32.82,-16.56,4451,-1967,6580,0,0,-1
-19.97,32.81,-16.55,4455,-1963,6584,0,0,-1
-19.96,32.82,-16.54,4452,-1964,6596,0,0,-1
-19.96,32.82,-16.53,4454,-1956,6595,0,0,-1
-19.97,32.81,-16.52,4451,-1956,6592,0,0,-1
-19.97,32.82,-16.51,4450,-1948,6579,0,0,-1
-19.97,32.81,-16.49,4460,-1956,6587,0,0,0
-19.98,32.80,-16.49,4447,-1954,6603,0,0,-1
-19.98,32.81,-16.48,4454,-1946,6615,0,-1,-1
-19.98,32.81,-16.48,4454,-1955,6618,-1,0,-1
-19.98,32.81,-16.47,4456,-1956,6601,0,0,-1
-19.98,32.80,-16.45,4446,-1949,6599,0,0,-1
-20.00,32.80,-16.44,4443,-1943,6598,0,0,0
-20.01,32.79,-16.43,4446,-1944,6604,0,0,0
-20.01,32.79,-16.42,4448,-1945,6610,0,0,-1
-20.01,32.79,-16.42,4455,-1958,6608,0,0,0
-20.02,32.78,-16.41,4452,-1953,6606,0,0,0
-20.04,32.78,-16.40,4450,-1939,6612,0,0,0
-20.05,32.77,-16.40,4445,-1939,6606,0,0,0
-20.07,32.77,-16.39,4444,-1939,6613,0,-1,0
-20.08,32.78,-16.39,4440,-1946,6613,0,-1,0
-20.10,32.77,-16.38,4446,-1945,6610,0,-1,0
-20.11,32.78,-16.38,4445,-1939,6604,0,0,0
-20.12,32.77,-16.38,4438,-1943,6620,0,-1,0
-20.13,32.77,-16.38,4440,-1946,6617,0,-1,0
-20.14,32.77,-16.37,4446,-1944,6611,0,-1,0
-20.15,32.78,-16.36,4446,-1937,6604,0,-1,0
-20.17,32.79,-16.35,4461,-1943,6597,0,0,0
-20.18,32.78,-16.33,4444,-1945,6606,0,0,-1
-20.20,32.79,-16.31,4442,-1934,6611,0,-1,-1
-20.19,32.79,-16.29,4440,-1931,6613,0,-1,-1
-20.19,32.79,-16.28,4436,-1941,6613,0,0,-1
-20.19,32.79,-16.27,4436,-1943,6601,0,0,-1
-20.20,32.79,-16.25,4439,-1937,6600,0,0,-1
-20.20,32.79,-16.24,4443,-1928,6604,0,0,-1
-20.20,32.79,-16.23,4437,-1936,6607,0,0,-1
-20.20,32.79,-16.21,4445,-1941,6615,0,-1,-1
-20.21,32.79,-16.21,4455,-1936,6624,0,-1,-1
-20.21,32.79,-16.20,4446,-1932,6616,0,0,0
-20.22,32.79,-16.20,4447,-1929,6628,0,0,0
-20.22,32.78,-16.20,4443,-1918,6629,-1,0,0
-20.20,32.77,-16.22,4441,-1920,6633,-1,0,0
-20.19,32.76,-16.24,4439,-1921,6624,-1,0,0
-20.18,32.75,-16.26,4443,-1919,6615,-1,0,0
-20.16,32.75,-16.29,4453,-1925,6607,-1,0,0
-20.15,32.74,-16.31,4453,-1937,6602,-1,0,0
-20.14,32.73,-16.33,4449,-1946,6604,-1,0,0
-20.14,32.72,-16.34,4442,-1935,6603,-1,0,0
-20.13,32.72,-16.36,4456,-1933,6615,-1,0,0
-20.12,32.71,-16.38,4442,-1945,6622,-1,0,0
-20.11,32.70,-16.39,4433,-1941,6618,-1,-1,0
-20.10,32.70,-16.40,4439,-1939,6622,-1,0,-1
-20.09,32.70,-16.42,4444,-1951,6620,-1,0,-1
-20.08,32.70,-16.43,4444,-1952,6613,-1,0,-1
-20.07,32.70,-16.44,4437,-1953,6617,-1,0,0
-20.06,32.68,-16.45,4438,-1958,6620,-1,0,0
-20.05,32.67,-16.46,4435,-1958,6607,-1,0,0
-20.04,32.67,-16.47,4433,-1957,6613,-1,0,0
-20.04,32.67,-16.49,4432,-1963,6604,-1,0,-1
-20.03,32.67,-16.49,4432,-1958,6599,-1,0,0
-20.02,32.67,-16.50,4432,-1965,6605,-1,0,-1
-20.01,32.66,-16.50,4436,-1963,6619,-1,0,-1
-20.01,32.66,-16.51,4435,-1974,6623,-1,0,-1
-20.00,32.66,-16.51,4436,-1974,6607,-1,0,-1
-19.99,32.66,-16.51,4437,-1961,6608,-1,0,-1
-19.98,32.66,-16.52,4434,-1970,6610,-1,0,-1
-19.97,32.66,-16.51,4432,-1972,6612,-1,0,-1
-19.96,32.66,-16.51,4426,-1973,6609,-1,0,-1
-19.94,32.65,-16.51,4438,-1969,6603,-1,0,-1
-19.93,32.64,-16.51,4423,-1984,6608,0,0,-1
-19.92,32.64,-16.50,4422,-1976,6615,0,0,-1
-19.92,32.64,-16.50,4427,-1964,6620,-1,-1,-1
-19.90,32.64,-16.49,4433,-1961,6619,-1,0,-1
-19.88,32.64,-16.48,4436,-1972,6609,0,0,-1
-19.89,32.64,-16.47,4423,-1968,6606,0,0,-1
-19.88,32.63,-16.46,4419,-1963,6601,-1,0,-1
-19.87,32.64,-16.45,4421,-1960,6617,0,0,-1
-19.86,32.64,-16.44,4430,-1958,6615,-1,0,-1
-19.85,32.63,-16.44,4430,-1968,6615,0,0,-1
-19.84,32.63,-16.43,4425,-1965,6608,0,0,-1
-19.83,32.63,-16.40,4427,-1956,6621,0,0,-1
-19.82,32.62,-16.39,4422,-1955,6635,0,0,-1
-19.80,32.62,-16.38,4427,-1964,6627,0,0,-1
-19.79,32.62,-16.37,4425,-1962,6613,0,0,-1
-19.78,32.61,-16.35,4424,-1948,6615,0,0,-1
-19.76,32.61,-16.33,4420,-1945,6625,0,0,-1
-19.76,32.61,-16.32,4432,-1948,6624,0,0,-1
-19.74,32.61,-16.31,4438,-1941,6625,0,0,-1
-19.74,32.61,-16.29,4444,-1938,6624,0,0,-1
-19.73,32.60,-16.27,4433,-1936,6623,0,0,-1
-19.72,32.60,-16.25,4427,-1925,6642,-1,0,-1
-19.71,32.60,-16.25,4425,-1931,6636,0,0,-1
-19.70,32.60,-16.23,4422,-1933,6628,0,0,-1
-19.70,32.60,-16.22,4424,-1932,6618,0,0,-1
-19.70,32.59,-16.20,4427,-1928,6604,0,0,-1
-19.69,32.58,-16.18,4426,-1919,6621,0,0,-1
-19.69,32.58,-16.17,4425,-1912,6633,0,0,-1
-19.68,32.57,-16.17,4422,-1906,6637,0,0,-1
-19.69,32.57,-16.16,4424,-1912,6634,0,0,-1
-19.69,32.57,-16.15,4420,-1916,6629,0,0,-1
-19.69,32.56,-16.14,4419,-1919,6631,0,0,-1
-19.69,32.56,-16.14,4406,-1913,6642,-1,0,-1
-19.69,32.56,-16.14,4411,-1918,6643,-1,-1,-1
-19.69,32.56,-16.14,4411,-1919,6633,0,-1,-1
-19.69,32.56,-16.13,4418,-1911,6634,0,0,-1
-19.68,32.56,-16.13,4414,-1909,6624,0,0,-1
-19.68,32.56,-16.13,4432,-1908,6608,-1,0,0
-19.69,32.56,-16.14,4422,-1918,6633,-1,0,0
-19.69,32.55,-16.14,4417,-1913,6630,-1,0,0
-19.69,32.55,-16.15,4420,-1911,6638,-1,0,0
-19.69,32.54,-16.18,4420,-1915,6631,-1,0,0
-19.70,32.54,-16.20,4423,-1922,6631,-1,0,0
-19.70,32.53,-16.22,4414,-1927,6641,-1,0,0
-19.71,32.52,-16.25,4412,-1930,6642,-1,0,0
-19.71,32.52,-16.28,4417,-1931,6640,-1,-1,0
-19.72,32.51,-16.32,4414,-1936,6642,-1,-1,0
-19.71,32.51,-16.36,4409,-1945,6632,-1,-1,0
-19.73,32.51,-16.40,4416,-1961,6622,-1,-1,0
-19.75,32.50,-16.42,4410,-1961,6624,-1,0,0
-19.75,32.49,-16.44,4403,-1959,6629,-1,0,0
-19.76,32.49,-16.45,4405,-1956,6638,-1,0,0
-19.76,32.48,-16.48,4409,-1966,6641,-1,0,0
-19.77,32.46,-16.50,4404,-1970,6641,-1,0,0
-19.76,32.46,-16.53,4404,-1969,6629,-1,0,0
-19.76,32.45,-16.55,4396,-1982,6624,-1,0,0
-19.75,32.45,-16.57,4395,-1989,6622,-1,0,0
-19.75,32.44,-16.59,4397,-1992,6611,-1,0,0
-19.74,32.44,-16.60,4419,-2000,6604,-1,0,0
-19.74,32.43,-16.63,4416,-2003,6623,-1,0,0
-19.73,32.43,-16.63,4407,-1992,6625,-1,0,-1
-19.73,32.43,-16.63,4404,-1996,6635,-1,0,-1
-19.72,32.43,-16.64,4412,-2000,6626,-1,0,-1
-19.71,32.43,-16.64,4412,-2004,6611,0,0,-1
-19.71,32.42,-16.63,4403,-1999,6605,0,0,-1
-19.70,32.42,-16.63,4398,-1994,6620,-1,0,-1
-19.68,32.41,-16.63,4396,-1992,6635,-1,0,-1
-19.67,32.40,-16.63,4394,-1996,6631,-1,0,-1
-19.66,32.39,-16.62,4386,-1989,6636,0,0,-1
-19.66,32.39,-16.61,4391,-1985,6638,0,0,-1
-19.65,32.38,-16.61,4394,-1985,6636,0,0,-1
-19.63,32.38,-16.59,4394,-1977,6633,0,0,-1
-19.62,32.37,-16.59,4393,-1978,6628,0,0,-1
-19.62,32.37,-16.57,4401,-1978,6624,0,0,-1
-19.61,32.37,-16.56,4393,-1971,6631,0,0,-1
-19.61,32.37,-16.54,4395,-1964,6641,0,0,-1
-19.60,32.37,-16.52,4401,-1963,6635,0,0,-1
-19.58,32.37,-16.52,4405,-1970,6639,0,0,-1
-19.58,32.36,-16.51,4413,-1966,6635,-1,0,-1
-19.57,32.36,-16.51,4402,-1958,6628,-1,0,-1
-19.56,32.36,-16.50,4413,-1953,6614,0,0,0
-19.57,32.36,-16.51,4408,-1966,6624,0,0,0
-19.58,32.35,-16.50,4399,-1960,6637,0,-1,0
-19.58,32.36,-16.50,4400,-1942,6641,-1,-1,0
-19.58,32.36,-16.50,4407,-1945,6650,-1,0,0
-19.58,32.36,-16.50,4403,-1951,6629,-1,0,0
-19.59,32.35,-16.50,4395,-1950,6646,0,0,0
-19.59,32.34,-16.49,4389,-1947,6641,-1,0,0
-19.59,32.34,-16.51,4387,-1962,6645,-1,0,0
-19.59,32.33,-16.53,4386,-1963,6642,-1,0,0
-19.59,32.33,-16.54,4391,-1964,6637,-1,-1,0
-19.60,32.33,-16.55,4393,-1967,6643,-1,0,0
-19.60,32.33,-16.56,4391,-1976,6640,-1,0,0
-19.61,32.32,-16.58,4387,-1979,6634,-1,0,0
-19.62,32.32,-16.59,4388,-1978,6626,-1,0,0
-19.63,32.32,-16.60,4391,-1981,6633,-1,0,0
-19.63,32.31,-16.61,4398,-1983,6629,-1,0,0
-19.64,32.31,-16.62,4397,-1993,6635,-1,0,0
-19.65,32.31,-16.62,4394,-1985,6633,0,0,0
-19.66,32.31,-16.63,4396,-1982,6635,-1,-1,0
-19.66,32.31,-16.64,4387,-1987,6629,-1,-1,0
-19.66,32.31,-16.65,4387,-1998,6626,-1,0,0
-19.66,32.31,-16.66,4386,-1990,6616,0,0,0
-19.67,32.30,-16.66,4395,-1994,6615,-1,0,0
-19.67,32.30,-16.66,4379,-2002,6619,0,0,0
-19.68,32.30,-16.67,4388,-1990,6634,-1,-1,0
-19.67,32.31,-16.66,4396,-1989,6629,-1,0,-1
-19.67,32.30,-16.67,4396,-2004,6634,0,0,-1
-19.68,32.30,-16.66,4390,-2011,6635,0,0,-1
-19.68,32.30,-16.65,4381,-1997,6637,0,0,-1
-19.68,32.30,-16.63,4380,-1998,6632,0,0,-1
-19.68,32.29,-16.62,4372,-2001,6637,0,0,-1
-19.68,32.29,-16.62,4377,-2000,6629,0,0,-1
-19.68,32.29,-16.60,4386,-1988,6631,0,0,-1
-19.67,32.29,-16.58,4388,-1979,6632,0,0,-1
-19.68,32.29,-16.56,4384,-1974,6629,0,0,-1
-19.68,32.30,-16.53,4379,-1969,6634,0,0,-1
-19.67,32.29,-16.52,4378,-1971,6634,0,0,-1
-19.67,32.29,-16.50,4378,-1979,6629,0,0,-1
-19.67,32.29,-16.49,4385,-1981,6635,0,0,-1
-19.67,32.29,-16.47,4386,-1976,6629,0,0,-1
-19.68,32.29,-16.44,4393,-1968,6626,0,0,-1
-19.67,32.29,-16.41,4396,-1958,6630,0,0,-1
-19.68,32.29,-16.39,4395,-1953,6633,0,0,-1
-19.69,32.29,-16.36,4396,-1948,6649,0,0,-1
-19.69,32.29,-16.35,4392,-1955,6647,0,0,-1
-19.70,32.28,-16.33,4391,-1946,6641,0,0,-1
-19.70,32.29,-16.30,4393,-1941,6652,0,0,-1
-19.70,32.29,-16.29,4408,-1934,6637,0,0,-1
-19.71,32.28,-16.28,4391,-1945,6642,0,0,0
-19.72,32.28,-16.26,4386,-1941,6642,0,-1,-1
-19.72,32.30,-16.24,4391,-1930,6648,0,-1,-1
-19.73,32.30,-16.23,4391,-1926,6656,0,0,-1
-19.73,32.30,-16.22,4395,-1937,6642,0,0,-1
-19.74,32.30,-16.20,4385,-1937,6641,0,0,-1
-19.75,32.29,-16.18,4382,-1923,6655,0,0,0
-19.75,32.28,-16.18,4380,-1917,6664,-1,0,0
-19.74,32.27,-16.19,4382,-1925,6669,-1,0,0
-19.74,32.26,-16.22,4380,-1927,6665,-1,0,0
-19.73,32.25,-16.25,4379,-1930,6664,-2,0,0
-19.72,32.24,-16.28,4384,-1936,6653,-1,0,0
-19.71,32.23,-16.31,4397,-1935,6650,-1,0,0
-19.71,32.23,-16.33,4386,-1944,6633,-1,0,0
-19.71,32.22,-16.36,4385,-1954,6639,-1,0,0
-19.71,32.21,-16.38,4379,-1951,6637,-1,0,0
-19.70,32.20,-16.40,4375,-1957,6641,-1,0,0
-19.70,32.19,-16.43,4375,-1966,6642,-1,0,0
-19.70,32.17,-16.44,4384,-1984,6637,-1,0,0
-19.70,32.16,-16.45,4381,-1999,6636,0,0,0
-19.71,32.13,-16.44,4371,-1990,6662,0,0,0
-19.71,32.12,-16.44,4365,-1986,6662,0,0,0
-19.74,32.11,-16.45,4353,-1991,6641,0,-1,0
-19.78,32.10,-16.45,4363,-1991,6652,0,0,1
-19.85,32.08,-16.45,4347,-1989,6650,1,0,1
-19.92,32.07,-16.45,4328,-1987,6657,1,-1,1
-20.02,32.07,-16.46,4340,-1995,6658,1,-2,2
-20.14,32.08,-16.45,4357,-1980,6655,2,-1,2
-20.28,32.08,-16.45,4357,-1968,6652,2,-1,3
-20.44,32.07,-16.46,4350,-1956,6652,2,-1,4
-20.62,32.06,-16.48,4350,-1941,6650,2,-1,4
-20.82,32.04,-16.52,4344,-1943,6660,2,-2,5
-21.05,32.05,-16.58,4342,-1958,6655,2,-3,6
-21.32,32.06,-16.63,4367,-1962,6660,2,-3,7
-21.58,32.06,-16.66,4367,-1923,6690,2,-2,7
-21.84,32.06,-16.73,4371,-1914,6692,1,-2,7
-22.08,32.05,-16.81,4373,-1900,6687,0,-2,7
-22.31,32.05,-16.89,4377,-1923,6674,1,-2,6
-22.51,32.04,-16.97,4364,-1961,6658,1,-2,6
-22.71,32.04,-17.04,4367,-1971,6656,0,-2,5
-22.87,32.03,-17.13,4377,-1996,6656,-1,-2,4
-22.99,32.03,-17.20,4374,-2014,6627,-1,-1,3
-23.07,32.01,-17.26,4365,-2034,6614,-1,-1,2
-23.13,31.99,-17.33,4374,-2048,6594,-1,0,2
-23.16,31.97,-17.39,4369,-2091,6603,-2,0,1
-23.17,31.95,-17.45,4365,-2113,6619,-2,0,1
-23.18,31.93,-17.51,4370,-2113,6637,-2,0,0
-23.16,31.92,-17.57,4363,-2127,6630,-2,0,0
-23.13,31.90,-17.62,4359,-2154,6615,-2,0,0
-23.11,31.89,-17.66,4347,-2176,6612,-1,0,-1
-23.09,31.87,-17.69,4331,-2182,6615,-1,0,-1
-23.05,31.86,-17.71,4317,-2195,6605,-1,0,-1
-23.03,31.85,-17.70,4302,-2195,6605,-1,0,-1
-23.00,31.84,-17.71,4300,-2206,6621,-1,0,-1
-22.98,31.83,-17.69,4300,-2209,6626,0,0,-2
-22.94,31.82,-17.66,4298,-2197,6647,0,0,-2
-22.91,31.81,-17.63,4294,-2181,6654,0,0,-2
-22.87,31.81,-17.59,4295,-2177,6652,0,0,-2
-22.83,31.81,-17.54,4294,-2162,6660,1,0,-2
-22.80,31.81,-17.48,4289,-2143,6665,1,0,-2
-22.77,31.82,-17.42,4295,-2126,6650,1,0,-2
-22.75,31.83,-17.36,4297,-2111,6642,1,0,-2
-22.72,31.84,-17.30,4306,-2085,6638,1,0,-2
-22.71,31.84,-17.25,4318,-2098,6624,1,0,-2
-22.70,31.83,-17.19,4311,-2078,6650,1,0,-1
-22.71,31.84,-17.13,4315,-2056,6658,1,0,-1
-22.73,31.84,-17.08,4319,-2043,6670,1,0,-1
-22.74,31.84,-17.03,4341,-2039,6672,1,0,-1
-22.76,31.84,-16.98,4342,-2035,6663,1,0,-1
-22.78,31.82,-16.92,4331,-2014,6665,1,0,-1
-22.80,31.81,-16.87,4318,-2001,6659,1,0,-1
-22.81,31.79,-16.84,4317,-2001,6654,1,0,-1
-22.82,31.78,-16.81,4309,-2001,6657,0,0,-1
-22.83,31.76,-16.77,4318,-2005,6670,1,0,0
-22.87,31.74,-16.73,4314,-1995,6687,1,0,0
-22.89,31.72,-16.70,4321,-1975,6696,0,0,0
-22.93,31.70,-16.69,4310,-1982,6705,0,0,0
-22.96,31.68,-16.66,4306,-1961,6721,0,0,1
-23.01,31.65,-16.65,4307,-1957,6721,0,0,1
-23.03,31.61,-16.65,4304,-1944,6738,-1,0,1
-23.05,31.58,-16.66,4296,-1955,6707,0,1,1
-23.06,31.53,-16.68,4304,-1943,6698,-1,1,1
-23.07,31.49,-16.72,4295,-1966,6717,-2,1,1
-23.07,31.45,-16.76,4288,-1981,6728,-2,0,1
-23.07,31.42,-16.82,4279,-2011,6727,-2,0,1
-23.08,31.38,-16.86,4285,-2016,6728,-1,0,1
-23.09,31.36,-16.90,4279,-2014,6729,-2,0,1
-23.10,31.33,-16.96,4261,-2024,6720,-2,0,1
-23.11,31.32,-17.01,4236,-2045,6704,-2,-1,1
-23.12,31.32,-17.07,4228,-2037,6698,-2,-1,0
-23.11,31.33,-17.12,4237,-2043,6697,-2,-1,0
-23.10,31.33,-17.18,4263,-2065,6690,-2,-1,0
-23.10,31.33,-17.23,4272,-2086,6691,-1,0,0
-23.09,31.32,-17.27,4257,-2093,6679,-1,0,0
-23.08,31.32,-17.29,4226,-2092,6673,-1,-1,-1
-23.06,31.34,-17.32,4219,-2087,6667,-1,-1,-1
-23.02,31.36,-17.33,4243,-2091,6687,-2,-1,-1
-22.99,31.39,-17.36,4264,-2116,6684,-1,-1,-1
-22.97,31.41,-17.39,4264,-2119,6662,-1,-1,-1
-22.96,31.45,-17.39,4271,-2122,6618,0,-2,-1
-22.96,31.48,-17.39,4287,-2120,6649,0,-2,-1
-22.95,31.50,-17.40,4280,-2133,6664,-1,-1,-1
-22.95,31.53,-17.42,4274,-2136,6648,-1,-2,-1
-22.96,31.56,-17.43,4264,-2135,6655,0,-2,-1
-22.95,31.59,-17.44,4270,-2132,6667,-1,-1,-1
-22.95,31.61,-17.45,4249,-2140,6638,0,-2,-1
-22.96,31.67,-17.43,4268,-2126,6651,1,-3,-1
-22.96,31.72,-17.42,4278,-2123,6697,-1,-2,-1
-22.96,31.76,-17.43,4292,-2144,6704,-1,-2,-1
-22.97,31.82,-17.40,4207,-2123,6465,3,-5,-3
-23.10,32.07,-17.09,4340,-2093,6416,12,-7,-5
-23.18,32.22,-16.75,4444,-2041,6758,7,-2,-6
-23.10,32.16,-16.57,4443,-2051,6897,1,5,-4
-22.96,32.06,-16.45,4445,-2073,6813,0,3,-5
-22.89,32.02,-16.36,4330,-2048,6819,1,0,-3
-22.89,32.01,-16.33,4167,-1976,6796,0,-2,0
-22.93,32.02,-16.34,4112,-1878,6685,-1,-2,0
-22.95,32.09,-16.38,4176,-1834,6665,-3,-4,1
-22.99,32.17,-16.48,4240,-1912,6671,-2,-5,2
-23.12,32.27,-16.54,4351,-1950,6707,1,-5,2
-23.25,32.34,-16.58,4418,-1950,6772,0,-4,3
-23.36,32.38,-16.64,4400,-1953,6803,-1,-3,3
-23.45,32.43,-16.71,4367,-1949,6749,-1,-4,2
-23.50,32.50,-16.78,4327,-1896,6705,-3,-4,0
-23.49,32.62,-16.88,4314,-1897,6603,-3,-6,-1
-23.47,32.80,-16.92,4341,-1949,6526,-1,-6,-2
-23.45,32.97,-16.91,4385,-1908,6562,-2,-6,-3
-23.41,33.18,-17.02,4415,-1970,6572,-5,-9,-1
-23.40,33.45,-17.20,4454,-2096,6603,-4,-12,-1
-23.41,33.81,-17.33,4489,-2150,6578,-2,-14,-3
-23.42,34.28,-17.48,4617,-2231,6526,-3,-19,-4
-23.45,34.82,-17.59,4752,-2249,6465,0,-19,-4
-23.52,35.35,-17.63,4870,-2148,6444,-1,-18,-4
-23.56,35.86,-17.73,4960,-2094,6319,-2,-18,-3
-23.61,36.34,-17.81,4996,-1991,6213,-2,-16,-3
-23.57,36.81,-17.91,5011,-1907,6183,-5,-17,-5
-23.47,37.30,-18.08,5067,-1958,6152,-6,-16,-5
-23.41,37.73,-18.24,5099,-2068,6075,-3,-13,-4
-23.44,38.06,-18.29,5115,-2042,6127,-1,-12,-3
-23.47,38.35,-18.34,5110,-1971,6107,-2,-10,-2
-23.50,38.63,-18.41,5028,-1925,6173,-3,-12,-1
-23.52,38.97,-18.59,5047,-1937,6215,-6,-14,-1
-23.52,39.34,-18.84,5061,-2011,6157,-6,-15,-1
-23.53,39.72,-19.09,5169,-2053,6036,-6,-13,-1
-23.54,39.99,-19.33,5185,-2074,6027,-6,-12,1
-23.62,40.28,-19.60,5194,-2155,5886,-3,-12,1
-23.70,40.51,-19.70,5218,-2169,5825,0,-7,-1
-23.75,40.66,-19.78,5260,-2183,5871,-2,-7,0
-23.82,40.78,-19.85,5212,-2180,5794,2,-5,0
-23.95,40.90,-19.85,5155,-2115,5880,0,-8,0
-24.01,41.08,-19.90,5208,-2044,5891,-2,-7,-1
-23.92,41.21,-20.01,5382,-1984,5866,-6,-2,-1
-23.74,41.21,-20.18,5323,-2005,5969,-9,-2,0
-23.61,41.29,-20.41,5262,-2184,5999,-6,-7,-1
-23.56,41.45,-20.55,5312,-2237,5958,-3,-7,-2
-23.54,41.62,-20.65,5427,-2266,5929,-3,-6,-1
-23.54,41.72,-20.77,5490,-2248,5859,-3,-3,0
-23.56,41.80,-20.88,5402,-2209,5896,-3,-7,0
-23.61,41.98,-20.93,5425,-2148,5909,-1,-9,-2
-23.46,42.13,-21.04,5504,-2065,5997,-8,-6,-3
-23.18,42.32,-21.33,5412,-2058,6016,-15,-9,-4
-22.80,42.50,-21.76,5484,-2204,5947,-15,-6,0
-22.54,42.65,-22.23,5401,-2221,5838,-11,-7,-1
-22.12,42.83,-22.69,5521,-2251,5650,-22,-5,-2
-21.81,43.01,-23.36,5645,-2496,5471,-16,-8,3
-21.76,43.09,-23.85,5494,-2506,5314,-6,-6,5
-21.68,43.15,-24.31,5563,-2686,5140,-4,-2,5
-21.78,43.14,-24.38,5396,-2300,5301,-4,-3,0
-21.55,43.20,-24.57,5488,-2408,5360,-11,-4,-1
-21.46,43.34,-24.84,5520,-2654,5358,-1,-8,-1
-21.56,43.51,-24.82,5593,-2713,5335,6,-5,-1
-21.75,43.59,-24.81,5652,-2782,5352,5,-3,2
-22.19,43.68,-24.58,5646,-2555,5454,10,-5,-1
-22.49,43.82,-24.42,5673,-2345,5540,5,-9,3
-22.66,43.97,-24.56,5811,-2443,5580,0,-4,5
-22.97,44.08,-24.65,5760,-2458,5433,0,-5,1
-23.26,44.10,-24.74,5740,-2399,5509,0,-6,7
-23.49,44.06,-24.73,5642,-2077,5663,1,-1,4
-23.38,44.05,-24.94,5678,-2060,5361,-9,1,2
-23.11,43.99,-25.20,5479,-2215,5427,-11,-2,0
-22.90,44.02,-25.43,5423,-2491,5241,-6,-2,-1
-22.97,44.06,-25.55,5474,-2536,5000,5,0,-1
-22.96,44.07,-25.58,5596,-2582,5061,-4,-2,1
-23.11,44.04,-25.53,5644,-2559,5084,6,1,2
-23.15,43.97,-25.48,5633,-2634,5245,-1,-1,1
-23.28,43.95,-25.53,5779,-2730,5256,4,1,2
-23.41,43.90,-25.47,5744,-2715,5321,2,0,1
-23.51,43.81,-25.41,5808,-2734,5413,2,2,0
-23.63,43.73,-25.39,5778,-2716,5263,3,2,3
-23.80,43.60,-25.25,5604,-2688,5327,5,1,1
-23.92,43.55,-25.15,5593,-2631,5211,4,2,1
-24.23,43.53,-25.07,5460,-2766,5118,10,-2,1
-24.68,43.51,-24.88,5540,-2568,5189,9,-2,5
-25.11,43.51,-24.72,5591,-2631,5184,12,-1,3
-25.62,43.48,-24.57,5644,-2542,5340,8,-3,7
-26.11,43.47,-24.51,5678,-2506,5353,8,-3,7
-26.70,43.46,-24.49,5767,-2565,5332,11,-3,9
-27.38,43.43,-24.35,5770,-2456,5322,14,-3,8
-27.99,43.41,-24.18,5750,-2375,5333,13,-3,7
-28.57,43.40,-24.01,5727,-2274,5332,11,-2,6
-29.04,43.39,-23.88,5761,-2237,5365,9,-1,7
-29.51,43.33,-23.74,5710,-2218,5423,10,0,5
-29.84,43.26,-23.56,5676,-2120,5469,4,1,4
-30.04,43.19,-23.51,5672,-2121,5501,3,1,4
-30.16,43.08,-23.43,5701,-2132,5499,2,5,2
-30.21,42.90,-23.37,5673,-2184,5509,1,5,2
-30.21,42.71,-23.26,5602,-2191,5553,1,7,1
-30.04,42.46,-23.15,5568,-2198,5530,-2,10,0
-29.83,42.18,-23.12,5502,-2223,5569,-5,9,0
-29.54,41.89,-23.09,5466,-2261,5571,-4,12,-1
-29.25,41.60,-23.11,5405,-2329,5673,-8,9,0
-28.99,41.38,-23.19,5361,-2506,5601,-2,8,-2
-28.83,41.16,-23.14,5288,-2503,5747,-3,6,-1
-28.66,40.94,-23.14,5275,-2475,5851,-3,7,0
-28.49,40.75,-23.22,5308,-2428,5794,-6,7,2
-28.40,40.51,-23.38,5156,-2378,5862,-7,3,5
-28.30,40.37,-23.67,5212,-2407,5746,-9,3,4
-28.17,40.19,-23.93,5310,-2319,5774,-9,5,5
-27.98,39.99,-24.32,5290,-2394,5849,-12,3,6
-27.93,39.86,-24.76,5386,-2635,5742,-7,2,8
-28.06,39.65,-25.04,5388,-2642,5754,-3,4,10
-28.20,39.44,-25.30,5282,-2575,5696,-5,3,9
