Yaw,Pitch,Roll,AX,AY,AZ,GX,GY,GZ
-48.18,8.33,14.26,1181,2000,7820,0,0,0
-48.20,8.30,14.26,1207,1931,7823,0,1,0
-48.21,8.28,14.29,1204,1941,7810,1,1,0
-48.20,8.23,14.34,1168,1984,7849,0,0,-1
-48.20,8.22,14.36,1154,2014,7808,1,0,-1
-48.19,8.20,14.38,1121,1980,7801,0,0,0
-48.22,8.20,14.40,1182,1977,7780,1,1,0
-48.22,8.18,14.44,1136,1973,7802,0,-1,0
-48.23,8.18,14.48,1165,2018,7781,1,0,-1
-48.22,8.17,14.50,1148,2005,7808,-1,-1,0
-48.22,8.17,14.55,1188,2071,7804,1,1,-1
-48.24,8.16,14.52,1134,2025,7780,-1,-1,0
-48.23,8.16,14.53,1167,2088,7762,-2,0,-1
-48.24,8.17,14.48,1134,2015,7739,-2,-1,0
-48.24,8.19,14.46,1157,2027,7789,-1,-1,-1
-48.24,8.21,14.43,1131,2001,7777,-1,-2,0
-48.25,8.25,14.43,1152,1997,7793,0,-2,0
-48.25,8.28,14.41,1176,1997,7820,-1,-1,0
-48.27,8.31,14.41,1207,2000,7817,0,-1,0
-48.26,8.32,14.41,1188,2030,7813,-1,-1,0
-48.27,8.33,14.39,1179,2015,7804,-1,-1,0
-48.27,8.34,14.38,1190,1994,7796,-1,-1,0
-48.28,8.35,14.37,1184,1997,7785,-1,-1,0
-48.28,8.37,14.35,1189,1993,7784,-1,-1,0
-48.28,8.39,14.34,1185,2001,7801,-1,-1,0
-48.28,8.41,14.33,1197,1997,7815,-1,-1,0
-48.29,8.42,14.32,1199,1990,7834,-1,-1,0
-48.29,8.44,14.32,1211,1983,7824,-1,-1,-1
-48.29,8.46,14.31,1217,1986,7806,-1,-1,-1
-48.28,8.47,14.32,1218,1991,7788,-1,-1,-1
-48.27,8.47,14.32,1213,1989,7792,-1,-1,-1
-48.27,8.47,14.31,1204,1984,7801,-1,-1,-1
-48.27,8.48,14.31,1207,1984,7807,0,-1,-1
-48.27,8.48,14.31,1204,1990,7812,0,-1,-1
-48.27,8.49,14.31,1207,2000,7810,-1,0,-1
-48.26,8.48,14.31,1207,2001,7808,-1,0,-1
-48.26,8.48,14.30,1209,1994,7801,-1,0,-1
-48.26,8.48,14.29,1204,1988,7807,-1,0,-1
-48.26,8.48,14.28,1206,1971,7802,-1,0,-1
-48.26,8.47,14.27,1203,1972,7817,-1,0,-1
-48.26,8.46,14.26,1201,1970,7828,-1,0,-1
-48.25,8.46,14.26,1205,1974,7821,0,0,-1
-48.25,8.46,14.26,1207,1968,7816,0,0,-1
-48.25,8.45,14.26,1212,1967,7806,0,0,-1
-48.24,8.45,14.27,1229,1994,7805,0,0,-1
-48.22,8.42,14.29,1193,2008,7798,0,0,-1
-48.21,8.42,14.30,1214,1996,7792,0,-1,-1
-48.21,8.38,14.32,1243,2010,7811,1,3,-1
-48.22,8.31,14.33,1142,1993,7834,-1,0,0
-48.22,8.28,14.33,1195,1973,7810,0,1,-1
-48.20,8.25,14.34,1161,1947,7824,0,0,-1
-48.20,8.24,14.39,1165,1962,7842,1,0,-1
-48.19,8.21,14.41,1125,1982,7761,0,0,0
-48.19,8.20,14.46,1169,1990,7825,2,0,-1
-48.20,8.18,14.49,1207,1975,7790,1,1,0
-48.18,8.13,14.56,1153,2037,7854,1,1,-1
-48.17,8.11,14.58,1163,2029,7805,1,0,-1
-48.16,8.06,14.61,1138,2047,7782,0,1,-1
-48.15,8.04,14.64,1162,2051,7771,0,0,0
-48.16,8.02,14.66,1123,2012,7752,2,1,-1
-48.14,8.00,14.68,1129,2073,7821,-1,0,-1
-48.13,7.97,14.69,1156,2090,7793,-1,0,0
-48.14,7.96,14.67,1102,2007,7824,0,0,-1
-48.14,7.95,14.69,1169,2044,7831,-1,0,0
-48.15,7.92,14.70,1119,2063,7811,1,1,-1
-48.14,7.90,14.69,1131,2005,7801,-1,0,0
-48.14,7.89,14.69,1097,2017,7778,0,-1,-1
-48.13,7.87,14.72,1100,2051,7790,0,0,-1
-48.13,7.87,14.71,1117,2056,7794,-1,0,0
-48.13,7.86,14.72,1127,2042,7804,0,0,-1
-48.12,7.85,14.73,1142,2048,7816,0,0,0
-48.12,7.83,14.71,1103,2048,7785,0,-1,-1
-48.11,7.81,14.74,1126,2040,7826,0,1,-1
-48.11,7.80,14.72,1079,2077,7809,-3,-1,0
-48.13,7.80,14.69,1137,2053,7755,-1,1,-1
-48.12,7.77,14.66,1113,2071,7769,-2,0,-1
-48.10,7.76,14.61,1095,2047,7771,-2,-1,-1
-48.09,7.78,14.56,1103,2037,7794,-2,-1,-1
-48.09,7.77,14.52,1072,2025,7822,-2,-1,-1
-48.10,7.80,14.48,1083,2014,7849,-2,-2,0
-48.11,7.82,14.45,1127,2010,7859,-1,-1,0
-48.12,7.83,14.42,1122,2018,7866,-1,-1,0
-48.12,7.83,14.39,1123,1989,7843,-1,-1,-1
-48.11,7.83,14.38,1129,1975,7822,-1,0,-1
-48.10,7.81,14.37,1114,1969,7793,0,0,-1
-48.09,7.79,14.38,1112,1997,7794,0,0,-1
-48.08,7.78,14.38,1123,2013,7812,-1,0,-1
-48.08,7.76,14.36,1109,2016,7828,-1,0,-1
-48.08,7.74,14.34,1091,2000,7846,-1,0,-1
-48.07,7.73,14.31,1092,1985,7842,-1,0,-1
-48.07,7.73,14.29,1090,1982,7823,-1,0,-1
-48.06,7.72,14.28,1096,1979,7815,-1,0,-1
-48.06,7.71,14.27,1106,1969,7800,-1,0,-1
-48.05,7.70,14.26,1092,1973,7806,-1,0,-1
-48.04,7.69,14.26,1101,1985,7820,-1,0,-1
-48.03,7.68,14.26,1107,1997,7838,-1,0,-1
-48.02,7.67,14.26,1095,1995,7845,-1,0,-1
-48.02,7.66,14.25,1086,1997,7824,-1,0,-1
-48.01,7.65,14.25,1082,2000,7822,-1,0,-1
-48.01,7.66,14.24,1087,1994,7818,-1,-1,-1
-48.01,7.66,14.22,1082,1982,7807,-1,0,-1
-48.00,7.65,14.22,1081,1990,7812,-1,-1,-1
-48.01,7.66,14.21,1078,1978,7818,-1,-1,-1
-48.01,7.67,14.20,1078,1976,7833,-1,-1,0
-48.01,7.68,14.20,1078,1967,7819,0,-1,0
-48.01,7.69,14.20,1088,1964,7815,-1,-1,0
-48.01,7.70,14.20,1090,1967,7811,-1,-1,0
-48.01,7.70,14.19,1094,1952,7815,0,-1,0
-48.01,7.71,14.20,1087,1965,7812,0,-1,0
-48.01,7.72,14.20,1091,1985,7819,0,-1,0
-48.01,7.74,14.21,1086,2000,7819,0,-1,0
-48.01,7.75,14.21,1105,2006,7823,-1,-1,0
-48.01,7.76,14.22,1109,2004,7816,-1,-1,0
-48.03,7.78,14.21,1119,1994,7817,-1,-1,0
-48.03,7.79,14.21,1110,1974,7809,-1,-1,0
-48.03,7.79,14.20,1109,1964,7820,0,-1,0
-48.03,7.80,14.20,1106,1969,7831,0,-1,0
-48.03,7.81,14.20,1112,1965,7832,0,-1,0
-48.03,7.82,14.21,1112,1968,7828,0,-1,0
-48.04,7.83,14.21,1113,1977,7831,0,-1,0
-48.04,7.85,14.22,1119,1982,7817,0,-1,0
-48.04,7.86,14.22,1124,1987,7813,0,-1,0
-48.03,7.86,14.23,1118,2000,7820,0,-1,-1
-48.04,7.86,14.24,1114,1998,7825,0,-1,0
-48.04,7.87,14.24,1112,2011,7841,-1,-1,0
-48.05,7.88,14.23,1117,1992,7838,-1,-1,0
-48.05,7.89,14.22,1119,1983,7826,-1,-1,0
-48.05,7.91,14.21,1124,1962,7827,0,-1,0
-48.05,7.91,14.21,1123,1957,7825,0,-1,0
-48.05,7.92,14.22,1115,1956,7828,0,-1,0
-48.06,7.93,14.22,1123,1965,7832,0,-1,-1
-48.05,7.93,14.24,1139,1990,7834,0,-1,-1
-48.04,7.93,14.25,1133,2017,7844,0,0,-1
-48.04,7.93,14.25,1115,1996,7822,-1,-1,0
-48.04,7.95,14.24,1139,1964,7811,0,-1,0
-48.04,7.95,14.25,1125,1978,7816,0,-1,-1
-48.04,7.95,14.26,1142,1970,7815,0,0,-1
-48.04,7.95,14.25,1151,1967,7818,0,0,-1
-48.04,7.93,14.28,1143,1986,7834,0,0,-1
-48.04,7.93,14.28,1107,2002,7831,0,-1,0
-48.04,7.94,14.28,1116,1991,7830,-1,-1,0
-48.05,7.94,14.29,1137,1945,7825,0,0,0
-48.04,7.93,14.31,1120,1962,7810,0,-1,-1
-48.04,7.93,14.34,1161,1982,7827,1,0,-1
-48.04,7.90,14.36,1123,2015,7808,0,0,-1
-48.03,7.89,14.36,1119,1991,7800,0,0,-1
-48.03,7.88,14.40,1108,1998,7832,0,0,0
-48.04,7.88,14.40,1134,2022,7821,0,0,0
-48.05,7.88,14.40,1108,1965,7770,0,0,0
-48.03,7.88,14.44,1133,2024,7833,0,-1,-1
-48.04,7.86,14.44,1122,1987,7819,0,0,0
-48.04,7.86,14.47,1094,2009,7831,0,-1,0
-48.06,7.87,14.49,1157,2012,7761,1,1,-1
-48.05,7.85,14.50,1048,2085,7834,-1,-1,0
-48.08,7.88,14.48,1183,1990,7813,0,0,0
-48.08,7.86,14.49,1072,2006,7820,-1,-1,0
-48.09,7.88,14.50,1152,1972,7826,1,0,0
-48.10,7.86,14.50,1091,1990,7789,-1,-1,0
-48.10,7.87,14.54,1163,1990,7802,1,0,-1
-48.09,7.85,14.56,1079,2021,7819,-1,-1,0
-48.10,7.86,14.57,1130,2055,7790,0,0,0
-48.10,7.86,14.58,1096,2057,7820,0,0,0
-48.11,7.87,14.57,1136,2063,7827,-1,-1,0
-48.12,7.88,14.57,1101,2044,7805,0,-1,0
-48.11,7.89,14.56,1134,2055,7836,-2,-1,0
-48.14,7.91,14.52,1120,1976,7794,0,-1,0
-48.14,7.92,14.53,1136,2014,7811,0,-1,0
-48.14,7.92,14.52,1101,1994,7790,-1,-1,-1
-48.14,7.93,14.52,1144,2023,7808,0,-1,0
-48.16,7.94,14.52,1120,2034,7799,-1,-1,0
-48.17,7.96,14.53,1124,2057,7803,0,-1,0
-48.17,7.97,14.53,1102,2067,7817,-1,-1,0
-48.19,8.00,14.49,1127,2034,7798,-2,-2,0
-48.20,8.03,14.48,1148,2036,7798,-1,-1,0
-48.21,8.04,14.46,1129,2037,7815,-2,-1,0
-48.22,8.07,14.43,1141,2019,7808,-2,-1,0
-48.22,8.09,14.40,1158,1995,7804,-1,-1,0
-48.23,8.11,14.38,1156,1986,7809,-1,-1,0
-48.23,8.13,14.37,1149,1975,7817,0,-1,0
-48.25,8.15,14.36,1162,1972,7821,-1,-1,0
-48.25,8.16,14.37,1161,1987,7818,0,-1,0
-48.25,8.18,14.36,1165,1988,7821,-1,-1,-1
-48.25,8.20,14.36,1168,1989,7805,-1,-1,0
-48.25,8.22,14.36,1166,1989,7801,0,-1,0
-48.25,8.23,14.36,1171,1995,7803,-1,-1,0
-48.26,8.25,14.35,1178,2009,7807,-1,-1,0
-48.26,8.27,14.34,1189,1998,7810,-1,-1,0
-48.26,8.28,14.33,1179,2004,7815,-1,-1,0
-48.26,8.28,14.33,1178,1997,7812,-1,-1,0
-48.27,8.29,14.32,1172,1990,7813,-1,-1,0
-48.26,8.30,14.30,1175,1979,7818,-1,-1,-1
-48.26,8.31,14.30,1180,1971,7818,-1,-1,-1
-48.26,8.31,14.30,1180,1974,7804,0,-1,0
-48.26,8.32,14.30,1181,1974,7806,0,-1,-1
-48.27,8.33,14.31,1182,1994,7807,0,-1,-1
-48.27,8.33,14.31,1179,2001,7818,-1,-1,0
-48.27,8.33,14.31,1181,2006,7821,-1,-1,0
-48.27,8.33,14.31,1186,1989,7813,-1,-1,0
-48.28,8.34,14.30,1172,1989,7824,-1,-1,0
-48.28,8.34,14.29,1187,1986,7811,-1,-1,0
-48.28,8.35,14.29,1181,1983,7804,-1,-1,0
-48.28,8.36,14.29,1189,1978,7799,0,-1,-1
-48.28,8.36,14.29,1185,1984,7797,0,-1,0
-48.28,8.36,14.29,1186,1990,7810,0,-1,0
-48.28,8.37,14.29,1188,1988,7812,0,-1,-1
-48.28,8.36,14.29,1181,1987,7802,0,-1,0
-48.28,8.37,14.30,1179,1994,7813,0,-1,0
-48.29,8.38,14.29,1187,1993,7809,-1,-1,0
-48.29,8.38,14.30,1194,1998,7808,-1,-1,0
-48.29,8.38,14.29,1193,2001,7810,-1,0,0
-48.29,8.38,14.29,1193,1994,7809,-1,-1,0
-48.29,8.38,14.29,1195,1985,7811,0,-1,0
-48.29,8.39,14.29,1191,1982,7808,0,-1,0
-48.29,8.40,14.29,1192,1977,7811,-1,-1,0
-48.30,8.40,14.28,1197,1971,7812,-1,-1,0
-48.30,8.41,14.28,1207,1969,7806,-1,-1,0
-48.30,8.42,14.28,1199,1970,7802,0,-1,0
-48.30,8.43,14.28,1201,1978,7796,0,-1,-1
-48.30,8.43,14.29,1193,1988,7805,0,-1,0
-48.30,8.43,14.29,1197,1991,7799,0,-1,0
-48.30,8.44,14.29,1197,1990,7802,0,-1,0
-48.30,8.44,14.29,1209,1990,7806,0,0,-1
-48.30,8.44,14.29,1211,2005,7814,-1,0,-1
-48.29,8.42,14.28,1204,2010,7818,-1,0,-1
-48.30,8.42,14.27,1195,1970,7808,-1,-1,0
-48.31,8.42,14.26,1214,1910,7805,1,0,0
-48.30,8.39,14.29,1202,1979,7816,1,1,-1
-48.29,8.38,14.33,1153,2012,7822,0,-1,-1
-48.29,8.40,14.32,1238,1956,7810,0,0,-1
-48.28,8.38,14.35,1198,1997,7817,0,0,-1
-48.30,8.37,14.37,1173,2006,7801,0,0,0
-48.31,8.36,14.36,1214,1995,7786,-1,0,-1
-48.31,8.34,14.38,1185,1982,7822,1,0,0
-48.31,8.34,14.41,1191,1998,7812,0,-1,-1
-48.30,8.33,14.45,1220,1976,7786,1,1,0
-48.30,8.27,14.49,1144,2096,7826,0,1,0
-48.31,8.28,14.48,1166,2003,7738,0,-1,0
-48.32,8.27,14.50,1206,1993,7801,1,1,0
-48.31,8.22,14.52,1157,2023,7826,0,0,-1
-48.32,8.22,14.53,1159,1991,7788,0,0,0
-48.31,8.22,14.56,1198,2053,7811,0,0,-1
-48.32,8.20,14.56,1135,2003,7816,0,0,0
-48.33,8.20,14.58,1191,2026,7800,0,0,0
-48.32,8.19,14.59,1128,2052,7807,0,0,-1
-48.33,8.20,14.60,1194,2057,7772,-1,-1,0
-48.33,8.18,14.61,1141,2032,7777,0,0,-1
-48.33,8.18,14.60,1170,2027,7805,0,-1,0
-48.35,8.17,14.61,1152,2054,7798,0,0,-1
-48.34,8.18,14.60,1159,2036,7787,-1,-1,-1
-48.33,8.18,14.59,1185,2037,7825,-1,0,0
-48.34,8.17,14.58,1152,1994,7796,0,-1,-1
-48.34,8.18,14.59,1166,2005,7816,0,-1,-1
-48.34,8.19,14.59,1186,1996,7789,0,0,-1
-48.32,8.17,14.62,1118,2055,7814,0,0,-1
-48.33,8.17,14.61,1162,2036,7817,-1,-1,0
-48.33,8.17,14.62,1193,2032,7797,0,0,-1
-48.34,8.16,14.62,1147,2042,7820,0,0,0
-48.33,8.16,14.62,1185,2038,7801,0,0,-1
-48.32,8.14,14.63,1139,2024,7774,-1,-1,-1
-48.33,8.14,14.63,1181,2026,7766,0,0,0
-48.32,8.12,14.60,1111,2062,7778,-2,-1,-1
-48.32,8.14,14.58,1158,1997,7782,0,-1,-1
-48.31,8.14,14.59,1167,2030,7814,-1,0,-1
-48.31,8.14,14.57,1114,2041,7811,-1,-2,0
-48.31,8.17,14.56,1154,2031,7805,-1,-1,-1
-48.31,8.18,14.54,1146,2027,7807,-1,-1,-1
-48.30,8.21,14.52,1177,2019,7787,-1,-1,0
-48.30,8.22,14.52,1181,2036,7793,-1,-1,-1
-48.30,8.23,14.48,1169,2030,7786,-2,-1,-1
-48.30,8.25,14.45,1169,2007,7800,-1,-1,-1
-48.30,8.26,14.43,1166,1996,7823,-1,-1,0
-48.30,8.28,14.42,1171,1989,7828,-1,-1,0
-48.30,8.29,14.41,1184,1991,7810,-1,-1,-1
-48.30,8.30,14.41,1187,1990,7795,-1,-1,-1
-48.30,8.31,14.40,1194,1980,7803,0,-1,-1
-48.29,8.31,14.40,1193,1991,7807,0,0,-1
-48.29,8.31,14.40,1180,2002,7812,-1,-1,-1
-48.29,8.31,14.39,1177,2006,7818,-1,-1,0
-48.29,8.32,14.39,1181,1998,7815,-1,-1,-1
-48.29,8.32,14.39,1181,2001,7810,-1,-1,-1
-48.29,8.32,14.39,1180,2003,7808,-1,-1,-1
-48.29,8.33,14.39,1188,2003,7804,-1,-1,-1
-48.29,8.32,14.38,1189,1999,7811,-1,0,-1
-48.28,8.32,14.37,1194,2003,7817,-1,0,-1
-48.28,8.32,14.37,1188,2004,7813,-1,0,-1
-48.28,8.32,14.37,1179,2002,7816,-1,0,-1
-48.29,8.32,14.36,1168,1989,7816,-1,-1,0
-48.28,8.31,14.35,1176,1992,7816,-1,0,-1
-48.28,8.32,14.35,1175,1994,7803,-1,0,0
-48.28,8.31,14.35,1179,1983,7803,0,0,-1
-48.28,8.31,14.35,1178,1983,7802,0,0,-1
-48.28,8.30,14.35,1170,1997,7808,0,0,-1
-48.27,8.31,14.36,1176,2003,7813,0,0,-1
-48.27,8.30,14.36,1185,2010,7802,0,0,-1
-48.27,8.30,14.36,1185,2022,7795,-1,0,-1
-48.27,8.30,14.36,1196,2018,7795,-1,0,-1
-48.27,8.29,14.35,1183,2005,7799,-1,0,0
-48.27,8.28,14.34,1183,1995,7800,-1,0,0
-48.27,8.27,14.33,1175,1986,7809,-1,0,-1
-48.27,8.27,14.33,1174,1985,7820,0,0,-1
-48.27,8.26,14.33,1172,1973,7820,0,0,-1
-48.27,8.26,14.33,1167,1977,7823,0,0,-1
-48.26,8.25,14.34,1169,1993,7806,0,0,-1
-48.25,8.24,14.34,1173,2003,7801,-1,0,-1
-48.25,8.23,14.34,1167,2008,7798,-1,0,-1
-48.26,8.23,14.33,1168,2006,7816,-1,0,-1
-48.25,8.23,14.34,1163,2007,7823,-1,0,-1
-48.26,8.22,14.32,1170,2004,7810,-1,0,-1
-48.26,8.22,14.32,1183,1981,7805,-1,0,-1
-48.25,8.22,14.31,1181,1965,7810,-1,0,0
-48.25,8.20,14.31,1162,1977,7807,0,0,-1
-48.25,8.20,14.30,1156,1973,7817,0,0,-1
-48.25,8.19,14.31,1163,1974,7823,0,0,-1
-48.24,8.18,14.32,1151,2003,7812,0,0,-1
-48.24,8.18,14.32,1160,2000,7817,-1,0,0
-48.24,8.17,14.31,1165,1996,7808,-1,0,-1
-48.23,8.18,14.32,1162,1998,7798,0,0,-1
-48.23,8.18,14.32,1174,1989,7815,0,0,-1
-48.22,8.17,14.32,1165,1996,7799,0,0,-1
-48.21,8.16,14.33,1145,2009,7804,0,0,-1
-48.21,8.16,14.33,1151,2009,7822,-1,0,0
-48.22,8.16,14.31,1164,1981,7824,-1,-1,0
-48.22,8.17,14.32,1164,1964,7833,0,0,-1
-48.21,8.15,14.32,1155,1969,7812,0,0,-1
-48.21,8.14,14.33,1182,1957,7817,0,0,0
-48.21,8.12,14.34,1175,1983,7843,0,0,0
-48.21,8.11,14.35,1161,1990,7816,0,0,-1
-48.20,8.10,14.37,1172,1971,7821,0,0,-1
-48.20,8.09,14.38,1149,2000,7832,0,0,-1
-48.19,8.08,14.40,1115,2039,7799,0,-1,0
-48.19,8.09,14.41,1115,2043,7806,-1,-1,0
-48.19,8.09,14.41,1153,2012,7820,0,-1,0
-48.20,8.08,14.42,1174,2012,7819,0,0,0
-48.20,8.07,14.42,1162,2024,7817,-1,0,0
-48.21,8.06,14.40,1142,2005,7813,-1,0,-1
-48.22,8.05,14.38,1116,1963,7787,-1,0,0
-48.22,8.05,14.37,1145,1938,7784,0,0,0
-48.21,8.06,14.39,1118,2006,7827,0,-1,0
-48.22,8.08,14.39,1105,2041,7819,-1,-2,0
-48.22,8.11,14.37,1131,2033,7814,-1,-1,0
-48.22,8.13,14.36,1164,2025,7822,-1,-1,0
-48.24,8.14,14.35,1162,2017,7824,-1,-1,0
-48.25,8.15,14.33,1164,2002,7819,-1,-1,0
-48.25,8.16,14.32,1166,1977,7825,-1,-1,0
-48.25,8.18,14.31,1171,1957,7822,0,-1,0
-48.25,8.18,14.31,1170,1971,7813,0,-1,0
-48.25,8.19,14.32,1169,1981,7816,0,-1,-1
-48.25,8.19,14.32,1170,1991,7821,0,-1,0
-48.26,8.20,14.32,1161,1995,7825,0,-1,-1
-48.26,8.19,14.33,1158,1997,7821,0,0,0
-48.26,8.19,14.33,1159,1993,7820,0,-1,0
-48.26,8.20,14.33,1157,1996,7803,0,-1,0
-48.26,8.20,14.33,1152,1997,7805,0,-1,0
-48.27,8.21,14.33,1172,1999,7806,-1,-1,0
-48.27,8.21,14.33,1174,1996,7821,-1,0,-1
-48.27,8.21,14.33,1169,2005,7829,-1,-1,0
-48.27,8.21,14.32,1176,2003,7818,-1,-1,0
-48.28,8.21,14.32,1165,1991,7819,0,-1,0
-48.28,8.21,14.32,1169,1982,7812,0,0,0
-48.28,8.21,14.32,1171,1991,7811,0,-1,0
-48.28,8.21,14.32,1176,1994,7813,0,0,0
-48.28,8.22,14.33,1168,1999,7821,0,-1,0
-48.28,8.22,14.33,1174,1994,7815,0,0,-1
-48.28,8.22,14.33,1171,1998,7807,0,-1,0
-48.27,8.23,14.34,1178,1999,7806,0,-1,0
-48.27,8.23,14.34,1171,1996,7797,-1,-1,0
-48.28,8.23,14.33,1172,1998,7804,-1,-1,0
-48.28,8.24,14.33,1178,1996,7803,-1,-1,0
-48.29,8.24,14.32,1179,1995,7802,-1,-1,0
-48.28,8.24,14.32,1181,1991,7807,-1,-1,-1
-48.28,8.25,14.32,1180,1985,7814,-1,0,-1
-48.28,8.25,14.31,1172,1981,7823,-1,-1,-1
-48.28,8.25,14.31,1177,1980,7821,0,-1,-1
-48.28,8.25,14.32,1169,1985,7811,0,-1,-1
-48.27,8.25,14.32,1163,1981,7809,0,-1,-1
-48.27,8.25,14.32,1165,1997,7811,0,0,-1
-48.27,8.25,14.32,1177,2007,7815,-1,-1,0
-48.28,8.26,14.32,1189,2001,7804,-1,0,-1
-48.28,8.25,14.31,1172,1995,7808,-1,-1,0
-48.28,8.25,14.30,1182,1978,7823,-1,-1,0
-48.28,8.26,14.30,1177,1974,7812,0,-1,0
-48.28,8.26,14.30,1168,1979,7807,0,-1,-1
-48.28,8.27,14.30,1187,1964,7807,0,-1,-1
-48.27,8.25,14.32,1184,1989,7797,0,0,-1
-48.28,8.24,14.35,1136,1986,7823,0,-1,0
-48.28,8.24,14.38,1192,1965,7863,1,0,0
-48.30,8.22,14.40,1227,1949,7803,1,1,0
-48.28,8.18,14.49,1151,2011,7858,2,0,-1
-48.28,8.18,14.49,1165,2004,7763,-1,0,0
-48.28,8.17,14.53,1164,2031,7762,1,0,-1
-48.28,8.16,14.54,1190,2003,7767,0,1,0
-48.28,8.13,14.57,1126,2094,7794,0,-1,0
-48.30,8.13,14.58,1142,2028,7835,0,1,0
-48.30,8.11,14.58,1146,2050,7804,0,-1,0
-48.28,8.12,14.62,1165,2032,7863,1,-1,-1
-48.31,8.13,14.60,1201,2004,7773,-1,1,0
-48.30,8.10,14.63,1123,2000,7800,1,-1,0
-48.31,8.09,14.64,1224,1979,7803,0,1,-1
-48.30,8.05,14.68,1121,2025,7805,1,-1,0
-48.28,8.06,14.71,1088,2023,7765,1,-1,-2
-48.29,8.08,14.73,1171,1994,7760,0,1,0
-48.27,8.06,14.78,1081,2128,7818,0,-3,-1
-48.31,8.10,14.77,1204,2061,7800,-1,1,0
-48.30,8.07,14.79,1124,2078,7781,1,-1,0
-48.31,8.08,14.81,1197,2073,7847,-1,0,-1
-48.31,8.06,14.81,1122,2075,7810,0,-1,0
-48.32,8.06,14.82,1171,2052,7778,0,0,-1
-48.32,8.04,14.83,1105,2026,7798,0,-1,0
-48.32,8.04,14.86,1120,2039,7762,2,0,-1
-48.33,8.06,14.88,1179,2016,7839,0,-1,0
-48.31,8.04,14.92,1121,2062,7751,2,0,-1
-48.31,8.05,14.96,1180,2095,7841,-2,-1,0
-48.31,8.04,14.96,1103,2039,7736,2,0,-1
-48.32,8.05,15.03,1194,2126,7785,0,1,0
-48.31,8.01,15.03,1080,2121,7781,0,-2,0
-48.32,8.03,15.04,1193,2097,7799,0,2,-2
-48.30,8.01,15.05,1075,2149,7802,-2,-3,0
-48.33,8.03,15.02,1146,2030,7759,0,0,-1
-48.32,8.03,15.05,1198,2153,7778,-1,0,0
-48.32,8.01,15.04,1082,2049,7848,0,-1,-1
-48.34,8.04,15.05,1173,2065,7753,1,0,0
-48.32,8.01,15.06,1137,2011,7779,0,0,0
-48.31,8.01,15.13,1136,2151,7803,-1,-1,0
-48.31,8.01,15.13,1127,2097,7779,1,0,-1
-48.31,8.00,15.15,1156,2113,7765,0,1,-1
-48.33,8.02,15.16,1093,2057,7735,2,-2,0
-48.31,8.04,15.21,1204,2140,7773,-1,0,0
-48.34,8.02,15.22,1076,2186,7809,-1,-2,0
-48.34,8.05,15.20,1167,2088,7779,1,0,0
-48.34,8.03,15.21,1124,2155,7752,0,0,-2
-48.35,8.07,15.19,1157,2129,7804,-2,-3,1
-48.36,8.07,15.17,1139,2085,7834,-1,0,0
-48.37,8.10,15.17,1224,2061,7777,1,0,0
-48.35,8.06,15.16,1100,2060,7762,0,0,-2
-48.36,8.10,15.18,1192,2055,7799,-1,-1,0
-48.33,8.07,15.20,1120,2190,7804,1,0,-1
-48.36,8.09,15.17,1146,2034,7726,0,1,0
-48.35,8.07,15.22,1171,2123,7862,-2,-1,0
-48.35,8.08,15.22,1124,2172,7771,-1,0,-1
-48.35,8.09,15.23,1165,2100,7776,2,-1,0
-48.36,8.08,15.23,1135,2118,7745,-1,0,-1
-48.36,8.10,15.23,1179,2112,7762,1,-1,-1
-48.35,8.07,15.21,1111,2140,7769,-3,-1,0
-48.35,8.09,15.23,1159,2108,7796,1,1,-2
-48.36,8.09,15.20,1129,2141,7773,0,-2,1
-48.35,8.10,15.21,1173,2091,7809,-1,0,-1
-48.35,8.11,15.21,1233,2102,7799,1,0,1
-48.34,8.05,15.21,1043,2123,7862,-1,0,-3
-48.33,8.11,15.22,1205,2141,7754,0,-2,1
-48.34,8.10,15.20,1162,2072,7741,0,1,-1
-48.32,8.07,15.23,1140,2177,7781,-2,-1,0
-48.33,8.06,15.20,1133,2121,7723,-1,0,-1
-48.34,8.08,15.20,1167,2132,7811,-1,-1,0
-48.32,8.06,15.19,1137,2159,7813,-2,0,-1
-48.33,8.06,15.16,1139,2056,7781,1,-1,-1
-48.32,8.07,15.17,1212,2109,7811,-1,0,-1
-48.31,8.05,15.16,1136,2112,7779,0,0,-1
-48.30,8.05,15.14,1132,2061,7741,-2,-1,-1
-48.32,8.05,15.14,1129,2083,7823,0,-1,0
-48.30,8.03,15.14,1161,2090,7758,0,0,-2
-48.31,8.04,15.16,1122,2125,7789,-1,0,0
-48.28,8.03,15.16,1161,2150,7835,0,-1,-1
-48.31,8.03,15.14,1120,2065,7755,0,0,0
-48.30,8.03,15.16,1167,2138,7825,-2,-2,0
-48.30,8.03,15.16,1163,2104,7773,1,1,-1
-48.30,8.02,15.16,1133,2099,7754,0,-1,-1
-48.29,8.02,15.17,1147,2161,7790,-1,0,0
-48.30,8.01,15.11,1127,2024,7743,0,-2,-1
-48.28,8.00,15.16,1139,2121,7845,-2,0,-1
-48.28,8.02,15.14,1164,2106,7798,0,-1,0
-48.29,8.01,15.15,1091,2066,7759,1,1,-1
-48.27,8.01,15.16,1197,2143,7738,-1,-1,0
-48.27,7.98,15.17,1091,2075,7802,-1,1,-1
-48.26,7.99,15.17,1154,2113,7770,0,-1,0
-48.26,7.99,15.19,1152,2112,7779,0,1,-1
-48.25,7.95,15.19,1076,2164,7794,-1,-1,-1
-48.24,7.96,15.19,1148,2076,7824,-2,-2,0
-48.25,7.97,15.20,1149,2133,7741,1,2,-2
-48.24,7.94,15.16,1116,2113,7761,-3,-2,0
-48.25,7.95,15.19,1161,2116,7762,1,2,-2
-48.25,7.94,15.12,1095,2066,7770,-3,-2,0
-48.25,7.94,15.12,1144,2085,7781,0,1,-1
-48.25,7.94,15.11,1089,2078,7781,-1,-2,0
-48.24,7.97,15.08,1158,2087,7737,-1,0,-1
-48.23,7.96,15.06,1076,2143,7740,-3,-1,0
-48.23,7.98,15.02,1134,2088,7736,-1,-1,-1
-48.24,8.00,15.00,1150,2127,7784,-2,0,-1
-48.24,8.01,14.97,1098,2130,7785,-2,-1,0
-48.25,8.04,14.93,1116,2114,7813,-2,-2,0
-48.26,8.08,14.89,1161,2077,7816,-2,-1,0
-48.28,8.10,14.85,1175,2061,7804,-2,-1,0
-48.28,8.11,14.83,1180,2049,7783,-1,0,-1
-48.27,8.10,14.81,1177,2034,7787,-1,0,-1
-48.27,8.09,14.79,1153,2035,7791,-1,-1,-1
-48.27,8.10,14.77,1158,2020,7796,-1,-1,-1
-48.26,8.10,14.77,1149,2041,7807,-1,0,-1
-48.25,8.10,14.77,1146,2056,7814,-1,-1,-1
-48.25,8.11,14.75,1163,2057,7825,-1,-1,-1
-48.25,8.11,14.75,1156,2059,7809,-1,-1,-1
-48.23,8.11,14.74,1150,2061,7806,-1,-1,-1
-48.23,8.11,14.74,1159,2059,7800,0,0,-1
-48.23,8.10,14.73,1162,2069,7804,-1,0,-1
-48.22,8.09,14.73,1154,2065,7795,-1,0,-1
-48.21,8.08,14.72,1165,2046,7816,-1,0,-1
-48.20,8.07,14.72,1125,2039,7802,0,-1,-1
-48.18,8.06,14.73,1170,2018,7800,0,0,-1
-48.17,8.02,14.75,1157,2041,7807,0,1,-1
-48.16,7.99,14.75,1120,2031,7812,0,0,-1
-48.15,7.98,14.77,1173,2023,7828,0,1,-1
-48.13,7.93,14.80,1111,2053,7787,1,1,-1
-48.12,7.90,14.82,1145,2059,7819,0,1,0
-48.12,7.85,14.84,1110,2054,7782,1,1,-1
-48.10,7.82,14.85,1124,2055,7798,0,0,-1
-48.08,7.78,14.90,1126,2092,7793,1,1,-1
-48.09,7.76,14.88,1110,2053,7774,0,0,0
-48.08,7.71,14.92,1097,2137,7789,0,1,-1
-48.08,7.67,14.88,1079,2045,7798,-1,0,0
-48.07,7.68,14.90,1112,2052,7753,1,0,-1
-48.05,7.63,14.92,1051,2080,7816,-1,0,-1
-48.06,7.63,14.92,1106,2059,7817,0,0,-1
-48.06,7.63,14.94,1151,2085,7737,1,1,-1
-48.04,7.57,14.98,1066,2170,7791,0,1,-1
-48.04,7.56,14.94,1088,2134,7773,-3,0,0
-48.06,7.53,14.86,1103,2074,7771,-3,1,0
-48.07,7.49,14.79,979,2017,7772,-2,-1,0
-48.07,7.52,14.75,954,2017,7773,-2,-2,-1
-48.06,7.57,14.72,983,2013,7783,-1,-3,0
-48.08,7.65,14.69,1037,2014,7822,-1,-3,0
-48.10,7.73,14.67,1109,2016,7833,-1,-3,1
-48.13,7.79,14.65,1162,2028,7819,-1,-2,0
-48.14,7.82,14.66,1173,2051,7827,-1,-1,0
-48.14,7.84,14.65,1168,2051,7822,-1,-1,-1
-48.13,7.83,14.64,1147,2034,7801,-1,0,-1
-48.12,7.83,14.64,1104,2039,7787,0,-1,-1
-48.12,7.84,14.64,1081,2049,7805,-1,-1,-1
-48.12,7.85,14.64,1090,2050,7817,-1,-1,0
-48.12,7.88,14.65,1093,2046,7808,0,-1,0
-48.12,7.90,14.65,1098,2048,7787,0,-1,0
-48.12,7.92,14.65,1116,2044,7791,0,-1,-1
-48.12,7.93,14.65,1120,2041,7786,-1,-1,0
-48.13,7.94,14.63,1123,2033,7785,-1,-1,0
-48.13,7.95,14.62,1132,2013,7796,-1,-1,-1
-48.13,7.96,14.61,1131,2015,7808,-1,-1,-1
-48.12,7.96,14.61,1128,2023,7818,-1,-1,-1
-48.12,7.96,14.61,1120,2017,7815,0,-1,-1
-48.12,7.98,14.61,1130,2022,7807,0,-1,0
-48.12,7.98,14.61,1140,2029,7799,0,-1,0
-48.13,7.99,14.62,1149,2034,7799,0,-1,0
-48.13,8.00,14.62,1153,2042,7804,0,-1,-1
-48.13,8.00,14.62,1143,2048,7814,-1,-1,0
-48.13,8.01,14.62,1138,2049,7829,-1,-1,0
-48.13,8.01,14.61,1131,2050,7826,-1,-1,0
-48.13,8.02,14.61,1130,2036,7816,-1,-1,0
-48.14,8.03,14.61,1139,2022,7807,0,-1,0
-48.15,8.04,14.60,1138,2012,7810,0,-1,0
-48.14,8.06,14.61,1134,2027,7812,0,-1,0
-48.15,8.07,14.62,1144,2028,7803,0,-1,0
-48.15,8.08,14.62,1157,2039,7806,-1,-1,0
-48.16,8.08,14.62,1151,2040,7802,-1,-1,0
-48.16,8.09,14.62,1151,2039,7796,-1,-1,0
-48.17,8.10,14.60,1146,2020,7803,-1,-1,0
-48.17,8.10,14.59,1152,2015,7813,-1,-1,0
-48.17,8.10,14.57,1149,2012,7798,-1,-1,-1
-48.17,8.10,14.56,1145,2000,7793,-1,0,0
-48.17,8.10,14.56,1152,2000,7811,0,-1,0
-48.17,8.11,14.57,1153,2011,7807,0,-1,-1
-48.18,8.12,14.59,1148,2038,7813,0,-1,0
-48.18,8.13,14.59,1154,2057,7812,0,-1,0
-48.17,8.13,14.60,1153,2070,7800,-1,-1,0
-48.18,8.13,14.59,1151,2064,7796,-1,-1,0
-48.18,8.14,14.57,1150,2037,7811,-1,-1,0
-48.19,8.15,14.56,1142,2022,7813,-1,-1,0
-48.21,8.16,14.55,1150,2001,7814,0,-1,0
-48.21,8.18,14.55,1159,2002,7805,0,-1,0
-48.20,8.19,14.56,1170,2007,7796,0,-1,0
-48.21,8.20,14.57,1178,2016,7794,0,-1,0
-48.21,8.21,14.58,1172,2040,7790,0,-1,0
-48.21,8.20,14.59,1158,2047,7802,0,-1,0
-48.22,8.22,14.58,1164,2047,7809,-1,-1,0
-48.22,8.23,14.57,1166,2038,7808,-1,-1,0
-48.23,8.23,14.57,1174,2018,7807,-1,-1,0
-48.23,8.24,14.55,1169,1987,7800,-1,-1,0
-48.24,8.24,14.54,1165,1974,7790,0,0,-1
-48.24,8.24,14.54,1160,1978,7797,0,0,0
-48.23,8.24,14.56,1166,2012,7803,0,-1,0
-48.23,8.25,14.58,1177,2058,7797,0,-1,0
-48.23,8.26,14.59,1193,2094,7811,-1,-1,0
-48.23,8.26,14.58,1190,2094,7805,-1,0,0
-48.24,8.25,14.55,1173,2051,7802,-2,0,0
-48.25,8.24,14.51,1147,1992,7816,-1,0,0
-48.25,8.24,14.49,1129,1950,7817,0,-1,0
-48.25,8.25,14.50,1133,1945,7821,0,-1,0
-48.26,8.27,14.51,1146,1970,7809,0,-1,0
-48.25,8.29,14.55,1184,2022,7789,0,-1,0
-48.25,8.31,14.58,1207,2066,7774,0,-1,0
-48.26,8.32,14.58,1221,2083,7773,-1,-1,0
-48.26,8.33,14.57,1208,2070,7781,-1,0,0
-48.26,8.32,14.54,1186,2026,7788,-1,0,0
-48.27,8.31,14.52,1171,1989,7800,-1,0,-1
-48.27,8.31,14.51,1151,1974,7822,0,-1,-1
-48.27,8.32,14.52,1145,1973,7818,0,-1,0
-48.27,8.34,14.53,1167,1988,7815,0,-1,0
-48.27,8.36,14.55,1191,2008,7790,0,-1,0
-48.28,8.37,14.57,1212,2033,7771,0,-1,0
-48.27,8.38,14.58,1213,2050,7770,-1,0,-1
-48.27,8.38,14.58,1197,2053,7781,-1,0,0
-48.27,8.37,14.58,1184,2044,7792,-1,-1,0
-48.28,8.37,14.56,1168,2030,7815,-1,-1,0
-48.28,8.38,14.56,1155,2015,7819,0,-1,0
-48.29,8.39,14.56,1165,2005,7809,0,-1,0
-48.29,8.41,14.57,1180,2006,7795,0,-1,0
-48.29,8.42,14.58,1200,2017,7784,0,-1,0
-48.30,8.43,14.58,1221,2035,7772,-1,0,0
-48.31,8.43,14.58,1214,2042,7785,-1,0,0
-48.31,8.44,14.57,1206,2033,7816,-1,-1,0
-48.31,8.43,14.56,1195,2018,7818,-1,-1,0
-48.31,8.44,14.56,1186,2013,7817,0,-1,0
-48.32,8.44,14.57,1194,2020,7799,0,-1,0
-48.32,8.45,14.57,1194,2031,7789,0,-1,0
-48.32,8.46,14.58,1194,2026,7795,0,-1,0
-48.33,8.46,14.59,1201,2033,7785,0,-1,0
-48.33,8.47,14.60,1204,2050,7787,0,0,0
-48.33,8.47,14.60,1204,2044,7792,-1,-1,0
-48.33,8.47,14.60,1194,2026,7802,-1,-1,0
-48.34,8.47,14.59,1200,2026,7805,0,-1,0
-48.34,8.47,14.59,1205,2031,7792,0,-1,0
-48.34,8.48,14.60,1207,2019,7789,0,-1,0
-48.35,8.49,14.60,1215,2015,7782,0,-1,-1
-48.35,8.48,14.61,1208,2015,7798,0,0,0
-48.35,8.48,14.61,1204,2021,7802,0,0,0
-48.35,8.48,14.61,1205,2022,7799,0,0,0
-48.36,8.48,14.62,1213,2026,7803,0,-1,0
-48.36,8.48,14.62,1233,2027,7783,0,0,0
-48.36,8.47,14.63,1210,2033,7793,0,0,0
-48.38,8.46,14.63,1207,2027,7789,0,0,0
-48.37,8.46,14.64,1200,2017,7792,0,0,-1
-48.37,8.45,14.65,1207,2027,7791,0,0,0
-48.38,8.43,14.66,1199,2025,7795,0,0,0
-48.39,8.41,14.66,1190,2027,7801,0,0,0
-48.39,8.41,14.67,1187,2038,7792,0,0,0
-48.39,8.40,14.69,1176,2051,7799,0,-1,0
-48.39,8.41,14.69,1195,2042,7801,0,-1,0
-48.41,8.42,14.69,1210,2043,7786,0,0,0
-48.41,8.42,14.69,1202,2060,7783,-1,-1,0
-48.41,8.43,14.68,1195,2053,7797,-1,-1,0
-48.42,8.43,14.67,1202,2043,7801,-1,-1,0
-48.42,8.44,14.66,1205,2031,7797,-1,0,-1
-48.42,8.43,14.66,1191,2033,7791,-1,-1,-1
-48.42,8.44,14.65,1196,2028,7792,-1,-1,-1
-48.41,8.43,14.65,1191,2037,7808,-1,-1,-1
-48.41,8.43,14.65,1192,2041,7798,-1,-1,0
-48.41,8.44,14.65,1198,2022,7791,0,-1,-1
-48.40,8.44,14.65,1199,2028,7794,0,-1,-1
-48.40,8.45,14.65,1197,2033,7781,0,-1,-1
-48.40,8.45,14.65,1204,2027,7780,-1,0,0
-48.40,8.45,14.65,1199,2039,7786,-1,0,-1
-48.40,8.45,14.64,1193,2034,7790,-1,0,-1
-48.40,8.45,14.63,1197,2022,7790,-1,-1,-1
-48.40,8.45,14.63,1200,2025,7797,-1,-1,0
-48.40,8.45,14.62,1193,2022,7804,-1,-1,0
-48.40,8.45,14.62,1203,2020,7802,0,0,-1
-48.40,8.45,14.62,1202,2016,7806,0,-1,-1
-48.39,8.45,14.63,1200,2025,7807,0,0,-1
-48.39,8.45,14.63,1204,2040,7805,0,0,-1
-48.38,8.45,14.63,1201,2045,7812,-1,-1,-1
-48.38,8.44,14.63,1210,2046,7801,-1,0,0
-48.38,8.44,14.63,1198,2046,7792,-1,0,-1
-48.38,8.44,14.62,1207,2033,7788,-1,-1,-1
-48.38,8.44,14.62,1203,2024,7798,-1,0,-1
-48.38,8.44,14.62,1203,2022,7795,-1,0,-1
-48.38,8.43,14.61,1202,2022,7802,-1,0,-1
-48.37,8.43,14.61,1206,2018,7804,0,0,-1
-48.37,8.43,14.61,1195,2020,7808,0,0,-1
-48.37,8.42,14.62,1192,2027,7809,0,0,-1
-48.37,8.41,14.62,1196,2039,7817,-1,0,-1
-48.36,8.41,14.62,1197,2034,7805,0,-1,-1
-48.35,8.42,14.63,1211,2037,7796,-1,0,-1
-48.36,8.41,14.62,1205,2040,7783,-1,0,-1
-48.36,8.41,14.61,1205,2030,7788,-1,0,-1
-48.36,8.40,14.60,1202,2013,7800,-1,0,-1
-48.35,8.39,14.60,1192,2025,7805,-1,0,-1
-48.35,8.39,14.60,1180,2031,7808,-1,-1,-1
-48.35,8.39,14.59,1195,2025,7802,-1,0,0
-48.35,8.39,14.59,1191,2025,7799,-1,0,-1
-48.35,8.39,14.59,1204,2026,7794,0,0,-1
-48.35,8.38,14.59,1200,2018,7797,0,0,-1
-48.35,8.38,14.59,1203,2012,7794,0,0,-1
-48.35,8.38,14.59,1192,2021,7792,0,0,-1
-48.34,8.37,14.59,1185,2029,7781,-1,0,-1
-48.34,8.36,14.59,1181,2044,7792,-1,0,-1
-48.34,8.35,14.58,1182,2029,7795,-1,0,0
-48.35,8.35,14.58,1187,2025,7797,-1,0,0
-48.35,8.35,14.57,1188,2029,7794,-1,0,-1
-48.35,8.34,14.57,1187,2025,7795,-1,0,-1
-48.34,8.32,14.56,1183,2014,7806,0,0,-1
-48.34,8.31,14.55,1176,2020,7800,-1,0,-1
-48.34,8.30,14.55,1168,2019,7797,-1,0,-1
-48.33,8.29,14.55,1179,2007,7806,0,0,-1
-48.33,8.29,14.55,1173,2009,7790,0,0,-1
-48.33,8.28,14.56,1180,2025,7788,0,0,-1
-48.32,8.28,14.56,1180,2036,7787,0,0,-1
-48.32,8.27,14.57,1179,2048,7806,-1,0,-1
-48.32,8.26,14.56,1180,2043,7805,-1,0,0
-48.32,8.26,14.56,1187,2036,7814,-1,0,-1
-48.32,8.26,14.55,1180,2022,7809,0,0,-1
-48.32,8.25,14.54,1184,2010,7815,-1,0,-1
-48.31,8.23,14.54,1185,2009,7817,0,0,-1
-48.30,8.21,14.54,1168,2015,7816,0,0,-1
-48.29,8.21,14.55,1173,2024,7812,0,0,-1
-48.29,8.19,14.55,1166,2027,7805,0,0,-1
-48.28,8.19,14.56,1161,2032,7810,0,0,-1
-48.27,8.17,14.56,1164,2024,7807,-1,0,-1
-48.27,8.16,14.56,1167,2025,7802,0,0,-1
-48.26,8.15,14.55,1163,2027,7789,-1,0,-1
-48.26,8.15,14.54,1173,2011,7797,-1,0,-1
-48.26,8.13,14.54,1172,2005,7809,-1,0,-1
-48.25,8.11,14.53,1148,2014,7813,0,0,-1
-48.24,8.09,14.53,1127,2015,7816,-1,0,-1
-48.24,8.09,14.53,1138,2012,7806,0,-1,-1
-48.23,8.10,14.54,1149,2024,7804,0,0,-1
-48.23,8.09,14.54,1145,2028,7800,-1,0,-1
-48.22,8.08,14.54,1157,2026,7801,0,0,-1
-48.22,8.07,14.54,1152,2025,7799,0,0,-1
-48.22,8.07,14.55,1145,2023,7806,0,0,-1
-48.22,8.06,14.54,1134,2014,7803,0,0,-1
-48.22,8.06,14.54,1135,2023,7801,0,-1,0
-48.22,8.06,14.54,1142,2023,7785,0,0,0
-48.22,8.05,14.55,1137,2035,7784,0,-1,-1
-48.22,8.06,14.55,1140,2029,7792,-1,-1,0
-48.22,8.07,14.55,1144,2024,7795,-1,-1,-1
-48.22,8.07,14.54,1137,2027,7785,-1,-1,0
-48.23,8.07,14.53,1142,2010,7788,-1,-1,0
-48.23,8.08,14.52,1148,2006,7805,-1,-1,0
-48.23,8.09,14.53,1144,2006,7794,0,-1,-1
-48.23,8.10,14.53,1154,2013,7806,0,-1,0
-48.23,8.11,14.54,1150,2021,7795,0,-1,0
-48.23,8.12,14.55,1155,2026,7788,0,-1,0
-48.24,8.13,14.56,1160,2035,7785,0,-1,0
-48.23,8.14,14.56,1170,2039,7791,0,-1,0
-48.24,8.14,14.56,1165,2040,7804,-1,-1,0
-48.24,8.15,14.55,1157,2033,7805,-1,-1,0
-48.24,8.15,14.55,1157,2022,7808,-1,-1,0
-48.25,8.17,14.55,1162,2015,7796,0,-1,0
-48.25,8.18,14.55,1164,2012,7796,0,-1,0
-48.25,8.19,14.55,1168,2016,7789,0,-1,0
-48.25,8.19,14.55,1167,2018,7797,0,-1,-1
-48.25,8.19,14.55,1165,2012,7805,0,0,0
-48.25,8.18,14.56,1147,2017,7819,0,-1,0
-48.25,8.18,14.56,1150,2016,7816,0,-1,0
-48.25,8.19,14.56,1154,2030,7813,0,-1,0
-48.25,8.20,14.57,1165,2033,7805,0,-1,0
-48.26,8.21,14.56,1172,2036,7790,-1,-1,0
-48.27,8.21,14.56,1175,2029,7800,-1,-1,0
-48.27,8.22,14.56,1182,2026,7806,0,-1,0
-48.27,8.22,14.56,1171,2029,7810,0,-1,-1
-48.27,8.22,14.56,1168,2022,7809,-1,-1,0
-48.28,8.24,14.56,1175,2016,7809,0,-1,0
-48.28,8.24,14.55,1172,2018,7800,-1,-1,0
-48.28,8.25,14.55,1178,2009,7804,-1,-1,0
-48.28,8.25,14.56,1167,2015,7798,0,-1,-1
-48.28,8.25,14.56,1167,2015,7793,0,-1,-1
-48.28,8.26,14.56,1170,2024,7802,0,-1,0
-48.29,8.26,14.57,1172,2032,7812,-1,-1,0
-48.29,8.26,14.56,1169,2040,7811,-1,-1,0
-48.29,8.26,14.56,1172,2029,7810,-1,-1,0
-48.30,8.27,14.55,1171,2013,7796,-1,-1,0
-48.30,8.27,14.55,1173,2017,7793,-1,-1,0
-48.30,8.28,14.55,1180,2012,7787,-1,-1,0
-48.30,8.29,14.54,1181,2015,7791,0,-1,0
-48.30,8.29,14.55,1186,2020,7802,0,-1,0
-48.30,8.29,14.55,1180,2026,7806,0,0,0
-48.30,8.29,14.55,1181,2037,7805,-1,-1,-1
-48.30,8.29,14.55,1171,2035,7800,-1,-1,-1
-48.30,8.29,14.54,1166,2016,7794,-1,-1,0
-48.31,8.30,14.54,1181,2008,7795,-1,-1,0
-48.31,8.30,14.54,1188,2013,7791,0,-1,0
-48.31,8.31,14.55,1193,2013,7799,0,-1,0
-48.31,8.32,14.55,1207,2020,7798,0,-1,0
-48.32,8.32,14.57,1188,2054,7798,0,0,0
-48.32,8.31,14.56,1178,2052,7792,-1,0,0
-48.32,8.31,14.54,1168,2030,7799,-1,0,0
-48.32,8.29,14.52,1143,2001,7810,-1,0,0
-48.33,8.29,14.50,1134,1980,7821,-1,-1,0
-48.33,8.30,14.50,1140,1964,7821,0,-1,0
-48.34,8.32,14.51,1168,1976,7817,0,-1,0
-48.34,8.34,14.54,1200,2009,7799,0,-1,0
-48.34,8.35,14.56,1221,2045,7776,0,-1,0
-48.34,8.35,14.56,1229,2055,7764,-1,0,-1
-48.34,8.35,14.55,1212,2052,7784,-1,0,-1
-48.34,8.34,14.54,1189,2030,7798,-1,0,-1
-48.34,8.33,14.53,1164,1999,7820,-1,-1,0
-48.34,8.34,14.53,1156,1993,7812,0,-1,0
-48.35,8.36,14.55,1169,2001,7812,0,-1,0
-48.35,8.37,14.57,1189,2018,7801,0,-1,0
-48.35,8.38,14.59,1200,2040,7777,0,-1,0
-48.35,8.37,14.60,1207,2040,7771,0,0,-1
-48.35,8.37,14.59,1191,2030,7767,-1,-1,-1
-48.35,8.37,14.59,1204,2017,7811,-1,0,0
-48.35,8.36,14.59,1191,2040,7811,-1,0,0
-48.36,8.36,14.59,1179,2027,7820,0,-1,0
-48.37,8.35,14.60,1222,1993,7827,0,0,0
-48.38,8.32,14.62,1176,2010,7803,0,0,0
-48.39,8.32,14.63,1174,2039,7762,-1,-1,0
-48.39,8.32,14.63,1173,2020,7790,-1,-1,-1
-48.39,8.34,14.60,1192,2011,7782,-1,-1,0
-48.39,8.34,14.62,1188,2017,7797,0,0,0
-48.39,8.35,14.63,1179,2059,7816,0,-1,-1
-48.39,8.36,14.63,1183,2062,7834,-1,-1,0
-48.39,8.37,14.62,1170,2032,7812,-1,-1,0
-48.40,8.38,14.62,1179,2030,7791,0,-1,0
-48.40,8.40,14.62,1187,2035,7779,-1,-1,0
-48.41,8.41,14.61,1199,2026,7784,-1,-1,0
-48.41,8.42,14.61,1204,2024,7785,-1,-1,0
-48.41,8.42,14.61,1186,2022,7797,0,-1,0
-48.42,8.43,14.61,1194,2020,7805,0,-1,0
-48.42,8.45,14.61,1203,2019,7802,0,-1,0
-48.43,8.46,14.61,1218,2016,7787,0,-1,0
-48.43,8.46,14.60,1213,2021,7790,-1,-1,0
-48.43,8.46,14.60,1204,2020,7783,-1,-1,0
-48.43,8.46,14.60,1190,2030,7793,0,-1,0
-48.43,8.47,14.61,1207,2037,7800,0,-1,0
-48.43,8.47,14.62,1212,2052,7806,-1,0,0
-48.43,8.47,14.62,1203,2039,7818,-1,0,0
-48.45,8.48,14.61,1211,2037,7809,0,-1,0
-48.45,8.49,14.62,1202,2034,7784,0,-1,0
-48.45,8.50,14.62,1204,2031,7788,0,-1,0
-48.46,8.52,14.61,1215,2029,7784,-1,-1,0
-48.46,8.53,14.62,1214,2023,7779,0,-1,0
-48.46,8.53,14.61,1215,2016,7785,0,-1,0
-48.46,8.53,14.61,1212,2004,7790,0,-1,-1
-48.46,8.53,14.62,1210,2010,7791,0,-1,0
-48.46,8.53,14.63,1208,2017,7787,0,-1,-1
-48.46,8.54,14.64,1211,2032,7788,0,-1,0
-48.47,8.54,14.65,1210,2042,7791,0,-1,0
-48.47,8.54,14.65,1218,2047,7784,0,-1,0
-48.48,8.56,14.66,1223,2050,7778,0,-1,0
-48.48,8.56,14.66,1233,2051,7778,-1,0,0
-48.49,8.56,14.65,1231,2042,7776,-1,0,0
-48.49,8.56,14.65,1221,2037,7780,-1,0,0
-48.50,8.56,14.64,1215,2025,7788,-1,-1,0
-48.50,8.57,14.63,1216,2025,7787,-1,-1,0
-48.51,8.58,14.63,1220,2009,7794,-1,-1,0
-48.51,8.58,14.63,1221,2010,7795,0,-1,0
-48.51,8.58,14.64,1230,2022,7791,0,-1,-1
-48.51,8.59,14.63,1234,2026,7794,0,-1,-1
-48.50,8.59,14.65,1234,2034,7799,0,-1,-1
-48.50,8.59,14.65,1229,2041,7787,0,-1,-1
-48.50,8.59,14.66,1221,2051,7778,0,0,0
-48.49,8.59,14.66,1216,2048,7791,-1,-1,-1
-48.50,8.59,14.65,1229,2037,7783,-1,-1,-1
-48.49,8.58,14.65,1225,2035,7787,-1,0,-1
-48.49,8.58,14.64,1229,2027,7786,-1,0,-1
-48.49,8.58,14.64,1228,2017,7788,-1,0,-1
-48.49,8.57,14.63,1224,2021,7797,-1,0,-1
-48.48,8.57,14.63,1226,2023,7807,0,0,-1
-48.48,8.55,14.64,1215,2026,7802,0,0,-1
-48.47,8.54,14.65,1230,1990,7802,1,0,-1
-48.46,8.55,14.69,1236,1992,7828,1,0,-1
-48.45,8.53,14.72,1216,2034,7799,0,0,-1
-48.45,8.50,14.74,1162,2081,7775,-1,0,-1
-48.44,8.49,14.75,1228,2036,7776,0,0,-1
-48.43,8.47,14.76,1179,2083,7807,0,0,0
-48.44,8.47,14.76,1195,2057,7787,0,-1,0
-48.44,8.45,14.77,1201,2080,7799,-1,0,-1
-48.44,8.44,14.77,1193,2037,7793,0,0,-1
-48.44,8.44,14.76,1193,2046,7808,-1,0,-1
-48.44,8.43,14.76,1188,2032,7776,0,0,-1
-48.44,8.42,14.77,1206,2020,7798,0,0,-1
-48.44,8.41,14.78,1228,2047,7784,0,1,-1
-48.42,8.38,14.80,1166,2066,7795,0,0,-1
-48.42,8.37,14.79,1183,2034,7772,0,0,-1
-48.42,8.37,14.79,1185,2061,7784,0,0,-1
-48.42,8.35,14.80,1167,2073,7773,0,0,0
-48.42,8.35,14.80,1198,2046,7781,-1,-1,-1
-48.42,8.35,14.79,1192,2067,7784,-1,0,-1
-48.41,8.34,14.79,1182,2066,7785,-1,-1,0
-48.41,8.33,14.78,1195,2062,7781,-1,0,-1
-48.42,8.32,14.75,1167,2050,7777,-1,-1,0
-48.42,8.32,14.74,1194,2029,7785,-1,0,-1
-48.42,8.32,14.73,1175,2025,7791,-1,-1,-1
-48.42,8.32,14.73,1193,2030,7788,0,-1,-1
-48.41,8.32,14.73,1183,2054,7801,-1,0,-1
-48.41,8.31,14.72,1170,2060,7795,-1,-1,0
-48.41,8.32,14.70,1182,2045,7792,-1,0,0
-48.42,8.31,14.69,1193,2034,7792,-1,0,0
-48.42,8.31,14.68,1192,2036,7805,-1,0,-1
-48.42,8.31,14.67,1179,2043,7801,-1,0,-1
-48.41,8.31,14.66,1180,2036,7782,-1,0,-1
-48.41,8.30,14.65,1179,2037,7773,-1,0,-1
-48.42,8.31,14.64,1183,2040,7788,-1,0,0
-48.42,8.30,14.62,1186,2032,7799,-1,0,0
-48.42,8.30,14.61,1177,2032,7813,-1,0,-1
-48.41,8.29,14.59,1171,2024,7818,-1,0,-1
-48.41,8.29,14.59,1172,2016,7805,-1,-1,-1
-48.41,8.29,14.58,1166,2013,7787,-1,0,-1
-48.41,8.29,14.59,1180,2018,7788,0,0,-1
-48.41,8.28,14.59,1194,2029,7785,0,0,-1
-48.41,8.28,14.59,1185,2039,7787,-1,0,-1
-48.40,8.26,14.59,1173,2042,7796,-1,0,-1
-48.40,8.25,14.58,1172,2037,7807,-1,0,0
-48.40,8.24,14.57,1178,2033,7803,-1,0,0
-48.40,8.23,14.56,1172,2020,7802,-1,0,-1
-48.40,8.23,14.55,1172,2011,7807,-1,0,-1
-48.40,8.23,14.55,1178,2009,7815,0,0,-1
-48.39,8.21,14.55,1170,2010,7810,0,0,-1
-48.38,8.20,14.56,1173,2023,7818,0,0,-1
-48.37,8.18,14.57,1171,2033,7822,0,0,-1
-48.36,8.17,14.58,1173,2037,7799,0,0,-1
-48.37,8.16,14.60,1193,2034,7794,1,1,-1
-48.36,8.12,14.63,1157,2055,7822,0,1,-1
-48.34,8.09,14.64,1138,2070,7815,0,0,-1
-48.34,8.07,14.64,1136,2038,7820,-1,0,0
-48.35,8.06,14.63,1161,2010,7796,0,0,0
-48.35,8.03,14.65,1145,2018,7820,0,1,-1
-48.35,8.01,14.65,1163,2020,7802,-1,0,-1
-48.33,7.99,14.66,1125,2028,7829,0,0,-1
-48.33,7.99,14.66,1150,1989,7794,1,0,0
-48.33,7.97,14.70,1123,2041,7810,0,1,-1
-48.33,7.94,14.69,1129,2040,7789,-1,0,0
-48.33,7.92,14.71,1159,2033,7785,1,1,-1
-48.31,7.89,14.72,1113,2067,7816,-1,0,-1
-48.31,7.88,14.72,1085,2058,7778,0,0,0
-48.31,7.88,14.72,1082,2035,7784,-1,-1,-1
-48.31,7.89,14.72,1120,2049,7780,0,0,-1
-48.31,7.91,14.74,1099,2054,7822,-1,-2,0
-48.32,7.92,14.73,1124,2015,7804,0,0,-1
-48.30,7.91,14.76,1146,2061,7852,-1,-1,-1
-48.30,7.92,14.76,1154,2070,7786,0,0,-1
-48.31,7.91,14.77,1109,2093,7749,-1,0,0
-48.32,7.90,14.74,1105,2060,7792,-1,0,0
-48.33,7.89,14.72,1090,2023,7840,0,0,-1
-48.32,7.91,14.72,1076,2031,7813,-1,-2,0
-48.33,7.94,14.72,1109,2024,7812,-1,-1,0
-48.32,7.96,14.72,1139,2064,7820,-1,-1,-1
-48.33,7.97,14.70,1138,2056,7797,-1,-1,0
-48.34,7.98,14.68,1163,2021,7772,-1,0,-1
-48.34,7.97,14.67,1118,2031,7791,-1,-1,-1
-48.34,7.99,14.66,1097,2030,7795,-1,-2,0
-48.34,8.02,14.66,1110,2040,7804,-1,-1,0
-48.34,8.05,14.66,1119,2048,7811,-1,-2,0
-48.34,8.07,14.64,1135,2049,7821,-1,-1,0
-48.36,8.10,14.63,1145,2043,7823,-1,-1,0
-48.36,8.11,14.62,1155,2024,7814,-1,-1,0
-48.36,8.13,14.61,1155,2021,7800,-1,-1,0
-48.37,8.13,14.60,1144,2013,7797,-1,-1,-1
-48.37,8.14,14.60,1144,2017,7796,-1,-1,0
-48.37,8.15,14.59,1142,2026,7821,-1,-1,0
-48.37,8.17,14.60,1142,2035,7818,0,-1,0
-48.37,8.18,14.61,1147,2042,7826,-1,-1,0
-48.37,8.19,14.60,1156,2043,7815,-1,-1,0
-48.38,8.21,14.60,1163,2033,7805,-1,-1,0
-48.38,8.21,14.59,1157,2022,7799,-1,-1,0
-48.39,8.22,14.58,1163,2020,7803,0,-1,0
-48.39,8.23,14.59,1161,2018,7804,0,-1,0
-48.38,8.24,14.59,1160,2023,7803,0,-1,0
-48.39,8.25,14.59,1157,2026,7801,0,-1,0
-48.39,8.26,14.59,1158,2034,7798,-1,-1,0
-48.39,8.26,14.59,1161,2039,7799,-1,-1,0
-48.40,8.27,14.60,1154,2031,7803,0,-1,0
-48.40,8.27,14.59,1161,2029,7810,0,-1,0
-48.40,8.28,14.60,1161,2036,7812,-1,-1,0
-48.40,8.29,14.59,1166,2037,7806,-1,-1,0
-48.40,8.30,14.60,1178,2044,7792,-1,-1,0
-48.40,8.30,14.59,1164,2035,7790,-1,-1,0
-48.40,8.30,14.59,1166,2028,7792,-1,-1,-1
-48.39,8.31,14.59,1166,2011,7801,0,-1,-1
-48.39,8.31,14.59,1163,2031,7811,-1,-1,0
-48.40,8.31,14.58,1159,2007,7802,-1,-1,0
-48.41,8.33,14.58,1178,2009,7799,0,-1,0
-48.42,8.33,14.58,1178,2012,7795,0,-1,0
-48.42,8.33,14.58,1163,2030,7794,0,-1,0
-48.42,8.34,14.60,1161,2040,7804,0,-1,0
-48.42,8.34,14.59,1155,2040,7804,-1,-1,0
-48.42,8.36,14.59,1169,2047,7808,-1,-1,0
-48.43,8.37,14.59,1174,2037,7800,-1,-1,0
-48.44,8.38,14.58,1177,2022,7793,-1,-1,0
-48.44,8.39,14.57,1181,2009,7793,-1,-1,0
-48.44,8.40,14.57,1179,1996,7790,0,-1,0
-48.44,8.40,14.57,1180,2005,7798,0,-1,0
-48.44,8.41,14.57,1175,2016,7811,0,-1,0
-48.44,8.41,14.57,1170,2026,7817,-1,-1,0
-48.45,8.41,14.57,1171,2017,7809,0,-1,0
-48.45,8.42,14.57,1177,2025,7807,0,-1,0
-48.45,8.43,14.57,1183,2027,7802,0,-1,0
-48.46,8.44,14.57,1184,2025,7799,-1,-1,0
-48.46,8.45,14.57,1182,2028,7791,-1,-1,0
-48.46,8.45,14.57,1170,2029,7792,-1,-1,0
-48.47,8.45,14.56,1180,2026,7798,-1,-1,0
-48.47,8.46,14.56,1182,2018,7807,-1,-1,0
-48.47,8.47,14.55,1185,2021,7814,-1,-1,0
-48.47,8.48,14.55,1194,2010,7809,-1,-1,0
-48.47,8.49,14.55,1192,2008,7808,-1,-1,0
-48.47,8.49,14.55,1189,2007,7806,0,-1,0
-48.47,8.50,14.55,1198,2020,7809,0,-1,-1
-48.47,8.50,14.56,1202,2035,7793,0,0,-1
-48.46,8.50,14.57,1174,2057,7792,-1,-1,-1
-48.46,8.50,14.56,1180,2011,7799,0,-1,0
-48.47,8.51,14.57,1201,2018,7801,0,0,0
-48.46,8.50,14.58,1170,2035,7802,0,-1,0
-48.46,8.51,14.58,1175,2022,7780,-1,-1,0
-48.47,8.51,14.57,1186,2021,7791,-1,0,0
-48.47,8.50,14.56,1170,2021,7793,-1,-1,0
-48.48,8.51,14.56,1181,2026,7805,-1,-1,0
-48.48,8.52,14.56,1184,2013,7812,-1,-1,0
-48.48,8.52,14.55,1177,2014,7799,-1,-1,0
-48.49,8.54,14.55,1197,2016,7802,-1,-1,0
-48.50,8.55,14.55,1204,2012,7809,0,-1,0
-48.50,8.55,14.56,1204,2024,7806,0,-1,0
-48.49,8.55,14.56,1198,2034,7805,0,-1,0
-48.49,8.56,14.57,1191,2036,7807,0,-1,0
-48.50,8.56,14.58,1193,2046,7801,0,-1,0
-48.50,8.57,14.58,1203,2047,7786,-1,-1,0
-48.50,8.58,14.58,1200,2034,7789,-1,-1,0
-48.50,8.58,14.57,1207,2017,7787,-1,-1,0
-48.50,8.58,14.58,1210,2020,7804,0,0,-1
-48.50,8.57,14.59,1182,2029,7808,0,-1,0
-48.50,8.58,14.59,1202,2010,7795,0,-1,0
-48.51,8.58,14.61,1208,2010,7810,1,0,0
-48.51,8.58,14.64,1188,2048,7803,0,-1,0
-48.51,8.60,14.66,1195,2025,7770,0,-1,0
-48.52,8.59,14.67,1231,2040,7797,0,0,0
-48.52,8.57,14.69,1190,2074,7793,-1,0,0
-48.54,8.59,14.69,1210,2021,7755,1,0,0
-48.53,8.56,14.71,1192,2083,7818,-1,0,-1
-48.54,8.56,14.71,1180,2028,7793,0,-1,0
-48.54,8.56,14.72,1218,2042,7786,0,0,0
-48.54,8.53,14.74,1159,2079,7832,-1,0,0
-48.55,8.56,14.73,1229,2010,7794,0,-1,0
-48.56,8.53,14.77,1184,2072,7815,0,0,0
-48.56,8.53,14.77,1174,2015,7775,0,-1,0
-48.56,8.52,14.80,1194,2033,7780,1,1,-1
-48.54,8.51,14.82,1179,2077,7797,0,-1,0
-48.55,8.50,14.86,1195,2076,7787,0,0,0
-48.56,8.48,14.87,1159,2087,7806,0,0,0
-48.57,8.48,14.88,1195,2091,7787,-1,0,0
-48.56,8.45,14.89,1143,2090,7792,-1,0,0
-48.58,8.48,14.88,1177,2049,7757,-1,-1,0
-48.58,8.47,14.90,1156,2082,7791,0,0,-1
-48.57,8.48,14.91,1194,2076,7787,0,-1,-1
-48.58,8.48,14.92,1165,2095,7801,-1,-1,0
-48.59,8.48,14.90,1198,2050,7794,0,-1,0
-48.59,8.47,14.92,1180,2062,7813,0,-1,0
-48.59,8.47,14.93,1172,2068,7783,0,0,-1
-48.60,8.48,14.95,1179,2032,7765,1,-1,0
-48.60,8.47,14.98,1175,2142,7782,-1,0,0
-48.61,8.49,14.98,1173,2094,7735,0,-2,0
-48.60,8.50,15.00,1237,2096,7803,0,1,-1
-48.61,8.48,14.98,1138,2124,7796,-1,-2,0
-48.61,8.51,14.99,1194,2068,7812,0,-1,0
-48.62,8.51,14.99,1182,2056,7798,0,-1,0
-48.62,8.51,14.99,1180,2062,7779,0,0,0
-48.63,8.52,15.00,1183,2073,7756,-1,-1,0
-48.63,8.53,15.00,1230,2043,7747,0,0,-1
-48.62,8.52,15.04,1156,2140,7792,-1,-1,0
-48.62,8.54,15.02,1183,2110,7779,-1,-1,0
-48.62,8.54,15.01,1209,2118,7755,-1,0,-1
-48.62,8.54,14.99,1193,2095,7773,-1,-1,0
-48.63,8.55,14.98,1204,2092,7775,-1,0,-1
-48.63,8.53,14.97,1169,2054,7809,-1,-1,0
-48.63,8.54,14.97,1205,2056,7796,0,0,-1
-48.63,8.53,14.97,1151,2096,7772,-1,-1,0
-48.62,8.55,14.97,1211,2047,7768,0,-1,-1
-48.63,8.54,14.97,1185,2078,7785,-1,0,-1
-48.62,8.53,14.96,1164,2066,7791,-1,-1,0
-48.62,8.55,14.97,1200,2080,7780,0,0,-1
-48.62,8.54,14.97,1158,2111,7783,-1,-1,0
-48.63,8.56,14.95,1202,2093,7763,-1,-1,0
-48.63,8.56,14.95,1233,2105,7778,-1,0,-1
-48.61,8.54,14.93,1175,2110,7789,-1,-1,-1
-48.61,8.56,14.92,1182,2083,7776,-1,-1,-1
-48.61,8.56,14.90,1179,2074,7776,-1,-1,0
-48.61,8.57,14.89,1180,2084,7783,-1,-1,0
-48.62,8.59,14.86,1204,2072,7797,-1,-1,-1
-48.61,8.59,14.85,1210,2063,7812,-1,-1,-1
-48.61,8.59,14.83,1209,2051,7815,-1,-1,-1
-48.60,8.59,14.82,1192,2056,7799,-1,-1,-1
-48.59,8.60,14.81,1203,2045,7785,-1,-1,-1
-48.59,8.60,14.80,1203,2052,7775,-1,-1,-1
-48.59,8.60,14.79,1210,2052,7774,-1,-1,-1
-48.58,8.61,14.79,1203,2064,7788,-1,-1,-1
-48.58,8.61,14.78,1205,2061,7787,-1,-1,-1
-48.57,8.61,14.77,1202,2063,7796,-1,-1,-1
-48.57,8.61,14.76,1196,2068,7800,-1,-1,-1
-48.56,8.61,14.75,1192,2052,7798,-1,-1,-1
-48.57,8.61,14.74,1194,2031,7792,-1,-1,-1
-48.57,8.62,14.73,1196,2032,7786,-1,-1,-1
-48.55,8.61,14.73,1190,2032,7788,-1,-1,-1
-48.55,8.61,14.73,1198,2041,7785,-1,0,-1
-48.55,8.61,14.73,1200,2047,7790,0,0,-1
-48.54,8.60,14.73,1193,2061,7796,-1,0,-1
-48.54,8.59,14.72,1189,2044,7782,-1,0,-1
-48.54,8.59,14.72,1174,2040,7783,-1,0,0
-48.54,8.58,14.71,1184,2034,7786,-1,-1,0
-48.54,8.58,14.72,1190,2052,7789,0,-1,-1
-48.54,8.58,14.72,1190,2056,7790,-1,0,-1
-48.53,8.58,14.72,1199,2049,7792,-1,0,-1
-48.53,8.57,14.72,1205,2053,7781,-1,0,-1
-48.53,8.56,14.72,1190,2054,7781,-1,0,-1
-48.53,8.55,14.71,1188,2044,7788,-1,0,0
-48.52,8.54,14.71,1183,2043,7796,-1,0,-1
-48.52,8.54,14.70,1182,2035,7789,-1,-1,-1
-48.52,8.54,14.70,1194,2033,7792,-1,0,-1
-48.52,8.54,14.70,1200,2038,7794,-1,0,-1
-48.52,8.53,14.70,1197,2045,7802,0,0,-1
-48.51,8.51,14.70,1191,2046,7791,-1,0,-1
-48.51,8.51,14.70,1189,2045,7789,0,0,-1
-48.51,8.51,14.71,1185,2051,7790,-1,0,-1
-48.51,8.49,14.71,1178,2061,7776,-1,0,0
-48.51,8.49,14.71,1182,2050,7790,-1,0,-1
-48.51,8.49,14.71,1183,2057,7790,-1,0,0
-48.51,8.48,14.71,1177,2056,7796,-1,0,-1
-48.50,8.47,14.70,1173,2044,7796,-1,0,0
-48.50,8.47,14.69,1178,2035,7803,-1,0,0
-48.51,8.46,14.68,1175,2032,7806,-1,0,0
-48.51,8.46,14.67,1177,2019,7812,-1,0,-1
-48.51,8.45,14.67,1171,2025,7812,-1,0,-1
-48.50,8.45,14.67,1162,2029,7803,0,0,-1
-48.50,8.44,14.68,1157,2039,7794,0,0,-1
-48.49,8.43,14.68,1159,2054,7792,-1,0,-1
-48.49,8.42,14.68,1150,2058,7790,-1,0,-1
-48.49,8.42,14.68,1157,2058,7799,-1,0,0
-48.48,8.41,14.67,1159,2057,7792,-1,-1,-1
-48.49,8.41,14.66,1164,2048,7799,-1,0,-1
-48.48,8.41,14.66,1173,2031,7793,-1,0,-1
-48.48,8.40,14.66,1171,2022,7797,-1,0,-1
-48.47,8.39,14.65,1162,2021,7801,-1,0,-1
-48.47,8.38,14.65,1156,2034,7798,0,0,-1
-48.47,8.37,14.65,1159,2023,7801,0,0,-1
-48.46,8.36,14.65,1158,2031,7800,0,0,-1
-48.46,8.36,14.66,1154,2044,7797,0,0,-1
-48.46,8.36,14.66,1149,2044,7786,-1,-1,0
-48.46,8.36,14.66,1159,2047,7788,-1,-1,-1
-48.46,8.36,14.66,1165,2055,7787,-1,0,-1
-48.46,8.35,14.65,1162,2056,7795,-1,0,-1
-48.45,8.34,14.65,1157,2041,7798,-1,0,0
-48.45,8.34,14.64,1152,2031,7797,-1,-1,0
-48.45,8.35,14.64,1161,2026,7810,0,-1,0
-48.45,8.36,14.64,1163,2026,7799,-1,-1,-1
-48.45,8.35,14.65,1164,2028,7796,0,0,-1
-48.45,8.35,14.65,1165,2033,7800,0,0,-1
-48.43,8.34,14.65,1158,2044,7802,0,-1,-1
-48.43,8.35,14.66,1151,2041,7799,0,-1,-1
-48.42,8.34,14.67,1164,2040,7804,0,-1,-1
-48.42,8.34,14.67,1158,2041,7803,0,0,-1
-48.41,8.34,14.68,1150,2059,7810,-1,-1,0
-48.42,8.34,14.67,1151,2039,7784,-1,-1,0
-48.42,8.34,14.67,1150,2036,7787,0,-1,0
-48.42,8.34,14.68,1151,2056,7799,-1,-1,0
-48.43,8.34,14.66,1162,2020,7792,-1,0,0
-48.44,8.34,14.66,1183,2006,7799,0,0,-1
-48.43,8.32,14.69,1164,2025,7811,1,0,-1
-48.42,8.30,14.72,1135,2069,7816,0,0,0
-48.43,8.31,14.70,1118,2031,7802,-1,-2,0
-48.46,8.33,14.71,1186,2020,7781,1,0,0
-48.45,8.30,14.75,1150,2063,7807,1,1,-1
-48.46,8.30,14.75,1138,2039,7795,-1,-1,0
-48.45,8.31,14.77,1156,2065,7773,0,0,-1
-48.45,8.31,14.78,1154,2042,7805,0,-1,0
-48.46,8.31,14.78,1196,2069,7772,-1,0,-1
-48.45,8.29,14.80,1130,2102,7796,0,-1,-1
-48.46,8.30,14.79,1150,2072,7807,-1,0,0
-48.47,8.31,14.76,1151,2049,7796,-1,-1,0
-48.47,8.31,14.77,1138,2060,7776,0,-1,0
-48.48,8.33,14.76,1124,2072,7769,-1,-1,0
-48.49,8.35,14.74,1189,2012,7776,-1,-1,0
-48.49,8.36,14.75,1170,2046,7781,0,-1,0
-48.48,8.35,14.76,1150,2081,7791,-1,-1,0
-48.49,8.36,14.74,1155,2051,7801,-1,-1,0
-48.49,8.37,14.74,1167,2063,7809,-1,-1,-1
-48.48,8.37,14.75,1146,2070,7805,-1,-1,0
-48.49,8.37,14.74,1144,2062,7789,-1,-1,0
-48.50,8.38,14.72,1157,2037,7800,-1,-1,0
-48.50,8.40,14.71,1152,2041,7789,-1,-1,0
-48.50,8.41,14.70,1160,2057,7791,-1,-1,0
-48.50,8.42,14.71,1176,2057,7798,-1,-1,0
-48.51,8.43,14.70,1179,2051,7810,-1,-1,0
-48.51,8.44,14.69,1172,2047,7798,-1,-1,0
-48.51,8.46,14.69,1176,2044,7805,-1,-1,0
-48.52,8.47,14.69,1176,2036,7793,-1,-1,0
-48.52,8.48,14.68,1174,2023,7787,-1,-1,0
-48.52,8.48,14.68,1171,2030,7800,0,-1,0
-48.52,8.49,14.68,1167,2038,7796,0,-1,0
-48.52,8.50,14.69,1172,2035,7795,0,-1,0
-48.52,8.51,14.69,1178,2047,7796,0,-1,0
-48.52,8.52,14.70,1179,2048,7793,-1,-1,0
-48.53,8.53,14.69,1188,2053,7788,-1,-1,0
-48.53,8.53,14.70,1189,2054,7791,-1,-1,0
-48.53,8.54,14.69,1187,2041,7780,-1,-1,0
-48.53,8.54,14.68,1181,2032,7790,-1,-1,0
-48.53,8.54,14.68,1180,2029,7807,-1,-1,0
-48.53,8.54,14.68,1181,2029,7807,-1,-1,0
-48.54,8.55,14.67,1190,2022,7816,0,-1,0
-48.53,8.56,14.68,1195,2040,7805,0,-1,0
-48.54,8.56,14.68,1186,2043,7805,0,-1,0
-48.54,8.57,14.69,1200,2042,7792,0,-1,0
-48.54,8.57,14.69,1198,2054,7791,-1,-1,0
-48.54,8.58,14.68,1188,2051,7787,-1,-1,0
-48.55,8.58,14.68,1194,2057,7795,-1,0,0
-48.55,8.58,14.68,1185,2040,7810,-1,-1,0
-48.56,8.58,14.67,1187,2031,7797,0,-1,0
-48.56,8.59,14.68,1180,2036,7801,0,-1,0
-48.56,8.59,14.68,1180,2042,7785,0,-1,0
-48.56,8.60,14.69,1192,2050,7785,0,-1,0
-48.55,8.61,14.69,1193,2055,7789,0,-1,0
-48.56,8.61,14.69,1199,2057,7794,-1,-1,0
-48.57,8.61,14.69,1186,2048,7790,-1,-1,0
-48.57,8.61,14.69,1183,2047,7793,-1,-1,0
-48.57,8.61,14.69,1187,2043,7799,0,-1,0
-48.56,8.62,14.70,1194,2047,7792,0,-1,0
-48.57,8.62,14.69,1201,2047,7790,-1,-1,0
-48.57,8.63,14.69,1201,2045,7781,-1,-1,0
-48.57,8.64,14.69,1206,2039,7787,-1,-1,0
-48.57,8.64,14.70,1197,2037,7791,0,-1,0
-48.58,8.64,14.70,1193,2033,7791,0,-1,0
-48.58,8.64,14.70,1191,2037,7786,0,-1,0
-48.58,8.65,14.70,1192,2047,7794,0,-1,0
-48.58,8.65,14.70,1194,2047,7781,0,-1,0
-48.59,8.66,14.71,1198,2045,7784,-1,-1,0
-48.59,8.67,14.71,1201,2044,7779,-1,-1,0
-48.59,8.67,14.70,1196,2044,7784,-1,-1,0
-48.59,8.67,14.70,1192,2044,7782,-1,-1,0
-48.59,8.67,14.70,1194,2040,7800,-1,-1,0
-48.59,8.67,14.70,1204,2043,7793,-1,-1,0
-48.60,8.67,14.70,1197,2037,7788,-1,-1,0
-48.60,8.68,14.69,1198,2029,7791,-1,-1,0
-48.60,8.69,14.70,1199,2034,7783,0,-1,0
-48.60,8.69,14.70,1200,2034,7799,0,-1,0
-48.60,8.69,14.70,1204,2042,7802,0,-1,0
-48.60,8.70,14.71,1202,2044,7799,0,-1,0
-48.61,8.70,14.71,1206,2046,7794,0,-1,0
-48.61,8.71,14.71,1212,2052,7793,-1,-1,0
-48.62,8.71,14.71,1213,2054,7781,-1,-1,0
-48.62,8.72,14.71,1221,2051,7777,-1,-1,0
-48.62,8.73,14.70,1215,2042,7781,-1,-1,0
-48.62,8.73,14.70,1206,2036,7789,-1,-1,0
-48.63,8.73,14.70,1206,2034,7788,0,-1,0
-48.63,8.74,14.71,1205,2041,7790,0,-1,0
-48.63,8.74,14.70,1208,2040,7797,0,-1,0
-48.63,8.75,14.71,1209,2039,7787,0,-1,0
-48.64,8.74,14.72,1212,2046,7783,0,-1,0
-48.64,8.75,14.73,1210,2051,7775,0,0,0
-48.64,8.74,14.73,1213,2042,7778,0,0,0
-48.65,8.74,14.73,1218,2043,7788,0,0,0
-48.65,8.74,14.74,1230,2037,7789,0,0,0
-48.65,8.73,14.75,1228,2046,7791,0,0,0
-48.65,8.72,14.76,1213,2043,7792,0,0,-1
-48.65,8.71,14.78,1227,2045,7802,0,0,0
-48.66,8.67,14.79,1173,2068,7802,0,0,0
-48.67,8.67,14.80,1215,2033,7799,0,-1,0
-48.68,8.66,14.83,1264,2029,7813,1,2,0
-48.69,8.59,14.86,1133,2058,7827,1,0,0
-48.70,8.61,14.88,1222,2056,7785,1,0,0
-48.70,8.57,14.92,1145,2060,7823,0,0,0
-48.73,8.60,14.94,1245,2006,7744,2,-1,0
-48.71,8.56,15.01,1165,2117,7799,0,0,-1
-48.70,8.54,15.02,1214,2103,7757,1,0,-1
-48.68,8.52,15.08,1175,2149,7820,1,1,-1
-48.69,8.51,15.07,1206,2086,7799,-1,-1,1
-48.70,8.51,15.09,1201,2078,7789,1,1,-2
-48.68,8.49,15.13,1143,2155,7786,-1,-2,0
-48.67,8.49,15.12,1233,2086,7773,0,1,-2
-48.66,8.47,15.13,1157,2110,7740,0,0,0
-48.67,8.46,15.12,1196,2105,7727,-1,1,0
-48.66,8.43,15.15,1144,2104,7824,0,-1,-1
-48.65,8.44,15.13,1184,2107,7777,0,0,-1
-48.66,8.42,15.15,1158,2085,7798,-1,-1,0
-48.66,8.43,15.15,1199,2104,7804,0,0,-1
-48.64,8.41,15.16,1156,2098,7783,0,0,0
-48.66,8.41,15.16,1198,2096,7756,-1,-1,0
-48.65,8.40,15.19,1164,2102,7782,0,-1,0
-48.64,8.40,15.18,1177,2130,7748,0,-1,-1
-48.64,8.40,15.20,1164,2123,7744,0,0,-1
-48.63,8.38,15.19,1146,2130,7799,-2,-1,0
-48.65,8.39,15.18,1175,2114,7765,0,-1,0
-48.63,8.39,15.18,1179,2145,7777,-1,-1,-1
-48.64,8.39,15.19,1159,2109,7801,-1,0,-1
-48.63,8.39,15.19,1199,2126,7768,0,-1,-1
-48.63,8.37,15.19,1160,2122,7776,-1,0,0
-48.65,8.36,15.18,1151,2061,7760,0,0,-1
-48.63,8.33,15.20,1195,2108,7804,0,0,-1
-48.63,8.32,15.22,1128,2047,7797,1,-1,-1
-48.62,8.30,15.27,1153,2110,7833,1,0,-2
-48.62,8.30,15.28,1174,2047,7726,1,0,-1
-48.58,8.25,15.35,1116,2181,7797,-1,-1,-1
-48.60,8.25,15.35,1161,2074,7726,2,1,-1
-48.58,8.23,15.38,1164,2179,7739,-2,-1,-1
-48.57,8.19,15.43,1113,2155,7754,2,2,-2
-48.57,8.17,15.42,1127,2199,7781,-2,-1,1
-48.56,8.14,15.45,1152,2164,7782,2,1,-1
-48.56,8.13,15.45,1079,2198,7779,-1,-1,0
-48.57,8.14,15.44,1137,2154,7768,0,0,0
-48.57,8.10,15.44,1114,2135,7766,-1,1,-1
-48.56,8.11,15.44,1144,2103,7765,1,0,-1
-48.56,8.08,15.45,1129,2102,7732,0,0,0
-48.55,8.08,15.49,1114,2166,7782,0,0,-1
-48.54,8.06,15.49,1140,2157,7785,-1,0,0
-48.53,8.02,15.52,1060,2178,7803,2,1,-2
-48.52,8.04,15.52,1158,2155,7781,-2,-2,1
-48.52,8.03,15.52,1137,2173,7768,-1,1,-1
-48.51,7.98,15.54,1059,2186,7798,1,-1,0
-48.52,8.01,15.53,1163,2145,7712,-1,1,-1
-48.50,7.96,15.54,1053,2199,7767,0,-1,0
-48.51,7.97,15.53,1114,2116,7743,0,1,-1
-48.51,7.95,15.53,1113,2170,7810,-2,-1,0
-48.50,7.91,15.57,1097,2211,7823,1,1,-2
-48.51,7.93,15.54,1104,2132,7790,-2,-2,1
-48.47,7.88,15.53,1080,2154,7786,0,1,-2
-48.49,7.92,15.54,1135,2066,7713,2,0,0
-48.44,7.85,15.60,1049,2221,7795,-2,0,-1
-48.46,7.87,15.59,1115,2131,7726,2,0,-1
-48.44,7.85,15.60,1094,2169,7754,0,-1,-1
-48.42,7.83,15.62,1050,2224,7775,0,1,-2
-48.42,7.85,15.60,1076,2195,7775,-2,-2,1
-48.42,7.83,15.59,1064,2234,7797,-2,1,-2
-48.43,7.85,15.58,1105,2201,7747,0,-1,1
-48.42,7.83,15.56,1054,2194,7805,-2,-1,-1
-48.44,7.85,15.53,1130,2126,7780,1,1,-1
-48.43,7.83,15.52,1052,2115,7778,-2,-1,0
-48.42,7.81,15.53,1115,2185,7772,0,1,-1
-48.41,7.80,15.52,1069,2126,7786,0,-2,-1
-48.41,7.79,15.54,1103,2185,7796,0,1,0
-48.41,7.76,15.51,1041,2113,7761,-1,-1,0
-48.40,7.76,15.55,1108,2177,7835,0,1,-1
-48.39,7.74,15.53,1017,2112,7738,1,-1,-1
-48.34,7.74,15.58,1137,2237,7809,-1,-1,-1
-48.36,7.72,15.55,1047,2119,7744,0,1,-1
-48.35,7.70,15.58,1127,2189,7757,1,1,-1
-48.34,7.65,15.57,948,2169,7790,-2,-1,-1
-48.33,7.66,15.58,1132,2166,7777,0,0,0
-48.34,7.63,15.57,1045,2149,7822,0,0,-1
-48.32,7.63,15.60,981,2187,7787,0,-2,-1
-48.31,7.66,15.59,1069,2162,7757,-1,-1,0
-48.33,7.65,15.59,1068,2125,7769,1,1,-1
-48.31,7.64,15.60,1062,2197,7759,-1,-2,0
-48.32,7.66,15.61,1085,2156,7757,0,1,-1
-48.29,7.62,15.62,1042,2183,7778,0,-1,0
-48.30,7.64,15.62,1057,2174,7799,0,0,-1
-48.30,7.65,15.62,1040,2216,7723,-1,-1,0
-48.31,7.65,15.60,1021,2201,7767,-2,-2,0
-48.33,7.69,15.56,1099,2152,7747,-1,0,0
-48.32,7.68,15.55,1016,2184,7789,-2,-2,0
-48.33,7.71,15.53,1063,2169,7757,-1,-2,0
-48.34,7.75,15.50,1079,2143,7774,-2,-1,-1
-48.33,7.78,15.48,1060,2168,7753,-1,-2,-1
-48.34,7.82,15.46,1055,2185,7760,-2,-2,0
-48.34,7.86,15.41,1077,2156,7762,-2,-2,0
-48.35,7.89,15.37,1070,2157,7793,-2,-2,0
-48.36,7.93,15.34,1083,2134,7803,-2,-2,0
-48.37,7.96,15.30,1087,2127,7804,-2,-2,0
-48.39,8.01,15.26,1105,2087,7801,-1,-2,0
-48.40,8.03,15.25,1107,2091,7790,-1,-2,0
-48.40,8.06,15.25,1120,2111,7801,-1,-1,0
-48.40,8.08,15.25,1137,2122,7779,0,-1,0
-48.40,8.08,15.25,1130,2150,7783,-1,-1,0
-48.41,8.08,15.24,1119,2161,7780,-1,-1,0
-48.41,8.09,15.23,1114,2157,7789,-1,-1,0
-48.41,8.10,15.20,1110,2138,7791,-1,-1,0
-48.41,8.12,15.18,1113,2120,7784,-1,-1,0
-48.42,8.14,15.16,1121,2105,7789,-1,-1,0
-48.41,8.16,15.14,1119,2086,7796,-1,-1,0
-48.41,8.17,15.13,1130,2081,7790,0,-1,0
-48.41,8.18,15.13,1130,2082,7792,0,-1,0
-48.41,8.19,15.13,1138,2101,7784,0,-1,0
-48.42,8.20,15.14,1141,2117,7776,-1,-1,0
-48.42,8.21,15.13,1139,2121,7775,-1,-1,0
-48.41,8.22,15.13,1129,2120,7781,-1,-1,0
-48.42,8.23,15.12,1129,2123,7776,-1,-1,0
-48.42,8.24,15.11,1124,2117,7781,-1,-1,0
-48.42,8.26,15.10,1139,2104,7787,-1,-1,0
-48.42,8.27,15.09,1142,2102,7791,-1,-1,0
-48.42,8.28,15.09,1150,2087,7788,-1,-1,0
-48.43,8.29,15.08,1148,2089,7789,0,-1,0
-48.43,8.30,15.09,1151,2085,7786,0,-1,0
-48.43,8.30,15.09,1153,2093,7784,0,-1,0
-48.43,8.31,15.09,1157,2101,7792,-1,-1,0
-48.43,8.32,15.09,1146,2103,7796,-1,-1,0
-48.43,8.32,15.09,1146,2098,7792,-1,-1,0
-48.43,8.33,15.09,1147,2103,7788,-1,-1,0
-48.43,8.34,15.08,1152,2107,7783,-1,-1,0
-48.44,8.35,15.07,1150,2106,7780,-1,-1,0
-48.44,8.35,15.07,1149,2101,7786,-1,-1,0
-48.44,8.37,15.07,1158,2096,7793,-1,-1,0
-48.44,8.37,15.06,1159,2093,7793,-1,-1,0
-48.46,8.38,15.05,1156,2089,7788,-1,-1,0
-48.46,8.39,15.05,1173,2088,7789,-1,-1,0
-48.44,8.40,15.05,1184,2097,7787,-1,-1,-1
-48.45,8.40,15.04,1169,2086,7780,-1,-1,0
-48.45,8.42,15.03,1168,2070,7782,-1,-1,0
-48.46,8.43,15.03,1171,2069,7788,0,-1,0
-48.46,8.43,15.03,1160,2088,7791,-1,-1,0
-48.46,8.44,15.03,1155,2097,7786,-1,-1,0
-48.47,8.44,15.03,1156,2100,7781,-1,-1,0
-48.47,8.46,15.03,1173,2099,7763,-1,-1,0
-48.48,8.47,15.02,1173,2103,7760,-1,-1,0
-48.49,8.48,15.02,1180,2093,7777,-1,-1,0
-48.49,8.49,15.01,1178,2078,7788,0,-1,0
-48.50,8.50,15.01,1188,2069,7794,0,-1,0
-48.49,8.52,15.02,1180,2080,7797,0,-1,0
-48.49,8.53,15.02,1196,2080,7803,0,-1,0
-48.49,8.53,15.02,1189,2084,7805,-1,-1,0
-48.51,8.54,15.01,1183,2086,7782,0,-1,0
-48.50,8.54,15.02,1188,2098,7774,-1,-1,0
-48.51,8.55,15.01,1177,2102,7776,-1,-1,0
-48.51,8.56,15.00,1184,2089,7786,-1,-1,0
-48.52,8.57,14.99,1176,2081,7788,-1,-1,0
-48.53,8.58,14.99,1186,2083,7792,-1,-1,0
-48.53,8.59,14.98,1188,2078,7785,-1,-1,0
-48.54,8.60,14.98,1192,2077,7780,-1,-1,0
-48.54,8.60,14.98,1188,2071,7776,0,-1,0
-48.54,8.61,14.97,1192,2077,7784,-1,-1,0
-48.54,8.62,14.97,1196,2073,7765,0,-1,-1
-48.55,8.62,14.98,1197,2073,7791,0,-1,0
-48.54,8.63,14.98,1198,2066,7782,0,-1,0
-48.55,8.64,14.99,1187,2077,7768,0,-1,0
-48.55,8.64,15.01,1187,2097,7781,0,-1,0
-48.55,8.65,15.01,1199,2100,7764,0,-1,0
-48.55,8.66,15.01,1199,2100,7755,-1,-1,0
-48.57,8.66,15.00,1217,2093,7755,-1,-1,0
-48.57,8.66,15.00,1204,2103,7778,-1,-1,0
-48.57,8.67,14.99,1196,2080,7780,-1,-1,0
-48.57,8.67,14.98,1208,2060,7771,0,0,-1
-48.57,8.67,14.99,1197,2073,7779,0,-1,0
-48.57,8.68,14.99,1194,2078,7787,-1,-1,0
-48.58,8.69,14.98,1209,2068,7790,0,-1,0
-48.58,8.69,14.99,1223,2081,7793,0,-1,-1
-48.58,8.70,15.00,1218,2093,7798,0,0,-1
-48.58,8.69,15.00,1206,2079,7780,0,-1,0
-48.58,8.70,15.00,1202,2075,7783,0,-1,0
-48.58,8.69,15.01,1197,2093,7779,0,-1,0
-48.58,8.69,15.01,1201,2090,7780,0,-1,0
-48.58,8.70,15.00,1215,2092,7787,-1,0,0
-48.58,8.70,15.00,1198,2095,7787,-1,-1,0
-48.58,8.70,14.99,1209,2087,7764,-1,-1,0
-48.59,8.70,14.99,1205,2078,7774,-1,0,0
-48.60,8.70,14.99,1192,2076,7785,-1,-1,0
-48.60,8.71,14.98,1196,2066,7775,0,-1,0
-48.60,8.71,14.99,1205,2067,7784,0,-1,0
-48.60,8.72,14.99,1203,2077,7766,0,-1,0
-48.60,8.72,15.00,1203,2089,7770,0,-1,0
-48.61,8.73,15.01,1208,2098,7772,0,-1,0
-48.61,8.73,15.01,1209,2103,7786,-1,-1,0
-48.61,8.73,15.00,1205,2101,7782,-1,-1,0
-48.62,8.75,15.00,1221,2082,7776,-1,-1,0
-48.62,8.75,15.00,1228,2083,7782,-1,-1,0
-48.63,8.76,14.99,1235,2069,7777,-1,-1,0
-48.63,8.76,14.99,1230,2064,7780,0,-1,0
-48.63,8.76,14.99,1209,2065,7784,0,-1,0
-48.63,8.76,15.00,1212,2072,7786,0,-1,0
-48.64,8.77,15.00,1208,2086,7776,0,-1,0
-48.64,8.77,15.01,1209,2092,7786,0,-1,0
-48.63,8.77,15.02,1211,2099,7777,0,-1,0
-48.65,8.78,15.02,1218,2099,7769,-1,-1,0
-48.65,8.79,15.02,1225,2095,7770,-1,-1,0
-48.65,8.80,15.01,1228,2090,7760,-1,-1,0
-48.65,8.80,15.01,1229,2086,7764,-1,-1,0
-48.66,8.80,15.01,1225,2085,7774,0,-1,0
-48.66,8.81,15.01,1227,2086,7775,0,-1,0
-48.66,8.81,15.01,1234,2085,7782,-1,-1,0
-48.67,8.81,15.01,1223,2082,7789,-1,-1,0
-48.68,8.82,15.00,1227,2078,7774,0,-1,0
-48.68,8.82,15.01,1227,2075,7779,0,-1,0
-48.68,8.83,15.01,1228,2074,7783,0,-1,0
-48.68,8.83,15.02,1233,2098,7768,0,-1,-1
-48.67,8.83,15.03,1224,2114,7782,-1,-1,0
-48.68,8.84,15.03,1232,2108,7786,-1,-1,0
-48.68,8.84,15.03,1226,2113,7788,-1,-1,0
-48.68,8.83,15.02,1230,2100,7779,-1,-1,0
-48.68,8.83,15.02,1240,2095,7769,-1,-1,-1
-48.67,8.83,15.02,1225,2091,7773,-1,0,-1
-48.67,8.82,15.02,1211,2089,7782,-1,-1,0
-48.68,8.83,15.01,1227,2068,7787,-1,-1,0
-48.68,8.83,15.01,1218,2076,7781,0,-1,0
-48.67,8.83,15.01,1223,2078,7772,-1,-1,-1
-48.67,8.82,15.01,1233,2076,7774,0,0,-1
-48.66,8.81,15.01,1221,2085,7776,0,0,-1
-48.65,8.81,15.02,1234,2090,7775,0,0,-1
-48.64,8.79,15.02,1226,2097,7781,-1,0,-1
-48.64,8.78,15.03,1197,2103,7784,0,0,-1
-48.63,8.76,15.03,1217,2092,7773,0,0,-1
-48.61,8.75,15.04,1232,2097,7789,0,0,-1
-48.61,8.73,15.04,1217,2072,7785,0,0,-1
-48.60,8.72,15.03,1228,2059,7781,0,0,-1
-48.60,8.69,15.04,1205,2050,7754,0,0,-1
-48.57,8.66,15.08,1203,2104,7771,1,1,-1
-48.56,8.63,15.10,1173,2081,7808,-1,0,0
-48.57,8.63,15.07,1201,2056,7813,0,-1,0
-48.57,8.63,15.10,1209,2087,7753,1,0,-1
-48.56,8.62,15.13,1200,2119,7768,0,0,-1
-48.54,8.61,15.14,1198,2118,7759,0,-1,-1
-48.54,8.60,15.14,1204,2118,7730,-1,0,0
-48.55,8.58,15.14,1188,2108,7797,0,0,0
-48.55,8.57,15.14,1190,2124,7771,-1,0,0
-48.56,8.56,15.12,1144,2115,7746,-1,-1,0
-48.57,8.57,15.10,1170,2074,7751,-1,-1,0
-48.56,8.59,15.09,1202,2083,7777,0,-1,-1
-48.56,8.59,15.10,1188,2106,7782,-1,-1,0
-48.56,8.59,15.08,1201,2079,7775,-1,-1,-1
-48.56,8.59,15.08,1203,2092,7782,-1,0,-1
-48.56,8.59,15.07,1189,2104,7783,-1,-1,-1
-48.55,8.59,15.07,1205,2098,7765,-1,0,-1
