Yaw,Pitch,Roll,AX,AY,AZ,GX,GY,GZ
-48.93,8.72,15.71,1230,2185,7736,0,-1,0
-48.93,8.72,15.71,1230,2192,7730,-1,-1,0
-48.93,8.73,15.71,1234,2177,7724,-1,-1,0
-48.94,8.73,15.71,1237,2176,7727,-1,-1,0
-48.95,8.73,15.70,1230,2170,7754,-1,-1,0
-48.95,8.74,15.70,1237,2159,7748,0,-1,-1
-48.95,8.74,15.70,1225,2165,7767,0,-1,0
-48.95,8.75,15.70,1220,2173,7768,0,-1,0
-48.95,8.76,15.70,1232,2174,7753,0,-1,0
-48.96,8.76,15.70,1244,2182,7741,0,-1,0
-48.96,8.77,15.71,1238,2189,7745,0,-1,0
-48.96,8.76,15.71,1230,2190,7740,0,0,0
-48.96,8.77,15.71,1224,2186,7737,-1,-1,0
-48.97,8.78,15.71,1229,2175,7743,0,-1,0
-48.97,8.78,15.71,1229,2176,7744,0,-1,0
-48.97,8.79,15.71,1239,2174,7736,-1,-1,0
-48.98,8.79,15.71,1241,2175,7743,0,-1,0
-48.98,8.80,15.71,1241,2172,7743,0,-1,0
-48.98,8.80,15.71,1234,2170,7750,0,-1,-1
-48.98,8.80,15.72,1240,2173,7759,0,-1,0
-48.98,8.80,15.72,1233,2183,7757,0,-1,0
-48.98,8.80,15.72,1231,2183,7752,0,-1,0
-48.98,8.80,15.73,1232,2187,7739,0,-1,0
-48.98,8.81,15.73,1234,2187,7745,0,-1,0
-48.99,8.81,15.73,1240,2187,7739,0,-1,0
-48.99,8.81,15.73,1239,2187,7737,-1,0,0
-48.99,8.81,15.73,1235,2178,7745,-1,-1,0
-48.99,8.82,15.73,1239,2178,7752,0,-1,0
-48.99,8.82,15.73,1240,2173,7758,0,0,0
-48.99,8.82,15.73,1237,2176,7747,-1,-1,0
-48.99,8.82,15.73,1248,2178,7739,0,-1,0
-49.00,8.83,15.73,1241,2169,7728,-1,-1,0
-49.01,8.83,15.72,1249,2156,7729,-1,0,0
-49.01,8.83,15.72,1251,2153,7736,0,0,-1
-49.01,8.82,15.73,1235,2170,7739,0,-1,0
-49.01,8.83,15.74,1234,2182,7745,0,-1,0
-49.01,8.83,15.74,1231,2187,7751,0,-1,0
-49.01,8.84,15.75,1245,2208,7741,-1,-1,0
-49.02,8.85,15.74,1252,2198,7732,-1,-1,0
-49.02,8.85,15.73,1255,2179,7731,-1,0,0
-49.02,8.85,15.73,1251,2181,7748,0,-1,0
-49.02,8.85,15.73,1246,2178,7752,0,-1,0
-49.03,8.86,15.73,1248,2169,7759,0,-1,0
-49.03,8.85,15.73,1249,2175,7752,0,0,0
-49.03,8.85,15.74,1241,2173,7749,0,-1,0
-49.03,8.85,15.74,1244,2179,7737,0,-1,0
-49.04,8.86,15.74,1245,2184,7741,-1,-1,0
-49.04,8.86,15.74,1245,2181,7740,-1,-1,0
-49.04,8.86,15.74,1245,2175,7742,0,-1,-1
-49.04,8.87,15.73,1247,2171,7738,-1,-1,0
-49.04,8.87,15.73,1245,2182,7729,0,-1,0
-49.03,8.87,15.74,1248,2185,7715,0,0,-1
-49.03,8.86,15.74,1249,2191,7729,-1,0,-1
-49.04,8.86,15.74,1240,2196,7747,-1,-1,0
-49.04,8.86,15.72,1242,2181,7748,-1,-1,0
-49.04,8.87,15.72,1249,2171,7751,-1,-1,0
-49.04,8.88,15.71,1255,2176,7749,0,-1,-1
-49.04,8.88,15.71,1264,2172,7732,-1,-1,-1
-49.04,8.88,15.71,1270,2168,7728,-1,0,-1
-49.04,8.88,15.70,1260,2164,7738,0,0,-1
-49.03,8.87,15.71,1251,2171,7750,0,0,-1
-49.03,8.86,15.71,1243,2181,7751,0,-1,-1
-49.02,8.87,15.72,1240,2188,7758,0,-1,-1
-49.02,8.87,15.72,1246,2185,7751,-1,-1,-1
-49.02,8.87,15.72,1251,2191,7738,-1,-1,0
-49.02,8.87,15.72,1264,2183,7742,-1,0,-1
-49.02,8.87,15.72,1261,2188,7740,-1,0,-1
-49.01,8.85,15.72,1251,2184,7746,0,0,-1
-49.01,8.85,15.73,1250,2176,7753,0,0,-1
-49.00,8.84,15.73,1233,2183,7752,0,-1,-1
-49.01,8.84,15.73,1248,2162,7745,0,0,0
-49.00,8.83,15.74,1244,2183,7753,0,0,-1
-49.00,8.83,15.74,1228,2173,7752,0,-1,0
-49.01,8.83,15.73,1278,2136,7751,-1,0,0
-49.00,8.81,15.75,1269,2149,7761,1,1,-1
-48.98,8.79,15.79,1236,2221,7738,0,-1,-1
-48.97,8.77,15.78,1236,2200,7723,-1,0,-1
-48.98,8.76,15.77,1232,2181,7714,0,0,0
-48.98,8.74,15.78,1211,2234,7744,-1,0,-1
-48.98,8.74,15.78,1225,2196,7747,-1,-1,-1
-48.98,8.76,15.77,1263,2198,7757,0,0,-1
-48.98,8.74,15.76,1204,2210,7743,-1,-1,0
-48.98,8.76,15.74,1268,2168,7716,-1,0,0
-48.98,8.74,15.74,1250,2167,7765,0,0,-1
-48.98,8.73,15.73,1216,2179,7771,-1,-1,-1
-48.97,8.74,15.73,1209,2169,7770,0,-1,-1
-48.96,8.74,15.74,1219,2177,7770,0,-1,0
-48.97,8.75,15.74,1223,2199,7751,-1,-1,0
-48.98,8.75,15.73,1248,2183,7733,-1,0,0
-48.98,8.74,15.73,1245,2172,7739,-1,0,-1
-48.97,8.73,15.72,1241,2175,7749,0,0,-1
-48.97,8.73,15.73,1230,2191,7751,0,0,-1
-48.97,8.72,15.74,1224,2201,7742,0,-1,-1
-48.97,8.72,15.74,1222,2204,7739,-1,-1,0
-48.97,8.72,15.73,1228,2189,7754,-1,0,-1
-48.95,8.72,15.73,1220,2182,7749,-1,-1,-1
-48.95,8.71,15.74,1225,2172,7745,0,0,-1
-48.95,8.70,15.75,1239,2170,7742,0,0,-1
-48.95,8.68,15.77,1207,2193,7755,0,0,0
-48.96,8.68,15.76,1236,2135,7735,0,0,0
-48.95,8.65,15.79,1229,2190,7773,0,1,-1
-48.94,8.63,15.80,1206,2177,7746,0,-1,-1
-48.93,8.62,15.83,1208,2213,7731,0,0,-1
-48.94,8.60,15.83,1173,2212,7738,-1,0,0
-48.95,8.60,15.81,1221,2187,7726,0,0,0
-48.94,8.58,15.82,1213,2201,7726,0,0,-1
-48.93,8.56,15.83,1172,2220,7756,-1,0,0
-48.94,8.56,15.81,1195,2196,7729,-1,-1,0
-48.94,8.57,15.80,1205,2195,7721,-1,-1,-1
-48.94,8.57,15.80,1213,2206,7733,-1,-1,-1
-48.93,8.56,15.80,1201,2193,7754,-1,0,-1
-48.93,8.56,15.78,1207,2187,7735,-1,0,0
-48.93,8.56,15.78,1204,2182,7744,-1,0,0
-48.93,8.56,15.76,1202,2182,7755,-1,-1,-1
-48.93,8.55,15.76,1201,2183,7754,-1,-1,-1
-48.93,8.56,15.75,1204,2169,7746,-1,-1,-1
-48.93,8.56,15.74,1208,2164,7739,-1,0,-1
-48.93,8.55,15.73,1210,2170,7730,-1,0,-1
-48.92,8.55,15.73,1207,2162,7746,0,0,-1
-48.92,8.54,15.72,1200,2168,7757,0,0,-1
-48.92,8.53,15.73,1188,2173,7763,0,-1,-1
-48.91,8.53,15.73,1195,2188,7755,-1,-1,-1
-48.92,8.54,15.72,1203,2193,7737,-1,0,0
-48.93,8.54,15.71,1219,2177,7736,-1,0,0
-48.93,8.54,15.70,1213,2164,7752,-1,0,0
-48.92,8.53,15.70,1200,2172,7756,0,0,-1
-48.92,8.52,15.70,1190,2162,7757,0,0,0
-48.92,8.51,15.70,1192,2179,7761,0,0,0
-48.93,8.51,15.71,1197,2187,7756,-1,0,0
-48.93,8.51,15.70,1204,2174,7762,-1,0,-1
-48.92,8.50,15.70,1204,2170,7755,-1,0,-1
-48.92,8.49,15.70,1195,2176,7744,0,0,-1
-48.92,8.49,15.70,1194,2173,7747,-1,0,-1
-48.92,8.48,15.70,1193,2177,7753,0,0,-1
-48.92,8.47,15.70,1193,2184,7759,-1,0,-1
-48.91,8.47,15.70,1192,2173,7752,0,0,-1
-48.91,8.47,15.70,1189,2178,7748,0,-1,-1
-48.91,8.47,15.70,1187,2181,7746,-1,0,-1
-48.91,8.47,15.70,1191,2183,7737,-1,0,-1
-48.91,8.47,15.70,1187,2184,7738,-1,-1,-1
-48.91,8.47,15.70,1187,2179,7750,-1,-1,-1
-48.91,8.46,15.70,1182,2175,7755,-1,-1,-1
-48.91,8.47,15.69,1190,2165,7752,-1,-1,0
-48.91,8.47,15.69,1193,2165,7770,0,-1,-1
-48.91,8.47,15.70,1190,2160,7754,0,-1,-1
-48.91,8.47,15.71,1197,2175,7760,0,-1,-1
-48.91,8.48,15.70,1194,2178,7759,0,-1,0
-48.91,8.48,15.71,1201,2185,7747,0,-1,-1
-48.90,8.49,15.71,1195,2187,7748,-1,-1,0
-48.90,8.50,15.71,1194,2172,7744,0,-1,-1
-48.90,8.50,15.72,1193,2179,7742,0,-1,0
-48.90,8.50,15.72,1188,2179,7746,-1,-1,0
-48.90,8.51,15.71,1194,2174,7754,0,-1,0
-48.90,8.51,15.71,1199,2173,7755,-1,-1,0
-48.90,8.51,15.71,1192,2170,7756,-1,-1,0
-48.90,8.52,15.72,1209,2180,7746,0,-1,-1
-48.90,8.52,15.72,1202,2196,7748,0,-1,-1
-48.90,8.52,15.72,1193,2197,7745,-1,-1,0
-48.90,8.52,15.72,1196,2185,7747,-1,-1,0
-48.90,8.53,15.72,1192,2181,7746,0,-1,-1
-48.90,8.54,15.72,1215,2177,7758,-1,-1,0
-48.91,8.55,15.72,1217,2165,7744,0,-1,0
-48.90,8.55,15.73,1208,2182,7743,0,-1,0
-48.90,8.56,15.73,1212,2176,7740,0,-1,-1
-48.90,8.56,15.74,1214,2162,7752,0,-1,0
-48.91,8.57,15.74,1204,2179,7752,0,-1,0
-48.91,8.56,15.75,1195,2181,7742,0,-1,0
-48.92,8.56,15.74,1194,2167,7748,0,0,0
-48.92,8.56,15.76,1177,2193,7755,0,-1,0
-48.92,8.57,15.76,1209,2189,7740,0,0,0
-48.92,8.56,15.77,1191,2207,7743,-1,-1,0
-48.93,8.57,15.77,1201,2197,7736,0,-1,0
-48.93,8.58,15.77,1208,2184,7737,-1,0,0
-48.94,8.57,15.76,1208,2192,7741,-1,0,0
-48.95,8.57,15.75,1200,2165,7731,-1,-1,0
-48.95,8.57,15.75,1205,2172,7740,0,-1,-1
-48.95,8.57,15.75,1196,2199,7756,-1,-1,0
-48.95,8.59,15.73,1218,2189,7741,-1,-1,0
-48.96,8.59,15.72,1206,2180,7750,-1,-1,0
-48.97,8.60,15.71,1205,2164,7759,-1,-1,0
-48.97,8.61,15.71,1216,2165,7759,0,-1,0
-48.97,8.62,15.71,1209,2174,7752,0,-1,0
-48.97,8.62,15.71,1220,2181,7747,0,-1,-1
-48.97,8.63,15.72,1217,2189,7736,0,-1,0
-48.97,8.63,15.72,1204,2194,7739,-1,-1,0
-48.98,8.63,15.71,1215,2180,7747,-1,-1,0
-48.98,8.64,15.71,1216,2176,7744,0,-1,0
-48.99,8.65,15.71,1217,2180,7748,-1,-1,0
-48.99,8.65,15.71,1221,2182,7751,-1,-1,0
-48.99,8.65,15.70,1225,2169,7745,-1,-1,-1
-48.99,8.65,15.70,1221,2168,7744,-1,-1,0
-49.00,8.66,15.69,1219,2161,7753,0,-1,0
-49.00,8.66,15.69,1220,2161,7759,0,-1,0
-48.99,8.66,15.70,1216,2171,7755,0,-1,0
-49.00,8.66,15.71,1216,2180,7757,0,-1,0
-49.00,8.67,15.70,1225,2169,7749,0,-1,0
-49.00,8.67,15.71,1227,2173,7744,0,-1,-1
-49.00,8.68,15.71,1233,2177,7745,0,-1,-1
-48.99,8.68,15.72,1227,2179,7736,0,-1,-1
-48.99,8.68,15.73,1212,2175,7726,0,-1,0
-48.99,8.69,15.73,1214,2186,7754,0,-1,0
-49.01,8.69,15.73,1219,2179,7751,0,0,0
-49.01,8.69,15.73,1205,2180,7749,-1,-1,0
-49.01,8.70,15.73,1220,2149,7748,0,-1,0
-49.02,8.70,15.74,1236,2181,7750,0,0,0
-49.02,8.70,15.74,1230,2194,7731,-1,-1,0
-49.02,8.71,15.73,1241,2183,7732,0,0,-1
-49.02,8.69,15.73,1216,2176,7746,-1,0,0
-49.02,8.69,15.73,1209,2171,7755,0,-1,0
-49.02,8.70,15.74,1203,2189,7754,0,-1,0
-49.02,8.71,15.73,1220,2196,7744,-1,-1,0
-49.03,8.72,15.73,1238,2179,7741,-1,-1,0
-49.03,8.72,15.73,1231,2175,7735,-1,0,0
-49.04,8.72,15.73,1226,2186,7736,-1,-1,0
-49.04,8.72,15.73,1228,2186,7740,-1,-1,0
-49.04,8.73,15.72,1228,2180,7754,-1,-1,0
-49.04,8.73,15.71,1233,2179,7754,0,-1,0
-49.06,8.73,15.71,1230,2174,7760,-1,-1,0
-49.06,8.74,15.71,1230,2169,7751,-1,-1,0
-49.06,8.75,15.71,1233,2170,7749,0,-1,0
-49.07,8.76,15.71,1226,2178,7757,0,-1,0
-49.07,8.76,15.71,1234,2171,7747,-1,-1,0
-49.07,8.77,15.71,1232,2175,7746,0,-1,0
-49.07,8.78,15.72,1242,2182,7755,0,-1,0
-49.07,8.78,15.72,1245,2179,7746,0,-1,0
-49.08,8.78,15.72,1237,2184,7740,0,-1,0
-49.08,8.79,15.72,1238,2188,7740,-1,-1,0
-49.08,8.79,15.72,1237,2183,7748,-1,-1,0
-49.08,8.79,15.72,1241,2179,7747,-1,-1,0
-49.09,8.79,15.72,1246,2173,7745,0,0,0
-49.08,8.79,15.72,1239,2192,7759,0,0,-1
-49.08,8.79,15.73,1225,2187,7750,-1,-1,0
-49.09,8.80,15.73,1235,2178,7754,0,-1,-1
-49.08,8.81,15.74,1235,2183,7741,0,-1,0
-49.08,8.82,15.74,1231,2161,7728,0,-1,0
-49.09,8.82,15.75,1250,2171,7738,0,0,0
-49.09,8.82,15.76,1221,2185,7741,0,-1,0
-49.10,8.84,15.77,1262,2175,7741,0,-1,0
-49.10,8.83,15.78,1243,2179,7741,0,0,0
-49.10,8.83,15.78,1258,2180,7726,0,0,0
-49.11,8.81,15.78,1250,2187,7739,0,0,0
-49.11,8.80,15.79,1223,2191,7729,-1,0,0
-49.12,8.80,15.78,1238,2179,7736,-1,0,0
-49.12,8.79,15.77,1229,2191,7747,-1,0,0
-49.12,8.79,15.77,1219,2188,7733,-1,-1,0
-49.12,8.80,15.76,1233,2176,7724,-1,-1,0
-49.13,8.81,15.76,1242,2190,7733,-1,-1,0
-49.13,8.82,15.75,1248,2175,7744,-1,-1,0
-49.14,8.82,15.73,1253,2165,7760,-1,-1,0
-49.14,8.82,15.73,1242,2161,7763,0,-1,-1
-49.14,8.82,15.74,1228,2171,7752,0,-1,-1
-49.13,8.82,15.74,1224,2181,7744,0,-1,0
-49.14,8.83,15.75,1220,2201,7743,-1,-1,0
-49.15,8.83,15.75,1232,2194,7747,-1,-1,0
-49.15,8.84,15.74,1252,2183,7746,-1,-1,0
-49.16,8.84,15.73,1247,2182,7748,-1,-1,0
-49.17,8.85,15.73,1246,2177,7745,-1,-1,0
-49.17,8.85,15.72,1249,2169,7748,-1,-1,0
-49.17,8.85,15.72,1242,2162,7745,0,-1,0
-49.17,8.86,15.73,1246,2171,7751,0,-1,-1
-49.17,8.86,15.72,1248,2184,7750,-1,-1,-1
-49.17,8.86,15.72,1246,2179,7742,0,-1,-1
-49.16,8.87,15.73,1246,2180,7746,0,0,-1
-49.15,8.86,15.73,1242,2191,7738,0,0,-1
-49.15,8.86,15.74,1245,2180,7741,0,-1,-1
-49.14,8.87,15.74,1238,2155,7741,0,-1,-1
-49.14,8.87,15.76,1246,2173,7753,0,0,-1
-49.14,8.86,15.76,1232,2188,7753,-1,-1,0
-49.15,8.87,15.77,1279,2164,7729,0,-1,0
-49.14,8.86,15.78,1264,2207,7751,0,0,-1
-49.15,8.85,15.78,1237,2191,7742,-1,0,0
-49.15,8.84,15.77,1251,2174,7739,0,0,-1
-49.15,8.83,15.79,1246,2178,7757,0,0,-1
-49.14,8.82,15.80,1229,2209,7754,0,-1,-1
-49.15,8.82,15.79,1248,2175,7733,-1,0,0
-49.15,8.81,15.78,1244,2163,7745,0,0,-1
-49.15,8.80,15.79,1245,2206,7738,0,0,-1
-49.14,8.79,15.79,1216,2179,7754,-1,-1,-1
-49.13,8.79,15.79,1238,2179,7743,0,0,-1
-49.13,8.78,15.80,1220,2215,7751,-1,0,-1
-49.13,8.78,15.79,1240,2194,7740,-1,0,0
-49.13,8.78,15.78,1243,2176,7731,-1,0,-1
-49.13,8.77,15.79,1247,2176,7735,0,0,-1
-49.12,8.76,15.79,1220,2199,7760,-1,0,-1
-49.12,8.75,15.78,1232,2192,7750,-1,0,-1
-49.12,8.75,15.77,1225,2190,7741,-1,0,0
-49.12,8.75,15.77,1233,2190,7753,-1,0,0
-49.12,8.75,15.76,1230,2181,7759,-1,-1,-1
-49.12,8.75,15.75,1234,2167,7760,0,0,-1
-49.12,8.75,15.75,1238,2181,7751,0,-1,-1
-49.12,8.75,15.75,1236,2182,7743,-1,0,-1
-49.11,8.74,15.75,1234,2180,7749,-1,0,-1
-49.11,8.74,15.74,1228,2174,7748,-1,0,-1
-49.11,8.74,15.74,1217,2177,7749,0,0,-1
-49.11,8.73,15.74,1217,2176,7745,-1,-1,-1
-49.11,8.73,15.74,1231,2177,7728,-1,-1,0
-49.11,8.74,15.73,1233,2185,7729,-1,0,0
-49.11,8.74,15.73,1238,2185,7740,-1,-1,0
-49.11,8.74,15.73,1232,2176,7737,-1,0,-1
-49.11,8.73,15.72,1223,2172,7742,-1,0,-1
-49.10,8.73,15.72,1216,2175,7755,0,-1,-1
-49.10,8.73,15.72,1227,2179,7758,-1,-1,-1
-49.10,8.73,15.72,1228,2174,7762,-1,0,-1
-49.10,8.72,15.72,1241,2179,7765,0,0,-1
-49.10,8.72,15.72,1232,2175,7759,0,0,-1
-49.10,8.71,15.71,1227,2173,7758,0,0,-1
-49.09,8.71,15.72,1217,2179,7755,0,0,-1
-49.09,8.69,15.72,1215,2187,7753,0,0,-1
-49.09,8.69,15.72,1221,2193,7751,0,0,-1
-49.08,8.69,15.73,1229,2193,7743,0,0,-1
-49.07,8.69,15.73,1218,2184,7733,0,-1,-1
-49.06,8.70,15.74,1223,2188,7736,0,-1,-1
-49.07,8.71,15.74,1255,2153,7743,0,0,0
-49.08,8.69,15.75,1223,2132,7757,0,0,0
-49.07,8.69,15.76,1225,2140,7742,0,0,-1
-49.08,8.68,15.79,1209,2162,7788,0,0,0
-49.09,8.68,15.80,1251,2161,7755,0,0,0
-49.08,8.65,15.83,1229,2197,7746,0,1,-1
-49.07,8.64,15.85,1220,2228,7741,-1,0,-1
-49.07,8.61,15.85,1188,2220,7739,-1,0,-1
-49.07,8.60,15.84,1186,2210,7737,0,0,0
-49.07,8.60,15.84,1210,2208,7753,-1,0,0
-49.08,8.59,15.84,1200,2208,7757,0,0,-1
-49.07,8.59,15.83,1222,2209,7730,-1,0,-1
-49.07,8.58,15.83,1219,2178,7733,0,0,-1
-49.07,8.57,15.83,1193,2190,7721,0,0,-1
-49.06,8.55,15.82,1192,2195,7716,-1,-1,0
-49.06,8.54,15.81,1213,2216,7741,-1,0,-1
-49.06,8.54,15.80,1199,2217,7763,-1,-1,-1
-49.06,8.54,15.78,1187,2215,7758,-1,-1,0
-49.07,8.54,15.77,1180,2199,7756,-1,-1,0
-49.07,8.56,15.75,1208,2182,7749,-1,-1,0
-49.08,8.56,15.73,1211,2157,7750,-1,0,-1
-49.07,8.55,15.72,1217,2145,7757,-1,0,-1
-49.07,8.55,15.73,1215,2151,7760,0,0,-1
-49.06,8.53,15.73,1200,2184,7756,0,0,-1
-49.05,8.52,15.74,1185,2210,7754,-1,0,0
-49.05,8.52,15.74,1185,2209,7766,-1,-1,0
-49.05,8.52,15.74,1190,2202,7760,-1,-1,0
-49.06,8.52,15.73,1187,2199,7750,-1,-1,0
-49.06,8.52,15.72,1199,2184,7730,-1,-1,-1
-49.06,8.53,15.72,1205,2168,7728,-1,-1,0
-49.06,8.53,15.72,1208,2175,7740,0,0,-1
-49.05,8.52,15.72,1209,2182,7763,0,0,-1
-49.03,8.52,15.74,1163,2194,7762,0,-1,-1
-49.03,8.53,15.74,1221,2164,7763,0,0,-1
-49.03,8.51,15.74,1175,2176,7756,0,0,0
-49.04,8.52,15.75,1214,2124,7736,1,-1,0
-49.04,8.49,15.78,1199,2189,7737,0,1,-1
-49.03,8.48,15.79,1168,2212,7739,-1,-1,-1
-49.03,8.49,15.79,1230,2200,7742,0,0,-1
-49.01,8.46,15.81,1142,2246,7749,-1,0,-1
-49.01,8.47,15.80,1165,2234,7754,-1,-1,0
-49.02,8.48,15.78,1203,2180,7763,0,0,0
-49.03,8.46,15.77,1167,2195,7753,-1,-1,0
-49.03,8.48,15.76,1232,2152,7738,0,0,-1
-49.03,8.47,15.77,1191,2187,7757,-1,0,0
-49.03,8.47,15.76,1183,2155,7742,0,-1,0
-49.03,8.48,15.76,1202,2189,7752,0,0,-1
-49.03,8.47,15.76,1172,2215,7768,-1,-1,0
-49.03,8.49,15.75,1196,2199,7765,-1,-1,0
-49.02,8.50,15.74,1188,2195,7761,-1,-1,0
-49.04,8.51,15.74,1183,2198,7754,-1,-1,0
-49.04,8.53,15.72,1214,2161,7744,0,-1,0
-49.04,8.54,15.73,1221,2169,7745,0,0,-1
-49.03,8.53,15.74,1202,2204,7755,-1,0,-1
-49.03,8.54,15.73,1187,2199,7763,-1,-1,0
-49.04,8.54,15.72,1186,2198,7772,-1,-1,0
-49.04,8.55,15.72,1189,2200,7763,-1,-1,0
-49.05,8.56,15.70,1199,2187,7760,-1,-1,0
-49.05,8.58,15.69,1216,2171,7750,-1,-1,0
-49.06,8.59,15.70,1226,2165,7740,-1,-1,0
-49.06,8.60,15.70,1224,2164,7740,0,-1,-1
-49.06,8.60,15.70,1224,2170,7744,0,0,-1
-49.06,8.60,15.70,1209,2176,7746,0,-1,-1
-49.05,8.60,15.71,1204,2200,7759,-1,-1,-1
-49.05,8.61,15.71,1207,2192,7758,-1,-1,0
-49.06,8.62,15.70,1213,2193,7742,-1,-1,0
-49.06,8.63,15.69,1219,2184,7741,-1,-1,0
-49.06,8.64,15.68,1220,2177,7740,-1,-1,0
-49.07,8.64,15.67,1207,2172,7749,-1,-1,0
-49.07,8.65,15.67,1216,2166,7761,-1,-1,0
-49.07,8.66,15.67,1214,2171,7756,0,-1,0
-49.08,8.67,15.67,1213,2176,7757,0,-1,0
-49.08,8.67,15.67,1228,2183,7752,-1,-1,-1
-49.07,8.67,15.67,1223,2180,7748,-1,-1,-1
-49.07,8.68,15.67,1227,2171,7755,-1,-1,-1
-49.07,8.68,15.66,1224,2174,7746,-1,-1,0
-49.07,8.68,15.66,1220,2178,7751,0,-1,0
-49.07,8.68,15.66,1225,2170,7754,-1,-1,0
-49.08,8.68,15.66,1222,2178,7747,0,-1,-1
-49.08,8.69,15.66,1225,2198,7749,-1,-1,0
-49.08,8.69,15.66,1212,2196,7749,-1,-1,0
-49.09,8.69,15.65,1216,2186,7737,-1,-1,0
-49.09,8.69,15.65,1211,2176,7741,-1,-1,0
-49.09,8.69,15.65,1212,2174,7756,0,-1,-1
-49.09,8.69,15.64,1211,2177,7767,-1,-1,0
-49.09,8.69,15.64,1213,2157,7760,0,-1,0
-49.09,8.69,15.64,1219,2163,7759,0,0,-1
-49.09,8.69,15.65,1208,2184,7741,0,-1,-1
-49.08,8.70,15.66,1225,2175,7741,0,0,0
-49.09,8.70,15.67,1220,2196,7739,0,0,0
-49.09,8.69,15.68,1215,2205,7736,0,0,0
-49.10,8.69,15.68,1197,2203,7755,-1,-1,0
-49.11,8.71,15.68,1224,2163,7768,0,-1,0
-49.11,8.71,15.69,1225,2198,7759,0,0,0
-49.11,8.71,15.70,1220,2182,7739,-1,-1,0
-49.13,8.72,15.70,1228,2167,7757,0,-1,0
-49.13,8.72,15.70,1246,2161,7729,0,0,-1
-49.13,8.70,15.71,1209,2165,7761,0,0,-1
-49.12,8.70,15.72,1204,2175,7744,0,-1,-1
-49.13,8.71,15.72,1212,2162,7747,0,-1,0
-49.13,8.71,15.73,1229,2176,7745,0,0,0
-49.14,8.71,15.75,1206,2182,7747,0,-1,0
-49.14,8.72,15.75,1247,2191,7744,-1,0,-1
-49.13,8.72,15.77,1233,2218,7755,0,-1,0
-49.13,8.72,15.76,1222,2228,7710,-1,-1,0
-49.15,8.72,15.73,1240,2190,7717,-1,0,-1
-49.15,8.71,15.71,1198,2199,7757,-2,-1,-1
-49.15,8.74,15.68,1244,2155,7726,-1,-2,0
-49.14,8.74,15.69,1228,2175,7741,-1,0,-1
-49.14,8.74,15.68,1215,2194,7752,-1,-1,0
-49.14,8.76,15.67,1236,2186,7751,-1,-1,-1
-49.14,8.76,15.66,1213,2189,7759,-1,-1,-1
-49.14,8.77,15.65,1224,2172,7749,-1,-1,0
-49.14,8.79,15.64,1239,2168,7749,-1,-1,0
-49.14,8.79,15.64,1239,2175,7751,0,-1,0
-49.15,8.81,15.64,1253,2180,7756,-1,-1,0
-49.15,8.81,15.64,1241,2190,7755,-1,-1,0
-49.15,8.81,15.64,1233,2193,7731,0,-1,0
-49.15,8.82,15.64,1235,2188,7739,-1,-1,0
-49.15,8.83,15.63,1240,2184,7746,-1,-1,0
-49.17,8.84,15.62,1246,2173,7744,-1,-1,0
-49.17,8.84,15.62,1250,2172,7737,-1,-1,0
-49.17,8.85,15.61,1250,2160,7748,-1,-1,0
-49.17,8.86,15.61,1253,2162,7736,0,-1,0
-49.17,8.85,15.62,1249,2165,7737,0,-1,-1
-49.16,8.86,15.63,1239,2177,7731,0,-1,-1
-49.16,8.87,15.63,1244,2188,7734,-1,-1,0
-49.17,8.87,15.63,1253,2193,7736,-1,0,0
-49.18,8.86,15.62,1241,2197,7732,-1,-1,0
-49.18,8.88,15.62,1243,2174,7743,-1,-1,0
-49.18,8.88,15.61,1244,2167,7746,0,-1,0
-49.18,8.89,15.62,1250,2169,7745,-1,-1,0
-49.18,8.90,15.61,1258,2172,7740,-1,-1,0
-49.18,8.90,15.61,1245,2165,7732,-1,0,0
-49.18,8.89,15.61,1241,2161,7734,0,-1,0
-49.18,8.89,15.62,1239,2164,7746,0,-1,0
-49.18,8.90,15.61,1245,2173,7752,0,-1,0
-49.19,8.90,15.62,1248,2175,7752,0,-1,0
-49.19,8.91,15.63,1249,2181,7743,-1,-1,0
-49.19,8.91,15.62,1258,2174,7739,0,-1,0
-49.19,8.91,15.62,1259,2179,7740,0,-1,0
-49.19,8.91,15.62,1252,2185,7742,-1,0,0
-49.19,8.91,15.62,1245,2180,7745,0,-1,-1
-49.20,8.92,15.62,1247,2165,7752,-1,-1,0
-49.20,8.92,15.62,1264,2178,7750,-1,-1,-1
-49.19,8.91,15.62,1249,2192,7755,-1,0,-1
-49.19,8.92,15.62,1247,2167,7763,-1,-1,0
-49.20,8.91,15.61,1242,2147,7757,0,-1,-1
-49.19,8.92,15.62,1241,2149,7749,0,-1,-1
-49.20,8.93,15.64,1251,2164,7749,0,-1,0
-49.19,8.92,15.65,1256,2168,7746,0,0,-1
-49.20,8.90,15.65,1248,2181,7756,0,0,0
-49.19,8.91,15.66,1246,2188,7745,0,-1,0
-49.21,8.91,15.66,1252,2191,7734,0,-1,0
-49.21,8.91,15.66,1265,2198,7730,-1,0,0
-49.20,8.90,15.64,1238,2193,7725,-1,-1,0
-49.21,8.90,15.63,1228,2181,7738,-1,-1,0
-49.21,8.91,15.62,1233,2175,7753,-1,-1,0
-49.22,8.93,15.60,1259,2175,7755,-1,-1,0
-49.22,8.93,15.60,1261,2158,7759,-1,-1,-1
-49.22,8.93,15.60,1264,2148,7748,0,-1,-1
-49.21,8.93,15.60,1257,2155,7732,0,-1,-1
-49.21,8.93,15.61,1249,2176,7732,0,-1,-1
-49.21,8.94,15.62,1256,2191,7729,-1,-1,0
-49.21,8.93,15.61,1254,2195,7738,-1,0,0
-49.21,8.93,15.61,1256,2189,7757,-1,-1,0
-49.21,8.94,15.61,1252,2173,7760,-1,-1,0
-49.21,8.94,15.60,1261,2164,7759,-1,-1,-1
-49.21,8.95,15.60,1270,2169,7752,-1,-1,-1
-49.21,8.95,15.60,1270,2159,7743,-1,0,-1
-49.20,8.95,15.59,1260,2161,7735,-1,0,-1
-49.20,8.93,15.59,1250,2172,7750,0,0,-1
-49.20,8.93,15.60,1249,2173,7755,0,0,-1
-49.20,8.92,15.61,1241,2176,7772,0,-1,-1
-49.20,8.92,15.61,1237,2172,7761,0,0,0
-49.19,8.92,15.61,1251,2181,7743,0,-1,-1
-49.19,8.93,15.62,1251,2176,7738,0,-1,-1
-49.19,8.94,15.63,1268,2180,7733,0,0,-1
-49.17,8.93,15.63,1270,2184,7734,0,0,-1
-49.17,8.92,15.63,1261,2182,7740,-1,0,-1
-49.17,8.91,15.64,1237,2172,7735,0,0,-1
-49.17,8.90,15.63,1252,2169,7756,-1,0,-1
-49.17,8.90,15.64,1255,2163,7752,0,-1,0
-49.17,8.89,15.64,1247,2160,7749,-1,0,-1
-49.17,8.88,15.64,1247,2139,7734,0,0,0
-49.17,8.88,15.65,1260,2147,7730,0,0,-1
-49.16,8.87,15.67,1247,2208,7731,0,0,-1
-49.14,8.87,15.68,1253,2204,7731,-1,-1,-1
-49.15,8.86,15.66,1253,2195,7744,-1,0,-1
-49.15,8.84,15.66,1230,2187,7733,-1,0,0
-49.15,8.85,15.65,1245,2190,7731,-1,-1,0
-49.15,8.85,15.65,1244,2187,7737,-1,0,-1
-49.16,8.85,15.65,1258,2196,7740,-1,0,-1
-49.15,8.84,15.64,1245,2192,7740,-1,0,-1
-49.15,8.84,15.63,1241,2166,7738,-1,0,0
-49.15,8.83,15.62,1237,2155,7750,-1,0,-1
-49.15,8.82,15.62,1225,2161,7759,0,-1,-1
-49.15,8.83,15.62,1233,2159,7752,0,-1,-1
-49.14,8.82,15.63,1240,2165,7742,0,0,-1
-49.14,8.82,15.63,1235,2186,7739,0,-1,-1
-49.14,8.82,15.63,1245,2182,7748,-1,0,-1
-49.14,8.81,15.63,1236,2184,7751,-1,0,-1
-49.14,8.80,15.62,1228,2179,7751,-1,0,-1
-49.14,8.79,15.62,1233,2173,7760,-1,0,-1
-49.13,8.79,15.62,1233,2178,7755,-1,0,0
-49.13,8.79,15.61,1233,2182,7743,-1,0,-1
-49.13,8.80,15.61,1244,2163,7746,-1,0,-1
-49.12,8.79,15.60,1240,2158,7746,0,0,-1
-49.12,8.78,15.60,1226,2157,7753,0,0,-1
-49.12,8.77,15.60,1238,2150,7754,0,0,-1
-49.10,8.75,15.61,1231,2167,7763,0,0,-1
-49.10,8.75,15.62,1211,2171,7767,0,-1,-1
-49.09,8.74,15.63,1232,2161,7756,0,0,-1
-49.08,8.73,15.65,1211,2206,7743,0,0,-1
-49.08,8.73,15.66,1233,2192,7752,-1,-1,0
-49.08,8.73,15.65,1243,2175,7733,-1,0,0
-49.09,8.70,15.65,1227,2168,7746,-1,0,0
-49.09,8.68,15.65,1215,2167,7750,0,0,-1
-49.08,8.68,15.67,1216,2156,7757,0,-1,-1
-49.08,8.67,15.69,1223,2188,7747,0,0,-1
-49.07,8.65,15.69,1195,2215,7742,-1,0,0
-49.08,8.67,15.67,1235,2162,7734,-1,-1,0
-49.08,8.65,15.66,1253,2172,7751,0,1,-1
-49.07,8.63,15.67,1192,2171,7749,-1,0,-1
-49.07,8.62,15.66,1216,2160,7749,0,0,-1
-49.06,8.61,15.66,1202,2173,7749,-1,0,-1
-49.06,8.61,15.66,1210,2193,7736,-1,0,0
-49.06,8.60,15.66,1219,2195,7736,-1,0,-1
-49.06,8.60,15.66,1211,2202,7745,-1,-1,-1
-49.05,8.60,15.65,1210,2202,7750,-1,-1,0
-49.06,8.60,15.63,1217,2194,7764,-1,0,0
-49.06,8.60,15.62,1202,2173,7764,-1,-1,0
-49.07,8.60,15.60,1210,2147,7759,-1,0,0
-49.07,8.60,15.59,1213,2144,7747,0,0,-1
-49.06,8.59,15.60,1218,2149,7732,0,0,-1
-49.06,8.59,15.60,1212,2170,7740,-1,0,-1
-49.05,8.58,15.60,1207,2177,7761,-1,0,-1
-49.05,8.57,15.61,1199,2190,7756,0,0,-1
-49.05,8.56,15.60,1188,2194,7756,-1,-1,0
-49.05,8.56,15.60,1199,2182,7751,0,-1,0
-49.05,8.57,15.61,1206,2185,7744,-1,-1,-1
-49.04,8.57,15.61,1209,2173,7745,-1,-1,-1
-49.04,8.57,15.60,1219,2161,7747,-1,0,-1
-49.04,8.57,15.60,1202,2155,7745,0,0,0
-49.04,8.56,15.60,1215,2134,7754,0,0,-1
-49.04,8.55,15.61,1197,2154,7770,0,0,-1
-49.03,8.54,15.62,1170,2189,7756,0,0,-1
-49.03,8.54,15.62,1178,2187,7748,-1,-1,0
-49.04,8.54,15.62,1193,2189,7743,-1,-1,0
-49.04,8.54,15.63,1194,2204,7755,-1,-1,-1
-49.03,8.54,15.62,1198,2191,7745,-1,-1,-1
-49.03,8.55,15.62,1203,2181,7743,-1,-1,-1
-49.03,8.56,15.61,1205,2170,7745,-1,-1,0
-49.04,8.56,15.61,1195,2174,7749,-1,-1,0
-49.04,8.57,15.61,1197,2166,7749,0,-1,0
-49.04,8.57,15.60,1198,2158,7753,-1,-1,0
-49.04,8.58,15.60,1196,2171,7753,-1,-1,0
-49.05,8.59,15.61,1198,2184,7740,0,-1,0
-49.05,8.59,15.60,1194,2176,7749,-1,-1,0
-49.05,8.59,15.60,1196,2170,7752,-1,-1,0
-49.05,8.60,15.60,1208,2168,7750,0,-1,0
-49.05,8.60,15.61,1201,2174,7748,0,-1,0
-49.05,8.61,15.61,1208,2174,7747,0,-1,0
-49.05,8.61,15.62,1201,2184,7740,0,-1,0
-49.06,8.62,15.62,1195,2182,7742,-1,-1,0
-49.06,8.62,15.62,1210,2186,7740,-1,-1,0
-49.06,8.62,15.61,1205,2183,7746,-1,-1,0
-49.06,8.62,15.61,1208,2179,7753,-1,-1,0
-49.06,8.63,15.60,1209,2174,7758,-1,-1,0
-49.07,8.63,15.60,1218,2168,7760,-1,-1,0
-49.07,8.63,15.60,1212,2167,7751,0,-1,0
-49.06,8.64,15.61,1220,2177,7743,0,-1,-1
-49.06,8.64,15.61,1214,2184,7736,0,-1,0
-49.07,8.64,15.61,1215,2184,7744,-1,-1,0
-49.07,8.65,15.61,1212,2179,7748,-1,-1,0
-49.07,8.65,15.61,1214,2181,7745,-1,-1,0
-49.08,8.66,15.61,1221,2169,7756,0,-1,0
-49.07,8.67,15.61,1225,2174,7758,-1,-1,0
-49.08,8.67,15.60,1229,2159,7754,-1,-1,0
-49.08,8.67,15.60,1228,2159,7745,-1,0,0
-49.08,8.67,15.59,1212,2161,7754,0,-1,-1
-49.08,8.67,15.60,1206,2177,7750,0,-1,0
-49.08,8.67,15.61,1198,2189,7748,-1,-1,0
-49.07,8.68,15.61,1204,2189,7756,-1,-1,0
-49.08,8.68,15.61,1217,2188,7757,-1,-1,0
-49.09,8.69,15.61,1226,2184,7743,-1,-1,0
-49.09,8.70,15.60,1225,2173,7742,-1,-1,0
-49.09,8.69,15.60,1225,2171,7741,-1,-1,-1
-49.09,8.70,15.60,1223,2169,7735,-1,-1,0
-49.09,8.70,15.60,1223,2175,7756,-1,-1,0
-49.09,8.70,15.60,1224,2178,7751,-1,-1,-1
-49.09,8.71,15.59,1223,2173,7744,-1,-1,0
-49.09,8.71,15.59,1224,2165,7732,-1,-1,-1
-49.09,8.71,15.59,1229,2164,7742,0,-1,0
-49.09,8.72,15.59,1243,2164,7752,0,-1,-1
-49.08,8.72,15.60,1208,2177,7757,-1,-1,0
-49.08,8.73,15.60,1228,2143,7751,0,-1,0
-49.08,8.73,15.62,1234,2170,7759,0,0,-1
-49.08,8.73,15.64,1218,2190,7756,0,-1,-1
-49.08,8.74,15.64,1247,2186,7743,0,-1,0
-49.08,8.73,15.65,1219,2204,7740,-1,0,0
-49.09,8.73,15.64,1212,2181,7750,-1,-1,0
-49.10,8.74,15.63,1242,2152,7747,-1,0,0
-49.10,8.73,15.65,1217,2173,7766,0,-1,-1
-49.09,8.74,15.66,1262,2168,7741,0,0,-1
-49.09,8.72,15.67,1191,2200,7745,0,0,0
-49.10,8.73,15.66,1234,2147,7734,-1,-1,0
-49.11,8.72,15.67,1232,2177,7749,0,0,-1
-49.11,8.71,15.68,1209,2205,7764,0,-1,0
-49.10,8.70,15.69,1196,2210,7739,0,-1,-1
-49.11,8.72,15.69,1230,2191,7739,-1,0,0
-49.12,8.72,15.69,1217,2205,7738,-1,0,0
-49.13,8.72,15.67,1233,2179,7736,-1,-1,0
-49.13,8.72,15.66,1210,2159,7765,-1,-1,-1
-49.12,8.74,15.66,1235,2170,7744,0,-1,0
-49.13,8.73,15.66,1217,2198,7744,-1,0,0
-49.13,8.73,15.65,1216,2186,7754,-1,-1,0
-49.13,8.74,15.64,1233,2178,7761,-1,-1,0
-49.13,8.74,15.65,1220,2183,7762,0,-1,-1
-49.13,8.75,15.64,1211,2189,7760,-1,-1,0
-49.13,8.76,15.65,1224,2199,7742,0,-1,0
-49.13,8.76,15.65,1235,2195,7746,-1,-1,0
-49.14,8.77,15.64,1239,2186,7748,-1,-1,0
-49.14,8.77,15.63,1245,2169,7746,-1,-1,-1
-49.14,8.77,15.63,1234,2160,7758,0,-1,-1
-49.14,8.78,15.63,1219,2169,7756,-1,-1,0
-49.15,8.79,15.63,1240,2160,7758,0,-1,0
-49.15,8.79,15.63,1230,2175,7752,-1,-1,-1
-49.15,8.80,15.63,1231,2179,7744,0,-1,0
-49.15,8.81,15.64,1226,2177,7740,-1,-1,0
-49.14,8.82,15.64,1234,2163,7738,0,-1,0
-49.15,8.83,15.65,1240,2184,7735,0,0,0
-49.15,8.84,15.65,1225,2176,7739,0,-1,0
-49.15,8.84,15.65,1249,2196,7741,0,-1,0
-49.15,8.85,15.66,1230,2208,7741,-1,-1,0
-49.15,8.85,15.66,1247,2204,7731,-1,-1,0
-49.16,8.86,15.65,1245,2176,7732,-1,-1,0
-49.17,8.87,15.64,1248,2173,7744,-1,-1,0
-49.17,8.87,15.63,1240,2167,7742,-1,-1,0
-49.18,8.87,15.63,1251,2160,7747,0,-1,0
-49.18,8.87,15.63,1243,2166,7744,0,-1,0
-49.18,8.87,15.63,1245,2177,7745,0,-1,0
-49.17,8.88,15.63,1241,2186,7740,-1,-1,0
-49.17,8.88,15.63,1249,2183,7738,-1,-1,0
-49.17,8.88,15.63,1250,2193,7748,-1,-1,0
-49.18,8.88,15.62,1249,2187,7746,-1,0,0
-49.18,8.89,15.62,1245,2181,7751,-1,-1,0
-49.18,8.89,15.62,1249,2168,7748,-1,-1,0
-49.19,8.89,15.62,1249,2176,7755,-1,-1,0
-49.19,8.90,15.61,1250,2172,7755,-1,-1,0
-49.20,8.90,15.61,1247,2170,7754,-1,-1,0
-49.20,8.90,15.61,1246,2167,7752,0,-1,0
-49.20,8.90,15.61,1246,2169,7750,0,-1,0
-49.20,8.90,15.61,1244,2171,7751,0,-1,0
-49.19,8.90,15.61,1241,2177,7749,0,-1,0
-49.19,8.90,15.62,1242,2177,7746,0,-1,0
-49.20,8.90,15.62,1247,2181,7743,-1,-1,0
-49.20,8.91,15.62,1252,2189,7734,-1,-1,0
-49.20,8.90,15.62,1248,2186,7738,-1,0,0
-49.21,8.91,15.62,1245,2181,7740,-1,-1,0
-49.21,8.90,15.61,1226,2176,7748,-1,-1,0
-49.21,8.90,15.61,1243,2174,7756,-1,-1,0
-49.21,8.91,15.61,1249,2172,7764,0,-1,0
-49.21,8.91,15.62,1247,2184,7754,0,-1,0
-49.21,8.92,15.62,1261,2180,7743,-1,-1,0
-49.21,8.92,15.61,1248,2161,7747,-1,0,0
-49.21,8.92,15.61,1253,2158,7745,0,0,-1
-49.22,8.92,15.62,1259,2164,7756,0,0,-1
-49.22,8.91,15.63,1245,2194,7750,0,-1,0
-49.22,8.92,15.63,1249,2197,7748,-1,-1,0
-49.22,8.92,15.63,1245,2187,7741,-1,-1,0
-49.22,8.92,15.62,1255,2188,7740,-1,-1,0
-49.22,8.92,15.62,1262,2177,7743,-1,-1,-1
-49.23,8.93,15.61,1268,2176,7745,-1,0,-1
-49.23,8.92,15.61,1260,2173,7750,-1,0,0
-49.23,8.92,15.60,1259,2170,7757,-1,0,0
-49.23,8.92,15.60,1260,2166,7758,0,-1,0
-49.23,8.92,15.60,1250,2173,7754,-1,-1,-1
-49.22,8.92,15.60,1257,2163,7743,0,0,-1
-49.22,8.92,15.60,1259,2166,7743,-1,-1,-1
-49.22,8.92,15.60,1268,2169,7754,-1,-1,-1
-49.22,8.92,15.60,1267,2168,7748,0,0,-1
-49.21,8.91,15.61,1254,2179,7745,0,0,-1
-49.21,8.90,15.61,1245,2185,7744,-1,0,-1
-49.20,8.89,15.62,1228,2186,7752,0,0,-1
-49.20,8.89,15.61,1241,2178,7761,-1,-1,0
-49.20,8.89,15.62,1242,2169,7755,0,0,-1
-49.20,8.89,15.61,1250,2161,7746,0,-1,0
-49.21,8.90,15.62,1274,2163,7747,0,0,0
-49.20,8.89,15.63,1254,2173,7749,0,0,0
-49.21,8.88,15.64,1280,2151,7737,0,0,-1
-49.20,8.86,15.66,1241,2160,7751,0,0,-1
-49.19,8.84,15.68,1233,2179,7742,0,0,-1
-49.19,8.82,15.69,1205,2205,7744,0,0,0
-49.19,8.82,15.69,1235,2185,7736,-1,0,-1
-49.20,8.82,15.69,1231,2196,7746,-1,0,-1
-49.19,8.80,15.68,1240,2174,7726,0,-1,-1
-49.18,8.80,15.68,1250,2180,7741,-1,0,-1
-49.18,8.79,15.68,1245,2204,7747,-1,0,-1
-49.17,8.79,15.66,1254,2163,7731,-1,0,-1
-49.17,8.78,15.66,1241,2191,7753,-1,0,-1
-49.16,8.76,15.66,1196,2192,7769,-1,-1,0
-49.16,8.77,15.65,1251,2162,7758,-1,0,-1
-49.16,8.76,15.64,1224,2168,7754,0,0,-1
-49.15,8.76,15.64,1237,2174,7732,-1,-1,-1
-49.15,8.75,15.64,1237,2159,7749,0,0,-1
-49.15,8.73,15.64,1221,2174,7754,0,0,-1
-49.14,8.73,15.65,1217,2185,7755,0,0,-1
-49.13,8.72,15.65,1221,2189,7747,0,-1,-1
-49.13,8.72,15.65,1227,2198,7737,-1,0,0
-49.14,8.73,15.65,1234,2190,7733,-1,0,0
-49.14,8.72,15.64,1237,2179,7741,-1,0,-1
-49.14,8.71,15.64,1222,2178,7734,-1,0,-1
-49.13,8.71,15.63,1224,2170,7734,-1,0,-1
-49.13,8.71,15.62,1221,2170,7744,-1,0,-1
-49.13,8.70,15.63,1222,2175,7746,-1,0,-1
-49.13,8.70,15.62,1228,2172,7747,-1,0,-1
-49.13,8.70,15.62,1224,2172,7748,0,0,-1
-49.12,8.69,15.62,1222,2176,7749,-1,0,-1
-49.12,8.69,15.62,1226,2175,7747,-1,0,-1
-49.12,8.68,15.63,1229,2177,7744,0,0,-1
-49.11,8.68,15.63,1229,2177,7760,-1,0,-1
-49.11,8.67,15.62,1233,2169,7753,0,0,-1
-49.11,8.67,15.63,1236,2182,7746,0,0,-1
-49.10,8.67,15.63,1235,2187,7745,-1,0,-1
-49.10,8.65,15.63,1228,2193,7756,-1,0,-1
-49.10,8.64,15.63,1219,2193,7760,-1,0,-1
-49.10,8.64,15.63,1209,2179,7757,0,-1,-1
-49.09,8.64,15.63,1225,2173,7766,0,-1,-1
-49.08,8.65,15.64,1231,2160,7758,0,0,-1
-49.08,8.64,15.64,1236,2160,7750,0,0,-1
-49.08,8.63,15.65,1230,2132,7736,0,0,-1
-49.08,8.62,15.68,1224,2154,7741,1,0,-1
-49.08,8.60,15.69,1210,2171,7729,0,0,-1
-49.07,8.59,15.71,1251,2203,7760,0,0,-1
-49.06,8.55,15.72,1181,2206,7772,-1,0,0
-49.07,8.56,15.70,1209,2170,7744,0,-1,0
-49.07,8.55,15.73,1208,2200,7754,0,0,-1
-49.06,8.53,15.73,1198,2232,7737,-1,0,-1
-49.05,8.53,15.73,1203,2209,7734,-1,0,-1
-49.06,8.52,15.71,1213,2173,7739,-1,0,0
-49.06,8.50,15.72,1200,2190,7784,-1,0,-1
-49.06,8.50,15.72,1214,2167,7765,0,-1,-1
-49.06,8.49,15.73,1232,2177,7759,0,1,-1
-49.05,8.46,15.72,1185,2175,7737,-1,0,-1
-49.04,8.46,15.73,1191,2179,7734,0,0,-1
-49.05,8.45,15.72,1197,2159,7763,-1,0,0
-49.04,8.43,15.73,1185,2195,7768,0,0,-1
-49.04,8.43,15.72,1168,2193,7745,-1,-1,-1
-49.04,8.44,15.71,1195,2184,7738,-1,-1,-1
-49.03,8.44,15.71,1187,2190,7743,-1,-1,-1
-49.04,8.44,15.70,1198,2201,7741,-1,-1,0
-49.03,8.45,15.68,1200,2198,7749,-1,-1,-1
-49.04,8.45,15.67,1199,2171,7756,-1,0,-1
-49.03,8.45,15.66,1186,2171,7771,-1,-1,-1
-49.03,8.45,15.66,1184,2175,7774,-1,-1,-1
-49.03,8.45,15.66,1193,2182,7776,-1,-1,-1
-49.03,8.45,15.65,1186,2184,7763,-1,-1,-1
-49.03,8.45,15.65,1181,2177,7760,-1,-1,-1
-49.03,8.45,15.65,1185,2168,7755,-1,-1,-1
-49.03,8.46,15.65,1194,2167,7753,0,-1,0
-49.02,8.47,15.65,1209,2170,7753,0,-1,-1
-49.02,8.48,15.66,1212,2178,7749,0,-1,-1
-49.02,8.48,15.67,1213,2192,7751,0,-1,-1
-49.02,8.48,15.67,1205,2204,7748,0,0,-1
-49.02,8.48,15.67,1191,2188,7740,-1,0,-1
-49.01,8.47,15.66,1185,2189,7752,-1,-1,0
-49.02,8.48,15.67,1184,2189,7751,0,-1,0
-49.02,8.49,15.67,1196,2189,7754,-1,-1,0
-49.02,8.50,15.66,1215,2187,7748,-1,-1,0
-49.03,8.52,15.65,1221,2174,7745,-1,-1,0
-49.03,8.52,15.64,1226,2139,7753,-1,-1,0
-49.03,8.52,15.64,1212,2134,7759,0,-1,-1
-49.04,8.52,15.65,1205,2156,7752,0,0,-1
-49.03,8.52,15.66,1201,2185,7757,0,-1,-1
-49.03,8.53,15.67,1208,2208,7751,0,-1,0
-49.03,8.53,15.68,1209,2216,7741,-1,-1,0
-49.03,8.54,15.67,1214,2203,7736,-1,-1,0
-49.03,8.55,15.67,1213,2189,7735,-1,-1,0
-49.03,8.54,15.66,1215,2175,7752,-1,-1,0
-49.04,8.55,15.66,1214,2174,7748,0,-1,0
-49.04,8.55,15.67,1225,2179,7753,0,-1,0
-49.04,8.56,15.67,1229,2185,7761,-1,-1,0
-49.04,8.56,15.67,1222,2181,7761,-1,0,0
-49.04,8.56,15.67,1216,2177,7754,-1,0,0
-49.05,8.56,15.66,1209,2173,7758,-1,-1,-1
-49.05,8.56,15.65,1212,2162,7763,-1,-1,-1
-49.05,8.57,15.65,1216,2155,7764,0,-1,-1
-49.05,8.57,15.65,1208,2162,7757,0,-1,0
-49.05,8.57,15.66,1209,2172,7763,0,-1,0
-49.05,8.58,15.66,1216,2174,7752,0,-1,-1
-49.05,8.58,15.66,1207,2182,7751,0,-1,-1
-49.04,8.59,15.67,1215,2190,7747,0,-1,-1
-49.04,8.59,15.67,1208,2199,7738,-1,-1,0
-49.05,8.60,15.66,1217,2193,7737,-1,-1,0
-49.06,8.60,15.65,1223,2183,7745,-1,-1,0
-49.05,8.61,15.64,1224,2181,7743,-1,-1,-1
-49.05,8.61,15.65,1226,2163,7745,-1,-1,-1
-49.05,8.60,15.64,1220,2158,7755,0,0,0
-49.05,8.61,15.65,1211,2172,7749,0,-1,-1
-49.05,8.61,15.65,1216,2176,7746,-1,-1,0
-49.05,8.61,15.64,1226,2178,7737,-1,-1,-1
-49.05,8.61,15.64,1227,2175,7745,-1,0,-1
-49.05,8.62,15.64,1232,2163,7750,0,-1,0
-49.05,8.62,15.64,1222,2167,7755,-1,-1,0
-49.05,8.62,15.63,1227,2150,7739,0,-1,-1
-49.05,8.62,15.64,1224,2144,7744,0,0,-1
-49.04,8.62,15.65,1220,2164,7761,0,-1,-1
-49.04,8.62,15.66,1220,2187,7773,0,-1,0
-49.05,8.63,15.67,1212,2181,7764,-1,-1,0
-49.05,8.64,15.66,1236,2190,7756,-1,0,0
-49.05,8.63,15.67,1228,2191,7752,0,0,-1
-49.05,8.63,15.69,1218,2193,7747,0,-1,-1
-49.06,8.63,15.69,1224,2206,7744,-1,0,0
-49.06,8.63,15.67,1233,2178,7740,-1,-1,0
-49.07,8.64,15.66,1250,2157,7749,-1,0,0
-49.07,8.64,15.66,1231,2165,7748,-1,0,-1
-49.07,8.64,15.66,1215,2174,7740,0,-1,-1
-49.07,8.64,15.66,1215,2183,7750,-1,0,0
-49.07,8.64,15.65,1214,2182,7747,-1,-1,0
-49.08,8.64,15.65,1220,2184,7750,-1,-1,0
-49.08,8.65,15.64,1230,2178,7745,-1,-1,-1
-49.08,8.65,15.64,1233,2169,7740,0,-1,-1
-49.08,8.65,15.65,1225,2172,7744,0,-1,-1
-49.07,8.65,15.66,1234,2185,7747,0,0,-1
-49.07,8.65,15.66,1224,2195,7743,0,-1,-1
-49.07,8.66,15.67,1231,2193,7736,0,-1,0
-49.07,8.66,15.67,1238,2188,7740,0,0,-1
-49.07,8.66,15.68,1226,2195,7744,0,-1,0
-49.07,8.67,15.68,1233,2186,7732,0,0,-1
-49.08,8.66,15.68,1232,2177,7743,0,-1,0
-49.07,8.66,15.69,1224,2164,7740,0,0,0
-49.07,8.66,15.69,1246,2168,7742,0,0,0
-49.07,8.65,15.70,1208,2176,7728,0,-1,0
-49.08,8.66,15.72,1243,2192,7747,-1,0,0
-49.08,8.65,15.70,1219,2204,7719,-1,0,0
-49.09,8.65,15.69,1212,2189,7735,-1,-1,0
-49.09,8.65,15.68,1216,2182,7729,-1,0,0
-49.09,8.66,15.68,1221,2181,7742,-1,-1,0
-49.10,8.67,15.66,1233,2183,7760,-1,-1,0
-49.10,8.68,15.66,1225,2177,7745,-1,-1,0
-49.10,8.69,15.66,1229,2172,7733,-1,-1,0
-49.10,8.70,15.64,1233,2155,7723,-1,-1,0
-49.11,8.71,15.64,1233,2158,7725,-1,-1,0
-49.11,8.71,15.64,1227,2164,7741,0,-1,-1
-49.11,8.71,15.64,1229,2177,7752,-1,-1,0
-49.11,8.72,15.65,1223,2191,7757,0,-1,0
-49.12,8.72,15.65,1223,2183,7758,-1,-1,0
-49.11,8.73,15.65,1233,2190,7747,0,-1,0
-49.12,8.74,15.65,1235,2187,7734,-1,-1,0
-49.12,8.74,15.64,1244,2176,7734,-1,-1,0
-49.12,8.74,15.64,1241,2174,7737,-1,0,0
-49.12,8.74,15.64,1236,2177,7753,-1,-1,0
-49.13,8.75,15.64,1230,2172,7764,-1,-1,0
-49.13,8.75,15.64,1233,2169,7757,0,-1,0
-49.13,8.76,15.64,1235,2165,7757,-1,-1,0
-49.13,8.76,15.64,1238,2171,7759,-1,-1,0
-49.13,8.77,15.64,1240,2166,7754,-1,-1,0
-49.13,8.77,15.64,1247,2169,7744,0,-1,-1
-49.13,8.77,15.65,1253,2178,7745,0,-1,-1
-49.13,8.77,15.66,1256,2192,7740,0,-1,-1
-49.12,8.78,15.66,1273,2192,7735,-1,0,-1
-49.13,8.77,15.66,1248,2187,7749,-1,0,-1
-49.13,8.78,15.65,1236,2160,7745,0,-1,0
-49.13,8.79,15.65,1252,2149,7738,0,-1,-1
-49.12,8.80,15.67,1250,2168,7753,0,0,0
-49.13,8.80,15.67,1252,2158,7757,-1,-1,0
-49.14,8.81,15.67,1284,2152,7756,0,0,-1
-49.14,8.80,15.69,1238,2153,7763,0,-1,0
-49.14,8.81,15.71,1262,2171,7764,0,0,-1
-49.14,8.79,15.73,1238,2195,7736,0,0,0
-49.14,8.79,15.76,1254,2212,7738,0,0,0
-49.15,8.79,15.75,1234,2203,7716,-1,0,0
-49.16,8.79,15.74,1258,2207,7757,-1,0,0
-49.17,8.78,15.71,1249,2180,7729,-1,0,-1
-49.16,8.79,15.72,1239,2200,7735,-1,-1,-1
-49.15,8.80,15.71,1233,2208,7731,-1,-1,0
-49.16,8.81,15.69,1255,2190,7724,-1,-1,0
-49.17,8.82,15.67,1262,2172,7738,-1,0,0
-49.17,8.82,15.66,1267,2159,7748,-1,0,-1
-49.17,8.82,15.65,1252,2149,7761,0,-1,-1
-49.17,8.83,15.65,1256,2141,7756,0,-1,-1
-49.16,8.82,15.66,1253,2166,7743,0,-1,-1
-49.16,8.83,15.67,1259,2191,7720,-1,-1,-1
-49.16,8.83,15.67,1251,2191,7721,-1,-1,-1
-49.16,8.83,15.66,1256,2183,7734,-1,0,-1
-49.16,8.83,15.65,1250,2182,7747,-1,0,-1
-49.15,8.83,15.65,1243,2167,7755,-1,-1,-1
-49.16,8.83,15.64,1251,2161,7745,-1,-1,-1
-49.16,8.83,15.64,1255,2172,7746,0,0,-1
-49.16,8.83,15.64,1261,2173,7738,0,0,-1
-49.14,8.82,15.65,1248,2174,7747,-1,0,-1
-49.14,8.82,15.65,1245,2174,7742,-1,0,-1
-49.14,8.81,15.65,1248,2174,7752,-1,0,-1
-49.14,8.81,15.65,1250,2168,7753,0,0,-1
-49.13,8.81,15.65,1254,2168,7749,-1,0,-1
-49.13,8.81,15.65,1254,2174,7745,-1,0,-1
-49.13,8.80,15.65,1252,2169,7739,0,0,-1
-49.13,8.79,15.65,1246,2174,7737,0,0,-1
-49.12,8.79,15.66,1241,2186,7740,-1,0,-1
-49.12,8.78,15.65,1239,2183,7747,-1,0,-1
-49.11,8.78,15.65,1247,2180,7760,-1,0,-1
-49.12,8.78,15.65,1243,2175,7758,-1,0,-1
-49.12,8.77,15.64,1247,2171,7754,-1,0,-1
-49.11,8.77,15.64,1244,2174,7746,0,0,-1
-49.10,8.76,15.64,1248,2162,7752,-1,0,-1
-49.10,8.76,15.64,1251,2165,7750,0,0,-1
-49.10,8.76,15.65,1252,2175,7743,0,0,-1
-49.09,8.75,15.66,1250,2186,7741,-1,0,-1
-49.09,8.75,15.66,1247,2191,7737,-1,0,-1
-49.08,8.74,15.65,1235,2186,7742,-1,0,-1
-49.08,8.74,15.65,1242,2171,7735,-1,-1,-1
-49.08,8.74,15.65,1247,2167,7729,0,0,-1
-49.08,8.74,15.65,1256,2175,7734,-1,0,-1
-49.08,8.74,15.64,1257,2171,7732,-1,0,-1
-49.07,8.73,15.65,1247,2157,7736,0,0,-1
-49.06,8.72,15.66,1241,2155,7746,0,0,-1
-49.05,8.72,15.67,1232,2168,7752,0,0,-1
-49.05,8.71,15.69,1237,2161,7759,0,0,-1
-49.05,8.69,15.71,1230,2176,7752,0,0,0
-49.05,8.68,15.71,1261,2163,7757,0,0,0
-49.04,8.66,15.74,1250,2210,7749,0,0,-1
-49.03,8.64,15.75,1220,2221,7737,0,0,-1
-49.02,8.63,15.75,1209,2209,7729,-1,0,0
-49.04,8.61,15.75,1240,2202,7732,0,0,0
-49.03,8.59,15.77,1221,2213,7759,-1,0,-1
-49.03,8.59,15.77,1227,2202,7755,0,0,-1
-49.03,8.56,15.78,1210,2198,7780,0,1,-1
-49.03,8.54,15.78,1205,2175,7753,0,-1,0
-49.03,8.52,15.81,1207,2195,7748,1,1,-1
-49.02,8.51,15.82,1211,2185,7759,0,-1,0
-49.03,8.49,15.83,1236,2179,7751,0,1,0
-49.03,8.46,15.85,1192,2215,7760,1,1,-1
-49.02,8.44,15.86,1175,2194,7776,0,-1,0
-49.04,8.44,15.87,1208,2174,7744,0,1,0
-49.02,8.42,15.90,1168,2220,7763,0,-1,0
-49.01,8.42,15.89,1193,2213,7738,-1,-1,-1
-49.01,8.43,15.89,1210,2193,7707,0,0,-1
-49.01,8.41,15.90,1204,2222,7710,-1,0,-1
-49.00,8.40,15.89,1202,2229,7740,-1,-1,0
-49.00,8.40,15.88,1194,2222,7764,-1,0,-1
-49.00,8.38,15.87,1183,2198,7751,0,0,0
-49.00,8.38,15.88,1181,2216,7772,-1,-1,-1
-49.00,8.38,15.88,1186,2188,7754,0,0,0
-49.00,8.38,15.89,1225,2219,7749,-1,-1,-1
-49.00,8.38,15.90,1211,2194,7747,0,0,0
-49.00,8.36,15.90,1194,2206,7711,-1,0,-1
-48.99,8.35,15.92,1206,2191,7747,0,0,-1
-48.98,8.33,15.95,1176,2223,7729,0,0,-1
-48.97,8.31,15.97,1161,2257,7718,0,0,-1
-48.97,8.30,15.98,1181,2251,7751,-1,0,-1
-48.98,8.29,15.97,1167,2242,7759,-1,0,0
-48.99,8.29,15.96,1203,2209,7725,0,0,-1
-48.99,8.27,15.97,1145,2210,7729,0,0,0
-48.99,8.28,15.96,1211,2178,7714,0,0,-1
-48.97,8.25,15.99,1159,2229,7752,-1,0,-1
-48.97,8.24,15.98,1195,2200,7728,0,0,-1
-48.95,8.22,16.00,1164,2202,7724,0,0,-1
-48.94,8.20,16.02,1154,2261,7775,0,0,-1
-48.94,8.18,16.02,1146,2244,7744,0,0,-1
-48.94,8.19,16.03,1164,2233,7712,0,0,0
-48.93,8.17,16.04,1156,2254,7742,0,0,-1
-48.94,8.17,16.04,1142,2241,7719,-1,-1,0
-48.94,8.16,16.04,1159,2238,7720,0,0,-1
-48.94,8.15,16.03,1144,2230,7730,-1,-1,0
-48.94,8.16,16.03,1152,2255,7731,-1,-1,-1
-48.94,8.16,16.02,1149,2224,7718,-1,-1,0
-48.94,8.17,16.00,1163,2228,7731,-1,-1,-1
-48.93,8.18,15.98,1138,2225,7738,-2,-1,-1
-48.94,8.20,15.95,1179,2218,7718,-1,-1,0
-48.92,8.20,15.94,1146,2212,7742,-1,-1,-1
-48.92,8.23,15.92,1162,2215,7731,-1,-1,-1
-48.92,8.24,15.91,1158,2204,7749,-1,-1,0
-48.92,8.27,15.90,1165,2195,7764,-1,-2,-1
-48.92,8.29,15.89,1191,2203,7762,-1,-1,-1
-48.92,8.30,15.90,1171,2211,7745,-1,-1,-1
-48.92,8.32,15.90,1178,2214,7736,-1,-1,-1
-48.92,8.34,15.90,1188,2225,7735,-1,-1,-1
-48.92,8.35,15.89,1189,2238,7737,-1,-1,-1
-48.91,8.37,15.88,1197,2219,7741,-1,-1,0
-48.92,8.38,15.87,1203,2203,7755,-1,0,-1
-48.92,8.38,15.86,1186,2202,7767,-1,-1,0
-48.91,8.39,15.87,1182,2217,7752,0,-1,-1
-48.91,8.39,15.88,1178,2202,7765,0,-1,-1
-48.91,8.40,15.89,1202,2217,7769,0,0,0
-48.92,8.40,15.89,1219,2197,7780,0,0,0
-48.93,8.38,15.91,1215,2169,7782,0,1,0
-48.94,8.36,15.92,1199,2162,7746,1,0,0
-48.94,8.35,15.96,1193,2174,7752,1,1,0
-48.94,8.31,16.00,1180,2215,7735,0,0,-1
-48.94,8.29,16.01,1184,2237,7719,0,1,-1
-48.93,8.27,16.03,1124,2272,7707,0,-1,-1
-48.93,8.27,16.02,1169,2246,7732,-1,0,-1
-48.94,8.25,15.98,1139,2218,7750,-1,0,0
-48.94,8.27,15.99,1160,2209,7750,0,-1,0
-48.95,8.28,15.98,1217,2212,7778,-1,0,0
-48.94,8.27,15.98,1171,2207,7750,0,-1,-1
-48.94,8.27,15.96,1192,2190,7719,-1,0,-1
-48.94,8.27,15.97,1174,2215,7735,0,-1,-1
-48.94,8.27,15.97,1160,2232,7753,-2,-1,0
-48.94,8.27,15.96,1169,2222,7735,0,0,-1
-48.94,8.28,15.97,1159,2257,7762,0,-1,-1
-48.94,8.30,15.96,1167,2243,7753,-1,-1,0
-48.96,8.32,15.92,1171,2224,7725,-2,-1,0
-48.96,8.33,15.90,1174,2212,7716,-1,-1,0
-48.97,8.33,15.88,1194,2212,7731,-2,-1,-1
-48.96,8.35,15.86,1182,2183,7732,-1,-1,-1
-48.96,8.35,15.87,1167,2207,7749,-1,-1,-1
-48.97,8.37,15.85,1164,2211,7743,-1,-1,0
-48.98,8.39,15.83,1180,2202,7747,-1,-1,0
-48.98,8.40,15.82,1191,2196,7752,-1,-1,0
-48.98,8.41,15.80,1202,2184,7758,-1,-1,0
-48.98,8.42,15.81,1202,2182,7750,0,-1,-1
-48.98,8.43,15.81,1203,2188,7739,0,-1,-1
-48.98,8.42,15.81,1190,2201,7729,0,0,0
-48.98,8.43,15.82,1183,2211,7727,-1,-1,0
-48.98,8.44,15.81,1199,2213,7735,-1,-1,0
-48.98,8.44,15.80,1190,2212,7750,-1,-1,0
-48.99,8.45,15.79,1195,2189,7744,-1,-1,0
-48.99,8.46,15.78,1214,2182,7752,-1,-1,0
-49.00,8.47,15.77,1212,2185,7755,-1,-1,-1
-49.00,8.48,15.76,1205,2178,7747,-1,-1,0
-49.00,8.48,15.75,1191,2184,7750,-1,-1,0
-49.00,8.50,15.75,1190,2184,7752,-1,-1,0
-49.00,8.51,15.75,1203,2196,7756,-1,-1,-1
-49.00,8.53,15.75,1209,2187,7750,-1,-1,-1
-48.99,8.54,15.75,1215,2192,7746,-1,-1,-1
-49.00,8.55,15.73,1223,2185,7735,-1,-1,0
-49.00,8.55,15.73,1220,2190,7746,-1,-1,0
-49.00,8.56,15.73,1212,2190,7737,0,-1,-1
-49.00,8.57,15.73,1204,2196,7745,-1,-1,0
-49.00,8.58,15.72,1210,2186,7742,-1,-1,0
-49.01,8.59,15.71,1223,2185,7749,-1,-1,0
-49.01,8.60,15.71,1221,2177,7753,-1,-1,0
-49.01,8.61,15.70,1223,2174,7750,-1,-1,-1
-49.01,8.61,15.70,1225,2173,7745,-1,-1,-1
-49.01,8.62,15.69,1223,2170,7749,-1,-1,-1
-49.00,8.62,15.69,1224,2174,7756,0,-1,-1
-48.99,8.62,15.70,1217,2190,7758,-1,-1,-1
-48.99,8.63,15.70,1216,2189,7756,-1,-1,0
-49.00,8.65,15.69,1223,2194,7744,-1,-1,0
-49.00,8.66,15.69,1224,2190,7732,-1,-1,0
-49.00,8.66,15.69,1224,2188,7735,-1,-1,0
-49.00,8.67,15.69,1232,2192,7745,-1,-1,0
-49.00,8.67,15.69,1235,2183,7751,-1,-1,-1
-49.00,8.68,15.68,1237,2178,7749,-1,-1,-1
-49.00,8.68,15.67,1229,2177,7754,-1,-1,0
-49.00,8.69,15.68,1236,2182,7757,-1,-1,0
-49.00,8.69,15.68,1242,2182,7753,-1,-1,-1
-49.00,8.70,15.67,1248,2170,7751,-1,-1,-1
-49.00,8.71,15.67,1246,2170,7747,-1,-1,-1
-49.00,8.71,15.67,1237,2167,7741,0,-1,-1
-49.00,8.71,15.68,1240,2182,7739,0,-1,-1
-48.99,8.71,15.68,1243,2185,7743,0,-1,-1
-48.99,8.71,15.69,1240,2193,7747,-1,-1,-1
-49.00,8.72,15.69,1240,2190,7741,-1,-1,0
-49.01,8.72,15.68,1238,2179,7731,-1,-1,0
-49.01,8.73,15.68,1235,2176,7734,0,-1,0
-49.01,8.73,15.68,1231,2181,7746,-1,-1,0
-49.01,8.73,15.67,1241,2176,7744,-1,-1,0
-49.01,8.74,15.67,1247,2176,7741,-1,-1,0
-49.01,8.74,15.67,1242,2168,7746,-1,-1,-1
-49.01,8.74,15.67,1241,2166,7750,-1,-1,-1
-49.01,8.74,15.67,1234,2170,7742,0,-1,-1
-49.01,8.74,15.67,1238,2168,7734,0,-1,-1
-49.01,8.75,15.67,1238,2172,7750,0,-1,-1
-49.00,8.75,15.67,1248,2177,7746,-1,-1,-1
-49.00,8.75,15.67,1242,2184,7749,-1,-1,-1
-49.01,8.75,15.67,1241,2175,7745,-1,-1,0
-49.01,8.76,15.67,1244,2167,7753,-1,-1,0
-49.01,8.76,15.66,1233,2163,7746,-1,-1,0
-49.01,8.77,15.67,1249,2156,7738,0,-1,-1
-49.00,8.78,15.68,1255,2174,7732,0,0,-1
-49.00,8.78,15.69,1244,2194,7730,-1,-1,0
-49.01,8.78,15.68,1252,2187,7737,-1,0,0
-49.02,8.78,15.67,1245,2179,7740,-1,0,0
-49.02,8.78,15.66,1235,2178,7742,-1,-1,0
-49.03,8.79,15.67,1234,2170,7740,0,-1,0
-49.02,8.80,15.67,1243,2175,7734,0,-1,0
-49.04,8.81,15.67,1263,2172,7731,-1,-1,0
-49.04,8.81,15.66,1269,2167,7734,-1,0,-1
-49.04,8.81,15.67,1260,2158,7738,-1,0,0
-49.04,8.80,15.66,1244,2159,7747,0,0,0
-49.03,8.80,15.67,1234,2174,7749,0,-1,-1
-49.03,8.81,15.69,1241,2181,7750,0,-1,0
-49.04,8.82,15.69,1244,2182,7748,0,-1,0
-49.04,8.82,15.69,1258,2186,7734,-1,-1,0
-49.04,8.83,15.69,1259,2170,7736,0,-1,0
-49.04,8.83,15.69,1261,2171,7734,-1,0,0
-49.05,8.83,15.69,1261,2170,7741,-1,0,0
-49.05,8.82,15.69,1257,2174,7749,-1,0,0
-49.05,8.82,15.69,1252,2171,7749,0,0,0
-49.05,8.82,15.69,1249,2175,7745,0,-1,0
-49.06,8.83,15.69,1254,2180,7746,-1,-1,0
-49.06,8.83,15.69,1261,2181,7747,-1,-1,-1
-49.06,8.83,15.69,1258,2170,7747,0,0,0
-49.06,8.83,15.69,1254,2161,7752,0,0,-1
-49.06,8.83,15.69,1258,2169,7748,0,0,-1
-49.06,8.82,15.70,1256,2169,7744,0,-1,-1
-49.06,8.82,15.70,1257,2184,7746,0,0,-1
-49.06,8.83,15.70,1261,2186,7742,-1,0,-1
-49.06,8.82,15.70,1266,2182,7730,-1,0,-1
-49.06,8.82,15.70,1260,2178,7729,-1,0,-1
-49.06,8.83,15.69,1259,2164,7734,-1,0,-1
-49.06,8.83,15.68,1267,2157,7749,0,0,-1
-49.06,8.82,15.68,1260,2168,7754,0,0,-1
-49.06,8.82,15.69,1270,2172,7752,0,0,-1
-49.06,8.82,15.69,1272,2174,7746,-1,0,-1
-49.06,8.82,15.69,1276,2183,7733,-1,0,-1
-49.06,8.82,15.69,1266,2172,7733,-1,0,-1
-49.06,8.81,15.69,1261,2170,7732,0,0,-1
-49.05,8.81,15.70,1258,2176,7742,0,0,-1
-49.05,8.81,15.70,1258,2177,7742,0,0,-1
-49.05,8.81,15.70,1260,2183,7743,-1,0,0
-49.05,8.81,15.70,1259,2184,7741,-1,0,-1
-49.05,8.80,15.69,1256,2172,7754,-1,0,-1
-49.05,8.80,15.69,1262,2179,7761,0,0,-1
-49.05,8.79,15.70,1250,2176,7750,-1,0,-1
-49.05,8.79,15.70,1262,2169,7751,0,0,-1
-49.04,8.79,15.70,1263,2165,7747,0,0,-1
-49.04,8.79,15.70,1258,2162,7745,0,0,-1
-49.04,8.79,15.70,1259,2171,7749,0,0,-1
-49.04,8.78,15.70,1264,2186,7735,-1,0,-1
-49.03,8.77,15.70,1252,2185,7731,-1,0,-1
-49.03,8.77,15.70,1250,2179,7744,-1,0,-1
-49.03,8.77,15.69,1249,2170,7747,-1,-1,-1
-49.03,8.77,15.69,1260,2165,7748,0,0,-1
-49.03,8.77,15.69,1258,2167,7742,-1,0,-1
-49.03,8.77,15.69,1267,2165,7737,-1,0,-1
-49.03,8.77,15.69,1266,2162,7736,0,0,-1
-49.03,8.76,15.69,1259,2164,7738,0,0,-1
-49.03,8.75,15.70,1253,2172,7747,0,0,-1
-49.02,8.75,15.70,1249,2180,7743,0,0,-1
-49.02,8.74,15.70,1241,2177,7744,0,0,-1
-49.02,8.73,15.71,1247,2175,7745,0,0,-1
-49.01,8.73,15.71,1247,2181,7743,0,0,-1
-49.01,8.73,15.71,1258,2183,7734,0,0,-1
-49.01,8.73,15.71,1265,2191,7734,-1,0,-1
-49.01,8.73,15.72,1258,2183,7746,-1,0,-1
-49.01,8.73,15.71,1256,2167,7759,-1,0,0
-49.01,8.72,15.71,1254,2162,7764,-1,0,-1
-49.01,8.71,15.70,1261,2166,7755,0,0,-1
-49.00,8.70,15.71,1253,2187,7751,0,0,-1
-49.00,8.69,15.72,1237,2180,7744,-1,-1,-1
-49.00,8.69,15.71,1254,2168,7745,-1,0,-1
-49.00,8.68,15.71,1246,2168,7738,0,0,-1
-48.99,8.68,15.72,1263,2179,7748,0,0,-1
-48.98,8.66,15.73,1236,2182,7739,0,0,-1
-48.97,8.65,15.74,1238,2177,7733,0,0,-1
-48.97,8.64,15.75,1245,2192,7748,0,0,-1
-48.95,8.63,15.76,1233,2210,7746,-1,0,-1
-48.95,8.63,15.75,1229,2170,7738,0,-1,-1
-48.95,8.62,15.76,1251,2171,7741,0,0,-1
-48.95,8.60,15.76,1214,2185,7743,-1,0,0
-48.96,8.59,15.75,1265,2163,7761,0,0,-1
-48.95,8.57,15.76,1232,2180,7760,0,0,-1
-48.94,8.56,15.75,1221,2189,7749,-1,0,-1
-48.94,8.56,15.75,1220,2195,7739,-1,0,0
-48.94,8.56,15.75,1215,2195,7741,-1,-1,0
-48.95,8.55,15.75,1225,2188,7745,-1,0,0
-48.95,8.56,15.74,1232,2177,7744,-1,0,-1
-48.95,8.55,15.73,1228,2166,7745,-1,-1,-1
-48.95,8.55,15.73,1235,2168,7743,0,0,-1
-48.95,8.55,15.74,1230,2171,7735,0,0,-1
-48.95,8.54,15.74,1225,2179,7741,-1,0,-1
-48.95,8.53,15.74,1225,2183,7751,0,0,-1
-48.94,8.53,15.74,1224,2197,7755,-1,0,-1
-48.94,8.52,15.74,1218,2194,7761,-1,0,-1
-48.94,8.52,15.73,1218,2182,7759,-1,0,0
-48.94,8.52,15.72,1219,2168,7761,-1,0,0
-48.94,8.52,15.72,1225,2168,7757,0,0,-1
-48.94,8.52,15.72,1234,2167,7756,0,0,-1
-48.94,8.51,15.73,1230,2169,7757,-1,0,-1
-48.94,8.50,15.72,1223,2176,7754,0,0,-1
-48.93,8.50,15.73,1230,2183,7759,-1,0,-1
-48.93,8.48,15.73,1214,2185,7752,0,0,-1
-48.93,8.47,15.73,1210,2178,7761,0,0,-1
-48.93,8.47,15.73,1212,2178,7766,0,0,-1
-48.92,8.46,15.74,1211,2183,7757,0,0,-1
-48.93,8.46,15.73,1210,2186,7747,0,0,-1
-48.92,8.46,15.74,1223,2192,7739,-1,0,-1
-48.93,8.45,15.74,1215,2188,7748,-1,0,-1
-48.92,8.45,15.73,1216,2175,7756,-1,0,-1
-48.92,8.44,15.72,1218,2161,7757,-1,0,-1
-48.92,8.43,15.72,1209,2170,7758,0,0,-1
-48.92,8.43,15.72,1211,2165,7747,-1,0,-1
-48.92,8.43,15.72,1214,2165,7754,-1,0,-1
-48.91,8.42,15.71,1211,2173,7750,-1,0,-1
-48.91,8.42,15.71,1210,2169,7753,-1,0,-1
-48.91,8.41,15.72,1207,2169,7759,0,0,-1
-48.90,8.40,15.72,1200,2175,7758,0,0,-1
-48.89,8.40,15.72,1199,2179,7763,0,0,-1
-48.89,8.41,15.73,1198,2178,7767,0,-1,-1
-48.89,8.41,15.73,1205,2190,7768,-1,-1,-1
-48.89,8.41,15.73,1212,2194,7757,-1,-1,-1
-48.89,8.41,15.72,1209,2172,7750,-1,0,-1
-48.89,8.42,15.72,1212,2164,7755,-1,-1,-1
-48.89,8.42,15.72,1209,2168,7744,0,-1,-1
-48.89,8.42,15.72,1206,2169,7762,0,-1,-1
-48.89,8.43,15.73,1208,2180,7756,0,-1,-1
-48.89,8.43,15.73,1209,2182,7748,0,-1,0
-48.89,8.43,15.72,1224,2175,7751,-1,-1,0
-48.89,8.44,15.72,1221,2164,7743,0,-1,-1
-48.89,8.44,15.73,1210,2165,7738,0,-1,-1
-48.90,8.44,15.73,1207,2177,7752,0,-1,0
-48.90,8.45,15.73,1210,2184,7747,0,-1,-1
-48.90,8.45,15.73,1208,2195,7746,-1,0,0
-48.90,8.45,15.73,1204,2196,7743,-1,-1,0
-48.90,8.45,15.73,1206,2186,7739,-1,-1,0
-48.90,8.47,15.72,1216,2175,7748,-1,-1,0
-48.91,8.47,15.72,1226,2166,7756,-1,-1,-1
-48.91,8.47,15.72,1224,2160,7751,0,0,-1
-48.91,8.48,15.72,1224,2157,7752,0,-1,-1
-48.90,8.47,15.72,1221,2164,7747,0,0,-1
-48.90,8.48,15.73,1221,2162,7746,0,0,-1
-48.91,8.48,15.73,1217,2175,7746,0,0,0
-48.91,8.48,15.73,1215,2178,7763,0,-1,0
-48.91,8.49,15.73,1219,2179,7752,0,-1,0
-48.91,8.49,15.74,1223,2181,7757,0,-1,-1
-48.91,8.50,15.73,1236,2186,7739,0,-1,0
-48.92,8.50,15.73,1223,2184,7735,-1,0,0
-48.92,8.50,15.73,1224,2175,7734,-1,0,0
-48.92,8.50,15.73,1224,2174,7742,-1,0,0
-48.92,8.50,15.73,1218,2173,7754,-1,0,0
-48.93,8.51,15.72,1215,2169,7755,-1,-1,-1
-48.93,8.51,15.72,1223,2168,7753,0,-1,0
-48.93,8.51,15.72,1228,2170,7748,-1,-1,-1
-48.93,8.51,15.72,1236,2167,7749,-1,0,-1
-48.92,8.52,15.73,1232,2186,7747,0,0,-1
-48.91,8.51,15.72,1209,2187,7747,-1,-1,-1
-48.91,8.52,15.72,1218,2156,7744,0,-1,0
-48.91,8.52,15.73,1222,2170,7756,0,-1,-1
-48.91,8.52,15.74,1223,2189,7757,0,-1,-1
-48.91,8.53,15.74,1237,2170,7740,0,0,-1
-48.92,8.53,15.74,1228,2171,7740,0,0,0
-48.92,8.52,15.74,1216,2186,7744,-1,0,0
-48.93,8.53,15.73,1221,2147,7750,0,-1,0
-48.92,8.53,15.74,1247,2168,7767,0,0,-1
-48.92,8.51,15.76,1199,2202,7782,0,0,-1
-48.93,8.53,15.75,1225,2169,7753,-1,-1,0
-48.93,8.52,15.76,1215,2181,7744,0,0,0
-48.93,8.52,15.76,1220,2182,7738,-1,-1,-1
-48.93,8.53,15.76,1248,2161,7756,0,0,0
-48.94,8.52,15.75,1221,2145,7744,0,0,0
-48.94,8.52,15.77,1235,2156,7739,0,-1,0
-48.95,8.52,15.79,1227,2196,7737,0,0,0
-48.95,8.51,15.79,1202,2202,7737,0,-1,-1
-48.95,8.52,15.80,1212,2197,7752,-1,0,0
-48.96,8.52,15.79,1215,2197,7754,-1,-1,0
-48.97,8.54,15.78,1237,2190,7747,-1,-1,0
-48.97,8.54,15.77,1247,2156,7744,-1,-1,-1
-48.97,8.54,15.77,1238,2145,7745,0,0,0
-48.97,8.53,15.77,1224,2148,7733,-1,0,0
-48.98,8.53,15.77,1231,2173,7745,0,0,-1
-48.97,8.53,15.78,1218,2191,7751,0,-1,-1
-48.96,8.54,15.79,1221,2191,7751,0,-1,-1
-48.97,8.54,15.79,1212,2202,7757,-1,0,0
-48.98,8.54,15.77,1220,2191,7735,-1,-1,0
-48.99,8.56,15.76,1238,2170,7734,-1,0,0
-48.99,8.56,15.75,1244,2178,7743,-1,0,-1
-48.99,8.56,15.75,1237,2172,7738,-1,-1,-1
-48.99,8.56,15.75,1233,2181,7740,-1,-1,0
-49.00,8.57,15.74,1226,2184,7753,-1,-1,0
-49.01,8.57,15.74,1225,2184,7765,-1,-1,0
-49.01,8.58,15.73,1232,2165,7772,-1,-1,0
-49.01,8.59,15.73,1234,2172,7768,-1,-1,-1
-49.01,8.59,15.73,1231,2160,7750,0,-1,0
-49.01,8.59,15.73,1236,2167,7727,0,0,0
-49.01,8.60,15.74,1240,2167,7733,0,0,-1
-49.01,8.60,15.73,1227,2172,7755,0,-1,-1
-49.01,8.60,15.74,1226,2184,7749,0,-1,-1
-49.01,8.60,15.74,1219,2185,7748,-1,-1,0
-49.02,8.61,15.73,1236,2183,7747,-1,-1,0
-49.03,8.62,15.73,1246,2177,7744,-1,0,0
-49.03,8.62,15.72,1244,2169,7745,-1,-1,0
-49.03,8.62,15.71,1243,2151,7746,-1,0,-1
-49.03,8.62,15.71,1237,2150,7750,0,0,-1
-49.03,8.62,15.72,1235,2162,7757,0,-1,0
-49.03,8.62,15.72,1237,2164,7769,0,-1,0
-49.03,8.63,15.71,1239,2165,7745,0,-1,0
-49.04,8.63,15.72,1244,2172,7742,0,0,0
-49.03,8.63,15.73,1250,2183,7732,0,0,-1
-49.03,8.63,15.73,1246,2187,7743,-1,0,0
-49.04,8.63,15.72,1239,2177,7742,-1,0,0
-49.04,8.63,15.72,1248,2171,7758,0,-1,0
-49.04,8.64,15.72,1252,2170,7757,0,-1,0
-49.05,8.65,15.72,1250,2175,7751,-1,-1,0
-49.05,8.65,15.72,1253,2173,7737,-1,0,0
-49.05,8.65,15.71,1245,2163,7730,-1,0,-1
-49.05,8.64,15.71,1249,2157,7741,0,0,-1
-49.05,8.64,15.71,1239,2159,7751,0,0,-1
-49.05,8.64,15.72,1234,2170,7754,0,-1,-1
-49.05,8.64,15.72,1234,2180,7754,0,-1,0
-49.04,8.64,15.73,1240,2183,7755,0,0,0
-49.05,8.64,15.73,1241,2182,7743,0,-1,0
-49.06,8.65,15.73,1247,2179,7733,0,-1,-1
-49.05,8.65,15.73,1245,2188,7732,0,0,-1
-49.05,8.65,15.74,1247,2197,7737,-1,0,-1
-49.04,8.64,15.73,1239,2188,7742,-1,0,-1
-49.04,8.64,15.73,1232,2167,7746,0,-1,0
-49.05,8.65,15.73,1232,2162,7763,0,-1,0
-49.05,8.66,15.74,1234,2173,7742,0,-1,-1
-49.05,8.67,15.74,1232,2153,7741,0,-1,0
-49.05,8.68,15.75,1258,2156,7744,0,0,0
-49.06,8.67,15.76,1237,2161,7762,0,-1,0
-49.07,8.68,15.76,1277,2138,7762,0,0,-1
-49.07,8.66,15.79,1264,2163,7753,1,0,-1
-49.05,8.64,15.82,1228,2213,7746,0,0,-1
-49.06,8.65,15.83,1246,2216,7731,-1,0,0
-49.06,8.64,15.83,1234,2224,7719,-1,-1,0
-49.07,8.65,15.83,1250,2216,7740,-1,-1,0
-49.08,8.65,15.81,1264,2190,7748,-1,0,0
-49.08,8.64,15.81,1237,2175,7751,0,-1,-1
-49.08,8.64,15.80,1250,2149,7764,0,0,0
-49.09,8.64,15.81,1252,2148,7748,0,0,-1
-49.08,8.63,15.83,1237,2185,7756,0,0,-1
-49.08,8.63,15.84,1245,2183,7753,0,0,-1
-49.09,8.61,15.83,1216,2190,7761,-1,0,0
-49.10,8.62,15.83,1235,2159,7737,0,-1,0
-49.09,8.61,15.84,1251,2197,7755,0,0,-1
-49.09,8.60,15.86,1215,2187,7748,-1,-1,0
-49.10,8.61,15.86,1257,2199,7722,0,0,-1
-49.10,8.59,15.87,1212,2214,7745,-1,0,0
-49.12,8.60,15.86,1260,2194,7730,-1,0,0
-49.12,8.60,15.87,1250,2207,7738,-1,0,-1
-49.12,8.60,15.87,1239,2205,7734,0,-1,-1
-49.12,8.60,15.87,1233,2197,7746,-1,0,-1
-49.12,8.60,15.86,1238,2183,7732,-1,-1,0
-49.12,8.60,15.86,1240,2188,7740,0,0,-1
-49.12,8.60,15.85,1220,2156,7731,-1,-1,0
-49.12,8.61,15.85,1253,2188,7760,0,0,-1
-49.12,8.60,15.86,1219,2183,7760,0,0,0
-49.12,8.60,15.86,1253,2193,7758,-1,0,-1
-49.12,8.60,15.86,1229,2180,7730,0,-1,-1
-49.12,8.60,15.87,1248,2215,7726,-1,0,-1
-49.10,8.60,15.87,1235,2210,7724,-1,-1,-1
-49.11,8.61,15.85,1235,2204,7730,-1,0,-1
-49.11,8.61,15.84,1219,2204,7735,-1,-1,0
-49.11,8.61,15.82,1243,2176,7748,-1,-1,-1
-49.11,8.62,15.81,1235,2167,7753,-1,-1,-1
-49.11,8.62,15.81,1237,2168,7749,-1,-1,-1
-49.11,8.63,15.81,1238,2161,7746,0,-1,-1
-49.11,8.63,15.81,1250,2168,7735,-1,0,-1
-49.11,8.62,15.81,1246,2173,7746,0,0,-1
-49.10,8.62,15.82,1242,2184,7757,0,0,-1
-49.10,8.62,15.83,1244,2180,7747,0,-1,-1
-49.09,8.63,15.84,1241,2204,7745,0,0,-1
-49.09,8.62,15.85,1229,2218,7735,-1,0,-1
-49.09,8.63,15.84,1254,2188,7720,0,0,-1
-49.09,8.61,15.84,1246,2205,7734,-1,0,-1
-49.08,8.60,15.84,1228,2196,7735,-1,-1,-1
-49.08,8.62,15.83,1252,2165,7749,0,0,-1
-49.08,8.61,15.84,1240,2186,7747,0,0,-1
-49.08,8.61,15.84,1245,2193,7741,-1,-1,0
-49.09,8.61,15.83,1266,2172,7748,0,0,-1
-49.09,8.59,15.83,1244,2172,7753,0,0,-1
-49.09,8.59,15.83,1241,2169,7737,0,-1,-1
-49.08,8.59,15.84,1241,2169,7743,0,0,-1
-49.08,8.58,15.85,1238,2205,7727,0,0,-1
-49.08,8.58,15.84,1233,2214,7726,-1,0,-1
-49.07,8.58,15.84,1236,2183,7750,-1,0,-1
-49.08,8.57,15.82,1227,2175,7760,-1,0,0
-49.08,8.57,15.82,1228,2179,7742,-1,0,-1
-49.07,8.58,15.83,1232,2181,7740,0,-1,-1
-49.07,8.58,15.82,1238,2181,7725,-1,0,-1
-49.07,8.58,15.82,1233,2188,7735,-1,-1,-1
-49.07,8.58,15.82,1222,2202,7739,-1,0,-1
-49.07,8.59,15.81,1231,2200,7748,-1,-1,-1
-49.07,8.60,15.80,1245,2198,7768,-1,-1,-1
-49.07,8.60,15.78,1245,2189,7755,-1,0,-1
-49.06,8.60,15.77,1237,2180,7759,-1,-1,-1
-49.07,8.61,15.76,1238,2148,7743,0,-1,0
-49.06,8.61,15.76,1240,2147,7744,0,-1,-1
-49.06,8.61,15.76,1246,2165,7741,0,0,-1
-49.06,8.60,15.76,1248,2172,7747,0,0,-1
-49.05,8.59,15.77,1238,2188,7744,-1,0,-1
-49.05,8.58,15.77,1227,2185,7759,-1,0,-1
-49.05,8.58,15.76,1224,2180,7760,-1,0,-1
-49.05,8.57,15.76,1224,2169,7751,0,0,-1
-49.05,8.56,15.76,1222,2174,7747,0,0,-1
-49.05,8.56,15.76,1229,2179,7737,-1,0,-1
-49.04,8.55,15.76,1231,2182,7740,-1,0,-1
-49.04,8.55,15.75,1230,2177,7748,-1,0,-1
-49.04,8.54,15.75,1227,2164,7757,-1,0,-1
-49.04,8.53,15.75,1225,2170,7756,0,0,-1
-49.03,8.52,15.75,1228,2175,7758,-1,0,-1
-49.03,8.52,15.75,1224,2177,7752,-1,0,-1
-49.03,8.52,15.75,1229,2186,7748,-1,0,-1
-49.03,8.52,15.74,1236,2175,7745,-1,0,-1
-49.04,8.51,15.74,1238,2172,7736,-1,0,-1
-49.04,8.50,15.73,1233,2160,7737,0,0,-1
-49.03,8.50,15.73,1225,2159,7748,0,0,-1
-49.02,8.49,15.73,1214,2166,7760,0,0,-1
-49.02,8.49,15.74,1222,2171,7749,0,0,-1
-49.03,8.49,15.74,1222,2184,7735,-1,0,-1
-49.02,8.48,15.74,1224,2194,7740,-1,0,-1
-49.02,8.48,15.73,1231,2184,7745,-1,0,-1
-49.03,8.47,15.72,1230,2166,7750,-1,0,-1
-49.02,8.46,15.72,1224,2157,7759,0,0,-1
-49.02,8.45,15.71,1224,2158,7755,-1,0,-1
-49.02,8.44,15.72,1205,2169,7749,0,0,-1
-49.01,8.44,15.73,1206,2160,7751,0,-1,-1
-49.01,8.45,15.74,1208,2169,7750,0,0,-1
-49.00,8.45,15.76,1210,2178,7750,0,-1,-1
-48.98,8.45,15.77,1218,2171,7736,0,-1,-1
-48.97,8.45,15.78,1235,2161,7744,0,0,-1
-48.97,8.43,15.80,1204,2167,7742,0,0,-1
-48.97,8.42,15.80,1226,2160,7761,0,0,-1
-48.96,8.39,15.82,1216,2187,7772,0,0,-1
-48.96,8.38,15.82,1219,2220,7743,0,0,-1
-48.94,8.36,15.83,1174,2210,7727,-1,0,-1
-48.95,8.35,15.83,1222,2176,7740,0,1,0
-48.96,8.32,15.83,1215,2195,7744,0,1,-1
-48.95,8.30,15.83,1173,2189,7736,0,0,-1
-48.94,8.29,15.84,1172,2185,7746,0,0,-1
-48.93,8.28,15.84,1179,2186,7763,0,0,0
-48.95,8.28,15.84,1176,2212,7744,0,-1,0
-48.94,8.28,15.85,1222,2200,7737,-1,0,-1
-48.95,8.27,15.84,1208,2169,7772,0,0,-1
-48.93,8.26,15.85,1202,2162,7751,0,0,-1
-48.93,8.24,15.86,1182,2161,7761,0,0,-1
-48.93,8.23,15.88,1180,2197,7760,0,0,-1
-48.94,8.21,15.88,1146,2206,7738,-1,0,0
-48.94,8.23,15.87,1179,2169,7725,0,-1,0
-48.95,8.23,15.88,1202,2229,7737,0,0,-1
-48.95,8.23,15.89,1147,2235,7728,-1,-1,0
-48.95,8.25,15.87,1188,2213,7717,-1,-1,0
-48.96,8.26,15.86,1177,2219,7741,-1,-1,0
-48.97,8.27,15.84,1183,2211,7757,-1,-1,0
-48.97,8.29,15.82,1190,2177,7765,-1,-1,0
-48.97,8.30,15.81,1199,2147,7772,-1,-1,-1
-48.98,8.31,15.80,1200,2154,7766,0,-1,-1
-48.97,8.32,15.81,1213,2171,7740,0,-1,0
-48.97,8.32,15.81,1196,2187,7755,0,-1,-1
-48.97,8.32,15.82,1197,2196,7744,0,0,-1
-48.97,8.32,15.83,1185,2187,7756,0,-1,0
-48.98,8.33,15.83,1182,2192,7764,0,-1,0
-48.98,8.34,15.84,1195,2187,7755,0,-1,0
-48.99,8.34,15.84,1191,2187,7749,0,-1,0
-48.99,8.34,15.85,1198,2184,7736,0,0,0
-49.00,8.35,15.85,1224,2182,7723,-1,0,0
-49.00,8.35,15.84,1201,2179,7749,-1,-1,0
-49.00,8.36,15.84,1208,2194,7753,-1,0,-1
-49.00,8.36,15.84,1191,2207,7773,-1,-1,0
-49.01,8.36,15.83,1191,2196,7751,-1,-1,0
-49.01,8.37,15.82,1194,2186,7765,-1,-1,0
-49.01,8.38,15.82,1213,2177,7769,-1,-1,0
-49.02,8.38,15.81,1213,2179,7766,-1,-1,-1
-49.02,8.39,15.81,1216,2179,7757,0,-1,-1
-49.02,8.40,15.81,1202,2196,7743,-1,-1,0
-49.02,8.40,15.81,1210,2202,7734,-1,-1,0
-49.02,8.40,15.80,1210,2198,7739,-1,-1,0
-49.02,8.41,15.79,1206,2187,7741,-1,-1,0
-49.03,8.42,15.79,1211,2179,7748,-1,-1,0
-49.04,8.42,15.78,1197,2182,7749,-1,-1,0
-49.04,8.43,15.78,1205,2181,7745,-1,-1,0
-49.04,8.44,15.77,1216,2175,7742,0,-1,0
-49.06,8.46,15.77,1222,2177,7735,-1,-1,0
-49.06,8.46,15.77,1229,2177,7736,-1,-1,0
-49.06,8.47,15.77,1225,2171,7738,-1,0,0
-49.06,8.47,15.76,1218,2170,7750,-1,-1,0
-49.06,8.48,15.76,1221,2163,7750,0,-1,-1
-49.06,8.48,15.77,1205,2182,7760,0,-1,-1
-49.06,8.48,15.78,1204,2191,7747,0,-1,0
-49.07,8.49,15.77,1207,2197,7742,-1,-1,0
-49.07,8.50,15.78,1214,2197,7743,-1,-1,0
-49.07,8.52,15.78,1229,2191,7745,0,-1,0
-49.07,8.52,15.78,1234,2186,7752,-1,0,0
-49.07,8.52,15.77,1232,2184,7743,-1,0,0
-49.07,8.52,15.77,1227,2184,7756,-1,0,0
-49.08,8.52,15.77,1219,2178,7765,-1,-1,0
-49.08,8.54,15.76,1224,2173,7758,-1,-1,0
-49.09,8.54,15.75,1224,2172,7748,-1,-1,0
-49.09,8.55,15.75,1229,2171,7746,-1,-1,0
-49.09,8.55,15.75,1230,2158,7745,0,0,-1
-49.09,8.55,15.75,1224,2163,7738,0,-1,-1
-49.09,8.56,15.75,1220,2177,7740,0,0,-1
-49.09,8.56,15.75,1218,2182,7737,0,-1,-1
-49.08,8.56,15.76,1220,2183,7742,0,-1,0
-49.09,8.56,15.76,1220,2186,7746,-1,-1,0
-49.09,8.57,15.76,1227,2188,7744,-1,-1,0
-49.09,8.57,15.75,1236,2187,7747,-1,-1,0
-49.09,8.58,15.75,1235,2182,7737,-1,-1,0
-49.09,8.59,15.75,1240,2174,7743,-1,0,0
-49.10,8.58,15.74,1228,2168,7747,-1,0,0
-49.10,8.58,15.74,1225,2167,7755,0,-1,-1
-49.10,8.58,15.74,1228,2177,7748,0,-1,-1
-49.10,8.59,15.74,1227,2175,7754,-1,-1,0
