Yaw,Pitch,Roll,AX,AY,AZ,GX,GY,GZ
177.22,-3.68,-43.17,-528,-5679,6044,0,-1,-1
177.23,-3.67,-43.16,-533,-5668,6044,0,-1,-1
177.23,-3.66,-43.16,-544,-5672,6048,-1,-1,-1
177.24,-3.65,-43.16,-544,-5676,6046,0,-1,-1
177.24,-3.64,-43.15,-528,-5678,6052,0,-1,-1
177.25,-3.62,-43.14,-520,-5680,6053,0,-1,-1
177.25,-3.61,-43.14,-516,-5671,6059,0,-1,-1
177.25,-3.60,-43.14,-512,-5662,6067,-1,-1,0
177.25,-3.60,-43.15,-510,-5668,6053,-1,-1,0
177.25,-3.60,-43.15,-519,-5668,6066,-1,0,-1
177.25,-3.60,-43.16,-517,-5681,6054,-1,0,-1
177.25,-3.60,-43.16,-526,-5680,6050,-1,0,-1
177.25,-3.60,-43.17,-526,-5682,6041,-1,-1,-1
177.25,-3.60,-43.18,-531,-5689,6041,-1,-1,-1
177.25,-3.60,-43.18,-527,-5688,6034,0,-1,-1
177.25,-3.59,-43.18,-528,-5679,6041,0,-1,-1
177.25,-3.59,-43.18,-523,-5665,6037,-1,-1,-1
177.25,-3.59,-43.18,-523,-5665,6043,0,0,-1
177.26,-3.59,-43.18,-515,-5664,6044,-1,-1,-1
177.26,-3.58,-43.18,-508,-5659,6054,-1,-1,-1
177.26,-3.58,-43.19,-505,-5665,6039,-1,0,-1
177.26,-3.58,-43.19,-518,-5680,6035,-1,0,-1
177.26,-3.58,-43.19,-518,-5677,6034,0,0,-1
177.26,-3.58,-43.19,-515,-5676,6038,0,-1,0
177.27,-3.58,-43.20,-513,-5684,6044,-1,-1,-1
177.27,-3.58,-43.20,-518,-5684,6037,-1,0,0
177.26,-3.58,-43.20,-520,-5682,6047,0,0,0
177.26,-3.58,-43.20,-529,-5684,6043,-1,-1,-1
177.26,-3.58,-43.21,-528,-5690,6039,-1,-1,-1
177.27,-3.58,-43.21,-525,-5681,6044,-1,-1,-1
177.27,-3.57,-43.21,-519,-5685,6042,0,0,-1
177.27,-3.57,-43.21,-510,-5681,6037,0,0,-1
177.27,-3.57,-43.21,-510,-5675,6050,-1,-1,-1
177.27,-3.57,-43.21,-501,-5674,6048,-1,-1,0
177.28,-3.56,-43.22,-496,-5677,6046,-1,0,0
177.28,-3.56,-43.22,-499,-5677,6043,-1,-1,0
177.28,-3.56,-43.22,-499,-5678,6039,-1,0,0
177.28,-3.56,-43.22,-514,-5678,6041,-1,0,0
177.28,-3.56,-43.23,-519,-5677,6033,-1,0,0
177.28,-3.56,-43.23,-519,-5674,6033,-1,0,-1
177.28,-3.56,-43.24,-514,-5675,6041,-1,0,-1
177.28,-3.56,-43.24,-513,-5680,6046,-1,0,-1
177.28,-3.56,-43.24,-528,-5689,6053,0,-1,-1
177.28,-3.56,-43.24,-525,-5687,6046,0,-1,-1
177.28,-3.56,-43.24,-513,-5680,6041,0,-1,-1
177.29,-3.55,-43.24,-508,-5675,6042,-1,0,-1
177.29,-3.55,-43.24,-511,-5674,6036,0,0,-1
177.29,-3.55,-43.24,-499,-5675,6039,-1,0,0
177.29,-3.55,-43.25,-510,-5677,6037,-1,0,0
177.28,-3.56,-43.25,-517,-5673,6032,-1,0,-1
177.28,-3.56,-43.25,-522,-5686,6023,-1,0,-1
177.28,-3.56,-43.26,-526,-5693,6029,0,-1,-1
177.28,-3.56,-43.26,-526,-5705,6022,0,-1,-1
177.29,-3.55,-43.26,-521,-5701,6023,0,-1,-1
177.29,-3.55,-43.26,-517,-5691,6031,0,-1,-1
177.29,-3.55,-43.25,-521,-5681,6035,0,-1,0
177.28,-3.55,-43.25,-514,-5681,6038,0,-1,0
177.28,-3.55,-43.25,-514,-5667,6037,-1,-1,-1
177.28,-3.54,-43.25,-506,-5661,6048,-1,0,0
177.28,-3.55,-43.27,-517,-5672,6041,-1,0,0
177.28,-3.55,-43.27,-520,-5690,6037,-1,-1,-1
177.29,-3.54,-43.28,-516,-5699,6039,0,-1,-1
177.28,-3.54,-43.27,-512,-5684,6038,0,-1,0
177.29,-3.54,-43.27,-507,-5685,6040,0,-1,0
177.29,-3.54,-43.27,-510,-5680,6037,-1,-1,0
177.29,-3.54,-43.27,-514,-5679,6037,0,0,-1
177.29,-3.54,-43.27,-515,-5691,6036,0,0,-1
177.29,-3.54,-43.27,-524,-5689,6037,-1,-1,-1
177.29,-3.54,-43.27,-513,-5688,6040,0,-1,-1
177.30,-3.53,-43.27,-511,-5682,6044,0,-1,-1
177.30,-3.53,-43.27,-509,-5682,6041,0,-1,-1
177.30,-3.52,-43.26,-510,-5673,6042,0,-1,-1
177.30,-3.52,-43.26,-501,-5682,6041,-1,-1,-1
177.30,-3.52,-43.27,-498,-5666,6043,-1,0,0
177.30,-3.52,-43.27,-502,-5672,6035,0,0,-1
177.30,-3.52,-43.27,-501,-5682,6046,-1,0,-1
177.30,-3.52,-43.27,-508,-5683,6041,-1,0,-1
177.30,-3.52,-43.28,-511,-5684,6032,-1,0,-1
177.30,-3.52,-43.28,-512,-5688,6017,0,-1,-1
177.31,-3.52,-43.28,-501,-5690,6018,0,0,0
177.31,-3.53,-43.28,-502,-5690,6022,0,0,0
177.31,-3.53,-43.27,-500,-5692,6027,0,0,0
177.30,-3.53,-43.27,-504,-5689,6039,0,0,0
177.30,-3.54,-43.27,-512,-5679,6048,-1,0,0
177.30,-3.55,-43.27,-515,-5681,6046,-1,0,0
177.30,-3.55,-43.27,-516,-5679,6037,-1,0,-1
177.30,-3.55,-43.28,-513,-5678,6026,-1,0,0
177.30,-3.55,-43.28,-519,-5686,6024,0,0,0
177.30,-3.55,-43.28,-511,-5696,6030,0,0,0
177.30,-3.55,-43.28,-515,-5690,6025,0,0,0
177.29,-3.56,-43.27,-512,-5696,6021,0,0,0
177.29,-3.56,-43.27,-517,-5687,6029,0,0,-1
177.29,-3.56,-43.26,-514,-5681,6034,0,0,0
177.29,-3.56,-43.26,-510,-5683,6038,0,0,0
177.29,-3.56,-43.25,-505,-5679,6040,0,0,-1
177.29,-3.56,-43.25,-507,-5681,6043,0,0,-1
177.29,-3.56,-43.25,-516,-5678,6043,0,0,0
177.29,-3.56,-43.25,-509,-5681,6036,0,0,0
177.29,-3.56,-43.25,-505,-5679,6033,-1,0,0
177.29,-3.56,-43.25,-513,-5690,6021,0,0,-1
177.29,-3.57,-43.24,-516,-5689,6028,0,0,0
177.29,-3.56,-43.24,-516,-5684,6041,0,-1,0
177.29,-3.57,-43.23,-518,-5679,6044,0,0,-1
177.29,-3.57,-43.24,-519,-5690,6029,0,0,-1
177.29,-3.57,-43.23,-519,-5690,6031,0,-1,-1
177.29,-3.56,-43.22,-514,-5687,6038,0,-1,0
177.29,-3.56,-43.22,-504,-5675,6038,0,-1,0
177.30,-3.55,-43.21,-497,-5671,6048,0,0,0
177.29,-3.56,-43.21,-507,-5660,6040,0,0,0
177.29,-3.57,-43.20,-510,-5673,6044,0,0,0
177.28,-3.58,-43.20,-528,-5677,6046,0,-1,-1
177.29,-3.57,-43.20,-525,-5682,6053,0,0,-1
177.29,-3.57,-43.20,-518,-5674,6054,0,0,-1
177.29,-3.57,-43.19,-514,-5666,6047,0,-1,0
177.29,-3.57,-43.19,-506,-5672,6047,0,-1,0
177.29,-3.57,-43.18,-502,-5677,6048,0,0,0
177.29,-3.57,-43.16,-497,-5671,6054,0,0,0
177.29,-3.58,-43.16,-502,-5658,6053,0,0,0
177.28,-3.59,-43.15,-517,-5656,6062,0,0,0
177.27,-3.60,-43.16,-521,-5670,6058,-1,0,0
177.28,-3.61,-43.16,-523,-5665,6053,0,0,0
177.27,-3.62,-43.16,-522,-5684,6044,0,0,0
177.27,-3.62,-43.15,-521,-5662,6047,0,0,0
177.27,-3.63,-43.15,-515,-5659,6040,0,0,0
177.26,-3.64,-43.14,-530,-5657,6048,0,0,0
177.26,-3.64,-43.14,-528,-5671,6067,-1,0,0
177.26,-3.65,-43.14,-531,-5677,6053,0,0,-1
177.26,-3.65,-43.14,-530,-5681,6049,0,0,0
177.26,-3.65,-43.14,-528,-5676,6041,-1,0,0
177.26,-3.65,-43.14,-520,-5668,6036,0,-1,0
177.26,-3.64,-43.14,-518,-5670,6038,-1,-1,0
177.26,-3.64,-43.14,-518,-5661,6041,0,-1,0
177.25,-3.64,-43.14,-518,-5671,6038,0,-1,0
177.25,-3.64,-43.14,-530,-5671,6049,0,-1,0
177.25,-3.63,-43.14,-527,-5672,6041,0,-1,0
177.25,-3.63,-43.13,-536,-5679,6044,0,-1,0
177.25,-3.62,-43.13,-534,-5673,6043,0,-1,-1
177.25,-3.62,-43.13,-524,-5670,6045,0,-1,0
177.25,-3.61,-43.12,-526,-5675,6050,0,-1,-1
177.25,-3.61,-43.12,-512,-5674,6057,0,-1,-1
177.26,-3.60,-43.11,-516,-5672,6054,0,0,0
177.25,-3.61,-43.11,-522,-5671,6063,0,0,0
177.25,-3.61,-43.10,-525,-5662,6071,0,0,-1
177.25,-3.61,-43.10,-523,-5667,6062,-1,0,0
177.25,-3.61,-43.10,-526,-5668,6050,0,0,0
177.25,-3.61,-43.10,-530,-5668,6057,0,-1,-1
177.25,-3.61,-43.10,-524,-5664,6061,0,-1,0
177.25,-3.61,-43.10,-529,-5661,6056,-1,-1,0
177.25,-3.61,-43.10,-536,-5661,6057,-1,-1,-1
177.25,-3.61,-43.10,-536,-5666,6052,0,-1,-1
177.25,-3.60,-43.10,-532,-5662,6056,0,-1,-1
177.26,-3.59,-43.09,-525,-5657,6044,0,-1,-1
177.25,-3.59,-43.09,-514,-5652,6054,0,-1,0
177.25,-3.59,-43.09,-508,-5652,6052,-1,-1,0
177.25,-3.59,-43.09,-515,-5662,6058,-1,0,0
177.25,-3.59,-43.10,-523,-5667,6063,-1,-1,-1
177.25,-3.59,-43.10,-531,-5670,6062,-1,-1,-1
177.25,-3.59,-43.10,-533,-5671,6052,-1,-1,-1
177.25,-3.58,-43.11,-528,-5669,6049,-1,-1,-1
177.26,-3.58,-43.10,-516,-5664,6058,0,-1,-1
177.26,-3.57,-43.10,-505,-5670,6052,-1,-1,0
177.26,-3.56,-43.11,-504,-5663,6056,-1,-1,0
177.26,-3.56,-43.11,-508,-5652,6059,-1,-1,0
177.26,-3.56,-43.12,-509,-5655,6044,-1,0,0
177.26,-3.56,-43.12,-517,-5667,6038,-1,-1,-1
177.26,-3.56,-43.13,-522,-5667,6041,-1,-1,-1
177.26,-3.56,-43.14,-526,-5664,6041,-1,-1,0
177.26,-3.56,-43.15,-527,-5675,6041,-1,-1,0
177.26,-3.56,-43.15,-522,-5678,6034,0,0,-1
177.26,-3.56,-43.15,-518,-5681,6044,-1,-1,-1
177.26,-3.56,-43.15,-528,-5685,6053,0,-1,-1
177.26,-3.56,-43.15,-527,-5677,6053,0,-1,-1
177.26,-3.56,-43.15,-523,-5666,6051,-1,-1,-1
177.26,-3.55,-43.15,-513,-5658,6052,-1,-1,-1
177.26,-3.55,-43.15,-503,-5660,6050,-1,-1,0
177.26,-3.55,-43.15,-502,-5661,6049,-1,-1,0
177.26,-3.55,-43.16,-500,-5658,6049,-1,0,0
177.26,-3.55,-43.16,-505,-5667,6042,-1,0,0
177.26,-3.55,-43.17,-518,-5667,6048,-1,-1,-1
177.26,-3.55,-43.18,-520,-5673,6047,-1,-1,-1
177.26,-3.55,-43.18,-525,-5672,6034,-1,-1,-1
177.26,-3.55,-43.18,-518,-5671,6034,-1,-1,-1
177.26,-3.55,-43.18,-522,-5676,6030,-1,-1,-1
177.26,-3.55,-43.18,-523,-5671,6039,0,-1,-1
177.26,-3.55,-43.18,-520,-5672,6051,-1,-1,0
177.26,-3.55,-43.18,-516,-5668,6051,-1,-1,-1
177.26,-3.54,-43.19,-507,-5673,6048,-1,-1,-1
177.26,-3.54,-43.19,-514,-5677,6056,-1,0,-1
177.27,-3.54,-43.20,-520,-5678,6047,-1,0,-1
177.27,-3.54,-43.20,-512,-5677,6053,-1,-1,-1
177.27,-3.54,-43.20,-507,-5679,6051,-1,-1,0
177.27,-3.54,-43.20,-500,-5674,6045,-1,0,-1
177.27,-3.54,-43.21,-502,-5671,6044,-1,0,-1
177.27,-3.54,-43.21,-513,-5676,6047,-1,0,-1
177.27,-3.54,-43.21,-511,-5679,6050,0,0,-1
177.28,-3.53,-43.21,-503,-5668,6052,0,0,-1
177.28,-3.53,-43.21,-498,-5664,6046,-1,-1,-1
177.28,-3.53,-43.22,-498,-5671,6042,-1,0,0
177.28,-3.53,-43.22,-508,-5669,6031,-1,0,0
177.27,-3.54,-43.22,-518,-5673,6041,-1,-1,-1
177.27,-3.54,-43.23,-526,-5679,6042,-1,-1,-1
177.28,-3.54,-43.23,-526,-5678,6045,-1,-1,-1
177.28,-3.53,-43.23,-518,-5678,6043,-1,-1,-1
177.28,-3.53,-43.23,-514,-5673,6048,-1,-1,-1
177.29,-3.53,-43.23,-513,-5669,6052,-1,-1,0
177.29,-3.53,-43.23,-510,-5665,6051,-1,-1,-1
177.29,-3.52,-43.24,-510,-5667,6044,-1,-1,-1
177.29,-3.53,-43.24,-507,-5666,6043,-1,0,-1
177.29,-3.53,-43.25,-514,-5678,6042,-1,-1,-1
177.29,-3.53,-43.25,-514,-5674,6040,-1,-1,-1
177.29,-3.53,-43.26,-512,-5679,6028,-1,-1,-1
177.29,-3.53,-43.26,-517,-5684,6033,-1,-1,0
177.29,-3.53,-43.26,-514,-5676,6031,-1,-1,0
177.29,-3.53,-43.26,-516,-5673,6034,-1,-1,-1
177.29,-3.53,-43.26,-522,-5676,6033,-1,-1,-1
177.29,-3.53,-43.26,-521,-5677,6042,-1,-1,-1
177.29,-3.52,-43.26,-511,-5677,6047,-1,-1,-1
177.29,-3.52,-43.26,-509,-5672,6043,-1,-1,-1
177.29,-3.51,-43.26,-510,-5673,6048,-1,-1,0
177.29,-3.51,-43.26,-510,-5670,6051,-1,-1,-1
177.29,-3.51,-43.27,-501,-5667,6040,-1,-1,0
177.29,-3.51,-43.27,-500,-5675,6041,-1,0,0
177.29,-3.51,-43.28,-506,-5679,6022,-1,0,0
177.29,-3.51,-43.28,-515,-5688,6031,-1,-1,0
177.29,-3.51,-43.28,-520,-5687,6032,-1,-1,-1
177.29,-3.51,-43.28,-526,-5684,6035,-1,-1,-1
177.28,-3.52,-43.28,-533,-5689,6038,0,-1,-1
177.29,-3.51,-43.28,-523,-5682,6038,0,-1,-1
177.29,-3.51,-43.28,-514,-5685,6045,-1,-1,-1
177.30,-3.50,-43.28,-507,-5682,6041,0,-1,-1
177.29,-3.50,-43.27,-501,-5675,6047,-1,-1,0
177.29,-3.50,-43.27,-500,-5668,6043,-1,0,0
177.29,-3.50,-43.28,-508,-5672,6039,-1,0,-1
177.29,-3.50,-43.29,-518,-5687,6042,-1,0,-1
177.29,-3.50,-43.29,-514,-5698,6035,-1,-1,-1
177.29,-3.50,-43.29,-506,-5695,6046,0,-1,0
177.29,-3.50,-43.29,-501,-5686,6043,-1,-1,0
177.29,-3.50,-43.30,-503,-5682,6038,-1,0,0
177.28,-3.50,-43.30,-504,-5682,6033,-1,0,0
177.28,-3.50,-43.30,-516,-5680,6031,-1,0,-1
177.28,-3.51,-43.31,-517,-5686,6028,-1,-1,-1
177.29,-3.51,-43.32,-520,-5687,6031,-1,0,-1
177.29,-3.51,-43.32,-521,-5690,6029,-1,-1,-1
177.29,-3.50,-43.33,-518,-5688,6025,-1,-1,-1
177.29,-3.50,-43.33,-507,-5688,6024,-1,-1,-1
177.29,-3.50,-43.33,-503,-5680,6032,-1,-1,-1
177.30,-3.49,-43.33,-505,-5673,6040,-1,0,-1
177.30,-3.49,-43.33,-508,-5678,6032,-1,-1,-1
177.29,-3.50,-43.34,-514,-5685,6037,-1,0,-1
177.29,-3.50,-43.34,-509,-5688,6035,-1,0,0
177.29,-3.50,-43.34,-508,-5687,6034,-1,0,-1
177.29,-3.50,-43.34,-509,-5692,6033,0,0,-1
177.30,-3.50,-43.34,-511,-5688,6034,0,0,-1
177.30,-3.50,-43.34,-515,-5694,6037,0,-1,-1
177.30,-3.50,-43.34,-514,-5699,6030,0,-1,-1
177.30,-3.50,-43.34,-516,-5689,6022,0,0,0
177.30,-3.50,-43.34,-509,-5690,6033,-1,-1,0
177.29,-3.50,-43.34,-510,-5684,6032,-1,0,0
177.29,-3.50,-43.34,-506,-5678,6041,-1,0,0
177.29,-3.51,-43.34,-509,-5680,6040,-1,0,0
177.29,-3.51,-43.34,-513,-5681,6032,-1,0,0
177.29,-3.51,-43.35,-519,-5687,6029,-1,0,0
177.29,-3.52,-43.35,-523,-5691,6037,-1,-1,-1
177.29,-3.51,-43.35,-517,-5695,6024,0,-1,0
177.28,-3.52,-43.35,-521,-5705,6024,0,-1,0
177.28,-3.52,-43.34,-514,-5701,6029,0,-1,0
177.28,-3.52,-43.34,-515,-5696,6044,0,-1,-1
177.28,-3.52,-43.33,-510,-5685,6045,0,-1,0
177.28,-3.52,-43.32,-512,-5681,6038,0,-1,0
177.28,-3.52,-43.31,-516,-5679,6033,0,0,0
177.28,-3.52,-43.31,-509,-5683,6035,-1,-1,0
177.28,-3.52,-43.32,-513,-5681,6034,-1,0,0
177.27,-3.52,-43.32,-515,-5687,6025,-1,0,-1
177.27,-3.52,-43.32,-522,-5697,6019,0,-1,-1
177.27,-3.52,-43.31,-524,-5704,6026,0,-1,0
177.27,-3.52,-43.30,-512,-5694,6027,0,-1,0
177.27,-3.52,-43.30,-503,-5677,6029,0,0,0
177.27,-3.53,-43.30,-508,-5677,6031,0,0,0
177.27,-3.53,-43.29,-504,-5671,6034,0,0,-1
177.27,-3.54,-43.28,-516,-5679,6050,0,0,-1
177.27,-3.54,-43.28,-511,-5676,6057,-1,0,-1
177.27,-3.55,-43.28,-531,-5674,6053,-1,0,-1
177.27,-3.55,-43.28,-525,-5678,6042,-1,0,-1
177.27,-3.55,-43.28,-522,-5687,6031,0,-1,-1
177.28,-3.55,-43.28,-524,-5696,6030,0,-1,-1
177.28,-3.55,-43.28,-517,-5703,6029,0,-1,0
177.28,-3.54,-43.27,-507,-5681,6037,0,-1,0
177.27,-3.54,-43.26,-513,-5665,6044,0,-1,0
177.28,-3.53,-43.25,-525,-5671,6049,0,-1,0
177.27,-3.54,-43.25,-528,-5678,6034,0,-1,-1
177.27,-3.54,-43.25,-530,-5679,6042,0,-1,-1
177.27,-3.53,-43.24,-521,-5676,6038,0,-1,-1
177.27,-3.53,-43.24,-515,-5680,6041,0,-1,0
177.27,-3.53,-43.24,-515,-5685,6039,0,-1,0
177.27,-3.53,-43.24,-517,-5683,6041,0,-1,0
177.27,-3.53,-43.23,-520,-5677,6052,0,-1,0
177.27,-3.53,-43.22,-516,-5670,6054,0,-1,0
177.27,-3.53,-43.22,-524,-5667,6052,-1,-1,-1
177.27,-3.53,-43.22,-512,-5666,6048,-1,-1,0
177.27,-3.53,-43.22,-518,-5670,6050,-1,-1,0
177.26,-3.53,-43.22,-512,-5671,6050,0,0,0
177.26,-3.54,-43.22,-514,-5670,6049,0,0,0
177.26,-3.54,-43.21,-516,-5673,6046,0,-1,0
177.26,-3.54,-43.21,-522,-5680,6048,0,-1,0
177.25,-3.54,-43.21,-530,-5680,6046,0,-1,0
177.25,-3.54,-43.20,-524,-5680,6048,0,-1,0
177.25,-3.54,-43.19,-523,-5676,6049,0,-1,0
177.25,-3.54,-43.18,-518,-5667,6050,0,-1,0
177.25,-3.54,-43.18,-514,-5665,6051,0,-1,0
177.25,-3.54,-43.17,-508,-5655,6052,0,0,0
177.25,-3.54,-43.16,-507,-5659,6059,0,0,0
177.24,-3.54,-43.16,-518,-5657,6062,-1,-1,0
177.24,-3.55,-43.17,-520,-5662,6057,-1,0,0
177.24,-3.55,-43.17,-518,-5677,6053,-1,0,-1
177.24,-3.55,-43.17,-515,-5681,6051,0,0,-1
177.24,-3.55,-43.17,-519,-5676,6046,0,-1,0
177.24,-3.55,-43.16,-514,-5671,6043,0,-1,0
177.23,-3.55,-43.15,-513,-5661,6048,0,0,0
177.23,-3.55,-43.15,-517,-5661,6052,0,0,0
177.23,-3.56,-43.15,-523,-5668,6056,0,0,0
177.23,-3.57,-43.14,-535,-5663,6061,0,0,-1
177.23,-3.57,-43.14,-535,-5661,6065,0,-1,-1
177.23,-3.57,-43.13,-528,-5660,6066,0,-1,0
177.23,-3.56,-43.13,-523,-5665,6050,0,-1,-1
177.23,-3.56,-43.13,-505,-5667,6037,0,0,-1
177.23,-3.56,-43.12,-495,-5674,6048,0,0,0
177.23,-3.56,-43.12,-497,-5654,6054,0,0,0
177.23,-3.57,-43.11,-515,-5637,6072,-1,0,0
177.22,-3.58,-43.12,-518,-5642,6067,-1,0,0
177.22,-3.58,-43.14,-531,-5664,6051,-1,0,-1
177.22,-3.58,-43.15,-528,-5667,6043,-1,0,-1
177.22,-3.58,-43.15,-528,-5658,6050,-1,-1,-1
177.22,-3.58,-43.15,-525,-5670,6042,0,-1,-1
177.21,-3.59,-43.15,-526,-5673,6047,0,-1,0
177.22,-3.58,-43.14,-527,-5681,6051,0,-1,0
177.22,-3.58,-43.13,-526,-5676,6071,0,-1,-1
177.22,-3.58,-43.12,-525,-5658,6078,0,-1,-1
177.22,-3.57,-43.12,-519,-5648,6067,-1,-1,-1
177.22,-3.57,-43.12,-518,-5643,6062,-1,-1,-1
177.22,-3.56,-43.12,-514,-5651,6054,-1,-1,0
177.22,-3.56,-43.13,-506,-5654,6043,-1,-1,-1
177.22,-3.56,-43.14,-517,-5669,6040,-1,0,0
177.22,-3.56,-43.14,-526,-5673,6040,-1,-1,0
177.22,-3.56,-43.14,-532,-5675,6045,0,-1,0
177.21,-3.56,-43.14,-528,-5671,6049,-1,-1,0
177.21,-3.56,-43.14,-526,-5675,6061,-1,-1,0
177.21,-3.56,-43.14,-513,-5662,6055,-1,0,-1
177.20,-3.57,-43.14,-524,-5661,6068,-1,-1,0
177.20,-3.57,-43.16,-517,-5659,6071,-1,0,0
177.19,-3.58,-43.18,-520,-5657,6060,-1,0,0
177.19,-3.58,-43.20,-510,-5663,6054,-1,0,0
177.19,-3.59,-43.21,-521,-5667,6044,-1,0,0
177.19,-3.60,-43.22,-526,-5671,6046,-1,0,0
177.19,-3.60,-43.24,-523,-5682,6039,-1,0,0
177.18,-3.61,-43.24,-534,-5690,6044,0,0,0
177.16,-3.62,-43.24,-539,-5672,6048,-1,0,0
177.16,-3.62,-43.24,-548,-5679,6038,-1,-1,0
177.16,-3.62,-43.24,-542,-5685,6042,0,0,-1
177.16,-3.63,-43.24,-532,-5674,6039,0,-1,-1
177.16,-3.62,-43.24,-526,-5665,6055,-1,-1,0
177.16,-3.62,-43.24,-518,-5654,6063,-1,0,0
177.16,-3.63,-43.25,-519,-5670,6060,-1,0,0
177.15,-3.63,-43.26,-518,-5672,6053,-1,0,0
177.14,-3.65,-43.27,-532,-5686,6049,-1,0,0
177.14,-3.66,-43.28,-543,-5691,6052,-1,0,0
177.14,-3.66,-43.30,-543,-5676,6037,-1,0,-1
177.14,-3.67,-43.31,-544,-5696,6029,-1,-1,0
177.13,-3.67,-43.32,-552,-5693,6023,-1,-1,0
177.13,-3.67,-43.33,-535,-5695,6018,-1,-1,-1
177.13,-3.67,-43.33,-533,-5704,6016,0,0,0
177.13,-3.67,-43.33,-529,-5693,6042,-1,0,0
177.13,-3.67,-43.33,-515,-5683,6029,0,0,0
177.13,-3.67,-43.33,-527,-5679,6035,-1,0,0
177.13,-3.68,-43.33,-533,-5686,6041,-1,0,-1
177.13,-3.68,-43.34,-544,-5690,6031,0,-1,-1
177.13,-3.68,-43.33,-547,-5678,6040,-1,0,-1
177.14,-3.68,-43.34,-537,-5693,6020,0,-1,-1
177.14,-3.68,-43.33,-535,-5690,6034,-1,-1,-1
177.14,-3.68,-43.33,-531,-5691,6038,0,0,-1
177.14,-3.68,-43.33,-534,-5680,6043,0,-1,-1
177.14,-3.67,-43.33,-536,-5683,6033,-1,-1,-1
177.14,-3.67,-43.33,-524,-5679,6034,0,0,-1
177.14,-3.67,-43.33,-534,-5679,6041,-1,-1,0
177.15,-3.67,-43.33,-535,-5669,6054,-1,0,-1
177.14,-3.68,-43.34,-538,-5690,6043,-1,0,0
177.14,-3.68,-43.34,-529,-5691,6041,-1,-1,0
177.15,-3.68,-43.35,-548,-5677,6044,-1,0,-1
177.15,-3.68,-43.36,-540,-5697,6016,-1,0,0
177.15,-3.68,-43.35,-547,-5684,6019,0,-1,-1
177.15,-3.67,-43.35,-546,-5687,6020,0,-1,-1
177.15,-3.66,-43.35,-543,-5697,6016,0,-1,-1
177.16,-3.65,-43.34,-557,-5693,6031,0,-1,-1
177.16,-3.62,-43.33,-535,-5692,6036,0,-1,-1
177.17,-3.60,-43.33,-533,-5684,6054,0,-1,-1
177.18,-3.58,-43.32,-516,-5683,6044,0,-1,-1
177.19,-3.56,-43.31,-514,-5677,6035,-1,-1,-1
177.19,-3.55,-43.31,-503,-5670,6033,0,-1,-1
177.20,-3.55,-43.31,-504,-5671,6038,-1,0,-1
177.20,-3.54,-43.31,-503,-5666,6030,-1,-1,0
177.20,-3.54,-43.31,-513,-5677,6038,-1,-1,-1
177.20,-3.54,-43.33,-519,-5688,6039,-1,-1,-1
177.21,-3.54,-43.33,-529,-5703,6025,-1,-1,-1
177.21,-3.53,-43.33,-530,-5690,6022,0,-1,-1
177.21,-3.53,-43.33,-514,-5683,6021,0,-1,-1
177.22,-3.51,-43.33,-506,-5680,6019,-1,-1,0
177.21,-3.52,-43.33,-507,-5687,6027,-1,-1,0
177.21,-3.51,-43.33,-511,-5690,6035,0,-1,0
177.21,-3.52,-43.33,-522,-5690,6041,0,-1,-1
177.21,-3.51,-43.33,-527,-5683,6053,0,-1,-1
177.21,-3.51,-43.33,-527,-5679,6050,-1,-1,-1
177.22,-3.50,-43.33,-522,-5682,6037,-1,-1,-1
177.22,-3.50,-43.34,-507,-5680,6033,-1,-1,-1
177.22,-3.50,-43.34,-502,-5680,6035,-1,-1,-1
177.22,-3.49,-43.34,-505,-5676,6039,-1,-1,-1
177.22,-3.49,-43.34,-508,-5682,6025,-1,-1,0
177.22,-3.49,-43.34,-512,-5682,6037,-1,-1,0
177.22,-3.49,-43.34,-512,-5685,6040,-1,-1,0
177.22,-3.49,-43.34,-515,-5690,6033,-1,-1,-1
177.22,-3.49,-43.35,-518,-5684,6023,-1,-1,-1
177.22,-3.49,-43.35,-516,-5687,6020,-1,-1,-1
177.22,-3.49,-43.35,-519,-5692,6015,-1,-1,-1
177.22,-3.49,-43.35,-512,-5690,6015,0,-1,-1
177.22,-3.49,-43.35,-517,-5693,6027,0,-1,-1
177.22,-3.48,-43.35,-509,-5683,6042,0,-1,-1
177.22,-3.48,-43.35,-508,-5680,6043,0,-1,-1
177.23,-3.47,-43.34,-505,-5679,6053,-1,-1,-1
177.24,-3.47,-43.34,-502,-5680,6054,-1,-1,-1
177.24,-3.47,-43.34,-495,-5676,6048,-1,-1,-1
177.24,-3.47,-43.35,-495,-5667,6036,-1,0,-1
177.24,-3.47,-43.35,-497,-5673,6029,-1,0,0
177.24,-3.47,-43.35,-500,-5676,6033,-1,0,0
177.24,-3.47,-43.35,-509,-5687,6042,-1,-1,-1
177.24,-3.47,-43.35,-514,-5697,6036,-1,-1,-1
177.24,-3.47,-43.35,-516,-5695,6036,0,-1,-1
177.24,-3.47,-43.35,-515,-5692,6024,0,0,-1
177.24,-3.47,-43.35,-507,-5695,6031,0,-1,0
177.23,-3.47,-43.35,-501,-5696,6030,0,-1,0
177.23,-3.47,-43.34,-495,-5685,6043,0,0,0
177.23,-3.48,-43.33,-500,-5675,6053,-1,0,0
177.23,-3.48,-43.33,-504,-5668,6040,-1,0,0
177.23,-3.49,-43.34,-516,-5678,6032,-1,0,-1
177.23,-3.49,-43.34,-515,-5686,6035,-1,0,-1
177.23,-3.49,-43.35,-517,-5685,6029,0,-1,-1
177.23,-3.49,-43.34,-508,-5684,6019,0,-1,0
177.23,-3.49,-43.33,-506,-5686,6023,0,-1,0
177.23,-3.49,-43.33,-502,-5685,6034,0,0,0
177.23,-3.49,-43.32,-509,-5688,6033,0,0,0
177.23,-3.50,-43.32,-520,-5681,6037,0,0,-1
177.23,-3.50,-43.32,-521,-5681,6038,0,0,-1
177.23,-3.50,-43.32,-520,-5685,6035,-1,-1,-1
177.23,-3.50,-43.32,-518,-5696,6026,0,-1,-1
177.23,-3.50,-43.31,-512,-5691,6024,0,-1,-1
177.23,-3.50,-43.31,-506,-5688,6031,0,-1,0
177.23,-3.50,-43.29,-506,-5680,6034,0,-1,0
177.23,-3.50,-43.29,-509,-5675,6035,0,0,0
177.23,-3.50,-43.29,-503,-5673,6045,-1,0,0
177.23,-3.50,-43.29,-503,-5677,6047,-1,0,0
177.23,-3.50,-43.29,-504,-5680,6033,0,0,0
177.23,-3.50,-43.28,-515,-5686,6042,0,-1,0
177.23,-3.50,-43.28,-511,-5688,6046,0,-1,-1
177.23,-3.50,-43.27,-518,-5684,6025,0,0,0
177.23,-3.50,-43.27,-525,-5687,6030,0,-1,0
177.22,-3.51,-43.26,-523,-5690,6038,0,-1,-1
177.22,-3.51,-43.25,-513,-5677,6056,0,-1,-1
177.23,-3.50,-43.24,-504,-5679,6053,0,-1,0
177.22,-3.50,-43.23,-497,-5669,6043,0,-1,0
177.22,-3.50,-43.23,-498,-5659,6050,-1,-1,0
177.22,-3.50,-43.23,-502,-5656,6051,0,0,0
177.22,-3.50,-43.23,-506,-5667,6051,-1,0,0
177.22,-3.51,-43.23,-509,-5678,6035,-1,0,0
177.22,-3.51,-43.23,-517,-5676,6029,-1,0,0
177.21,-3.52,-43.23,-516,-5683,6033,0,-1,0
177.21,-3.52,-43.23,-523,-5687,6043,0,-1,0
177.21,-3.52,-43.22,-519,-5684,6050,0,-1,-1
177.21,-3.52,-43.21,-510,-5685,6052,0,0,0
177.21,-3.52,-43.20,-519,-5671,6060,0,-1,0
177.21,-3.52,-43.19,-509,-5658,6055,0,-1,0
177.21,-3.52,-43.18,-505,-5656,6059,-1,0,0
177.21,-3.52,-43.18,-508,-5661,6056,-1,-1,0
177.21,-3.52,-43.18,-506,-5661,6059,0,0,0
177.21,-3.52,-43.18,-515,-5661,6049,0,0,0
177.20,-3.52,-43.18,-510,-5663,6037,0,0,0
177.20,-3.52,-43.17,-517,-5667,6046,0,-1,0
177.20,-3.53,-43.17,-519,-5666,6051,0,0,0
177.20,-3.53,-43.17,-527,-5679,6046,0,0,0
177.19,-3.54,-43.17,-529,-5669,6043,0,0,0
177.19,-3.54,-43.16,-533,-5673,6044,0,-1,-1
177.19,-3.54,-43.15,-527,-5676,6053,0,-1,-1
177.20,-3.53,-43.14,-519,-5675,6053,0,-1,-1
177.20,-3.53,-43.14,-506,-5662,6054,0,-1,0
177.20,-3.53,-43.14,-504,-5656,6050,-1,-1,0
177.20,-3.53,-43.13,-506,-5653,6055,0,0,0
177.19,-3.54,-43.13,-508,-5657,6056,-1,0,0
177.19,-3.54,-43.14,-515,-5662,6056,-1,0,0
177.18,-3.55,-43.14,-521,-5673,6053,-1,0,0
177.18,-3.55,-43.14,-527,-5672,6057,0,0,0
177.18,-3.55,-43.14,-526,-5676,6056,0,-1,0
177.18,-3.55,-43.13,-524,-5673,6050,0,-1,0
177.18,-3.55,-43.13,-518,-5675,6046,0,-1,0
177.18,-3.56,-43.12,-526,-5677,6059,0,-1,0
177.18,-3.56,-43.11,-529,-5668,6056,0,-1,0
177.17,-3.55,-43.11,-529,-5658,6058,0,-1,-1
177.17,-3.55,-43.11,-529,-5650,6063,-1,-1,0
177.17,-3.55,-43.11,-523,-5654,6078,0,-1,0
177.17,-3.55,-43.10,-515,-5650,6071,0,-1,-1
177.18,-3.54,-43.10,-509,-5648,6074,-1,-1,-1
177.17,-3.54,-43.10,-515,-5655,6072,-1,-1,0
177.17,-3.54,-43.10,-525,-5660,6068,-1,-1,0
177.17,-3.54,-43.10,-519,-5659,6061,-1,-1,0
177.17,-3.54,-43.11,-520,-5666,6059,-1,-1,-1
177.18,-3.53,-43.11,-519,-5671,6059,0,-1,-1
177.18,-3.52,-43.10,-515,-5671,6053,0,-1,-1
177.17,-3.52,-43.10,-520,-5660,6053,0,-1,0
177.17,-3.52,-43.10,-517,-5668,6055,0,-1,-1
177.17,-3.52,-43.10,-515,-5660,6069,-1,-1,-1
177.18,-3.51,-43.10,-516,-5658,6064,-1,-1,-1
177.18,-3.51,-43.11,-513,-5655,6061,-1,-1,0
177.18,-3.51,-43.12,-507,-5656,6059,-1,-1,-1
177.18,-3.51,-43.13,-511,-5670,6044,-1,0,-1
177.18,-3.51,-43.14,-512,-5676,6048,-1,-1,-1
177.18,-3.51,-43.14,-502,-5669,6043,0,-1,-1
177.18,-3.51,-43.13,-504,-5661,6042,-1,-1,0
177.18,-3.50,-43.14,-505,-5667,6052,-1,-1,0
177.18,-3.51,-43.14,-510,-5668,6062,-1,0,0
177.18,-3.51,-43.14,-521,-5675,6065,-1,0,0
177.18,-3.51,-43.14,-517,-5670,6060,-1,0,-1
177.18,-3.51,-43.14,-520,-5668,6064,-1,0,-1
177.18,-3.51,-43.14,-520,-5674,6063,-1,-1,-1
177.19,-3.51,-43.14,-517,-5668,6055,-1,-1,-1
177.19,-3.51,-43.14,-504,-5664,6048,-1,-1,-1
177.19,-3.50,-43.15,-493,-5671,6049,-1,-1,0
177.18,-3.50,-43.15,-496,-5663,6053,-1,-1,0
177.18,-3.51,-43.16,-499,-5671,6055,-1,0,0
177.18,-3.51,-43.16,-503,-5668,6057,-1,0,-1
177.19,-3.51,-43.17,-507,-5676,6043,-1,0,-1
177.19,-3.51,-43.17,-516,-5673,6044,-1,0,-1
177.18,-3.51,-43.18,-514,-5670,6033,-1,-1,-1
177.18,-3.51,-43.18,-505,-5674,6040,-1,-1,-1
177.18,-3.51,-43.18,-498,-5674,6036,-1,0,0
177.18,-3.51,-43.19,-505,-5671,6042,-1,0,-1
177.18,-3.51,-43.18,-511,-5664,6054,-1,0,0
177.18,-3.51,-43.19,-510,-5669,6059,-1,-1,-1
177.18,-3.51,-43.19,-515,-5667,6066,-1,-1,-1
177.19,-3.50,-43.20,-510,-5670,6061,-1,-1,-1
177.19,-3.50,-43.20,-504,-5666,6047,-1,0,-1
177.19,-3.50,-43.20,-506,-5665,6044,-1,0,-1
177.19,-3.50,-43.21,-502,-5662,6046,-1,0,0
177.19,-3.50,-43.22,-506,-5662,6036,-1,0,0
177.19,-3.51,-43.22,-509,-5671,6031,-1,0,-1
177.19,-3.51,-43.22,-508,-5675,6041,-1,0,0
177.19,-3.51,-43.22,-511,-5678,6046,-1,-1,-1
177.19,-3.51,-43.22,-518,-5675,6046,0,0,-1
177.19,-3.51,-43.22,-518,-5679,6050,-1,-1,-1
177.19,-3.51,-43.22,-509,-5677,6056,-1,0,-1
177.19,-3.51,-43.22,-511,-5673,6051,-1,0,-1
177.19,-3.51,-43.22,-513,-5670,6057,-1,0,-1
177.20,-3.50,-43.23,-508,-5674,6049,-1,-1,-1
177.20,-3.50,-43.23,-511,-5672,6047,-1,0,0
177.20,-3.51,-43.24,-510,-5676,6045,-1,0,-1
177.20,-3.51,-43.24,-501,-5676,6042,0,0,-1
177.20,-3.51,-43.24,-505,-5676,6063,-1,-1,0
177.20,-3.51,-43.25,-498,-5676,6056,-1,0,-1
177.20,-3.51,-43.25,-510,-5677,6048,-1,0,-1
177.20,-3.51,-43.26,-512,-5680,6042,0,-1,-1
177.21,-3.50,-43.25,-507,-5682,6044,0,-1,-1
177.21,-3.50,-43.24,-494,-5666,6046,0,-1,-1
177.21,-3.50,-43.24,-485,-5663,6043,-1,0,0
177.21,-3.50,-43.24,-498,-5670,6047,-1,0,0
177.21,-3.50,-43.25,-511,-5669,6052,-1,0,0
177.20,-3.51,-43.25,-518,-5679,6046,-1,0,-1
177.20,-3.51,-43.26,-518,-5677,6054,-1,-1,-1
177.21,-3.50,-43.26,-514,-5684,6051,-1,-1,-1
177.21,-3.50,-43.26,-511,-5684,6045,-1,-1,-1
177.22,-3.49,-43.26,-500,-5683,6045,-1,-1,-1
177.22,-3.49,-43.26,-499,-5679,6042,-1,-1,0
177.21,-3.49,-43.26,-502,-5670,6038,-1,0,0
177.21,-3.50,-43.26,-506,-5665,6052,-1,0,0
177.21,-3.50,-43.27,-509,-5675,6040,-1,0,-1
177.21,-3.50,-43.28,-514,-5679,6038,-1,-1,-1
177.21,-3.50,-43.28,-510,-5683,6032,-1,-1,-1
177.21,-3.50,-43.28,-513,-5683,6033,-1,-1,-1
177.21,-3.50,-43.28,-508,-5681,6039,-1,-1,0
177.21,-3.50,-43.29,-512,-5682,6045,-1,-1,-1
177.21,-3.50,-43.28,-513,-5682,6054,0,-1,-1
177.21,-3.50,-43.28,-516,-5679,6057,0,-1,-1
177.21,-3.49,-43.28,-515,-5680,6046,-1,-1,-1
177.21,-3.49,-43.28,-504,-5684,6055,-1,-1,-1
177.21,-3.48,-43.28,-506,-5682,6051,-1,-1,0
177.21,-3.48,-43.28,-502,-5678,6045,-1,-1,0
177.21,-3.48,-43.28,-500,-5673,6034,-1,-1,0
177.21,-3.48,-43.29,-498,-5677,6037,-1,0,0
177.21,-3.49,-43.29,-505,-5679,6037,-1,0,0
177.21,-3.49,-43.29,-502,-5681,6035,0,0,0
177.21,-3.49,-43.30,-511,-5695,6042,-1,-1,-1
177.21,-3.49,-43.30,-506,-5695,6044,-1,-1,-1
177.21,-3.49,-43.30,-512,-5688,6040,-1,-1,-1
177.21,-3.49,-43.30,-505,-5688,6035,0,-1,-1
177.22,-3.48,-43.30,-502,-5685,6041,0,-1,-1
177.22,-3.48,-43.30,-507,-5680,6045,-1,0,-1
177.22,-3.48,-43.30,-495,-5675,6045,-1,0,-1
177.22,-3.48,-43.30,-492,-5673,6041,-1,0,-1
177.22,-3.48,-43.30,-498,-5671,6034,-1,0,-1
177.22,-3.48,-43.31,-506,-5680,6032,-1,0,-1
177.22,-3.49,-43.32,-508,-5683,6038,-1,0,0
177.22,-3.49,-43.32,-507,-5684,6042,-1,0,-1
177.21,-3.49,-43.32,-507,-5683,6037,-1,0,-1
177.22,-3.49,-43.33,-513,-5694,6035,-1,0,-1
177.22,-3.49,-43.33,-509,-5691,6044,0,0,0
177.22,-3.49,-43.32,-501,-5679,6045,0,0,0
177.21,-3.49,-43.32,-498,-5677,6035,-1,0,0
177.21,-3.50,-43.33,-496,-5678,6041,-1,0,0
177.21,-3.51,-43.33,-502,-5678,6045,-1,0,0
177.21,-3.51,-43.33,-512,-5677,6039,-1,0,-1
177.21,-3.52,-43.33,-519,-5686,6038,-1,0,0
177.20,-3.52,-43.33,-523,-5691,6039,0,-1,-1
177.20,-3.52,-43.33,-521,-5686,6034,0,-1,-1
177.21,-3.51,-43.32,-512,-5680,6036,0,-1,-1
177.21,-3.51,-43.32,-510,-5680,6035,0,-1,-1
177.21,-3.51,-43.31,-496,-5672,6041,0,0,0
177.21,-3.51,-43.30,-497,-5669,6046,0,0,0
177.21,-3.51,-43.30,-504,-5670,6040,-1,0,0
177.20,-3.52,-43.30,-510,-5680,6042,-1,0,-1
177.20,-3.52,-43.30,-510,-5682,6037,-1,0,-1
177.21,-3.52,-43.30,-513,-5690,6041,0,0,-1
177.21,-3.52,-43.30,-516,-5697,6036,0,0,0
177.20,-3.53,-43.30,-520,-5696,6031,0,0,0
177.20,-3.53,-43.29,-521,-5692,6040,0,-1,-1
177.20,-3.53,-43.29,-519,-5688,6041,0,-1,-1
177.21,-3.52,-43.27,-502,-5674,6041,0,-1,-1
177.21,-3.52,-43.27,-508,-5665,6036,0,0,-1
177.21,-3.52,-43.27,-502,-5664,6031,-1,0,0
177.21,-3.52,-43.26,-502,-5662,6042,-1,0,0
177.21,-3.52,-43.27,-500,-5677,6045,-1,0,0
177.21,-3.52,-43.27,-504,-5679,6038,-1,0,0
177.21,-3.53,-43.28,-504,-5690,6035,0,0,0
177.21,-3.53,-43.27,-509,-5686,6036,0,-1,0
177.21,-3.53,-43.27,-506,-5678,6029,0,-1,0
177.20,-3.53,-43.27,-509,-5679,6031,0,-1,-1
177.20,-3.53,-43.26,-507,-5683,6035,0,-1,0
177.20,-3.53,-43.26,-505,-5677,6050,0,-1,0
177.21,-3.52,-43.25,-500,-5670,6049,0,0,0
177.21,-3.52,-43.25,-504,-5667,6048,-1,0,-1
177.20,-3.53,-43.25,-506,-5673,6046,-1,0,0
177.20,-3.53,-43.25,-517,-5674,6047,-1,0,0
177.20,-3.53,-43.25,-512,-5679,6042,0,0,0
177.20,-3.53,-43.25,-513,-5671,6047,0,-1,0
177.20,-3.53,-43.24,-512,-5667,6052,0,0,0
177.20,-3.53,-43.24,-514,-5666,6057,0,0,-1
177.20,-3.53,-43.23,-512,-5675,6059,0,-1,-1
177.20,-3.53,-43.23,-513,-5679,6058,0,-1,-1
177.20,-3.53,-43.23,-510,-5675,6045,0,-1,-1
177.20,-3.53,-43.22,-498,-5663,6048,0,0,0
177.20,-3.53,-43.21,-498,-5666,6053,0,0,0
177.21,-3.54,-43.21,-497,-5669,6063,0,0,0
177.20,-3.54,-43.20,-504,-5663,6067,-1,0,0
177.20,-3.54,-43.20,-513,-5667,6061,0,0,0
177.20,-3.55,-43.20,-518,-5671,6061,0,0,0
177.20,-3.55,-43.20,-522,-5675,6066,0,0,0
177.20,-3.55,-43.20,-518,-5674,6059,0,0,0
177.20,-3.56,-43.19,-509,-5671,6054,0,-1,0
177.20,-3.56,-43.19,-504,-5661,6051,0,0,0
177.20,-3.56,-43.19,-504,-5656,6051,0,0,0
177.19,-3.57,-43.18,-502,-5655,6058,-1,0,0
177.19,-3.57,-43.19,-515,-5664,6041,0,0,0
177.19,-3.57,-43.19,-512,-5671,6045,0,0,0
177.19,-3.58,-43.18,-518,-5672,6048,0,0,-1
177.19,-3.58,-43.18,-521,-5671,6049,0,0,-1
177.19,-3.58,-43.18,-519,-5667,6047,0,0,0
177.19,-3.59,-43.18,-515,-5666,6047,-1,0,0
177.19,-3.60,-43.18,-522,-5673,6052,0,0,0
177.19,-3.60,-43.18,-515,-5672,6041,0,0,-1
177.18,-3.60,-43.17,-520,-5674,6053,0,0,0
177.19,-3.61,-43.17,-528,-5669,6051,-1,0,-1
177.19,-3.61,-43.17,-521,-5669,6047,0,0,0
177.18,-3.62,-43.16,-526,-5660,6059,0,0,0
177.18,-3.62,-43.16,-510,-5661,6055,0,0,0
177.19,-3.63,-43.16,-513,-5660,6060,-1,0,-1
177.18,-3.63,-43.16,-512,-5659,6044,0,0,0
177.18,-3.64,-43.15,-524,-5656,6036,0,0,0
177.18,-3.65,-43.16,-523,-5673,6043,-1,0,0
177.18,-3.66,-43.15,-527,-5668,6063,0,0,0
177.18,-3.66,-43.15,-528,-5671,6062,-1,0,0
177.18,-3.66,-43.15,-534,-5665,6056,-1,-1,0
177.18,-3.66,-43.16,-528,-5672,6050,0,0,0
177.18,-3.66,-43.15,-531,-5676,6054,-1,-1,0
177.18,-3.66,-43.16,-523,-5681,6050,0,0,0
177.18,-3.67,-43.16,-527,-5658,6063,0,0,0
177.18,-3.67,-43.16,-526,-5656,6063,-1,-1,0
177.17,-3.67,-43.15,-529,-5654,6051,-1,0,0
177.17,-3.67,-43.16,-532,-5662,6051,-1,0,-1
177.17,-3.68,-43.17,-524,-5666,6053,-1,0,0
177.17,-3.68,-43.18,-521,-5669,6043,-1,0,0
177.16,-3.69,-43.18,-531,-5670,6048,-1,0,0
177.16,-3.70,-43.19,-520,-5663,6051,0,0,0
177.15,-3.72,-43.19,-532,-5669,6071,-1,0,0
177.14,-3.75,-43.21,-549,-5670,6048,0,0,0
177.14,-3.76,-43.22,-534,-5673,6068,-1,0,0
177.13,-3.78,-43.23,-561,-5666,6065,-1,0,0
177.12,-3.79,-43.25,-553,-5666,6050,-1,0,-1
177.13,-3.80,-43.26,-544,-5666,6056,-1,0,0
177.12,-3.82,-43.28,-545,-5662,6067,-1,0,0
177.10,-3.84,-43.30,-546,-5684,6028,-1,0,0
177.09,-3.86,-43.32,-567,-5675,6045,-1,0,0
177.09,-3.88,-43.33,-536,-5681,6045,-1,0,0
177.10,-3.90,-43.33,-542,-5665,6045,-1,1,-1
177.10,-3.91,-43.35,-551,-5666,6024,-1,0,-1
177.10,-3.92,-43.36,-559,-5664,6033,-1,0,0
177.10,-3.92,-43.37,-563,-5671,5989,0,0,-1
177.11,-3.92,-43.38,-581,-5674,6018,-1,-1,-1
177.11,-3.91,-43.39,-583,-5699,6007,-1,-1,-1
177.12,-3.89,-43.38,-574,-5722,6022,0,-1,-1
177.13,-3.88,-43.37,-582,-5708,6034,0,-1,-1
177.14,-3.86,-43.36,-578,-5709,6028,0,-1,-1
177.15,-3.83,-43.33,-561,-5688,6033,0,-1,-1
177.16,-3.80,-43.31,-562,-5667,6045,0,-2,-1
177.17,-3.77,-43.30,-547,-5664,6049,0,-2,-1
177.18,-3.74,-43.29,-539,-5681,6042,0,-1,-1
177.19,-3.72,-43.28,-539,-5681,6043,0,-1,-1
177.19,-3.70,-43.28,-532,-5683,6042,0,-1,-1
177.20,-3.68,-43.28,-526,-5682,6047,0,-1,-1
177.21,-3.67,-43.27,-528,-5669,6056,0,-1,-1
177.21,-3.66,-43.26,-526,-5662,6055,-1,-1,-1
177.21,-3.65,-43.26,-528,-5665,6050,-1,-1,-1
177.22,-3.64,-43.26,-527,-5675,6043,-1,-1,-1
177.22,-3.63,-43.26,-523,-5672,6047,-1,-1,-1
177.22,-3.63,-43.27,-528,-5680,6042,0,-1,0
177.22,-3.63,-43.27,-521,-5681,6049,-1,-1,-1
177.22,-3.62,-43.27,-521,-5679,6049,-1,-1,-1
177.23,-3.61,-43.27,-515,-5670,6050,-1,-1,-1
177.22,-3.62,-43.27,-521,-5673,6049,-1,-1,-1
177.22,-3.61,-43.28,-515,-5668,6037,-1,-1,0
177.22,-3.61,-43.28,-517,-5670,6044,-1,-1,0
177.22,-3.61,-43.28,-524,-5674,6046,-1,0,0
177.22,-3.61,-43.29,-525,-5684,6046,-1,-1,-1
177.23,-3.60,-43.29,-529,-5691,6038,0,-1,-1
177.23,-3.60,-43.28,-523,-5683,6035,0,-1,-1
177.23,-3.60,-43.28,-515,-5678,6042,0,-1,0
177.22,-3.59,-43.28,-523,-5678,6048,-1,-1,0
177.22,-3.60,-43.28,-523,-5679,6055,-1,0,-1
177.22,-3.60,-43.28,-532,-5671,6055,-1,-1,0
177.23,-3.60,-43.29,-532,-5673,6040,-1,0,-1
177.23,-3.60,-43.29,-526,-5673,6033,-1,-1,-1
177.23,-3.60,-43.30,-523,-5676,6027,-1,-1,-1
177.24,-3.59,-43.29,-523,-5680,6030,0,-1,-1
177.24,-3.59,-43.29,-510,-5681,6040,-1,-1,-1
177.24,-3.59,-43.29,-516,-5674,6029,0,-1,-1
177.24,-3.59,-43.29,-518,-5663,6033,-1,-1,0
177.24,-3.58,-43.29,-505,-5662,6035,-1,-1,0
177.24,-3.58,-43.30,-513,-5677,6031,-1,0,-1
177.24,-3.58,-43.30,-515,-5678,6038,-1,0,0
177.24,-3.59,-43.30,-519,-5670,6042,-1,0,0
177.24,-3.59,-43.30,-517,-5676,6037,-1,0,0
177.24,-3.59,-43.31,-523,-5686,6035,-1,0,-1
177.24,-3.59,-43.31,-525,-5690,6039,-1,-1,-1
177.24,-3.59,-43.31,-526,-5686,6047,-1,-1,-1
177.24,-3.59,-43.31,-525,-5684,6049,-1,-1,-1
177.25,-3.58,-43.31,-518,-5677,6047,-1,-1,-1
177.25,-3.58,-43.31,-513,-5677,6050,-1,-1,-1
177.25,-3.57,-43.31,-514,-5675,6050,-1,-1,-1
177.25,-3.57,-43.31,-511,-5670,6040,-1,0,0
177.25,-3.57,-43.31,-515,-5674,6043,-1,0,0
177.25,-3.57,-43.31,-516,-5673,6049,-1,0,0
177.25,-3.57,-43.32,-513,-5677,6037,-1,-1,-1
177.25,-3.57,-43.32,-517,-5680,6035,-1,0,-1
177.25,-3.58,-43.33,-523,-5687,6029,-1,0,0
177.25,-3.58,-43.33,-529,-5686,6029,-1,-1,0
177.25,-3.57,-43.33,-528,-5686,6027,0,-1,-1
177.25,-3.57,-43.33,-528,-5677,6037,0,-1,0
177.25,-3.57,-43.32,-523,-5679,6038,-1,-1,0
177.24,-3.57,-43.32,-515,-5679,6051,-1,-1,-1
177.24,-3.57,-43.33,-515,-5674,6044,-1,-1,0
177.25,-3.56,-43.33,-508,-5678,6045,-1,0,-1
177.25,-3.56,-43.33,-502,-5676,6041,-1,-1,-1
177.25,-3.56,-43.33,-503,-5677,6025,-1,-1,0
177.25,-3.56,-43.33,-512,-5682,6036,-1,-1,0
177.25,-3.56,-43.33,-515,-5684,6034,-1,-1,0
177.25,-3.56,-43.33,-522,-5678,6032,-1,-1,-1
177.25,-3.55,-43.33,-517,-5684,6025,-1,-1,-1
177.25,-3.54,-43.34,-514,-5701,6028,0,-1,-1
177.26,-3.54,-43.33,-518,-5692,6036,0,-1,-1
177.26,-3.53,-43.33,-502,-5678,6035,0,-1,0
177.26,-3.52,-43.33,-496,-5673,6051,-1,-1,0
177.25,-3.53,-43.33,-501,-5683,6050,-1,0,0
177.25,-3.53,-43.33,-510,-5680,6049,-1,0,-1
177.26,-3.53,-43.33,-518,-5675,6053,-1,-1,-1
177.26,-3.52,-43.33,-520,-5681,6041,-1,-1,-1
177.26,-3.52,-43.33,-514,-5686,6032,-1,-1,-1
177.27,-3.52,-43.33,-505,-5695,6036,0,-1,-1
177.27,-3.50,-43.33,-498,-5688,6039,0,-1,-1
177.27,-3.50,-43.33,-495,-5674,6047,0,-1,-1
177.27,-3.50,-43.32,-492,-5666,6047,-1,-1,0
177.27,-3.50,-43.33,-494,-5668,6037,-1,0,0
177.27,-3.50,-43.33,-498,-5668,6034,-1,0,0
177.27,-3.50,-43.33,-505,-5674,6036,-1,0,-1
177.27,-3.50,-43.33,-512,-5674,6038,-1,0,0
177.27,-3.50,-43.34,-508,-5687,6027,-1,0,0
177.27,-3.50,-43.35,-509,-5694,6031,-1,0,0
177.27,-3.51,-43.35,-514,-5687,6034,-1,0,0
177.27,-3.51,-43.35,-506,-5681,6031,-1,0,0
177.27,-3.51,-43.35,-506,-5690,6038,0,0,-1
177.27,-3.51,-43.35,-502,-5687,6041,-1,-1,0
177.27,-3.52,-43.34,-501,-5677,6040,-1,0,0
177.26,-3.52,-43.35,-504,-5682,6033,-1,0,0
177.26,-3.52,-43.35,-500,-5681,6032,-1,0,0
177.26,-3.53,-43.35,-511,-5681,6035,-1,0,0
177.26,-3.54,-43.36,-511,-5686,6026,-1,0,-1
177.26,-3.54,-43.36,-518,-5690,6032,-1,0,-1
177.26,-3.54,-43.36,-518,-5693,6027,0,-1,0
177.26,-3.54,-43.36,-514,-5703,6025,0,-1,0
177.26,-3.54,-43.35,-508,-5693,6027,0,-1,0
177.26,-3.54,-43.34,-512,-5685,6032,0,0,-1
177.26,-3.54,-43.33,-513,-5679,6039,0,0,-1
177.26,-3.54,-43.33,-510,-5669,6042,0,0,0
177.26,-3.54,-43.33,-509,-5670,6038,0,0,-1
177.26,-3.54,-43.33,-512,-5678,6043,-1,0,0
177.26,-3.54,-43.32,-510,-5679,6040,-1,0,0
177.26,-3.54,-43.32,-513,-5676,6045,-1,0,0
177.25,-3.55,-43.32,-519,-5676,6040,-1,0,0
177.26,-3.55,-43.32,-520,-5688,6036,0,0,-1
177.26,-3.55,-43.31,-508,-5687,6035,0,-1,-1
177.26,-3.54,-43.30,-500,-5670,6041,0,-1,0
177.26,-3.54,-43.30,-504,-5663,6039,0,-1,0
177.26,-3.54,-43.29,-507,-5672,6039,0,0,0
177.25,-3.55,-43.29,-505,-5678,6041,0,0,-1
177.25,-3.55,-43.29,-521,-5678,6046,0,0,-1
177.25,-3.56,-43.29,-525,-5680,6042,-1,0,-1
177.26,-3.55,-43.29,-518,-5684,6032,0,-1,-1
177.26,-3.55,-43.28,-503,-5683,6035,0,-1,0
177.26,-3.55,-43.28,-495,-5680,6035,0,-1,0
177.26,-3.54,-43.28,-485,-5672,6029,0,0,0
177.26,-3.54,-43.27,-502,-5670,6040,0,-1,0
177.26,-3.54,-43.27,-500,-5667,6046,0,0,0
177.25,-3.55,-43.26,-514,-5670,6043,-1,0,0
177.25,-3.55,-43.27,-515,-5673,6038,-1,0,0
177.26,-3.55,-43.27,-517,-5681,6034,0,0,-1
177.26,-3.55,-43.26,-513,-5681,6038,0,0,-1
177.26,-3.55,-43.26,-505,-5680,6040,0,0,0
177.26,-3.56,-43.26,-509,-5678,6032,0,0,0
177.25,-3.57,-43.25,-528,-5682,6044,0,0,0
177.26,-3.57,-43.24,-527,-5682,6052,0,0,-1
177.26,-3.57,-43.24,-527,-5683,6060,0,0,-1
177.26,-3.57,-43.24,-517,-5683,6053,0,0,-1
177.26,-3.57,-43.24,-508,-5666,6054,0,0,0
177.26,-3.57,-43.24,-509,-5674,6052,0,0,0
177.25,-3.58,-43.24,-513,-5670,6050,-1,0,0
177.25,-3.58,-43.24,-510,-5669,6051,-1,0,0
177.25,-3.58,-43.24,-520,-5677,6047,0,0,0
177.25,-3.58,-43.24,-522,-5677,6043,-1,0,0
177.25,-3.59,-43.24,-521,-5690,6046,0,0,0
177.25,-3.59,-43.24,-524,-5682,6052,0,0,0
177.25,-3.59,-43.23,-514,-5676,6052,0,-1,0
177.25,-3.58,-43.22,-502,-5668,6050,0,-1,0
177.25,-3.58,-43.22,-506,-5660,6050,0,0,-1
177.25,-3.59,-43.22,-505,-5665,6054,0,0,0
177.25,-3.59,-43.21,-509,-5672,6062,0,-1,0
177.24,-3.59,-43.20,-514,-5672,6057,-1,-1,0
177.24,-3.59,-43.20,-517,-5665,6051,-1,-1,0
177.24,-3.59,-43.20,-523,-5665,6048,-1,-1,0
177.24,-3.59,-43.20,-523,-5676,6045,0,-1,-1
177.25,-3.59,-43.20,-519,-5673,6041,0,-1,-1
177.24,-3.58,-43.18,-511,-5663,6053,0,-1,0
177.24,-3.58,-43.18,-500,-5657,6041,0,0,0
177.24,-3.58,-43.18,-510,-5660,6047,0,0,0
177.24,-3.59,-43.17,-515,-5658,6060,0,0,0
177.24,-3.59,-43.17,-517,-5660,6056,0,0,0
177.24,-3.59,-43.16,-516,-5653,6060,-1,-1,-1
177.24,-3.59,-43.16,-523,-5651,6060,-1,-1,-1
177.24,-3.59,-43.16,-523,-5662,6053,0,-1,0
177.23,-3.59,-43.16,-515,-5667,6056,0,-1,0
177.23,-3.59,-43.15,-511,-5668,6064,0,-1,0
177.24,-3.58,-43.15,-505,-5665,6065,0,-1,0
177.24,-3.58,-43.14,-507,-5655,6061,0,-1,0
177.24,-3.58,-43.14,-515,-5654,6064,-1,-1,0
177.23,-3.59,-43.14,-513,-5655,6053,-1,-1,0
177.23,-3.59,-43.14,-516,-5652,6053,-1,0,0
177.23,-3.59,-43.14,-512,-5657,6053,-1,-1,0
177.23,-3.58,-43.13,-514,-5665,6062,0,-1,-1
177.23,-3.58,-43.13,-512,-5665,6062,0,-1,-1
177.23,-3.58,-43.13,-524,-5672,6060,0,-1,0
177.23,-3.58,-43.12,-529,-5666,6056,0,-1,0
177.24,-3.57,-43.12,-525,-5661,6056,0,-1,-1
177.23,-3.57,-43.12,-519,-5655,6062,-1,-1,-1
177.23,-3.56,-43.12,-513,-5651,6058,-1,-1,-1
177.24,-3.56,-43.12,-507,-5647,6068,-1,-1,-1
177.24,-3.56,-43.12,-510,-5647,6075,-1,-1,0
177.24,-3.56,-43.12,-506,-5651,6067,-1,0,0
177.24,-3.56,-43.13,-517,-5650,6069,-1,-1,-1
177.24,-3.56,-43.14,-517,-5660,6056,-1,-1,-1
177.24,-3.55,-43.14,-518,-5669,6060,-1,-1,-1
177.24,-3.55,-43.14,-513,-5666,6055,-1,-1,-1
177.24,-3.54,-43.14,-513,-5671,6058,0,-1,-1
177.24,-3.54,-43.14,-510,-5663,6059,0,-1,-1
177.24,-3.54,-43.14,-503,-5660,6066,-1,-1,-1
177.24,-3.54,-43.14,-503,-5657,6068,-1,-1,0
177.24,-3.54,-43.14,-508,-5654,6074,-1,0,0
177.24,-3.54,-43.15,-509,-5659,6071,-1,0,-1
177.24,-3.54,-43.15,-510,-5661,6056,-1,0,-1
177.24,-3.54,-43.15,-504,-5660,6051,-1,-1,0
177.24,-3.54,-43.15,-512,-5665,6056,-1,-1,0
177.24,-3.54,-43.16,-513,-5668,6054,-1,0,-1
177.24,-3.54,-43.17,-513,-5677,6051,-1,0,-1
177.25,-3.53,-43.17,-514,-5670,6049,-1,0,0
177.25,-3.53,-43.16,-504,-5660,6056,0,-1,-1
177.25,-3.53,-43.16,-496,-5656,6054,-1,0,0
177.25,-3.53,-43.17,-502,-5671,6053,-1,-1,0
177.25,-3.53,-43.17,-503,-5678,6055,-1,0,-1
177.25,-3.53,-43.17,-516,-5672,6050,-1,0,0
177.25,-3.54,-43.18,-519,-5667,6049,-1,-1,-1
177.25,-3.54,-43.18,-520,-5664,6053,-1,-1,-1
177.26,-3.53,-43.18,-516,-5671,6041,-1,-1,-1
177.26,-3.53,-43.18,-505,-5661,6041,0,-1,-1
177.26,-3.53,-43.18,-494,-5661,6047,-1,-1,-1
177.26,-3.53,-43.18,-495,-5655,6051,-1,0,0
177.26,-3.53,-43.18,-497,-5654,6051,-1,0,0
177.26,-3.53,-43.18,-506,-5660,6053,-1,0,-1
177.27,-3.52,-43.19,-510,-5665,6054,-1,0,-1
177.26,-3.53,-43.19,-513,-5670,6055,-1,0,-1
177.26,-3.53,-43.20,-513,-5668,6050,-1,0,-1
177.27,-3.53,-43.20,-517,-5665,6050,-1,0,-1
177.27,-3.53,-43.20,-519,-5667,6051,-1,0,0
177.27,-3.53,-43.20,-514,-5670,6047,-1,0,0
177.27,-3.53,-43.20,-513,-5671,6054,-1,0,0
177.27,-3.53,-43.20,-511,-5681,6056,-1,-1,-1
177.27,-3.53,-43.20,-505,-5681,6061,0,-1,-1
177.27,-3.53,-43.20,-501,-5672,6060,-1,-1,0
177.27,-3.52,-43.21,-499,-5665,6055,-1,-1,0
177.27,-3.52,-43.21,-500,-5669,6053,-1,-1,0
177.27,-3.52,-43.21,-492,-5668,6063,-1,0,0
177.28,-3.52,-43.22,-503,-5668,6053,-1,0,0
177.28,-3.52,-43.22,-512,-5676,6055,-1,0,-1
177.27,-3.53,-43.22,-509,-5675,6046,-1,-1,0
177.27,-3.53,-43.23,-503,-5676,6041,-1,0,0
177.27,-3.53,-43.23,-513,-5683,6046,-1,0,0
177.28,-3.52,-43.23,-506,-5678,6040,0,-1,-1
177.28,-3.52,-43.23,-510,-5679,6053,-1,-1,0
177.28,-3.52,-43.22,-506,-5672,6055,-1,-1,-1
177.28,-3.52,-43.22,-513,-5669,6056,-1,-1,-1
177.28,-3.52,-43.22,-509,-5663,6054,-1,-1,-1
177.28,-3.51,-43.23,-504,-5669,6045,-1,-1,-1
177.28,-3.51,-43.23,-506,-5678,6041,-1,0,-1
177.29,-3.51,-43.23,-506,-5674,6041,-1,0,-1
177.29,-3.51,-43.23,-510,-5668,6047,-1,0,0
177.28,-3.52,-43.23,-514,-5671,6043,-1,0,0
177.28,-3.52,-43.23,-511,-5681,6041,0,0,0
177.28,-3.52,-43.23,-508,-5676,6044,-1,-1,0
177.28,-3.51,-43.24,-503,-5674,6043,-1,-1,-1
177.29,-3.51,-43.24,-504,-5688,6042,-1,0,-1
177.29,-3.51,-43.25,-500,-5695,6039,0,0,-1
177.29,-3.50,-43.24,-491,-5681,6045,0,-1,-1
177.29,-3.50,-43.24,-497,-5678,6049,-1,-1,-1
177.29,-3.50,-43.24,-498,-5674,6052,-1,-1,-1
177.29,-3.50,-43.24,-501,-5679,6046,-1,0,0
177.30,-3.50,-43.25,-509,-5677,6039,-1,0,-1
177.30,-3.50,-43.26,-513,-5683,6039,-1,0,-1
177.30,-3.50,-43.26,-514,-5690,6052,-1,0,-1
177.30,-3.50,-43.27,-515,-5686,6054,-1,-1,-1
177.30,-3.50,-43.27,-503,-5687,6056,-1,0,0
177.30,-3.50,-43.28,-495,-5681,6052,-1,0,0
177.29,-3.51,-43.28,-502,-5677,6052,-1,0,0
177.29,-3.51,-43.28,-494,-5682,6056,-1,0,0
177.29,-3.52,-43.28,-492,-5672,6054,-1,0,0
177.29,-3.53,-43.29,-498,-5667,6045,-1,0,0
177.28,-3.54,-43.30,-502,-5674,6042,-1,0,0
177.28,-3.56,-43.32,-514,-5672,6014,-1,0,0
177.27,-3.57,-43.34,-514,-5686,6020,-1,0,0
177.28,-3.57,-43.34,-514,-5690,6032,-1,0,-1
177.27,-3.58,-43.35,-512,-5713,6030,-1,0,-1
177.28,-3.58,-43.36,-522,-5702,6029,-1,0,-1
177.27,-3.59,-43.36,-534,-5702,6026,0,0,-1
177.27,-3.59,-43.36,-527,-5693,6031,-1,-1,-1
177.28,-3.58,-43.36,-525,-5688,6034,0,-1,-1
177.28,-3.58,-43.35,-518,-5682,6033,0,-1,-1
177.28,-3.57,-43.35,-507,-5678,6045,-1,-1,-1
177.28,-3.56,-43.35,-506,-5683,6047,-1,-1,0
177.28,-3.56,-43.35,-512,-5688,6045,-1,-1,-1
177.28,-3.55,-43.36,-512,-5692,6039,-1,-1,-1
177.29,-3.54,-43.36,-517,-5691,6043,-1,-1,-1
177.29,-3.54,-43.36,-512,-5694,6038,-1,-1,-1
177.29,-3.54,-43.36,-511,-5695,6028,0,-1,-1
177.29,-3.54,-43.36,-506,-5701,6026,0,0,-1
177.30,-3.54,-43.35,-507,-5695,6030,0,-1,0
177.30,-3.53,-43.35,-508,-5686,6024,0,0,-1
177.30,-3.53,-43.34,-512,-5683,6039,0,-1,0
177.30,-3.53,-43.34,-508,-5679,6039,0,-1,-1
177.30,-3.53,-43.34,-500,-5689,6034,-1,-1,-1
177.30,-3.53,-43.34,-507,-5693,6032,-1,-1,-1
177.30,-3.53,-43.34,-508,-5695,6026,0,0,0
177.30,-3.53,-43.34,-510,-5687,6026,0,0,0
177.30,-3.53,-43.34,-505,-5688,6035,0,0,0
177.30,-3.53,-43.33,-507,-5692,6040,0,0,0
177.29,-3.54,-43.33,-506,-5687,6045,0,0,0
177.29,-3.54,-43.33,-505,-5683,6035,-1,0,0
177.29,-3.54,-43.33,-505,-5679,6025,-1,0,-1
177.29,-3.54,-43.33,-503,-5695,6035,-1,-1,-1
177.29,-3.54,-43.32,-504,-5690,6026,0,0,-1
177.29,-3.54,-43.31,-514,-5675,6024,0,-1,0
177.29,-3.54,-43.31,-510,-5674,6025,0,-1,0
177.30,-3.54,-43.31,-505,-5677,6027,0,-1,0
177.29,-3.54,-43.31,-503,-5682,6027,0,0,0
177.29,-3.54,-43.31,-508,-5689,6028,0,-1,0
177.29,-3.55,-43.30,-512,-5681,6034,0,0,0
177.29,-3.55,-43.30,-515,-5676,6033,0,-1,-1
177.29,-3.54,-43.30,-508,-5678,6035,0,0,-1
177.29,-3.54,-43.29,-503,-5681,6042,0,-1,0
177.30,-3.54,-43.29,-505,-5685,6038,-1,-1,0
177.30,-3.54,-43.29,-508,-5691,6039,0,-1,0
177.30,-3.53,-43.28,-507,-5679,6041,0,-1,0
177.29,-3.53,-43.28,-502,-5666,6040,0,0,0
177.29,-3.54,-43.28,-510,-5662,6044,-1,0,0
177.29,-3.54,-43.28,-515,-5672,6038,0,0,0
177.29,-3.55,-43.28,-517,-5676,6039,0,-1,0
177.29,-3.55,-43.28,-515,-5683,6036,0,0,-1
177.29,-3.55,-43.27,-514,-5689,6036,0,0,-1
177.28,-3.55,-43.27,-517,-5690,6039,0,0,-1
177.28,-3.55,-43.27,-516,-5687,6036,0,0,0
177.29,-3.55,-43.26,-511,-5689,6041,0,-1,-1
177.29,-3.55,-43.25,-505,-5687,6037,0,0,-1
177.29,-3.54,-43.25,-507,-5685,6053,0,-1,-1
177.29,-3.55,-43.24,-501,-5678,6050,0,-1,-1
177.29,-3.54,-43.23,-507,-5671,6054,0,-1,0
177.29,-3.55,-43.23,-504,-5664,6054,-1,0,0
177.29,-3.55,-43.23,-504,-5662,6051,-1,0,0
177.29,-3.55,-43.22,-509,-5669,6047,0,0,0
177.29,-3.55,-43.22,-507,-5664,6045,0,0,-1
177.29,-3.55,-43.22,-513,-5665,6041,0,0,0
177.28,-3.56,-43.22,-518,-5662,6048,0,-1,0
177.28,-3.56,-43.21,-519,-5672,6052,0,0,-1
177.28,-3.56,-43.20,-527,-5675,6051,0,-1,0
177.28,-3.56,-43.20,-518,-5676,6056,0,0,0
177.28,-3.56,-43.19,-514,-5665,6058,0,-1,0
177.28,-3.55,-43.19,-508,-5660,6055,0,0,0
177.28,-3.56,-43.19,-512,-5668,6043,-1,-1,0
177.27,-3.56,-43.19,-511,-5669,6037,0,0,0
177.27,-3.56,-43.19,-507,-5667,6048,0,0,0
177.27,-3.56,-43.18,-516,-5667,6048,0,-1,0
177.27,-3.56,-43.18,-513,-5665,6049,0,0,0
177.26,-3.57,-43.17,-519,-5659,6054,-1,0,0
177.27,-3.56,-43.17,-521,-5667,6053,-1,0,-1
177.27,-3.56,-43.17,-516,-5672,6049,0,-1,-1
177.27,-3.56,-43.17,-505,-5669,6052,0,-1,0
177.27,-3.56,-43.16,-504,-5663,6038,0,-1,0
177.27,-3.56,-43.16,-499,-5657,6045,0,0,0
177.27,-3.57,-43.15,-506,-5665,6055,0,0,0
177.26,-3.57,-43.15,-523,-5674,6053,0,0,0
177.26,-3.57,-43.15,-527,-5674,6049,0,0,-1
177.26,-3.57,-43.15,-528,-5671,6050,0,-1,0
177.26,-3.58,-43.14,-526,-5672,6054,0,-1,-1
177.27,-3.57,-43.14,-517,-5674,6048,0,-1,-1
177.27,-3.57,-43.13,-512,-5663,6057,0,-1,0
177.27,-3.57,-43.13,-501,-5653,6057,0,0,0
177.27,-3.57,-43.12,-502,-5649,6064,0,0,0
177.26,-3.57,-43.12,-508,-5649,6069,0,0,0
177.26,-3.57,-43.12,-505,-5658,6065,-1,0,0
177.26,-3.57,-43.12,-512,-5656,6072,-1,0,0
177.26,-3.57,-43.12,-520,-5661,6066,-1,-1,0
177.26,-3.57,-43.13,-519,-5667,6050,-1,-1,0
177.26,-3.57,-43.13,-524,-5668,6048,-1,-1,-1
177.26,-3.57,-43.13,-519,-5673,6047,0,0,0
177.26,-3.57,-43.13,-520,-5669,6057,0,-1,-1
177.26,-3.57,-43.13,-521,-5675,6056,0,-1,-1
177.26,-3.57,-43.12,-527,-5667,6066,0,-1,-1
177.27,-3.57,-43.12,-523,-5658,6063,-1,-1,-1
177.27,-3.57,-43.12,-521,-5660,6067,-1,-1,0
177.27,-3.56,-43.12,-512,-5651,6057,-1,-1,0
177.27,-3.56,-43.13,-504,-5651,6047,-1,0,0
177.27,-3.56,-43.13,-508,-5657,6054,-1,-1,0
177.27,-3.56,-43.13,-514,-5667,6066,-1,0,0
177.27,-3.57,-43.13,-516,-5669,6060,-1,0,-1
177.27,-3.56,-43.13,-513,-5673,6052,-1,-1,-1
177.27,-3.55,-43.13,-505,-5671,6054,-1,-1,-1
177.27,-3.55,-43.13,-502,-5666,6047,0,-1,-1
177.28,-3.54,-43.13,-501,-5662,6051,-1,-1,0
177.28,-3.54,-43.13,-499,-5656,6050,-1,-1,-1
177.28,-3.54,-43.13,-500,-5665,6051,-1,-1,0
177.28,-3.54,-43.13,-499,-5661,6066,-1,0,-1
177.28,-3.54,-43.14,-499,-5671,6068,-1,0,-1
177.28,-3.54,-43.14,-505,-5660,6059,-1,0,0
177.28,-3.54,-43.15,-508,-5662,6056,-1,-1,0
177.28,-3.54,-43.15,-513,-5664,6051,-1,0,-1
177.28,-3.54,-43.16,-509,-5676,6045,-1,0,-1
177.29,-3.54,-43.16,-505,-5676,6046,0,-1,-1
177.28,-3.53,-43.16,-505,-5673,6042,0,-1,-1
177.28,-3.53,-43.16,-499,-5665,6044,-1,-1,0
177.28,-3.53,-43.16,-502,-5663,6043,-1,0,0
177.28,-3.53,-43.17,-507,-5663,6049,-1,0,0
177.28,-3.54,-43.17,-517,-5666,6055,-1,0,-1
177.28,-3.54,-43.18,-520,-5664,6056,-1,0,-1
177.29,-3.54,-43.18,-518,-5665,6053,-1,0,-1
177.29,-3.54,-43.19,-515,-5674,6044,-1,-1,-1
177.29,-3.54,-43.19,-510,-5669,6051,-1,-1,-1
177.29,-3.54,-43.19,-499,-5666,6055,-1,-1,0
177.29,-3.53,-43.19,-497,-5670,6063,-1,-1,-1
177.29,-3.53,-43.18,-498,-5658,6063,-1,-1,0
177.29,-3.53,-43.19,-496,-5655,6056,-1,-1,0
177.29,-3.53,-43.19,-501,-5654,6053,-1,0,0
177.29,-3.54,-43.19,-511,-5658,6053,-1,0,-1
177.29,-3.54,-43.19,-513,-5671,6055,-1,0,0
177.28,-3.54,-43.20,-517,-5673,6061,-1,-1,0
177.28,-3.53,-43.21,-518,-5683,6053,-1,-1,-1
177.28,-3.53,-43.22,-523,-5691,6044,-1,-1,0
177.28,-3.53,-43.21,-519,-5682,6041,0,-1,0
177.28,-3.52,-43.20,-519,-5679,6043,0,-1,0
177.28,-3.52,-43.20,-514,-5671,6045,0,-1,-1
177.29,-3.51,-43.19,-507,-5664,6058,0,-1,-1
177.29,-3.51,-43.19,-496,-5662,6059,-1,-1,-1
177.29,-3.51,-43.19,-489,-5652,6057,-1,0,0
177.29,-3.51,-43.20,-486,-5654,6045,-1,0,0
177.29,-3.51,-43.21,-494,-5662,6050,-1,0,-1
177.29,-3.51,-43.21,-507,-5676,6044,-1,0,-1
177.29,-3.52,-43.22,-517,-5671,6041,-1,0,-1
177.29,-3.52,-43.22,-512,-5678,6050,-1,0,-1
177.29,-3.52,-43.22,-515,-5681,6042,0,-1,-1
177.29,-3.52,-43.22,-511,-5683,6043,0,-1,-1
177.29,-3.52,-43.21,-513,-5679,6044,0,0,-1
177.30,-3.52,-43.21,-505,-5674,6049,-1,0,-1
177.30,-3.52,-43.21,-498,-5674,6049,-1,0,-1
177.30,-3.52,-43.21,-493,-5681,6045,-1,0,-1
177.30,-3.51,-43.22,-491,-5677,6043,-1,0,0
177.30,-3.51,-43.22,-497,-5679,6040,-1,0,0
177.30,-3.51,-43.23,-503,-5685,6038,-1,0,-1
177.30,-3.51,-43.24,-503,-5690,6036,-1,0,-1
177.31,-3.51,-43.24,-506,-5686,6047,0,-1,-1
177.31,-3.51,-43.24,-499,-5681,6048,0,-1,-1
177.31,-3.51,-43.23,-495,-5676,6035,0,0,0
177.31,-3.51,-43.23,-501,-5672,6047,-1,-1,0
177.31,-3.51,-43.23,-496,-5676,6049,-1,0,-1
177.31,-3.51,-43.24,-511,-5669,6048,-1,0,-1
177.31,-3.52,-43.24,-515,-5676,6045,-1,-1,-1
177.31,-3.52,-43.25,-519,-5682,6047,-1,-1,-1
177.31,-3.51,-43.25,-509,-5684,6046,0,-1,-1
177.32,-3.51,-43.25,-503,-5680,6037,-1,-1,-1
177.32,-3.50,-43.25,-498,-5669,6042,-1,-1,-1
177.32,-3.50,-43.24,-494,-5658,6053,-1,-1,0
177.32,-3.50,-43.24,-500,-5660,6058,-1,0,-1
177.32,-3.50,-43.25,-504,-5664,6057,-1,0,0
177.32,-3.50,-43.25,-499,-5663,6047,-1,0,-1
177.32,-3.51,-43.25,-506,-5674,6042,-1,0,-1
177.32,-3.51,-43.26,-508,-5685,6038,-1,0,0
177.32,-3.51,-43.26,-505,-5690,6037,0,0,-1
177.32,-3.51,-43.26,-508,-5682,6033,-1,0,0
177.32,-3.51,-43.25,-516,-5676,6044,-1,0,-1
177.32,-3.51,-43.25,-510,-5677,6050,-1,-1,-1
177.32,-3.51,-43.25,-507,-5680,6049,-1,-1,0
177.33,-3.50,-43.26,-507,-5683,6041,-1,0,-1
177.33,-3.50,-43.26,-507,-5678,6044,-1,0,-1
177.33,-3.50,-43.26,-499,-5672,6043,-1,-1,-1
177.33,-3.50,-43.26,-498,-5675,6040,-1,-1,0
177.33,-3.50,-43.27,-490,-5685,6031,-1,0,-1
177.33,-3.50,-43.27,-490,-5682,6033,-1,0,-1
177.34,-3.49,-43.28,-499,-5690,6024,-1,0,-1
177.34,-3.49,-43.28,-501,-5688,6023,-1,-1,-1
177.34,-3.49,-43.28,-501,-5685,6039,-1,-1,-1
177.34,-3.49,-43.28,-497,-5683,6036,0,-1,-1
177.34,-3.49,-43.28,-501,-5686,6037,-1,-1,-1
177.34,-3.49,-43.28,-493,-5688,6034,0,0,-1
177.35,-3.48,-43.27,-493,-5686,6053,-1,-1,-1
177.35,-3.47,-43.27,-488,-5684,6047,-1,-1,-1
177.35,-3.48,-43.28,-497,-5682,6035,-1,0,-1
177.35,-3.48,-43.28,-505,-5679,6036,-1,0,0
177.35,-3.48,-43.29,-502,-5678,6039,-1,0,-1
177.35,-3.48,-43.30,-504,-5687,6034,-1,0,-1
177.35,-3.48,-43.30,-501,-5687,6044,-1,0,0
177.35,-3.48,-43.30,-493,-5679,6044,-1,0,0
177.35,-3.49,-43.30,-490,-5669,6038,-1,0,0
177.35,-3.50,-43.31,-499,-5677,6043,-1,0,0
177.34,-3.50,-43.32,-506,-5685,6042,-1,0,-1
177.35,-3.51,-43.32,-507,-5680,6035,-1,0,-1
177.35,-3.51,-43.32,-504,-5674,6039,-1,-1,0
177.35,-3.51,-43.33,-495,-5679,6042,-1,0,0
177.35,-3.51,-43.33,-493,-5689,6041,-1,0,0
177.34,-3.51,-43.34,-499,-5690,6039,-1,0,0
177.34,-3.52,-43.34,-509,-5686,6038,-1,0,0
177.33,-3.52,-43.34,-517,-5684,6036,-1,0,0
177.34,-3.53,-43.34,-520,-5683,6029,-1,0,0
177.34,-3.53,-43.34,-514,-5685,6029,-1,0,-1
177.34,-3.53,-43.34,-499,-5687,6025,0,0,-1
177.34,-3.53,-43.34,-497,-5689,6031,-1,-1,0
177.34,-3.53,-43.34,-507,-5690,6029,0,-1,-1
177.34,-3.52,-43.34,-507,-5691,6031,0,-1,-1
177.34,-3.52,-43.34,-509,-5689,6029,-1,-1,-1
177.34,-3.52,-43.34,-503,-5693,6033,0,0,0
177.34,-3.52,-43.34,-508,-5694,6032,0,-1,0
177.33,-3.52,-43.33,-509,-5692,6027,0,-1,0
177.34,-3.52,-43.32,-513,-5688,6037,0,-1,-1
177.34,-3.52,-43.32,-515,-5688,6030,0,-1,-1
177.34,-3.52,-43.31,-520,-5679,6038,0,-1,0
177.34,-3.52,-43.30,-517,-5676,6046,0,-1,-1
177.34,-3.52,-43.30,-511,-5680,6043,0,-1,-1
177.34,-3.51,-43.29,-507,-5685,6043,0,-1,-1
177.34,-3.51,-43.28,-506,-5683,6037,0,0,0
177.34,-3.51,-43.28,-500,-5678,6049,0,-1,0
177.34,-3.51,-43.28,-506,-5667,6057,0,0,0
177.34,-3.51,-43.27,-502,-5666,6045,0,0,0
177.34,-3.52,-43.27,-507,-5671,6049,-1,-1,0
177.34,-3.52,-43.28,-504,-5675,6036,-1,0,0
177.34,-3.52,-43.28,-503,-5680,6036,0,0,0
177.34,-3.52,-43.27,-508,-5688,6042,0,0,0
177.34,-3.52,-43.27,-511,-5692,6035,0,-1,0
177.34,-3.52,-43.26,-511,-5694,6035,0,0,-1
177.34,-3.52,-43.26,-514,-5689,6041,0,-1,-1
177.34,-3.52,-43.25,-508,-5683,6043,0,-1,0
177.34,-3.52,-43.25,-500,-5679,6039,0,-1,-1
177.34,-3.52,-43.25,-498,-5680,6037,0,0,0
177.34,-3.52,-43.25,-504,-5678,6045,0,0,0
177.33,-3.53,-43.25,-510,-5683,6046,0,0,0
177.33,-3.53,-43.25,-509,-5683,6046,0,0,0
177.33,-3.53,-43.25,-514,-5672,6043,-1,0,0
177.33,-3.53,-43.24,-507,-5680,6038,0,0,0
177.33,-3.53,-43.24,-511,-5675,6038,0,0,-1
177.33,-3.53,-43.23,-512,-5675,6047,0,-1,-1
177.33,-3.53,-43.22,-512,-5674,6040,0,0,-1
177.33,-3.53,-43.22,-513,-5667,6038,0,-1,0
177.33,-3.53,-43.22,-505,-5666,6042,0,-1,0
177.33,-3.53,-43.22,-508,-5665,6043,-1,0,-1
177.33,-3.53,-43.22,-507,-5674,6046,0,0,-1
177.33,-3.53,-43.22,-504,-5677,6048,0,0,-1
177.34,-3.53,-43.20,-497,-5677,6047,0,0,-1
177.33,-3.53,-43.20,-494,-5667,6043,0,-1,0
177.33,-3.53,-43.19,-501,-5664,6052,0,0,0
177.33,-3.53,-43.19,-505,-5667,6049,0,0,0
177.33,-3.53,-43.19,-514,-5665,6048,-1,0,0
177.33,-3.54,-43.19,-519,-5664,6047,0,0,0
177.33,-3.54,-43.19,-519,-5675,6055,-1,0,0
177.33,-3.54,-43.19,-513,-5678,6052,0,-1,-1
177.33,-3.54,-43.19,-513,-5683,6058,0,-1,0
177.33,-3.53,-43.18,-510,-5678,6058,0,-1,-1
177.33,-3.53,-43.18,-504,-5674,6052,0,0,0
177.33,-3.53,-43.17,-505,-5670,6060,0,0,0
177.33,-3.53,-43.16,-504,-5660,6064,-1,0,0
177.33,-3.54,-43.17,-506,-5657,6054,-1,0,0
177.33,-3.55,-43.17,-508,-5662,6053,-1,0,0
177.33,-3.55,-43.16,-514,-5676,6063,0,0,0
177.32,-3.55,-43.16,-514,-5676,6068,0,0,0
177.32,-3.56,-43.16,-519,-5668,6056,0,0,0
177.32,-3.56,-43.16,-525,-5671,6049,0,0,0
177.32,-3.56,-43.16,-520,-5673,6047,0,-1,0
177.32,-3.56,-43.14,-519,-5671,6054,0,-1,-1
177.32,-3.56,-43.13,-506,-5665,6060,0,0,-1
177.33,-3.55,-43.13,-505,-5660,6066,0,0,0
177.32,-3.56,-43.12,-504,-5649,6065,0,0,0
177.32,-3.56,-43.12,-505,-5651,6071,-1,0,0
177.32,-3.56,-43.11,-504,-5646,6076,-1,0,0
177.32,-3.56,-43.12,-506,-5650,6066,-1,0,0
177.31,-3.57,-43.12,-517,-5659,6063,-1,0,0
177.31,-3.57,-43.12,-513,-5663,6062,0,0,0
177.31,-3.58,-43.12,-513,-5667,6060,0,0,0
177.31,-3.58,-43.12,-510,-5671,6056,0,0,-1
177.31,-3.58,-43.11,-511,-5661,6055,0,-1,0
177.31,-3.58,-43.11,-517,-5671,6061,0,-1,-1
177.31,-3.57,-43.10,-522,-5676,6065,0,-1,-1
177.32,-3.57,-43.10,-513,-5664,6071,0,-1,0
177.31,-3.57,-43.10,-504,-5654,6064,-1,-1,0
177.32,-3.57,-43.10,-504,-5651,6057,-1,-1,0
177.32,-3.57,-43.10,-511,-5660,6067,-1,-1,-1
177.32,-3.57,-43.10,-511,-5666,6063,-1,-1,0
177.32,-3.57,-43.10,-515,-5668,6056,-1,0,-1
177.32,-3.57,-43.11,-519,-5666,6058,-1,-1,-1
177.32,-3.56,-43.11,-516,-5670,6054,-1,-1,0
177.32,-3.56,-43.11,-508,-5668,6053,-1,-1,-1
177.33,-3.55,-43.11,-499,-5661,6059,-1,-1,-1
177.33,-3.55,-43.11,-501,-5659,6056,-1,-1,0
177.32,-3.55,-43.10,-506,-5655,6064,-1,0,0
177.32,-3.55,-43.10,-509,-5668,6066,-1,0,0
177.32,-3.55,-43.11,-518,-5668,6069,-1,-1,-1
177.33,-3.55,-43.12,-514,-5677,6057,-1,-1,-1
177.33,-3.54,-43.12,-508,-5665,6050,-1,-1,-1
177.33,-3.53,-43.13,-492,-5655,6045,-1,-1,0
177.33,-3.53,-43.13,-489,-5652,6045,-1,0,0
177.33,-3.53,-43.13,-499,-5659,6054,-1,0,0
177.33,-3.54,-43.14,-514,-5653,6064,-1,0,0
177.32,-3.55,-43.14,-518,-5664,6062,-1,0,0
177.33,-3.55,-43.15,-511,-5669,6058,-1,0,-1
177.33,-3.55,-43.16,-523,-5665,6052,-1,0,-1
177.32,-3.55,-43.17,-505,-5665,6048,-1,0,-1
177.33,-3.55,-43.17,-507,-5667,6052,-1,-1,0
177.33,-3.55,-43.17,-506,-5670,6052,-1,-1,0
177.33,-3.55,-43.18,-499,-5663,6047,-1,0,0
177.32,-3.55,-43.19,-496,-5667,6052,-1,0,0
177.32,-3.56,-43.19,-513,-5663,6067,-1,0,0
177.31,-3.57,-43.19,-501,-5660,6055,-1,0,0
177.32,-3.57,-43.20,-517,-5664,6055,-1,0,0
177.31,-3.58,-43.20,-519,-5675,6046,-1,-1,-1
177.31,-3.58,-43.20,-525,-5677,6034,0,0,0
177.31,-3.58,-43.20,-532,-5683,6034,0,0,-1
177.31,-3.58,-43.20,-526,-5683,6034,0,-1,-1
177.32,-3.57,-43.19,-515,-5690,6043,0,-1,-1
177.32,-3.56,-43.19,-499,-5684,6052,0,-1,-1
177.33,-3.55,-43.18,-495,-5665,6056,0,0,-1
177.33,-3.55,-43.17,-500,-5651,6054,-1,0,0
177.32,-3.55,-43.17,-503,-5644,6051,-1,0,0
177.32,-3.55,-43.18,-504,-5641,6058,-1,-1,-1
177.33,-3.55,-43.19,-506,-5656,6047,-1,-1,-1
177.33,-3.55,-43.20,-507,-5667,6035,-1,-1,-1
177.33,-3.55,-43.21,-504,-5681,6030,-1,0,-1
177.33,-3.54,-43.21,-506,-5686,6027,0,-1,0
177.34,-3.54,-43.21,-513,-5684,6039,0,0,-1
177.34,-3.54,-43.20,-510,-5677,6039,0,-1,0
177.34,-3.54,-43.20,-514,-5673,6037,0,-1,-1
177.34,-3.53,-43.20,-515,-5672,6037,0,-1,-1
177.34,-3.53,-43.19,-508,-5676,6050,0,0,-1
177.34,-3.53,-43.20,-506,-5672,6052,-1,0,-1
177.35,-3.52,-43.20,-500,-5670,6050,-1,0,-1
177.35,-3.52,-43.20,-501,-5667,6055,-1,0,-1
177.35,-3.52,-43.20,-501,-5669,6052,-1,0,0
177.35,-3.52,-43.21,-503,-5675,6042,-1,0,-1
177.35,-3.52,-43.21,-504,-5678,6041,0,0,0
177.34,-3.53,-43.21,-517,-5676,6056,0,-1,0
177.34,-3.53,-43.21,-520,-5676,6053,-1,-1,-1
177.35,-3.53,-43.22,-520,-5688,6047,-1,0,-1
177.35,-3.53,-43.22,-515,-5685,6031,0,-1,-1
177.36,-3.51,-43.22,-500,-5678,6036,0,-1,-1
177.36,-3.51,-43.21,-493,-5671,6045,0,-1,0
177.36,-3.51,-43.21,-487,-5664,6045,-1,0,0
177.36,-3.51,-43.21,-496,-5669,6039,-1,0,0
177.36,-3.51,-43.21,-505,-5675,6044,-1,0,0
177.35,-3.52,-43.22,-515,-5675,6050,-1,0,-1
177.35,-3.52,-43.23,-517,-5679,6046,-1,-1,-1
177.36,-3.51,-43.23,-510,-5684,6037,-1,-1,-1
177.36,-3.51,-43.23,-506,-5684,6038,0,-1,-1
177.36,-3.51,-43.23,-501,-5685,6035,0,-1,0
177.36,-3.51,-43.23,-490,-5682,6045,-1,0,0
177.36,-3.51,-43.23,-498,-5673,6046,-1,0,0
177.36,-3.51,-43.23,-509,-5671,6048,-1,0,0
177.36,-3.51,-43.24,-510,-5679,6044,-1,0,0
177.36,-3.51,-43.25,-515,-5682,6047,-1,0,0
177.36,-3.51,-43.25,-518,-5682,6040,-1,-1,-1
177.36,-3.51,-43.25,-509,-5684,6033,-1,-1,0
177.36,-3.51,-43.25,-511,-5686,6028,0,-1,-1
177.36,-3.51,-43.26,-512,-5687,6026,0,0,-1
177.36,-3.51,-43.25,-515,-5682,6033,0,-1,-1
177.36,-3.51,-43.25,-512,-5680,6044,0,-1,-1
177.37,-3.50,-43.25,-506,-5675,6045,-1,-1,-1
177.37,-3.49,-43.25,-491,-5667,6040,0,0,-1
177.37,-3.49,-43.25,-494,-5675,6040,-1,0,0
177.37,-3.49,-43.25,-491,-5673,6039,0,0,-1
177.37,-3.49,-43.25,-497,-5682,6044,-1,0,0
177.37,-3.49,-43.25,-501,-5681,6040,-1,-1,0
177.37,-3.49,-43.25,-508,-5678,6038,-1,0,0
177.37,-3.49,-43.25,-517,-5682,6027,0,-1,-1
177.37,-3.49,-43.25,-515,-5685,6034,0,-1,-1
177.37,-3.49,-43.25,-517,-5683,6039,0,-1,-1
177.37,-3.49,-43.25,-518,-5684,6042,0,-1,-1
177.37,-3.49,-43.24,-513,-5679,6045,0,-1,-1
177.38,-3.48,-43.24,-508,-5679,6037,0,0,-1
177.38,-3.48,-43.25,-508,-5675,6038,0,0,-1
177.38,-3.48,-43.24,-502,-5674,6045,-1,-1,-1
177.38,-3.48,-43.24,-504,-5670,6047,-1,-1,-1
177.38,-3.47,-43.25,-502,-5676,6040,-1,-1,0
177.38,-3.48,-43.25,-512,-5681,6040,-1,0,-1
177.38,-3.48,-43.25,-510,-5687,6039,-1,0,-1
177.39,-3.47,-43.25,-504,-5687,6043,0,-1,-1
177.39,-3.47,-43.25,-497,-5686,6044,0,-1,-1
177.39,-3.46,-43.25,-489,-5681,6035,-1,-1,-1
177.39,-3.46,-43.25,-487,-5676,6035,-1,0,0
177.39,-3.46,-43.25,-493,-5679,6035,-1,0,-1
177.39,-3.46,-43.25,-497,-5683,6034,-1,0,-1
177.40,-3.46,-43.25,-498,-5681,6042,-1,0,-1
177.40,-3.46,-43.25,-503,-5682,6033,-1,0,-1
177.40,-3.46,-43.26,-502,-5679,6021,-1,-1,-1
177.40,-3.46,-43.26,-502,-5682,6038,0,-1,-1
177.41,-3.46,-43.26,-492,-5683,6028,0,-1,0
177.40,-3.46,-43.26,-490,-5689,6035,0,0,0
177.40,-3.47,-43.26,-501,-5679,6041,0,0,0
177.40,-3.47,-43.26,-498,-5670,6043,-1,0,0
177.40,-3.48,-43.26,-500,-5676,6045,-1,0,0
177.39,-3.48,-43.27,-508,-5682,6036,-1,0,0
177.39,-3.49,-43.28,-510,-5681,6029,-1,0,0
177.39,-3.49,-43.28,-515,-5689,6016,-1,0,0
177.38,-3.50,-43.28,-504,-5696,6022,0,0,0
177.38,-3.50,-43.27,-515,-5699,6044,0,-1,-1
177.38,-3.50,-43.26,-514,-5696,6042,0,-1,-1
177.38,-3.50,-43.25,-512,-5692,6050,0,-1,0
177.39,-3.49,-43.25,-507,-5683,6051,0,-1,-1
177.39,-3.49,-43.25,-500,-5683,6041,0,-1,0
177.39,-3.49,-43.24,-505,-5681,6041,0,0,0
177.39,-3.49,-43.24,-502,-5675,6038,0,0,0
177.39,-3.49,-43.24,-501,-5677,6037,0,0,0
177.38,-3.50,-43.24,-506,-5679,6033,-1,0,0
177.38,-3.50,-43.24,-502,-5686,6044,0,0,-1
177.38,-3.50,-43.24,-513,-5689,6038,0,-1,0
177.38,-3.50,-43.23,-510,-5691,6036,0,0,0
177.38,-3.50,-43.23,-503,-5682,6034,0,-1,0
177.38,-3.49,-43.23,-502,-5678,6042,0,-1,0
177.38,-3.49,-43.22,-501,-5671,6042,0,0,-1
177.38,-3.49,-43.21,-496,-5669,6046,0,0,0
177.38,-3.49,-43.20,-496,-5668,6047,0,0,-1
177.39,-3.49,-43.20,-503,-5677,6051,0,0,0
177.39,-3.49,-43.20,-505,-5684,6048,0,0,-1
177.39,-3.49,-43.20,-502,-5690,6044,0,0,0
177.39,-3.49,-43.19,-503,-5686,6052,0,0,0
177.39,-3.49,-43.19,-506,-5678,6057,0,-1,0
177.38,-3.50,-43.19,-511,-5675,6048,-1,0,0
177.39,-3.49,-43.19,-507,-5687,6042,0,0,-1
177.39,-3.49,-43.19,-504,-5680,6035,0,-1,-1
177.39,-3.49,-43.18,-503,-5673,6037,0,-1,-1
177.39,-3.49,-43.17,-499,-5667,6031,0,0,0
177.39,-3.49,-43.17,-504,-5673,6043,0,0,0
177.39,-3.50,-43.17,-510,-5677,6054,0,0,-1
177.39,-3.50,-43.17,-518,-5671,6052,0,0,0
177.38,-3.50,-43.16,-524,-5667,6052,0,0,-1
177.38,-3.50,-43.16,-520,-5669,6040,0,-1,-1
177.39,-3.50,-43.15,-512,-5671,6038,0,-1,-1
177.39,-3.50,-43.15,-507,-5666,6043,0,-1,-1
177.39,-3.50,-43.13,-498,-5662,6045,0,0,0
177.39,-3.50,-43.13,-496,-5661,6049,0,0,0
177.39,-3.50,-43.13,-499,-5662,6052,0,0,0
177.38,-3.50,-43.13,-506,-5659,6059,-1,0,0
177.38,-3.51,-43.13,-511,-5672,6060,-1,0,0
177.38,-3.51,-43.13,-514,-5680,6049,0,0,0
177.38,-3.51,-43.13,-510,-5683,6049,0,0,0
177.38,-3.51,-43.13,-513,-5675,6046,0,-1,0
177.37,-3.51,-43.12,-513,-5669,6045,0,-1,0
177.37,-3.51,-43.12,-509,-5673,6039,0,-1,0
177.37,-3.51,-43.11,-515,-5673,6037,0,0,0
177.37,-3.51,-43.11,-514,-5672,6048,0,-1,0
177.37,-3.51,-43.10,-516,-5667,6059,0,-1,-1
177.37,-3.51,-43.10,-515,-5661,6054,0,-1,0
177.37,-3.51,-43.09,-505,-5660,6063,0,-1,0
177.37,-3.51,-43.08,-502,-5662,6071,0,0,0
177.37,-3.51,-43.08,-496,-5661,6064,0,0,0
177.37,-3.52,-43.07,-506,-5673,6061,0,0,0
177.37,-3.52,-43.07,-511,-5671,6058,-1,0,-1
177.37,-3.52,-43.07,-510,-5673,6056,0,0,0
177.37,-3.52,-43.07,-511,-5672,6054,0,0,0
177.37,-3.52,-43.07,-518,-5662,6052,0,-1,-1
177.37,-3.52,-43.06,-519,-5671,6043,0,-1,-1
177.37,-3.52,-43.05,-507,-5658,6056,0,0,-1
177.37,-3.52,-43.04,-512,-5655,6062,0,0,0
177.37,-3.53,-43.04,-516,-5651,6063,0,-1,0
177.37,-3.53,-43.04,-511,-5648,6055,0,0,0
177.37,-3.53,-43.03,-514,-5648,6051,0,0,0
177.36,-3.53,-43.04,-511,-5656,6056,0,0,0
177.36,-3.53,-43.04,-514,-5661,6052,0,0,0
177.36,-3.53,-43.03,-511,-5657,6056,0,0,0
177.36,-3.54,-43.03,-517,-5658,6050,0,0,0
177.36,-3.54,-43.03,-515,-5659,6056,0,0,0
177.36,-3.54,-43.02,-521,-5662,6059,0,0,-1
177.36,-3.55,-43.02,-526,-5655,6063,-1,-1,0
177.35,-3.54,-43.02,-517,-5650,6066,-1,-1,0
177.36,-3.54,-43.03,-524,-5656,6058,-1,-1,-1
177.36,-3.54,-43.04,-521,-5673,6062,-1,-1,-1
177.36,-3.53,-43.04,-508,-5661,6049,0,-1,-1
177.36,-3.52,-43.03,-504,-5653,6059,0,-1,0
177.36,-3.52,-43.03,-508,-5660,6057,-1,-1,0
177.36,-3.52,-43.04,-514,-5664,6040,0,-1,0
177.36,-3.52,-43.03,-519,-5665,6045,0,-1,-1
177.36,-3.51,-43.03,-520,-5659,6053,0,-1,-1
177.36,-3.51,-43.03,-520,-5656,6054,0,-1,-1
177.36,-3.51,-43.03,-511,-5651,6066,-1,-1,-1
177.37,-3.50,-43.03,-507,-5654,6063,0,-1,-1
177.36,-3.50,-43.03,-506,-5660,6064,-1,-1,0
177.36,-3.49,-43.03,-500,-5663,6067,0,-1,-1
177.36,-3.49,-43.03,-501,-5656,6063,-1,-1,-1
177.36,-3.49,-43.03,-502,-5654,6065,-1,-1,-1
177.36,-3.49,-43.04,-501,-5651,6063,-1,-1,0
177.37,-3.48,-43.04,-501,-5656,6062,-1,-1,0
177.37,-3.48,-43.05,-505,-5662,6048,-1,0,-1
177.36,-3.49,-43.06,-510,-5667,6051,-1,-1,0
177.36,-3.49,-43.06,-506,-5665,6051,-1,-1,0
177.36,-3.49,-43.06,-509,-5675,6056,-1,0,-1
177.36,-3.49,-43.06,-510,-5669,6056,0,-1,0
177.36,-3.49,-43.06,-512,-5663,6058,-1,-1,-1
177.37,-3.48,-43.06,-511,-5666,6054,-1,-1,-1
177.37,-3.48,-43.06,-510,-5661,6056,0,-1,-1
177.37,-3.48,-43.06,-505,-5661,6062,-1,-1,0
177.37,-3.47,-43.07,-497,-5657,6063,-1,-1,0
177.37,-3.47,-43.07,-492,-5665,6056,-1,0,0
177.37,-3.48,-43.08,-496,-5660,6049,-1,0,-1
177.37,-3.47,-43.08,-497,-5657,6070,-1,0,-1
177.37,-3.47,-43.09,-503,-5663,6065,-1,0,-1
177.37,-3.48,-43.10,-507,-5663,6053,-1,0,0
177.37,-3.49,-43.10,-510,-5669,6044,-1,0,-1
177.38,-3.49,-43.11,-509,-5673,6045,-1,0,-1
177.38,-3.49,-43.12,-503,-5675,6042,-1,-1,-1
177.38,-3.48,-43.12,-505,-5674,6045,0,-1,0
177.38,-3.47,-43.11,-506,-5675,6048,0,-1,-1
177.38,-3.47,-43.11,-500,-5670,6047,0,-1,-1
177.38,-3.47,-43.11,-498,-5665,6058,0,0,-1
177.38,-3.47,-43.10,-495,-5655,6063,-1,-1,-1
177.38,-3.47,-43.11,-497,-5649,6055,-1,0,-1
177.38,-3.47,-43.12,-500,-5656,6051,-1,0,0
177.38,-3.47,-43.12,-504,-5666,6052,-1,0,0
177.38,-3.47,-43.13,-508,-5673,6041,-1,0,0
177.38,-3.47,-43.13,-506,-5673,6046,-1,0,0
177.38,-3.47,-43.13,-515,-5674,6041,-1,0,0
177.38,-3.48,-43.14,-520,-5677,6051,-1,0,-1
177.38,-3.48,-43.14,-512,-5683,6047,0,-1,-1
177.39,-3.47,-43.14,-497,-5677,6043,0,-1,-1
177.39,-3.47,-43.13,-494,-5663,6052,0,-1,-1
177.39,-3.46,-43.13,-491,-5666,6052,-1,0,-1
177.39,-3.46,-43.14,-488,-5670,6048,-1,0,0
177.39,-3.47,-43.15,-501,-5673,6051,-1,0,0
177.38,-3.48,-43.15,-506,-5667,6053,-1,0,0
177.39,-3.48,-43.16,-516,-5675,6060,-1,0,-1
177.38,-3.48,-43.16,-517,-5677,6060,-1,0,-1
177.39,-3.48,-43.17,-521,-5684,6049,-1,0,-1
177.39,-3.48,-43.17,-516,-5677,6036,0,-1,-1
177.39,-3.48,-43.17,-501,-5671,6038,-1,-1,0
177.39,-3.48,-43.17,-501,-5675,6045,-1,-1,0
177.39,-3.47,-43.17,-496,-5671,6047,0,-1,0
