Yaw,Pitch,Roll,AX,AY,AZ,GX,GY,GZ
177.78,-0.60,-45.45,-55,-5790,5884,-3,1,-4
177.88,-0.57,-45.52,-79,-5837,5788,-1,2,-3
177.91,-0.57,-45.55,-136,-5863,5813,-3,-1,-1
177.91,-0.57,-45.62,-89,-5910,5777,-2,-1,0
177.88,-0.58,-45.68,-71,-5966,5755,-2,0,1
177.81,-0.66,-45.73,-155,-5977,5783,-2,0,2
177.74,-0.69,-45.77,-131,-5999,5826,-3,-2,2
177.69,-0.72,-45.82,-105,-6007,5823,-2,0,1
177.61,-0.79,-45.88,-98,-5999,5825,-3,1,3
177.52,-0.88,-45.94,-99,-5998,5775,-3,0,2
177.45,-0.96,-45.99,-62,-5975,5737,-2,1,2
177.40,-1.02,-46.02,-15,-5967,5765,-1,2,2
177.34,-1.12,-46.04,-71,-6009,5782,-2,2,2
177.28,-1.23,-46.07,-97,-6039,5785,-1,3,2
177.24,-1.33,-46.07,-116,-6057,5726,1,4,1
177.20,-1.46,-46.03,-170,-6018,5754,1,5,1
177.17,-1.59,-46.00,-168,-5982,5798,0,5,1
177.14,-1.73,-45.99,-217,-5967,5792,-1,6,0
177.11,-1.87,-45.97,-260,-5958,5787,0,5,1
177.07,-2.00,-45.97,-341,-5916,5776,-1,4,1
177.02,-2.10,-46.01,-384,-5869,5769,-2,2,0
176.99,-2.17,-46.04,-399,-5858,5820,-3,1,0
176.95,-2.22,-46.11,-483,-5878,5803,-4,-1,0
176.92,-2.22,-46.20,-430,-5854,5764,-4,-2,0
176.89,-2.21,-46.28,-392,-5900,5777,-5,-3,0
176.86,-2.19,-46.40,-367,-5986,5736,-4,-3,1
176.83,-2.17,-46.51,-324,-6044,5695,-4,-2,1
176.80,-2.15,-46.59,-292,-6114,5697,-3,-2,1
176.75,-2.17,-46.67,-270,-6155,5637,-2,-1,1
176.71,-2.18,-46.70,-230,-6162,5657,-1,0,1
176.69,-2.23,-46.72,-208,-6166,5680,-1,2,1
176.67,-2.30,-46.73,-206,-6154,5715,-1,3,1
176.64,-2.41,-46.73,-225,-6126,5708,0,5,1
176.62,-2.52,-46.73,-269,-6117,5695,0,5,0
176.64,-2.61,-46.71,-289,-6111,5648,1,5,-1
176.68,-2.71,-46.65,-341,-6018,5674,2,7,-3
176.76,-2.78,-46.60,-425,-6011,5648,2,5,-4
176.84,-2.82,-46.52,-456,-6004,5690,2,4,-4
176.95,-2.82,-46.46,-477,-6077,5681,3,4,-5
177.07,-2.82,-46.37,-544,-6074,5689,4,3,-5
177.16,-2.81,-46.29,-551,-6040,5696,3,1,-4
177.23,-2.78,-46.20,-570,-6005,5698,3,0,-3
177.27,-2.74,-46.12,-554,-5973,5735,2,-3,-2
177.29,-2.68,-46.05,-489,-5976,5738,2,-3,-1
177.31,-2.61,-45.98,-443,-5990,5733,3,-4,-1
177.33,-2.54,-45.89,-364,-5946,5757,2,-3,-1
177.35,-2.48,-45.82,-312,-5945,5786,1,-2,-1
177.36,-2.44,-45.78,-293,-5961,5802,1,-1,-1
177.39,-2.42,-45.72,-273,-5946,5793,2,0,-1
177.41,-2.41,-45.66,-267,-5933,5809,2,1,-1
177.43,-2.43,-45.59,-307,-5909,5843,2,1,-1
177.45,-2.44,-45.54,-360,-5874,5889,0,1,-1
177.47,-2.45,-45.51,-373,-5856,5882,0,0,-2
177.50,-2.44,-45.51,-387,-5824,5872,-1,0,-2
177.53,-2.42,-45.51,-361,-5835,5860,-1,-1,-1
177.52,-2.41,-45.52,-334,-5827,5869,-2,-1,0
177.51,-2.42,-45.56,-311,-5840,5840,-2,0,0
177.49,-2.44,-45.61,-342,-5886,5822,-2,0,0
177.47,-2.46,-45.66,-344,-5903,5802,-2,-1,1
177.43,-2.48,-45.69,-355,-5913,5807,-2,-1,1
177.39,-2.50,-45.74,-356,-5957,5771,-2,0,0
177.37,-2.53,-45.78,-385,-5982,5795,-1,-1,0
177.33,-2.55,-45.80,-394,-5991,5784,-1,-1,0
177.31,-2.56,-45.81,-385,-5959,5766,-1,-1,0
177.29,-2.59,-45.82,-381,-5932,5784,-1,0,1
177.26,-2.61,-45.85,-366,-5967,5776,-2,0,0
177.25,-2.62,-45.88,-365,-5998,5801,-1,0,0
177.25,-2.62,-45.88,-357,-5988,5801,-1,0,0
177.23,-2.64,-45.89,-358,-5947,5800,-2,0,0
177.23,-2.65,-45.92,-336,-5959,5779,-1,1,0
177.22,-2.69,-45.94,-375,-5971,5740,-1,1,0
177.20,-2.72,-45.96,-378,-5977,5752,-1,1,0
177.21,-2.74,-45.96,-358,-5977,5757,-1,1,-1
177.22,-2.77,-45.97,-377,-5975,5759,0,1,-1
177.22,-2.80,-45.96,-406,-5948,5789,-1,1,0
177.21,-2.83,-45.96,-420,-5954,5783,-1,0,0
177.20,-2.85,-45.97,-428,-5971,5783,-1,0,0
177.19,-2.87,-45.97,-448,-5980,5765,0,0,-1
177.18,-2.88,-45.97,-456,-5961,5772,-1,-1,0
177.17,-2.88,-45.97,-444,-5946,5774,-1,-1,0
177.15,-2.89,-45.98,-419,-5949,5785,-1,-1,0
177.14,-2.89,-45.98,-419,-5964,5768,0,-1,0
177.14,-2.89,-45.98,-431,-5973,5761,0,0,0
177.13,-2.90,-45.97,-421,-5974,5771,0,0,0
177.12,-2.91,-45.95,-425,-5974,5772,0,0,0
177.11,-2.92,-45.94,-427,-5952,5798,0,-1,0
177.10,-2.93,-45.94,-407,-5931,5804,-1,0,0
177.08,-2.94,-45.95,-407,-5956,5778,-1,0,0
177.08,-2.96,-45.96,-407,-5969,5755,0,0,0
177.07,-2.98,-45.96,-440,-5950,5779,-1,0,0
177.06,-2.98,-45.97,-424,-5956,5793,-1,-1,0
177.05,-2.99,-45.98,-411,-5963,5785,-1,0,0
177.04,-3.01,-46.00,-426,-5956,5784,-1,0,0
177.03,-3.04,-46.01,-436,-5951,5768,-1,0,0
177.03,-3.05,-46.03,-417,-5973,5757,-1,0,0
177.02,-3.07,-46.05,-424,-5978,5755,-1,0,0
177.02,-3.08,-46.06,-442,-5982,5755,-1,0,0
177.01,-3.10,-46.07,-458,-5976,5768,-1,0,0
177.00,-3.12,-46.08,-480,-5995,5750,-1,0,0
177.00,-3.14,-46.08,-485,-5989,5759,-1,0,0
176.99,-3.15,-46.08,-471,-6002,5771,0,0,0
176.99,-3.16,-46.08,-470,-5995,5742,0,0,-1
176.99,-3.17,-46.07,-484,-5986,5750,0,0,0
176.98,-3.18,-46.06,-463,-5979,5759,0,0,0
176.98,-3.19,-46.04,-459,-5978,5763,0,0,-1
176.99,-3.19,-46.03,-448,-5975,5758,0,0,-1
176.99,-3.21,-46.00,-453,-5954,5781,0,0,0
176.98,-3.22,-45.99,-452,-5946,5781,0,0,0
176.99,-3.23,-45.98,-450,-5950,5785,0,0,0
176.99,-3.24,-45.97,-460,-5959,5781,0,0,0
176.99,-3.24,-45.97,-462,-5948,5784,0,0,-1
176.98,-3.24,-45.98,-439,-5939,5800,-1,-1,0
176.98,-3.25,-46.00,-442,-5925,5786,-1,0,0
176.96,-3.27,-46.02,-464,-5936,5790,-2,0,0
176.97,-3.26,-46.04,-451,-5992,5763,1,-1,-2
177.01,-3.24,-46.04,-435,-6006,5757,0,0,-2
177.04,-3.23,-46.03,-434,-5997,5736,0,1,-2
177.08,-3.22,-46.01,-429,-5968,5772,0,1,-1
177.10,-3.24,-46.01,-413,-5981,5747,0,1,-1
177.13,-3.26,-45.99,-446,-5965,5758,0,1,-1
177.14,-3.28,-45.99,-466,-5926,5784,-1,1,-1
177.14,-3.29,-46.01,-489,-5920,5777,-2,0,0
177.12,-3.32,-46.03,-532,-5939,5777,-2,0,0
177.10,-3.35,-46.07,-521,-5971,5759,-2,0,0
177.09,-3.36,-46.12,-514,-5999,5727,-1,0,0
177.09,-3.38,-46.13,-535,-5999,5723,-1,0,-1
177.08,-3.39,-46.14,-533,-6025,5737,-1,-1,0
177.07,-3.40,-46.15,-523,-6032,5737,0,-1,0
177.07,-3.40,-46.14,-500,-6018,5745,0,0,0
177.06,-3.40,-46.13,-504,-5992,5755,0,-1,0
177.04,-3.41,-46.12,-497,-5969,5745,0,-1,0
177.03,-3.41,-46.12,-481,-5960,5756,0,-1,0
177.02,-3.41,-46.11,-464,-5949,5753,-1,0,0
177.01,-3.42,-46.11,-445,-5949,5745,0,0,0
177.01,-3.44,-46.10,-467,-5957,5777,-1,1,0
177.01,-3.46,-46.10,-485,-5972,5760,-1,1,-1
177.01,-3.49,-46.11,-514,-5975,5752,-1,1,-1
177.01,-3.51,-46.11,-526,-5982,5756,-1,0,0
177.01,-3.51,-46.12,-533,-5991,5743,-1,0,-1
177.02,-3.51,-46.12,-528,-5995,5751,0,0,-1
177.02,-3.51,-46.11,-523,-5994,5746,0,0,-1
177.03,-3.52,-46.10,-521,-5991,5743,0,0,-1
177.03,-3.51,-46.08,-506,-5995,5750,0,0,-1
177.04,-3.51,-46.07,-501,-5995,5753,0,0,-1
177.06,-3.51,-46.04,-506,-5976,5760,0,0,-1
177.07,-3.51,-46.02,-511,-5964,5766,0,0,-1
177.08,-3.51,-46.00,-504,-5960,5766,0,0,-1
177.09,-3.50,-45.99,-492,-5955,5773,0,0,-1
177.09,-3.50,-45.97,-487,-5958,5773,0,0,-1
177.10,-3.51,-45.96,-502,-5951,5765,0,0,-1
177.10,-3.52,-45.95,-514,-5949,5768,0,0,-1
177.11,-3.52,-45.94,-508,-5947,5766,0,0,-1
177.11,-3.53,-45.93,-507,-5954,5771,0,0,-1
177.12,-3.53,-45.93,-513,-5964,5764,0,0,-1
177.13,-3.53,-45.92,-506,-5960,5767,0,0,-1
177.13,-3.53,-45.91,-509,-5960,5774,0,0,-1
177.14,-3.54,-45.90,-511,-5956,5775,0,0,-1
177.14,-3.54,-45.89,-516,-5951,5778,0,0,-1
177.15,-3.54,-45.89,-517,-5955,5768,0,0,-1
177.15,-3.54,-45.88,-523,-5955,5767,0,0,-1
177.16,-3.54,-45.88,-528,-5958,5775,0,0,-1
177.17,-3.54,-45.87,-518,-5955,5780,0,0,-1
177.18,-3.54,-45.87,-507,-5951,5778,0,0,-1
177.19,-3.53,-45.86,-501,-5954,5777,0,0,-1
177.19,-3.54,-45.85,-505,-5944,5787,0,0,-1
177.19,-3.54,-45.84,-504,-5945,5784,0,0,-1
177.20,-3.55,-45.83,-515,-5938,5784,0,0,-1
177.20,-3.55,-45.83,-509,-5938,5790,0,0,-1
177.20,-3.56,-45.83,-513,-5946,5786,0,0,-1
177.20,-3.56,-45.83,-511,-5941,5784,0,0,-1
177.20,-3.57,-45.82,-517,-5949,5777,0,0,0
177.20,-3.58,-45.82,-514,-5956,5779,0,0,-1
177.20,-3.58,-45.82,-525,-5962,5777,0,0,-1
177.21,-3.59,-45.81,-525,-5965,5780,0,0,-1
177.21,-3.59,-45.80,-524,-5958,5778,0,0,-1
177.21,-3.59,-45.80,-517,-5957,5782,0,0,-1
177.22,-3.59,-45.78,-512,-5948,5788,0,0,-1
177.21,-3.60,-45.77,-518,-5946,5800,0,0,-1
177.22,-3.59,-45.76,-515,-5939,5799,0,0,-1
177.22,-3.60,-45.75,-520,-5935,5800,0,0,-1
177.22,-3.60,-45.74,-519,-5931,5793,0,0,0
177.22,-3.61,-45.74,-526,-5928,5792,0,0,0
177.22,-3.62,-45.73,-524,-5927,5783,0,0,0
177.22,-3.63,-45.72,-524,-5933,5783,0,0,-1
177.22,-3.63,-45.72,-524,-5933,5791,0,0,-1
177.22,-3.64,-45.70,-522,-5937,5791,0,0,-1
177.23,-3.64,-45.68,-528,-5939,5800,0,0,-1
177.22,-3.66,-45.67,-525,-5937,5813,0,0,-1
177.23,-3.66,-45.65,-529,-5938,5813,0,0,-1
177.23,-3.67,-45.64,-532,-5933,5808,0,0,-1
177.24,-3.68,-45.61,-532,-5932,5815,0,0,-1
177.24,-3.69,-45.60,-526,-5920,5811,0,0,-1
177.25,-3.71,-45.57,-525,-5919,5814,0,0,-1
177.25,-3.72,-45.56,-531,-5921,5811,0,0,-1
177.25,-3.73,-45.54,-533,-5914,5804,0,0,-1
177.25,-3.74,-45.53,-527,-5912,5804,0,0,0
177.25,-3.75,-45.51,-545,-5914,5799,0,0,-1
177.26,-3.76,-45.49,-540,-5910,5810,0,0,-1
177.26,-3.77,-45.47,-546,-5908,5821,0,0,-1
177.26,-3.78,-45.46,-541,-5906,5840,0,0,-1
177.26,-3.80,-45.46,-546,-5913,5832,0,0,-1
177.27,-3.80,-45.44,-554,-5912,5834,0,0,-1
177.27,-3.81,-45.42,-551,-5903,5829,0,0,-1
177.27,-3.82,-45.41,-552,-5901,5829,0,0,-1
177.27,-3.83,-45.40,-550,-5893,5831,0,0,0
177.27,-3.84,-45.39,-552,-5894,5822,0,0,0
177.27,-3.85,-45.38,-559,-5905,5824,0,0,0
177.26,-3.85,-45.37,-562,-5910,5831,0,0,0
177.26,-3.86,-45.36,-581,-5915,5823,0,0,-1
177.26,-3.86,-45.35,-578,-5910,5829,0,0,-1
177.27,-3.86,-45.33,-571,-5907,5834,0,0,-1
177.27,-3.86,-45.33,-570,-5901,5834,0,-1,-1
177.28,-3.85,-45.31,-563,-5898,5830,0,-1,-1
177.28,-3.85,-45.29,-556,-5890,5833,0,-1,-1
177.28,-3.84,-45.29,-555,-5886,5841,0,-1,0
177.28,-3.84,-45.28,-545,-5883,5844,0,0,0
177.28,-3.84,-45.27,-553,-5884,5846,0,0,0
177.28,-3.84,-45.26,-546,-5875,5851,0,0,0
177.28,-3.84,-45.25,-558,-5880,5859,0,-1,0
177.28,-3.85,-45.25,-566,-5886,5846,-1,0,-1
177.29,-3.85,-45.26,-565,-5893,5840,-1,0,-1
177.29,-3.85,-45.25,-572,-5884,5835,0,0,-1
177.29,-3.85,-45.25,-562,-5884,5834,0,-1,-1
177.29,-3.84,-45.25,-553,-5889,5831,0,-1,-1
177.29,-3.84,-45.24,-549,-5881,5833,0,0,-1
177.30,-3.83,-45.24,-546,-5884,5828,0,-1,-1
177.30,-3.83,-45.24,-541,-5889,5838,0,0,0
177.30,-3.83,-45.24,-546,-5883,5841,0,0,-1
177.30,-3.83,-45.24,-543,-5873,5842,-1,0,-1
177.30,-3.84,-45.24,-543,-5869,5839,-1,0,-1
177.30,-3.84,-45.24,-554,-5877,5836,-1,0,-1
177.30,-3.84,-45.24,-554,-5884,5830,-1,0,-1
177.31,-3.84,-45.24,-556,-5893,5832,0,0,-1
177.31,-3.85,-45.24,-560,-5894,5843,0,0,-1
177.31,-3.85,-45.24,-561,-5888,5847,0,0,-1
177.31,-3.85,-45.23,-560,-5882,5843,0,-1,-1
177.32,-3.84,-45.23,-563,-5891,5839,0,0,-1
177.33,-3.84,-45.22,-548,-5881,5838,0,0,-1
177.33,-3.84,-45.21,-556,-5883,5847,0,0,-1
177.34,-3.84,-45.21,-538,-5879,5849,-1,0,-1
177.35,-3.83,-45.21,-543,-5886,5843,0,0,-1
177.34,-3.84,-45.21,-549,-5882,5842,0,0,-1
177.35,-3.84,-45.21,-554,-5878,5839,0,0,-1
177.35,-3.84,-45.21,-558,-5884,5844,0,0,-1
177.35,-3.84,-45.21,-557,-5888,5842,0,0,-1
177.36,-3.84,-45.21,-559,-5886,5841,0,0,-1
177.36,-3.84,-45.19,-554,-5884,5846,0,0,-1
177.37,-3.83,-45.18,-560,-5878,5850,0,0,-1
177.37,-3.84,-45.18,-561,-5876,5861,0,0,-1
177.37,-3.84,-45.18,-562,-5880,5862,0,0,-1
177.38,-3.84,-45.17,-564,-5881,5865,0,-1,-1
177.39,-3.83,-45.16,-553,-5882,5861,0,-1,-1
177.39,-3.82,-45.15,-541,-5870,5862,0,0,-1
177.39,-3.82,-45.15,-539,-5873,5860,0,0,-1
177.39,-3.82,-45.15,-549,-5875,5845,0,0,0
177.39,-3.83,-45.15,-558,-5880,5847,0,0,-1
177.39,-3.83,-45.15,-554,-5880,5851,-1,0,-1
177.39,-3.83,-45.15,-566,-5883,5855,0,0,-1
177.40,-3.83,-45.14,-561,-5882,5856,0,0,-1
177.40,-3.83,-45.14,-561,-5891,5857,0,-1,-1
177.41,-3.82,-45.13,-547,-5880,5858,0,-1,-1
177.41,-3.82,-45.12,-542,-5880,5859,0,0,-1
177.41,-3.82,-45.12,-541,-5871,5855,0,0,-1
177.42,-3.81,-45.12,-535,-5873,5862,0,0,-1
177.41,-3.82,-45.11,-546,-5881,5848,0,0,-1
177.42,-3.81,-45.11,-553,-5878,5854,0,0,-1
177.42,-3.81,-45.11,-549,-5874,5851,-1,0,0
177.42,-3.81,-45.11,-552,-5872,5853,0,0,-1
177.42,-3.82,-45.10,-558,-5873,5856,-1,0,0
177.42,-3.82,-45.10,-557,-5873,5855,0,0,-1
177.42,-3.82,-45.10,-560,-5880,5845,0,0,-1
177.43,-3.81,-45.10,-557,-5883,5850,0,-1,-1
177.43,-3.81,-45.10,-553,-5879,5846,0,0,-1
177.43,-3.81,-45.10,-551,-5870,5850,0,0,-1
177.44,-3.81,-45.09,-542,-5870,5847,0,0,-1
177.44,-3.81,-45.08,-543,-5859,5850,0,0,-1
179.96,156.64,125.68,-258,-258,-258,-258,-258,-258
177.44,-3.81,-45.07,-546,-5867,5866,0,0,-1
177.44,-3.81,-45.07,-550,-5869,5862,-1,0,0
177.44,-3.81,-45.07,-549,-5864,5863,-1,0,-1
177.44,-3.82,-45.07,-557,-5866,5854,0,0,-1
177.44,-3.82,-45.07,-556,-5872,5857,0,0,-1
177.44,-3.82,-45.07,-563,-5877,5865,0,-1,-1
177.44,-3.82,-45.07,-555,-5877,5858,0,0,-1
177.45,-3.82,-45.07,-559,-5872,5851,0,0,-1
177.45,-3.82,-45.06,-554,-5865,5851,0,0,-1
177.45,-3.81,-45.05,-554,-5866,5862,0,-1,-1
177.45,-3.81,-45.05,-548,-5867,5854,0,0,-1
177.46,-3.81,-45.04,-537,-5863,5854,0,0,-1
177.46,-3.81,-45.04,-542,-5860,5851,0,0,0
177.46,-3.81,-45.03,-543,-5859,5857,0,-1,-1
177.46,-3.81,-45.03,-549,-5856,5870,-1,-1,0
177.46,-3.81,-45.03,-551,-5861,5869,-1,0,-1
177.46,-3.81,-45.03,-559,-5864,5873,-1,0,-1
177.46,-3.81,-45.03,-554,-5872,5864,0,-1,-1
177.47,-3.80,-45.03,-551,-5879,5867,0,-1,-1
177.47,-3.80,-45.03,-550,-5869,5861,0,-1,0
177.47,-3.80,-45.03,-547,-5866,5851,0,0,-1
177.47,-3.80,-45.02,-545,-5863,5863,0,0,-1
177.47,-3.80,-45.02,-558,-5867,5882,0,0,-1
177.48,-3.80,-45.01,-553,-5872,5881,0,-1,-1
177.48,-3.80,-45.01,-552,-5873,5870,-1,-1,-1
177.48,-3.80,-45.01,-546,-5871,5855,0,0,-1
177.48,-3.80,-45.01,-551,-5868,5861,0,0,-1
177.49,-3.80,-45.00,-536,-5867,5870,0,0,-1
177.49,-3.79,-45.00,-540,-5863,5868,0,0,-1
177.50,-3.79,-44.99,-543,-5862,5857,0,0,-1
177.49,-3.80,-44.99,-551,-5851,5860,0,0,0
177.49,-3.80,-44.99,-550,-5853,5851,0,0,0
177.49,-3.81,-44.99,-550,-5856,5853,0,0,0
177.49,-3.81,-44.98,-556,-5854,5864,0,0,0
177.49,-3.81,-44.98,-556,-5857,5852,0,0,-1
177.49,-3.81,-44.98,-561,-5864,5856,0,0,0
177.49,-3.82,-44.97,-553,-5866,5860,0,0,0
177.49,-3.82,-44.96,-563,-5864,5869,0,-1,0
177.49,-3.82,-44.95,-560,-5865,5873,0,0,0
177.49,-3.82,-44.94,-557,-5867,5874,0,-1,-1
177.49,-3.81,-44.93,-552,-5859,5876,0,-1,-1
177.49,-3.81,-44.92,-552,-5853,5882,0,-1,0
177.49,-3.81,-44.92,-545,-5850,5886,0,-1,0
177.49,-3.81,-44.90,-541,-5848,5879,0,0,0
177.49,-3.81,-44.89,-554,-5847,5876,0,0,0
177.49,-3.81,-44.88,-551,-5850,5876,0,0,0
177.49,-3.81,-44.87,-553,-5846,5877,0,0,0
177.49,-3.82,-44.86,-557,-5845,5877,0,0,0
177.49,-3.83,-44.85,-544,-5842,5867,0,0,0
177.48,-3.83,-44.84,-555,-5846,5879,0,0,0
177.48,-3.83,-44.83,-552,-5852,5887,0,-1,0
177.48,-3.83,-44.82,-561,-5849,5883,0,0,-1
177.48,-3.84,-44.81,-557,-5832,5883,0,0,0
177.48,-3.85,-44.79,-553,-5828,5895,0,0,0
177.48,-3.85,-44.79,-560,-5835,5892,0,0,0
177.48,-3.85,-44.79,-545,-5841,5884,0,0,-1
177.48,-3.86,-44.78,-547,-5829,5883,0,0,0
177.48,-3.87,-44.77,-552,-5824,5882,0,0,0
177.48,-3.88,-44.77,-556,-5831,5882,-1,0,0
177.48,-3.89,-44.77,-563,-5842,5877,0,0,0
177.47,-3.90,-44.76,-567,-5850,5885,0,0,0
177.47,-3.90,-44.75,-567,-5843,5887,0,0,0
177.48,-3.91,-44.74,-563,-5829,5879,0,0,0
177.47,-3.91,-44.72,-568,-5832,5875,0,0,0
177.47,-3.91,-44.71,-565,-5838,5885,0,0,0
177.47,-3.93,-44.70,-569,-5837,5894,0,0,0
177.47,-3.94,-44.69,-565,-5833,5898,0,0,-1
177.48,-3.94,-44.67,-567,-5832,5899,0,0,-1
177.48,-3.95,-44.66,-568,-5831,5895,0,0,0
177.48,-3.96,-44.65,-567,-5831,5890,0,0,-1
177.48,-3.96,-44.64,-567,-5831,5902,0,0,0
177.48,-3.97,-44.64,-561,-5825,5901,0,0,0
177.48,-3.98,-44.64,-567,-5818,5900,0,0,0
177.47,-4.00,-44.64,-577,-5819,5900,-1,0,0
177.47,-4.01,-44.63,-568,-5818,5897,0,0,0
177.47,-4.02,-44.62,-566,-5819,5895,0,0,0
177.47,-4.04,-44.61,-567,-5827,5906,0,1,0
177.47,-4.06,-44.60,-575,-5823,5894,0,1,0
177.47,-4.09,-44.58,-587,-5817,5902,0,0,0
177.47,-4.10,-44.57,-589,-5824,5906,0,0,0
177.46,-4.13,-44.57,-604,-5830,5900,0,0,0
177.46,-4.14,-44.55,-617,-5828,5908,0,0,0
177.45,-4.16,-44.53,-615,-5831,5903,0,0,0
177.45,-4.18,-44.51,-612,-5817,5917,0,0,0
177.45,-4.18,-44.50,-610,-5803,5920,0,0,0
177.44,-4.18,-44.49,-609,-5795,5923,0,-1,0
177.43,-4.19,-44.48,-604,-5800,5926,0,-1,0
177.42,-4.20,-44.47,-605,-5795,5926,0,0,0
177.42,-4.21,-44.47,-603,-5792,5915,0,0,0
177.41,-4.21,-44.47,-608,-5806,5921,0,-1,0
177.40,-4.21,-44.46,-615,-5809,5915,0,-1,0
177.40,-4.21,-44.46,-629,-5808,5915,0,-1,-1
177.40,-4.20,-44.45,-625,-5804,5908,0,-1,0
177.40,-4.20,-44.45,-630,-5800,5913,0,-1,0
177.40,-4.19,-44.45,-603,-5799,5911,0,-1,0
177.40,-4.17,-44.44,-601,-5799,5919,0,-1,-1
177.40,-4.17,-44.43,-608,-5794,5907,0,-1,0
177.40,-4.16,-44.42,-602,-5792,5918,0,-1,0
177.40,-4.15,-44.41,-597,-5796,5930,0,-1,0
177.40,-4.14,-44.40,-602,-5803,5929,0,-1,-1
177.41,-4.13,-44.40,-607,-5800,5926,0,-1,-1
177.41,-4.12,-44.40,-599,-5797,5927,0,-1,-1
177.41,-4.12,-44.39,-591,-5795,5925,0,-1,-1
177.41,-4.11,-44.39,-597,-5797,5938,0,-1,0
177.41,-4.11,-44.39,-596,-5800,5929,-1,-1,-1
177.41,-4.11,-44.39,-601,-5807,5925,-1,-1,-1
177.41,-4.10,-44.39,-600,-5808,5929,0,-1,-1
177.42,-4.09,-44.39,-591,-5798,5927,0,-1,-1
177.42,-4.08,-44.38,-590,-5803,5933,0,-1,-1
177.42,-4.07,-44.37,-587,-5798,5939,0,-1,-1
177.43,-4.07,-44.37,-587,-5795,5931,0,-1,-1
177.43,-4.07,-44.36,-596,-5795,5931,0,-1,-1
177.43,-4.06,-44.36,-602,-5797,5938,-1,-1,-1
177.43,-4.06,-44.36,-598,-5792,5929,0,-1,-1
177.44,-4.05,-44.36,-586,-5794,5924,-1,-1,-1
177.44,-4.05,-44.37,-581,-5792,5925,-1,-1,-1
177.45,-4.03,-44.37,-575,-5796,5916,0,-1,-1
177.45,-4.03,-44.37,-578,-5802,5923,-1,-1,-1
177.45,-4.03,-44.37,-579,-5797,5921,-1,-1,-1
177.45,-4.03,-44.37,-574,-5791,5919,-1,-1,-1
177.46,-4.02,-44.38,-572,-5795,5915,-1,-1,-1
177.46,-4.02,-44.38,-578,-5790,5920,-1,0,-1
177.46,-4.02,-44.39,-589,-5795,5924,-1,-1,-1
177.46,-4.02,-44.39,-581,-5801,5928,-1,0,-1
177.47,-4.01,-44.39,-583,-5800,5921,-1,-1,-1
177.47,-4.01,-44.39,-583,-5794,5923,-1,0,-1
177.47,-4.01,-44.39,-580,-5798,5916,0,0,-1
177.47,-4.01,-44.39,-577,-5806,5924,0,-1,-1
177.47,-4.01,-44.39,-582,-5799,5935,0,-1,-1
177.48,-4.00,-44.39,-589,-5805,5939,-1,-1,-1
177.48,-3.99,-44.39,-583,-5796,5929,0,-1,-1
177.48,-3.99,-44.39,-575,-5792,5928,-1,-1,-1
177.48,-3.99,-44.39,-574,-5787,5931,-1,-1,-1
177.48,-3.99,-44.39,-576,-5790,5930,-1,-1,-1
177.49,-3.98,-44.39,-565,-5789,5928,-1,0,-1
177.49,-3.98,-44.40,-565,-5791,5920,-1,0,-1
177.49,-3.98,-44.40,-571,-5788,5925,-1,0,-1
177.49,-3.98,-44.40,-579,-5797,5928,-1,0,-1
177.49,-3.98,-44.41,-583,-5804,5930,-1,0,-1
177.49,-3.98,-44.41,-585,-5802,5924,-1,-1,-1
177.49,-3.98,-44.41,-584,-5802,5912,-1,-1,-1
177.49,-3.98,-44.41,-580,-5802,5918,-1,-1,-1
177.49,-3.98,-44.41,-574,-5802,5915,-1,-1,-1
177.50,-3.97,-44.41,-569,-5791,5925,-1,0,-1
177.50,-3.97,-44.41,-572,-5790,5934,-1,-1,-1
177.50,-3.97,-44.41,-570,-5794,5939,-1,-1,-1
177.50,-3.97,-44.42,-575,-5799,5928,-1,-1,-1
177.51,-3.96,-44.42,-571,-5798,5928,0,0,0
177.51,-3.96,-44.42,-572,-5794,5933,-1,-1,-1
177.50,-3.96,-44.42,-563,-5795,5925,-1,0,-1
177.50,-3.97,-44.42,-580,-5813,5924,-1,-1,-1
177.51,-3.96,-44.43,-576,-5818,5919,-1,-1,-1
177.51,-3.96,-44.43,-581,-5812,5913,0,-1,-1
177.51,-3.96,-44.43,-578,-5802,5920,0,-1,-1
177.51,-3.96,-44.42,-567,-5805,5915,0,-1,-1
177.51,-3.96,-44.42,-573,-5803,5921,0,0,0
177.51,-3.96,-44.42,-569,-5805,5928,0,0,-1
177.52,-3.95,-44.42,-572,-5800,5925,-1,0,-1
177.52,-3.95,-44.42,-571,-5799,5929,-1,0,-1
177.53,-3.95,-44.42,-573,-5802,5931,-1,0,-1
177.53,-3.95,-44.43,-580,-5805,5925,-1,-1,-1
177.53,-3.95,-44.43,-573,-5803,5916,0,-1,-1
177.54,-3.94,-44.43,-568,-5806,5913,0,-1,-1
177.54,-3.94,-44.42,-564,-5804,5919,0,-1,-1
177.54,-3.94,-44.42,-567,-5801,5918,0,0,-1
177.54,-3.94,-44.42,-563,-5797,5925,-1,0,-1
177.54,-3.94,-44.42,-564,-5790,5917,-1,0,-1
177.55,-3.94,-44.42,-562,-5792,5927,-1,0,-1
177.56,-3.93,-44.42,-573,-5796,5927,-1,0,-1
177.56,-3.93,-44.42,-570,-5806,5919,0,0,-1
177.56,-3.93,-44.42,-573,-5811,5918,0,0,-1
177.57,-3.93,-44.42,-570,-5808,5915,0,0,-1
177.57,-3.93,-44.41,-568,-5803,5910,0,0,-1
177.58,-3.93,-44.40,-568,-5805,5931,0,0,-1
177.58,-3.92,-44.40,-568,-5805,5931,0,-1,-1
177.58,-3.92,-44.39,-566,-5801,5937,0,-1,-1
177.59,-3.92,-44.39,-572,-5787,5943,0,-1,-1
177.59,-3.92,-44.38,-564,-5785,5943,-1,-1,0
177.58,-3.92,-44.39,-555,-5794,5929,-1,0,0
177.58,-3.92,-44.39,-554,-5795,5929,-1,0,0
177.58,-3.93,-44.40,-558,-5795,5923,-1,0,0
177.57,-3.93,-44.40,-565,-5800,5916,-1,0,0
177.57,-3.93,-44.40,-582,-5804,5916,0,0,0
177.56,-3.94,-44.40,-584,-5807,5925,0,-1,0
177.56,-3.94,-44.40,-576,-5806,5931,0,-1,-1
177.56,-3.94,-44.39,-574,-5810,5925,0,-1,0
177.56,-3.94,-44.38,-564,-5801,5914,0,-1,0
177.56,-3.94,-44.37,-561,-5794,5926,0,-1,0
177.56,-3.94,-44.36,-559,-5792,5921,0,0,0
177.56,-3.94,-44.36,-565,-5787,5926,0,0,0
177.56,-3.94,-44.35,-572,-5790,5936,0,0,0
177.56,-3.94,-44.35,-576,-5801,5940,0,0,0
177.55,-3.95,-44.34,-577,-5802,5940,0,-1,0
177.55,-3.95,-44.33,-577,-5788,5937,0,-1,0
177.55,-3.95,-44.33,-569,-5781,5933,0,0,0
177.55,-3.95,-44.32,-577,-5797,5932,0,0,-1
177.55,-3.95,-44.31,-568,-5792,5928,0,0,-1
177.56,-3.95,-44.30,-564,-5794,5941,0,-1,-1
177.56,-3.95,-44.28,-566,-5796,5940,0,-1,0
177.56,-3.95,-44.27,-571,-5794,5934,0,0,0
177.55,-3.96,-44.27,-573,-5788,5936,0,0,0
177.55,-3.96,-44.26,-576,-5790,5934,0,0,-1
177.55,-3.96,-44.25,-577,-5790,5937,0,0,-1
177.55,-3.96,-44.24,-571,-5783,5937,0,0,-1
177.55,-3.96,-44.24,-571,-5775,5933,0,0,0
177.55,-3.96,-44.23,-570,-5779,5928,0,0,0
177.55,-3.96,-44.21,-563,-5780,5937,0,0,0
177.55,-3.96,-44.21,-565,-5785,5935,0,0,0
177.55,-3.97,-44.21,-571,-5781,5929,0,0,0
177.55,-3.98,-44.20,-575,-5783,5936,0,0,0
177.55,-3.98,-44.19,-569,-5772,5943,0,0,0
177.54,-3.99,-44.18,-579,-5766,5934,0,0,0
177.54,-4.00,-44.18,-576,-5771,5940,0,0,0
177.55,-4.00,-44.17,-571,-5775,5949,0,0,0
177.54,-4.01,-44.16,-582,-5786,5953,0,0,0
177.54,-4.03,-44.16,-589,-5783,5951,0,0,0
177.53,-4.04,-44.15,-583,-5774,5951,0,0,0
177.53,-4.05,-44.14,-572,-5777,5944,0,0,0
177.53,-4.06,-44.13,-574,-5776,5954,0,0,0
177.53,-4.07,-44.11,-584,-5767,5962,0,0,0
177.53,-4.08,-44.11,-584,-5771,5963,0,0,-1
177.53,-4.09,-44.10,-595,-5758,5948,0,0,0
177.53,-4.10,-44.09,-598,-5763,5950,0,0,0
177.53,-4.11,-44.09,-580,-5763,5958,0,0,0
177.52,-4.12,-44.09,-596,-5761,5951,0,0,0
177.53,-4.12,-44.09,-595,-5762,5945,0,0,0
177.52,-4.13,-44.09,-598,-5758,5952,0,0,0
177.52,-4.14,-44.08,-595,-5761,5964,0,0,0
177.52,-4.15,-44.08,-612,-5774,5963,0,0,0
177.51,-4.16,-44.07,-613,-5758,5958,0,0,0
177.51,-4.16,-44.07,-612,-5763,5955,0,-1,0
177.51,-4.15,-44.07,-613,-5765,5957,0,-1,0
177.51,-4.15,-44.06,-612,-5762,5954,0,-1,0
177.50,-4.15,-44.05,-611,-5758,5964,0,-1,0
177.50,-4.15,-44.05,-615,-5754,5966,0,-1,0
177.50,-4.14,-44.05,-608,-5765,5972,0,-1,0
177.50,-4.14,-44.04,-598,-5757,5965,0,-1,0
177.50,-4.13,-44.04,-598,-5753,5966,-1,-1,0
177.49,-4.13,-44.04,-596,-5746,5963,-1,-1,0
177.50,-4.12,-44.04,-604,-5748,5971,-1,-1,-1
177.49,-4.12,-44.04,-604,-5753,5964,-1,-1,-1
177.49,-4.11,-44.04,-602,-5753,5955,0,-1,0
177.49,-4.10,-44.04,-595,-5743,5959,-1,-1,0
177.49,-4.10,-44.04,-604,-5740,5952,-1,-1,-1
177.49,-4.09,-44.04,-600,-5747,5951,0,-1,0
177.49,-4.09,-44.04,-602,-5749,5958,-1,-1,-1
177.48,-4.08,-44.03,-601,-5746,5970,-1,-1,-1
177.48,-4.08,-44.03,-601,-5745,5971,-1,-1,-1
177.49,-4.07,-44.04,-591,-5750,5967,-1,-1,-1
177.49,-4.06,-44.04,-590,-5744,5968,-1,-1,-1
177.50,-4.05,-44.05,-587,-5747,5968,-1,-1,-1
177.50,-4.04,-44.05,-587,-5744,5968,-1,-1,-1
177.50,-4.03,-44.05,-581,-5741,5959,-1,-1,-1
177.50,-4.02,-44.05,-574,-5738,5960,-1,-1,-1
177.50,-4.02,-44.06,-581,-5741,5964,-1,-1,0
177.50,-4.01,-44.05,-588,-5740,5972,-1,-1,-1
177.50,-4.00,-44.05,-580,-5748,5980,-1,-1,0
177.50,-4.00,-44.06,-584,-5749,5968,-1,-1,-1
177.49,-4.00,-44.08,-584,-5751,5958,-1,-1,-1
177.50,-3.99,-44.08,-584,-5761,5963,-1,-1,-1
177.50,-3.99,-44.08,-584,-5764,5965,-1,-1,-1
177.51,-3.99,-44.08,-589,-5768,5965,-1,-1,-1
177.50,-3.98,-44.09,-592,-5756,5967,-1,-1,-1
177.50,-3.97,-44.09,-584,-5758,5975,-1,-1,-1
177.51,-3.97,-44.09,-575,-5758,5977,-1,-1,-1
177.51,-3.96,-44.09,-566,-5748,5972,-1,-1,-1
177.51,-3.96,-44.10,-568,-5742,5972,-1,-1,0
177.51,-3.96,-44.10,-568,-5747,5969,-1,-1,0
177.51,-3.96,-44.11,-578,-5747,5967,-1,-1,-1
177.51,-3.96,-44.12,-585,-5753,5974,-1,-1,-1
177.51,-3.95,-44.14,-587,-5754,5974,-1,-1,-1
177.51,-3.95,-44.14,-588,-5764,5968,-1,-1,-1
177.50,-3.95,-44.15,-586,-5768,5969,-1,-1,-1
177.50,-3.95,-44.15,-589,-5767,5961,-1,-1,-1
177.50,-3.95,-44.16,-586,-5767,5963,-1,-1,-1
177.51,-3.94,-44.17,-576,-5765,5958,-1,-1,-1
177.51,-3.94,-44.17,-569,-5759,5958,-1,-1,-1
177.51,-3.94,-44.17,-575,-5762,5965,-1,-1,-1
177.51,-3.93,-44.18,-572,-5758,5964,-1,-1,-1
177.51,-3.93,-44.19,-574,-5757,5953,-1,-1,-1
177.51,-3.93,-44.19,-568,-5752,5957,-1,-1,0
177.51,-3.93,-44.20,-566,-5753,5950,-1,0,0
177.51,-3.93,-44.21,-571,-5763,5953,-1,0,-1
177.51,-3.93,-44.21,-571,-5764,5955,-1,-1,-1
177.51,-3.92,-44.21,-571,-5762,5961,-1,-1,-1
177.51,-3.92,-44.22,-575,-5753,5954,-1,-1,-1
177.51,-3.91,-44.22,-571,-5752,5947,-1,-1,0
177.51,-3.91,-44.22,-578,-5756,5956,-1,-1,-1
177.51,-3.91,-44.23,-580,-5768,5961,-1,-1,-1
177.51,-3.90,-44.23,-580,-5761,5956,-1,-1,-1
177.51,-3.90,-44.24,-581,-5762,5958,-1,-1,-1
177.52,-3.90,-44.24,-578,-5765,5957,-1,-1,-1
177.52,-3.89,-44.25,-572,-5760,5962,-1,-1,-1
177.52,-3.89,-44.25,-573,-5759,5959,-1,-1,-1
177.52,-3.88,-44.25,-568,-5765,5959,-1,-1,-1
177.52,-3.88,-44.26,-566,-5771,5960,-1,-1,0
177.52,-3.88,-44.26,-562,-5764,5960,-1,-1,0
177.52,-3.87,-44.27,-567,-5769,5954,-1,-1,-1
177.52,-3.87,-44.27,-564,-5770,5963,-1,-1,0
177.51,-3.88,-44.27,-566,-5773,5952,-1,-1,-1
177.51,-3.88,-44.28,-572,-5775,5946,-1,-1,-1
177.51,-3.88,-44.29,-575,-5776,5952,-1,-1,-1
177.51,-3.88,-44.30,-585,-5777,5942,-1,-1,-1
177.51,-3.87,-44.30,-580,-5771,5945,-1,-1,-1
177.51,-3.87,-44.30,-578,-5769,5950,-1,-1,-1
177.51,-3.87,-44.30,-573,-5771,5959,-1,-1,-1
177.51,-3.87,-44.30,-570,-5768,5952,-1,-1,-1
177.51,-3.86,-44.30,-562,-5760,5958,-1,0,-1
177.51,-3.86,-44.30,-564,-5763,5963,-1,-1,-1
177.52,-3.85,-44.31,-568,-5769,5969,-1,-1,-1
177.52,-3.85,-44.31,-578,-5772,5956,-1,-1,-1
177.52,-3.85,-44.31,-570,-5768,5955,-1,-1,-1
177.52,-3.85,-44.31,-571,-5771,5959,-1,-1,-1
177.52,-3.85,-44.31,-569,-5768,5965,-1,-1,-1
177.52,-3.85,-44.31,-566,-5775,5954,-1,-1,-1
177.52,-3.85,-44.31,-567,-5769,5949,-1,0,-1
177.53,-3.84,-44.31,-562,-5767,5956,-1,0,-1
177.53,-3.84,-44.31,-561,-5761,5957,-1,0,-1
177.53,-3.84,-44.31,-570,-5760,5965,-1,-1,-1
177.53,-3.84,-44.31,-566,-5767,5960,-1,-1,-1
177.53,-3.84,-44.31,-563,-5763,5952,-1,-1,-1
177.53,-3.84,-44.32,-567,-5760,5954,-1,0,-1
177.53,-3.84,-44.32,-566,-5760,5944,-1,0,-1
177.53,-3.84,-44.33,-567,-5768,5947,-1,0,-1
177.54,-3.84,-44.33,-565,-5773,5952,-1,0,-1
177.55,-3.83,-44.33,-560,-5771,5940,-1,-1,-1
177.55,-3.83,-44.33,-552,-5764,5945,-1,-1,-1
177.55,-3.83,-44.33,-557,-5766,5950,-1,0,-1
177.55,-3.83,-44.32,-569,-5769,5953,-1,0,-1
177.55,-3.83,-44.32,-578,-5773,5956,-1,-1,-1
177.55,-3.83,-44.32,-579,-5766,5961,-1,-1,-1
177.54,-3.84,-44.33,-576,-5772,5957,-1,-1,0
177.55,-3.83,-44.33,-559,-5764,5946,-1,-1,0
177.54,-3.83,-44.33,-561,-5768,5960,-1,-1,0
177.54,-3.83,-44.33,-551,-5772,5951,-1,-1,0
177.54,-3.83,-44.33,-549,-5773,5947,-1,-1,0
177.53,-3.83,-44.33,-554,-5764,5948,-1,-1,0
177.52,-3.83,-44.33,-557,-5762,5955,-1,-1,0
177.53,-3.83,-44.33,-551,-5770,5949,-1,-1,0
177.52,-3.83,-44.33,-557,-5774,5948,-1,-1,0
177.52,-3.84,-44.33,-563,-5770,5946,0,-1,0
177.51,-3.83,-44.32,-563,-5771,5944,0,-1,0
177.51,-3.84,-44.31,-572,-5772,5947,0,-1,0
177.51,-3.84,-44.31,-573,-5772,5948,-1,-1,0
177.51,-3.84,-44.31,-570,-5761,5953,-1,-1,-1
177.51,-3.84,-44.30,-575,-5765,5960,0,-1,0
177.51,-3.84,-44.30,-571,-5770,5965,0,-1,-1
177.50,-3.84,-44.29,-564,-5770,5964,0,-1,0
177.50,-3.84,-44.28,-562,-5764,5962,0,-1,0
177.49,-3.84,-44.28,-566,-5765,5961,-1,-1,0
177.49,-3.84,-44.28,-564,-5766,5959,-1,-1,0
177.49,-3.84,-44.27,-561,-5763,5964,-1,0,0
177.49,-3.84,-44.27,-567,-5762,5952,-1,-1,0
177.49,-3.84,-44.27,-562,-5763,5945,0,-1,0
177.48,-3.85,-44.27,-569,-5759,5945,-1,0,0
177.48,-3.85,-44.27,-569,-5763,5959,0,-1,0
177.48,-3.85,-44.26,-560,-5762,5953,0,0,-1
177.48,-3.85,-44.24,-566,-5765,5961,0,-1,-1
177.48,-3.85,-44.23,-568,-5766,5969,0,-1,-1
177.48,-3.85,-44.23,-569,-5763,5966,0,-1,0
177.48,-3.85,-44.22,-569,-5754,5965,0,-1,0
177.48,-3.85,-44.21,-561,-5749,5959,0,-1,0
177.47,-3.85,-44.20,-559,-5748,5956,0,-1,0
177.47,-3.85,-44.20,-557,-5743,5965,-1,0,0
177.47,-3.85,-44.20,-563,-5742,5967,-1,0,0
177.46,-3.86,-44.19,-566,-5756,5961,0,0,0
177.46,-3.86,-44.18,-572,-5756,5978,0,-1,0
177.46,-3.86,-44.17,-571,-5750,5979,-1,-1,0
177.46,-3.86,-44.17,-569,-5753,5965,0,0,0
177.45,-3.87,-44.17,-571,-5754,5965,0,0,0
177.44,-3.88,-44.16,-575,-5755,5963,0,0,0
177.44,-3.89,-44.16,-588,-5755,5962,0,0,0
177.44,-3.89,-44.15,-584,-5755,5960,0,0,0
177.44,-3.89,-44.15,-579,-5752,5964,0,-1,0
177.43,-3.90,-44.14,-577,-5749,5975,0,-1,0
177.43,-3.90,-44.14,-576,-5750,5969,0,-1,0
177.43,-3.90,-44.13,-566,-5745,5971,0,0,0
177.42,-3.90,-44.12,-561,-5739,5973,0,0,0
177.42,-3.91,-44.12,-561,-5729,5964,0,0,0
177.41,-3.93,-44.11,-574,-5738,5980,-1,0,0
177.41,-3.93,-44.11,-573,-5744,5980,0,0,0
177.41,-3.94,-44.10,-590,-5748,5982,0,0,0
177.40,-3.95,-44.10,-591,-5747,5971,0,0,0
177.40,-3.96,-44.09,-590,-5746,5969,0,0,0
177.39,-3.97,-44.08,-594,-5744,5982,0,0,-1
177.39,-3.97,-44.08,-585,-5749,5974,0,0,0
177.40,-3.98,-44.06,-588,-5734,5981,0,0,-1
177.39,-3.98,-44.06,-589,-5733,5988,0,0,0
177.39,-3.98,-44.05,-584,-5727,5996,-1,0,0
177.39,-3.99,-44.04,-587,-5727,5997,-1,0,0
177.39,-3.99,-44.05,-595,-5723,5993,-1,-1,-1
177.38,-3.99,-44.05,-587,-5722,5995,-1,-1,0
177.38,-3.98,-44.05,-589,-5726,5982,-1,-1,0
177.37,-3.98,-44.05,-594,-5734,5982,-1,-1,0
177.37,-3.98,-44.05,-590,-5742,5981,-1,-1,0
177.37,-3.97,-44.05,-593,-5747,5975,0,-1,0
177.36,-3.96,-44.04,-591,-5741,5968,0,-1,0
177.36,-3.96,-44.04,-584,-5738,5972,0,-1,-1
177.36,-3.95,-44.03,-583,-5732,5982,-1,-1,-1
177.36,-3.95,-44.03,-576,-5722,5987,-1,-1,-1
177.36,-3.94,-44.02,-578,-5731,5994,-1,-1,-1
177.36,-3.93,-44.02,-578,-5733,5992,-1,-1,-1
177.36,-3.93,-44.03,-582,-5736,5991,-1,-1,-1
177.37,-3.92,-44.03,-579,-5736,5987,-1,-1,-1
177.36,-3.91,-44.03,-582,-5736,5987,-1,-1,0
177.36,-3.92,-44.03,-583,-5733,5992,-1,-1,-1
177.36,-3.91,-44.03,-580,-5731,5987,-1,-1,-1
177.36,-3.90,-44.04,-582,-5734,5978,-1,-1,-1
177.36,-3.90,-44.04,-572,-5738,5980,-1,-1,-1
177.36,-3.89,-44.03,-578,-5731,5985,-1,-1,-1
177.36,-3.89,-44.03,-570,-5732,5987,-1,-1,-1
177.36,-3.89,-44.03,-575,-5733,5983,-1,-1,0
177.36,-3.88,-44.04,-578,-5733,5986,-1,-1,-1
177.35,-3.89,-44.04,-581,-5737,5979,-1,-1,-1
177.35,-3.89,-44.05,-584,-5740,5980,-1,-1,-1
177.35,-3.89,-44.05,-577,-5736,5986,-1,-1,-1
177.35,-3.88,-44.06,-573,-5737,5989,-1,-1,-1
177.35,-3.88,-44.06,-575,-5736,5978,-1,-1,-1
177.36,-3.87,-44.06,-559,-5745,5977,-1,-1,0
177.36,-3.87,-44.06,-552,-5731,5980,-1,-1,0
177.36,-3.87,-44.07,-562,-5725,5977,-1,0,-1
177.35,-3.87,-44.08,-567,-5726,5988,-1,0,0
177.35,-3.88,-44.08,-569,-5731,5982,-1,0,0
177.35,-3.88,-44.09,-579,-5739,5996,-1,-1,0
177.35,-3.88,-44.10,-588,-5753,5995,-1,-1,-1
177.34,-3.89,-44.11,-588,-5751,5976,-1,-1,-1
177.34,-3.89,-44.12,-600,-5751,5964,-1,-1,-1
177.34,-3.88,-44.12,-599,-5758,5965,-1,-1,-1
177.34,-3.88,-44.12,-589,-5757,5972,-1,-1,-1
177.34,-3.87,-44.12,-579,-5758,5978,-1,-1,-1
177.34,-3.87,-44.12,-569,-5744,5987,-1,-1,-1
177.34,-3.86,-44.12,-567,-5742,5986,-1,-1,-1
177.35,-3.85,-44.12,-568,-5738,5983,-1,-1,-1
177.34,-3.86,-44.12,-564,-5732,5978,-1,-1,0
177.34,-3.85,-44.13,-564,-5738,5978,-1,-1,0
177.34,-3.85,-44.14,-568,-5741,5973,-1,0,0
177.34,-3.85,-44.14,-563,-5749,5972,-1,-1,0
177.33,-3.86,-44.15,-569,-5747,5954,-1,-1,-1
177.34,-3.85,-44.15,-570,-5752,5960,-1,-1,-1
177.34,-3.85,-44.16,-575,-5751,5974,-1,-1,0
177.34,-3.85,-44.16,-582,-5755,5976,-1,-1,-1
177.34,-3.85,-44.16,-578,-5758,5968,-1,-1,-1
177.34,-3.85,-44.16,-564,-5756,5962,-1,-1,0
177.34,-3.84,-44.17,-564,-5753,5966,-1,-1,0
177.33,-3.84,-44.17,-554,-5751,5961,-1,-1,-1
177.34,-3.84,-44.17,-561,-5755,5971,-1,-1,-1
177.34,-3.84,-44.17,-562,-5757,5973,-1,-1,-1
177.34,-3.84,-44.18,-579,-5754,5972,-1,-1,-1
177.34,-3.84,-44.18,-580,-5757,5980,-1,-1,-1
177.34,-3.84,-44.18,-572,-5754,5973,-1,-1,0
177.33,-3.83,-44.19,-567,-5748,5970,-1,-1,0
177.33,-3.83,-44.19,-565,-5749,5969,-1,-1,-1
177.33,-3.83,-44.20,-565,-5758,5968,-1,-1,-1
177.34,-3.83,-44.19,-558,-5751,5974,-1,-1,-1
177.34,-3.82,-44.19,-559,-5742,5978,-1,-1,-1
177.33,-3.82,-44.19,-563,-5740,5982,-1,-1,0
177.33,-3.82,-44.20,-566,-5745,5969,-1,-1,0
177.32,-3.82,-44.20,-571,-5756,5968,-1,-1,-1
177.32,-3.82,-44.20,-574,-5756,5972,-1,-1,-1
177.32,-3.82,-44.21,-576,-5760,5970,-1,-1,-1
177.32,-3.82,-44.21,-574,-5761,5977,-1,-1,-1
177.33,-3.82,-44.21,-566,-5754,5975,-1,-1,-1
177.32,-3.81,-44.21,-566,-5744,5973,-1,-1,-1
177.33,-3.81,-44.21,-553,-5748,5972,-1,-1,-1
177.33,-3.81,-44.21,-551,-5749,5968,-1,-1,0
177.33,-3.81,-44.21,-552,-5746,5960,-1,-1,0
177.32,-3.80,-44.21,-551,-5742,5967,-1,-1,0
177.32,-3.80,-44.22,-560,-5750,5967,-1,-1,0
177.32,-3.81,-44.23,-564,-5751,5974,-1,-1,-1
177.32,-3.81,-44.23,-568,-5758,5958,-1,-1,-1
177.32,-3.80,-44.23,-562,-5768,5954,-1,-1,0
177.31,-3.80,-44.24,-567,-5769,5952,-1,-1,-1
177.31,-3.80,-44.23,-562,-5763,5958,0,-1,-1
177.31,-3.80,-44.23,-575,-5771,5967,-1,-1,-1
177.31,-3.80,-44.23,-570,-5765,5969,-1,-1,-1
177.31,-3.80,-44.23,-572,-5760,5960,-1,-1,-1
177.32,-3.79,-44.22,-574,-5751,5971,-1,-1,-1
177.31,-3.79,-44.22,-564,-5756,5976,-1,-1,-1
177.31,-3.79,-44.22,-548,-5749,5965,-1,-1,-1
177.32,-3.78,-44.22,-548,-5746,5959,-1,-1,-1
177.32,-3.78,-44.22,-552,-5749,5958,-1,-1,-1
177.32,-3.78,-44.23,-555,-5759,5954,-1,-1,-1
177.32,-3.78,-44.23,-565,-5760,5964,-1,-1,0
177.32,-3.78,-44.23,-570,-5765,5966,-1,-1,-1
177.32,-3.78,-44.23,-568,-5766,5969,-1,0,-1
177.32,-3.78,-44.23,-568,-5761,5967,-1,-1,-1
177.32,-3.78,-44.23,-557,-5766,5965,-1,-1,-1
177.32,-3.78,-44.23,-559,-5763,5974,-1,-1,-1
177.32,-3.78,-44.23,-557,-5757,5966,-1,0,-1
177.32,-3.78,-44.23,-563,-5750,5977,-1,-1,-1
177.32,-3.78,-44.23,-558,-5745,5975,-1,0,-1
177.32,-3.78,-44.23,-562,-5747,5976,-1,-1,-1
177.32,-3.78,-44.23,-558,-5760,5969,-1,-1,-1
177.32,-3.77,-44.24,-560,-5761,5966,-1,-1,-1
177.32,-3.77,-44.23,-560,-5753,5973,-1,-1,0
177.32,-3.78,-44.24,-567,-5759,5967,-1,-1,0
177.31,-3.78,-44.25,-565,-5763,5970,-1,0,0
177.32,-3.77,-44.25,-556,-5772,5960,-1,-1,0
177.31,-3.78,-44.25,-548,-5758,5956,-1,-1,0
177.31,-3.78,-44.25,-547,-5758,5957,-1,0,0
177.30,-3.78,-44.25,-550,-5756,5967,-1,0,0
177.30,-3.79,-44.25,-556,-5752,5975,-1,-1,0
177.29,-3.79,-44.25,-573,-5757,5967,-1,0,-1
177.29,-3.79,-44.25,-582,-5757,5956,-1,-1,-1
177.29,-3.79,-44.25,-576,-5762,5946,-1,-1,0
177.29,-3.80,-44.25,-569,-5767,5945,0,-1,-1
177.29,-3.79,-44.24,-556,-5766,5961,0,-1,-1
177.29,-3.78,-44.23,-542,-5755,5970,0,-1,0
177.29,-3.78,-44.21,-542,-5736,5986,0,0,0
177.29,-3.79,-44.20,-553,-5736,5987,0,0,0
177.28,-3.79,-44.20,-558,-5731,5981,-1,0,0
177.28,-3.79,-44.20,-571,-5737,5985,-1,0,0
177.27,-3.80,-44.21,-576,-5754,5978,-1,-1,0
177.27,-3.80,-44.21,-576,-5772,5966,-1,-1,0
177.27,-3.80,-44.21,-569,-5772,5959,0,-1,0
177.27,-3.80,-44.20,-572,-5762,5955,0,0,-1
177.27,-3.81,-44.19,-575,-5754,5959,0,-1,-1
177.26,-3.81,-44.19,-567,-5754,5972,0,-1,-1
177.26,-3.81,-44.18,-574,-5759,5974,0,-1,-1
177.26,-3.81,-44.17,-561,-5755,5981,0,-1,-1
177.26,-3.80,-44.16,-555,-5748,5988,0,-1,-1
177.27,-3.80,-44.15,-551,-5739,5988,0,0,-1
177.27,-3.80,-44.14,-555,-5730,5990,-1,0,0
177.26,-3.81,-44.14,-566,-5735,5979,-1,-1,0
177.25,-3.82,-44.14,-564,-5739,5972,0,0,0
177.25,-3.82,-44.13,-567,-5751,5978,0,-1,-1
177.25,-3.82,-44.13,-561,-5747,5974,-1,0,-1
177.24,-3.83,-44.12,-571,-5752,5968,0,0,0
177.24,-3.83,-44.12,-572,-5752,5964,0,0,0
177.24,-3.83,-44.11,-579,-5752,5961,0,-1,0
177.24,-3.83,-44.10,-572,-5754,5965,0,-1,0
177.24,-3.84,-44.09,-573,-5743,5977,0,0,-1
177.24,-3.84,-44.08,-567,-5742,5982,0,0,0
177.24,-3.84,-44.07,-555,-5729,5986,0,0,0
177.23,-3.86,-44.06,-560,-5730,5999,-1,0,0
177.23,-3.86,-44.06,-573,-5742,5997,-1,0,0
177.23,-3.87,-44.06,-569,-5738,5988,0,0,0
177.22,-3.88,-44.06,-578,-5742,5978,-1,0,0
177.22,-3.89,-44.06,-568,-5741,5982,-1,0,0
177.22,-3.90,-44.05,-586,-5739,5991,-1,0,0
177.22,-3.90,-44.05,-581,-5748,5982,0,0,-1
177.21,-3.91,-44.03,-578,-5733,5986,0,0,0
177.21,-3.91,-44.03,-580,-5732,5981,-1,0,0
177.20,-3.92,-44.03,-577,-5734,5992,-1,-1,0
177.20,-3.92,-44.03,-574,-5731,5997,-1,0,0
177.19,-3.92,-44.03,-581,-5723,5987,-1,-1,0
177.19,-3.92,-44.03,-587,-5726,5975,-1,-1,0
177.18,-3.93,-44.03,-594,-5742,5975,-1,-1,-1
177.18,-3.92,-44.02,-583,-5744,5974,0,-1,-1
177.18,-3.92,-44.01,-589,-5744,5979,0,-1,-1
177.18,-3.92,-44.00,-588,-5730,5979,0,-1,0
177.18,-3.91,-43.99,-577,-5726,5987,0,-1,0
177.18,-3.91,-43.98,-568,-5721,5992,0,-1,0
177.18,-3.91,-43.97,-567,-5718,5997,0,-1,0
177.17,-3.91,-43.97,-566,-5710,6006,-1,0,0
177.16,-3.92,-43.97,-581,-5716,6001,-1,0,0
177.16,-3.92,-43.97,-587,-5724,6006,-1,0,0
177.15,-3.93,-43.97,-595,-5730,6005,-1,-1,0
177.15,-3.93,-43.97,-595,-5731,5989,-1,-1,-1
177.15,-3.92,-43.98,-594,-5737,5983,-1,-1,-1
177.15,-3.92,-43.98,-589,-5741,5978,-1,-1,0
177.14,-3.92,-43.97,-585,-5744,5980,0,-1,-1
177.15,-3.91,-43.97,-581,-5735,5985,0,-1,-1
177.15,-3.90,-43.96,-574,-5728,5990,0,-1,-1
177.15,-3.90,-43.96,-573,-5723,5995,-1,-1,-1
177.15,-3.89,-43.96,-567,-5725,6000,-1,-1,-1
177.15,-3.89,-43.96,-574,-5713,6002,-1,-1,0
177.15,-3.89,-43.96,-571,-5713,5990,-1,-1,-1
177.15,-3.88,-43.96,-565,-5715,5992,-1,-1,-1
177.15,-3.88,-43.96,-571,-5724,6000,-1,-1,-1
177.15,-3.88,-43.96,-584,-5733,5999,-1,-1,-1
177.15,-3.88,-43.96,-586,-5738,5986,-1,-1,-1
177.15,-3.87,-43.96,-590,-5738,5986,0,-1,-1
177.14,-3.87,-43.95,-581,-5738,5991,-1,-1,-1
177.15,-3.86,-43.95,-568,-5732,5993,-1,-1,-1
177.15,-3.85,-43.95,-551,-5726,5989,-1,-1,0
177.15,-3.85,-43.95,-551,-5713,6004,-1,0,0
177.15,-3.85,-43.96,-559,-5716,6002,-1,-1,0
177.15,-3.85,-43.97,-572,-5721,6003,-1,-1,0
177.14,-3.85,-43.98,-566,-5734,5988,-1,-1,-1
177.15,-3.84,-43.99,-567,-5736,5981,-1,-1,-1
177.14,-3.85,-43.99,-565,-5739,5980,-1,-1,0
177.14,-3.84,-44.00,-568,-5730,5988,-1,-1,0
177.14,-3.84,-44.00,-574,-5723,5975,-1,-1,0
177.13,-3.84,-44.01,-575,-5729,5985,-1,-1,0
177.13,-3.84,-44.01,-573,-5739,5986,-1,-1,-1
177.13,-3.84,-44.02,-571,-5743,5984,-1,-1,-1
177.13,-3.84,-44.02,-567,-5732,5986,-1,-1,-1
177.14,-3.83,-44.03,-560,-5721,5986,-1,-1,0
177.13,-3.83,-44.04,-561,-5726,5991,-1,-1,0
177.13,-3.83,-44.04,-564,-5733,5981,-1,0,0
177.13,-3.84,-44.05,-582,-5743,5986,-1,-1,-1
177.12,-3.84,-44.05,-582,-5740,5990,-1,-1,-1
177.13,-3.83,-44.06,-587,-5746,5993,-1,-1,-1
177.13,-3.83,-44.06,-582,-5740,5988,-1,-1,-1
177.13,-3.83,-44.06,-572,-5736,5984,-1,-1,-1
177.13,-3.82,-44.07,-564,-5735,5971,-1,-1,-1
177.13,-3.82,-44.07,-553,-5738,5988,-1,-1,-1
177.13,-3.82,-44.07,-556,-5731,5991,-1,-1,0
177.13,-3.82,-44.07,-554,-5735,5995,-1,-1,0
177.12,-3.82,-44.07,-558,-5736,5989,-1,0,0
177.12,-3.83,-44.08,-569,-5738,5992,-1,-1,0
177.12,-3.83,-44.09,-575,-5740,5979,-1,-1,-1
177.11,-3.83,-44.10,-577,-5751,5973,-1,-1,-1
177.11,-3.83,-44.10,-576,-5750,5971,-1,-1,-1
177.12,-3.82,-44.11,-570,-5754,5967,-1,-1,-1
177.12,-3.82,-44.10,-572,-5753,5977,0,-1,-1
177.12,-3.82,-44.10,-572,-5748,5973,0,0,-1
177.12,-3.82,-44.09,-572,-5740,5985,-1,-1,-1
177.12,-3.83,-44.09,-568,-5738,5984,-1,0,-1
177.12,-3.82,-44.09,-560,-5735,5987,-1,-1,-1
177.12,-3.82,-44.09,-558,-5730,5989,-1,-1,-1
177.12,-3.82,-44.09,-554,-5730,5994,-1,-1,0
177.12,-3.82,-44.09,-558,-5720,5986,-1,0,0
177.11,-3.83,-44.09,-567,-5726,5974,-1,0,-1
177.12,-3.83,-44.09,-563,-5734,5965,-1,0,0
177.11,-3.84,-44.09,-569,-5741,5974,-1,-1,-1
177.11,-3.84,-44.09,-566,-5749,5980,-1,-1,-1
177.12,-3.83,-44.09,-575,-5752,5972,-1,-1,-1
177.12,-3.83,-44.08,-572,-5747,5972,0,-1,-1
177.12,-3.83,-44.07,-559,-5747,5977,0,-1,-1
177.12,-3.83,-44.07,-552,-5738,5986,-1,-1,-1
177.12,-3.82,-44.07,-548,-5739,5987,-1,-1,-1
177.12,-3.82,-44.07,-549,-5738,5986,-1,0,0
177.12,-3.83,-44.07,-552,-5739,5990,-1,0,0
177.12,-3.83,-44.07,-555,-5738,5994,-1,-1,-1
177.12,-3.83,-44.07,-558,-5743,5988,-1,0,-1
177.12,-3.83,-44.07,-557,-5748,5970,-1,0,-1
177.12,-3.83,-44.07,-566,-5749,5978,-1,-1,0
177.12,-3.83,-44.07,-563,-5749,5982,-1,0,0
177.11,-3.83,-44.06,-561,-5741,5976,-1,0,0
177.11,-3.83,-44.06,-565,-5741,5979,-1,-1,-1
177.12,-3.83,-44.07,-563,-5747,5978,-1,0,-1
177.12,-3.83,-44.06,-562,-5745,5978,0,-1,-1
177.11,-3.83,-44.05,-557,-5740,5979,0,-1,0
177.11,-3.83,-44.05,-553,-5739,5981,-1,-1,0
177.11,-3.83,-44.05,-560,-5743,5983,-1,0,0
177.11,-3.84,-44.05,-566,-5745,5988,-1,0,-1
177.11,-3.84,-44.04,-567,-5742,5986,-1,0,0
177.11,-3.84,-44.05,-576,-5746,5978,-1,0,-1
177.11,-3.84,-44.05,-575,-5753,5973,-1,0,-1
177.11,-3.84,-44.04,-566,-5753,5975,0,0,-1
177.11,-3.84,-44.04,-563,-5753,5980,0,-1,-1
177.11,-3.83,-44.03,-555,-5749,5980,0,-1,-1
177.11,-3.83,-44.03,-558,-5743,5976,0,-1,-1
177.12,-3.83,-44.03,-548,-5733,5975,-1,-1,0
177.12,-3.83,-44.03,-548,-5735,5973,-1,0,0
177.12,-3.83,-44.03,-556,-5743,5976,-1,0,-1
177.12,-3.83,-44.03,-553,-5742,5972,-1,0,0
177.12,-3.83,-44.03,-558,-5743,5966,-1,0,0
177.11,-3.83,-44.03,-561,-5753,5967,-1,0,0
177.11,-3.84,-44.03,-569,-5754,5983,-1,-1,-1
177.11,-3.84,-44.03,-571,-5751,5979,-1,-1,-1
177.11,-3.84,-44.03,-572,-5752,5976,0,0,-1
177.11,-3.84,-44.02,-574,-5756,5978,0,-1,-1
177.11,-3.84,-44.02,-575,-5757,5973,0,-1,-1
177.11,-3.84,-44.01,-565,-5758,5970,0,-1,-1
177.12,-3.83,-44.01,-554,-5750,5976,0,-1,-1
177.12,-3.83,-44.01,-552,-5745,5989,-1,0,-1
177.12,-3.83,-44.01,-551,-5738,5989,-1,0,-1
177.12,-3.83,-44.01,-557,-5740,5978,-1,0,-1
177.12,-3.83,-44.01,-558,-5739,5988,-1,0,-1
177.12,-3.83,-44.01,-565,-5751,5979,-1,0,-1
177.12,-3.84,-44.01,-565,-5754,5971,-1,0,-1
177.12,-3.84,-44.01,-566,-5754,5977,0,0,-1
177.12,-3.84,-44.00,-569,-5757,5973,0,0,-1
177.12,-3.84,-44.00,-571,-5756,5970,0,-1,-1
177.12,-3.84,-44.00,-561,-5744,5975,-1,-1,0
177.12,-3.84,-43.99,-561,-5740,5983,-1,0,0
177.12,-3.84,-43.99,-549,-5739,5972,-1,0,0
177.11,-3.85,-43.99,-553,-5738,5988,-1,0,0
177.11,-3.85,-44.00,-554,-5751,5984,-1,0,0
177.11,-3.85,-44.00,-558,-5755,5977,-1,0,0
177.11,-3.86,-44.00,-566,-5756,5964,-1,0,0
177.11,-3.86,-44.00,-568,-5758,5964,-1,-1,0
177.10,-3.86,-44.00,-573,-5762,5961,0,-1,0
177.10,-3.86,-43.99,-564,-5747,5967,0,0,0
177.10,-3.86,-43.98,-564,-5741,5961,0,0,0
177.09,-3.87,-43.98,-559,-5746,5967,0,0,0
177.10,-3.87,-43.97,-561,-5744,5975,0,0,-1
177.10,-3.87,-43.96,-563,-5732,5984,0,-1,0
177.09,-3.87,-43.96,-558,-5734,5990,-1,0,0
177.09,-3.88,-43.96,-564,-5742,5982,-1,0,0
177.09,-3.88,-43.95,-568,-5753,5979,0,0,0
177.09,-3.88,-43.95,-576,-5753,5978,0,0,0
177.09,-3.89,-43.95,-569,-5747,5976,0,0,-1
177.09,-3.89,-43.94,-560,-5748,5973,0,0,-1
177.10,-3.88,-43.94,-559,-5749,5970,0,-1,-1
177.10,-3.88,-43.93,-553,-5745,5969,0,0,-1
177.10,-3.88,-43.92,-553,-5739,5983,0,0,0
177.10,-3.88,-43.92,-545,-5741,5995,0,0,0
177.10,-3.88,-43.91,-554,-5735,5988,0,0,0
177.09,-3.89,-43.91,-547,-5744,5989,-1,0,0
177.09,-3.89,-43.90,-554,-5746,5980,0,0,0
177.09,-3.89,-43.90,-559,-5741,5971,0,0,0
177.09,-3.90,-43.90,-566,-5744,5970,0,0,-1
177.09,-3.89,-43.89,-563,-5747,5976,0,-1,-1
177.09,-3.90,-43.89,-574,-5752,5977,0,0,-1
177.09,-3.90,-43.88,-574,-5751,5980,0,0,-1
177.09,-3.90,-43.87,-576,-5748,5975,0,-1,0
177.09,-3.90,-43.86,-574,-5750,5981,0,-1,-1
177.09,-3.90,-43.85,-562,-5747,5978,0,-1,-1
177.09,-3.90,-43.84,-551,-5734,5980,0,0,-1
177.09,-3.90,-43.82,-555,-5723,5994,0,0,0
177.09,-3.90,-43.82,-555,-5729,5996,0,0,0
177.08,-3.91,-43.82,-562,-5730,5997,-1,0,0
177.08,-3.91,-43.82,-564,-5736,5978,-1,0,0
177.08,-3.92,-43.82,-570,-5728,5978,0,0,0
177.08,-3.92,-43.82,-579,-5731,5982,0,0,0
177.08,-3.92,-43.82,-577,-5739,5980,0,0,0
177.07,-3.93,-43.81,-574,-5737,5981,0,0,0
177.07,-3.93,-43.80,-575,-5735,5978,0,0,0
177.07,-3.93,-43.80,-569,-5733,5978,0,0,0
177.07,-3.94,-43.79,-574,-5733,5985,0,0,0
177.07,-3.94,-43.78,-571,-5732,5992,0,-1,0
177.06,-3.94,-43.77,-566,-5724,5992,0,0,0
177.06,-3.94,-43.77,-564,-5726,5990,0,0,0
177.06,-3.95,-43.76,-559,-5723,5981,0,0,0
177.06,-3.95,-43.76,-563,-5725,5989,0,0,0
177.05,-3.96,-43.76,-569,-5734,5993,0,0,0
177.05,-3.96,-43.76,-582,-5741,5991,0,0,-1
177.05,-3.96,-43.75,-581,-5729,5991,0,0,0
177.05,-3.96,-43.74,-572,-5719,5991,0,-1,0
177.05,-3.96,-43.74,-565,-5720,5990,0,-1,0
177.04,-3.96,-43.73,-567,-5720,5992,0,0,0
177.04,-3.97,-43.72,-579,-5727,5994,0,0,0
177.03,-3.98,-43.72,-581,-5726,5995,0,0,0
177.03,-3.98,-43.71,-587,-5722,6008,0,0,0
177.03,-3.98,-43.71,-597,-5731,6009,-1,-1,-1
177.03,-3.98,-43.71,-593,-5733,6003,0,-1,-1
177.03,-3.98,-43.70,-581,-5723,5998,0,-1,-1
177.03,-3.97,-43.70,-572,-5716,5992,0,-1,0
177.03,-3.97,-43.70,-570,-5710,5988,0,-1,0
177.03,-3.97,-43.70,-573,-5714,5988,0,-1,0
177.03,-3.97,-43.69,-570,-5712,5997,0,-1,0
177.03,-3.97,-43.69,-580,-5716,6010,0,0,0
177.03,-3.97,-43.68,-576,-5715,6011,-1,-1,-1
177.03,-3.97,-43.69,-575,-5714,6004,-1,-1,-1
177.03,-3.96,-43.69,-579,-5720,6001,-1,0,-1
177.03,-3.97,-43.69,-575,-5718,5984,0,0,-1
177.03,-3.96,-43.69,-586,-5726,5992,0,-1,-1
177.03,-3.96,-43.68,-587,-5730,5999,0,-1,-1
177.04,-3.95,-43.68,-586,-5727,5990,0,-1,-1
177.04,-3.95,-43.68,-578,-5723,5998,0,-1,-1
177.04,-3.94,-43.67,-572,-5712,6002,-1,-1,-1
177.04,-3.94,-43.67,-564,-5709,6007,-1,-1,-1
177.04,-3.93,-43.67,-555,-5712,6008,-1,0,-1
177.05,-3.94,-43.68,-567,-5710,5992,-1,0,0
177.04,-3.94,-43.68,-556,-5726,5986,-1,0,0
177.04,-3.94,-43.68,-554,-5721,5983,-1,0,0
177.03,-3.96,-43.68,-569,-5716,5996,-1,0,0
177.03,-3.97,-43.68,-579,-5713,6002,-1,0,0
177.02,-3.98,-43.68,-575,-5730,5994,0,0,0
177.03,-3.99,-43.68,-570,-5721,6008,-1,0,0
177.03,-3.99,-43.69,-570,-5718,5987,-1,0,0
177.03,-4.00,-43.69,-555,-5706,6001,-1,0,0
177.03,-4.01,-43.70,-559,-5718,5999,-1,0,0
177.03,-4.02,-43.71,-564,-5718,6008,-1,0,0
177.03,-4.04,-43.72,-567,-5733,6004,-1,0,-1
177.02,-4.05,-43.73,-582,-5730,5998,-1,0,0
177.02,-4.06,-43.75,-597,-5717,5983,-1,0,0
177.02,-4.07,-43.75,-595,-5720,5978,-1,0,-1
177.02,-4.07,-43.77,-588,-5723,5982,-1,0,0
177.02,-4.07,-43.78,-593,-5753,5973,0,0,-1
177.02,-4.07,-43.78,-593,-5762,5987,-1,-1,-1
177.02,-4.06,-43.78,-593,-5751,5976,0,0,-1
177.03,-4.05,-43.78,-597,-5738,5998,-1,-1,-1
177.03,-4.05,-43.78,-589,-5727,5973,-1,-1,-1
177.03,-4.04,-43.77,-596,-5714,5987,-1,-1,-1
177.03,-4.02,-43.79,-578,-5720,5980,-1,-1,-1
177.04,-4.00,-43.79,-562,-5722,5979,-1,-1,-1
177.04,-4.00,-43.80,-562,-5737,5988,-1,-1,-1
177.04,-3.99,-43.80,-558,-5741,5991,-1,-1,-1
177.05,-3.98,-43.80,-553,-5732,5993,-1,0,-1
177.04,-3.99,-43.80,-561,-5722,5987,-1,0,-1
177.04,-4.00,-43.81,-577,-5722,5985,-1,-1,0
177.04,-4.00,-43.81,-588,-5729,5987,-1,-1,-1
177.04,-3.99,-43.83,-587,-5743,5981,-1,-1,-1
177.04,-3.99,-43.83,-602,-5760,5973,-1,-1,-1
177.04,-3.98,-43.83,-588,-5759,5981,0,-1,0
177.04,-3.97,-43.83,-577,-5750,5982,0,-1,-1
177.05,-3.97,-43.82,-571,-5740,5974,0,-1,-1
177.05,-3.96,-43.81,-566,-5728,5977,0,-1,-1
177.05,-3.95,-43.81,-567,-5719,5988,-1,-1,0
177.05,-3.96,-43.81,-566,-5723,5991,-1,-1,-1
177.05,-3.95,-43.82,-554,-5725,5991,-1,0,0
177.05,-3.95,-43.82,-564,-5744,5992,-1,-1,0
177.05,-3.94,-43.83,-567,-5747,5990,-1,-1,-1
177.05,-3.95,-43.83,-573,-5747,5980,-1,0,0
177.05,-3.94,-43.84,-576,-5738,5972,-1,-1,-1
177.05,-3.94,-43.84,-574,-5740,5974,0,-1,-1
177.05,-3.94,-43.83,-566,-5747,5992,0,-1,-1
177.06,-3.93,-43.83,-564,-5745,5999,0,-1,-1
177.06,-3.93,-43.83,-563,-5747,5992,0,0,-1
177.06,-3.92,-43.83,-557,-5738,5978,-1,-1,-1
177.06,-3.92,-43.83,-566,-5731,5984,-1,-1,-1
177.06,-3.92,-43.83,-568,-5729,5988,-1,-1,-1
177.06,-3.92,-43.85,-561,-5736,5978,-1,0,-1
177.07,-3.92,-43.86,-570,-5749,5978,-1,-1,-1
177.07,-3.91,-43.86,-557,-5753,5978,-1,-1,-1
177.06,-3.92,-43.85,-554,-5749,5969,0,-1,0
177.06,-3.91,-43.85,-556,-5748,5971,-1,-1,0
177.06,-3.91,-43.85,-557,-5739,5981,0,0,0
177.06,-3.91,-43.85,-561,-5734,5976,-1,0,0
177.06,-3.91,-43.85,-562,-5739,5981,-1,0,-1
177.06,-3.91,-43.85,-567,-5739,5984,-1,-1,-1
177.07,-3.91,-43.85,-570,-5742,5977,-1,-1,-1
177.07,-3.90,-43.85,-566,-5741,5975,-1,-1,-1
177.07,-3.90,-43.85,-560,-5736,5978,-1,-1,-1
177.08,-3.90,-43.86,-554,-5741,5975,0,-1,-1
177.08,-3.90,-43.85,-544,-5726,5982,0,0,0
177.07,-3.90,-43.85,-560,-5736,5986,-1,-1,0
177.07,-3.90,-43.86,-560,-5741,5974,-1,-1,-1
177.07,-3.90,-43.86,-567,-5743,5972,-1,0,-1
177.07,-3.90,-43.87,-572,-5743,5972,-1,-1,0
177.07,-3.90,-43.87,-565,-5753,5970,-1,-1,-1
177.07,-3.89,-43.87,-556,-5748,5973,0,0,-1
177.08,-3.89,-43.87,-556,-5751,5975,0,-1,-1
177.08,-3.89,-43.86,-557,-5747,5971,0,0,-1
177.08,-3.89,-43.86,-560,-5742,5969,-1,-1,0
177.08,-3.89,-43.85,-564,-5734,5987,0,-1,-1
177.08,-3.89,-43.85,-567,-5735,5992,-1,-1,-1
177.08,-3.88,-43.85,-560,-5734,5988,-1,0,-1
177.08,-3.88,-43.85,-559,-5731,5988,-1,-1,-1
177.08,-3.88,-43.86,-561,-5735,5978,-1,-1,0
177.08,-3.88,-43.86,-552,-5737,5974,-1,0,-1
177.08,-3.88,-43.86,-553,-5741,5973,-1,0,-1
177.09,-3.88,-43.86,-554,-5747,5978,0,-1,-1
177.09,-3.88,-43.86,-557,-5747,5982,0,0,-1
177.09,-3.87,-43.86,-553,-5745,5981,0,-1,-1
177.09,-3.87,-43.85,-561,-5742,5987,0,-1,-1
177.10,-3.87,-43.86,-556,-5744,5981,0,-1,-1
177.10,-3.87,-43.86,-551,-5741,5981,0,0,-1
177.10,-3.87,-43.85,-549,-5745,5994,-1,0,-1
177.10,-3.87,-43.85,-552,-5741,5990,-1,0,-1
177.11,-3.86,-43.85,-547,-5739,5981,-1,0,-1
177.11,-3.86,-43.86,-541,-5730,5979,-1,0,0
177.11,-3.87,-43.86,-555,-5728,5982,-1,0,-1
177.11,-3.87,-43.86,-553,-5740,5979,0,0,0
177.11,-3.87,-43.86,-557,-5740,5988,-1,0,0
177.10,-3.87,-43.86,-556,-5740,5985,-1,0,0
177.10,-3.87,-43.86,-560,-5744,5982,-1,0,0
177.10,-3.88,-43.87,-560,-5758,5973,0,0,0
177.10,-3.88,-43.87,-555,-5760,5964,0,0,0
177.10,-3.88,-43.86,-558,-5745,5977,0,0,-1
177.10,-3.88,-43.86,-552,-5743,5989,0,0,0
177.10,-3.89,-43.86,-561,-5736,5975,0,0,0
177.09,-3.90,-43.85,-568,-5738,5973,0,0,0
177.09,-3.91,-43.85,-573,-5741,5988,0,0,0
177.08,-3.91,-43.85,-575,-5741,5990,-1,0,-1
177.08,-3.91,-43.85,-574,-5746,5985,-1,0,-1
177.08,-3.91,-43.85,-576,-5749,5971,0,-1,0
177.08,-3.91,-43.85,-567,-5758,5972,0,-1,0
177.09,-3.91,-43.84,-554,-5752,5976,0,-1,0
177.09,-3.91,-43.83,-546,-5740,5976,0,0,0
177.09,-3.90,-43.82,-548,-5728,5984,0,0,0
177.09,-3.91,-43.82,-552,-5729,5985,0,0,0
177.09,-3.91,-43.82,-559,-5732,5984,-1,0,0
177.08,-3.92,-43.82,-559,-5744,5985,0,0,0
177.08,-3.92,-43.81,-570,-5744,5983,0,0,-1
177.08,-3.92,-43.81,-571,-5744,5982,0,0,0
177.08,-3.93,-43.81,-562,-5740,5981,0,0,0
177.08,-3.93,-43.80,-565,-5742,5977,0,0,0
177.08,-3.93,-43.80,-569,-5739,5992,0,0,0
177.08,-3.93,-43.78,-574,-5740,5996,0,-1,-1
177.09,-3.93,-43.77,-575,-5744,5991,0,0,-1
177.09,-3.93,-43.77,-577,-5738,5977,0,0,0
177.09,-3.93,-43.77,-564,-5730,5982,0,-1,0
177.08,-3.93,-43.76,-567,-5731,5986,0,-1,0
177.08,-3.93,-43.75,-570,-5728,5997,0,0,0
177.08,-3.94,-43.74,-563,-5725,5985,0,0,0
177.08,-3.94,-43.74,-571,-5717,5989,-1,0,0
177.08,-3.94,-43.74,-564,-5736,5992,0,0,0
177.08,-3.95,-43.74,-570,-5742,5992,0,0,0
177.08,-3.96,-43.74,-574,-5741,5999,-1,0,-1
177.08,-3.96,-43.74,-571,-5732,5989,0,0,0
177.07,-3.96,-43.72,-581,-5722,5998,0,0,0
177.07,-3.96,-43.71,-568,-5730,5999,0,0,0
177.08,-3.97,-43.70,-575,-5720,6011,0,0,-1
177.08,-3.97,-43.70,-566,-5723,6003,0,0,0
177.08,-3.97,-43.69,-569,-5716,6005,0,0,-1
177.08,-3.97,-43.70,-572,-5726,5987,0,-1,0
177.08,-3.97,-43.70,-569,-5728,5988,0,0,0
177.08,-3.97,-43.69,-573,-5725,5988,0,0,0
177.07,-3.98,-43.69,-571,-5741,5998,0,0,0
177.07,-3.98,-43.68,-568,-5726,5986,0,0,0
177.07,-3.98,-43.68,-578,-5728,5999,0,-1,0
177.07,-3.98,-43.68,-574,-5735,6009,0,0,-1
177.07,-3.99,-43.68,-585,-5748,5998,0,0,-1
177.07,-3.99,-43.67,-583,-5732,5991,0,-1,0
177.06,-3.99,-43.66,-566,-5721,5989,0,-1,0
177.07,-3.98,-43.66,-557,-5721,5986,0,0,0
177.06,-3.99,-43.65,-565,-5717,6000,0,0,0
177.06,-3.99,-43.65,-574,-5720,5998,0,0,0
177.06,-4.00,-43.65,-582,-5722,5990,0,0,0
177.06,-4.01,-43.64,-601,-5723,6001,0,0,0
177.06,-4.01,-43.64,-594,-5723,6003,0,-1,-1
177.06,-4.01,-43.63,-591,-5726,5998,0,-1,-1
177.05,-4.00,-43.63,-583,-5721,5999,0,-1,-1
177.06,-3.99,-43.62,-575,-5713,5998,0,-1,0
177.06,-3.99,-43.62,-572,-5710,5998,0,-1,0
177.06,-3.98,-43.61,-574,-5710,5998,0,-1,0
177.05,-3.98,-43.61,-563,-5708,6001,-1,-1,0
177.05,-3.98,-43.61,-574,-5712,6005,-1,-1,0
177.05,-3.98,-43.61,-574,-5711,6011,-1,-1,0
177.05,-3.97,-43.61,-572,-5708,6010,-1,-1,-1
177.05,-3.97,-43.61,-571,-5706,5996,-1,-1,0
177.05,-3.97,-43.61,-577,-5716,6000,0,-1,-1
177.05,-3.97,-43.61,-576,-5718,6008,0,-1,-1
177.05,-3.97,-43.61,-592,-5725,6004,0,-1,-1
177.05,-3.97,-43.61,-590,-5720,6010,0,-1,-1
177.06,-3.96,-43.60,-586,-5721,6008,0,-1,-1
177.06,-3.95,-43.60,-570,-5708,6005,0,-1,-1
177.06,-3.95,-43.59,-566,-5704,6013,-1,-1,-1
177.06,-3.94,-43.59,-560,-5695,6012,-1,-1,0
177.06,-3.94,-43.60,-563,-5692,6002,-1,-1,0
177.06,-3.94,-43.61,-569,-5706,6007,-1,0,0
177.06,-3.94,-43.61,-569,-5714,6001,-1,-1,-1
177.05,-3.95,-43.62,-575,-5715,6003,-1,0,0
177.05,-3.95,-43.63,-572,-5725,5998,-1,-1,0
177.05,-3.95,-43.63,-578,-5728,6002,-1,-1,0
177.05,-3.95,-43.64,-579,-5730,5994,-1,-1,-1
177.05,-3.95,-43.64,-567,-5726,5997,-1,-1,-1
177.05,-3.94,-43.63,-559,-5719,6006,-1,-1,-1
177.05,-3.94,-43.64,-556,-5720,6005,-1,0,-1
177.05,-3.94,-43.64,-564,-5717,6005,-1,-1,-1
177.05,-3.94,-43.64,-566,-5719,6006,-1,0,-1
177.05,-3.93,-43.65,-557,-5712,6002,-1,0,0
177.05,-3.94,-43.66,-561,-5706,5995,-1,0,0
177.06,-3.94,-43.67,-562,-5716,5991,-1,0,-1
177.06,-3.94,-43.67,-569,-5735,6000,-1,-1,-1
177.06,-3.94,-43.67,-569,-5734,5999,0,-1,-1
177.06,-3.93,-43.67,-566,-5731,5996,-1,-1,-1
177.06,-3.93,-43.67,-570,-5722,5993,-1,-1,-1
177.06,-3.93,-43.68,-567,-5724,5996,-1,-1,0
177.06,-3.93,-43.67,-567,-5722,6002,-1,0,-1
177.06,-3.93,-43.68,-569,-5727,6002,-1,0,-1
177.06,-3.93,-43.69,-567,-5728,5992,-1,-1,-1
177.07,-3.93,-43.69,-567,-5727,6001,-1,0,-1
177.07,-3.92,-43.70,-568,-5729,5993,-1,-1,-1
177.07,-3.92,-43.70,-563,-5727,6004,-1,-1,-1
177.07,-3.91,-43.70,-560,-5727,6007,-1,-1,-1
177.07,-3.91,-43.70,-557,-5723,6000,-1,-1,-1
177.07,-3.91,-43.70,-555,-5726,5999,-1,-1,-1
177.07,-3.91,-43.70,-553,-5718,6004,-1,0,0
177.07,-3.91,-43.70,-562,-5714,6006,-1,0,-1
177.07,-3.91,-43.71,-570,-5718,6000,-1,0,0
177.07,-3.92,-43.71,-575,-5723,5997,-1,0,0
177.07,-3.92,-43.72,-576,-5727,5997,-1,0,-1
177.07,-3.92,-43.73,-577,-5737,5995,-1,0,-1
177.07,-3.92,-43.72,-579,-5733,5999,-1,-1,-1
177.07,-3.92,-43.72,-574,-5727,6006,-1,-1,-1
177.07,-3.92,-43.72,-562,-5729,6007,0,-1,-1
177.08,-3.91,-43.72,-564,-5729,5999,-1,-1,0
177.08,-3.91,-43.72,-558,-5721,5988,-1,-1,0
177.08,-3.91,-43.72,-556,-5730,5993,-1,-1,-1
177.08,-3.91,-43.73,-556,-5724,5990,-1,-1,-1
177.08,-3.91,-43.73,-565,-5727,5988,-1,0,-1
177.08,-3.91,-43.74,-563,-5724,5983,-1,-1,-1
177.08,-3.91,-43.74,-562,-5725,5977,-1,0,-1
177.08,-3.91,-43.74,-555,-5735,5983,-1,-1,-1
177.08,-3.91,-43.75,-559,-5739,5978,0,-1,-1
177.09,-3.90,-43.74,-558,-5738,5979,0,-1,-1
177.09,-3.90,-43.74,-558,-5730,5982,-1,-1,-1
177.09,-3.90,-43.74,-553,-5733,5985,0,0,-1
177.09,-3.90,-43.74,-561,-5731,5989,-1,-1,-1
177.09,-3.89,-43.74,-564,-5723,5987,-1,-1,0
177.09,-3.90,-43.75,-562,-5725,5986,-1,0,0
177.09,-3.90,-43.76,-563,-5741,5989,-1,0,-1
177.09,-3.90,-43.76,-567,-5742,5978,-1,0,-1
177.09,-3.90,-43.77,-559,-5734,5981,-1,-1,-1
177.09,-3.89,-43.77,-552,-5732,5979,-1,-1,0
177.09,-3.89,-43.77,-558,-5734,5979,-1,-1,0
177.08,-3.89,-43.77,-564,-5740,5971,-1,-1,0
177.08,-3.89,-43.77,-569,-5741,5986,0,0,-1
177.08,-3.89,-43.77,-576,-5745,5990,-1,0,0
177.08,-3.90,-43.78,-576,-5739,5991,-1,-1,-1
177.08,-3.89,-43.78,-576,-5742,5979,-1,-1,-1
177.08,-3.89,-43.78,-565,-5741,5979,-1,0,-1
177.09,-3.89,-43.79,-550,-5737,5982,-1,0,0
177.09,-3.88,-43.78,-548,-5730,5988,-1,0,-1
177.09,-3.88,-43.78,-554,-5728,5993,-1,0,0
177.09,-3.88,-43.78,-553,-5731,5996,-1,-1,0
177.09,-3.88,-43.78,-554,-5730,5993,-1,-1,-1
177.09,-3.88,-43.79,-564,-5731,5978,-1,-1,-1
177.09,-3.88,-43.79,-563,-5732,5980,-1,-1,-1
177.10,-3.87,-43.79,-556,-5734,5980,-1,-1,-1
177.10,-3.87,-43.79,-555,-5733,5982,0,-1,-1
177.10,-3.87,-43.78,-563,-5733,5983,0,-1,-1
177.10,-3.87,-43.78,-568,-5729,5978,0,-1,-1
177.10,-3.87,-43.78,-567,-5734,5978,0,0,-1
177.10,-3.87,-43.77,-564,-5734,5987,0,-1,-1
177.11,-3.86,-43.77,-559,-5733,5989,0,-1,-1
177.11,-3.86,-43.77,-563,-5733,5994,0,-1,-1
177.11,-3.86,-43.76,-550,-5732,6000,-1,-1,-1
177.11,-3.86,-43.77,-546,-5733,6000,-1,0,-1
177.11,-3.86,-43.77,-547,-5729,5994,-1,0,-1
177.11,-3.86,-43.77,-551,-5734,5992,-1,0,0
177.11,-3.86,-43.77,-559,-5737,5995,-1,0,-1
177.11,-3.86,-43.78,-563,-5741,5987,-1,0,0
177.10,-3.87,-43.78,-569,-5744,6001,0,0,0
177.10,-3.87,-43.78,-563,-5747,5988,0,0,0
177.10,-3.87,-43.78,-558,-5739,5989,0,0,0
177.10,-3.88,-43.77,-552,-5733,5988,0,0,0
177.10,-3.88,-43.77,-551,-5732,5986,0,0,0
177.10,-3.88,-43.77,-558,-5732,5995,0,0,0
177.09,-3.89,-43.77,-560,-5733,5984,-1,0,0
177.08,-3.89,-43.78,-555,-5730,5983,-1,0,0
177.09,-3.90,-43.78,-566,-5747,5978,0,0,-1
177.09,-3.90,-43.78,-558,-5747,5970,0,0,-1
177.09,-3.90,-43.77,-557,-5744,5986,0,-1,0
177.09,-3.89,-43.76,-555,-5741,5987,0,-1,0
177.09,-3.90,-43.76,-563,-5735,5987,0,0,0
177.09,-3.90,-43.76,-562,-5729,5993,0,0,0
177.09,-3.90,-43.75,-567,-5730,5988,0,0,0
177.09,-3.90,-43.74,-566,-5732,5993,0,0,-1
177.09,-3.90,-43.73,-563,-5734,5991,0,-1,-1
177.09,-3.90,-43.72,-553,-5725,5987,0,0,-1
177.09,-3.91,-43.72,-560,-5734,5979,0,0,0
177.09,-3.91,-43.71,-555,-5729,5985,0,-1,0
177.09,-3.91,-43.70,-559,-5720,5995,0,0,0
177.09,-3.91,-43.70,-559,-5722,5987,0,0,0
177.09,-3.92,-43.70,-557,-5722,5994,0,0,0
177.08,-3.93,-43.69,-556,-5729,5999,0,0,0
177.09,-3.93,-43.69,-560,-5735,6000,0,0,-1
177.09,-3.94,-43.68,-561,-5735,5991,0,0,0
177.08,-3.95,-43.67,-576,-5736,6011,0,0,0
177.08,-3.97,-43.67,-563,-5747,6000,0,0,0
177.07,-3.99,-43.65,-581,-5721,6012,0,0,0
177.07,-3.99,-43.65,-561,-5735,6014,0,0,0
177.07,-4.00,-43.65,-576,-5722,6015,0,0,0
177.06,-4.02,-43.65,-577,-5721,6011,-1,0,0
177.07,-4.03,-43.65,-568,-5715,6017,-1,0,0
177.06,-4.05,-43.66,-572,-5713,6004,-1,0,0
177.06,-4.05,-43.66,-590,-5725,6007,0,0,-1
177.06,-4.05,-43.66,-568,-5722,5986,0,0,-1
177.06,-4.06,-43.66,-589,-5714,5989,-1,-1,0
177.06,-4.07,-43.67,-583,-5738,5982,0,0,0
177.05,-4.07,-43.66,-588,-5736,5985,0,0,0
177.05,-4.07,-43.66,-583,-5735,5992,0,0,-1
177.05,-4.07,-43.65,-584,-5731,5996,0,-1,-1
177.06,-4.06,-43.65,-585,-5718,5984,0,-1,-1
177.06,-4.06,-43.63,-595,-5721,6000,0,-1,0
177.06,-4.05,-43.63,-595,-5727,5995,0,-1,0
177.05,-4.04,-43.63,-585,-5739,5989,0,-1,0
177.06,-4.03,-43.62,-576,-5736,5991,0,-1,0
177.06,-4.02,-43.61,-565,-5731,5998,0,-1,0
177.06,-4.02,-43.60,-567,-5717,5999,0,-1,0
177.06,-4.02,-43.59,-566,-5713,5998,0,0,0
177.06,-4.02,-43.59,-562,-5705,5998,0,0,0
177.06,-4.02,-43.59,-571,-5714,6004,0,0,0
177.05,-4.03,-43.58,-574,-5720,6019,0,0,0
177.05,-4.03,-43.58,-579,-5716,6020,-1,0,0
177.05,-4.03,-43.58,-579,-5723,6016,-1,0,0
177.05,-4.04,-43.58,-578,-5731,5996,0,0,-1
177.05,-4.04,-43.57,-578,-5734,6004,0,-1,-1
177.06,-4.03,-43.56,-576,-5719,6004,0,-1,0
177.05,-4.03,-43.55,-584,-5715,6006,0,-1,0
177.05,-4.03,-43.54,-580,-5708,6001,0,-1,0
177.04,-4.04,-43.54,-583,-5708,6011,0,-1,0
177.04,-4.04,-43.53,-590,-5709,6017,0,0,0
177.04,-4.04,-43.53,-585,-5713,6021,0,-1,-1
177.04,-4.04,-43.53,-590,-5710,6007,0,0,-1
177.04,-4.04,-43.53,-583,-5710,6005,0,-1,-1
177.05,-4.03,-43.53,-588,-5714,6006,0,-1,-1
177.05,-4.02,-43.53,-580,-5705,6010,0,-1,-1
177.05,-4.02,-43.52,-582,-5706,6010,0,-1,0
177.04,-4.02,-43.52,-576,-5700,6004,0,-1,0
177.04,-4.02,-43.52,-571,-5698,6007,-1,-1,0
177.04,-4.02,-43.52,-569,-5703,6005,-1,-1,-1
177.05,-4.01,-43.52,-573,-5703,6008,-1,-1,-1
177.05,-4.01,-43.53,-574,-5704,6019,-1,-1,-1
177.05,-4.01,-43.53,-577,-5702,6013,-1,-1,-1
177.05,-4.00,-43.53,-576,-5707,6002,0,-1,-1
177.05,-4.00,-43.53,-578,-5711,6006,0,-1,-1
177.05,-4.00,-43.53,-574,-5709,5988,0,-1,-1
177.06,-4.00,-43.53,-574,-5716,6004,0,-1,-1
177.06,-3.99,-43.52,-567,-5716,6013,0,-1,-1
177.06,-3.98,-43.52,-569,-5711,6006,0,-1,-1
177.07,-3.98,-43.52,-564,-5708,6005,0,-1,-1
177.07,-3.98,-43.52,-558,-5709,6006,-1,-1,0
177.07,-3.97,-43.53,-553,-5702,6010,-1,-1,-1
177.07,-3.97,-43.53,-562,-5711,6013,-1,-1,-1
177.07,-3.97,-43.53,-564,-5706,6011,-1,0,0
177.07,-3.97,-43.54,-568,-5712,6010,-1,0,0
177.07,-3.97,-43.54,-575,-5714,6011,-1,0,0
177.07,-3.97,-43.55,-575,-5724,6001,-1,0,-1
177.07,-3.97,-43.55,-575,-5724,6001,-1,-1,-1
177.07,-3.97,-43.55,-576,-5723,6007,-1,-1,-1
177.07,-3.96,-43.55,-565,-5719,6005,0,-1,0
177.07,-3.96,-43.55,-555,-5709,6006,0,-1,-1
177.07,-3.96,-43.55,-553,-5707,6006,-1,0,0
177.07,-3.96,-43.55,-555,-5706,6016,-1,0,0
177.07,-3.96,-43.55,-557,-5707,6022,-1,0,-1
177.07,-3.96,-43.56,-560,-5711,6012,-1,-1,0
177.07,-3.96,-43.57,-569,-5713,6010,-1,0,-1
177.07,-3.96,-43.57,-566,-5708,6001,-1,0,0
177.07,-3.96,-43.58,-564,-5710,6007,-1,0,0
177.07,-3.96,-43.58,-558,-5710,5992,-1,0,0
177.07,-3.97,-43.59,-572,-5726,6002,-1,0,-1
177.08,-3.96,-43.59,-561,-5723,6016,0,-1,-1
177.08,-3.96,-43.59,-563,-5710,6011,0,-1,-1
177.08,-3.96,-43.58,-562,-5698,6011,-1,-1,-1
177.08,-3.96,-43.58,-557,-5709,6011,-1,-1,0
177.08,-3.96,-43.59,-560,-5713,6001,0,0,0
177.08,-3.96,-43.59,-576,-5715,6001,0,0,0
177.08,-3.96,-43.59,-584,-5717,6004,-1,-1,-1
177.08,-3.96,-43.59,-583,-5717,6011,-1,-1,-1
177.08,-3.96,-43.59,-585,-5716,6004,-1,-1,-1
177.08,-3.96,-43.59,-571,-5716,6000,-1,-1,-1
177.09,-3.95,-43.59,-564,-5715,5995,-1,-1,-1
177.09,-3.94,-43.59,-553,-5713,6005,-1,-1,-1
177.09,-3.94,-43.59,-553,-5713,6004,-1,-1,0
177.08,-3.94,-43.59,-558,-5706,5998,-1,0,0
177.08,-3.95,-43.60,-556,-5715,5997,-1,0,0
177.08,-3.95,-43.61,-564,-5718,5998,-1,0,0
177.08,-3.95,-43.61,-571,-5720,5999,-1,-1,-1
177.08,-3.95,-43.61,-571,-5727,5994,-1,0,0
177.09,-3.95,-43.62,-572,-5731,5992,-1,-1,-1
177.09,-3.95,-43.63,-570,-5725,5986,-1,-1,-1
177.09,-3.95,-43.63,-564,-5721,5989,-1,0,0
177.09,-3.95,-43.63,-566,-5725,5994,-1,0,-1
177.09,-3.95,-43.63,-562,-5724,5993,0,0,-1
177.09,-3.95,-43.63,-570,-5733,6012,-1,-1,-1
177.09,-3.94,-43.63,-559,-5725,6005,-1,-1,-1
177.10,-3.94,-43.64,-555,-5725,5998,-1,-1,-1
177.10,-3.93,-43.65,-563,-5722,5994,-1,-1,-1
177.10,-3.93,-43.65,-561,-5722,5994,-1,-1,-1
177.10,-3.93,-43.65,-557,-5728,5997,-1,0,-1
177.10,-3.93,-43.66,-561,-5728,5993,-1,0,0
177.10,-3.92,-43.66,-559,-5729,5992,-1,0,0
177.10,-3.92,-43.66,-558,-5728,6002,-1,-1,0
177.10,-3.92,-43.66,-564,-5728,6005,-1,0,-1
177.10,-3.92,-43.67,-565,-5729,6005,-1,-1,-1
177.10,-3.92,-43.67,-568,-5726,6003,-1,-1,-1
177.10,-3.92,-43.67,-563,-5726,6003,-1,-1,-1
177.10,-3.92,-43.67,-554,-5722,5993,-1,-1,-1
177.10,-3.92,-43.67,-557,-5724,5992,-1,-1,-1
177.11,-3.91,-43.67,-550,-5726,5991,0,0,-1
177.11,-3.91,-43.67,-554,-5720,5999,-1,-1,0
177.11,-3.91,-43.67,-561,-5717,5997,-1,-1,0
177.11,-3.91,-43.67,-567,-5721,5989,-1,0,-1
177.11,-3.91,-43.68,-564,-5735,5984,-1,-1,-1
177.11,-3.91,-43.68,-556,-5741,5980,0,-1,-1
177.11,-3.90,-43.68,-545,-5730,5985,0,-1,-1
177.12,-3.90,-43.68,-539,-5720,5991,-1,0,0
177.11,-3.90,-43.68,-555,-5729,5997,-1,0,0
177.11,-3.90,-43.68,-564,-5731,5997,-1,0,0
177.11,-3.91,-43.68,-573,-5727,5999,-1,-1,-1
177.11,-3.90,-43.69,-570,-5723,5999,-1,-1,-1
177.11,-3.90,-43.69,-573,-5722,5993,0,0,-1
177.12,-3.90,-43.68,-569,-5724,5991,0,0,-1
177.12,-3.89,-43.68,-557,-5731,5996,0,-1,-1
177.13,-3.89,-43.68,-555,-5730,5993,0,-1,-1
177.13,-3.89,-43.68,-556,-5721,5984,0,0,-1
177.13,-3.89,-43.68,-551,-5721,5993,-1,-1,-1
177.13,-3.88,-43.68,-549,-5728,6004,-1,0,-1
177.14,-3.88,-43.68,-550,-5728,5999,-1,0,-1
177.13,-3.88,-43.68,-559,-5729,5996,-1,0,-1
177.13,-3.88,-43.69,-564,-5726,5985,-1,0,-1
177.14,-3.88,-43.69,-562,-5730,5981,-1,0,-1
177.14,-3.89,-43.69,-570,-5730,5986,-1,0,-1
177.14,-3.89,-43.69,-570,-5735,5989,0,0,-1
177.14,-3.89,-43.70,-566,-5739,5995,-1,0,-1
177.14,-3.89,-43.69,-563,-5734,6003,0,0,0
177.14,-3.89,-43.69,-549,-5738,6007,0,-1,0
177.14,-3.89,-43.69,-547,-5723,6005,0,0,0
177.13,-3.90,-43.69,-546,-5711,6004,-1,0,0
177.12,-3.90,-43.69,-547,-5710,6006,-1,0,0
177.12,-3.90,-43.69,-547,-5716,6003,-1,0,0
177.12,-3.91,-43.70,-552,-5729,6001,-1,0,0
177.12,-3.92,-43.71,-569,-5738,5986,-1,0,0
177.12,-3.92,-43.71,-565,-5743,5981,0,0,0
177.12,-3.92,-43.70,-569,-5742,5987,0,0,-1
177.12,-3.92,-43.69,-571,-5740,5982,0,0,-1
177.12,-3.92,-43.68,-561,-5732,5976,0,-1,-1
177.12,-3.92,-43.68,-559,-5722,5977,0,-1,0
177.12,-3.92,-43.68,-560,-5719,5986,0,0,0
177.12,-3.92,-43.68,-557,-5721,5985,0,0,0
177.12,-3.93,-43.67,-558,-5728,5991,0,0,0
177.12,-3.93,-43.68,-564,-5734,5990,0,0,-1
177.12,-3.93,-43.68,-573,-5742,5992,0,0,-1
177.12,-3.93,-43.67,-567,-5741,5985,0,-1,0
177.12,-3.93,-43.66,-564,-5734,5984,0,-1,0
177.12,-3.93,-43.65,-562,-5728,5991,0,-1,0
177.12,-3.93,-43.65,-554,-5729,5985,0,0,0
177.12,-3.93,-43.64,-554,-5726,5993,0,0,0
177.12,-3.93,-43.63,-564,-5713,6002,0,0,0
177.12,-3.94,-43.63,-565,-5717,6001,0,0,-1
177.12,-3.93,-43.63,-569,-5726,6004,0,-1,-1
177.12,-3.93,-43.63,-564,-5727,5996,0,-1,-1
177.12,-3.93,-43.62,-559,-5721,5999,0,0,0
177.12,-3.93,-43.62,-564,-5723,5994,0,0,0
177.12,-3.93,-43.61,-564,-5718,6005,0,-1,0
177.12,-3.94,-43.60,-558,-5713,6004,0,0,0
177.12,-3.94,-43.60,-553,-5716,5996,0,0,0
177.12,-3.95,-43.59,-548,-5714,6005,0,0,0
177.11,-3.96,-43.59,-555,-5708,5999,0,0,0
177.11,-3.97,-43.59,-568,-5716,5997,0,0,0
177.11,-3.97,-43.59,-569,-5724,5987,0,0,-1
177.10,-3.99,-43.58,-570,-5726,5994,-1,0,0
177.11,-3.99,-43.58,-576,-5727,6005,0,0,-1
177.11,-4.00,-43.57,-567,-5724,5995,0,0,0
177.10,-4.01,-43.57,-572,-5729,6009,0,0,0
177.11,-4.01,-43.56,-574,-5724,6015,0,0,0
177.11,-4.01,-43.55,-573,-5709,6014,0,0,-1
177.11,-4.01,-43.55,-566,-5711,6012,0,0,0
177.10,-4.02,-43.54,-567,-5703,6013,0,0,0
177.10,-4.02,-43.54,-570,-5704,6004,0,0,-1
177.11,-4.02,-43.54,-574,-5697,6000,-1,0,-1
177.11,-4.03,-43.54,-572,-5702,5995,0,0,0
177.10,-4.03,-43.54,-574,-5707,5995,0,0,0
177.10,-4.04,-43.54,-592,-5716,6001,0,-1,0
177.09,-4.03,-43.54,-587,-5719,6005,0,-1,0
177.10,-4.03,-43.53,-586,-5718,6005,0,-1,0
177.09,-4.02,-43.52,-581,-5719,6003,0,-1,0
177.09,-4.02,-43.51,-564,-5711,6011,0,-1,0
177.09,-4.01,-43.51,-555,-5702,6022,0,-1,0
177.09,-4.01,-43.50,-564,-5696,6019,0,0,0
177.08,-4.02,-43.50,-568,-5699,6019,0,0,0
177.08,-4.02,-43.49,-571,-5699,6018,0,-1,0
177.09,-4.01,-43.49,-577,-5696,6026,0,-1,0
177.09,-4.01,-43.49,-570,-5706,6011,0,-1,0
