Yaw,Pitch,Roll,AX,AY,AZ,GX,GY,GZ
-27.88,-2.73,36.48,-392,4819,6511,-1,-1,0
-27.89,-2.72,36.48,-374,4812,6509,0,0,0
-27.88,-2.72,36.49,-390,4819,6503,0,-1,0
-27.89,-2.71,36.48,-385,4817,6511,-1,0,0
-27.89,-2.71,36.47,-379,4812,6515,-1,-1,0
-27.90,-2.71,36.46,-385,4804,6513,-1,0,0
-27.91,-2.71,36.45,-382,4793,6520,-1,-1,0
-27.91,-2.70,36.45,-390,4804,6509,0,-1,0
-27.90,-2.70,36.46,-385,4817,6512,0,-1,0
-27.91,-2.69,36.46,-381,4820,6508,0,-1,0
-27.91,-2.69,36.46,-375,4820,6504,-1,-1,0
-27.92,-2.68,36.46,-375,4823,6500,-1,-1,0
-27.91,-2.69,36.45,-377,4813,6512,-1,-1,0
-27.91,-2.69,36.45,-374,4816,6512,0,0,-1
-27.91,-2.69,36.45,-381,4819,6519,-1,0,0
-27.93,-2.68,36.44,-368,4811,6514,-1,-1,0
-27.93,-2.67,36.44,-374,4806,6511,-1,-1,0
-27.94,-2.67,36.44,-372,4803,6506,-1,-1,0
-27.94,-2.67,36.44,-375,4810,6514,-1,0,0
-27.94,-2.67,36.43,-374,4803,6520,-1,-1,-1
-27.94,-2.66,36.43,-375,4799,6519,0,-1,0
-27.94,-2.66,36.43,-377,4806,6518,0,-1,0
-27.94,-2.65,36.43,-379,4806,6511,0,-1,0
-27.95,-2.65,36.43,-376,4800,6510,0,-1,0
-27.95,-2.65,36.43,-379,4800,6509,-1,-1,0
-27.95,-2.64,36.43,-377,4811,6501,0,-1,0
-27.95,-2.64,36.43,-373,4815,6491,-1,-1,0
-27.95,-2.64,36.43,-368,4816,6497,-1,-1,0
-27.96,-2.64,36.43,-366,4812,6506,-1,-1,0
-27.96,-2.64,36.43,-376,4809,6503,-1,-1,0
-27.96,-2.63,36.42,-384,4803,6515,-1,-1,0
-27.96,-2.63,36.42,-377,4805,6510,0,-1,-1
-27.96,-2.63,36.42,-378,4804,6517,-1,0,0
-27.97,-2.62,36.41,-374,4796,6516,-1,-1,0
-27.97,-2.63,36.41,-375,4790,6515,-1,0,0
-27.97,-2.62,36.40,-373,4799,6522,-1,-1,0
-27.97,-2.62,36.41,-372,4801,6517,0,-1,0
-27.97,-2.61,36.42,-368,4804,6509,0,-1,-1
-27.96,-2.62,36.42,-370,4812,6516,0,0,-1
-27.97,-2.61,36.42,-372,4811,6513,0,0,0
-27.97,-2.61,36.42,-366,4784,6518,0,0,0
-27.96,-2.62,36.44,-385,4815,6531,0,-1,-1
-27.96,-2.61,36.45,-379,4808,6506,0,-1,0
-27.98,-2.59,36.45,-355,4826,6529,-1,0,0
-27.99,-2.59,36.44,-355,4830,6498,-1,0,0
-27.98,-2.61,36.45,-384,4824,6510,0,-1,-1
-27.99,-2.60,36.44,-385,4787,6511,-1,-1,0
-28.00,-2.59,36.44,-368,4804,6508,-1,0,0
-27.99,-2.60,36.45,-376,4818,6510,0,-1,0
-28.00,-2.59,36.45,-387,4828,6520,-1,-1,0
-28.01,-2.58,36.45,-374,4821,6512,0,-1,0
-28.01,-2.57,36.44,-361,4818,6508,-1,-1,0
-28.03,-2.55,36.43,-345,4797,6489,-1,-1,0
-28.03,-2.56,36.44,-343,4803,6518,0,0,-1
-28.02,-2.56,36.44,-375,4796,6533,0,-1,0
-28.02,-2.56,36.45,-357,4820,6517,0,0,0
-28.02,-2.56,36.46,-383,4827,6513,0,-1,0
-28.02,-2.54,36.47,-348,4831,6506,0,0,0
-28.04,-2.54,36.46,-357,4832,6500,-1,0,0
-28.04,-2.54,36.46,-380,4819,6510,0,-2,0
-28.06,-2.52,36.45,-348,4805,6511,-1,-1,0
-28.06,-2.51,36.46,-363,4799,6507,0,-1,0
-28.06,-2.51,36.46,-325,4815,6502,-1,0,-1
-28.06,-2.52,36.45,-375,4791,6499,0,-1,0
-28.07,-2.50,36.45,-338,4824,6525,-1,-1,0
-28.07,-2.52,36.45,-366,4820,6509,-1,0,-1
-28.07,-2.51,36.43,-330,4810,6525,-1,0,-1
-28.07,-2.54,36.42,-383,4814,6518,-1,0,-1
-28.07,-2.53,36.41,-371,4807,6512,-1,-1,0
-28.08,-2.52,36.39,-357,4824,6520,-1,0,-1
-28.07,-2.53,36.37,-359,4811,6528,-1,-1,-1
-28.08,-2.53,36.37,-355,4799,6517,-1,-1,-1
-28.07,-2.53,36.36,-350,4790,6523,0,0,-1
-28.07,-2.54,36.37,-360,4800,6504,0,-1,-1
-28.06,-2.54,36.38,-349,4796,6503,-1,-1,-1
-28.05,-2.54,36.37,-345,4797,6512,-1,0,-1
-28.05,-2.56,36.37,-366,4805,6509,-1,0,-1
-28.05,-2.57,36.37,-368,4807,6509,-1,-1,-1
-28.05,-2.56,36.36,-366,4798,6511,-1,-1,-1
-28.05,-2.56,36.35,-364,4793,6518,-1,-1,0
-28.05,-2.56,36.35,-363,4800,6519,-1,0,-1
-28.05,-2.56,36.35,-356,4800,6521,0,-1,-1
-28.05,-2.56,36.35,-354,4795,6536,0,0,-1
-28.04,-2.57,36.35,-365,4795,6527,0,-1,-1
-28.03,-2.57,36.35,-365,4793,6521,0,-1,-1
-28.02,-2.58,36.35,-367,4813,6525,0,-1,-1
-28.02,-2.58,36.35,-360,4796,6525,0,0,-1
-28.00,-2.59,36.37,-359,4805,6535,0,0,-1
-27.99,-2.59,36.38,-361,4814,6530,0,-1,-1
-27.98,-2.60,36.39,-371,4797,6521,0,0,-1
-27.97,-2.59,36.41,-394,4805,6514,0,-1,0
-27.98,-2.57,36.42,-364,4796,6511,0,-1,0
-27.99,-2.56,36.43,-354,4797,6520,0,-1,0
-27.99,-2.56,36.44,-344,4813,6508,0,0,-1
-27.98,-2.55,36.45,-362,4780,6502,0,-2,0
-27.98,-2.54,36.46,-309,4806,6508,0,0,-1
-27.97,-2.58,36.47,-377,4814,6467,-1,1,-1
-27.96,-2.57,36.45,-369,4789,6538,-1,-2,0
-27.97,-2.58,36.46,-370,4793,6523,0,0,-1
-27.94,-2.59,36.48,-361,4843,6507,0,0,-1
-27.94,-2.59,36.48,-377,4813,6483,0,-1,0
-27.94,-2.58,36.49,-325,4808,6513,0,0,-1
-27.93,-2.61,36.49,-377,4824,6477,0,0,-1
-27.93,-2.60,36.49,-369,4806,6494,0,-1,0
-27.93,-2.60,36.49,-330,4825,6488,0,1,-1
-27.90,-2.64,36.49,-371,4831,6493,-1,0,-1
-27.91,-2.64,36.47,-377,4802,6507,-1,0,-1
-27.91,-2.65,36.46,-366,4803,6497,-1,-1,-1
-27.90,-2.65,36.46,-354,4810,6495,-1,0,-1
-27.90,-2.66,36.45,-363,4809,6517,-1,0,-1
-27.91,-2.67,36.44,-364,4799,6522,-1,0,-1
-27.90,-2.68,36.43,-370,4802,6511,-1,0,-1
-27.90,-2.68,36.43,-379,4814,6515,-1,0,-1
-27.90,-2.69,36.43,-377,4818,6515,0,-1,-1
-27.90,-2.69,36.43,-377,4813,6524,-1,0,0
-27.90,-2.68,36.43,-377,4805,6522,-1,0,0
-27.90,-2.69,36.43,-369,4805,6515,0,0,-1
-27.89,-2.69,36.44,-375,4813,6506,0,0,-1
-27.90,-2.69,36.43,-371,4809,6510,-1,0,-1
-27.90,-2.70,36.42,-368,4807,6513,-1,0,-1
-27.89,-2.70,36.42,-372,4805,6513,-1,0,-1
-27.90,-2.70,36.42,-379,4801,6528,-1,0,-1
-27.90,-2.70,36.42,-378,4797,6522,0,0,0
-27.90,-2.70,36.42,-370,4796,6510,0,0,-1
-27.90,-2.71,36.42,-370,4799,6496,0,0,-1
-27.89,-2.71,36.42,-373,4806,6496,-1,0,-1
-27.89,-2.72,36.42,-374,4806,6506,0,0,-1
-27.88,-2.73,36.42,-382,4805,6506,0,0,-1
-27.88,-2.73,36.42,-385,4808,6513,0,0,-1
-27.88,-2.73,36.42,-381,4812,6521,0,0,-1
-27.87,-2.73,36.43,-384,4812,6508,0,-1,-1
-27.87,-2.73,36.44,-367,4803,6508,0,-1,-1
-27.85,-2.74,36.45,-365,4809,6509,0,0,-1
-27.84,-2.75,36.45,-370,4802,6504,-1,0,-1
-27.84,-2.76,36.45,-386,4799,6511,-1,0,-1
-27.84,-2.77,36.45,-397,4811,6513,0,0,-1
-27.84,-2.77,36.46,-390,4819,6524,0,0,-1
-27.83,-2.77,36.47,-392,4814,6531,0,-1,-1
-27.83,-2.77,36.47,-389,4821,6513,-1,-1,-1
-27.83,-2.77,36.46,-382,4805,6514,-1,0,0
-27.84,-2.78,36.45,-384,4786,6521,0,0,-1
-27.82,-2.79,36.46,-389,4785,6532,0,0,-1
-27.82,-2.79,36.47,-395,4822,6523,0,-1,-1
-27.81,-2.80,36.47,-392,4825,6505,-1,0,-1
-27.81,-2.81,36.47,-394,4825,6506,-1,0,-1
-27.81,-2.81,36.46,-393,4811,6502,-1,0,0
-27.82,-2.80,36.46,-392,4811,6513,0,-1,0
-27.82,-2.81,36.46,-393,4814,6505,-1,0,0
-27.82,-2.81,36.46,-395,4814,6494,-1,-1,0
-27.82,-2.81,36.46,-386,4812,6494,-1,0,0
-27.83,-2.80,36.45,-379,4812,6502,-1,0,0
-27.83,-2.81,36.44,-384,4808,6522,-1,0,-1
-27.83,-2.81,36.44,-394,4799,6511,-1,0,0
-27.83,-2.81,36.45,-384,4806,6511,0,0,0
-27.83,-2.81,36.45,-382,4816,6513,-1,0,-1
-27.83,-2.81,36.44,-390,4806,6510,-1,0,-1
-27.84,-2.82,36.44,-386,4798,6519,-1,0,-1
-27.83,-2.82,36.44,-387,4797,6516,0,0,-1
-27.82,-2.83,36.45,-390,4810,6500,0,0,-1
-27.82,-2.83,36.45,-391,4810,6509,0,0,-1
-27.82,-2.84,36.45,-392,4818,6513,0,0,-1
-27.82,-2.84,36.45,-386,4813,6511,0,0,-1
-27.82,-2.84,36.45,-389,4809,6499,0,0,-1
-27.81,-2.84,36.45,-395,4807,6505,0,0,-1
-27.81,-2.85,36.45,-398,4808,6510,0,0,-1
-27.81,-2.85,36.46,-389,4807,6501,0,0,-1
-27.80,-2.86,36.46,-390,4807,6504,0,0,-1
-27.80,-2.87,36.46,-400,4804,6508,0,0,-1
-27.79,-2.87,36.47,-403,4807,6507,0,0,-1
-27.79,-2.87,36.47,-407,4815,6511,0,-1,-1
-27.78,-2.87,36.48,-403,4814,6506,0,-1,-1
-27.77,-2.87,36.48,-394,4811,6498,0,-1,-1
-27.77,-2.88,36.48,-394,4796,6508,0,0,-1
-27.76,-2.88,36.48,-400,4792,6514,0,0,-1
-27.76,-2.89,36.50,-401,4807,6508,0,0,-1
-27.75,-2.89,36.50,-407,4812,6505,0,0,-1
-27.74,-2.89,36.51,-404,4815,6490,0,-1,-1
-27.74,-2.89,36.52,-402,4814,6498,-1,0,-1
-27.74,-2.89,36.52,-401,4809,6495,0,-1,-1
-27.74,-2.89,36.52,-396,4807,6503,-1,0,0
-27.74,-2.89,36.52,-399,4815,6499,0,-1,-1
-27.73,-2.89,36.52,-395,4814,6496,0,0,-1
-27.73,-2.90,36.53,-394,4812,6504,0,0,-1
-27.73,-2.89,36.52,-392,4810,6500,-1,-1,0
-27.73,-2.89,36.52,-395,4809,6507,0,0,0
-27.74,-2.88,36.52,-394,4810,6506,0,-1,0
-27.75,-2.88,36.52,-394,4809,6497,0,0,-1
-27.74,-2.88,36.53,-393,4813,6499,0,0,-1
-27.74,-2.89,36.53,-402,4819,6497,-1,0,-1
-27.73,-2.89,36.52,-400,4815,6494,-1,0,0
-27.74,-2.89,36.53,-408,4821,6493,-1,-1,0
-27.75,-2.88,36.52,-399,4822,6502,-1,-1,0
-27.76,-2.86,36.52,-385,4819,6508,-1,-1,0
-27.76,-2.86,36.52,-376,4814,6506,-1,0,0
-27.76,-2.86,36.52,-378,4813,6516,0,0,-1
-27.76,-2.86,36.51,-389,4806,6516,-1,0,-1
-27.76,-2.87,36.51,-391,4807,6521,0,0,-1
-27.76,-2.87,36.51,-398,4819,6518,0,-1,0
-27.75,-2.86,36.51,-402,4818,6520,0,-1,0
-27.75,-2.86,36.51,-398,4820,6525,0,-1,0
-27.76,-2.85,36.51,-394,4809,6515,0,-1,0
-27.76,-2.85,36.51,-391,4805,6506,0,-1,0
-27.76,-2.85,36.51,-390,4811,6511,0,-1,-1
-27.76,-2.85,36.51,-393,4813,6498,-1,0,-1
-27.76,-2.85,36.51,-396,4820,6494,-1,-1,0
-27.76,-2.85,36.51,-399,4818,6501,-1,-1,0
-27.76,-2.85,36.51,-398,4816,6503,0,-1,0
-27.76,-2.85,36.51,-395,4814,6504,-1,0,0
-27.76,-2.84,36.50,-385,4803,6505,-1,-1,-1
-27.77,-2.84,36.49,-389,4796,6505,-1,0,0
-27.77,-2.84,36.49,-396,4797,6510,0,-1,-1
-27.76,-2.84,36.50,-385,4810,6497,0,0,-1
-27.76,-2.84,36.50,-384,4817,6504,0,-1,0
-27.77,-2.83,36.50,-387,4819,6496,-1,-1,0
-27.77,-2.83,36.50,-387,4817,6504,-1,-1,0
-27.77,-2.83,36.50,-385,4807,6501,-1,-1,0
-27.77,-2.83,36.50,-385,4810,6496,0,0,-1
-27.77,-2.82,36.50,-378,4813,6506,0,0,-1
-27.77,-2.83,36.50,-384,4820,6517,-1,0,0
-27.77,-2.82,36.50,-391,4814,6515,-1,-1,0
-27.78,-2.82,36.50,-392,4811,6514,-1,-1,0
-27.78,-2.81,36.49,-392,4811,6507,0,-1,0
-27.78,-2.81,36.49,-385,4811,6505,-1,-1,-1
-27.78,-2.81,36.49,-394,4812,6506,0,0,-1
-27.78,-2.82,36.50,-400,4811,6503,0,0,-1
-27.78,-2.82,36.50,-396,4805,6504,0,0,-1
-27.78,-2.82,36.50,-398,4808,6505,0,-1,0
-27.78,-2.82,36.50,-397,4812,6507,0,-1,0
-27.78,-2.82,36.50,-395,4815,6516,0,-1,0
-27.78,-2.81,36.49,-387,4822,6512,0,-1,0
-27.78,-2.81,36.49,-386,4818,6504,-1,-1,0
-27.78,-2.81,36.49,-381,4814,6501,-1,-1,0
-27.78,-2.81,36.49,-382,4817,6503,-1,0,0
-27.78,-2.80,36.50,-382,4821,6504,0,-1,-1
-27.78,-2.80,36.50,-388,4816,6505,0,-1,0
-27.78,-2.80,36.50,-384,4818,6504,-1,-1,0
-27.79,-2.80,36.49,-382,4813,6513,-1,-1,0
-27.79,-2.79,36.49,-383,4814,6495,0,-1,0
-27.79,-2.79,36.49,-379,4811,6502,0,0,-1
-27.78,-2.80,36.50,-388,4817,6505,-1,0,-1
-27.78,-2.80,36.49,-386,4813,6500,-1,0,0
-27.79,-2.79,36.49,-387,4811,6506,-1,-1,0
-27.79,-2.79,36.49,-382,4818,6503,0,-1,-1
-27.79,-2.78,36.49,-378,4821,6500,-1,-1,0
-27.79,-2.77,36.49,-369,4823,6501,-1,-1,0
-27.80,-2.77,36.48,-369,4813,6506,-1,0,0
-27.80,-2.77,36.46,-379,4790,6515,0,0,-1
-27.80,-2.77,36.46,-379,4792,6521,0,0,-1
-27.79,-2.77,36.47,-387,4806,6506,0,-1,0
-27.79,-2.77,36.48,-389,4819,6510,0,-1,0
-27.80,-2.76,36.47,-388,4821,6514,-1,-1,0
-27.81,-2.75,36.47,-369,4814,6509,-1,-1,0
-27.81,-2.75,36.46,-373,4807,6500,-1,-1,0
-27.82,-2.75,36.46,-380,4808,6499,-1,-1,0
-27.83,-2.73,36.45,-374,4803,6510,-1,-1,0
-27.83,-2.74,36.45,-376,4807,6515,-1,0,0
-27.83,-2.73,36.44,-377,4815,6515,-1,-1,0
-27.83,-2.73,36.44,-383,4813,6510,-1,-1,0
-27.84,-2.72,36.43,-373,4804,6498,-1,-1,0
-27.85,-2.72,36.43,-381,4804,6505,-1,-1,0
-27.85,-2.72,36.43,-381,4808,6506,-1,-1,0
-27.86,-2.72,36.42,-375,4801,6520,-1,0,0
-27.86,-2.72,36.42,-379,4799,6523,-1,-1,0
-27.86,-2.71,36.42,-376,4799,6528,-1,-1,0
-27.86,-2.71,36.42,-377,4807,6524,0,-1,-1
-27.86,-2.71,36.41,-375,4817,6530,-1,-1,0
-27.87,-2.70,36.41,-374,4817,6508,-1,-1,0
-27.87,-2.70,36.41,-368,4810,6507,-1,-1,0
-27.88,-2.70,36.40,-372,4812,6518,-1,-1,0
-27.88,-2.69,36.40,-374,4807,6515,-1,0,0
-27.89,-2.69,36.40,-369,4805,6526,-1,0,0
-27.89,-2.69,36.40,-371,4809,6528,-1,0,0
-27.90,-2.69,36.39,-366,4813,6521,-1,0,0
-27.90,-2.68,36.39,-364,4804,6526,-1,-1,0
-27.90,-2.68,36.39,-367,4791,6515,0,-1,0
-27.91,-2.68,36.38,-370,4796,6520,-1,0,0
-27.92,-2.68,36.38,-370,4796,6522,-1,0,0
-27.92,-2.68,36.37,-371,4796,6531,-1,0,0
-27.92,-2.68,36.37,-373,4794,6526,-1,-1,0
-27.92,-2.68,36.36,-370,4791,6521,-1,-1,0
-27.93,-2.67,36.36,-370,4792,6520,0,0,0
-27.93,-2.67,36.36,-367,4791,6520,-1,-1,0
-27.94,-2.66,36.36,-358,4790,6519,-1,-1,0
-27.94,-2.66,36.36,-356,4794,6517,0,0,-1
-27.94,-2.66,36.36,-364,4797,6523,-1,0,0
-27.95,-2.66,36.35,-362,4803,6526,-1,0,0
-27.95,-2.66,36.35,-373,4797,6519,-1,0,0
-27.96,-2.66,36.35,-367,4797,6513,-1,-1,0
-27.96,-2.65,36.35,-357,4797,6518,-1,-1,0
-27.96,-2.65,36.35,-350,4791,6527,-1,-1,-1
-27.96,-2.65,36.34,-351,4788,6527,0,0,-1
-27.96,-2.65,36.34,-359,4792,6525,0,0,-1
-27.95,-2.66,36.35,-360,4799,6512,0,0,-1
-27.95,-2.66,36.35,-365,4798,6522,0,-1,-1
-27.93,-2.67,36.37,-371,4809,6521,0,-1,-1
-27.93,-2.67,36.37,-368,4812,6526,-1,0,-1
-27.93,-2.67,36.37,-369,4803,6511,-1,0,0
-27.93,-2.67,36.37,-364,4794,6519,0,0,-1
-27.93,-2.67,36.37,-360,4793,6517,0,0,-1
-27.92,-2.68,36.37,-366,4805,6507,0,0,-1
-27.92,-2.68,36.37,-362,4801,6523,-1,-1,-1
-27.92,-2.68,36.37,-364,4802,6515,-1,0,-1
-27.92,-2.68,36.37,-373,4796,6513,0,-1,-1
-27.91,-2.68,36.38,-361,4798,6519,0,0,-1
-27.91,-2.68,36.38,-355,4791,6516,0,0,-1
-27.90,-2.69,36.39,-363,4795,6516,0,0,-1
-27.90,-2.70,36.39,-377,4804,6513,0,0,-1
-27.89,-2.70,36.40,-376,4814,6518,0,-1,-1
-27.89,-2.71,36.39,-368,4819,6523,-1,0,-1
-27.88,-2.71,36.40,-375,4809,6508,0,-1,-1
-27.88,-2.70,36.40,-369,4804,6513,0,0,-1
-27.88,-2.71,36.40,-372,4808,6520,0,0,-1
-27.88,-2.71,36.40,-362,4804,6528,0,0,-1
-27.87,-2.72,36.41,-364,4799,6524,0,0,-1
-27.86,-2.72,36.42,-377,4802,6513,0,0,-1
-27.86,-2.72,36.42,-380,4808,6504,0,0,-1
-27.85,-2.73,36.43,-377,4815,6506,0,-1,-1
-27.84,-2.72,36.43,-379,4800,6518,0,-1,-1
-27.84,-2.72,36.43,-370,4790,6522,0,0,0
-27.84,-2.72,36.45,-382,4794,6522,0,-1,0
-27.83,-2.69,36.46,-362,4808,6506,0,-1,0
-27.84,-2.69,36.46,-348,4830,6492,-1,0,0
-27.85,-2.71,36.45,-364,4824,6495,-1,0,-1
-27.84,-2.72,36.45,-371,4814,6505,-1,0,-1
-27.84,-2.73,36.45,-382,4814,6510,-1,0,0
-27.84,-2.73,36.45,-386,4819,6505,-1,0,0
-27.84,-2.73,36.44,-372,4816,6516,-1,-1,-1
-27.84,-2.72,36.43,-365,4808,6516,0,0,-1
-27.83,-2.73,36.44,-374,4809,6515,0,0,-1
-27.83,-2.73,36.44,-362,4807,6522,-1,0,-1
-27.83,-2.75,36.43,-367,4802,6518,0,0,-1
-27.82,-2.75,36.44,-385,4798,6514,0,0,-1
-27.81,-2.76,36.44,-378,4816,6520,0,0,-1
-27.81,-2.76,36.44,-381,4831,6519,-1,-1,0
-27.82,-2.76,36.44,-377,4816,6512,-1,-1,0
-27.82,-2.75,36.43,-361,4796,6515,-1,0,-1
-27.82,-2.75,36.43,-372,4788,6525,0,0,-1
-27.81,-2.75,36.43,-371,4799,6519,0,0,-1
-27.81,-2.76,36.43,-378,4811,6516,0,0,-1
-27.80,-2.77,36.44,-370,4808,6516,0,0,-1
-27.79,-2.77,36.45,-381,4820,6519,0,0,-1
-27.78,-2.78,36.45,-396,4826,6516,-1,-1,-1
-27.79,-2.78,36.44,-390,4804,6522,-1,-1,0
-27.79,-2.78,36.44,-387,4794,6512,0,-1,-1
-27.79,-2.77,36.45,-382,4798,6504,0,0,-1
-27.78,-2.78,36.45,-383,4807,6498,0,0,-1
-27.78,-2.78,36.45,-384,4813,6503,-1,0,-1
-27.78,-2.78,36.44,-382,4810,6505,-1,0,-1
-27.78,-2.78,36.45,-376,4816,6508,0,0,-1
-27.77,-2.79,36.45,-375,4817,6514,0,-1,-1
-27.77,-2.79,36.46,-379,4811,6513,0,0,-1
-27.77,-2.80,36.45,-372,4803,6517,0,0,-1
-27.77,-2.80,36.45,-385,4801,6524,-1,0,-1
-27.77,-2.81,36.45,-394,4808,6519,0,0,-1
-27.76,-2.81,36.45,-402,4813,6522,0,-1,-1
-27.76,-2.81,36.46,-397,4821,6524,0,-1,-1
-27.76,-2.81,36.46,-386,4813,6513,0,-1,-1
-27.76,-2.81,36.46,-377,4809,6503,-1,0,-1
-27.76,-2.81,36.46,-381,4803,6496,0,0,0
-27.76,-2.81,36.46,-376,4804,6506,0,0,-1
-27.76,-2.81,36.46,-379,4810,6505,0,0,-1
-27.76,-2.81,36.46,-382,4811,6518,-1,0,-1
-27.75,-2.82,36.45,-384,4806,6512,-1,0,0
-27.76,-2.82,36.44,-386,4795,6518,0,0,-1
-27.76,-2.82,36.44,-382,4791,6513,0,-1,-1
-27.76,-2.82,36.44,-383,4807,6518,0,0,-1
-27.76,-2.82,36.44,-390,4805,6521,-1,0,-1
-27.76,-2.82,36.44,-383,4801,6513,-1,0,0
-27.76,-2.82,36.44,-380,4803,6500,-1,0,-1
-27.76,-2.82,36.44,-373,4805,6500,0,0,-1
-27.76,-2.82,36.44,-377,4801,6499,0,-1,-1
-27.76,-2.82,36.44,-378,4815,6501,-1,0,-1
-27.76,-2.82,36.44,-379,4808,6509,-1,0,-1
-27.76,-2.82,36.44,-385,4805,6512,0,0,-1
-27.75,-2.83,36.44,-392,4807,6514,0,0,-1
-27.75,-2.83,36.44,-390,4805,6512,0,0,-1
-27.75,-2.83,36.45,-386,4812,6506,0,0,-1
-27.74,-2.84,36.45,-386,4819,6510,0,0,-1
-27.74,-2.83,36.45,-390,4815,6512,0,0,-1
-27.73,-2.84,36.46,-391,4807,6506,0,0,-1
-27.73,-2.84,36.46,-384,4808,6504,0,0,-1
-27.73,-2.85,36.46,-391,4809,6509,0,0,-1
-27.73,-2.85,36.46,-396,4812,6510,0,-1,0
-27.73,-2.85,36.46,-395,4812,6512,0,-1,0
-27.73,-2.84,36.46,-386,4816,6499,0,-1,-1
-27.72,-2.84,36.47,-382,4809,6507,-1,0,-1
-27.72,-2.84,36.46,-384,4802,6513,-1,0,-1
-27.72,-2.85,36.46,-386,4795,6514,-1,0,-1
-27.72,-2.85,36.46,-392,4802,6514,0,0,-1
-27.71,-2.86,36.47,-395,4814,6517,0,0,-1
-27.71,-2.85,36.47,-400,4819,6518,0,-1,0
-27.72,-2.85,36.47,-397,4818,6518,0,-1,0
-27.72,-2.84,36.48,-389,4816,6502,0,0,0
-27.72,-2.84,36.48,-386,4813,6502,0,0,0
-27.72,-2.84,36.48,-383,4809,6503,0,0,-1
-27.72,-2.84,36.48,-388,4809,6504,0,0,-1
-27.72,-2.85,36.48,-392,4809,6511,-1,0,-1
-27.71,-2.85,36.47,-392,4806,6516,-1,-1,0
-27.72,-2.84,36.47,-394,4806,6504,-1,0,0
-27.72,-2.84,36.47,-388,4806,6506,-1,-1,0
-27.72,-2.84,36.47,-382,4802,6519,-1,-1,0
-27.72,-2.84,36.47,-380,4805,6508,0,0,-1
-27.72,-2.84,36.47,-386,4806,6516,0,0,-1
-27.72,-2.84,36.47,-389,4806,6521,0,0,-1
-27.72,-2.84,36.47,-387,4808,6515,0,0,-1
-27.73,-2.84,36.47,-386,4812,6507,0,-1,0
-27.73,-2.83,36.48,-394,4814,6506,0,-1,0
-27.73,-2.83,36.48,-389,4820,6498,0,-1,0
-27.73,-2.83,36.48,-387,4818,6493,-1,0,-1
-27.73,-2.83,36.48,-385,4815,6506,0,-1,-1
-27.73,-2.83,36.48,-387,4815,6513,0,0,-1
-27.73,-2.83,36.48,-386,4808,6516,0,0,-1
-27.72,-2.83,36.48,-384,4812,6520,-1,-1,-1
-27.72,-2.83,36.47,-383,4814,6517,-1,-1,-1
-27.72,-2.83,36.47,-381,4813,6511,-1,-1,0
-27.73,-2.82,36.47,-385,4808,6501,0,0,-1
-27.73,-2.82,36.47,-384,4809,6501,0,0,-1
-27.73,-2.82,36.47,-384,4807,6512,0,0,0
-27.73,-2.82,36.47,-386,4802,6501,0,-1,-1
-27.73,-2.82,36.47,-388,4805,6510,0,-1,-1
-27.72,-2.82,36.48,-389,4812,6493,0,-1,-1
-27.72,-2.82,36.48,-386,4818,6499,-1,-1,-1
-27.72,-2.82,36.48,-384,4817,6502,-1,-1,0
-27.72,-2.82,36.47,-384,4808,6503,-1,-1,0
-27.73,-2.81,36.47,-383,4803,6516,0,-1,0
-27.72,-2.81,36.47,-380,4810,6513,0,-1,-1
-27.72,-2.81,36.47,-379,4812,6511,0,0,-1
-27.72,-2.81,36.47,-379,4815,6507,0,-1,-1
-27.71,-2.81,36.48,-385,4819,6504,-1,-1,-1
-27.72,-2.81,36.47,-388,4813,6508,-1,-1,-1
-27.71,-2.81,36.48,-389,4807,6515,0,0,-1
-27.70,-2.81,36.48,-391,4810,6513,0,-1,-1
-27.69,-2.82,36.49,-397,4822,6510,0,-1,0
-27.70,-2.82,36.48,-401,4831,6509,-1,0,0
-27.71,-2.81,36.48,-390,4819,6505,-1,-1,0
-27.71,-2.81,36.48,-385,4816,6508,0,0,-1
-27.71,-2.81,36.48,-389,4812,6509,0,0,-1
-27.70,-2.82,36.48,-386,4811,6513,-1,-1,-1
-27.70,-2.82,36.47,-390,4804,6511,-1,0,-1
-27.70,-2.82,36.47,-389,4807,6520,0,-1,-1
-27.70,-2.82,36.47,-396,4808,6517,0,-1,0
-27.70,-2.81,36.47,-395,4807,6505,-1,-1,0
-27.70,-2.80,36.47,-382,4809,6504,0,-1,0
-27.70,-2.80,36.48,-387,4829,6502,0,-1,-1
-27.70,-2.80,36.48,-384,4814,6497,-1,0,-1
-27.70,-2.80,36.47,-392,4813,6496,-1,0,-1
-27.70,-2.80,36.47,-386,4809,6511,-1,-1,0
-27.71,-2.80,36.46,-390,4805,6515,0,0,-1
-27.71,-2.80,36.47,-390,4816,6522,-1,-1,0
-27.71,-2.79,36.46,-377,4814,6523,-1,0,0
-27.73,-2.79,36.45,-386,4798,6515,-1,0,0
-27.73,-2.79,36.45,-384,4786,6518,-1,-1,0
-27.73,-2.79,36.45,-377,4795,6507,0,0,-1
-27.72,-2.78,36.46,-378,4818,6509,0,-1,-1
-27.72,-2.78,36.46,-392,4824,6511,-1,-1,0
-27.72,-2.77,36.46,-382,4818,6508,0,-1,0
-27.72,-2.77,36.47,-388,4815,6501,0,-1,0
-27.73,-2.77,36.47,-380,4812,6501,-1,-1,0
-27.73,-2.76,36.47,-376,4805,6504,-1,0,0
-27.74,-2.76,36.47,-376,4813,6502,-1,0,0
-27.74,-2.76,36.46,-382,4807,6498,-1,-1,0
-27.75,-2.76,36.45,-383,4807,6502,-1,0,0
-27.76,-2.75,36.45,-378,4805,6502,-1,-1,0
-27.77,-2.74,36.44,-379,4805,6504,-1,-1,0
-27.78,-2.73,36.44,-374,4808,6499,-1,-1,0
-27.78,-2.73,36.43,-368,4809,6502,-1,0,0
-27.78,-2.73,36.43,-367,4810,6514,-1,0,-1
-27.79,-2.72,36.42,-372,4804,6524,-1,-1,0
-27.79,-2.72,36.42,-371,4807,6518,-1,-1,0
-27.80,-2.71,36.42,-373,4814,6514,-1,-1,0
-27.80,-2.71,36.42,-372,4819,6509,-1,-1,0
-27.80,-2.71,36.42,-374,4814,6515,-1,-1,0
-27.80,-2.70,36.41,-377,4804,6512,-1,-1,0
-27.81,-2.70,36.41,-376,4791,6520,-1,0,0
-27.81,-2.70,36.40,-375,4799,6515,-1,-1,0
-27.82,-2.69,36.41,-367,4800,6519,0,0,0
-27.82,-2.69,36.40,-374,4802,6521,-1,-1,0
-27.82,-2.69,36.40,-371,4799,6520,-1,0,-1
-27.82,-2.69,36.40,-379,4804,6515,-1,0,0
-27.83,-2.68,36.39,-386,4807,6515,-1,-1,0
-27.84,-2.67,36.39,-381,4805,6504,-1,-1,0
-27.85,-2.66,36.39,-379,4794,6517,-1,-1,0
-27.85,-2.66,36.38,-366,4792,6500,-1,-1,0
-27.85,-2.65,36.38,-369,4794,6493,-1,-1,-1
-27.85,-2.65,36.38,-361,4803,6513,-1,0,-1
-27.85,-2.66,36.38,-367,4800,6514,0,0,-1
-27.84,-2.66,36.39,-377,4805,6511,0,-1,-1
-27.84,-2.65,36.39,-372,4804,6521,-1,0,0
-27.84,-2.65,36.39,-371,4811,6525,0,0,0
-27.84,-2.65,36.39,-371,4799,6514,0,-1,0
-27.85,-2.64,36.40,-372,4803,6506,0,-1,0
-27.85,-2.63,36.41,-369,4797,6515,0,-1,0
-27.85,-2.62,36.41,-385,4802,6528,0,-1,0
-27.86,-2.58,36.41,-386,4814,6507,0,-2,0
-27.89,-2.54,36.40,-329,4790,6520,-1,-1,1
-27.90,-2.54,36.41,-340,4823,6514,-1,0,-1
-27.90,-2.52,36.41,-387,4784,6516,0,-2,0
-27.92,-2.48,36.40,-324,4774,6507,-1,0,0
-27.92,-2.47,36.41,-386,4778,6513,1,-3,0
-27.94,-2.42,36.42,-273,4803,6500,-1,1,0
-27.93,-2.45,36.43,-359,4833,6497,0,-1,-1
-27.93,-2.42,36.43,-346,4790,6531,0,-2,0
-27.95,-2.42,36.43,-291,4843,6494,-1,1,-1
-27.95,-2.47,36.40,-303,4850,6489,-2,2,-2
-27.94,-2.52,36.37,-368,4798,6505,-2,0,-1
-27.93,-2.52,36.34,-377,4788,6507,-1,-1,-1
-27.94,-2.52,36.31,-382,4787,6525,-2,-1,0
-27.97,-2.50,36.28,-369,4778,6535,-2,-1,0
-27.98,-2.49,36.26,-339,4762,6546,-1,0,0
-27.98,-2.49,36.26,-330,4756,6556,0,0,-1
-27.98,-2.50,36.27,-337,4774,6549,0,0,-1
-27.96,-2.51,36.28,-348,4779,6522,0,0,-1
-27.96,-2.52,36.29,-355,4788,6508,0,0,-1
-27.96,-2.53,36.29,-368,4808,6513,-1,0,0
-27.96,-2.52,36.28,-367,4813,6532,-1,0,0
-27.97,-2.52,36.28,-360,4800,6545,-1,-1,0
-27.97,-2.52,36.28,-362,4789,6549,0,-1,0
-27.97,-2.51,36.28,-351,4781,6540,0,0,0
-27.96,-2.52,36.29,-338,4779,6523,0,0,-1
-27.96,-2.52,36.30,-344,4794,6522,0,0,-1
-27.95,-2.54,36.30,-350,4806,6517,-1,0,-1
-27.95,-2.54,36.31,-354,4808,6520,-1,0,-1
-27.95,-2.54,36.31,-364,4811,6519,0,-1,0
-27.94,-2.53,36.32,-353,4809,6517,0,-1,0
-27.96,-2.52,36.32,-348,4795,6518,0,-1,0
-27.95,-2.52,36.32,-340,4794,6510,0,0,-1
-27.95,-2.53,36.32,-347,4798,6512,0,0,-1
-27.94,-2.54,36.33,-351,4792,6508,-1,0,-1
-27.94,-2.55,36.33,-359,4790,6519,0,0,-1
-27.93,-2.55,36.33,-370,4794,6518,0,0,-1
-27.93,-2.55,36.34,-369,4798,6524,0,-1,0
-27.93,-2.55,36.34,-354,4802,6526,0,-1,-1
-27.93,-2.54,36.34,-350,4797,6516,0,0,0
-27.93,-2.55,36.35,-346,4799,6510,0,0,-1
-27.93,-2.55,36.35,-350,4795,6508,-1,0,-1
-27.92,-2.55,36.35,-355,4795,6507,-1,0,-1
-27.92,-2.56,36.35,-359,4792,6507,-1,0,-1
-27.92,-2.55,36.35,-354,4795,6512,0,0,-1
-27.92,-2.56,36.35,-361,4799,6516,-1,-1,0
-27.92,-2.55,36.35,-361,4801,6517,-1,-1,0
-27.92,-2.55,36.35,-358,4794,6517,-1,-1,0
-27.92,-2.55,36.35,-353,4792,6517,0,0,-1
-27.91,-2.56,36.35,-355,4790,6521,0,0,-1
-27.91,-2.57,36.35,-365,4795,6524,-1,0,-1
-27.90,-2.57,36.36,-369,4795,6535,0,-1,-1
-27.89,-2.58,36.36,-366,4799,6536,0,0,-1
-27.88,-2.58,36.37,-369,4796,6531,0,-1,0
-27.88,-2.58,36.37,-363,4800,6520,-1,0,-1
-27.88,-2.58,36.38,-365,4802,6500,0,0,-1
-27.88,-2.58,36.38,-363,4810,6503,-1,-1,-1
-27.88,-2.59,36.37,-368,4805,6523,-1,0,-1
-27.88,-2.59,36.37,-374,4810,6526,0,-1,0
-27.88,-2.59,36.37,-356,4796,6519,0,-1,0
-27.88,-2.59,36.38,-359,4797,6515,0,0,-1
-27.87,-2.60,36.38,-362,4804,6506,0,0,-1
-27.87,-2.60,36.38,-364,4796,6517,0,0,-1
-27.87,-2.61,36.39,-377,4795,6523,0,0,-1
-27.87,-2.61,36.39,-376,4798,6516,-1,0,-1
-27.87,-2.61,36.38,-369,4793,6516,-1,0,-1
-27.87,-2.61,36.38,-380,4794,6524,-1,-1,0
-27.87,-2.61,36.38,-370,4791,6514,0,0,0
-27.86,-2.62,36.38,-368,4793,6510,0,0,-1
-27.86,-2.62,36.40,-379,4803,6509,0,-1,-1
-27.85,-2.63,36.40,-374,4812,6490,-1,-1,0
-27.86,-2.62,36.39,-361,4806,6506,-1,0,0
-27.86,-2.63,36.39,-378,4798,6526,0,-1,0
-27.86,-2.63,36.39,-377,4798,6528,0,0,0
-27.86,-2.62,36.40,-374,4800,6515,0,-1,0
-27.86,-2.63,36.39,-360,4793,6507,-1,0,-1
-27.85,-2.64,36.39,-372,4795,6500,-1,0,-1
-27.85,-2.65,36.40,-378,4803,6520,0,0,-1
-27.84,-2.66,36.40,-384,4806,6529,0,0,-1
-27.84,-2.65,36.41,-387,4812,6524,0,-1,-1
-27.84,-2.65,36.41,-384,4808,6528,-1,0,0
-27.84,-2.66,36.41,-387,4814,6512,-1,0,-1
-27.83,-2.67,36.41,-384,4808,6506,0,-1,-1
-27.83,-2.67,36.41,-378,4805,6513,0,0,-1
-27.83,-2.67,36.42,-374,4811,6517,-1,0,-1
-27.83,-2.67,36.41,-375,4807,6517,-1,0,-1
-27.82,-2.68,36.41,-380,4803,6523,0,-1,-1
-27.82,-2.67,36.42,-392,4811,6526,0,-1,0
-27.82,-2.65,36.42,-358,4794,6534,0,-1,0
-27.82,-2.66,36.42,-361,4793,6525,0,0,-1
-27.80,-2.66,36.43,-379,4776,6519,0,-1,-1
-27.80,-2.66,36.45,-368,4809,6535,0,0,0
-27.79,-2.66,36.47,-386,4830,6506,0,-1,0
-27.79,-2.66,36.47,-377,4827,6517,-1,0,0
-27.79,-2.65,36.48,-378,4820,6513,0,-1,0
-27.79,-2.64,36.49,-368,4827,6488,-1,-1,0
-27.79,-2.63,36.50,-376,4800,6465,0,-1,0
-27.79,-2.63,36.50,-358,4811,6482,-1,0,0
-27.79,-2.63,36.50,-394,4798,6486,0,-1,0
-27.78,-2.62,36.52,-342,4820,6516,0,-1,0
-27.78,-2.64,36.52,-377,4850,6506,-1,0,-1
-27.76,-2.63,36.52,-378,4808,6501,0,-2,0
-27.76,-2.64,36.53,-370,4829,6509,0,1,-1
-27.77,-2.64,36.51,-379,4810,6533,0,-1,0
-27.76,-2.64,36.52,-372,4805,6523,0,-1,-1
-27.74,-2.65,36.53,-363,4853,6498,0,0,-1
-27.75,-2.65,36.53,-369,4813,6491,0,-1,0
-27.75,-2.65,36.52,-371,4802,6504,-1,0,-1
-27.76,-2.64,36.52,-351,4824,6515,-1,0,0
-27.75,-2.65,36.53,-398,4827,6498,-1,-1,0
-27.75,-2.63,36.53,-355,4831,6484,0,-1,-1
-27.74,-2.64,36.54,-376,4846,6515,-1,0,0
-27.75,-2.63,36.53,-381,4830,6518,-1,-1,0
-27.76,-2.62,36.52,-356,4805,6499,0,0,-1
-27.76,-2.63,36.53,-371,4819,6521,0,0,-1
-27.75,-2.63,36.53,-371,4830,6501,-1,0,-1
-27.75,-2.63,36.53,-367,4816,6492,0,-1,-1
-27.76,-2.63,36.52,-373,4825,6492,-1,0,-1
-27.76,-2.64,36.51,-374,4798,6493,-1,0,0
-27.76,-2.64,36.50,-364,4811,6512,0,0,-1
-27.75,-2.66,36.52,-377,4822,6514,0,0,-1
-27.74,-2.67,36.52,-383,4827,6495,-1,0,0
-27.75,-2.67,36.51,-373,4823,6492,-1,0,-1
-27.75,-2.69,36.50,-373,4818,6498,-1,0,-1
-27.75,-2.69,36.49,-375,4813,6507,-1,0,-1
-27.76,-2.70,36.48,-393,4802,6508,-1,0,0
-27.76,-2.70,36.48,-389,4811,6517,-1,0,0
-27.76,-2.70,36.47,-380,4812,6521,-1,0,0
-27.77,-2.70,36.46,-376,4816,6526,-1,0,0
-27.78,-2.69,36.46,-369,4809,6521,-1,0,0
-27.78,-2.69,36.46,-373,4800,6511,0,0,0
-27.78,-2.70,36.46,-369,4802,6504,0,0,-1
-27.78,-2.70,36.46,-378,4806,6510,-1,0,-1
-27.78,-2.71,36.46,-383,4804,6513,-1,0,0
-27.78,-2.70,36.46,-392,4805,6522,0,0,0
-27.78,-2.70,36.46,-387,4814,6515,0,-1,0
-27.78,-2.69,36.47,-374,4815,6503,0,-1,0
-27.78,-2.69,36.46,-378,4809,6515,-1,-1,0
-27.78,-2.69,36.46,-379,4801,6505,-1,0,-1
-27.79,-2.69,36.45,-383,4796,6514,-1,0,0
-27.79,-2.69,36.45,-387,4802,6518,-1,-1,0
-27.79,-2.69,36.45,-392,4815,6518,-1,0,0
-27.79,-2.69,36.45,-390,4820,6523,-1,-1,0
-27.80,-2.68,36.44,-388,4820,6519,-1,-1,0
-27.80,-2.68,36.44,-379,4809,6513,-1,-1,0
-27.81,-2.68,36.44,-377,4806,6516,-1,-1,0
-27.80,-2.68,36.43,-375,4803,6519,0,0,-1
-27.81,-2.68,36.44,-378,4817,6517,0,0,-1
-27.81,-2.68,36.44,-376,4810,6522,-1,-1,0
-27.81,-2.68,36.43,-373,4803,6513,-1,-1,0
-27.81,-2.68,36.43,-375,4803,6507,-1,0,-1
-27.81,-2.68,36.43,-374,4812,6503,-1,0,-1
-27.81,-2.68,36.43,-380,4814,6511,-1,0,0
-27.82,-2.67,36.42,-373,4814,6515,-1,-1,0
-27.82,-2.67,36.42,-374,4815,6516,-1,-1,0
-27.83,-2.66,36.42,-367,4800,6510,-1,-1,0
-27.83,-2.66,36.42,-360,4800,6511,-1,0,0
-27.83,-2.67,36.41,-361,4792,6517,-1,0,-1
-27.83,-2.67,36.41,-370,4794,6522,0,0,-1
-27.83,-2.67,36.41,-382,4804,6521,0,0,-1
-27.83,-2.67,36.42,-387,4812,6522,0,-1,0
-27.83,-2.67,36.42,-386,4816,6522,0,-1,0
-27.83,-2.67,36.42,-383,4813,6517,-1,-1,0
-27.83,-2.67,36.43,-377,4815,6516,0,0,0
-27.83,-2.67,36.43,-374,4815,6509,0,0,0
-27.83,-2.67,36.43,-371,4815,6512,-1,0,-1
-27.84,-2.67,36.43,-376,4813,6514,-1,0,-1
-27.84,-2.67,36.42,-382,4808,6519,-1,0,0
-27.84,-2.67,36.42,-380,4819,6514,0,0,0
-27.84,-2.67,36.43,-377,4821,6517,-1,0,0
-27.84,-2.67,36.42,-376,4813,6515,-1,-1,-1
-27.85,-2.67,36.42,-377,4804,6517,-1,0,0
-27.85,-2.67,36.42,-379,4799,6524,0,-1,-1
-27.84,-2.67,36.42,-382,4801,6517,0,0,-1
-27.84,-2.67,36.42,-386,4805,6513,0,0,0
-27.84,-2.67,36.42,-379,4813,6526,-1,-1,0
-27.84,-2.66,36.43,-380,4813,6515,0,-1,0
-27.84,-2.66,36.43,-375,4811,6512,-1,-1,0
-27.84,-2.66,36.43,-373,4808,6509,-1,0,0
-27.85,-2.66,36.43,-375,4803,6511,0,0,-1
-27.85,-2.66,36.43,-379,4806,6504,-1,0,0
-27.85,-2.66,36.43,-382,4805,6509,-1,-1,0
-27.85,-2.66,36.43,-377,4807,6510,-1,0,-1
-27.85,-2.66,36.42,-378,4800,6519,-1,-1,0
-27.85,-2.66,36.42,-378,4804,6510,-1,-1,0
-27.85,-2.66,36.42,-374,4798,6513,-1,0,-1
-27.85,-2.67,36.42,-376,4795,6510,0,0,-1
-27.85,-2.67,36.42,-378,4803,6515,0,-1,-1
-27.85,-2.67,36.42,-379,4806,6504,-1,0,-1
-27.84,-2.67,36.43,-382,4805,6515,0,-1,-1
-27.83,-2.67,36.43,-377,4818,6515,0,-1,-1
-27.83,-2.67,36.43,-380,4815,6503,-1,-1,0
-27.84,-2.66,36.43,-381,4818,6491,-1,-1,0
-27.84,-2.65,36.44,-371,4804,6506,-1,-1,0
-27.85,-2.65,36.44,-386,4799,6509,0,-1,0
-27.83,-2.64,36.45,-398,4800,6522,0,-2,0
-27.84,-2.62,36.45,-357,4823,6517,-1,0,0
-27.85,-2.62,36.46,-400,4821,6503,0,-1,0
-27.85,-2.60,36.46,-360,4814,6519,-1,-1,0
-27.85,-2.60,36.46,-368,4804,6501,-1,-1,0
-27.86,-2.59,36.47,-362,4821,6529,0,0,0
-27.87,-2.59,36.45,-393,4786,6518,-1,0,0
-27.87,-2.58,36.46,-359,4806,6519,0,0,0
-27.87,-2.59,36.46,-387,4819,6528,-1,-1,0
-27.88,-2.57,36.46,-347,4812,6526,0,-1,0
-27.89,-2.58,36.46,-357,4819,6508,-1,0,-1
-27.88,-2.58,36.46,-386,4813,6483,-1,-1,0
-27.90,-2.57,36.44,-338,4802,6504,-1,0,0
-27.89,-2.58,36.44,-366,4800,6493,0,-1,-1
-27.89,-2.58,36.44,-361,4825,6518,-1,0,0
-27.90,-2.59,36.43,-381,4817,6518,-1,-1,0
-27.91,-2.58,36.42,-365,4812,6496,-1,0,-1
-27.91,-2.59,36.41,-382,4808,6500,-1,0,0
-27.91,-2.58,36.41,-380,4805,6502,-1,-1,0
-27.92,-2.57,36.40,-357,4806,6499,-1,0,-1
-27.92,-2.56,36.40,-360,4810,6515,-1,0,0
-27.93,-2.57,36.38,-353,4807,6519,-1,0,0
-27.93,-2.57,36.38,-358,4795,6513,0,0,-1
-27.93,-2.57,36.38,-365,4807,6512,-1,-1,0
-27.94,-2.56,36.38,-361,4815,6517,-1,-1,0
-27.94,-2.56,36.36,-372,4803,6519,-1,-1,0
-27.96,-2.55,36.36,-366,4794,6516,-1,-1,0
-27.96,-2.54,36.35,-363,4793,6520,-1,-1,0
-27.97,-2.54,36.34,-363,4804,6517,-1,0,0
-27.98,-2.53,36.34,-357,4802,6524,-1,0,0
-27.98,-2.53,36.33,-356,4797,6519,-1,0,0
-27.99,-2.53,36.33,-366,4802,6518,0,-1,0
-27.98,-2.53,36.34,-365,4798,6511,0,-1,-1
-27.98,-2.53,36.34,-358,4799,6513,-1,0,-1
-27.98,-2.53,36.34,-351,4798,6523,-1,0,0
-27.99,-2.53,36.33,-352,4794,6525,-1,0,0
-28.00,-2.52,36.33,-358,4789,6532,-1,-1,0
-28.00,-2.52,36.33,-353,4786,6535,0,0,0
-28.00,-2.53,36.32,-359,4791,6537,-1,0,0
-28.00,-2.53,36.32,-362,4799,6532,-1,-1,0
-28.00,-2.52,36.32,-362,4802,6531,-1,0,0
-28.00,-2.52,36.32,-362,4801,6523,-1,0,0
-28.01,-2.52,36.32,-361,4792,6526,-1,0,0
-28.01,-2.52,36.31,-361,4793,6525,-1,0,0
-28.01,-2.53,36.32,-366,4798,6525,-1,0,0
-28.01,-2.53,36.31,-366,4797,6519,-1,-1,0
-28.01,-2.52,36.31,-363,4799,6507,-1,-1,0
-28.01,-2.52,36.31,-354,4802,6516,-1,0,0
-28.01,-2.52,36.31,-357,4795,6525,-1,-1,0
-28.02,-2.51,36.31,-353,4794,6531,-1,-1,0
-28.02,-2.51,36.31,-355,4789,6528,0,0,0
-28.02,-2.52,36.31,-367,4788,6533,0,0,0
-28.02,-2.52,36.31,-360,4794,6520,0,0,-1
-28.02,-2.53,36.31,-358,4799,6522,0,0,-1
-28.02,-2.53,36.31,-363,4798,6525,0,0,-1
-28.02,-2.53,36.32,-365,4800,6523,0,0,-1
-28.02,-2.53,36.32,-366,4798,6515,0,0,-1
-28.01,-2.54,36.33,-364,4800,6515,0,0,-1
-28.01,-2.54,36.33,-369,4799,6520,0,0,-1
-28.00,-2.54,36.34,-373,4800,6528,0,0,-1
-28.00,-2.54,36.34,-365,4798,6532,0,0,-1
-28.00,-2.54,36.34,-364,4793,6522,0,0,-1
-27.99,-2.55,36.34,-362,4796,6518,0,0,-1
-27.99,-2.55,36.35,-366,4803,6511,-1,0,-1
-27.99,-2.55,36.35,-369,4796,6513,-1,0,0
-27.99,-2.55,36.35,-366,4795,6519,0,0,-1
-27.98,-2.56,36.35,-370,4803,6519,0,-1,0
-27.99,-2.56,36.36,-362,4809,6520,0,-1,0
-27.99,-2.55,36.36,-361,4811,6525,0,-1,0
-27.99,-2.55,36.36,-352,4802,6516,-1,0,-1
-27.99,-2.55,36.36,-347,4790,6510,-1,0,-1
-27.98,-2.56,36.36,-354,4784,6522,0,0,-1
-27.98,-2.57,36.36,-364,4791,6521,0,0,-1
-27.98,-2.58,36.36,-369,4804,6527,0,0,0
-27.97,-2.57,36.37,-369,4815,6518,0,0,0
-27.97,-2.57,36.37,-374,4811,6503,0,-1,0
-27.97,-2.57,36.37,-367,4812,6508,-1,0,0
-27.97,-2.58,36.38,-362,4807,6509,-1,0,-1
-27.97,-2.58,36.38,-364,4799,6513,0,0,-1
-27.97,-2.58,36.38,-366,4803,6508,0,0,-1
-27.97,-2.58,36.38,-369,4805,6516,-1,0,-1
-27.96,-2.59,36.38,-364,4799,6515,0,0,-1
-27.96,-2.59,36.38,-363,4796,6510,0,0,0
-27.96,-2.59,36.38,-366,4807,6510,0,0,0
-27.96,-2.59,36.38,-368,4802,6514,0,0,-1
-27.96,-2.59,36.39,-362,4802,6521,0,0,-1
-27.96,-2.59,36.39,-359,4797,6514,0,0,-1
-27.96,-2.60,36.39,-367,4798,6514,0,0,-1
-27.96,-2.60,36.39,-371,4803,6510,0,0,-1
-27.95,-2.60,36.40,-367,4812,6519,0,0,-1
-27.95,-2.60,36.40,-372,4811,6519,-1,0,-1
-27.95,-2.60,36.40,-367,4796,6513,-1,0,0
-27.95,-2.60,36.40,-363,4796,6520,0,0,-1
-27.94,-2.60,36.41,-357,4801,6518,0,0,-1
-27.94,-2.61,36.41,-367,4812,6522,0,0,-1
-27.93,-2.62,36.41,-376,4814,6510,-1,-1,-1
-27.93,-2.61,36.41,-368,4799,6524,0,0,-1
-27.93,-2.62,36.41,-379,4804,6518,0,0,-1
-27.92,-2.62,36.42,-373,4794,6520,0,0,-1
-27.91,-2.63,36.43,-366,4806,6514,0,0,-1
-27.90,-2.64,36.43,-380,4807,6515,0,0,-1
-27.90,-2.64,36.43,-375,4819,6515,0,0,-1
-27.91,-2.65,36.43,-380,4802,6510,-1,0,-1
-27.90,-2.65,36.44,-377,4796,6516,0,0,-1
-27.89,-2.65,36.44,-371,4798,6513,0,0,-1
-27.89,-2.66,36.46,-389,4806,6509,0,0,-1
-27.89,-2.66,36.45,-359,4805,6514,0,0,-1
-27.88,-2.67,36.46,-372,4801,6517,0,0,-1
-27.87,-2.67,36.47,-384,4806,6523,0,-1,-1
-27.88,-2.67,36.47,-381,4803,6508,0,0,-1
-27.86,-2.69,36.48,-389,4816,6516,0,-1,-1
-27.87,-2.68,36.48,-374,4813,6505,-1,0,-1
-27.86,-2.69,36.48,-393,4812,6507,-1,-1,0
-27.86,-2.69,36.47,-373,4802,6515,-1,0,-1
-27.87,-2.69,36.46,-379,4798,6520,-1,0,-1
-27.87,-2.69,36.46,-380,4807,6519,0,-1,0
-27.87,-2.69,36.47,-380,4816,6514,-1,-1,-1
-27.87,-2.69,36.46,-384,4819,6509,-1,0,-1
-27.86,-2.70,36.47,-388,4816,6509,-1,0,-1
-27.87,-2.69,36.46,-379,4808,6517,-1,0,0
-27.88,-2.69,36.45,-379,4810,6519,0,0,0
-27.87,-2.69,36.46,-381,4803,6517,0,-1,-1
-27.87,-2.69,36.46,-385,4806,6511,-1,-1,0
-27.88,-2.69,36.46,-369,4811,6511,-1,0,0
-27.88,-2.69,36.44,-373,4809,6520,-1,0,-1
-27.88,-2.69,36.44,-377,4795,6510,-1,0,-1
-27.88,-2.70,36.44,-384,4799,6526,0,0,-1
-27.87,-2.70,36.45,-388,4805,6530,0,0,-1
-27.87,-2.70,36.45,-391,4828,6515,0,-1,0
-27.87,-2.70,36.46,-390,4829,6510,0,-1,0
-27.87,-2.70,36.46,-383,4821,6504,-1,0,0
-27.87,-2.70,36.46,-386,4812,6502,-1,0,0
-27.87,-2.70,36.45,-377,4810,6506,0,0,-1
-27.87,-2.70,36.46,-386,4815,6506,0,0,-1
-27.87,-2.71,36.46,-392,4811,6499,-1,0,-1
-27.87,-2.71,36.46,-391,4808,6505,-1,0,0
-27.87,-2.71,36.46,-380,4806,6506,0,-1,-1
-27.87,-2.71,36.46,-381,4802,6512,0,0,-1
-27.87,-2.71,36.46,-383,4805,6507,0,0,-1
-27.87,-2.72,36.46,-387,4819,6496,-1,0,-1
-27.87,-2.73,36.46,-391,4814,6499,-1,0,0
-27.87,-2.73,36.46,-392,4809,6509,0,0,-1
-27.86,-2.73,36.46,-402,4804,6513,0,0,-1
-27.86,-2.73,36.47,-389,4804,6509,0,-1,-1
-27.85,-2.73,36.48,-380,4815,6511,0,0,-1
-27.85,-2.74,36.48,-386,4817,6514,-1,-1,-1
-27.85,-2.74,36.48,-383,4808,6501,-1,0,-1
-27.85,-2.74,36.48,-389,4816,6503,-1,0,-1
-27.85,-2.74,36.47,-389,4803,6510,-1,0,-1
-27.85,-2.74,36.48,-388,4803,6516,-1,0,-1
-27.85,-2.74,36.48,-386,4799,6521,0,0,-1
-27.85,-2.75,36.47,-389,4801,6519,-1,0,-1
-27.84,-2.75,36.48,-395,4802,6511,0,0,-1
-27.85,-2.75,36.47,-397,4801,6509,-1,0,-1
-27.84,-2.76,36.48,-406,4821,6506,0,-1,-1
-27.84,-2.76,36.48,-399,4813,6518,-1,-1,-1
-27.84,-2.76,36.47,-402,4813,6523,-1,-1,0
-27.85,-2.75,36.47,-402,4806,6521,0,0,0
-27.85,-2.75,36.47,-401,4805,6518,0,0,-1
-27.84,-2.76,36.47,-396,4822,6512,-1,0,-1
-27.84,-2.76,36.48,-400,4830,6503,-1,0,0
-27.84,-2.76,36.48,-391,4825,6507,0,-1,0
-27.84,-2.76,36.48,-392,4819,6510,0,0,-1
-27.84,-2.76,36.48,-389,4804,6516,0,-1,-1
-27.82,-2.76,36.49,-390,4812,6505,0,0,-1
-27.81,-2.77,36.50,-392,4812,6506,0,0,-1
-27.81,-2.77,36.50,-395,4814,6497,0,0,-1
-27.81,-2.78,36.51,-406,4819,6507,-1,0,-1
-27.81,-2.78,36.51,-402,4818,6497,-1,-1,0
-27.82,-2.77,36.51,-396,4823,6503,-1,-1,0
-27.82,-2.76,36.50,-388,4809,6512,-1,-1,0
-27.82,-2.76,36.50,-388,4813,6501,-1,-1,-1
-27.82,-2.76,36.49,-372,4797,6500,-1,0,-1
-27.82,-2.77,36.50,-391,4811,6502,-1,0,-1
-27.82,-2.77,36.49,-392,4813,6518,-1,0,-1
-27.82,-2.77,36.49,-405,4821,6519,-1,-1,0
-27.82,-2.77,36.49,-394,4814,6525,-1,-1,0
-27.83,-2.75,36.48,-390,4800,6509,-1,-1,0
-27.83,-2.75,36.48,-385,4801,6510,-1,-1,0
-27.84,-2.75,36.48,-390,4809,6519,0,-1,0
-27.84,-2.75,36.48,-388,4814,6514,-1,0,-1
-27.85,-2.75,36.48,-385,4815,6512,-1,0,0
-27.85,-2.75,36.48,-389,4818,6517,-1,0,0
-27.85,-2.75,36.47,-398,4817,6525,-1,-1,0
-27.86,-2.74,36.47,-391,4811,6525,-1,-1,0
-27.86,-2.73,36.46,-388,4811,6513,-1,-1,0
-27.87,-2.73,36.46,-384,4805,6510,-1,-1,0
-27.87,-2.72,36.46,-380,4808,6503,0,0,0
-27.87,-2.72,36.46,-373,4809,6511,-1,-1,0
-27.88,-2.72,36.45,-377,4813,6507,-1,0,0
-27.88,-2.72,36.45,-387,4811,6506,0,-1,0
-27.88,-2.71,36.46,-386,4808,6499,-1,-1,0
-27.88,-2.71,36.46,-383,4815,6495,-1,-1,0
-27.88,-2.71,36.46,-379,4813,6496,-1,0,0
-27.88,-2.71,36.46,-379,4816,6504,-1,-1,0
-27.89,-2.71,36.46,-380,4814,6500,-1,-1,0
-27.89,-2.70,36.45,-387,4815,6514,-1,-1,0
-27.89,-2.70,36.45,-382,4809,6514,-1,-1,0
-27.89,-2.70,36.45,-374,4802,6506,-1,-1,0
-27.89,-2.70,36.45,-376,4803,6500,-1,0,-1
-27.90,-2.69,36.45,-375,4811,6505,-1,0,0
-27.90,-2.69,36.45,-374,4804,6509,-1,0,-1
-27.90,-2.69,36.45,-375,4814,6502,-1,-1,0
-27.90,-2.69,36.45,-375,4818,6504,-1,0,0
-27.90,-2.69,36.45,-378,4817,6503,-1,-1,0
-27.90,-2.68,36.45,-384,4815,6508,-1,-1,0
-27.90,-2.68,36.45,-390,4810,6514,-1,0,0
-27.90,-2.69,36.44,-388,4808,6512,-1,-1,-1
-27.90,-2.68,36.45,-375,4811,6512,-1,-1,0
-27.90,-2.68,36.45,-381,4815,6515,0,-1,-1
-27.91,-2.68,36.45,-376,4813,6513,-1,0,0
-27.91,-2.68,36.45,-374,4810,6509,-1,-1,0
-27.91,-2.68,36.44,-377,4803,6506,-1,0,0
-27.91,-2.68,36.44,-385,4802,6513,-1,-1,-1
-27.91,-2.67,36.44,-381,4805,6507,0,-1,-1
-27.91,-2.68,36.45,-381,4816,6514,0,0,0
-27.91,-2.67,36.45,-379,4818,6516,-1,-1,0
-27.92,-2.67,36.45,-375,4811,6513,-1,0,0
-27.91,-2.66,36.44,-378,4801,6518,0,-1,-1
-27.91,-2.66,36.44,-369,4788,6507,0,0,-1
-27.91,-2.67,36.45,-377,4799,6489,0,0,-1
-27.90,-2.68,36.46,-379,4818,6500,-1,0,-1
-27.91,-2.68,36.45,-385,4821,6491,-1,0,0
-27.92,-2.67,36.45,-379,4822,6502,-1,-1,0
-27.92,-2.66,36.44,-378,4813,6498,-1,-1,0
-27.92,-2.65,36.44,-373,4812,6503,-1,-1,0
-27.93,-2.65,36.44,-376,4803,6510,-1,0,0
-27.94,-2.65,36.43,-368,4803,6507,-1,-1,0
-27.94,-2.65,36.43,-366,4812,6505,-1,0,0
-27.94,-2.65,36.43,-366,4815,6507,-1,-1,0
-27.94,-2.65,36.43,-375,4804,6500,-1,-1,0
-27.95,-2.64,36.42,-373,4797,6506,-1,-1,0
-27.96,-2.63,36.41,-374,4798,6521,-1,-1,0
-27.96,-2.63,36.41,-374,4802,6517,-1,-1,0
-27.97,-2.63,36.41,-375,4802,6516,-1,-1,0
-27.97,-2.62,36.40,-378,4797,6516,-1,0,0
-27.97,-2.62,36.40,-374,4799,6514,-1,-1,0
-27.97,-2.62,36.40,-378,4803,6519,0,0,0
-27.97,-2.62,36.40,-370,4807,6517,0,-1,-1
-27.97,-2.62,36.41,-371,4813,6515,-1,0,0
-27.98,-2.61,36.40,-373,4809,6522,-1,-1,0
-27.99,-2.61,36.39,-369,4797,6525,-1,-1,0
-27.99,-2.60,36.39,-365,4799,6518,0,-1,0
-27.99,-2.60,36.40,-369,4805,6514,0,0,0
-27.99,-2.60,36.39,-369,4807,6524,-1,-1,0
-28.00,-2.60,36.39,-374,4801,6524,-1,-1,0
-28.00,-2.60,36.38,-370,4800,6525,-1,0,-1
-28.00,-2.60,36.38,-376,4797,6529,0,0,-1
-28.00,-2.60,36.39,-371,4797,6527,0,-1,-1
-28.00,-2.60,36.40,-364,4799,6526,0,0,-1
-28.00,-2.60,36.40,-373,4799,6520,0,0,0
-28.00,-2.61,36.40,-378,4800,6519,-1,0,-1
-28.00,-2.61,36.40,-379,4807,6510,-1,-1,0
-28.00,-2.61,36.40,-367,4805,6503,0,0,0
-28.00,-2.61,36.39,-376,4815,6514,-1,-1,0
-28.01,-2.60,36.39,-362,4807,6510,-1,-1,0
-28.01,-2.60,36.39,-370,4810,6513,-1,0,-1
-28.01,-2.60,36.39,-370,4803,6527,-1,-1,0
-28.02,-2.60,36.38,-365,4805,6529,-1,0,0
-28.02,-2.60,36.38,-372,4807,6517,-1,-1,0
-28.02,-2.59,36.38,-367,4807,6514,-1,0,0
-28.02,-2.59,36.38,-369,4810,6515,-1,-1,0
-28.02,-2.59,36.38,-373,4809,6523,0,-1,0
-28.03,-2.58,36.38,-372,4803,6520,-1,-1,0
-28.03,-2.58,36.38,-363,4800,6513,0,0,-1
-28.03,-2.58,36.38,-356,4807,6511,-1,0,-1
-28.03,-2.58,36.38,-356,4811,6516,-1,-1,0
-28.03,-2.58,36.38,-360,4811,6514,0,0,0
-28.04,-2.58,36.37,-375,4801,6513,-1,-1,0
-28.04,-2.57,36.37,-360,4793,6504,-1,-1,0
-28.04,-2.57,36.38,-357,4803,6509,-1,0,0
-28.05,-2.56,36.37,-359,4799,6517,-1,-1,0
-28.05,-2.57,36.37,-364,4783,6510,-1,0,-1
-28.04,-2.57,36.37,-362,4782,6514,0,0,-1
-28.04,-2.57,36.37,-370,4784,6518,0,0,0
-28.04,-2.58,36.38,-370,4796,6523,0,0,-1
-28.04,-2.57,36.39,-371,4809,6528,0,0,-1
-28.04,-2.58,36.39,-369,4810,6518,0,0,-1
-28.03,-2.58,36.40,-369,4804,6508,0,-1,-1
-28.03,-2.57,36.40,-363,4804,6500,0,-1,0
-28.03,-2.58,36.40,-361,4814,6506,0,0,-1
-28.03,-2.58,36.40,-360,4813,6513,-1,-1,-1
-28.03,-2.58,36.40,-362,4799,6518,-1,0,-1
-28.03,-2.58,36.40,-375,4797,6517,-1,-1,0
-28.03,-2.58,36.40,-374,4799,6511,-1,-1,0
-28.03,-2.58,36.40,-368,4799,6519,-1,0,0
-28.04,-2.58,36.39,-365,4793,6533,-1,0,0
-28.03,-2.58,36.38,-358,4792,6535,0,0,-1
-28.03,-2.58,36.39,-363,4798,6529,0,0,-1
-28.02,-2.59,36.40,-368,4803,6523,0,0,-1
-28.02,-2.59,36.40,-368,4816,6522,0,0,-1
-28.02,-2.59,36.41,-373,4816,6521,0,0,0
-28.02,-2.59,36.41,-368,4815,6517,0,-1,0
-28.01,-2.59,36.41,-372,4808,6516,0,0,0
-28.02,-2.59,36.41,-367,4802,6507,-1,0,-1
-28.02,-2.60,36.41,-369,4798,6509,-1,0,-1
-28.02,-2.60,36.41,-365,4799,6516,-1,-1,-1
-28.02,-2.60,36.41,-365,4803,6505,0,0,-1
-28.02,-2.60,36.41,-368,4804,6512,-1,0,-1
-28.02,-2.60,36.41,-369,4800,6503,-1,0,0
-28.02,-2.60,36.40,-370,4795,6516,-1,0,0
-28.02,-2.60,36.40,-373,4791,6510,0,0,-1
-28.02,-2.61,36.40,-379,4786,6509,0,0,-1
-28.02,-2.61,36.40,-382,4792,6513,0,0,-1
-28.01,-2.62,36.41,-379,4810,6517,0,0,-1
-28.00,-2.62,36.41,-379,4813,6519,0,0,-1
-28.01,-2.62,36.41,-372,4812,6518,-1,-1,0
-28.01,-2.62,36.41,-369,4812,6521,-1,-1,0
-28.01,-2.62,36.41,-369,4807,6515,-1,0,0
-28.01,-2.62,36.41,-366,4806,6521,-1,-1,-1
-28.01,-2.62,36.41,-359,4802,6527,0,0,-1
-28.01,-2.62,36.41,-365,4800,6520,0,0,-1
-28.01,-2.62,36.41,-369,4801,6515,0,0,-1
-28.00,-2.62,36.41,-375,4804,6517,0,0,-1
-28.00,-2.62,36.41,-375,4799,6515,-1,0,-1
-28.00,-2.62,36.42,-374,4804,6516,0,0,-1
-28.00,-2.62,36.42,-371,4805,6517,0,-1,-1
-28.00,-2.63,36.42,-377,4802,6513,0,0,-1
-27.99,-2.63,36.42,-372,4807,6506,0,0,-1
-27.98,-2.64,36.42,-380,4813,6498,-1,0,-1
-27.99,-2.64,36.42,-383,4803,6504,-1,0,0
-27.99,-2.65,36.42,-386,4801,6514,-1,-1,0
-27.99,-2.64,36.42,-381,4808,6502,-1,-1,0
-27.99,-2.64,36.42,-380,4805,6510,0,-1,0
-27.99,-2.64,36.42,-374,4807,6508,-1,-1,-1
-27.99,-2.64,36.42,-372,4802,6508,0,0,-1
-27.98,-2.65,36.42,-371,4794,6510,0,0,-1
-27.97,-2.66,36.43,-376,4785,6518,0,0,-1
-27.96,-2.67,36.44,-389,4799,6507,0,0,-1
-27.96,-2.66,36.44,-388,4807,6503,0,-1,0
-27.95,-2.67,36.45,-382,4821,6506,0,0,-1
-27.95,-2.67,36.45,-373,4809,6508,-1,-1,0
-27.95,-2.67,36.45,-363,4800,6509,0,0,-1
-27.94,-2.68,36.46,-376,4801,6509,0,-1,-1
-27.93,-2.68,36.46,-379,4806,6510,-1,0,-1
-27.94,-2.69,36.46,-390,4819,6510,-1,0,-1
-27.94,-2.69,36.46,-384,4817,6515,0,-1,-1
-27.94,-2.69,36.46,-389,4808,6507,-1,0,-1
-27.94,-2.69,36.46,-384,4801,6505,-1,-1,0
-27.94,-2.69,36.45,-380,4789,6513,0,0,-1
-27.92,-2.70,36.47,-375,4805,6515,0,-1,-1
-27.91,-2.70,36.48,-387,4822,6518,0,-1,-1
-27.90,-2.71,36.49,-388,4823,6510,0,-1,-1
-27.90,-2.70,36.50,-391,4814,6513,0,-1,0
-27.91,-2.68,36.49,-380,4801,6536,0,-1,0
-27.91,-2.68,36.49,-380,4801,6536,0,-1,0
-27.90,-2.67,36.52,-389,4812,6493,0,-1,0
-27.91,-2.66,36.51,-359,4818,6499,-1,0,0
-27.91,-2.67,36.53,-386,4809,6507,0,-1,0
-27.91,-2.67,36.53,-354,4804,6496,0,0,-1
-27.91,-2.67,36.53,-390,4798,6484,0,-1,-1
-27.90,-2.67,36.54,-377,4817,6504,0,-1,0
-27.90,-2.68,36.55,-392,4820,6510,0,0,0
-27.91,-2.67,36.54,-357,4817,6499,0,-1,-1
-27.90,-2.67,36.55,-415,4826,6486,-1,-1,-1
-27.90,-2.66,36.55,-352,4822,6502,-1,0,0
-27.90,-2.67,36.56,-375,4813,6509,0,-1,-1
-27.89,-2.67,36.57,-368,4837,6513,-1,0,-1
-27.88,-2.69,36.57,-395,4820,6504,0,0,-1
-27.88,-2.69,36.56,-378,4832,6496,-1,1,-1
-27.88,-2.69,36.56,-399,4819,6492,0,-1,0
-27.89,-2.68,36.55,-385,4812,6507,-2,0,0
-27.89,-2.68,36.55,-377,4804,6501,0,-1,-1
-27.89,-2.68,36.55,-387,4829,6514,-1,0,-1
-27.89,-2.68,36.54,-370,4806,6486,-1,-1,0
-27.90,-2.69,36.53,-378,4800,6506,0,0,-1
-27.88,-2.70,36.54,-397,4817,6514,0,-1,-1
-27.87,-2.71,36.55,-393,4832,6511,-1,0,-1
-27.87,-2.70,36.54,-405,4822,6514,0,-1,0
-27.88,-2.69,36.53,-384,4826,6498,-1,0,0
-27.89,-2.68,36.53,-379,4817,6496,-1,-1,0
-27.89,-2.69,36.53,-375,4827,6540,-1,-1,-1
-27.88,-2.69,36.53,-384,4816,6512,0,0,-1
-27.88,-2.68,36.53,-368,4810,6489,-1,0,-1
-27.88,-2.70,36.53,-394,4820,6502,-1,-1,0
-27.88,-2.70,36.52,-380,4812,6501,-1,0,-1
-27.87,-2.70,36.52,-396,4818,6516,-1,-1,0
-27.87,-2.70,36.52,-387,4819,6504,0,0,0
-27.87,-2.70,36.53,-384,4827,6506,-1,-1,0
-27.88,-2.70,36.52,-375,4812,6500,0,0,-1
-27.88,-2.70,36.52,-389,4826,6507,-1,0,-1
-27.88,-2.70,36.52,-384,4810,6503,-1,0,-1
-27.88,-2.70,36.51,-383,4811,6505,-1,0,0
-27.88,-2.70,36.51,-384,4822,6515,-1,-1,0
-27.89,-2.70,36.50,-392,4831,6523,-1,-1,0
-27.89,-2.68,36.50,-386,4818,6514,-1,-1,0
-27.90,-2.67,36.49,-376,4818,6508,-1,-1,0
-27.90,-2.67,36.49,-376,4808,6509,-1,-1,0
-27.90,-2.67,36.49,-374,4814,6498,0,-1,0
-27.90,-2.67,36.49,-376,4809,6501,-1,0,-1
-27.90,-2.67,36.49,-396,4807,6515,-1,-1,0
-27.90,-2.67,36.48,-387,4798,6507,-1,0,0
-27.91,-2.67,36.47,-400,4815,6519,-1,-1,0
-27.91,-2.67,36.48,-384,4823,6511,0,-1,0
-27.91,-2.67,36.48,-392,4830,6513,-1,-1,0
-27.91,-2.67,36.48,-387,4821,6508,-1,-1,0
-27.92,-2.66,36.47,-374,4816,6512,-1,-1,-1
-27.92,-2.66,36.47,-373,4821,6523,-1,0,0
-27.92,-2.66,36.47,-379,4826,6524,-1,0,0
-27.92,-2.66,36.47,-381,4824,6517,0,0,0
-27.92,-2.67,36.47,-382,4828,6509,-1,0,0
-27.92,-2.66,36.47,-378,4825,6512,-1,-1,0
-27.92,-2.67,36.46,-375,4813,6496,-1,0,-1
-27.93,-2.67,36.46,-373,4805,6504,-1,0,-1
-27.92,-2.68,36.46,-373,4810,6517,-1,0,-1
-27.92,-2.68,36.45,-376,4813,6508,-1,0,-1
-27.93,-2.68,36.45,-378,4824,6509,-1,0,0
-27.92,-2.67,36.45,-381,4817,6511,-1,-1,0
-27.93,-2.67,36.45,-374,4809,6504,-1,0,0
-27.94,-2.67,36.45,-377,4809,6501,-1,0,0
-27.94,-2.67,36.45,-378,4816,6501,-1,0,-1
-27.93,-2.67,36.44,-379,4812,6505,-1,0,-1
-27.94,-2.67,36.44,-382,4815,6520,-1,0,0
-27.94,-2.67,36.43,-390,4812,6521,-1,-1,0
-27.95,-2.66,36.43,-385,4806,6521,-1,-1,0
-27.95,-2.66,36.43,-381,4808,6513,-1,-1,0
-27.95,-2.66,36.43,-376,4805,6510,-1,0,-1
-27.95,-2.66,36.43,-382,4807,6506,-1,0,-1
-27.95,-2.67,36.43,-381,4804,6514,-1,0,0
-27.96,-2.67,36.43,-383,4802,6529,0,0,0
-27.96,-2.67,36.43,-385,4814,6527,0,-1,-1
-27.96,-2.67,36.44,-376,4829,6521,-1,-1,0
-27.96,-2.66,36.43,-380,4821,6521,-1,-1,0
-27.97,-2.65,36.43,-371,4810,6511,-1,-1,0
-27.97,-2.65,36.43,-373,4796,6522,-1,-1,0
-27.97,-2.65,36.43,-370,4800,6525,-1,0,0
-27.97,-2.65,36.42,-366,4810,6522,-1,0,-1
-27.97,-2.65,36.42,-371,4818,6522,-1,-1,0
-27.98,-2.65,36.41,-371,4816,6520,-1,-1,0
-27.98,-2.65,36.41,-379,4807,6506,-1,0,0
-27.98,-2.64,36.41,-376,4804,6514,-1,-1,0
-27.99,-2.64,36.40,-372,4797,6519,-1,-1,0
-27.99,-2.64,36.40,-366,4803,6509,-1,-1,0
-27.99,-2.64,36.40,-366,4804,6508,-1,-1,0
-27.99,-2.64,36.40,-375,4800,6510,0,0,0
-27.99,-2.63,36.41,-375,4807,6512,-1,-1,0
-27.99,-2.63,36.41,-382,4811,6516,-1,-1,0
-28.00,-2.62,36.41,-373,4805,6513,-1,-1,0
-28.00,-2.62,36.40,-368,4809,6518,-1,0,0
-28.00,-2.62,36.40,-371,4811,6516,-1,-1,0
-28.00,-2.62,36.40,-369,4803,6513,-1,0,0
-28.01,-2.62,36.39,-375,4799,6516,-1,0,0
-28.01,-2.62,36.39,-375,4803,6507,-1,0,0
-28.01,-2.62,36.40,-382,4815,6504,-1,-1,0
-28.01,-2.62,36.40,-379,4810,6514,-1,-1,0
-28.01,-2.62,36.39,-377,4809,6515,-1,0,0
-28.02,-2.62,36.39,-375,4806,6510,-1,0,0
-28.02,-2.61,36.39,-374,4799,6503,-1,-1,0
-28.02,-2.61,36.39,-373,4810,6505,0,-1,-1
-28.02,-2.61,36.39,-374,4817,6511,-1,0,0
-28.02,-2.61,36.39,-374,4813,6508,-1,-1,0
-28.03,-2.61,36.38,-375,4798,6522,-1,0,0
-28.03,-2.61,36.37,-366,4797,6524,-1,-1,0
-28.03,-2.60,36.38,-363,4797,6523,0,-1,0
-28.04,-2.59,36.38,-362,4809,6508,-1,-1,0
-28.04,-2.59,36.38,-365,4815,6512,-1,-1,0
-28.04,-2.59,36.37,-365,4814,6512,-1,-1,0
-28.05,-2.59,36.36,-373,4802,6503,-1,0,0
-28.05,-2.58,36.36,-367,4802,6511,-1,-1,0
-28.05,-2.58,36.36,-370,4797,6505,0,-1,0
-28.06,-2.56,36.36,-358,4790,6511,-1,-1,0
-28.06,-2.56,36.37,-356,4788,6507,0,-1,0
-28.06,-2.56,36.38,-351,4814,6499,-1,0,-1
-28.06,-2.57,36.37,-359,4808,6503,-1,0,-1
-28.06,-2.57,36.36,-379,4794,6511,-1,0,0
-28.07,-2.56,36.36,-372,4801,6510,-1,-1,0
-28.07,-2.56,36.36,-370,4810,6507,-1,-1,0
-28.08,-2.55,36.36,-357,4802,6508,-1,-1,0
-28.08,-2.55,36.36,-358,4797,6516,-1,0,0
-28.09,-2.55,36.35,-357,4787,6518,-1,0,0
-28.09,-2.55,36.34,-357,4788,6518,-1,0,0
-28.09,-2.55,36.34,-361,4799,6528,-1,0,0
-28.09,-2.55,36.34,-362,4810,6517,-1,0,0
-28.09,-2.55,36.34,-356,4809,6523,-1,-1,0
-28.10,-2.54,36.34,-356,4798,6528,-1,-1,0
-28.10,-2.54,36.34,-358,4793,6519,0,-1,0
-28.10,-2.54,36.34,-353,4792,6528,0,0,-1
-28.10,-2.54,36.34,-357,4796,6523,0,-1,-1
-28.09,-2.55,36.34,-357,4798,6523,0,0,-1
-28.09,-2.55,36.34,-359,4793,6517,0,0,-1
-28.09,-2.55,36.34,-361,4782,6520,0,0,0
-28.10,-2.54,36.35,-358,4785,6520,0,-1,0
-28.09,-2.55,36.36,-358,4798,6514,0,0,-1
-28.09,-2.55,36.36,-358,4797,6519,0,0,-1
-28.09,-2.55,36.36,-361,4798,6515,-1,0,0
-28.09,-2.55,36.36,-363,4804,6522,-1,0,0
-28.09,-2.55,36.35,-364,4798,6525,-1,0,-1
-28.09,-2.56,36.35,-363,4794,6518,0,0,-1
-28.09,-2.56,36.35,-366,4793,6519,0,0,-1
-28.08,-2.56,36.36,-370,4794,6522,-1,0,-1
-28.07,-2.57,36.35,-366,4795,6521,0,0,-1
-28.07,-2.57,36.35,-366,4796,6522,0,-1,-1
-28.07,-2.57,36.36,-363,4791,6528,0,0,-1
-28.06,-2.57,36.36,-370,4797,6524,0,-1,-1
-28.06,-2.58,36.36,-365,4791,6518,0,0,-1
-28.05,-2.58,36.37,-370,4797,6529,0,0,-1
-28.05,-2.59,36.38,-370,4806,6522,0,-1,-1
-28.05,-2.59,36.38,-367,4800,6526,0,0,-1
-28.05,-2.59,36.38,-366,4803,6530,0,0,-1
-28.04,-2.59,36.39,-370,4807,6526,0,0,-1
-28.04,-2.60,36.39,-372,4793,6520,0,0,-1
-28.04,-2.60,36.39,-376,4808,6520,0,-1,-1
-28.03,-2.61,36.40,-374,4804,6512,0,0,-1
-28.02,-2.61,36.40,-379,4808,6511,0,-1,-1
-28.02,-2.61,36.40,-372,4802,6503,-1,0,-1
-28.03,-2.62,36.39,-374,4802,6502,-1,0,0
-28.03,-2.62,36.39,-381,4792,6522,-1,-1,0
-28.03,-2.62,36.39,-372,4801,6519,0,0,-1
-28.02,-2.62,36.40,-375,4820,6514,0,0,-1
-28.02,-2.62,36.40,-372,4822,6521,-1,0,-1
-28.02,-2.62,36.40,-375,4815,6512,-1,0,0
-28.02,-2.63,36.40,-382,4801,6513,0,0,0
-28.02,-2.63,36.40,-378,4796,6514,0,-1,0
-28.02,-2.62,36.40,-362,4802,6514,0,0,0
-28.02,-2.62,36.40,-359,4807,6512,0,0,-1
-28.01,-2.63,36.40,-364,4792,6511,0,0,-1
-28.01,-2.64,36.41,-371,4802,6511,0,0,-1
-28.00,-2.64,36.41,-370,4808,6517,0,0,-1
-28.00,-2.65,36.41,-378,4814,6512,0,0,0
-27.99,-2.64,36.42,-370,4820,6513,0,-1,0
-27.99,-2.64,36.42,-368,4813,6511,0,0,-1
-27.99,-2.64,36.42,-373,4811,6509,0,-1,-1
-27.99,-2.64,36.43,-372,4803,6500,0,0,-1
-27.99,-2.65,36.43,-373,4808,6505,0,0,-1
-27.98,-2.65,36.43,-381,4805,6507,0,-1,-1
-27.97,-2.65,36.43,-369,4794,6520,0,0,0
-27.98,-2.66,36.44,-387,4801,6508,0,0,-1
-27.97,-2.67,36.45,-375,4806,6507,0,0,-1
-27.97,-2.67,36.45,-369,4807,6512,0,0,-1
-27.96,-2.68,36.46,-374,4804,6499,0,0,-1
-27.95,-2.68,36.47,-379,4813,6507,-1,-1,0
-27.95,-2.68,36.46,-376,4807,6499,0,0,-1
-27.94,-2.68,36.48,-386,4817,6498,0,-1,-1
-27.94,-2.68,36.49,-374,4818,6499,0,0,-1
-27.93,-2.68,36.49,-387,4814,6522,0,-1,-1
-27.92,-2.67,36.50,-385,4817,6526,0,-1,0
-27.94,-2.67,36.51,-372,4828,6525,-1,0,-1
-27.94,-2.67,36.51,-389,4814,6507,-1,-1,0
-27.93,-2.67,36.52,-367,4827,6528,0,0,-1
-27.91,-2.68,36.52,-414,4811,6505,0,-1,-1
-27.92,-2.67,36.52,-355,4808,6515,-1,0,0
-27.92,-2.68,36.52,-393,4811,6495,-1,-1,0
-27.93,-2.67,36.51,-375,4816,6510,0,0,-1
-27.93,-2.68,36.51,-384,4819,6507,-1,0,-1
-27.93,-2.68,36.51,-396,4801,6496,-1,-1,0
-27.93,-2.68,36.51,-384,4817,6495,-1,0,0
-27.93,-2.68,36.50,-392,4810,6490,-1,-1,-1
-27.93,-2.68,36.50,-380,4808,6498,-1,-1,0
-27.93,-2.69,36.51,-393,4810,6503,-1,0,-1
-27.93,-2.69,36.51,-388,4805,6505,0,-1,0
-27.92,-2.69,36.52,-375,4805,6509,0,0,-1
-27.92,-2.70,36.54,-369,4836,6490,0,0,-1
-27.91,-2.71,36.54,-385,4845,6484,-1,-1,-1
-27.91,-2.71,36.53,-377,4814,6492,-1,0,0
-27.92,-2.71,36.52,-379,4817,6490,-1,0,-1
-27.91,-2.72,36.52,-389,4818,6503,-1,0,-1
-27.91,-2.72,36.52,-394,4829,6511,0,-1,-1
-27.91,-2.72,36.52,-387,4830,6501,-1,0,0
-27.91,-2.73,36.51,-373,4820,6513,-1,0,0
-27.91,-2.73,36.51,-378,4809,6507,-1,0,-1
-27.90,-2.74,36.52,-388,4810,6497,0,0,-1
-27.89,-2.75,36.53,-396,4824,6499,0,0,-1
-27.89,-2.76,36.53,-399,4840,6501,-1,0,-1
-27.90,-2.76,36.52,-401,4840,6501,-1,-1,0
-27.90,-2.76,36.50,-393,4822,6511,-1,-1,0
-27.91,-2.75,36.49,-392,4814,6514,-1,-1,0
-27.91,-2.75,36.49,-382,4805,6509,0,0,-1
-27.91,-2.75,36.49,-383,4800,6515,0,0,-1
-27.91,-2.76,36.49,-392,4807,6523,0,0,-1
-27.90,-2.76,36.50,-398,4821,6518,0,0,-1
-27.90,-2.77,36.50,-403,4818,6518,0,-1,-1
-27.89,-2.77,36.51,-403,4822,6513,-1,-1,0
-27.89,-2.76,36.50,-398,4822,6506,0,-1,0
-27.89,-2.75,36.51,-390,4820,6505,-1,0,0
-27.90,-2.75,36.50,-385,4812,6496,-1,0,-1
-27.90,-2.75,36.50,-384,4810,6492,-1,0,0
-27.91,-2.75,36.50,-395,4811,6504,-1,-1,-1
-27.90,-2.76,36.50,-399,4817,6497,0,0,0
-27.90,-2.76,36.50,-399,4820,6500,-1,-1,0
-27.90,-2.75,36.50,-390,4819,6511,-1,-1,0
-27.91,-2.75,36.49,-393,4813,6514,-1,-1,0
-27.91,-2.75,36.49,-390,4806,6508,-1,0,0
-27.92,-2.75,36.49,-390,4802,6507,-1,0,-1
-27.91,-2.75,36.50,-396,4809,6505,0,0,0
-27.91,-2.75,36.49,-392,4816,6502,-1,-1,0
-27.91,-2.74,36.50,-390,4822,6498,0,-1,0
-27.92,-2.74,36.50,-390,4818,6495,-1,-1,0
-27.92,-2.74,36.50,-394,4820,6496,-1,-1,0
-27.92,-2.74,36.50,-396,4820,6499,-1,-1,0
-27.93,-2.73,36.49,-391,4821,6510,-1,-1,0
-27.93,-2.73,36.49,-386,4808,6514,-1,-1,-1
-27.93,-2.72,36.49,-386,4809,6508,0,-1,-1
-27.92,-2.73,36.50,-386,4814,6508,0,0,-1
-27.92,-2.73,36.50,-391,4814,6512,-1,-1,0
-27.93,-2.72,36.49,-382,4819,6514,-1,0,0
-27.93,-2.72,36.49,-390,4820,6510,-1,-1,0
-27.94,-2.71,36.48,-388,4821,6505,-1,-1,0
-27.94,-2.71,36.48,-386,4834,6499,-1,-1,0
-27.95,-2.70,36.48,-387,4845,6463,-1,0,0
-27.98,-2.70,36.47,-366,4850,6474,-1,1,0
-28.01,-2.71,36.44,-414,4811,6549,-1,-1,0
-28.01,-2.69,36.41,-388,4754,6529,-1,-1,-1
-28.00,-2.69,36.43,-385,4762,6494,0,-1,-1
-27.99,-2.68,36.45,-372,4789,6506,0,-1,-1
-27.98,-2.68,36.45,-371,4821,6509,0,-1,-1
-27.98,-2.68,36.46,-386,4838,6514,-1,0,0
-27.98,-2.68,36.45,-389,4826,6527,-1,-1,0
-27.98,-2.68,36.45,-386,4803,6513,0,-1,-1
-27.98,-2.68,36.45,-391,4800,6499,0,-1,0
-27.98,-2.68,36.45,-384,4808,6497,-1,-1,0
-27.99,-2.67,36.45,-379,4821,6506,-1,0,0
-28.00,-2.66,36.45,-373,4824,6521,-1,-1,0
-28.00,-2.66,36.44,-375,4815,6534,-1,-1,0
-28.00,-2.66,36.44,-374,4802,6521,0,-1,0
-28.00,-2.66,36.44,-375,4799,6508,-1,0,0
-28.00,-2.66,36.44,-376,4799,6506,-1,0,0
-28.00,-2.67,36.44,-390,4803,6507,0,0,-1
-28.00,-2.67,36.43,-390,4809,6513,-1,-1,-1
-28.01,-2.66,36.43,-387,4816,6522,-1,-1,0
-28.00,-2.66,36.44,-392,4813,6519,-1,-1,0
-28.00,-2.66,36.44,-380,4811,6508,0,-1,0
-28.01,-2.65,36.44,-375,4807,6502,0,-1,0
-28.01,-2.65,36.44,-370,4812,6509,0,-1,-1
-28.01,-2.65,36.44,-374,4817,6506,-1,-1,-1
-28.01,-2.65,36.44,-378,4815,6506,-1,-1,-1
-28.01,-2.65,36.44,-381,4812,6507,-1,-1,0
-28.01,-2.65,36.43,-382,4808,6515,-1,-1,0
-28.02,-2.64,36.43,-379,4812,6521,-1,-1,0
-28.02,-2.64,36.43,-383,4812,6520,0,-1,0
-28.01,-2.64,36.43,-381,4814,6520,0,-1,-1
-28.01,-2.64,36.43,-387,4814,6508,-1,-1,-1
-28.02,-2.64,36.43,-378,4809,6519,-1,0,-1
-28.02,-2.64,36.42,-381,4803,6527,-1,-1,0
-28.02,-2.64,36.42,-373,4801,6527,0,-1,-1
-28.01,-2.63,36.42,-371,4804,6509,0,-1,-1
-28.02,-2.63,36.43,-376,4818,6507,-1,-1,0
-28.03,-2.63,36.42,-379,4811,6511,-1,-1,0
-28.03,-2.62,36.41,-375,4796,6510,-1,-1,0
-28.04,-2.62,36.40,-369,4792,6523,-1,-1,0
-28.03,-2.62,36.40,-379,4795,6529,0,-1,-1
-28.03,-2.62,36.40,-375,4795,6525,0,0,0
-28.03,-2.62,36.41,-376,4805,6517,0,-1,0
-28.03,-2.62,36.40,-369,4798,6501,-1,0,0
-28.03,-2.62,36.41,-373,4803,6505,0,-1,-1
-28.03,-2.62,36.41,-384,4801,6501,0,-1,0
-28.03,-2.62,36.41,-377,4798,6504,0,-1,0
-28.02,-2.62,36.42,-385,4810,6510,0,-1,-1
-28.02,-2.62,36.42,-384,4815,6517,-1,0,0
-28.03,-2.62,36.42,-376,4814,6513,-1,0,0
-28.02,-2.62,36.42,-383,4816,6514,0,-1,0
-28.03,-2.61,36.42,-361,4801,6523,0,0,0
-28.03,-2.62,36.42,-382,4805,6516,0,-1,0
-28.03,-2.61,36.43,-368,4809,6515,-1,0,-1
-28.03,-2.62,36.42,-389,4816,6515,-1,-1,0
-28.03,-2.62,36.42,-387,4811,6510,-1,-1,0
-28.04,-2.60,36.41,-369,4803,6510,0,-1,0
-28.05,-2.60,36.42,-376,4812,6511,0,-1,0
-28.05,-2.59,36.42,-370,4802,6511,-1,-1,0
-28.06,-2.59,36.41,-379,4812,6520,-1,0,0
-28.07,-2.59,36.40,-374,4794,6528,-1,0,0
-28.07,-2.59,36.40,-391,4807,6527,0,-1,-1
-28.07,-2.59,36.41,-379,4817,6519,-1,0,0
-28.08,-2.59,36.41,-386,4815,6514,-1,-1,0
-28.09,-2.58,36.40,-370,4819,6511,-1,-1,0
-28.09,-2.57,36.39,-370,4804,6514,-1,-1,0
-28.10,-2.57,36.38,-372,4803,6510,-1,-1,0
-28.11,-2.56,36.38,-360,4801,6506,-1,-1,0
-28.11,-2.56,36.38,-365,4800,6508,-1,0,0
-28.11,-2.57,36.38,-377,4799,6506,-1,0,0
-28.11,-2.56,36.38,-369,4607,-1,-1,-1,0
-28.12,-2.56,36.37,-372,4805,6519,-1,-1,0
-28.13,-2.55,36.36,-365,4807,6519,-1,-1,0
-28.14,-2.55,36.36,-365,4798,6521,-1,-1,0
-28.14,-2.55,36.36,-364,4789,6515,0,0,0
-28.14,-2.55,36.36,-365,4803,6520,-1,0,0
-28.14,-2.55,36.36,-367,4798,6529,0,-1,-1
-28.14,-2.55,36.36,-370,4801,6525,-1,0,0
-28.14,-2.55,36.36,-370,4808,6515,-1,-1,0
-28.15,-2.54,36.35,-360,4807,6503,-1,0,0
-28.15,-2.54,36.36,-364,4805,6510,-1,-1,0
-28.16,-2.53,36.35,-353,4799,6527,-1,0,0
-28.16,-2.53,36.35,-366,4794,6509,-1,-1,0
-28.16,-2.53,36.35,-361,4798,6518,-1,-1,0
-28.17,-2.53,36.34,-362,4795,6514,-1,0,-1
-28.17,-2.53,36.34,-371,4802,6510,-1,-1,0
-28.17,-2.53,36.34,-364,4808,6516,-1,-1,0
-28.18,-2.53,36.33,-365,4799,6522,-1,-1,0
-28.18,-2.52,36.33,-366,4790,6521,0,-1,0
-28.18,-2.52,36.33,-358,4793,6508,0,-1,-1
-28.17,-2.53,36.33,-364,4802,6506,0,0,-1
-28.17,-2.53,36.34,-370,4813,6506,-1,-1,0
-28.17,-2.53,36.33,-366,4807,6513,-1,-1,0
-28.17,-2.53,36.33,-367,4793,6527,-1,0,0
-28.17,-2.53,36.33,-370,4798,6525,0,-1,-1
-28.17,-2.53,36.33,-366,4794,6527,0,0,-1
-28.17,-2.53,36.33,-365,4795,6506,0,0,-1
-28.16,-2.53,36.34,-367,4801,6512,-1,0,-1
-28.16,-2.54,36.33,-367,4802,6520,-1,0,-1
-28.16,-2.55,36.34,-377,4802,6523,-1,0,-1
-28.16,-2.54,36.33,-371,4795,6530,-1,-1,0
-28.17,-2.54,36.33,-360,4796,6524,-1,-1,0
-28.17,-2.54,36.33,-355,4793,6515,0,-1,0
-28.17,-2.54,36.33,-355,4789,6501,-1,0,-1
-28.15,-2.54,36.33,-362,4797,6508,-1,-1,-1
-28.16,-2.55,36.33,-375,4798,6517,-1,0,-1
-28.16,-2.55,36.33,-374,4799,6524,0,0,-1
-28.15,-2.55,36.33,-379,4803,6532,0,-1,0
-28.16,-2.55,36.33,-370,4800,6527,-1,-1,0
-28.16,-2.55,36.33,-363,4793,6524,0,-1,0
-28.15,-2.55,36.33,-371,4796,6517,0,-1,-1
-28.15,-2.55,36.34,-372,4801,6514,0,0,-1
-28.15,-2.55,36.34,-366,4799,6515,-1,-1,-1
-28.15,-2.55,36.34,-365,4794,6523,-1,0,-1
-28.14,-2.56,36.34,-372,4797,6514,0,-1,-1
-28.14,-2.56,36.34,-361,4806,6514,0,-1,-1
-28.14,-2.56,36.34,-359,4804,6523,0,0,-1
-28.14,-2.56,36.34,-366,4801,6521,0,-1,-1
-28.13,-2.56,36.34,-363,4795,6519,0,0,-1
-28.13,-2.57,36.35,-370,4791,6509,0,0,-1
-28.12,-2.58,36.36,-375,4803,6511,0,0,-1
-28.12,-2.58,36.36,-375,4804,6520,0,0,-1
-28.11,-2.59,36.37,-381,4803,6521,0,-1,-1
-28.11,-2.59,36.38,-378,4799,6507,0,-1,0
-28.11,-2.59,36.38,-372,4810,6508,0,-1,0
-28.11,-2.59,36.39,-367,4800,6492,0,-1,0
-28.11,-2.59,36.39,-371,4798,6499,0,0,-1
-28.11,-2.59,36.39,-375,4799,6500,0,0,-1
-28.10,-2.59,36.39,-383,4807,6511,0,-1,-1
-28.10,-2.59,36.39,-359,4807,6514,-1,0,-1
-28.10,-2.61,36.40,-380,4809,6502,-1,0,-1
-28.10,-2.60,36.39,-369,4803,6515,-1,0,0
-28.10,-2.61,36.39,-369,4799,6524,-1,0,-1
-28.10,-2.60,36.39,-368,4794,6525,0,-1,-1
-28.10,-2.60,36.38,-366,4802,6529,-1,0,-1
-28.09,-2.61,36.38,-371,4798,6533,0,0,-1
-28.09,-2.62,36.39,-377,4803,6522,-1,0,-1
-28.09,-2.62,36.38,-376,4800,6525,-1,0,0
-28.10,-2.62,36.38,-378,4794,6525,0,-1,0
-28.09,-2.62,36.39,-383,4797,6521,0,-1,-1
-28.10,-2.62,36.39,-379,4813,6524,-1,0,0
-28.10,-2.61,36.38,-373,4808,6531,-1,-1,0
-28.10,-2.61,36.37,-369,4800,6519,-1,-1,0
-28.11,-2.61,36.37,-372,4802,6517,-1,-1,0
-28.11,-2.61,36.37,-367,4795,6528,0,-1,0
-28.11,-2.61,36.37,-368,4802,6522,0,0,-1
-28.11,-2.61,36.38,-370,4802,6515,0,0,-1
-28.11,-2.61,36.38,-370,4802,6508,-1,0,-1
-28.10,-2.62,36.38,-371,4803,6510,0,0,-1
-28.10,-2.62,36.38,-376,4804,6505,-1,0,-1
-28.10,-2.62,36.37,-375,4808,6522,-1,-1,0
-28.10,-2.62,36.38,-377,4809,6515,-1,-1,0
-28.11,-2.61,36.38,-370,4806,6517,-1,-1,0
-28.11,-2.61,36.37,-358,4803,6517,-1,-1,-1
-28.11,-2.61,36.37,-357,4797,6514,-1,0,-1
-28.11,-2.61,36.37,-364,4800,6512,0,0,-1
-28.10,-2.62,36.37,-377,4796,6516,0,0,-1
-28.10,-2.63,36.37,-381,4806,6517,0,0,-1
-28.09,-2.63,36.38,-378,4805,6516,0,0,-1
-28.09,-2.63,36.38,-381,4802,6514,0,-1,0
-28.09,-2.62,36.39,-375,4802,6500,0,-1,0
-28.09,-2.63,36.40,-369,4804,6501,0,0,-1
-28.08,-2.63,36.41,-370,4810,6508,-1,0,-1
-28.08,-2.64,36.40,-371,4804,6504,-1,0,-1
-28.09,-2.63,36.40,-374,4795,6503,-1,0,0
-28.09,-2.64,36.40,-379,4803,6511,0,0,-1
-28.08,-2.64,36.40,-380,4811,6508,-1,0,0
-28.08,-2.64,36.40,-377,4812,6515,-1,-1,0
-28.09,-2.64,36.39,-376,4809,6513,-1,-1,0
-28.09,-2.64,36.39,-377,4802,6518,-1,0,-1
-28.09,-2.64,36.40,-379,4806,6520,-1,0,-1
-28.09,-2.64,36.40,-380,4803,6520,0,0,-1
-28.08,-2.65,36.40,-381,4806,6521,0,0,-1
-28.08,-2.65,36.40,-377,4809,6525,-1,0,0
-28.08,-2.65,36.40,-379,4807,6518,-1,-1,0
-28.08,-2.65,36.40,-376,4805,6521,-1,-1,0
-28.08,-2.65,36.40,-381,4807,6527,0,0,0
-28.08,-2.65,36.40,-382,4809,6530,0,0,-1
-28.08,-2.65,36.40,-381,4815,6522,-1,-1,-1
-28.08,-2.65,36.40,-387,4809,6519,-1,-1,0
-28.08,-2.66,36.40,-387,4806,6512,0,-1,-1
-28.08,-2.66,36.40,-389,4811,6513,0,0,-1
-28.08,-2.66,36.40,-383,4807,6504,0,0,-1
-28.07,-2.66,36.41,-386,4805,6510,0,-1,-1
-28.07,-2.66,36.41,-386,4813,6511,-1,-1,-1
-28.06,-2.66,36.42,-384,4809,6513,0,-1,-1
-28.06,-2.66,36.42,-404,4784,6528,0,-1,0
-28.06,-2.65,36.43,-367,4807,6511,0,0,-1
-28.05,-2.65,36.44,-381,4822,6511,-1,0,0
-28.05,-2.66,36.44,-383,4838,6515,-1,0,-1
-28.05,-2.67,36.43,-388,4808,6500,-1,0,-1
-28.05,-2.67,36.43,-403,4798,6505,-1,0,0
-28.06,-2.67,36.43,-395,4801,6510,0,-1,0
-28.06,-2.67,36.43,-383,4801,6509,0,0,0
-28.06,-2.67,36.43,-386,4807,6516,-1,0,-1
-28.05,-2.67,36.43,-389,4811,6513,-1,-1,-1
-28.05,-2.67,36.44,-391,4817,6508,0,0,0
-28.05,-2.67,36.44,-395,4815,6508,-1,-1,0
-28.05,-2.67,36.43,-389,4814,6507,-1,-1,0
-28.06,-2.66,36.43,-384,4812,6514,-1,-1,0
-28.06,-2.66,36.43,-375,4805,6504,-1,-1,-1
-28.06,-2.67,36.43,-379,4798,6512,-1,0,-1
-28.06,-2.67,36.43,-389,4791,6513,0,0,-1
-28.06,-2.67,36.43,-389,4802,6506,-1,-1,0
-28.06,-2.67,36.43,-387,4809,6516,-1,-1,0
-28.06,-2.66,36.43,-385,4807,6520,-1,-1,0
-28.07,-2.66,36.43,-379,4806,6517,-1,-1,0
-28.07,-2.65,36.43,-379,4804,6510,-1,-1,0
-28.07,-2.65,36.43,-379,4811,6511,-1,-1,0
-28.07,-2.65,36.43,-382,4818,6508,-1,-1,-1
-28.07,-2.65,36.43,-385,4814,6511,-1,-1,0
-28.07,-2.65,36.42,-380,4809,6515,-1,-1,0
-28.07,-2.65,36.42,-385,4800,6512,-1,-1,0
