Yaw,Pitch,Roll,AX,AY,AZ,GX,GY,GZ
-165.04,7.28,-74.81,1056,-7998,2185,-1,-1,0
-165.05,7.27,-74.82,1059,-7996,2179,-1,-1,0
-165.06,7.26,-74.82,1060,-8002,2168,-1,-1,0
-165.06,7.26,-74.82,1067,-8002,2170,0,-1,0
-165.07,7.25,-74.82,1052,-8013,2178,-1,-1,0
-165.08,7.25,-74.82,1055,-8004,2175,0,-1,0
-165.09,7.24,-74.82,1050,-8000,2179,-1,-1,0
-165.10,7.23,-74.82,1045,-7998,2185,-1,-1,0
-165.10,7.23,-74.83,1041,-7997,2181,-1,-1,0
-165.11,7.22,-74.83,1054,-8005,2162,0,-1,0
-165.11,7.23,-74.83,1055,-8002,2163,0,-1,0
-165.11,7.23,-74.83,1052,-7992,2158,0,-1,0
-165.12,7.22,-74.82,1046,-7992,2170,0,-1,0
-165.11,7.22,-74.81,1047,-7993,2174,0,-1,0
-165.11,7.22,-74.80,1040,-8002,2174,0,-1,0
-165.11,7.22,-74.80,1046,-8005,2171,0,-1,0
-165.11,7.22,-74.79,1047,-7998,2178,0,-1,0
-165.11,7.22,-74.78,1052,-7985,2177,0,-1,0
-165.12,7.22,-74.78,1056,-7987,2168,0,-1,0
-165.12,7.22,-74.77,1054,-8000,2179,0,-1,0
-165.11,7.22,-74.77,1056,-8005,2180,0,-1,0
-165.12,7.21,-74.77,1048,-8004,2176,0,-1,0
-165.12,7.22,-74.76,1042,-8005,2176,0,-1,-1
-165.11,7.22,-74.76,1052,-7999,2177,0,0,-1
-165.11,7.22,-74.76,1052,-7991,2184,0,0,-1
-165.10,7.23,-74.76,1049,-7995,2194,-1,0,-1
-165.10,7.23,-74.77,1052,-7998,2186,-1,0,-1
-165.10,7.23,-74.77,1048,-8000,2171,-1,0,-1
-165.09,7.24,-74.77,1054,-7995,2169,0,0,-1
-165.09,7.24,-74.77,1059,-7996,2166,-1,0,-1
-165.08,7.25,-74.77,1059,-7999,2176,0,0,-1
-165.07,7.25,-74.77,1058,-7993,2187,-1,0,-1
-165.07,7.25,-74.77,1057,-7993,2170,0,-1,-1
-165.07,7.25,-74.77,1048,-7992,2185,-1,-1,-1
-165.07,7.26,-74.77,1052,-7994,2180,-1,0,-1
-165.06,7.26,-74.77,1047,-8005,2169,0,0,-1
-165.06,7.26,-74.77,1044,-8002,2173,0,-1,-1
-165.06,7.26,-74.77,1046,-7994,2180,-1,-1,-1
-165.06,7.27,-74.77,1058,-7991,2186,-1,-1,0
-165.05,7.27,-74.77,1063,-7993,2184,-1,0,0
-165.06,7.27,-74.77,1057,-7995,2169,0,-1,0
-165.06,7.27,-74.77,1054,-7999,2168,0,0,-1
-165.05,7.27,-74.77,1060,-8006,2177,0,-1,-1
-165.04,7.27,-74.76,1060,-8001,2192,0,-1,-1
-165.04,7.27,-74.76,1058,-7987,2201,-1,-1,0
-165.04,7.27,-74.76,1050,-7985,2189,-1,-1,0
-165.05,7.27,-74.76,1052,-7989,2180,-1,-1,-1
-165.05,7.27,-74.77,1048,-7997,2175,0,-1,-1
-165.04,7.27,-74.76,1058,-8005,2177,0,-1,-1
-165.04,7.28,-74.75,1055,-8000,2178,0,-1,-1
-165.03,7.28,-74.75,1053,-7988,2186,0,-1,-1
-165.03,7.29,-74.75,1057,-7983,2191,0,-1,-1
-165.02,7.29,-74.75,1061,-7992,2180,0,-1,-1
-165.02,7.29,-74.74,1065,-7989,2187,0,-1,-1
-165.01,7.30,-74.73,1071,-7999,2201,-1,0,0
-165.02,7.29,-74.73,1066,-8000,2191,-1,0,0
-165.02,7.29,-74.75,1058,-8002,2189,-1,-1,0
-165.02,7.29,-74.75,1056,-8001,2177,0,-1,-1
-165.02,7.30,-74.75,1067,-8002,2179,0,-1,-1
-165.02,7.30,-74.74,1060,-8007,2178,0,-1,-1
-165.01,7.30,-74.74,1064,-8004,2192,0,-1,-1
-165.01,7.30,-74.74,1061,-7995,2192,-1,0,0
-165.01,7.30,-74.74,1058,-7990,2184,0,-1,-1
-165.01,7.31,-74.74,1060,-7995,2187,-1,-1,-1
-165.01,7.31,-74.74,1060,-7999,2181,0,0,-1
-165.00,7.31,-74.74,1060,-8000,2175,0,0,-1
-164.99,7.31,-74.73,1060,-7998,2180,0,0,-1
-164.99,7.32,-74.73,1066,-8003,2175,-1,0,-1
-164.99,7.32,-74.74,1062,-7998,2180,-1,0,-1
-164.99,7.32,-74.73,1057,-7995,2180,-1,-1,-1
-164.99,7.32,-74.74,1062,-7992,2176,-1,-1,-1
-164.99,7.32,-74.74,1065,-7993,2182,0,-1,-1
-164.99,7.32,-74.74,1058,-7989,2186,0,0,-1
-164.99,7.32,-74.74,1060,-7999,2187,-1,-1,-1
-164.99,7.32,-74.74,1066,-8000,2188,-1,-1,0
-164.98,7.32,-74.74,1063,-7995,2190,-1,0,0
-164.99,7.31,-74.74,1055,-7997,2179,-1,0,-1
-164.99,7.33,-74.75,1066,-7999,2172,-1,-1,-1
-164.99,7.33,-74.75,1064,-7999,2176,0,0,-1
-164.99,7.32,-74.75,1054,-8006,2176,0,0,-1
-164.98,7.32,-74.74,1066,-8002,2184,0,0,-1
-164.98,7.33,-74.73,1059,-7998,2196,-1,-1,-1
-164.97,7.33,-74.73,1064,-7991,2195,0,0,-1
-164.97,7.33,-74.74,1062,-7992,2186,-1,-1,-1
-164.97,7.33,-74.74,1065,-7985,2180,-1,0,-1
-164.97,7.34,-74.74,1068,-7985,2173,0,0,-1
-164.97,7.34,-74.74,1068,-7995,2174,0,0,-1
-164.96,7.34,-74.73,1070,-8000,2188,0,0,-1
-164.95,7.34,-74.73,1063,-7994,2186,0,-1,-1
-164.94,7.35,-74.72,1063,-7988,2199,-1,0,0
-164.95,7.35,-74.73,1064,-7984,2189,-1,-1,0
-164.96,7.35,-74.74,1064,-7992,2180,-1,-1,0
-164.95,7.35,-74.74,1061,-7996,2179,-1,0,-1
-164.95,7.35,-74.74,1063,-8008,2173,0,-1,-1
-164.94,7.36,-74.74,1070,-8000,2185,0,0,-1
-164.94,7.36,-74.73,1067,-7993,2187,0,0,-1
-164.93,7.36,-74.73,1072,-7993,2185,0,0,-1
-164.92,7.37,-74.72,1072,-7989,2182,0,0,-1
-164.92,7.37,-74.72,1078,-7999,2187,0,0,-1
-164.92,7.37,-74.72,1072,-7990,2187,-1,-1,-1
-164.92,7.37,-74.72,1069,-7990,2183,-1,0,-1
-164.92,7.37,-74.72,1068,-7992,2174,-1,0,-1
-164.91,7.38,-74.73,1070,-7995,2169,0,0,-1
-164.90,7.39,-74.72,1073,-7990,2174,0,-1,-1
-164.88,7.40,-74.71,1085,-7991,2187,0,0,-1
-164.87,7.40,-74.69,1080,-7989,2203,0,0,0
-164.88,7.39,-74.70,1071,-7992,2211,-1,-1,0
-164.89,7.39,-74.71,1070,-7992,2199,-1,-1,-1
-164.89,7.39,-74.72,1071,-7996,2181,-1,0,-1
-164.88,7.40,-74.72,1077,-7995,2161,0,0,-1
-164.88,7.40,-74.71,1062,-7996,2173,-1,0,-1
-164.88,7.40,-74.71,1072,-8001,2175,0,0,-1
-164.87,7.40,-74.71,1069,-7998,2184,-1,-1,-1
-164.87,7.41,-74.71,1071,-7992,2199,-1,0,-1
-164.87,7.41,-74.72,1075,-7988,2180,-1,0,-1
-164.86,7.41,-74.72,1078,-7989,2170,0,0,-1
-164.87,7.41,-74.72,1080,-7994,2161,0,0,-1
-164.86,7.41,-74.71,1071,-7993,2168,0,0,-1
-164.86,7.41,-74.71,1075,-7990,2173,0,0,-1
-164.85,7.42,-74.71,1068,-7988,2189,0,0,-1
-164.84,7.42,-74.70,1071,-7991,2194,-1,0,-1
-164.84,7.42,-74.70,1079,-7990,2187,-1,0,-1
-164.84,7.43,-74.71,1085,-7992,2178,-1,-1,-1
-164.84,7.43,-74.71,1081,-7996,2176,-1,0,-1
-164.83,7.43,-74.71,1079,-7993,2179,0,-1,-1
-164.83,7.44,-74.70,1079,-7986,2193,0,0,-1
-164.82,7.44,-74.70,1081,-7981,2194,-1,0,-1
-164.82,7.44,-74.71,1078,-7987,2193,-1,-1,-1
-164.82,7.44,-74.72,1083,-7989,2181,-1,0,0
-164.83,7.44,-74.72,1082,-7992,2171,-1,0,0
-164.83,7.44,-74.72,1075,-8000,2175,0,0,-1
-164.82,7.44,-74.71,1077,-7995,2191,0,-1,-1
-164.81,7.44,-74.70,1078,-8002,2193,0,-1,-1
-164.80,7.45,-74.69,1087,-8002,2203,0,-1,-1
-164.81,7.45,-74.69,1084,-7993,2205,-1,-1,0
-164.81,7.44,-74.69,1081,-7997,2202,-1,-1,0
-164.82,7.44,-74.70,1079,-7995,2191,-1,-1,0
-164.82,7.44,-74.71,1076,-8001,2184,-1,-1,0
-164.82,7.44,-74.71,1072,-8004,2177,0,-1,-1
-164.82,7.44,-74.70,1072,-8000,2179,0,-1,-1
-164.82,7.44,-74.70,1074,-7989,2193,0,-1,-1
-164.81,7.44,-74.69,1086,-7985,2193,0,-1,-1
-164.81,7.45,-74.69,1090,-7986,2193,-1,-1,0
-164.81,7.44,-74.69,1086,-7979,2200,0,0,0
-164.82,7.44,-74.69,1076,-7985,2202,-1,-1,0
-164.82,7.44,-74.70,1079,-7994,2185,-1,-1,0
-164.82,7.44,-74.70,1076,-7999,2186,0,-1,0
-164.82,7.44,-74.69,1078,-7992,2190,0,-1,0
-164.82,7.44,-74.69,1078,-7989,2187,0,-1,0
-164.82,7.44,-74.69,1077,-7988,2182,-1,-1,0
-164.83,7.44,-74.70,1082,-7986,2183,-1,-1,0
-164.83,7.43,-74.70,1082,-7988,2183,-1,-1,0
-164.84,7.43,-74.70,1077,-7990,2177,0,0,0
-164.84,7.43,-74.70,1072,-7996,2183,-1,-1,0
-164.85,7.42,-74.71,1069,-8002,2182,-1,-1,0
-164.85,7.42,-74.71,1072,-7999,2182,0,0,0
-164.85,7.42,-74.70,1074,-7989,2192,0,-1,0
-164.84,7.42,-74.70,1076,-7986,2189,0,-1,0
-164.85,7.42,-74.70,1075,-7980,2186,-1,-1,0
-164.84,7.42,-74.70,1080,-7984,2194,0,-1,0
-164.85,7.42,-74.70,1083,-7987,2202,-1,-1,0
-164.85,7.42,-74.70,1079,-7986,2201,-1,-1,0
-164.86,7.41,-74.70,1077,-7989,2204,-1,-1,0
-164.87,7.40,-74.70,1077,-8000,2200,-1,-1,0
-164.87,7.40,-74.70,1077,-8005,2208,-1,-1,0
-164.87,7.40,-74.70,1074,-8000,2199,-1,-1,0
-164.88,7.39,-74.70,1081,-7995,2180,-1,-1,0
-164.88,7.39,-74.71,1075,-7996,2193,-1,-1,0
-164.89,7.38,-74.71,1080,-7991,2191,-1,0,0
-164.89,7.38,-74.71,1072,-7990,2187,-1,-1,0
-164.90,7.38,-74.72,1077,-7996,2167,-1,0,0
-164.90,7.38,-74.72,1068,-8002,2164,0,-1,-1
-164.89,7.38,-74.71,1070,-7999,2189,0,-1,-1
-164.90,7.37,-74.70,1076,-7992,2199,0,-1,0
-164.90,7.37,-74.70,1078,-7990,2204,-1,-1,0
-164.91,7.37,-74.71,1079,-7997,2199,-1,-1,0
-164.92,7.36,-74.72,1071,-8001,2182,-1,-1,0
-164.93,7.36,-74.73,1062,-8000,2171,-1,-1,0
-164.94,7.35,-74.73,1055,-8003,2172,-1,-1,0
-164.94,7.35,-74.73,1061,-8007,2171,0,-1,0
-164.94,7.35,-74.73,1064,-8000,2182,0,-1,0
-164.94,7.34,-74.72,1062,-8000,2197,-1,-1,0
-164.95,7.34,-74.73,1068,-7987,2187,-1,-1,0
-164.95,7.34,-74.73,1062,-7990,2192,-1,-1,0
-164.96,7.33,-74.73,1065,-7989,2184,-1,-1,0
-164.97,7.33,-74.74,1064,-7991,2180,-1,-1,0
-164.97,7.33,-74.74,1064,-7996,2172,-1,-1,0
-164.98,7.32,-74.74,1058,-7998,2175,-1,-1,0
-164.99,7.32,-74.75,1053,-7994,2186,-1,-1,0
-164.99,7.31,-74.74,1061,-7991,2190,-1,-1,0
-164.99,7.31,-74.74,1061,-7986,2186,-1,-1,0
-165.00,7.31,-74.74,1063,-7981,2192,0,-1,0
-165.01,7.30,-74.75,1056,-7992,2188,-1,-1,0
-165.01,7.30,-74.75,1060,-7999,2192,-1,-1,0
-165.02,7.29,-74.75,1054,-8000,2183,-1,-1,0
-165.03,7.29,-74.76,1049,-7999,2180,0,-1,0
-165.03,7.29,-74.76,1048,-8003,2176,-1,-1,0
-165.03,7.28,-74.75,1050,-8004,2180,0,-1,0
-165.04,7.28,-74.75,1059,-8001,2188,-1,-1,0
-165.04,7.28,-74.75,1055,-7993,2193,-1,-1,0
-165.05,7.27,-74.76,1053,-7994,2186,-1,-1,0
-165.06,7.26,-74.76,1050,-7995,2192,-1,-1,0
-165.06,7.26,-74.77,1055,-8002,2183,-1,-1,0
-165.06,7.26,-74.77,1045,-8007,2182,0,-1,0
-165.07,7.26,-74.77,1042,-7997,2180,0,-1,0
-165.07,7.25,-74.76,1045,-7991,2182,0,-1,0
-165.07,7.25,-74.76,1047,-7995,2190,-1,-1,-1
-165.07,7.25,-74.76,1047,-7998,2186,-1,-1,0
-165.07,7.26,-74.76,1059,-7998,2184,-1,-1,0
-165.07,7.26,-74.76,1065,-7993,2185,-1,-1,0
-165.07,7.26,-74.76,1056,-7995,2180,-1,-1,-1
-165.08,7.25,-74.76,1051,-7995,2183,0,-1,-1
-165.08,7.25,-74.76,1048,-7997,2182,0,-1,0
-165.07,7.26,-74.76,1052,-8006,2189,0,-1,0
-165.07,7.26,-74.75,1049,-8001,2196,0,-1,-1
-165.07,7.25,-74.75,1041,-7993,2200,-1,-1,-1
-165.07,7.26,-74.75,1050,-7993,2179,-1,-1,-1
-165.08,7.25,-74.76,1051,-7994,2162,0,-1,-1
-165.07,7.26,-74.75,1054,-7996,2175,0,-1,-1
-165.07,7.26,-74.75,1063,-7989,2184,0,-1,-1
-165.07,7.26,-74.75,1066,-7984,2181,-1,-1,-1
-165.06,7.27,-74.75,1063,-7995,2183,0,-1,-1
-165.06,7.27,-74.75,1060,-7991,2183,-1,-1,0
-165.06,7.27,-74.75,1062,-7993,2182,0,0,-1
-165.06,7.27,-74.75,1057,-7999,2178,-1,-1,-1
-165.06,7.27,-74.76,1057,-7998,2178,-1,-1,-1
-165.06,7.27,-74.76,1051,-7999,2170,0,-1,-1
-165.06,7.27,-74.75,1055,-7998,2177,0,-1,-1
-165.05,7.27,-74.74,1061,-7997,2183,0,-1,-1
-165.05,7.28,-74.74,1059,-7994,2193,0,-1,-1
-165.04,7.28,-74.74,1057,-7995,2198,-1,-1,-1
-165.04,7.28,-74.74,1059,-7990,2191,-1,-1,0
-165.05,7.28,-74.75,1053,-7996,2185,-1,-1,0
-165.06,7.27,-74.75,1043,-7998,2178,0,-1,-1
-165.05,7.28,-74.74,1048,-7998,2187,0,-1,-1
-165.04,7.28,-74.74,1054,-7990,2183,0,-1,-1
-165.04,7.28,-74.74,1066,-7995,2186,0,-1,0
-165.04,7.28,-74.74,1063,-7987,2186,-1,-1,0
-165.04,7.28,-74.74,1052,-7995,2195,-1,-1,0
-165.04,7.28,-74.74,1045,-8003,2188,-1,-1,0
-165.04,7.28,-74.74,1047,-7992,2178,0,-1,-1
-165.04,7.29,-74.74,1054,-7980,2169,0,0,-1
-165.03,7.29,-74.74,1063,-7978,2177,0,0,0
-165.03,7.29,-74.73,1056,-7984,2195,-1,-1,0
-165.04,7.28,-74.74,1053,-7988,2193,-1,-1,0
-165.05,7.28,-74.75,1051,-7997,2179,-1,-1,0
-165.05,7.28,-74.75,1057,-7993,2174,-1,-1,-1
-165.04,7.29,-74.75,1061,-8002,2170,0,-1,-1
-165.03,7.30,-74.74,1066,-7994,2175,0,-1,-1
-165.03,7.30,-74.73,1068,-7987,2177,0,-1,-1
-165.03,7.29,-74.73,1057,-7984,2192,-1,-1,0
-165.03,7.29,-74.73,1060,-7988,2197,0,0,0
-165.03,7.29,-74.73,1056,-7995,2203,-1,-1,0
-165.04,7.29,-74.74,1057,-7991,2188,-1,-1,0
-165.04,7.29,-74.74,1058,-7995,2175,-1,-1,-1
-165.03,7.29,-74.73,1059,-7993,2175,0,0,-1
-165.03,7.29,-74.73,1057,-7990,2174,0,0,-1
-165.02,7.30,-74.72,1057,-7988,2186,0,0,-1
-165.01,7.30,-74.72,1062,-7985,2190,0,-1,-1
-165.01,7.30,-74.72,1068,-7987,2186,-1,0,0
-165.01,7.30,-74.72,1068,-7984,2191,-1,0,0
-165.01,7.31,-74.72,1059,-7984,2186,-1,0,-1
-165.02,7.30,-74.73,1061,-7986,2186,-1,0,0
-165.01,7.31,-74.73,1070,-7987,2177,0,0,0
-165.01,7.31,-74.71,1060,-7992,2179,0,-1,-1
-165.01,7.31,-74.71,1062,-7995,2190,0,-1,-1
-165.00,7.31,-74.71,1067,-7992,2189,0,0,-1
-165.00,7.31,-74.71,1068,-7993,2184,0,0,-1
-164.99,7.32,-74.71,1076,-7996,2194,0,0,-1
-164.99,7.32,-74.70,1062,-7991,2184,0,0,-1
-164.98,7.32,-74.70,1064,-7982,2195,-1,0,-1
-164.98,7.32,-74.70,1057,-7985,2186,0,0,-1
-164.97,7.33,-74.69,1060,-7993,2183,0,-1,-1
-164.97,7.33,-74.70,1068,-7995,2179,0,-1,-1
-164.96,7.34,-74.69,1071,-7993,2185,0,0,-1
-164.96,7.34,-74.69,1072,-7991,2192,-1,0,-1
-164.95,7.34,-74.68,1063,-7978,2192,0,-1,-1
-164.95,7.34,-74.68,1060,-7980,2199,0,0,0
-164.95,7.34,-74.68,1067,-7986,2205,-1,-1,-1
-164.95,7.34,-74.68,1068,-7984,2193,-1,0,0
-164.95,7.34,-74.68,1053,-7990,2187,0,0,-1
-164.95,7.34,-74.68,1055,-7993,2189,-1,0,-1
-164.95,7.34,-74.68,1059,-7988,2191,-1,0,-1
-164.95,7.34,-74.68,1063,-7992,2189,0,0,-1
-164.95,7.34,-74.68,1065,-7991,2190,0,-1,-1
-164.94,7.35,-74.67,1072,-7990,2187,0,0,-1
-164.94,7.35,-74.67,1071,-7985,2197,-1,-1,-1
-164.94,7.35,-74.67,1067,-7984,2199,-1,-1,0
-164.94,7.35,-74.68,1061,-7994,2194,-1,0,0
-164.95,7.34,-74.69,1060,-7994,2183,-1,0,0
-164.95,7.34,-74.69,1058,-7990,2180,0,0,-1
-164.95,7.34,-74.69,1056,-7992,2169,0,0,-1
-164.93,7.35,-74.68,1056,-7990,2175,0,-1,-1
-164.93,7.35,-74.67,1064,-7986,2189,0,-1,-1
-164.93,7.35,-74.67,1066,-7987,2209,-1,0,-1
-164.92,7.36,-74.67,1076,-7987,2201,0,0,-1
-164.93,7.35,-74.67,1077,-7983,2203,-1,0,0
-164.93,7.36,-74.68,1071,-7986,2191,-1,0,-1
-164.92,7.36,-74.68,1069,-7992,2192,-1,0,-1
-164.92,7.36,-74.67,1068,-7992,2192,0,0,-1
-164.91,7.36,-74.66,1070,-7985,2199,0,-1,-1
-164.91,7.36,-74.66,1069,-7991,2200,0,0,-1
-164.91,7.37,-74.66,1066,-7987,2202,0,0,-1
-164.91,7.37,-74.66,1063,-7991,2201,-1,0,0
-164.91,7.36,-74.66,1060,-7987,2193,-1,-1,-1
-164.91,7.36,-74.66,1066,-7996,2195,-1,0,-1
-164.91,7.36,-74.66,1059,-7996,2191,0,0,-1
-164.90,7.37,-74.66,1071,-7987,2186,0,0,-1
-164.90,7.37,-74.66,1071,-7986,2188,0,0,-1
-164.90,7.37,-74.65,1068,-7986,2206,-1,0,-1
-164.89,7.37,-74.65,1075,-7996,2203,-1,0,-1
-164.89,7.37,-74.65,1067,-7999,2197,-1,0,-1
-164.90,7.37,-74.66,1076,-7994,2183,0,0,-1
-164.90,7.37,-74.66,1071,-7988,2185,0,0,-1
-164.89,7.38,-74.65,1073,-7989,2194,0,0,0
-164.89,7.37,-74.65,1065,-7997,2205,0,0,-1
-164.89,7.37,-74.65,1065,-7994,2209,-1,0,-1
-164.89,7.37,-74.65,1063,-7994,2196,-1,0,-1
-164.89,7.37,-74.66,1066,-7987,2193,-1,0,-1
-164.89,7.38,-74.66,1073,-7989,2184,-1,0,0
-164.89,7.38,-74.66,1078,-7989,2185,0,0,-1
-164.89,7.38,-74.65,1072,-7994,2187,0,0,-1
-164.89,7.38,-74.65,1070,-7990,2192,0,0,-1
-164.89,7.38,-74.65,1072,-7982,2191,-1,-1,0
-164.89,7.38,-74.65,1076,-7985,2188,-1,0,0
-164.89,7.38,-74.66,1075,-7986,2176,-1,0,-1
-164.88,7.38,-74.66,1081,-7982,2191,-1,0,0
-164.89,7.38,-74.66,1067,-7988,2188,-1,-1,-1
-164.88,7.38,-74.66,1073,-7986,2189,-1,-1,-1
-164.88,7.38,-74.66,1076,-7988,2184,0,0,-1
-164.87,7.39,-74.65,1080,-7984,2194,0,0,-1
-164.86,7.40,-74.65,1087,-7989,2199,0,-1,0
-164.86,7.40,-74.65,1081,-7982,2207,-1,0,0
-164.87,7.39,-74.65,1084,-7983,2207,-1,0,0
-164.87,7.39,-74.65,1085,-7984,2209,-1,-1,0
-164.87,7.39,-74.65,1086,-7986,2190,0,0,0
-164.87,7.39,-74.65,1080,-7997,2196,0,-1,0
-164.87,7.39,-74.65,1075,-7998,2193,0,-1,0
-164.89,7.38,-74.65,1068,-7996,2191,-1,0,0
-164.88,7.37,-74.65,1072,-7987,2198,-1,-1,0
-164.89,7.37,-74.66,1071,-7984,2201,-1,-1,0
-164.89,7.37,-74.66,1072,-7981,2194,-1,-1,0
-164.89,7.37,-74.66,1077,-7987,2189,-1,-1,0
-164.89,7.37,-74.66,1079,-7989,2181,0,0,0
-164.89,7.37,-74.66,1082,-7999,2194,-1,0,0
-164.90,7.37,-74.66,1079,-7998,2194,0,-1,0
-164.90,7.37,-74.66,1075,-8002,2191,-1,0,0
-164.90,7.36,-74.66,1072,-7995,2192,-1,0,0
-164.91,7.36,-74.67,1073,-7987,2188,-1,0,0
-164.92,7.36,-74.67,1071,-7982,2184,-1,0,0
-164.92,7.36,-74.67,1069,-7993,2176,-1,0,0
-164.92,7.36,-74.67,1075,-7999,2186,0,0,0
-164.92,7.36,-74.67,1072,-7996,2208,-1,-1,0
-164.92,7.35,-74.67,1074,-7994,2205,-1,-1,0
-164.93,7.35,-74.67,1073,-7992,2202,-1,-1,0
-164.94,7.34,-74.68,1073,-7992,2198,-1,-1,0
-164.94,7.34,-74.69,1071,-7996,2194,-1,-1,0
-164.95,7.34,-74.70,1072,-7999,2181,0,0,0
-164.95,7.34,-74.69,1068,-8001,2179,0,0,-1
-164.95,7.34,-74.68,1071,-7994,2189,0,-1,0
-164.95,7.34,-74.68,1067,-7989,2194,0,0,0
-164.95,7.33,-74.68,1068,-7989,2204,-1,0,0
-164.96,7.32,-74.68,1062,-7988,2198,-1,0,0
-164.97,7.31,-74.68,1058,-7995,2203,-1,0,0
-164.97,7.31,-74.68,1064,-7987,2199,-1,-1,0
-164.97,7.31,-74.68,1061,-7993,2183,-1,0,0
-164.98,7.30,-74.69,1058,-8005,2187,-1,0,0
-164.98,7.30,-74.69,1054,-8007,2174,0,0,-1
-164.98,7.30,-74.69,1061,-8007,2179,0,0,0
-164.98,7.30,-74.67,1059,-8009,2197,0,-1,0
-164.98,7.29,-74.65,1071,-7998,2229,0,-1,0
-164.98,7.29,-74.64,1074,-7983,2236,-1,-1,0
-165.00,7.28,-74.66,1077,-7974,2242,-1,-1,0
-165.03,7.27,-74.69,1067,-7976,2216,-2,-1,0
-165.06,7.25,-74.71,1052,-7986,2173,-1,-1,0
-165.09,7.24,-74.73,1046,-7992,2150,0,-1,0
-165.08,7.24,-74.72,1052,-7995,2166,0,-1,0
-165.09,7.24,-74.71,1048,-8003,2167,0,-1,0
-165.09,7.23,-74.70,1060,-7987,2203,-1,-1,0
-165.09,7.22,-74.70,1052,-7982,2190,0,-1,0
-165.10,7.22,-74.70,1073,-7979,2201,-1,-1,0
-165.13,7.20,-74.72,1052,-8002,2167,-1,-1,0
-165.15,7.18,-74.71,1053,-7997,2168,0,0,0
-165.16,7.17,-74.70,1034,-8005,2163,0,-1,0
-165.15,7.17,-74.67,1029,-7991,2205,0,-1,0
-165.16,7.16,-74.67,1033,-8008,2206,0,-1,0
-165.16,7.16,-74.66,1039,-8004,2216,0,-1,0
-165.15,7.16,-74.66,1057,-7996,2222,-1,-1,0
-165.17,7.16,-74.66,1051,-7984,2209,0,-1,0
-165.17,7.15,-74.67,1059,-7982,2213,-1,-1,0
-165.19,7.15,-74.68,1042,-7992,2186,0,-1,0
-165.19,7.14,-74.68,1046,-7992,2202,-1,-1,0
-165.21,7.14,-74.69,1040,-7987,2193,-1,-1,0
-165.20,7.14,-74.68,1047,-7983,2182,0,-1,0
-165.21,7.13,-74.69,1043,-8011,2178,-1,-1,0
-165.21,7.13,-74.68,1039,-8002,2191,0,-1,-1
-165.21,7.14,-74.67,1049,-7994,2188,-1,-1,0
-165.21,7.13,-74.67,1041,-7979,2184,0,-1,0
-165.22,7.12,-74.67,1032,-7995,2181,-1,-1,0
-165.22,7.12,-74.67,1037,-7997,2183,0,0,-1
-165.23,7.12,-74.68,1032,-8004,2184,-1,0,-1
-165.21,7.13,-74.68,1031,-7996,2176,0,-1,-1
-165.20,7.14,-74.67,1039,-8001,2204,-1,0,-1
-165.20,7.14,-74.66,1035,-7986,2197,0,0,-1
-165.19,7.15,-74.66,1045,-8000,2208,-1,0,-1
-165.18,7.15,-74.65,1047,-7978,2209,0,-1,-1
-165.18,7.16,-74.66,1054,-7985,2207,-1,0,0
-165.19,7.15,-74.66,1040,-7970,2207,-1,-1,-1
-165.18,7.16,-74.67,1045,-7989,2183,-1,0,0
-165.18,7.16,-74.67,1042,-7986,2192,0,0,-1
-165.17,7.16,-74.67,1043,-7997,2193,-1,0,-1
-165.17,7.16,-74.67,1040,-7992,2198,-1,0,-1
-165.17,7.17,-74.67,1041,-7988,2188,-1,0,-1
-165.16,7.17,-74.67,1048,-7992,2188,0,0,-1
-165.16,7.17,-74.67,1040,-8005,2195,-1,0,-1
-165.16,7.17,-74.68,1034,-8013,2178,0,0,-1
-165.16,7.18,-74.68,1034,-7999,2180,0,-1,-1
-165.15,7.18,-74.67,1039,-8012,2174,0,0,-1
-165.14,7.18,-74.67,1049,-7991,2183,0,0,-1
-165.14,7.19,-74.66,1042,-7997,2193,-1,-1,-1
-165.13,7.19,-74.66,1047,-7993,2203,0,0,-1
-165.13,7.19,-74.67,1046,-7987,2190,-1,-1,-1
-165.13,7.20,-74.67,1057,-7984,2199,-1,0,-1
-165.13,7.20,-74.67,1049,-7999,2173,0,-1,-1
-165.12,7.20,-74.67,1063,-8013,2195,0,0,-1
-165.11,7.21,-74.66,1057,-7991,2212,-1,0,-1
-165.11,7.21,-74.66,1064,-7991,2205,-1,-1,-1
-165.11,7.22,-74.67,1057,-7985,2186,-1,-1,-1
-165.11,7.22,-74.68,1063,-7993,2186,0,0,-1
-165.12,7.22,-74.68,1060,-7993,2182,-1,0,-1
-165.12,7.22,-74.69,1030,-8001,2162,0,0,-1
-165.11,7.23,-74.68,1055,-7995,2191,0,0,-1
-165.10,7.24,-74.68,1047,-8002,2177,0,-1,-1
-165.08,7.24,-74.67,1065,-7970,2217,0,0,-1
-165.09,7.24,-74.68,1052,-7991,2198,-1,0,0
-165.08,7.24,-74.67,1056,-7977,2218,-1,-1,-1
-165.09,7.24,-74.69,1049,-8004,2180,-1,0,-1
-165.08,7.25,-74.69,1059,-7998,2187,-1,-1,-1
-165.08,7.26,-74.70,1053,-7997,2151,0,0,-1
-165.06,7.27,-74.69,1061,-7995,2187,-1,0,0
-165.06,7.26,-74.67,1052,-7979,2204,0,0,-1
-165.05,7.27,-74.68,1051,-7991,2212,-1,0,-1
-165.04,7.28,-74.68,1076,-7995,2202,-1,0,-1
-165.04,7.29,-74.69,1053,-7979,2211,-1,0,-1
-165.05,7.29,-74.71,1071,-7986,2188,-1,-1,0
-165.05,7.29,-74.72,1034,-7985,2177,0,0,-1
-165.04,7.30,-74.73,1068,-7988,2186,-1,0,-1
-165.04,7.30,-74.75,1042,-7999,2178,-1,-1,-1
-165.03,7.31,-74.75,1066,-7996,2185,-1,0,0
-165.04,7.31,-74.76,1043,-7976,2191,-1,0,-1
-165.04,7.32,-74.76,1056,-7995,2166,-1,0,0
-165.04,7.32,-74.77,1066,-7999,2164,0,0,-1
-165.04,7.32,-74.77,1042,-7997,2175,-1,0,-1
-165.03,7.32,-74.77,1077,-7990,2180,0,-1,-1
-165.03,7.32,-74.78,1059,-8002,2155,-1,0,-1
-165.02,7.34,-74.77,1093,-7974,2165,0,0,-1
-165.02,7.33,-74.78,1059,-7986,2161,-1,-1,-1
-165.01,7.34,-74.77,1087,-7986,2197,0,0,-1
-165.02,7.34,-74.78,1071,-7995,2177,-1,-1,0
-165.01,7.34,-74.78,1073,-7998,2190,0,0,-1
-165.02,7.34,-74.79,1053,-7976,2182,-1,-1,-1
-165.01,7.35,-74.80,1084,-7998,2175,-1,0,-1
-165.02,7.35,-74.81,1065,-7997,2154,-1,-1,0
-165.01,7.35,-74.81,1072,-7992,2178,-1,0,-1
-165.01,7.36,-74.82,1072,-7994,2174,-1,-1,0
-165.01,7.36,-74.83,1064,-8002,2189,-1,0,-1
-165.03,7.35,-74.84,1062,-7992,2153,-1,-1,-1
-165.02,7.36,-74.85,1075,-7995,2164,-1,0,-1
-165.02,7.36,-74.86,1072,-7976,2152,-1,-1,-1
-165.02,7.36,-74.86,1079,-7990,2168,-1,0,-1
-165.03,7.36,-74.88,1070,-8002,2159,-1,0,-1
-165.03,7.36,-74.88,1071,-7992,2176,-1,0,-1
-165.02,7.37,-74.90,1064,-8013,2169,-1,0,-1
-165.02,7.38,-74.91,1072,-7992,2174,-1,0,-1
-165.02,7.38,-74.93,1063,-8010,2159,-1,0,-1
-165.00,7.40,-74.93,1068,-7994,2168,-1,0,-1
-164.99,7.41,-74.94,1082,-7969,2195,-1,1,-1
-165.00,7.41,-74.97,1084,-7976,2211,-3,0,0
-165.02,7.41,-75.03,1056,-7981,2179,-2,0,-1
-165.03,7.43,-75.09,1073,-7996,2160,-3,0,-1
-165.03,7.45,-75.16,1080,-7969,2195,-4,0,-1
-165.06,7.48,-75.28,1037,-7991,2135,-5,0,-2
-165.01,7.55,-75.34,1119,-7902,2238,-4,0,-3
-165.03,7.59,-75.52,1124,-7849,2339,-12,2,-2
-165.11,7.63,-75.81,1154,-7875,2367,-14,1,-2
-165.30,7.63,-76.23,1084,-7946,2189,-17,0,-1
-165.48,7.63,-76.64,1042,-8014,1973,-13,0,-3
-165.59,7.69,-76.99,1104,-8047,1879,-12,0,-2
-165.70,7.74,-77.32,1125,-8132,1729,-11,1,-2
-165.75,7.79,-77.58,1100,-8203,1698,-9,3,-3
-165.80,7.84,-77.81,1051,-8254,1680,-8,1,-4
-165.77,7.94,-77.99,1077,-8202,1634,-5,2,-5
-165.71,8.06,-78.15,1123,-8159,1683,-8,2,-5
-165.68,8.17,-78.35,1129,-8159,1616,-6,3,-6
-165.60,8.30,-78.49,1212,-8125,1699,-7,3,-5
-165.60,8.39,-78.70,1214,-8131,1576,-8,1,-4
-165.54,8.49,-78.84,1253,-8073,1608,-6,4,-5
-165.54,8.57,-79.02,1260,-8071,1595,-9,2,-3
-165.58,8.61,-79.23,1253,-8099,1465,-6,4,-3
-165.57,8.66,-79.38,1334,-8049,1549,-8,5,-2
-165.65,8.66,-79.61,1329,-8018,1405,-9,6,0
-165.73,8.62,-79.81,1405,-8041,1489,-9,10,0
-165.84,8.55,-80.02,1391,-8003,1509,-11,11,1
-166.03,8.44,-80.31,1319,-8224,1372,-9,13,1
-166.16,8.33,-80.49,1232,-8192,1385,-8,10,0
-166.32,8.21,-80.66,1228,-8115,1510,-9,4,5
-166.70,7.95,-80.86,1412,-8198,1377,-8,-2,13
-167.29,7.45,-81.14,1626,-8121,1055,-13,22,22
-168.11,6.70,-81.61,1704,-7781,850,-24,48,26
-169.40,5.63,-82.45,1180,-7457,992,-41,51,31
-171.09,4.52,-83.70,736,-7511,885,-53,45,35
-173.05,3.49,-85.27,671,-8250,357,-54,45,29
-174.64,2.69,-86.53,282,-8493,-82,-36,48,20
-175.80,2.08,-87.37,-473,-8032,3,-26,43,11
-176.54,1.79,-87.97,-1084,-7868,784,-25,2,-4
-177.28,1.74,-88.79,-585,-7850,1407,-49,-22,5
-178.26,1.72,-89.98,-78,-8531,1276,-49,-40,-3
-179.00,178.17,-91.08,220,-9006,416,-26,-25,-6
-179.25,178.03,-91.64,368,-8922,358,-20,-23,-4
-179.58,177.94,-92.25,550,-8779,125,-24,-18,-3
-179.90,177.88,-92.81,588,-8690,-66,-19,-13,-2
179.85,177.82,-93.26,579,-8630,-245,-15,-11,-1
179.66,177.80,-93.60,601,-8563,-399,-11,-9,-1
179.54,177.78,-93.82,575,-8506,-394,-9,-6,1
179.29,177.85,-94.10,435,-8476,-674,-7,-6,1
179.22,177.86,-94.22,388,-8496,-709,-4,-4,-1
179.14,177.86,-94.32,352,-8635,-814,-3,-3,-1
179.15,177.84,-94.34,376,-8715,-862,1,1,-1
179.19,177.84,-94.28,298,-8657,-791,2,1,-1
179.29,177.82,-94.18,251,-8493,-641,2,0,-3
179.42,177.74,-94.10,299,-8315,-490,1,1,-3
179.50,177.65,-94.09,299,-8252,-454,-1,1,-4
179.59,177.55,-94.10,381,-8219,-465,-2,0,-4
179.63,177.48,-94.16,346,-8224,-446,-5,0,-3
179.59,177.40,-94.33,339,-8259,-528,-8,-1,-3
179.53,177.31,-94.53,516,-8192,-481,-10,4,-2
179.31,177.23,-94.91,599,-8164,-543,-18,9,-2
178.95,177.16,-95.43,623,-8318,-689,-21,15,2
178.40,177.22,-96.01,356,-8175,-971,-21,16,2
177.77,177.27,-96.69,276,-7914,-1140,-26,18,4
176.78,177.48,-97.67,176,-7784,-1205,-36,8,6
175.74,177.66,-98.72,90,-7890,-1349,-40,10,8
174.34,178.10,-100.03,-316,-7394,-1074,-52,-14,12
172.76,178.68,-101.67,-217,-7861,-1414,-52,-26,13
171.47,179.11,-103.15,340,-8312,-1421,-50,-18,10
170.42,179.46,-104.38,195,-8660,-1777,-42,-14,8
169.86,179.62,-105.18,109,-8914,-1825,-26,-16,1
169.71,179.69,-105.57,441,-8922,-1773,-15,-14,1
169.46,179.80,-105.97,328,-8561,-1929,-15,-11,1
169.28,179.86,-106.32,254,-8359,-2006,-14,-9,0
169.11,179.91,-106.63,284,-8206,-2205,-10,-7,0
168.96,179.95,-106.87,280,-8171,-2284,-9,-4,2
168.82,-179.97,-107.02,127,-8128,-2489,-3,-4,1
168.77,-179.92,-107.06,90,-8179,-2573,-1,-2,1
168.74,-179.86,-107.04,83,-8268,-2613,1,-2,2
168.71,-179.78,-106.95,-43,-8245,-2589,3,-2,1
168.75,-179.75,-106.87,-60,-8264,-2568,3,-1,0
168.80,-179.73,-106.76,-57,-8280,-2546,4,-1,0
168.86,-179.70,-106.64,-56,-8247,-2482,3,-1,0
168.89,-179.68,-106.55,-29,-8157,-2391,2,-1,1
168.90,-179.65,-106.50,-21,-8050,-2314,0,0,0
168.90,-179.63,-106.46,7,-8027,-2308,1,0,1
168.85,-179.57,-106.42,-15,-8040,-2319,0,-1,2
168.83,-179.52,-106.38,-17,-8060,-2312,1,0,2
168.78,-179.44,-106.34,-13,-8070,-2351,1,-1,3
168.73,-179.35,-106.28,-51,-8065,-2325,1,-1,3
168.67,-179.26,-106.24,-81,-8056,-2302,1,-2,2
168.62,-179.18,-106.21,-90,-8095,-2303,0,-1,2
168.55,-179.10,-106.20,-88,-8114,-2322,0,-1,3
168.49,-179.02,-106.17,-121,-8063,-2278,0,-1,2
168.42,-178.95,-106.17,-131,-8080,-2298,-1,-1,2
168.37,-178.90,-106.16,-135,-8099,-2320,0,0,2
168.32,-178.84,-106.14,-170,-8085,-2338,0,-1,1
168.30,-178.80,-106.12,-155,-8089,-2331,0,-1,1
168.27,-178.76,-106.09,-159,-8111,-2339,1,-1,1
168.24,-178.71,-106.06,-163,-8113,-2310,0,-1,2
168.20,-178.65,-106.02,-188,-8100,-2307,1,-1,1
168.17,-178.60,-106.00,-195,-8087,-2284,0,-1,1
168.12,-178.54,-105.99,-190,-8093,-2270,-1,-1,1
168.07,-178.50,-105.99,-198,-8100,-2288,0,0,1
168.04,-178.46,-105.98,-203,-8083,-2289,0,0,1
168.00,-178.40,-105.95,-198,-8091,-2293,1,-1,2
167.96,-178.33,-105.91,-202,-8087,-2308,1,-1,2
167.92,-178.25,-105.85,-231,-8070,-2282,1,-1,2
167.89,-178.19,-105.81,-248,-8098,-2263,0,-1,1
167.85,-178.15,-105.79,-269,-8122,-2252,0,0,1
167.82,-178.12,-105.79,-283,-8124,-2260,-1,0,1
167.78,-178.09,-105.80,-279,-8117,-2263,-1,0,0
167.74,-178.07,-105.81,-276,-8100,-2262,-1,0,1
167.70,-178.05,-105.83,-272,-8075,-2263,-1,0,1
167.66,-178.02,-105.85,-278,-8081,-2269,-1,0,0
167.63,-178.00,-105.86,-286,-8092,-2283,-1,0,0
167.61,-177.98,-105.85,-300,-8108,-2282,-1,0,0
167.59,-177.97,-105.85,-299,-8116,-2288,0,-1,0
167.59,-177.96,-105.84,-291,-8094,-2290,0,-1,0
167.58,-177.94,-105.83,-303,-8096,-2278,0,-1,0
167.59,-177.94,-105.81,-298,-8115,-2277,0,0,0
167.60,-177.94,-105.80,-297,-8123,-2293,0,0,-1
167.61,-177.94,-105.77,-297,-8105,-2264,0,0,0
167.63,-177.93,-105.75,-288,-8089,-2240,0,-1,0
167.62,-177.93,-105.73,-298,-8102,-2251,0,0,0
167.63,-177.93,-105.72,-303,-8099,-2252,0,0,0
167.62,-177.93,-105.73,-306,-8110,-2268,0,0,0
167.63,-177.92,-105.72,-307,-8105,-2263,0,0,0
167.62,-177.92,-105.72,-291,-8103,-2262,-1,0,0
167.62,-177.93,-105.72,-294,-8099,-2280,-1,0,0
167.62,-177.92,-105.71,-284,-8105,-2270,0,0,0
167.61,-177.91,-105.70,-301,-8099,-2256,0,0,0
167.61,-177.90,-105.69,-285,-8112,-2246,-1,0,0
167.60,-177.89,-105.68,-311,-8110,-2251,0,0,0
167.59,-177.88,-105.68,-314,-8113,-2254,-1,0,0
167.59,-177.88,-105.68,-319,-8105,-2260,0,-1,0
167.59,-177.87,-105.66,-307,-8111,-2264,0,-1,0
167.60,-177.86,-105.65,-311,-8117,-2271,0,-1,0
167.61,-177.86,-105.63,-318,-8127,-2283,0,-1,0
167.62,-177.85,-105.61,-311,-8116,-2261,0,-1,0
167.63,-177.84,-105.59,-328,-8113,-2254,0,-1,0
167.64,-177.84,-105.57,-317,-8115,-2236,0,-1,0
167.64,-177.82,-105.56,-320,-8110,-2251,0,-1,0
167.65,-177.82,-105.55,-304,-8120,-2241,0,-1,0
167.65,-177.80,-105.53,-326,-8112,-2245,0,-1,0
167.66,-177.79,-105.51,-306,-8110,-2237,0,-1,0
167.67,-177.78,-105.48,-325,-8098,-2231,0,-1,0
167.69,-177.78,-105.46,-307,-8091,-2221,0,-1,0
167.70,-177.77,-105.45,-312,-8093,-2227,0,-1,0
167.70,-177.76,-105.44,-312,-8115,-2229,0,-1,0
167.70,-177.75,-105.41,-309,-8093,-2216,0,-1,0
167.70,-177.73,-105.40,-319,-8115,-2254,0,-1,0
167.70,-177.71,-105.38,-323,-8126,-2231,1,-1,0
167.70,-177.68,-105.34,-349,-8121,-2240,1,-1,0
167.71,-177.65,-105.31,-343,-8106,-2212,0,-2,0
167.73,-177.64,-105.27,-338,-8109,-2227,1,-2,0
167.74,-177.62,-105.23,-324,-8107,-2199,0,-1,0
167.75,-177.60,-105.20,-339,-8103,-2190,0,-1,0
167.76,-177.59,-105.18,-346,-8117,-2191,0,-1,0
167.78,-177.58,-105.15,-341,-8123,-2195,0,-1,0
167.79,-177.57,-105.12,-345,-8131,-2196,0,-1,0
167.80,-177.55,-105.10,-339,-8113,-2190,0,-1,0
167.82,-177.54,-105.06,-343,-8112,-2174,1,-1,0
167.83,-177.52,-105.03,-334,-8123,-2160,0,-1,0
167.83,-177.49,-105.00,-363,-8124,-2154,0,-1,0
167.84,-177.48,-104.97,-386,-8134,-2180,1,-2,-1
167.88,-177.47,-104.92,-361,-8145,-2184,1,-2,0
167.89,-177.45,-104.88,-337,-8130,-2180,1,-2,0
167.90,-177.41,-104.81,-346,-8123,-2143,2,-2,1
167.91,-177.36,-104.76,-369,-8137,-2156,1,-2,1
167.91,-177.32,-104.69,-381,-8129,-2141,2,-2,1
167.92,-177.28,-104.65,-376,-8166,-2141,1,-2,1
167.92,-177.23,-104.59,-401,-8134,-2086,1,-2,0
167.92,-177.21,-104.56,-395,-8130,-2081,0,-2,0
167.92,-177.18,-104.54,-399,-8154,-2101,1,-2,0
167.92,-177.15,-104.50,-425,-8137,-2090,0,-1,0
167.93,-177.14,-104.49,-417,-8147,-2082,0,-1,-1
167.91,-177.13,-104.50,-418,-8148,-2104,-1,-1,0
167.90,-177.12,-104.51,-417,-8148,-2122,0,-1,0
167.90,-177.11,-104.51,-414,-8129,-2109,0,-1,0
167.89,-177.09,-104.50,-430,-8135,-2101,-1,-1,0
167.88,-177.08,-104.50,-435,-8160,-2094,0,-1,0
167.89,-177.08,-104.50,-443,-8145,-2071,-1,-1,-1
167.90,-177.10,-104.52,-415,-8126,-2067,-1,-1,-1
167.89,-177.11,-104.53,-429,-8128,-2098,-1,0,-1
167.90,-177.12,-104.54,-421,-8162,-2100,-1,0,-1
167.92,-177.15,-104.55,-425,-8147,-2113,-1,0,-2
167.95,-177.18,-104.55,-424,-8174,-2155,1,0,-2
168.01,-177.22,-104.51,-398,-8151,-2124,1,0,-2
168.06,-177.26,-104.48,-399,-8099,-2054,0,0,-2
168.10,-177.31,-104.49,-390,-8101,-2018,-2,1,-2
168.12,-177.38,-104.54,-413,-8129,-2045,-3,1,-3
168.14,-177.46,-104.61,-370,-8161,-2099,-3,1,-3
168.15,-177.52,-104.67,-356,-8136,-2120,-2,1,-2
168.16,-177.58,-104.73,-342,-8127,-2110,-3,1,-2
168.15,-177.62,-104.80,-342,-8143,-2148,-3,1,-2
168.14,-177.66,-104.85,-354,-8128,-2155,-2,1,-2
168.15,-177.70,-104.90,-332,-8132,-2147,-2,1,-2
168.15,-177.74,-104.95,-330,-8135,-2161,-2,0,-1
168.15,-177.77,-104.99,-325,-8158,-2173,-2,0,-1
168.14,-177.79,-105.03,-326,-8139,-2167,-2,0,-1
168.13,-177.80,-105.06,-319,-8141,-2187,-1,0,-1
168.12,-177.81,-105.07,-311,-8127,-2186,-1,-1,0
168.11,-177.80,-105.08,-324,-8103,-2169,-1,0,-1
168.10,-177.81,-105.12,-299,-8130,-2190,-2,-1,0
168.09,-177.81,-105.13,-306,-8145,-2208,-1,-1,0
168.09,-177.80,-105.11,-324,-8175,-2250,3,2,-1
168.09,-177.78,-105.09,-341,-8123,-2178,-1,-1,0
168.08,-177.78,-105.10,-323,-8125,-2150,-2,-1,0
168.05,-177.76,-105.12,-325,-8129,-2178,-1,-1,0
168.03,-177.75,-105.13,-332,-8134,-2180,-1,-1,0
168.02,-177.75,-105.14,-320,-8132,-2189,-1,-1,0
167.99,-177.73,-105.16,-332,-8132,-2208,-1,-1,0
167.97,-177.71,-105.18,-341,-8106,-2190,-1,-1,0
167.95,-177.69,-105.19,-334,-8113,-2206,0,-1,0
167.93,-177.68,-105.20,-341,-8116,-2194,-1,-1,0
167.90,-177.65,-105.22,-347,-8121,-2191,-1,-1,0
167.87,-177.64,-105.24,-358,-8117,-2197,-2,-1,0
167.85,-177.63,-105.26,-349,-8124,-2198,-1,-1,0
167.82,-177.62,-105.29,-353,-8108,-2211,-1,-1,0
167.80,-177.61,-105.31,-341,-8128,-2232,-1,-1,0
167.78,-177.59,-105.32,-351,-8109,-2218,-1,-1,0
167.76,-177.58,-105.33,-346,-8125,-2219,-1,-1,0
167.74,-177.56,-105.35,-365,-8121,-2223,-1,-1,0
167.72,-177.55,-105.36,-350,-8125,-2217,-1,-1,0
167.69,-177.53,-105.38,-379,-8111,-2235,-1,-1,0
167.68,-177.52,-105.39,-373,-8120,-2220,-1,-1,0
167.66,-177.51,-105.40,-375,-8109,-2225,-1,-1,0
167.65,-177.49,-105.41,-373,-8117,-2244,-1,-1,0
167.63,-177.48,-105.42,-373,-8101,-2235,-1,-1,0
167.62,-177.47,-105.42,-373,-8105,-2233,-1,-1,0
167.61,-177.46,-105.42,-361,-8101,-2222,-1,-1,0
167.60,-177.46,-105.44,-373,-8107,-2229,-1,-1,0
167.59,-177.45,-105.44,-362,-8120,-2236,0,-1,0
167.58,-177.44,-105.44,-381,-8107,-2234,-1,-1,0
167.57,-177.43,-105.44,-367,-8112,-2227,-1,-1,0
167.56,-177.43,-105.45,-395,-8105,-2238,-1,-1,0
167.55,-177.42,-105.46,-366,-8113,-2244,-1,-1,0
167.55,-177.41,-105.46,-381,-8117,-2259,0,-1,0
167.54,-177.40,-105.46,-369,-8121,-2227,-1,-1,0
167.53,-177.39,-105.47,-386,-8108,-2226,-1,-1,0
167.52,-177.39,-105.48,-379,-8101,-2231,-1,0,0
167.51,-177.38,-105.49,-375,-8078,-2244,-1,-1,0
167.50,-177.38,-105.50,-363,-8086,-2250,-1,0,0
167.49,-177.37,-105.50,-371,-8112,-2255,0,-1,0
167.48,-177.35,-105.50,-390,-8125,-2251,-1,-1,0
167.47,-177.34,-105.50,-386,-8119,-2251,-1,-1,0
167.45,-177.32,-105.50,-399,-8104,-2259,0,-1,0
167.45,-177.32,-105.50,-380,-8098,-2239,0,-1,0
167.44,-177.31,-105.50,-399,-8105,-2248,0,-1,0
167.44,-177.30,-105.50,-379,-8119,-2234,-1,-1,0
167.44,-177.30,-105.49,-398,-8118,-2251,0,-1,0
167.43,-177.29,-105.49,-382,-8114,-2246,-1,-1,0
167.42,-177.28,-105.50,-386,-8104,-2255,0,-1,0
167.41,-177.26,-105.50,-396,-8096,-2236,-1,-1,0
167.41,-177.26,-105.50,-393,-8094,-2233,0,-1,0
167.39,-177.25,-105.50,-410,-8103,-2243,-1,-1,0
167.39,-177.24,-105.50,-399,-8113,-2243,-1,-1,0
167.36,-177.23,-105.53,-412,-8113,-2263,-1,-1,0
167.36,-177.23,-105.53,-387,-8110,-2255,-1,-1,0
167.35,-177.22,-105.53,-402,-8104,-2260,0,-1,0
167.36,-177.22,-105.52,-386,-8110,-2241,0,-1,0
167.35,-177.21,-105.52,-406,-8106,-2247,0,-1,0
167.35,-177.20,-105.52,-393,-8121,-2248,0,-1,0
167.35,-177.20,-105.52,-406,-8114,-2241,-1,-1,0
167.34,-177.19,-105.52,-404,-8113,-2246,-1,-1,0
167.34,-177.18,-105.51,-406,-8113,-2249,0,-1,0
167.34,-177.18,-105.51,-398,-8102,-2240,-1,-1,0
167.33,-177.17,-105.51,-409,-8094,-2236,-1,-1,-1
167.33,-177.18,-105.52,-407,-8112,-2251,-1,-1,0
167.33,-177.17,-105.52,-408,-8113,-2251,0,-1,0
167.33,-177.17,-105.51,-410,-8114,-2248,0,-1,0
167.33,-177.17,-105.51,-397,-8103,-2235,-1,-1,0
167.33,-177.16,-105.51,-413,-8112,-2236,-1,0,0
167.33,-177.16,-105.51,-414,-8108,-2241,-1,-1,-1
167.32,-177.16,-105.51,-427,-8103,-2249,-1,-1,-1
167.33,-177.16,-105.50,-411,-8110,-2248,0,-1,-1
167.33,-177.15,-105.50,-426,-8112,-2251,0,-1,0
167.34,-177.14,-105.49,-421,-8119,-2252,0,-1,0
167.36,-177.15,-105.47,-419,-8113,-2246,0,-1,-1
167.37,-177.14,-105.44,-416,-8101,-2233,0,-1,-1
167.39,-177.15,-105.42,-420,-8093,-2222,0,-1,-1
167.41,-177.16,-105.42,-407,-8106,-2231,0,-1,-1
167.42,-177.16,-105.40,-422,-8097,-2216,0,0,-1
167.43,-177.17,-105.40,-411,-8112,-2221,0,0,-1
167.44,-177.18,-105.40,-424,-8101,-2234,-1,0,-1
167.46,-177.20,-105.39,-405,-8120,-2226,0,0,-1
167.47,-177.20,-105.39,-414,-8118,-2246,0,-1,-1
167.49,-177.23,-105.38,-413,-8118,-2234,0,0,-1
167.51,-177.24,-105.37,-406,-8118,-2220,0,0,-1
167.52,-177.25,-105.37,-421,-8113,-2224,-1,0,-1
167.54,-177.27,-105.37,-409,-8105,-2211,-1,0,-1
167.55,-177.30,-105.38,-417,-8119,-2277,0,0,-1
167.60,-177.32,-105.35,-381,-8124,-2210,0,0,-1
167.61,-177.35,-105.35,-411,-8097,-2189,-1,0,-2
167.64,-177.39,-105.36,-379,-8113,-2217,-1,0,-1
167.67,-177.43,-105.37,-368,-8102,-2208,0,0,-2
167.68,-177.46,-105.38,-374,-8098,-2201,-1,0,-1
167.69,-177.48,-105.40,-357,-8111,-2214,-1,0,-1
167.69,-177.51,-105.42,-381,-8097,-2226,-1,0,-1
167.70,-177.54,-105.45,-358,-8112,-2235,-1,0,-1
167.70,-177.56,-105.47,-365,-8108,-2251,-1,0,-1
167.71,-177.58,-105.48,-357,-8117,-2249,-1,0,-1
167.71,-177.60,-105.51,-354,-8120,-2266,-1,0,-1
167.72,-177.61,-105.51,-350,-8112,-2249,-1,0,-1
167.72,-177.62,-105.52,-338,-8113,-2247,-1,0,-1
167.71,-177.63,-105.54,-366,-8098,-2255,-1,0,-1
167.71,-177.64,-105.56,-338,-8108,-2266,-1,0,-1
167.71,-177.64,-105.56,-342,-8104,-2269,-1,-1,-1
167.71,-177.63,-105.56,-336,-8114,-2259,-1,-1,0
167.71,-177.64,-105.56,-341,-8109,-2233,-1,-1,0
167.70,-177.63,-105.57,-353,-8105,-2245,-1,0,-1
167.70,-177.64,-105.58,-336,-8096,-2250,-1,-1,-1
167.69,-177.64,-105.59,-348,-8096,-2256,-1,0,-1
167.70,-177.64,-105.59,-327,-8114,-2251,-1,-1,0
167.69,-177.64,-105.59,-359,-8116,-2260,0,-1,0
167.69,-177.64,-105.59,-336,-8119,-2251,-1,0,0
167.69,-177.64,-105.59,-346,-8103,-2265,0,-1,-1
167.69,-177.64,-105.59,-334,-8104,-2253,-1,0,0
167.69,-177.64,-105.59,-337,-8085,-2261,0,-1,0
167.68,-177.63,-105.60,-345,-8100,-2256,-1,0,0
167.67,-177.63,-105.60,-344,-8111,-2252,-1,-1,0
167.67,-177.62,-105.60,-352,-8100,-2268,-1,0,0
167.66,-177.62,-105.61,-339,-8106,-2263,-1,-1,0
167.65,-177.61,-105.62,-357,-8090,-2268,-1,-1,0
167.65,-177.61,-105.62,-348,-8104,-2260,-1,-1,0
167.63,-177.60,-105.63,-360,-8099,-2265,-1,-1,0
167.63,-177.60,-105.63,-343,-8107,-2270,-1,-1,0
167.62,-177.58,-105.63,-360,-8097,-2263,-1,-1,0
167.61,-177.58,-105.64,-361,-8101,-2273,-1,0,0
167.61,-177.58,-105.64,-356,-8102,-2270,0,-1,0
167.61,-177.58,-105.64,-350,-8112,-2248,-1,0,0
167.60,-177.58,-105.65,-352,-8109,-2273,-1,-1,0
167.60,-177.58,-105.65,-358,-8107,-2271,0,0,-1
167.60,-177.58,-105.65,-351,-8105,-2267,-1,-1,0
167.60,-177.58,-105.65,-342,-8097,-2260,-1,0,-1
167.60,-177.59,-105.65,-347,-8104,-2251,-1,0,0
167.59,-177.58,-105.66,-349,-8102,-2257,-1,0,-1
167.59,-177.59,-105.67,-339,-8112,-2270,-1,0,-1
167.59,-177.59,-105.67,-355,-8096,-2271,-1,0,-1
167.59,-177.59,-105.68,-347,-8107,-2274,-1,0,-1
167.59,-177.59,-105.68,-350,-8104,-2268,-1,0,-1
167.59,-177.59,-105.68,-345,-8104,-2259,-1,0,0
167.59,-177.60,-105.68,-351,-8099,-2262,-1,-1,0
167.59,-177.60,-105.68,-351,-8100,-2260,-1,0,0
167.58,-177.59,-105.70,-357,-8088,-2267,-1,-1,0
167.58,-177.59,-105.70,-360,-8098,-2273,-1,0,0
167.58,-177.59,-105.70,-358,-8101,-2272,-1,0,-1
167.58,-177.60,-105.70,-355,-8114,-2282,-1,0,-1
167.58,-177.60,-105.70,-342,-8102,-2268,-1,-1,-1
167.57,-177.60,-105.71,-356,-8102,-2275,-1,0,0
167.57,-177.60,-105.71,-355,-8095,-2262,-1,0,0
167.56,-177.60,-105.72,-365,-8094,-2276,-1,0,-1
167.56,-177.60,-105.73,-349,-8091,-2280,-1,0,-1
167.56,-177.61,-105.73,-358,-8091,-2279,-1,0,-1
167.56,-177.61,-105.75,-355,-8096,-2288,-1,0,-1
167.56,-177.61,-105.75,-349,-8096,-2275,-1,0,-1
167.56,-177.62,-105.75,-344,-8111,-2287,-1,0,0
167.55,-177.62,-105.76,-344,-8106,-2274,-1,0,0
167.55,-177.61,-105.76,-345,-8108,-2272,-1,-1,0
167.55,-177.61,-105.76,-350,-8092,-2275,-1,0,0
167.54,-177.61,-105.77,-357,-8088,-2278,-1,-1,0
167.53,-177.60,-105.77,-348,-8093,-2282,0,-1,0
167.53,-177.60,-105.78,-348,-8103,-2294,-1,0,-1
167.53,-177.60,-105.78,-350,-8102,-2288,-1,-1,0
167.52,-177.60,-105.79,-354,-8094,-2280,0,-1,0
167.51,-177.59,-105.80,-355,-8090,-2290,-1,-1,0
167.51,-177.59,-105.79,-361,-8091,-2277,-1,0,0
167.51,-177.59,-105.80,-358,-8096,-2284,-1,0,0
167.50,-177.58,-105.80,-363,-8097,-2288,-1,-1,0
167.50,-177.58,-105.80,-352,-8103,-2293,-1,-1,0
167.49,-177.58,-105.81,-347,-8098,-2288,0,-1,0
167.49,-177.58,-105.81,-344,-8076,-2282,-1,0,0
167.49,-177.58,-105.81,-345,-8073,-2279,-1,0,-1
167.49,-177.58,-105.82,-341,-8094,-2284,-1,0,0
167.49,-177.58,-105.81,-346,-8103,-2284,-1,-1,0
167.48,-177.56,-105.81,-354,-8104,-2282,-1,-1,0
167.46,-177.56,-105.82,-357,-8089,-2291,-1,-1,0
167.46,-177.55,-105.83,-370,-8089,-2304,-1,0,0
167.46,-177.55,-105.83,-348,-8083,-2298,-1,0,-1
167.46,-177.55,-105.83,-351,-8099,-2309,-1,-1,0
167.45,-177.55,-105.84,-345,-8098,-2307,0,-1,0
167.44,-177.54,-105.84,-362,-8093,-2306,-1,-1,0
167.44,-177.53,-105.84,-355,-8088,-2282,0,-1,0
167.44,-177.53,-105.84,-368,-8092,-2291,-1,0,-1
167.43,-177.54,-105.85,-349,-8103,-2296,-1,-1,0
167.42,-177.52,-105.86,-365,-8096,-2314,-1,-1,0
167.42,-177.52,-105.85,-364,-8096,-2289,0,-1,0
167.41,-177.52,-105.86,-366,-8087,-2289,0,-1,-1
167.41,-177.52,-105.86,-351,-8082,-2279,-1,-1,0
167.41,-177.51,-105.86,-363,-8089,-2295,0,-1,0
167.40,-177.50,-105.86,-358,-8096,-2303,-1,-1,0
167.40,-177.50,-105.86,-363,-8091,-2291,-1,-1,0
167.40,-177.50,-105.86,-360,-8102,-2294,-1,-1,0
167.39,-177.49,-105.87,-367,-8090,-2298,-1,-1,0
167.39,-177.49,-105.87,-369,-8093,-2294,-1,-1,0
167.37,-177.48,-105.87,-368,-8088,-2293,-1,-1,0
167.37,-177.47,-105.87,-377,-8093,-2309,-1,-1,0
167.35,-177.46,-105.89,-374,-8090,-2300,-1,-1,0
167.34,-177.45,-105.89,-383,-8082,-2310,-1,0,0
167.34,-177.45,-105.89,-376,-8085,-2300,-1,-1,0
167.33,-177.44,-105.89,-380,-8091,-2307,-1,-1,0
167.33,-177.44,-105.89,-368,-8096,-2308,-1,-1,0
167.32,-177.43,-105.89,-383,-8097,-2302,-1,0,0
167.32,-177.43,-105.90,-362,-8105,-2292,-1,-1,0
167.31,-177.41,-105.89,-383,-8101,-2289,-1,-1,0
167.30,-177.41,-105.90,-369,-8096,-2288,-1,-1,0
167.29,-177.40,-105.90,-385,-8084,-2292,0,-1,0
167.30,-177.40,-105.89,-367,-8093,-2303,-1,-1,0
167.28,-177.39,-105.90,-388,-8086,-2305,-1,-1,0
167.28,-177.38,-105.89,-381,-8101,-2292,-1,-1,0
167.28,-177.37,-105.89,-400,-8097,-2298,0,-1,-1
167.28,-177.37,-105.89,-382,-8096,-2291,-1,0,0
167.27,-177.37,-105.90,-390,-8082,-2302,0,-1,-1
167.28,-177.36,-105.89,-388,-8091,-2307,0,-1,0
167.27,-177.35,-105.89,-387,-8083,-2312,0,-1,0
167.28,-177.35,-105.87,-386,-8095,-2300,0,-1,0
167.28,-177.34,-105.86,-388,-8094,-2297,0,-1,0
167.29,-177.34,-105.86,-389,-8099,-2302,0,-1,0
167.28,-177.34,-105.86,-392,-8079,-2298,0,-1,0
167.29,-177.34,-105.85,-387,-8083,-2284,0,-1,-1
167.30,-177.34,-105.85,-383,-8090,-2296,0,-1,-1
167.31,-177.35,-105.84,-388,-8086,-2289,0,-1,-1
167.31,-177.34,-105.84,-382,-8093,-2301,0,-1,0
167.31,-177.34,-105.84,-389,-8088,-2299,-1,-1,-1
167.32,-177.35,-105.84,-372,-8093,-2291,-1,-1,-1
167.31,-177.35,-105.85,-378,-8075,-2300,-1,-1,-1
167.32,-177.36,-105.84,-374,-8090,-2288,-1,0,0
167.32,-177.36,-105.84,-378,-8087,-2287,0,-1,-1
167.32,-177.36,-105.84,-388,-8100,-2299,-1,0,-1
167.32,-177.36,-105.85,-380,-8103,-2294,-1,0,0
167.32,-177.36,-105.85,-394,-8094,-2285,-1,0,-1
167.33,-177.37,-105.85,-375,-8095,-2285,-1,-1,0
167.32,-177.37,-105.86,-379,-8073,-2292,0,0,-1
167.32,-177.38,-105.86,-374,-8095,-2292,-1,0,0
167.32,-177.38,-105.87,-380,-8089,-2299,-1,-1,-1
167.31,-177.38,-105.87,-386,-8101,-2303,-1,0,-1
167.32,-177.38,-105.87,-375,-8088,-2292,0,-1,-1
167.33,-177.39,-105.87,-381,-8097,-2294,-1,0,-1
167.33,-177.39,-105.88,-372,-8099,-2299,-1,-1,0
167.32,-177.39,-105.89,-383,-8092,-2304,-1,0,-1
167.32,-177.39,-105.89,-378,-8102,-2302,-1,0,0
167.32,-177.39,-105.90,-385,-8086,-2309,-1,-1,-1
167.32,-177.40,-105.90,-382,-8098,-2305,-1,0,-1
167.32,-177.40,-105.90,-381,-8081,-2307,-1,-1,-1
167.32,-177.40,-105.91,-382,-8095,-2310,-1,0,-1
167.32,-177.40,-105.90,-381,-8095,-2300,0,-1,-1
167.32,-177.40,-105.90,-378,-8095,-2298,-1,0,-1
167.33,-177.41,-105.91,-368,-8090,-2297,0,0,-1
167.33,-177.41,-105.91,-381,-8084,-2301,-1,0,-1
167.33,-177.42,-105.92,-371,-8099,-2303,-1,0,0
167.32,-177.41,-105.93,-385,-8084,-2316,-1,0,-1
167.33,-177.42,-105.92,-364,-8101,-2309,-1,0,0
167.32,-177.42,-105.93,-380,-8084,-2329,0,0,-1
167.33,-177.43,-105.93,-370,-8098,-2311,-1,0,0
167.32,-177.42,-105.94,-374,-8087,-2314,-1,-1,-1
167.32,-177.42,-105.94,-380,-8097,-2316,-1,0,-1
167.32,-177.43,-105.95,-376,-8091,-2308,-1,-1,-1
167.31,-177.43,-105.95,-381,-8093,-2312,-1,0,-1
167.31,-177.43,-105.95,-371,-8088,-2312,-1,0,0
167.31,-177.44,-105.95,-382,-8095,-2303,-1,0,-1
167.32,-177.44,-105.95,-369,-8098,-2305,0,0,0
167.31,-177.44,-105.95,-377,-8085,-2303,-1,0,-1
167.32,-177.44,-105.95,-377,-8101,-2308,-1,-1,-1
167.31,-177.44,-105.96,-379,-8093,-2314,-1,0,-1
167.31,-177.44,-105.96,-376,-8103,-2308,-1,0,-1
167.31,-177.44,-105.96,-381,-8086,-2308,-1,0,-1
167.32,-177.45,-105.96,-373,-8091,-2301,-1,0,-1
167.31,-177.45,-105.97,-378,-8081,-2310,0,0,-1
167.31,-177.45,-105.97,-378,-8096,-2302,-1,0,-1
167.31,-177.45,-105.97,-382,-8088,-2314,-1,0,-1
167.31,-177.46,-105.98,-375,-8096,-2323,-1,0,0
167.31,-177.46,-105.99,-379,-8080,-2331,-1,-1,-1
167.31,-177.47,-106.00,-373,-8089,-2318,-1,0,0
167.31,-177.46,-105.99,-365,-8085,-2314,0,0,-1
167.31,-177.47,-105.99,-371,-8101,-2331,-1,0,-1
167.32,-177.48,-106.00,-363,-8099,-2320,-1,0,-1
167.32,-177.48,-106.00,-370,-8098,-2320,-1,0,-1
167.31,-177.48,-106.01,-361,-8098,-2312,-1,0,-1
167.32,-177.49,-106.01,-367,-8089,-2317,-1,0,-1
167.31,-177.48,-106.01,-370,-8098,-2317,-1,0,0
167.32,-177.49,-106.01,-364,-8085,-2316,-1,0,-1
167.32,-177.50,-106.02,-362,-8097,-2319,-1,0,-1
167.32,-177.50,-106.02,-368,-8079,-2311,-1,-1,-1
167.32,-177.50,-106.02,-364,-8089,-2310,-1,0,-1
167.31,-177.50,-106.03,-364,-8086,-2323,-1,-1,0
167.30,-177.50,-106.04,-367,-8090,-2330,-1,0,-1
167.30,-177.50,-106.04,-365,-8084,-2328,-1,-1,-1
167.30,-177.50,-106.05,-368,-8081,-2339,-1,0,-1
167.30,-177.51,-106.05,-360,-8076,-2325,-1,0,0
167.29,-177.50,-106.06,-370,-8075,-2328,-1,0,-1
167.29,-177.51,-106.06,-363,-8080,-2326,-1,0,0
167.29,-177.51,-106.06,-368,-8084,-2323,-1,0,-1
167.29,-177.51,-106.07,-361,-8092,-2320,-1,0,0
167.29,-177.51,-106.07,-364,-8081,-2330,-1,-1,-1
167.29,-177.51,-106.07,-352,-8076,-2321,-1,0,0
167.28,-177.51,-106.08,-359,-8080,-2332,0,0,-1
167.28,-177.51,-106.08,-362,-8088,-2338,-1,0,0
167.28,-177.51,-106.09,-367,-8083,-2334,-1,-1,-1
167.27,-177.51,-106.10,-373,-8078,-2326,-1,-1,0
167.27,-177.51,-106.10,-369,-8076,-2317,-1,-1,-1
167.27,-177.50,-106.10,-371,-8089,-2334,-1,0,-1
167.27,-177.50,-106.11,-368,-8093,-2330,-1,-1,0
167.26,-177.50,-106.11,-367,-8089,-2342,-1,-1,0
167.25,-177.50,-106.11,-365,-8078,-2336,0,-1,0
167.25,-177.50,-106.12,-371,-8085,-2343,-1,-1,0
167.25,-177.50,-106.12,-368,-8082,-2332,-1,-1,-1
167.25,-177.49,-106.13,-371,-8081,-2345,0,-1,-1
167.25,-177.49,-106.13,-365,-8078,-2342,-1,-1,0
167.24,-177.49,-106.13,-368,-8084,-2335,-1,0,-1
167.24,-177.49,-106.13,-354,-8077,-2327,-1,-1,0
167.24,-177.49,-106.14,-366,-8079,-2339,0,0,-1
167.23,-177.49,-106.14,-358,-8075,-2336,-1,-1,0
167.23,-177.49,-106.15,-364,-8076,-2335,-1,0,-1
167.23,-177.49,-106.15,-358,-8091,-2343,-1,-1,0
167.22,-177.49,-106.16,-366,-8087,-2337,0,0,-1
167.21,-177.48,-106.16,-369,-8086,-2341,-1,0,0
167.21,-177.48,-106.16,-368,-8077,-2323,-1,0,0
167.21,-177.48,-106.16,-357,-8085,-2335,-1,0,0
167.20,-177.48,-106.17,-366,-8082,-2344,-1,-1,0
167.19,-177.47,-106.18,-370,-8081,-2358,-1,-1,0
167.19,-177.47,-106.18,-376,-8077,-2351,0,-1,-1
167.19,-177.47,-106.18,-366,-8085,-2352,-1,-1,0
167.20,-177.48,-106.17,-361,-8082,-2337,-1,-1,0
167.19,-177.47,-106.18,-363,-8079,-2340,-1,-1,0
167.18,-177.46,-106.19,-376,-8077,-2331,-1,-1,0
167.18,-177.46,-106.19,-374,-8091,-2323,-1,0,0
167.17,-177.46,-106.19,-371,-8086,-2346,-1,-1,0
167.17,-177.46,-106.19,-363,-8082,-2351,-1,0,0
167.17,-177.46,-106.19,-370,-8070,-2347,0,-1,0
167.17,-177.45,-106.19,-371,-8070,-2341,-1,-1,0
167.17,-177.44,-106.19,-378,-8072,-2336,0,-1,0
167.17,-177.44,-106.18,-376,-8077,-2334,-1,-1,0
167.17,-177.44,-106.18,-372,-8065,-2329,-1,-1,-1
167.17,-177.44,-106.19,-371,-8063,-2334,-1,0,0
167.17,-177.44,-106.19,-364,-8063,-2333,-1,-1,0
167.15,-177.43,-106.19,-367,-8076,-2340,-1,0,0
167.15,-177.43,-106.20,-367,-8079,-2349,-1,-1,0
167.15,-177.43,-106.20,-382,-8088,-2325,-1,0,0
167.13,-177.42,-106.21,-374,-8081,-2339,0,-1,0
167.13,-177.42,-106.21,-384,-8078,-2339,-1,0,0
167.13,-177.41,-106.21,-386,-8072,-2338,-1,-1,0
167.11,-177.40,-106.22,-384,-8074,-2346,-1,0,0
167.11,-177.40,-106.22,-395,-8078,-2352,-1,-1,0
167.11,-177.40,-106.23,-392,-8078,-2356,-1,-1,0
167.11,-177.39,-106.23,-385,-8076,-2356,0,-1,0
167.11,-177.39,-106.23,-394,-8077,-2348,-1,-1,-1
167.11,-177.39,-106.23,-385,-8080,-2348,-1,-1,0
167.10,-177.39,-106.23,-384,-8077,-2348,-1,0,-1
167.10,-177.39,-106.23,-380,-8080,-2345,-1,-1,0
167.10,-177.39,-106.23,-383,-8078,-2348,0,-1,0
167.10,-177.39,-106.23,-374,-8077,-2347,0,-1,0
167.10,-177.39,-106.23,-382,-8078,-2349,0,-1,0
167.10,-177.39,-106.23,-379,-8075,-2337,-1,-1,0
167.10,-177.39,-106.23,-382,-8079,-2334,0,0,-1
167.10,-177.39,-106.23,-388,-8088,-2349,-1,-1,-1
167.11,-177.39,-106.23,-382,-8087,-2349,0,-1,-1
167.11,-177.39,-106.23,-375,-8076,-2348,0,-1,0
167.12,-177.39,-106.22,-369,-8071,-2349,0,0,-1
167.12,-177.39,-106.22,-378,-8072,-2353,-1,0,-1
167.12,-177.40,-106.22,-376,-8086,-2344,-1,0,-1
167.12,-177.40,-106.22,-376,-8078,-2354,-1,-1,-1
167.12,-177.40,-106.23,-379,-8078,-2348,-1,0,0
167.13,-177.41,-106.23,-376,-8071,-2355,-1,-1,-1
167.13,-177.41,-106.23,-377,-8063,-2350,-1,0,-1
167.13,-177.41,-106.24,-373,-8070,-2358,-1,0,-1
167.13,-177.41,-106.24,-379,-8074,-2357,-1,0,-1
167.13,-177.42,-106.24,-371,-8091,-2361,0,0,-1
167.13,-177.42,-106.24,-385,-8082,-2362,-1,0,-1
167.13,-177.43,-106.25,-371,-8084,-2355,-1,0,-1
167.14,-177.44,-106.25,-378,-8059,-2340,-1,0,-1
167.14,-177.44,-106.25,-372,-8076,-2354,0,0,-1
167.14,-177.44,-106.25,-381,-8064,-2358,-1,-1,-1
167.14,-177.44,-106.26,-382,-8079,-2361,-1,0,-1
167.14,-177.44,-106.26,-382,-8073,-2360,0,-1,-1
167.15,-177.45,-106.26,-375,-8088,-2366,-1,0,-1
167.15,-177.45,-106.26,-366,-8082,-2369,0,-1,-1
167.15,-177.45,-106.26,-376,-8086,-2359,-1,0,-1
167.15,-177.45,-106.26,-373,-8078,-2353,-1,-1,-1
167.15,-177.45,-106.27,-378,-8066,-2348,-1,0,-1
167.15,-177.46,-106.28,-366,-8085,-2351,-1,0,-1
167.15,-177.47,-106.29,-372,-8065,-2372,0,-1,-1
167.16,-177.47,-106.28,-362,-8067,-2358,-1,0,0
167.15,-177.46,-106.27,-359,-8052,-2348,0,-1,0
167.16,-177.47,-106.27,-372,-8075,-2345,-1,0,0
167.16,-177.47,-106.27,-369,-8080,-2346,-1,0,0
167.16,-177.47,-106.27,-382,-8074,-2355,-1,0,-1
167.16,-177.47,-106.27,-367,-8088,-2350,-1,0,-1
167.16,-177.48,-106.28,-368,-8078,-2356,-1,0,-1
167.17,-177.48,-106.28,-363,-8083,-2354,-1,0,-1
167.17,-177.48,-106.28,-364,-8065,-2355,-1,-1,-1
167.16,-177.49,-106.29,-365,-8068,-2360,-1,0,-1
167.16,-177.49,-106.29,-364,-8067,-2367,-1,-1,-1
167.15,-177.50,-106.31,-374,-8075,-2370,-1,0,-1
167.15,-177.50,-106.31,-369,-8081,-2372,-1,-1,0
167.15,-177.49,-106.31,-382,-8066,-2351,0,0,-1
167.16,-177.49,-106.30,-365,-8076,-2342,-1,0,-1
167.15,-177.49,-106.31,-369,-8076,-2343,-1,-1,-1
167.16,-177.50,-106.31,-359,-8089,-2348,-1,0,-1
167.16,-177.50,-106.31,-357,-8084,-2354,-1,-1,0
167.15,-177.51,-106.32,-368,-8080,-2363,-1,0,-1
167.15,-177.51,-106.33,-360,-8081,-2361,-1,0,-1
167.15,-177.51,-106.33,-372,-8065,-2356,-1,0,-1
167.15,-177.51,-106.33,-364,-8085,-2369,0,0,-1
167.15,-177.52,-106.34,-366,-8061,-2363,-1,0,-1
167.15,-177.52,-106.34,-353,-8075,-2356,0,0,-1
167.15,-177.52,-106.34,-360,-8073,-2365,-1,0,-1
167.16,-177.53,-106.34,-358,-8096,-2363,-1,0,-1
167.16,-177.53,-106.35,-356,-8083,-2353,-1,-1,-1
167.16,-177.54,-106.36,-358,-8073,-2363,-1,0,-1
167.16,-177.54,-106.36,-345,-8069,-2355,-1,0,0
167.16,-177.54,-106.36,-360,-8064,-2361,-1,0,-1
167.16,-177.54,-106.35,-357,-8082,-2364,0,-1,-1
167.16,-177.54,-106.35,-369,-8077,-2366,-1,0,-1
167.17,-177.55,-106.36,-355,-8079,-2369,-1,0,0
167.16,-177.55,-106.36,-365,-8056,-2356,-1,0,0
167.16,-177.55,-106.37,-356,-8065,-2371,-1,0,-1
167.15,-177.55,-106.38,-365,-8060,-2384,-1,0,-1
167.14,-177.55,-106.39,-370,-8076,-2384,-1,0,-1
167.15,-177.55,-106.38,-364,-8079,-2375,-1,-1,-1
167.15,-177.56,-106.39,-359,-8081,-2373,-1,0,-1
167.15,-177.56,-106.39,-351,-8071,-2368,-1,-1,-1
167.16,-177.57,-106.39,-353,-8068,-2373,-1,0,-1
167.15,-177.57,-106.40,-351,-8068,-2384,-1,0,0
167.14,-177.57,-106.41,-356,-8069,-2390,-1,0,0
167.14,-177.56,-106.41,-364,-8074,-2388,-1,0,-1
167.14,-177.56,-106.41,-362,-8076,-2376,-1,0,-1
167.13,-177.57,-106.42,-364,-8079,-2368,-1,0,0
167.12,-177.56,-106.42,-367,-8064,-2370,-1,-1,-1
167.13,-177.57,-106.42,-353,-8077,-2368,-1,0,0
167.13,-177.56,-106.42,-355,-8075,-2374,0,0,-1
167.12,-177.56,-106.43,-357,-8072,-2384,-1,0,0
167.11,-177.56,-106.44,-356,-8066,-2376,-1,-1,0
167.11,-177.56,-106.44,-359,-8069,-2384,-1,0,0
167.11,-177.56,-106.44,-357,-8066,-2367,-1,0,-1
167.12,-177.57,-106.43,-348,-8089,-2371,-1,0,-1
167.12,-177.57,-106.43,-351,-8085,-2369,-1,-1,0
167.12,-177.56,-106.44,-351,-8078,-2378,-1,-1,0
167.11,-177.56,-106.45,-352,-8067,-2377,-1,-1,0
167.11,-177.56,-106.45,-350,-8068,-2363,-1,0,-1
167.11,-177.56,-106.45,-348,-8066,-2388,-1,-1,0
167.10,-177.56,-106.46,-344,-8064,-2380,-1,-1,0
167.10,-177.56,-106.46,-357,-8065,-2375,0,-1,0
167.10,-177.56,-106.46,-352,-8070,-2377,-1,-1,0
167.10,-177.55,-106.46,-362,-8070,-2383,-1,-1,-1
167.09,-177.55,-106.46,-357,-8076,-2382,-1,-1,0
167.09,-177.54,-106.46,-372,-8070,-2373,-1,-1,0
167.08,-177.54,-106.46,-363,-8068,-2370,-1,-1,0
167.07,-177.53,-106.47,-368,-8068,-2384,-1,0,-1
167.07,-177.54,-106.47,-352,-8073,-2383,-1,-1,0
167.07,-177.53,-106.48,-363,-8073,-2389,-1,-1,0
167.07,-177.53,-106.48,-352,-8073,-2379,-1,-1,0
167.07,-177.53,-106.48,-364,-8065,-2384,0,0,-1
167.06,-177.53,-106.49,-369,-8080,-2384,-1,0,0
167.05,-177.53,-106.50,-368,-8076,-2380,-1,-1,0
167.05,-177.53,-106.50,-365,-8076,-2385,-1,-1,0
167.04,-177.52,-106.51,-369,-8063,-2394,-1,0,0
167.04,-177.52,-106.51,-367,-8064,-2392,-1,0,-1
167.04,-177.52,-106.51,-365,-8072,-2385,-1,0,0
167.04,-177.52,-106.51,-361,-8077,-2390,-1,-1,0
167.03,-177.52,-106.51,-357,-8078,-2392,-1,-1,0
167.03,-177.52,-106.52,-351,-8073,-2391,-1,-1,0
167.02,-177.51,-106.53,-357,-8067,-2385,-1,0,0
167.02,-177.51,-106.53,-362,-8072,-2382,-1,-1,0
167.02,-177.51,-106.53,-363,-8071,-2385,-1,0,0
167.02,-177.51,-106.53,-364,-8073,-2393,-1,-1,-1
167.02,-177.51,-106.53,-370,-8076,-2391,-1,-1,0
167.01,-177.51,-106.54,-368,-8072,-2389,-1,-1,0
167.01,-177.50,-106.55,-365,-8069,-2395,-1,-1,0
167.01,-177.50,-106.55,-370,-8063,-2386,-1,-1,0
167.00,-177.50,-106.55,-367,-8068,-2392,-1,-1,0
166.99,-177.50,-106.55,-369,-8070,-2395,-1,-1,0
166.99,-177.49,-106.56,-364,-8070,-2405,-1,-1,0
166.99,-177.49,-106.56,-371,-8063,-2393,-1,-1,0
166.98,-177.49,-106.56,-370,-8066,-2395,-1,-1,0
166.98,-177.49,-106.56,-366,-8059,-2385,0,-1,0
166.98,-177.48,-106.56,-367,-8066,-2397,-1,0,0
166.97,-177.48,-106.57,-361,-8060,-2398,-1,-1,0
166.97,-177.48,-106.56,-364,-8065,-2406,0,0,0
166.97,-177.48,-106.56,-363,-8060,-2404,0,-1,0
166.97,-177.48,-106.56,-369,-8073,-2406,0,0,0
166.97,-177.48,-106.56,-363,-8067,-2393,-1,-1,0
166.97,-177.47,-106.56,-369,-8067,-2395,-1,-1,0
166.96,-177.47,-106.56,-369,-8066,-2374,0,-1,0
166.96,-177.47,-106.56,-380,-8064,-2396,-1,-1,0
166.96,-177.46,-106.56,-375,-8075,-2402,0,-1,0
166.96,-177.46,-106.56,-379,-8063,-2412,0,-1,0
166.97,-177.45,-106.55,-378,-8062,-2407,0,-1,0
166.98,-177.45,-106.54,-377,-8063,-2395,0,-1,-1
166.99,-177.46,-106.53,-372,-8066,-2400,0,-1,0
166.98,-177.45,-106.53,-379,-8065,-2398,0,-1,-1
166.99,-177.45,-106.52,-373,-8062,-2410,0,-1,0
166.99,-177.45,-106.52,-373,-8055,-2393,0,0,-1
167.00,-177.45,-106.51,-362,-8071,-2403,0,-1,-1
167.01,-177.46,-106.51,-368,-8068,-2410,0,-1,-1
167.01,-177.46,-106.50,-353,-8072,-2403,0,-1,0
167.02,-177.46,-106.50,-368,-8048,-2373,0,-1,-1
167.03,-177.47,-106.49,-367,-8071,-2381,0,0,-1
167.03,-177.47,-106.49,-373,-8070,-2389,-1,-1,-1
167.03,-177.47,-106.49,-376,-8079,-2392,-1,0,-1
167.03,-177.47,-106.49,-364,-8068,-2399,0,-1,-1
167.03,-177.48,-106.49,-375,-8057,-2398,-1,0,-1
167.04,-177.48,-106.49,-357,-8061,-2392,0,-1,-1
167.04,-177.49,-106.49,-372,-8052,-2397,0,0,-1
167.05,-177.49,-106.48,-363,-8068,-2392,-1,0,0
167.05,-177.49,-106.49,-376,-8054,-2390,0,0,-1
167.05,-177.50,-106.49,-360,-8074,-2394,0,0,-1
167.05,-177.50,-106.49,-371,-8050,-2392,0,-1,-1
167.05,-177.50,-106.49,-362,-8075,-2399,-1,0,0
167.05,-177.50,-106.49,-368,-8047,-2397,-1,-1,-1
167.06,-177.51,-106.49,-363,-8062,-2403,-1,0,-1
167.06,-177.51,-106.49,-365,-8054,-2397,-1,-1,-1
167.07,-177.52,-106.50,-365,-8059,-2408,-1,0,-1
167.06,-177.51,-106.50,-363,-8059,-2409,0,-1,-1
167.07,-177.52,-106.50,-371,-8052,-2415,-1,0,-1
167.07,-177.52,-106.50,-354,-8067,-2402,0,0,-1
167.07,-177.53,-106.49,-369,-8053,-2405,0,0,-1
167.07,-177.53,-106.50,-355,-8069,-2406,-1,0,-1
167.07,-177.54,-106.51,-363,-8054,-2405,0,0,-1
167.07,-177.54,-106.51,-354,-8068,-2419,0,0,-1
167.07,-177.54,-106.51,-356,-8050,-2401,0,-1,-1
167.08,-177.54,-106.50,-360,-8065,-2404,0,0,-1
167.08,-177.55,-106.50,-350,-8069,-2392,-1,-1,-1
167.09,-177.56,-106.51,-363,-8084,-2398,-1,0,-1
167.08,-177.56,-106.53,-361,-8071,-2417,-1,-1,0
167.07,-177.56,-106.54,-366,-8068,-2416,-1,0,-1
167.06,-177.56,-106.54,-356,-8067,-2421,-1,0,-1
167.07,-177.57,-106.55,-359,-8059,-2415,-1,0,-1
167.06,-177.57,-106.56,-355,-8069,-2418,-1,-1,-1
167.07,-177.58,-106.56,-364,-8061,-2412,-1,0,-1
167.07,-177.58,-106.57,-360,-8066,-2409,-1,0,-1
167.07,-177.59,-106.57,-360,-8062,-2402,-1,0,-1
167.07,-177.59,-106.59,-353,-8062,-2414,-1,0,-1
167.06,-177.59,-106.60,-356,-8047,-2400,-1,0,-1
167.06,-177.59,-106.61,-353,-8048,-2421,-1,0,-1
167.06,-177.60,-106.62,-353,-8052,-2417,-1,0,-1
167.06,-177.61,-106.63,-350,-8062,-2426,-1,0,-1
167.05,-177.62,-106.64,-350,-8059,-2423,-1,0,-1
167.05,-177.62,-106.65,-358,-8057,-2430,-1,0,-1
167.05,-177.62,-106.65,-349,-8058,-2415,-1,0,-1
167.05,-177.63,-106.66,-356,-8053,-2426,-1,0,-1
167.05,-177.63,-106.67,-346,-8056,-2437,-1,0,-1
167.04,-177.63,-106.68,-348,-8052,-2431,-1,0,-1
167.04,-177.64,-106.70,-353,-8064,-2436,-1,0,-1
167.02,-177.65,-106.73,-363,-8052,-2395,-4,0,-1
166.99,-177.66,-106.80,-341,-8055,-2455,-1,0,-1
166.99,-177.66,-106.81,-341,-8050,-2444,-2,0,-1
166.98,-177.67,-106.83,-337,-8060,-2442,-1,0,-1
166.97,-177.67,-106.85,-351,-8050,-2442,-1,0,-1
166.95,-177.68,-106.89,-349,-8056,-2430,-3,0,-1
166.92,-177.69,-106.96,-342,-8043,-2466,-2,0,-1
166.88,-177.70,-107.05,-368,-8040,-2381,-7,0,-2
166.45,-177.89,-107.99,-351,-7718,-2124,-83,19,-23
166.18,-178.06,-108.73,-255,-7972,-2956,0,2,-3
166.18,-178.09,-108.77,-267,-7954,-2747,-7,-1,-1
166.15,-178.11,-108.85,-274,-7985,-2770,-2,0,-1
166.13,-178.12,-108.90,-275,-7980,-2771,-2,-1,-1
166.10,-178.12,-108.96,-287,-7961,-2762,-2,-1,-1
166.09,-178.12,-108.99,-279,-7945,-2751,-2,-1,-1
166.07,-178.13,-109.03,-280,-7941,-2761,-2,0,-1
166.06,-178.14,-109.07,-276,-7939,-2768,-2,-1,-1
166.04,-178.14,-109.10,-273,-7948,-2771,-1,-1,-1
166.03,-178.14,-109.13,-274,-7950,-2773,-1,-1,-1
166.02,-178.14,-109.15,-273,-7947,-2761,-1,-1,-1
166.01,-178.15,-109.18,-278,-7937,-2778,-2,0,-1
166.00,-178.15,-109.20,-274,-7941,-2784,-1,0,-1
165.98,-178.15,-109.24,-281,-7950,-2797,-1,0,-1
165.97,-178.15,-109.26,-284,-7942,-2796,-1,-1,-1
165.96,-178.15,-109.28,-286,-7944,-2798,-1,0,-1
165.95,-178.15,-109.30,-286,-7939,-2787,-1,-1,-1
165.94,-178.15,-109.31,-285,-7945,-2800,-1,0,-1
165.93,-178.15,-109.32,-279,-7948,-2794,-1,-1,-1
165.92,-178.15,-109.34,-278,-7952,-2796,-1,0,-1
165.92,-178.16,-109.36,-266,-7949,-2810,-1,-1,-1
165.91,-178.16,-109.37,-272,-7940,-2802,-1,0,-1
165.90,-178.16,-109.39,-268,-7941,-2811,-1,-1,-1
165.89,-178.16,-109.41,-277,-7935,-2810,-1,0,-1
165.89,-178.16,-109.42,-263,-7930,-2808,-1,-1,-1
165.88,-178.16,-109.44,-270,-7930,-2815,-1,0,-1
165.88,-178.17,-109.45,-269,-7936,-2821,-1,-1,0
165.87,-178.17,-109.46,-279,-7935,-2818,-1,-1,-1
165.86,-178.16,-109.47,-270,-7933,-2833,-1,-1,0
165.85,-178.16,-109.49,-284,-7927,-2816,-1,-1,-1
165.84,-178.16,-109.51,-273,-7926,-2821,-1,0,0
165.84,-178.16,-109.52,-284,-7921,-2830,-1,-1,-1
165.83,-178.16,-109.53,-279,-7933,-2837,-1,-1,0
165.82,-178.16,-109.54,-286,-7928,-2839,-1,-1,-1
165.82,-178.16,-109.54,-271,-7930,-2833,-1,-1,0
165.81,-178.16,-109.55,-274,-7926,-2836,-1,-1,-1
165.80,-178.15,-109.56,-270,-7929,-2838,-1,-1,0
165.80,-178.15,-109.57,-273,-7924,-2834,-1,-1,0
165.79,-178.14,-109.58,-281,-7927,-2847,-1,0,0
165.78,-178.14,-109.59,-288,-7930,-2844,-1,-1,0
165.77,-178.14,-109.60,-293,-7936,-2854,-1,0,0
165.77,-178.14,-109.60,-284,-7931,-2846,-1,-1,0
165.76,-178.13,-109.62,-288,-7932,-2859,-1,-1,0
165.75,-178.13,-109.62,-274,-7933,-2844,0,-1,0
165.75,-178.12,-109.63,-288,-7927,-2850,-1,0,-1
165.75,-178.12,-109.63,-262,-7935,-2840,-1,-1,0
165.73,-178.11,-109.63,-287,-7923,-2850,0,-1,0
165.73,-178.12,-109.64,-279,-7922,-2853,-1,-1,0
165.72,-178.11,-109.66,-284,-7916,-2857,0,-1,-1
165.72,-178.12,-109.66,-284,-7919,-2858,-1,0,0
165.72,-178.12,-109.67,-276,-7912,-2864,0,-1,-1
165.72,-178.11,-109.67,-277,-7924,-2872,-1,-1,0
165.72,-178.11,-109.67,-276,-7913,-2859,0,-1,-1
165.71,-178.11,-109.67,-288,-7921,-2857,-1,0,-1
165.72,-178.11,-109.67,-278,-7926,-2853,-1,-1,0
165.71,-178.11,-109.69,-291,-7914,-2856,-1,-1,-1
165.70,-178.11,-109.69,-280,-7915,-2862,-1,-1,0
165.70,-178.11,-109.70,-281,-7918,-2876,0,-1,-1
165.70,-178.11,-109.70,-280,-7922,-2872,-1,-1,0
165.70,-178.11,-109.70,-285,-7913,-2872,0,-1,-1
165.71,-178.11,-109.70,-280,-7915,-2868,0,-1,0
165.71,-178.11,-109.70,-283,-7915,-2860,0,-1,-1
165.72,-178.11,-109.69,-276,-7928,-2860,0,-1,-1
165.72,-178.11,-109.69,-284,-7922,-2857,0,-1,-1
165.72,-178.11,-109.69,-275,-7931,-2850,0,-1,0
165.72,-178.11,-109.69,-281,-7920,-2866,0,-1,-1
165.72,-178.11,-109.69,-277,-7914,-2844,-1,0,0
165.72,-178.11,-109.70,-275,-7915,-2857,-1,-1,-1
165.72,-178.11,-109.70,-288,-7912,-2852,-1,0,-1
165.72,-178.12,-109.70,-272,-7926,-2857,-1,0,-1
165.72,-178.12,-109.71,-296,-7917,-2860,0,0,-1
165.73,-178.14,-109.72,-283,-7931,-2878,-1,0,-1
165.72,-178.13,-109.72,-286,-7907,-2869,-1,-1,-1
165.72,-178.14,-109.73,-285,-7918,-2872,0,0,-1
165.72,-178.14,-109.73,-272,-7911,-2874,0,-1,-1
165.73,-178.14,-109.72,-288,-7920,-2869,0,0,-1
165.73,-178.14,-109.72,-280,-7921,-2869,0,0,-1
165.73,-178.15,-109.73,-287,-7914,-2876,-1,0,-1
165.74,-178.16,-109.73,-275,-7924,-2863,-1,0,0
165.73,-178.16,-109.74,-290,-7901,-2870,0,0,-1
165.73,-178.16,-109.74,-273,-7911,-2878,-1,0,0
165.73,-178.16,-109.75,-278,-7896,-2869,0,-1,-1
165.73,-178.16,-109.75,-274,-7924,-2874,-1,0,-1
165.73,-178.16,-109.75,-273,-7906,-2873,0,-1,-1
165.73,-178.18,-109.76,-273,-7922,-2877,-1,0,-1
165.73,-178.18,-109.76,-271,-7914,-2868,-1,-1,-1
165.73,-178.17,-109.77,-279,-7917,-2867,-1,0,-1
165.72,-178.18,-109.77,-271,-7913,-2866,-1,-1,-1
165.73,-178.18,-109.78,-276,-7911,-2871,0,0,-1
165.72,-178.19,-109.79,-274,-7924,-2876,-1,-1,0
165.72,-178.19,-109.79,-281,-7909,-2859,-1,0,-1
165.72,-178.19,-109.80,-272,-7927,-2877,-1,0,-1
165.71,-178.19,-109.80,-279,-7907,-2866,-1,0,-1
165.71,-178.20,-109.81,-265,-7914,-2863,-1,0,-1
165.71,-178.20,-109.82,-269,-7892,-2866,-1,0,-1
165.72,-178.21,-109.82,-251,-7908,-2868,-1,0,-1
165.71,-178.21,-109.83,-266,-7908,-2874,-1,0,-1
165.71,-178.22,-109.84,-265,-7919,-2885,-1,0,-1
165.71,-178.22,-109.84,-272,-7906,-2871,-1,0,-1
165.71,-178.22,-109.85,-270,-7919,-2881,-1,0,-1
165.71,-178.23,-109.85,-282,-7909,-2878,-1,0,-1
165.70,-178.23,-109.86,-272,-7921,-2905,-1,0,-1
165.70,-178.23,-109.87,-277,-7909,-2890,-1,0,-1
165.70,-178.23,-109.87,-264,-7917,-2884,0,0,-1
165.71,-178.24,-109.87,-264,-7910,-2868,-1,0,-1
165.71,-178.24,-109.87,-264,-7919,-2877,-1,0,-1
165.71,-178.25,-109.88,-266,-7906,-2882,-1,0,-1
165.70,-178.25,-109.90,-258,-7917,-2897,-1,0,0
165.69,-178.25,-109.91,-266,-7907,-2896,-1,0,-1
165.69,-178.25,-109.91,-266,-7914,-2904,0,0,-1
165.69,-178.26,-109.92,-262,-7898,-2900,-1,0,-1
165.69,-178.26,-109.92,-260,-7910,-2901,0,0,-1
165.69,-178.26,-109.92,-258,-7908,-2902,-1,-1,-1
165.69,-178.27,-109.92,-259,-7911,-2893,0,0,-1
165.69,-178.27,-109.93,-261,-7906,-2895,-1,-1,-1
165.69,-178.27,-109.93,-258,-7907,-2889,0,0,-1
165.69,-178.27,-109.93,-255,-7900,-2888,-1,-1,-1
165.69,-178.28,-109.93,-256,-7902,-2890,-1,0,-1
165.69,-178.28,-109.94,-257,-7909,-2899,-1,0,-1
165.69,-178.28,-109.95,-258,-7911,-2907,-1,0,-1
165.69,-178.28,-109.96,-254,-7910,-2904,-1,0,-1
165.69,-178.29,-109.95,-262,-7900,-2895,0,0,-1
165.69,-178.29,-109.96,-260,-7908,-2900,-1,0,0
165.69,-178.29,-109.96,-264,-7903,-2894,-1,0,-1
165.68,-178.29,-109.97,-255,-7907,-2910,-1,0,0
165.68,-178.29,-109.98,-255,-7902,-2916,-1,0,-1
165.67,-178.29,-109.99,-245,-7909,-2927,-1,0,-1
165.69,-178.30,-109.98,-251,-7903,-2912,-1,0,-1
165.68,-178.30,-109.99,-255,-7902,-2927,-1,0,-1
165.68,-178.31,-109.99,-259,-7899,-2906,0,0,-1
165.67,-178.30,-110.00,-258,-7904,-2918,-1,0,0
165.67,-178.30,-110.00,-247,-7898,-2911,0,-1,0
165.67,-178.30,-110.00,-251,-7902,-2908,-1,0,-1
165.68,-178.30,-110.00,-253,-7905,-2904,0,0,-1
165.67,-178.30,-110.01,-256,-7904,-2907,-1,-1,0
165.66,-178.30,-110.01,-253,-7905,-2902,-1,0,-1
165.66,-178.30,-110.02,-254,-7908,-2914,-1,-1,0
165.66,-178.30,-110.02,-254,-7905,-2909,0,0,-1
165.66,-178.30,-110.02,-247,-7902,-2909,-1,-1,0
165.66,-178.30,-110.03,-259,-7900,-2908,0,-1,-1
165.66,-178.30,-110.03,-246,-7899,-2905,0,-1,0
165.66,-178.30,-110.03,-251,-7901,-2921,0,0,-1
165.66,-178.30,-110.03,-245,-7902,-2895,-1,0,0
165.65,-178.30,-110.03,-252,-7903,-2907,0,0,-1
165.65,-178.30,-110.04,-258,-7906,-2915,-1,0,0
165.65,-178.30,-110.04,-263,-7903,-2907,0,-1,-1
165.65,-178.30,-110.04,-259,-7898,-2901,-1,0,-1
165.65,-178.30,-110.04,-258,-7889,-2907,0,0,-1
165.65,-178.30,-110.04,-240,-7898,-2918,0,-1,0
165.65,-178.30,-110.04,-245,-7896,-2917,0,0,0
165.65,-178.30,-110.04,-244,-7897,-2910,0,-1,0
165.65,-178.30,-110.04,-258,-7899,-2910,0,-1,-1
165.64,-178.30,-110.05,-253,-7899,-2909,-1,-1,0
165.64,-178.30,-110.05,-257,-7903,-2914,-1,0,0
165.63,-178.29,-110.06,-249,-7901,-2905,-1,-1,0
165.63,-178.29,-110.06,-257,-7905,-2912,0,-1,0
165.62,-178.28,-110.06,-261,-7895,-2919,0,-1,0
165.62,-178.29,-110.07,-266,-7893,-2924,0,-1,-1
165.63,-178.29,-110.07,-260,-7895,-2923,0,-1,-1
165.62,-178.29,-110.07,-263,-7901,-2929,0,0,-1
165.63,-178.29,-110.06,-251,-7911,-2919,0,-1,0
165.62,-178.29,-110.07,-257,-7913,-2916,-1,0,0
165.62,-178.29,-110.07,-260,-7905,-2914,-1,0,0
165.62,-178.28,-110.07,-255,-7900,-2920,-1,-1,-1
165.62,-178.28,-110.07,-256,-7891,-2913,-1,-1,0
165.62,-178.28,-110.08,-247,-7899,-2924,0,-1,0
165.60,-178.27,-110.08,-204,-7928,-3028,1,-1,1
165.61,-178.18,-109.95,-162,-7844,-3081,9,-3,5
165.65,-178.06,-109.69,-331,-7782,-2744,4,-1,1
165.69,-178.09,-109.66,-379,-7910,-2799,-1,2,-3
165.75,-178.18,-109.66,-351,-8012,-2847,-1,1,-3
165.79,-178.24,-109.68,-296,-8028,-2903,0,0,-2
165.82,-178.26,-109.67,-246,-7955,-2893,0,-1,-1
165.85,-178.25,-109.63,-244,-7846,-2833,1,-1,0
165.88,-178.27,-109.59,-258,-7820,-2774,0,0,-1
165.92,-178.31,-109.60,-272,-7887,-2809,-1,1,-2
165.95,-178.37,-109.63,-289,-7932,-2894,-1,0,-3
166.02,-178.44,-109.61,-285,-7945,-2907,1,0,-3
166.11,-178.52,-109.57,-334,-8000,-3110,6,0,-4
166.38,-178.65,-109.34,-377,-7910,-2692,2,2,-8
166.58,-178.95,-109.43,-419,-8171,-2882,-5,5,-13
166.86,-179.32,-109.51,-270,-8254,-3035,-1,3,-12
167.13,-179.56,-109.46,-87,-8134,-3094,6,0,-7
167.40,-179.68,-109.23,47,-7775,-2813,7,-2,-3
167.58,-179.76,-109.07,129,-7540,-2584,3,-1,-2
167.65,-179.79,-109.01,141,-7580,-2533,0,0,0
167.63,-179.78,-109.03,79,-7794,-2706,-1,-1,1
167.59,-179.73,-109.03,3,-7992,-2825,0,-2,1
167.56,-179.66,-109.00,-66,-8084,-2839,0,-2,1
167.53,-179.59,-108.97,-66,-8083,-2853,2,-3,1
167.51,-179.52,-108.93,-68,-8019,-2869,1,-3,1
167.52,-179.45,-108.82,-48,-7960,-2857,7,-3,2
167.52,-179.35,-108.70,-97,-7842,-2724,1,-3,2
167.55,-179.31,-108.60,-171,-7891,-2548,0,-1,-1
167.57,-179.36,-108.65,-184,-8023,-2706,0,0,-3
167.64,-179.43,-108.65,-148,-7977,-2527,-3,0,-3
167.65,-179.52,-108.79,-140,-7945,-2602,-6,1,-4
167.67,-179.64,-108.93,-76,-7918,-2625,-5,1,-4
167.66,-179.74,-109.11,-53,-7851,-2681,-8,1,-4
167.65,-179.83,-109.25,-11,-7859,-2722,-5,0,-3
167.60,-179.88,-109.42,5,-7929,-2873,-5,0,-2
167.59,-179.91,-109.48,5,-7983,-2922,-2,-1,-1
167.57,-179.91,-109.53,12,-8049,-3001,0,-1,0
167.57,-179.87,-109.50,11,-8028,-2948,0,-2,1
167.55,-179.82,-109.47,-3,-7975,-2910,2,-2,1
167.54,-179.77,-109.43,-28,-7935,-2841,0,-2,1
167.53,-179.73,-109.40,-39,-7908,-2805,1,-1,1
167.51,-179.70,-109.40,-56,-7883,-2760,-1,-1,0
167.49,-179.70,-109.42,-54,-7903,-2781,-1,0,0
167.47,-179.69,-109.46,-45,-7929,-2824,-2,-1,0
167.44,-179.68,-109.48,-44,-7935,-2836,-1,-1,0
167.42,-179.66,-109.49,-62,-7941,-2829,-1,-1,0
167.40,-179.65,-109.52,-58,-7948,-2854,-1,-1,0
167.38,-179.64,-109.55,-63,-7950,-2880,-1,-1,0
167.38,-179.64,-109.56,-63,-7915,-2850,-1,-1,0
167.37,-179.64,-109.57,-65,-7916,-2860,-1,-1,-1
167.36,-179.65,-109.59,-65,-7918,-2862,-1,0,-1
167.36,-179.66,-109.61,-55,-7935,-2870,-1,-1,-1
167.35,-179.65,-109.62,-60,-7918,-2862,-1,-1,-1
167.35,-179.66,-109.63,-57,-7930,-2859,-1,0,-1
167.34,-179.65,-109.64,-61,-7914,-2862,-1,-1,0
167.34,-179.65,-109.64,-44,-7925,-2861,0,-1,0
167.33,-179.64,-109.65,-59,-7910,-2861,-1,-1,0
167.34,-179.65,-109.64,-55,-7928,-2859,-1,0,-1
167.33,-179.65,-109.65,-72,-7924,-2877,-1,-1,-1
167.34,-179.65,-109.65,-59,-7920,-2854,-1,0,-1
167.33,-179.65,-109.67,-65,-7909,-2877,0,-1,-1
167.34,-179.66,-109.67,-54,-7912,-2856,-1,0,-1
167.33,-179.66,-109.68,-60,-7918,-2883,-1,-1,-1
167.33,-179.66,-109.68,-55,-7916,-2869,-1,0,0
167.32,-179.66,-109.69,-41,-7924,-2886,0,-1,0
167.31,-179.65,-109.69,-57,-7913,-2876,-1,0,0
167.32,-179.65,-109.68,-42,-7931,-2869,0,-1,0
167.31,-179.65,-109.69,-66,-7915,-2867,-1,0,0
167.31,-179.65,-109.70,-49,-7930,-2854,0,0,0
167.31,-179.65,-109.70,-73,-7910,-2881,0,-1,-1
167.32,-179.65,-109.69,-43,-7932,-2864,0,0,0
167.31,-179.64,-109.70,-61,-7909,-2888,0,-1,0
167.32,-179.64,-109.69,-44,-7923,-2860,-1,0,0
167.30,-179.63,-109.70,-64,-7912,-2887,0,-1,0
167.30,-179.63,-109.69,-58,-7923,-2867,-1,0,0
167.29,-179.62,-109.71,-60,-7907,-2873,-1,-1,0
167.29,-179.62,-109.71,-62,-7907,-2864,-1,0,0
167.27,-179.62,-109.73,-72,-7904,-2877,-1,-1,-1
167.27,-179.63,-109.74,-59,-7911,-2872,-1,0,0
167.26,-179.62,-109.76,-65,-7908,-2888,-1,-1,0
167.25,-179.62,-109.76,-61,-7912,-2882,-1,0,0
167.25,-179.62,-109.77,-63,-7918,-2878,-1,0,-1
167.24,-179.62,-109.77,-62,-7919,-2865,-1,0,-1
167.23,-179.62,-109.79,-65,-7917,-2875,-1,0,-1
167.22,-179.62,-109.80,-56,-7914,-2890,-1,0,-1
167.22,-179.63,-109.81,-46,-7911,-2892,0,0,0
167.22,-179.63,-109.81,-53,-7905,-2886,-1,0,0
167.21,-179.63,-109.82,-50,-7917,-2890,0,-1,0
167.21,-179.63,-109.83,-61,-7907,-2889,-1,0,0
167.20,-179.63,-109.84,-54,-7915,-2896,-1,0,0
167.19,-179.63,-109.85,-62,-7905,-2909,-1,0,-1
167.19,-179.64,-109.86,-49,-7917,-2900,-1,0,-1
167.19,-179.64,-109.88,-61,-7906,-2911,-1,0,-1
167.19,-179.64,-109.88,-53,-7914,-2904,0,0,-1
167.19,-179.65,-109.89,-57,-7896,-2899,-1,0,0
167.18,-179.65,-109.89,-58,-7909,-2894,-1,0,0
167.18,-179.65,-109.89,-57,-7911,-2901,0,0,0
167.18,-179.65,-109.89,-62,-7904,-2911,0,0,0
167.19,-179.65,-109.87,-71,-7918,-2890,0,0,-1
167.20,-179.66,-109.87,-70,-7946,-2900,0,0,-1
167.22,-179.68,-109.85,-46,-7921,-2861,-1,-1,-1
167.23,-179.69,-109.86,-44,-7901,-2846,-1,0,-1
167.23,-179.70,-109.89,-30,-7904,-2871,-1,0,-1
167.21,-179.71,-109.91,-46,-7907,-2895,-1,0,-1
167.21,-179.71,-109.92,-40,-7911,-2906,0,0,0
