Yaw,Pitch,Roll,AX,AY,AZ,GX,GY,GZ
-28.45,-3.97,35.79,-602,4947,6907,0,-2,0
-28.46,-3.93,35.81,-578,4796,6750,1,-2,1
-28.47,-3.89,35.86,-529,4612,6515,1,-1,0
-28.47,-3.88,35.90,-494,4547,6353,0,0,0
-28.46,-3.91,35.90,-505,4619,6344,-1,1,-1
-28.46,-3.94,35.88,-550,4746,6451,-2,0,-1
-28.46,-3.95,35.84,-575,4846,6615,-2,-1,-1
-28.48,-3.94,35.80,-585,4865,6737,-1,-1,0
-28.49,-3.91,35.79,-575,4796,6727,0,-1,0
-28.49,-3.89,35.81,-559,4692,6619,1,-1,0
-28.50,-3.87,35.85,-528,4618,6483,1,-1,0
-28.49,-3.87,35.88,-510,4648,6422,0,0,-1
-28.48,-3.89,35.89,-522,4739,6445,-1,0,-1
-28.47,-3.91,35.87,-557,4800,6544,-2,0,-1
-28.49,-3.91,35.82,-571,4810,6639,-2,-1,0
-28.51,-3.89,35.79,-575,4769,6673,-1,-1,0
-28.51,-3.88,35.80,-568,4717,6637,0,-1,0
-28.52,-3.86,35.82,-552,4656,6550,1,-1,0
-28.51,-3.85,35.84,-529,4660,6486,0,0,0
-28.50,-3.86,35.86,-521,4711,6480,-1,0,-1
-28.50,-3.87,35.85,-546,4764,6516,-1,0,-1
-28.51,-3.88,35.82,-563,4781,6580,-2,-1,0
-28.52,-3.88,35.79,-562,4753,6627,-1,-1,0
-28.53,-3.86,35.79,-550,4715,6614,0,-1,0
-28.53,-3.84,35.81,-536,4691,6572,0,-1,0
-28.53,-3.83,35.83,-524,4697,6517,0,-1,0
-28.52,-3.84,35.84,-518,4728,6503,-1,0,-1
-28.53,-3.84,35.83,-527,4759,6530,-1,0,-1
-28.53,-3.85,35.81,-539,4767,6566,-1,0,0
-28.54,-3.85,35.78,-552,4736,6602,-1,-1,0
-28.55,-3.84,35.77,-548,4708,6603,0,-1,0
-28.55,-3.82,35.79,-539,4710,6573,0,-1,0
-28.55,-3.82,35.81,-531,4713,6544,0,-1,0
-28.55,-3.81,35.80,-525,4721,6527,-1,0,0
-28.55,-3.82,35.80,-536,4728,6536,-1,0,-1
-28.55,-3.82,35.79,-546,4735,6565,-1,0,-1
-28.55,-3.83,35.77,-552,4723,6586,-1,-1,-1
-28.55,-3.83,35.78,-552,4717,6585,0,-1,0
-28.56,-3.82,35.79,-539,4720,6566,0,-1,0
-28.56,-3.81,35.80,-530,4725,6543,0,-1,0
-28.56,-3.81,35.80,-526,4733,6531,-1,0,-1
-28.55,-3.82,35.80,-533,4737,6533,-1,0,-1
-28.56,-3.82,35.79,-542,4732,6560,-1,0,-1
-28.56,-3.82,35.78,-544,4728,6589,-1,-1,0
-28.56,-3.82,35.78,-550,4724,6591,0,-1,0
-28.56,-3.81,35.78,-545,4717,6585,0,-1,0
-28.56,-3.81,35.79,-540,4713,6558,0,-1,0
-28.56,-3.81,35.79,-536,4717,6538,0,0,-1
-28.55,-3.82,35.79,-539,4732,6539,-1,0,-1
-28.55,-3.82,35.79,-542,4730,6558,-1,0,-1
-28.55,-3.83,35.78,-554,4730,6570,-1,0,0
-28.55,-3.83,35.78,-551,4740,6575,0,-1,0
-28.55,-3.82,35.78,-539,4735,6575,0,-1,0
-28.56,-3.81,35.78,-523,4726,6557,0,-1,0
-28.56,-3.81,35.78,-518,4717,6553,-1,0,-1
-28.56,-3.81,35.78,-518,4723,6551,-1,0,-1
-28.56,-3.81,35.77,-529,4721,6562,-1,0,-1
-28.57,-3.81,35.77,-529,4724,6572,-1,0,-1
-28.57,-3.81,35.77,-537,4727,6582,0,-1,0
-28.56,-3.81,35.77,-541,4729,6566,0,-1,0
-28.56,-3.81,35.78,-537,4726,6551,0,-1,0
-28.56,-3.81,35.79,-537,4727,6545,0,0,0
-28.56,-3.81,35.79,-540,4735,6548,-1,0,0
-28.56,-3.81,35.79,-540,4734,6551,-1,0,-1
-28.56,-3.81,35.78,-542,4725,6565,-1,-1,0
-28.56,-3.81,35.78,-541,4725,6565,0,-1,0
-28.56,-3.81,35.78,-539,4732,6575,0,-1,0
-28.56,-3.81,35.78,-542,4739,6571,0,0,0
-28.57,-3.80,35.78,-538,4735,6562,-1,-1,-1
-28.57,-3.80,35.77,-531,4723,6561,-1,0,0
-28.57,-3.80,35.77,-533,4721,6567,0,-1,-1
-28.56,-3.80,35.77,-538,4721,6574,0,0,-1
-28.56,-3.81,35.77,-537,4725,6570,0,0,-1
-28.56,-3.80,35.77,-536,4726,6564,0,-1,0
-28.56,-3.80,35.78,-541,4732,6557,0,-1,0
-28.56,-3.80,35.78,-540,4730,6551,0,0,0
-28.56,-3.80,35.78,-532,4723,6553,0,-1,0
-28.56,-3.80,35.78,-527,4719,6556,0,0,-1
-28.56,-3.80,35.78,-536,4724,6561,-1,0,0
-28.56,-3.80,35.78,-534,4725,6568,-1,0,0
-28.56,-3.80,35.77,-542,4727,6574,-1,-1,0
-28.57,-3.80,35.77,-537,4723,6573,-1,-1,0
-28.57,-3.80,35.77,-529,4726,6572,0,0,0
-28.57,-3.80,35.77,-529,4723,6576,-1,0,-1
-28.57,-3.80,35.77,-534,4726,6575,-1,0,-1
-28.58,-3.80,35.76,-532,4724,6585,0,0,0
-28.58,-3.80,35.76,-538,4721,6585,0,-1,0
-28.58,-3.80,35.76,-534,4718,6574,0,0,-1
-28.58,-3.80,35.76,-535,4719,6578,0,0,0
-28.58,-3.80,35.76,-530,4717,6566,0,0,-1
-28.58,-3.80,35.76,-532,4722,6559,0,0,-1
-28.57,-3.81,35.76,-532,4733,6572,0,0,-1
-28.57,-3.81,35.76,-527,4730,6573,-1,0,-1
-28.57,-3.82,35.75,-540,4721,6571,-1,0,-1
-28.57,-3.82,35.75,-536,4718,6570,0,-1,0
-28.57,-3.81,35.76,-530,4728,6573,0,-1,0
-28.57,-3.81,35.76,-528,4727,6570,-1,0,0
-28.58,-3.81,35.74,-525,4713,6578,-1,0,-1
-28.58,-3.81,35.74,-534,4705,6578,-1,0,-1
-28.57,-3.82,35.74,-536,4708,6575,0,0,-1
-28.57,-3.83,35.75,-547,4720,6563,0,0,-1
-28.56,-3.83,35.75,-549,4732,6567,0,-1,0
-28.56,-3.83,35.75,-551,4729,6565,-1,-1,0
-28.57,-3.82,35.75,-536,4726,6566,0,-1,0
-28.57,-3.82,35.75,-530,4719,6557,-1,0,-1
-28.57,-3.83,35.75,-536,4715,6569,-1,0,-1
-28.57,-3.83,35.75,-537,4725,6569,-1,0,-1
-28.56,-3.83,35.75,-540,4732,6572,-1,0,-1
-28.57,-3.83,35.74,-542,4728,6570,-1,0,0
-28.57,-3.83,35.74,-539,4730,6568,-1,-1,0
-28.57,-3.83,35.74,-537,4728,6564,-1,-1,0
-28.57,-3.83,35.74,-536,4722,6566,0,0,0
-28.57,-3.83,35.74,-541,4725,6563,0,0,-1
-28.57,-3.83,35.74,-540,4734,6567,-1,0,-1
-28.57,-3.85,35.73,-548,4717,6572,-1,0,-1
-28.57,-3.85,35.73,-553,4713,6576,0,-1,0
-28.57,-3.85,35.73,-551,4725,6570,0,-1,0
-28.57,-3.84,35.74,-546,4728,6568,0,-1,0
-28.57,-3.84,35.74,-542,4727,6571,0,-1,0
-28.57,-3.83,35.74,-536,4721,6566,0,-1,0
-28.57,-3.83,35.74,-536,4713,6566,0,-1,0
-28.57,-3.83,35.74,-537,4712,6564,0,-1,0
-28.57,-3.83,35.74,-538,4718,6573,0,-1,0
-28.57,-3.82,35.74,-531,4717,6575,0,-1,-1
-28.57,-3.82,35.74,-535,4725,6573,0,-1,0
-28.57,-3.82,35.74,-535,4720,6577,-1,-1,0
-28.57,-3.82,35.74,-538,4717,6574,-1,0,0
-28.57,-3.82,35.74,-533,4718,6570,0,-1,-1
-28.56,-3.82,35.75,-534,4721,6563,0,0,-1
-28.56,-3.82,35.75,-542,4729,6571,0,0,-1
-28.56,-3.82,35.75,-540,4727,6564,-1,-1,0
-28.57,-3.82,35.74,-542,4722,6560,-1,-1,0
-28.57,-3.82,35.74,-534,4727,6566,-1,-1,0
-28.58,-3.81,35.74,-533,4715,6563,0,-1,0
-28.58,-3.81,35.74,-531,4714,6559,0,0,-1
-28.57,-3.82,35.74,-535,4714,6559,0,0,-1
-28.57,-3.82,35.74,-535,4715,6570,0,0,-1
-28.56,-3.82,35.74,-540,4717,6572,0,-1,0
-28.56,-3.82,35.74,-538,4719,6568,0,-1,0
-28.57,-3.81,35.74,-538,4724,6562,-1,-1,0
-28.57,-3.81,35.74,-531,4723,6563,0,-1,0
-28.57,-3.81,35.74,-532,4721,6566,0,0,-1
-28.56,-3.82,35.74,-532,4720,6574,0,0,-1
-28.56,-3.82,35.74,-541,4720,6571,-1,0,-1
-28.56,-3.82,35.75,-539,4727,6571,-1,0,-1
-28.56,-3.82,35.75,-544,4728,6566,-1,0,0
-28.56,-3.82,35.74,-532,4725,6564,-1,0,0
-28.57,-3.82,35.74,-534,4720,6559,-1,-1,0
-28.57,-3.82,35.74,-530,4722,6572,-1,-1,0
-28.57,-3.81,35.73,-527,4712,6571,0,0,-1
-28.56,-3.81,35.74,-527,4722,6564,0,0,-1
-28.56,-3.82,35.74,-537,4728,6563,0,0,0
-28.56,-3.82,35.74,-539,4719,6568,-1,-1,-1
-28.56,-3.82,35.74,-544,4718,6567,0,0,0
-28.56,-3.82,35.74,-537,4722,6562,0,-1,-1
-28.56,-3.82,35.74,-533,4730,6562,0,0,-1
-28.56,-3.81,35.75,-536,4734,6562,-1,0,-1
-28.56,-3.82,35.74,-533,4724,6566,-1,0,0
-28.57,-3.81,35.74,-532,4722,6566,0,0,-1
-28.56,-3.81,35.75,-530,4727,6572,-1,0,-1
-28.56,-3.81,35.74,-528,4716,6568,0,0,-1
-28.56,-3.81,35.74,-531,4718,6567,0,0,-1
-28.56,-3.82,35.74,-537,4723,6565,-1,0,-1
-28.56,-3.82,35.74,-537,4723,6567,-1,0,0
-28.55,-3.82,35.74,-537,4715,6571,0,-1,-1
-28.55,-3.82,35.74,-538,4717,6572,0,0,-1
-28.55,-3.82,35.74,-541,4715,6578,0,0,0
-28.55,-3.82,35.74,-536,4715,6572,0,0,0
-28.55,-3.82,35.74,-529,4725,6567,0,0,-1
-28.55,-3.82,35.75,-533,4728,6561,0,0,-1
-28.54,-3.82,35.75,-541,4732,6566,-1,0,-1
-28.54,-3.83,35.75,-537,4727,6564,-1,0,0
-28.54,-3.83,35.75,-546,4720,6564,-1,-1,0
-28.55,-3.82,35.74,-541,4719,6571,0,-1,0
-28.55,-3.82,35.75,-536,4724,6581,0,-1,0
-28.54,-3.82,35.75,-533,4721,6565,0,0,-1
-28.54,-3.82,35.75,-535,4714,6561,0,0,-1
-28.54,-3.83,35.75,-533,4717,6564,0,0,-1
-28.54,-3.84,35.75,-544,4718,6576,-1,0,0
-28.54,-3.84,35.75,-546,4709,6577,0,-1,0
-28.54,-3.83,35.75,-541,4721,6577,0,-1,-1
-28.53,-3.84,35.76,-544,4724,6574,0,0,-1
-28.53,-3.84,35.76,-543,4720,6556,-1,0,0
-28.53,-3.84,35.76,-540,4724,6562,0,0,0
-28.53,-3.84,35.76,-536,4729,6567,-1,0,-1
-28.53,-3.84,35.76,-538,4734,6562,-1,0,-1
-28.53,-3.84,35.75,-540,4725,6571,0,0,-1
-28.53,-3.85,35.75,-536,4723,6582,-1,0,0
-28.54,-3.84,35.75,-538,4730,6574,-1,0,0
-28.54,-3.84,35.75,-545,4727,6576,0,-1,0
-28.54,-3.84,35.75,-540,4720,6577,0,0,-1
-28.53,-3.85,35.74,-543,4720,6577,0,0,-1
-28.53,-3.85,35.75,-545,4722,6569,0,0,-1
-28.53,-3.86,35.75,-547,4716,6573,0,0,-1
-28.52,-3.86,35.75,-548,4716,6572,0,0,-1
-28.52,-3.86,35.75,-546,4722,6574,0,0,-1
-28.52,-3.86,35.76,-543,4728,6571,0,-1,0
-28.52,-3.86,35.76,-539,4726,6566,0,0,0
-28.52,-3.86,35.76,-538,4722,6565,0,0,0
-28.52,-3.86,35.76,-547,4724,6562,0,0,-1
-28.52,-3.86,35.76,-547,4727,6564,-1,0,-1
-28.52,-3.87,35.76,-546,4726,6561,-1,0,-1
-28.52,-3.87,35.76,-551,4724,6571,0,0,-1
-28.52,-3.87,35.76,-550,4729,6585,0,0,-1
-28.51,-3.87,35.77,-538,4726,6572,0,0,-1
-28.51,-3.88,35.77,-547,4728,6569,0,0,-1
-28.51,-3.88,35.77,-541,4719,6562,-1,0,-1
-28.50,-3.88,35.77,-545,4718,6566,-1,0,0
-28.50,-3.88,35.77,-550,4721,6570,0,-1,-1
-28.50,-3.88,35.77,-546,4720,6563,0,0,-1
-28.50,-3.89,35.77,-549,4725,6560,0,0,0
-28.50,-3.89,35.77,-545,4722,6564,0,0,-1
-28.50,-3.89,35.77,-543,4718,6568,0,0,0
-28.50,-3.89,35.77,-549,4724,6562,0,0,-1
-28.50,-3.89,35.77,-547,4718,6566,0,0,-1
-28.49,-3.90,35.77,-544,4713,6569,0,0,-1
-28.49,-3.90,35.77,-551,4716,6570,0,0,-1
-28.49,-3.90,35.78,-560,4721,6565,-1,0,-1
-28.49,-3.90,35.78,-554,4721,6566,0,0,-1
-28.48,-3.91,35.78,-551,4718,6551,0,0,-1
-28.48,-3.91,35.78,-554,4725,6557,0,0,-1
-28.48,-3.91,35.78,-554,4733,6561,0,0,-1
-28.48,-3.92,35.78,-554,4729,6558,0,0,-1
-28.48,-3.92,35.79,-551,4735,6555,0,0,-1
-28.48,-3.92,35.79,-557,4735,6553,0,0,-1
-28.48,-3.93,35.78,-557,4730,6558,-1,0,0
-28.48,-3.93,35.78,-553,4728,6563,0,0,0
-28.48,-3.93,35.79,-552,4726,6562,0,0,0
-28.48,-3.93,35.79,-551,4731,6569,0,0,-1
-28.47,-3.93,35.80,-549,4734,6563,0,0,-1
-28.46,-3.94,35.80,-548,4730,6564,0,0,-1
-28.46,-3.95,35.81,-562,4732,6567,0,0,-1
-28.45,-3.94,35.81,-563,4733,6566,0,0,-1
-28.45,-3.94,35.81,-564,4733,6565,0,0,0
-28.45,-3.94,35.81,-562,4734,6565,0,-1,0
-28.45,-3.94,35.82,-547,4729,6558,0,-1,-1
-28.45,-3.94,35.82,-546,4733,6551,0,0,-1
-28.44,-3.94,35.82,-548,4725,6554,-1,0,-1
-28.45,-3.95,35.81,-555,4726,6560,-1,0,-1
-28.44,-3.95,35.81,-567,4722,6568,0,0,-1
-28.44,-3.95,35.81,-563,4730,6565,0,-1,0
-28.44,-3.95,35.82,-560,4736,6566,0,-1,0
-28.44,-3.94,35.83,-556,4736,6555,0,-1,0
-28.44,-3.94,35.83,-559,4730,6562,0,-1,0
-28.44,-3.94,35.83,-555,4732,6558,0,-1,0
-28.44,-3.94,35.83,-552,4732,6560,0,0,-1
-28.43,-3.94,35.83,-548,4738,6564,-1,0,0
-28.44,-3.94,35.82,-550,4734,6563,-1,-1,0
-28.44,-3.94,35.82,-556,4732,6576,-1,-1,0
-28.45,-3.93,35.81,-552,4729,6574,-1,-1,0
-28.45,-3.93,35.81,-558,4728,6579,-1,-1,0
-28.45,-3.93,35.81,-560,4722,6568,0,-1,0
-28.45,-3.93,35.81,-556,4722,6567,0,0,-1
-28.45,-3.93,35.81,-555,4724,6567,0,0,-1
-28.45,-3.93,35.81,-552,4733,6569,0,-1,-1
-28.44,-3.93,35.82,-554,4732,6562,0,-1,0
-28.45,-3.92,35.82,-554,4731,6566,0,-1,0
-28.45,-3.92,35.82,-558,4731,6563,0,-1,0
-28.45,-3.92,35.82,-558,4729,6547,0,-1,0
-28.45,-3.92,35.82,-555,4729,6548,0,-1,0
-28.45,-3.91,35.82,-551,4727,6551,0,-1,0
-28.45,-3.91,35.82,-550,4730,6564,-1,-1,0
-28.45,-3.91,35.82,-547,4726,6550,-1,0,0
-28.45,-3.91,35.82,-549,4723,6554,-1,-1,0
-28.45,-3.91,35.82,-556,4733,6546,0,-1,0
-28.46,-3.91,35.81,-558,4726,6563,0,-1,0
-28.46,-3.91,35.81,-548,4733,6568,0,-1,0
-28.46,-3.91,35.81,-557,4733,6568,0,-1,-1
-28.45,-3.91,35.82,-551,4739,6571,0,-1,-1
-28.45,-3.91,35.82,-551,4734,6573,0,-1,0
-28.45,-3.91,35.82,-558,4728,6566,0,-1,0
-28.45,-3.90,35.83,-555,4735,6564,0,-1,0
-28.45,-3.90,35.82,-548,4741,6560,-1,-1,0
-28.45,-3.90,35.82,-548,4735,6555,-1,-1,0
-28.46,-3.89,35.82,-546,4727,6565,0,-1,0
-28.45,-3.89,35.82,-542,4739,6563,0,-1,-1
-28.45,-3.89,35.82,-545,4744,6565,-1,0,0
-28.46,-3.88,35.82,-549,4735,6574,-1,-1,0
-28.47,-3.88,35.81,-551,4720,6567,-1,0,0
-28.47,-3.88,35.81,-540,4716,6565,0,-1,0
-28.47,-3.88,35.81,-544,4730,6568,0,0,0
-28.47,-3.88,35.81,-544,4735,6561,0,-1,0
-28.48,-3.87,35.81,-544,4740,6560,-1,-1,0
-28.48,-3.87,35.81,-536,4735,6559,-1,-1,0
-28.48,-3.86,35.81,-542,4733,6560,-1,0,-1
-28.48,-3.87,35.81,-549,4729,6555,0,0,-1
-28.47,-3.87,35.81,-552,4729,6568,-1,0,-1
-28.47,-3.88,35.81,-554,4738,6562,-1,-1,0
-28.48,-3.87,35.81,-554,4746,6567,-1,-1,0
-28.48,-3.86,35.81,-544,4741,6576,-1,-1,0
-28.49,-3.86,35.80,-542,4731,6576,-1,-1,0
-28.49,-3.85,35.80,-540,4720,6573,-1,-1,0
-28.49,-3.85,35.79,-544,4715,6571,-1,0,-1
-28.49,-3.86,35.79,-542,4716,6574,0,0,-1
-28.49,-3.86,35.79,-548,4722,6579,0,0,-1
-28.48,-3.86,35.80,-548,4731,6566,0,-1,0
-28.49,-3.86,35.80,-545,4731,6573,0,-1,0
-28.49,-3.85,35.80,-540,4725,6558,0,-1,0
-28.49,-3.85,35.80,-538,4729,6543,0,-1,0
-28.50,-3.84,35.80,-536,4725,6552,-1,0,0
-28.50,-3.84,35.79,-537,4731,6549,-1,0,0
-28.50,-3.84,35.79,-540,4723,6552,-1,0,0
-28.50,-3.84,35.79,-541,4727,6557,-1,0,0
-28.51,-3.84,35.79,-539,4721,6568,-1,-1,0
-28.51,-3.84,35.78,-544,4721,6569,-1,-1,0
-28.51,-3.84,35.78,-545,4727,6577,-1,-1,0
-28.51,-3.84,35.78,-541,4717,6571,-1,0,0
-28.52,-3.83,35.77,-539,4709,6578,0,0,-1
-28.52,-3.84,35.77,-542,4722,6577,0,0,-1
-28.51,-3.84,35.78,-541,4724,6580,0,0,-1
-28.51,-3.84,35.78,-547,4732,6577,0,0,0
-28.51,-3.84,35.78,-540,4729,6581,-1,-1,0
-28.52,-3.83,35.77,-540,4722,6575,-1,0,0
-28.52,-3.83,35.77,-544,4722,6574,0,-1,0
-28.52,-3.83,35.77,-540,4720,6569,0,0,-1
-28.52,-3.83,35.77,-539,4729,6570,-1,0,-1
-28.52,-3.83,35.77,-544,4727,6558,-1,-1,0
-28.52,-3.83,35.77,-545,4730,6558,-1,-1,0
-28.53,-3.82,35.76,-535,4730,6564,0,-1,0
-28.53,-3.82,35.76,-532,4727,6559,0,0,-1
-28.53,-3.82,35.76,-538,4718,6560,0,-1,-1
-28.52,-3.83,35.77,-541,4715,6567,0,0,0
-28.53,-3.83,35.76,-542,4724,6571,-1,0,0
-28.53,-3.83,35.76,-539,4717,6569,-1,-1,0
-28.53,-3.83,35.76,-543,4721,6564,0,-1,0
-28.53,-3.83,35.76,-550,4720,6566,0,-1,0
-28.53,-3.83,35.76,-547,4717,6558,0,-1,0
-28.53,-3.83,35.76,-535,4710,6552,0,0,-1
-28.53,-3.83,35.76,-534,4709,6561,0,0,-1
-28.53,-3.83,35.76,-545,4726,6563,-1,0,0
-28.53,-3.83,35.76,-541,4732,6560,-1,-1,0
-28.53,-3.83,35.76,-543,4730,6559,-1,-1,0
-28.53,-3.82,35.76,-531,4731,6564,0,-1,0
-28.54,-3.82,35.76,-536,4719,6567,0,0,-1
-28.53,-3.82,35.76,-534,4716,6566,0,0,-1
-28.53,-3.83,35.76,-538,4711,6567,0,0,-1
-28.53,-3.83,35.75,-545,4715,6568,0,0,-1
-28.53,-3.83,35.75,-547,4718,6573,0,0,0
-28.53,-3.83,35.75,-547,4721,6574,0,-1,0
-28.53,-3.83,35.75,-544,4717,6569,0,-1,0
-28.53,-3.83,35.76,-529,4724,6567,0,0,-1
-28.53,-3.83,35.76,-531,4727,6567,-1,0,-1
-28.53,-3.83,35.76,-534,4731,6566,-1,0,0
-28.53,-3.83,35.75,-538,4726,6565,-1,0,0
-28.53,-3.83,35.75,-536,4721,6566,0,-1,-1
-28.53,-3.83,35.75,-541,4720,6554,0,0,0
-28.53,-3.83,35.75,-537,4720,6563,-1,-1,0
-28.53,-3.83,35.75,-535,4718,6557,-1,-1,0
-28.53,-3.82,35.75,-531,4715,6560,0,0,0
-28.53,-3.82,35.75,-530,4718,6567,0,0,-1
-28.53,-3.82,35.75,-530,4719,6575,0,0,-1
-28.53,-3.83,35.75,-538,4723,6578,0,0,-1
-28.53,-3.83,35.75,-542,4728,6579,0,0,0
-28.53,-3.83,35.75,-538,4724,6572,0,-1,0
-28.53,-3.82,35.75,-538,4719,6572,0,-1,0
-28.53,-3.82,35.75,-533,4723,6569,-1,-1,0
-28.53,-3.82,35.75,-534,4720,6566,-1,0,0
-28.53,-3.82,35.75,-538,4718,6578,0,0,-1
-28.53,-3.82,35.74,-540,4719,6573,0,0,-1
-28.53,-3.82,35.74,-537,4715,6574,0,-1,-1
-28.53,-3.82,35.74,-539,4715,6569,0,0,0
-28.53,-3.82,35.74,-538,4717,6565,0,0,0
-28.53,-3.82,35.74,-541,4717,6569,-1,-1,0
-28.53,-3.82,35.74,-536,4715,6564,0,0,0
-28.53,-3.82,35.74,-538,4720,6557,0,0,-1
-28.53,-3.82,35.75,-540,4728,6564,0,0,-1
-28.53,-3.82,35.74,-542,4730,6569,-1,0,0
-28.53,-3.82,35.74,-538,4729,6555,-1,0,0
-28.53,-3.82,35.75,-537,4733,6555,0,-1,0
-28.54,-3.82,35.75,-534,4722,6552,0,-1,0
-28.54,-3.81,35.75,-532,4724,6553,0,-1,0
-28.54,-3.81,35.75,-531,4720,6546,0,0,-1
-28.53,-3.82,35.76,-538,4722,6557,0,0,-1
-28.53,-3.83,35.76,-544,4731,6552,0,0,-1
-28.53,-3.83,35.76,-539,4724,6564,-1,-1,-1
-28.53,-3.83,35.75,-545,4716,6572,-1,0,0
-28.53,-3.82,35.75,-542,4714,6570,0,-1,0
-28.53,-3.82,35.76,-539,4718,6564,0,0,-1
-28.53,-3.83,35.76,-545,4724,6565,0,0,-1
-28.53,-3.83,35.76,-547,4725,6567,0,-1,0
-28.52,-3.83,35.77,-542,4726,6565,0,0,-1
-28.52,-3.83,35.76,-542,4724,6567,-1,0,-1
-28.52,-3.83,35.76,-543,4718,6567,-1,0,0
-28.52,-3.83,35.76,-541,4712,6557,0,0,-1
-28.53,-3.83,35.76,-538,4716,6557,-1,0,0
-28.53,-3.83,35.75,-547,4719,6566,-1,-1,0
-28.53,-3.83,35.75,-541,4721,6572,-1,0,0
-28.53,-3.83,35.75,-539,4714,6564,0,0,-1
-28.53,-3.83,35.75,-543,4719,6567,0,0,-1
-28.52,-3.84,35.75,-540,4719,6575,0,0,-1
-28.52,-3.84,35.75,-542,4720,6570,0,0,-1
-28.52,-3.84,35.76,-544,4727,6566,0,0,-1
-28.52,-3.84,35.76,-547,4724,6556,0,0,-1
-28.52,-3.84,35.76,-544,4720,6564,-1,0,-1
-28.52,-3.84,35.76,-539,4725,6567,0,0,-1
-28.52,-3.84,35.76,-544,4726,6565,0,0,0
-28.52,-3.84,35.76,-549,4727,6562,-1,0,-1
-28.52,-3.84,35.76,-546,4722,6566,-1,-1,0
-28.52,-3.84,35.76,-537,4708,6564,0,-1,-1
-28.52,-3.84,35.76,-530,4709,6567,0,0,-1
-28.51,-3.85,35.76,-538,4704,6560,-1,0,-1
-28.51,-3.85,35.75,-539,4714,6564,0,0,-1
-28.51,-3.85,35.75,-550,4714,6578,0,0,0
-28.51,-3.85,35.76,-539,4717,6569,0,-1,-1
-28.51,-3.85,35.76,-544,4721,6557,0,0,-1
-28.51,-3.86,35.76,-557,4731,6555,0,0,-1
-28.51,-3.86,35.76,-552,4732,6560,-1,0,-1
-28.50,-3.87,35.76,-548,4727,6566,-1,0,0
-28.50,-3.86,35.75,-550,4718,6570,0,-1,0
-28.51,-3.86,35.75,-554,4714,6579,0,-1,0
-28.51,-3.86,35.75,-543,4718,6575,0,0,-1
-28.51,-3.86,35.75,-542,4724,6565,-1,0,-1
-28.51,-3.87,35.76,-548,4724,6565,-1,0,-1
-28.50,-3.88,35.75,-556,4722,6567,-1,0,-1
-28.50,-3.88,35.75,-555,4722,6570,0,0,-1
-28.51,-3.88,35.75,-553,4724,6573,-1,-1,0
-28.51,-3.88,35.75,-544,4717,6575,-1,-1,0
-28.50,-3.88,35.75,-552,4722,6564,0,0,-1
-28.50,-3.88,35.75,-549,4733,6564,0,0,0
-28.50,-3.88,35.76,-552,4730,6562,0,0,-1
-28.50,-3.89,35.76,-552,4733,6558,0,0,-1
-28.50,-3.90,35.76,-555,4723,6554,-1,0,-1
-28.50,-3.90,35.76,-554,4723,6551,-1,0,-1
-28.50,-3.90,35.76,-552,4723,6566,0,0,-1
-28.50,-3.90,35.76,-542,4726,6571,0,-1,-1
-28.50,-3.90,35.76,-541,4728,6569,0,0,0
-28.50,-3.90,35.76,-543,4721,6563,0,-1,-1
-28.50,-3.90,35.76,-545,4717,6567,-1,0,-1
-28.49,-3.90,35.76,-552,4716,6574,0,-1,-1
-28.49,-3.90,35.76,-549,4721,6569,0,0,-1
-28.48,-3.91,35.77,-554,4726,6562,0,0,-1
-28.48,-3.91,35.77,-556,4729,6555,0,-1,-1
-28.47,-3.91,35.78,-553,4733,6557,0,-1,0
-28.47,-3.91,35.78,-545,4728,6562,0,-1,-1
-28.47,-3.91,35.78,-545,4721,6561,0,-1,-1
-28.47,-3.91,35.78,-545,4719,6551,0,-1,-1
-28.47,-3.91,35.78,-546,4725,6560,0,0,-1
-28.46,-3.91,35.78,-547,4725,6569,0,0,-1
-28.46,-3.91,35.78,-552,4726,6565,0,-1,-1
-28.46,-3.92,35.78,-555,4726,6566,0,-1,0
-28.46,-3.91,35.79,-552,4726,6572,0,-1,0
-28.46,-3.91,35.79,-548,4732,6566,0,-1,0
-28.46,-3.91,35.79,-549,4722,6571,0,-1,-1
-28.45,-3.91,35.80,-545,4724,6558,0,-1,-1
-28.45,-3.91,35.80,-546,4729,6560,0,-1,0
-28.45,-3.91,35.80,-554,4726,6561,0,-1,-1
-28.45,-3.91,35.80,-551,4729,6556,0,-1,0
-28.45,-3.91,35.80,-550,4729,6552,0,-1,0
-28.45,-3.90,35.80,-547,4732,6552,0,0,0
-28.45,-3.90,35.80,-551,4736,6566,0,0,0
-28.45,-3.90,35.80,-551,4736,6570,-1,-1,0
-28.45,-3.90,35.80,-553,4723,6569,-1,0,0
-28.46,-3.90,35.80,-553,4726,6567,0,-1,0
-28.45,-3.89,35.80,-546,4717,6560,0,-1,0
-28.45,-3.89,35.80,-541,4722,6569,0,-1,-1
-28.45,-3.89,35.80,-544,4724,6575,0,-1,0
-28.46,-3.89,35.80,-543,4726,6580,0,-1,-1
-28.45,-3.89,35.79,-549,4721,6577,0,0,0
-28.46,-3.89,35.79,-553,4721,6576,0,-1,0
-28.46,-3.89,35.80,-555,4729,6563,0,-1,0
-28.46,-3.89,35.80,-554,4741,6563,-1,-1,0
-28.46,-3.88,35.80,-547,4737,6562,-1,-1,0
-28.46,-3.88,35.79,-548,4732,6573,-1,-1,0
-28.47,-3.88,35.78,-551,4724,6569,-1,-1,0
-28.47,-3.88,35.78,-546,4720,6563,0,-1,0
-28.47,-3.87,35.78,-547,4726,6562,0,-1,0
-28.48,-3.86,35.78,-535,4732,6569,-1,-1,0
-28.48,-3.86,35.78,-534,4729,6557,-1,0,0
-28.48,-3.86,35.77,-537,4718,6559,-1,0,-1
-28.49,-3.86,35.77,-538,4715,6562,-1,0,-1
-28.49,-3.86,35.77,-543,4726,6575,-1,0,0
-28.49,-3.86,35.77,-551,4727,6580,0,-1,0
-28.49,-3.86,35.77,-549,4730,6576,0,-1,0
-28.49,-3.85,35.77,-542,4732,6568,0,-1,0
-28.50,-3.85,35.77,-540,4731,6557,0,0,0
-28.50,-3.85,35.77,-534,4733,6560,-1,0,0
-28.50,-3.85,35.77,-533,4734,6558,-1,0,-1
-28.50,-3.84,35.77,-535,4733,6563,-1,0,0
-28.50,-3.85,35.76,-538,4727,6571,-1,-1,0
-28.50,-3.84,35.76,-534,4724,6569,-1,-1,0
-28.51,-3.84,35.75,-528,4718,6568,-1,-1,0
-28.51,-3.83,35.75,-533,4715,6565,-1,-1,0
-28.51,-3.83,35.75,-534,4712,6566,0,-1,-1
-28.51,-3.83,35.75,-537,4718,6575,0,0,-1
-28.51,-3.83,35.75,-539,4726,6564,0,0,0
-28.51,-3.83,35.75,-545,4724,6566,0,-1,0
-28.51,-3.83,35.75,-554,4728,6582,-1,0,0
-28.52,-3.83,35.75,-548,4730,6574,0,-1,0
-28.51,-3.83,35.76,-536,4722,6562,0,0,-1
-28.52,-3.83,35.76,-542,4721,6563,0,0,0
-28.52,-3.83,35.76,-544,4725,6562,-1,-1,0
-28.52,-3.82,35.75,-542,4725,6566,-1,-1,0
-28.52,-3.82,35.75,-546,4721,6568,-1,-1,0
-28.52,-3.82,35.75,-544,4721,6575,-1,0,-1
-28.53,-3.83,35.74,-540,4717,6581,0,0,0
-28.52,-3.82,35.75,-534,4726,6573,0,0,0
-28.53,-3.83,35.74,-540,4726,6578,0,0,-1
-28.53,-3.83,35.74,-540,4721,6573,0,0,-1
-28.53,-3.83,35.74,-539,4725,6576,0,-1,-1
-28.52,-3.82,35.75,-538,4728,6580,0,0,-1
-28.53,-3.83,35.74,-541,4727,6581,0,0,-1
-28.52,-3.82,35.75,-538,4725,6576,0,0,0
-28.52,-3.82,35.75,-540,4720,6571,0,-1,0
-28.52,-3.82,35.75,-539,4729,6569,-1,0,0
-28.53,-3.83,35.74,-538,4726,6569,-1,-1,0
-28.52,-3.82,35.75,-536,4725,6562,0,0,0
-28.52,-3.82,35.75,-542,4726,6558,0,-1,0
-28.52,-3.82,35.75,-539,4722,6558,0,0,-1
-28.52,-3.82,35.75,-537,4722,6565,0,0,-1
-28.52,-3.82,35.75,-541,4719,6564,0,0,-1
-28.51,-3.83,35.75,-550,4722,6563,0,0,-1
-28.52,-3.83,35.75,-548,4721,6569,0,-1,0
-28.52,-3.82,35.75,-538,4726,6568,0,-1,0
-28.52,-3.82,35.76,-532,4728,6563,-1,-1,0
-28.52,-3.82,35.75,-527,4719,6570,-1,0,-1
-28.53,-3.83,35.74,-533,4707,6572,-1,0,-1
-28.53,-3.83,35.74,-536,4705,6570,0,0,-1
-28.52,-3.83,35.74,-541,4722,6571,0,0,-1
-28.52,-3.83,35.74,-545,4736,6571,0,-1,-1
-28.51,-3.83,35.75,-542,4732,6566,-1,-1,0
-28.52,-3.83,35.75,-540,4729,6563,0,-1,0
-28.52,-3.83,35.75,-540,4727,6571,0,-1,-1
-28.51,-3.83,35.76,-537,4731,6566,0,0,-1
-28.51,-3.83,35.76,-539,4728,6562,0,0,-1
-28.51,-3.84,35.76,-545,4727,6557,-1,0,-1
-28.51,-3.84,35.75,-551,4719,6565,-1,0,-1
-28.51,-3.84,35.75,-545,4721,6566,0,-1,0
-28.51,-3.83,35.75,-545,4725,6570,-1,-1,0
-28.51,-3.83,35.75,-543,4725,6562,-1,0,0
-28.52,-3.83,35.74,-545,4720,6566,0,0,-1
-28.51,-3.84,35.75,-544,4717,6568,0,0,-1
-28.51,-3.84,35.75,-540,4718,6557,0,0,-1
-28.51,-3.84,35.75,-543,4723,6564,-1,0,0
-28.51,-3.84,35.75,-543,4725,6570,-1,-1,0
-28.52,-3.84,35.75,-548,4729,6563,0,-1,0
-28.52,-3.84,35.75,-549,4727,6567,0,-1,0
-28.51,-3.84,35.75,-550,4729,6558,0,0,0
-28.52,-3.84,35.75,-547,4727,6563,-1,0,-1
-28.51,-3.84,35.75,-550,4723,6560,0,0,-1
-28.51,-3.84,35.75,-546,4727,6566,0,0,-1
-28.51,-3.84,35.75,-550,4727,6561,-1,-1,0
-28.52,-3.84,35.75,-549,4722,6566,-1,-1,0
-28.52,-3.84,35.75,-547,4726,6568,-1,0,0
-28.52,-3.84,35.75,-539,4724,6561,0,-1,0
-28.52,-3.84,35.75,-533,4719,6558,0,0,-1
-28.52,-3.84,35.75,-531,4727,6569,0,0,-1
-28.52,-3.84,35.75,-535,4725,6569,-1,0,0
-28.52,-3.84,35.75,-541,4724,6558,-1,-1,0
-28.52,-3.84,35.75,-547,4723,6568,0,0,-1
-28.52,-3.84,35.74,-545,4717,6566,0,0,-1
-28.52,-3.85,35.74,-547,4715,6558,-1,0,-1
-28.52,-3.85,35.74,-547,4725,6568,-1,0,0
-28.52,-3.85,35.74,-546,4725,6565,0,-1,0
-28.53,-3.84,35.73,-538,4727,6570,-1,-1,0
-28.53,-3.84,35.73,-537,4725,6567,-1,-1,0
-28.53,-3.84,35.73,-533,4722,6572,-1,0,0
-28.53,-3.85,35.73,-537,4714,6570,-1,0,-1
-28.53,-3.85,35.73,-536,4713,6573,0,0,-1
-28.51,-3.85,35.73,-549,4725,6576,0,0,-1
-28.51,-3.85,35.73,-552,4727,6578,0,0,0
-28.51,-3.85,35.73,-546,4730,6584,-1,-1,0
-28.53,-3.84,35.73,-542,4724,6571,0,0,0
-28.53,-3.84,35.73,-536,4721,6560,0,-1,0
-28.53,-3.84,35.73,-538,4720,6559,0,0,0
-28.53,-3.84,35.73,-541,4721,6563,-1,0,-1
-28.52,-3.84,35.73,-544,4721,6573,-1,0,0
-28.53,-3.85,35.73,-540,4724,6564,-1,0,0
-28.53,-3.85,35.73,-540,4729,6567,-1,0,0
-28.53,-3.85,35.73,-544,4725,6558,-1,-1,0
-28.53,-3.84,35.72,-536,4726,6563,0,-1,0
-28.53,-3.84,35.73,-536,4722,6567,0,0,-1
-28.53,-3.84,35.73,-542,4727,6559,0,0,-1
-28.53,-3.84,35.73,-544,4724,6556,-1,-1,0
-28.53,-3.84,35.73,-543,4718,6563,-1,0,0
-28.53,-3.85,35.73,-552,4714,6565,0,-1,0
-28.53,-3.84,35.73,-540,4721,6563,0,-1,-1
-28.52,-3.84,35.74,-545,4732,6563,0,0,0
-28.52,-3.84,35.74,-540,4734,6575,-1,0,0
-28.53,-3.84,35.73,-546,4725,6570,-1,-1,0
-28.53,-3.84,35.73,-549,4717,6579,-1,0,0
-28.54,-3.84,35.72,-537,4720,6575,0,0,-1
-28.53,-3.84,35.72,-532,4713,6575,0,0,-1
-28.53,-3.85,35.73,-537,4714,6574,0,0,-1
-28.53,-3.85,35.73,-547,4717,6569,-1,0,-1
-28.53,-3.85,35.73,-553,4722,6563,0,-1,0
-28.53,-3.84,35.72,-540,4719,6565,-1,-1,0
-28.54,-3.83,35.72,-535,4722,6572,-1,-1,0
-28.54,-3.83,35.71,-529,4719,6570,-1,0,-1
-28.54,-3.84,35.72,-531,4717,6563,0,0,-1
-28.53,-3.85,35.72,-549,4724,6568,0,0,-1
-28.52,-3.85,35.73,-560,4731,6574,0,-1,0
-28.53,-3.85,35.73,-562,4734,6570,-1,-1,0
-28.54,-3.84,35.73,-551,4726,6565,-1,-1,0
-28.54,-3.83,35.71,-532,4714,6568,-1,-1,0
-28.55,-3.82,35.71,-526,4706,6573,-1,0,-1
-28.55,-3.83,35.71,-520,4705,6574,0,0,-1
-28.54,-3.84,35.71,-535,4710,6577,0,0,-1
-28.53,-3.85,35.72,-549,4718,6574,0,0,-1
-28.52,-3.85,35.73,-557,4736,6571,0,0,0
-28.53,-3.85,35.73,-556,4734,6566,-1,-1,0
-28.53,-3.85,35.72,-549,4723,6562,-1,-1,0
-28.54,-3.84,35.72,-544,4711,6559,0,-1,0
-28.54,-3.83,35.72,-537,4710,6564,0,0,-1
-28.54,-3.84,35.72,-537,4723,6578,0,0,-1
-28.54,-3.84,35.72,-532,4716,6589,-1,0,-1
-28.54,-3.85,35.71,-530,4711,6574,0,0,-1
-28.54,-3.85,35.71,-541,4723,6572,0,0,-1
-28.54,-3.85,35.71,-552,4730,6574,-1,-1,0
-28.53,-3.85,35.72,-546,4730,6567,-1,-1,0
-28.55,-3.84,35.71,-550,4728,6570,-1,-1,0
-28.55,-3.83,35.71,-538,4713,6574,-1,-1,0
-28.55,-3.84,35.70,-532,4697,6572,0,0,-1
-28.55,-3.84,35.70,-529,4699,6582,0,0,-1
-28.54,-3.85,35.71,-541,4718,6579,0,0,-1
-28.53,-3.85,35.72,-550,4722,6576,0,0,-1
-28.53,-3.86,35.72,-562,4731,6572,0,-1,0
-28.53,-3.85,35.72,-553,4736,6557,-1,-1,0
-28.54,-3.84,35.72,-543,4724,6563,-1,-1,0
-28.55,-3.84,35.71,-531,4713,6560,-1,-1,0
-28.55,-3.83,35.71,-526,4707,6567,0,0,-1
-28.55,-3.84,35.71,-529,4703,6573,0,0,-1
-28.54,-3.85,35.71,-538,4713,6571,0,0,-1
-28.54,-3.85,35.71,-549,4723,6565,0,0,-1
-28.53,-3.85,35.72,-547,4728,6568,0,0,-1
-28.53,-3.86,35.72,-554,4726,6568,-1,0,0
-28.54,-3.85,35.71,-553,4717,6569,-1,-1,0
-28.54,-3.85,35.71,-551,4711,6566,-1,-1,0
-28.55,-3.84,35.71,-537,4718,6574,0,-1,-1
-28.54,-3.84,35.72,-526,4715,6580,0,0,-1
-28.53,-3.85,35.72,-536,4718,6576,0,0,-1
-28.53,-3.87,35.72,-539,4723,6570,-1,0,-1
-28.53,-3.88,35.72,-559,4735,6562,-1,0,0
-28.54,-3.88,35.72,-568,4738,6576,-1,-1,0
-28.55,-3.86,35.71,-558,4729,6586,-1,-1,0
-28.56,-3.84,35.70,-535,4717,6574,-1,-1,0
-28.57,-3.83,35.69,-519,4705,6577,-1,0,-1
-28.57,-3.84,35.69,-509,4687,6579,-1,0,-1
-28.57,-3.85,35.67,-505,4678,6588,-1,0,-1
-28.56,-3.87,35.67,-528,4693,6580,0,0,-1
-28.56,-3.89,35.68,-576,4724,6583,0,0,0
-28.57,-3.89,35.68,-588,4747,6588,-1,-1,0
-28.57,-3.87,35.68,-581,4749,6585,-1,-1,0
-28.60,-3.84,35.66,-542,4725,6563,-1,-1,0
-28.60,-3.82,35.65,-511,4693,6553,-1,-1,0
-28.60,-3.83,35.65,-500,4682,6555,0,0,-1
-28.59,-3.85,35.65,-508,4676,6590,0,0,-1
-28.58,-3.87,35.65,-533,4695,6593,0,0,-1
-28.57,-3.89,35.66,-556,4732,6583,0,0,-1
-28.58,-3.90,35.67,-581,4755,6573,-1,0,0
-28.59,-3.89,35.66,-583,4747,6569,-1,-1,0
-28.61,-3.86,35.65,-565,4727,6569,-1,-1,0
-28.62,-3.85,35.63,-529,4698,6574,-1,-1,0
-28.62,-3.84,35.63,-495,4679,6569,0,0,-1
-28.60,-3.87,35.63,-507,4683,6567,0,0,-1
-28.60,-3.89,35.64,-540,4699,6586,0,0,-1
-28.59,-3.91,35.65,-566,4728,6584,0,0,-1
-28.59,-3.91,35.66,-581,4745,6584,0,-1,0
-28.60,-3.89,35.66,-563,4743,6569,-1,-1,0
-28.60,-3.88,35.65,-547,4719,6563,-1,-1,0
-28.60,-3.87,35.65,-523,4697,6549,-1,-1,-1
-28.60,-3.87,35.64,-515,4684,6565,0,0,-1
-28.59,-3.88,35.65,-519,4687,6596,0,0,-1
-28.58,-3.90,35.65,-533,4693,6594,0,0,-1
-28.58,-3.92,35.67,-558,4721,6580,0,0,-1
-28.57,-3.93,35.68,-567,4742,6572,0,0,0
-28.57,-3.92,35.67,-567,4751,6561,-1,-1,0
-28.57,-3.91,35.68,-567,4747,6563,-1,-1,0
-28.57,-3.90,35.68,-549,4721,6574,0,-1,-1
-28.56,-3.91,35.68,-531,4694,6571,0,0,-1
-28.54,-3.92,35.69,-533,4684,6583,0,0,-1
-28.53,-3.93,35.71,-540,4694,6584,0,0,-1
-28.51,-3.94,35.73,-549,4721,6582,0,0,-1
-28.50,-3.96,35.74,-569,4739,6563,0,0,-1
-28.50,-3.97,35.75,-586,4753,6546,-1,-1,0
-28.51,-3.96,35.74,-583,4742,6541,-1,-1,0
-28.52,-3.94,35.72,-561,4724,6560,-1,-1,0
-28.53,-3.94,35.72,-545,4706,6573,0,-1,-1
-28.52,-3.94,35.72,-540,4704,6583,0,0,-1
-28.51,-3.94,35.73,-537,4712,6582,0,0,-1
-28.48,-3.95,35.76,-542,4716,6575,0,0,-1
-28.47,-3.97,35.78,-546,4735,6554,0,0,-1
-28.45,-3.98,35.80,-560,4738,6557,0,0,-1
-28.44,-3.99,35.80,-573,4736,6551,0,-1,-1
-28.44,-3.98,35.80,-576,4746,6563,-1,-1,0
-28.45,-3.96,35.80,-561,4743,6563,-1,-1,0
-28.46,-3.94,35.80,-538,4728,6567,-1,-1,-1
-28.45,-3.94,35.79,-530,4717,6565,0,-1,-1
-28.43,-3.95,35.80,-537,4714,6563,0,0,-1
-28.41,-3.96,35.81,-544,4704,6564,0,0,-1
-28.41,-3.97,35.82,-562,4718,6560,0,0,-1
-28.40,-3.97,35.83,-571,4736,6568,0,0,0
-28.41,-3.97,35.83,-571,4756,6572,-1,-1,0
-28.42,-3.95,35.83,-572,4751,6564,-1,-1,0
-28.43,-3.94,35.82,-563,4734,6562,-1,-1,0
-28.44,-3.93,35.81,-544,4721,6553,-1,-1,0
-28.44,-3.93,35.81,-541,4725,6555,0,-1,-1
-28.43,-3.93,35.81,-542,4728,6556,0,0,-1
-28.43,-3.93,35.81,-554,4735,6562,-1,-1,-1
-28.43,-3.93,35.81,-560,4738,6568,-1,-1,0
-28.43,-3.92,35.81,-567,4726,6571,0,-1,0
-28.43,-3.91,35.81,-553,4719,6564,0,-1,-1
-28.43,-3.91,35.82,-552,4726,6561,0,-1,0
-28.42,-3.91,35.82,-557,4718,6558,0,-1,-1
-28.42,-3.91,35.82,-556,4731,6562,0,-1,-1
-28.42,-3.91,35.82,-562,4734,6570,0,-1,-1
-28.42,-3.91,35.83,-560,4731,6577,0,-1,0
-28.42,-3.91,35.83,-552,4727,6564,0,-1,0
-28.42,-3.90,35.83,-550,4736,6559,0,0,0
-28.43,-3.90,35.83,-552,4738,6556,-1,-1,0
-28.43,-3.90,35.82,-548,4730,6556,-1,-1,0
-28.44,-3.90,35.82,-551,4728,6549,-1,-1,0
-28.44,-3.89,35.81,-551,4729,6557,-1,0,0
-28.45,-3.89,35.81,-552,4731,6555,-1,-1,0
-28.45,-3.89,35.81,-555,4724,6545,-1,-1,0
-28.45,-3.88,35.81,-554,4735,6553,-1,-1,0
-28.46,-3.88,35.80,-558,4734,6566,-1,-1,0
-28.47,-3.87,35.80,-547,4738,6560,-1,-1,0
-28.48,-3.87,35.79,-547,4738,6555,-1,0,0
-28.48,-3.86,35.78,-542,4717,6564,-1,-1,0
-28.49,-3.87,35.78,-542,4724,6569,-1,-1,0
-28.49,-3.86,35.77,-545,4718,6571,-1,-1,0
-28.49,-3.85,35.76,-547,4717,6566,-1,-1,0
-28.50,-3.85,35.76,-543,4724,6564,-1,-1,0
-28.50,-3.85,35.76,-539,4727,6557,-1,-1,-1
-28.50,-3.85,35.76,-541,4730,6561,-1,0,-1
-28.50,-3.85,35.76,-547,4734,6563,-1,-1,-1
-28.51,-3.86,35.75,-546,4727,6558,-1,0,0
-28.52,-3.85,35.74,-553,4717,6572,-1,-1,0
-28.52,-3.84,35.74,-541,4714,6577,0,-1,0
-28.53,-3.83,35.74,-547,4717,6578,-1,-1,0
-28.54,-3.83,35.73,-542,4721,6563,-1,-1,0
-28.54,-3.82,35.73,-536,4716,6557,-1,0,0
-28.54,-3.82,35.72,-536,4710,6552,-1,0,-1
-28.54,-3.83,35.72,-547,4719,6562,-1,0,-1
-28.54,-3.83,35.72,-554,4716,6567,0,-1,-1
-28.54,-3.83,35.72,-556,4730,6576,0,-1,0
-28.54,-3.83,35.72,-547,4735,6576,-1,-1,0
-28.54,-3.82,35.72,-546,4725,6562,0,-1,0
-28.55,-3.82,35.72,-541,4719,6561,0,0,0
-28.55,-3.82,35.72,-541,4716,6559,-1,0,0
-28.55,-3.82,35.71,-541,4718,6563,-1,0,-1
-28.55,-3.82,35.71,-541,4720,6564,-1,0,0
-28.54,-3.83,35.71,-546,4727,6560,-1,-1,0
-28.55,-3.82,35.71,-542,4730,6563,-1,-1,0
-28.55,-3.82,35.71,-542,4719,6562,-1,-1,0
-28.55,-3.82,35.71,-542,4711,6560,-1,0,0
-28.56,-3.82,35.70,-541,4716,6567,0,0,-1
-28.55,-3.82,35.71,-538,4725,6577,0,0,-1
-28.55,-3.82,35.71,-544,4731,6574,-1,0,0
-28.55,-3.82,35.71,-551,4726,6576,0,-1,0
-28.56,-3.82,35.71,-540,4723,6567,0,0,0
-28.55,-3.83,35.72,-538,4723,6557,0,0,-1
-28.55,-3.83,35.72,-538,4730,6557,0,0,-1
-28.54,-3.83,35.72,-547,4721,6559,0,0,-1
-28.55,-3.83,35.72,-554,4711,6557,-1,-1,0
-28.55,-3.83,35.72,-547,4719,6566,0,-1,0
-28.55,-3.83,35.72,-544,4726,6561,0,-1,0
-28.55,-3.82,35.72,-538,4724,6559,-1,-1,0
-28.56,-3.82,35.71,-532,4721,6564,-1,0,0
-28.56,-3.82,35.71,-529,4725,6569,-1,0,-1
-28.56,-3.82,35.71,-531,4720,6571,0,0,-1
-28.56,-3.82,35.71,-533,4715,6576,0,0,0
-28.56,-3.82,35.71,-531,4716,6561,0,0,-1
-28.56,-3.82,35.71,-539,4721,6560,-1,0,0
-28.57,-3.82,35.71,-539,4717,6563,-1,0,0
-28.56,-3.82,35.70,-540,4720,6560,0,0,-1
-28.55,-3.82,35.70,-545,4718,6566,0,0,-1
-28.55,-3.83,35.71,-548,4717,6563,0,0,-1
-28.55,-3.84,35.71,-552,4726,6563,0,0,0
-28.55,-3.83,35.71,-539,4720,6573,0,-1,0
-28.55,-3.83,35.71,-536,4725,6574,-1,0,0
-28.56,-3.83,35.70,-536,4718,6575,-1,0,-1
-28.56,-3.83,35.70,-535,4706,6577,-1,0,-1
-28.56,-3.83,35.70,-538,4712,6570,0,0,-1
-28.56,-3.84,35.70,-549,4712,6571,0,0,-1
-28.55,-3.84,35.70,-547,4715,6569,0,0,-1
-28.55,-3.85,35.71,-547,4724,6572,0,0,-1
-28.55,-3.85,35.71,-547,4734,6572,0,0,0
-28.55,-3.85,35.71,-547,4719,6578,-1,-1,0
-28.56,-3.85,35.70,-544,4712,6575,-1,0,0
-28.56,-3.85,35.70,-541,4713,6575,-1,0,0
-28.56,-3.85,35.70,-539,4716,6565,0,0,-1
-28.56,-3.86,35.69,-550,4729,6568,-1,0,0
-28.56,-3.85,35.69,-553,4720,6571,-1,-1,0
-28.57,-3.85,35.69,-546,4726,6571,-1,0,0
-28.57,-3.85,35.68,-538,4712,6571,-1,0,0
-28.57,-3.85,35.68,-536,4707,6579,-1,0,0
-28.57,-3.85,35.68,-535,4711,6577,-1,0,-1
-28.57,-3.86,35.67,-536,4707,6585,0,0,-1
-28.56,-3.86,35.68,-536,4721,6581,0,0,-1
-28.56,-3.86,35.68,-534,4717,6580,0,0,-1
-28.57,-3.86,35.68,-542,4718,6573,0,0,0
-28.57,-3.86,35.68,-542,4723,6574,-1,0,0
-28.57,-3.86,35.68,-549,4715,6576,-1,0,-1
-28.57,-3.86,35.68,-542,4715,6580,-1,-1,0
-28.57,-3.86,35.68,-531,4707,6576,0,0,-1
-28.57,-3.86,35.68,-536,4701,6575,0,0,-1
-28.56,-3.87,35.69,-540,4706,6584,0,0,-1
-28.56,-3.87,35.69,-537,4717,6580,0,0,-1
-28.56,-3.88,35.69,-546,4723,6585,0,0,0
-28.56,-3.88,35.69,-550,4717,6583,0,0,-1
-28.56,-3.88,35.69,-558,4729,6579,0,0,-1
-28.56,-3.89,35.69,-551,4731,6585,0,0,-1
-28.55,-3.89,35.70,-557,4722,6584,0,-1,0
-28.55,-3.89,35.70,-552,4720,6584,0,-1,-1
-28.54,-3.90,35.71,-540,4716,6569,0,0,-1
-28.54,-3.91,35.71,-542,4716,6558,0,0,-1
-28.53,-3.92,35.72,-550,4728,6566,-1,0,-1
-28.53,-3.92,35.72,-553,4726,6564,0,0,-1
-28.53,-3.92,35.72,-554,4719,6578,-1,-1,0
-28.54,-3.91,35.72,-544,4713,6575,0,-1,0
-28.54,-3.91,35.72,-542,4708,6576,0,0,-1
-28.53,-3.92,35.72,-545,4717,6567,0,0,-1
-28.53,-3.93,35.73,-546,4722,6573,0,0,-1
-28.52,-3.94,35.73,-559,4721,6566,0,0,-1
-28.52,-3.95,35.73,-563,4727,6572,0,0,-1
-28.51,-3.95,35.73,-566,4717,6580,0,-1,-1
-28.51,-3.95,35.73,-563,4708,6569,0,0,-1
-28.51,-3.96,35.74,-559,4708,6570,0,0,-1
-28.50,-3.97,35.74,-556,4713,6560,0,0,-1
-28.49,-3.98,35.75,-557,4727,6570,0,0,-1
-28.49,-3.98,35.75,-554,4726,6573,0,0,-1
-28.48,-3.99,35.76,-557,4733,6564,0,0,-1
-28.48,-3.99,35.76,-563,4728,6559,0,0,-1
-28.47,-4.00,35.77,-567,4725,6564,0,0,-1
-28.47,-4.01,35.78,-565,4729,6566,0,0,-1
-28.47,-4.01,35.78,-563,4730,6568,0,0,-1
-28.47,-4.01,35.78,-566,4722,6576,0,0,-1
-28.46,-4.01,35.78,-566,4719,6577,0,-1,-1
-28.45,-4.01,35.78,-560,4721,6568,0,0,-1
-28.44,-4.02,35.79,-559,4723,6566,0,-1,-1
-28.44,-4.01,35.80,-564,4722,6565,0,-1,-1
-28.43,-4.01,35.80,-565,4733,6556,0,-1,-1
-28.43,-4.01,35.80,-560,4733,6553,0,-1,-1
-28.42,-4.01,35.81,-561,4724,6547,0,-1,-1
-28.41,-4.01,35.82,-563,4728,6547,0,-1,-1
-28.40,-4.01,35.83,-565,4737,6556,0,-1,-1
-28.40,-4.01,35.83,-570,4732,6559,0,-1,-1
-28.40,-4.01,35.83,-560,4721,6551,0,-1,-1
-28.39,-4.01,35.84,-565,4727,6559,0,-1,-1
-28.38,-4.02,35.84,-572,4732,6567,0,-1,-1
-28.38,-4.01,35.84,-570,4741,6563,0,-1,0
-28.38,-4.00,35.84,-562,4736,6567,0,-1,0
-28.38,-4.00,35.84,-558,4723,6557,0,-1,-1
-28.38,-3.99,35.85,-557,4725,6542,0,-1,-1
-28.38,-3.99,35.85,-558,4729,6547,-1,-1,-1
-28.38,-3.99,35.85,-555,4736,6558,-1,-1,0
-28.38,-3.99,35.85,-568,4742,6564,-1,-1,0
-28.38,-3.99,35.84,-564,4735,6572,0,-1,0
-28.38,-3.98,35.84,-558,4736,6565,0,-1,0
-28.39,-3.97,35.84,-558,4729,6552,0,-1,0
-28.39,-3.97,35.84,-549,4727,6552,-1,-1,0
-28.39,-3.97,35.83,-560,4724,6558,-1,0,0
-28.39,-3.98,35.82,-569,4728,6567,-1,0,-1
-28.39,-3.98,35.82,-574,4740,6567,0,-1,0
-28.39,-3.97,35.82,-576,4743,6567,-1,-1,0
-28.40,-3.96,35.82,-566,4736,6567,-1,-1,0
-28.41,-3.95,35.82,-550,4733,6556,-1,-1,0
-28.41,-3.95,35.81,-543,4729,6548,-1,-1,-1
-28.41,-3.95,35.81,-547,4719,6552,0,0,-1
-28.41,-3.95,35.81,-557,4725,6557,0,0,-1
-28.41,-3.96,35.81,-566,4728,6565,-1,0,-1
-28.41,-3.95,35.81,-565,4728,6570,0,-1,0
-28.41,-3.95,35.81,-569,4729,6563,0,-1,0
-28.41,-3.95,35.81,-565,4729,6560,-1,-1,0
-28.41,-3.94,35.81,-563,4728,6560,-1,-1,0
-28.42,-3.94,35.80,-555,4729,6561,-1,-1,0
-28.42,-3.93,35.81,-549,4733,6556,-1,-1,0
-28.43,-3.93,35.80,-547,4730,6559,-1,-1,0
-28.43,-3.93,35.80,-549,4724,6556,-1,-1,0
-28.43,-3.92,35.79,-548,4730,6559,-1,-1,0
-28.44,-3.92,35.79,-546,4732,6566,-1,-1,0
-28.44,-3.92,35.78,-556,4728,6571,-1,-1,0
-28.45,-3.91,35.78,-551,4727,6581,-1,-1,0
-28.45,-3.91,35.78,-548,4730,6564,0,-1,-1
-28.45,-3.91,35.78,-551,4729,6558,-1,0,0
-28.45,-3.91,35.78,-551,4729,6559,-1,-1,0
-28.46,-3.90,35.78,-545,4729,6563,-1,-1,0
-28.46,-3.90,35.77,-550,4729,6574,0,-1,0
-28.46,-3.89,35.78,-540,4725,6568,0,-1,0
-28.46,-3.89,35.78,-547,4730,6561,0,-1,0
-28.46,-3.89,35.78,-547,4731,6562,-1,-1,0
-28.47,-3.89,35.77,-543,4730,6566,-1,-1,0
-28.48,-3.88,35.77,-544,4729,6571,-1,-1,0
-28.48,-3.88,35.77,-546,4723,6575,-1,-1,0
-28.48,-3.88,35.76,-540,4720,6575,-1,0,0
-28.49,-3.88,35.76,-544,4723,6570,-1,0,0
-28.49,-3.87,35.75,-547,4727,6567,-1,-1,0
-28.49,-3.87,35.75,-544,4721,6562,-1,0,0
-28.49,-3.88,35.75,-551,4717,6559,-1,0,-1
-28.49,-3.88,35.75,-549,4716,6568,-1,0,0
-28.49,-3.88,35.74,-550,4721,6572,-1,0,0
-28.49,-3.88,35.74,-542,4721,6573,-1,-1,0
-28.50,-3.87,35.74,-537,4724,6574,-1,-1,0
-28.50,-3.87,35.74,-536,4719,6570,-1,-1,0
-28.50,-3.87,35.74,-536,4723,6565,-1,0,-1
-28.50,-3.86,35.73,-541,4725,6569,-1,-1,0
-28.50,-3.86,35.73,-554,4729,6571,-1,0,0
-28.50,-3.86,35.73,-554,4730,6562,-1,0,0
-28.50,-3.86,35.73,-549,4723,6567,-1,-1,0
-28.51,-3.86,35.73,-546,4726,6577,0,-1,0
-28.51,-3.86,35.73,-537,4727,6575,-1,-1,0
-28.51,-3.86,35.73,-538,4732,6578,-1,0,0
-28.51,-3.86,35.73,-543,4730,6562,-1,0,0
-28.51,-3.86,35.72,-553,4715,6565,0,-1,0
-28.51,-3.85,35.73,-541,4714,6569,0,-1,-1
-28.51,-3.86,35.73,-555,4735,6567,0,0,0
-28.51,-3.85,35.73,-551,4738,6571,-1,-1,0
-28.52,-3.84,35.73,-541,4734,6561,-1,-1,0
-28.52,-3.84,35.73,-528,4724,6558,-1,-1,-1
-28.52,-3.84,35.72,-528,4715,6573,-1,0,-1
-28.52,-3.84,35.72,-533,4717,6565,0,0,-1
-28.51,-3.85,35.73,-547,4720,6575,0,0,0
-28.51,-3.85,35.73,-548,4723,6579,0,-1,0
-28.51,-3.85,35.73,-543,4726,6565,0,-1,0
-28.51,-3.85,35.74,-541,4728,6567,0,-1,0
-28.52,-3.84,35.74,-535,4724,6557,0,-1,0
-28.52,-3.84,35.74,-536,4727,6559,0,-1,0
-28.52,-3.84,35.74,-537,4726,6559,-1,0,-1
-28.52,-3.84,35.74,-533,4723,6579,-1,0,-1
-28.52,-3.84,35.73,-534,4719,6572,-1,0,0
-28.52,-3.84,35.73,-538,4721,6571,-1,0,0
-28.52,-3.84,35.73,-541,4717,6571,-1,0,0
-28.52,-3.84,35.72,-540,4706,6572,-1,-1,0
-28.52,-3.84,35.72,-536,4709,6571,0,0,-1
-28.52,-3.84,35.72,-541,4717,6567,0,0,-1
-28.52,-3.84,35.72,-537,4714,6569,0,0,-1
-28.52,-3.84,35.72,-543,4723,6567,0,0,-1
-28.51,-3.85,35.73,-541,4733,6554,-1,0,-1
-28.52,-3.84,35.73,-542,4727,6557,-1,0,0
-28.52,-3.84,35.72,-546,4718,6565,-1,-1,0
-28.52,-3.84,35.72,-529,4714,6561,0,0,-1
-28.52,-3.84,35.72,-541,4730,6561,0,0,0
-28.52,-3.83,35.73,-540,4734,6560,-1,-1,0
-28.52,-3.83,35.73,-539,4726,6564,0,-1,0
-28.52,-3.83,35.73,-539,4719,6566,0,-1,-1
-28.51,-3.83,35.73,-542,4710,6577,0,0,-1
-28.51,-3.84,35.74,-537,4706,6574,0,0,-1
-28.50,-3.85,35.75,-540,4720,6572,0,0,-1
-28.50,-3.85,35.75,-544,4727,6578,0,0,-1
-28.50,-3.85,35.75,-546,4723,6568,0,0,-1
-28.50,-3.85,35.75,-543,4723,6572,0,0,0
-28.50,-3.85,35.75,-544,4717,6569,0,-1,0
-28.50,-3.85,35.75,-543,4716,6574,0,0,-1
-28.49,-3.85,35.75,-544,4720,6566,0,0,-1
-28.49,-3.86,35.76,-542,4727,6574,0,0,-1
-28.49,-3.86,35.76,-544,4733,6575,0,0,-1
-28.49,-3.86,35.76,-539,4728,6572,0,0,-1
-28.49,-3.86,35.76,-541,4723,6570,0,0,0
-28.49,-3.86,35.76,-542,4725,6570,-1,0,0
-28.49,-3.87,35.75,-541,4727,6568,0,0,-1
-28.49,-3.87,35.76,-545,4727,6562,0,0,-1
-28.49,-3.88,35.76,-538,4722,6557,0,0,0
-28.49,-3.88,35.76,-545,4722,6563,-1,0,0
-28.49,-3.88,35.75,-546,4721,6577,-1,-1,0
-28.50,-3.87,35.75,-535,4727,6576,0,-1,0
-28.50,-3.87,35.76,-532,4729,6562,-1,0,0
-28.50,-3.87,35.75,-530,4734,6566,-1,0,0
-28.50,-3.88,35.74,-538,4724,6561,-1,0,-1
-28.51,-3.88,35.73,-536,4716,6567,-1,0,-1
-28.50,-3.88,35.74,-545,4717,6570,0,0,-1
-28.50,-3.89,35.74,-546,4722,6574,0,0,-1
-28.50,-3.89,35.74,-550,4727,6579,0,0,0
-28.50,-3.89,35.74,-542,4731,6576,0,0,0
-28.50,-3.89,35.74,-541,4722,6565,-1,0,0
-28.50,-3.89,35.73,-549,4720,6566,-1,0,-1
-28.50,-3.90,35.73,-547,4724,6563,-1,0,-1
-28.50,-3.90,35.73,-545,4722,6562,-1,0,-1
-28.51,-3.90,35.73,-548,4716,6572,0,0,-1
-28.51,-3.90,35.73,-544,4716,6574,0,0,0
-28.51,-3.90,35.73,-540,4716,6569,0,0,-1
-28.50,-3.90,35.74,-544,4717,6564,0,0,-1
-28.50,-3.90,35.74,-551,4717,6571,0,0,-1
-28.49,-3.91,35.74,-561,4719,6574,0,0,-1
-28.48,-3.92,35.75,-554,4720,6580,0,0,-1
-28.47,-3.93,35.76,-556,4729,6576,0,0,-1
-28.46,-3.92,35.76,-548,4724,6585,0,0,-1
-28.46,-3.92,35.77,-549,4727,6575,0,-1,-1
-28.45,-3.93,35.77,-548,4717,6576,0,-1,-1
-28.44,-3.93,35.79,-546,4715,6576,0,-1,-1
-28.43,-3.93,35.80,-546,4728,6551,0,0,-1
-28.43,-3.93,35.80,-557,4740,6554,0,-1,-1
-28.43,-3.93,35.80,-554,4734,6554,-1,-1,0
-28.42,-3.93,35.81,-558,4741,6557,-1,-1,0
-28.43,-3.93,35.80,-551,4728,6566,0,-1,0
-28.43,-3.92,35.81,-546,4719,6562,0,-1,0
-28.43,-3.92,35.81,-549,4724,6554,0,0,0
-28.43,-3.92,35.81,-548,4723,6556,-1,0,0
-28.43,-3.92,35.80,-551,4727,6563,-1,0,0
-28.43,-3.92,35.80,-549,4726,6564,-1,-1,0
-28.44,-3.92,35.79,-553,4728,6563,-1,0,0
-28.44,-3.92,35.79,-555,4726,6562,-1,-1,0
-28.45,-3.91,35.79,-558,4722,6560,0,-1,0
-28.45,-3.91,35.79,-552,4724,6560,-1,-1,0
-28.45,-3.91,35.79,-546,4726,6567,-1,0,0
-28.45,-3.91,35.79,-553,4727,6561,-1,0,0
-28.46,-3.90,35.78,-554,4729,6571,-1,-1,0
-28.46,-3.90,35.78,-557,4732,6573,-1,-1,0
-28.47,-3.89,35.78,-550,4731,6572,0,-1,0
-28.47,-3.89,35.77,-541,4732,6562,-1,-1,-1
-28.47,-3.89,35.77,-536,4734,6558,-1,0,0
-28.47,-3.89,35.77,-544,4730,6573,-1,0,0
-28.47,-3.89,35.76,-554,4718,6572,-1,0,0
-28.47,-3.89,35.76,-555,4717,6581,0,-1,-1
-28.47,-3.89,35.77,-555,4732,6567,0,-1,0
-28.47,-3.89,35.77,-556,4747,6561,0,-1,0
-28.48,-3.88,35.77,-549,4740,6554,-1,-1,0
-28.48,-3.88,35.77,-544,4732,6547,-1,-1,0
-28.48,-3.88,35.77,-540,4726,6549,-1,-1,0
-28.48,-3.87,35.77,-544,4728,6561,0,-1,-1
-28.48,-3.87,35.77,-544,4710,6565,0,0,0
-28.48,-3.87,35.77,-545,4720,6574,0,0,0
-28.48,-3.87,35.78,-549,4739,6579,0,-1,0
-28.48,-3.87,35.78,-543,4745,6569,-1,-1,0
-28.49,-3.86,35.77,-536,4729,6559,-1,-1,0
-28.49,-3.86,35.76,-537,4725,6563,-1,-1,-1
-28.49,-3.86,35.75,-539,4716,6574,0,-1,-1
-28.49,-3.86,35.75,-539,4724,6583,0,0,0
-28.49,-3.86,35.76,-544,4733,6579,0,-1,0
-28.49,-3.86,35.76,-540,4731,6576,0,0,0
-28.49,-3.86,35.76,-547,4732,6566,-1,-1,0
-28.49,-3.86,35.76,-552,4730,6562,-1,-1,0
-28.50,-3.86,35.76,-548,4727,6561,-1,-1,0
-28.50,-3.85,35.75,-550,4719,6566,-1,-1,0
-28.50,-3.85,35.75,-539,4731,6569,0,-1,-1
-28.50,-3.85,35.75,-540,4731,6575,0,0,0
-28.50,-3.85,35.75,-535,4730,6574,-1,-1,0
-28.51,-3.85,35.74,-540,4719,6572,-1,-1,0
-28.51,-3.85,35.73,-537,4714,6569,-1,-1,0
-28.51,-3.85,35.73,-535,4718,6577,0,0,-1
-28.51,-3.85,35.73,-542,4727,6576,-1,-1,0
-28.51,-3.85,35.73,-538,4727,6565,-1,0,0
-28.51,-3.84,35.73,-534,4720,6564,-1,0,0
-28.51,-3.85,35.73,-540,4718,6564,-1,0,-1
-28.51,-3.85,35.73,-540,4725,6559,-1,-1,0
-28.51,-3.85,35.73,-539,4730,6556,-1,0,0
-28.52,-3.84,35.72,-541,4733,6562,-1,-1,0
-28.52,-3.84,35.72,-536,4723,6570,-1,-1,0
-28.53,-3.83,35.72,-537,4720,6562,-1,-1,0
-28.53,-3.84,35.71,-540,4721,6563,-1,0,0
-28.53,-3.84,35.71,-539,4724,6569,-1,0,-1
-28.52,-3.84,35.72,-547,4725,6564,0,0,-1
-28.52,-3.84,35.72,-553,4721,6575,0,0,-1
-28.52,-3.84,35.72,-550,4727,6573,0,-1,0
-28.52,-3.84,35.72,-542,4730,6578,-1,-1,0
-28.52,-3.84,35.72,-533,4730,6578,0,0,0
-28.53,-3.83,35.72,-533,4727,6574,0,0,0
-28.53,-3.83,35.72,-537,4725,6572,0,0,-1
-28.53,-3.83,35.72,-542,4725,6562,-1,0,0
-28.53,-3.84,35.72,-538,4717,6558,-1,0,-1
-28.53,-3.83,35.72,-536,4720,6559,0,-1,-1
-28.53,-3.84,35.71,-540,4724,6559,-1,0,0
-28.53,-3.84,35.71,-534,4721,6565,-1,-1,0
-28.54,-3.83,35.71,-535,4713,6573,-1,0,0
-28.54,-3.83,35.71,-537,4709,6574,0,-1,-1
-28.53,-3.84,35.71,-534,4711,6567,0,0,-1
-28.53,-3.84,35.71,-539,4722,6562,0,0,0
-28.53,-3.84,35.71,-544,4724,6565,-1,-1,0
-28.53,-3.84,35.71,-543,4723,6570,0,-1,0
-28.53,-3.83,35.72,-539,4729,6574,0,0,0
-28.53,-3.83,35.72,-537,4726,6573,0,0,-1
-28.53,-3.83,35.72,-536,4720,6567,0,0,0
-28.53,-3.84,35.72,-538,4716,6560,-1,0,0
-28.53,-3.84,35.72,-545,4717,6558,-1,0,-1
-28.53,-3.84,35.72,-545,4722,6558,-1,0,-1
-28.53,-3.84,35.72,-548,4719,6563,-1,-1,0
-28.53,-3.84,35.72,-542,4717,6566,-1,0,0
-28.53,-3.84,35.72,-540,4712,6561,0,0,0
-28.53,-3.84,35.72,-540,4711,6565,0,0,-1
-28.52,-3.84,35.72,-543,4713,6566,0,0,-1
-28.52,-3.85,35.72,-543,4717,6571,0,0,-1
-28.52,-3.85,35.73,-537,4721,6573,0,-1,0
-28.52,-3.85,35.73,-535,4721,6567,0,0,-1
-28.52,-3.85,35.73,-537,4728,6563,0,0,-1
-28.51,-3.85,35.74,-539,4733,6557,0,0,-1
-28.51,-3.85,35.74,-535,4737,6565,0,0,-1
-28.51,-3.85,35.75,-544,4733,6568,0,0,0
-28.51,-3.85,35.74,-543,4720,6576,0,-1,0
-28.51,-3.85,35.74,-535,4711,6581,-1,-1,0
-28.51,-3.85,35.74,-537,4716,6570,0,-1,-1
-28.50,-3.85,35.75,-533,4723,6566,0,0,-1
-28.50,-3.85,35.75,-539,4725,6563,-1,0,-1
-28.50,-3.86,35.74,-540,4724,6566,-1,0,0
-28.50,-3.86,35.74,-543,4721,6563,0,0,0
-28.50,-3.86,35.74,-552,4722,6563,0,0,-1
-28.50,-3.86,35.74,-554,4723,6571,0,-1,-1
-28.50,-3.86,35.75,-553,4726,6566,0,0,0
-28.50,-3.86,35.75,-551,4728,6570,0,0,-1
-28.50,-3.87,35.76,-546,4726,6562,0,0,-1
-28.50,-3.87,35.76,-549,4732,6564,0,0,-1
-28.50,-3.87,35.76,-550,4733,6573,-1,0,-1
-28.49,-3.88,35.75,-558,4725,6570,-1,-1,-1
-28.50,-3.88,35.75,-556,4718,6574,0,0,0
-28.50,-3.88,35.75,-555,4722,6578,0,0,0
-28.49,-3.88,35.76,-544,4718,6573,0,0,0
-28.49,-3.88,35.77,-542,4726,6565,0,0,-1
-28.48,-3.89,35.77,-550,4725,6567,0,0,-1
-28.48,-3.89,35.77,-552,4723,6567,0,0,-1
-28.48,-3.89,35.78,-540,4723,6571,0,0,-1
-28.47,-3.89,35.79,-532,4725,6568,0,0,-1
-28.46,-3.90,35.81,-536,4738,6556,0,0,-1
-28.46,-3.90,35.82,-540,4740,6556,0,0,-1
-28.45,-3.91,35.82,-549,4730,6549,-1,0,-1
-28.45,-3.91,35.82,-551,4732,6570,0,0,-1
-28.45,-3.91,35.82,-550,4737,6565,0,0,-1
-28.45,-3.92,35.82,-551,4737,6570,-1,-1,0
-28.45,-3.91,35.81,-552,4732,6571,-1,-1,0
-28.46,-3.91,35.80,-549,4721,6569,-1,0,0
-28.46,-3.91,35.80,-542,4725,6568,-1,0,0
-28.46,-3.92,35.80,-546,4725,6559,-1,0,-1
-28.46,-3.92,35.79,-551,4735,6550,-1,0,0
-28.46,-3.93,35.78,-552,4738,6563,-1,0,0
-28.47,-3.93,35.77,-547,4730,6567,-1,0,0
-28.47,-3.92,35.77,-552,4726,6566,-1,0,-1
-28.47,-3.93,35.77,-547,4726,6558,-1,0,-1
-28.47,-3.93,35.77,-546,4733,6550,0,0,-1
-28.47,-3.93,35.78,-552,4730,6565,0,0,-1
-28.47,-3.93,35.78,-551,4740,6548,-1,0,-1
-28.47,-3.93,35.78,-551,4734,6554,0,0,-1
-28.46,-3.94,35.78,-558,4732,6560,0,0,-1
-28.46,-3.94,35.78,-556,4729,6559,0,0,-1
-28.46,-3.94,35.78,-556,4735,6563,0,0,-1
-28.45,-3.94,35.78,-554,4731,6562,0,-1,-1
-28.44,-3.95,35.79,-559,4737,6564,0,-1,-1
-28.44,-3.94,35.80,-563,4731,6560,0,-1,-1
-28.43,-3.94,35.81,-555,4731,6563,0,-1,-1
-28.43,-3.94,35.81,-557,4726,6560,0,0,-1
-28.42,-3.95,35.81,-563,4722,6562,0,-1,-1
-28.41,-3.96,35.81,-562,4725,6563,0,-1,-1
-28.41,-3.95,35.82,-564,4736,6560,0,-1,0
-28.42,-3.95,35.82,-561,4737,6559,-1,-1,0
-28.42,-3.93,35.82,-551,4736,6552,-1,-1,0
-28.42,-3.93,35.82,-538,4723,6557,0,-1,0
-28.42,-3.92,35.81,-543,4708,6566,0,-1,0
-28.42,-3.93,35.81,-548,4703,6567,0,0,-1
-28.41,-3.94,35.83,-562,4720,6562,0,0,-1
-28.41,-3.94,35.84,-559,4735,6566,0,-1,0
-28.41,-3.94,35.84,-546,4742,6561,0,0,-1
-28.41,-3.94,35.85,-553,4746,6554,0,0,0
-28.41,-3.94,35.85,-559,4756,6543,-1,-1,0
-28.42,-3.92,35.84,-562,4752,6542,-1,-1,0
-28.43,-3.91,35.83,-550,4746,6545,-1,-1,0
-28.44,-3.90,35.82,-541,4733,6553,-1,-1,0
-28.45,-3.89,35.81,-534,4725,6557,-1,0,-1
-28.45,-3.90,35.80,-537,4726,6565,-1,0,-1
-28.44,-3.90,35.80,-536,4732,6579,0,0,0
-28.44,-3.90,35.80,-547,4733,6576,0,-1,0
-28.45,-3.89,35.80,-542,4727,6567,-1,-1,0
-28.45,-3.88,35.79,-540,4731,6560,-1,-1,0
-28.46,-3.88,35.79,-535,4729,6552,-1,0,0
-28.46,-3.88,35.79,-540,4728,6560,-1,0,-1
-28.47,-3.88,35.78,-544,4722,6559,-1,0,0
-28.47,-3.88,35.78,-550,4727,6567,0,-1,0
-28.46,-3.88,35.78,-546,4736,6559,0,-1,0
-28.47,-3.87,35.79,-541,4741,6554,-1,-1,0
-28.47,-3.87,35.78,-540,4741,6558,-1,-1,0
-28.48,-3.86,35.77,-540,4732,6557,-1,-1,0
-28.49,-3.86,35.77,-535,4724,6563,-1,0,0
-28.49,-3.86,35.76,-539,4715,6569,-1,0,0
-28.50,-3.86,35.76,-541,4715,6566,-1,0,0
-28.50,-3.86,35.76,-543,4725,6573,-1,-1,0
-28.50,-3.85,35.75,-547,4727,6563,-1,-1,0
-28.50,-3.85,35.75,-548,4723,6559,-1,-1,-1
-28.50,-3.85,35.74,-555,4720,6562,-1,0,-1
-28.51,-3.85,35.74,-553,4722,6562,-1,0,0
-28.51,-3.85,35.74,-551,4724,6568,0,-1,0
-28.51,-3.85,35.74,-552,4724,6565,0,-1,0
-28.51,-3.85,35.74,-549,4718,6556,0,-1,0
-28.51,-3.85,35.74,-542,4723,6556,-1,0,0
-28.52,-3.85,35.74,-545,4725,6556,-1,0,0
-28.52,-3.85,35.74,-540,4727,6563,-1,-1,-1
-28.52,-3.85,35.73,-536,4728,6568,-1,0,0
-28.52,-3.85,35.73,-544,4721,6573,-1,-1,0
-28.52,-3.84,35.73,-543,4717,6579,0,-1,0
-28.53,-3.84,35.73,-532,4724,6577,0,-1,0
-28.53,-3.83,35.74,-533,4723,6560,0,0,0
-28.53,-3.83,35.74,-529,4721,6556,-1,0,-1
-28.52,-3.84,35.74,-538,4722,6552,-1,0,0
-28.53,-3.84,35.73,-547,4719,6563,0,-1,-1
-28.53,-3.84,35.73,-543,4723,6560,0,0,-1
-28.53,-3.84,35.73,-545,4729,6566,-1,-1,0
-28.53,-3.84,35.73,-547,4730,6574,-1,-1,0
-28.54,-3.83,35.73,-530,4721,6559,-1,-1,0
-28.54,-3.83,35.72,-525,4715,6570,-1,0,-1
-28.54,-3.83,35.72,-532,4711,6575,-1,0,-1
-28.54,-3.83,35.71,-535,4716,6571,0,0,-1
-28.54,-3.84,35.72,-544,4720,6576,0,0,0
-28.53,-3.84,35.72,-550,4724,6574,0,-1,0
-28.54,-3.83,35.72,-546,4717,6568,0,-1,0
-28.54,-3.83,35.73,-537,4715,6556,0,-1,0
-28.54,-3.83,35.73,-538,4719,6554,0,-1,0
-28.54,-3.83,35.73,-532,4721,6560,-1,-1,-1
-28.54,-3.83,35.72,-542,4719,6565,-1,0,-1
-28.54,-3.83,35.72,-539,4724,6570,-1,0,-1
-28.54,-3.83,35.72,-539,4724,6570,-1,0,0
-28.54,-3.83,35.71,-541,4719,6569,-1,-1,0
-28.55,-3.82,35.71,-530,4716,6578,-1,-1,0
-28.55,-3.82,35.71,-536,4712,6587,0,-1,0
-28.55,-3.83,35.71,-541,4711,6581,0,0,-1
-28.55,-3.83,35.71,-547,4714,6578,0,0,-1
-28.55,-3.82,35.71,-543,4722,6569,0,0,0
-28.55,-3.82,35.71,-543,4723,6571,0,0,0
-28.55,-3.82,35.71,-539,4720,6571,0,-1,0
-28.54,-3.82,35.72,-536,4722,6565,0,-1,-1
-28.55,-3.82,35.73,-537,4725,6567,0,0,0
-28.55,-3.82,35.72,-536,4730,6564,-1,0,0
-28.54,-3.82,35.72,-536,4722,6565,-1,0,0
-28.54,-3.82,35.72,-537,4717,6559,0,-1,0
-28.55,-3.82,35.72,-536,4726,6564,0,0,-1
-28.55,-3.82,35.73,-530,4729,6568,0,0,-1
-28.55,-3.82,35.72,-530,4728,6581,-1,0,0
-28.55,-3.82,35.72,-536,4723,6579,-1,0,0
-28.55,-3.82,35.72,-537,4718,6568,0,0,-1
-28.54,-3.82,35.72,-537,4714,6565,0,0,-1
-28.55,-3.82,35.72,-537,4716,6563,0,0,-1
-28.54,-3.82,35.72,-541,4721,6580,0,0,0
-28.54,-3.82,35.72,-544,4720,6577,-1,-1,-1
-28.54,-3.82,35.72,-540,4718,6574,0,-1,0
-28.54,-3.82,35.72,-547,4719,6579,0,-1,-1
-28.54,-3.82,35.72,-540,4726,6570,0,-1,0
-28.54,-3.82,35.72,-534,4727,6570,0,0,0
-28.54,-3.82,35.72,-535,4722,6569,0,0,-1
-28.54,-3.83,35.72,-538,4723,6557,0,0,-1
-28.54,-3.83,35.72,-546,4721,6561,-1,0,0
-28.54,-3.83,35.72,-552,4724,6564,-1,-1,0
-28.54,-3.82,35.72,-542,4715,6573,-1,-1,0
-28.55,-3.82,35.71,-538,4710,6575,-1,0,0
-28.55,-3.82,35.71,-534,4710,6575,-1,0,-1
-28.55,-3.82,35.71,-535,4706,6573,0,0,-1
-28.54,-3.83,35.71,-537,4710,6570,0,0,-1
-28.54,-3.83,35.71,-546,4726,6573,0,0,-1
-28.53,-3.84,35.72,-552,4729,6580,0,-1,0
-28.54,-3.83,35.72,-550,4724,6573,0,-1,0
-28.54,-3.83,35.72,-543,4718,6567,0,-1,0
-28.54,-3.83,35.73,-538,4720,6564,0,0,-1
-28.54,-3.83,35.73,-542,4727,6568,0,0,-1
-28.54,-3.83,35.73,-542,4724,6569,-1,0,-1
-28.54,-3.83,35.72,-548,4722,6573,-1,0,0
-28.54,-3.83,35.72,-540,4715,6580,-1,0,0
-28.54,-3.83,35.71,-541,4710,6583,0,0,0
-28.54,-3.83,35.71,-541,4717,6573,0,0,0
-28.54,-3.83,35.71,-533,4713,6571,-1,0,0
-28.54,-3.83,35.71,-533,4710,6575,-1,0,-1
-28.54,-3.84,35.72,-538,4720,6564,0,0,-1
-28.54,-3.84,35.72,-542,4728,6565,0,0,-1
-28.54,-3.84,35.72,-542,4727,6565,0,0,0
-28.54,-3.84,35.72,-540,4720,6569,0,0,-1
-28.54,-3.84,35.72,-541,4721,6570,0,0,-1
-28.53,-3.84,35.72,-540,4720,6569,0,0,0
-28.54,-3.84,35.72,-533,4724,6563,0,0,0
-28.54,-3.84,35.73,-541,4727,6559,0,0,-1
-28.54,-3.84,35.73,-539,4726,6564,0,0,-1
-28.53,-3.85,35.74,-543,4728,6566,0,0,-1
-28.53,-3.85,35.74,-541,4726,6564,0,0,-1
-28.52,-3.85,35.74,-532,4726,6562,0,-1,-1
-28.52,-3.85,35.74,-535,4726,6561,0,0,-1
-28.52,-3.85,35.74,-535,4712,6556,0,-1,-1
-28.52,-3.85,35.74,-542,4722,6556,-1,0,0
-28.52,-3.85,35.74,-548,4717,6566,0,-1,-1
-28.52,-3.85,35.75,-541,4724,6556,0,0,-1
-28.51,-3.86,35.75,-550,4726,6563,0,0,-1
-28.51,-3.86,35.75,-549,4729,6570,-1,-1,0
-28.52,-3.86,35.75,-552,4729,6565,-1,-1,0
-28.52,-3.85,35.74,-547,4725,6568,0,-1,0
-28.52,-3.85,35.74,-534,4724,6566,0,-1,-1
-28.52,-3.85,35.74,-533,4714,6565,-1,0,-1
-28.52,-3.85,35.74,-538,4711,6571,0,0,-1
-28.51,-3.86,35.75,-549,4717,6573,0,0,-1
-28.50,-3.86,35.75,-549,4725,6570,0,0,-1
-28.50,-3.87,35.76,-551,4731,6565,0,-1,0
-28.50,-3.86,35.76,-549,4736,6569,0,-1,0
-28.50,-3.86,35.77,-551,4729,6559,0,-1,-1
-28.50,-3.86,35.77,-540,4731,6559,0,-1,-1
-28.49,-3.86,35.78,-541,4736,6558,0,0,-1
-28.49,-3.86,35.78,-547,4733,6561,-1,0,-1
-28.49,-3.87,35.77,-545,4725,6554,-1,0,-1
-28.49,-3.87,35.77,-545,4722,6569,-1,-1,0
-28.49,-3.86,35.76,-542,4723,6567,-1,-1,0
-28.50,-3.86,35.76,-541,4720,6566,-1,-1,0
-28.51,-3.86,35.75,-542,4717,6567,0,-1,-1
-28.50,-3.86,35.75,-540,4727,6567,-1,0,-1
-28.50,-3.86,35.75,-547,4726,6561,-1,0,-1
-28.51,-3.86,35.75,-545,4727,6568,-1,0,0
-28.51,-3.85,35.74,-549,4728,6575,-1,-1,0
-28.51,-3.85,35.74,-544,4725,6576,0,-1,0
-28.51,-3.85,35.74,-543,4727,6564,0,-1,0
-28.52,-3.85,35.74,-549,4732,6567,-1,-1,0
-28.52,-3.84,35.74,-542,4729,6563,-1,-1,0
-28.52,-3.84,35.73,-541,4720,6562,-1,0,0
-28.53,-3.84,35.72,-548,4714,6561,-1,0,0
-28.53,-3.84,35.72,-550,4714,6566,0,-1,0
-28.53,-3.84,35.72,-547,4719,6569,0,0,0
-28.54,-3.84,35.72,-549,4717,6570,-1,-1,0
-28.54,-3.84,35.72,-545,4720,6566,-1,-1,0
-28.54,-3.83,35.71,-541,4717,6562,0,0,0
-28.53,-3.84,35.72,-541,4716,6556,0,0,-1
-28.53,-3.84,35.72,-534,4722,6568,0,0,-1
-28.53,-3.84,35.72,-538,4723,6564,0,0,-1
-28.53,-3.85,35.73,-535,4729,6587,0,0,0
-28.53,-3.85,35.74,-541,4720,6567,0,-1,0
-28.53,-3.84,35.75,-533,4724,6563,0,-1,-1
-28.52,-3.85,35.75,-532,4725,6567,-1,0,-1
-28.52,-3.85,35.74,-548,4727,6561,-1,0,-1
-28.53,-3.85,35.74,-547,4748,6565,-1,-1,0
-28.53,-3.85,35.73,-563,4748,6569,-1,-1,0
-28.54,-3.84,35.72,-560,4734,6581,-1,-1,0
-28.55,-3.82,35.71,-538,4716,6568,-1,-1,0
-28.55,-3.82,35.71,-529,4706,6567,0,0,-1
-28.55,-3.82,35.70,-532,4705,6568,0,0,-1
-28.55,-3.83,35.71,-534,4715,6569,0,0,-1
-28.55,-3.83,35.71,-545,4723,6566,0,0,0
-28.55,-3.83,35.72,-541,4723,6567,-1,-1,0
-28.55,-3.82,35.70,-540,4717,6570,-1,-1,0
-28.55,-3.82,35.70,-539,4715,6571,-1,-1,0
-28.55,-3.82,35.70,-535,4715,6576,-1,0,0
-28.57,-3.82,35.70,-534,4719,6573,-1,0,0
-28.57,-3.82,35.70,-531,4723,6570,-1,0,0
-28.57,-3.82,35.70,-540,4716,6573,0,0,0
-28.57,-3.82,35.70,-536,4726,6561,0,0,0
-28.56,-3.82,35.70,-539,4722,6564,-1,0,0
-28.56,-3.82,35.70,-544,4718,6568,-1,-1,0
-28.56,-3.82,35.70,-544,4715,6568,0,0,-1
-28.56,-3.82,35.70,-546,4724,6571,0,0,0
-28.56,-3.82,35.70,-543,4731,6570,-1,0,0
-28.56,-3.82,35.70,-543,4728,6560,-1,-1,-1
-28.56,-3.82,35.70,-540,4730,6574,0,-1,0
-28.56,-3.82,35.70,-543,4724,6571,0,0,-1
-28.56,-3.82,35.70,-541,4724,6573,-1,0,-1
-28.57,-3.83,35.69,-544,4718,6576,-1,-1,0
-28.57,-3.83,35.69,-543,4721,6567,0,0,0
-28.57,-3.83,35.69,-543,4719,6574,0,0,0
-28.57,-3.82,35.69,-535,4716,6571,0,-1,0
-28.57,-3.82,35.69,-532,4715,6574,0,0,0
-28.57,-3.82,35.69,-534,4718,6574,0,0,0
-28.57,-3.82,35.70,-535,4717,6563,0,0,-1
-28.56,-3.82,35.70,-535,4718,6559,0,0,-1
-28.56,-3.82,35.70,-543,4724,6565,-1,-1,0
-28.57,-3.82,35.70,-536,4723,6572,0,0,0
-28.57,-3.82,35.69,-550,4716,6576,-1,0,0
-28.57,-3.82,35.69,-539,4717,6578,0,-1,-1
-28.56,-3.82,35.70,-540,4725,6569,0,0,-1
-28.56,-3.82,35.70,-541,4722,6573,-1,-1,0
-28.57,-3.82,35.70,-537,4729,6569,0,-1,0
-28.56,-3.82,35.70,-542,4722,6556,0,0,-1
-28.56,-3.82,35.70,-542,4722,6562,-1,0,-1
-28.56,-3.82,35.70,-543,4726,6569,-1,0,-1
-28.56,-3.82,35.70,-551,4726,6576,-1,0,0
-28.57,-3.83,35.69,-559,4724,6577,-1,-1,0
-28.57,-3.82,35.70,-548,4724,6577,0,-1,0
-28.57,-3.82,35.70,-533,4723,6574,0,0,-1
-28.57,-3.82,35.70,-533,4722,6562,0,0,-1
-28.57,-3.82,35.70,-535,4721,6555,-1,0,-1
-28.56,-3.83,35.69,-546,4721,6565,0,0,-1
-28.56,-3.84,35.70,-553,4726,6574,0,0,0
-28.56,-3.84,35.70,-547,4722,6574,0,-1,0
-28.56,-3.83,35.69,-541,4713,6582,0,-1,0
-28.56,-3.83,35.69,-536,4709,6591,0,0,0
-28.56,-3.83,35.69,-540,4711,6571,0,0,-1
-28.56,-3.84,35.70,-545,4721,6562,0,0,-1
-28.56,-3.84,35.70,-548,4727,6564,0,0,-1
-28.55,-3.84,35.71,-549,4736,6556,0,0,-1
-28.56,-3.84,35.71,-546,4727,6563,-1,0,0
-28.56,-3.84,35.70,-536,4719,6560,-1,-1,-1
-28.56,-3.84,35.70,-537,4716,6570,-1,0,0
-28.56,-3.84,35.70,-533,4715,6576,0,-1,-1
-28.56,-3.84,35.70,-534,4715,6570,0,0,-1
-28.56,-3.84,35.70,-540,4716,6573,0,0,-1
-28.56,-3.85,35.70,-544,4714,6565,-1,0,-1
-28.56,-3.85,35.70,-548,4718,6570,0,0,0
-28.56,-3.84,35.70,-543,4720,6574,0,0,0
-28.56,-3.84,35.70,-533,4718,6568,0,-1,-1
-28.56,-3.84,35.71,-536,4722,6560,0,0,0
-28.56,-3.84,35.71,-538,4721,6571,-1,0,-1
-28.57,-3.84,35.71,-539,4722,6576,-1,0,0
-28.57,-3.84,35.70,-543,4717,6576,-1,0,0
-28.57,-3.84,35.70,-551,4722,6571,-1,0,0
-28.57,-3.85,35.69,-548,4723,6571,-1,-1,0
-28.58,-3.84,35.69,-540,4719,6573,-1,0,-1
-28.58,-3.84,35.69,-543,4720,6576,0,0,0
-28.58,-3.84,35.69,-539,4715,6568,0,0,0
-28.58,-3.84,35.69,-551,4711,6577,0,0,0
-28.58,-3.85,35.70,-548,4716,6578,0,0,0
-28.58,-3.85,35.70,-549,4719,6575,-1,0,0
-28.58,-3.85,35.69,-542,4717,6575,0,0,0
-28.58,-3.85,35.70,-539,4717,6571,0,0,0
-28.58,-3.85,35.70,-540,4719,6563,0,0,-1
-28.58,-3.85,35.70,-540,4723,6563,0,0,0
-28.58,-3.85,35.70,-540,4723,6571,0,-1,0
-28.58,-3.85,35.71,-534,4710,6557,0,0,0
-28.57,-3.85,35.72,-545,4717,6561,0,0,-1
-28.56,-3.86,35.73,-532,4728,6557,0,0,-1
-28.56,-3.86,35.74,-543,4739,6550,0,0,-1
-28.55,-3.87,35.74,-558,4737,6560,-1,-1,-1
-28.55,-3.87,35.73,-556,4725,6571,-1,-1,0
-28.56,-3.86,35.72,-545,4726,6569,-1,-1,0
-28.56,-3.86,35.72,-541,4720,6573,0,0,-1
-28.56,-3.86,35.73,-532,4718,6565,0,0,-1
-28.55,-3.87,35.73,-539,4725,6559,0,0,-1
-28.55,-3.87,35.74,-545,4729,6560,0,0,-1
-28.54,-3.89,35.74,-556,4724,6553,-1,0,-1
-28.54,-3.89,35.74,-559,4724,6554,-1,-1,-1
-28.54,-3.89,35.74,-560,4729,6556,-1,-1,0
-28.54,-3.88,35.73,-551,4717,6569,0,-1,0
-28.54,-3.87,35.74,-535,4719,6570,0,-1,0
-28.54,-3.87,35.74,-535,4721,6577,0,0,-1
-28.53,-3.88,35.75,-539,4722,6567,0,0,-1
-28.52,-3.88,35.76,-542,4723,6561,0,0,-1
-28.51,-3.89,35.76,-556,4728,6563,0,0,-1
-28.52,-3.89,35.77,-560,4731,6574,0,-1,0
-28.51,-3.88,35.78,-554,4735,6568,0,-1,0
-28.50,-3.88,35.79,-544,4739,6574,0,-1,-1
-28.50,-3.88,35.79,-546,4734,6558,0,-1,-1
-28.50,-3.88,35.79,-551,4728,6560,-1,-1,0
-28.50,-3.88,35.78,-548,4724,6558,-1,0,-1
-28.50,-3.88,35.78,-552,4724,6560,-1,-1,-1
-28.51,-3.88,35.78,-554,4731,6571,-1,0,-1
-28.50,-3.88,35.78,-552,4726,6574,-1,-1,0
-28.50,-3.87,35.77,-550,4729,6573,-1,-1,0
-28.51,-3.87,35.77,-543,4722,6576,-1,-1,0
-28.51,-3.87,35.77,-542,4711,6571,0,0,-1
-28.51,-3.87,35.77,-545,4716,6565,0,0,-1
-28.50,-3.87,35.77,-553,4729,6558,0,0,0
-28.51,-3.88,35.77,-560,4724,6554,-1,-1,0
-28.51,-3.87,35.77,-553,4731,6554,-1,-1,0
-28.51,-3.87,35.77,-546,4732,6552,-1,-1,0
-28.52,-3.86,35.76,-549,4733,6550,-1,-1,0
-28.52,-3.86,35.76,-545,4733,6552,-1,-1,0
-28.52,-3.86,35.76,-544,4728,6555,-1,0,0
-28.53,-3.86,35.76,-543,4729,6566,-1,-1,0
-28.53,-3.85,35.75,-547,4729,6559,-1,0,0
-28.54,-3.86,35.75,-554,4733,6559,-1,-1,0
-28.54,-3.85,35.75,-549,4728,6572,-1,0,0
-28.54,-3.86,35.74,-545,4729,6566,-1,0,0
-28.55,-3.85,35.74,-540,4730,6564,-1,0,0
-28.55,-3.85,35.74,-547,4719,6566,-1,0,0
-28.56,-3.85,35.74,-540,4722,6569,0,0,0
-28.56,-3.85,35.74,-536,4726,6569,-1,0,0
-28.56,-3.85,35.74,-540,4725,6567,-1,0,0
-28.56,-3.84,35.74,-538,4731,6571,-1,0,0
-28.57,-3.84,35.73,-545,4721,6572,-1,-1,0
-28.58,-3.84,35.73,-538,4721,6568,0,-1,0
-28.58,-3.84,35.73,-543,4726,6555,-1,0,0
-28.58,-3.84,35.73,-550,4726,6556,-1,-1,0
-28.58,-3.84,35.72,-542,4715,6562,-1,-1,0
-28.58,-3.84,35.72,-539,4717,6566,-1,0,0
-28.59,-3.83,35.71,-537,4715,6572,0,-1,0
-28.60,-3.83,35.71,-538,4714,6563,0,-1,0
-28.60,-3.83,35.71,-536,4721,6563,-1,0,0
-28.60,-3.83,35.71,-537,4724,6568,-1,0,-1
-28.60,-3.83,35.71,-541,4722,6571,-1,0,-1
-28.60,-3.83,35.71,-546,4725,6558,0,-1,0
-28.60,-3.83,35.71,-546,4731,6566,-1,-1,0
-28.61,-3.82,35.71,-539,4729,6570,-1,-1,0
-28.61,-3.82,35.71,-532,4724,6558,-1,-1,0
-28.61,-3.82,35.70,-529,4714,6555,-1,0,-1
-28.61,-3.82,35.70,-533,4712,6567,-1,0,-1
-28.61,-3.83,35.70,-540,4705,6575,0,0,-1
-28.61,-3.83,35.70,-548,4718,6580,0,-1,-1
-28.61,-3.83,35.70,-551,4724,6586,0,-1,0
-28.61,-3.82,35.70,-550,4720,6580,0,-1,0
-28.61,-3.82,35.70,-548,4718,6566,0,0,0
-28.61,-3.82,35.71,-539,4714,6555,0,-1,0
-28.61,-3.82,35.71,-530,4722,6557,0,0,-1
-28.61,-3.82,35.71,-535,4721,6561,-1,0,0
-28.61,-3.82,35.71,-544,4723,6570,-1,-1,0
-28.62,-3.82,35.71,-539,4728,6579,-1,-1,0
-28.62,-3.82,35.70,-546,4720,6585,-1,-1,0
-28.62,-3.82,35.70,-540,4716,6584,0,-1,-1
-28.61,-3.82,35.70,-538,4718,6575,0,0,-1
-28.61,-3.82,35.70,-540,4716,6575,-1,0,-1
-28.62,-3.82,35.70,-539,4716,6567,0,0,0
-28.61,-3.82,35.70,-542,4718,6564,0,0,0
-28.61,-3.82,35.70,-541,4710,6572,0,-1,0
-28.61,-3.82,35.70,-539,4709,6567,0,-1,0
-28.62,-3.82,35.71,-545,4717,6566,0,0,0
-28.62,-3.82,35.70,-536,4720,6573,-1,0,0
-28.62,-3.82,35.70,-536,4716,6571,-1,0,-1
-28.62,-3.82,35.70,-539,4714,6574,-1,-1,-1
-28.62,-3.82,35.70,-539,4716,6577,-1,-1,0
-28.62,-3.82,35.70,-538,4714,6571,-1,-1,0
-28.62,-3.81,35.69,-528,4706,6577,0,0,-1
-28.62,-3.81,35.69,-535,4710,6570,0,0,-1
-28.62,-3.82,35.70,-541,4722,6566,0,0,-1
-28.62,-3.82,35.70,-537,4725,6564,-1,0,-1
-28.62,-3.82,35.70,-540,4720,6565,-1,0,-1
-28.62,-3.82,35.69,-541,4718,6574,-1,0,0
-28.62,-3.82,35.69,-532,4709,6574,-1,0,0
-28.62,-3.81,35.69,-535,4708,6579,0,-1,-1
-28.62,-3.82,35.70,-536,4715,6571,0,0,-1
-28.62,-3.82,35.70,-541,4727,6578,0,0,-1
-28.61,-3.82,35.70,-537,4727,6563,-1,0,-1
-28.61,-3.82,35.70,-535,4723,6566,0,0,-1
-28.61,-3.83,35.70,-544,4720,6568,0,0,-1
-28.61,-3.83,35.70,-544,4719,6564,0,0,-1
-28.60,-3.83,35.71,-552,4729,6555,0,0,0
-28.61,-3.83,35.71,-549,4730,6565,-1,-1,0
-28.61,-3.82,35.70,-536,4727,6565,-1,-1,0
-28.61,-3.82,35.70,-528,4716,6568,-1,0,0
-28.61,-3.82,35.70,-518,4707,6576,0,0,-1
-28.61,-3.83,35.69,-531,4703,6575,0,0,-1
