Yaw,Pitch,Roll,AX,AY,AZ,GX,GY,GZ
177.74,-3.11,-42.65,-441,-5609,6104,-1,0,-1
177.74,-3.11,-42.65,-437,-5613,6109,-1,-1,-1
177.74,-3.10,-42.65,-434,-5613,6100,-1,0,-1
177.74,-3.10,-42.66,-438,-5613,6090,-1,0,0
177.74,-3.11,-42.67,-448,-5621,6084,0,0,-1
177.74,-3.11,-42.66,-441,-5623,6089,0,0,-1
177.74,-3.11,-42.66,-453,-5627,6092,0,-1,-1
177.74,-3.11,-42.66,-451,-5631,6100,0,-1,-1
177.75,-3.10,-42.66,-454,-5623,6102,0,-1,-1
177.75,-3.10,-42.65,-447,-5617,6101,0,-1,-1
177.75,-3.10,-42.65,-440,-5621,6108,0,0,-1
177.75,-3.10,-42.65,-442,-5621,6107,-1,0,-1
177.76,-3.10,-42.65,-435,-5618,6108,-1,0,-1
177.76,-3.10,-42.66,-436,-5620,6111,-1,0,-1
177.76,-3.10,-42.66,-449,-5614,6110,-1,0,-1
177.76,-3.10,-42.67,-449,-5622,6104,-1,0,-1
177.76,-3.09,-42.67,-453,-5627,6099,-1,-1,-1
177.76,-3.09,-42.67,-454,-5629,6088,0,0,-1
177.76,-3.10,-42.67,-449,-5619,6090,0,0,-1
177.76,-3.09,-42.68,-441,-5623,6099,0,0,-1
177.77,-3.09,-42.67,-442,-5626,6101,0,0,0
177.77,-3.09,-42.67,-442,-5621,6103,0,-1,0
177.77,-3.09,-42.67,-444,-5610,6103,-1,0,0
177.76,-3.09,-42.68,-449,-5608,6094,-1,0,0
177.76,-3.10,-42.68,-448,-5622,6091,-1,0,0
177.76,-3.10,-42.68,-444,-5633,6089,0,0,0
177.76,-3.10,-42.68,-440,-5615,6093,0,-1,0
177.76,-3.10,-42.68,-435,-5607,6100,0,-1,0
177.75,-3.10,-42.68,-438,-5615,6103,-1,0,0
177.75,-3.11,-42.68,-447,-5617,6096,0,0,0
177.75,-3.11,-42.68,-447,-5624,6105,0,0,0
177.75,-3.11,-42.67,-456,-5621,6103,-1,0,-1
177.75,-3.12,-42.68,-460,-5625,6094,0,0,-1
177.75,-3.12,-42.67,-458,-5630,6092,0,-1,-1
177.76,-3.11,-42.67,-453,-5631,6095,0,-1,-1
177.76,-3.11,-42.65,-444,-5620,6099,0,-1,-1
177.76,-3.11,-42.65,-436,-5615,6101,0,-1,0
177.76,-3.11,-42.65,-444,-5602,6104,0,0,0
177.76,-3.11,-42.64,-442,-5603,6090,0,0,0
177.76,-3.11,-42.65,-443,-5609,6096,-1,-1,-1
177.76,-3.11,-42.65,-450,-5621,6093,0,0,-1
177.75,-3.12,-42.65,-462,-5627,6098,0,-1,0
177.75,-3.12,-42.65,-458,-5628,6101,0,-1,0
177.75,-3.11,-42.64,-450,-5631,6101,0,-1,0
177.75,-3.11,-42.64,-445,-5630,6095,0,0,-1
177.75,-3.11,-42.63,-445,-5620,6113,0,0,0
177.75,-3.11,-42.62,-449,-5604,6116,-1,0,0
177.75,-3.12,-42.62,-444,-5602,6110,0,0,0
177.75,-3.12,-42.62,-445,-5606,6115,-1,-1,0
177.75,-3.13,-42.63,-451,-5609,6120,-1,0,-1
177.75,-3.12,-42.63,-444,-5615,6118,-1,0,-1
177.75,-3.13,-42.65,-448,-5616,6109,-1,0,0
177.75,-3.13,-42.65,-451,-5612,6099,-1,0,0
177.75,-3.13,-42.66,-448,-5616,6090,-1,0,0
177.75,-3.14,-42.66,-452,-5621,6080,0,0,0
177.74,-3.14,-42.67,-456,-5632,6078,0,0,0
177.74,-3.15,-42.66,-468,-5637,6082,0,-1,0
177.74,-3.15,-42.65,-463,-5643,6080,0,-1,0
177.74,-3.14,-42.65,-464,-5628,6092,0,-1,-1
177.74,-3.14,-42.63,-454,-5625,6098,0,-1,0
177.74,-3.14,-42.62,-449,-5610,6104,0,-1,0
177.74,-3.13,-42.61,-439,-5602,6102,0,-1,0
177.74,-3.13,-42.61,-438,-5600,6095,-1,0,0
177.74,-3.13,-42.61,-435,-5601,6093,0,0,0
177.74,-3.14,-42.61,-448,-5612,6107,-1,0,-1
177.74,-3.14,-42.61,-454,-5616,6100,0,0,0
177.74,-3.14,-42.61,-461,-5618,6095,0,-1,0
177.73,-3.14,-42.61,-457,-5623,6082,0,-1,0
177.73,-3.14,-42.60,-454,-5620,6086,0,-1,0
177.73,-3.14,-42.59,-446,-5616,6087,0,-1,-1
177.73,-3.13,-42.59,-444,-5612,6093,0,-1,0
177.73,-3.13,-42.58,-440,-5610,6105,0,-1,0
177.73,-3.13,-42.57,-438,-5597,6121,0,-1,0
177.73,-3.13,-42.57,-438,-5594,6116,0,0,0
177.73,-3.13,-42.57,-447,-5599,6112,-1,0,0
177.73,-3.14,-42.58,-454,-5622,6107,0,0,-1
177.73,-3.13,-42.58,-447,-5617,6101,0,-1,0
177.73,-3.13,-42.57,-439,-5603,6106,0,-1,0
177.73,-3.14,-42.56,-439,-5600,6112,0,0,0
177.73,-3.14,-42.56,-446,-5609,6108,0,0,0
177.72,-3.14,-42.56,-454,-5614,6108,0,0,0
177.72,-3.15,-42.56,-464,-5608,6112,0,0,-1
177.72,-3.15,-42.56,-459,-5614,6112,0,0,-1
177.72,-3.15,-42.55,-458,-5615,6106,0,0,-1
177.72,-3.15,-42.55,-461,-5614,6108,0,-1,0
177.72,-3.15,-42.55,-457,-5611,6102,0,-1,-1
177.72,-3.14,-42.54,-450,-5606,6096,0,-1,0
177.72,-3.14,-42.53,-445,-5594,6106,0,0,0
177.72,-3.15,-42.53,-444,-5598,6103,0,0,0
177.72,-3.15,-42.53,-446,-5599,6105,0,0,0
177.72,-3.15,-42.53,-448,-5603,6112,-1,0,0
177.71,-3.16,-42.53,-460,-5603,6108,0,0,0
177.71,-3.16,-42.53,-460,-5605,6100,0,-1,0
177.71,-3.16,-42.53,-467,-5607,6099,0,-1,0
177.71,-3.16,-42.53,-463,-5615,6108,0,0,0
177.71,-3.16,-42.52,-459,-5616,6116,0,0,0
177.71,-3.16,-42.51,-458,-5611,6124,0,-1,0
177.71,-3.16,-42.51,-462,-5606,6116,0,0,0
177.71,-3.16,-42.50,-452,-5602,6119,0,-1,0
177.71,-3.16,-42.50,-450,-5600,6124,0,-1,0
177.71,-3.16,-42.50,-443,-5602,6116,-1,0,0
177.71,-3.16,-42.50,-445,-5594,6118,-1,0,0
177.71,-3.16,-42.50,-443,-5600,6122,-1,0,0
177.71,-3.17,-42.50,-448,-5599,6103,-1,0,0
177.70,-3.17,-42.51,-454,-5604,6098,0,0,0
177.71,-3.17,-42.50,-457,-5606,6098,0,0,0
177.70,-3.17,-42.50,-462,-5609,6100,0,-1,0
177.70,-3.17,-42.50,-467,-5610,6104,0,-1,-1
177.70,-3.17,-42.50,-466,-5610,6120,0,-1,-1
177.70,-3.16,-42.49,-462,-5604,6118,0,-1,0
177.70,-3.16,-42.49,-458,-5593,6118,0,-1,0
177.70,-3.16,-42.49,-455,-5585,6105,-1,-1,0
177.70,-3.16,-42.49,-457,-5592,6116,0,-1,-1
177.70,-3.16,-42.48,-460,-5589,6121,-1,-1,-1
177.70,-3.16,-42.49,-465,-5598,6128,-1,-1,-1
177.70,-3.16,-42.49,-457,-5594,6121,0,-1,0
177.70,-3.15,-42.49,-460,-5592,6123,-1,-1,-1
177.70,-3.15,-42.49,-456,-5594,6120,-1,-1,0
177.70,-3.15,-42.49,-449,-5594,6123,-1,-1,-1
177.71,-3.14,-42.49,-449,-5604,6119,-1,-1,-1
177.71,-3.14,-42.49,-451,-5601,6118,0,0,-1
177.70,-3.14,-42.49,-451,-5596,6109,0,-1,0
177.70,-3.13,-42.49,-453,-5590,6115,-1,-1,0
177.70,-3.13,-42.49,-450,-5598,6107,-1,0,-1
177.70,-3.14,-42.50,-457,-5606,6105,-1,0,0
177.70,-3.14,-42.50,-451,-5603,6115,-1,0,-1
177.70,-3.13,-42.51,-449,-5602,6119,-1,-1,-1
177.71,-3.13,-42.51,-450,-5601,6115,-1,-1,-1
177.71,-3.13,-42.51,-443,-5604,6113,-1,-1,-1
177.71,-3.13,-42.51,-441,-5599,6113,0,-1,-1
177.71,-3.12,-42.51,-429,-5599,6122,-1,-1,0
177.71,-3.12,-42.51,-436,-5603,6115,-1,0,0
177.71,-3.12,-42.52,-438,-5595,6101,-1,0,-1
177.72,-3.12,-42.52,-441,-5600,6105,-1,0,-1
177.72,-3.12,-42.53,-445,-5608,6102,-1,0,-1
177.72,-3.12,-42.53,-452,-5610,6102,-1,-1,-1
177.72,-3.12,-42.54,-448,-5609,6100,-1,-1,0
177.72,-3.12,-42.55,-445,-5610,6094,0,0,0
177.72,-3.12,-42.54,-443,-5614,6101,0,0,-1
177.72,-3.12,-42.54,-447,-5612,6115,0,-1,-1
177.72,-3.11,-42.54,-450,-5608,6118,0,-1,-1
177.72,-3.11,-42.54,-454,-5609,6110,-1,-1,-1
177.73,-3.11,-42.54,-446,-5600,6108,0,-1,-1
177.73,-3.11,-42.54,-437,-5598,6099,0,-1,-1
177.73,-3.11,-42.55,-442,-5603,6102,-1,0,0
177.73,-3.11,-42.55,-441,-5605,6103,-1,0,0
177.73,-3.11,-42.55,-445,-5610,6100,-1,0,0
177.73,-3.11,-42.56,-451,-5613,6095,-1,0,0
177.72,-3.11,-42.56,-460,-5609,6094,-1,0,-1
177.73,-3.11,-42.57,-453,-5608,6099,-1,-1,-1
177.73,-3.11,-42.57,-457,-5615,6105,-1,-1,-1
177.73,-3.11,-42.57,-452,-5619,6100,0,-1,-1
177.73,-3.10,-42.57,-443,-5611,6105,0,0,0
177.73,-3.10,-42.57,-441,-5611,6112,0,-1,0
177.73,-3.10,-42.57,-448,-5606,6116,0,-1,-1
177.73,-3.10,-42.57,-453,-5599,6112,-1,-1,-1
177.74,-3.10,-42.58,-445,-5605,6101,-1,0,-1
177.74,-3.10,-42.58,-438,-5607,6094,-1,-1,0
177.74,-3.10,-42.58,-444,-5605,6102,-1,0,0
177.73,-3.11,-42.59,-450,-5610,6089,-1,0,0
177.73,-3.11,-42.59,-451,-5620,6091,-1,0,-1
177.74,-3.10,-42.59,-454,-5614,6090,0,-1,-1
177.74,-3.10,-42.59,-444,-5604,6104,0,-1,-1
177.74,-3.10,-42.59,-440,-5602,6112,-1,-1,0
177.74,-3.10,-42.59,-441,-5605,6116,-1,0,0
177.74,-3.10,-42.59,-442,-5613,6103,-1,0,0
177.74,-3.10,-42.59,-436,-5604,6096,-1,0,-1
177.74,-3.10,-42.60,-443,-5608,6095,-1,0,0
177.75,-3.10,-42.61,-450,-5618,6090,-1,0,-1
177.75,-3.10,-42.61,-452,-5623,6106,0,0,-1
177.75,-3.09,-42.61,-445,-5623,6112,0,-1,-1
177.75,-3.09,-42.61,-448,-5616,6110,-1,-1,-1
177.75,-3.09,-42.61,-448,-5610,6111,-1,-1,-1
177.75,-3.09,-42.61,-447,-5605,6103,0,-1,0
177.75,-3.09,-42.61,-435,-5605,6106,-1,0,0
177.75,-3.09,-42.61,-435,-5613,6101,-1,0,0
177.75,-3.09,-42.61,-436,-5618,6100,-1,0,0
177.75,-3.09,-42.62,-448,-5614,6095,0,-1,0
177.75,-3.09,-42.62,-443,-5613,6096,-1,-1,0
177.75,-3.09,-42.62,-443,-5615,6101,0,-1,-1
177.75,-3.09,-42.62,-446,-5619,6098,0,-1,-1
177.75,-3.09,-42.62,-448,-5619,6092,0,-1,-1
177.75,-3.09,-42.62,-447,-5618,6093,0,0,-1
177.75,-3.09,-42.62,-450,-5608,6101,-1,0,0
177.75,-3.09,-42.62,-451,-5612,6099,-1,0,0
177.75,-3.09,-42.62,-447,-5608,6097,-1,-1,-1
177.75,-3.09,-42.63,-450,-5611,6100,-1,0,-1
177.75,-3.09,-42.64,-442,-5620,6099,-1,0,0
177.75,-3.09,-42.64,-442,-5618,6094,-1,0,-1
177.75,-3.09,-42.64,-448,-5621,6097,-1,0,0
177.75,-3.09,-42.64,-448,-5620,6095,0,-1,0
177.75,-3.09,-42.64,-447,-5619,6088,0,-1,-1
177.75,-3.09,-42.64,-450,-5615,6083,0,0,-1
177.75,-3.09,-42.64,-449,-5619,6091,0,-1,-1
177.75,-3.09,-42.64,-443,-5613,6095,-1,0,-1
177.75,-3.09,-42.64,-443,-5612,6104,-1,0,-1
177.76,-3.09,-42.64,-444,-5609,6106,-1,0,-1
177.76,-3.09,-42.65,-445,-5610,6102,-1,0,-1
177.76,-3.10,-42.65,-451,-5614,6097,-1,0,-1
177.76,-3.10,-42.65,-449,-5618,6098,0,0,-1
177.76,-3.10,-42.65,-446,-5614,6102,-1,0,0
177.76,-3.10,-42.65,-444,-5614,6105,-1,0,0
177.76,-3.11,-42.67,-447,-5624,6097,-1,0,-1
177.76,-3.11,-42.67,-447,-5625,6085,0,0,-1
177.77,-3.10,-42.66,-442,-5623,6100,0,0,-1
177.77,-3.10,-42.66,-441,-5611,6105,-1,0,-1
177.77,-3.11,-42.67,-446,-5610,6104,-1,0,0
177.77,-3.11,-42.67,-453,-5612,6095,-1,0,0
177.76,-3.12,-42.67,-460,-5618,6096,-1,0,-1
177.77,-3.12,-42.68,-460,-5624,6095,-1,0,-1
177.77,-3.12,-42.68,-461,-5621,6098,-1,0,-1
177.77,-3.12,-42.68,-457,-5625,6094,0,-1,-1
177.77,-3.12,-42.68,-457,-5628,6085,0,-1,-1
177.78,-3.12,-42.68,-449,-5622,6087,0,-1,-1
177.78,-3.12,-42.67,-447,-5615,6092,0,-1,-1
177.78,-3.11,-42.67,-442,-5612,6095,0,-1,-1
177.78,-3.11,-42.67,-441,-5609,6091,-1,0,0
177.78,-3.11,-42.68,-441,-5610,6099,-1,0,0
177.78,-3.11,-42.68,-449,-5622,6104,-1,0,0
177.78,-3.12,-42.69,-455,-5631,6090,0,0,-1
177.78,-3.12,-42.69,-456,-5630,6090,0,-1,0
177.77,-3.12,-42.69,-453,-5636,6093,0,-1,0
177.77,-3.12,-42.68,-447,-5634,6093,0,-1,0
177.77,-3.12,-42.68,-449,-5628,6097,0,-1,0
177.76,-3.12,-42.67,-451,-5617,6099,0,0,0
177.76,-3.12,-42.67,-446,-5619,6099,0,-1,0
177.77,-3.11,-42.67,-448,-5618,6095,0,0,-1
177.76,-3.12,-42.67,-449,-5613,6099,0,0,0
177.77,-3.11,-42.67,-445,-5618,6110,0,-1,0
177.77,-3.11,-42.66,-445,-5619,6113,-1,0,0
177.77,-3.11,-42.66,-448,-5621,6105,0,0,0
177.76,-3.12,-42.66,-441,-5626,6094,0,0,0
177.76,-3.12,-42.66,-441,-5624,6097,0,0,0
177.76,-3.12,-42.66,-440,-5628,6103,0,-1,0
177.76,-3.12,-42.65,-444,-5629,6098,0,0,-1
177.76,-3.12,-42.65,-455,-5625,6105,0,-1,0
177.76,-3.12,-42.65,-452,-5625,6109,0,-1,-1
177.76,-3.12,-42.64,-453,-5617,6112,0,0,-1
177.76,-3.12,-42.63,-447,-5606,6104,0,-1,0
177.76,-3.11,-42.63,-448,-5615,6105,0,-1,0
177.76,-3.12,-42.63,-452,-5613,6099,0,0,0
177.76,-3.12,-42.62,-446,-5614,6105,0,0,0
177.76,-3.11,-42.62,-440,-5617,6108,0,0,-1
177.76,-3.12,-42.62,-447,-5616,6096,0,-1,0
177.76,-3.12,-42.62,-449,-5613,6108,0,0,0
177.75,-3.12,-42.61,-448,-5612,6108,0,-1,0
177.75,-3.12,-42.61,-454,-5615,6113,-1,0,0
177.75,-3.12,-42.61,-449,-5632,6110,0,0,-1
177.76,-3.12,-42.61,-450,-5630,6110,0,-1,-1
177.76,-3.12,-42.59,-450,-5617,6105,0,-1,-1
177.76,-3.11,-42.59,-440,-5597,6104,0,-1,0
177.76,-3.11,-42.59,-444,-5603,6104,0,0,0
177.76,-3.12,-42.58,-449,-5608,6109,0,0,0
177.75,-3.13,-42.58,-458,-5612,6111,0,0,0
177.75,-3.13,-42.58,-457,-5613,6102,0,0,0
177.75,-3.13,-42.58,-459,-5615,6103,0,0,-1
177.75,-3.13,-42.58,-459,-5620,6105,0,-1,-1
177.76,-3.12,-42.57,-448,-5620,6111,0,-1,-1
177.76,-3.12,-42.57,-439,-5609,6099,0,-1,-1
177.76,-3.12,-42.56,-441,-5602,6102,0,0,0
177.76,-3.12,-42.56,-441,-5594,6098,0,0,0
177.76,-3.12,-42.55,-451,-5597,6108,0,0,0
177.76,-3.13,-42.55,-453,-5606,6110,0,0,-1
177.76,-3.13,-42.55,-462,-5607,6103,0,0,-1
177.75,-3.14,-42.55,-461,-5609,6106,0,-1,0
177.76,-3.14,-42.54,-462,-5613,6105,0,-1,0
177.76,-3.13,-42.54,-453,-5617,6106,0,0,0
177.76,-3.13,-42.53,-447,-5616,6107,0,0,0
177.76,-3.13,-42.53,-445,-5619,6116,0,0,0
177.76,-3.14,-42.52,-453,-5611,6117,0,0,0
177.76,-3.14,-42.51,-451,-5610,6120,0,0,0
177.76,-3.14,-42.51,-451,-5606,6120,0,-1,0
177.76,-3.13,-42.51,-446,-5607,6104,0,0,0
177.76,-3.13,-42.51,-445,-5597,6104,0,-1,0
177.75,-3.13,-42.51,-445,-5591,6107,-1,0,0
177.75,-3.14,-42.50,-443,-5595,6106,0,0,0
177.75,-3.14,-42.50,-449,-5604,6103,0,0,0
177.75,-3.14,-42.50,-460,-5606,6117,0,0,0
177.74,-3.15,-42.50,-463,-5607,6108,0,0,0
177.74,-3.15,-42.50,-460,-5604,6111,0,-1,0
177.74,-3.15,-42.49,-457,-5603,6110,0,0,0
177.74,-3.15,-42.49,-459,-5602,6111,0,0,0
177.74,-3.15,-42.48,-455,-5604,6109,0,0,0
177.74,-3.15,-42.48,-451,-5597,6112,0,-1,0
177.74,-3.15,-42.48,-442,-5596,6107,0,0,0
177.74,-3.16,-42.47,-445,-5598,6104,0,0,-1
177.74,-3.16,-42.47,-452,-5600,6116,0,0,0
177.74,-3.16,-42.47,-453,-5605,6110,0,0,0
177.74,-3.16,-42.47,-454,-5596,6112,0,0,0
177.74,-3.16,-42.47,-459,-5598,6107,0,0,0
177.73,-3.17,-42.46,-458,-5597,6115,0,0,0
177.73,-3.17,-42.46,-452,-5590,6124,0,0,0
177.73,-3.17,-42.46,-456,-5596,6123,-1,0,0
177.73,-3.17,-42.46,-465,-5602,6107,0,0,0
177.73,-3.17,-42.45,-462,-5606,6110,0,0,0
177.73,-3.17,-42.44,-457,-5589,6119,0,-1,0
177.72,-3.18,-42.44,-456,-5589,6116,-1,0,0
177.72,-3.18,-42.44,-463,-5592,6117,0,0,0
177.72,-3.19,-42.44,-471,-5592,6117,0,0,0
177.72,-3.19,-42.44,-473,-5594,6116,0,0,0
177.72,-3.19,-42.44,-474,-5593,6122,-1,-1,-1
177.72,-3.19,-42.44,-473,-5591,6128,0,-1,-1
177.72,-3.18,-42.44,-467,-5599,6120,0,-1,-1
177.72,-3.18,-42.44,-457,-5598,6113,0,-1,-1
177.72,-3.18,-42.44,-451,-5595,6121,0,-1,-1
177.73,-3.17,-42.44,-447,-5583,6127,-1,-1,0
177.72,-3.17,-42.44,-442,-5581,6125,-1,-1,0
177.72,-3.17,-42.44,-439,-5582,6117,-1,0,0
177.72,-3.17,-42.44,-446,-5596,6119,-1,-1,0
177.73,-3.16,-42.45,-453,-5605,6118,-1,-1,-1
177.73,-3.16,-42.45,-458,-5597,6109,0,-1,-1
177.73,-3.16,-42.45,-460,-5590,6108,-1,-1,-1
177.73,-3.15,-42.45,-460,-5606,6101,0,-1,-1
177.73,-3.15,-42.45,-459,-5602,6106,0,-1,-1
177.73,-3.15,-42.45,-455,-5598,6112,0,-1,-1
177.73,-3.15,-42.45,-457,-5598,6111,-1,-1,-1
177.73,-3.15,-42.45,-457,-5601,6123,-1,-1,-1
177.73,-3.15,-42.45,-452,-5588,6125,0,-1,-1
177.73,-3.14,-42.46,-445,-5593,6120,-1,-1,-1
177.73,-3.14,-42.46,-443,-5591,6115,-1,-1,0
177.74,-3.13,-42.46,-438,-5591,6117,-1,0,0
177.74,-3.13,-42.47,-438,-5601,6117,-1,0,0
177.73,-3.14,-42.47,-449,-5604,6113,-1,0,0
177.73,-3.14,-42.48,-450,-5605,6105,-1,-1,0
177.73,-3.14,-42.49,-455,-5598,6105,-1,-1,-1
177.74,-3.13,-42.49,-450,-5602,6104,-1,0,-1
177.74,-3.13,-42.50,-448,-5604,6109,-1,-1,-1
177.74,-3.13,-42.50,-442,-5601,6118,-1,-1,0
177.74,-3.13,-42.50,-443,-5601,6122,-1,0,-1
177.74,-3.13,-42.50,-448,-5603,6121,-1,0,0
177.74,-3.13,-42.50,-452,-5602,6120,-1,0,-1
177.75,-3.13,-42.50,-452,-5601,6112,-1,-1,-1
177.75,-3.13,-42.51,-446,-5604,6106,-1,0,-1
177.74,-3.13,-42.52,-445,-5604,6114,-1,-1,0
177.74,-3.13,-42.52,-443,-5603,6103,-1,0,0
177.75,-3.13,-42.52,-449,-5613,6109,-1,0,-1
177.75,-3.13,-42.53,-452,-5618,6116,-1,0,-1
177.75,-3.13,-42.53,-461,-5613,6106,0,-1,-1
177.75,-3.13,-42.52,-447,-5595,6098,0,-1,0
177.75,-3.12,-42.53,-447,-5590,6100,-1,-1,0
177.75,-3.12,-42.53,-440,-5600,6095,-1,0,0
177.75,-3.12,-42.53,-449,-5606,6102,-1,0,0
177.75,-3.13,-42.53,-452,-5602,6114,-1,0,-1
177.75,-3.13,-42.54,-457,-5607,6119,-1,0,-1
177.75,-3.13,-42.54,-457,-5620,6112,-1,-1,-1
177.75,-3.13,-42.55,-458,-5615,6101,-1,-1,-1
177.76,-3.12,-42.55,-454,-5619,6099,-1,-1,-1
177.76,-3.11,-42.56,-445,-5607,6104,-1,-1,0
177.76,-3.11,-42.56,-439,-5604,6108,-1,0,0
177.76,-3.11,-42.56,-433,-5599,6119,-1,0,0
177.76,-3.11,-42.56,-439,-5594,6116,-1,0,0
177.76,-3.12,-42.56,-444,-5600,6110,-1,0,0
177.76,-3.12,-42.56,-450,-5603,6111,-1,0,0
177.76,-3.12,-42.57,-457,-5616,6112,-1,0,0
177.76,-3.12,-42.57,-455,-5621,6104,-1,-1,-1
177.76,-3.12,-42.58,-455,-5614,6101,0,0,-1
177.76,-3.12,-42.57,-456,-5607,6109,0,0,-1
177.76,-3.12,-42.57,-458,-5610,6115,0,-1,-1
177.76,-3.12,-42.57,-455,-5606,6123,-1,-1,-1
177.76,-3.11,-42.57,-449,-5607,6117,-1,-1,-1
177.76,-3.11,-42.57,-443,-5606,6113,-1,-1,0
177.76,-3.11,-42.58,-438,-5603,6104,-1,0,0
177.76,-3.11,-42.58,-444,-5605,6102,-1,0,-1
177.76,-3.12,-42.59,-447,-5610,6105,-1,0,-1
177.77,-3.11,-42.59,-456,-5615,6111,-1,0,-1
177.77,-3.12,-42.59,-461,-5624,6095,-1,-1,0
177.77,-3.12,-42.60,-461,-5623,6105,-1,-1,-1
177.77,-3.11,-42.59,-455,-5624,6109,0,-1,-1
177.77,-3.11,-42.59,-449,-5626,6102,0,0,-1
177.77,-3.11,-42.59,-442,-5623,6096,0,-1,0
177.77,-3.11,-42.59,-438,-5612,6100,-1,0,-1
177.77,-3.11,-42.60,-438,-5610,6097,-1,0,-1
177.77,-3.11,-42.60,-440,-5611,6109,-1,-1,-1
177.78,-3.10,-42.61,-444,-5613,6099,-1,-1,-1
177.78,-3.10,-42.61,-440,-5610,6104,-1,0,0
177.77,-3.11,-42.62,-451,-5611,6097,-1,0,0
177.77,-3.11,-42.62,-455,-5616,6104,-1,0,0
177.77,-3.11,-42.62,-456,-5625,6104,-1,0,-1
177.77,-3.12,-42.62,-455,-5621,6106,0,-1,-1
177.77,-3.11,-42.62,-444,-5617,6103,0,-1,-1
177.77,-3.11,-42.62,-439,-5610,6101,-1,-1,0
177.77,-3.11,-42.62,-445,-5614,6103,-1,0,0
177.77,-3.11,-42.63,-449,-5619,6105,-1,0,0
177.77,-3.12,-42.63,-455,-5621,6108,-1,0,-1
177.77,-3.12,-42.63,-455,-5621,6113,-1,0,-1
177.77,-3.12,-42.63,-457,-5623,6104,-1,-1,-1
177.77,-3.12,-42.63,-454,-5624,6106,0,-1,-1
177.77,-3.11,-42.63,-448,-5625,6105,0,-1,-1
177.78,-3.11,-42.63,-442,-5626,6100,-1,-1,0
177.78,-3.11,-42.63,-436,-5619,6096,0,0,0
177.78,-3.11,-42.63,-433,-5605,6103,-1,0,-1
177.78,-3.11,-42.63,-437,-5607,6110,-1,0,0
177.78,-3.11,-42.64,-445,-5609,6098,-1,0,-1
177.78,-3.12,-42.65,-448,-5618,6097,-1,0,-1
177.78,-3.11,-42.65,-445,-5614,6098,-1,0,-1
177.78,-3.11,-42.65,-454,-5618,6095,0,0,0
177.78,-3.11,-42.65,-449,-5615,6106,0,0,-1
177.78,-3.11,-42.64,-453,-5624,6117,-1,-1,-1
177.79,-3.11,-42.64,-451,-5619,6115,0,0,-1
177.79,-3.11,-42.64,-450,-5615,6105,-1,0,-1
177.79,-3.11,-42.64,-446,-5609,6097,-1,-1,-1
177.80,-3.11,-42.64,-447,-5613,6094,0,0,-1
177.80,-3.10,-42.64,-446,-5618,6094,-1,0,-1
177.80,-3.11,-42.64,-442,-5615,6100,-1,0,0
177.80,-3.10,-42.65,-438,-5614,6102,-1,0,-1
177.80,-3.10,-42.65,-443,-5620,6101,-1,0,-1
177.80,-3.11,-42.65,-449,-5627,6105,0,0,-1
177.81,-3.10,-42.65,-445,-5621,6101,0,0,-1
177.81,-3.10,-42.65,-447,-5615,6099,0,0,-1
177.81,-3.10,-42.66,-448,-5617,6097,0,-1,0
177.81,-3.11,-42.65,-451,-5615,6095,0,0,0
177.81,-3.11,-42.65,-450,-5608,6094,0,0,-1
177.81,-3.11,-42.65,-450,-5612,6095,-1,0,-1
177.81,-3.12,-42.66,-438,-5615,6096,-1,0,0
177.80,-3.12,-42.66,-441,-5619,6094,-1,0,0
177.80,-3.12,-42.68,-444,-5620,6085,-1,0,0
177.80,-3.13,-42.69,-445,-5628,6076,-1,0,0
177.80,-3.13,-42.69,-449,-5619,6087,-1,0,0
177.80,-3.13,-42.69,-445,-5617,6091,-1,0,0
177.79,-3.14,-42.70,-442,-5610,6090,-1,0,0
177.78,-3.15,-42.70,-448,-5615,6085,-1,0,0
177.79,-3.15,-42.71,-447,-5623,6086,0,0,0
177.79,-3.15,-42.70,-452,-5614,6101,0,0,0
177.79,-3.16,-42.70,-457,-5618,6091,-1,0,0
177.79,-3.16,-42.71,-447,-5616,6081,-1,0,0
177.78,-3.17,-42.71,-457,-5616,6082,-1,0,0
177.78,-3.17,-42.71,-460,-5623,6077,0,0,0
177.78,-3.17,-42.70,-466,-5622,6087,0,0,-1
177.78,-3.17,-42.70,-471,-5624,6098,-1,-1,-1
177.78,-3.17,-42.70,-459,-5632,6091,0,-1,-1
177.79,-3.16,-42.69,-453,-5621,6091,0,-1,-1
177.79,-3.16,-42.69,-444,-5628,6080,0,-1,0
177.79,-3.16,-42.69,-440,-5629,6094,0,0,0
177.79,-3.16,-42.68,-451,-5613,6100,0,0,0
177.79,-3.16,-42.68,-447,-5617,6104,0,-1,0
177.78,-3.17,-42.68,-458,-5617,6099,0,0,0
177.78,-3.17,-42.68,-462,-5622,6091,0,-1,-1
177.78,-3.16,-42.67,-470,-5623,6095,0,-1,-1
177.78,-3.16,-42.66,-469,-5628,6095,0,-1,-1
177.78,-3.16,-42.66,-464,-5627,6088,0,-1,0
177.79,-3.15,-42.65,-455,-5625,6087,0,-1,-1
177.79,-3.15,-42.63,-457,-5616,6092,0,-1,-1
177.79,-3.14,-42.63,-455,-5613,6104,0,-1,-1
177.79,-3.14,-42.62,-449,-5603,6106,0,-1,-1
177.79,-3.14,-42.62,-445,-5618,6112,0,-1,-1
177.79,-3.14,-42.61,-441,-5609,6101,0,-1,0
177.79,-3.13,-42.61,-438,-5613,6095,0,-1,0
177.79,-3.13,-42.61,-446,-5611,6086,0,-1,0
177.79,-3.13,-42.61,-455,-5611,6090,0,-1,0
177.79,-3.13,-42.61,-454,-5608,6088,0,0,0
177.79,-3.14,-42.60,-454,-5607,6100,0,0,-1
177.79,-3.14,-42.60,-454,-5615,6106,0,0,0
177.79,-3.14,-42.59,-458,-5615,6109,0,-1,-1
177.79,-3.13,-42.58,-458,-5617,6109,0,-1,-1
177.79,-3.14,-42.57,-461,-5614,6109,0,-1,0
177.79,-3.13,-42.57,-456,-5609,6101,0,-1,0
177.79,-3.13,-42.56,-447,-5611,6109,0,-1,0
177.79,-3.13,-42.56,-444,-5612,6113,0,0,0
177.79,-3.13,-42.55,-437,-5609,6106,0,0,0
177.79,-3.13,-42.55,-434,-5609,6106,0,-1,0
177.79,-3.13,-42.55,-444,-5611,6111,0,0,0
177.79,-3.13,-42.54,-443,-5613,6110,0,0,0
177.79,-3.13,-42.54,-446,-5602,6122,-1,-1,0
177.79,-3.13,-42.54,-455,-5607,6107,-1,0,-1
177.79,-3.13,-42.54,-462,-5613,6107,0,-1,-1
177.79,-3.13,-42.54,-457,-5601,6108,0,-1,0
177.79,-3.13,-42.53,-450,-5602,6113,0,-1,0
177.79,-3.13,-42.52,-445,-5596,6104,0,0,0
177.78,-3.14,-42.52,-449,-5599,6102,0,0,0
177.78,-3.14,-42.52,-453,-5598,6102,0,0,0
177.78,-3.14,-42.51,-456,-5606,6104,0,0,0
177.78,-3.14,-42.52,-456,-5604,6107,-1,0,-1
177.78,-3.14,-42.52,-462,-5612,6108,0,-1,-1
177.78,-3.14,-42.51,-458,-5614,6106,0,0,-1
177.78,-3.14,-42.51,-448,-5613,6107,0,-1,0
177.78,-3.14,-42.50,-444,-5607,6107,0,-1,0
177.78,-3.14,-42.50,-445,-5600,6108,0,0,0
177.78,-3.14,-42.50,-446,-5594,6115,0,0,0
177.78,-3.14,-42.49,-448,-5591,6136,-1,0,0
177.78,-3.14,-42.49,-452,-5592,6123,0,0,0
177.78,-3.15,-42.49,-457,-5592,6121,0,0,0
177.78,-3.16,-42.49,-460,-5598,6117,-1,-1,0
177.78,-3.16,-42.49,-454,-5608,6114,0,0,0
177.78,-3.16,-42.49,-450,-5616,6103,0,0,0
177.78,-3.16,-42.48,-458,-5610,6099,0,0,0
177.77,-3.16,-42.48,-456,-5608,6101,0,0,0
177.77,-3.16,-42.48,-461,-5604,6108,0,-1,0
177.77,-3.16,-42.47,-454,-5598,6116,0,0,-1
177.77,-3.16,-42.47,-446,-5597,6124,0,0,-1
177.77,-3.16,-42.47,-442,-5593,6121,-1,0,0
177.77,-3.16,-42.47,-444,-5594,6116,-1,-1,0
177.77,-3.16,-42.48,-452,-5598,6115,-1,0,0
177.77,-3.17,-42.47,-458,-5602,6118,0,0,0
177.77,-3.17,-42.47,-458,-5604,6114,0,0,0
177.77,-3.17,-42.47,-460,-5601,6110,0,-1,-1
177.76,-3.17,-42.47,-465,-5600,6104,0,0,-1
177.76,-3.17,-42.46,-467,-5601,6117,0,-1,0
177.77,-3.16,-42.46,-458,-5602,6126,0,-1,-1
177.77,-3.16,-42.45,-453,-5593,6123,-1,-1,0
177.77,-3.16,-42.45,-454,-5587,6123,0,-1,0
177.77,-3.16,-42.45,-451,-5591,6113,0,0,-1
177.77,-3.16,-42.45,-451,-5589,6133,-1,-1,0
177.77,-3.16,-42.45,-455,-5590,6124,-1,-1,-1
177.77,-3.16,-42.46,-458,-5590,6108,0,-1,-1
177.77,-3.15,-42.46,-455,-5600,6110,0,-1,-1
177.78,-3.14,-42.45,-451,-5597,6113,0,-1,-1
177.78,-3.14,-42.45,-453,-5586,6129,0,-1,-1
177.78,-3.14,-42.45,-449,-5583,6121,-1,-1,0
177.78,-3.14,-42.46,-456,-5585,6122,-1,-1,-1
177.78,-3.14,-42.46,-454,-5605,6116,-1,-1,0
177.78,-3.14,-42.46,-456,-5597,6123,0,-1,-1
177.78,-3.13,-42.46,-445,-5597,6111,-1,-1,-1
177.78,-3.13,-42.47,-443,-5592,6115,-1,-1,0
177.78,-3.13,-42.47,-441,-5592,6115,-1,0,0
177.78,-3.13,-42.47,-446,-5598,6116,-1,0,-1
177.78,-3.13,-42.48,-449,-5598,6114,-1,0,-1
177.78,-3.13,-42.48,-453,-5591,6106,-1,-1,-1
177.78,-3.13,-42.49,-452,-5600,6110,-1,-1,-1
177.79,-3.12,-42.49,-444,-5607,6107,-1,-1,-1
177.79,-3.12,-42.49,-438,-5593,6107,-1,-1,-1
177.79,-3.11,-42.49,-433,-5590,6107,-1,-1,0
177.79,-3.11,-42.50,-431,-5590,6113,-1,-1,0
177.80,-3.10,-42.50,-438,-5585,6123,-1,0,0
177.79,-3.11,-42.50,-447,-5590,6114,-1,0,-1
177.79,-3.11,-42.50,-451,-5597,6116,-1,0,-1
177.80,-3.11,-42.51,-456,-5605,6102,-1,-1,-1
177.80,-3.11,-42.52,-446,-5604,6104,-1,0,-1
177.80,-3.11,-42.53,-445,-5605,6105,-1,0,0
177.80,-3.11,-42.54,-441,-5613,6082,0,0,-1
177.80,-3.11,-42.54,-451,-5619,6107,0,0,-1
177.80,-3.11,-42.53,-449,-5616,6118,0,-1,-1
177.81,-3.10,-42.53,-451,-5607,6118,0,-1,-1
177.81,-3.10,-42.53,-452,-5602,6116,0,-1,-1
177.81,-3.10,-42.53,-449,-5607,6114,-1,-1,0
177.81,-3.10,-42.53,-437,-5606,6113,-1,-1,-1
177.82,-3.10,-42.54,-433,-5601,6111,-1,0,0
177.82,-3.10,-42.54,-438,-5603,6114,-1,0,0
177.81,-3.10,-42.54,-447,-5603,6101,-1,0,0
177.81,-3.10,-42.55,-447,-5606,6107,-1,0,-1
177.81,-3.10,-42.55,-454,-5610,6097,-1,-1,-1
177.81,-3.10,-42.56,-455,-5612,6098,-1,-1,-1
177.82,-3.09,-42.56,-445,-5615,6092,-1,-1,-1
177.82,-3.09,-42.56,-444,-5615,6100,-1,-1,0
177.82,-3.09,-42.56,-444,-5608,6106,0,-1,-1
177.82,-3.09,-42.56,-452,-5616,6107,-1,0,-1
177.82,-3.09,-42.56,-447,-5611,6108,-1,0,0
177.82,-3.09,-42.56,-443,-5608,6106,-1,0,-1
177.82,-3.09,-42.57,-441,-5607,6106,-1,0,-1
177.83,-3.09,-42.57,-442,-5610,6104,-1,0,-1
177.83,-3.09,-42.58,-446,-5611,6110,-1,0,-1
177.83,-3.09,-42.57,-451,-5604,6114,0,0,0
177.83,-3.09,-42.57,-450,-5601,6115,-1,-1,0
177.82,-3.10,-42.58,-450,-5610,6119,-1,0,0
177.82,-3.10,-42.58,-450,-5613,6108,-1,0,-1
177.82,-3.10,-42.59,-444,-5618,6102,0,-1,-1
177.83,-3.09,-42.59,-435,-5609,6096,0,-1,-1
177.83,-3.09,-42.59,-436,-5605,6104,-1,-1,0
177.83,-3.09,-42.59,-442,-5600,6104,-1,0,0
177.82,-3.10,-42.59,-457,-5606,6111,-1,0,0
177.82,-3.10,-42.59,-460,-5610,6112,-1,0,-1
177.82,-3.10,-42.59,-470,-5610,6117,-1,-1,-1
177.82,-3.10,-42.60,-462,-5616,6115,-1,0,-1
177.83,-3.10,-42.60,-455,-5620,6108,0,0,-1
177.83,-3.10,-42.59,-444,-5613,6108,0,0,-1
177.83,-3.09,-42.59,-442,-5620,6112,-1,-1,0
177.83,-3.09,-42.59,-439,-5613,6116,-1,0,-1
177.83,-3.09,-42.59,-442,-5611,6109,-1,0,0
177.83,-3.09,-42.60,-447,-5609,6102,-1,-1,0
177.83,-3.09,-42.60,-444,-5609,6099,-1,0,0
177.83,-3.09,-42.60,-446,-5614,6106,-1,-1,-1
177.83,-3.09,-42.60,-442,-5615,6095,-1,-1,0
177.82,-3.10,-42.60,-447,-5610,6101,-1,-1,0
177.82,-3.10,-42.60,-451,-5609,6098,-1,0,0
177.82,-3.10,-42.60,-459,-5608,6100,-1,0,-1
177.82,-3.10,-42.60,-456,-5612,6106,-1,-1,-1
177.82,-3.10,-42.60,-448,-5619,6106,-1,-1,-1
177.82,-3.10,-42.61,-447,-5620,6100,-1,-1,0
177.82,-3.10,-42.61,-443,-5616,6102,0,-1,0
177.82,-3.10,-42.60,-439,-5609,6111,-1,0,0
177.83,-3.09,-42.60,-439,-5607,6110,-1,-1,0
177.83,-3.09,-42.61,-435,-5614,6103,-1,0,0
177.83,-3.09,-42.62,-444,-5612,6102,-1,0,-1
177.82,-3.10,-42.62,-453,-5616,6089,-1,0,-1
177.82,-3.10,-42.62,-452,-5620,6092,-1,0,-1
177.82,-3.10,-42.62,-457,-5622,6096,-1,-1,0
177.82,-3.10,-42.62,-454,-5616,6096,0,-1,-1
177.82,-3.10,-42.62,-456,-5618,6098,0,-1,0
177.82,-3.10,-42.62,-458,-5617,6105,0,-1,0
177.82,-3.10,-42.62,-449,-5614,6103,-1,-1,-1
177.82,-3.10,-42.62,-448,-5615,6112,-1,-1,0
177.83,-3.09,-42.62,-444,-5611,6118,-1,-1,-1
177.83,-3.09,-42.62,-440,-5615,6114,-1,0,-1
177.83,-3.09,-42.62,-431,-5610,6113,-1,-1,0
177.82,-3.09,-42.62,-442,-5616,6106,-1,0,0
177.82,-3.10,-42.63,-454,-5616,6103,-1,0,-1
177.82,-3.10,-42.63,-458,-5622,6111,-1,-1,-1
177.82,-3.10,-42.62,-448,-5618,6099,0,-1,-1
177.83,-3.09,-42.62,-442,-5606,6098,0,-1,-1
177.83,-3.09,-42.62,-436,-5604,6096,-1,-1,0
177.83,-3.09,-42.62,-438,-5609,6098,-1,0,0
177.83,-3.09,-42.62,-448,-5614,6099,-1,0,-1
177.83,-3.09,-42.62,-453,-5623,6104,0,0,-1
177.83,-3.09,-42.62,-456,-5622,6099,-1,-1,-1
177.83,-3.09,-42.63,-461,-5625,6099,-1,0,-1
177.83,-3.09,-42.63,-454,-5626,6100,-1,-1,-1
177.84,-3.09,-42.62,-446,-5612,6105,0,-1,-1
177.84,-3.09,-42.62,-435,-5605,6110,-1,-1,-1
177.84,-3.09,-42.62,-432,-5609,6104,-1,0,0
177.84,-3.09,-42.63,-433,-5616,6107,-1,0,0
177.84,-3.09,-42.63,-437,-5615,6102,-1,0,0
177.84,-3.09,-42.64,-448,-5623,6102,-1,0,0
177.83,-3.10,-42.65,-448,-5624,6095,-1,0,0
177.83,-3.10,-42.66,-444,-5625,6091,-1,0,0
177.82,-3.11,-42.66,-448,-5631,6094,0,0,0
177.83,-3.11,-42.66,-448,-5629,6094,0,0,0
177.83,-3.11,-42.65,-452,-5628,6096,0,0,-1
177.83,-3.11,-42.65,-450,-5619,6096,0,0,-1
177.83,-3.11,-42.65,-439,-5616,6094,0,-1,-1
177.83,-3.11,-42.64,-437,-5614,6097,0,0,0
177.83,-3.11,-42.64,-444,-5617,6093,0,-1,0
177.83,-3.11,-42.64,-441,-5623,6091,-1,-1,0
177.83,-3.11,-42.64,-439,-5614,6098,-1,0,0
177.83,-3.11,-42.65,-448,-5616,6095,-1,0,0
177.83,-3.12,-42.64,-454,-5617,6089,0,0,0
177.83,-3.12,-42.65,-462,-5624,6091,-1,-1,0
177.82,-3.12,-42.64,-459,-5626,6094,0,0,0
177.82,-3.12,-42.64,-466,-5626,6082,0,0,-1
177.82,-3.12,-42.64,-460,-5622,6090,0,-1,0
177.82,-3.13,-42.63,-454,-5626,6093,0,-1,-1
177.82,-3.13,-42.63,-450,-5618,6101,0,-1,-1
177.82,-3.13,-42.62,-441,-5609,6106,0,-1,0
177.83,-3.12,-42.62,-424,-5605,6101,0,0,0
177.82,-3.13,-42.62,-437,-5596,6112,-1,0,0
177.82,-3.13,-42.62,-443,-5598,6109,-1,0,0
177.81,-3.13,-42.63,-455,-5612,6104,-1,0,0
177.81,-3.14,-42.63,-458,-5630,6096,-1,0,0
177.81,-3.14,-42.63,-455,-5632,6100,0,0,-1
177.81,-3.14,-42.63,-457,-5622,6095,0,-1,-1
177.82,-3.13,-42.62,-446,-5605,6089,0,-1,0
177.81,-3.14,-42.62,-451,-5603,6097,0,0,0
177.81,-3.14,-42.61,-447,-5606,6104,0,0,0
177.81,-3.15,-42.61,-453,-5610,6118,0,0,-1
177.81,-3.15,-42.61,-461,-5611,6122,-1,0,-1
177.81,-3.15,-42.61,-458,-5624,6120,0,0,-1
177.81,-3.15,-42.61,-467,-5629,6108,0,-1,-1
177.81,-3.14,-42.60,-451,-5625,6103,0,-1,-1
177.82,-3.13,-42.60,-445,-5612,6113,0,-1,0
177.82,-3.13,-42.59,-435,-5607,6103,0,-1,-1
177.82,-3.13,-42.58,-440,-5603,6099,0,0,0
177.82,-3.13,-42.57,-444,-5608,6109,0,-1,0
177.82,-3.13,-42.57,-453,-5602,6116,-1,0,-1
177.81,-3.14,-42.57,-460,-5607,6109,0,0,0
177.81,-3.14,-42.57,-455,-5608,6101,0,-1,-1
177.82,-3.13,-42.57,-453,-5616,6096,0,-1,-1
177.82,-3.13,-42.56,-457,-5622,6092,0,0,-1
177.82,-3.13,-42.56,-456,-5616,6094,0,-1,0
177.82,-3.13,-42.55,-462,-5611,6101,0,-1,-1
177.82,-3.13,-42.54,-454,-5601,6113,0,-1,0
177.82,-3.13,-42.53,-449,-5596,6118,0,0,-1
177.82,-3.13,-42.53,-443,-5596,6120,-1,-1,0
177.82,-3.13,-42.53,-450,-5602,6121,-1,0,0
177.82,-3.13,-42.54,-444,-5602,6111,-1,0,0
177.82,-3.13,-42.54,-446,-5613,6105,-1,0,0
177.81,-3.14,-42.54,-447,-5612,6107,0,0,0
177.81,-3.14,-42.54,-451,-5610,6109,0,0,0
177.81,-3.14,-42.53,-456,-5612,6109,0,0,0
177.81,-3.14,-42.53,-460,-5612,6110,0,0,-1
177.81,-3.14,-42.52,-455,-5608,6114,0,-1,-1
177.81,-3.14,-42.52,-447,-5604,6121,0,-1,0
177.81,-3.14,-42.51,-444,-5598,6114,0,-1,0
177.81,-3.14,-42.51,-448,-5588,6106,-1,0,0
177.81,-3.14,-42.51,-445,-5590,6112,0,0,0
177.81,-3.14,-42.51,-446,-5602,6107,0,0,-1
177.81,-3.14,-42.50,-451,-5608,6118,0,-1,0
177.81,-3.14,-42.50,-456,-5611,6125,0,0,0
177.81,-3.14,-42.50,-459,-5600,6117,0,-1,0
177.80,-3.15,-42.50,-465,-5593,6122,-1,0,0
177.80,-3.15,-42.50,-460,-5598,6110,-1,0,0
177.80,-3.15,-42.50,-455,-5607,6112,0,0,-1
177.81,-3.14,-42.49,-456,-5604,6114,0,-1,0
177.80,-3.15,-42.48,-450,-5596,6103,0,0,0
177.80,-3.15,-42.48,-447,-5593,6108,-1,0,0
177.80,-3.15,-42.48,-451,-5605,6109,0,0,-1
177.80,-3.16,-42.48,-454,-5600,6116,-1,0,0
177.80,-3.16,-42.48,-461,-5606,6106,-1,0,0
177.80,-3.16,-42.49,-473,-5603,6105,-1,0,0
177.80,-3.17,-42.49,-471,-5605,6102,-1,0,-1
177.80,-3.16,-42.49,-466,-5604,6106,0,-1,-1
177.80,-3.16,-42.48,-455,-5600,6114,0,-1,-1
177.80,-3.16,-42.48,-447,-5593,6114,-1,-1,0
177.80,-3.16,-42.48,-438,-5593,6119,-1,-1,0
177.81,-3.15,-42.48,-441,-5593,6115,-1,0,0
177.80,-3.15,-42.48,-444,-5595,6126,-1,-1,0
177.80,-3.15,-42.49,-451,-5605,6116,-1,0,0
177.80,-3.16,-42.50,-458,-5607,6117,-1,-1,0
177.80,-3.15,-42.50,-457,-5608,6111,0,-1,0
177.80,-3.15,-42.50,-455,-5617,6112,0,-1,-1
177.80,-3.15,-42.50,-448,-5613,6115,0,-1,-1
177.80,-3.15,-42.49,-458,-5605,6119,0,-1,-1
177.80,-3.14,-42.49,-450,-5599,6117,-1,-1,-1
177.81,-3.14,-42.50,-440,-5595,6124,-1,-1,-1
177.81,-3.13,-42.50,-448,-5586,6120,-1,-1,-1
177.81,-3.13,-42.50,-444,-5588,6106,-1,-1,-1
177.81,-3.13,-42.50,-441,-5585,6106,-1,-1,0
177.81,-3.13,-42.51,-442,-5588,6116,-1,0,0
177.81,-3.13,-42.51,-442,-5598,6122,-1,0,0
177.81,-3.13,-42.51,-444,-5600,6118,-1,0,-1
177.82,-3.12,-42.52,-445,-5598,6099,-1,0,-1
177.82,-3.12,-42.53,-453,-5606,6099,-1,0,0
177.82,-3.12,-42.53,-453,-5612,6105,0,-1,-1
177.82,-3.12,-42.53,-443,-5613,6106,0,-1,-1
177.82,-3.12,-42.53,-446,-5607,6104,-1,0,-1
177.82,-3.12,-42.53,-444,-5600,6110,-1,0,-1
177.82,-3.12,-42.53,-442,-5592,6109,-1,-1,-1
177.82,-3.11,-42.53,-442,-5598,6117,-1,0,-1
177.82,-3.11,-42.54,-441,-5600,6109,-1,0,-1
177.82,-3.11,-42.54,-442,-5608,6111,-1,-1,-1
177.82,-3.11,-42.54,-445,-5611,6106,-1,0,0
177.82,-3.11,-42.54,-451,-5605,6112,-1,-1,0
177.82,-3.11,-42.54,-449,-5602,6118,-1,0,0
177.82,-3.12,-42.55,-457,-5603,6110,-1,0,-1
177.82,-3.12,-42.55,-457,-5616,6100,0,0,-1
177.83,-3.11,-42.55,-457,-5610,6100,0,-1,-1
177.83,-3.11,-42.55,-441,-5604,6101,-1,-1,0
177.82,-3.11,-42.55,-436,-5600,6094,-1,0,0
177.82,-3.11,-42.55,-445,-5601,6112,-1,0,0
177.82,-3.12,-42.55,-458,-5612,6118,-1,0,-1
177.83,-3.12,-42.56,-452,-5612,6112,-1,0,-1
177.83,-3.12,-42.56,-459,-5602,6111,-1,-1,-1
177.83,-3.12,-42.57,-458,-5604,6107,-1,-1,-1
177.83,-3.11,-42.56,-442,-5610,6102,0,-1,-1
177.83,-3.11,-42.56,-436,-5612,6103,0,-1,-1
177.84,-3.10,-42.56,-428,-5601,6110,-1,-1,-1
177.84,-3.10,-42.56,-429,-5592,6118,-1,0,0
177.84,-3.10,-42.56,-434,-5592,6120,-1,0,0
177.84,-3.10,-42.56,-437,-5598,6107,-1,0,0
177.84,-3.10,-42.57,-451,-5600,6112,-1,0,-1
177.84,-3.10,-42.57,-454,-5604,6103,-1,0,-1
177.83,-3.11,-42.58,-452,-5616,6102,-1,0,0
177.83,-3.11,-42.58,-448,-5620,6094,0,-1,0
177.84,-3.10,-42.58,-449,-5616,6100,0,0,-1
177.84,-3.10,-42.58,-445,-5609,6103,0,-1,-1
177.84,-3.10,-42.58,-449,-5604,6103,-1,0,-1
177.84,-3.10,-42.58,-447,-5607,6107,-1,0,-1
177.84,-3.10,-42.58,-445,-5603,6108,-1,-1,-1
177.84,-3.10,-42.58,-441,-5608,6112,-1,0,0
177.84,-3.10,-42.59,-444,-5606,6116,-1,-1,0
177.84,-3.10,-42.59,-440,-5611,6113,-1,0,0
177.84,-3.10,-42.60,-443,-5619,6101,-1,0,0
177.84,-3.10,-42.60,-443,-5618,6102,-1,0,0
177.84,-3.10,-42.60,-442,-5620,6097,-1,0,0
177.84,-3.10,-42.60,-447,-5613,6105,-1,-1,0
177.84,-3.10,-42.60,-452,-5618,6106,-1,0,-1
177.84,-3.10,-42.60,-449,-5618,6106,0,-1,-1
177.84,-3.10,-42.60,-443,-5620,6109,0,0,-1
177.85,-3.10,-42.60,-440,-5619,6112,-1,0,-1
177.85,-3.10,-42.60,-439,-5619,6113,-1,-1,-1
177.85,-3.09,-42.60,-442,-5615,6102,-1,-1,0
177.85,-3.09,-42.60,-438,-5611,6107,-1,0,0
177.85,-3.09,-42.60,-443,-5611,6101,-1,0,0
177.85,-3.10,-42.61,-446,-5613,6094,0,0,-1
177.85,-3.10,-42.61,-451,-5626,6108,-1,-1,0
177.85,-3.09,-42.60,-446,-5616,6102,-1,-1,0
177.84,-3.10,-42.60,-448,-5606,6108,-1,0,0
177.84,-3.10,-42.61,-448,-5611,6104,-1,-1,0
177.84,-3.10,-42.62,-445,-5619,6110,0,-1,-1
177.85,-3.09,-42.61,-437,-5630,6107,0,0,-1
177.85,-3.09,-42.61,-434,-5615,6108,0,-1,0
177.84,-3.09,-42.61,-427,-5606,6114,-1,0,0
177.84,-3.10,-42.61,-441,-5612,6113,-1,0,0
177.84,-3.10,-42.62,-458,-5623,6113,-1,0,0
177.84,-3.11,-42.62,-461,-5623,6109,-1,-1,-1
177.84,-3.11,-42.63,-460,-5625,6105,-1,0,-1
177.84,-3.11,-42.63,-448,-5621,6105,-1,0,-1
177.84,-3.11,-42.63,-447,-5622,6097,0,0,-1
177.84,-3.10,-42.63,-442,-5615,6103,0,-1,-1
177.85,-3.09,-42.63,-435,-5610,6111,0,-1,-1
177.85,-3.09,-42.63,-435,-5608,6114,-1,0,-1
177.85,-3.09,-42.63,-439,-5609,6113,-1,0,-1
177.85,-3.10,-42.63,-441,-5614,6102,-1,0,-1
177.86,-3.09,-42.64,-450,-5619,6094,-1,0,-1
177.85,-3.10,-42.64,-456,-5623,6092,-1,0,-1
177.85,-3.10,-42.65,-453,-5623,6093,-1,0,-1
177.85,-3.10,-42.65,-455,-5627,6078,-1,0,-1
177.85,-3.10,-42.65,-452,-5631,6086,0,0,-1
177.86,-3.10,-42.65,-453,-5632,6104,0,0,-1
177.86,-3.10,-42.65,-447,-5626,6100,-1,0,-1
177.87,-3.10,-42.65,-439,-5620,6106,-1,0,-1
177.87,-3.09,-42.65,-435,-5614,6097,-1,0,-1
177.88,-3.09,-42.66,-436,-5616,6090,-1,0,-1
177.87,-3.09,-42.65,-445,-5615,6103,-1,0,-1
177.88,-3.09,-42.66,-442,-5616,6099,-1,0,-1
177.88,-3.09,-42.66,-446,-5615,6091,-1,0,-1
177.87,-3.09,-42.66,-455,-5614,6093,-1,-1,-1
177.87,-3.09,-42.66,-452,-5617,6096,-1,0,-1
177.87,-3.09,-42.66,-450,-5626,6094,-1,0,0
177.87,-3.09,-42.66,-448,-5627,6091,-1,-1,0
177.87,-3.09,-42.66,-445,-5622,6092,0,0,0
177.87,-3.09,-42.66,-450,-5615,6100,0,0,0
177.87,-3.10,-42.66,-442,-5618,6107,-1,0,0
177.87,-3.10,-42.66,-444,-5617,6113,-1,-1,0
177.87,-3.10,-42.66,-437,-5613,6103,-1,0,0
177.87,-3.10,-42.66,-436,-5614,6099,-1,0,0
177.87,-3.10,-42.66,-439,-5613,6101,0,0,0
177.87,-3.10,-42.66,-446,-5618,6093,0,-1,0
177.86,-3.11,-42.66,-454,-5620,6094,0,-1,0
177.86,-3.11,-42.65,-452,-5625,6105,0,-1,0
177.86,-3.11,-42.65,-444,-5623,6103,0,-1,0
177.85,-3.10,-42.64,-445,-5611,6102,0,-1,0
177.85,-3.11,-42.64,-450,-5616,6106,-1,0,0
177.85,-3.11,-42.64,-451,-5622,6097,-1,0,-1
177.85,-3.11,-42.64,-450,-5629,6090,0,0,-1
177.85,-3.11,-42.63,-455,-5621,6098,0,-1,0
177.85,-3.11,-42.63,-442,-5616,6094,0,-1,0
177.86,-3.10,-42.63,-441,-5617,6098,0,0,0
177.85,-3.11,-42.63,-437,-5623,6088,0,0,0
177.85,-3.11,-42.63,-449,-5621,6086,0,0,0
177.85,-3.11,-42.63,-456,-5624,6081,-1,0,-1
177.85,-3.11,-42.63,-459,-5623,6089,-1,0,0
177.85,-3.11,-42.63,-459,-5620,6093,0,-1,-1
177.85,-3.11,-42.63,-441,-5621,6085,0,-1,-1
177.85,-3.11,-42.63,-436,-5616,6095,0,-1,0
177.85,-3.11,-42.62,-438,-5609,6098,0,0,0
177.85,-3.11,-42.61,-438,-5610,6101,-1,0,0
177.85,-3.11,-42.61,-446,-5616,6101,-1,0,0
177.85,-3.11,-42.61,-451,-5617,6100,0,0,-1
177.85,-3.11,-42.61,-455,-5618,6100,-1,-1,0
177.84,-3.12,-42.61,-449,-5617,6101,0,-1,0
177.84,-3.12,-42.61,-451,-5619,6095,0,-1,0
177.84,-3.12,-42.61,-458,-5615,6094,0,0,0
177.83,-3.13,-42.60,-457,-5624,6097,0,0,0
177.84,-3.13,-42.60,-458,-5617,6104,0,-1,0
177.84,-3.12,-42.60,-457,-5607,6099,0,-1,-1
177.84,-3.13,-42.59,-453,-5615,6095,0,-1,0
177.84,-3.12,-42.59,-442,-5618,6096,0,-1,0
177.84,-3.12,-42.59,-441,-5618,6095,0,-1,0
177.84,-3.11,-42.58,-437,-5610,6101,0,-1,0
177.84,-3.12,-42.58,-440,-5603,6105,-1,0,0
177.84,-3.12,-42.58,-442,-5609,6104,-1,0,0
177.84,-3.12,-42.58,-448,-5612,6102,-1,0,0
177.84,-3.12,-42.58,-448,-5608,6102,0,0,0
177.84,-3.12,-42.58,-452,-5607,6103,0,-1,0
177.83,-3.12,-42.57,-449,-5612,6103,0,0,0
177.83,-3.12,-42.57,-448,-5615,6104,0,-1,0
177.83,-3.12,-42.57,-447,-5610,6109,0,0,-1
177.83,-3.12,-42.56,-444,-5603,6112,0,0,-1
177.83,-3.12,-42.55,-446,-5604,6116,0,-1,-1
177.83,-3.12,-42.55,-452,-5608,6126,0,0,0
177.83,-3.12,-42.54,-453,-5605,6118,0,-1,-1
177.83,-3.12,-42.54,-450,-5596,6118,0,-1,0
177.83,-3.12,-42.54,-448,-5609,6108,-1,0,0
177.83,-3.13,-42.54,-452,-5612,6106,0,0,-1
177.84,-3.12,-42.54,-449,-5613,6102,0,-1,-1
177.84,-3.12,-42.53,-445,-5599,6109,0,0,0
177.83,-3.12,-42.52,-444,-5596,6111,0,-1,0
177.83,-3.12,-42.52,-446,-5597,6102,0,0,0
177.83,-3.13,-42.52,-452,-5602,6105,-1,0,0
177.83,-3.13,-42.52,-459,-5604,6108,0,0,0
177.83,-3.14,-42.52,-453,-5607,6119,-1,0,0
177.83,-3.14,-42.52,-457,-5604,6113,0,0,0
177.83,-3.14,-42.52,-456,-5613,6108,0,0,-1
177.83,-3.14,-42.51,-448,-5613,6118,0,-1,-1
177.83,-3.13,-42.51,-438,-5608,6122,0,-1,0
177.83,-3.13,-42.50,-440,-5601,6127,0,-1,-1
177.83,-3.13,-42.50,-438,-5598,6123,0,-1,0
177.82,-3.13,-42.49,-440,-5588,6132,-1,0,0
177.82,-3.13,-42.49,-448,-5598,6123,-1,0,0
177.82,-3.14,-42.49,-454,-5599,6122,-1,0,0
177.82,-3.14,-42.50,-455,-5606,6109,0,0,0
177.82,-3.14,-42.50,-454,-5603,6110,0,0,0
177.82,-3.14,-42.49,-456,-5605,6105,0,0,-1
177.82,-3.14,-42.49,-464,-5611,6115,0,0,-1
177.82,-3.15,-42.48,-463,-5605,6106,0,-1,0
177.82,-3.14,-42.48,-457,-5602,6107,0,-1,0
177.82,-3.14,-42.48,-454,-5598,6113,0,-1,-1
177.82,-3.14,-42.47,-446,-5591,6128,0,-1,0
177.82,-3.14,-42.46,-447,-5579,6124,0,-1,0
177.81,-3.15,-42.46,-451,-5583,6125,-1,0,0
177.81,-3.15,-42.46,-456,-5590,6118,-1,0,0
177.81,-3.15,-42.46,-455,-5593,6119,0,0,0
177.81,-3.15,-42.47,-464,-5597,6115,-1,0,0
177.81,-3.16,-42.47,-464,-5591,6108,0,0,-1
177.81,-3.16,-42.46,-466,-5601,6102,0,-1,0
177.81,-3.16,-42.46,-467,-5598,6104,0,-1,0
177.81,-3.15,-42.46,-458,-5595,6105,0,-1,-1
177.81,-3.15,-42.45,-455,-5593,6108,0,-1,-1
177.81,-3.15,-42.45,-447,-5589,6108,0,-1,0
177.81,-3.15,-42.45,-451,-5591,6118,-1,-1,-1
177.81,-3.15,-42.45,-449,-5600,6121,-1,-1,-1
177.81,-3.15,-42.45,-451,-5597,6113,-1,-1,-1
177.81,-3.15,-42.45,-456,-5588,6115,-1,-1,0
177.81,-3.15,-42.45,-456,-5590,6112,-1,0,0
177.81,-3.15,-42.46,-451,-5598,6103,-1,0,-1
177.81,-3.15,-42.46,-459,-5610,6110,0,-1,-1
177.81,-3.15,-42.46,-469,-5605,6112,0,-1,-1
177.82,-3.14,-42.45,-466,-5594,6111,0,-1,-1
177.81,-3.14,-42.45,-456,-5591,6107,-1,-1,0
177.81,-3.14,-42.45,-450,-5591,6112,-1,-1,-1
177.81,-3.13,-42.45,-447,-5592,6115,-1,0,-1
177.81,-3.13,-42.46,-451,-5594,6115,-1,0,0
177.81,-3.14,-42.46,-455,-5590,6117,-1,-1,-1
177.81,-3.14,-42.47,-454,-5596,6114,-1,-1,-1
177.81,-3.13,-42.48,-456,-5601,6126,-1,0,-1
177.82,-3.13,-42.48,-449,-5603,6121,-1,-1,-1
177.82,-3.12,-42.48,-442,-5600,6110,-1,-1,0
177.82,-3.12,-42.48,-448,-5596,6106,-1,-1,0
177.82,-3.12,-42.49,-450,-5597,6112,-1,0,0
177.82,-3.12,-42.49,-449,-5598,6118,-1,0,0
177.81,-3.13,-42.49,-449,-5592,6123,-1,0,-1
177.82,-3.13,-42.50,-443,-5595,6122,-1,0,0
177.82,-3.13,-42.50,-453,-5605,6118,-1,0,-1
177.82,-3.13,-42.51,-455,-5609,6106,-1,0,-1
177.82,-3.13,-42.51,-459,-5610,6107,-1,0,-1
177.82,-3.13,-42.51,-455,-5610,6103,0,0,-1
177.82,-3.13,-42.51,-454,-5606,6114,-1,-1,0
177.82,-3.13,-42.51,-449,-5605,6127,-1,0,-1
177.82,-3.13,-42.51,-444,-5603,6123,-1,-1,-1
177.82,-3.12,-42.51,-446,-5604,6119,-1,-1,-1
177.82,-3.12,-42.51,-444,-5602,6112,-1,-1,-1
177.83,-3.12,-42.51,-446,-5595,6120,-1,0,-1
177.83,-3.12,-42.52,-441,-5597,6116,-1,0,-1
177.83,-3.12,-42.53,-436,-5601,6108,-1,0,0
177.83,-3.12,-42.53,-438,-5602,6101,-1,0,-1
177.83,-3.12,-42.54,-443,-5605,6106,-1,0,-1
177.83,-3.12,-42.54,-452,-5606,6110,0,-1,-1
177.84,-3.12,-42.53,-452,-5601,6106,0,-1,-1
177.84,-3.11,-42.53,-441,-5606,6107,-1,0,0
177.84,-3.11,-42.54,-443,-5603,6103,-1,-1,0
177.84,-3.11,-42.54,-438,-5599,6091,0,0,-1
177.84,-3.11,-42.54,-442,-5610,6107,-1,0,-1
177.84,-3.11,-42.54,-453,-5612,6105,-1,0,-1
177.84,-3.11,-42.55,-462,-5606,6096,-1,0,-1
177.84,-3.11,-42.56,-465,-5610,6104,-1,-1,-1
177.84,-3.11,-42.56,-455,-5609,6103,0,-1,-1
177.84,-3.11,-42.56,-459,-5610,6105,-1,0,-1
177.84,-3.11,-42.56,-447,-5608,6107,-1,-1,-1
177.84,-3.11,-42.57,-452,-5607,6111,-1,0,-1
177.84,-3.11,-42.57,-459,-5608,6106,0,0,-1
177.85,-3.11,-42.57,-451,-5611,6111,-1,-1,-1
177.85,-3.11,-42.57,-449,-5609,6118,-1,-1,-1
177.85,-3.10,-42.57,-441,-5609,6106,-1,0,-1
177.85,-3.11,-42.58,-446,-5605,6104,-1,0,0
177.85,-3.11,-42.58,-449,-5609,6104,-1,0,0
177.84,-3.12,-42.58,-456,-5610,6108,-1,0,-1
177.84,-3.12,-42.59,-460,-5609,6112,-1,0,-1
177.84,-3.12,-42.59,-456,-5611,6111,-1,-1,-1
177.85,-3.11,-42.59,-448,-5617,6102,0,-1,-1
177.85,-3.11,-42.59,-437,-5614,6107,-1,-1,-1
177.85,-3.10,-42.59,-431,-5611,6114,0,0,0
177.85,-3.10,-42.59,-434,-5609,6119,-1,0,0
177.85,-3.10,-42.59,-434,-5603,6109,-1,0,0
177.85,-3.11,-42.60,-444,-5612,6106,-1,0,-1
177.85,-3.11,-42.60,-448,-5623,6108,-1,0,-1
177.85,-3.11,-42.61,-453,-5625,6106,-1,-1,0
177.85,-3.11,-42.61,-444,-5618,6091,-1,-1,-1
177.85,-3.11,-42.62,-441,-5617,6091,0,-1,-1
177.85,-3.11,-42.61,-442,-5615,6084,0,0,-1
177.86,-3.10,-42.61,-448,-5617,6100,-1,-1,0
177.86,-3.10,-42.61,-448,-5614,6106,-1,-1,-1
177.86,-3.10,-42.60,-450,-5607,6106,-1,-1,-1
177.86,-3.09,-42.60,-443,-5610,6115,-1,-1,-1
177.86,-3.09,-42.60,-439,-5614,6117,-1,-1,-1
177.86,-3.09,-42.61,-433,-5616,6108,-1,-1,0
177.86,-3.09,-42.61,-435,-5617,6112,-1,-1,0
177.85,-3.09,-42.61,-440,-5617,6111,-1,0,0
177.85,-3.09,-42.61,-447,-5609,6106,-1,0,0
177.85,-3.09,-42.62,-450,-5610,6107,-1,0,-1
177.85,-3.09,-42.62,-448,-5617,6108,-1,-1,-1
177.85,-3.09,-42.62,-449,-5623,6098,-1,-1,0
177.85,-3.09,-42.63,-450,-5623,6098,0,-1,0
177.85,-3.09,-42.62,-445,-5616,6108,0,-1,0
177.86,-3.09,-42.62,-444,-5613,6115,0,0,-1
177.86,-3.08,-42.61,-442,-5604,6117,-1,-1,-1
177.86,-3.09,-42.62,-443,-5605,6112,-1,0,0
177.86,-3.09,-42.62,-448,-5605,6115,-1,0,0
177.86,-3.09,-42.62,-443,-5614,6102,-1,0,-1
177.87,-3.09,-42.63,-443,-5615,6095,-1,0,-1
177.87,-3.09,-42.63,-446,-5622,6103,-1,-1,-1
177.87,-3.09,-42.63,-446,-5623,6104,-1,-1,0
177.87,-3.09,-42.63,-442,-5618,6103,0,0,-1
177.87,-3.09,-42.63,-445,-5609,6107,-1,0,-1
177.87,-3.09,-42.63,-451,-5603,6108,-1,0,-1
177.87,-3.09,-42.63,-448,-5620,6099,-1,0,-1
177.88,-3.09,-42.64,-447,-5614,6089,0,0,-1
177.88,-3.09,-42.64,-440,-5603,6089,-1,0,0
177.88,-3.09,-42.64,-436,-5604,6104,-1,0,-1
177.88,-3.09,-42.64,-444,-5611,6103,-1,0,-1
177.88,-3.10,-42.64,-444,-5612,6093,-1,0,-1
177.88,-3.10,-42.65,-463,-5612,6110,-1,0,-1
177.88,-3.11,-42.65,-462,-5607,6103,-1,0,-1
177.88,-3.11,-42.65,-466,-5626,6108,-1,-1,-1
177.89,-3.11,-42.66,-456,-5620,6099,-1,0,-1
177.89,-3.11,-42.66,-452,-5615,6095,0,0,0
177.89,-3.11,-42.66,-442,-5613,6100,-1,-1,0
177.89,-3.11,-42.65,-440,-5608,6101,0,0,0
177.88,-3.11,-42.65,-439,-5610,6099,-1,0,0
177.87,-3.12,-42.65,-441,-5607,6104,-1,0,0
177.87,-3.13,-42.65,-450,-5611,6107,-1,0,0
177.87,-3.13,-42.66,-454,-5612,6095,0,0,0
177.87,-3.13,-42.66,-452,-5613,6097,-1,-1,0
177.87,-3.13,-42.65,-451,-5616,6093,-1,-1,-1
177.87,-3.12,-42.66,-438,-5627,6088,0,-1,0
177.87,-3.12,-42.65,-443,-5630,6087,0,-1,0
177.87,-3.13,-42.64,-450,-5625,6089,0,-1,0
177.87,-3.12,-42.64,-449,-5623,6096,0,-1,-1
177.87,-3.12,-42.64,-450,-5609,6099,0,-1,-1
177.87,-3.12,-42.63,-445,-5604,6100,0,-1,0
177.87,-3.12,-42.63,-438,-5600,6102,0,-1,0
177.87,-3.12,-42.63,-441,-5606,6092,-1,0,0
177.86,-3.13,-42.63,-442,-5609,6094,-1,0,0
177.86,-3.13,-42.63,-445,-5619,6098,0,0,0
177.86,-3.13,-42.62,-453,-5616,6105,0,0,0
177.86,-3.13,-42.62,-458,-5618,6100,0,-1,0
177.86,-3.13,-42.62,-451,-5618,6101,0,-1,0
177.86,-3.13,-42.61,-443,-5618,6102,0,0,0
177.86,-3.13,-42.60,-447,-5615,6108,0,0,-1
177.86,-3.13,-42.60,-451,-5619,6111,0,-1,0
177.87,-3.12,-42.59,-448,-5616,6118,0,-1,0
177.87,-3.12,-42.59,-451,-5605,6113,0,0,0
177.87,-3.12,-42.58,-449,-5601,6102,0,-1,-1
177.87,-3.12,-42.58,-443,-5609,6105,0,-1,0
177.87,-3.12,-42.58,-442,-5602,6098,0,0,0
177.86,-3.12,-42.58,-440,-5592,6110,-1,0,0
177.86,-3.12,-42.58,-449,-5607,6111,-1,0,0
177.86,-3.12,-42.58,-449,-5611,6106,0,0,0
177.86,-3.13,-42.58,-446,-5611,6109,0,0,-1
177.86,-3.12,-42.57,-438,-5606,6110,0,-1,0
177.86,-3.12,-42.56,-434,-5601,6114,-1,-1,0
177.86,-3.12,-42.56,-438,-5607,6117,-1,0,0
177.86,-3.12,-42.56,-445,-5607,6116,0,0,0
177.86,-3.13,-42.56,-455,-5610,6109,0,0,0
177.86,-3.13,-42.56,-459,-5611,6120,-1,0,0
177.86,-3.13,-42.55,-463,-5614,6122,0,-1,-1
177.86,-3.13,-42.55,-453,-5617,6113,0,-1,-1
177.86,-3.12,-42.54,-445,-5621,6116,0,-1,-1
177.86,-3.12,-42.54,-439,-5607,6113,0,-1,0
177.86,-3.12,-42.54,-437,-5603,6109,0,-1,0
177.86,-3.12,-42.53,-444,-5604,6115,0,0,0
177.86,-3.12,-42.53,-438,-5602,6108,-1,0,0
177.86,-3.13,-42.53,-444,-5609,6120,0,0,0
177.86,-3.13,-42.53,-445,-5604,6114,-1,0,0
177.85,-3.14,-42.53,-467,-5603,6112,0,0,0
177.85,-3.14,-42.53,-461,-5609,6103,0,-1,0
177.85,-3.14,-42.53,-455,-5619,6097,0,-1,0
177.85,-3.14,-42.52,-454,-5623,6104,0,-1,-1
177.85,-3.14,-42.52,-449,-5612,6104,0,-1,0
177.85,-3.13,-42.51,-450,-5605,6108,0,-1,0
177.85,-3.13,-42.50,-451,-5600,6115,0,-1,0
177.85,-3.13,-42.50,-443,-5597,6117,0,0,0
177.85,-3.13,-42.50,-439,-5597,6126,-1,-1,0
177.84,-3.13,-42.50,-439,-5593,6130,-1,0,0
177.84,-3.13,-42.50,-438,-5596,6120,-1,0,0
177.84,-3.13,-42.50,-447,-5603,6111,-1,0,0
177.84,-3.14,-42.50,-453,-5608,6104,0,0,0
177.84,-3.14,-42.50,-460,-5603,6103,0,0,0
177.84,-3.14,-42.49,-458,-5602,6104,0,-1,0
177.84,-3.14,-42.48,-459,-5606,6111,0,-1,0
177.84,-3.14,-42.48,-451,-5599,6123,0,-1,0
177.84,-3.14,-42.48,-453,-5590,6125,0,-1,0
177.84,-3.14,-42.47,-448,-5586,6140,-1,0,0
177.84,-3.14,-42.47,-442,-5595,6126,-1,0,0
177.84,-3.14,-42.47,-445,-5596,6121,0,0,0
177.83,-3.15,-42.46,-448,-5599,6125,0,0,0
177.83,-3.15,-42.46,-453,-5605,6130,0,0,0
177.83,-3.15,-42.46,-460,-5602,6119,0,-1,0
177.83,-3.15,-42.46,-463,-5602,6116,0,0,0
177.83,-3.15,-42.46,-462,-5607,6109,0,0,-1
177.83,-3.15,-42.46,-455,-5605,6107,0,0,-1
177.83,-3.15,-42.45,-446,-5596,6110,0,-1,0
177.83,-3.15,-42.45,-448,-5584,6107,0,0,0
177.83,-3.15,-42.45,-449,-5593,6117,0,0,0
177.83,-3.16,-42.44,-463,-5591,6132,-1,0,0
177.83,-3.16,-42.44,-473,-5593,6130,-1,0,-1
177.82,-3.17,-42.44,-470,-5593,6128,-1,-1,-1
177.82,-3.17,-42.44,-468,-5591,6125,-1,-1,-1
177.83,-3.16,-42.44,-461,-5591,6117,0,-1,-1
177.83,-3.16,-42.44,-465,-5591,6115,0,-1,-1
177.82,-3.15,-42.43,-454,-5583,6109,0,-1,-1
177.82,-3.15,-42.43,-439,-5585,6124,-1,-1,0
177.82,-3.15,-42.43,-449,-5584,6132,-1,-1,0
177.82,-3.15,-42.42,-450,-5581,6138,-1,-1,0
177.82,-3.15,-42.43,-444,-5590,6128,-1,-1,-1
177.82,-3.15,-42.44,-458,-5601,6119,-1,-1,0
177.82,-3.15,-42.45,-454,-5602,6120,-1,-1,0
177.83,-3.14,-42.45,-452,-5605,6119,0,0,-1
177.83,-3.14,-42.44,-454,-5604,6126,0,-1,-1
177.83,-3.14,-42.44,-451,-5605,6134,-1,-1,-1
177.84,-3.13,-42.44,-451,-5593,6132,-1,-1,-1
177.83,-3.13,-42.44,-452,-5595,6123,-1,-1,-1
177.83,-3.13,-42.45,-448,-5595,6116,-1,-1,-1
177.84,-3.13,-42.45,-446,-5592,6118,-1,-1,-1
177.84,-3.12,-42.45,-442,-5588,6124,-1,-1,0
177.84,-3.12,-42.45,-448,-5582,6121,-1,-1,-1
177.83,-3.12,-42.46,-451,-5586,6109,-1,0,0
177.84,-3.12,-42.47,-451,-5595,6119,-1,0,-1
177.84,-3.12,-42.48,-450,-5600,6113,-1,0,-1
177.84,-3.12,-42.48,-455,-5598,6109,-1,0,-1
177.84,-3.12,-42.48,-456,-5601,6103,-1,-1,-1
177.85,-3.12,-42.48,-451,-5598,6103,-1,-1,-1
177.85,-3.12,-42.48,-450,-5597,6116,-1,-1,-1
177.85,-3.12,-42.48,-446,-5603,6122,-1,-1,-1
177.85,-3.11,-42.48,-446,-5598,6125,-1,-1,-1
177.85,-3.11,-42.49,-452,-5601,6114,-1,0,0
177.85,-3.11,-42.49,-447,-5599,6117,-1,0,-1
177.85,-3.11,-42.50,-449,-5594,6117,-1,0,0
177.85,-3.11,-42.50,-446,-5596,6110,-1,0,-1
177.85,-3.11,-42.51,-446,-5594,6111,-1,-1,-1
177.85,-3.11,-42.51,-452,-5605,6109,-1,0,-1
177.85,-3.11,-42.51,-448,-5602,6113,-1,0,-1
177.85,-3.11,-42.51,-449,-5603,6114,-1,0,-1
177.85,-3.11,-42.52,-446,-5599,6117,-1,0,-1
177.86,-3.11,-42.52,-451,-5610,6111,-1,0,-1
177.86,-3.11,-42.52,-453,-5616,6112,0,-1,-1
177.86,-3.11,-42.52,-444,-5602,6117,0,-1,0
177.87,-3.10,-42.52,-440,-5583,6118,-1,0,0
177.87,-3.10,-42.52,-440,-5591,6119,-1,0,0
177.87,-3.11,-42.52,-444,-5597,6119,-1,0,-1
177.86,-3.12,-42.53,-452,-5617,6116,-1,-1,0
177.86,-3.12,-42.54,-457,-5613,6116,-1,0,-1
177.87,-3.11,-42.54,-468,-5611,6113,-1,-1,-1
177.87,-3.11,-42.54,-464,-5609,6115,-1,-1,-1
177.87,-3.11,-42.54,-448,-5609,6109,0,-1,-1
177.87,-3.10,-42.54,-440,-5608,6121,-1,-1,0
177.87,-3.10,-42.54,-432,-5608,6127,-1,0,0
177.87,-3.10,-42.54,-434,-5604,6125,-1,0,0
177.87,-3.10,-42.54,-439,-5599,6125,-1,0,0
177.87,-3.11,-42.55,-444,-5602,6124,-1,0,0
177.87,-3.11,-42.56,-446,-5608,6123,-1,-1,-1
177.87,-3.11,-42.58,-445,-5618,6105,-1,-1,0
177.87,-3.10,-42.58,-440,-5618,6105,-1,-1,0
177.87,-3.10,-42.58,-443,-5621,6098,-1,0,-1
177.87,-3.10,-42.58,-445,-5622,6100,-1,0,0
177.87,-3.11,-42.58,-457,-5611,6112,-1,0,0
177.87,-3.11,-42.58,-454,-5604,6118,-1,-1,-1
177.87,-3.10,-42.58,-443,-5600,6115,-1,0,0
177.87,-3.10,-42.59,-449,-5604,6107,-1,-1,0
177.87,-3.10,-42.60,-448,-5608,6097,-1,-1,0
177.87,-3.10,-42.60,-452,-5603,6101,-1,0,0
177.87,-3.11,-42.60,-448,-5608,6098,-1,0,-1
177.87,-3.11,-42.61,-447,-5610,6099,-1,0,0
177.87,-3.11,-42.62,-450,-5617,6100,-1,0,0
177.86,-3.11,-42.63,-456,-5626,6092,-1,0,0
177.86,-3.12,-42.63,-461,-5620,6094,-1,0,0
177.86,-3.12,-42.63,-450,-5622,6100,0,-1,0
177.86,-3.12,-42.63,-449,-5617,6110,-1,-1,-1
177.86,-3.11,-42.63,-451,-5611,6106,-1,-1,-1
177.86,-3.11,-42.63,-450,-5611,6105,-1,-1,-1
177.87,-3.11,-42.63,-438,-5603,6097,-1,0,0
177.87,-3.11,-42.64,-434,-5604,6099,-1,0,0
177.87,-3.11,-42.64,-432,-5613,6091,-1,0,-1
177.87,-3.11,-42.64,-443,-5619,6101,-1,-1,0
177.87,-3.11,-42.64,-454,-5622,6095,-1,0,-1
177.88,-3.10,-42.64,-455,-5618,6092,-1,-1,-1
177.88,-3.10,-42.64,-446,-5622,6099,0,-1,-1
177.88,-3.10,-42.64,-440,-5622,6101,0,-1,0
177.88,-3.10,-42.64,-446,-5616,6109,0,-1,0
177.88,-3.10,-42.64,-443,-5611,6115,-1,0,0
177.88,-3.10,-42.64,-444,-5614,6102,-1,0,-1
177.88,-3.10,-42.65,-453,-5620,6095,-1,0,-1
177.88,-3.10,-42.65,-451,-5622,6089,0,-1,-1
177.88,-3.10,-42.65,-432,-5612,6103,-1,-1,-1
177.89,-3.09,-42.65,-434,-5608,6103,-1,0,-1
177.89,-3.10,-42.66,-444,-5611,6106,-1,0,0
177.89,-3.11,-42.66,-456,-5624,6103,-1,0,0
177.89,-3.11,-42.66,-456,-5621,6109,-1,0,-1
177.88,-3.11,-42.66,-454,-5619,6094,-1,0,-1
177.89,-3.11,-42.67,-457,-5618,6090,-1,-1,-1
177.89,-3.10,-42.67,-454,-5628,6095,-1,-1,-1
177.89,-3.10,-42.67,-447,-5623,6098,0,-1,-1
177.89,-3.10,-42.66,-437,-5614,6108,-1,-1,0
177.90,-3.10,-42.66,-434,-5612,6111,-1,0,0
177.89,-3.10,-42.66,-437,-5604,6108,-1,0,0
177.89,-3.10,-42.66,-441,-5606,6101,-1,0,0
177.89,-3.10,-42.67,-448,-5619,6099,-1,0,-1
177.89,-3.10,-42.68,-453,-5628,6093,-1,-1,0
177.89,-3.10,-42.68,-446,-5624,6090,-1,-1,0
177.89,-3.10,-42.68,-445,-5629,6098,-1,-1,0
177.89,-3.10,-42.68,-449,-5630,6098,0,0,0
177.89,-3.11,-42.67,-453,-5622,6102,0,0,0
177.89,-3.11,-42.67,-444,-5622,6098,0,0,0
177.89,-3.11,-42.66,-445,-5615,6101,-1,0,0
177.89,-3.11,-42.66,-442,-5610,6102,0,0,-1
177.90,-3.11,-42.65,-442,-5608,6108,0,0,-1
177.90,-3.11,-42.65,-440,-5617,6104,0,0,-1
177.89,-3.11,-42.65,-442,-5614,6097,-1,-1,0
177.89,-3.11,-42.66,-446,-5616,6085,-1,0,0
177.89,-3.11,-42.66,-447,-5614,6081,0,0,0
177.89,-3.11,-42.65,-439,-5618,6087,0,0,0
177.89,-3.11,-42.64,-445,-5607,6105,0,0,-1
177.89,-3.11,-42.64,-454,-5603,6104,0,-1,0
177.89,-3.11,-42.63,-453,-5604,6104,0,0,0
177.89,-3.12,-42.63,-457,-5610,6112,0,-1,0
177.89,-3.12,-42.62,-451,-5606,6102,0,-1,0
177.89,-3.11,-42.62,-446,-5607,6104,0,0,0
177.89,-3.12,-42.62,-451,-5613,6092,0,0,-1
177.89,-3.12,-42.62,-448,-5617,6101,0,-1,0
177.89,-3.12,-42.62,-440,-5615,6100,-1,0,0
177.89,-3.12,-42.62,-443,-5615,6091,0,0,-1
177.89,-3.12,-42.61,-444,-5608,6093,0,-1,0
177.89,-3.12,-42.61,-448,-5611,6099,0,-1,0
177.89,-3.12,-42.61,-447,-5614,6096,0,0,0
177.88,-3.12,-42.60,-447,-5604,6097,0,-1,0
177.88,-3.12,-42.60,-444,-5603,6108,-1,0,0
177.89,-3.12,-42.61,-453,-5611,6103,0,0,-1
177.89,-3.12,-42.61,-453,-5619,6105,0,-1,-1
177.89,-3.12,-42.59,-448,-5612,6104,0,-1,0
177.89,-3.11,-42.58,-438,-5606,6111,0,-1,0
177.89,-3.11,-42.58,-435,-5598,6106,0,0,0
177.89,-3.12,-42.58,-442,-5603,6108,0,0,0
177.89,-3.12,-42.58,-453,-5608,6111,0,0,-1
177.89,-3.12,-42.57,-456,-5611,6115,0,0,-1
177.89,-3.12,-42.57,-467,-5611,6118,0,-1,-1
177.89,-3.12,-42.57,-451,-5619,6104,0,-1,-1
177.89,-3.12,-42.57,-449,-5618,6103,0,-1,-1
177.89,-3.11,-42.55,-439,-5607,6118,0,-1,-1
177.89,-3.11,-42.55,-439,-5610,6121,0,-1,-1
177.89,-3.11,-42.55,-436,-5606,6122,0,-1,0
177.89,-3.11,-42.54,-437,-5605,6118,0,0,0
177.89,-3.11,-42.55,-445,-5607,6118,-1,0,0
177.89,-3.12,-42.55,-458,-5610,6115,-1,0,0
177.89,-3.12,-42.55,-454,-5619,6115,-1,-1,0
177.89,-3.12,-42.55,-454,-5618,6111,0,-1,0
177.88,-3.12,-42.54,-460,-5617,6100,0,-1,0
177.88,-3.12,-42.54,-462,-5610,6110,0,0,0
177.88,-3.13,-42.53,-456,-5603,6105,0,-1,0
177.88,-3.12,-42.53,-453,-5602,6110,0,-1,-1
177.88,-3.12,-42.52,-451,-5601,6107,0,-1,0
177.88,-3.12,-42.52,-447,-5603,6108,0,-1,-1
177.88,-3.12,-42.52,-443,-5599,6115,0,-1,0
177.88,-3.12,-42.51,-443,-5599,6115,0,-1,0
177.89,-3.11,-42.51,-442,-5591,6121,-1,0,0
177.88,-3.12,-42.52,-447,-5598,6113,-1,0,0
177.88,-3.12,-42.52,-446,-5601,6104,-1,0,0
177.87,-3.13,-42.52,-448,-5605,6095,0,0,0
177.87,-3.13,-42.52,-457,-5609,6102,0,0,-1
177.87,-3.13,-42.51,-457,-5613,6104,0,-1,-1
177.87,-3.13,-42.51,-459,-5615,6100,0,-1,0
177.87,-3.13,-42.51,-454,-5605,6097,0,-1,0
177.87,-3.13,-42.50,-451,-5602,6105,0,-1,0
177.87,-3.13,-42.49,-447,-5595,6120,0,-1,-1
177.87,-3.12,-42.48,-445,-5593,6124,0,0,0
177.87,-3.12,-42.48,-448,-5597,6127,-1,-1,0
177.87,-3.12,-42.48,-439,-5596,6119,-1,0,0
177.87,-3.12,-42.48,-446,-5597,6111,0,0,0
177.86,-3.13,-42.48,-459,-5592,6114,-1,0,0
177.86,-3.14,-42.48,-455,-5603,6120,-1,0,0
177.86,-3.14,-42.48,-460,-5606,6118,0,0,-1
177.87,-3.14,-42.48,-453,-5601,6113,0,-1,0
177.86,-3.13,-42.47,-445,-5597,6120,0,-1,0
177.86,-3.13,-42.47,-440,-5595,6119,0,-1,0
177.86,-3.14,-42.47,-449,-5593,6117,-1,0,0
177.85,-3.14,-42.47,-458,-5595,6121,0,0,0
177.86,-3.15,-42.46,-454,-5598,6135,-1,0,0
177.86,-3.15,-42.46,-463,-5603,6124,-1,0,-1
177.86,-3.15,-42.47,-465,-5609,6121,-1,0,-1
177.86,-3.15,-42.47,-461,-5606,6108,0,-1,-1
177.86,-3.15,-42.46,-449,-5604,6115,0,-1,0
177.86,-3.14,-42.46,-447,-5598,6118,0,-1,-1
177.86,-3.14,-42.46,-442,-5596,6121,0,0,-1
177.86,-3.14,-42.45,-442,-5586,6134,-1,-1,0
177.86,-3.14,-42.46,-460,-5592,6133,-1,0,0
177.86,-3.14,-42.46,-459,-5591,6126,-1,-1,0
177.86,-3.14,-42.46,-459,-5597,6126,-1,-1,0
177.86,-3.14,-42.46,-451,-5608,6116,-1,-1,-1
177.86,-3.13,-42.46,-447,-5610,6107,0,-1,0
177.86,-3.13,-42.47,-476,-5633,6135,-1,-1,-1
177.88,-3.12,-42.47,-488,-5622,6096,1,1,-1
177.88,-3.13,-42.45,-500,-5531,6165,-2,-2,-1
177.90,-3.09,-42.48,-478,-5587,6129,-1,-1,-1
177.90,-3.06,-42.50,-459,-5621,6107,-1,-2,-1
177.91,-3.03,-42.51,-402,-5615,6086,0,-1,0
177.91,-3.01,-42.51,-368,-5574,6088,-1,-1,0
177.89,-3.01,-42.51,-357,-5563,6098,-1,0,0
177.88,-3.03,-42.53,-371,-5572,6077,-1,1,0
177.86,-3.06,-42.54,-428,-5592,6104,-1,0,0
177.84,-3.09,-42.54,-481,-5611,6130,-1,0,0
177.84,-3.10,-42.56,-506,-5634,6137,-1,-1,-1
177.85,-3.09,-42.57,-486,-5657,6103,-1,-1,-1
177.85,-3.09,-42.58,-465,-5655,6072,0,-1,-1
177.85,-3.08,-42.57,-438,-5631,6074,0,-1,-1
177.85,-3.08,-42.55,-432,-5605,6094,0,-1,0
177.86,-3.08,-42.54,-425,-5584,6103,0,0,0
177.86,-3.08,-42.53,-435,-5583,6113,0,0,0
177.86,-3.08,-42.53,-440,-5584,6135,-1,0,0
177.86,-3.08,-42.53,-443,-5595,6136,-1,0,-1
177.86,-3.09,-42.54,-450,-5599,6123,-1,0,-1
177.86,-3.10,-42.55,-457,-5609,6113,-1,0,-1
177.87,-3.09,-42.56,-456,-5627,6093,-1,0,-1
177.87,-3.09,-42.57,-461,-5621,6082,0,-1,-1
177.87,-3.09,-42.56,-453,-5615,6092,0,-1,0
177.87,-3.09,-42.55,-442,-5614,6105,0,-1,0
177.87,-3.09,-42.54,-446,-5611,6115,0,0,0
177.87,-3.09,-42.54,-444,-5605,6113,-1,0,0
177.87,-3.09,-42.54,-448,-5591,6124,-1,0,-1
177.87,-3.09,-42.54,-451,-5583,6118,-1,0,-1
177.87,-3.09,-42.55,-450,-5590,6107,-1,0,-1
177.87,-3.08,-42.55,-439,-5595,6106,-1,-1,-1
177.87,-3.08,-42.56,-443,-5604,6107,-1,-1,0
177.87,-3.08,-42.56,-442,-5610,6104,-1,-1,0
177.87,-3.08,-42.56,-444,-5605,6117,-1,-1,0
177.87,-3.08,-42.55,-444,-5605,6123,-1,0,0
177.87,-3.08,-42.56,-438,-5601,6125,-1,0,-1
177.87,-3.08,-42.56,-437,-5609,6116,-1,0,-1
177.87,-3.08,-42.57,-438,-5620,6110,-1,0,-1
177.88,-3.08,-42.58,-443,-5614,6109,-1,-1,-1
177.88,-3.08,-42.58,-447,-5617,6113,-1,0,-1
177.88,-3.09,-42.58,-454,-5619,6111,0,0,-1
177.88,-3.09,-42.58,-453,-5612,6111,0,0,-1
177.88,-3.09,-42.57,-451,-5606,6110,0,-1,-1
177.88,-3.08,-42.57,-445,-5606,6112,-1,0,-1
177.89,-3.08,-42.57,-441,-5604,6114,-1,-1,-1
177.89,-3.08,-42.57,-444,-5609,6108,-1,-1,-1
177.89,-3.08,-42.57,-437,-5600,6112,-1,-1,0
177.89,-3.08,-42.58,-432,-5591,6115,-1,0,0
177.89,-3.08,-42.58,-433,-5597,6116,-1,0,-1
177.89,-3.08,-42.58,-440,-5600,6109,-1,0,-1
177.89,-3.08,-42.58,-448,-5605,6112,-1,0,-1
177.89,-3.08,-42.58,-448,-5612,6106,-1,0,-1
177.89,-3.08,-42.58,-457,-5613,6101,0,-1,-1
177.89,-3.08,-42.58,-453,-5610,6101,0,-1,-1
177.89,-3.08,-42.58,-446,-5609,6103,0,-1,-1
177.90,-3.08,-42.58,-440,-5605,6106,0,0,-1
177.90,-3.08,-42.58,-446,-5598,6118,-1,0,-1
177.90,-3.08,-42.58,-448,-5597,6118,-1,-1,0
177.90,-3.09,-42.58,-451,-5608,6102,-1,0,0
177.90,-3.09,-42.59,-442,-5610,6098,-1,0,-1
177.90,-3.09,-42.59,-445,-5609,6112,-1,-1,-1
177.89,-3.09,-42.60,-442,-5616,6115,-1,-1,0
177.89,-3.09,-42.60,-438,-5616,6102,-1,0,0
177.89,-3.10,-42.61,-443,-5614,6108,-1,0,0
177.89,-3.10,-42.62,-442,-5622,6098,-1,0,0
177.89,-3.10,-42.62,-443,-5612,6101,-1,0,0
177.88,-3.10,-42.62,-446,-5605,6108,-1,0,0
177.88,-3.10,-42.63,-438,-5604,6101,-1,0,0
177.88,-3.11,-42.64,-439,-5620,6103,-1,0,0
177.87,-3.12,-42.64,-452,-5623,6099,-1,0,0
177.87,-3.13,-42.66,-456,-5622,6108,-1,0,0
177.86,-3.14,-42.66,-455,-5613,6091,-1,0,0
177.86,-3.14,-42.67,-463,-5614,6097,-1,0,-1
177.86,-3.14,-42.67,-447,-5625,6089,-1,0,0
177.86,-3.14,-42.68,-438,-5617,6087,-1,0,0
177.86,-3.14,-42.69,-446,-5619,6086,-1,0,0
177.85,-3.15,-42.70,-441,-5618,6092,-1,0,0
177.85,-3.15,-42.70,-454,-5615,6083,-1,0,0
177.85,-3.15,-42.70,-455,-5615,6083,-1,0,0
177.85,-3.16,-42.71,-457,-5622,6082,-1,0,0
177.85,-3.16,-42.71,-453,-5621,6086,-1,-1,0
177.85,-3.16,-42.71,-458,-5629,6103,-1,-1,-1
177.85,-3.15,-42.71,-462,-5632,6092,0,-1,-1
177.86,-3.15,-42.71,-469,-5627,6090,0,-1,-1
177.86,-3.15,-42.70,-470,-5627,6094,0,-1,-1
177.86,-3.14,-42.70,-460,-5630,6096,0,-1,-1
177.86,-3.14,-42.70,-452,-5630,6100,0,-1,-1
177.87,-3.13,-42.69,-451,-5625,6098,0,-1,-1
177.87,-3.13,-42.69,-444,-5620,6101,0,-1,-1
177.87,-3.12,-42.68,-440,-5608,6103,0,0,-1
177.88,-3.12,-42.68,-444,-5614,6104,-1,-1,-1
177.88,-3.12,-42.68,-446,-5617,6102,-1,-1,0
177.88,-3.12,-42.69,-448,-5629,6095,-1,0,-1
177.88,-3.12,-42.69,-453,-5634,6082,0,-1,-1
177.88,-3.11,-42.69,-452,-5622,6091,0,-1,-1
177.88,-3.12,-42.68,-456,-5628,6097,0,-1,-1
177.88,-3.11,-42.67,-456,-5625,6101,0,-1,-1
177.88,-3.11,-42.67,-455,-5620,6108,0,-1,-1
177.89,-3.11,-42.67,-451,-5615,6114,0,0,-1
177.89,-3.11,-42.66,-444,-5607,6104,0,0,-1
177.89,-3.10,-42.66,-441,-5608,6105,-1,0,-1
177.90,-3.11,-42.66,-444,-5620,6114,-1,0,-1
177.90,-3.11,-42.67,-441,-5624,6103,-1,0,-1
177.90,-3.11,-42.67,-443,-5629,6095,0,0,-1
177.90,-3.10,-42.67,-440,-5628,6099,-1,0,0
177.90,-3.10,-42.67,-442,-5626,6101,-1,0,-1
177.90,-3.10,-42.68,-443,-5632,6104,-1,0,-1
177.91,-3.10,-42.68,-440,-5634,6091,0,0,-1
177.91,-3.10,-42.68,-442,-5631,6084,0,0,-1
177.92,-3.10,-42.68,-439,-5619,6086,0,-1,0
177.92,-3.10,-42.68,-436,-5617,6097,-1,0,0
177.92,-3.10,-42.68,-440,-5615,6087,-1,0,0
177.91,-3.11,-42.68,-450,-5609,6090,-1,0,0
177.91,-3.11,-42.68,-457,-5614,6089,0,0,-1
177.91,-3.11,-42.68,-457,-5625,6091,0,0,-1
177.91,-3.11,-42.69,-456,-5634,6088,0,-1,0
177.91,-3.11,-42.68,-451,-5624,6091,0,-1,-1
177.91,-3.11,-42.68,-448,-5620,6094,0,-1,0
177.91,-3.10,-42.67,-442,-5612,6104,0,-1,0
177.91,-3.10,-42.67,-440,-5611,6108,0,0,0
177.91,-3.10,-42.67,-436,-5613,6103,-1,0,0
177.91,-3.11,-42.67,-441,-5615,6099,-1,0,0
177.91,-3.11,-42.67,-445,-5620,6099,0,0,0
177.90,-3.12,-42.67,-455,-5625,6099,0,-1,0
177.90,-3.12,-42.67,-461,-5628,6090,0,0,-1
177.90,-3.12,-42.67,-454,-5628,6082,0,-1,0
177.90,-3.12,-42.67,-452,-5626,6079,0,0,-1
177.90,-3.12,-42.66,-455,-5620,6082,0,0,-1
177.90,-3.12,-42.65,-448,-5618,6101,0,0,-1
177.90,-3.12,-42.64,-440,-5615,6102,0,0,-1
177.91,-3.11,-42.64,-431,-5618,6098,0,-1,-1
177.91,-3.11,-42.64,-432,-5616,6098,0,0,0
177.91,-3.11,-42.64,-436,-5624,6095,0,0,0
177.91,-3.11,-42.64,-437,-5627,6097,0,0,0
177.91,-3.11,-42.64,-443,-5626,6096,0,0,0
177.91,-3.11,-42.64,-438,-5620,6095,0,0,0
177.91,-3.11,-42.64,-446,-5627,6094,0,0,0
177.91,-3.11,-42.64,-453,-5628,6094,0,-1,0
177.91,-3.11,-42.63,-453,-5629,6084,0,-1,-1
177.91,-3.11,-42.63,-450,-5625,6099,0,-1,0
177.91,-3.11,-42.62,-450,-5617,6093,0,-1,0
177.91,-3.11,-42.62,-446,-5607,6096,0,0,0
177.91,-3.11,-42.61,-447,-5607,6097,0,0,0
177.91,-3.12,-42.61,-450,-5608,6115,0,-1,0
177.91,-3.11,-42.60,-449,-5611,6114,0,0,-1
177.91,-3.11,-42.60,-448,-5610,6103,0,-1,-1
177.91,-3.11,-42.60,-453,-5608,6100,0,-1,0
177.91,-3.11,-42.59,-442,-5612,6101,0,-1,0
177.91,-3.11,-42.58,-447,-5617,6107,0,-1,0
177.91,-3.11,-42.58,-447,-5612,6110,0,0,0
177.92,-3.11,-42.58,-440,-5612,6114,-1,-1,0
177.91,-3.11,-42.58,-446,-5607,6105,0,0,-1
177.92,-3.11,-42.57,-451,-5613,6101,0,-1,0
177.92,-3.11,-42.56,-451,-5603,6099,0,-1,0
177.91,-3.11,-42.56,-440,-5601,6100,0,0,0
177.91,-3.11,-42.56,-449,-5605,6097,0,0,0
177.91,-3.12,-42.56,-449,-5615,6097,0,0,0
177.91,-3.12,-42.56,-454,-5616,6101,0,0,0
177.91,-3.12,-42.56,-456,-5616,6101,0,-1,-1
177.91,-3.12,-42.56,-449,-5616,6096,0,-1,-1
177.92,-3.11,-42.56,-435,-5616,6086,0,-1,-1
177.92,-3.11,-42.55,-434,-5618,6103,0,-1,0
177.92,-3.10,-42.55,-428,-5613,6104,0,0,0
177.92,-3.11,-42.55,-435,-5604,6100,0,0,0
177.91,-3.11,-42.55,-439,-5601,6108,0,0,0
177.91,-3.11,-42.55,-441,-5601,6111,-1,0,0
177.91,-3.12,-42.55,-447,-5602,6098,0,0,0
177.91,-3.12,-42.54,-451,-5604,6104,0,0,-1
177.91,-3.12,-42.54,-449,-5612,6110,0,-1,0
177.91,-3.11,-42.54,-448,-5612,6105,0,0,0
177.91,-3.12,-42.53,-450,-5610,6102,0,0,0
177.91,-3.12,-42.53,-448,-5612,6101,0,-1,0
177.91,-3.12,-42.52,-451,-5610,6116,0,-1,-1
177.91,-3.12,-42.52,-447,-5605,6125,0,-1,-1
177.91,-3.11,-42.51,-439,-5600,6118,0,-1,-1
177.91,-3.11,-42.50,-442,-5594,6116,0,0,0
177.91,-3.11,-42.50,-444,-5593,6117,0,0,0
177.91,-3.12,-42.50,-444,-5595,6121,0,0,0
177.91,-3.12,-42.50,-444,-5601,6119,-1,0,0
177.91,-3.12,-42.50,-443,-5603,6116,0,0,0
177.91,-3.12,-42.50,-444,-5612,6115,0,0,0
177.91,-3.12,-42.50,-446,-5610,6101,0,0,0
177.90,-3.12,-42.50,-454,-5605,6100,0,-1,0
177.90,-3.12,-42.49,-453,-5604,6101,0,-1,0
177.90,-3.12,-42.49,-454,-5598,6109,0,-1,0
177.90,-3.12,-42.48,-452,-5595,6115,0,0,0
177.90,-3.12,-42.48,-450,-5597,6112,0,0,-1
177.90,-3.12,-42.47,-454,-5588,6114,0,-1,-1
177.90,-3.12,-42.47,-446,-5583,6111,0,0,0
177.90,-3.12,-42.47,-443,-5592,6106,0,0,0
177.90,-3.13,-42.47,-445,-5594,6102,0,0,0
177.90,-3.13,-42.47,-449,-5600,6112,-1,0,0
177.89,-3.14,-42.47,-459,-5614,6120,0,0,-1
177.89,-3.14,-42.46,-462,-5613,6114,0,-1,0
177.90,-3.13,-42.46,-450,-5598,6110,0,-1,0
177.90,-3.13,-42.46,-446,-5599,6116,0,-1,0
177.89,-3.13,-42.45,-446,-5592,6117,0,0,0
177.90,-3.13,-42.44,-452,-5593,6139,0,0,0
177.89,-3.14,-42.44,-457,-5593,6129,0,0,0
177.89,-3.14,-42.44,-461,-5599,6121,-1,0,0
177.89,-3.14,-42.45,-462,-5601,6110,0,0,-1
177.89,-3.14,-42.45,-452,-5604,6104,0,-1,-1
177.89,-3.14,-42.45,-450,-5597,6102,0,-1,-1
177.90,-3.13,-42.45,-442,-5594,6104,0,-1,-1
177.90,-3.13,-42.44,-430,-5592,6109,0,-1,0
177.90,-3.12,-42.44,-435,-5591,6124,0,-1,0
177.90,-3.12,-42.44,-440,-5588,6131,-1,0,0
177.90,-3.13,-42.44,-446,-5592,6127,-1,0,0
177.89,-3.13,-42.45,-452,-5598,6118,-1,-1,0
177.89,-3.13,-42.45,-456,-5608,6113,-1,-1,-1
177.89,-3.13,-42.46,-458,-5603,6114,-1,-1,-1
177.89,-3.13,-42.46,-459,-5603,6104,0,-1,-1
177.89,-3.13,-42.46,-460,-5604,6107,0,0,0
177.89,-3.13,-42.45,-451,-5598,6114,0,-1,-1
177.90,-3.12,-42.45,-445,-5591,6111,0,-1,-1
177.90,-3.12,-42.45,-443,-5597,6125,0,-1,-1
177.90,-3.11,-42.45,-436,-5590,6131,-1,-1,-1
177.90,-3.11,-42.45,-445,-5590,6108,-1,0,-1
177.90,-3.12,-42.46,-448,-5585,6104,-1,-1,0
177.90,-3.11,-42.46,-447,-5601,6100,-1,0,0
177.90,-3.11,-42.47,-448,-5612,6099,-1,0,-1
177.90,-3.12,-42.47,-447,-5603,6107,0,0,0
177.90,-3.12,-42.47,-449,-5602,6119,0,-1,0
177.90,-3.12,-42.47,-451,-5599,6115,-1,0,0
177.90,-3.12,-42.47,-457,-5607,6108,0,-1,-1
177.90,-3.12,-42.48,-461,-5603,6112,-1,-1,-1
177.90,-3.12,-42.48,-457,-5603,6105,-1,-1,-1
177.90,-3.11,-42.49,-448,-5605,6109,-1,0,-1
177.91,-3.11,-42.49,-445,-5604,6107,-1,0,-1
177.91,-3.11,-42.49,-448,-5608,6109,-1,0,0
177.91,-3.12,-42.49,-448,-5600,6115,-1,0,0
177.91,-3.12,-42.49,-443,-5594,6123,-1,0,-1
177.91,-3.12,-42.49,-442,-5595,6117,-1,0,-1
177.91,-3.12,-42.50,-447,-5605,6107,-1,0,-1
