Yaw,Pitch,Roll,AX,AY,AZ,GX,GY,GZ
-31.95,-3.36,42.34,-461,5440,5979,-1,-1,0
-31.97,-3.37,42.32,-455,5450,5976,-1,1,-1
-31.98,-3.38,42.31,-466,5454,5978,-1,-1,-1
-31.98,-3.39,42.29,-476,5427,5961,-1,0,-1
-31.99,-3.40,42.27,-482,5446,5975,-1,0,-1
-32.01,-3.40,42.24,-489,5432,5958,-2,-1,0
-32.03,-3.39,42.21,-477,5423,5967,-2,-1,0
-32.04,-3.39,42.18,-471,5419,5987,-1,0,0
-32.05,-3.39,42.17,-474,5417,5988,-1,-1,0
-32.07,-3.38,42.15,-460,5406,5995,-1,-1,0
-32.08,-3.38,42.15,-447,5407,5996,-1,0,0
-32.08,-3.39,42.14,-461,5410,6005,-1,0,-1
-32.08,-3.39,42.14,-472,5414,5993,0,0,-1
-32.08,-3.39,42.15,-485,5433,5994,0,0,-1
-32.08,-3.40,42.15,-497,5447,5990,-1,-1,0
-32.10,-3.38,42.14,-483,5427,5984,-1,-1,0
-32.11,-3.38,42.13,-477,5404,5987,-1,0,0
-32.12,-3.37,42.12,-466,5406,6002,-1,0,0
-32.12,-3.37,42.13,-466,5412,5997,-1,0,0
-32.13,-3.38,42.12,-471,5417,5994,-1,0,0
-32.13,-3.38,42.12,-473,5411,5990,-1,-1,0
-32.13,-3.37,42.11,-475,5410,5997,-1,-1,0
-32.14,-3.36,42.11,-474,5408,5995,-1,-1,0
-32.15,-3.36,42.10,-464,5408,6000,-1,-1,0
-32.15,-3.35,42.10,-462,5407,6002,0,-1,-1
-32.14,-3.36,42.10,-463,5422,6002,0,0,-1
-32.14,-3.36,42.10,-462,5420,5995,-1,0,-1
-32.14,-3.36,42.10,-470,5412,5996,0,0,-1
-32.13,-3.36,42.10,-473,5414,5992,0,0,-1
-32.13,-3.36,42.10,-470,5416,5993,0,-1,-1
-32.13,-3.36,42.10,-468,5414,5993,0,-1,-1
-32.13,-3.36,42.10,-469,5420,5995,-1,-1,-1
-32.12,-3.36,42.10,-467,5422,5998,0,-1,-1
-32.12,-3.36,42.10,-462,5418,6001,0,0,-1
-32.12,-3.36,42.10,-466,5413,6006,0,-1,-1
-32.11,-3.37,42.11,-463,5416,5997,0,0,-1
-32.10,-3.37,42.11,-466,5418,6000,0,0,-1
-32.10,-3.38,42.12,-464,5421,5996,0,0,-1
-32.10,-3.38,42.11,-468,5400,6004,-1,0,-1
-32.09,-3.39,42.11,-462,5394,6011,0,0,-1
-32.08,-3.39,42.12,-469,5412,6009,0,0,-1
-32.07,-3.40,42.13,-479,5427,6008,0,0,-1
-32.06,-3.40,42.14,-484,5424,5989,0,-1,-1
-32.06,-3.39,42.14,-473,5427,5991,0,-1,-1
-32.05,-3.40,42.15,-465,5416,6000,0,0,-1
-32.05,-3.41,42.15,-483,5406,5984,0,-1,-1
-32.03,-3.41,42.16,-478,5404,5991,0,-1,0
-32.03,-3.40,42.17,-475,5414,6002,0,-1,0
-32.03,-3.40,42.17,-455,5404,5991,0,0,-1
-32.02,-3.41,42.19,-481,5419,5979,0,0,-1
-32.01,-3.41,42.19,-474,5423,5993,0,-1,0
-32.02,-3.42,42.20,-477,5424,5977,0,0,-1
-32.01,-3.41,42.20,-486,5417,5981,0,-2,0
-32.01,-3.40,42.21,-454,5405,5993,0,0,-1
-31.98,-3.42,42.23,-480,5433,5981,0,0,-1
-31.98,-3.42,42.23,-483,5419,5987,0,-1,0
-31.97,-3.41,42.23,-477,5405,5984,0,0,-1
-31.95,-3.41,42.26,-473,5445,5987,0,-1,0
-31.95,-3.42,42.28,-486,5440,5963,0,0,-1
-31.95,-3.42,42.28,-467,5425,5974,0,-1,0
-31.95,-3.44,42.27,-493,5448,5959,-1,0,-1
-31.95,-3.42,42.28,-473,5419,5996,-1,-2,0
-31.94,-3.43,42.29,-480,5444,5981,0,0,-1
-31.93,-3.42,42.30,-471,5439,5982,0,-1,0
-31.92,-3.43,42.31,-471,5436,5961,0,0,-1
-31.91,-3.43,42.32,-469,5436,5982,0,-1,-1
-31.92,-3.44,42.32,-477,5437,5962,0,0,-1
-31.90,-3.45,42.33,-487,5422,5977,0,-1,-1
-31.88,-3.43,42.35,-446,5436,5980,0,0,-1
-31.87,-3.47,42.37,-520,5471,5959,-1,0,-1
-31.88,-3.44,42.37,-435,5421,5953,0,-1,0
-31.88,-3.47,42.37,-504,5460,5946,-1,0,-1
-31.86,-3.45,42.38,-478,5429,5983,0,-2,0
-31.87,-3.46,42.37,-480,5456,5959,-1,0,-1
-31.86,-3.47,42.38,-492,5444,5972,-1,-1,0
-31.87,-3.47,42.37,-492,5451,5972,-1,0,-1
-31.86,-3.47,42.37,-484,5438,5989,0,-1,0
-31.85,-3.48,42.37,-476,5450,5995,0,0,-1
-31.86,-3.48,42.36,-490,5429,5971,0,-1,-1
-31.85,-3.48,42.37,-488,5423,5978,0,-1,0
-31.84,-3.48,42.38,-474,5458,5972,-1,0,-1
-31.83,-3.49,42.38,-495,5453,5955,0,-1,-1
-31.84,-3.50,42.37,-478,5437,5966,-1,1,-1
-31.83,-3.53,42.36,-516,5451,5985,-1,0,-1
-31.84,-3.53,42.35,-504,5430,5972,-1,-1,0
-31.84,-3.53,42.35,-503,5435,5977,-1,-1,-1
-31.84,-3.53,42.34,-494,5448,5984,-1,0,0
-31.86,-3.53,42.32,-491,5437,5982,-1,0,-1
-31.86,-3.53,42.31,-479,5424,5979,-1,0,-1
-31.85,-3.54,42.31,-476,5424,5982,-1,0,-1
-31.85,-3.55,42.30,-494,5423,5970,-1,0,-1
-31.85,-3.56,42.30,-490,5417,5971,-1,0,-1
-31.84,-3.58,42.30,-499,5427,5976,-1,0,-1
-31.83,-3.59,42.29,-511,5428,5970,-1,0,-1
-31.84,-3.59,42.29,-517,5430,5972,-1,-1,0
-31.84,-3.59,42.28,-507,5433,5969,-1,0,-1
-31.84,-3.60,42.28,-499,5432,5971,-1,0,-1
-31.84,-3.60,42.27,-498,5427,5969,-1,0,-1
-31.84,-3.61,42.27,-502,5418,5974,-1,0,-1
-31.83,-3.62,42.26,-501,5408,5979,0,0,-1
-31.83,-3.62,42.26,-494,5416,5980,0,0,-1
-31.83,-3.63,42.26,-501,5440,5981,0,0,-1
-31.84,-3.64,42.26,-513,5423,5986,-1,0,0
-31.84,-3.64,42.25,-510,5414,5991,0,0,-1
-31.83,-3.65,42.26,-512,5415,5981,0,0,-1
-31.83,-3.65,42.26,-509,5419,5978,0,0,-1
-31.83,-3.66,42.27,-509,5425,5976,0,0,-1
-31.82,-3.67,42.28,-513,5433,5974,0,0,-1
-31.82,-3.67,42.28,-515,5438,5973,0,0,-1
-31.82,-3.67,42.28,-519,5442,5974,0,0,-1
-31.81,-3.68,42.29,-526,5443,5974,-1,0,-1
-31.81,-3.68,42.29,-525,5438,5972,-1,0,-1
-31.81,-3.69,42.28,-519,5431,5969,0,0,-1
-31.81,-3.69,42.28,-524,5435,5973,0,0,-1
-31.80,-3.70,42.29,-525,5432,5980,0,-1,-1
-31.79,-3.70,42.30,-519,5433,5978,0,0,-1
-31.78,-3.70,42.30,-525,5427,5977,0,-1,-1
-31.77,-3.70,42.31,-524,5431,5985,0,0,-1
-31.77,-3.71,42.31,-523,5425,5974,0,0,-1
-31.76,-3.71,42.32,-524,5431,5969,0,0,-1
-31.75,-3.71,42.32,-521,5437,5969,0,0,-1
-31.75,-3.71,42.34,-519,5450,5961,-1,0,-1
-31.74,-3.72,42.33,-530,5447,5960,-1,-1,-1
-31.75,-3.72,42.33,-532,5433,5976,-1,-1,0
-31.75,-3.71,42.32,-526,5429,5979,0,-1,0
-31.75,-3.70,42.33,-518,5432,5976,0,-1,-1
-31.75,-3.70,42.33,-522,5427,5978,0,-1,-1
-31.74,-3.70,42.34,-528,5430,5976,0,-1,-1
-31.73,-3.70,42.34,-523,5438,5956,-1,-1,-1
-31.73,-3.70,42.34,-506,5422,5987,0,-1,-1
-31.71,-3.70,42.35,-527,5426,5994,0,-1,-1
-31.68,-3.70,42.38,-527,5435,5969,0,-1,-1
-31.67,-3.68,42.40,-524,5453,5963,0,-1,0
-31.69,-3.66,42.39,-530,5457,5962,-1,-1,0
-31.70,-3.64,42.39,-470,5412,5964,0,-1,0
-31.69,-3.66,42.41,-519,5429,5966,0,0,-1
-31.66,-3.65,42.43,-489,5420,5949,0,0,0
-31.66,-3.69,42.44,-528,5477,5947,-1,0,-1
-31.66,-3.67,42.44,-553,5439,5938,-1,-1,0
-31.68,-3.67,42.43,-496,5451,5964,-1,0,-1
-31.67,-3.67,42.43,-539,5443,5968,-1,-1,0
-31.68,-3.65,42.42,-509,5456,5966,-1,0,0
-31.68,-3.65,42.42,-506,5427,5959,0,-1,0
-31.67,-3.66,42.44,-511,5451,5961,0,0,-1
-31.66,-3.65,42.43,-511,5441,5972,0,-1,0
-31.67,-3.65,42.43,-501,5448,5966,0,0,-1
-31.67,-3.66,42.44,-544,5461,5959,-1,0,0
-31.69,-3.63,42.42,-499,5432,5965,0,-1,0
-31.68,-3.64,42.43,-544,5478,5975,0,-1,0
-31.70,-3.62,42.41,-506,5461,5957,-1,-1,0
-31.71,-3.61,42.41,-507,5449,5949,-1,-1,0
-31.72,-3.60,42.40,-515,5440,5965,-1,-1,0
-31.73,-3.57,42.40,-476,5434,5975,-1,-1,0
-31.73,-3.58,42.39,-525,5450,5958,0,0,-1
-31.73,-3.56,42.40,-497,5432,5961,0,-1,0
-31.75,-3.56,42.40,-503,5447,5957,-1,0,0
-31.75,-3.54,42.41,-490,5437,5951,0,-1,0
-31.74,-3.54,42.42,-501,5468,5932,-1,1,-1
-31.76,-3.54,42.41,-504,5454,5942,-1,-1,0
-31.76,-3.54,42.41,-511,5444,5941,-1,0,0
-31.76,-3.53,42.41,-511,5472,5959,-1,-1,0
-31.77,-3.50,42.41,-481,5460,5963,-1,-2,0
-31.78,-3.49,42.40,-463,5453,5993,0,0,-1
-31.78,-3.49,42.41,-507,5455,5993,-1,-1,0
-31.80,-3.47,42.39,-463,5438,5974,-1,0,0
-31.80,-3.49,42.39,-493,5438,5951,0,-1,-1
-31.80,-3.48,42.38,-487,5451,5998,-1,-1,0
-31.80,-3.48,42.37,-513,5447,5971,0,-1,0
-31.81,-3.47,42.37,-461,5430,5978,-1,1,-1
-31.82,-3.49,42.35,-497,5460,5962,-1,0,0
-31.85,-3.48,42.33,-473,5436,5956,-2,0,0
-31.86,-3.49,42.31,-502,5438,5948,-1,0,0
-31.88,-3.48,42.29,-516,5464,5948,-1,-1,0
-31.92,-3.45,42.26,-492,5461,5951,-2,-1,0
-31.95,-3.44,42.22,-476,5440,5980,-2,0,0
-31.99,-3.43,42.18,-475,5423,5986,-2,0,0
-32.00,-3.43,42.16,-471,5406,5997,-1,0,0
-32.01,-3.43,42.15,-483,5412,6004,-1,0,0
-32.01,-3.44,42.15,-482,5410,5989,-1,0,0
-32.01,-3.44,42.15,-489,5415,5979,-1,0,-1
-32.01,-3.45,42.14,-493,5424,5991,-1,0,0
-32.02,-3.45,42.14,-496,5431,6009,-1,-1,0
-32.03,-3.44,42.12,-487,5421,6005,-1,-1,0
-32.04,-3.43,42.11,-483,5421,5997,0,-1,0
-32.04,-3.43,42.12,-478,5426,5993,-1,-1,0
-32.05,-3.42,42.12,-479,5418,5984,-1,0,0
-32.05,-3.43,42.11,-482,5412,5981,-1,-1,0
-32.06,-3.42,42.11,-484,5410,5980,-1,-1,0
-32.06,-3.42,42.11,-483,5425,5995,-1,0,0
-32.06,-3.42,42.10,-486,5429,5994,-1,-1,0
-32.06,-3.41,42.10,-485,5421,5997,-1,-1,0
-32.07,-3.41,42.10,-476,5408,5996,0,-1,0
-32.07,-3.40,42.10,-472,5414,5996,0,0,0
-32.07,-3.40,42.11,-482,5416,5985,-1,0,-1
-32.07,-3.40,42.11,-490,5426,5979,-1,0,0
-32.07,-3.41,42.10,-494,5420,5983,-1,-1,0
-32.08,-3.40,42.09,-489,5420,5989,-1,-1,0
-32.09,-3.40,42.09,-490,5425,5986,-1,-1,0
-32.10,-3.39,42.08,-481,5415,5989,-1,-1,0
-32.10,-3.38,42.07,-473,5409,5989,-1,-1,0
-32.12,-3.38,42.07,-463,5406,5986,-1,0,0
-32.12,-3.38,42.06,-468,5406,5989,-1,0,-1
-32.12,-3.38,42.07,-475,5413,6000,0,0,-1
-32.11,-3.38,42.07,-486,5422,6000,0,0,0
-32.12,-3.39,42.07,-486,5425,5996,-1,0,0
-32.12,-3.38,42.07,-492,5418,5999,-1,-1,0
-32.13,-3.38,42.06,-489,5422,5995,-1,0,0
-32.13,-3.38,42.06,-494,5420,5993,-1,-1,0
-32.13,-3.38,42.06,-485,5417,5988,-1,0,0
-32.13,-3.38,42.06,-492,5414,5990,-1,0,0
-32.13,-3.38,42.06,-493,5416,5999,-1,0,0
-32.14,-3.38,42.06,-490,5414,5992,-1,0,0
-32.15,-3.38,42.05,-489,5416,5995,-1,-1,0
-32.16,-3.37,42.05,-479,5410,5991,-1,-1,0
-32.16,-3.37,42.04,-477,5418,5998,-1,-1,0
-32.17,-3.37,42.04,-476,5419,6001,-1,0,0
-32.17,-3.37,42.04,-475,5418,5993,-1,0,0
-32.17,-3.37,42.04,-475,5419,5993,-1,0,0
-32.17,-3.36,42.04,-477,5416,5992,-1,0,0
-32.17,-3.36,42.04,-478,5414,5986,-1,0,0
-32.17,-3.37,42.04,-481,5425,5988,-1,-1,0
-32.18,-3.36,42.04,-468,5416,5988,0,-1,0
-32.18,-3.36,42.04,-472,5412,5991,0,0,0
-32.18,-3.36,42.05,-479,5418,5996,0,-1,0
-32.19,-3.35,42.04,-477,5388,6006,0,0,0
-32.19,-3.36,42.05,-476,5410,5999,0,0,0
-32.19,-3.35,42.07,-483,5424,5989,0,-1,0
-32.19,-3.35,42.07,-472,5430,6006,0,-1,0
-32.20,-3.35,42.08,-471,5427,5992,0,0,0
-32.21,-3.35,42.08,-478,5432,5994,-1,-1,0
-32.23,-3.34,42.07,-453,5419,5991,-1,0,-1
-32.23,-3.36,42.06,-486,5409,5983,-1,0,-1
-32.23,-3.35,42.06,-471,5401,5987,-1,-1,0
-32.24,-3.34,42.05,-449,5410,5984,-1,0,-1
-32.25,-3.35,42.04,-473,5416,5999,-1,0,-1
-32.26,-3.36,42.02,-485,5407,5990,-1,-1,-1
-32.26,-3.35,42.01,-492,5413,5995,-1,-1,0
-32.28,-3.34,42.00,-478,5408,6005,-1,-1,0
-32.29,-3.33,41.99,-470,5399,6010,-1,-1,0
-32.29,-3.32,41.98,-456,5382,6009,-1,-1,-1
-32.29,-3.32,41.98,-455,5381,6013,0,0,-1
-32.28,-3.33,41.98,-477,5397,6007,0,0,-1
-32.28,-3.34,41.98,-481,5407,6001,-1,0,-1
-32.28,-3.34,41.98,-480,5404,6000,-1,0,0
-32.28,-3.33,41.98,-480,5413,6008,-1,-1,0
-32.29,-3.33,41.98,-472,5412,6004,-1,0,0
-32.28,-3.33,41.99,-481,5411,5990,0,-1,0
-32.28,-3.31,42.00,-461,5414,5992,0,-1,-1
-32.28,-3.32,42.01,-455,5422,6006,-1,0,-1
-32.27,-3.33,42.01,-481,5419,6001,0,-1,-1
-32.26,-3.33,42.03,-459,5429,5990,0,0,-1
-32.24,-3.35,42.03,-484,5416,6006,0,0,-1
-32.24,-3.34,42.05,-476,5419,6011,0,-1,-1
-32.22,-3.34,42.06,-462,5409,5991,0,-1,-1
-32.21,-3.35,42.08,-473,5414,5992,0,0,-1
-32.20,-3.35,42.10,-481,5442,5982,0,-1,0
-32.18,-3.35,42.11,-482,5420,5994,0,-1,0
-32.19,-3.35,42.12,-487,5416,5978,0,-1,0
-32.17,-3.35,42.13,-477,5435,5964,0,0,-1
-32.15,-3.36,42.15,-496,5441,6000,0,-1,0
-32.15,-3.35,42.16,-462,5434,5954,0,0,-1
-32.14,-3.36,42.17,-485,5437,5976,0,-1,-1
-32.14,-3.34,42.17,-460,5430,5970,0,-1,-1
-32.12,-3.36,42.17,-481,5416,5983,0,0,-1
-32.10,-3.37,42.20,-481,5433,5996,0,-1,-1
-32.10,-3.38,42.20,-480,5435,5972,-1,0,-1
-32.09,-3.39,42.21,-497,5443,5969,-1,0,-1
-32.11,-3.38,42.19,-483,5382,6002,-1,-1,0
-32.09,-3.38,42.22,-509,5456,5986,0,-1,0
-32.10,-3.37,42.22,-445,5423,5980,-1,0,0
-32.09,-3.38,42.23,-517,5436,5997,1,-1,-1
-32.10,-3.37,42.23,-469,5434,5955,0,0,-1
-32.08,-3.37,42.24,-474,5438,5970,-1,-1,-1
-32.08,-3.39,42.25,-473,5449,5970,-1,0,0
-32.07,-3.41,42.26,-514,5449,5969,0,-1,-1
-32.07,-3.40,42.25,-455,5458,5976,-1,0,-1
-32.07,-3.42,42.25,-532,5444,5981,0,-1,0
-32.07,-3.40,42.25,-436,5426,5968,0,0,-1
-32.07,-3.42,42.25,-512,5447,5982,-1,-1,0
-32.07,-3.41,42.27,-448,5452,5983,1,1,-1
-32.06,-3.44,42.25,-499,5453,5962,-1,0,-1
-32.05,-3.44,42.25,-491,5438,5969,-1,-1,-1
-32.04,-3.44,42.25,-508,5456,5978,0,-1,-1
-32.04,-3.44,42.25,-472,5443,5972,-1,0,0
-32.05,-3.45,42.25,-510,5457,5994,0,-1,0
-32.05,-3.45,42.25,-468,5438,5958,-1,0,-1
-32.04,-3.47,42.25,-499,5451,5965,-1,0,0
-32.05,-3.47,42.24,-497,5426,5956,0,0,-1
-32.04,-3.47,42.24,-493,5462,5957,-1,0,-1
-32.05,-3.48,42.23,-489,5422,5953,-1,0,-1
-32.05,-3.49,42.22,-488,5437,5975,-1,0,-1
-32.06,-3.49,42.20,-511,5449,5969,-1,-1,0
-32.07,-3.48,42.19,-497,5435,5970,-1,0,0
-32.09,-3.49,42.17,-496,5430,5984,-1,0,0
-32.10,-3.49,42.16,-496,5421,5982,-1,0,0
-32.10,-3.49,42.16,-500,5434,5987,-1,0,-1
-32.10,-3.49,42.15,-498,5420,5983,-1,0,0
-32.11,-3.50,42.14,-492,5411,5976,-1,0,-1
-32.11,-3.51,42.14,-501,5424,5978,0,0,-1
-32.11,-3.51,42.14,-503,5436,5985,-1,0,0
-32.11,-3.52,42.13,-510,5430,5986,-1,0,-1
-32.10,-3.52,42.13,-519,5435,5985,-1,-1,0
-32.11,-3.52,42.12,-506,5435,5981,-1,-1,0
-32.11,-3.52,42.12,-496,5431,5984,-1,0,-1
-32.11,-3.52,42.12,-497,5430,5985,-1,0,-1
-32.11,-3.53,42.12,-502,5422,5996,-1,0,-1
-32.11,-3.53,42.11,-502,5417,5999,0,0,-1
-32.11,-3.53,42.12,-500,5425,5991,0,0,-1
-32.11,-3.54,42.12,-507,5430,5972,0,0,-1
-32.10,-3.55,42.13,-502,5431,5974,-1,0,-1
-32.11,-3.55,42.12,-498,5415,5986,-1,0,0
-32.11,-3.55,42.12,-498,5418,5991,0,0,-1
-32.10,-3.56,42.13,-500,5428,5979,0,0,-1
-32.10,-3.56,42.13,-508,5433,5987,-1,0,-1
-32.10,-3.57,42.13,-514,5443,5979,-1,0,0
-32.10,-3.57,42.13,-511,5441,5981,-1,0,0
-32.10,-3.57,42.13,-501,5435,5984,0,0,-1
-32.10,-3.57,42.13,-498,5422,5994,0,0,-1
-32.10,-3.58,42.14,-507,5427,5981,0,0,-1
-32.09,-3.59,42.15,-520,5442,5972,-1,0,-1
-32.09,-3.60,42.14,-515,5437,5984,-1,0,-1
-32.09,-3.60,42.14,-511,5427,5978,-1,0,-1
-32.09,-3.60,42.14,-513,5433,5974,-1,0,0
-32.09,-3.60,42.15,-512,5429,5973,0,-1,0
-32.09,-3.60,42.15,-512,5429,5975,0,0,0
-32.09,-3.60,42.16,-507,5429,5967,-1,0,-1
-32.08,-3.60,42.16,-509,5422,5966,0,0,-1
-32.07,-3.61,42.16,-517,5419,5982,0,0,-1
-32.06,-3.61,42.17,-522,5427,5978,0,-1,-1
-32.05,-3.62,42.18,-523,5426,5972,0,0,-1
-32.05,-3.62,42.19,-528,5442,5966,-1,-1,0
-32.05,-3.62,42.19,-527,5435,5967,-1,-1,0
-32.05,-3.62,42.20,-520,5430,5966,0,-1,-1
-32.04,-3.63,42.21,-522,5431,5974,0,-1,-1
-32.04,-3.63,42.21,-521,5435,5973,-1,-1,-1
-32.04,-3.63,42.21,-519,5435,5963,-1,-1,0
-32.04,-3.63,42.21,-516,5430,5967,0,-1,0
-32.03,-3.62,42.21,-513,5432,5960,0,0,0
-32.03,-3.62,42.21,-515,5435,5964,0,-1,0
-32.05,-3.61,42.21,-513,5428,5964,-1,-1,0
-32.05,-3.61,42.21,-511,5428,5967,-1,0,0
-32.05,-3.61,42.21,-519,5427,5965,-1,-1,0
-32.05,-3.61,42.21,-517,5432,5966,-1,0,0
-32.05,-3.60,42.21,-517,5434,5978,-1,-1,0
-32.05,-3.60,42.21,-525,5439,5982,0,-1,0
-32.06,-3.60,42.21,-518,5436,5977,-1,-1,0
-32.06,-3.59,42.21,-509,5431,5971,-1,-1,0
-32.06,-3.59,42.21,-509,5439,5964,-1,0,0
-32.06,-3.59,42.21,-510,5436,5971,-1,-1,0
-32.07,-3.59,42.20,-511,5437,5969,-1,0,0
-32.08,-3.59,42.20,-518,5437,5976,-1,-1,0
-32.08,-3.58,42.20,-519,5434,5975,-1,-1,0
-32.08,-3.58,42.20,-514,5440,5966,0,-1,0
-32.08,-3.58,42.20,-510,5439,5981,-1,0,0
-32.08,-3.57,42.20,-509,5434,5977,0,-1,0
-32.08,-3.57,42.20,-515,5431,5975,-1,0,0
-32.08,-3.57,42.20,-518,5432,5976,-1,-1,0
-32.08,-3.57,42.20,-515,5437,5965,-1,-1,0
-32.08,-3.57,42.20,-517,5457,5975,-1,0,0
-32.08,-3.57,42.19,-518,5452,5972,-1,-1,0
-32.09,-3.55,42.19,-499,5434,5981,-1,-1,0
-32.09,-3.56,42.19,-504,5421,5979,0,-1,-1
-32.08,-3.56,42.19,-507,5417,5983,-1,-1,-1
-32.07,-3.56,42.19,-517,5417,5969,0,0,0
-32.07,-3.57,42.20,-510,5427,5977,0,0,-1
-32.07,-3.57,42.20,-533,5445,5976,0,-1,0
-32.07,-3.56,42.20,-520,5433,5977,0,-1,0
-32.08,-3.54,42.20,-503,5424,5978,-1,0,0
-32.09,-3.54,42.20,-527,5438,5993,0,-1,0
-32.08,-3.52,42.20,-506,5413,5978,0,-1,0
-32.09,-3.50,42.21,-467,5412,5976,-1,0,0
-32.08,-3.52,42.22,-527,5426,5991,0,-1,-1
-32.07,-3.52,42.24,-486,5461,5984,-1,0,-1
-32.07,-3.52,42.23,-542,5437,5963,0,-1,0
-32.08,-3.50,42.24,-477,5437,5961,-1,0,0
-32.09,-3.52,42.24,-542,5474,5972,-1,-1,-1
-32.10,-3.48,42.22,-487,5405,5968,-1,-1,0
-32.14,-3.49,42.21,-463,5421,5957,-1,1,-1
-32.14,-3.51,42.20,-522,5439,5967,-1,-1,-1
-32.16,-3.50,42.18,-507,5449,5975,-2,0,0
-32.18,-3.50,42.15,-538,5446,5969,-1,-1,0
-32.20,-3.47,42.12,-522,5433,5980,-1,-2,0
-32.23,-3.44,42.10,-464,5420,5987,-2,0,0
-32.25,-3.44,42.08,-477,5387,6011,-1,0,0
-32.25,-3.45,42.08,-481,5392,6015,0,0,-1
-32.23,-3.45,42.09,-500,5418,5991,0,-1,-1
-32.23,-3.45,42.10,-496,5443,5978,-1,-1,0
-32.24,-3.46,42.09,-498,5431,5970,-1,0,0
-32.25,-3.46,42.08,-499,5415,5972,-1,-1,0
-32.26,-3.45,42.07,-497,5420,5987,-1,-1,0
-32.27,-3.44,42.06,-496,5429,5996,-1,-1,0
-32.28,-3.43,42.06,-487,5422,5976,-1,-1,0
-32.29,-3.43,42.05,-489,5416,5976,-1,0,0
-32.30,-3.43,42.04,-490,5412,5983,-1,0,0
-32.30,-3.43,42.04,-495,5419,5990,-1,-1,0
-32.31,-3.42,42.03,-491,5425,5987,-1,-1,0
-32.32,-3.42,42.03,-482,5428,5993,-1,-1,0
-32.33,-3.41,42.03,-479,5423,5997,-1,-1,0
-32.33,-3.40,42.02,-483,5413,5998,-1,-1,0
-32.33,-3.40,42.01,-490,5403,5989,-1,-1,0
-32.34,-3.40,42.01,-487,5407,5991,-1,-1,0
-32.34,-3.39,42.02,-481,5409,5994,-1,0,0
-32.34,-3.39,42.02,-489,5420,6001,-1,-1,0
-32.35,-3.39,42.02,-488,5427,5989,-1,-1,0
-32.35,-3.38,42.01,-482,5428,5989,-1,-1,0
-32.37,-3.38,42.00,-480,5424,5981,-1,0,0
-32.37,-3.38,42.00,-483,5418,6001,-1,0,0
-32.38,-3.38,42.00,-486,5408,5997,-1,-1,0
-32.39,-3.37,41.99,-486,5409,5996,-1,0,0
-32.39,-3.37,41.99,-482,5407,6006,-1,-1,0
-32.40,-3.36,41.98,-476,5414,6004,0,-1,0
-32.40,-3.36,41.98,-476,5418,5999,-1,0,0
-32.40,-3.35,41.98,-477,5413,5993,-1,0,0
-32.41,-3.35,41.97,-475,5407,5994,-1,-1,0
-32.42,-3.35,41.97,-470,5411,5998,-1,0,0
-32.43,-3.35,41.97,-471,5411,5999,-1,-1,0
-32.42,-3.34,41.98,-475,5419,5990,0,0,0
-32.43,-3.34,41.98,-476,5413,5992,-1,-1,0
-32.44,-3.33,41.97,-483,5407,5991,-1,-1,0
-32.44,-3.33,41.97,-473,5412,5986,-1,0,0
-32.45,-3.33,41.97,-473,5409,5991,-1,0,0
-32.45,-3.33,41.97,-485,5413,5992,-1,-1,0
-32.46,-3.33,41.97,-473,5416,5996,-1,0,0
-32.47,-3.34,41.97,-479,5414,5999,-1,0,0
-32.47,-3.34,41.97,-477,5407,6009,-1,0,0
-32.48,-3.33,41.97,-481,5405,6000,0,0,0
-32.48,-3.33,41.97,-479,5412,5996,0,0,0
-32.49,-3.33,41.97,-475,5413,5999,-1,0,0
-32.49,-3.34,41.96,-485,5407,6000,-1,0,0
-32.50,-3.33,41.96,-484,5413,5999,-1,0,0
-32.50,-3.33,41.96,-489,5410,6000,-1,0,0
-32.51,-3.33,41.96,-478,5419,6001,-1,-1,0
-32.51,-3.33,41.95,-481,5410,6001,-1,-1,0
-32.52,-3.32,41.95,-469,5413,5997,-1,-1,-1
-32.52,-3.32,41.94,-474,5412,5998,-1,-1,0
-32.53,-3.32,41.94,-474,5404,6005,-1,0,0
-32.53,-3.32,41.94,-481,5396,6010,0,-1,0
-32.53,-3.32,41.93,-476,5402,6015,0,-1,-1
-32.52,-3.32,41.94,-477,5409,6005,0,-1,0
-32.52,-3.32,41.94,-482,5403,6005,-1,-1,0
-32.52,-3.32,41.94,-481,5405,5989,-1,-1,0
-32.53,-3.32,41.94,-478,5412,5989,-1,0,0
-32.52,-3.32,41.94,-476,5419,6002,-1,-1,-1
-32.52,-3.32,41.94,-477,5404,6000,-1,0,-1
-32.52,-3.32,41.94,-469,5402,6003,0,0,0
-32.52,-3.32,41.94,-469,5406,6001,0,-1,-1
-32.51,-3.33,41.95,-465,5413,5985,0,0,-1
-32.50,-3.33,41.96,-471,5412,5987,0,0,-1
-32.51,-3.33,41.95,-479,5410,5992,-1,0,-1
-32.51,-3.33,41.95,-480,5409,6005,-1,0,-1
-32.51,-3.33,41.95,-479,5408,6006,-1,0,0
-32.51,-3.33,41.95,-478,5405,5997,0,-1,0
-32.51,-3.33,41.95,-476,5414,5997,0,0,-1
-32.51,-3.33,41.96,-477,5409,5989,-1,0,-1
-32.51,-3.33,41.96,-479,5410,5991,-1,0,-1
-32.50,-3.34,41.96,-476,5406,5988,-1,0,-1
-32.50,-3.35,41.96,-484,5407,5997,-1,0,-1
-32.49,-3.36,41.96,-487,5409,5991,0,0,-1
-32.48,-3.36,41.97,-487,5420,6012,0,0,-1
-32.47,-3.36,41.98,-480,5416,5999,0,0,-1
-32.46,-3.37,41.99,-473,5408,6004,0,0,-1
-32.44,-3.39,42.01,-480,5411,6007,0,0,-1
-32.43,-3.39,42.02,-481,5410,5991,0,-1,0
-32.42,-3.39,42.04,-470,5418,5964,0,0,-1
-32.41,-3.39,42.05,-477,5415,5982,0,-1,0
-32.40,-3.39,42.07,-478,5435,5985,0,0,-1
-32.39,-3.39,42.09,-485,5438,5988,0,-1,-1
-32.39,-3.40,42.09,-480,5445,5984,-1,0,-1
-32.39,-3.42,42.08,-490,5418,5992,-1,0,-1
-32.38,-3.43,42.09,-477,5442,5984,-1,0,-1
-32.38,-3.44,42.09,-490,5425,5968,-1,0,-1
-32.38,-3.45,42.08,-489,5409,5986,-1,0,-1
-32.39,-3.45,42.07,-507,5423,5978,-1,-1,0
-32.39,-3.45,42.07,-498,5426,5972,-1,-1,0
-32.40,-3.45,42.06,-499,5430,5971,-1,0,0
-32.41,-3.45,42.05,-494,5413,5986,-1,0,0
-32.41,-3.44,42.04,-494,5403,5986,-1,-1,0
-32.41,-3.44,42.04,-483,5406,5986,-1,0,-1
-32.42,-3.45,42.04,-492,5413,5976,0,0,-1
-32.41,-3.45,42.04,-493,5409,5977,-1,0,-1
-32.41,-3.46,42.04,-500,5408,5979,-1,0,0
-32.41,-3.46,42.04,-503,5413,5989,-1,-1,0
-32.40,-3.47,42.04,-497,5417,5997,0,-1,-1
-32.41,-3.46,42.04,-492,5415,5992,-1,0,0
-32.41,-3.46,42.04,-490,5411,5993,-1,0,0
-32.41,-3.46,42.04,-496,5408,5993,0,0,-1
-32.40,-3.47,42.04,-501,5417,5985,0,0,-1
-32.40,-3.47,42.05,-505,5424,5985,0,0,-1
-32.40,-3.48,42.06,-503,5431,5992,-1,0,0
-32.40,-3.48,42.05,-498,5428,5992,-1,-1,0
-32.41,-3.48,42.05,-496,5424,5994,-1,0,0
-32.41,-3.47,42.05,-493,5416,6001,0,-1,-1
-32.40,-3.48,42.06,-490,5423,5992,0,0,-1
-32.40,-3.48,42.06,-486,5424,5989,0,0,-1
-32.40,-3.49,42.06,-494,5425,5990,-1,0,-1
-32.40,-3.49,42.05,-503,5428,5990,-1,0,-1
-32.40,-3.50,42.06,-509,5418,5997,-1,0,0
-32.40,-3.50,42.05,-510,5415,5995,-1,-1,0
-32.40,-3.50,42.06,-498,5417,5991,0,0,0
-32.40,-3.50,42.06,-498,5420,5984,0,0,-1
-32.40,-3.50,42.06,-496,5414,5986,0,0,-1
-32.39,-3.51,42.06,-496,5407,5984,0,0,-1
-32.38,-3.52,42.06,-506,5413,5993,0,0,-1
-32.38,-3.52,42.08,-507,5417,6002,0,0,-1
-32.36,-3.53,42.09,-509,5428,5994,0,-1,-1
-32.34,-3.53,42.11,-502,5418,5994,0,-1,-1
-32.33,-3.53,42.11,-492,5390,6004,0,-1,-1
-32.30,-3.53,42.14,-508,5388,5985,1,-1,-1
-32.28,-3.53,42.17,-474,5415,5982,1,0,-1
-32.25,-3.55,42.21,-523,5452,5972,0,0,-1
-32.24,-3.54,42.23,-492,5441,5981,0,-1,0
-32.24,-3.56,42.24,-500,5460,5960,-1,0,-1
-32.22,-3.57,42.25,-538,5429,5967,0,-1,0
-32.23,-3.55,42.25,-487,5453,5954,-1,0,-1
-32.20,-3.57,42.26,-526,5418,5957,0,-1,-1
-32.21,-3.56,42.27,-511,5445,5957,0,0,-1
-32.20,-3.56,42.28,-495,5437,5982,-1,-1,-1
-32.19,-3.57,42.28,-510,5431,5954,0,0,-1
-32.18,-3.58,42.30,-511,5436,5982,0,0,-1
-32.16,-3.59,42.32,-527,5446,5976,0,0,-1
-32.13,-3.60,42.34,-513,5455,5972,0,-1,-1
-32.13,-3.61,42.35,-523,5444,5948,1,0,-1
-32.11,-3.61,42.36,-530,5449,5976,0,-1,0
-32.13,-3.60,42.36,-506,5415,5940,0,1,0
-32.09,-3.61,42.39,-534,5461,5945,0,-1,-1
-32.10,-3.60,42.39,-491,5445,5956,-1,0,0
-32.10,-3.62,42.39,-541,5439,5919,0,0,-1
-32.12,-3.59,42.39,-483,5429,5953,0,0,0
-32.11,-3.61,42.41,-533,5489,5936,0,-1,-1
-32.11,-3.59,42.41,-508,5457,5953,-1,-1,0
-32.11,-3.60,42.40,-530,5475,5961,-1,-1,-1
-32.10,-3.59,42.42,-504,5462,5951,1,-1,0
-32.10,-3.58,42.41,-523,5435,5956,0,-1,0
-32.09,-3.57,42.44,-490,5463,5969,0,-1,0
-32.08,-3.57,42.46,-477,5483,5941,-1,0,-1
-32.05,-3.59,42.48,-534,5505,5957,0,-1,-1
-32.08,-3.56,42.46,-503,5446,5932,0,0,0
-32.08,-3.57,42.47,-512,5459,5941,-1,0,-1
-32.08,-3.56,42.46,-519,5457,5940,0,-1,0
-32.07,-3.56,42.48,-484,5433,5884,0,0,0
-32.08,-3.60,42.47,-543,5452,5955,-1,0,-1
-32.08,-3.60,42.46,-511,5484,5945,-1,-1,0
-32.09,-3.62,42.43,-542,5514,5912,-3,0,-1
-32.12,-3.60,42.40,-547,5486,5922,-2,-1,0
-32.17,-3.58,42.35,-495,5477,5958,-2,0,0
-32.18,-3.58,42.31,-525,5443,5952,-2,-2,0
-32.20,-3.55,42.29,-462,5400,5974,-1,0,-1
-32.19,-3.57,42.28,-488,5427,5978,-1,0,-1
-32.19,-3.59,42.27,-504,5434,5946,-1,0,-1
-32.18,-3.61,42.27,-514,5438,5959,-1,0,-1
-32.16,-3.63,42.27,-542,5456,5971,-1,0,-1
-32.16,-3.63,42.27,-539,5470,5963,-1,-1,0
-32.17,-3.62,42.25,-531,5450,5973,-1,0,0
-32.17,-3.62,42.24,-526,5435,5966,-1,-1,0
-32.18,-3.62,42.22,-506,5425,5968,-1,0,-1
-32.18,-3.62,42.23,-525,5428,5955,0,-1,-1
-32.17,-3.62,42.23,-522,5442,5963,0,-1,-1
-32.17,-3.62,42.23,-522,5457,5966,-1,-1,0
-32.18,-3.62,42.21,-527,5446,5959,-1,0,0
-32.18,-3.62,42.21,-513,5433,5978,-1,-1,-1
-32.18,-3.61,42.20,-517,5431,5980,-1,-1,0
-32.19,-3.61,42.19,-515,5444,5977,-1,-1,0
-32.20,-3.61,42.18,-526,5432,5969,-1,-1,0
-32.22,-3.60,42.17,-500,5441,5974,-1,0,0
-32.22,-3.59,42.16,-516,5435,5979,-1,-1,0
-32.23,-3.60,42.14,-511,5426,5975,-1,0,-1
-32.24,-3.59,42.13,-524,5443,5963,-1,-1,0
-32.25,-3.59,42.12,-514,5438,5962,-1,0,0
-32.26,-3.58,42.10,-515,5433,5972,-1,-1,0
-32.28,-3.57,42.09,-509,5419,5985,-1,-1,0
-32.28,-3.57,42.09,-511,5436,5980,-1,-1,0
-32.29,-3.57,42.07,-521,5433,5968,-1,-1,0
-32.30,-3.56,42.05,-504,5427,5976,-1,0,0
-32.30,-3.56,42.04,-518,5420,5992,-1,-1,-1
-32.31,-3.56,42.04,-525,5421,5986,-1,-1,0
-32.31,-3.56,42.04,-519,5423,5980,-1,-1,0
-32.32,-3.55,42.03,-502,5421,5989,-1,0,0
-32.32,-3.56,42.03,-508,5437,5980,-1,0,-1
-32.31,-3.56,42.02,-519,5430,5979,-1,-1,-1
-32.31,-3.56,42.01,-519,5419,5991,-1,0,-1
-32.32,-3.56,42.00,-520,5419,5989,-1,-1,0
-32.34,-3.55,41.99,-516,5404,5983,-1,0,0
-32.35,-3.55,41.98,-515,5397,6005,-1,-1,0
-32.35,-3.55,41.98,-502,5412,6004,-1,0,-1
-32.35,-3.55,41.98,-517,5420,5984,-1,0,0
-32.35,-3.56,41.97,-516,5425,5982,-1,-1,0
-32.37,-3.55,41.95,-510,5412,5985,-1,0,0
-32.37,-3.55,41.95,-520,5415,5980,0,-1,-1
-32.36,-3.55,41.96,-518,5426,5996,-1,0,0
-32.38,-3.55,41.95,-508,5419,6004,-1,-1,0
-32.39,-3.54,41.93,-506,5405,5988,-1,-1,0
-32.40,-3.53,41.92,-497,5408,6002,-1,-1,0
-32.40,-3.53,41.92,-511,5406,6006,-1,0,-1
-32.40,-3.53,41.91,-514,5406,5993,0,-1,0
-32.41,-3.52,41.91,-506,5414,6016,-1,-1,0
-32.42,-3.51,41.91,-514,5434,5995,-1,-1,0
-32.43,-3.51,41.89,-507,5406,5999,-1,0,0
-32.44,-3.51,41.88,-510,5397,5994,-1,0,0
-32.45,-3.51,41.88,-518,5390,5997,-1,-1,0
-32.46,-3.50,41.88,-507,5401,5999,-1,0,0
-32.46,-3.49,41.88,-506,5421,5984,-1,0,0
-32.48,-3.50,41.87,-505,5410,5993,-1,0,0
-32.48,-3.50,41.87,-520,5398,6000,-1,-1,0
-32.48,-3.50,41.85,-517,5391,6004,-1,-1,0
-32.50,-3.49,41.85,-508,5405,6008,-1,-1,0
-32.50,-3.48,41.85,-495,5406,6013,-1,-1,0
-32.50,-3.48,41.84,-510,5405,6004,-1,-1,0
-32.51,-3.48,41.84,-510,5405,6004,-1,-1,0
-32.51,-3.48,41.84,-503,5407,6000,-1,0,0
-32.52,-3.48,41.83,-508,5404,5986,-1,-1,0
-32.52,-3.47,41.83,-511,5411,6000,-1,-1,0
-32.53,-3.46,41.83,-507,5410,6006,-1,-1,0
-32.54,-3.46,41.82,-502,5410,6005,-1,-1,0
-32.55,-3.45,41.81,-499,5403,5997,-1,-1,0
-32.56,-3.45,41.81,-494,5402,6008,-1,-1,0
-32.57,-3.45,41.79,-505,5383,6008,-1,-1,0
-32.57,-3.44,41.79,-491,5389,6013,0,0,0
-32.57,-3.44,41.80,-505,5414,6008,-1,-1,0
-32.59,-3.43,41.79,-492,5400,6016,-1,-1,0
-32.60,-3.43,41.78,-500,5390,6010,-1,0,0
-32.60,-3.43,41.78,-498,5393,6004,-1,-1,0
-32.61,-3.42,41.78,-489,5393,6015,-1,-1,0
-32.61,-3.43,41.78,-491,5405,5998,-1,0,-1
-32.62,-3.43,41.77,-500,5395,6029,-1,-1,0
-32.63,-3.42,41.76,-503,5396,6015,-1,0,-1
-32.63,-3.42,41.76,-497,5397,6013,-1,0,0
-32.64,-3.42,41.75,-495,5393,6021,-1,0,0
-32.65,-3.42,41.74,-493,5392,6009,-1,-1,0
-32.64,-3.42,41.75,-489,5392,6011,0,0,-1
-32.64,-3.43,41.75,-492,5390,6014,0,0,-1
-32.64,-3.44,41.75,-493,5392,6019,-1,0,-1
-32.64,-3.44,41.75,-497,5393,6017,0,0,-1
-32.63,-3.46,41.76,-503,5398,6016,0,0,0
-32.64,-3.45,41.76,-501,5400,6010,0,0,0
-32.63,-3.46,41.77,-498,5404,6003,-1,0,0
-32.64,-3.46,41.76,-495,5393,5999,-1,0,0
-32.64,-3.46,41.77,-491,5397,6003,-1,0,0
-32.64,-3.47,41.77,-496,5401,6004,-1,0,0
-32.64,-3.47,41.77,-503,5394,6009,-1,0,0
-32.64,-3.48,41.77,-511,5400,6013,0,-1,0
-32.65,-3.47,41.78,-508,5406,6004,0,-1,0
-32.64,-3.47,41.78,-510,5407,5993,-1,-1,0
-32.65,-3.47,41.78,-505,5410,5993,-1,-1,0
-32.66,-3.46,41.77,-513,5398,5987,-1,-1,0
-32.67,-3.45,41.77,-505,5400,6002,-1,-1,0
-32.68,-3.44,41.76,-498,5409,6010,-1,-1,0
-32.69,-3.44,41.75,-496,5399,6007,-1,-1,0
-32.70,-3.44,41.74,-493,5394,6005,-1,0,0
-32.71,-3.43,41.74,-493,5394,6018,-1,-1,0
-32.72,-3.43,41.73,-486,5396,6020,-1,-1,0
-32.72,-3.42,41.73,-496,5394,6019,-1,-1,0
-32.73,-3.42,41.72,-497,5391,6010,-1,-1,0
-32.73,-3.41,41.71,-491,5390,6014,-1,-1,-1
-32.73,-3.41,41.71,-492,5390,6015,-1,0,-1
-32.74,-3.42,41.71,-489,5389,6015,-1,0,-1
-32.73,-3.42,41.72,-498,5390,6012,0,-1,-1
-32.73,-3.42,41.72,-494,5396,6016,-1,-1,0
-32.73,-3.42,41.72,-500,5399,6018,-1,-1,-1
-32.73,-3.42,41.71,-498,5397,6018,-1,-1,0
-32.74,-3.42,41.71,-498,5390,6022,-1,-1,0
-32.74,-3.42,41.71,-496,5391,6022,-1,-1,0
-32.73,-3.42,41.71,-496,5385,6024,0,-1,-1
-32.73,-3.42,41.72,-501,5397,6021,-1,-1,-1
-32.72,-3.43,41.72,-499,5401,6027,-1,-1,-1
-32.72,-3.43,41.72,-495,5393,6022,-1,-1,0
-32.72,-3.43,41.72,-504,5388,6017,0,-1,-1
-32.72,-3.43,41.72,-501,5396,6015,0,-1,-1
-32.71,-3.43,41.73,-496,5408,6017,0,0,-1
-32.71,-3.44,41.73,-497,5411,6018,-1,-1,-1
-32.71,-3.44,41.73,-496,5401,6012,-1,0,-1
-32.71,-3.44,41.73,-498,5392,6016,-1,0,-1
-32.70,-3.44,41.73,-497,5388,6014,-1,0,-1
-32.70,-3.45,41.73,-498,5390,6009,0,0,-1
-32.69,-3.46,41.74,-501,5393,6010,-1,0,-1
-32.69,-3.47,41.74,-505,5400,6004,-1,0,-1
-32.68,-3.47,41.74,-505,5396,6006,-1,0,-1
-32.68,-3.47,41.74,-506,5386,6011,-1,0,0
-32.69,-3.47,41.74,-504,5390,6005,0,-1,0
-32.69,-3.48,41.75,-508,5392,6011,0,0,0
-32.69,-3.47,41.75,-502,5398,6005,0,0,0
-32.68,-3.48,41.75,-494,5399,5999,-1,0,-1
-32.68,-3.49,41.76,-506,5396,5996,-1,0,-1
-32.67,-3.50,41.76,-511,5389,6011,-1,0,-1
-32.67,-3.50,41.76,-508,5398,6019,0,0,-1
-32.67,-3.51,41.76,-510,5402,6020,0,0,0
-32.67,-3.51,41.77,-510,5407,6005,0,-1,-1
-32.67,-3.51,41.77,-508,5400,6004,-1,-1,-1
-32.66,-3.51,41.78,-499,5398,5997,0,-1,-1
-32.65,-3.52,41.79,-506,5389,6004,-1,0,-1
-32.66,-3.53,41.78,-513,5393,6001,-1,0,-1
-32.66,-3.53,41.78,-514,5399,6018,-1,0,-1
-32.66,-3.54,41.78,-520,5404,6014,-1,0,-1
-32.65,-3.54,41.78,-522,5413,6018,-1,0,0
-32.64,-3.55,41.79,-518,5407,6009,-1,0,0
-32.64,-3.55,41.79,-511,5403,6005,-1,0,0
-32.65,-3.55,41.79,-511,5398,6005,0,0,-1
-32.64,-3.56,41.79,-512,5397,6006,0,0,-1
-32.64,-3.57,41.80,-514,5410,6012,0,0,-1
-32.63,-3.57,41.80,-515,5409,6012,-1,0,-1
-32.63,-3.58,41.80,-520,5411,6016,0,0,-1
-32.63,-3.58,41.81,-522,5413,6005,0,0,0
-32.63,-3.58,41.81,-520,5409,6003,-1,0,-1
-32.62,-3.59,41.82,-513,5406,6001,-1,0,-1
-32.62,-3.59,41.82,-507,5409,5999,-1,0,-1
-32.62,-3.59,41.82,-516,5411,5997,-1,0,-1
-32.63,-3.60,41.81,-520,5404,6000,-1,0,-1
-32.62,-3.60,41.81,-521,5404,6001,-1,0,-1
-32.62,-3.61,41.82,-523,5405,6001,0,0,-1
-32.62,-3.61,41.83,-524,5410,5999,0,0,-1
-32.61,-3.62,41.83,-522,5406,6003,-1,0,-1
-32.61,-3.63,41.83,-519,5409,5997,0,0,-1
-32.60,-3.64,41.84,-524,5402,5996,0,0,-1
-32.60,-3.64,41.84,-524,5402,6000,-1,0,-1
-32.60,-3.64,41.84,-531,5400,5988,-1,0,0
-32.60,-3.65,41.84,-530,5407,5985,0,0,-1
-32.59,-3.66,41.85,-535,5405,5986,0,0,-1
-32.59,-3.67,41.85,-534,5411,5992,-1,0,-1
-32.59,-3.67,41.85,-535,5407,6001,-1,0,0
-32.60,-3.67,41.85,-535,5410,6001,-1,-1,0
-32.60,-3.67,41.85,-529,5398,6003,-1,-1,-1
-32.60,-3.67,41.85,-519,5391,5999,0,0,-1
-32.58,-3.69,41.86,-527,5400,5999,0,0,-1
-32.58,-3.69,41.86,-534,5399,5986,0,0,-1
-32.56,-3.71,41.87,-535,5395,5988,0,0,-1
-32.55,-3.72,41.88,-540,5407,5985,0,0,-1
-32.54,-3.73,41.89,-552,5410,5991,0,0,-1
-32.52,-3.74,41.90,-551,5410,5988,0,0,-1
-32.52,-3.75,41.90,-543,5416,6002,0,0,-1
-32.51,-3.75,41.91,-539,5416,6002,0,0,-1
-32.50,-3.76,41.92,-541,5410,5996,0,0,-1
-32.48,-3.77,41.93,-539,5417,5989,0,0,-1
-32.48,-3.78,41.93,-547,5421,5995,-1,0,-1
-32.47,-3.78,41.93,-539,5411,5981,-1,0,-1
-32.47,-3.79,41.93,-550,5416,5989,0,0,-1
-32.46,-3.80,41.94,-553,5418,5996,0,-1,-1
-32.47,-3.79,41.93,-541,5414,5992,-1,-1,0
-32.47,-3.79,41.93,-541,5405,5989,0,-1,-1
-32.46,-3.80,41.94,-547,5405,5985,0,0,-1
-32.44,-3.80,41.95,-554,5416,5992,0,-1,-1
-32.43,-3.80,41.96,-561,5422,5989,0,-1,-1
-32.43,-3.80,41.96,-556,5419,5989,-1,-1,-1
-32.43,-3.80,41.96,-555,5413,5982,-1,-1,-1
-32.43,-3.80,41.96,-553,5404,5983,0,-1,-1
-32.42,-3.80,41.97,-547,5410,5977,0,-1,-1
-32.42,-3.80,41.97,-550,5413,5973,-1,-1,-1
-32.42,-3.80,41.97,-544,5415,5977,-1,-1,-1
-32.41,-3.81,41.97,-548,5411,5988,0,-1,-1
-32.41,-3.80,41.97,-550,5421,5991,-1,-1,0
-32.40,-3.81,41.97,-553,5418,5997,-1,-1,0
-32.41,-3.80,41.98,-553,5414,5981,0,-1,0
-32.41,-3.80,41.98,-558,5414,5987,0,0,0
-32.41,-3.80,41.98,-560,5426,5990,-1,-1,0
-32.41,-3.80,41.98,-551,5418,5980,-1,-1,0
-32.41,-3.79,41.98,-550,5422,5978,-1,-1,0
-32.41,-3.79,41.98,-551,5421,5969,-1,-1,0
-32.41,-3.79,41.98,-554,5429,5974,-1,0,0
-32.43,-3.79,41.97,-555,5417,5975,-1,-1,0
-32.44,-3.78,41.96,-554,5404,5988,-1,-1,0
-32.45,-3.77,41.96,-551,5408,5991,-1,-1,0
-32.46,-3.76,41.95,-552,5419,5989,-1,-1,0
-32.46,-3.76,41.95,-553,5421,5988,-1,-1,0
-32.47,-3.76,41.95,-545,5418,5993,-1,-1,0
-32.48,-3.76,41.94,-543,5412,5995,-1,-1,0
-32.48,-3.76,41.94,-551,5416,6000,-1,-1,0
-32.47,-3.76,41.95,-555,5422,5989,0,-1,-1
-32.47,-3.75,41.95,-553,5427,5993,-1,-1,0
-32.47,-3.75,41.95,-558,5428,5997,-1,-1,0
-32.48,-3.75,41.94,-551,5425,5994,-1,-1,0
-32.48,-3.75,41.94,-545,5421,5988,-1,-1,0
-32.49,-3.74,41.94,-552,5429,5984,-1,-1,0
-32.49,-3.74,41.94,-548,5426,5987,-1,-1,0
-32.50,-3.74,41.93,-543,5419,5991,-1,-1,0
-32.50,-3.73,41.93,-551,5416,5999,-1,-1,0
-32.51,-3.73,41.92,-548,5412,6001,-1,-1,0
-32.52,-3.72,41.92,-544,5413,5993,-1,-1,0
-32.52,-3.72,41.93,-541,5419,5997,-1,-1,0
-32.52,-3.72,41.93,-541,5416,5993,-1,0,0
-32.53,-3.72,41.93,-540,5411,5988,-1,-1,0
-32.53,-3.72,41.93,-538,5418,5988,-1,-1,0
-32.53,-3.72,41.94,-540,5428,5975,0,-1,0
-32.53,-3.71,41.94,-538,5431,5979,-1,-1,0
-32.54,-3.71,41.93,-533,5418,5975,-1,-1,0
-32.55,-3.71,41.93,-536,5400,5982,-1,0,0
-32.56,-3.70,41.92,-535,5406,5986,-1,-1,0
-32.56,-3.70,41.92,-532,5411,5984,-1,-1,0
-32.56,-3.70,41.92,-541,5423,5982,-1,-1,0
-32.56,-3.70,41.92,-541,5418,5980,-1,-1,0
-32.56,-3.70,41.92,-542,5418,5989,-1,-1,0
-32.57,-3.69,41.92,-537,5418,5982,-1,-1,0
-32.57,-3.69,41.92,-535,5409,5980,-1,-1,-1
-32.57,-3.70,41.93,-544,5417,5982,-1,0,0
-32.57,-3.70,41.93,-544,5413,5992,-1,-1,0
-32.58,-3.70,41.92,-544,5412,5989,-1,-1,0
-32.58,-3.69,41.93,-536,5418,5988,0,-1,0
-32.58,-3.69,41.93,-536,5419,5988,-1,-1,0
-32.59,-3.69,41.92,-537,5419,5996,-1,0,0
-32.59,-3.69,41.92,-540,5421,5994,-1,-1,0
-32.60,-3.68,41.91,-539,5421,5997,-1,-1,0
-32.61,-3.67,41.91,-533,5416,5998,-1,-1,0
-32.61,-3.67,41.91,-528,5410,6000,-1,-1,0
-32.61,-3.67,41.91,-531,5411,6003,-1,0,0
-32.62,-3.67,41.90,-529,5406,6001,-1,-1,0
-32.62,-3.67,41.90,-531,5402,5992,-1,0,-1
-32.62,-3.67,41.90,-534,5410,5995,-1,0,0
-32.62,-3.67,41.90,-536,5417,5990,-1,-1,0
-32.62,-3.67,41.91,-530,5423,5983,-1,-1,0
-32.62,-3.67,41.91,-531,5419,5981,-1,-1,0
-32.63,-3.66,41.91,-533,5417,5992,-1,-1,0
-32.62,-3.67,41.91,-537,5412,5996,-1,-1,0
-32.63,-3.67,41.91,-529,5420,5998,-1,0,0
-32.64,-3.67,41.90,-539,5412,5996,-1,-1,0
-32.64,-3.66,41.90,-531,5408,5996,-1,-1,0
-32.64,-3.65,41.90,-529,5409,6008,-1,-1,0
-32.65,-3.65,41.89,-524,5410,6002,-1,-1,0
-32.66,-3.64,41.89,-525,5406,5992,-1,-1,0
-32.67,-3.63,41.88,-525,5403,5987,-1,-1,0
-32.67,-3.63,41.88,-520,5400,5996,-1,-1,0
-32.68,-3.63,41.88,-523,5400,5999,-1,-1,0
-32.68,-3.63,41.88,-533,5410,6000,-1,0,0
-32.69,-3.63,41.87,-533,5416,6000,-1,-1,0
-32.70,-3.62,41.87,-531,5409,5992,-1,-1,0
-32.71,-3.61,41.86,-536,5412,5993,-1,-1,0
-32.72,-3.61,41.85,-525,5404,5996,-1,-1,0
-32.73,-3.61,41.85,-522,5406,5990,-1,-1,0
-32.74,-3.60,41.84,-524,5403,6000,-1,-1,0
-32.74,-3.60,41.84,-528,5403,6003,-1,0,0
-32.75,-3.60,41.84,-523,5403,5996,-1,0,0
-32.75,-3.61,41.84,-532,5406,5993,-1,0,0
-32.76,-3.60,41.84,-521,5405,5999,-1,-1,0
-32.76,-3.59,41.84,-525,5408,5999,-1,-1,0
-32.77,-3.59,41.83,-522,5401,6003,-1,-1,0
-32.78,-3.59,41.83,-519,5404,6003,-1,-1,0
-32.79,-3.59,41.83,-519,5405,6002,-1,0,0
-32.79,-3.58,41.83,-520,5402,6002,-1,-1,0
-32.79,-3.58,41.83,-519,5407,6001,-1,-1,0
-32.80,-3.58,41.83,-521,5413,6007,-1,0,0
-32.81,-3.57,41.82,-514,5409,5999,-1,-1,0
-32.82,-3.57,41.82,-515,5403,5988,-1,0,0
-32.82,-3.57,41.82,-516,5409,5994,-1,-1,0
-32.83,-3.56,41.82,-513,5410,6003,-1,0,0
-32.84,-3.56,41.82,-517,5407,5992,-1,-1,0
-32.84,-3.55,41.81,-518,5410,5999,-1,-1,0
-32.85,-3.54,41.81,-512,5400,5995,-1,-1,0
-32.87,-3.54,41.80,-508,5399,6004,-1,-1,0
-32.88,-3.53,41.79,-509,5396,6022,-1,-1,0
-32.88,-3.53,41.79,-508,5390,6015,-1,0,0
-32.89,-3.54,41.79,-520,5395,6015,-1,-1,0
-32.88,-3.53,41.80,-511,5409,6004,0,-1,0
-32.89,-3.53,41.80,-516,5404,5998,-1,0,0
-32.90,-3.54,41.80,-525,5411,5999,-1,-1,0
-32.91,-3.53,41.80,-517,5408,5992,-1,-1,0
-32.93,-3.51,41.78,-509,5408,5997,-1,-1,0
-32.93,-3.51,41.78,-511,5404,5991,-1,-1,0
-32.94,-3.51,41.78,-511,5398,6006,-1,0,0
-32.95,-3.51,41.77,-511,5397,6017,-1,0,0
-32.95,-3.51,41.77,-517,5402,6015,-1,0,0
-32.97,-3.50,41.77,-509,5408,6004,-1,-1,0
-32.97,-3.49,41.77,-511,5404,6006,-1,-1,0
-32.99,-3.49,41.76,-501,5392,6007,-1,-1,0
-32.99,-3.48,41.75,-497,5387,6011,-1,-1,0
-32.99,-3.48,41.75,-501,5384,6004,0,0,-1
-32.99,-3.48,41.76,-504,5385,6011,0,0,-1
-32.98,-3.49,41.77,-508,5396,6016,0,0,-1
-32.98,-3.49,41.77,-510,5406,6019,0,0,0
-32.98,-3.49,41.78,-513,5408,6002,-1,-1,0
-32.98,-3.49,41.78,-511,5403,5996,-1,-1,0
-32.98,-3.49,41.78,-506,5398,5990,0,-1,0
-32.98,-3.49,41.78,-498,5398,5995,-1,0,-1
-32.98,-3.49,41.78,-508,5399,6008,-1,-1,-1
-32.98,-3.49,41.78,-504,5400,6013,-1,-1,0
-32.98,-3.49,41.78,-498,5394,6019,-1,0,0
-32.98,-3.50,41.77,-501,5395,6020,-1,0,-1
-32.98,-3.50,41.77,-496,5389,6009,-1,-1,-1
-32.98,-3.50,41.78,-498,5396,6009,0,0,-1
-32.97,-3.50,41.78,-500,5399,6013,-1,0,-1
-32.97,-3.51,41.78,-499,5388,6009,-1,0,-1
-32.96,-3.51,41.78,-507,5398,6010,-1,0,-1
-32.97,-3.52,41.78,-514,5407,6006,-1,-1,-1
-32.97,-3.52,41.78,-514,5403,6005,-1,-1,-1
-32.96,-3.52,41.78,-515,5396,6002,-1,0,-1
-32.96,-3.52,41.78,-514,5388,6003,0,0,-1
-32.96,-3.52,41.78,-503,5388,6008,0,0,-1
-32.96,-3.52,41.79,-503,5395,6006,0,0,-1
-32.95,-3.53,41.79,-507,5403,6014,0,0,-1
-32.94,-3.53,41.80,-509,5403,6004,-1,0,-1
-32.95,-3.54,41.80,-516,5405,6001,-1,0,-1
-32.95,-3.54,41.80,-513,5401,6003,-1,-1,-1
-32.94,-3.54,41.80,-506,5400,6005,-1,-1,0
-32.94,-3.54,41.80,-508,5405,6002,-1,-1,-1
-32.94,-3.54,41.80,-509,5392,6007,-1,0,0
-32.94,-3.54,41.80,-514,5389,5996,0,-1,-1
-32.92,-3.55,41.81,-513,5401,5996,0,0,-1
-32.92,-3.56,41.81,-525,5406,5999,0,-1,-1
-32.90,-3.56,41.82,-523,5408,6006,0,0,-1
-32.89,-3.57,41.83,-525,5417,6016,0,-1,-1
-32.89,-3.57,41.83,-518,5411,6006,0,-1,0
-32.89,-3.57,41.84,-508,5407,5992,0,0,-1
-32.87,-3.58,41.86,-519,5416,6000,0,0,-1
-32.86,-3.59,41.87,-515,5407,6000,0,0,-1
-32.86,-3.60,41.88,-516,5401,5997,-1,0,-1
-32.85,-3.61,41.88,-528,5410,5997,0,-1,-1
-32.85,-3.61,41.88,-526,5410,5986,-1,0,-1
-32.85,-3.62,41.89,-529,5417,5999,0,-1,-1
-32.84,-3.62,41.89,-525,5419,5991,-1,-1,0
-32.85,-3.62,41.89,-522,5404,5994,-1,-1,0
-32.85,-3.62,41.89,-511,5405,5995,0,0,-1
-32.84,-3.63,41.90,-516,5411,5990,-1,0,-1
-32.84,-3.63,41.90,-527,5408,5984,0,0,-1
-32.84,-3.63,41.91,-531,5421,5986,0,0,-1
-32.83,-3.64,41.91,-534,5431,5979,-1,-1,-1
-32.84,-3.63,41.91,-523,5423,5984,-1,0,0
-32.85,-3.63,41.90,-521,5409,5986,-1,0,0
-32.85,-3.63,41.90,-521,5405,5988,-1,0,0
-32.85,-3.63,41.90,-517,5409,5988,-1,-1,-1
-32.84,-3.64,41.91,-524,5415,5984,-1,0,-1
-32.83,-3.64,41.91,-525,5420,5985,-1,-1,0
-32.84,-3.65,41.91,-529,5407,5986,-1,0,-1
-32.84,-3.65,41.91,-536,5401,5998,0,-1,-1
-32.83,-3.65,41.92,-531,5408,5987,-1,0,-1
-32.83,-3.65,41.91,-534,5410,5996,-1,0,-1
-32.83,-3.65,41.91,-531,5416,5997,-1,0,-1
-32.83,-3.65,41.91,-526,5409,5986,0,0,-1
-32.83,-3.66,41.91,-531,5402,5985,0,0,0
-32.83,-3.66,41.91,-528,5401,5984,-1,-1,-1
-32.83,-3.67,41.92,-525,5412,5983,0,0,-1
-32.83,-3.67,41.92,-529,5421,5991,-1,0,-1
-32.82,-3.68,41.92,-533,5418,5985,-1,0,-1
-32.82,-3.68,41.92,-534,5414,5987,-1,0,0
-32.82,-3.68,41.92,-530,5416,5991,0,-1,-1
-32.81,-3.68,41.94,-520,5418,5993,0,-1,-1
-32.80,-3.69,41.94,-519,5425,5990,0,0,-1
-32.80,-3.70,41.94,-525,5408,6000,0,0,-1
-32.80,-3.70,41.94,-526,5396,5997,0,0,-1
-32.79,-3.71,41.95,-534,5406,5993,0,0,-1
-32.77,-3.72,41.97,-537,5426,5997,0,0,-1
-32.77,-3.72,41.98,-541,5428,5996,0,-1,-1
-32.76,-3.72,41.98,-533,5421,6000,0,0,-1
-32.74,-3.73,42.00,-532,5415,5997,0,0,-1
-32.72,-3.74,42.01,-536,5411,5987,0,-1,-1
-32.70,-3.76,42.03,-537,5421,5980,0,0,-1
-32.69,-3.77,42.03,-550,5428,5986,0,0,-1
-32.68,-3.78,42.04,-537,5414,5998,0,0,-1
-32.67,-3.79,42.05,-545,5404,5985,0,0,-1
-32.65,-3.80,42.07,-555,5407,5985,0,-1,-1
-32.63,-3.79,42.08,-544,5417,5985,0,-1,-1
-32.62,-3.79,42.10,-536,5419,5988,0,-1,-1
-32.60,-3.78,42.12,-551,5424,5981,0,-1,-1
-32.59,-3.78,42.12,-532,5414,5980,0,0,-1
-32.57,-3.81,42.14,-554,5430,5977,0,0,-1
-32.54,-3.82,42.17,-569,5452,5975,0,-1,-1
-32.55,-3.81,42.17,-544,5442,5964,-1,0,0
-32.54,-3.81,42.17,-568,5437,5966,-1,-1,0
-32.54,-3.81,42.17,-537,5422,5983,0,0,-1
-32.53,-3.82,42.18,-561,5453,5956,0,-1,-1
-32.51,-3.81,42.19,-556,5450,5965,0,-1,0
-32.52,-3.81,42.18,-530,5455,5973,-1,0,-1
-32.52,-3.81,42.17,-545,5435,5975,-1,-1,0
-32.53,-3.81,42.16,-546,5409,5968,-1,0,-1
-32.52,-3.82,42.17,-561,5415,5985,0,-1,-1
-32.51,-3.82,42.17,-549,5428,5990,0,0,-1
-32.52,-3.83,42.16,-568,5430,5977,-1,-1,0
-32.52,-3.82,42.15,-554,5425,5982,-1,-1,0
-32.53,-3.81,42.15,-548,5424,5981,-1,-1,0
-32.53,-3.81,42.15,-553,5428,5992,0,-1,0
-32.53,-3.81,42.14,-553,5433,5977,0,-1,0
-32.53,-3.81,42.14,-553,5431,5973,-1,-1,0
-32.54,-3.80,42.13,-543,5423,5966,-1,-1,0
-32.54,-3.80,42.13,-541,5419,5977,0,0,-1
-32.54,-3.80,42.13,-557,5425,5994,-1,-1,0
-32.54,-3.79,42.13,-545,5422,5991,-1,-1,0
-32.56,-3.79,42.12,-545,5409,5991,-1,-1,0
-32.56,-3.78,42.11,-537,5414,5985,-1,-1,0
-32.56,-3.78,42.12,-547,5418,5979,-1,0,0
-32.57,-3.79,42.11,-552,5425,5988,-1,-1,0
-32.57,-3.78,42.11,-553,5426,5992,-1,-1,0
-32.58,-3.77,42.10,-542,5428,5985,-1,-1,0
-32.59,-3.77,42.10,-540,5429,5979,-1,-1,0
-32.60,-3.76,42.09,-539,5422,5975,-1,-1,0
-32.61,-3.75,42.09,-542,5427,5981,-1,-1,0
-32.61,-3.75,42.08,-540,5433,5981,-1,-1,0
-32.62,-3.75,42.08,-535,5423,5981,-1,-1,0
-32.63,-3.74,42.07,-531,5420,5982,-1,-1,0
-32.63,-3.74,42.07,-536,5420,5979,-1,-1,0
-32.63,-3.73,42.07,-532,5420,5982,-1,-1,0
-32.64,-3.73,42.07,-523,5416,5993,-1,-1,0
-32.64,-3.72,42.07,-520,5422,5989,0,-1,0
-32.64,-3.72,42.07,-525,5414,5979,-1,-1,-1
-32.64,-3.72,42.07,-525,5416,5974,0,0,0
-32.64,-3.72,42.07,-531,5420,5981,-1,-1,0
-32.65,-3.72,42.07,-536,5421,5975,-1,0,0
-32.65,-3.71,42.07,-537,5421,5974,-1,-1,0
-32.66,-3.70,42.07,-528,5416,5980,-1,-1,0
-32.67,-3.70,42.06,-521,5412,5979,-1,-1,0
-32.67,-3.69,42.05,-524,5408,5983,-1,0,0
-32.68,-3.69,42.05,-526,5404,5987,0,-1,0
-32.69,-3.69,42.04,-531,5407,5985,-1,0,0
-32.69,-3.68,42.04,-526,5406,5985,-1,-1,0
-32.69,-3.68,42.04,-528,5408,5988,-1,-1,0
-32.69,-3.68,42.04,-528,5415,5993,-1,-1,0
-32.69,-3.68,42.04,-528,5413,5996,0,-1,0
-32.70,-3.67,42.03,-525,5416,6000,-1,-1,0
-32.71,-3.66,42.04,-523,5412,5996,0,-1,0
-32.71,-3.65,42.04,-513,5414,5988,0,-1,-1
-32.70,-3.66,42.05,-523,5425,5987,0,0,-1
-32.70,-3.66,42.06,-528,5427,5978,-1,0,0
-32.71,-3.66,42.05,-526,5422,5978,-1,0,0
-32.72,-3.66,42.05,-536,5418,5987,-1,-1,0
-32.72,-3.66,42.05,-524,5404,5992,-1,-1,0
-32.72,-3.65,42.05,-531,5405,6004,0,-1,0
-32.72,-3.65,42.05,-527,5411,5992,-1,-1,0
-32.73,-3.64,42.04,-525,5394,5978,0,-1,0
-32.72,-3.64,42.06,-528,5416,5995,0,-1,0
-32.72,-3.64,42.06,-529,5410,5998,0,-1,0
-32.72,-3.63,42.06,-523,5416,5993,0,-1,0
-32.72,-3.64,42.07,-523,5421,6000,0,0,0
-32.73,-3.64,42.07,-526,5425,5982,-1,0,0
-32.73,-3.64,42.08,-533,5431,5976,-1,-1,0
-32.74,-3.64,42.07,-532,5430,5984,-1,-1,0
-32.75,-3.63,42.05,-527,5423,5987,-1,-1,0
-32.77,-3.62,42.05,-511,5416,5984,-1,0,0
-32.78,-3.62,42.03,-517,5407,5988,-1,0,0
-32.79,-3.62,42.02,-525,5410,5997,-1,-1,0
-32.79,-3.61,42.02,-524,5408,6012,-1,-1,0
-32.80,-3.60,42.02,-524,5414,6004,-1,0,0
-32.81,-3.60,42.01,-520,5417,5996,-1,-1,0
-32.81,-3.60,42.01,-514,5405,6000,-1,-1,0
-32.82,-3.60,42.00,-515,5397,5996,-1,-1,0
-32.82,-3.59,42.00,-510,5409,6002,-1,-1,0
-32.83,-3.58,42.00,-509,5414,5992,0,-1,0
-32.83,-3.58,42.00,-510,5421,5993,-1,-1,0
-32.84,-3.58,42.00,-506,5422,5988,-1,0,0
-32.84,-3.58,42.00,-513,5415,5982,-1,-1,0
-32.85,-3.58,41.99,-507,5417,5981,-1,-1,0
-32.85,-3.57,41.99,-517,5415,5985,-1,-1,0
-32.86,-3.56,41.99,-510,5414,5983,-1,-1,0
-32.87,-3.56,41.98,-503,5410,6000,-1,-1,0
-32.88,-3.55,41.97,-502,5401,6001,-1,-1,0
-32.88,-3.54,41.97,-499,5401,6000,-1,-1,0
-32.89,-3.54,41.97,-507,5406,5998,-1,-1,0
-32.89,-3.54,41.96,-507,5400,5997,-1,-1,0
-32.90,-3.54,41.96,-508,5403,5995,-1,-1,0
-32.90,-3.54,41.96,-510,5405,6002,-1,-1,0
-32.91,-3.53,41.95,-506,5395,6000,-1,-1,0
-32.92,-3.52,41.95,-507,5401,5993,-1,-1,0
-32.93,-3.52,41.94,-504,5402,6008,-1,-1,0
-32.93,-3.52,41.93,-512,5400,6008,-1,0,0
-32.94,-3.52,41.92,-511,5399,6001,-1,-1,0
-32.95,-3.51,41.91,-517,5396,6017,-1,-1,0
-32.96,-3.50,41.91,-512,5404,6021,-1,-1,0
-32.97,-3.50,41.91,-505,5405,6018,-1,-1,0
-32.98,-3.50,41.90,-502,5384,6006,-1,-1,0
-32.98,-3.50,41.90,-510,5374,6007,0,-1,0
-32.98,-3.50,41.90,-501,5378,5999,0,-1,-1
-32.98,-3.50,41.91,-507,5394,6004,0,0,-1
-32.98,-3.50,41.91,-507,5404,6005,0,0,0
-32.98,-3.50,41.91,-513,5413,6008,-1,-1,0
-32.99,-3.49,41.90,-509,5397,6023,-1,-1,0
-32.99,-3.49,41.90,-510,5380,6001,0,-1,-1
-32.98,-3.49,41.92,-497,5389,5994,0,0,-1
-32.97,-3.50,41.94,-503,5406,6003,0,-1,-1
-32.96,-3.50,41.94,-502,5405,6001,0,-1,-1
-32.95,-3.50,41.96,-493,5410,6007,0,-1,0
-32.95,-3.50,41.96,-500,5416,6008,0,-1,-1
-32.94,-3.48,41.97,-507,5412,6008,0,-1,0
-32.94,-3.46,41.99,-489,5401,5996,0,-1,0
-32.93,-3.46,42.00,-503,5412,5990,0,0,-1
-32.93,-3.44,42.01,-481,5407,5998,0,-1,0
-32.92,-3.45,42.01,-471,5401,5987,-1,0,-1
-32.90,-3.48,42.03,-516,5402,5974,0,-1,0
-32.91,-3.47,42.03,-460,5402,6003,0,0,0
-32.91,-3.50,42.03,-530,5429,5982,0,0,-1
-32.89,-3.50,42.04,-510,5442,5974,-1,-1,-1
-32.90,-3.49,42.02,-511,5431,5988,-1,-1,0
-32.92,-3.48,42.01,-499,5408,5994,-1,-1,0
-32.93,-3.48,41.99,-476,5393,6005,-1,0,-1
-32.93,-3.50,41.99,-501,5382,5999,0,0,-1
-32.92,-3.51,41.99,-497,5398,6002,0,0,-1
-32.91,-3.51,42.00,-498,5419,5994,0,-1,-1
-32.90,-3.52,42.00,-510,5425,5992,-1,-1,-1
-32.91,-3.52,42.00,-508,5406,5989,-1,0,-1
-32.90,-3.52,41.99,-514,5398,6004,0,-1,-1
-32.89,-3.52,42.00,-507,5400,6008,0,-1,-1
-32.89,-3.53,42.01,-496,5413,5999,-1,0,-1
-32.88,-3.54,42.01,-500,5414,5985,0,0,-1
-32.89,-3.54,42.00,-504,5423,5990,-1,0,-1
-32.88,-3.55,42.00,-514,5409,5994,0,-1,-1
-32.87,-3.55,42.01,-506,5401,5987,0,-1,-1
-32.87,-3.55,42.01,-503,5409,6006,-1,0,-1
-32.88,-3.55,42.01,-513,5409,5994,-1,0,-1
-32.88,-3.56,42.00,-505,5396,6000,-1,0,-1
-32.88,-3.56,42.00,-511,5398,6010,0,-1,-1
-32.87,-3.56,42.01,-512,5409,6002,0,-1,-1
-32.87,-3.56,42.01,-502,5399,6001,-1,-1,-1
-32.87,-3.56,42.01,-503,5397,6003,0,0,-1
-32.87,-3.57,42.00,-514,5411,5997,-1,0,-1
-32.86,-3.57,42.01,-517,5416,5998,0,-1,-1
-32.86,-3.58,42.01,-524,5419,5991,0,0,-1
-32.84,-3.58,42.03,-517,5424,5996,0,-1,-1
-32.84,-3.58,42.03,-517,5421,5995,0,0,-1
-32.83,-3.59,42.03,-522,5407,5981,0,0,-1
-32.83,-3.59,42.04,-523,5416,5996,0,-1,0
-32.82,-3.59,42.06,-511,5415,5989,0,-1,-1
-32.80,-3.60,42.07,-513,5410,5998,0,-1,-1
-32.80,-3.60,42.07,-514,5408,5990,0,0,0
-32.79,-3.60,42.09,-511,5411,5988,0,0,-1
-32.77,-3.60,42.10,-514,5413,6010,0,-1,-1
-32.77,-3.61,42.10,-525,5419,6002,0,0,-1
-32.76,-3.61,42.11,-521,5407,5978,0,-1,-1
-32.76,-3.61,42.12,-513,5413,6000,0,0,-1
-32.76,-3.61,42.13,-514,5416,5985,0,-1,0
-32.76,-3.62,42.12,-501,5410,5971,-1,0,-1
-32.75,-3.62,42.12,-530,5423,5989,0,-1,0
-32.75,-3.62,42.13,-515,5429,5991,0,0,-1
-32.74,-3.63,42.14,-524,5418,5980,0,0,-1
-32.74,-3.63,42.14,-523,5431,5980,0,-1,-1
-32.74,-3.63,42.15,-517,5437,5976,-1,0,-1
-32.74,-3.65,42.14,-530,5420,5983,-1,0,-1
-32.74,-3.64,42.13,-527,5405,5995,0,-1,-1
-32.74,-3.64,42.13,-519,5406,5990,-1,-1,-1
-32.73,-3.65,42.14,-527,5410,5984,0,-1,-1
-32.72,-3.65,42.15,-516,5432,6003,-1,0,-1
-32.72,-3.66,42.15,-543,5424,5992,0,-1,0
-32.73,-3.66,42.14,-514,5406,5994,-1,0,-1
-32.73,-3.68,42.14,-543,5426,5983,0,0,-1
-32.73,-3.68,42.14,-524,5420,5988,-1,-1,0
-32.73,-3.69,42.13,-525,5420,5973,-1,0,-1
-32.73,-3.70,42.13,-531,5425,5979,-1,0,-1
-32.73,-3.70,42.13,-535,5435,5972,-1,0,-1
-32.73,-3.71,42.12,-550,5423,5981,-1,-1,0
-32.74,-3.71,42.11,-533,5419,5989,-1,0,-1
-32.74,-3.70,42.11,-535,5410,5981,-1,-1,0
-32.74,-3.70,42.11,-506,5407,5982,0,0,-1
-32.74,-3.71,42.12,-515,5427,5992,0,0,-1
-32.74,-3.72,42.11,-531,5423,5986,-1,0,-1
-32.73,-3.74,42.12,-535,5414,5984,0,0,-1
-32.72,-3.74,42.12,-544,5419,5989,0,0,-1
-32.72,-3.74,42.12,-541,5420,5985,0,0,-1
-32.71,-3.75,42.12,-539,5419,5982,0,0,-1
-32.71,-3.76,42.13,-541,5419,5976,0,0,-1
-32.71,-3.77,42.12,-541,5418,5985,0,0,-1
-32.71,-3.78,42.13,-545,5420,5977,0,0,-1
-32.70,-3.79,42.14,-548,5432,5972,0,0,-1
-32.70,-3.80,42.14,-551,5427,5986,-1,0,-1
-32.70,-3.80,42.13,-546,5419,5981,-1,0,-1
-32.70,-3.81,42.13,-551,5424,5993,-1,-1,-1
-32.70,-3.80,42.14,-545,5430,5994,0,-1,0
-32.69,-3.80,42.14,-548,5429,5987,0,-1,-1
-32.68,-3.80,42.14,-549,5422,5976,0,-1,-1
-32.67,-3.80,42.16,-538,5434,5977,0,-1,-1
-32.65,-3.81,42.17,-536,5428,5977,0,-1,-1
-32.63,-3.81,42.17,-545,5419,5976,0,-1,-1
-32.61,-3.81,42.19,-539,5422,5979,0,-1,-1
-32.60,-3.82,42.20,-541,5439,5972,0,0,-1
-32.59,-3.82,42.21,-537,5436,5963,-1,-1,-1
-32.59,-3.82,42.20,-543,5420,5962,-1,0,0
-32.60,-3.82,42.20,-560,5415,5975,-1,-1,0
-32.60,-3.82,42.19,-550,5415,5977,-1,-1,0
-32.60,-3.82,42.19,-540,5414,5986,-1,-1,-1
-32.60,-3.82,42.19,-542,5419,5985,-1,-1,0
-32.60,-3.81,42.18,-538,5416,5969,0,-1,-1
-32.60,-3.82,42.19,-543,5416,5977,0,-1,-1
-32.60,-3.81,42.18,-542,5419,5982,-1,-1,0
-32.60,-3.81,42.18,-550,5410,5977,0,-1,0
-32.60,-3.80,42.19,-544,5419,5986,0,-1,0
-32.60,-3.80,42.19,-547,5424,5981,0,-1,0
-32.60,-3.79,42.19,-541,5437,5967,-1,0,-1
-32.59,-3.80,42.18,-557,5429,5975,-1,0,-1
-32.60,-3.80,42.18,-556,5421,5976,-1,-1,0
-32.61,-3.79,42.16,-553,5417,5990,-1,-1,0
-32.62,-3.77,42.16,-543,5424,6001,-1,-1,0
-32.63,-3.77,42.16,-541,5433,5990,-1,-1,0
-32.63,-3.76,42.14,-538,5428,5987,-1,-1,0
-32.64,-3.75,42.14,-529,5417,5986,-1,-1,0
-32.65,-3.74,42.14,-534,5409,5985,0,0,0
-32.65,-3.74,42.14,-539,5418,5988,0,-1,-1
-32.64,-3.74,42.15,-541,5434,5990,0,-1,0
-32.64,-3.74,42.15,-540,5436,5986,-1,-1,0
-32.65,-3.73,42.14,-530,5433,5984,-1,-1,0
-32.67,-3.72,42.13,-530,5419,5982,-1,-1,0
-32.67,-3.72,42.13,-535,5419,5982,-1,-1,0
-32.68,-3.72,42.13,-534,5426,5985,-1,-1,0
-32.67,-3.72,42.12,-530,5425,5990,-1,-1,0
-32.68,-3.72,42.11,-532,5430,5994,-1,-1,0
-32.69,-3.71,42.11,-544,5420,5999,-1,-1,0
-32.70,-3.70,42.10,-532,5411,5999,-1,-1,0
-32.71,-3.70,42.09,-532,5413,5995,-1,-1,0
-32.71,-3.70,42.10,-525,5416,5993,0,-1,0
-32.71,-3.69,42.10,-546,5411,5973,0,-1,0
-32.72,-3.67,42.11,-527,5406,5997,0,-1,0
-32.72,-3.66,42.11,-528,5427,5990,0,0,0
-32.72,-3.65,42.12,-527,5438,5987,0,-1,0
-32.73,-3.65,42.11,-515,5448,5987,-1,0,0
-32.74,-3.64,42.10,-524,5428,5985,-1,-1,0
-32.76,-3.64,42.09,-527,5419,5985,-1,0,0
-32.77,-3.63,42.07,-535,5400,5989,-1,-1,0
-32.78,-3.63,42.06,-526,5393,5994,-1,-1,0
-32.79,-3.62,42.06,-525,5409,5992,-1,0,0
-32.79,-3.62,42.06,-521,5417,6001,-1,-1,0
-32.80,-3.62,42.05,-517,5411,5997,-1,0,0
-32.80,-3.63,42.05,-519,5408,5995,0,0,0
-32.80,-3.62,42.05,-517,5411,5984,-1,-1,0
-32.80,-3.62,42.05,-513,5406,5990,0,-1,0
-32.81,-3.62,42.05,-524,5405,5994,-1,0,0
-32.81,-3.62,42.04,-529,5414,6001,-1,-1,0
-32.81,-3.61,42.05,-523,5414,5998,0,-1,0
-32.82,-3.61,42.05,-517,5416,5993,0,-1,0
-32.82,-3.61,42.05,-509,5416,5985,-1,0,-1
-32.82,-3.61,42.04,-514,5412,5983,-1,0,-1
-32.82,-3.61,42.04,-516,5406,5988,-1,-1,0
-32.83,-3.60,42.03,-511,5402,5996,-1,-1,0
-32.83,-3.60,42.03,-516,5407,5996,-1,-1,0
-32.84,-3.60,42.03,-513,5406,5991,-1,-1,0
-32.85,-3.59,42.03,-503,5408,5985,-1,-1,0
-32.85,-3.59,42.03,-499,5413,5985,-1,0,-1
-32.85,-3.59,42.03,-507,5405,5993,-1,0,-1
-32.85,-3.59,42.02,-507,5409,5993,0,-1,-1
-32.85,-3.59,42.03,-511,5415,5994,-1,-1,0
-32.86,-3.58,42.03,-517,5414,5993,0,-1,0
-32.85,-3.58,42.02,-514,5414,5992,-1,-1,0
-32.86,-3.57,42.01,-512,5406,5998,-1,-1,0
-32.87,-3.57,42.01,-507,5399,6006,-1,0,0
-32.87,-3.57,42.00,-509,5402,6003,-1,-1,0
-32.87,-3.56,42.01,-497,5405,5995,-1,-1,-1
-32.88,-3.55,42.01,-508,5405,5989,-1,-1,0
-32.88,-3.55,42.00,-509,5407,5998,-1,-1,0
-32.89,-3.55,42.00,-500,5407,6000,-1,-1,0
-32.90,-3.55,41.99,-500,5403,6011,-1,0,0
-32.90,-3.54,41.99,-503,5399,6008,0,-1,0
-32.90,-3.54,41.99,-516,5401,5999,0,-1,0
-32.90,-3.55,41.99,-521,5414,6004,-1,-1,0
-32.91,-3.54,41.98,-522,5413,6001,-1,-1,0
-32.91,-3.54,41.98,-524,5404,5997,-1,-1,0
-32.92,-3.53,41.98,-518,5407,5996,-1,-1,0
-32.93,-3.53,41.97,-504,5413,6006,-1,-1,0
-32.94,-3.52,41.97,-500,5409,6001,-1,-1,0
-32.95,-3.52,41.96,-501,5402,5998,-1,-1,0
-32.95,-3.52,41.95,-506,5399,6002,-1,-1,0
-32.96,-3.51,41.94,-508,5398,5999,-1,-1,0
-32.96,-3.51,41.94,-509,5399,6011,-1,-1,0
-32.97,-3.50,41.93,-507,5396,6015,-1,-1,0
-32.98,-3.50,41.93,-510,5391,6011,-1,-1,0
-32.98,-3.50,41.93,-508,5394,6008,-1,-1,0
-32.98,-3.49,41.93,-501,5396,6006,-1,-1,0
-32.99,-3.49,41.93,-502,5396,6001,-1,0,0
-33.00,-3.49,41.93,-503,5402,5997,-1,0,0
-33.00,-3.49,41.92,-504,5395,6002,-1,0,0
-33.01,-3.49,41.92,-504,5394,5987,-1,0,0
-33.00,-3.49,41.93,-503,5400,5984,-1,-1,0
-33.01,-3.49,41.92,-504,5402,5988,-1,0,0
-33.02,-3.48,41.92,-508,5404,5994,-1,0,0
-33.02,-3.49,41.92,-514,5399,5992,-1,0,0
-33.03,-3.48,41.92,-510,5398,5996,0,-1,0
-33.03,-3.48,41.93,-494,5399,5988,0,0,0
-33.02,-3.48,41.94,-500,5407,5985,0,0,0
-33.03,-3.49,41.94,-507,5410,5995,-1,0,0
-33.04,-3.49,41.93,-516,5404,5998,-1,0,0
-33.04,-3.49,41.93,-516,5402,6004,-1,-1,0
-33.05,-3.48,41.92,-516,5399,6018,-1,-1,0
-33.06,-3.47,41.92,-499,5403,6019,-1,-1,0
-33.07,-3.47,41.92,-487,5399,6019,-1,0,0
-33.07,-3.47,41.90,-496,5388,6008,-1,0,-1
-33.07,-3.47,41.91,-500,5386,6009,-1,0,-1
-33.08,-3.48,41.90,-503,5383,6015,-1,0,-1
-33.07,-3.48,41.91,-506,5397,6005,0,-1,-1
-33.07,-3.48,41.91,-497,5398,6013,-1,-1,0
-33.07,-3.47,41.91,-499,5397,6012,0,-1,-1
-33.07,-3.47,41.91,-493,5395,6010,0,-1,-1
-33.06,-3.47,41.91,-497,5395,6004,0,-1,-1
-33.06,-3.48,41.91,-495,5400,6004,0,0,-1
-33.06,-3.48,41.91,-499,5399,6006,0,-1,-1
-33.04,-3.48,41.91,-490,5398,6011,-1,0,-1
-33.05,-3.48,41.91,-495,5399,6010,-1,0,-1
-33.05,-3.48,41.91,-502,5394,6000,0,-1,0
-33.05,-3.48,41.91,-503,5397,6006,-1,-1,0
-33.05,-3.47,41.91,-490,5399,6007,0,-1,-1
-33.04,-3.48,41.91,-493,5398,6005,-1,-1,-1
-33.04,-3.48,41.91,-492,5392,5997,0,-1,-1
-33.04,-3.48,41.91,-494,5380,6011,0,0,-1
-33.04,-3.49,41.92,-498,5384,6014,0,-1,-1
-33.02,-3.49,41.93,-511,5405,6001,0,0,-1
-33.02,-3.49,41.93,-508,5411,6003,0,-1,0
-33.02,-3.49,41.93,-503,5414,6001,-1,-1,0
-33.02,-3.49,41.93,-502,5410,5996,-1,-1,-1
-33.02,-3.49,41.93,-497,5401,6002,0,0,-1
-33.02,-3.50,41.94,-503,5391,6000,0,0,-1
-33.01,-3.51,41.94,-511,5399,6000,0,0,-1
-33.01,-3.51,41.94,-509,5402,6003,0,0,-1
-33.01,-3.52,41.94,-510,5396,5999,0,-1,-1
-33.01,-3.52,41.94,-508,5396,5994,0,-1,-1
-33.00,-3.52,41.95,-509,5402,6001,0,-1,-1
-33.00,-3.52,41.95,-504,5397,6008,0,-1,-1
-33.00,-3.52,41.95,-506,5394,6000,0,0,-1
-32.98,-3.53,41.96,-500,5400,5997,0,0,-1
-32.98,-3.53,41.96,-502,5407,6011,0,0,-1
-32.98,-3.53,41.96,-513,5406,6004,0,0,-1
-32.97,-3.54,41.97,-516,5406,6004,0,0,-1
-32.97,-3.55,41.97,-516,5408,6006,0,0,-1
-32.97,-3.54,41.98,-509,5407,5998,-1,0,-1
-32.97,-3.54,41.98,-508,5410,5997,0,0,0
-32.97,-3.55,41.97,-509,5398,6011,0,-1,-1
-32.97,-3.54,41.98,-506,5404,6001,0,0,-1
-32.96,-3.55,41.98,-500,5398,6000,0,-1,-1
-32.96,-3.55,41.99,-500,5404,5997,0,0,-1
-32.95,-3.56,42.00,-509,5408,5993,0,0,-1
-32.95,-3.56,41.99,-515,5412,6000,-1,0,-1
-32.95,-3.56,41.99,-515,5410,5995,0,0,-1
-32.95,-3.57,41.99,-513,5408,6003,0,0,0
-32.94,-3.57,42.00,-515,5413,6011,0,-1,0
-32.94,-3.56,42.00,-513,5412,6003,0,-1,0
-32.95,-3.55,42.00,-487,5410,5996,-1,0,-1
-32.94,-3.56,42.00,-494,5407,5995,0,0,-1
-32.93,-3.56,42.01,-503,5395,5993,0,0,-1
-32.92,-3.58,42.01,-520,5393,5996,0,0,-1
-32.91,-3.59,42.02,-532,5392,5987,0,-1,-1
-32.88,-3.56,42.05,-541,5382,6013,1,-2,0
-32.89,-3.52,42.06,-477,5412,6017,0,0,0
-32.89,-3.54,42.07,-491,5465,5969,-1,1,-1
-32.89,-3.56,42.07,-502,5440,5983,-1,0,-1
-32.90,-3.57,42.05,-508,5411,5979,-1,0,-1
-32.89,-3.59,42.04,-513,5406,5984,-1,0,-1
-32.90,-3.59,42.04,-507,5402,5994,-1,0,-1
-32.89,-3.61,42.04,-513,5397,5993,-1,0,-1
-32.88,-3.62,42.06,-529,5404,6002,1,0,0
-32.89,-3.61,42.05,-502,5419,5999,-1,0,-1
-32.88,-3.62,42.05,-517,5401,5986,0,0,-1
-32.87,-3.63,42.06,-521,5416,5983,-1,0,-1
-32.88,-3.64,42.05,-522,5411,5980,-1,0,-1
-32.87,-3.65,42.05,-526,5396,5988,0,0,-1
-32.87,-3.65,42.06,-528,5414,6001,0,0,-1
-32.86,-3.66,42.07,-524,5422,5986,0,0,-1
-32.86,-3.65,42.07,-520,5431,5990,0,0,0
-32.86,-3.65,42.07,-521,5431,5988,-1,0,-1
-32.86,-3.66,42.07,-521,5420,5987,-1,0,-1
-32.86,-3.66,42.07,-514,5406,5989,-1,0,-1
-32.85,-3.67,42.07,-519,5408,5989,0,0,-1
-32.85,-3.67,42.07,-519,5415,5996,-1,0,-1
-32.85,-3.68,42.07,-521,5422,5997,-1,0,-1
-32.85,-3.68,42.07,-523,5416,5987,0,0,-1
-32.84,-3.69,42.07,-514,5401,5989,0,0,-1
-32.84,-3.69,42.07,-524,5407,5988,0,0,-1
-32.83,-3.70,42.07,-525,5414,5989,0,0,-1
-32.82,-3.70,42.08,-522,5418,5991,0,0,-1
-32.81,-3.71,42.09,-518,5420,5991,0,0,-1
-32.79,-3.72,42.10,-518,5431,5998,0,0,-1
-32.78,-3.73,42.11,-520,5415,5988,0,0,-1
-32.77,-3.74,42.12,-517,5403,5987,0,0,-1
-32.75,-3.75,42.13,-536,5403,5988,0,0,-1
-32.73,-3.75,42.15,-533,5417,5994,0,-1,-1
-32.71,-3.77,42.16,-538,5422,5991,0,0,-1
-32.70,-3.77,42.17,-548,5409,5983,0,-1,-1
-32.69,-3.79,42.18,-540,5421,5979,0,0,-1
-32.67,-3.80,42.19,-557,5429,5971,0,-1,-1
-32.66,-3.80,42.21,-557,5426,5981,0,-1,-1
-32.65,-3.80,42.21,-534,5429,5977,0,0,-1
-32.63,-3.81,42.23,-544,5424,5965,0,-1,-1
-32.62,-3.82,42.24,-534,5417,5963,0,0,-1
-32.61,-3.84,42.25,-533,5426,5985,0,0,-1
-32.59,-3.85,42.26,-554,5439,5978,-1,0,-1
-32.58,-3.85,42.27,-555,5432,5972,0,-1,0
-32.57,-3.86,42.28,-551,5439,5971,0,0,-1
-32.56,-3.87,42.29,-567,5443,5959,0,-1,-1
-32.56,-3.87,42.29,-559,5411,5956,0,-1,0
-32.55,-3.88,42.30,-558,5444,5958,0,0,-1
-32.53,-3.89,42.31,-571,5458,5962,-1,0,-1
-32.53,-3.89,42.31,-558,5442,5968,0,-1,-1
-32.52,-3.89,42.31,-567,5449,5971,-1,0,-1
-32.51,-3.88,42.32,-567,5420,5970,0,-2,0
-32.51,-3.88,42.32,-537,5435,5952,0,0,-1
-32.49,-3.89,42.33,-557,5432,5964,0,-2,0
-32.48,-3.88,42.34,-523,5435,5986,-1,0,-1
-32.47,-3.91,42.34,-575,5434,5954,0,-1,-1
-32.45,-3.89,42.35,-557,5427,5978,0,-1,0
-32.46,-3.89,42.36,-562,5439,5953,0,0,0
-32.46,-3.88,42.37,-565,5451,5958,0,-1,0
-32.47,-3.87,42.37,-547,5438,5957,-1,0,0
-32.48,-3.87,42.36,-565,5448,5943,-1,-1,0
-32.49,-3.85,42.36,-541,5452,5966,-1,-1,0
-32.50,-3.85,42.36,-549,5439,5968,-1,0,0
-32.51,-3.84,42.35,-540,5428,5972,-1,-1,0
-32.51,-3.83,42.35,-552,5448,5966,0,-1,0
-32.51,-3.81,42.35,-534,5447,5964,-1,0,0
-32.52,-3.81,42.35,-542,5445,5953,-1,-1,0
-32.52,-3.81,42.34,-549,5434,5970,-1,-1,0
-32.54,-3.80,42.33,-549,5434,5965,-1,-1,0
-32.55,-3.79,42.33,-528,5449,5971,-1,0,0
-32.55,-3.79,42.32,-547,5436,5964,0,-1,0
-32.56,-3.78,42.32,-525,5430,5957,-1,0,0
-32.56,-3.79,42.32,-546,5449,5962,-1,-1,0
-32.57,-3.78,42.30,-548,5444,5966,-1,-1,0
-32.59,-3.78,42.29,-528,5443,5967,-1,0,-1
-32.60,-3.78,42.27,-554,5435,5975,-1,-1,0
-32.61,-3.76,42.25,-524,5428,5973,-1,-1,0
-32.62,-3.76,42.23,-530,5418,5981,-1,0,0
-32.63,-3.75,42.23,-525,5426,5990,-1,-1,0
-32.65,-3.74,42.22,-525,5431,5991,-1,0,0
-32.65,-3.73,42.21,-516,5432,5983,-1,-1,0
-32.65,-3.73,42.21,-535,5430,5978,-1,-1,0
-32.66,-3.72,42.21,-529,5423,5982,-1,-1,0
-32.67,-3.71,42.21,-522,5420,5990,-1,0,0
-32.67,-3.71,42.21,-528,5431,5988,-1,0,-1
-32.67,-3.72,42.20,-527,5430,5995,-1,0,-1
-32.68,-3.71,42.20,-538,5421,5990,0,-1,0
-32.68,-3.69,42.21,-509,5423,5987,-1,0,0
-32.67,-3.70,42.21,-515,5427,5968,0,-1,-1
-32.67,-3.70,42.21,-519,5430,5967,-1,0,-1
-32.68,-3.70,42.20,-527,5426,5986,0,-1,0
-32.68,-3.70,42.20,-528,5424,5987,0,0,-1
-32.68,-3.70,42.20,-538,5425,5969,0,-1,0
-32.69,-3.68,42.20,-516,5414,5987,0,-1,0
-32.68,-3.68,42.20,-514,5427,5980,-1,0,-1
-32.68,-3.69,42.20,-516,5419,5978,-1,0,0
-32.68,-3.69,42.21,-533,5432,5984,-1,-1,-1
-32.68,-3.68,42.20,-534,5422,5966,0,-1,0
-32.70,-3.68,42.20,-514,5448,5982,-1,0,0
-32.70,-3.68,42.19,-539,5426,5978,0,-1,0
-32.70,-3.66,42.20,-515,5422,5990,-1,0,0
-32.70,-3.66,42.20,-522,5429,5990,0,-1,0
-32.70,-3.65,42.21,-506,5429,5979,-1,0,-1
-32.70,-3.66,42.20,-520,5426,5989,-1,-1,-1
-32.71,-3.66,42.19,-520,5414,5975,-1,0,0
-32.72,-3.65,42.19,-505,5417,5992,-1,-1,0
-32.73,-3.65,42.18,-529,5419,5982,-1,0,0
-32.74,-3.64,42.18,-496,5420,5978,-1,0,0
-32.74,-3.64,42.17,-522,5419,5990,-1,0,0
-32.75,-3.64,42.16,-517,5435,5997,-1,-1,0
-32.77,-3.63,42.14,-520,5427,5991,-1,-1,0
-32.78,-3.63,42.13,-520,5425,5974,-1,0,0
-32.78,-3.63,42.12,-510,5422,5986,-1,-1,0
-32.79,-3.62,42.11,-503,5413,5985,-1,-1,0
-32.80,-3.62,42.11,-507,5411,5983,-1,0,0
-32.80,-3.62,42.10,-510,5419,5987,-1,0,0
-32.80,-3.62,42.09,-506,5422,5991,-1,0,0
-32.82,-3.61,42.08,-501,5408,5985,-1,0,0
-32.83,-3.61,42.07,-512,5407,5990,-1,0,0
-32.84,-3.61,42.06,-515,5402,5991,-1,-1,0
-32.84,-3.60,42.06,-508,5406,5994,-1,-1,0
-32.86,-3.59,42.05,-499,5402,5996,-1,-1,0
-32.86,-3.59,42.05,-497,5398,5993,-1,0,-1
-32.86,-3.59,42.05,-502,5391,5987,-1,0,-1
-32.86,-3.60,42.04,-502,5399,5990,-1,0,-1
-32.86,-3.60,42.04,-514,5403,6007,0,0,0
-32.86,-3.60,42.04,-516,5416,6001,0,-1,0
-32.86,-3.60,42.04,-516,5419,5998,-1,-1,0
-32.87,-3.59,42.04,-511,5414,5999,-1,-1,0
-32.87,-3.58,42.04,-507,5407,5997,-1,-1,0
-32.87,-3.57,42.04,-489,5404,5995,0,-1,-1
-32.86,-3.58,42.05,-494,5418,6007,0,0,-1
-32.86,-3.58,42.05,-497,5417,6003,-1,0,0
-32.87,-3.58,42.05,-500,5401,5996,-1,0,0
-32.87,-3.58,42.05,-518,5397,5996,0,-1,0
-32.86,-3.58,42.07,-497,5435,6004,0,-1,0
-32.87,-3.57,42.07,-497,5436,5992,-1,0,0
-32.87,-3.57,42.05,-512,5428,5984,-1,-1,0
-32.89,-3.57,42.03,-520,5406,5984,-1,-1,0
-32.91,-3.56,42.01,-509,5388,5989,-1,-1,0
-32.93,-3.54,42.00,-500,5386,6002,-1,-1,0
-32.93,-3.54,42.00,-487,5402,6004,0,-1,0
-32.94,-3.53,42.01,-488,5418,6002,-1,0,0
-32.94,-3.54,42.00,-493,5411,5998,-1,0,0
-32.95,-3.53,42.00,-495,5403,5996,-1,0,0
-32.95,-3.53,42.00,-504,5396,5998,-1,-1,0
-32.96,-3.53,41.99,-508,5391,6000,-1,-1,0
-32.96,-3.52,41.99,-501,5398,6011,-1,-1,0
-32.97,-3.52,41.99,-500,5402,6022,-1,-1,0
-32.98,-3.51,41.99,-493,5406,6012,0,0,0
-32.98,-3.51,41.99,-493,5398,5998,0,-1,0
-32.98,-3.51,41.99,-486,5404,5991,0,0,0
-32.98,-3.51,42.00,-493,5407,5989,-1,0,0
-32.98,-3.51,42.00,-491,5408,5990,-1,0,0
-32.98,-3.51,42.00,-488,5412,5995,-1,0,0
-32.99,-3.50,41.99,-491,5413,6004,-1,-1,0
-33.00,-3.50,41.98,-494,5403,6003,-1,-1,0
-33.01,-3.50,41.98,-495,5393,6002,-1,0,0
-33.01,-3.50,41.98,-494,5394,6002,-1,0,0
-33.01,-3.50,41.98,-493,5403,6005,0,0,0
-33.00,-3.50,41.99,-491,5407,6004,0,-1,-1
-33.00,-3.50,41.98,-493,5412,6017,-1,0,-1
-33.00,-3.50,41.98,-494,5408,6007,-1,0,-1
-33.01,-3.50,41.97,-500,5391,6011,-1,0,0
-33.00,-3.50,41.97,-497,5389,6019,0,-1,-1
-33.00,-3.50,41.98,-494,5394,6009,0,-1,-1
-33.00,-3.50,41.98,-491,5405,6007,-1,-1,-1
-32.99,-3.50,41.98,-488,5402,6011,-1,0,-1
-32.99,-3.50,41.98,-487,5397,6012,0,0,-1
-32.99,-3.51,41.98,-492,5403,6016,0,0,-1
-32.98,-3.51,41.98,-503,5408,6015,0,-1,-1
-32.97,-3.52,41.99,-501,5415,6007,0,0,-1
-32.97,-3.52,41.99,-508,5417,5998,-1,-1,-1
-32.96,-3.53,41.99,-501,5413,5998,-1,-1,-1
-32.96,-3.53,41.99,-496,5400,5983,-1,0,-1
-32.96,-3.53,41.99,-498,5397,5987,0,0,-1
-32.95,-3.53,42.00,-498,5402,5989,0,-1,-1
-32.95,-3.54,42.00,-497,5404,5989,-1,0,-1
-32.94,-3.54,42.00,-506,5400,5997,0,-1,-1
-32.93,-3.55,42.01,-506,5397,6002,0,0,-1
-32.93,-3.55,42.01,-496,5397,6006,0,0,-1
-32.92,-3.56,42.02,-498,5393,6016,0,0,-1
-32.91,-3.56,42.02,-493,5406,6012,0,0,-1
-32.90,-3.57,42.03,-503,5403,6012,0,0,-1
-32.88,-3.58,42.04,-497,5396,6012,0,-1,-1
