Yaw,Pitch,Roll,AX,AY,AZ,GX,GY,GZ
177.40,-3.23,-42.86,-460,-5631,6080,-1,0,0
177.41,-3.22,-42.86,-461,-5637,6082,-1,0,-1
177.41,-3.22,-42.86,-469,-5638,6077,-1,0,-1
177.41,-3.22,-42.87,-465,-5637,6072,-1,0,-1
177.41,-3.23,-42.87,-471,-5633,6072,-1,0,-1
177.41,-3.23,-42.88,-474,-5641,6073,-1,0,-1
177.41,-3.23,-42.88,-470,-5644,6076,-1,0,0
177.41,-3.23,-42.88,-470,-5645,6082,-1,0,-1
177.41,-3.23,-42.88,-468,-5643,6076,-1,-1,-1
177.41,-3.23,-42.89,-471,-5638,6070,-1,-1,-1
177.42,-3.22,-42.88,-469,-5636,6083,-1,-1,0
177.42,-3.22,-42.88,-463,-5635,6091,-1,-1,-1
177.42,-3.22,-42.88,-465,-5633,6090,-1,0,-1
177.42,-3.22,-42.88,-463,-5633,6086,-1,0,0
177.42,-3.22,-42.88,-464,-5632,6085,-1,0,-1
177.41,-3.23,-42.89,-471,-5637,6085,-1,0,0
177.41,-3.23,-42.89,-476,-5644,6078,-1,0,-1
177.42,-3.23,-42.90,-474,-5641,6075,-1,-1,-1
177.42,-3.23,-42.90,-472,-5640,6080,-1,0,0
177.42,-3.23,-42.90,-469,-5638,6081,-1,0,-1
177.42,-3.23,-42.90,-462,-5631,6074,0,0,-1
177.42,-3.23,-42.90,-468,-5638,6090,-1,-1,0
177.42,-3.23,-42.89,-465,-5639,6101,-1,-1,-1
177.42,-3.23,-42.89,-477,-5639,6086,-1,0,-1
177.42,-3.23,-42.90,-473,-5635,6077,-1,-1,-1
177.42,-3.23,-42.90,-464,-5634,6084,-1,-1,0
177.42,-3.22,-42.90,-461,-5643,6081,-1,0,-1
177.43,-3.22,-42.91,-464,-5648,6072,-1,0,0
177.43,-3.22,-42.91,-464,-5648,6075,0,-1,-1
177.43,-3.22,-42.91,-462,-5639,6079,0,0,0
177.42,-3.22,-42.91,-462,-5642,6081,-1,-1,0
177.42,-3.22,-42.91,-463,-5636,6078,-1,-1,0
177.42,-3.22,-42.92,-468,-5651,6081,-1,0,-1
177.42,-3.22,-42.92,-469,-5646,6080,-1,0,-1
177.42,-3.22,-42.92,-477,-5648,6081,-1,-1,-1
177.42,-3.23,-42.92,-475,-5650,6081,-1,-1,-1
177.42,-3.22,-42.92,-480,-5651,6080,-1,-1,-1
177.42,-3.22,-42.92,-478,-5644,6067,0,-1,-1
177.43,-3.21,-42.92,-464,-5642,6070,-1,-1,0
177.43,-3.21,-42.92,-454,-5636,6073,-1,0,0
177.43,-3.21,-42.92,-452,-5635,6073,-1,-1,0
177.43,-3.21,-42.92,-458,-5632,6071,-1,0,0
177.43,-3.21,-42.93,-460,-5634,6072,-1,0,0
177.43,-3.21,-42.94,-470,-5646,6067,-1,0,0
177.43,-3.21,-42.94,-467,-5651,6066,-1,-1,-1
177.43,-3.21,-42.94,-461,-5643,6065,-1,-1,-1
177.43,-3.21,-42.94,-465,-5644,6061,0,-1,-1
177.43,-3.21,-42.94,-466,-5641,6062,0,-1,0
177.43,-3.21,-42.94,-468,-5636,6064,-1,-1,-1
177.43,-3.21,-42.94,-458,-5637,6070,0,-1,-1
177.43,-3.21,-42.94,-459,-5641,6084,-1,-1,-1
177.43,-3.20,-42.94,-460,-5650,6082,0,-1,-1
177.43,-3.20,-42.94,-458,-5642,6077,-1,-1,0
177.43,-3.19,-42.94,-464,-5630,6077,-1,-1,0
177.43,-3.19,-42.94,-465,-5635,6069,-1,-1,0
177.43,-3.19,-42.94,-461,-5646,6069,-1,0,-1
177.43,-3.19,-42.94,-457,-5651,6068,-1,0,-1
177.43,-3.19,-42.94,-456,-5648,6069,-1,0,-1
177.43,-3.19,-42.94,-458,-5647,6071,0,0,0
177.43,-3.20,-42.95,-466,-5645,6068,-1,0,-1
177.44,-3.20,-42.95,-467,-5640,6078,-1,0,-1
177.43,-3.20,-42.95,-460,-5645,6077,-1,0,0
177.43,-3.20,-42.95,-460,-5643,6078,-1,0,0
177.43,-3.20,-42.95,-450,-5636,6083,-1,0,0
177.43,-3.21,-42.95,-452,-5635,6089,-1,0,0
177.43,-3.22,-42.97,-467,-5647,6086,-1,0,-1
177.43,-3.22,-42.98,-466,-5662,6073,-1,0,-1
177.43,-3.22,-42.98,-468,-5658,6068,-1,0,-1
177.43,-3.22,-42.98,-453,-5653,6076,-1,0,0
177.43,-3.22,-42.98,-452,-5648,6066,-1,0,0
177.43,-3.23,-42.99,-453,-5650,6066,-1,0,0
177.42,-3.24,-42.99,-477,-5650,6058,-1,0,0
177.42,-3.25,-43.00,-480,-5649,6071,-1,0,-1
177.43,-3.25,-43.01,-481,-5655,6072,-1,0,-1
177.43,-3.25,-43.01,-481,-5659,6064,-1,-1,0
177.43,-3.25,-43.02,-474,-5662,6057,-1,-1,-1
177.43,-3.24,-43.02,-462,-5665,6056,0,-1,-1
177.43,-3.24,-43.01,-465,-5660,6065,0,-1,0
177.43,-3.24,-43.01,-456,-5651,6066,0,0,0
177.43,-3.24,-43.01,-464,-5637,6065,0,0,-1
177.43,-3.24,-43.01,-476,-5650,6071,-1,-1,0
177.43,-3.25,-43.01,-472,-5658,6063,-1,0,-1
177.43,-3.25,-43.01,-482,-5662,6058,0,0,-1
177.43,-3.24,-43.01,-470,-5663,6055,0,-1,-1
177.43,-3.24,-43.00,-471,-5665,6053,0,-1,-1
177.43,-3.23,-42.99,-465,-5667,6062,0,-1,0
177.43,-3.23,-42.98,-465,-5663,6070,0,-1,-1
177.43,-3.23,-42.97,-462,-5652,6074,0,0,-1
177.43,-3.23,-42.96,-473,-5642,6084,0,-1,-1
177.43,-3.23,-42.95,-476,-5640,6090,0,-1,-1
177.43,-3.23,-42.95,-472,-5650,6075,-1,-1,0
177.44,-3.23,-42.96,-471,-5657,6073,-1,0,0
177.44,-3.23,-42.96,-463,-5656,6070,0,-1,0
177.44,-3.23,-42.96,-460,-5661,6064,0,0,0
177.43,-3.23,-42.95,-470,-5659,6064,0,0,0
177.43,-3.23,-42.95,-471,-5655,6064,0,0,0
177.43,-3.23,-42.95,-472,-5651,6063,0,-1,0
177.43,-3.23,-42.95,-478,-5655,6065,0,-1,0
177.43,-3.23,-42.94,-468,-5655,6070,0,-1,-1
177.43,-3.23,-42.93,-471,-5652,6071,0,-1,-1
177.43,-3.23,-42.92,-468,-5648,6080,0,-1,-1
177.43,-3.22,-42.92,-467,-5634,6078,0,-1,0
177.43,-3.23,-42.91,-466,-5629,6082,-1,0,0
177.43,-3.23,-42.92,-466,-5636,6083,-1,0,0
177.43,-3.23,-42.92,-468,-5641,6070,0,0,-1
177.43,-3.23,-42.91,-479,-5651,6078,0,-1,0
177.43,-3.23,-42.90,-478,-5642,6080,0,-1,0
177.42,-3.23,-42.90,-472,-5633,6077,0,-1,0
177.43,-3.22,-42.89,-465,-5630,6074,0,-1,0
177.42,-3.23,-42.89,-461,-5635,6069,0,0,0
177.42,-3.23,-42.89,-470,-5636,6068,0,0,0
177.42,-3.23,-42.89,-470,-5643,6070,0,0,0
177.42,-3.23,-42.89,-479,-5639,6075,0,0,0
177.42,-3.23,-42.89,-477,-5643,6068,0,0,-1
177.42,-3.23,-42.89,-473,-5646,6078,0,-1,-1
177.42,-3.23,-42.88,-468,-5643,6081,0,-1,0
177.42,-3.23,-42.88,-461,-5645,6078,0,0,0
177.42,-3.23,-42.88,-453,-5638,6077,-1,-1,0
177.41,-3.23,-42.88,-460,-5632,6070,0,0,0
177.41,-3.23,-42.88,-462,-5630,6069,-1,0,0
177.41,-3.24,-42.87,-466,-5634,6073,0,0,0
177.41,-3.24,-42.87,-471,-5636,6080,-1,0,0
177.41,-3.24,-42.87,-473,-5639,6078,0,0,0
177.41,-3.24,-42.87,-477,-5642,6076,0,0,-1
177.41,-3.24,-42.87,-477,-5636,6071,0,0,0
177.41,-3.24,-42.86,-469,-5632,6071,0,-1,0
177.41,-3.24,-42.86,-469,-5633,6072,0,0,0
177.41,-3.24,-42.86,-460,-5638,6085,0,0,0
177.41,-3.24,-42.85,-470,-5631,6087,0,-1,-1
177.41,-3.24,-42.85,-476,-5632,6084,0,-1,0
177.41,-3.24,-42.84,-474,-5629,6091,-1,-1,0
177.41,-3.24,-42.84,-465,-5628,6079,-1,0,0
177.41,-3.23,-42.85,-462,-5632,6071,-1,0,0
177.41,-3.24,-42.85,-459,-5637,6072,0,0,0
177.41,-3.24,-42.85,-467,-5643,6077,0,-1,0
177.40,-3.24,-42.84,-473,-5635,6075,0,0,0
177.40,-3.24,-42.83,-470,-5633,6083,0,0,-1
177.40,-3.24,-42.83,-474,-5630,6088,0,-1,0
177.40,-3.24,-42.83,-471,-5638,6086,0,-1,-1
177.40,-3.24,-42.83,-461,-5635,6085,0,0,0
177.41,-3.24,-42.82,-462,-5627,6095,0,0,0
177.41,-3.24,-42.82,-462,-5626,6085,-1,0,0
177.41,-3.24,-42.82,-461,-5627,6081,0,0,0
177.40,-3.25,-42.82,-464,-5635,6086,-1,0,0
177.40,-3.25,-42.82,-474,-5640,6087,-1,0,0
177.40,-3.25,-42.82,-480,-5639,6079,0,0,0
177.40,-3.25,-42.82,-487,-5637,6084,0,-1,0
177.39,-3.26,-42.81,-479,-5635,6074,0,-1,0
177.39,-3.26,-42.80,-473,-5630,6072,0,0,0
177.39,-3.26,-42.80,-473,-5630,6084,0,-1,0
177.39,-3.26,-42.80,-474,-5628,6080,-1,0,0
177.39,-3.26,-42.80,-478,-5628,6089,0,-1,-1
177.39,-3.26,-42.79,-478,-5622,6089,0,-1,0
177.38,-3.26,-42.78,-472,-5615,6090,0,-1,0
177.38,-3.26,-42.77,-468,-5609,6089,-1,0,0
177.38,-3.26,-42.77,-470,-5619,6091,-1,0,0
177.37,-3.27,-42.77,-469,-5620,6091,-1,0,0
177.37,-3.27,-42.77,-477,-5633,6099,-1,0,0
177.37,-3.27,-42.78,-486,-5633,6098,-1,0,-1
177.37,-3.27,-42.78,-487,-5631,6093,-1,-1,-1
177.37,-3.27,-42.78,-488,-5630,6091,0,-1,-1
177.37,-3.27,-42.77,-476,-5631,6094,0,-1,-1
177.38,-3.26,-42.77,-462,-5631,6090,0,-1,0
177.38,-3.26,-42.76,-463,-5623,6092,0,-1,0
177.38,-3.26,-42.76,-466,-5621,6091,-1,0,0
177.37,-3.26,-42.76,-473,-5622,6093,-1,-1,0
177.38,-3.26,-42.77,-469,-5621,6095,-1,-1,-1
177.37,-3.26,-42.77,-468,-5618,6099,-1,-1,0
177.37,-3.26,-42.78,-474,-5623,6093,-1,-1,0
177.37,-3.26,-42.78,-481,-5633,6084,-1,-1,-1
177.37,-3.26,-42.78,-484,-5635,6086,-1,-1,-1
177.37,-3.26,-42.78,-492,-5638,6085,0,0,-1
177.37,-3.26,-42.77,-491,-5627,6101,0,-1,-1
177.37,-3.25,-42.77,-484,-5625,6090,0,-1,-1
177.38,-3.24,-42.76,-475,-5627,6092,0,-1,-1
177.39,-3.23,-42.76,-465,-5619,6095,0,-1,-1
177.39,-3.23,-42.76,-463,-5612,6095,-1,-1,0
177.39,-3.23,-42.76,-457,-5612,6098,-1,0,0
177.38,-3.23,-42.77,-458,-5616,6094,-1,0,0
177.38,-3.23,-42.78,-469,-5623,6095,-1,-1,0
177.38,-3.24,-42.79,-471,-5628,6087,-1,0,-1
177.39,-3.23,-42.80,-467,-5634,6080,-1,0,-1
177.39,-3.23,-42.80,-473,-5630,6075,-1,-1,0
177.38,-3.24,-42.80,-469,-5636,6075,0,-1,-1
177.39,-3.23,-42.80,-473,-5641,6080,0,-1,-1
177.39,-3.23,-42.80,-472,-5636,6079,0,-1,-1
177.39,-3.23,-42.80,-474,-5634,6086,-1,-1,-1
177.39,-3.23,-42.80,-473,-5630,6100,-1,-1,-1
177.39,-3.23,-42.80,-469,-5632,6091,-1,0,-1
177.39,-3.23,-42.81,-467,-5631,6091,-1,0,-1
177.39,-3.23,-42.82,-463,-5630,6095,-1,0,0
177.39,-3.23,-42.82,-468,-5636,6093,-1,0,0
177.39,-3.23,-42.82,-462,-5641,6096,-1,0,0
177.39,-3.23,-42.82,-469,-5630,6103,-1,-1,0
177.39,-3.23,-42.83,-466,-5627,6084,-1,0,0
177.39,-3.23,-42.84,-471,-5632,6086,-1,0,-1
177.39,-3.23,-42.85,-467,-5636,6076,0,0,-1
177.39,-3.23,-42.84,-465,-5639,6092,0,-1,-1
177.40,-3.22,-42.84,-454,-5632,6099,-1,-1,-1
177.40,-3.22,-42.84,-458,-5628,6084,-1,0,0
177.39,-3.23,-42.85,-464,-5633,6079,-1,0,0
177.39,-3.23,-42.85,-471,-5634,6089,-1,0,-1
177.39,-3.23,-42.86,-474,-5642,6102,-1,0,-1
177.40,-3.23,-42.86,-472,-5631,6102,-1,0,-1
177.40,-3.22,-42.86,-474,-5637,6089,-1,-1,-1
177.40,-3.22,-42.86,-467,-5638,6081,-1,0,-1
177.40,-3.22,-42.86,-470,-5646,6082,-1,-1,-1
177.40,-3.22,-42.86,-458,-5646,6085,-1,-1,-1
177.40,-3.22,-42.86,-453,-5641,6086,-1,0,0
177.40,-3.22,-42.87,-457,-5643,6087,-1,0,0
177.40,-3.22,-42.88,-462,-5639,6081,-1,0,0
177.40,-3.22,-42.88,-465,-5639,6086,-1,0,0
177.40,-3.22,-42.88,-469,-5643,6081,-1,0,-1
177.40,-3.22,-42.89,-461,-5643,6075,-1,0,-1
177.40,-3.22,-42.90,-462,-5646,6071,-1,0,-1
177.40,-3.22,-42.90,-464,-5640,6076,-1,0,-1
177.41,-3.21,-42.90,-468,-5644,6073,0,-1,-1
177.41,-3.21,-42.90,-466,-5638,6078,-1,-1,-1
177.41,-3.21,-42.90,-468,-5642,6079,-1,-1,-1
177.41,-3.21,-42.90,-459,-5640,6085,-1,-1,0
177.41,-3.21,-42.90,-448,-5636,6094,-1,0,-1
177.41,-3.20,-42.90,-454,-5636,6098,-1,0,-1
177.42,-3.20,-42.90,-460,-5633,6090,-1,0,-1
177.42,-3.21,-42.91,-458,-5636,6091,-1,0,-1
177.42,-3.21,-42.92,-461,-5640,6088,-1,0,0
177.42,-3.21,-42.92,-456,-5648,6077,-1,0,0
177.42,-3.21,-42.92,-468,-5642,6083,-1,0,0
177.42,-3.21,-42.92,-476,-5651,6087,-1,-1,-1
177.41,-3.21,-42.93,-474,-5659,6076,-1,-1,-1
177.42,-3.21,-42.93,-473,-5652,6073,0,-1,0
177.42,-3.21,-42.93,-463,-5646,6069,-1,-1,-1
177.42,-3.21,-42.93,-462,-5643,6068,-1,0,-1
177.42,-3.21,-42.94,-464,-5637,6076,-1,0,-1
177.42,-3.21,-42.93,-455,-5630,6092,-1,-1,0
177.41,-3.21,-42.94,-468,-5627,6090,-1,0,0
177.41,-3.21,-42.95,-468,-5639,6079,-1,0,0
177.41,-3.22,-42.96,-469,-5657,6079,-1,0,-1
177.41,-3.22,-42.97,-462,-5659,6070,-1,-1,-1
177.41,-3.22,-42.97,-462,-5646,6062,0,-1,-1
177.41,-3.21,-42.97,-463,-5640,6074,-1,-1,0
177.41,-3.21,-42.97,-458,-5638,6072,-1,-1,0
177.41,-3.21,-42.97,-468,-5640,6066,-1,0,-1
177.41,-3.22,-42.97,-477,-5643,6072,-1,0,-1
177.41,-3.22,-42.97,-482,-5644,6070,-1,0,-1
177.41,-3.22,-42.97,-478,-5650,6073,-1,-1,-1
177.42,-3.21,-42.97,-477,-5652,6058,-1,-1,-1
177.42,-3.21,-42.97,-464,-5657,6061,0,-1,-1
177.42,-3.20,-42.97,-460,-5652,6070,0,-1,-1
177.43,-3.20,-42.97,-452,-5643,6067,0,0,-1
177.43,-3.20,-42.96,-455,-5639,6081,-1,0,-1
177.43,-3.20,-42.96,-463,-5637,6091,-1,0,0
177.43,-3.20,-42.96,-467,-5645,6084,-1,0,-1
177.44,-3.20,-42.97,-468,-5655,6080,-1,0,-1
177.43,-3.20,-42.97,-465,-5660,6078,-1,0,0
177.43,-3.20,-42.98,-467,-5658,6073,-1,0,-1
177.44,-3.20,-42.98,-459,-5660,6064,0,0,-1
177.44,-3.20,-42.97,-465,-5662,6081,-1,-1,-1
177.44,-3.20,-42.97,-461,-5665,6081,0,-1,-1
177.44,-3.20,-42.96,-468,-5648,6078,0,-1,-1
177.44,-3.20,-42.96,-472,-5645,6080,-1,-1,0
177.44,-3.20,-42.96,-460,-5643,6077,-1,-1,0
177.44,-3.20,-42.96,-455,-5648,6077,-1,0,0
177.44,-3.20,-42.96,-450,-5641,6077,0,0,0
177.44,-3.20,-42.96,-448,-5642,6079,-1,0,0
177.43,-3.20,-42.97,-459,-5641,6066,-1,0,0
177.43,-3.20,-42.97,-464,-5646,6069,0,0,0
177.43,-3.21,-42.97,-468,-5651,6070,-1,-1,0
177.43,-3.20,-42.97,-470,-5655,6066,0,0,0
177.43,-3.20,-42.96,-469,-5658,6071,0,-1,0
177.43,-3.20,-42.96,-469,-5655,6075,0,-1,0
177.43,-3.20,-42.95,-466,-5655,6074,0,-1,0
177.44,-3.20,-42.95,-458,-5647,6076,0,0,-1
177.43,-3.20,-42.94,-466,-5639,6078,0,0,0
177.43,-3.20,-42.94,-470,-5642,6084,-1,0,0
177.43,-3.20,-42.94,-465,-5648,6078,-1,0,-1
177.43,-3.20,-42.94,-464,-5654,6082,-1,0,0
177.43,-3.21,-42.94,-463,-5653,6072,0,0,0
177.43,-3.20,-42.94,-459,-5653,6076,0,0,0
177.43,-3.21,-42.93,-471,-5655,6073,0,0,0
177.43,-3.21,-42.92,-472,-5649,6072,0,-1,0
177.43,-3.21,-42.92,-471,-5639,6071,0,0,-1
177.43,-3.21,-42.92,-472,-5640,6070,-1,0,0
177.43,-3.21,-42.92,-465,-5644,6064,0,0,0
177.43,-3.22,-42.92,-460,-5647,6061,0,0,-1
177.43,-3.22,-42.92,-467,-5646,6074,0,-1,0
177.43,-3.21,-42.91,-462,-5641,6080,0,-1,0
177.42,-3.22,-42.91,-468,-5640,6073,0,0,0
177.42,-3.22,-42.90,-472,-5638,6066,0,0,0
177.42,-3.22,-42.90,-475,-5641,6086,0,0,-1
177.42,-3.22,-42.89,-474,-5642,6095,0,0,-1
177.42,-3.22,-42.89,-469,-5644,6089,0,-1,0
177.42,-3.22,-42.89,-468,-5634,6083,0,-1,0
177.43,-3.21,-42.88,-457,-5633,6088,0,-1,0
177.43,-3.21,-42.87,-456,-5640,6099,0,0,0
177.43,-3.21,-42.86,-461,-5639,6108,0,0,0
177.43,-3.21,-42.86,-463,-5633,6092,-1,0,0
177.42,-3.22,-42.86,-465,-5631,6091,-1,0,0
177.42,-3.22,-42.86,-468,-5634,6078,-1,0,0
177.42,-3.22,-42.86,-469,-5637,6072,0,0,0
177.42,-3.22,-42.86,-469,-5645,6076,0,-1,0
177.42,-3.23,-42.86,-470,-5646,6072,0,0,0
177.42,-3.23,-42.86,-468,-5646,6073,0,0,0
177.42,-3.23,-42.86,-472,-5642,6080,0,0,0
177.42,-3.23,-42.85,-469,-5640,6084,0,0,0
177.42,-3.23,-42.84,-465,-5638,6091,0,-1,0
177.42,-3.22,-42.84,-455,-5639,6079,0,-1,0
177.42,-3.22,-42.84,-460,-5634,6077,0,0,0
177.42,-3.22,-42.83,-462,-5631,6082,0,0,0
177.41,-3.22,-42.83,-453,-5630,6077,0,0,0
177.42,-3.22,-42.83,-459,-5637,6100,0,-1,0
177.41,-3.22,-42.82,-457,-5636,6097,0,0,0
177.41,-3.23,-42.82,-473,-5625,6081,0,0,0
177.41,-3.23,-42.82,-476,-5628,6078,0,-1,0
177.41,-3.23,-42.82,-478,-5638,6084,0,-1,-1
177.41,-3.23,-42.82,-471,-5640,6094,0,0,-1
177.41,-3.23,-42.81,-466,-5633,6094,0,-1,0
177.41,-3.23,-42.80,-462,-5624,6093,0,0,0
177.40,-3.23,-42.80,-457,-5622,6091,0,0,0
177.40,-3.23,-42.80,-464,-5617,6095,0,0,0
177.40,-3.23,-42.80,-469,-5621,6097,-1,0,0
177.40,-3.24,-42.80,-467,-5625,6090,-1,0,0
177.40,-3.24,-42.80,-469,-5629,6084,-1,0,0
177.40,-3.24,-42.81,-474,-5636,6079,-1,0,0
177.40,-3.25,-42.81,-474,-5636,6081,0,0,0
177.39,-3.25,-42.80,-472,-5639,6082,0,0,0
177.39,-3.26,-42.80,-471,-5636,6086,0,0,0
177.39,-3.26,-42.80,-473,-5631,6092,0,0,0
177.39,-3.26,-42.80,-480,-5632,6080,-1,0,0
177.39,-3.26,-42.80,-472,-5623,6080,-1,0,0
177.39,-3.26,-42.80,-473,-5629,6076,-1,0,0
177.38,-3.26,-42.80,-474,-5628,6077,0,0,0
177.38,-3.27,-42.78,-479,-5634,6095,0,-1,0
177.38,-3.27,-42.77,-476,-5625,6102,0,0,0
177.38,-3.27,-42.77,-482,-5630,6088,0,-1,0
177.37,-3.27,-42.77,-482,-5629,6081,-1,0,0
177.37,-3.27,-42.77,-479,-5638,6082,0,0,-1
177.38,-3.27,-42.77,-475,-5631,6093,0,-1,-1
177.37,-3.27,-42.76,-466,-5624,6083,0,-1,0
177.37,-3.27,-42.76,-459,-5618,6082,0,-1,0
177.37,-3.27,-42.76,-468,-5620,6080,-1,0,0
177.36,-3.28,-42.76,-476,-5623,6076,0,0,0
177.36,-3.28,-42.76,-478,-5631,6087,0,0,0
177.36,-3.28,-42.76,-478,-5631,6085,0,0,-1
177.36,-3.28,-42.76,-480,-5630,6082,0,-1,-1
177.36,-3.28,-42.76,-480,-5627,6089,0,-1,-1
177.37,-3.27,-42.75,-471,-5625,6091,0,-1,-1
177.37,-3.26,-42.75,-467,-5613,6092,-1,-1,-1
177.37,-3.26,-42.74,-463,-5610,6100,0,-1,0
177.37,-3.26,-42.74,-466,-5611,6108,-1,-1,0
177.37,-3.26,-42.74,-473,-5614,6109,-1,0,0
177.36,-3.27,-42.75,-474,-5612,6096,-1,-1,0
177.36,-3.27,-42.75,-476,-5618,6084,-1,-1,0
177.37,-3.26,-42.75,-472,-5630,6091,0,-1,-1
177.37,-3.26,-42.75,-471,-5627,6094,-1,-1,-1
177.37,-3.26,-42.75,-481,-5637,6089,0,-1,-1
177.37,-3.26,-42.75,-485,-5634,6079,0,-1,-1
177.38,-3.25,-42.75,-485,-5623,6080,-1,-1,-1
177.37,-3.25,-42.74,-475,-5622,6089,-1,-1,-1
177.38,-3.24,-42.75,-464,-5626,6094,-1,-1,-1
177.38,-3.24,-42.75,-467,-5622,6099,-1,-1,-1
177.38,-3.23,-42.75,-463,-5620,6086,-1,-1,0
177.38,-3.23,-42.76,-467,-5628,6086,-1,-1,-1
177.39,-3.22,-42.76,-463,-5625,6099,-1,-1,-1
177.39,-3.22,-42.76,-456,-5621,6092,-1,0,-1
177.38,-3.23,-42.76,-459,-5611,6096,-1,0,0
177.38,-3.23,-42.77,-460,-5615,6085,-1,0,0
177.39,-3.23,-42.77,-467,-5621,6088,-1,0,-1
177.39,-3.23,-42.79,-470,-5633,6075,-1,-1,-1
177.39,-3.23,-42.79,-469,-5642,6074,0,0,-1
177.39,-3.23,-42.79,-464,-5634,6084,-1,-1,-1
177.40,-3.23,-42.79,-469,-5625,6091,-1,-1,-1
177.39,-3.22,-42.79,-464,-5614,6093,-1,0,-1
177.40,-3.22,-42.79,-457,-5616,6093,-1,0,-1
177.40,-3.22,-42.80,-456,-5624,6092,-1,0,-1
177.40,-3.22,-42.80,-463,-5625,6097,-1,-1,-1
177.40,-3.22,-42.81,-462,-5635,6092,-1,0,-1
177.40,-3.22,-42.82,-462,-5640,6088,-1,0,0
177.40,-3.22,-42.82,-466,-5635,6083,-1,0,0
177.40,-3.22,-42.82,-474,-5631,6078,-1,0,-1
177.40,-3.22,-42.82,-469,-5633,6077,-1,0,-1
177.40,-3.22,-42.82,-467,-5633,6089,-1,-1,-1
177.40,-3.22,-42.82,-467,-5639,6082,-1,0,-1
177.40,-3.22,-42.83,-469,-5636,6080,-1,0,-1
177.40,-3.22,-42.82,-465,-5632,6089,-1,-1,0
177.40,-3.22,-42.82,-460,-5632,6094,-1,-1,0
177.40,-3.22,-42.83,-465,-5630,6080,-1,0,-1
177.41,-3.21,-42.84,-467,-5640,6084,-1,0,-1
177.41,-3.21,-42.84,-466,-5642,6085,-1,-1,-1
177.41,-3.21,-42.83,-459,-5630,6097,-1,-1,0
177.41,-3.21,-42.83,-460,-5627,6103,-1,0,0
177.41,-3.21,-42.84,-462,-5624,6095,-1,0,0
177.41,-3.21,-42.84,-464,-5634,6089,-1,0,0
177.41,-3.22,-42.85,-478,-5642,6100,-1,0,-1
177.41,-3.22,-42.84,-482,-5641,6098,-1,0,-1
177.41,-3.22,-42.85,-477,-5648,6092,-1,-1,-1
177.41,-3.22,-42.85,-470,-5640,6083,-1,-1,-1
177.42,-3.21,-42.85,-463,-5631,6075,0,-1,-1
177.42,-3.21,-42.85,-457,-5629,6075,-1,0,-1
177.42,-3.21,-42.85,-457,-5628,6073,-1,0,-1
177.42,-3.21,-42.86,-456,-5630,6075,-1,0,0
177.42,-3.21,-42.86,-467,-5631,6079,-1,0,0
177.41,-3.22,-42.87,-469,-5634,6076,-1,0,0
177.41,-3.22,-42.88,-473,-5637,6076,-1,0,-1
177.41,-3.22,-42.88,-470,-5646,6071,-1,0,-1
177.42,-3.22,-42.88,-473,-5648,6073,-1,0,0
177.41,-3.22,-42.88,-478,-5654,6075,-1,0,0
177.42,-3.22,-42.88,-476,-5649,6082,0,-1,-1
177.42,-3.22,-42.88,-477,-5648,6073,0,-1,-1
177.42,-3.22,-42.88,-475,-5639,6078,-1,-1,-1
177.42,-3.22,-42.88,-464,-5640,6070,0,0,-1
177.42,-3.22,-42.88,-461,-5638,6081,-1,0,-1
177.42,-3.22,-42.88,-460,-5638,6086,-1,-1,0
177.42,-3.22,-42.89,-461,-5632,6082,-1,0,-1
177.42,-3.22,-42.89,-465,-5629,6080,-1,0,0
177.42,-3.22,-42.90,-464,-5640,6077,-1,-1,-1
177.42,-3.22,-42.90,-467,-5642,6080,-1,0,-1
177.42,-3.22,-42.90,-476,-5646,6084,0,0,-1
177.42,-3.22,-42.90,-476,-5647,6076,-1,-1,0
177.42,-3.22,-42.91,-476,-5646,6067,0,-1,-1
177.42,-3.22,-42.91,-476,-5649,6069,-1,-1,0
177.42,-3.22,-42.90,-482,-5645,6078,0,-1,-1
177.42,-3.22,-42.90,-471,-5641,6084,-1,-1,-1
177.42,-3.22,-42.91,-467,-5637,6087,-1,-1,-1
177.42,-3.22,-42.91,-465,-5639,6087,-1,-1,0
177.42,-3.21,-42.91,-454,-5636,6074,-1,-1,0
177.42,-3.21,-42.92,-460,-5640,6075,-1,0,-1
177.42,-3.21,-42.92,-458,-5644,6071,-1,0,0
177.42,-3.21,-42.92,-462,-5646,6072,-1,-1,0
177.42,-3.21,-42.92,-462,-5642,6078,-1,-1,0
177.42,-3.21,-42.92,-459,-5638,6082,-1,-1,0
177.42,-3.21,-42.92,-461,-5642,6081,-1,0,-1
177.42,-3.21,-42.92,-460,-5642,6071,-1,0,-1
177.42,-3.21,-42.92,-461,-5649,6080,0,-1,-1
177.42,-3.20,-42.92,-456,-5641,6081,0,-1,-1
177.43,-3.20,-42.92,-454,-5635,6086,0,-1,-1
177.43,-3.20,-42.92,-454,-5631,6078,-1,-1,0
177.42,-3.20,-42.92,-462,-5634,6079,-1,0,0
177.42,-3.20,-42.92,-473,-5643,6089,-1,0,-1
177.42,-3.20,-42.92,-477,-5642,6084,-1,-1,-1
177.42,-3.20,-42.92,-482,-5646,6072,-1,-1,-1
177.42,-3.20,-42.93,-474,-5643,6064,-1,-1,-1
177.42,-3.20,-42.93,-465,-5646,6071,0,-1,-1
177.43,-3.20,-42.92,-455,-5641,6067,0,0,-1
177.43,-3.19,-42.92,-447,-5647,6073,0,-1,-1
177.44,-3.19,-42.92,-449,-5633,6086,-1,0,-1
177.44,-3.19,-42.92,-457,-5632,6080,-1,0,-1
177.44,-3.19,-42.92,-461,-5631,6077,-1,-1,-1
177.44,-3.19,-42.92,-468,-5639,6068,-1,0,-1
177.44,-3.19,-42.92,-471,-5632,6063,-1,0,-1
177.44,-3.18,-42.92,-462,-5642,6062,-1,-1,-1
177.44,-3.18,-42.93,-454,-5648,6069,-1,0,-1
177.45,-3.19,-42.93,-458,-5649,6068,-1,0,-1
177.45,-3.19,-42.93,-464,-5645,6073,-1,0,-1
177.45,-3.19,-42.93,-465,-5647,6083,-1,0,-1
177.45,-3.19,-42.93,-459,-5641,6080,-1,0,-1
177.45,-3.19,-42.94,-459,-5640,6070,-1,0,-1
177.45,-3.19,-42.94,-450,-5641,6067,-1,0,-1
177.45,-3.19,-42.94,-449,-5637,6074,-1,0,0
177.45,-3.19,-42.95,-454,-5636,6078,-1,0,0
177.45,-3.19,-42.95,-461,-5642,6075,-1,0,0
177.44,-3.20,-42.96,-463,-5647,6068,-1,0,0
177.45,-3.20,-42.97,-460,-5648,6058,-1,0,0
177.44,-3.21,-42.97,-466,-5650,6056,-1,0,0
177.44,-3.21,-42.97,-468,-5646,6070,-1,0,0
177.44,-3.21,-42.97,-479,-5652,6080,0,0,0
177.44,-3.21,-42.97,-480,-5646,6075,0,0,0
177.44,-3.21,-42.96,-474,-5643,6073,0,0,0
177.43,-3.22,-42.96,-472,-5642,6076,0,0,-1
177.43,-3.22,-42.96,-472,-5648,6067,-1,-1,0
177.44,-3.21,-42.96,-466,-5651,6059,0,0,0
177.44,-3.21,-42.96,-465,-5656,6056,0,0,0
177.43,-3.22,-42.95,-462,-5648,6053,0,0,0
177.43,-3.22,-42.95,-466,-5643,6075,0,-1,0
177.43,-3.22,-42.94,-463,-5636,6085,0,0,0
177.43,-3.23,-42.94,-480,-5642,6081,-1,0,0
177.42,-3.24,-42.95,-485,-5648,6070,-1,0,0
177.43,-3.23,-42.95,-474,-5652,6071,0,-1,-1
177.43,-3.23,-42.94,-465,-5649,6070,0,-1,0
177.43,-3.22,-42.93,-456,-5644,6075,0,0,0
177.42,-3.23,-42.93,-454,-5648,6069,-1,0,0
177.42,-3.24,-42.93,-464,-5649,6069,0,0,0
177.42,-3.24,-42.93,-482,-5647,6079,0,0,0
177.42,-3.25,-42.92,-490,-5641,6092,-1,0,-1
177.43,-3.24,-42.92,-482,-5648,6074,-1,-1,-1
177.43,-3.24,-42.92,-481,-5648,6086,-1,-1,-1
177.42,-3.24,-42.92,-465,-5650,6086,-1,-1,0
177.42,-3.24,-42.92,-466,-5649,6071,0,-1,0
177.42,-3.24,-42.92,-467,-5642,6075,0,0,0
177.42,-3.24,-42.92,-472,-5633,6077,-1,0,0
177.41,-3.25,-42.92,-463,-5633,6077,-1,0,0
177.41,-3.25,-42.92,-473,-5638,6078,-1,-1,0
177.41,-3.25,-42.92,-465,-5641,6072,0,0,0
177.41,-3.25,-42.92,-463,-5645,6064,0,0,-1
177.41,-3.25,-42.92,-469,-5643,6062,-1,-1,0
177.41,-3.25,-42.92,-471,-5645,6066,0,-1,0
177.41,-3.25,-42.92,-470,-5651,6068,0,-1,0
177.40,-3.25,-42.91,-481,-5656,6081,0,-1,0
177.41,-3.25,-42.90,-481,-5647,6085,0,-1,-1
177.41,-3.25,-42.89,-476,-5634,6090,0,-1,0
177.41,-3.24,-42.89,-469,-5634,6090,0,-1,0
177.41,-3.24,-42.89,-464,-5633,6084,0,-1,0
177.41,-3.24,-42.89,-459,-5633,6074,0,0,0
177.41,-3.24,-42.88,-457,-5627,6079,0,0,0
177.41,-3.24,-42.88,-457,-5627,6074,0,0,0
177.41,-3.24,-42.88,-464,-5635,6072,0,0,0
177.41,-3.24,-42.87,-466,-5639,6072,0,0,-1
177.41,-3.24,-42.87,-470,-5648,6076,0,-1,-1
177.41,-3.24,-42.87,-473,-5647,6071,0,-1,-1
177.41,-3.24,-42.86,-466,-5638,6067,0,-1,0
177.41,-3.23,-42.86,-459,-5640,6065,0,-1,0
177.41,-3.23,-42.86,-460,-5635,6069,0,0,0
177.41,-3.23,-42.85,-460,-5629,6072,0,0,0
177.41,-3.23,-42.85,-464,-5632,6076,0,0,0
177.41,-3.23,-42.85,-468,-5637,6090,0,0,0
177.41,-3.23,-42.85,-473,-5636,6087,-1,0,0
177.41,-3.23,-42.84,-476,-5636,6082,0,-1,0
177.40,-3.23,-42.84,-472,-5629,6089,0,-1,0
177.40,-3.24,-42.83,-467,-5630,6087,0,0,0
177.40,-3.24,-42.83,-469,-5633,6091,0,0,-1
177.40,-3.24,-42.83,-469,-5640,6102,0,0,-1
177.40,-3.25,-42.82,-485,-5646,6093,0,0,-1
177.40,-3.24,-42.82,-473,-5635,6091,0,-1,0
177.39,-3.24,-42.81,-463,-5638,6098,0,-1,0
177.39,-3.24,-42.81,-470,-5634,6097,-1,0,0
177.39,-3.25,-42.81,-471,-5629,6097,0,0,0
177.39,-3.25,-42.81,-476,-5634,6093,0,0,0
177.39,-3.26,-42.81,-485,-5635,6092,-1,-1,0
177.39,-3.26,-42.81,-483,-5644,6093,0,-1,-1
177.39,-3.25,-42.80,-477,-5646,6090,0,-1,-1
177.39,-3.25,-42.80,-473,-5640,6082,0,-1,-1
177.39,-3.24,-42.80,-467,-5624,6092,0,-1,0
177.39,-3.24,-42.79,-453,-5617,6090,0,-1,0
177.39,-3.24,-42.78,-452,-5616,6087,0,0,0
177.39,-3.24,-42.78,-457,-5618,6089,-1,0,0
177.38,-3.25,-42.79,-467,-5628,6092,-1,0,0
177.38,-3.25,-42.79,-476,-5629,6099,-1,0,0
177.38,-3.25,-42.79,-478,-5633,6094,-1,-1,0
177.38,-3.25,-42.79,-481,-5633,6084,-1,0,0
177.38,-3.25,-42.79,-476,-5633,6073,0,-1,0
177.38,-3.25,-42.79,-470,-5639,6077,0,0,0
177.38,-3.25,-42.78,-475,-5640,6080,0,-1,-1
177.38,-3.25,-42.78,-474,-5630,6080,0,-1,-1
177.38,-3.25,-42.78,-482,-5623,6087,0,-1,-1
177.38,-3.24,-42.77,-479,-5620,6098,0,-1,0
177.38,-3.24,-42.77,-473,-5620,6089,-1,-1,-1
177.38,-3.24,-42.78,-459,-5619,6085,-1,-1,0
177.38,-3.23,-42.78,-446,-5616,6083,-1,0,0
177.38,-3.23,-42.79,-456,-5613,6080,-1,0,0
177.38,-3.24,-42.79,-474,-5628,6079,-1,0,0
177.38,-3.24,-42.80,-479,-5635,6081,-1,0,-1
177.38,-3.24,-42.80,-483,-5640,6092,-1,-1,-1
177.38,-3.24,-42.80,-482,-5638,6085,-1,-1,-1
177.38,-3.24,-42.80,-471,-5634,6091,0,-1,-1
177.38,-3.23,-42.80,-460,-5625,6090,-1,-1,-1
177.38,-3.22,-42.80,-454,-5619,6091,-1,-1,-1
177.39,-3.22,-42.80,-456,-5623,6088,-1,0,-1
177.39,-3.22,-42.80,-455,-5621,6090,-1,0,0
177.39,-3.22,-42.80,-463,-5619,6089,-1,0,-1
177.39,-3.23,-42.80,-461,-5624,6083,-1,0,-1
177.39,-3.23,-42.81,-466,-5628,6081,-1,0,-1
177.39,-3.23,-42.82,-464,-5624,6075,-1,0,-1
177.39,-3.22,-42.82,-470,-5625,6072,-1,-1,-1
177.39,-3.22,-42.82,-467,-5631,6071,-1,0,0
177.39,-3.22,-42.82,-465,-5626,6083,-1,-1,0
177.39,-3.22,-42.82,-462,-5622,6085,-1,0,0
177.39,-3.23,-42.82,-471,-5630,6094,-1,0,0
177.39,-3.23,-42.83,-473,-5639,6081,-1,0,-1
177.39,-3.23,-42.84,-477,-5639,6072,0,0,-1
177.39,-3.23,-42.83,-466,-5629,6072,-1,-1,-1
177.40,-3.22,-42.83,-458,-5629,6068,-1,-1,0
177.40,-3.22,-42.84,-458,-5640,6070,-1,0,0
177.40,-3.22,-42.84,-459,-5645,6082,0,0,0
177.39,-3.23,-42.84,-470,-5640,6092,-1,0,-1
177.39,-3.23,-42.84,-474,-5632,6094,-1,0,-1
177.39,-3.23,-42.84,-475,-5638,6087,-1,0,-1
177.39,-3.23,-42.85,-473,-5642,6084,-1,-1,-1
177.40,-3.22,-42.85,-466,-5642,6081,-1,-1,-1
177.40,-3.22,-42.85,-456,-5637,6090,0,0,-1
177.40,-3.22,-42.85,-455,-5634,6091,-1,-1,0
177.40,-3.22,-42.85,-462,-5624,6084,-1,0,0
177.40,-3.22,-42.85,-465,-5624,6092,-1,0,0
177.40,-3.22,-42.85,-470,-5626,6094,-1,0,0
177.39,-3.23,-42.86,-472,-5631,6088,-1,0,-1
177.39,-3.23,-42.86,-473,-5640,6083,-1,-1,-1
177.39,-3.23,-42.86,-474,-5641,6079,-1,-1,0
177.39,-3.23,-42.86,-468,-5642,6072,0,-1,-1
177.40,-3.22,-42.86,-470,-5639,6074,0,0,-1
177.40,-3.22,-42.86,-475,-5635,6083,0,-1,-1
177.40,-3.22,-42.86,-472,-5638,6077,0,-1,-1
177.40,-3.22,-42.86,-471,-5635,6069,-1,-1,-1
177.40,-3.22,-42.86,-462,-5633,6079,-1,0,-1
177.40,-3.22,-42.86,-455,-5632,6076,-1,0,0
177.40,-3.22,-42.86,-452,-5630,6082,-1,0,0
177.40,-3.22,-42.86,-464,-5637,6082,-1,-1,0
177.40,-3.22,-42.87,-462,-5644,6080,-1,0,0
177.41,-3.21,-42.88,-468,-5647,6069,-1,0,-1
177.41,-3.22,-42.88,-476,-5649,6066,-1,-1,0
177.41,-3.21,-42.88,-465,-5654,6067,0,-1,-1
177.41,-3.21,-42.88,-464,-5653,6071,0,-1,-1
177.41,-3.21,-42.88,-459,-5644,6079,0,-1,-1
177.41,-3.20,-42.88,-458,-5640,6079,-1,-1,-1
177.41,-3.20,-42.88,-464,-5639,6073,-1,0,0
177.41,-3.20,-42.88,-460,-5638,6077,-1,0,-1
177.41,-3.20,-42.88,-463,-5632,6084,-1,-1,-1
177.41,-3.20,-42.88,-463,-5636,6085,-1,-1,-1
177.41,-3.20,-42.89,-461,-5638,6074,-1,0,0
177.41,-3.20,-42.90,-460,-5641,6077,-1,-1,-1
177.41,-3.20,-42.90,-459,-5648,6069,-1,0,-1
177.41,-3.20,-42.90,-461,-5641,6073,0,0,0
177.41,-3.20,-42.90,-459,-5642,6077,-1,-1,0
177.41,-3.20,-42.91,-464,-5638,6083,-1,0,0
177.41,-3.20,-42.91,-459,-5644,6086,-1,0,-1
177.41,-3.20,-42.92,-463,-5648,6073,-1,0,-1
177.42,-3.19,-42.92,-465,-5643,6074,0,-1,-1
177.42,-3.19,-42.92,-460,-5638,6070,-1,-1,-1
177.42,-3.19,-42.92,-457,-5635,6068,-1,0,0
177.42,-3.19,-42.92,-458,-5641,6067,-1,0,0
177.42,-3.19,-42.92,-462,-5653,6078,-1,0,0
177.41,-3.20,-42.92,-471,-5646,6080,-1,0,-1
177.42,-3.20,-42.93,-476,-5649,6076,-1,-1,-1
177.42,-3.20,-42.93,-473,-5650,6072,-1,-1,-1
177.42,-3.19,-42.93,-464,-5644,6073,0,-1,0
177.42,-3.19,-42.93,-457,-5645,6079,0,-1,-1
177.43,-3.19,-42.92,-449,-5644,6081,-1,-1,-1
177.43,-3.19,-42.93,-447,-5636,6085,-1,-1,0
177.43,-3.19,-42.93,-455,-5636,6084,-1,0,0
177.43,-3.19,-42.93,-464,-5638,6082,-1,0,0
177.42,-3.19,-42.93,-461,-5639,6074,0,0,-1
177.43,-3.19,-42.94,-463,-5656,6087,-1,-1,-1
177.43,-3.19,-42.94,-465,-5658,6077,-1,-1,-1
177.43,-3.19,-42.94,-466,-5653,6066,-1,0,-1
177.43,-3.19,-42.94,-467,-5654,6064,0,-1,-1
177.43,-3.18,-42.94,-465,-5661,6060,0,0,-1
177.43,-3.18,-42.94,-459,-5654,6063,0,0,-1
177.43,-3.18,-42.94,-453,-5644,6074,-1,0,-1
177.44,-3.18,-42.94,-455,-5635,6073,-1,0,-1
177.44,-3.18,-42.94,-449,-5633,6075,-1,0,-1
177.44,-3.18,-42.95,-448,-5630,6071,-1,0,-1
177.44,-3.19,-42.96,-451,-5634,6064,-1,0,0
177.44,-3.20,-42.97,-452,-5639,6063,-1,0,0
177.43,-3.20,-42.98,-462,-5646,6063,-1,0,0
177.43,-3.22,-42.99,-466,-5653,6058,-1,0,0
177.42,-3.23,-42.99,-467,-5658,6063,0,0,0
177.42,-3.23,-42.99,-477,-5644,6075,-1,0,0
177.41,-3.24,-43.00,-478,-5644,6071,-1,0,0
177.40,-3.25,-43.01,-483,-5638,6076,-1,0,0
177.40,-3.25,-43.01,-471,-5649,6070,-1,0,0
177.40,-3.26,-43.03,-459,-5648,6068,-1,0,0
177.39,-3.26,-43.04,-465,-5642,6071,-1,0,0
177.39,-3.26,-43.04,-473,-5654,6063,-1,0,0
177.38,-3.27,-43.05,-475,-5660,6057,-1,0,0
177.38,-3.28,-43.05,-472,-5656,6058,0,0,0
177.38,-3.29,-43.05,-481,-5652,6071,-1,0,-1
177.38,-3.29,-43.06,-489,-5671,6056,0,0,-1
177.38,-3.28,-43.05,-492,-5668,6052,0,-1,-1
177.38,-3.27,-43.05,-482,-5663,6046,0,-1,-1
177.39,-3.27,-43.04,-470,-5658,6047,0,-1,0
177.39,-3.26,-43.03,-464,-5657,6038,0,0,0
177.39,-3.26,-43.02,-474,-5652,6053,0,-1,-1
177.39,-3.25,-43.01,-478,-5652,6070,0,-1,-1
177.40,-3.25,-43.00,-484,-5646,6077,0,-1,-1
177.40,-3.24,-42.99,-476,-5649,6075,0,-1,-1
177.40,-3.24,-42.99,-468,-5651,6065,0,-1,-1
177.41,-3.23,-42.98,-473,-5664,6063,0,-1,-1
177.41,-3.23,-42.98,-462,-5661,6073,0,-1,0
177.41,-3.22,-42.96,-455,-5645,6076,0,-1,0
177.41,-3.23,-42.95,-465,-5637,6079,0,0,0
177.40,-3.23,-42.95,-463,-5640,6079,0,0,0
177.40,-3.23,-42.95,-473,-5646,6086,-1,0,0
177.40,-3.23,-42.95,-474,-5650,6083,-1,0,0
177.40,-3.23,-42.95,-472,-5656,6081,-1,0,0
177.40,-3.23,-42.95,-466,-5658,6074,0,0,0
177.40,-3.23,-42.95,-468,-5654,6069,0,0,-1
177.40,-3.24,-42.94,-476,-5644,6075,0,0,-1
177.40,-3.24,-42.94,-473,-5644,6071,0,-1,0
177.40,-3.24,-42.93,-474,-5642,6087,0,-1,-1
177.40,-3.23,-42.93,-472,-5641,6094,0,-1,-1
177.40,-3.23,-42.92,-471,-5645,6092,0,-1,-1
177.40,-3.23,-42.92,-459,-5638,6075,0,-1,0
177.40,-3.23,-42.92,-460,-5639,6080,0,-1,0
177.40,-3.23,-42.92,-462,-5636,6075,0,0,0
177.40,-3.23,-42.92,-455,-5639,6073,0,0,0
177.40,-3.23,-42.91,-459,-5639,6081,0,0,0
177.40,-3.23,-42.91,-463,-5640,6075,0,0,0
177.40,-3.23,-42.90,-469,-5646,6081,0,0,-1
177.40,-3.23,-42.89,-475,-5651,6089,0,-1,0
177.40,-3.23,-42.88,-471,-5646,6089,0,0,-1
177.40,-3.23,-42.88,-472,-5635,6085,0,-1,0
177.40,-3.23,-42.88,-470,-5633,6077,0,-1,0
177.40,-3.23,-42.87,-472,-5640,6074,0,-1,-1
177.40,-3.23,-42.87,-465,-5637,6078,0,-1,-1
177.40,-3.23,-42.86,-460,-5631,6079,0,0,0
177.40,-3.23,-42.86,-467,-5624,6084,0,0,0
177.40,-3.23,-42.86,-465,-5632,6081,-1,0,0
177.40,-3.24,-42.86,-473,-5642,6078,-1,-1,-1
177.40,-3.23,-42.87,-466,-5650,6067,0,0,-1
177.40,-3.24,-42.86,-468,-5632,6080,0,0,0
177.39,-3.23,-42.86,-459,-5623,6079,0,-1,0
177.39,-3.23,-42.86,-459,-5619,6076,-1,0,0
177.38,-3.24,-42.86,-462,-5634,6068,-1,0,0
177.38,-3.25,-42.86,-480,-5636,6072,-1,0,0
177.38,-3.25,-42.86,-477,-5637,6078,0,0,0
177.38,-3.25,-42.86,-477,-5636,6077,-1,0,-1
177.38,-3.25,-42.86,-483,-5636,6078,-1,-1,-1
177.38,-3.25,-42.86,-467,-5641,6079,0,-1,-1
177.38,-3.25,-42.85,-459,-5632,6078,-1,-1,0
177.38,-3.25,-42.85,-454,-5633,6085,0,0,0
177.37,-3.25,-42.84,-468,-5625,6087,0,0,0
177.37,-3.26,-42.83,-470,-5630,6100,0,-1,0
177.37,-3.26,-42.83,-481,-5628,6095,0,0,0
177.37,-3.26,-42.83,-479,-5632,6088,-1,-1,0
177.37,-3.26,-42.82,-478,-5622,6085,0,0,0
177.37,-3.26,-42.82,-474,-5628,6084,0,-1,0
177.36,-3.26,-42.82,-476,-5631,6076,0,0,0
177.37,-3.26,-42.82,-473,-5628,6086,0,-1,0
177.36,-3.27,-42.81,-258,-258,-258,0,0,0
177.36,-3.27,-42.81,-479,-5632,6088,0,0,0
177.35,-3.27,-42.80,-479,-5632,6089,0,0,0
177.35,-3.27,-42.80,-482,-5629,6090,-1,-1,0
177.35,-3.27,-42.80,-482,-5623,6093,0,0,0
177.35,-3.27,-42.80,-475,-5619,6085,-1,0,0
177.35,-3.27,-42.80,-476,-5620,6088,0,0,0
177.35,-3.28,-42.79,-470,-5627,6077,0,0,0
177.34,-3.28,-42.79,-469,-5627,6081,0,0,0
177.34,-3.28,-42.79,-477,-5635,6090,0,0,0
177.34,-3.28,-42.79,-483,-5635,6092,0,-1,-1
177.35,-3.28,-42.78,-488,-5631,6086,0,-1,-1
177.35,-3.28,-42.77,-477,-5626,6078,0,-1,0
177.35,-3.28,-42.77,-468,-5621,6091,0,-1,0
177.35,-3.28,-42.76,-466,-5619,6099,0,-1,-1
177.35,-3.28,-42.75,-474,-5623,6112,0,-1,-1
177.35,-3.28,-42.75,-477,-5619,6100,0,-1,0
177.35,-3.28,-42.75,-481,-5624,6090,-1,-1,-1
177.35,-3.28,-42.74,-478,-5621,6092,-1,-1,-1
177.35,-3.27,-42.74,-471,-5627,6090,0,-1,-1
177.35,-3.26,-42.74,-472,-5622,6089,-1,-1,0
177.35,-3.27,-42.74,-475,-5628,6088,-1,-1,0
177.35,-3.27,-42.75,-480,-5632,6094,-1,0,0
177.35,-3.27,-42.75,-484,-5631,6097,0,-1,-1
177.35,-3.26,-42.75,-480,-5631,6082,0,-1,-1
177.35,-3.25,-42.75,-459,-5620,6085,-1,-1,-1
177.35,-3.25,-42.75,-465,-5611,6086,-1,-1,0
177.35,-3.25,-42.75,-468,-5616,6084,-1,0,0
177.35,-3.25,-42.76,-477,-5620,6086,-1,0,0
177.35,-3.26,-42.76,-485,-5624,6093,-1,0,-1
177.35,-3.26,-42.77,-484,-5627,6090,-1,-1,-1
177.36,-3.25,-42.77,-481,-5634,6088,-1,-1,-1
177.36,-3.25,-42.78,-472,-5633,6081,-1,-1,-1
177.36,-3.24,-42.78,-463,-5631,6087,-1,-1,-1
177.36,-3.24,-42.78,-462,-5629,6086,-1,-1,-1
177.37,-3.23,-42.78,-463,-5618,6089,-1,-1,-1
177.37,-3.23,-42.79,-463,-5611,6083,-1,-1,0
177.37,-3.23,-42.79,-456,-5612,6087,-1,0,0
177.37,-3.23,-42.80,-457,-5628,6078,-1,0,-1
177.36,-3.24,-42.81,-464,-5630,6069,-1,0,0
177.36,-3.24,-42.82,-470,-5641,6082,-1,0,-1
177.36,-3.24,-42.82,-480,-5651,6080,-1,-1,-1
177.37,-3.24,-42.82,-487,-5641,6075,0,0,-1
177.37,-3.24,-42.82,-479,-5637,6068,0,-1,-1
177.37,-3.24,-42.82,-472,-5637,6076,-1,-1,-1
177.37,-3.23,-42.82,-463,-5632,6082,-1,-1,-1
177.38,-3.23,-42.82,-461,-5624,6089,-1,-1,0
177.37,-3.23,-42.82,-462,-5618,6091,-1,0,0
177.38,-3.23,-42.82,-458,-5617,6085,-1,0,0
177.38,-3.23,-42.83,-460,-5627,6081,-1,0,-1
177.38,-3.23,-42.83,-467,-5634,6078,-1,0,-1
177.38,-3.23,-42.85,-467,-5642,6078,-1,0,-1
177.38,-3.23,-42.85,-466,-5651,6078,-1,0,-1
177.38,-3.23,-42.85,-467,-5646,6074,-1,0,-1
177.38,-3.22,-42.85,-467,-5638,6082,0,0,-1
177.38,-3.22,-42.85,-468,-5639,6094,0,0,-1
177.38,-3.23,-42.85,-475,-5635,6093,-1,0,-1
177.38,-3.22,-42.85,-468,-5635,6088,-1,-1,-1
177.38,-3.22,-42.85,-466,-5629,6083,-1,0,-1
177.38,-3.22,-42.85,-467,-5628,6082,-1,0,-1
177.39,-3.22,-42.86,-475,-5627,6088,-1,0,-1
177.39,-3.22,-42.86,-472,-5628,6091,-1,0,0
177.39,-3.22,-42.86,-470,-5629,6083,-1,-1,-1
177.39,-3.22,-42.86,-464,-5641,6087,-1,-1,-1
177.39,-3.22,-42.86,-455,-5639,6095,-1,0,-1
177.39,-3.22,-42.86,-455,-5633,6091,-1,0,0
177.39,-3.22,-42.86,-461,-5626,6094,-1,0,0
177.39,-3.23,-42.87,-476,-5627,6097,-1,0,0
177.39,-3.23,-42.88,-478,-5643,6084,-1,-1,-1
177.39,-3.23,-42.88,-476,-5653,6078,0,-1,-1
177.39,-3.23,-42.88,-467,-5645,6086,0,-1,-1
177.40,-3.22,-42.88,-455,-5643,6080,0,-1,0
177.40,-3.22,-42.87,-456,-5643,6083,0,0,0
177.40,-3.22,-42.87,-457,-5640,6078,-1,0,0
177.39,-3.23,-42.87,-472,-5637,6077,-1,0,-1
177.39,-3.23,-42.87,-478,-5634,6082,-1,0,-1
177.39,-3.23,-42.88,-475,-5642,6071,-1,-1,-1
177.40,-3.22,-42.88,-479,-5644,6071,-1,-1,-1
177.40,-3.22,-42.88,-473,-5642,6070,0,-1,-1
177.40,-3.22,-42.88,-460,-5638,6078,0,-1,-1
177.41,-3.21,-42.87,-449,-5635,6082,0,0,-1
177.41,-3.21,-42.87,-446,-5627,6089,-1,0,0
177.41,-3.21,-42.88,-458,-5629,6092,-1,0,-1
177.41,-3.21,-42.88,-462,-5634,6081,-1,-1,-1
177.41,-3.21,-42.89,-464,-5644,6077,-1,0,0
177.41,-3.21,-42.89,-464,-5650,6076,-1,-1,0
177.41,-3.21,-42.90,-463,-5651,6075,-1,0,-1
177.41,-3.21,-42.89,-464,-5639,6080,0,0,-1
177.41,-3.21,-42.89,-471,-5640,6083,-1,0,0
177.41,-3.21,-42.89,-476,-5640,6085,-1,-1,-1
177.41,-3.21,-42.89,-473,-5640,6073,-1,0,-1
177.41,-3.21,-42.89,-467,-5638,6077,-1,-1,-1
177.41,-3.21,-42.89,-466,-5637,6080,-1,0,-1
177.41,-3.21,-42.89,-472,-5635,6077,-1,-1,0
177.41,-3.21,-42.90,-460,-5633,6079,-1,0,0
177.41,-3.21,-42.90,-456,-5631,6079,-1,0,0
177.40,-3.21,-42.91,-458,-5634,6082,-1,0,0
177.41,-3.21,-42.91,-467,-5650,6078,-1,0,0
177.40,-3.21,-42.92,-472,-5653,6075,-1,0,-1
177.40,-3.21,-42.92,-483,-5651,6074,-1,-1,0
177.40,-3.21,-42.92,-476,-5654,6076,0,-1,-1
177.40,-3.21,-42.92,-469,-5648,6075,0,-1,-1
177.40,-3.21,-42.92,-469,-5650,6081,-1,-1,0
177.41,-3.20,-42.92,-463,-5653,6088,-1,-1,-1
177.41,-3.20,-42.92,-459,-5649,6091,-1,-1,-1
177.41,-3.20,-42.92,-455,-5644,6092,-1,0,0
177.41,-3.20,-42.92,-459,-5641,6085,-1,0,-1
177.41,-3.20,-42.92,-465,-5645,6080,-1,0,-1
177.40,-3.21,-42.92,-474,-5654,6082,-1,-1,0
177.40,-3.21,-42.93,-474,-5652,6084,0,0,-1
177.40,-3.21,-42.92,-474,-5644,6071,0,0,-1
177.40,-3.21,-42.93,-474,-5641,6077,-1,0,0
177.41,-3.21,-42.93,-474,-5648,6067,-1,0,-1
177.41,-3.21,-42.93,-465,-5652,6083,0,-1,-1
177.42,-3.20,-42.92,-448,-5641,6083,0,-1,-1
177.42,-3.19,-42.92,-443,-5632,6089,-1,-1,0
177.42,-3.20,-42.92,-454,-5642,6073,-1,0,0
177.42,-3.20,-42.93,-459,-5650,6075,-1,0,-1
177.42,-3.20,-42.93,-474,-5651,6075,-1,0,-1
177.43,-3.21,-42.94,-467,-5650,6072,-1,0,-1
177.43,-3.21,-42.94,-472,-5654,6065,-1,-1,-1
177.43,-3.21,-42.94,-466,-5644,6062,0,-1,-1
177.43,-3.20,-42.94,-456,-5647,6061,0,-1,-1
177.44,-3.20,-42.94,-453,-5643,6069,0,0,-1
177.44,-3.20,-42.94,-451,-5639,6070,-1,0,-1
177.44,-3.20,-42.94,-458,-5638,6081,-1,0,0
177.44,-3.20,-42.94,-462,-5644,6078,-1,0,0
177.44,-3.20,-42.95,-463,-5644,6072,-1,0,0
177.44,-3.21,-42.95,-458,-5652,6068,-1,0,0
177.44,-3.20,-42.96,-453,-5654,6063,-1,-1,0
177.44,-3.20,-42.96,-458,-5653,6067,-1,0,0
177.44,-3.21,-42.96,-463,-5657,6072,0,0,0
177.43,-3.21,-42.96,-461,-5650,6073,0,0,0
177.43,-3.22,-42.95,-465,-5651,6080,0,0,0
177.43,-3.22,-42.95,-471,-5650,6069,0,0,0
177.43,-3.22,-42.95,-472,-5645,6065,-1,0,-1
177.43,-3.22,-42.95,-473,-5647,6069,-1,0,-1
177.43,-3.22,-42.95,-468,-5643,6070,-1,0,0
177.43,-3.22,-42.95,-462,-5644,6068,0,0,0
177.43,-3.22,-42.95,-465,-5645,6073,0,0,0
177.42,-3.22,-42.94,-468,-5655,6071,0,-1,0
177.43,-3.22,-42.94,-471,-5653,6068,0,0,0
177.42,-3.22,-42.94,-471,-5651,6076,0,0,0
177.42,-3.23,-42.94,-473,-5656,6065,0,-1,0
177.42,-3.23,-42.93,-473,-5656,6074,0,-1,-1
177.42,-3.22,-42.92,-471,-5654,6073,0,-1,-1
177.42,-3.22,-42.92,-468,-5647,6075,0,-1,0
177.42,-3.22,-42.92,-462,-5640,6071,0,0,0
177.42,-3.22,-42.92,-456,-5645,6069,0,0,0
177.42,-3.22,-42.91,-466,-5647,6081,0,-1,0
177.42,-3.22,-42.91,-471,-5644,6093,0,-1,0
177.42,-3.22,-42.91,-469,-5644,6086,-1,0,0
177.42,-3.22,-42.91,-467,-5641,6090,-1,0,0
177.41,-3.23,-42.91,-469,-5651,6085,0,0,-1
177.41,-3.23,-42.90,-470,-5650,6072,0,-1,-1
177.42,-3.22,-42.90,-453,-5645,6075,0,-1,0
177.42,-3.22,-42.89,-450,-5637,6080,0,-1,0
177.42,-3.22,-42.88,-450,-5641,6077,0,0,0
177.42,-3.22,-42.88,-461,-5641,6088,0,0,0
177.41,-3.23,-42.89,-472,-5638,6086,-1,0,-1
177.41,-3.23,-42.89,-479,-5645,6084,-1,-1,-1
177.41,-3.23,-42.89,-479,-5647,6067,-1,-1,-1
177.42,-3.22,-42.88,-471,-5649,6066,0,-1,-1
177.42,-3.22,-42.88,-468,-5647,6064,0,-1,0
177.42,-3.22,-42.88,-462,-5645,6067,0,-1,-1
177.42,-3.22,-42.88,-459,-5642,6078,0,0,0
177.42,-3.22,-42.87,-452,-5635,6089,0,0,0
177.42,-3.22,-42.87,-459,-5633,6086,-1,0,0
177.41,-3.22,-42.87,-472,-5637,6079,-1,0,0
177.41,-3.23,-42.87,-472,-5643,6076,0,0,0
177.41,-3.22,-42.87,-471,-5651,6075,0,0,-1
177.41,-3.22,-42.87,-466,-5651,6069,0,-1,-1
177.41,-3.22,-42.87,-465,-5654,6075,0,0,0
177.41,-3.22,-42.86,-468,-5641,6081,0,0,0
177.41,-3.22,-42.86,-462,-5640,6082,0,0,0
177.41,-3.23,-42.86,-471,-5633,6090,0,-1,-1
177.41,-3.22,-42.85,-464,-5634,6086,0,-1,-1
177.41,-3.22,-42.85,-463,-5631,6092,0,-1,0
177.41,-3.22,-42.84,-455,-5629,6089,0,0,0
177.40,-3.23,-42.84,-451,-5629,6088,-1,0,0
177.40,-3.23,-42.84,-459,-5633,6082,-1,0,0
177.40,-3.23,-42.85,-468,-5643,6077,-1,0,0
177.40,-3.24,-42.84,-466,-5636,6076,0,0,0
177.40,-3.24,-42.84,-476,-5634,6078,0,0,0
177.40,-3.24,-42.84,-475,-5640,6075,0,0,0
177.40,-3.24,-42.83,-475,-5635,6073,0,-1,-1
177.40,-3.23,-42.83,-456,-5640,6083,0,0,0
177.40,-3.23,-42.82,-456,-5635,6088,0,-1,0
177.40,-3.23,-42.82,-457,-5628,6093,0,0,0
177.39,-3.24,-42.81,-461,-5628,6095,-1,0,0
177.39,-3.24,-42.82,-459,-5631,6099,-1,0,0
177.39,-3.24,-42.82,-466,-5639,6097,-1,0,0
177.39,-3.24,-42.82,-468,-5645,6094,0,-1,-1
177.39,-3.24,-42.82,-464,-5639,6088,0,-1,0
177.40,-3.24,-42.81,-458,-5636,6083,0,-1,0
177.40,-3.24,-42.81,-458,-5628,6079,0,0,0
177.39,-3.24,-42.80,-466,-5626,6072,0,0,0
177.39,-3.24,-42.80,-479,-5628,6082,0,0,0
177.39,-3.24,-42.80,-482,-5634,6087,0,0,-1
177.39,-3.24,-42.79,-487,-5629,6096,-1,-1,-1
177.39,-3.24,-42.79,-479,-5633,6087,-1,-1,-1
177.39,-3.24,-42.79,-471,-5630,6089,0,-1,0
177.38,-3.24,-42.79,-465,-5628,6080,0,-1,0
177.38,-3.24,-42.79,-463,-5624,6084,0,0,0
177.38,-3.24,-42.78,-458,-5622,6087,0,0,0
177.38,-3.24,-42.78,-467,-5620,6092,-1,0,0
177.38,-3.24,-42.78,-464,-5631,6092,-1,0,0
177.38,-3.24,-42.78,-465,-5634,6086,-1,0,-1
177.38,-3.24,-42.78,-471,-5632,6085,-1,-1,-1
177.38,-3.24,-42.78,-465,-5635,6081,0,-1,-1
177.39,-3.23,-42.79,-461,-5628,6077,-1,-1,0
177.39,-3.23,-42.78,-468,-5630,6076,0,0,-1
177.39,-3.23,-42.78,-467,-5641,6092,0,0,-1
177.39,-3.23,-42.77,-466,-5637,6101,-1,-1,-1
177.39,-3.23,-42.77,-471,-5636,6100,0,-1,-1
177.39,-3.23,-42.77,-472,-5629,6099,0,-1,-1
177.39,-3.23,-42.77,-470,-5628,6082,-1,-1,-1
177.39,-3.22,-42.77,-461,-5628,6087,-1,-1,-1
177.39,-3.22,-42.78,-456,-5624,6079,-1,-1,0
177.39,-3.22,-42.78,-461,-5625,6084,-1,-1,0
177.39,-3.22,-42.79,-465,-5627,6081,-1,0,-1
177.39,-3.22,-42.79,-470,-5635,6072,-1,0,0
177.39,-3.23,-42.79,-479,-5629,6077,0,0,-1
177.39,-3.22,-42.80,-481,-5627,6085,-1,-1,-1
177.39,-3.22,-42.80,-473,-5630,6074,-1,-1,-1
177.39,-3.21,-42.80,-469,-5630,6074,0,-1,-1
177.39,-3.21,-42.80,-460,-5635,6087,0,-1,-1
177.39,-3.21,-42.79,-460,-5632,6097,0,0,0
177.39,-3.21,-42.79,-459,-5620,6099,-1,0,0
177.39,-3.21,-42.80,-464,-5618,6093,-1,0,-1
177.39,-3.21,-42.81,-470,-5633,6081,-1,0,-1
177.40,-3.21,-42.82,-472,-5645,6082,-1,0,-1
177.40,-3.21,-42.82,-463,-5640,6081,-1,-1,0
177.40,-3.21,-42.82,-455,-5633,6072,-1,-1,0
177.39,-3.22,-42.82,-455,-5632,6064,-1,0,0
177.40,-3.21,-42.82,-467,-5636,6078,-1,0,-1
177.40,-3.22,-42.83,-477,-5636,6074,-1,0,-1
177.40,-3.22,-42.83,-481,-5634,6082,-1,0,-1
177.40,-3.22,-42.83,-479,-5635,6080,-1,-1,-1
177.40,-3.22,-42.83,-469,-5634,6078,-1,0,-1
177.40,-3.21,-42.84,-459,-5638,6083,-1,-1,0
177.41,-3.21,-42.83,-453,-5634,6078,0,-1,0
177.41,-3.21,-42.83,-460,-5636,6082,0,-1,0
177.41,-3.21,-42.83,-458,-5625,6084,-1,-1,0
177.40,-3.21,-42.84,-466,-5631,6088,-1,0,0
177.41,-3.21,-42.85,-462,-5636,6086,-1,0,-1
177.41,-3.21,-42.85,-465,-5644,6082,-1,0,-1
177.41,-3.21,-42.86,-465,-5644,6079,-1,-1,-1
177.41,-3.21,-42.86,-463,-5639,6082,-1,0,-1
177.41,-3.20,-42.86,-462,-5639,6082,-1,0,0
177.41,-3.20,-42.85,-462,-5640,6088,0,0,-1
177.41,-3.20,-42.85,-468,-5641,6091,-1,0,-1
177.41,-3.21,-42.85,-473,-5628,6096,-1,-1,-1
177.41,-3.21,-42.85,-469,-5629,6090,-1,0,-1
177.41,-3.21,-42.85,-462,-5623,6084,-1,0,-1
177.41,-3.20,-42.85,-461,-5626,6086,-1,-1,-1
177.41,-3.20,-42.86,-460,-5631,6082,-1,-1,0
177.41,-3.20,-42.86,-455,-5635,6074,-1,0,0
177.41,-3.20,-42.86,-460,-5640,6079,-1,0,-1
177.41,-3.21,-42.87,-461,-5643,6076,-1,0,-1
177.41,-3.21,-42.87,-465,-5643,6077,-1,0,-1
177.42,-3.21,-42.88,-475,-5649,6081,-1,0,-1
177.42,-3.21,-42.88,-478,-5648,6080,0,-1,-1
177.42,-3.21,-42.88,-471,-5641,6081,-1,-1,-1
177.42,-3.21,-42.87,-462,-5640,6086,-1,-1,-1
177.42,-3.20,-42.87,-456,-5636,6080,-1,-1,-1
177.42,-3.20,-42.88,-456,-5638,6079,-1,0,-1
177.43,-3.20,-42.88,-458,-5644,6079,-1,0,-1
177.42,-3.20,-42.89,-465,-5638,6072,-1,0,0
177.42,-3.20,-42.89,-469,-5645,6071,-1,0,-1
177.42,-3.20,-42.90,-468,-5650,6063,-1,0,-1
177.42,-3.20,-42.90,-467,-5640,6068,0,0,-1
177.42,-3.20,-42.91,-462,-5636,6074,-1,0,0
177.42,-3.21,-42.91,-467,-5636,6078,-1,0,0
177.43,-3.21,-42.92,-466,-5644,6072,-1,-1,-1
177.43,-3.20,-42.92,-458,-5651,6078,0,0,-1
177.43,-3.20,-42.92,-462,-5637,6081,0,-1,0
177.43,-3.20,-42.91,-450,-5636,6079,0,0,0
177.43,-3.20,-42.92,-460,-5639,6084,-1,-1,0
177.43,-3.21,-42.92,-465,-5642,6079,-1,0,-1
177.43,-3.21,-42.92,-483,-5641,6072,-1,0,0
177.43,-3.21,-42.92,-480,-5635,6070,-1,0,0
177.42,-3.22,-42.93,-483,-5648,6070,-1,-1,0
177.42,-3.22,-42.94,-473,-5653,6069,-1,-1,0
177.42,-3.22,-42.94,-459,-5644,6075,-1,-1,0
177.42,-3.22,-42.94,-456,-5634,6080,-1,0,0
177.41,-3.22,-42.94,-451,-5631,6072,-1,0,0
177.41,-3.23,-42.95,-462,-5639,6081,-1,-1,0
177.40,-3.23,-42.96,-461,-5651,6077,-1,0,0
177.40,-3.23,-42.97,-465,-5651,6079,-1,0,0
177.40,-3.24,-42.98,-469,-5650,6075,-1,0,0
177.39,-3.25,-42.99,-469,-5651,6074,-1,-1,0
177.39,-3.25,-43.00,-469,-5657,6073,-1,-1,0
177.39,-3.26,-43.01,-477,-5659,6064,-1,0,0
177.38,-3.27,-43.01,-486,-5656,6059,-1,0,0
177.38,-3.27,-43.01,-484,-5660,6062,-1,-1,0
177.38,-3.27,-43.02,-478,-5659,6059,-1,0,-1
177.38,-3.27,-43.02,-481,-5655,6062,-1,0,-1
177.38,-3.27,-43.03,-466,-5660,6056,-1,0,-1
177.38,-3.27,-43.03,-475,-5646,6062,-1,0,-1
177.38,-3.27,-43.04,-474,-5651,6055,-1,0,-1
177.38,-3.27,-43.04,-480,-5654,6059,-1,-1,-1
177.38,-3.27,-43.04,-462,-5661,6049,-1,0,-1
177.38,-3.27,-43.05,-464,-5656,6050,-1,0,0
177.38,-3.27,-43.05,-471,-5656,6057,0,0,-1
177.39,-3.28,-43.05,-478,-5658,6061,-1,0,-1
177.39,-3.28,-43.05,-490,-5660,6062,0,-1,-1
177.39,-3.28,-43.05,-482,-5660,6065,0,0,-1
177.39,-3.27,-43.05,-482,-5661,6062,-1,-1,-1
177.39,-3.27,-43.05,-484,-5663,6070,-1,-1,-1
177.40,-3.27,-43.05,-476,-5663,6070,0,-1,-1
177.40,-3.27,-43.05,-468,-5656,6067,0,-1,-1
177.40,-3.26,-43.04,-465,-5646,6061,0,-1,-1
177.41,-3.26,-43.04,-465,-5644,6059,0,0,-1
177.41,-3.26,-43.04,-471,-5644,6065,-1,-1,0
177.41,-3.26,-43.04,-468,-5642,6068,-1,0,-1
177.41,-3.26,-43.04,-472,-5655,6070,0,0,-1
177.41,-3.26,-43.04,-479,-5663,6063,0,0,-1
177.41,-3.26,-43.04,-473,-5662,6057,0,-1,-1
177.41,-3.25,-43.03,-473,-5655,6063,0,-1,-1
177.42,-3.25,-43.01,-476,-5652,6069,0,-1,-1
177.42,-3.25,-43.01,-478,-5649,6058,-1,-1,-1
177.41,-3.25,-43.02,-476,-5660,6052,0,-1,-1
177.42,-3.24,-43.02,-471,-5670,6057,0,-1,-1
177.43,-3.23,-43.01,-465,-5669,6062,0,-1,-1
177.43,-3.23,-43.00,-460,-5657,6069,0,-1,0
177.43,-3.22,-42.99,-451,-5655,6064,0,-1,0
177.43,-3.22,-42.99,-457,-5654,6065,0,0,0
177.42,-3.23,-42.98,-464,-5649,6077,0,0,-1
177.43,-3.23,-42.98,-481,-5654,6080,-1,0,-1
177.43,-3.23,-42.98,-476,-5657,6074,-1,-1,-1
177.43,-3.22,-42.98,-465,-5660,6076,0,-1,-1
177.43,-3.22,-42.98,-467,-5661,6075,0,-1,-1
177.43,-3.22,-42.97,-465,-5658,6067,0,-1,0
177.43,-3.22,-42.96,-463,-5650,6076,0,-1,0
177.43,-3.22,-42.95,-465,-5636,6076,0,-1,0
177.43,-3.22,-42.95,-464,-5632,6081,0,0,0
177.43,-3.22,-42.95,-466,-5632,6078,-1,-1,0
177.43,-3.22,-42.95,-471,-5645,6083,-1,0,0
177.43,-3.22,-42.95,-474,-5657,6079,0,-1,0
177.43,-3.22,-42.95,-470,-5661,6069,0,-1,0
177.43,-3.22,-42.94,-476,-5656,6067,0,0,0
177.42,-3.23,-42.93,-477,-5650,6064,0,0,0
177.42,-3.23,-42.93,-477,-5652,6068,0,-1,-1
177.42,-3.23,-42.92,-472,-5648,6077,0,-1,-1
177.43,-3.22,-42.92,-464,-5643,6074,0,-1,-1
177.43,-3.22,-42.92,-468,-5640,6071,0,0,0
177.43,-3.22,-42.92,-458,-5643,6070,0,0,0
177.43,-3.22,-42.91,-466,-5642,6068,-1,0,0
177.43,-3.22,-42.91,-460,-5640,6073,-1,0,0
177.43,-3.22,-42.91,-467,-5640,6074,-1,0,0
177.42,-3.23,-42.91,-472,-5642,6070,0,0,0
177.42,-3.23,-42.91,-468,-5650,6076,0,-1,0
177.42,-3.23,-42.91,-470,-5647,6075,0,-1,0
177.42,-3.23,-42.90,-473,-5652,6076,0,0,-1
177.42,-3.23,-42.90,-476,-5654,6087,0,-1,-1
177.42,-3.23,-42.89,-474,-5650,6086,0,-1,-1
177.43,-3.23,-42.89,-465,-5642,6081,0,-1,-1
177.43,-3.22,-42.89,-459,-5640,6075,0,0,0
177.43,-3.22,-42.89,-458,-5635,6076,-1,0,0
177.43,-3.23,-42.89,-453,-5631,6079,0,0,0
177.42,-3.24,-42.89,-457,-5635,6078,-1,0,0
177.42,-3.24,-42.89,-461,-5635,6075,-1,0,-1
177.42,-3.24,-42.89,-473,-5643,6071,0,0,0
177.42,-3.24,-42.89,-472,-5648,6084,0,-1,0
177.42,-3.24,-42.88,-469,-5651,6080,0,-1,-1
177.42,-3.24,-42.88,-465,-5651,6068,0,-1,-1
177.43,-3.23,-42.87,-456,-5643,6071,0,0,0
177.43,-3.23,-42.86,-464,-5637,6077,0,-1,0
177.42,-3.24,-42.86,-471,-5630,6085,-1,0,0
177.42,-3.24,-42.86,-475,-5633,6079,0,0,-1
177.42,-3.24,-42.86,-472,-5638,6084,0,-1,-1
177.42,-3.24,-42.86,-470,-5635,6084,0,-1,0
177.42,-3.24,-42.85,-465,-5627,6075,0,-1,0
177.42,-3.23,-42.85,-458,-5629,6075,0,-1,0
177.42,-3.23,-42.84,-461,-5635,6071,0,0,0
177.41,-3.24,-42.84,-470,-5627,6088,0,0,0
177.41,-3.24,-42.83,-468,-5623,6096,0,0,0
177.41,-3.24,-42.83,-470,-5627,6100,-1,-1,0
177.41,-3.24,-42.83,-471,-5641,6099,0,-1,-1
177.41,-3.24,-42.83,-468,-5647,6092,0,-1,-1
177.41,-3.23,-42.82,-460,-5641,6091,0,-1,-1
177.41,-3.23,-42.82,-460,-5630,6087,0,-1,0
177.41,-3.24,-42.81,-454,-5629,6084,0,0,0
177.41,-3.24,-42.81,-454,-5629,6084,0,0,0
177.41,-3.24,-42.81,-460,-5630,6089,-1,0,0
177.41,-3.24,-42.81,-468,-5639,6093,-1,0,0
177.40,-3.24,-42.81,-476,-5635,6099,0,0,0
177.40,-3.24,-42.80,-471,-5632,6097,0,0,0
177.40,-3.25,-42.80,-470,-5634,6085,0,0,0
177.40,-3.25,-42.80,-473,-5638,6080,0,0,0
177.40,-3.25,-42.80,-477,-5648,6080,0,0,0
177.40,-3.25,-42.80,-479,-5643,6077,0,-1,0
177.40,-3.25,-42.79,-479,-5633,6089,0,-1,0
177.40,-3.25,-42.78,-472,-5629,6093,0,0,-1
177.40,-3.25,-42.77,-472,-5620,6097,-1,-1,0
177.39,-3.26,-42.77,-465,-5615,6095,-1,0,0
177.39,-3.26,-42.77,-471,-5616,6090,-1,0,0
177.39,-3.26,-42.78,-473,-5623,6083,-1,0,0
177.39,-3.26,-42.79,-475,-5633,6076,-1,0,0
177.38,-3.27,-42.79,-478,-5625,6080,-1,0,0
177.38,-3.27,-42.80,-480,-5635,6071,-1,-1,0
177.38,-3.27,-42.80,-480,-5638,6071,0,-1,0
177.37,-3.28,-42.80,-485,-5635,6070,0,0,0
177.38,-3.27,-42.80,-479,-5637,6081,0,-1,0
177.38,-3.27,-42.79,-473,-5635,6086,0,-1,0
177.38,-3.26,-42.79,-458,-5627,6096,0,0,0
177.37,-3.27,-42.79,-475,-5612,6105,-1,-1,0
177.37,-3.27,-42.79,-466,-5620,6093,-1,0,0
177.37,-3.27,-42.80,-465,-5632,6090,-1,0,0
177.37,-3.28,-42.80,-474,-5630,6099,-1,0,0
177.36,-3.28,-42.80,-476,-5629,6096,-1,0,0
177.36,-3.29,-42.81,-479,-5625,6082,-1,-1,0
177.36,-3.30,-42.82,-475,-5629,6087,-1,0,-1
177.36,-3.30,-42.83,-474,-5643,6083,-1,0,-1
177.36,-3.29,-42.83,-471,-5644,6079,-1,-1,-1
177.36,-3.28,-42.83,-457,-5636,6075,-1,-1,0
177.36,-3.28,-42.83,-460,-5629,6090,-1,-1,0
177.36,-3.29,-42.83,-471,-5630,6088,-1,0,0
177.36,-3.29,-42.84,-479,-5628,6093,-1,0,-1
177.36,-3.29,-42.85,-491,-5633,6091,-1,-1,-1
177.36,-3.29,-42.85,-492,-5633,6082,-1,-1,-1
177.36,-3.29,-42.86,-492,-5641,6087,-1,-1,-1
177.37,-3.28,-42.86,-484,-5650,6086,-1,-1,-1
177.37,-3.27,-42.86,-468,-5645,6075,0,-1,-1
177.38,-3.26,-42.85,-465,-5635,6078,0,-1,-1
177.38,-3.26,-42.85,-463,-5632,6085,0,-1,-1
177.38,-3.25,-42.85,-458,-5618,6095,-1,-1,-1
177.38,-3.25,-42.85,-461,-5628,6089,-1,0,-1
177.38,-3.25,-42.86,-466,-5635,6086,-1,0,-1
177.38,-3.25,-42.86,-474,-5641,6081,-1,-1,-1
177.38,-3.25,-42.86,-476,-5634,6070,-1,0,-1
177.38,-3.25,-42.86,-474,-5630,6062,-1,0,0
177.38,-3.26,-42.87,-480,-5644,6055,0,0,-1
177.39,-3.26,-42.86,-483,-5652,6069,0,-1,-1
177.39,-3.25,-42.86,-477,-5651,6084,0,-1,-1
177.39,-3.25,-42.86,-479,-5647,6077,0,-1,-1
177.39,-3.25,-42.86,-473,-5633,6082,0,-1,-1
177.39,-3.24,-42.86,-463,-5624,6077,-1,-1,-1
177.39,-3.24,-42.86,-459,-5625,6081,-1,0,0
177.40,-3.24,-42.86,-456,-5628,6078,-1,0,0
177.39,-3.24,-42.86,-459,-5625,6073,-1,0,0
177.39,-3.24,-42.87,-465,-5633,6069,-1,0,0
177.39,-3.24,-42.88,-468,-5643,6071,-1,0,-1
177.39,-3.24,-42.88,-473,-5638,6067,-1,-1,-1
177.40,-3.24,-42.88,-473,-5641,6061,-1,-1,-1
177.40,-3.24,-42.88,-472,-5640,6068,-1,-1,-1
177.40,-3.23,-42.88,-467,-5635,6066,0,-1,-1
177.40,-3.23,-42.88,-458,-5635,6068,0,-1,-1
177.40,-3.23,-42.88,-457,-5630,6078,-1,0,0
177.40,-3.23,-42.88,-462,-5621,6078,-1,0,0
177.40,-3.23,-42.88,-470,-5632,6088,-1,0,-1
177.40,-3.23,-42.89,-475,-5637,6078,-1,0,-1
177.40,-3.23,-42.89,-468,-5640,6073,-1,-1,-1
177.40,-3.23,-42.89,-467,-5640,6071,-1,-1,-1
177.40,-3.23,-42.89,-463,-5633,6067,-1,-1,-1
177.40,-3.23,-42.89,-467,-5637,6060,-1,0,0
177.40,-3.23,-42.89,-471,-5641,6060,0,0,-1
177.41,-3.23,-42.89,-476,-5642,6073,-1,0,-1
177.41,-3.23,-42.90,-469,-5645,6076,-1,-1,-1
177.41,-3.23,-42.90,-470,-5648,6072,-1,-1,-1
177.41,-3.22,-42.91,-472,-5650,6069,-1,-1,-1
177.41,-3.22,-42.91,-472,-5645,6082,-1,-1,-1
177.41,-3.22,-42.91,-468,-5640,6086,-1,0,-1
177.42,-3.22,-42.91,-462,-5639,6086,-1,0,-1
177.42,-3.22,-42.91,-461,-5639,6083,-1,-1,0
177.41,-3.22,-42.91,-466,-5641,6092,-1,0,0
177.41,-3.22,-42.92,-470,-5641,6087,-1,0,-1
177.42,-3.22,-42.92,-474,-5649,6079,-1,0,-1
177.42,-3.22,-42.92,-470,-5647,6078,-1,-1,-1
177.42,-3.22,-42.92,-465,-5647,6076,-1,-1,0
177.42,-3.22,-42.92,-468,-5652,6071,0,0,-1
177.41,-3.23,-42.92,-481,-5654,6074,0,0,-1
177.41,-3.23,-42.92,-480,-5655,6073,0,-1,-1
177.42,-3.22,-42.92,-480,-5653,6084,-1,-1,-1
177.42,-3.22,-42.92,-467,-5644,6089,-1,-1,-1
177.42,-3.22,-42.92,-462,-5636,6085,-1,-1,-1
177.42,-3.22,-42.92,-458,-5635,6081,-1,-1,-1
177.42,-3.22,-42.92,-459,-5637,6089,-1,0,0
177.42,-3.22,-42.92,-452,-5640,6088,-1,-1,0
177.42,-3.22,-42.92,-464,-5645,6083,-1,0,0
177.42,-3.22,-42.92,-468,-5646,6079,-1,0,0
177.42,-3.22,-42.93,-468,-5646,6078,-1,0,-1
177.41,-3.22,-42.93,-465,-5646,6081,-1,-1,0
177.42,-3.22,-42.93,-464,-5657,6069,0,-1,-1
177.42,-3.22,-42.93,-462,-5654,6060,0,-1,-1
177.42,-3.21,-42.93,-459,-5651,6069,0,-1,0
177.42,-3.21,-42.93,-455,-5651,6062,-1,-1,-1
177.42,-3.20,-42.93,-448,-5643,6069,0,-1,0
177.42,-3.20,-42.93,-453,-5633,6078,-1,-1,-1
177.42,-3.20,-42.94,-456,-5641,6077,-1,0,0
177.42,-3.20,-42.94,-455,-5649,6073,-1,0,-1
177.42,-3.20,-42.95,-461,-5661,6063,-1,0,-1
177.42,-3.20,-42.95,-462,-5664,6058,0,-1,-1
177.43,-3.20,-42.95,-462,-5653,6060,0,-1,0
177.43,-3.20,-42.94,-454,-5643,6062,-1,-1,0
177.42,-3.20,-42.94,-459,-5641,6069,-1,0,0
177.42,-3.20,-42.94,-457,-5644,6066,-1,0,0
177.43,-3.20,-42.95,-463,-5642,6065,-1,0,-1
177.43,-3.20,-42.95,-471,-5644,6072,-1,0,-1
177.43,-3.20,-42.95,-478,-5654,6075,-1,-1,-1
177.43,-3.20,-42.95,-466,-5654,6070,0,-1,-1
177.44,-3.19,-42.94,-461,-5649,6078,0,-1,-1
177.44,-3.19,-42.94,-456,-5638,6075,0,-1,-1
177.44,-3.18,-42.94,-454,-5636,6080,-1,0,-1
177.44,-3.18,-42.94,-451,-5638,6079,-1,0,0
177.44,-3.18,-42.94,-455,-5632,6084,-1,0,-1
177.44,-3.19,-42.95,-460,-5644,6071,-1,0,-1
177.44,-3.19,-42.95,-461,-5642,6070,-1,0,-1
177.44,-3.18,-42.95,-453,-5652,6071,-1,0,-1
177.45,-3.18,-42.96,-457,-5651,6067,-1,0,-1
177.45,-3.19,-42.96,-470,-5648,6064,0,0,-1
177.45,-3.19,-42.95,-465,-5647,6073,-1,0,-1
177.45,-3.19,-42.95,-457,-5648,6066,0,0,-1
177.46,-3.18,-42.95,-457,-5644,6069,-1,0,-1
177.46,-3.18,-42.95,-457,-5639,6079,-1,0,0
177.46,-3.19,-42.96,-456,-5638,6075,-1,0,0
177.45,-3.19,-42.96,-461,-5639,6076,-1,0,0
177.45,-3.19,-42.97,-456,-5647,6081,-1,0,0
177.45,-3.20,-42.98,-466,-5651,6071,-1,0,0
177.44,-3.21,-42.98,-465,-5647,6061,-1,0,0
177.44,-3.21,-42.99,-471,-5650,6061,-1,0,0
177.43,-3.22,-42.99,-481,-5654,6065,0,0,0
177.43,-3.22,-42.98,-476,-5654,6074,0,-1,0
177.43,-3.22,-42.98,-478,-5653,6081,0,-1,-1
177.44,-3.21,-42.98,-468,-5647,6083,0,-1,0
177.43,-3.22,-42.97,-468,-5651,6080,0,-1,0
177.43,-3.22,-42.97,-462,-5654,6071,0,-1,0
177.43,-3.22,-42.97,-457,-5646,6070,0,0,0
177.43,-3.22,-42.96,-461,-5641,6074,-1,0,-1
177.43,-3.22,-42.96,-460,-5639,6080,-1,0,-1
177.43,-3.22,-42.96,-461,-5647,6078,-1,-1,0
177.43,-3.22,-42.96,-463,-5648,6069,0,-1,0
177.43,-3.22,-42.96,-458,-5646,6073,0,-1,0
177.43,-3.22,-42.95,-458,-5645,6075,-1,0,0
177.42,-3.22,-42.95,-467,-5652,6070,0,-1,-1
177.43,-3.22,-42.95,-462,-5653,6070,0,0,-1
177.43,-3.22,-42.94,-454,-5644,6085,0,-1,0
177.43,-3.21,-42.94,-453,-5636,6070,0,-1,0
177.43,-3.21,-42.93,-460,-5640,6073,0,0,0
177.43,-3.21,-42.93,-463,-5641,6067,0,0,0
177.42,-3.22,-42.92,-475,-5642,6077,0,0,-1
177.42,-3.22,-42.92,-478,-5640,6085,0,0,-1
177.42,-3.22,-42.92,-481,-5636,6082,0,-1,0
177.42,-3.22,-42.92,-476,-5641,6068,0,-1,-1
177.42,-3.22,-42.91,-469,-5647,6077,0,-1,-1
177.42,-3.22,-42.91,-464,-5649,6078,0,0,-1
177.42,-3.21,-42.90,-454,-5643,6081,0,-1,0
177.42,-3.21,-42.90,-448,-5639,6082,-1,0,0
177.42,-3.21,-42.90,-451,-5638,6079,-1,0,0
177.42,-3.21,-42.90,-463,-5637,6080,-1,0,0
177.42,-3.22,-42.90,-475,-5634,6080,0,0,0
177.42,-3.22,-42.89,-479,-5635,6078,0,-1,0
177.41,-3.22,-42.89,-470,-5640,6072,0,0,0
177.41,-3.22,-42.89,-467,-5644,6066,0,0,0
177.41,-3.22,-42.88,-469,-5649,6073,0,-1,0
177.41,-3.22,-42.88,-468,-5647,6072,0,-1,0
177.41,-3.22,-42.88,-468,-5644,6092,0,-1,-1
177.41,-3.22,-42.88,-463,-5637,6088,0,0,0
177.42,-3.21,-42.87,-451,-5633,6079,0,-1,-1
177.42,-3.21,-42.87,-441,-5630,6071,0,0,-1
177.42,-3.21,-42.86,-449,-5632,6088,-1,-1,0
177.42,-3.21,-42.86,-455,-5628,6082,-1,0,0
177.42,-3.21,-42.86,-467,-5633,6075,-1,0,0
177.42,-3.21,-42.86,-465,-5638,6072,0,-1,0
177.42,-3.21,-42.86,-467,-5640,6073,0,-1,0
177.41,-3.21,-42.86,-464,-5639,6080,0,-1,0
177.41,-3.21,-42.86,-466,-5640,6076,0,-1,0
177.41,-3.21,-42.86,-462,-5635,6082,0,0,0
177.41,-3.21,-42.85,-459,-5635,6100,0,0,0
177.41,-3.21,-42.84,-458,-5635,6094,0,0,0
177.41,-3.21,-42.84,-458,-5634,6091,-1,-1,-1
177.41,-3.21,-42.85,-469,-5637,6083,-1,0,0
177.41,-3.21,-42.85,-462,-5637,6090,-1,0,0
177.41,-3.21,-42.85,-458,-5645,6091,-1,-1,0
177.41,-3.21,-42.84,-464,-5642,6078,0,0,0
177.41,-3.21,-42.84,-466,-5636,6083,0,0,-1
177.41,-3.21,-42.83,-472,-5639,6087,0,-1,0
177.40,-3.22,-42.83,-465,-5639,6085,0,-1,0
177.40,-3.22,-42.83,-464,-5629,6076,-1,-1,0
177.40,-3.22,-42.84,-459,-5647,6075,-1,0,0
177.40,-3.22,-42.84,-461,-5641,6071,0,0,0
177.40,-3.22,-42.83,-458,-5622,6072,0,-1,0
177.40,-3.22,-42.82,-461,-5624,6081,0,-1,0
177.40,-3.22,-42.82,-460,-5634,6074,-1,0,0
177.40,-3.22,-42.82,-465,-5632,6071,0,0,0
177.39,-3.23,-42.82,-472,-5634,6083,0,0,0
177.40,-3.23,-42.81,-473,-5627,6089,0,-1,-1
177.39,-3.23,-42.81,-474,-5630,6082,0,-1,-1
177.39,-3.23,-42.81,-473,-5636,6083,0,-1,-1
177.39,-3.23,-42.81,-473,-5638,6084,0,-1,0
177.40,-3.22,-42.80,-467,-5633,6089,0,-1,0
177.40,-3.22,-42.80,-454,-5632,6098,0,0,0
177.39,-3.22,-42.79,-459,-5620,6105,-1,-1,0
177.39,-3.22,-42.79,-460,-5620,6101,-1,0,0
177.39,-3.22,-42.80,-471,-5623,6100,-1,0,0
177.38,-3.23,-42.80,-473,-5629,6097,-1,0,0
177.38,-3.23,-42.80,-478,-5631,6092,-1,0,0
177.38,-3.23,-42.80,-473,-5635,6088,0,0,0
177.38,-3.23,-42.80,-474,-5629,6091,0,-1,0
177.37,-3.24,-42.79,-475,-5628,6089,0,0,0
177.37,-3.24,-42.79,-480,-5636,6100,0,-1,0
177.38,-3.23,-42.78,-476,-5632,6103,0,-1,-1
177.38,-3.23,-42.77,-473,-5630,6093,0,-1,-1
177.38,-3.23,-42.77,-471,-5622,6093,-1,0,0
177.38,-3.23,-42.77,-462,-5621,6088,-1,0,0
177.38,-3.23,-42.77,-457,-5625,6091,-1,0,0
177.38,-3.23,-42.77,-466,-5630,6106,-1,-1,-1
177.38,-3.23,-42.78,-469,-5638,6102,-1,0,0
177.38,-3.23,-42.78,-473,-5630,6088,0,0,-1
177.38,-3.23,-42.78,-476,-5630,6089,-1,-1,-1
177.37,-3.24,-42.78,-473,-5633,6083,0,-1,0
177.38,-3.23,-42.78,-467,-5630,6082,0,-1,-1
177.38,-3.23,-42.78,-462,-5619,6088,0,0,-1
177.38,-3.23,-42.78,-466,-5627,6092,-1,-1,0
177.37,-3.23,-42.78,-470,-5626,6096,-1,0,0
177.37,-3.23,-42.78,-465,-5635,6098,-1,0,0
177.38,-3.23,-42.79,-469,-5625,6098,-1,0,-1
177.38,-3.23,-42.79,-468,-5623,6090,-1,0,-1
177.38,-3.23,-42.80,-471,-5620,6086,-1,0,0
177.38,-3.23,-42.81,-468,-5627,6078,-1,0,0
177.38,-3.23,-42.81,-469,-5635,6079,-1,0,0
177.38,-3.23,-42.82,-477,-5640,6083,-1,-1,0
177.37,-3.24,-42.82,-471,-5634,6087,-1,0,0
177.38,-3.23,-42.82,-471,-5628,6085,-1,0,-1
177.38,-3.23,-42.82,-475,-5635,6085,-1,0,-1
177.38,-3.23,-42.82,-467,-5632,6093,-1,-1,-1
177.38,-3.23,-42.82,-460,-5624,6082,-1,-1,-1
177.38,-3.22,-42.82,-453,-5625,6079,-1,0,0
177.38,-3.23,-42.83,-462,-5625,6079,-1,0,0
177.38,-3.23,-42.83,-469,-5634,6077,-1,0,0
177.38,-3.23,-42.83,-481,-5643,6088,-1,0,-1
177.37,-3.24,-42.83,-484,-5647,6102,-1,-1,-1
177.37,-3.23,-42.84,-486,-5648,6099,-1,-1,-1
177.37,-3.23,-42.84,-480,-5645,6089,0,-1,-1
177.38,-3.22,-42.83,-471,-5636,6087,0,-1,-1
177.39,-3.22,-42.83,-453,-5628,6081,0,-1,-1
177.39,-3.21,-42.83,-443,-5616,6077,-1,0,0
177.39,-3.21,-42.83,-446,-5608,6083,-1,0,0
177.39,-3.21,-42.83,-455,-5614,6097,-1,0,0
177.39,-3.22,-42.84,-462,-5625,6094,-1,-1,0
177.39,-3.22,-42.85,-470,-5635,6099,-1,0,-1
177.39,-3.22,-42.85,-475,-5636,6086,-1,-1,-1
177.39,-3.22,-42.86,-470,-5637,6076,-1,-1,-1
177.39,-3.22,-42.86,-472,-5644,6071,-1,-1,0
177.39,-3.22,-42.86,-465,-5652,6070,0,-1,-1
177.39,-3.22,-42.86,-468,-5653,6082,0,-1,-1
177.39,-3.21,-42.85,-469,-5643,6089,0,-1,-1
177.39,-3.21,-42.85,-467,-5638,6089,-1,-1,-1
177.39,-3.21,-42.85,-455,-5631,6094,-1,-1,-1
177.39,-3.21,-42.85,-455,-5626,6096,-1,0,0
177.39,-3.20,-42.86,-451,-5625,6090,-1,0,-1
177.39,-3.20,-42.86,-457,-5625,6079,-1,0,0
177.40,-3.20,-42.87,-461,-5632,6081,-1,0,-1
177.39,-3.21,-42.88,-465,-5641,6077,-1,0,0
177.39,-3.21,-42.88,-464,-5645,6081,-1,0,-1
177.40,-3.21,-42.88,-466,-5643,6081,-1,-1,-1
177.39,-3.21,-42.88,-465,-5647,6078,-1,-1,-1
177.39,-3.21,-42.88,-466,-5649,6076,-1,-1,-1
177.40,-3.20,-42.88,-466,-5645,6083,-1,-1,-1
177.40,-3.20,-42.88,-464,-5637,6088,-1,0,-1
177.40,-3.20,-42.88,-462,-5636,6078,-1,0,-1
177.40,-3.20,-42.89,-466,-5639,6081,-1,0,0
177.40,-3.20,-42.89,-471,-5642,6077,-1,-1,-1
177.40,-3.20,-42.89,-467,-5631,6075,-1,0,0
177.40,-3.20,-42.90,-457,-5637,6077,-1,0,-1
177.40,-3.21,-42.90,-455,-5642,6074,-1,0,-1
177.40,-3.21,-42.91,-462,-5660,6081,0,-1,-1
177.40,-3.20,-42.91,-468,-5656,6087,0,-1,-1
177.40,-3.20,-42.90,-464,-5640,6085,-1,-1,-1
177.40,-3.20,-42.90,-465,-5637,6081,-1,-1,0
177.40,-3.20,-42.90,-467,-5639,6084,-1,0,0
177.40,-3.20,-42.90,-472,-5639,6076,-1,0,-1
177.40,-3.20,-42.90,-473,-5635,6083,-1,0,0
177.40,-3.20,-42.91,-477,-5640,6091,-1,-1,-1
177.40,-3.20,-42.91,-476,-5644,6089,-1,0,-1
177.40,-3.20,-42.91,-470,-5648,6076,0,-1,-1
177.40,-3.20,-42.91,-461,-5644,6076,-1,-1,-1
177.40,-3.20,-42.91,-454,-5632,6064,-1,-1,-1
177.40,-3.20,-42.91,-450,-5629,6068,-1,-1,0
177.40,-3.19,-42.91,-444,-5634,6072,-1,0,0
177.40,-3.20,-42.91,-451,-5636,6075,-1,0,0
177.40,-3.20,-42.92,-468,-5644,6073,-1,0,0
177.40,-3.20,-42.92,-464,-5646,6073,-1,0,0
177.40,-3.20,-42.93,-466,-5644,6067,-1,-1,0
177.40,-3.20,-42.93,-463,-5657,6072,-1,-1,-1
177.40,-3.20,-42.93,-472,-5660,6064,0,-1,-1
177.40,-3.20,-42.93,-467,-5660,6069,0,-1,0
177.40,-3.20,-42.93,-466,-5647,6083,-1,-1,-1
177.40,-3.19,-42.93,-461,-5644,6086,-1,-1,-1
177.40,-3.19,-42.93,-450,-5648,6080,-1,-1,-1
177.40,-3.18,-42.93,-446,-5640,6066,-1,0,0
177.41,-3.19,-42.94,-452,-5637,6069,-1,0,-1
177.41,-3.19,-42.94,-451,-5640,6064,-1,0,0
177.41,-3.19,-42.95,-446,-5647,6056,-1,0,0
177.40,-3.20,-42.97,-450,-5649,6050,-1,0,0
177.40,-3.21,-42.98,-458,-5653,6056,-1,0,0
177.40,-3.21,-42.98,-467,-5654,6062,-1,0,0
177.39,-3.22,-42.98,-471,-5653,6057,-1,0,0
177.39,-3.23,-42.99,-475,-5650,6065,-1,0,0
177.39,-3.23,-42.99,-474,-5649,6063,0,0,-1
177.38,-3.24,-42.99,-474,-5654,6077,-1,0,0
177.39,-3.23,-42.99,-467,-5656,6079,-1,0,-1
177.39,-3.24,-43.00,-471,-5641,6069,-1,0,0
177.38,-3.24,-43.01,-471,-5634,6058,-1,0,0
177.38,-3.24,-43.01,-467,-5646,6056,-1,0,0
177.38,-3.25,-43.02,-467,-5659,6051,-1,0,-1
177.38,-3.25,-43.03,-473,-5662,6057,0,0,-1
177.38,-3.25,-43.02,-472,-5656,6057,0,-1,-1
177.39,-3.24,-43.01,-469,-5643,6059,0,-1,-1
177.39,-3.24,-43.01,-469,-5651,6053,0,-1,0
177.39,-3.24,-43.01,-470,-5653,6064,0,0,-1
177.39,-3.24,-43.00,-473,-5654,6069,0,-1,-1
177.39,-3.24,-43.00,-474,-5658,6064,0,-1,-1
177.39,-3.24,-43.00,-481,-5660,6063,0,-1,-1
177.40,-3.23,-42.99,-479,-5662,6064,0,-1,-1
177.40,-3.23,-42.99,-467,-5652,6058,0,-1,-1
177.40,-3.22,-42.98,-462,-5644,6055,0,-1,-1
177.40,-3.22,-42.98,-454,-5649,6063,0,-1,0
177.40,-3.22,-42.98,-451,-5638,6065,0,0,0
177.39,-3.22,-42.97,-456,-5641,6072,-1,-1,0
177.39,-3.22,-42.98,-465,-5651,6065,-1,0,0
177.39,-3.22,-42.98,-464,-5656,6068,0,0,0
177.39,-3.23,-42.98,-477,-5659,6074,0,-1,0
177.39,-3.23,-42.97,-476,-5660,6069,0,-1,-1
177.39,-3.23,-42.97,-470,-5661,6067,0,-1,-1
177.39,-3.23,-42.96,-467,-5648,6061,0,0,0
177.39,-3.23,-42.95,-474,-5652,6066,0,-1,-1
177.39,-3.23,-42.94,-472,-5642,6087,0,0,-1
177.39,-3.23,-42.94,-470,-5644,6093,0,-1,-1
177.39,-3.23,-42.93,-470,-5640,6088,0,-1,-1
177.39,-3.23,-42.93,-466,-5638,6089,0,-1,0
177.40,-3.22,-42.93,-458,-5638,6078,-1,-1,0
177.39,-3.23,-42.93,-458,-5642,6080,0,0,0
177.39,-3.23,-42.93,-458,-5643,6073,0,0,0
177.39,-3.23,-42.93,-465,-5644,6062,0,0,0
177.39,-3.23,-42.92,-465,-5635,6059,0,0,0
177.39,-3.23,-42.92,-467,-5639,6060,0,0,0
177.39,-3.23,-42.92,-473,-5641,6074,0,0,-1
177.39,-3.23,-42.91,-465,-5641,6079,0,0,0
177.39,-3.23,-42.91,-468,-5640,6075,0,-1,0
177.39,-3.23,-42.91,-470,-5643,6081,0,0,0
177.38,-3.23,-42.91,-469,-5644,6075,-1,0,0
177.38,-3.23,-42.91,-465,-5641,6073,0,0,0
177.38,-3.24,-42.91,-474,-5637,6072,-1,0,0
177.38,-3.24,-42.91,-465,-5640,6076,0,0,0
177.38,-3.24,-42.91,-466,-5639,6083,-1,-1,0
177.38,-3.24,-42.91,-457,-5640,6077,-1,0,0
177.38,-3.24,-42.91,-466,-5649,6069,-1,0,0
177.38,-3.24,-42.91,-470,-5654,6071,0,0,-1
177.38,-3.24,-42.91,-463,-5643,6074,0,-1,0
177.38,-3.24,-42.90,-458,-5632,6077,0,-1,0
177.38,-3.24,-42.89,-454,-5630,6073,0,0,-1
177.38,-3.24,-42.89,-473,-5642,6074,0,-1,0
177.38,-3.24,-42.88,-471,-5648,6086,0,0,0
177.38,-3.24,-42.88,-475,-5651,6084,0,0,-1
177.38,-3.24,-42.88,-480,-5646,6086,0,-1,-1
177.38,-3.24,-42.87,-478,-5646,6085,0,-1,-1
177.38,-3.24,-42.86,-469,-5638,6083,0,-1,-1
177.38,-3.23,-42.86,-455,-5640,6091,0,-1,0
177.38,-3.22,-42.85,-446,-5632,6088,0,-1,0
177.37,-3.23,-42.84,-452,-5627,6086,0,0,0
177.37,-3.23,-42.84,-455,-5628,6081,0,0,0
177.37,-3.23,-42.84,-460,-5625,6084,-1,0,0
177.37,-3.23,-42.84,-465,-5634,6082,-1,0,0
177.37,-3.23,-42.85,-472,-5638,6081,0,0,0
177.37,-3.23,-42.84,-468,-5645,6083,0,-1,0
177.37,-3.24,-42.84,-469,-5642,6069,0,0,0
177.37,-3.24,-42.84,-470,-5638,6069,0,0,0
177.37,-3.24,-42.83,-476,-5636,6083,0,-1,0
177.37,-3.24,-42.82,-476,-5642,6084,0,-1,0
177.37,-3.24,-42.82,-471,-5632,6086,0,-1,-1
177.37,-3.24,-42.81,-476,-5625,6086,0,-1,-1
177.37,-3.24,-42.81,-468,-5618,6091,0,0,0
177.36,-3.24,-42.80,-466,-5619,6090,-1,0,0
177.36,-3.24,-42.80,-467,-5626,6083,0,0,0
177.36,-3.24,-42.80,-466,-5633,6102,0,-1,0
177.36,-3.24,-42.79,-465,-5639,6103,-1,0,0
177.36,-3.24,-42.79,-469,-5638,6095,0,0,0
177.36,-3.24,-42.79,-470,-5632,6086,0,0,0
177.36,-3.24,-42.79,-473,-5637,6093,0,-1,0
177.36,-3.24,-42.79,-470,-5642,6098,0,-1,-1
177.36,-3.24,-42.78,-466,-5634,6093,0,-1,0
177.36,-3.24,-42.77,-466,-5632,6091,0,-1,0
177.35,-3.25,-42.76,-472,-5627,6094,0,0,0
