Yaw,Pitch,Roll,AX,AY,AZ,GX,GY,GZ
-28.61,-3.84,35.70,-546,4713,6583,0,0,-1
-28.61,-3.84,35.70,-545,4717,6584,0,0,-1
-28.61,-3.85,35.70,-544,4724,6577,-1,0,-1
-28.61,-3.85,35.70,-541,4718,6574,0,0,0
-28.61,-3.85,35.70,-542,4710,6569,0,0,0
-28.61,-3.85,35.70,-541,4713,6577,0,0,-1
-28.60,-3.85,35.70,-532,4719,6573,0,0,-1
-28.60,-3.85,35.70,-535,4719,6563,0,0,-1
-28.60,-3.86,35.70,-535,4718,6572,0,0,-1
-28.60,-3.87,35.70,-541,4722,6571,0,0,-1
-28.59,-3.87,35.70,-546,4724,6569,0,0,0
-28.59,-3.87,35.70,-547,4720,6575,0,0,-1
-28.59,-3.87,35.70,-537,4715,6572,0,0,-1
-28.58,-3.88,35.72,-547,4716,6567,0,0,-1
-28.58,-3.88,35.73,-550,4725,6566,0,0,-1
-28.57,-3.89,35.73,-554,4719,6569,0,0,-1
-28.57,-3.90,35.74,-555,4727,6569,0,0,0
-28.57,-3.90,35.74,-558,4719,6572,0,0,-1
-28.57,-3.90,35.75,-551,4720,6571,0,0,-1
-28.56,-3.92,35.75,-558,4727,6558,0,0,-1
-28.55,-3.92,35.76,-557,4732,6565,0,0,-1
-28.55,-3.92,35.76,-548,4724,6561,0,0,-1
-28.54,-3.93,35.77,-545,4720,6571,0,0,-1
-28.54,-3.93,35.77,-552,4721,6580,0,0,-1
-28.52,-3.94,35.78,-559,4725,6571,0,0,-1
-28.52,-3.95,35.79,-566,4739,6566,0,0,-1
-28.52,-3.95,35.79,-564,4740,6558,0,0,-1
-28.51,-3.95,35.80,-558,4735,6553,0,0,-1
-28.50,-3.96,35.80,-558,4738,6556,0,0,-1
-28.49,-3.97,35.81,-565,4735,6569,0,0,-1
-28.48,-3.97,35.81,-564,4737,6579,0,-1,-1
-28.48,-3.97,35.83,-563,4742,6573,0,-1,-1
-28.47,-3.97,35.83,-558,4739,6565,0,-1,-1
-28.45,-3.97,35.84,-561,4736,6550,0,0,-1
-28.44,-3.97,35.85,-562,4734,6554,0,0,-1
-28.44,-3.97,35.85,-565,4730,6556,0,-1,-1
-28.44,-3.97,35.85,-565,4735,6551,0,-1,0
-28.44,-3.97,35.85,-565,4738,6562,0,-1,0
-28.43,-3.97,35.86,-560,4740,6553,0,-1,0
-28.43,-3.96,35.86,-557,4743,6550,-1,-1,0
-28.44,-3.96,35.86,-558,4736,6550,-1,-1,0
-28.45,-3.95,35.85,-557,4731,6552,-1,-1,0
-28.45,-3.95,35.84,-562,4737,6568,-1,-1,0
-28.45,-3.95,35.84,-564,4733,6562,-1,-1,0
-28.45,-3.95,35.84,-569,4743,6562,-1,-1,0
-28.46,-3.94,35.84,-574,4747,6564,-1,-1,0
-28.46,-3.93,35.83,-568,4739,6565,-1,-1,0
-28.47,-3.92,35.83,-568,4735,6559,-1,-1,0
-28.47,-3.92,35.82,-562,4731,6560,-1,-1,0
-28.48,-3.92,35.82,-560,4738,6558,-1,-1,0
-28.49,-3.91,35.81,-562,4736,6557,-1,-1,0
-28.50,-3.91,35.80,-553,4730,6562,-1,-1,0
-28.51,-3.90,35.79,-551,4727,6566,-1,-1,0
-28.52,-3.89,35.79,-557,4730,6567,-1,-1,0
-28.52,-3.89,35.78,-551,4729,6567,-1,-1,0
-28.53,-3.88,35.77,-547,4729,6566,-1,-1,0
-28.53,-3.88,35.77,-548,4733,6566,-1,-1,0
-28.54,-3.88,35.76,-549,4732,6570,-1,-1,0
-28.54,-3.87,35.76,-548,4727,6563,-1,-1,0
-28.54,-3.87,35.76,-543,4731,6557,-1,-1,0
-28.55,-3.86,35.75,-547,4734,6566,-1,-1,0
-28.55,-3.86,35.75,-550,4735,6562,-1,-1,0
-28.57,-3.86,35.74,-542,4735,6566,-1,-1,0
-28.57,-3.85,35.74,-547,4728,6557,-1,-1,0
-28.58,-3.85,35.73,-549,4729,6567,-1,-1,0
-28.59,-3.84,35.73,-549,4726,6569,-1,-1,0
-28.59,-3.84,35.73,-535,4730,6565,-1,-1,0
-28.59,-3.84,35.73,-545,4725,6570,-1,0,0
-28.60,-3.84,35.72,-541,4717,6572,-1,-1,0
-28.61,-3.84,35.71,-545,4716,6571,-1,0,0
-28.61,-3.83,35.71,-556,4727,6576,-1,-1,0
-28.61,-3.83,35.71,-548,4741,6577,-1,-1,0
-28.62,-3.82,35.71,-542,4737,6566,-1,-1,0
-28.62,-3.82,35.70,-539,4723,6572,-1,-1,0
-28.63,-3.82,35.70,-542,4714,6557,-1,0,0
-28.63,-3.82,35.70,-549,4720,6562,-1,0,-1
-28.63,-3.82,35.70,-544,4727,6579,-1,-1,0
-28.63,-3.82,35.70,-549,4733,6573,-1,0,0
-28.63,-3.82,35.70,-538,4732,6565,-1,-1,0
-28.63,-3.82,35.70,-545,4718,6559,-1,-1,0
-28.63,-3.82,35.69,-550,4710,6558,-1,0,0
-28.63,-3.82,35.68,-547,4717,6563,-1,0,0
-28.63,-3.82,35.68,-546,4724,6563,-1,-1,0
-28.63,-3.82,35.68,-540,4724,6576,-1,-1,0
-28.64,-3.82,35.67,-534,4717,6566,-1,-1,0
-28.64,-3.82,35.67,-535,4713,6561,-1,0,-1
-28.65,-3.82,35.67,-537,4711,6565,-1,0,-1
-28.64,-3.83,35.67,-542,4714,6578,-1,0,-1
-28.64,-3.84,35.67,-551,4720,6587,0,-1,-1
-28.64,-3.83,35.67,-550,4726,6583,0,0,0
-28.63,-3.84,35.68,-551,4725,6578,0,0,0
-28.63,-3.84,35.68,-545,4715,6572,0,0,0
-28.63,-3.84,35.68,-540,4717,6564,0,0,-1
-28.63,-3.84,35.69,-542,4724,6561,0,0,-1
-28.63,-3.86,35.69,-542,4731,6562,-1,0,-1
-28.63,-3.86,35.69,-547,4723,6559,-1,0,-1
-28.63,-3.87,35.68,-549,4710,6564,-1,0,-1
-28.63,-3.87,35.68,-547,4713,6565,0,-1,-1
-28.62,-3.87,35.69,-551,4719,6572,0,0,-1
-28.62,-3.87,35.69,-554,4724,6568,0,-1,-1
-28.61,-3.88,35.70,-551,4728,6567,0,0,-1
-28.61,-3.88,35.70,-549,4717,6562,0,0,-1
-28.60,-3.88,35.70,-550,4715,6570,0,0,-1
-28.60,-3.89,35.71,-553,4722,6578,0,-1,-1
-28.59,-3.89,35.72,-559,4724,6574,0,0,-1
-28.58,-3.89,35.72,-563,4724,6577,0,-1,-1
-28.58,-3.89,35.73,-558,4727,6564,0,-1,-1
-28.57,-3.89,35.73,-550,4726,6553,0,-1,-1
-28.56,-3.89,35.74,-549,4729,6557,0,-1,-1
-28.56,-3.89,35.74,-552,4732,6561,-1,-1,-1
-28.56,-3.89,35.74,-552,4737,6564,-1,-1,0
-28.56,-3.88,35.74,-551,4731,6570,-1,-1,0
-28.56,-3.88,35.74,-555,4728,6572,-1,-1,0
-28.56,-3.88,35.74,-550,4726,6571,-1,-1,0
-28.56,-3.88,35.74,-554,4723,6562,0,-1,0
-28.57,-3.87,35.74,-553,4728,6558,-1,-1,0
-28.57,-3.87,35.74,-559,4743,6554,-1,-1,0
-28.57,-3.87,35.74,-562,4739,6556,-1,-1,0
-28.58,-3.86,35.74,-564,4736,6560,-1,-1,0
-28.59,-3.86,35.73,-560,4730,6558,-1,-1,0
-28.60,-3.84,35.73,-553,4726,6555,-1,-1,0
-28.60,-3.85,35.72,-550,4724,6552,-1,-1,0
-28.61,-3.84,35.72,-553,4725,6551,-1,0,0
-28.61,-3.84,35.72,-552,4723,6564,-1,-1,0
-28.62,-3.83,35.71,-551,4722,6573,-1,-1,0
-28.63,-3.83,35.70,-550,4718,6572,-1,-1,0
-28.63,-3.82,35.71,-549,4725,6561,0,-1,0
-28.64,-3.82,35.71,-549,4737,6559,-1,-1,0
-28.64,-3.82,35.70,-550,4736,6557,-1,-1,0
-28.64,-3.82,35.70,-555,4733,6562,-1,-1,0
-28.65,-3.82,35.69,-556,4735,6567,-1,-1,0
-28.65,-3.81,35.69,-552,4716,6568,-1,-1,0
-28.67,-3.80,35.68,-540,4716,6554,-1,-1,0
-28.67,-3.80,35.68,-539,4718,6553,-1,0,0
-28.68,-3.80,35.67,-545,4718,6560,-1,0,0
-28.68,-3.80,35.66,-542,4718,6565,-1,0,0
-28.68,-3.80,35.66,-549,4720,6568,-1,-1,0
-28.68,-3.80,35.66,-549,4723,6581,-1,-1,0
-28.69,-3.79,35.66,-542,4717,6577,-1,-1,0
-28.69,-3.79,35.66,-539,4718,6562,-1,-1,0
-28.69,-3.79,35.66,-541,4722,6560,-1,-1,0
-28.69,-3.78,35.67,-540,4724,6558,-1,0,0
-28.70,-3.79,35.66,-551,4723,6548,-1,0,0
-28.70,-3.79,35.65,-551,4723,6554,-1,0,0
-28.71,-3.79,35.65,-550,4718,6570,-1,-1,0
-28.71,-3.78,35.65,-542,4722,6575,-1,-1,0
-28.72,-3.78,35.65,-545,4721,6578,-1,-1,0
-28.72,-3.77,35.64,-540,4723,6579,-1,-1,0
-28.73,-3.77,35.64,-539,4717,6572,-1,-1,0
-28.72,-3.77,35.64,-537,4716,6574,0,-1,-1
-28.73,-3.77,35.65,-545,4725,6569,0,0,0
-28.72,-3.77,35.65,-537,4730,6573,-1,-1,0
-28.73,-3.77,35.65,-543,4730,6573,-1,0,0
-28.73,-3.77,35.65,-537,4729,6574,0,-1,0
-28.73,-3.76,35.66,-537,4723,6564,0,-1,-1
-28.73,-3.77,35.66,-539,4725,6560,-1,0,0
-28.73,-3.77,35.66,-540,4728,6558,-1,-1,0
-28.73,-3.77,35.65,-538,4723,6549,-1,0,0
-28.73,-3.77,35.65,-549,4724,6556,-1,0,0
-28.74,-3.77,35.64,-556,4724,6565,-1,-1,0
-28.74,-3.76,35.64,-547,4725,6559,-1,-1,0
-28.74,-3.76,35.64,-544,4724,6560,-1,0,0
-28.74,-3.77,35.64,-544,4716,6561,-1,0,0
-28.75,-3.77,35.64,-541,4714,6552,-1,0,0
-28.75,-3.77,35.64,-545,4720,6564,-1,0,0
-28.75,-3.77,35.63,-548,4725,6565,-1,0,0
-28.75,-3.77,35.64,-541,4725,6567,-1,-1,0
-28.74,-3.77,35.64,-543,4725,6563,-1,-1,0
-28.74,-3.77,35.64,-540,4718,6563,0,-1,0
-28.74,-3.77,35.65,-534,4724,6556,0,0,-1
-28.74,-3.77,35.65,-531,4726,6554,-1,-1,-1
-28.74,-3.78,35.65,-540,4721,6550,-1,0,-1
-28.74,-3.79,35.65,-544,4722,6560,0,0,-1
-28.74,-3.79,35.65,-552,4728,6566,-1,0,-1
-28.73,-3.79,35.66,-548,4721,6557,-1,-1,0
-28.73,-3.79,35.66,-543,4719,6551,0,-1,0
-28.74,-3.79,35.66,-543,4720,6562,-1,-1,0
-28.74,-3.79,35.66,-536,4717,6561,-1,0,0
-28.74,-3.79,35.65,-543,4708,6567,-1,0,0
-28.74,-3.80,35.65,-548,4713,6567,-1,0,-1
-28.73,-3.81,35.65,-552,4719,6559,0,0,-1
-28.73,-3.81,35.66,-558,4716,6566,0,0,-1
-28.73,-3.81,35.66,-552,4722,6573,0,-1,0
-28.73,-3.81,35.66,-557,4725,6565,0,-1,0
-28.73,-3.82,35.66,-550,4720,6565,0,0,0
-28.73,-3.82,35.66,-545,4718,6568,0,0,-1
-28.72,-3.82,35.67,-549,4721,6562,0,0,-1
-28.72,-3.83,35.67,-553,4723,6560,-1,0,-1
-28.72,-3.84,35.67,-555,4721,6566,-1,0,-1
-28.72,-3.84,35.67,-557,4727,6558,-1,0,-1
-28.72,-3.84,35.67,-553,4729,6556,-1,0,0
-28.72,-3.84,35.67,-551,4720,6562,-1,-1,0
-28.72,-3.84,35.67,-546,4718,6550,0,0,-1
-28.72,-3.85,35.68,-547,4715,6557,0,0,-1
-28.71,-3.86,35.69,-550,4713,6559,0,0,-1
-28.71,-3.87,35.69,-557,4726,6565,0,0,-1
-28.70,-3.88,35.69,-554,4725,6569,0,0,-1
-28.70,-3.88,35.70,-558,4728,6568,0,0,-1
-28.70,-3.89,35.70,-562,4740,6563,0,0,-1
-28.69,-3.89,35.72,-550,4738,6554,0,0,-1
-28.68,-3.90,35.72,-558,4738,6551,0,0,-1
-28.68,-3.90,35.73,-552,4738,6553,0,0,-1
-28.68,-3.91,35.73,-556,4737,6544,-1,0,0
-28.68,-3.91,35.73,-564,4731,6561,0,-1,-1
-28.67,-3.91,35.74,-564,4733,6571,0,0,-1
-28.66,-3.92,35.75,-562,4734,6566,0,-1,-1
-28.66,-3.92,35.75,-563,4730,6556,0,-1,-1
-28.65,-3.92,35.75,-564,4732,6567,0,-1,-1
-28.65,-3.92,35.76,-564,4740,6559,0,-1,-1
-28.64,-3.92,35.76,-559,4725,6559,0,-1,-1
-28.63,-3.92,35.77,-553,4725,6558,0,-1,-1
-28.63,-3.92,35.77,-557,4726,6565,0,-1,-1
-28.62,-3.92,35.78,-568,4729,6565,0,-1,-1
-28.62,-3.92,35.78,-571,4727,6563,0,-1,-1
-28.61,-3.92,35.79,-572,4729,6562,0,-1,-1
-28.61,-3.92,35.79,-567,4732,6560,0,-1,-1
-28.61,-3.92,35.79,-571,4729,6554,0,-1,0
-28.61,-3.91,35.79,-570,4740,6554,-1,-1,0
-28.62,-3.90,35.79,-564,4744,6556,-1,-1,0
-28.63,-3.90,35.78,-557,4741,6560,-1,-1,0
-28.64,-3.88,35.77,-549,4732,6558,-1,-1,0
-28.65,-3.89,35.76,-556,4722,6561,-1,-1,0
-28.65,-3.88,35.75,-560,4721,6565,-1,-1,0
-28.65,-3.88,35.75,-560,4729,6568,0,-1,0
-28.66,-3.88,35.76,-563,4738,6567,-1,-1,0
-28.66,-3.88,35.76,-570,4743,6565,-1,-1,0
-28.67,-3.87,35.75,-559,4733,6560,-1,-1,0
-28.67,-3.87,35.75,-567,4727,6555,-1,-1,0
-28.67,-3.86,35.75,-559,4727,6554,-1,-1,0
-28.68,-3.87,35.74,-559,4731,6554,-1,-1,0
-28.68,-3.87,35.74,-564,4733,6559,-1,-1,0
-28.68,-3.86,35.73,-558,4732,6562,-1,-1,0
-28.68,-3.86,35.73,-554,4731,6570,-1,-1,0
-28.69,-3.85,35.72,-550,4727,6567,-1,-1,0
-28.70,-3.85,35.72,-550,4723,6561,-1,-1,0
-28.70,-3.85,35.72,-553,4726,6558,-1,-1,0
-28.70,-3.84,35.72,-555,4726,6563,-1,-1,0
-28.70,-3.84,35.72,-551,4727,6551,-1,-1,0
-28.70,-3.84,35.72,-550,4726,6552,-1,-1,0
-28.71,-3.84,35.71,-554,4729,6558,-1,-1,0
-28.71,-3.84,35.71,-564,4732,6559,-1,-1,0
-28.72,-3.83,35.71,-552,4731,6565,-1,-1,0
-28.73,-3.83,35.70,-551,4728,6564,-1,-1,0
-28.73,-3.82,35.70,-551,4725,6560,-1,-1,0
-28.73,-3.83,35.69,-556,4727,6561,-1,-1,0
-28.74,-3.82,35.69,-551,4725,6567,-1,-1,0
-28.74,-3.82,35.69,-551,4724,6578,-1,-1,0
-28.75,-3.82,35.68,-552,4720,6569,-1,-1,0
-28.75,-3.81,35.68,-540,4723,6569,-1,-1,-1
-28.75,-3.82,35.68,-549,4726,6569,-1,0,0
-28.76,-3.81,35.67,-545,4719,6566,-1,-1,0
-28.76,-3.81,35.67,-545,4708,6559,-1,-1,0
-28.76,-3.80,35.67,-545,4709,6561,0,-1,0
-28.76,-3.81,35.67,-542,4721,6561,-1,0,-1
-28.76,-3.81,35.67,-552,4734,6566,-1,-1,0
-28.77,-3.81,35.67,-549,4731,6569,-1,-1,0
-28.77,-3.80,35.66,-547,4724,6575,-1,-1,0
-28.78,-3.80,35.66,-544,4722,6578,-1,-1,0
-28.79,-3.79,35.65,-539,4716,6577,-1,-1,0
-28.79,-3.79,35.65,-532,4722,6564,-1,0,0
-28.79,-3.79,35.65,-538,4724,6568,-1,0,0
-28.79,-3.79,35.65,-539,4722,6566,-1,0,-1
-28.78,-3.79,35.65,-549,4720,6567,-1,-1,0
-28.79,-3.80,35.65,-553,4731,6562,-1,-1,0
-28.79,-3.79,35.65,-555,4733,6559,-1,-1,0
-28.79,-3.79,35.65,-555,4730,6564,-1,-1,0
-28.79,-3.79,35.65,-540,4719,6559,0,-1,0
-28.79,-3.79,35.65,-541,4721,6566,0,0,0
-28.79,-3.79,35.65,-545,4717,6571,-1,0,0
-28.79,-3.79,35.65,-547,4715,6569,-1,0,0
-28.79,-3.79,35.65,-547,4727,6570,-1,-1,0
-28.80,-3.79,35.64,-548,4722,6576,-1,-1,0
-28.80,-3.79,35.64,-547,4716,6576,-1,-1,0
-28.81,-3.79,35.63,-542,4714,6575,-1,-1,0
-28.81,-3.78,35.64,-539,4723,6576,0,-1,0
-28.81,-3.78,35.64,-540,4722,6580,-1,0,-1
-28.81,-3.78,35.64,-542,4717,6577,-1,-1,0
-28.81,-3.79,35.63,-545,4717,6576,-1,0,0
-28.82,-3.78,35.63,-544,4716,6583,0,-1,0
-28.82,-3.78,35.64,-537,4720,6578,0,-1,0
-28.82,-3.78,35.64,-542,4726,6558,-1,-1,0
-28.82,-3.77,35.63,-535,4724,6575,-1,-1,0
-28.83,-3.76,35.62,-528,4717,6573,-1,-1,0
-28.83,-3.76,35.62,-533,4706,6572,-1,0,0
-28.83,-3.77,35.62,-536,4709,6579,0,0,-1
-28.83,-3.77,35.63,-539,4719,6576,0,0,-1
-28.83,-3.78,35.63,-540,4730,6579,-1,0,0
-28.83,-3.78,35.63,-547,4724,6587,-1,-1,0
-28.84,-3.77,35.63,-545,4720,6574,-1,-1,0
-28.84,-3.77,35.63,-547,4725,6571,-1,-1,0
-28.84,-3.77,35.63,-542,4720,6570,-1,-1,0
-28.84,-3.77,35.63,-545,4729,6574,-1,-1,0
-28.84,-3.77,35.63,-547,4724,6573,-1,-1,0
-28.84,-3.77,35.62,-548,4722,6573,-1,-1,0
-28.84,-3.77,35.62,-543,4716,6572,-1,-1,0
-28.84,-3.77,35.62,-544,4720,6579,-1,-1,0
-28.84,-3.76,35.63,-541,4719,6574,-1,-1,0
-28.84,-3.76,35.63,-534,4720,6568,-1,-1,0
-28.85,-3.76,35.63,-538,4718,6559,-1,0,0
-28.85,-3.76,35.63,-541,4726,6575,-1,0,-1
-28.84,-3.77,35.63,-548,4728,6572,-1,0,0
-28.85,-3.77,35.62,-551,4721,6571,-1,-1,0
-28.86,-3.76,35.62,-547,4721,6587,-1,-1,0
-28.86,-3.76,35.62,-540,4726,6580,-1,-1,0
-28.86,-3.76,35.62,-531,4720,6572,-1,-1,0
-28.86,-3.76,35.62,-538,4718,6577,-1,-1,0
-28.86,-3.75,35.61,-538,4701,6567,-1,-1,0
-28.87,-3.75,35.60,-538,4705,6585,-1,0,0
-28.87,-3.75,35.60,-539,4707,6590,0,-1,0
-28.87,-3.75,35.60,-533,4706,6583,0,0,0
-28.87,-3.76,35.61,-539,4715,6573,0,0,-1
-28.86,-3.76,35.62,-532,4720,6562,0,0,-1
-28.86,-3.76,35.63,-534,4724,6560,0,0,-1
-28.86,-3.77,35.63,-539,4732,6566,-1,-1,-1
-28.86,-3.77,35.63,-546,4734,6568,-1,-1,0
-28.86,-3.76,35.62,-545,4725,6558,-1,-1,0
-28.86,-3.76,35.62,-538,4715,6565,-1,-1,0
-28.86,-3.76,35.62,-533,4711,6567,0,-1,0
-28.86,-3.76,35.62,-543,4711,6563,0,0,0
-28.86,-3.76,35.63,-537,4717,6564,0,0,-1
-28.86,-3.76,35.63,-541,4726,6565,-1,0,-1
-28.86,-3.76,35.62,-540,4722,6564,-1,0,0
-28.87,-3.77,35.62,-543,4716,6574,-1,0,0
-28.87,-3.76,35.61,-546,4720,6570,-1,-1,0
-28.87,-3.76,35.62,-537,4718,6570,0,-1,0
-28.87,-3.76,35.62,-541,4723,6566,0,0,0
-28.87,-3.76,35.62,-535,4711,6561,0,-1,-1
-28.87,-3.76,35.62,-532,4713,6564,-1,0,0
-28.87,-3.76,35.62,-535,4712,6569,0,-1,0
-28.87,-3.76,35.62,-536,4712,6581,0,-1,0
-28.88,-3.76,35.62,-538,4728,6571,-1,-1,0
-28.88,-3.76,35.63,-541,4721,6561,-1,-1,0
-28.88,-3.76,35.63,-536,4715,6568,-1,-1,0
-28.88,-3.76,35.62,-529,4719,6563,-1,0,-1
-28.88,-3.76,35.62,-534,4717,6572,-1,0,-1
-28.88,-3.77,35.62,-543,4718,6571,-1,0,-1
-28.87,-3.77,35.62,-549,4718,6573,-1,-1,0
-28.89,-3.76,35.62,-549,4723,6573,-1,-1,0
-28.89,-3.76,35.62,-540,4722,6576,-1,-1,0
-28.89,-3.76,35.61,-532,4726,6574,-1,0,0
-28.89,-3.76,35.62,-533,4724,6566,-1,-1,0
-28.90,-3.76,35.61,-535,4719,6574,-1,0,0
-28.90,-3.76,35.61,-528,4719,6572,-1,0,0
-28.90,-3.76,35.61,-537,4724,6570,0,-1,0
-28.90,-3.76,35.61,-540,4724,6566,-1,-1,0
-28.90,-3.76,35.61,-544,4715,6567,-1,0,-1
-28.90,-3.76,35.61,-548,4717,6569,-1,-1,0
-28.90,-3.76,35.61,-549,4714,6576,0,-1,-1
-28.90,-3.77,35.61,-546,4711,6578,0,-1,-1
-28.89,-3.77,35.62,-547,4717,6569,0,-1,-1
-28.88,-3.77,35.63,-546,4720,6563,0,0,-1
-28.88,-3.77,35.63,-549,4725,6569,-1,0,-1
-28.88,-3.78,35.63,-555,4717,6583,-1,0,-1
-28.88,-3.78,35.63,-550,4718,6575,0,-1,0
-28.88,-3.78,35.64,-551,4727,6566,0,-1,0
-28.88,-3.77,35.64,-546,4726,6573,-1,-1,0
-28.88,-3.77,35.64,-537,4723,6566,-1,-1,0
-28.88,-3.77,35.64,-529,4711,6559,-1,0,-1
-28.88,-3.77,35.64,-529,4708,6555,0,0,-1
-28.87,-3.78,35.64,-542,4715,6560,0,0,-1
-28.86,-3.78,35.65,-548,4729,6575,0,0,-1
-28.86,-3.78,35.65,-554,4732,6578,-1,-1,0
-28.86,-3.78,35.65,-551,4724,6570,0,-1,0
-28.86,-3.78,35.66,-548,4718,6559,0,-1,0
-28.86,-3.78,35.66,-547,4722,6552,0,-1,0
-28.86,-3.78,35.66,-550,4721,6549,-1,-1,0
-28.86,-3.78,35.66,-544,4723,6545,-1,0,0
-28.86,-3.78,35.66,-545,4731,6553,-1,0,0
-28.86,-3.78,35.66,-547,4724,6553,-1,-1,0
-28.87,-3.78,35.65,-546,4717,6572,-1,-1,0
-28.87,-3.77,35.65,-537,4724,6579,-1,-1,0
-28.88,-3.77,35.64,-535,4720,6576,-1,-1,0
-28.88,-3.77,35.64,-532,4713,6577,-1,0,0
-28.89,-3.77,35.64,-535,4712,6573,0,0,0
-28.88,-3.77,35.65,-540,4722,6565,0,-1,-1
-28.88,-3.77,35.65,-540,4726,6570,0,-1,0
-28.89,-3.77,35.65,-541,4735,6567,-1,-1,0
-28.89,-3.77,35.65,-546,4734,6551,-1,-1,0
-28.89,-3.76,35.65,-535,4717,6560,-1,-1,0
-28.90,-3.76,35.64,-536,4711,6566,-1,-1,0
-28.89,-3.76,35.65,-535,4721,6565,-1,-1,0
-28.89,-3.76,35.65,-536,4732,6564,-1,0,-1
-28.89,-3.76,35.65,-542,4733,6576,-1,0,0
-28.90,-3.76,35.64,-544,4724,6576,-1,-1,0
-28.90,-3.75,35.63,-546,4717,6581,-1,-1,0
-28.91,-3.75,35.63,-537,4717,6574,-1,-1,0
-28.91,-3.74,35.63,-533,4717,6570,0,-1,0
-28.91,-3.75,35.63,-534,4714,6574,0,0,-1
-28.91,-3.76,35.63,-537,4711,6582,0,0,0
-28.91,-3.76,35.64,-537,4707,6572,0,0,-1
-28.90,-3.77,35.64,-546,4715,6571,0,0,-1
-28.90,-3.77,35.65,-550,4724,6566,0,0,-1
-28.90,-3.78,35.66,-549,4727,6562,-1,0,0
-28.91,-3.78,35.65,-549,4730,6566,-1,-1,0
-28.90,-3.78,35.66,-544,4738,6567,0,-1,0
-28.90,-3.78,35.66,-543,4739,6559,-1,-1,0
-28.90,-3.78,35.66,-541,4729,6557,-1,-1,0
-28.91,-3.77,35.66,-538,4728,6557,-1,0,-1
-28.90,-3.78,35.66,-545,4729,6560,-1,0,-1
-28.90,-3.78,35.66,-544,4732,6566,-1,0,0
-28.91,-3.78,35.66,-543,4728,6564,-1,-1,0
-28.92,-3.77,35.65,-541,4722,6562,-1,-1,0
-28.92,-3.76,35.65,-537,4718,6563,-1,-1,0
-28.93,-3.75,35.64,-529,4710,6560,-1,-1,0
-28.93,-3.75,35.64,-525,4715,6555,-1,0,-1
-28.92,-3.76,35.64,-538,4716,6562,-1,0,-1
-28.93,-3.76,35.64,-545,4717,6567,-1,-1,-1
-28.93,-3.76,35.64,-549,4718,6582,-1,-1,0
-28.93,-3.76,35.64,-559,4731,6587,-1,-1,0
-28.93,-3.75,35.63,-546,4725,6574,-1,-1,0
-28.94,-3.74,35.63,-539,4727,6568,-1,-1,0
-28.94,-3.74,35.62,-535,4735,6582,-1,-1,0
-28.95,-3.73,35.61,-544,4745,6585,-1,-1,0
-28.96,-3.71,35.61,-552,4708,6559,0,-1,0
-28.97,-3.71,35.61,-521,4678,6585,0,-1,0
-28.97,-3.71,35.61,-506,4674,6568,0,0,-1
-28.95,-3.73,35.63,-516,4715,6542,0,0,-1
-28.94,-3.74,35.63,-548,4760,6552,-1,0,-1
-28.95,-3.74,35.62,-558,4759,6583,-1,-1,0
-28.96,-3.73,35.60,-552,4735,6593,-1,-1,0
-28.97,-3.72,35.59,-539,4703,6578,-1,-1,0
-28.97,-3.72,35.58,-524,4684,6579,0,-1,0
-28.97,-3.71,35.59,-512,4699,6583,0,0,-1
-28.96,-3.73,35.60,-521,4715,6582,0,0,-1
-28.95,-3.74,35.62,-535,4729,6571,0,0,-1
-28.94,-3.75,35.62,-552,4731,6569,-1,0,0
-28.95,-3.74,35.62,-549,4729,6566,-1,-1,0
-28.95,-3.74,35.62,-538,4721,6558,-1,-1,0
-28.96,-3.73,35.61,-530,4717,6569,0,-1,0
-28.95,-3.74,35.62,-528,4720,6572,0,0,-1
-28.95,-3.74,35.63,-526,4711,6566,0,0,-1
-28.94,-3.76,35.63,-528,4708,6580,0,0,-1
-28.94,-3.77,35.63,-524,4705,6598,0,0,0
-28.94,-3.78,35.65,-524,4703,6565,0,0,-1
-28.90,-3.80,35.68,-535,4722,6535,0,0,-2
-28.87,-3.84,35.69,-604,4747,6578,0,0,-1
-28.89,-3.82,35.68,-615,4768,6582,-1,-2,1
-28.92,-3.77,35.66,-575,4764,6559,-2,-2,1
-28.96,-3.73,35.64,-516,4726,6547,-1,-1,0
-28.97,-3.71,35.62,-472,4685,6554,-1,0,-1
-28.95,-3.74,35.62,-492,4679,6578,0,0,-1
-28.93,-3.77,35.64,-534,4702,6596,0,0,-1
-28.91,-3.78,35.66,-555,4722,6586,0,0,0
-28.91,-3.78,35.68,-558,4754,6564,0,-1,0
-28.92,-3.77,35.67,-550,4758,6551,-1,-1,0
-28.94,-3.76,35.65,-532,4731,6558,-1,-1,0
-28.95,-3.75,35.63,-514,4699,6574,-1,-1,0
-28.95,-3.74,35.62,-512,4689,6588,0,0,-1
-28.94,-3.76,35.63,-521,4698,6584,0,0,-1
-28.93,-3.77,35.65,-541,4718,6575,0,0,-1
-28.93,-3.77,35.66,-549,4733,6574,0,0,0
-28.92,-3.78,35.66,-558,4746,6559,-1,0,0
-28.93,-3.77,35.66,-549,4739,6557,-1,-1,0
-28.93,-3.76,35.66,-542,4723,6567,-1,-1,0
-28.94,-3.76,35.66,-532,4702,6579,0,0,0
-28.93,-3.76,35.66,-528,4698,6575,0,0,-1
-28.92,-3.77,35.67,-533,4708,6573,0,0,-1
-28.92,-3.78,35.68,-535,4723,6578,0,0,-1
-28.92,-3.78,35.68,-537,4724,6565,-1,0,0
-28.92,-3.78,35.68,-541,4722,6570,-1,-1,0
-28.92,-3.77,35.67,-540,4709,6559,-1,0,-1
-28.92,-3.77,35.67,-539,4709,6574,0,-1,0
-28.91,-3.77,35.67,-523,4709,6572,0,0,-1
-28.91,-3.78,35.68,-540,4724,6574,0,0,-1
-28.90,-3.79,35.68,-550,4730,6583,0,0,-1
-28.90,-3.79,35.68,-553,4737,6569,-1,-1,0
-28.90,-3.79,35.69,-547,4732,6558,-1,-1,0
-28.91,-3.79,35.68,-534,4722,6569,-1,0,0
-28.90,-3.79,35.68,-539,4722,6569,-1,0,-1
-28.90,-3.79,35.68,-545,4725,6568,-1,0,-1
-28.90,-3.80,35.68,-543,4723,6564,0,0,-1
-28.90,-3.80,35.68,-540,4722,6567,-1,0,-1
-28.90,-3.80,35.68,-550,4722,6565,-1,0,0
-28.90,-3.80,35.68,-542,4719,6569,-1,0,0
-28.90,-3.80,35.68,-548,4711,6576,-1,0,-1
-28.90,-3.81,35.67,-541,4705,6581,0,0,-1
-28.90,-3.81,35.68,-540,4712,6583,0,0,-1
-28.90,-3.81,35.68,-545,4716,6570,0,-1,0
-28.89,-3.81,35.68,-544,4717,6569,0,0,-1
-28.89,-3.81,35.68,-541,4718,6569,0,0,-1
-28.89,-3.82,35.68,-551,4728,6564,-1,0,-1
-28.89,-3.82,35.68,-549,4722,6562,-1,0,-1
-28.89,-3.83,35.68,-561,4723,6573,-1,0,0
-28.89,-3.82,35.68,-545,4719,6579,0,-1,0
-28.89,-3.81,35.68,-534,4714,6566,-1,-1,0
-28.90,-3.81,35.68,-531,4711,6562,0,0,0
-28.89,-3.81,35.68,-527,4719,6568,0,0,-1
-28.89,-3.83,35.68,-540,4721,6555,0,0,-1
-28.88,-3.83,35.68,-545,4723,6566,-1,0,-1
-28.88,-3.83,35.68,-543,4723,6582,0,-1,0
-28.88,-3.83,35.68,-549,4725,6587,0,-1,0
-28.88,-3.83,35.69,-541,4724,6580,0,0,0
-28.88,-3.83,35.69,-531,4719,6562,0,0,-1
-28.88,-3.83,35.70,-539,4722,6562,0,0,-1
-28.88,-3.83,35.70,-540,4727,6566,0,0,-1
-28.87,-3.84,35.70,-545,4728,6560,-1,0,-1
-28.87,-3.84,35.70,-544,4720,6575,-1,0,-1
-28.87,-3.84,35.69,-547,4724,6567,-1,-1,0
-28.87,-3.83,35.70,-542,4724,6566,0,-1,0
-28.87,-3.83,35.70,-540,4716,6562,0,-1,0
-28.87,-3.83,35.70,-536,4715,6557,0,0,-1
-28.87,-3.84,35.71,-541,4713,6560,0,0,-1
-28.87,-3.84,35.71,-545,4719,6557,0,0,-1
-28.87,-3.84,35.71,-549,4721,6562,0,0,-1
-28.87,-3.84,35.71,-550,4720,6570,0,-1,-1
-28.86,-3.84,35.71,-555,4723,6570,0,-1,0
-28.86,-3.84,35.72,-548,4721,6571,0,-1,0
-28.86,-3.84,35.72,-546,4722,6555,0,0,-1
-28.86,-3.84,35.72,-544,4714,6557,0,0,0
-28.85,-3.85,35.73,-544,4720,6555,0,0,-1
-28.85,-3.85,35.73,-546,4722,6556,0,0,-1
-28.85,-3.85,35.73,-547,4727,6558,0,-1,-1
-28.85,-3.85,35.73,-544,4728,6557,0,0,-1
-28.85,-3.85,35.73,-547,4725,6558,-1,-1,0
-28.85,-3.85,35.73,-542,4716,6567,-1,-1,0
-28.85,-3.85,35.73,-537,4714,6571,0,0,-1
-28.85,-3.85,35.73,-545,4714,6571,0,0,-1
-28.85,-3.85,35.72,-549,4719,6574,0,0,-1
-28.84,-3.86,35.72,-554,4726,6570,-1,0,0
-28.85,-3.86,35.72,-547,4728,6573,-1,-1,0
-28.85,-3.85,35.72,-542,4727,6570,-1,-1,0
-28.85,-3.85,35.72,-543,4723,6574,-1,-1,0
-28.86,-3.84,35.72,-537,4722,6567,-1,-1,0
-28.86,-3.84,35.72,-536,4725,6561,-1,0,0
-28.86,-3.84,35.72,-537,4725,6560,-1,0,-1
-28.86,-3.84,35.71,-538,4726,6561,-1,0,-1
-28.86,-3.84,35.71,-539,4719,6571,-1,0,0
-28.86,-3.84,35.71,-543,4721,6572,-1,-1,0
-28.87,-3.84,35.71,-541,4722,6567,-1,-1,0
-28.88,-3.83,35.71,-529,4717,6567,-1,-1,0
-28.88,-3.82,35.70,-527,4715,6565,-1,0,0
-28.88,-3.82,35.70,-528,4711,6563,-1,0,-1
-28.88,-3.83,35.69,-536,4708,6567,-1,0,-1
-28.88,-3.83,35.69,-545,4720,6558,-1,0,0
-28.88,-3.84,35.69,-553,4729,6574,0,-1,0
-28.88,-3.83,35.70,-554,4725,6575,0,-1,0
-28.88,-3.83,35.70,-543,4722,6564,0,-1,0
-28.88,-3.83,35.70,-548,4721,6563,0,0,0
-28.88,-3.83,35.70,-540,4718,6565,-1,-1,-1
-28.88,-3.82,35.70,-535,4724,6570,-1,0,0
-28.89,-3.82,35.70,-541,4730,6577,-1,-1,0
-28.89,-3.82,35.70,-532,4719,6571,0,0,-1
-28.89,-3.82,35.70,-533,4719,6567,-1,-1,0
-28.89,-3.82,35.69,-534,4716,6574,-1,-1,0
-28.90,-3.81,35.68,-534,4709,6575,-1,-1,0
-28.90,-3.81,35.68,-537,4708,6585,0,0,0
-28.90,-3.82,35.68,-535,4713,6577,0,0,-1
-28.89,-3.82,35.68,-527,4710,6577,0,0,-1
-28.89,-3.82,35.68,-537,4717,6580,0,0,0
-28.90,-3.82,35.68,-545,4723,6582,0,-1,0
-28.90,-3.82,35.68,-538,4722,6572,0,-1,0
-28.89,-3.81,35.69,-538,4718,6571,-1,-1,0
-28.90,-3.82,35.68,-536,4718,6573,-1,0,0
-28.90,-3.81,35.68,-535,4718,6576,-1,0,0
-28.90,-3.81,35.68,-531,4717,6577,0,0,0
-28.90,-3.81,35.68,-536,4711,6580,0,0,0
-28.90,-3.81,35.68,-538,4718,6581,0,0,0
-28.90,-3.81,35.68,-538,4721,6574,-1,-1,0
-28.91,-3.81,35.68,-538,4718,6577,-1,-1,0
-28.91,-3.81,35.68,-536,4713,6577,0,-1,0
-28.91,-3.80,35.68,-534,4711,6578,0,0,0
-28.91,-3.80,35.68,-532,4705,6577,0,0,0
-28.91,-3.81,35.68,-541,4715,6574,0,0,-1
-28.91,-3.81,35.67,-537,4714,6583,0,0,0
-28.91,-3.81,35.68,-535,4716,6577,0,0,0
-28.91,-3.81,35.68,-538,4719,6582,0,-1,0
-28.91,-3.81,35.68,-531,4721,6576,0,-1,-1
-28.91,-3.81,35.68,-532,4721,6570,-1,0,-1
-28.91,-3.81,35.68,-538,4721,6571,-1,0,-1
-28.90,-3.81,35.68,-548,4717,6570,0,0,0
-28.91,-3.81,35.68,-543,4720,6571,0,-1,0
-28.91,-3.81,35.68,-541,4728,6571,-1,-1,0
-28.92,-3.81,35.68,-532,4729,6577,-1,-1,0
-28.92,-3.80,35.68,-525,4715,6581,-1,0,0
-28.92,-3.80,35.67,-530,4706,6588,0,-1,-1
-28.91,-3.80,35.67,-536,4704,6576,0,0,-1
-28.91,-3.81,35.68,-547,4721,6574,0,0,-1
-28.91,-3.81,35.68,-542,4727,6577,0,-1,0
-28.91,-3.81,35.68,-544,4725,6576,0,-1,0
-28.91,-3.81,35.68,-534,4720,6577,0,-1,0
-28.91,-3.81,35.69,-526,4718,6563,0,-1,0
-28.90,-3.80,35.69,-526,4720,6564,0,0,-1
-28.90,-3.80,35.69,-526,4723,6560,0,0,-1
-28.90,-3.81,35.69,-530,4728,6565,-1,0,-1
-28.91,-3.81,35.69,-538,4720,6568,-1,0,0
-28.91,-3.81,35.69,-536,4720,6569,-1,-1,0
-28.91,-3.81,35.69,-543,4715,6575,-1,-1,0
-28.91,-3.80,35.69,-537,4714,6569,-1,-1,0
-28.91,-3.80,35.69,-531,4716,6570,0,0,-1
-28.91,-3.81,35.69,-533,4711,6580,0,0,-1
-28.91,-3.81,35.69,-535,4715,6575,0,0,-1
-28.91,-3.81,35.69,-548,4715,6568,-1,-1,0
-28.91,-3.81,35.69,-542,4716,6569,0,-1,0
-28.91,-3.81,35.69,-541,4712,6572,0,-1,0
-28.91,-3.81,35.69,-538,4716,6575,0,0,0
-28.90,-3.81,35.69,-535,4715,6563,0,0,0
-28.90,-3.81,35.69,-539,4716,6568,0,0,-1
-28.90,-3.81,35.69,-539,4724,6563,0,0,-1
-28.90,-3.82,35.70,-544,4728,6568,-1,0,0
-28.90,-3.82,35.70,-546,4722,6571,-1,-1,0
-28.90,-3.81,35.69,-542,4712,6571,-1,0,0
-28.90,-3.81,35.69,-540,4710,6576,0,-1,0
-28.90,-3.81,35.69,-525,4714,6568,0,0,-1
-28.90,-3.81,35.69,-525,4722,6569,0,0,-1
-28.89,-3.82,35.70,-538,4723,6567,0,0,-1
-28.89,-3.82,35.70,-540,4724,6569,-1,0,0
-28.90,-3.81,35.71,-532,4721,6559,0,0,0
-28.90,-3.81,35.71,-542,4714,6564,0,0,-1
-28.89,-3.82,35.71,-541,4715,6556,0,0,-1
-28.89,-3.82,35.71,-542,4722,6560,0,0,-1
-28.89,-3.83,35.70,-545,4717,6566,-1,0,0
-28.90,-3.83,35.70,-548,4727,6569,-1,-1,0
-28.90,-3.82,35.71,-540,4728,6566,-1,-1,0
-28.91,-3.82,35.70,-533,4718,6575,-1,-1,0
-28.90,-3.82,35.70,-531,4712,6571,-1,0,-1
-28.90,-3.82,35.70,-536,4702,6564,0,0,-1
-28.89,-3.83,35.70,-540,4704,6571,0,0,-1
-28.89,-3.83,35.70,-537,4712,6567,0,0,-1
-28.89,-3.84,35.71,-541,4721,6563,0,0,0
-28.89,-3.83,35.71,-546,4720,6563,0,-1,0
-28.89,-3.83,35.71,-535,4720,6561,0,-1,0
-28.89,-3.83,35.72,-532,4720,6562,0,0,-1
-28.89,-3.83,35.72,-532,4722,6565,0,0,-1
0.01,0.01,-0.01,-1,-1,-1,-1,-1,-1
-28.89,-3.83,35.71,-538,4708,6573,-1,0,-1
-28.89,-3.84,35.71,-540,4718,6581,0,-1,-1
-28.89,-3.84,35.71,-540,4721,6583,0,0,0
-28.89,-3.84,35.71,-538,4720,6578,-1,-1,0
-28.89,-3.84,35.71,-534,4712,6570,-1,0,0
-28.89,-3.84,35.70,-532,4708,6562,0,0,-1
-28.89,-3.84,35.70,-532,4707,6567,0,0,-1
-28.89,-3.85,35.71,-546,4720,6569,0,0,-1
-28.88,-3.85,35.72,-547,4728,6566,0,0,-1
-28.88,-3.85,35.72,-551,4728,6561,0,0,0
-28.88,-3.85,35.72,-544,4722,6564,0,-1,0
-28.88,-3.85,35.72,-541,4717,6558,0,0,0
-28.88,-3.85,35.73,-535,4720,6564,0,0,-1
-28.88,-3.85,35.73,-535,4719,6560,-1,0,0
-28.88,-3.85,35.73,-538,4725,6572,-1,0,-1
-28.88,-3.86,35.72,-545,4721,6570,0,-1,-1
-28.88,-3.86,35.72,-544,4711,6563,-1,0,0
-28.88,-3.86,35.72,-543,4713,6572,-1,0,0
-28.88,-3.86,35.72,-544,4706,6576,0,0,-1
-28.88,-3.87,35.72,-550,4714,6574,0,0,-1
-28.88,-3.87,35.72,-547,4724,6563,0,-1,-1
-28.87,-3.87,35.73,-538,4721,6561,0,0,-1
-28.86,-3.87,35.73,-547,4721,6562,0,0,-1
-28.86,-3.88,35.73,-546,4718,6563,-1,0,-1
-28.86,-3.89,35.74,-543,4720,6562,0,0,0
-28.86,-3.89,35.73,-546,4720,6568,0,-1,0
-28.86,-3.88,35.73,-534,4725,6567,0,-1,0
-28.87,-3.88,35.74,-543,4723,6568,0,0,0
-28.87,-3.88,35.74,-541,4717,6561,-1,0,-1
-28.86,-3.88,35.73,-548,4714,6555,-1,0,-1
-28.86,-3.89,35.73,-545,4716,6557,0,0,-1
-28.85,-3.90,35.74,-552,4719,6572,0,0,-1
-28.85,-3.90,35.74,-564,4736,6570,0,0,-1
-28.85,-3.90,35.75,-565,4738,6572,0,-1,0
-28.85,-3.90,35.75,-553,4731,6563,0,-1,0
-28.85,-3.90,35.75,-550,4722,6555,0,-1,-1
-28.85,-3.89,35.75,-545,4715,6557,0,0,-1
-28.84,-3.90,35.76,-543,4713,6556,0,0,-1
-28.83,-3.91,35.76,-550,4720,6564,0,0,-1
-28.83,-3.91,35.76,-549,4724,6571,-1,-1,-1
-28.83,-3.90,35.75,-550,4723,6567,0,-1,0
-28.83,-3.90,35.75,-551,4723,6567,0,-1,-1
-28.83,-3.90,35.75,-547,4720,6566,0,-1,0
-28.83,-3.90,35.75,-542,4716,6574,0,-1,-1
-28.82,-3.90,35.76,-546,4714,6568,0,0,-1
-28.81,-3.90,35.77,-544,4720,6572,0,0,-1
-28.81,-3.90,35.77,-550,4721,6564,0,-1,-1
-28.80,-3.91,35.78,-554,4732,6564,0,-1,-1
-28.80,-3.91,35.79,-554,4733,6565,0,-1,0
-28.80,-3.90,35.78,-549,4735,6571,0,-1,0
-28.80,-3.90,35.79,-548,4726,6565,0,-1,-1
-28.80,-3.90,35.79,-542,4730,6561,-1,-1,0
-28.80,-3.89,35.79,-545,4726,6567,-1,-1,0
-28.80,-3.89,35.78,-543,4720,6566,-1,-1,0
-28.80,-3.89,35.77,-556,4715,6570,-1,-1,0
-28.81,-3.89,35.77,-543,4719,6558,0,-1,0
-28.81,-3.89,35.78,-549,4730,6556,-1,-1,0
-28.81,-3.88,35.77,-548,4736,6557,-1,-1,0
-28.82,-3.88,35.77,-546,4732,6558,-1,-1,0
-28.82,-3.87,35.77,-547,4729,6566,-1,-1,0
-28.82,-3.88,35.76,-545,4720,6572,-1,0,0
-28.83,-3.87,35.76,-541,4723,6578,0,0,0
-28.83,-3.87,35.76,-551,4727,6579,0,-1,0
-28.83,-3.87,35.76,-552,4728,6582,-1,-1,0
-28.84,-3.87,35.76,-538,4725,6565,0,0,0
-28.83,-3.87,35.76,-538,4725,6557,0,0,-1
-28.83,-3.87,35.76,-543,4732,6566,-1,0,0
-28.84,-3.87,35.75,-544,4729,6576,-1,-1,0
-28.84,-3.86,35.75,-547,4724,6577,-1,-1,0
-28.85,-3.86,35.75,-543,4717,6571,0,-1,0
-28.85,-3.85,35.75,-540,4721,6566,0,-1,0
-28.85,-3.85,35.75,-535,4715,6569,-1,0,0
-28.85,-3.86,35.74,-537,4714,6569,-1,0,-1
-28.85,-3.86,35.74,-535,4711,6566,0,0,-1
-28.85,-3.86,35.74,-543,4716,6572,0,0,0
-28.86,-3.86,35.73,-553,4719,6572,-1,-1,0
-28.86,-3.86,35.73,-555,4724,6579,-1,-1,0
-28.86,-3.86,35.73,-548,4721,6576,0,0,0
-28.85,-3.86,35.74,-541,4725,6562,0,0,0
-28.85,-3.86,35.74,-538,4727,6565,0,0,0
-28.86,-3.85,35.74,-538,4730,6563,-1,0,-1
-28.86,-3.85,35.73,-537,4725,6563,-1,0,0
-28.86,-3.85,35.73,-544,4720,6567,-1,-1,0
-28.86,-3.85,35.73,-541,4722,6561,0,0,0
-28.87,-3.85,35.73,-542,4728,6557,-1,-1,0
-28.87,-3.84,35.73,-541,4721,6569,-1,-1,0
-28.87,-3.84,35.72,-530,4716,6573,-1,-1,0
-28.88,-3.83,35.72,-541,4711,6573,-1,0,0
-28.88,-3.83,35.72,-539,4708,6564,0,0,0
-28.88,-3.84,35.72,-537,4719,6569,0,0,-1
-28.88,-3.84,35.72,-543,4720,6573,0,0,0
-28.88,-3.84,35.72,-544,4720,6572,-1,-1,0
-28.88,-3.84,35.71,-544,4716,6569,0,0,0
-28.88,-3.84,35.71,-543,4721,6567,0,0,0
-28.88,-3.84,35.71,-535,4711,6564,-1,0,0
-28.88,-3.84,35.71,-533,4718,6570,-1,0,0
-28.89,-3.83,35.71,-532,4711,6569,-1,0,-1
-28.89,-3.84,35.71,-544,4714,6554,-1,0,0
-28.89,-3.84,35.71,-542,4716,6555,-1,0,0
-28.89,-3.84,35.70,-540,4711,6569,-1,-1,0
-28.89,-3.84,35.70,-537,4714,6572,-1,0,0
-28.89,-3.84,35.71,-536,4717,6575,0,0,0
-28.89,-3.84,35.71,-534,4728,6578,0,0,0
-28.90,-3.83,35.71,-539,4722,6578,-1,0,0
-28.90,-3.83,35.71,-538,4724,6565,-1,-1,0
-28.90,-3.83,35.71,-536,4719,6558,-1,-1,0
-28.90,-3.83,35.71,-534,4716,6567,-1,-1,0
-28.90,-3.83,35.70,-533,4715,6564,-1,-1,0
-28.90,-3.83,35.70,-536,4717,6567,0,0,0
-28.90,-3.83,35.70,-535,4713,6567,-1,0,0
-28.90,-3.83,35.70,-538,4714,6574,0,-1,-1
-28.90,-3.83,35.70,-539,4717,6566,0,0,0
-28.90,-3.83,35.70,-545,4713,6560,-1,0,0
-28.91,-3.83,35.70,-537,4714,6572,-1,-1,0
-28.91,-3.83,35.70,-536,4710,6573,0,-1,-1
-28.90,-3.83,35.70,-531,4712,6572,0,0,-1
-28.90,-3.83,35.70,-535,4715,6570,0,-1,0
-28.90,-3.83,35.70,-528,4709,6573,0,-1,-1
-28.90,-3.83,35.70,-531,4708,6565,0,0,-1
-28.90,-3.83,35.70,-531,4714,6562,0,0,-1
-28.89,-3.84,35.71,-536,4729,6564,-1,0,-1
-28.89,-3.84,35.71,-548,4727,6561,-1,-1,0
-28.90,-3.83,35.71,-545,4731,6565,-1,-1,0
-28.90,-3.83,35.70,-541,4723,6573,0,-1,0
-28.91,-3.82,35.70,-527,4712,6563,0,0,0
-28.90,-3.82,35.70,-520,4708,6559,0,0,-1
-28.90,-3.83,35.71,-530,4712,6553,0,0,-1
-28.89,-3.84,35.71,-544,4715,6564,0,0,-1
-28.89,-3.84,35.71,-555,4722,6576,0,0,0
-28.89,-3.84,35.71,-554,4721,6578,0,-1,0
-28.89,-3.84,35.71,-546,4722,6577,0,-1,0
-28.90,-3.83,35.71,-532,4717,6580,0,-1,0
-28.90,-3.83,35.71,-529,4716,6578,0,0,-1
-28.89,-3.83,35.71,-530,4714,6568,0,0,-1
-28.89,-3.84,35.71,-535,4720,6568,0,0,-1
-28.89,-3.85,35.72,-545,4725,6567,-1,0,-1
-28.89,-3.85,35.71,-548,4726,6570,-1,0,0
-28.89,-3.85,35.71,-548,4723,6570,-1,0,0
-28.89,-3.85,35.71,-543,4715,6569,0,-1,0
-28.89,-3.85,35.71,-532,4711,6576,0,0,-1
-28.89,-3.85,35.71,-534,4709,6570,0,0,-1
-28.89,-3.85,35.71,-537,4720,6567,0,0,-1
-28.88,-3.86,35.71,-541,4720,6566,0,0,-1
-28.88,-3.86,35.72,-539,4721,6570,0,0,-1
-28.88,-3.86,35.72,-553,4723,6570,0,-1,0
-28.88,-3.86,35.72,-546,4720,6563,-1,-1,-1
-28.88,-3.86,35.72,-541,4717,6562,-1,0,0
-28.88,-3.86,35.72,-537,4722,6556,0,-1,-1
-28.87,-3.87,35.73,-542,4728,6548,0,0,-1
-28.87,-3.87,35.73,-543,4729,6551,-1,0,-1
-28.88,-3.87,35.72,-538,4719,6563,-1,0,0
-28.88,-3.87,35.72,-544,4723,6556,-1,0,0
-28.88,-3.87,35.72,-542,4721,6567,-1,0,0
-28.88,-3.87,35.72,-540,4712,6568,-1,0,-1
-28.88,-3.87,35.72,-545,4720,6561,0,0,-1
-28.88,-3.88,35.72,-544,4717,6564,-1,0,-1
-28.88,-3.88,35.72,-547,4718,6566,-1,0,-1
-28.88,-3.88,35.71,-548,4709,6573,-1,0,-1
-28.88,-3.89,35.71,-546,4711,6573,0,0,-1
-28.88,-3.89,35.71,-547,4721,6569,0,0,0
-28.88,-3.89,35.71,-543,4721,6567,0,0,-1
-28.87,-3.89,35.72,-544,4724,6571,0,0,-1
-28.87,-3.89,35.72,-538,4719,6569,0,0,-1
-28.87,-3.90,35.72,-546,4717,6575,0,0,-1
-28.87,-3.90,35.72,-545,4710,6568,0,0,-1
-28.87,-3.91,35.72,-551,4714,6574,0,0,-1
-28.86,-3.91,35.72,-556,4714,6566,0,0,-1
-28.86,-3.92,35.73,-555,4722,6571,0,0,-1
-28.85,-3.93,35.73,-547,4723,6578,0,0,-1
-28.84,-3.93,35.74,-556,4723,6571,0,0,-1
-28.84,-3.94,35.74,-560,4726,6567,0,0,-1
-28.84,-3.95,35.74,-558,4728,6563,0,0,0
-28.85,-3.94,35.75,-551,4726,6560,0,-1,0
-28.85,-3.94,35.75,-540,4723,6560,0,0,-1
-28.84,-3.95,35.76,-541,4722,6556,0,0,-1
-28.84,-3.95,35.75,-547,4717,6564,0,0,-1
-28.84,-3.96,35.75,-555,4724,6566,0,0,-1
-28.84,-3.96,35.76,-559,4724,6576,0,0,-1
-28.83,-3.97,35.77,-561,4722,6574,0,0,-1
-28.83,-3.97,35.78,-554,4720,6572,0,0,-1
-28.82,-3.98,35.78,-559,4721,6568,0,0,-1
-28.81,-3.98,35.80,-561,4732,6567,0,0,-1
-28.81,-3.99,35.80,-557,4732,6555,0,0,-1
-28.80,-3.99,35.81,-566,4736,6551,0,0,-1
-28.79,-4.00,35.82,-562,4744,6544,0,0,-1
-28.79,-4.00,35.82,-561,4738,6551,0,-1,-1
-28.79,-4.00,35.82,-556,4738,6557,0,-1,-1
-28.78,-4.00,35.83,-558,4734,6562,0,-1,-1
-28.78,-4.00,35.83,-561,4731,6567,0,-1,-1
-28.77,-4.00,35.84,-560,4728,6557,0,-1,-1
-28.76,-4.00,35.84,-562,4723,6554,0,-1,-1
-28.75,-4.00,35.85,-566,4733,6558,0,-1,-1
-28.75,-4.00,35.85,-557,4737,6561,0,-1,-1
-28.74,-4.00,35.86,-563,4736,6555,0,-1,-1
-28.73,-4.00,35.87,-570,4744,6554,0,-1,-1
-28.74,-3.99,35.87,-567,4738,6554,0,-1,0
-28.74,-3.98,35.87,-566,4735,6559,0,-1,0
-28.73,-3.98,35.88,-559,4732,6557,0,-1,-1
-28.73,-3.98,35.88,-564,4737,6553,-1,-1,-1
-28.73,-3.98,35.88,-567,4739,6567,-1,-1,0
-28.73,-3.97,35.87,-559,4738,6560,-1,-1,0
-28.74,-3.96,35.87,-557,4731,6558,0,-1,-1
-28.74,-3.96,35.87,-549,4728,6548,0,-1,-1
-28.73,-3.96,35.87,-555,4736,6555,-1,-1,-1
-28.74,-3.95,35.87,-560,4737,6553,-1,-1,0
-28.74,-3.95,35.87,-564,4738,6554,-1,-1,0
-28.74,-3.94,35.86,-562,4733,6559,-1,-1,0
-28.75,-3.94,35.86,-555,4730,6555,-1,-1,0
-28.76,-3.93,35.85,-566,4734,6563,-1,-1,0
-28.76,-3.92,35.84,-548,4734,6549,-1,-1,0
-28.76,-3.92,35.84,-549,4730,6544,-1,-1,0
-28.76,-3.92,35.83,-553,4730,6547,-1,-1,-1
-28.76,-3.92,35.83,-559,4725,6547,-1,-1,0
-28.78,-3.91,35.82,-556,4730,6552,-1,-1,0
-28.78,-3.91,35.82,-550,4739,6561,-1,-1,0
-28.79,-3.89,35.82,-549,4740,6563,-1,-1,0
-28.80,-3.88,35.81,-543,4734,6558,-1,-1,0
-28.81,-3.88,35.80,-537,4723,6557,-1,-1,0
-28.82,-3.87,35.80,-542,4729,6560,-1,-1,-1
-28.81,-3.87,35.80,-553,4733,6566,-1,0,0
-28.81,-3.87,35.79,-557,4734,6568,-1,-1,0
-28.82,-3.87,35.80,-559,4739,6560,-1,-1,0
-28.83,-3.87,35.79,-564,4731,6556,-1,-1,0
-28.83,-3.86,35.79,-548,4722,6553,0,-1,0
-28.83,-3.85,35.79,-549,4737,6550,-1,-1,0
-28.84,-3.85,35.78,-550,4734,6548,-1,-1,0
-28.84,-3.84,35.77,-544,4733,6552,-1,-1,0
-28.84,-3.84,35.77,-541,4730,6553,-1,-1,0
-28.85,-3.84,35.76,-543,4733,6560,-1,-1,0
-28.86,-3.83,35.76,-551,4727,6567,-1,-1,0
-28.86,-3.83,35.76,-548,4726,6559,-1,-1,0
-28.87,-3.83,35.75,-544,4723,6566,-1,-1,0
-28.88,-3.82,35.74,-545,4723,6561,-1,-1,0
-28.88,-3.82,35.74,-544,4722,6570,-1,-1,0
-28.88,-3.82,35.74,-547,4727,6566,-1,-1,0
-28.88,-3.82,35.74,-547,4726,6577,-1,-1,0
-28.88,-3.82,35.74,-545,4726,6579,-1,-1,0
-28.89,-3.81,35.73,-541,4726,6573,0,-1,0
-28.89,-3.81,35.73,-545,4731,6563,-1,-1,0
-28.90,-3.80,35.73,-542,4732,6565,-1,-1,0
-28.90,-3.80,35.73,-546,4732,6560,-1,-1,0
-28.90,-3.80,35.72,-547,4732,6573,-1,-1,0
-28.90,-3.80,35.72,-547,4730,6571,-1,-1,0
-28.91,-3.79,35.71,-548,4728,6571,-1,-1,0
-28.91,-3.80,35.71,-547,4730,6579,-1,-1,0
-28.92,-3.79,35.70,-541,4716,6571,0,-1,0
-28.91,-3.79,35.70,-537,4715,6572,-1,0,-1
-28.92,-3.79,35.70,-548,4716,6575,-1,0,0
-28.92,-3.79,35.70,-549,4708,6570,-1,-1,0
-28.92,-3.79,35.69,-544,4706,6569,-1,0,0
-28.93,-3.79,35.68,-540,4714,6573,-1,-1,-1
-28.93,-3.79,35.68,-539,4718,6564,-1,0,0
-28.93,-3.79,35.68,-542,4718,6567,-1,-1,0
-28.94,-3.78,35.67,-540,4721,6573,-1,-1,0
-28.95,-3.77,35.67,-537,4721,6570,-1,-1,0
-28.95,-3.77,35.67,-528,4719,6573,-1,-1,0
-28.96,-3.76,35.66,-528,4708,6573,-1,0,0
-28.96,-3.76,35.66,-535,4704,6571,-1,0,-1
-28.96,-3.77,35.65,-541,4718,6570,-1,0,-1
-28.96,-3.77,35.65,-548,4724,6572,-1,-1,0
-28.96,-3.76,35.65,-546,4717,6582,0,-1,0
-28.97,-3.76,35.66,-541,4717,6581,0,-1,0
-28.97,-3.75,35.66,-532,4717,6577,0,-1,0
-28.97,-3.75,35.66,-531,4712,6572,0,-1,0
-28.97,-3.75,35.66,-531,4714,6566,0,0,-1
-28.97,-3.75,35.66,-535,4717,6564,0,0,-1
-28.97,-3.75,35.66,-537,4721,6566,-1,-1,-1
-28.97,-3.75,35.66,-536,4729,6569,-1,-1,0
-28.97,-3.75,35.66,-535,4728,6563,-1,-1,0
-28.97,-3.74,35.66,-532,4718,6561,0,-1,0
-28.97,-3.74,35.66,-535,4713,6568,0,-1,0
-28.97,-3.74,35.67,-537,4715,6561,0,0,-1
-28.96,-3.75,35.67,-539,4715,6567,0,-1,-1
-28.96,-3.75,35.67,-540,4718,6565,0,-1,-1
-28.95,-3.75,35.68,-541,4726,6559,0,-1,-1
-28.95,-3.75,35.69,-545,4734,6561,0,0,0
-28.95,-3.75,35.69,-546,4736,6556,0,-1,-1
-28.95,-3.75,35.69,-545,4736,6554,-1,-1,0
-28.96,-3.74,35.68,-541,4729,6555,-1,-1,0
-28.95,-3.75,35.68,-534,4716,6551,0,-1,-1
-28.95,-3.75,35.69,-536,4722,6556,0,0,-1
-28.95,-3.75,35.69,-538,4722,6571,-1,0,-1
-28.95,-3.75,35.69,-543,4722,6574,-1,0,-1
-28.95,-3.75,35.68,-544,4724,6580,-1,-1,0
-28.95,-3.75,35.68,-536,4717,6580,0,-1,0
-28.95,-3.75,35.68,-526,4715,6574,0,0,-1
-28.95,-3.75,35.69,-527,4717,6566,0,0,0
-28.95,-3.75,35.68,-535,4721,6566,-1,0,-1
-28.94,-3.75,35.69,-535,4722,6566,0,-1,-1
-28.94,-3.75,35.69,-537,4720,6573,0,0,-1
-28.94,-3.76,35.68,-543,4725,6568,-1,0,-1
-28.94,-3.76,35.68,-541,4727,6573,-1,0,-1
-28.94,-3.76,35.68,-540,4728,6566,-1,0,0
-28.94,-3.77,35.67,-546,4719,6574,-1,0,-1
-28.94,-3.77,35.67,-543,4720,6572,-1,-1,0
-28.95,-3.76,35.67,-539,4719,6570,0,-1,0
-28.95,-3.76,35.67,-534,4716,6565,-1,-1,-1
-28.94,-3.76,35.67,-533,4713,6561,-1,0,-1
-28.94,-3.77,35.67,-538,4715,6559,-1,0,-1
-28.94,-3.77,35.68,-542,4720,6569,-1,0,-1
-28.94,-3.77,35.68,-544,4718,6568,0,-1,-1
-28.93,-3.77,35.68,-542,4721,6563,0,0,-1
-28.93,-3.77,35.68,-538,4713,6568,0,0,-1
-28.93,-3.77,35.68,-539,4717,6566,0,0,0
-28.94,-3.77,35.68,-543,4719,6574,0,0,-1
-28.93,-3.78,35.69,-534,4717,6575,0,0,-1
-28.93,-3.78,35.69,-539,4723,6565,0,0,-1
-28.93,-3.79,35.68,-547,4724,6571,-1,0,0
-28.93,-3.79,35.68,-549,4727,6579,-1,0,0
-28.93,-3.79,35.67,-547,4731,6580,-1,0,0
-28.94,-3.79,35.67,-546,4724,6581,-1,0,0
-28.94,-3.79,35.67,-540,4716,6573,0,0,-1
-28.94,-3.79,35.68,-541,4717,6566,0,0,-1
-28.93,-3.80,35.68,-540,4717,6570,-1,0,-1
-28.93,-3.80,35.68,-548,4721,6567,0,0,-1
-28.93,-3.81,35.68,-551,4729,6575,0,0,0
-28.94,-3.81,35.68,-550,4734,6575,-1,0,0
-28.93,-3.81,35.68,-551,4727,6572,-1,-1,0
-28.93,-3.81,35.68,-550,4727,6573,0,0,-1
-28.93,-3.81,35.68,-544,4723,6565,-1,0,-1
-28.93,-3.82,35.69,-554,4726,6551,0,0,-1
-28.93,-3.83,35.69,-557,4729,6545,0,0,-1
-28.92,-3.83,35.69,-547,4727,6555,0,0,-1
-28.92,-3.83,35.69,-551,4723,6561,0,-1,-1
-28.91,-3.84,35.69,-562,4717,6558,0,-1,-1
-28.91,-3.83,35.70,-559,4719,6562,0,-1,-1
-28.90,-3.84,35.71,-558,4728,6562,0,0,-1
-28.89,-3.85,35.72,-552,4721,6563,0,-1,-1
-28.88,-3.85,35.72,-553,4726,6566,0,-1,-1
-28.88,-3.85,35.72,-561,4720,6574,0,-1,-1
-28.87,-3.85,35.73,-551,4721,6558,0,-1,-1
-28.86,-3.85,35.75,-556,4733,6554,0,0,-1
-28.86,-3.85,35.75,-562,4732,6551,0,-1,-1
-28.86,-3.85,35.75,-561,4733,6562,0,-1,-1
-28.85,-3.85,35.75,-560,4727,6566,0,-1,-1
-28.85,-3.85,35.76,-556,4723,6567,0,-1,0
-28.85,-3.85,35.77,-549,4721,6558,0,-1,-1
-28.84,-3.84,35.77,-547,4732,6550,0,0,-1
-28.84,-3.85,35.77,-555,4739,6554,-1,0,-1
-28.84,-3.85,35.77,-560,4740,6563,-1,-1,0
-28.85,-3.85,35.76,-561,4731,6570,-1,-1,0
-28.85,-3.84,35.76,-568,4723,6570,-1,-1,0
-28.86,-3.84,35.76,-550,4718,6576,0,-1,0
-28.86,-3.83,35.76,-544,4719,6557,0,-1,0
-28.86,-3.83,35.76,-537,4727,6547,-1,0,-1
-28.85,-3.84,35.76,-554,4739,6542,-1,0,-1
-28.85,-3.84,35.76,-567,4735,6540,-1,-1,0
-28.86,-3.84,35.75,-564,4744,6557,-1,-1,0
-28.87,-3.83,35.74,-555,4738,6572,-1,-1,0
-28.88,-3.82,35.73,-548,4727,6575,-1,-1,0
-28.88,-3.82,35.73,-541,4712,6575,0,-1,0
-28.88,-3.81,35.74,-533,4723,6569,0,0,0
-28.88,-3.81,35.74,-537,4739,6570,0,0,-1
-28.88,-3.81,35.75,-541,4744,6565,-1,-1,-1
-28.88,-3.81,35.74,-541,4738,6568,-1,-1,0
-28.89,-3.81,35.73,-551,4727,6568,-1,-1,0
-28.89,-3.80,35.72,-544,4713,6561,-1,-1,0
-28.90,-3.80,35.71,-547,4715,6568,-1,-1,0
-28.91,-3.79,35.71,-535,4716,6572,0,-1,0
-28.90,-3.79,35.71,-536,4726,6569,-1,0,-1
-28.90,-3.79,35.71,-547,4734,6561,-1,-1,-1
-28.91,-3.79,35.71,-548,4728,6559,-1,-1,0
-28.91,-3.78,35.70,-547,4724,6569,-1,-1,0
-28.91,-3.78,35.70,-543,4721,6564,-1,-1,0
-28.91,-3.78,35.70,-548,4726,6570,0,-1,-1
-28.91,-3.78,35.70,-548,4730,6564,-1,-1,0
-28.92,-3.78,35.70,-546,4725,6565,-1,-1,0
-28.92,-3.78,35.69,-540,4720,6568,-1,-1,0
-28.92,-3.78,35.69,-544,4717,6574,-1,-1,0
-28.93,-3.77,35.69,-545,4716,6571,-1,-1,0
-28.93,-3.77,35.68,-544,4721,6574,-1,-1,0
-28.93,-3.77,35.68,-548,4720,6569,-1,-1,0
-28.93,-3.77,35.68,-552,4722,6570,-1,-1,0
-28.93,-3.77,35.68,-551,4720,6571,-1,-1,0
-28.94,-3.77,35.68,-548,4718,6568,-1,0,0
-28.94,-3.77,35.68,-548,4722,6559,-1,-1,0
-28.94,-3.77,35.68,-548,4715,6551,-1,-1,0
-28.94,-3.77,35.67,-545,4718,6568,-1,-1,0
-28.94,-3.77,35.67,-551,4724,6586,-1,-1,0
-28.94,-3.77,35.67,-545,4725,6567,-1,-1,0
-28.95,-3.77,35.67,-541,4726,6570,-1,-1,0
-28.95,-3.77,35.67,-545,4728,6572,-1,-1,0
-28.95,-3.77,35.67,-543,4727,6577,-1,0,0
-28.95,-3.77,35.66,-544,4725,6582,-1,0,0
-28.95,-3.76,35.66,-545,4726,6582,-1,-1,0
-28.96,-3.76,35.65,-540,4716,6579,-1,-1,0
-28.97,-3.76,35.65,-540,4716,6591,-1,-1,0
-28.97,-3.76,35.65,-538,4718,6583,0,-1,-1
-28.96,-3.76,35.66,-543,4725,6581,0,0,-1
-28.96,-3.76,35.65,-547,4732,6575,-1,0,0
-28.96,-3.76,35.65,-547,4724,6574,-1,-1,0
-28.97,-3.76,35.64,-550,4720,6569,-1,-1,0
-28.97,-3.75,35.65,-538,4721,6566,0,-1,0
-28.97,-3.75,35.65,-535,4722,6561,-1,-1,0
-28.97,-3.75,35.65,-537,4725,6561,-1,-1,0
-28.98,-3.75,35.64,-535,4717,6563,-1,0,-1
-28.97,-3.75,35.63,-537,4713,6574,-1,0,-1
-28.97,-3.75,35.63,-543,4718,6582,0,-1,0
-28.98,-3.75,35.63,-549,4720,6579,0,-1,0
-28.98,-3.75,35.64,-549,4721,6576,0,-1,0
-28.98,-3.75,35.64,-547,4716,6567,0,-1,0
-28.98,-3.75,35.64,-540,4724,6566,0,-1,0
-28.98,-3.75,35.64,-542,4720,6562,-1,-1,-1
-28.98,-3.75,35.64,-543,4725,6570,-1,-1,-1
-28.99,-3.75,35.63,-544,4725,6570,-1,0,0
-28.99,-3.75,35.63,-541,4724,6577,-1,-1,0
-28.99,-3.75,35.63,-541,4714,6571,-1,-1,0
-28.99,-3.74,35.63,-534,4721,6573,-1,-1,0
-28.99,-3.74,35.63,-537,4714,6572,-1,-1,0
-28.99,-3.73,35.63,-537,4714,6572,-1,-1,-1
-28.99,-3.73,35.63,-528,4715,6579,-1,0,-1
-28.99,-3.73,35.63,-530,4715,6577,0,-1,-1
-28.99,-3.73,35.63,-534,4717,6575,0,-1,0
-28.99,-3.73,35.63,-545,4722,6573,0,-1,0
-28.99,-3.73,35.64,-543,4729,6565,-1,-1,0
-28.99,-3.73,35.64,-535,4727,6566,-1,-1,0
-28.99,-3.73,35.64,-534,4724,6562,0,-1,0
-28.99,-3.73,35.64,-532,4726,6562,0,-1,-1
-28.99,-3.74,35.64,-544,4727,6572,-1,0,0
-28.99,-3.74,35.63,-547,4718,6568,-1,-1,0
-28.99,-3.74,35.63,-542,4714,6561,-1,0,0
-29.00,-3.73,35.63,-537,4716,6577,0,-1,-1
-29.00,-3.73,35.63,-535,4722,6578,0,0,-1
-28.99,-3.73,35.64,-537,4728,6575,0,0,-1
-28.99,-3.73,35.64,-534,4728,6574,-1,-1,-1
-28.99,-3.73,35.63,-539,4718,6577,-1,-1,0
-28.99,-3.73,35.63,-538,4719,6580,-1,0,-1
-28.99,-3.73,35.63,-540,4722,6576,0,-1,-1
-28.99,-3.73,35.64,-536,4723,6560,-1,0,-1
-28.99,-3.74,35.64,-542,4724,6563,-1,-1,0
-28.99,-3.74,35.63,-543,4719,6561,-1,-1,0
-28.99,-3.73,35.63,-541,4717,6560,0,-1,0
-28.99,-3.73,35.63,-543,4714,6571,0,-1,0
-28.99,-3.73,35.64,-532,4713,6571,0,-1,-1
-28.99,-3.73,35.64,-534,4708,6571,0,0,-1
-28.99,-3.74,35.64,-534,4711,6570,0,0,-1
-28.98,-3.74,35.64,-544,4716,6574,0,0,-1
-28.98,-3.75,35.64,-546,4726,6575,-1,-1,0
-28.98,-3.75,35.64,-546,4720,6576,-1,-1,0
-28.99,-3.74,35.64,-539,4713,6580,0,-1,0
-28.99,-3.73,35.64,-539,4711,6583,-1,-1,-1
-28.99,-3.73,35.64,-530,4705,6575,0,0,-1
-28.98,-3.74,35.64,-534,4712,6573,0,0,-1
-28.98,-3.75,35.64,-542,4714,6577,0,0,-1
-28.98,-3.75,35.64,-548,4720,6577,0,0,-1
-28.97,-3.75,35.65,-547,4724,6575,-1,-1,0
-28.97,-3.75,35.65,-542,4721,6576,-1,-1,0
-28.98,-3.74,35.64,-539,4719,6575,0,-1,0
-28.97,-3.74,35.65,-533,4723,6563,0,0,-1
-28.97,-3.74,35.66,-538,4730,6554,-1,0,-1
-28.96,-3.74,35.66,-547,4723,6548,-1,0,0
-28.97,-3.74,35.65,-554,4723,6553,-1,-1,0
-28.97,-3.74,35.65,-550,4723,6563,-1,-1,0
-28.97,-3.74,35.65,-548,4727,6569,-1,-1,0
-28.97,-3.74,35.65,-542,4725,6567,-1,0,0
-28.97,-3.74,35.65,-531,4723,6568,-1,0,0
-28.97,-3.74,35.65,-533,4718,6567,0,0,-1
-28.97,-3.74,35.65,-538,4727,6566,-1,-1,-1
-28.97,-3.74,35.65,-539,4732,6563,-1,-1,0
-28.97,-3.74,35.65,-538,4728,6564,-1,-1,0
-28.97,-3.74,35.65,-535,4719,6562,0,-1,0
-28.97,-3.74,35.66,-542,4719,6560,0,-1,-1
-28.97,-3.74,35.66,-539,4726,6563,0,-1,-1
-28.97,-3.74,35.66,-538,4725,6565,-1,0,-1
-28.97,-3.74,35.66,-540,4725,6569,-1,-1,-1
-28.97,-3.74,35.65,-542,4722,6577,-1,-1,0
-28.97,-3.74,35.65,-538,4724,6582,-1,-1,0
-28.97,-3.74,35.65,-531,4733,6587,-1,-1,0
-28.97,-3.74,35.65,-538,4725,6577,-1,-1,0
-28.97,-3.74,35.65,-534,4723,6567,-1,-1,0
-28.97,-3.74,35.65,-536,4716,6567,0,0,-1
-28.97,-3.74,35.65,-547,4718,6566,-1,0,-1
-28.97,-3.74,35.65,-546,4720,6564,-1,-1,-1
-28.97,-3.75,35.65,-551,4725,6567,-1,0,0
-28.97,-3.75,35.65,-550,4718,6577,0,-1,0
-28.97,-3.74,35.65,-541,4726,6569,0,-1,-1
-28.97,-3.74,35.65,-540,4729,6557,-1,-1,-1
-28.97,-3.74,35.65,-539,4732,6562,-1,0,0
-28.97,-3.74,35.65,-544,4729,6568,-1,-1,0
-28.98,-3.74,35.65,-539,4723,6572,-1,-1,0
-28.98,-3.74,35.64,-537,4721,6569,-1,-1,0
-28.98,-3.74,35.64,-538,4724,6568,0,-1,-1
-28.98,-3.74,35.64,-541,4716,6565,-1,0,-1
-28.98,-3.74,35.64,-531,4714,6565,-1,0,-1
-28.98,-3.74,35.64,-542,4707,6569,-1,0,-1
-28.98,-3.75,35.64,-549,4716,6571,-1,0,-1
-28.98,-3.75,35.64,-546,4721,6578,-1,0,0
-28.98,-3.75,35.64,-542,4724,6577,-1,-1,0
-28.99,-3.74,35.64,-538,4715,6574,-1,-1,0
-28.99,-3.74,35.64,-534,4713,6563,0,-1,0
-28.99,-3.74,35.64,-534,4716,6557,0,-1,-1
-28.98,-3.74,35.64,-536,4720,6559,-1,0,-1
-28.98,-3.75,35.64,-538,4718,6563,-1,0,-1
-28.98,-3.75,35.64,-535,4720,6569,-1,0,-1
-28.98,-3.75,35.64,-537,4719,6576,-1,-1,0
-28.99,-3.75,35.64,-541,4722,6575,-1,-1,0
-28.99,-3.74,35.63,-536,4715,6573,-1,-1,0
-28.99,-3.74,35.64,-526,4707,6563,0,-1,-1
-28.99,-3.74,35.64,-538,4707,6569,0,0,-1
-28.98,-3.75,35.64,-539,4715,6569,-1,-1,-1
-28.99,-3.75,35.63,-545,4713,6566,-1,0,0
-28.99,-3.75,35.63,-547,4716,6571,0,-1,0
-28.99,-3.74,35.64,-537,4716,6569,0,-1,-1
-28.99,-3.74,35.64,-538,4722,6557,-1,-1,0
-28.99,-3.74,35.64,-538,4721,6557,-1,-1,0
-28.99,-3.74,35.64,-538,4716,6563,-1,0,0
-28.99,-3.74,35.64,-533,4715,6569,-1,0,-1
-28.99,-3.74,35.64,-538,4714,6576,-1,-1,-1
-28.98,-3.75,35.64,-537,4714,6573,0,0,-1
-28.99,-3.75,35.64,-543,4718,6571,-1,0,0
-28.99,-3.74,35.63,-534,4712,6571,-1,0,0
-28.99,-3.74,35.64,-534,4719,6561,-1,-1,0
-28.99,-3.74,35.64,-533,4717,6561,-1,-1,-1
-28.99,-3.74,35.64,-543,4726,6572,-1,-1,0
-28.99,-3.74,35.63,-547,4724,6580,-1,-1,-1
-28.99,-3.74,35.63,-540,4715,6574,0,-1,-1
-28.99,-3.74,35.63,-544,4720,6573,0,-1,0
-28.99,-3.74,35.64,-542,4726,6572,0,-1,0
-28.99,-3.74,35.64,-537,4729,6558,-1,0,-1
-28.99,-3.74,35.64,-539,4726,6553,-1,0,-1
-28.98,-3.75,35.64,-542,4717,6565,-1,0,-1
-28.99,-3.75,35.63,-543,4727,6578,-1,0,0
-28.99,-3.75,35.63,-553,4717,6576,-1,-1,0
-28.99,-3.74,35.63,-547,4711,6573,0,-1,0
-28.99,-3.74,35.63,-541,4716,6575,-1,-1,0
-28.99,-3.74,35.63,-540,4711,6574,-1,0,0
-28.99,-3.74,35.63,-533,4707,6571,-1,0,-1
-29.00,-3.74,35.62,-542,4711,6574,-1,0,-1
-28.99,-3.74,35.62,-543,4715,6578,0,-1,-1
-28.99,-3.75,35.63,-550,4726,6566,0,-1,0
-28.99,-3.75,35.63,-551,4725,6583,-1,-1,0
-28.99,-3.74,35.63,-543,4717,6579,-1,-1,0
-28.99,-3.74,35.63,-535,4718,6573,-1,0,0
-28.99,-3.74,35.63,-533,4709,6568,0,0,-1
-28.99,-3.74,35.63,-532,4714,6574,0,0,-1
-28.99,-3.75,35.63,-548,4726,6575,-1,0,0
-28.99,-3.75,35.63,-551,4730,6574,-1,-1,0
-28.99,-3.75,35.63,-553,4725,6575,-1,-1,0
-28.99,-3.75,35.63,-549,4718,6561,-1,-1,0
-29.00,-3.74,35.62,-539,4723,6561,-1,-1,0
-28.99,-3.75,35.63,-543,4722,6567,-1,-1,0
-28.99,-3.75,35.63,-542,4718,6571,-1,0,-1
-28.99,-3.75,35.63,-552,4718,6580,-1,-1,-1
-28.99,-3.75,35.63,-554,4717,6577,-1,-1,-1
-28.99,-3.75,35.63,-549,4721,6568,-1,-1,0
-28.99,-3.75,35.63,-547,4723,6567,0,-1,0
-28.99,-3.75,35.63,-543,4722,6567,0,-1,0
-28.99,-3.75,35.63,-544,4716,6569,0,-1,0
-28.99,-3.75,35.63,-544,4717,6574,-1,-1,0
-28.99,-3.75,35.63,-544,4713,6573,-1,0,0
-29.00,-3.75,35.63,-543,4714,6572,-1,0,0
-29.00,-3.75,35.63,-543,4717,6580,0,-1,0
-29.00,-3.74,35.62,-529,4710,6581,0,-1,-1
-28.99,-3.75,35.63,-534,4719,6577,0,0,-1
-28.99,-3.75,35.63,-545,4724,6577,0,-1,0
-28.99,-3.75,35.63,-538,4718,6580,0,-1,-1
-28.99,-3.74,35.63,-534,4714,6578,0,0,0
-28.99,-3.75,35.63,-541,4715,6579,0,-1,-1
-28.99,-3.75,35.64,-542,4724,6566,0,0,-1
-28.98,-3.75,35.64,-549,4731,6572,-1,0,-1
-28.98,-3.75,35.64,-546,4731,6575,-1,-1,0
-28.98,-3.76,35.64,-540,4723,6576,-1,-1,0
-28.99,-3.75,35.63,-541,4720,6574,-1,-1,0
-28.99,-3.75,35.63,-540,4721,6569,-1,0,-1
-28.98,-3.76,35.64,-536,4717,6574,0,0,-1
-28.99,-3.75,35.64,-541,4723,6576,-1,0,0
-28.99,-3.75,35.64,-545,4721,6575,-1,-1,0
-28.99,-3.75,35.64,-538,4717,6564,0,0,-1
-28.98,-3.76,35.64,-541,4721,6568,-1,0,-1
-28.98,-3.76,35.63,-541,4722,6570,-1,0,-1
-28.98,-3.76,35.63,-547,4720,6567,-1,0,-1
-28.98,-3.77,35.63,-550,4716,6572,0,-1,0
-28.99,-3.77,35.63,-544,4716,6573,0,-1,0
-28.99,-3.76,35.63,-537,4710,6568,-1,0,0
-28.99,-3.77,35.63,-537,4709,6560,-1,0,-1
-28.99,-3.78,35.62,-540,4715,6567,-1,0,-1
-28.98,-3.79,35.62,-546,4720,6568,-1,0,-1
-28.98,-3.79,35.63,-554,4721,6566,0,0,-1
-28.97,-3.80,35.63,-556,4718,6577,0,-1,-1
-28.97,-3.79,35.63,-553,4718,6571,0,0,-1
-28.96,-3.80,35.64,-543,4721,6572,0,0,-1
-28.96,-3.80,35.65,-536,4733,6572,0,0,-1
-28.96,-3.80,35.66,-541,4729,6568,0,0,-1
-28.95,-3.81,35.66,-544,4723,6566,0,0,-1
-28.95,-3.81,35.66,-542,4720,6562,0,-1,-1
-28.95,-3.82,35.66,-547,4727,6559,0,0,-1
-28.95,-3.82,35.66,-546,4727,6565,-1,-1,0
-28.95,-3.82,35.66,-547,4725,6567,0,-1,0
-28.95,-3.81,35.67,-540,4718,6563,0,-1,0
-28.95,-3.81,35.67,-535,4717,6566,0,0,-1
-28.94,-3.81,35.68,-548,4715,6564,0,0,-1
-28.93,-3.82,35.69,-551,4719,6560,0,0,-1
-28.93,-3.82,35.69,-551,4721,6557,-1,0,0
-28.93,-3.82,35.69,-546,4720,6564,0,-1,0
-28.93,-3.82,35.69,-550,4715,6554,0,-1,0
-28.92,-3.82,35.70,-551,4717,6549,0,-1,0
-28.92,-3.82,35.70,-554,4724,6553,0,0,0
-28.92,-3.82,35.70,-554,4730,6557,-1,-1,0
-28.93,-3.82,35.70,-550,4726,6555,0,-1,0
-28.93,-3.82,35.70,-548,4721,6549,-1,-1,0
-28.93,-3.82,35.70,-543,4725,6544,-1,-1,0
-28.93,-3.81,35.70,-543,4721,6561,-1,0,0
-28.93,-3.81,35.70,-543,4727,6568,-1,0,0
-28.94,-3.81,35.70,-548,4732,6566,0,-1,0
-28.94,-3.81,35.70,-540,4726,6570,-1,-1,0
-28.94,-3.81,35.70,-551,4718,6560,-1,0,0
-28.94,-3.81,35.70,-549,4716,6563,0,-1,0
-28.94,-3.81,35.70,-550,4711,6555,0,0,-1
-28.93,-3.82,35.70,-545,4719,6559,0,-1,-1
-28.93,-3.82,35.71,-550,4729,6566,-1,-1,-1
-28.93,-3.82,35.70,-547,4721,6566,0,-1,0
-28.93,-3.82,35.70,-553,4712,6567,0,0,0
-28.93,-3.81,35.71,-546,4716,6569,0,-1,0
-28.93,-3.82,35.72,-546,4732,6563,0,0,-1
-28.93,-3.82,35.72,-551,4738,6563,-1,0,-1
-28.93,-3.82,35.71,-545,4728,6565,-1,-1,0
-28.93,-3.82,35.71,-552,4724,6570,-1,0,0
-28.93,-3.82,35.71,-549,4719,6565,-1,-1,0
-28.94,-3.81,35.71,-547,4721,6564,0,-1,0
-28.94,-3.80,35.71,-538,4726,6570,0,0,0
-28.94,-3.80,35.71,-543,4717,6560,-1,-1,0
-28.94,-3.80,35.71,-538,4715,6569,-1,0,-1
-28.94,-3.81,35.70,-544,4717,6576,0,0,-1
-28.94,-3.81,35.70,-556,4723,6577,-1,-1,0
-28.94,-3.81,35.70,-555,4721,6580,-1,-1,0
-28.94,-3.81,35.70,-555,4724,6572,-1,-1,0
-28.94,-3.80,35.70,-547,4711,6560,0,-1,0
-28.94,-3.80,35.71,-541,4711,6565,0,-1,0
-28.94,-3.80,35.71,-541,4724,6558,0,-1,-1
-28.94,-3.80,35.71,-542,4723,6554,-1,0,0
-28.94,-3.81,35.71,-547,4725,6558,-1,0,0
-28.94,-3.81,35.70,-551,4726,6557,-1,0,0
-28.94,-3.81,35.70,-545,4725,6567,-1,-1,0
-28.95,-3.80,35.70,-541,4720,6581,-1,-1,0
-28.95,-3.79,35.70,-539,4714,6581,-1,-1,0
-28.96,-3.80,35.69,-540,4714,6577,0,0,-1
-28.95,-3.80,35.70,-539,4721,6577,0,0,-1
-28.95,-3.80,35.70,-549,4727,6582,-1,0,-1
-28.95,-3.80,35.69,-556,4720,6583,-1,0,0
-28.95,-3.80,35.69,-557,4718,6580,0,-1,0
-28.95,-3.80,35.69,-554,4715,6575,0,-1,-1
-28.95,-3.80,35.70,-554,4722,6578,0,-1,0
-28.95,-3.80,35.70,-547,4726,6574,-1,0,0
-28.95,-3.80,35.70,-537,4725,6569,-1,-1,0
-28.95,-3.80,35.69,-539,4723,6570,-1,0,0
-28.95,-3.80,35.69,-542,4719,6573,-1,0,0
-28.95,-3.80,35.69,-540,4722,6570,0,-1,0
-28.96,-3.80,35.69,-539,4721,6564,0,0,0
-28.96,-3.80,35.69,-534,4716,6564,-1,0,0
-28.96,-3.80,35.69,-543,4716,6566,0,-1,0
-28.96,-3.80,35.68,-544,4705,6568,0,0,-1
-28.96,-3.80,35.68,-543,4709,6568,-1,0,0
-28.96,-3.80,35.68,-540,4707,6575,-1,0,0
-28.96,-3.80,35.68,-534,4712,6576,0,-1,-1
-28.96,-3.80,35.68,-534,4721,6583,0,-1,0
-28.96,-3.80,35.68,-527,4722,6575,0,0,0
-28.96,-3.80,35.68,-536,4721,6565,-1,0,0
-28.96,-3.80,35.68,-531,4723,6563,-1,0,-1
-28.97,-3.80,35.68,-541,4712,6579,0,0,0
-28.97,-3.80,35.67,-559,4720,6570,-1,-1,-1
-28.61,-3.73,36.12,-2015,4992,6484,15,-32,4
-29.59,-2.12,35.72,-940,4029,7562,-5,-42,52
-30.32,-1.05,35.82,1095,3906,6387,22,17,2
-29.76,-1.90,36.56,871,4878,6037,17,28,-30
-28.87,-2.97,37.03,-91,5503,6072,5,17,-27
-28.50,-3.39,36.74,-485,5727,6071,-25,0,-12
-28.58,-3.60,36.11,-521,5279,6126,-21,6,-5
-28.74,-3.81,35.71,-720,4792,6627,-10,5,1
-28.88,-3.85,35.45,-801,4434,6915,-4,-1,1
-28.89,-3.79,35.34,-775,4320,7016,1,-6,0
-28.84,-3.69,35.43,-635,4288,6861,7,-3,0
-28.79,-3.64,35.64,-552,4423,6604,7,-1,1
-28.78,-3.60,35.83,-506,4651,6399,4,-1,1
-28.78,-3.57,35.93,-454,4870,6334,-1,0,0
-28.79,-3.57,35.90,-425,4994,6405,-4,0,-1
-28.81,-3.61,35.78,-443,4984,6539,-5,1,-2
-28.81,-3.66,35.66,-521,4816,6670,-4,0,-2
-28.83,-3.68,35.59,-581,4616,6732,0,-1,0
-28.82,-3.66,35.62,-582,4522,6692,3,-2,1
-28.81,-3.62,35.72,-524,4585,6558,3,-1,0
-28.79,-3.61,35.81,-501,4700,6442,1,0,0
-28.78,-3.61,35.82,-472,4793,6417,-2,0,-1
-28.79,-3.64,35.78,-491,4839,6503,-3,0,-1
-28.79,-3.66,35.71,-524,4817,6608,-3,0,-1
-28.80,-3.67,35.67,-561,4727,6667,-1,-1,0
-28.81,-3.65,35.66,-552,4638,6641,1,-1,0
-28.81,-3.62,35.72,-510,4623,6565,2,-1,0
-28.80,-3.61,35.77,-483,4688,6500,1,0,0
-28.79,-3.61,35.79,-477,4760,6469,-1,0,-1
-28.80,-3.63,35.77,-493,4778,6514,-2,0,-1
-28.80,-3.65,35.73,-517,4763,6582,-2,0,-1
-28.80,-3.66,35.70,-548,4739,6652,-1,-1,-1
-28.80,-3.65,35.69,-549,4691,6650,0,-1,0
-28.82,-3.63,35.70,-526,4663,6598,1,-1,0
-28.82,-3.61,35.74,-491,4675,6543,1,-1,0
-28.80,-3.62,35.77,-476,4732,6511,0,0,-1
-28.79,-3.64,35.77,-496,4776,6512,-1,0,-1
-28.79,-3.66,35.74,-532,4772,6547,-2,0,-1
-28.80,-3.65,35.72,-544,4746,6596,-1,-1,0
-28.80,-3.65,35.72,-544,4723,6614,0,-1,0
-28.81,-3.64,35.72,-528,4704,6594,0,-1,0
-28.81,-3.62,35.74,-494,4690,6555,0,-1,0
-28.81,-3.62,35.76,-487,4706,6531,0,0,-1
-28.79,-3.64,35.75,-496,4735,6538,-1,0,-1
-28.78,-3.65,35.74,-526,4737,6566,-1,0,-1
-28.79,-3.65,35.73,-540,4731,6594,-1,-1,0
-28.79,-3.65,35.73,-544,4729,6605,0,-1,0
-28.79,-3.64,35.74,-529,4734,6580,0,-1,0
-28.78,-3.64,35.75,-514,4727,6543,0,-1,0
-28.78,-3.64,35.76,-507,4715,6529,0,0,-1
-28.78,-3.64,35.76,-509,4729,6535,-1,0,-1
-28.78,-3.66,35.75,-523,4741,6545,-1,0,-1
-28.77,-3.66,35.74,-535,4739,6573,-1,0,0
-28.78,-3.66,35.74,-535,4719,6587,0,-1,0
-28.78,-3.66,35.74,-532,4715,6581,0,-1,0
-28.78,-3.65,35.75,-522,4728,6567,0,-1,0
-28.78,-3.65,35.75,-515,4721,6556,-1,0,-1
-28.79,-3.66,35.74,-505,4706,6559,0,0,-1
-28.77,-3.66,35.74,-513,4720,6561,0,0,-1
-28.77,-3.67,35.75,-524,4738,6571,-1,0,-1
-28.77,-3.67,35.75,-532,4736,6574,-1,-1,0
-28.77,-3.66,35.74,-520,4711,6577,0,-1,0
-28.78,-3.66,35.75,-512,4717,6568,0,-1,-1
-28.76,-3.67,35.77,-510,4734,6551,0,0,-1
-28.77,-3.67,35.76,-516,4732,6545,-1,0,-1
-28.77,-3.67,35.76,-514,4730,6557,-1,0,0
-28.77,-3.67,35.75,-515,4721,6575,-1,0,-1
-28.78,-3.67,35.74,-517,4719,6583,-1,0,0
-28.78,-3.67,35.74,-520,4710,6583,0,-1,0
-28.78,-3.67,35.74,-519,4720,6569,0,0,0
-28.78,-3.67,35.75,-510,4727,6560,0,0,0
-28.77,-3.67,35.75,-507,4727,6564,-1,0,-1
-28.77,-3.68,35.74,-511,4725,6567,-1,0,-1
-28.77,-3.68,35.74,-510,4730,6575,-1,0,-1
-28.77,-3.68,35.74,-519,4729,6568,-1,0,-1
-28.77,-3.68,35.74,-517,4727,6577,0,0,0
-28.77,-3.68,35.74,-517,4724,6572,0,-1,0
-28.77,-3.67,35.75,-515,4720,6567,0,-1,0
-28.77,-3.67,35.75,-510,4729,6559,-1,0,-1
-28.77,-3.68,35.74,-511,4734,6575,-1,0,-1
-28.77,-3.68,35.74,-513,4725,6571,-1,0,-1
-28.77,-3.69,35.74,-538,4731,6593,-1,-1,0
-28.77,-3.69,35.75,-532,4720,6588,0,-1,0
-28.77,-3.68,35.76,-513,4748,6570,0,-1,0
-28.76,-3.67,35.76,-497,4731,6548,-1,0,-1
-28.76,-3.69,35.75,-520,4717,6568,0,-1,-1
-28.76,-3.69,35.75,-522,4718,6577,0,0,0
-28.76,-3.69,35.75,-522,4720,6575,0,-1,-1
-28.75,-3.69,35.76,-532,4726,6566,0,-1,-1
-28.75,-3.69,35.76,-530,4732,6572,-1,-1,0
-28.75,-3.69,35.76,-525,4733,6565,-1,-1,0
-28.76,-3.68,35.76,-515,4727,6559,-1,0,0
-28.76,-3.68,35.75,-517,4715,6566,-1,-1,0
-28.76,-3.68,35.75,-520,4715,6570,-1,-1,-1
-28.76,-3.68,35.75,-520,4725,6572,0,0,-1
-28.76,-3.68,35.75,-523,4736,6568,0,0,0
-28.76,-3.68,35.75,-528,4720,6567,0,-1,0
-28.76,-3.68,35.75,-518,4717,6561,0,-1,-1
-28.76,-3.68,35.75,-516,4725,6557,0,0,0
-28.76,-3.68,35.75,-520,4729,6557,-1,-1,0
-28.76,-3.68,35.75,-514,4725,6557,-1,0,0
-28.76,-3.68,35.75,-520,4728,6560,-1,0,0
-28.76,-3.68,35.75,-519,4727,6567,0,-1,0
-28.76,-3.68,35.75,-517,4725,6557,-1,0,0
-28.77,-3.67,35.75,-518,4723,6565,-1,-1,0
-28.77,-3.68,35.74,-521,4728,6566,-1,0,0
-28.77,-3.68,35.74,-530,4732,6567,-1,0,0
-28.77,-3.68,35.74,-522,4733,6562,-1,0,0
-28.77,-3.68,35.74,-524,4732,6574,-1,-1,0
-28.77,-3.67,35.74,-518,4728,6585,0,-1,0
-28.77,-3.67,35.75,-508,4722,6574,0,-1,-1
-28.77,-3.67,35.75,-512,4722,6568,0,0,-1
-28.77,-3.67,35.75,-519,4727,6565,-1,0,-1
-28.77,-3.68,35.74,-525,4720,6565,-1,0,0
-28.77,-3.68,35.73,-532,4721,6577,-1,-1,0
-28.77,-3.67,35.73,-523,4715,6574,0,-1,0
-28.77,-3.67,35.74,-521,4726,6574,0,-1,0
-28.78,-3.67,35.74,-510,4728,6579,-1,-1,0
-28.78,-3.66,35.73,-504,4719,6569,-1,0,-1
-28.78,-3.66,35.73,-513,4712,6558,-1,0,-1
-28.78,-3.67,35.73,-517,4712,6573,0,0,-1
-28.77,-3.67,35.72,-527,4722,6571,0,0,-1
-28.77,-3.67,35.72,-529,4728,6584,0,0,0
-28.78,-3.67,35.72,-526,4723,6582,-1,-1,0
-28.78,-3.67,35.72,-515,4714,6568,0,-1,0
-28.78,-3.66,35.73,-508,4720,6560,0,-1,-1
-28.78,-3.67,35.73,-508,4727,6565,0,0,-1
-28.78,-3.67,35.73,-511,4735,6566,-1,0,-1
-28.78,-3.67,35.73,-516,4728,6571,-1,0,-1
-28.78,-3.67,35.72,-523,4720,6567,-1,0,0
-28.78,-3.67,35.72,-523,4728,6561,-1,-1,0
-28.78,-3.67,35.72,-518,4728,6558,-1,-1,0
-28.78,-3.67,35.72,-515,4725,6562,-1,0,-1
-28.78,-3.67,35.72,-519,4722,6568,0,0,-1
-28.78,-3.67,35.72,-517,4716,6563,0,0,-1
-28.78,-3.67,35.72,-518,4720,6564,0,0,-1
-28.78,-3.67,35.73,-523,4728,6560,0,-1,0
-28.78,-3.67,35.73,-527,4731,6561,0,-1,0
-28.78,-3.67,35.73,-524,4729,6555,0,0,0
-28.78,-3.67,35.73,-520,4722,6558,0,0,0
-28.78,-3.67,35.73,-525,4729,6568,-1,-1,0
-28.78,-3.67,35.73,-523,4727,6562,0,0,0
-28.78,-3.67,35.74,-524,4733,6566,0,0,-1
-28.78,-3.68,35.73,-526,4734,6564,-1,0,0
-28.78,-3.67,35.73,-519,4724,6563,-1,-1,-1
-28.78,-3.67,35.73,-519,4716,6572,-1,0,0
-28.78,-3.67,35.72,-515,4716,6577,0,-1,-1
-28.78,-3.66,35.73,-507,4722,6563,0,0,-1
-28.78,-3.67,35.73,-519,4732,6562,0,0,-1
-28.77,-3.67,35.73,-526,4726,6562,-1,-1,0
-28.77,-3.67,35.73,-526,4724,6562,0,0,0
-28.78,-3.67,35.73,-521,4721,6562,0,0,0
-28.78,-3.67,35.73,-520,4720,6561,0,0,-1
-28.78,-3.67,35.73,-518,4715,6560,0,-1,-1
-28.78,-3.67,35.74,-516,4729,6558,0,0,0
-28.78,-3.67,35.73,-517,4727,6557,-1,-1,0
-28.78,-3.67,35.73,-518,4716,6555,0,-1,0
-28.78,-3.67,35.73,-518,4720,6555,0,0,0
-28.78,-3.67,35.73,-517,4725,6562,-1,-1,0
-28.78,-3.67,35.73,-520,4724,6567,-1,0,0
-28.78,-3.67,35.73,-516,4720,6573,0,0,-1
-28.78,-3.67,35.73,-515,4721,6569,0,0,-1
-28.78,-3.67,35.74,-511,4731,6559,0,0,0
-28.78,-3.67,35.74,-524,4728,6560,0,-1,0
-28.78,-3.67,35.74,-522,4722,6560,-1,0,0
-28.78,-3.67,35.74,-518,4717,6568,0,0,0
-28.78,-3.67,35.73,-520,4717,6574,-1,0,-1
-28.78,-3.67,35.73,-519,4719,6570,-1,0,-1
-28.78,-3.67,35.73,-524,4724,6577,0,0,0
-28.78,-3.67,35.73,-522,4721,6568,-1,-1,0
-28.78,-3.67,35.73,-511,4708,6571,0,-1,-1
-28.70,-3.68,35.84,-592,4772,6484,6,-2,-3
-28.59,-3.64,35.91,-526,4753,6702,1,-4,-1
-28.64,-3.60,35.91,-471,4837,6568,-2,0,0
-28.66,-3.59,35.86,-449,4706,6528,-2,0,-1
-28.67,-3.61,35.81,-471,4637,6508,-1,1,-2
-28.65,-3.65,35.80,-526,4637,6540,0,0,-1
-28.66,-3.67,35.80,-530,4728,6589,-1,0,0
-28.68,-3.67,35.79,-550,4789,6599,-1,0,0
-28.71,-3.65,35.78,-530,4778,6616,-1,-1,0
-28.73,-3.63,35.77,-510,4741,6598,0,-1,0
-28.73,-3.63,35.78,-497,4708,6540,0,-1,-1
-28.72,-3.64,35.78,-504,4700,6519,-1,0,-1
-28.72,-3.66,35.77,-517,4718,6548,-1,0,-1
-28.72,-3.67,35.76,-530,4741,6590,-1,0,-1
-28.72,-3.67,35.76,-535,4761,6607,0,-1,0
-28.73,-3.66,35.77,-536,4754,6597,0,-1,0
-28.74,-3.65,35.77,-517,4731,6573,0,-1,0
-28.74,-3.64,35.77,-503,4711,6559,0,0,0
-28.74,-3.65,35.77,-502,4712,6546,-1,0,-1
-28.74,-3.65,35.77,-507,4732,6552,-1,0,-1
-28.73,-3.66,35.76,-516,4744,6569,-1,0,-1
-28.74,-3.66,35.75,-530,4743,6589,-1,-1,0
-28.75,-3.65,35.74,-521,4734,6585,0,-1,0
-28.75,-3.65,35.75,-524,4720,6566,0,-1,0
-28.75,-3.64,35.76,-504,4705,6547,0,0,0
-28.74,-3.65,35.77,-504,4710,6543,0,0,-1
-28.74,-3.65,35.77,-504,4731,6541,-1,0,-1
-28.75,-3.65,35.76,-511,4746,6562,-1,0,0
-28.75,-3.65,35.74,-522,4731,6585,-1,-1,0
-28.75,-3.64,35.75,-515,4722,6584,0,-1,0
-28.75,-3.64,35.76,-515,4724,6578,0,-1,0
-28.75,-3.64,35.76,-507,4726,6561,0,0,0
-28.75,-3.64,35.76,-509,4728,6547,-1,0,-1
-28.76,-3.65,35.75,-511,4732,6556,-1,0,-1
-28.75,-3.65,35.74,-519,4731,6581,-1,0,0
-28.76,-3.65,35.74,-519,4724,6585,-1,0,-1
-28.76,-3.65,35.74,-523,4718,6584,0,-1,0
-28.76,-3.64,35.73,-519,4723,6580,0,-1,0
-28.76,-3.64,35.74,-517,4721,6566,0,-1,-1
-28.75,-3.65,35.74,-517,4729,6566,-1,0,-1
-28.75,-3.65,35.74,-519,4736,6566,-1,0,-1
-28.76,-3.65,35.74,-516,4731,6570,-1,0,0
-28.76,-3.65,35.74,-520,4727,6574,-1,-1,0
-28.76,-3.64,35.73,-518,4722,6578,0,-1,0
-28.76,-3.64,35.74,-513,4721,6561,0,0,0
