Yaw,Pitch,Roll,AX,AY,AZ,GX,GY,GZ
-30.98,-3.75,42.27,-509,5421,5982,0,0,-1
-30.97,-3.77,42.27,-525,5423,5992,0,0,-1
-30.97,-3.77,42.27,-528,5428,5976,-1,0,-1
-30.96,-3.78,42.27,-522,5427,5969,0,0,-1
-30.96,-3.79,42.28,-534,5434,5982,0,0,-1
-30.95,-3.79,42.27,-535,5437,5976,-1,-1,-1
-30.96,-3.79,42.27,-531,5435,5970,-1,0,0
-30.96,-3.79,42.26,-530,5426,5983,-1,0,0
-30.98,-3.79,42.25,-523,5420,5968,-1,0,-1
-30.98,-3.79,42.25,-530,5417,5977,0,0,0
-30.97,-3.79,42.24,-528,5423,5988,-1,0,-1
-30.97,-3.79,42.24,-532,5431,5983,-1,0,-1
-30.98,-3.80,42.24,-535,5435,5983,-1,0,-1
-30.98,-3.80,42.22,-539,5416,5990,-1,0,0
-30.99,-3.80,42.22,-535,5408,5996,0,0,-1
-30.99,-3.81,42.22,-534,5419,5995,0,0,-1
-30.99,-3.81,42.23,-527,5426,5985,0,0,-1
-30.98,-3.81,42.23,-532,5428,5986,0,0,-1
-30.98,-3.82,42.22,-538,5423,5979,0,0,-1
-30.97,-3.83,42.23,-546,5426,5986,0,0,-1
-30.96,-3.84,42.23,-545,5423,5985,0,0,-1
-30.97,-3.83,42.24,-543,5429,5972,0,0,-1
-30.97,-3.83,42.24,-539,5433,5979,-1,0,-1
-30.97,-3.83,42.24,-538,5428,5982,0,0,-1
-30.96,-3.84,42.24,-539,5420,5973,0,0,-1
-30.95,-3.85,42.24,-536,5423,5970,0,0,-1
-30.94,-3.85,42.24,-543,5425,5970,0,-1,-1
-30.94,-3.85,42.24,-530,5432,5975,0,0,-1
-30.94,-3.85,42.25,-542,5431,5981,0,-1,-1
-30.92,-3.86,42.26,-542,5427,5977,0,-1,-1
-30.92,-3.85,42.26,-539,5429,5981,0,-1,-1
-30.92,-3.86,42.27,-547,5432,5983,0,-1,-1
-30.92,-3.86,42.26,-553,5415,5988,0,-1,0
-30.91,-3.86,42.26,-544,5419,5977,0,-1,-1
-30.91,-3.86,42.27,-546,5434,5967,0,-1,-1
-30.91,-3.86,42.27,-546,5443,5972,-1,-1,-1
-30.91,-3.85,42.28,-546,5437,5968,-1,-1,0
-30.91,-3.85,42.28,-541,5430,5961,0,-1,0
-30.91,-3.85,42.28,-539,5422,5971,0,-1,-1
-30.91,-3.85,42.28,-532,5415,5974,0,-1,-1
-30.91,-3.85,42.28,-532,5416,5973,0,0,-1
-30.91,-3.84,42.28,-530,5420,5983,0,-1,0
-30.90,-3.84,42.28,-532,5427,5970,0,0,-1
-30.90,-3.84,42.29,-539,5438,5964,0,0,-1
-30.90,-3.85,42.28,-543,5436,5969,-1,0,-1
-30.90,-3.84,42.28,-538,5428,5975,-1,-1,-1
-30.90,-3.84,42.28,-536,5430,5978,0,-1,0
-30.90,-3.84,42.28,-533,5437,5984,0,-1,0
-30.90,-3.83,42.29,-534,5437,5982,0,-1,0
-30.91,-3.83,42.28,-533,5436,5978,-1,-1,0
-30.91,-3.82,42.28,-529,5430,5958,0,-1,-1
-30.90,-3.83,42.29,-538,5426,5969,-1,0,-1
-30.91,-3.84,42.28,-544,5423,5967,0,0,-1
-30.91,-3.84,42.28,-548,5418,5973,-1,0,0
-30.90,-3.83,42.29,-550,5430,5978,0,-1,0
-30.90,-3.83,42.29,-546,5429,5968,0,-1,0
-30.91,-3.82,42.29,-536,5432,5975,-1,-1,0
-30.91,-3.82,42.29,-536,5427,5966,0,-1,0
-30.92,-3.82,42.29,-534,5428,5969,-1,-1,-1
-30.92,-3.82,42.29,-537,5434,5983,-1,-1,-1
-30.91,-3.81,42.28,-536,5432,5972,0,-1,-1
-30.91,-3.80,42.28,-523,5439,5981,-1,0,-1
-30.92,-3.81,42.28,-534,5434,5980,-1,-1,-1
-30.92,-3.81,42.28,-525,5428,5979,0,0,-1
-30.91,-3.81,42.28,-533,5426,5976,0,-1,-1
-30.90,-3.81,42.29,-538,5438,5980,0,0,-1
-30.91,-3.81,42.28,-537,5435,5974,-1,-1,-1
-30.90,-3.81,42.28,-529,5423,5973,-1,0,-1
-30.90,-3.81,42.28,-531,5425,5985,0,0,-1
-30.90,-3.81,42.28,-543,5421,5984,-1,-1,0
-30.91,-3.80,42.27,-535,5429,5987,-1,-1,0
-30.92,-3.79,42.27,-528,5425,5975,-1,-1,0
-30.94,-3.78,42.26,-523,5426,5985,-1,-1,0
-30.95,-3.77,42.24,-516,5420,5986,-1,-1,0
-30.95,-3.76,42.24,-523,5417,5988,-1,-1,0
-30.96,-3.76,42.24,-533,5421,5999,-1,0,0
-30.97,-3.76,42.23,-540,5423,5991,0,-1,0
-30.98,-3.76,42.23,-536,5421,5987,-1,-1,0
-30.98,-3.75,42.22,-534,5424,5977,-1,-1,0
-30.98,-3.74,42.23,-531,5429,5969,-1,-1,0
-30.99,-3.74,42.23,-534,5429,5964,-1,-1,0
-30.99,-3.73,42.22,-524,5431,5972,-1,-1,0
-31.00,-3.73,42.23,-525,5430,5972,-1,0,0
-31.00,-3.73,42.23,-525,5424,5970,0,-1,0
-31.00,-3.73,42.23,-526,5423,5975,-1,-1,0
-31.01,-3.72,42.22,-522,5432,5974,-1,0,0
-31.02,-3.72,42.22,-533,5433,5978,-1,-1,0
-31.02,-3.71,42.21,-525,5425,5983,-1,-1,0
-31.03,-3.71,42.21,-527,5424,5979,-1,-1,0
-31.03,-3.70,42.21,-518,5428,5985,-1,-1,0
-31.04,-3.69,42.21,-518,5420,5984,0,-1,0
-31.04,-3.69,42.21,-517,5429,5990,0,-1,0
-31.03,-3.69,42.21,-526,5428,5988,0,-1,0
-31.03,-3.69,42.21,-528,5432,5987,-1,-1,0
-31.03,-3.69,42.21,-528,5428,5976,-1,0,0
-31.04,-3.69,42.21,-528,5417,5978,-1,-1,0
-31.06,-3.68,42.21,-525,5419,5966,-1,-1,0
-31.06,-3.68,42.20,-519,5418,5972,-1,-1,0
-31.07,-3.67,42.20,-519,5422,5982,-1,-1,0
-31.08,-3.66,42.20,-521,5422,5985,-1,-1,0
-31.08,-3.66,42.19,-516,5413,5990,-1,-1,0
-31.08,-3.66,42.19,-518,5418,5981,0,-1,-1
-31.08,-3.66,42.19,-522,5424,5983,0,-1,0
-31.08,-3.66,42.19,-531,5415,5977,0,-1,0
-31.09,-3.65,42.19,-533,5419,5982,-1,-1,0
-31.10,-3.65,42.19,-526,5418,5985,-1,-1,0
-31.10,-3.64,42.18,-523,5423,5979,0,-1,0
-31.10,-3.63,42.19,-523,5427,5969,-1,-1,0
-31.11,-3.63,42.18,-515,5425,5972,-1,-1,0
-31.11,-3.63,42.18,-515,5422,5973,-1,-1,0
-31.12,-3.62,42.17,-514,5410,5979,0,-1,0
-31.12,-3.62,42.18,-511,5404,5978,0,-1,-1
-31.12,-3.62,42.18,-509,5413,5987,0,0,-1
-31.12,-3.62,42.18,-513,5419,5991,0,-1,0
-31.12,-3.61,42.17,-508,5421,5992,-1,0,0
-31.12,-3.61,42.17,-512,5420,5978,0,-1,0
-31.12,-3.61,42.18,-515,5421,5984,-1,-1,0
-31.13,-3.60,42.18,-505,5427,5992,-1,0,0
-31.14,-3.60,42.17,-518,5420,5996,0,0,0
-31.14,-3.60,42.18,-507,5414,6004,0,-1,0
-31.14,-3.59,42.18,-497,5422,5992,0,0,-1
-31.14,-3.60,42.19,-507,5439,5982,-1,-1,0
-31.14,-3.60,42.18,-520,5431,5968,-1,0,0
-31.15,-3.59,42.17,-513,5426,5976,-1,-1,0
-31.17,-3.58,42.17,-517,5428,5971,-1,-1,0
-31.18,-3.58,42.16,-512,5425,5972,-1,-1,0
-31.19,-3.57,42.14,-510,5417,5985,-1,-1,0
-31.20,-3.56,42.13,-510,5408,5995,-1,-1,0
-31.22,-3.55,42.12,-514,5402,5995,-1,-1,0
-31.23,-3.54,42.11,-504,5400,5994,-1,-1,0
-31.24,-3.53,42.10,-510,5398,5997,-1,-1,0
-31.25,-3.53,42.09,-508,5404,5989,-1,-1,0
-31.26,-3.52,42.09,-506,5419,5998,-1,-1,0
-31.27,-3.51,42.08,-507,5425,5995,-1,-1,0
-31.28,-3.51,42.08,-502,5415,5993,-1,-1,0
-31.29,-3.50,42.07,-498,5411,5998,-1,-1,0
-31.30,-3.49,42.07,-487,5409,5996,-1,-1,0
-31.30,-3.49,42.07,-488,5410,5995,0,0,0
-31.31,-3.49,42.07,-488,5412,5990,-1,0,0
-31.33,-3.48,42.06,-497,5406,5994,-1,0,0
-31.33,-3.48,42.06,-496,5402,5990,-1,-1,0
-31.33,-3.47,42.06,-494,5403,5989,0,-1,0
-31.34,-3.46,42.05,-491,5408,6002,-1,-1,0
-31.35,-3.46,42.04,-485,5406,6003,-1,-1,0
-31.36,-3.45,42.04,-482,5400,6009,-1,0,0
-31.36,-3.45,42.04,-483,5400,6007,-1,-1,0
-31.37,-3.45,42.03,-488,5403,6004,-1,-1,0
-31.37,-3.45,42.03,-493,5412,6008,-1,-1,0
-31.37,-3.45,42.03,-496,5413,6006,-1,-1,0
-31.37,-3.44,42.03,-488,5414,6005,-1,-1,0
-31.38,-3.43,42.03,-486,5408,6000,-1,-1,0
-31.38,-3.43,42.03,-483,5401,5993,0,-1,0
-31.38,-3.43,42.03,-483,5401,5995,0,0,0
-31.38,-3.43,42.03,-488,5404,5995,-1,0,-1
-31.38,-3.44,42.03,-490,5409,6003,-1,-1,-1
-31.37,-3.44,42.03,-487,5409,6000,0,-1,-1
-31.37,-3.44,42.03,-489,5409,6011,-1,-1,0
-31.39,-3.44,42.02,-483,5411,5998,-1,-1,0
-31.38,-3.44,42.01,-486,5391,6007,-1,0,0
-31.38,-3.44,42.02,-485,5395,6001,0,-1,-1
-31.38,-3.44,42.02,-489,5405,6003,0,0,-1
-31.37,-3.45,42.03,-492,5407,5997,-1,0,-1
-31.36,-3.45,42.03,-500,5406,5993,-1,0,-1
-31.36,-3.45,42.03,-499,5405,5991,0,-1,0
-31.36,-3.46,42.04,-496,5411,5989,0,-1,-1
-31.36,-3.46,42.04,-496,5411,5997,0,-1,-1
-31.36,-3.46,42.04,-496,5419,5999,-1,0,-1
-31.36,-3.46,42.04,-493,5420,5995,0,-1,-1
-31.35,-3.46,42.04,-496,5418,5999,0,-1,-1
-31.34,-3.47,42.04,-495,5406,5991,0,-1,-1
-31.33,-3.48,42.05,-485,5407,6001,0,0,-1
-31.31,-3.49,42.06,-494,5401,6010,0,0,-1
-31.30,-3.50,42.07,-488,5398,6003,0,0,-1
-31.28,-3.51,42.09,-506,5403,5984,0,0,-1
-31.27,-3.52,42.10,-508,5413,5995,0,0,-1
-31.26,-3.52,42.11,-510,5422,5980,0,0,-1
-31.25,-3.54,42.12,-516,5414,5984,0,0,-1
-31.23,-3.54,42.14,-511,5414,5990,0,-1,-1
-31.22,-3.55,42.15,-513,5433,5987,0,0,-1
-31.21,-3.55,42.17,-518,5427,5970,0,-1,0
-31.21,-3.55,42.18,-503,5434,5978,0,0,-1
-31.20,-3.56,42.19,-519,5432,5958,0,0,-1
-31.18,-3.57,42.19,-505,5426,5978,0,0,-1
-31.19,-3.58,42.19,-529,5420,5973,-1,-1,0
-31.19,-3.57,42.20,-514,5419,5978,0,-1,0
-31.19,-3.57,42.20,-500,5420,5987,-1,0,-1
-31.18,-3.57,42.21,-523,5426,5986,0,-1,-1
-31.18,-3.57,42.21,-497,5421,5983,0,0,-1
-31.18,-3.58,42.21,-513,5439,5978,-1,0,-1
-31.18,-3.57,42.21,-500,5416,5980,0,-1,0
-31.18,-3.58,42.20,-509,5415,5991,-1,0,-1
-31.17,-3.60,42.20,-528,5434,5977,-1,-1,0
-31.18,-3.60,42.19,-508,5438,5973,-1,0,-1
-31.18,-3.60,42.19,-522,5428,5985,-1,-1,0
-31.19,-3.60,42.17,-519,5418,5983,-1,-1,0
-31.20,-3.59,42.16,-511,5421,5971,-1,-1,-1
-31.20,-3.60,42.15,-509,5412,5976,-1,0,-1
-31.20,-3.60,42.15,-510,5405,5981,-1,0,-1
-31.19,-3.61,42.14,-513,5404,5979,0,0,-1
-31.19,-3.62,42.15,-523,5424,5984,0,0,-1
-31.19,-3.62,42.15,-520,5428,5991,-1,0,0
-31.19,-3.62,42.15,-519,5419,5987,-1,0,-1
-31.19,-3.63,42.15,-530,5417,5985,-1,0,0
-31.19,-3.63,42.14,-524,5416,5980,-1,-1,-1
-31.19,-3.63,42.14,-523,5410,5979,-1,0,0
-31.19,-3.63,42.14,-516,5418,5986,-1,0,0
-31.19,-3.64,42.14,-534,5421,5981,-1,0,0
-31.20,-3.64,42.14,-534,5418,5982,0,0,0
-31.19,-3.65,42.14,-527,5422,5976,0,0,-1
-31.19,-3.65,42.15,-529,5418,5977,0,0,-1
-31.19,-3.65,42.15,-518,5419,5977,-1,0,-1
-31.20,-3.66,42.14,-521,5424,5979,-1,0,-1
-31.20,-3.66,42.14,-523,5424,5986,-1,0,0
-31.19,-3.66,42.14,-521,5416,5992,-1,-1,-1
-31.19,-3.66,42.14,-520,5415,5993,-1,0,-1
-31.19,-3.66,42.13,-525,5414,5993,-1,0,-1
-31.19,-3.67,42.14,-529,5412,5996,0,0,-1
-31.19,-3.68,42.14,-531,5419,5989,0,0,-1
-31.19,-3.68,42.14,-537,5420,5990,-1,0,-1
-31.18,-3.69,42.14,-535,5424,6002,-1,0,-1
-31.18,-3.69,42.14,-532,5426,6003,-1,-1,0
-31.19,-3.68,42.13,-526,5413,6000,0,-1,0
-31.19,-3.68,42.13,-525,5403,5994,0,0,-1
-31.18,-3.69,42.14,-533,5412,5985,0,0,-1
-31.17,-3.70,42.14,-530,5421,5986,-1,0,-1
-31.16,-3.71,42.14,-528,5415,5983,0,0,-1
-31.15,-3.72,42.15,-539,5418,5983,0,-1,-1
-31.14,-3.72,42.16,-532,5435,5987,0,-1,-1
-31.13,-3.72,42.16,-525,5414,5991,0,-1,-1
-31.11,-3.73,42.17,-519,5399,5981,0,0,-1
-31.09,-3.75,42.19,-523,5411,5971,0,0,-1
-31.07,-3.76,42.20,-522,5418,5978,0,0,-1
-31.05,-3.78,42.21,-538,5412,5983,0,0,-1
-31.03,-3.80,42.23,-542,5427,5985,0,0,-1
-31.02,-3.80,42.24,-548,5445,5979,0,0,-1
-31.02,-3.80,42.25,-555,5440,5974,0,-1,-1
-31.00,-3.82,42.26,-563,5450,5964,0,0,-1
-30.99,-3.82,42.27,-556,5430,5960,0,-1,0
-31.00,-3.81,42.27,-540,5433,5958,0,0,-1
-30.98,-3.82,42.28,-542,5429,5963,0,-1,-1
-30.97,-3.82,42.28,-554,5430,5966,0,-1,-1
-30.97,-3.81,42.29,-539,5447,5964,0,-1,-1
-30.95,-3.82,42.30,-555,5440,5956,0,-1,0
-30.94,-3.81,42.31,-550,5440,5979,0,-1,0
-30.95,-3.80,42.30,-541,5425,5956,0,-1,0
-30.94,-3.79,42.32,-549,5426,5947,0,-1,-1
-30.93,-3.79,42.33,-542,5436,5958,0,-1,-1
-30.91,-3.80,42.34,-562,5445,5955,0,-1,-1
-30.90,-3.80,42.35,-541,5433,5962,0,-1,-1
-30.90,-3.80,42.36,-570,5446,5986,0,-1,0
-30.89,-3.79,42.37,-554,5441,5967,0,-1,0
-30.89,-3.79,42.38,-545,5447,5966,0,0,0
-30.90,-3.78,42.38,-541,5455,5969,-1,-1,0
-30.89,-3.78,42.39,-549,5451,5948,0,-1,0
-30.90,-3.78,42.38,-528,5436,5952,-1,-1,0
-30.91,-3.78,42.37,-545,5446,5960,-1,0,0
-30.93,-3.77,42.36,-546,5410,5965,-1,-1,0
-30.93,-3.76,42.36,-524,5432,5962,-1,0,0
-30.94,-3.76,42.35,-544,5454,5963,-1,-1,0
-30.95,-3.75,42.34,-544,5442,5978,-1,-1,0
-30.96,-3.75,42.34,-516,5440,5950,-1,0,0
-30.97,-3.75,42.33,-552,5437,5954,-1,-1,0
-30.98,-3.74,42.31,-533,5451,5960,-1,-1,0
-31.00,-3.74,42.28,-541,5453,5957,-1,-1,0
-31.03,-3.72,42.26,-534,5447,5976,-1,-1,0
-31.05,-3.71,42.24,-536,5427,5983,-1,-1,0
-31.06,-3.70,42.22,-530,5424,5983,-1,-1,0
-31.08,-3.70,42.21,-526,5421,5965,-1,0,0
-31.08,-3.70,42.20,-536,5408,5966,-1,-1,0
-31.09,-3.69,42.19,-530,5411,5981,-1,0,0
-31.10,-3.69,42.19,-531,5427,5986,-1,-1,0
-31.10,-3.68,42.19,-531,5430,5992,-1,-1,0
-31.11,-3.68,42.18,-521,5425,5980,-1,-1,0
-31.11,-3.68,42.18,-523,5414,5976,-1,0,0
-31.13,-3.67,42.16,-526,5413,5984,-1,0,0
-31.13,-3.68,42.16,-526,5414,5986,0,-1,0
-31.13,-3.68,42.17,-539,5423,5986,0,-1,0
-31.13,-3.67,42.17,-541,5428,5986,-1,-1,0
-31.14,-3.67,42.17,-534,5425,5977,-1,-1,0
-31.15,-3.66,42.17,-530,5431,5970,-1,-1,0
-31.15,-3.66,42.17,-528,5413,5973,0,-1,0
-31.15,-3.65,42.16,-518,5421,5970,-1,0,0
-31.15,-3.66,42.17,-525,5421,5973,-1,0,0
-31.16,-3.66,42.15,-532,5414,5975,-1,0,0
-31.17,-3.65,42.15,-535,5413,5973,-1,-1,0
-31.17,-3.65,42.15,-532,5419,5984,-1,-1,0
-31.18,-3.64,42.15,-525,5418,5988,-1,-1,0
-31.19,-3.64,42.14,-526,5409,5987,-1,-1,0
-31.19,-3.64,42.14,-521,5403,5983,0,0,0
-31.19,-3.64,42.14,-521,5409,5989,0,0,0
-31.19,-3.63,42.14,-519,5411,5989,0,-1,0
-31.19,-3.63,42.14,-525,5417,5994,-1,-1,0
-31.20,-3.63,42.14,-525,5423,5994,0,-1,0
-31.20,-3.63,42.14,-529,5423,5979,-1,-1,0
-31.21,-3.62,42.14,-527,5425,5984,-1,-1,0
-31.22,-3.61,42.13,-519,5424,5991,-1,0,0
-31.23,-3.61,42.13,-517,5417,5980,-1,0,0
-31.23,-3.61,42.13,-515,5421,5987,0,-1,0
-31.24,-3.60,42.13,-516,5429,5988,0,-1,0
-31.23,-3.61,42.13,-516,5430,5992,-1,-1,0
-31.24,-3.60,42.13,-523,5424,6000,-1,-1,0
-31.24,-3.60,42.13,-517,5419,5994,0,0,0
-31.25,-3.60,42.12,-522,5411,5995,0,0,0
-31.25,-3.59,42.13,-520,5416,5987,0,-1,0
-31.25,-3.59,42.13,-519,5423,5977,-1,-1,0
-31.25,-3.59,42.13,-522,5430,5985,-1,-1,0
-31.26,-3.58,42.12,-517,5427,5984,-1,-1,0
-31.26,-3.58,42.12,-516,5423,5991,0,-1,0
-31.26,-3.58,42.12,-520,5426,5992,0,-1,0
-31.26,-3.58,42.12,-524,5421,5984,-1,-1,0
-31.26,-3.58,42.12,-525,5437,5995,-1,-1,0
-31.27,-3.58,42.12,-530,5434,5992,-1,-1,0
-31.28,-3.56,42.12,-521,5417,5980,-1,-1,0
-31.28,-3.55,42.11,-503,5411,5978,0,-1,0
-31.28,-3.55,42.11,-502,5425,5989,-1,-1,0
-31.29,-3.56,42.11,-502,5407,5987,-1,0,-1
-31.29,-3.55,42.11,-515,5396,5996,0,-1,0
-31.28,-3.55,42.12,-506,5414,6000,0,0,0
-31.27,-3.55,42.13,-514,5427,5991,0,-1,0
-31.28,-3.55,42.13,-504,5421,5992,-1,0,0
-31.28,-3.55,42.13,-525,5418,5982,0,-1,0
-31.29,-3.54,42.13,-506,5416,5979,0,-1,0
-31.29,-3.53,42.12,-508,5422,5983,-1,-1,0
-31.30,-3.53,42.12,-500,5425,5971,-1,0,0
-31.31,-3.53,42.12,-509,5421,5981,-1,-1,0
-31.31,-3.52,42.11,-496,5417,5987,-1,-1,0
-31.33,-3.51,42.10,-496,5418,5998,-1,0,0
-31.33,-3.51,42.09,-511,5420,5994,-1,-1,0
-31.35,-3.50,42.08,-508,5419,5999,-1,-1,0
-31.35,-3.49,42.08,-506,5419,5995,-1,-1,0
-31.36,-3.49,42.07,-501,5426,5995,-1,0,0
-31.37,-3.48,42.06,-499,5421,5990,-1,-1,0
-31.39,-3.48,42.05,-500,5415,5992,-1,0,0
-31.40,-3.48,42.04,-507,5412,5993,-1,-1,0
-31.40,-3.47,42.04,-504,5411,5992,-1,-1,0
-31.40,-3.47,42.04,-495,5414,5992,-1,-1,0
-31.42,-3.46,42.04,-496,5416,5997,-1,-1,0
-31.43,-3.45,42.03,-496,5409,6002,-1,-1,0
-31.44,-3.44,42.02,-491,5404,5995,-1,-1,0
-31.45,-3.43,42.02,-488,5407,6005,-1,0,0
-31.45,-3.44,42.02,-486,5408,6003,0,0,0
-31.46,-3.44,42.02,-488,5416,6007,-1,0,0
-31.46,-3.44,42.02,-495,5410,6008,-1,-1,0
-31.47,-3.44,42.02,-498,5416,5990,0,0,0
-31.47,-3.44,42.02,-494,5409,5989,-1,0,0
-31.48,-3.44,42.03,-511,5403,6001,0,-1,0
-31.49,-3.43,42.02,-496,5405,6000,0,0,0
-31.48,-3.44,42.03,-500,5404,5992,0,0,0
-31.49,-3.44,42.04,-506,5416,5995,0,0,0
-31.49,-3.44,42.05,-495,5421,5992,0,0,0
-31.50,-3.44,42.05,-495,5421,5996,-1,0,0
-31.51,-3.43,42.05,-500,5419,6000,0,-1,0
-31.51,-3.43,42.05,-487,5414,6003,-1,0,0
-31.53,-3.42,42.04,-485,5411,6004,-1,0,0
-31.53,-3.42,42.04,-483,5407,5984,-1,0,0
-31.53,-3.43,42.05,-493,5416,5980,-1,0,0
-31.54,-3.42,42.04,-496,5420,5990,-1,-1,0
-31.54,-3.42,42.03,-494,5420,6009,-1,-1,0
-31.55,-3.41,42.01,-492,5418,6000,-1,-1,0
-31.57,-3.40,42.01,-489,5413,6009,-1,-1,0
-31.57,-3.40,41.99,-487,5396,5999,-1,-1,0
-31.57,-3.39,41.99,-484,5394,5999,0,-1,-1
-31.56,-3.40,42.00,-486,5407,6001,-1,-1,-1
-31.56,-3.40,42.00,-491,5410,6004,-1,-1,-1
-31.55,-3.41,41.99,-494,5409,5995,-1,-1,0
-31.56,-3.40,41.99,-497,5406,5996,-1,-1,0
-31.56,-3.40,41.98,-490,5405,6010,-1,-1,0
-31.56,-3.40,41.98,-480,5402,5998,0,-1,-1
-31.55,-3.40,41.99,-489,5404,6005,0,0,-1
-31.55,-3.40,41.99,-488,5406,6003,0,0,-1
-31.54,-3.41,41.99,-488,5406,6000,0,-1,-1
-31.53,-3.42,42.00,-487,5400,5997,0,0,-1
-31.53,-3.42,42.00,-493,5403,5990,0,-1,-1
-31.52,-3.42,42.01,-494,5417,5991,0,-1,-1
-31.52,-3.42,42.01,-484,5418,5992,0,-1,0
-31.51,-3.43,42.01,-488,5405,5993,0,-1,-1
-31.51,-3.42,42.01,-485,5407,5991,0,-1,-1
-31.50,-3.43,42.02,-493,5404,5997,0,-1,-1
-31.50,-3.42,42.02,-503,5385,6003,0,-1,0
-31.49,-3.41,42.05,-483,5389,6007,0,0,-1
-31.47,-3.42,42.07,-493,5398,6006,0,-1,-1
-31.46,-3.42,42.09,-496,5408,6001,0,0,-1
-31.45,-3.42,42.10,-489,5409,6001,0,-1,-1
-31.44,-3.43,42.12,-492,5426,5994,0,-1,-1
-31.44,-3.44,42.13,-480,5442,5975,-1,0,-1
-31.43,-3.46,42.14,-511,5452,5959,-1,0,-1
-31.44,-3.45,42.12,-489,5430,5980,-1,0,0
-31.44,-3.46,42.10,-508,5437,5976,-1,-1,0
-31.45,-3.45,42.09,-499,5411,5980,-1,-1,0
-31.46,-3.44,42.08,-486,5417,5990,-1,0,0
-31.47,-3.44,42.07,-486,5411,5993,-1,-1,0
-31.47,-3.44,42.07,-477,5400,5996,-1,0,-1
-31.46,-3.46,42.06,-498,5399,6000,0,0,-1
-31.46,-3.46,42.06,-495,5401,6009,-1,0,-1
-31.45,-3.47,42.06,-504,5399,5995,0,0,-1
-31.45,-3.48,42.06,-502,5405,5996,0,0,-1
-31.44,-3.48,42.07,-510,5419,5990,-1,0,-1
-31.44,-3.49,42.06,-505,5413,5982,-1,0,-1
-31.44,-3.49,42.06,-503,5411,5992,0,0,-1
-31.44,-3.50,42.07,-500,5411,5995,0,0,-1
-31.44,-3.50,42.07,-506,5415,5988,-1,0,-1
-31.42,-3.51,42.07,-504,5421,5993,-1,0,-1
-31.42,-3.52,42.06,-513,5411,5993,-1,0,-1
-31.42,-3.52,42.06,-509,5420,5994,-1,0,0
-31.43,-3.52,42.06,-509,5412,5989,-1,-1,0
-31.42,-3.52,42.06,-500,5409,5991,0,-1,-1
-31.42,-3.52,42.06,-496,5408,5993,0,0,-1
-31.41,-3.53,42.07,-502,5408,5992,0,0,-1
-31.41,-3.54,42.07,-512,5403,5994,0,0,-1
-31.40,-3.55,42.07,-517,5412,5995,0,0,-1
-31.40,-3.55,42.08,-515,5422,5989,0,0,-1
-31.39,-3.56,42.09,-516,5421,5987,-1,0,-1
-31.39,-3.56,42.09,-517,5425,5980,0,-1,0
-31.40,-3.56,42.09,-509,5424,5989,-1,0,-1
-31.39,-3.56,42.09,-511,5416,5993,-1,-1,-1
-31.38,-3.57,42.10,-512,5410,5989,0,0,-1
-31.36,-3.58,42.10,-515,5403,5991,0,-1,-1
-31.36,-3.59,42.11,-507,5411,6001,0,0,-1
-31.35,-3.60,42.12,-521,5400,6002,0,0,-1
-31.34,-3.60,42.13,-521,5398,5994,0,-1,-1
-31.32,-3.60,42.15,-530,5403,5999,1,-1,-1
-31.31,-3.58,42.16,-512,5410,5983,0,-1,0
-31.31,-3.58,42.18,-505,5426,5989,0,0,0
-31.31,-3.59,42.19,-516,5422,5974,0,0,-1
-31.29,-3.59,42.20,-496,5425,5988,0,-1,-1
-31.28,-3.62,42.22,-516,5412,5953,0,0,-1
-31.26,-3.62,42.24,-506,5428,5995,0,-1,-1
-31.24,-3.64,42.25,-544,5439,5956,0,0,-1
-31.25,-3.63,42.25,-501,5445,5986,-1,0,0
-31.25,-3.64,42.25,-560,5439,5977,0,0,-1
-31.25,-3.63,42.25,-494,5417,5992,0,-1,-1
-31.24,-3.63,42.26,-538,5423,5976,0,-1,-1
-31.23,-3.62,42.27,-502,5418,6004,-1,0,0
-31.23,-3.64,42.28,-533,5437,5968,0,0,-1
-31.21,-3.64,42.29,-502,5415,5983,0,-1,-1
-31.20,-3.66,42.31,-530,5451,5974,0,0,-2
-31.17,-3.66,42.32,-549,5431,5971,0,-1,0
-31.18,-3.66,42.33,-521,5450,5938,-1,1,-1
-31.17,-3.67,42.33,-544,5437,5978,-1,-2,0
-31.17,-3.67,42.33,-500,5450,5956,-1,0,-1
-31.15,-3.69,42.35,-543,5459,5970,0,-1,0
-31.14,-3.69,42.35,-517,5451,5963,0,0,-1
-31.13,-3.70,42.37,-523,5455,5962,0,0,-1
-31.11,-3.71,42.38,-551,5440,5981,0,-1,0
-31.11,-3.70,42.39,-520,5458,5979,0,0,-1
-31.09,-3.70,42.40,-538,5452,5968,0,-1,0
-31.08,-3.69,42.43,-541,5478,5968,0,-1,-1
-31.07,-3.68,42.43,-507,5455,5947,0,0,-1
-31.05,-3.69,42.46,-511,5458,5978,0,0,-1
-31.05,-3.69,42.47,-548,5468,5946,0,-1,-1
-31.04,-3.67,42.48,-533,5463,5942,0,-1,0
-31.04,-3.66,42.50,-535,5456,5936,0,-1,0
-31.04,-3.65,42.51,-573,5480,5939,0,-2,0
-31.06,-3.61,42.49,-497,5457,5952,-1,0,0
-31.07,-3.60,42.49,-527,5443,5920,-1,-1,0
-31.08,-3.59,42.49,-501,5434,5966,-1,-1,0
-31.08,-3.59,42.49,-533,5452,5948,-1,0,-1
-31.07,-3.57,42.50,-486,5447,5952,0,-1,0
-31.07,-3.59,42.50,-541,5470,5941,0,-1,0
-31.08,-3.57,42.50,-502,5447,5962,-1,-1,0
-31.09,-3.56,42.49,-526,5475,5941,-1,-1,0
-31.10,-3.54,42.49,-483,5461,5965,-1,-1,0
-31.10,-3.56,42.48,-558,5472,5937,-1,-1,0
-31.12,-3.52,42.47,-484,5464,5942,-1,0,-1
-31.12,-3.52,42.46,-521,5449,5946,-1,-1,0
-31.12,-3.51,42.46,-524,5439,5962,-1,-1,0
-31.14,-3.50,42.46,-506,5489,5957,-1,0,0
-31.14,-3.49,42.45,-488,5440,5963,0,-2,0
-31.15,-3.48,42.45,-507,5479,5970,-1,0,-1
-31.16,-3.46,42.44,-483,5444,5962,0,-2,1
-31.17,-3.47,42.43,-519,5427,5950,-1,0,-1
-31.16,-3.44,42.45,-477,5467,5997,0,-1,0
-31.17,-3.44,42.45,-495,5462,5939,-1,-1,0
-31.19,-3.42,42.44,-470,5458,5935,-1,0,-1
-31.20,-3.42,42.44,-491,5464,5939,0,-1,0
-31.21,-3.41,42.43,-497,5438,5927,-1,-1,-1
-31.21,-3.40,42.42,-473,5430,5942,-1,0,0
-31.21,-3.42,42.43,-505,5474,5960,0,0,-1
-31.22,-3.41,42.40,-497,5452,5963,-2,-1,0
-31.25,-3.41,42.39,-475,5454,5947,-1,0,0
-31.26,-3.42,42.37,-511,5474,5949,-2,-1,0
-31.27,-3.41,42.35,-495,5462,5938,-1,-1,0
-31.31,-3.41,42.32,-502,5455,5921,-2,0,0
-31.32,-3.40,42.31,-513,5448,5937,-1,-1,0
-31.35,-3.39,42.27,-458,5450,5964,-2,0,0
-31.38,-3.40,42.24,-486,5440,5968,-2,0,0
-31.40,-3.40,42.21,-490,5430,5967,-1,-1,0
-31.41,-3.39,42.18,-483,5428,5980,-1,-1,0
-31.43,-3.39,42.16,-484,5420,5982,-1,0,0
-31.44,-3.39,42.14,-484,5427,5979,-1,0,0
-31.45,-3.39,42.13,-486,5426,5989,-1,0,0
-31.45,-3.40,42.12,-490,5425,5980,-1,-1,-1
-31.46,-3.40,42.11,-495,5422,5984,-1,-1,0
-31.46,-3.39,42.11,-483,5427,5991,-1,-1,0
-31.46,-3.39,42.11,-482,5433,5994,0,0,-1
-31.46,-3.40,42.11,-481,5440,5980,-1,0,-1
-31.47,-3.40,42.10,-488,5436,5978,-1,0,0
-31.48,-3.40,42.10,-485,5430,5978,-1,0,0
-31.49,-3.40,42.09,-477,5436,5982,-1,0,0
-31.50,-3.40,42.08,-480,5425,5978,-1,0,0
-31.50,-3.41,42.07,-482,5423,5979,-1,0,-1
-31.51,-3.41,42.06,-492,5424,5992,-1,0,0
-31.51,-3.41,42.05,-490,5423,5989,-1,0,0
-31.51,-3.41,42.05,-492,5420,5993,-1,0,0
-31.52,-3.41,42.05,-486,5416,5994,-1,-1,0
-31.52,-3.41,42.05,-487,5415,5992,0,-1,0
-31.52,-3.41,42.05,-489,5423,5984,-1,0,-1
-31.52,-3.42,42.05,-488,5421,5969,-1,0,0
-31.52,-3.42,42.05,-486,5425,5982,-1,0,0
-31.53,-3.41,42.06,-489,5431,5987,-1,-1,0
-31.53,-3.41,42.05,-484,5433,5976,-1,0,0
-31.54,-3.40,42.05,-489,5423,5974,-1,-1,0
-31.55,-3.40,42.04,-486,5416,5987,-1,-1,0
-31.55,-3.40,42.04,-478,5410,5981,-1,-1,0
-31.55,-3.40,42.05,-485,5418,5972,0,-1,0
-31.55,-3.39,42.05,-487,5427,5985,-1,-1,0
-31.55,-3.39,42.05,-484,5436,5976,0,0,-1
-31.55,-3.40,42.05,-482,5440,5990,-1,0,-1
-31.56,-3.39,42.03,-482,5425,5991,-1,-1,0
-31.57,-3.39,42.03,-476,5426,5991,-1,0,0
-31.58,-3.38,42.02,-482,5423,5998,-1,-1,0
-31.59,-3.37,42.02,-478,5411,5985,-1,-1,0
-31.59,-3.37,42.02,-478,5421,5986,-1,-1,0
-31.59,-3.37,42.02,-479,5413,5988,-1,-1,0
-31.60,-3.36,42.02,-480,5414,5996,-1,0,0
-31.60,-3.37,42.01,-492,5415,6004,0,0,0
-31.61,-3.37,42.01,-483,5430,5995,-1,0,0
-31.61,-3.36,42.01,-483,5430,5983,-1,0,0
-31.63,-3.36,42.01,-487,5430,5989,-1,0,0
-31.63,-3.36,42.01,-486,5422,5980,-1,-1,0
-31.63,-3.36,42.00,-484,5414,5988,-1,-1,0
-31.64,-3.35,41.99,-479,5411,5979,-1,0,0
-31.64,-3.36,41.99,-483,5415,5988,-1,0,0
-31.65,-3.35,41.99,-479,5419,5991,-1,0,0
-31.66,-3.36,41.98,-481,5418,5988,-1,0,0
-31.66,-3.35,41.98,-477,5413,5985,-1,0,0
-31.67,-3.35,41.98,-481,5410,5978,-1,0,0
-31.67,-3.36,41.98,-482,5408,5981,-1,0,-1
-31.67,-3.36,41.98,-478,5413,5979,-1,0,0
-31.67,-3.37,41.98,-485,5426,5979,-1,0,0
-31.67,-3.37,41.99,-486,5432,5980,-1,0,0
-31.67,-3.37,41.99,-491,5429,5984,-1,0,0
-31.68,-3.37,41.98,-492,5421,5979,-1,0,0
-31.69,-3.37,41.99,-487,5419,5982,-1,0,0
-31.69,-3.36,41.98,-478,5424,5976,-1,-1,0
-31.70,-3.36,41.99,-473,5423,5970,-1,0,0
-31.70,-3.36,41.99,-482,5419,5981,-1,0,0
-31.71,-3.37,41.98,-489,5411,5991,-1,0,0
-31.72,-3.36,41.97,-486,5412,6000,-1,0,0
-31.73,-3.36,41.97,-479,5418,5997,-1,-1,0
-31.73,-3.36,41.97,-487,5418,5992,0,0,0
-31.73,-3.36,41.98,-488,5422,5993,-1,-1,0
-31.74,-3.35,41.97,-484,5419,5992,-1,0,0
-31.75,-3.35,41.97,-483,5418,5994,-1,0,0
-31.76,-3.36,41.97,-484,5422,5992,-1,0,0
-31.76,-3.36,41.97,-477,5414,5988,0,0,-1
-31.76,-3.36,41.98,-483,5419,5981,0,0,0
-31.76,-3.36,41.98,-479,5430,5983,-1,0,0
-31.77,-3.37,41.98,-491,5432,5990,-1,0,0
-31.78,-3.37,41.97,-494,5421,5991,-1,-1,0
-31.80,-3.36,41.97,-485,5422,5988,-1,0,0
-31.81,-3.35,41.96,-479,5415,5991,-1,-1,0
-31.81,-3.35,41.96,-477,5410,5999,-1,0,0
-31.82,-3.35,41.95,-479,5409,6002,-1,0,0
-31.82,-3.36,41.95,-485,5415,5999,-1,0,0
-31.83,-3.35,41.95,-480,5427,6003,-1,0,0
-31.83,-3.36,41.96,-485,5423,5997,-1,0,0
-31.83,-3.36,41.95,-491,5424,6010,-1,-1,0
-31.84,-3.35,41.95,-477,5428,5997,-1,0,0
-31.84,-3.36,41.95,-489,5428,5984,-1,0,0
-31.84,-3.36,41.95,-495,5426,5992,-1,-1,0
-31.85,-3.35,41.94,-481,5409,5992,-1,-1,0
-31.85,-3.35,41.94,-476,5399,5983,0,-1,-1
-31.85,-3.36,41.93,-476,5405,5999,-1,0,-1
-31.85,-3.36,41.93,-478,5417,5995,-1,0,-1
-31.85,-3.36,41.93,-482,5416,5987,-1,0,-1
-31.84,-3.37,41.94,-477,5415,5994,0,-1,-1
-31.83,-3.38,41.95,-480,5414,5989,0,0,-1
-31.82,-3.38,41.96,-486,5425,5987,0,0,-1
-31.81,-3.39,41.96,-494,5418,5991,0,0,-1
-31.81,-3.40,41.96,-492,5421,5991,-1,0,-1
-31.81,-3.41,41.96,-494,5421,5993,-1,0,-1
-31.81,-3.40,41.96,-492,5420,5980,-1,0,0
-31.81,-3.40,41.96,-487,5423,5987,-1,-1,0
-31.81,-3.41,41.96,-478,5423,5991,-1,0,-1
-31.81,-3.41,41.95,-483,5417,5986,-1,0,-1
-31.81,-3.42,41.95,-488,5416,5980,-1,0,-1
-31.82,-3.42,41.94,-494,5403,5997,-1,0,-1
-31.81,-3.42,41.94,-495,5408,5991,-1,0,-1
-31.81,-3.42,41.94,-491,5415,5995,-1,0,-1
-31.80,-3.43,41.94,-486,5411,5996,-1,0,-1
-31.80,-3.43,41.95,-485,5410,5996,-1,0,-1
-31.81,-3.43,41.95,-486,5412,5995,0,-1,-1
-31.80,-3.44,41.95,-486,5414,5988,0,0,-1
-31.79,-3.44,41.96,-489,5419,5984,-1,0,-1
-31.79,-3.45,41.95,-490,5424,5983,-1,0,-1
-31.78,-3.45,41.95,-502,5426,5984,-1,0,-1
-31.79,-3.45,41.94,-495,5426,5995,-1,-1,0
-31.80,-3.44,41.94,-492,5416,5995,-1,0,0
-31.80,-3.44,41.94,-491,5407,5995,0,-1,0
-31.80,-3.44,41.94,-484,5402,5991,0,0,-1
-31.79,-3.46,41.95,-496,5412,5991,-1,0,-1
-31.78,-3.47,41.95,-503,5416,5981,-1,0,-1
-31.78,-3.47,41.95,-502,5421,5989,-1,0,-1
-31.78,-3.46,41.96,-505,5427,5987,0,0,-1
-31.77,-3.47,41.96,-501,5421,5980,-1,0,-1
-31.77,-3.48,41.96,-503,5425,5987,-1,0,-1
-31.77,-3.48,41.96,-497,5421,5988,-1,0,-1
-31.76,-3.49,41.96,-499,5415,5983,0,-1,-1
-31.76,-3.49,41.98,-495,5421,5988,0,0,-1
-31.75,-3.50,41.98,-513,5432,5982,0,0,-1
-31.74,-3.51,41.98,-511,5419,5980,-1,-1,-1
-31.74,-3.51,41.98,-499,5401,5981,0,-1,0
-31.73,-3.51,42.00,-506,5417,5992,0,-1,-1
-31.73,-3.50,42.01,-492,5430,5986,0,0,-1
-31.72,-3.51,42.02,-494,5432,5980,0,0,-1
-31.71,-3.52,42.03,-507,5441,5980,0,-1,-1
-31.71,-3.52,42.03,-484,5431,5991,-1,0,-1
-31.69,-3.54,42.04,-521,5423,5971,0,-1,-1
-31.68,-3.54,42.06,-496,5421,5983,0,0,-1
-31.68,-3.55,42.07,-497,5440,5960,-1,0,-1
-31.69,-3.54,42.07,-508,5424,5971,0,-1,0
-31.69,-3.54,42.07,-493,5430,5971,-1,0,-1
-31.68,-3.56,42.06,-529,5437,5956,-1,-1,0
-31.69,-3.55,42.06,-514,5427,5972,-1,-1,0
-31.71,-3.55,42.04,-494,5412,5974,-1,0,-1
-31.71,-3.56,42.03,-513,5400,5974,0,0,0
-31.71,-3.56,42.04,-512,5418,5976,-1,-1,-1
-31.70,-3.56,42.03,-504,5416,5982,-1,0,-1
-31.70,-3.57,42.04,-509,5431,5980,-1,0,-1
-31.70,-3.57,42.03,-505,5420,5972,-1,0,-1
-31.69,-3.58,42.03,-521,5413,5970,0,-1,-1
-31.69,-3.58,42.04,-512,5423,5955,0,0,-1
-31.69,-3.58,42.04,-505,5436,5965,-1,0,-1
-31.69,-3.59,42.04,-517,5440,5963,-1,0,-1
-31.69,-3.60,42.04,-512,5433,5971,-1,0,-1
-31.68,-3.61,42.04,-515,5426,5980,-1,0,-1
-31.68,-3.61,42.04,-524,5420,5980,-1,-1,0
-31.69,-3.60,42.03,-515,5424,5986,-1,-1,0
-31.69,-3.60,42.03,-506,5423,5997,0,0,-1
-31.69,-3.61,42.03,-501,5427,5997,-1,0,-1
-31.68,-3.62,42.04,-511,5433,5976,-1,0,-1
-31.68,-3.63,42.03,-519,5421,5985,-1,0,-1
-31.68,-3.64,42.04,-525,5423,5978,0,0,-1
-31.67,-3.64,42.04,-536,5439,5976,-1,0,-1
-31.67,-3.65,42.04,-541,5444,5974,-1,-1,0
-31.67,-3.64,42.04,-525,5435,5972,-1,0,0
-31.68,-3.64,42.03,-513,5425,5977,-1,0,0
-31.68,-3.65,42.03,-519,5427,5983,-1,0,-1
-31.69,-3.66,42.02,-518,5419,5987,-1,0,-1
-31.68,-3.67,42.03,-526,5426,5979,-1,0,-1
-31.69,-3.68,42.02,-527,5431,5982,-1,0,-1
-31.68,-3.68,42.02,-528,5428,5990,-1,0,0
-31.68,-3.68,42.02,-526,5431,5981,-1,0,0
-31.68,-3.69,42.03,-531,5426,5975,-1,0,-1
-31.68,-3.69,42.03,-529,5420,5966,0,0,-1
-31.67,-3.70,42.03,-522,5419,5974,0,0,-1
-31.67,-3.70,42.03,-524,5418,5977,0,0,-1
-31.67,-3.70,42.03,-526,5421,5983,0,0,-1
-31.66,-3.71,42.04,-531,5426,5973,0,0,-1
-31.65,-3.72,42.06,-534,5438,5972,0,0,-1
-31.65,-3.72,42.05,-533,5436,5976,-1,0,-1
-31.65,-3.73,42.05,-534,5426,5971,-1,0,0
-31.64,-3.73,42.05,-534,5423,5973,0,0,-1
-31.63,-3.74,42.06,-531,5422,5973,0,0,-1
-31.62,-3.74,42.07,-521,5436,5984,0,-1,-1
-31.61,-3.74,42.07,-518,5436,5986,0,0,-1
-31.60,-3.74,42.08,-536,5438,5971,0,-1,-1
-31.60,-3.74,42.09,-528,5430,5968,0,0,0
-31.59,-3.74,42.10,-538,5423,5974,0,-1,0
-31.59,-3.74,42.10,-537,5434,5981,0,-1,-1
-31.58,-3.74,42.11,-527,5428,5984,0,0,-1
-31.57,-3.74,42.12,-550,5429,5979,0,-1,-1
-31.55,-3.73,42.14,-534,5447,5977,0,-1,-1
-31.54,-3.74,42.16,-557,5443,5957,0,-1,-1
-31.54,-3.73,42.16,-526,5445,5973,-1,0,0
-31.55,-3.73,42.16,-531,5452,5961,-1,0,-1
-31.54,-3.74,42.16,-543,5452,5970,-1,-1,0
-31.56,-3.72,42.15,-530,5435,5960,-1,0,0
-31.57,-3.72,42.14,-536,5450,5971,-1,0,0
-31.58,-3.71,42.13,-521,5441,5972,-1,-1,0
-31.58,-3.71,42.13,-518,5435,5966,-1,0,0
-31.59,-3.72,42.12,-531,5436,5969,-1,0,-1
-31.60,-3.72,42.11,-528,5437,5966,-1,-1,0
-31.61,-3.71,42.11,-539,5434,5965,-1,-1,0
-31.61,-3.71,42.11,-534,5442,5968,-1,0,0
-31.62,-3.71,42.10,-540,5441,5967,-1,-1,0
-31.63,-3.70,42.10,-535,5430,5963,-1,-1,0
-31.64,-3.69,42.10,-524,5433,5962,-1,-1,0
-31.65,-3.68,42.09,-534,5431,5964,-1,-1,0
-31.65,-3.68,42.09,-521,5426,5956,-1,-1,0
-31.65,-3.67,42.08,-524,5437,5978,-1,-1,0
-31.67,-3.67,42.08,-522,5425,5981,-1,-1,0
-31.66,-3.66,42.08,-534,5425,5983,-1,-1,0
-31.66,-3.65,42.07,-526,5425,5992,0,-1,0
-31.67,-3.64,42.08,-514,5443,5989,-1,0,0
-31.67,-3.64,42.09,-536,5428,5976,0,-1,0
-31.67,-3.62,42.10,-503,5434,5988,0,-1,0
-31.66,-3.62,42.11,-514,5445,5965,-1,0,0
-31.67,-3.61,42.11,-507,5426,5983,-1,-1,0
-31.68,-3.61,42.12,-511,5442,5980,0,0,0
-31.66,-3.61,42.14,-535,5454,5980,0,-1,0
-31.68,-3.59,42.15,-502,5460,5972,-1,0,0
-31.70,-3.59,42.14,-530,5449,5965,-1,0,0
-31.71,-3.59,42.13,-512,5436,5976,-1,-1,0
-31.72,-3.59,42.11,-516,5434,5953,-1,0,0
-31.72,-3.59,42.11,-510,5437,5972,-1,0,-1
-31.74,-3.59,42.10,-525,5442,5965,-2,-1,0
-31.75,-3.58,42.09,-516,5431,5969,-1,-1,0
-31.78,-3.58,42.06,-508,5417,5977,-1,0,0
-31.79,-3.58,42.05,-502,5412,5979,-1,-1,0
-31.79,-3.57,42.05,-502,5417,5974,-1,0,0
-31.80,-3.57,42.05,-503,5433,5969,-1,0,0
-31.81,-3.56,42.04,-502,5444,5966,-1,0,0
-31.81,-3.57,42.03,-508,5434,5955,-1,0,0
-31.82,-3.56,42.03,-508,5429,5976,-1,0,0
-31.83,-3.56,42.02,-505,5433,5986,-1,0,0
-31.85,-3.55,42.01,-499,5421,5995,-1,0,0
-31.86,-3.55,42.00,-502,5412,5992,-1,-1,0
-31.85,-3.55,42.01,-503,5415,5985,0,0,0
-31.85,-3.56,42.01,-508,5430,5983,-1,0,0
-31.85,-3.57,42.01,-516,5431,5971,-1,0,0
-31.86,-3.56,42.01,-517,5429,5973,-1,-1,0
-31.87,-3.56,42.00,-516,5428,5976,-1,-1,0
-31.88,-3.55,42.00,-507,5428,5991,-1,-1,0
-31.89,-3.54,41.99,-500,5420,5990,-1,0,0
-31.89,-3.54,41.99,-495,5421,5984,-1,0,0
-31.90,-3.54,41.99,-498,5418,5985,-1,0,0
-31.91,-3.54,41.99,-498,5415,5991,-1,0,0
-31.91,-3.54,41.99,-506,5423,5997,-1,-1,0
-31.91,-3.54,41.99,-523,5422,5992,-1,-1,0
-31.91,-3.54,41.99,-510,5431,5992,-1,-1,0
-31.92,-3.53,41.98,-507,5422,5984,-1,-1,0
-31.93,-3.52,41.97,-512,5411,5982,-1,-1,0
-31.93,-3.52,41.97,-502,5418,5975,-1,-1,0
-31.94,-3.52,41.98,-500,5430,5981,-1,0,0
-31.94,-3.52,41.98,-503,5424,5978,-1,-1,0
-31.95,-3.52,41.97,-503,5416,5978,-1,0,0
-31.96,-3.51,41.97,-509,5417,5986,-1,-1,0
-31.96,-3.50,41.96,-500,5427,5982,-1,-1,0
-31.97,-3.50,41.96,-497,5431,5981,-1,-1,0
-31.98,-3.50,41.96,-501,5422,5989,-1,-1,0
-31.98,-3.49,41.96,-499,5419,5996,-1,-1,0
-31.98,-3.49,41.96,-487,5417,5991,-1,0,0
-31.99,-3.49,41.96,-495,5415,5992,0,-1,0
-31.99,-3.49,41.96,-498,5425,5990,-1,0,0
-31.99,-3.48,41.97,-497,5432,5983,-1,0,0
-32.00,-3.48,41.97,-497,5432,5979,-1,-1,0
-32.01,-3.48,41.96,-489,5428,5982,-1,-1,0
-32.02,-3.47,41.96,-496,5423,5975,-1,0,0
-32.02,-3.47,41.96,-491,5417,5984,-1,0,0
-32.03,-3.47,41.95,-490,5419,5995,-1,0,0
-32.04,-3.46,41.95,-490,5413,6000,-1,-1,0
-32.04,-3.46,41.94,-491,5413,5993,-1,0,0
-32.05,-3.46,41.94,-505,5414,5990,-1,-1,0
-32.05,-3.46,41.94,-499,5407,5997,-1,0,0
-32.06,-3.46,41.93,-498,5415,5999,-1,0,0
-32.07,-3.45,41.93,-494,5414,5994,-1,-1,0
-32.07,-3.45,41.93,-498,5419,5993,-1,0,0
-32.07,-3.45,41.93,-499,5417,5985,-1,-1,0
-32.08,-3.45,41.93,-495,5421,5979,-1,0,0
-32.08,-3.45,41.93,-497,5425,5975,-1,0,0
-32.08,-3.45,41.93,-497,5428,5981,-1,0,0
-32.09,-3.45,41.93,-498,5420,5981,-1,-1,0
-32.10,-3.44,41.93,-494,5420,5989,-1,-1,0
-32.11,-3.43,41.92,-495,5418,5994,-1,-1,0
-32.13,-3.42,41.92,-483,5425,5997,-1,0,0
-32.14,-3.42,41.91,-483,5411,6005,-1,-1,0
-32.14,-3.41,41.91,-479,5409,5991,-1,0,-1
-32.13,-3.42,41.92,-486,5405,5980,0,0,-1
-32.13,-3.42,41.92,-495,5412,5983,-1,0,0
-32.14,-3.42,41.92,-496,5417,5983,-1,0,0
-32.14,-3.41,41.92,-494,5430,5983,-1,-1,0
-32.15,-3.41,41.92,-493,5427,5997,-1,-1,0
-32.16,-3.41,41.91,-483,5419,6006,-1,0,0
-32.16,-3.41,41.91,-482,5418,6000,-1,0,0
-32.17,-3.41,41.91,-488,5411,5999,-1,0,0
-32.17,-3.41,41.90,-489,5411,5994,-1,0,-1
-32.17,-3.41,41.90,-490,5412,5989,-1,0,0
-32.17,-3.41,41.90,-491,5417,5999,-1,-1,0
-32.18,-3.41,41.90,-479,5409,6006,-1,0,0
-32.18,-3.41,41.90,-477,5406,6003,0,-1,-1
-32.18,-3.41,41.91,-471,5393,5994,0,0,-1
-32.17,-3.42,41.92,-479,5403,5990,0,0,-1
-32.16,-3.42,41.92,-482,5420,5982,0,0,-1
-32.15,-3.43,41.93,-489,5419,5981,-1,0,-1
-32.15,-3.43,41.93,-493,5422,5978,0,0,0
-32.16,-3.43,41.94,-493,5418,5984,0,0,0
-32.16,-3.44,41.94,-496,5417,5981,-1,0,-1
-32.16,-3.44,41.94,-500,5418,5981,0,0,-1
-32.16,-3.44,41.94,-495,5419,5982,-1,0,-1
-32.15,-3.45,41.94,-496,5413,5968,-1,0,-1
-32.15,-3.45,41.94,-481,5423,5995,-1,0,0
-32.16,-3.46,41.94,-494,5421,5988,-1,0,-1
-32.17,-3.45,41.94,-491,5412,5992,-1,-1,0
-32.17,-3.45,41.94,-488,5404,5994,0,-1,-1
-32.15,-3.46,41.95,-489,5420,5994,0,0,-1
-32.15,-3.47,41.95,-491,5415,6000,0,0,-1
-32.14,-3.47,41.97,-489,5424,5990,0,0,-1
-32.13,-3.48,41.98,-496,5431,5984,0,0,-1
-32.12,-3.48,41.99,-493,5422,5971,-1,0,-1
-32.12,-3.49,41.99,-490,5418,5978,0,0,-1
-32.12,-3.51,42.00,-505,5424,5982,0,0,-1
-32.11,-3.51,42.00,-510,5430,5983,-1,-1,0
-32.11,-3.51,42.00,-501,5425,5984,-1,0,-1
-32.12,-3.51,42.00,-504,5430,5974,-1,-1,0
-32.12,-3.51,41.99,-493,5415,5971,-1,0,-1
-32.11,-3.52,41.99,-494,5414,5984,0,0,-1
-32.11,-3.52,41.99,-489,5418,5982,-1,-1,-1
-32.11,-3.52,41.99,-492,5432,5991,-1,0,-1
-32.10,-3.53,42.00,-509,5437,5983,-1,-1,0
-32.11,-3.53,41.99,-503,5432,5982,-1,0,0
-32.11,-3.53,41.99,-501,5425,5976,-1,0,0
-32.11,-3.53,41.99,-515,5424,5978,-1,-1,0
-32.11,-3.53,41.99,-504,5422,5983,-1,0,-1
-32.11,-3.53,41.99,-501,5431,5986,-1,0,-1
-32.12,-3.54,41.99,-507,5421,5977,-1,0,-1
-32.12,-3.55,41.98,-509,5415,5980,-1,0,0
-32.12,-3.54,41.98,-508,5413,5989,-1,-1,0
-32.12,-3.54,41.98,-503,5416,5996,0,-1,-1
-32.12,-3.54,41.99,-510,5418,5987,-1,-1,0
-32.12,-3.54,41.99,-510,5417,5970,-1,-1,0
-32.11,-3.54,41.99,-504,5422,5965,0,0,-1
-32.11,-3.54,41.99,-502,5424,5981,0,0,-1
-32.10,-3.55,42.00,-504,5416,5981,0,0,-1
-32.09,-3.56,42.01,-514,5430,5972,0,0,-1
-32.09,-3.57,42.02,-515,5425,5968,0,-1,0
-32.08,-3.57,42.02,-516,5428,5975,-1,-1,-1
-32.07,-3.57,42.03,-510,5421,5976,0,-1,-1
-32.07,-3.57,42.03,-507,5424,5981,-1,0,-1
-32.07,-3.57,42.03,-507,5431,5987,-1,0,-1
-32.06,-3.59,42.02,-517,5423,5989,-1,0,-1
-32.06,-3.59,42.02,-523,5418,5986,-1,-1,0
-32.06,-3.59,42.02,-517,5424,5981,-1,0,0
-32.07,-3.59,42.01,-523,5429,5982,-1,-1,0
-32.07,-3.59,42.01,-505,5416,5976,-1,-1,0
-32.06,-3.59,42.02,-504,5425,5972,0,0,-1
-32.05,-3.60,42.02,-502,5431,5976,0,0,-1
-32.05,-3.60,42.02,-503,5429,5970,-1,0,-1
-32.04,-3.61,42.03,-523,5417,5977,0,-1,-1
-32.04,-3.62,42.03,-525,5425,5972,-1,0,-1
-32.04,-3.62,42.03,-516,5434,5986,-1,-1,0
-32.04,-3.61,42.03,-514,5424,5975,-1,-1,0
-32.04,-3.61,42.03,-503,5416,5971,-1,0,-1
-32.04,-3.62,42.03,-508,5421,5972,0,0,-1
-32.03,-3.62,42.04,-511,5418,5979,0,0,-1
-32.01,-3.63,42.05,-518,5428,5971,0,0,-1
-32.01,-3.63,42.06,-527,5443,5979,0,-1,-1
-32.01,-3.63,42.06,-523,5442,5972,0,-1,-1
-32.01,-3.64,42.07,-524,5434,5970,-1,0,0
-32.01,-3.64,42.07,-523,5417,5965,-1,-1,-1
-32.00,-3.64,42.07,-513,5415,5960,0,-1,-1
-31.99,-3.64,42.08,-518,5437,5958,-1,0,-1
-31.99,-3.65,42.08,-526,5427,5964,-1,0,-1
-31.99,-3.66,42.08,-519,5419,5968,-1,0,-1
-31.99,-3.66,42.08,-531,5423,5974,-1,0,0
-31.98,-3.66,42.08,-522,5420,5971,0,-1,-1
-31.98,-3.67,42.08,-523,5427,5980,-1,0,-1
-31.98,-3.67,42.09,-525,5427,5985,-1,0,-1
-31.98,-3.67,42.08,-525,5409,5980,-1,0,-1
-31.98,-3.68,42.08,-530,5410,5975,0,0,-1
-31.97,-3.69,42.09,-529,5422,5969,0,0,-1
-31.97,-3.69,42.10,-527,5433,5964,-1,-1,-1
-31.97,-3.69,42.10,-523,5437,5978,-1,-1,0
-31.97,-3.69,42.10,-524,5438,5981,-1,0,0
-31.97,-3.69,42.10,-518,5433,5983,-1,0,-1
-31.97,-3.69,42.11,-515,5425,5966,0,0,-1
-31.96,-3.70,42.11,-522,5428,5976,-1,0,-1
-31.96,-3.71,42.11,-532,5425,5978,0,0,-1
-31.95,-3.72,42.11,-532,5431,5978,0,0,-1
-31.95,-3.72,42.11,-533,5432,5973,0,-1,-1
-31.95,-3.72,42.13,-532,5426,5972,0,0,-1
-31.95,-3.72,42.13,-532,5418,5973,0,0,-1
-31.93,-3.73,42.13,-529,5420,5968,0,-1,-1
-31.93,-3.72,42.15,-521,5433,5969,0,-1,-1
-31.93,-3.72,42.16,-531,5430,5961,0,-1,-1
-31.92,-3.73,42.16,-532,5430,5962,0,-1,-1
-31.91,-3.73,42.16,-531,5437,5963,0,-1,-1
-31.90,-3.73,42.17,-536,5447,5975,-1,0,-1
-31.90,-3.74,42.17,-543,5434,5973,-1,-1,-1
-31.90,-3.73,42.17,-534,5433,5981,-1,-1,0
-31.91,-3.73,42.17,-532,5426,5984,0,-1,0
-31.90,-3.72,42.18,-530,5428,5964,0,-1,-1
-31.90,-3.72,42.18,-529,5428,5967,0,0,-1
-31.90,-3.72,42.18,-531,5432,5983,0,-1,-1
-31.89,-3.72,42.18,-527,5428,5983,0,-1,-1
-31.89,-3.72,42.18,-523,5428,5984,0,-1,-1
-31.89,-3.72,42.19,-531,5428,5977,0,0,-1
-31.89,-3.71,42.20,-531,5436,5971,0,-1,0
-31.89,-3.71,42.20,-525,5441,5973,-1,0,0
-31.90,-3.71,42.19,-530,5438,5968,-1,-1,0
-31.90,-3.70,42.19,-527,5431,5971,-1,-1,0
-31.91,-3.70,42.18,-525,5425,5965,-1,-1,0
-31.92,-3.69,42.18,-522,5421,5966,-1,-1,0
-31.92,-3.69,42.18,-522,5426,5976,-1,-1,0
-31.92,-3.69,42.17,-524,5430,5993,-1,-1,0
-31.93,-3.68,42.17,-525,5432,5997,-1,-1,0
-31.93,-3.68,42.18,-530,5433,5985,-1,-1,0
-31.93,-3.68,42.18,-523,5425,5975,-1,-1,0
-31.93,-3.67,42.17,-523,5416,5980,-1,-1,0
-31.93,-3.67,42.17,-522,5416,5978,0,0,0
-31.93,-3.67,42.18,-520,5427,5992,0,-1,0
-31.93,-3.67,42.18,-524,5426,5989,-1,-1,0
-31.94,-3.66,42.18,-528,5435,5992,-1,-1,0
-31.95,-3.65,42.18,-517,5430,5978,-1,-1,0
-31.95,-3.65,42.17,-515,5433,5968,-1,-1,0
-31.95,-3.64,42.17,-518,5434,5980,-1,-1,0
-31.95,-3.64,42.16,-522,5424,5975,0,-1,0
-31.96,-3.64,42.16,-519,5418,5978,-1,0,0
-31.96,-3.64,42.17,-522,5423,5983,0,-1,0
-31.96,-3.64,42.17,-524,5434,5983,0,-1,0
-31.96,-3.63,42.17,-515,5437,5986,-1,-1,0
-31.97,-3.62,42.17,-509,5429,5980,-1,-1,0
-31.97,-3.62,42.16,-513,5425,5971,-1,-1,0
-31.97,-3.62,42.17,-508,5429,5979,-1,0,-1
-31.97,-3.62,42.16,-513,5425,5981,-1,-1,-1
-31.97,-3.62,42.16,-513,5431,5987,0,-1,0
-31.98,-3.62,42.16,-520,5430,5997,-1,-1,0
-31.98,-3.61,42.16,-521,5423,5984,-1,-1,0
-31.98,-3.61,42.16,-520,5425,5968,-1,-1,0
-31.99,-3.61,42.16,-514,5426,5970,-1,-1,0
-31.99,-3.61,42.15,-520,5421,5977,-1,-1,0
-31.99,-3.61,42.15,-518,5417,5984,-1,-1,0
-32.00,-3.60,42.15,-522,5424,5980,0,-1,0
-32.00,-3.60,42.16,-513,5433,5979,0,-1,0
-32.00,-3.59,42.16,-511,5428,5971,-1,-1,0
-32.01,-3.59,42.16,-503,5425,5967,-1,-1,0
-32.01,-3.58,42.15,-507,5427,5974,-1,0,0
-32.01,-3.59,42.16,-515,5422,5971,0,0,-1
-32.01,-3.60,42.16,-520,5423,5979,0,-1,0
-32.00,-3.59,42.16,-528,5427,5968,-1,-1,0
-32.01,-3.59,42.16,-525,5431,5975,-1,-1,0
-32.02,-3.58,42.16,-517,5421,5972,-1,-1,0
-32.02,-3.58,42.16,-510,5426,5963,0,-1,0
-32.02,-3.57,42.17,-511,5422,5960,-1,-1,0
-32.03,-3.57,42.16,-511,5426,5970,0,-1,0
-32.04,-3.56,42.15,-513,5424,5977,-1,-1,0
-32.05,-3.56,42.15,-517,5426,5984,-1,-1,0
-32.04,-3.55,42.15,-515,5424,5987,-1,-1,0
-32.04,-3.55,42.15,-511,5430,5981,-1,-1,0
-32.05,-3.53,42.14,-511,5414,5971,-1,-1,0
-32.06,-3.53,42.14,-507,5421,5978,-1,-1,0
-32.07,-3.53,42.14,-500,5423,5982,-1,0,0
-32.07,-3.53,42.14,-504,5421,5983,-1,-1,-1
-32.06,-3.52,42.14,-494,5419,5991,0,0,-1
-32.06,-3.53,42.14,-501,5432,5996,0,0,-1
-32.05,-3.53,42.14,-511,5430,5975,-1,-1,0
-32.05,-3.52,42.15,-491,5422,5978,0,-1,0
-32.06,-3.53,42.16,-496,5436,5978,0,0,-1
-32.05,-3.52,42.16,-516,5429,5969,0,-1,0
-32.06,-3.50,42.16,-483,5423,5975,0,0,0
-32.07,-3.51,42.16,-515,5437,5987,0,0,0
-32.06,-3.50,42.17,-501,5438,5988,-1,-1,0
-32.07,-3.50,42.16,-491,5425,6000,0,0,0
-32.07,-3.50,42.18,-508,5430,5974,0,-1,0
-32.07,-3.49,42.19,-492,5440,5979,-1,0,0
-32.08,-3.49,42.18,-506,5419,5966,-1,-1,0
-32.08,-3.49,42.18,-495,5431,5987,0,0,0
-32.08,-3.48,42.18,-511,5438,5979,-1,-1,0
-32.09,-3.48,42.17,-463,5425,5974,-1,0,-1
-32.09,-3.49,42.18,-510,5435,5981,-1,-1,0
-32.09,-3.47,42.18,-489,5444,5989,-1,-1,0
-32.10,-3.48,42.18,-489,5428,5975,-1,0,0
-32.11,-3.48,42.17,-499,5435,5986,-1,-1,0
-32.12,-3.48,42.15,-489,5428,5988,-1,0,0
-32.13,-3.48,42.15,-513,5433,5984,-1,-1,0
-32.14,-3.47,42.14,-492,5429,5987,-1,-1,0
-32.15,-3.46,42.13,-491,5426,5971,-1,0,0
-32.17,-3.45,42.12,-493,5440,5979,-1,-1,0
-32.19,-3.44,42.10,-487,5424,5992,-1,-1,0
-32.20,-3.43,42.07,-482,5415,6003,-1,-1,0
-32.21,-3.42,42.06,-484,5402,6003,-1,-1,0
-32.22,-3.42,42.05,-485,5403,5999,-1,-1,0
-32.22,-3.42,42.05,-487,5408,6002,0,-1,0
-32.22,-3.41,42.05,-483,5425,6004,-1,-1,0
-32.23,-3.40,42.04,-485,5423,5995,-1,-1,0
-32.23,-3.40,42.04,-491,5416,5988,-1,-1,0
-32.23,-3.40,42.04,-487,5403,5993,-1,-1,0
-32.23,-3.40,42.04,-485,5404,5999,0,-1,-1
-32.23,-3.40,42.03,-488,5416,6004,-1,0,-1
-32.24,-3.40,42.03,-485,5411,6005,-1,-1,0
-32.23,-3.40,42.03,-487,5408,6000,-1,-1,0
-32.24,-3.40,42.03,-489,5409,5998,0,0,-1
-32.23,-3.40,42.03,-489,5407,6009,0,-1,-1
-32.23,-3.40,42.03,-483,5408,6009,-1,0,-1
-32.22,-3.40,42.03,-482,5414,6007,0,0,-1
-32.22,-3.41,42.04,-481,5418,6000,0,-1,-1
-32.22,-3.41,42.04,-485,5427,5991,0,-1,-1
-32.20,-3.42,42.05,-499,5424,5986,0,-1,-1
-32.20,-3.42,42.05,-496,5418,5987,0,-1,0
-32.20,-3.41,42.06,-484,5414,5995,0,-1,-1
-32.20,-3.41,42.06,-485,5416,5990,0,0,-1
-32.20,-3.41,42.06,-484,5414,6002,-1,-1,0
-32.20,-3.41,42.06,-490,5414,6002,0,-1,-1
-32.20,-3.41,42.06,-485,5420,6004,-1,0,-1
-32.19,-3.42,42.06,-492,5416,5997,0,-1,-1
-32.19,-3.42,42.06,-492,5412,5992,0,0,-1
-32.18,-3.43,42.07,-497,5416,5988,0,0,-1
-32.18,-3.43,42.07,-491,5419,5988,0,0,-1
-32.18,-3.44,42.08,-490,5419,5978,0,0,-1
-32.17,-3.45,42.09,-494,5418,5978,0,0,-1
-32.17,-3.45,42.09,-492,5420,5994,-1,-1,-1
-32.16,-3.45,42.09,-490,5417,5990,0,-1,-1
-32.16,-3.45,42.09,-491,5422,5991,0,0,-1
-32.16,-3.45,42.09,-494,5416,5991,0,-1,-1
-32.15,-3.46,42.10,-492,5417,5981,0,0,-1
-32.15,-3.46,42.10,-487,5409,5987,0,0,-1
-32.15,-3.47,42.10,-498,5410,5987,-1,0,-1
-32.14,-3.48,42.10,-505,5416,5983,-1,0,-1
-32.15,-3.47,42.10,-507,5415,5981,-1,-1,0
-32.14,-3.48,42.10,-504,5416,5993,0,-1,0
-32.14,-3.47,42.11,-489,5408,5993,0,-1,-1
-32.13,-3.48,42.10,-484,5409,5996,-1,0,-1
-32.13,-3.49,42.10,-484,5408,5991,-1,0,-1
-32.13,-3.49,42.10,-493,5411,5997,0,0,-1
-32.12,-3.50,42.11,-499,5430,5991,0,0,-1
-32.11,-3.51,42.13,-508,5428,5989,0,0,-1
-32.09,-3.52,42.13,-513,5432,5988,0,-1,-1
-32.09,-3.52,42.14,-506,5437,5981,0,0,-1
-32.08,-3.52,42.14,-500,5435,5977,0,0,-1
-32.08,-3.53,42.14,-502,5409,5993,0,0,-1
-32.07,-3.54,42.15,-513,5411,5991,0,0,-1
-32.06,-3.54,42.16,-499,5413,5985,0,-1,-1
-32.06,-3.54,42.16,-495,5415,5972,0,0,-1
-32.05,-3.55,42.17,-497,5425,5976,0,0,-1
-32.05,-3.56,42.16,-495,5426,5978,0,0,-1
-32.03,-3.57,42.18,-521,5426,5984,0,-1,-1
-32.03,-3.57,42.19,-498,5439,5990,0,0,-1
-32.03,-3.58,42.19,-514,5428,5982,0,-1,0
-32.02,-3.59,42.20,-503,5419,5986,0,0,-1
-32.01,-3.59,42.21,-518,5424,5975,0,-1,-1
-32.00,-3.59,42.23,-503,5435,5978,0,0,0
-32.00,-3.60,42.22,-517,5429,5985,0,0,-1
-31.99,-3.60,42.23,-523,5424,5987,0,-1,-1
-31.99,-3.59,42.23,-506,5438,5988,-1,0,-1
-31.98,-3.60,42.24,-524,5429,5968,0,-1,0
-31.98,-3.60,42.24,-509,5424,5973,0,0,0
-31.98,-3.60,42.25,-532,5435,5971,0,0,-1
-31.98,-3.60,42.25,-500,5424,5974,0,0,-1
-31.96,-3.61,42.26,-545,5419,5966,0,-1,-1
-31.95,-3.60,42.28,-507,5433,5991,0,-1,0
-31.95,-3.61,42.30,-518,5436,5950,0,0,-1
-31.95,-3.61,42.30,-513,5421,5965,-1,-1,0
-31.94,-3.61,42.31,-499,5423,5972,0,-1,-1
-31.93,-3.62,42.32,-518,5444,5957,0,0,-1
-31.92,-3.63,42.33,-509,5428,5947,0,0,-1
-31.90,-3.65,42.35,-543,5439,5950,0,0,-1
-31.90,-3.64,42.34,-516,5428,5944,-1,-1,-1
-31.89,-3.66,42.36,-553,5453,5922,-1,0,-1
-31.88,-3.64,42.37,-513,5437,5964,0,-1,0
-31.87,-3.66,42.37,-549,5445,5946,-1,0,-1
-31.88,-3.65,42.36,-504,5434,5973,-1,-1,0
-31.87,-3.67,42.35,-552,5445,5962,-1,0,-1
-31.89,-3.65,42.35,-497,5440,5962,-1,0,0
-31.89,-3.67,42.34,-528,5460,5955,-1,0,-1
-31.88,-3.68,42.33,-540,5472,5956,-1,-1,-1
-31.89,-3.69,42.30,-534,5439,5944,-1,0,-1
-31.91,-3.70,42.28,-536,5421,5968,-1,0,0
-31.92,-3.69,42.26,-540,5418,5973,-1,-1,0
-31.92,-3.68,42.26,-528,5405,5973,-1,-1,0
-31.94,-3.68,42.25,-519,5406,5977,0,0,0
-31.93,-3.68,42.26,-521,5427,5974,0,0,-1
-31.93,-3.69,42.26,-520,5441,5966,-1,0,-1
-31.93,-3.70,42.26,-524,5434,5971,-1,0,-1
-31.93,-3.70,42.26,-534,5431,5960,0,0,-1
-31.92,-3.72,42.27,-541,5434,5974,0,0,-1
-31.92,-3.72,42.26,-541,5440,5982,0,0,-1
-31.92,-3.72,42.26,-537,5439,5985,-1,0,-1
-31.92,-3.72,42.26,-541,5435,5975,0,-1,-1
-31.91,-3.72,42.28,-539,5432,5960,0,0,-1
-31.90,-3.73,42.28,-547,5450,5974,0,0,-1
-31.89,-3.74,42.28,-548,5443,5979,-1,-1,-1
-31.89,-3.74,42.27,-544,5431,5976,-1,-1,0
-31.90,-3.74,42.27,-536,5431,5987,-1,-1,0
-31.90,-3.73,42.27,-526,5430,5989,-1,-1,0
-31.91,-3.72,42.27,-528,5435,5972,-1,-1,0
-31.91,-3.71,42.26,-521,5439,5977,-1,-1,0
-31.91,-3.72,42.27,-529,5426,5966,0,-1,-1
-31.90,-3.72,42.26,-537,5416,5974,-1,0,-1
-31.89,-3.73,42.27,-537,5415,5976,0,-1,-1
-31.90,-3.72,42.27,-529,5428,5985,-1,-1,0
-31.90,-3.71,42.28,-525,5435,5986,0,-1,0
-31.90,-3.70,42.28,-526,5428,5978,0,-1,-1
-31.90,-3.71,42.29,-532,5427,5960,0,0,-1
-31.89,-3.73,42.30,-551,5444,5944,0,0,-1
-31.88,-3.73,42.30,-554,5463,5961,-1,0,0
-31.90,-3.73,42.29,-551,5470,5966,-1,-1,0
-31.90,-3.72,42.28,-544,5463,5971,-1,-1,0
-31.92,-3.70,42.27,-526,5446,5979,-1,-1,0
-31.94,-3.69,42.25,-509,5407,5984,-1,-1,0
-31.95,-3.68,42.24,-509,5385,5987,0,-1,-1
-31.94,-3.69,42.24,-517,5407,5980,0,0,-1
-31.93,-3.69,42.26,-528,5432,5981,0,0,-1
-31.93,-3.69,42.26,-534,5450,5978,-1,-1,0
-31.93,-3.69,42.26,-532,5460,5972,-1,-1,0
-31.94,-3.67,42.26,-529,5437,5973,-1,-1,0
-31.94,-3.67,42.25,-521,5424,5969,-1,-1,0
-31.94,-3.67,42.25,-510,5411,5956,0,-1,-1
-31.94,-3.67,42.25,-514,5415,5967,0,0,-1
-31.94,-3.67,42.26,-522,5432,5969,-1,0,0
-31.95,-3.67,42.25,-532,5448,5977,-1,-1,0
-31.96,-3.67,42.25,-532,5449,5971,-1,-1,0
-31.96,-3.66,42.24,-536,5438,5977,-1,-1,0
-31.97,-3.65,42.22,-518,5418,5980,-1,-1,0
-31.99,-3.65,42.21,-514,5401,5984,-1,-1,0
-31.98,-3.65,42.22,-517,5402,5986,0,0,0
-31.98,-3.65,42.22,-522,5411,5979,0,-1,0
-31.97,-3.65,42.24,-517,5434,5975,0,-1,-1
-31.97,-3.64,42.25,-530,5448,5973,0,-1,0
-31.97,-3.63,42.25,-566,5428,5974,0,-2,0
-31.97,-3.59,42.26,-500,5403,5974,0,-1,0
-31.97,-3.60,42.27,-504,5461,5953,-1,0,-1
-31.98,-3.60,42.26,-507,5480,5967,-1,0,-1
-32.00,-3.61,42.23,-511,5451,5979,-1,0,-1
-32.00,-3.62,42.22,-530,5425,5979,-1,0,0
-32.01,-3.63,42.22,-533,5410,5979,-1,-1,0
-32.00,-3.62,42.22,-528,5407,5991,0,-1,-1
-32.00,-3.63,42.22,-534,5416,5997,0,-1,0
-32.01,-3.62,42.22,-531,5428,5999,-1,-1,0
-32.01,-3.62,42.22,-525,5432,5996,-1,-1,0
-32.01,-3.62,42.21,-517,5428,5986,0,-1,0
-32.01,-3.60,42.21,-511,5425,5981,-1,-1,0
-32.01,-3.60,42.21,-508,5429,5975,-1,-1,-1
-32.02,-3.60,42.21,-519,5432,5972,-1,-1,0
-32.02,-3.60,42.21,-511,5437,5976,-1,-1,-1
-32.02,-3.60,42.21,-527,5413,5989,0,-1,0
-32.01,-3.58,42.21,-517,5418,5989,0,-1,0
-32.01,-3.58,42.23,-523,5444,5986,0,-1,0
-32.01,-3.56,42.23,-511,5429,5983,0,-1,0
-32.02,-3.56,42.23,-502,5424,5986,0,0,-1
-32.00,-3.57,42.25,-518,5429,5976,0,-1,-1
-32.00,-3.57,42.25,-497,5437,5979,0,0,-1
-32.00,-3.57,42.26,-508,5438,5971,-1,0,-1
-31.99,-3.57,42.28,-525,5439,5978,0,-1,0
-31.99,-3.57,42.28,-514,5441,5978,0,-1,0
-31.98,-3.55,42.30,-531,5442,5970,0,-1,0
-32.00,-3.52,42.30,-499,5433,5980,-1,-1,0
-32.01,-3.50,42.31,-489,5446,5978,0,-1,0
-32.01,-3.50,42.32,-493,5443,5979,0,0,0
-32.03,-3.48,42.32,-473,5440,5946,-1,0,0
-32.03,-3.50,42.31,-465,5447,5965,-1,1,-1
-32.03,-3.52,42.31,-571,5428,5954,0,-2,0
-32.04,-3.48,42.31,-459,5452,5972,-1,0,0
-32.06,-3.49,42.28,-537,5453,5971,-1,-1,0
-32.08,-3.45,42.27,-463,5433,6000,-1,-1,0
-32.09,-3.45,42.26,-502,5434,5981,-1,0,0
-32.09,-3.43,42.27,-474,5413,5988,0,-1,0
-32.10,-3.43,42.28,-483,5429,5964,-1,0,-1
-32.10,-3.43,42.28,-492,5420,5978,0,-1,0
-32.10,-3.43,42.27,-501,5437,5967,0,0,-1
-32.12,-3.41,42.28,-486,5438,5985,-1,-1,0
-32.12,-3.40,42.26,-504,5455,5976,-1,-1,0
-32.15,-3.38,42.24,-475,5433,5994,-1,-1,0
-32.16,-3.38,42.23,-484,5430,5980,0,-1,-1
-32.16,-3.37,42.23,-490,5415,5989,-1,-1,0
-32.17,-3.36,42.23,-461,5410,5994,0,0,0
-32.17,-3.36,42.24,-490,5433,5977,-1,0,-1
-32.17,-3.35,42.24,-498,5427,5975,-1,-1,0
-32.18,-3.35,42.24,-492,5450,5973,-1,0,0
-32.19,-3.34,42.23,-468,5446,5988,-1,-1,0
-32.20,-3.33,42.23,-483,5427,5980,-1,0,-1
-32.20,-3.32,42.23,-469,5407,5987,0,-1,0
-32.20,-3.32,42.24,-474,5426,5980,0,0,0
-32.19,-3.31,42.25,-449,5449,5986,0,-1,0
-32.21,-3.32,42.24,-478,5427,5978,-1,0,0
-32.20,-3.31,42.25,-474,5444,6002,0,-1,-1
-32.21,-3.31,42.24,-478,5419,5989,0,0,0
-32.20,-3.31,42.26,-480,5443,5970,0,-1,0
-32.21,-3.30,42.26,-463,5439,6011,0,0,0
-32.21,-3.30,42.26,-486,5449,5990,-1,-1,0
-32.22,-3.29,42.26,-448,5438,5975,-1,0,-1
-32.22,-3.30,42.26,-481,5442,5975,-1,-1,0
-32.23,-3.29,42.25,-487,5457,5973,-1,-1,0
-32.24,-3.29,42.25,-470,5424,5982,-1,-1,0
-32.24,-3.28,42.24,-477,5451,5978,-1,0,0
-32.25,-3.28,42.23,-478,5422,5973,-1,-1,0
-32.26,-3.28,42.22,-472,5444,5978,-1,0,0
-32.27,-3.27,42.21,-464,5436,5975,-1,0,0
-32.29,-3.28,42.19,-458,5423,5987,-1,0,-1
-32.29,-3.27,42.17,-483,5428,5985,-1,-1,0
-32.30,-3.27,42.16,-467,5430,5994,-1,-1,0
-32.31,-3.26,42.14,-473,5414,5998,-1,-1,-1
-32.32,-3.26,42.13,-472,5416,5998,-1,-1,0
-32.33,-3.26,42.12,-464,5425,5992,-1,0,-1
-32.34,-3.25,42.10,-463,5413,5991,-1,0,0
-32.34,-3.25,42.09,-468,5403,5997,0,-1,-1
-32.35,-3.24,42.09,-453,5409,6006,0,-1,0
-32.35,-3.24,42.09,-468,5420,5989,-1,0,0
-32.36,-3.25,42.07,-475,5402,5987,-1,-1,0
-32.36,-3.24,42.08,-461,5401,6004,0,-1,0
-32.36,-3.24,42.08,-464,5417,6003,0,0,-1
-32.35,-3.24,42.09,-459,5410,5992,0,0,-1
-32.34,-3.25,42.09,-464,5419,5998,0,0,-1
-32.33,-3.26,42.09,-484,5416,5987,0,-1,0
-32.32,-3.26,42.11,-458,5425,5988,0,0,-1
-32.32,-3.27,42.10,-468,5421,5984,-1,0,-1
-32.32,-3.27,42.10,-478,5415,5998,-1,-1,-1
-32.30,-3.28,42.10,-461,5415,5989,-1,-1,-1
-32.30,-3.28,42.10,-463,5424,5988,0,0,-1
-32.30,-3.28,42.11,-484,5428,5993,0,-1,-1
-32.30,-3.28,42.10,-467,5405,5983,0,-1,-1
-32.28,-3.29,42.12,-478,5414,5983,0,0,-1
-32.28,-3.29,42.12,-469,5420,5996,0,-1,-1
-32.27,-3.29,42.12,-490,5412,5979,0,-1,-1
-32.26,-3.29,42.14,-473,5411,5992,0,-1,0
-32.25,-3.29,42.15,-468,5435,5995,0,-1,-1
-32.24,-3.28,42.16,-470,5419,6000,0,-1,0
-32.24,-3.27,42.18,-442,5426,5988,0,0,0
-32.23,-3.26,42.20,-485,5412,6007,1,-2,0
-32.22,-3.23,42.22,-434,5419,5980,1,0,-1
-32.21,-3.26,42.25,-471,5421,5987,0,0,-1
-32.20,-3.26,42.28,-416,5420,5960,0,0,-1
-32.16,-3.30,42.31,-512,5440,5955,1,-1,-1
-32.14,-3.29,42.33,-470,5437,5966,-1,0,-1
-32.14,-3.30,42.33,-500,5445,5941,0,-1,0
-32.13,-3.30,42.34,-478,5437,5980,-1,-1,-1
-32.14,-3.29,42.34,-457,5458,5959,-1,-1,-1
-32.12,-3.31,42.36,-519,5451,5987,0,-2,0
-32.12,-3.28,42.36,-441,5439,5957,0,0,-1
-32.11,-3.30,42.37,-472,5436,5945,0,0,-1
-32.10,-3.31,42.38,-471,5440,5960,0,0,-1
-32.09,-3.32,42.37,-472,5441,5939,0,-1,-1
-32.07,-3.34,42.39,-487,5465,5971,-1,-1,0
-32.09,-3.34,42.36,-472,5468,5967,-1,0,-1
-32.08,-3.35,42.36,-500,5438,5952,0,-1,-1
-32.08,-3.36,42.36,-469,5465,5964,-1,0,-1
-32.09,-3.36,42.33,-488,5417,5961,-1,-1,0
-32.09,-3.37,42.33,-450,5427,5967,-1,1,-1
-32.07,-3.40,42.32,-514,5444,5961,-1,-1,-1
-32.08,-3.39,42.31,-470,5420,5959,-1,0,0
-32.09,-3.41,42.31,-494,5466,5977,-1,0,-1
-32.09,-3.41,42.30,-484,5462,5974,-1,-1,0
-32.11,-3.41,42.27,-480,5431,5963,-1,0,-1
-32.12,-3.41,42.25,-476,5412,5967,-1,-1,0
-32.12,-3.41,42.25,-482,5416,5979,-1,-1,-1
-32.12,-3.40,42.25,-475,5419,5985,-1,-1,-1
-32.12,-3.41,42.24,-466,5428,5984,0,0,-1
-32.11,-3.43,42.24,-473,5442,5983,0,0,-1
-32.09,-3.45,42.25,-481,5457,5975,-1,0,-1
-32.09,-3.46,42.24,-504,5435,5964,-1,0,-1
-32.09,-3.47,42.23,-494,5435,5957,-1,0,-1
-32.09,-3.47,42.23,-493,5438,5960,-1,-1,-1
-32.10,-3.47,42.22,-487,5431,5973,-1,0,-1
-32.10,-3.47,42.20,-480,5421,5988,-1,-1,-1
-32.10,-3.47,42.20,-480,5422,5996,0,0,-1
-32.10,-3.48,42.21,-474,5429,5997,-1,0,-1
-32.09,-3.50,42.20,-481,5419,5987,0,0,-1
-32.08,-3.51,42.21,-494,5433,5982,0,0,-1
-32.07,-3.53,42.22,-497,5445,5978,0,0,-1
-32.07,-3.54,42.21,-500,5456,5980,-1,0,-1
-32.07,-3.54,42.21,-500,5453,5974,-1,0,-1
-32.08,-3.55,42.19,-508,5426,5977,-1,0,-1
-32.08,-3.55,42.18,-502,5415,5987,0,0,-1
-32.08,-3.56,42.19,-507,5424,5977,0,0,-1
-32.09,-3.56,42.18,-505,5424,5975,-1,0,-1
-32.08,-3.56,42.18,-500,5415,5967,-1,0,-1
-32.08,-3.57,42.18,-499,5425,5977,-1,0,-1
-32.08,-3.58,42.18,-502,5429,5982,-1,0,-1
-32.07,-3.59,42.19,-516,5430,5968,0,0,-1
-32.07,-3.60,42.19,-515,5437,5984,0,0,-1
-32.06,-3.60,42.19,-516,5432,5979,0,0,-1
-32.06,-3.61,42.19,-505,5428,5973,0,0,-1
-32.06,-3.61,42.19,-501,5426,5961,0,0,-1
-32.05,-3.62,42.20,-500,5424,5965,-1,0,-1
-32.05,-3.63,42.19,-499,5428,5966,-1,0,-1
-32.05,-3.63,42.20,-503,5425,5973,-1,0,-1
-32.05,-3.64,42.19,-503,5422,5980,-1,0,-1
-32.04,-3.65,42.19,-511,5420,5973,0,0,-1
-32.03,-3.64,42.20,-507,5426,5977,0,0,-1
-32.03,-3.65,42.20,-511,5434,5972,0,0,-1
-32.01,-3.66,42.21,-510,5421,5978,0,0,-1
-32.01,-3.67,42.21,-512,5421,5976,0,0,-1
-31.99,-3.67,42.22,-503,5439,5973,0,0,-1
-31.99,-3.68,42.22,-523,5431,5977,-1,0,-1
-31.98,-3.69,42.23,-520,5435,5979,-1,0,-1
-31.98,-3.69,42.23,-529,5439,5982,0,0,-1
-31.98,-3.69,42.23,-529,5435,5964,0,-1,-1
-31.98,-3.69,42.24,-518,5439,5966,0,-1,-1
-31.96,-3.70,42.24,-534,5443,5975,-1,-1,-1
-31.96,-3.69,42.24,-528,5431,5966,0,-1,-1
-31.95,-3.70,42.24,-514,5425,5973,0,-1,-1
-31.94,-3.70,42.25,-521,5427,5978,0,-1,-1
-31.92,-3.70,42.27,-519,5441,5966,0,-1,-1
-31.92,-3.71,42.27,-529,5438,5965,0,0,-1
-31.93,-3.71,42.27,-526,5434,5967,0,0,-1
-31.93,-3.71,42.27,-521,5438,5963,-1,0,-1
-31.93,-3.71,42.27,-513,5437,5966,-1,0,-1
-31.92,-3.72,42.27,-522,5431,5971,-1,-1,-1
-31.93,-3.71,42.26,-517,5426,5964,-1,0,0
-31.93,-3.71,42.26,-522,5431,5966,-1,0,-1
-31.94,-3.71,42.26,-519,5437,5982,-1,-1,0
-31.94,-3.71,42.25,-518,5436,5978,-1,0,0
-31.95,-3.71,42.25,-518,5432,5989,-1,-1,0
-31.95,-3.71,42.24,-516,5423,5973,-1,0,0
-31.95,-3.70,42.25,-520,5430,5971,-1,-1,0
-31.96,-3.70,42.24,-517,5429,5972,-1,-1,0
-31.97,-3.69,42.24,-519,5438,5971,-1,0,0
-31.97,-3.69,42.24,-523,5435,5972,-1,0,-1
-31.98,-3.69,42.23,-519,5425,5975,-1,0,-1
-31.97,-3.70,42.23,-520,5431,5962,-1,0,0
-31.98,-3.69,42.22,-518,5441,5977,-1,-1,0
-32.00,-3.69,42.22,-518,5447,5980,-1,-1,0
-32.00,-3.68,42.22,-512,5437,5988,-1,-1,0
-32.01,-3.68,42.21,-503,5421,5973,-1,0,-1
-32.01,-3.68,42.21,-508,5422,5968,-1,0,-1
-32.01,-3.69,42.21,-514,5425,5973,-1,0,-1
-32.01,-3.69,42.21,-519,5429,5975,-1,0,-1
-32.01,-3.69,42.21,-526,5429,5974,0,-1,-1
-32.01,-3.69,42.21,-523,5436,5974,-1,-1,0
-32.00,-3.69,42.21,-523,5439,5969,-1,-1,0
-32.00,-3.69,42.21,-521,5439,5971,-1,-1,0
-32.00,-3.69,42.21,-518,5439,5973,-1,0,0
-32.01,-3.68,42.22,-514,5441,5966,-1,0,0
-32.01,-3.68,42.22,-518,5439,5960,-1,0,0
-32.01,-3.69,42.21,-521,5428,5970,-1,-1,0
-32.02,-3.68,42.20,-526,5419,5965,-1,-1,0
-32.02,-3.68,42.20,-514,5430,5967,-1,-1,0
-32.04,-3.67,42.20,-511,5436,5984,-1,-1,0
-32.03,-3.67,42.19,-504,5427,5982,-1,0,0
-32.04,-3.67,42.20,-502,5421,5981,0,0,-1
-32.04,-3.67,42.20,-510,5424,5982,0,0,0
-32.04,-3.67,42.20,-513,5434,5974,0,-1,-1
-32.04,-3.67,42.20,-520,5441,5979,-1,0,0
-32.04,-3.67,42.20,-518,5436,5979,0,-1,0
-32.05,-3.67,42.20,-512,5436,5981,-1,0,0
-32.05,-3.66,42.19,-509,5435,5969,-1,-1,0
-32.06,-3.65,42.20,-507,5437,5966,-1,0,0
-32.06,-3.66,42.19,-511,5440,5969,-1,0,0
-32.06,-3.66,42.19,-507,5437,5975,-1,0,0
-32.07,-3.65,42.18,-502,5425,5977,-1,-1,0
-32.07,-3.65,42.18,-507,5421,5979,-1,0,0
-32.08,-3.65,42.18,-511,5418,5981,-1,-1,-1
-32.08,-3.65,42.18,-507,5427,5972,0,0,-1
-32.08,-3.65,42.18,-503,5427,5978,-1,0,0
-32.08,-3.65,42.18,-507,5426,5968,-1,0,0
-32.08,-3.65,42.19,-505,5422,5956,-1,-1,-1
-32.09,-3.64,42.19,-504,5431,5967,-1,0,0
-32.09,-3.64,42.19,-502,5438,5969,-1,-1,0
-32.09,-3.64,42.19,-512,5437,5976,-1,-1,0
-32.09,-3.64,42.18,-513,5432,5983,-1,-1,0
-32.10,-3.63,42.18,-509,5430,5979,-1,0,0
-32.10,-3.63,42.18,-506,5430,5971,-1,0,0
-32.10,-3.63,42.18,-504,5428,5978,-1,-1,0
-32.11,-3.63,42.17,-509,5422,5995,-1,-1,0
-32.11,-3.63,42.17,-501,5424,5990,-1,-1,0
-32.11,-3.63,42.17,-505,5425,5978,-1,0,0
-32.11,-3.62,42.17,-502,5434,5976,-1,0,-1
-32.12,-3.62,42.17,-509,5438,5981,-1,0,-1
-32.12,-3.63,42.16,-512,5431,5982,-1,0,0
-32.13,-3.62,42.16,-505,5429,5972,-1,-1,0
-32.14,-3.61,42.15,-497,5426,5982,-1,-1,0
-32.15,-3.60,42.14,-494,5427,5975,-1,-1,0
-32.15,-3.60,42.14,-490,5424,5976,-1,0,0
-32.16,-3.59,42.14,-494,5421,5973,-1,0,0
-32.17,-3.59,42.13,-505,5416,5978,-1,-1,0
-32.17,-3.59,42.12,-507,5421,5983,-1,-1,0
-32.17,-3.59,42.13,-505,5431,5986,0,-1,-1
-32.17,-3.58,42.13,-503,5436,5988,-1,-1,0
-32.18,-3.58,42.13,-504,5434,5979,-1,-1,0
-32.19,-3.57,42.12,-497,5428,5970,-1,-1,0
-32.20,-3.57,42.11,-484,5425,5985,-1,0,0
-32.21,-3.56,42.10,-487,5424,5977,-1,-1,0
-32.21,-3.56,42.10,-493,5428,5977,-1,0,0
-32.22,-3.56,42.09,-497,5421,5969,-1,0,0
-32.23,-3.55,42.08,-494,5424,5975,-1,-1,0
-32.24,-3.55,42.08,-490,5425,5980,-1,-1,0
-32.25,-3.54,42.07,-489,5427,5978,-1,-1,0
-32.25,-3.54,42.07,-481,5415,5975,-1,0,0
-32.26,-3.54,42.06,-487,5412,5977,-1,0,0
-32.26,-3.53,42.07,-490,5418,5986,-1,0,0
-32.27,-3.54,42.07,-490,5417,5984,-1,0,0
-32.27,-3.53,42.07,-493,5422,5984,-1,-1,0
-32.28,-3.52,42.06,-481,5429,5988,-1,0,0
-32.29,-3.52,42.06,-489,5430,5980,-1,-1,0
-32.30,-3.52,42.05,-495,5417,5980,-1,-1,0
-32.30,-3.51,42.05,-493,5417,5979,-1,-1,0
-32.31,-3.51,42.04,-492,5422,5980,-1,-1,0
-32.33,-3.50,42.03,-482,5416,5984,-1,-1,0
-32.33,-3.50,42.03,-481,5422,5996,-1,0,0
-32.34,-3.50,42.03,-478,5419,6000,-1,0,0
-32.35,-3.49,42.02,-486,5410,6009,-1,0,0
-32.35,-3.49,42.02,-487,5414,6004,0,-1,0
-32.35,-3.49,42.02,-483,5410,5993,0,0,-1
-32.36,-3.50,42.02,-482,5412,5991,-1,0,0
-32.36,-3.50,42.02,-484,5420,5986,-1,0,0
-32.37,-3.49,42.02,-487,5423,5979,-1,0,0
-32.38,-3.49,42.01,-486,5415,5984,-1,0,0
-32.38,-3.49,42.01,-483,5414,5976,-1,0,0
-32.39,-3.49,42.01,-490,5416,5982,-1,-1,0
-32.40,-3.48,42.00,-477,5402,5995,-1,0,-1
-32.40,-3.49,42.01,-495,5412,5996,0,-1,0
-32.40,-3.48,42.01,-483,5419,6009,-1,-1,0
-32.41,-3.49,42.01,-497,5423,5996,-1,0,0
-32.40,-3.49,42.01,-490,5428,5988,-1,0,0
-32.41,-3.49,42.01,-492,5429,5982,-1,-1,-1
-32.41,-3.48,42.01,-474,5425,5982,-1,-1,0
-32.42,-3.48,42.00,-472,5420,5992,-1,0,-1
-32.42,-3.48,41.99,-478,5410,5990,-1,-1,0
-32.42,-3.47,41.99,-471,5405,5989,-1,-1,-1
-32.42,-3.47,41.99,-474,5412,5990,-1,0,-1
-32.41,-3.47,41.99,-493,5416,5997,-1,-1,-1
-32.41,-3.47,41.99,-479,5407,5999,-1,0,-1
-32.41,-3.48,41.99,-486,5411,5996,0,0,-1
-32.40,-3.48,41.99,-487,5415,6007,-1,0,-1
-32.40,-3.49,41.98,-492,5409,6002,0,0,-1
-32.39,-3.50,41.99,-489,5414,5998,0,-1,-1
-32.38,-3.51,42.01,-491,5430,5988,0,0,-1
-32.37,-3.52,42.02,-491,5424,5993,0,-1,-1
-32.36,-3.52,42.02,-486,5421,5985,0,0,-1
-32.34,-3.52,42.04,-500,5409,5981,0,-1,-1
-32.34,-3.51,42.04,-477,5393,6005,0,-1,-1
-32.31,-3.52,42.07,-479,5418,5990,0,0,-1
-32.31,-3.52,42.08,-481,5429,5998,0,0,-1
-32.29,-3.52,42.10,-479,5428,5987,0,-1,-1
-32.28,-3.53,42.11,-484,5430,5999,0,0,-1
-32.27,-3.53,42.13,-493,5439,5980,0,-1,0
-32.27,-3.53,42.12,-482,5424,5966,-1,0,-1
-32.27,-3.52,42.13,-492,5416,5983,0,-1,0
-32.26,-3.53,42.14,-475,5447,5980,-1,0,-1
-32.25,-3.53,42.14,-487,5429,5990,0,-1,0
-32.26,-3.53,42.13,-489,5435,5968,-1,0,-1
-32.25,-3.53,42.15,-490,5432,5981,1,-1,0
-32.25,-3.53,42.15,-498,5433,5986,-1,0,-1
-32.25,-3.53,42.15,-487,5438,5980,0,-1,-1
-32.25,-3.53,42.15,-478,5436,5979,-1,0,-1
-32.25,-3.54,42.14,-501,5419,5979,-1,0,-1
-32.25,-3.55,42.14,-491,5423,5992,0,-1,-1
-32.24,-3.54,42.14,-504,5431,5979,0,-1,-1
-32.23,-3.54,42.15,-505,5442,5989,-1,-1,0
-32.24,-3.54,42.14,-465,5440,5986,-1,0,-1
-32.23,-3.56,42.15,-497,5410,5973,0,-1,-1
-32.23,-3.56,42.16,-479,5435,5996,-1,0,-1
-32.22,-3.57,42.17,-513,5431,5973,1,-1,0
-32.22,-3.56,42.17,-470,5435,5981,-1,0,-1
-32.21,-3.58,42.18,-514,5433,5974,0,-1,0
-32.21,-3.57,42.19,-485,5443,5994,0,-1,-1
-32.20,-3.58,42.20,-514,5420,5966,0,0,0
-32.20,-3.57,42.21,-489,5432,5982,0,0,-1
-32.20,-3.58,42.22,-515,5438,5979,0,-1,0
-32.20,-3.58,42.22,-480,5446,5998,-1,0,-1
-32.20,-3.59,42.22,-504,5440,5956,0,-1,-1
-32.20,-3.59,42.21,-483,5438,5984,-1,0,-1
-32.20,-3.60,42.20,-524,5427,5963,-1,-1,-1
-32.19,-3.59,42.20,-482,5432,5983,-1,0,-1
-32.20,-3.60,42.20,-512,5441,5967,-1,0,-1
-32.21,-3.60,42.19,-484,5425,5989,-1,0,-1
-32.21,-3.61,42.18,-502,5429,5985,-1,0,-1
-32.20,-3.61,42.18,-497,5449,5983,-1,0,-1
-32.21,-3.63,42.17,-515,5448,5974,-1,-1,-1
-32.21,-3.62,42.16,-518,5435,5964,-1,-1,0
-32.22,-3.62,42.15,-504,5429,5969,-1,0,-1
-32.22,-3.62,42.15,-507,5431,5989,-1,-1,-1
-32.20,-3.62,42.15,-493,5422,5985,0,0,-1
-32.20,-3.63,42.15,-504,5424,5984,-1,0,-1
-32.20,-3.64,42.15,-501,5425,5975,-1,0,-1
-32.20,-3.65,42.15,-507,5433,5966,-1,0,-1
-32.20,-3.65,42.15,-512,5434,5964,-1,-1,-1
-32.19,-3.65,42.15,-508,5435,5969,-1,0,-1
-32.19,-3.65,42.14,-510,5433,5991,-1,0,-1
-32.20,-3.66,42.13,-503,5423,5997,-1,0,-1
-32.19,-3.66,42.12,-498,5418,5992,-1,0,-1
-32.19,-3.66,42.13,-499,5422,5991,0,0,-1
-32.18,-3.66,42.13,-501,5435,5977,-1,0,-1
-32.18,-3.67,42.13,-509,5441,5990,-1,0,0
-32.19,-3.67,42.12,-507,5421,5996,-1,0,-1
-32.20,-3.68,42.12,-507,5419,5991,0,0,-1
-32.19,-3.68,42.12,-516,5421,5984,0,-1,-1
-32.18,-3.69,42.13,-509,5429,5989,0,0,-1
-32.18,-3.69,42.14,-515,5437,5979,0,0,-1
-32.18,-3.69,42.14,-511,5437,5965,-1,0,-1
-32.16,-3.70,42.14,-509,5428,5967,0,0,-1
-32.16,-3.71,42.14,-510,5424,5969,0,0,-1
-32.15,-3.72,42.15,-525,5415,5976,0,-1,-1
-32.14,-3.72,42.15,-516,5416,5987,0,-1,-1
-32.14,-3.73,42.16,-518,5432,5980,0,0,-1
-32.13,-3.73,42.16,-514,5429,5977,-1,0,-1
-32.12,-3.75,42.16,-519,5431,5974,-1,0,-1
-32.12,-3.75,42.16,-518,5425,5970,-1,0,-1
-32.12,-3.75,42.16,-506,5428,5968,-1,0,-1
-32.12,-3.75,42.17,-522,5428,5960,0,0,-1
-32.11,-3.76,42.18,-522,5436,5966,0,0,-1
-32.11,-3.76,42.18,-521,5440,5970,0,0,-1
-32.10,-3.76,42.19,-519,5445,5966,-1,0,-1
-32.10,-3.77,42.19,-522,5446,5973,-1,0,-1
-32.10,-3.77,42.18,-530,5435,5976,-1,0,0
-32.10,-3.77,42.18,-532,5435,5978,-1,-1,-1
-32.09,-3.77,42.19,-532,5437,5975,0,-1,-1
-32.09,-3.77,42.19,-532,5443,5968,0,-1,-1
-32.09,-3.77,42.20,-525,5431,5977,0,-1,0
-32.09,-3.77,42.20,-525,5432,5972,-1,0,-1
-32.08,-3.77,42.20,-527,5431,5974,0,0,-1
-32.08,-3.78,42.20,-526,5422,5973,0,-1,-1
-32.08,-3.78,42.21,-523,5436,5981,0,-1,-1
-32.07,-3.77,42.21,-527,5447,5975,0,-1,0
-32.08,-3.77,42.21,-519,5444,5966,-1,-1,-1
-32.08,-3.77,42.21,-527,5441,5961,-1,0,-1
-32.08,-3.77,42.20,-521,5432,5963,-1,0,0
-32.09,-3.77,42.20,-526,5428,5968,-1,-1,0
-32.09,-3.76,42.20,-523,5438,5973,-1,-1,0
-32.10,-3.75,42.20,-516,5441,5986,-1,-1,0
