Yaw,Pitch,Roll,AX,AY,AZ,GX,GY,GZ
177.44,-3.34,-42.85,-477,-5637,6077,0,-1,0
177.44,-3.34,-42.85,-471,-5635,6074,0,0,0
177.44,-3.34,-42.84,-472,-5640,6080,0,0,0
177.44,-3.34,-42.84,-477,-5636,6080,0,0,0
177.44,-3.34,-42.84,-482,-5636,6080,0,0,0
177.44,-3.34,-42.84,-475,-5632,6062,0,-1,-1
177.44,-3.34,-42.84,-478,-5629,6066,0,0,0
177.44,-3.34,-42.83,-475,-5632,6080,0,0,0
177.44,-3.34,-42.82,-474,-5633,6078,0,0,0
177.44,-3.34,-42.82,-483,-5638,6087,0,-1,0
177.44,-3.35,-42.82,-490,-5642,6080,0,0,0
177.44,-3.35,-42.82,-498,-5650,6079,0,0,-1
177.44,-3.35,-42.82,-495,-5650,6078,0,-1,-1
177.44,-3.35,-42.80,-491,-5637,6084,0,-1,-1
177.44,-3.35,-42.79,-482,-5633,6081,0,-1,0
177.44,-3.34,-42.79,-477,-5624,6080,0,0,0
177.44,-3.35,-42.78,-475,-5627,6081,0,0,0
177.43,-3.35,-42.78,-476,-5628,6086,0,0,0
177.42,-3.36,-42.78,-488,-5625,6081,0,0,0
177.42,-3.36,-42.78,-493,-5624,6074,0,-1,0
177.42,-3.36,-42.78,-495,-5629,6081,0,-1,-1
177.42,-3.36,-42.78,-491,-5632,6083,0,-1,0
177.43,-3.36,-42.77,-486,-5626,6082,0,-1,0
177.43,-3.36,-42.77,-477,-5623,6087,0,-1,0
177.42,-3.36,-42.76,-474,-5619,6090,0,0,0
177.42,-3.36,-42.76,-479,-5619,6103,0,0,0
177.42,-3.37,-42.75,-484,-5618,6096,-1,0,0
177.41,-3.37,-42.75,-485,-5620,6094,0,0,0
177.41,-3.37,-42.75,-484,-5628,6096,0,0,0
177.41,-3.37,-42.75,-485,-5627,6096,-1,0,0
177.41,-3.37,-42.75,-485,-5622,6086,0,0,0
177.41,-3.38,-42.74,-484,-5631,6089,0,0,0
177.41,-3.38,-42.74,-491,-5634,6094,0,0,0
177.41,-3.38,-42.73,-495,-5632,6098,0,0,0
177.40,-3.39,-42.72,-495,-5628,6096,0,-1,0
177.40,-3.38,-42.72,-486,-5623,6095,0,-1,-1
177.40,-3.38,-42.72,-482,-5616,6093,0,-1,0
177.40,-3.38,-42.71,-476,-5612,6096,0,0,0
177.40,-3.38,-42.71,-469,-5609,6101,0,0,0
177.40,-3.38,-42.71,-474,-5614,6104,-1,0,0
177.40,-3.38,-42.71,-484,-5614,6097,-1,0,0
177.40,-3.38,-42.71,-492,-5618,6099,-1,-1,0
177.40,-3.38,-42.72,-493,-5618,6097,0,0,0
177.39,-3.39,-42.71,-490,-5617,6097,-1,-1,0
177.40,-3.38,-42.71,-496,-5615,6103,0,-1,-1
177.40,-3.38,-42.71,-491,-5614,6095,0,-1,-1
177.40,-3.37,-42.71,-492,-5608,6095,0,-1,-1
177.40,-3.37,-42.70,-488,-5611,6095,-1,-1,0
177.40,-3.37,-42.71,-492,-5614,6091,-1,-1,0
177.40,-3.36,-42.71,-486,-5612,6090,-1,-1,-1
177.40,-3.36,-42.71,-485,-5610,6093,-1,-1,0
177.40,-3.36,-42.72,-475,-5613,6080,-1,-1,-1
177.40,-3.35,-42.72,-480,-5623,6100,0,-1,-1
177.41,-3.34,-42.72,-482,-5619,6104,-1,-1,-1
177.41,-3.34,-42.72,-494,-5624,6096,-1,-1,-1
177.40,-3.35,-42.72,-495,-5624,6098,-1,-1,-1
177.40,-3.34,-42.72,-490,-5626,6086,0,-1,-1
177.40,-3.33,-42.72,-483,-5619,6090,0,-1,-1
177.41,-3.33,-42.72,-468,-5610,6087,0,-1,0
177.41,-3.32,-42.72,-470,-5612,6093,-1,-1,0
177.41,-3.32,-42.72,-473,-5616,6096,-1,0,0
177.41,-3.32,-42.73,-479,-5623,6100,-1,0,0
177.41,-3.33,-42.73,-494,-5618,6101,-1,-1,-1
177.41,-3.32,-42.74,-491,-5630,6097,-1,-1,-1
177.41,-3.32,-42.74,-490,-5632,6089,-1,-1,-1
177.41,-3.32,-42.75,-483,-5627,6086,-1,-1,-1
177.41,-3.31,-42.75,-479,-5628,6076,-1,-1,0
177.41,-3.31,-42.76,-472,-5628,6076,-1,0,0
177.41,-3.31,-42.76,-474,-5619,6078,-1,0,0
177.41,-3.31,-42.76,-469,-5618,6088,-1,0,0
177.41,-3.31,-42.77,-471,-5620,6096,-1,0,0
177.41,-3.32,-42.77,-477,-5629,6094,-1,0,0
177.41,-3.31,-42.78,-480,-5633,6095,-1,-1,-1
177.41,-3.32,-42.78,-484,-5632,6077,-1,0,0
177.41,-3.32,-42.79,-485,-5631,6073,-1,0,0
177.41,-3.32,-42.79,-481,-5633,6076,-1,0,0
177.41,-3.32,-42.79,-489,-5632,6091,0,0,-1
177.41,-3.32,-42.79,-489,-5636,6093,0,-1,-1
177.41,-3.32,-42.79,-490,-5628,6091,-1,-1,-1
177.41,-3.32,-42.79,-484,-5627,6093,-1,-1,-1
177.42,-3.31,-42.79,-472,-5626,6096,-1,-1,-1
177.42,-3.30,-42.79,-468,-5616,6092,-1,0,-1
177.42,-3.30,-42.79,-466,-5612,6100,-1,0,0
177.42,-3.30,-42.80,-468,-5620,6086,-1,0,0
177.42,-3.31,-42.80,-471,-5629,6090,-1,0,0
177.42,-3.31,-42.80,-480,-5629,6095,-1,0,-1
177.42,-3.31,-42.81,-488,-5631,6084,-1,0,-1
177.42,-3.31,-42.81,-492,-5636,6075,-1,-1,-1
177.42,-3.31,-42.82,-489,-5638,6072,0,-1,-1
177.42,-3.31,-42.82,-484,-5635,6086,-1,-1,-1
177.42,-3.31,-42.82,-479,-5638,6083,-1,-1,0
177.42,-3.31,-42.82,-477,-5635,6087,-1,-1,-1
177.43,-3.30,-42.82,-477,-5630,6090,-1,-1,-1
177.43,-3.30,-42.82,-480,-5628,6084,-1,0,-1
177.43,-3.30,-42.83,-476,-5623,6084,-1,0,0
177.43,-3.30,-42.83,-476,-5622,6082,-1,0,-1
177.42,-3.31,-42.84,-486,-5629,6078,-1,0,-1
177.43,-3.31,-42.84,-492,-5639,6077,-1,0,-1
177.43,-3.31,-42.85,-479,-5639,6074,0,-1,-1
177.43,-3.30,-42.85,-474,-5635,6070,-1,-1,0
177.42,-3.30,-42.85,-471,-5631,6070,-1,0,0
177.42,-3.31,-42.85,-468,-5630,6067,-1,0,0
177.42,-3.31,-42.85,-479,-5634,6079,-1,0,-1
177.42,-3.31,-42.86,-489,-5635,6094,-1,0,-1
177.42,-3.31,-42.86,-501,-5629,6088,-1,-1,-1
177.43,-3.31,-42.87,-490,-5634,6081,-1,-1,-1
177.43,-3.30,-42.87,-480,-5643,6079,0,-1,-1
177.43,-3.29,-42.87,-469,-5641,6077,0,-1,-1
177.44,-3.29,-42.86,-462,-5633,6076,0,-1,0
177.44,-3.29,-42.86,-458,-5628,6069,0,-1,0
177.43,-3.29,-42.86,-460,-5624,6084,-1,0,0
177.43,-3.29,-42.86,-468,-5626,6090,-1,0,0
177.43,-3.29,-42.87,-475,-5640,6082,-1,0,0
177.43,-3.29,-42.88,-476,-5641,6070,-1,0,0
177.43,-3.29,-42.89,-475,-5645,6070,-1,-1,0
177.43,-3.29,-42.89,-476,-5653,6074,-1,-1,0
177.43,-3.29,-42.90,-481,-5656,6073,0,-1,-1
177.43,-3.29,-42.89,-486,-5650,6079,0,-1,-1
177.43,-3.29,-42.89,-476,-5640,6067,0,-1,-1
177.42,-3.29,-42.89,-475,-5640,6076,-1,-1,-1
177.43,-3.29,-42.89,-477,-5639,6082,0,0,0
177.43,-3.29,-42.89,-470,-5632,6082,-1,-1,0
177.43,-3.28,-42.90,-466,-5624,6078,-1,0,0
177.43,-3.28,-42.90,-470,-5621,6078,-1,0,0
177.43,-3.28,-42.90,-467,-5625,6081,-1,0,0
177.43,-3.28,-42.90,-473,-5636,6085,-1,0,0
177.43,-3.28,-42.90,-479,-5643,6079,-1,0,-1
177.43,-3.28,-42.90,-471,-5643,6081,0,0,0
177.43,-3.28,-42.90,-471,-5650,6072,0,-1,0
177.43,-3.28,-42.90,-472,-5644,6070,0,-1,0
177.43,-3.28,-42.90,-478,-5646,6086,0,-1,-1
177.43,-3.28,-42.90,-472,-5639,6095,-1,-1,-1
177.43,-3.28,-42.90,-473,-5637,6090,-1,0,-1
177.43,-3.28,-42.90,-472,-5636,6086,-1,-1,-1
177.44,-3.27,-42.90,-467,-5644,6083,0,-1,-1
177.44,-3.27,-42.90,-463,-5644,6086,-1,-1,0
177.44,-3.26,-42.90,-460,-5637,6084,-1,0,-1
177.44,-3.26,-42.90,-465,-5637,6082,-1,0,-1
177.44,-3.27,-42.90,-484,-5639,6078,-1,0,-1
177.44,-3.27,-42.90,-483,-5638,6073,0,0,-1
177.44,-3.27,-42.90,-481,-5627,6079,-1,-1,-1
177.44,-3.27,-42.90,-474,-5637,6080,-1,0,0
177.44,-3.27,-42.90,-472,-5642,6081,-1,0,-1
177.44,-3.27,-42.90,-472,-5645,6080,-1,0,0
177.44,-3.27,-42.90,-473,-5642,6086,-1,0,-1
177.45,-3.27,-42.90,-479,-5640,6087,-1,0,-1
177.45,-3.26,-42.90,-471,-5642,6085,-1,-1,-1
177.45,-3.26,-42.90,-468,-5641,6085,-1,-1,0
177.45,-3.26,-42.90,-469,-5638,6084,-1,-1,0
177.45,-3.26,-42.90,-456,-5645,6074,0,0,0
177.44,-3.27,-42.90,-463,-5641,6076,0,0,0
177.43,-3.28,-42.90,-470,-5626,6085,-1,0,0
177.43,-3.28,-42.90,-474,-5625,6087,-1,0,0
177.43,-3.28,-42.91,-480,-5636,6074,-1,0,0
177.43,-3.28,-42.91,-478,-5645,6074,-1,0,0
177.43,-3.28,-42.91,-482,-5650,6081,0,-1,0
177.43,-3.28,-42.91,-475,-5651,6070,0,0,0
177.43,-3.28,-42.90,-472,-5645,6072,0,0,0
177.43,-3.28,-42.90,-471,-5644,6072,0,0,0
177.43,-3.29,-42.89,-476,-5634,6086,0,0,-1
177.43,-3.29,-42.89,-472,-5633,6099,0,0,-1
177.43,-3.29,-42.89,-476,-5631,6091,-1,0,-1
177.43,-3.29,-42.88,-473,-5626,6076,0,0,0
177.43,-3.29,-42.88,-467,-5632,6078,0,0,-1
177.43,-3.29,-42.88,-468,-5641,6078,0,-1,0
177.43,-3.28,-42.88,-463,-5641,6079,0,0,0
177.43,-3.28,-42.87,-461,-5635,6075,0,0,0
177.43,-3.29,-42.87,-464,-5627,6076,0,0,0
177.43,-3.29,-42.86,-473,-5632,6083,0,0,0
177.43,-3.29,-42.86,-474,-5630,6088,0,-1,-1
177.43,-3.28,-42.86,-471,-5632,6079,0,-1,0
177.43,-3.28,-42.86,-474,-5635,6081,0,0,0
177.43,-3.28,-42.85,-471,-5628,6086,0,0,0
177.43,-3.28,-42.85,-476,-5636,6093,0,0,0
177.42,-3.29,-42.85,-475,-5632,6091,0,0,0
177.42,-3.29,-42.85,-474,-5632,6089,0,0,0
177.42,-3.29,-42.84,-480,-5626,6090,-1,0,0
177.42,-3.29,-42.84,-476,-5625,6082,0,0,0
177.42,-3.29,-42.84,-478,-5641,6078,0,0,0
177.42,-3.29,-42.84,-476,-5640,6079,0,0,0
177.42,-3.29,-42.84,-474,-5637,6088,0,-1,0
177.42,-3.29,-42.84,-479,-5630,6089,-1,0,0
177.42,-3.29,-42.84,-478,-5626,6084,0,0,-1
177.41,-3.30,-42.83,-479,-5630,6079,0,0,-1
177.41,-3.30,-42.83,-476,-5626,6079,0,0,0
177.42,-3.30,-42.82,-467,-5632,6091,0,0,0
177.42,-3.29,-42.81,-464,-5635,6093,0,0,0
177.42,-3.30,-42.81,-474,-5631,6093,0,0,0
177.41,-3.31,-42.80,-485,-5627,6090,0,0,0
177.41,-3.31,-42.80,-486,-5633,6094,0,-1,0
177.41,-3.31,-42.80,-482,-5635,6085,0,-1,-1
177.42,-3.30,-42.80,-475,-5632,6077,0,-1,-1
177.42,-3.29,-42.79,-465,-5634,6078,0,-1,0
177.42,-3.29,-42.78,-464,-5629,6086,0,0,0
177.42,-3.29,-42.78,-468,-5621,6087,0,0,0
177.42,-3.29,-42.78,-473,-5613,6098,-1,0,0
177.41,-3.30,-42.78,-470,-5608,6091,-1,0,0
177.41,-3.30,-42.78,-479,-5616,6086,-1,0,0
177.41,-3.30,-42.78,-471,-5624,6086,0,0,0
177.41,-3.31,-42.78,-476,-5627,6092,0,0,0
177.41,-3.31,-42.78,-478,-5627,6090,0,0,0
177.41,-3.31,-42.78,-483,-5633,6084,0,0,0
177.40,-3.32,-42.77,-483,-5630,6086,0,0,0
177.40,-3.32,-42.76,-486,-5633,6094,0,0,-1
177.40,-3.32,-42.75,-484,-5627,6106,0,-1,0
177.40,-3.32,-42.75,-480,-5614,6106,0,0,0
177.40,-3.32,-42.74,-477,-5613,6104,0,0,0
177.40,-3.32,-42.74,-476,-5613,6090,0,0,0
177.40,-3.32,-42.74,-475,-5622,6104,0,-1,0
177.40,-3.32,-42.74,-487,-5621,6102,0,0,0
177.39,-3.33,-42.74,-489,-5616,6096,-1,0,0
177.39,-3.33,-42.73,-489,-5610,6093,0,0,0
177.39,-3.33,-42.73,-493,-5615,6085,0,0,0
177.39,-3.33,-42.73,-489,-5621,6098,0,0,0
177.38,-3.34,-42.72,-481,-5627,6097,0,0,0
177.38,-3.34,-42.72,-487,-5616,6097,0,0,0
177.38,-3.34,-42.72,-488,-5614,6092,0,0,0
177.38,-3.34,-42.71,-481,-5619,6098,0,0,0
177.38,-3.34,-42.71,-478,-5622,6098,0,0,0
177.38,-3.34,-42.71,-480,-5617,6105,-1,0,0
177.38,-3.34,-42.71,-484,-5613,6095,-1,0,0
177.37,-3.35,-42.71,-484,-5617,6087,-1,0,0
177.37,-3.35,-42.71,-486,-5621,6086,0,0,0
177.37,-3.35,-42.70,-489,-5621,6099,0,0,0
177.37,-3.35,-42.70,-491,-5618,6092,0,0,0
177.36,-3.35,-42.70,-494,-5617,6089,0,0,0
177.36,-3.35,-42.70,-496,-5614,6092,0,-1,-1
177.36,-3.35,-42.69,-488,-5608,6095,-1,-1,0
177.36,-3.35,-42.69,-491,-5605,6087,0,-1,0
177.36,-3.35,-42.69,-490,-5611,6088,0,-1,0
177.36,-3.36,-42.69,-483,-5611,6089,-1,-1,0
177.36,-3.35,-42.70,-491,-5617,6089,-1,0,-1
177.36,-3.35,-42.70,-495,-5621,6089,0,-1,-1
177.37,-3.35,-42.69,-487,-5616,6089,0,-1,-1
177.36,-3.34,-42.68,-474,-5608,6096,0,-1,-1
177.37,-3.33,-42.68,-477,-5612,6097,-1,-1,0
177.37,-3.33,-42.69,-472,-5613,6103,-1,0,0
177.36,-3.33,-42.69,-466,-5612,6109,-1,0,0
177.36,-3.33,-42.69,-480,-5622,6117,-1,0,-1
177.36,-3.33,-42.69,-501,-5623,6119,-1,-1,-1
177.36,-3.33,-42.70,-494,-5625,6106,-1,-1,-1
177.36,-3.33,-42.70,-492,-5626,6097,-1,-1,-1
177.37,-3.32,-42.70,-481,-5627,6099,0,-1,-1
177.37,-3.31,-42.70,-471,-5615,6097,0,-1,-1
177.37,-3.31,-42.70,-468,-5610,6100,0,-1,0
177.37,-3.30,-42.69,-465,-5597,6103,-1,0,0
177.37,-3.31,-42.70,-472,-5605,6102,-1,0,0
177.37,-3.31,-42.71,-483,-5618,6086,-1,0,0
177.37,-3.31,-42.71,-486,-5622,6090,-1,-1,-1
177.37,-3.31,-42.72,-486,-5622,6085,-1,-1,-1
177.37,-3.31,-42.72,-480,-5623,6088,-1,-1,-1
177.37,-3.31,-42.73,-473,-5619,6087,-1,0,-1
177.37,-3.31,-42.72,-478,-5628,6094,0,-1,-1
177.37,-3.30,-42.72,-476,-5631,6093,0,-1,-1
177.38,-3.30,-42.72,-480,-5620,6097,-1,-1,-1
177.37,-3.29,-42.72,-475,-5620,6096,-1,-1,-1
177.37,-3.29,-42.72,-478,-5616,6101,-1,-1,-1
177.37,-3.29,-42.73,-472,-5606,6098,-1,0,-1
177.37,-3.29,-42.73,-468,-5607,6105,-1,0,0
177.37,-3.29,-42.74,-467,-5607,6094,-1,0,0
177.37,-3.29,-42.74,-469,-5614,6088,-1,0,0
177.37,-3.30,-42.75,-476,-5622,6088,-1,0,-1
177.37,-3.30,-42.76,-479,-5628,6083,-1,0,-1
177.37,-3.30,-42.76,-482,-5636,6084,-1,0,0
177.37,-3.30,-42.76,-482,-5637,6079,0,-1,-1
177.37,-3.29,-42.76,-472,-5632,6086,0,-1,-1
177.37,-3.29,-42.76,-471,-5628,6091,-1,-1,-1
177.38,-3.29,-42.76,-469,-5623,6100,-1,-1,-1
177.38,-3.29,-42.76,-471,-5622,6096,-1,0,-1
177.38,-3.29,-42.76,-468,-5621,6100,-1,0,-1
177.38,-3.29,-42.77,-466,-5622,6097,-1,0,0
177.38,-3.29,-42.77,-471,-5622,6087,-1,0,-1
177.38,-3.29,-42.77,-480,-5624,6092,-1,0,0
177.38,-3.29,-42.78,-475,-5623,6085,-1,0,-1
177.38,-3.29,-42.78,-480,-5632,6083,-1,0,-1
177.38,-3.29,-42.78,-478,-5625,6087,-1,-1,-1
177.38,-3.29,-42.79,-476,-5625,6076,-1,-1,-1
177.38,-3.29,-42.79,-474,-5619,6080,-1,0,0
177.39,-3.28,-42.79,-468,-5618,6093,-1,-1,-1
177.39,-3.28,-42.79,-467,-5622,6100,-1,0,0
177.38,-3.29,-42.79,-477,-5635,6105,-1,0,-1
177.39,-3.28,-42.80,-483,-5648,6100,-1,0,-1
177.39,-3.28,-42.80,-483,-5634,6088,0,-1,-1
177.39,-3.28,-42.80,-473,-5623,6081,-1,-1,0
177.39,-3.27,-42.80,-463,-5623,6086,-1,-1,0
177.39,-3.27,-42.80,-462,-5620,6090,-1,0,0
177.39,-3.27,-42.80,-472,-5624,6095,-1,0,0
177.39,-3.27,-42.80,-480,-5618,6099,-1,0,-1
177.39,-3.28,-42.80,-487,-5629,6094,-1,0,-1
177.39,-3.28,-42.81,-495,-5631,6083,-1,0,-1
177.39,-3.28,-42.82,-492,-5634,6081,-1,-1,-1
177.39,-3.27,-42.82,-485,-5634,6082,-1,-1,-1
177.39,-3.27,-42.82,-467,-5639,6084,0,-1,0
177.40,-3.26,-42.81,-457,-5632,6089,0,0,0
177.39,-3.27,-42.81,-460,-5626,6096,-1,-1,0
177.39,-3.27,-42.82,-456,-5615,6087,-1,0,0
177.39,-3.27,-42.83,-462,-5621,6083,-1,0,0
177.39,-3.27,-42.83,-473,-5628,6078,-1,0,0
177.39,-3.27,-42.84,-472,-5638,6073,-1,0,0
177.39,-3.27,-42.85,-479,-5650,6071,-1,0,0
177.39,-3.27,-42.85,-478,-5652,6077,-1,0,0
177.39,-3.27,-42.85,-478,-5649,6082,0,0,-1
177.39,-3.27,-42.85,-482,-5642,6090,0,0,0
177.38,-3.28,-42.85,-477,-5639,6087,-1,-1,0
177.38,-3.27,-42.85,-468,-5633,6085,-1,-1,0
177.37,-3.28,-42.85,-459,-5625,6083,-1,0,0
177.37,-3.28,-42.86,-462,-5622,6086,-1,0,0
177.37,-3.28,-42.86,-471,-5626,6084,-1,0,0
177.36,-3.29,-42.88,-473,-5627,6076,-1,0,0
177.36,-3.29,-42.89,-471,-5627,6069,-1,0,0
177.36,-3.30,-42.91,-473,-5642,6056,-1,0,0
177.36,-3.31,-42.92,-480,-5649,6068,-1,0,0
177.35,-3.32,-42.92,-480,-5656,6065,-1,0,0
177.35,-3.32,-42.92,-484,-5652,6074,-1,0,0
177.35,-3.32,-42.92,-488,-5649,6080,-1,-1,0
177.35,-3.32,-42.92,-480,-5641,6072,0,-1,0
177.35,-3.32,-42.92,-478,-5645,6073,-1,0,-1
177.35,-3.32,-42.93,-476,-5649,6077,-1,0,-1
177.35,-3.32,-42.93,-474,-5636,6086,-1,0,-1
177.35,-3.32,-42.94,-481,-5642,6071,-1,-1,-1
177.35,-3.32,-42.94,-481,-5643,6073,-1,-1,0
177.35,-3.31,-42.94,-481,-5641,6076,-1,-1,-1
177.35,-3.31,-42.94,-480,-5645,6072,-1,-1,-1
177.35,-3.31,-42.95,-480,-5648,6060,0,-1,-1
177.35,-3.30,-42.95,-476,-5646,6068,-1,-1,-1
177.35,-3.30,-42.95,-481,-5640,6066,-1,0,-1
177.36,-3.30,-42.95,-479,-5646,6075,-1,0,-1
177.36,-3.30,-42.95,-477,-5648,6077,0,0,-1
177.36,-3.30,-42.95,-479,-5638,6070,0,-1,-1
177.37,-3.29,-42.95,-471,-5632,6063,-1,0,0
177.36,-3.30,-42.95,-467,-5631,6064,-1,0,-1
177.36,-3.30,-42.96,-478,-5644,6070,-1,0,-1
177.37,-3.30,-42.96,-488,-5642,6065,-1,0,-1
177.37,-3.31,-42.96,-490,-5645,6069,-1,0,-1
177.37,-3.31,-42.96,-490,-5643,6065,-1,0,-1
177.38,-3.30,-42.97,-488,-5654,6068,-1,-1,-1
177.38,-3.30,-42.97,-483,-5648,6067,-1,0,-1
177.38,-3.30,-42.96,-466,-5638,6066,0,0,-1
177.39,-3.29,-42.95,-467,-5634,6075,0,0,-1
177.39,-3.29,-42.96,-473,-5645,6080,-1,0,-1
177.39,-3.29,-42.96,-474,-5643,6083,-1,0,-1
177.39,-3.29,-42.97,-480,-5640,6070,-1,-1,-1
177.39,-3.29,-42.97,-482,-5647,6066,-1,-1,0
177.39,-3.29,-42.97,-477,-5656,6070,-1,-1,0
177.39,-3.29,-42.97,-478,-5657,6067,0,-1,0
177.38,-3.30,-42.97,-487,-5646,6070,0,-1,0
177.37,-3.30,-42.96,-484,-5638,6073,0,0,0
177.37,-3.30,-42.95,-489,-5646,6076,0,0,0
177.37,-3.30,-42.95,-485,-5645,6084,0,-1,0
177.38,-3.29,-42.95,-490,-5649,6082,0,-1,-1
177.37,-3.30,-42.95,-482,-5649,6079,0,-1,-1
177.37,-3.29,-42.94,-475,-5639,6075,0,-1,0
177.37,-3.29,-42.93,-472,-5634,6074,0,-1,0
177.37,-3.29,-42.93,-468,-5628,6079,0,-1,0
177.38,-3.28,-42.92,-464,-5632,6082,0,-1,0
177.37,-3.28,-42.92,-472,-5637,6083,0,0,0
177.37,-3.29,-42.92,-478,-5647,6080,0,0,0
177.37,-3.29,-42.92,-487,-5654,6080,0,-1,0
177.37,-3.29,-42.92,-485,-5655,6078,0,-1,-1
177.37,-3.29,-42.91,-483,-5652,6082,0,-1,-1
177.37,-3.29,-42.91,-482,-5647,6086,0,-1,-1
177.37,-3.28,-42.90,-481,-5638,6080,0,-1,-1
177.37,-3.28,-42.89,-481,-5635,6079,0,-1,-1
177.37,-3.28,-42.89,-469,-5633,6083,0,0,0
177.37,-3.28,-42.89,-468,-5633,6088,0,0,0
177.37,-3.29,-42.88,-468,-5630,6092,0,0,-1
177.37,-3.29,-42.88,-473,-5636,6090,-1,0,0
177.37,-3.29,-42.88,-483,-5635,6078,-1,0,-1
177.37,-3.29,-42.88,-489,-5645,6071,0,0,-1
177.37,-3.29,-42.87,-484,-5641,6075,0,-1,-1
177.37,-3.28,-42.86,-480,-5634,6088,0,-1,0
177.36,-3.29,-42.85,-472,-5629,6084,0,-1,0
177.36,-3.29,-42.85,-468,-5623,6083,0,0,0
177.36,-3.29,-42.84,-477,-5619,6078,0,0,0
177.36,-3.30,-42.84,-488,-5614,6079,-1,0,0
177.36,-3.31,-42.84,-495,-5619,6083,-1,0,-1
177.36,-3.31,-42.84,-494,-5625,6089,-1,-1,-1
177.36,-3.30,-42.85,-478,-5634,6071,0,0,-1
177.37,-3.30,-42.85,-474,-5640,6080,0,0,0
177.37,-3.30,-42.85,-466,-5642,6073,0,0,0
177.37,-3.30,-42.84,-462,-5635,6077,0,0,0
177.36,-3.30,-42.83,-469,-5624,6076,0,0,0
177.36,-3.30,-42.83,-478,-5621,6088,-1,0,0
177.36,-3.31,-42.83,-488,-5633,6090,-1,0,0
177.36,-3.31,-42.83,-480,-5638,6081,0,-1,-1
177.36,-3.31,-42.83,-482,-5643,6070,-1,0,-1
177.36,-3.31,-42.84,-475,-5639,6069,0,0,0
177.36,-3.31,-42.83,-482,-5644,6071,0,0,0
177.36,-3.31,-42.82,-479,-5637,6079,0,0,0
177.36,-3.31,-42.81,-488,-5636,6084,0,-1,-1
177.36,-3.31,-42.80,-493,-5637,6090,0,-1,-1
177.36,-3.31,-42.80,-492,-5634,6090,0,-1,-1
177.36,-3.31,-42.78,-479,-5622,6098,0,-1,0
177.36,-3.30,-42.77,-463,-5617,6096,0,-1,-1
177.36,-3.29,-42.77,-459,-5615,6086,0,0,0
177.36,-3.30,-42.76,-462,-5613,6088,-1,0,0
177.36,-3.30,-42.76,-472,-5620,6085,0,0,0
177.36,-3.30,-42.76,-471,-5633,6093,0,0,0
177.36,-3.31,-42.76,-483,-5638,6099,0,-1,-1
177.35,-3.31,-42.76,-482,-5639,6098,0,0,0
177.35,-3.31,-42.76,-486,-5636,6105,0,-1,0
177.35,-3.31,-42.74,-483,-5627,6107,0,-1,0
177.35,-3.31,-42.74,-483,-5623,6092,0,-1,0
177.36,-3.30,-42.74,-475,-5621,6100,0,0,0
177.36,-3.30,-42.73,-472,-5622,6108,0,-1,0
177.35,-3.30,-42.72,-473,-5616,6107,0,0,0
177.35,-3.31,-42.72,-478,-5621,6104,-1,0,0
177.35,-3.31,-42.72,-481,-5620,6104,-1,0,0
177.35,-3.31,-42.72,-480,-5622,6103,-1,0,0
177.35,-3.31,-42.72,-481,-5629,6097,0,0,0
177.34,-3.32,-42.71,-477,-5626,6095,0,0,-1
177.35,-3.31,-42.70,-473,-5619,6107,0,-1,0
177.34,-3.31,-42.70,-475,-5623,6100,0,-1,0
177.34,-3.31,-42.70,-485,-5620,6102,0,0,0
177.34,-3.32,-42.69,-481,-5619,6099,0,0,0
177.34,-3.32,-42.69,-490,-5617,6095,0,0,-1
177.34,-3.32,-42.68,-486,-5615,6100,0,0,0
177.34,-3.32,-42.68,-485,-5612,6110,0,0,-1
177.34,-3.32,-42.68,-481,-5609,6104,-1,0,0
177.34,-3.32,-42.68,-479,-5618,6094,0,-1,0
177.34,-3.32,-42.68,-474,-5615,6097,-1,-1,0
177.34,-3.32,-42.67,-471,-5614,6101,0,0,0
177.33,-3.32,-42.67,-477,-5608,6101,-1,-1,0
177.33,-3.32,-42.67,-484,-5610,6090,-1,-1,0
177.33,-3.32,-42.68,-495,-5615,6089,-1,0,0
177.32,-3.33,-42.68,-495,-5613,6092,0,0,0
177.32,-3.33,-42.68,-495,-5615,6094,-1,-1,0
177.32,-3.33,-42.68,-496,-5620,6095,-1,-1,-1
177.33,-3.32,-42.67,-487,-5618,6092,0,-1,-1
177.33,-3.32,-42.67,-483,-5612,6095,0,-1,-1
177.33,-3.32,-42.67,-486,-5605,6101,-1,-1,0
177.33,-3.32,-42.67,-485,-5609,6105,-1,-1,0
177.33,-3.32,-42.67,-481,-5616,6102,0,0,-1
177.33,-3.32,-42.66,-474,-5618,6122,-1,-1,-1
177.33,-3.31,-42.66,-478,-5615,6118,-1,-1,-1
177.33,-3.31,-42.67,-480,-5613,6108,-1,-1,-1
177.33,-3.31,-42.67,-479,-5614,6100,-1,-1,-1
177.33,-3.31,-42.67,-471,-5617,6101,-1,-1,-1
177.34,-3.30,-42.68,-472,-5617,6096,-1,-1,-1
177.34,-3.30,-42.68,-475,-5618,6096,-1,-1,-1
177.34,-3.30,-42.68,-482,-5621,6098,-1,-1,0
177.33,-3.30,-42.68,-479,-5625,6093,-1,-1,0
177.33,-3.29,-42.68,-480,-5623,6101,-1,-1,-1
177.34,-3.29,-42.68,-476,-5621,6105,-1,-1,-1
177.34,-3.29,-42.68,-474,-5625,6102,-1,-1,-1
177.34,-3.29,-42.69,-469,-5618,6099,-1,-1,-1
177.34,-3.28,-42.69,-468,-5614,6095,-1,-1,-1
177.34,-3.28,-42.69,-466,-5614,6094,-1,-1,0
177.34,-3.28,-42.70,-469,-5617,6099,-1,0,-1
177.34,-3.28,-42.70,-477,-5619,6096,-1,0,0
177.34,-3.28,-42.70,-472,-5619,6100,-1,0,-1
177.34,-3.28,-42.70,-470,-5622,6111,-1,-1,0
177.34,-3.28,-42.70,-467,-5621,6111,-1,0,0
177.34,-3.28,-42.70,-475,-5617,6110,-1,-1,0
177.34,-3.28,-42.70,-476,-5610,6110,-1,0,0
177.34,-3.28,-42.71,-478,-5622,6101,-1,0,-1
177.34,-3.28,-42.71,-476,-5632,6098,0,0,-1
177.34,-3.28,-42.71,-469,-5619,6095,-1,-1,-1
177.34,-3.27,-42.71,-466,-5615,6099,-1,-1,0
177.34,-3.27,-42.71,-464,-5615,6102,-1,0,0
177.34,-3.27,-42.72,-468,-5615,6094,-1,0,0
177.34,-3.28,-42.72,-480,-5624,6094,-1,0,-1
177.34,-3.28,-42.72,-482,-5620,6098,-1,0,-1
177.35,-3.28,-42.73,-489,-5628,6087,-1,0,-1
177.35,-3.28,-42.73,-485,-5631,6081,-1,-1,-1
177.35,-3.28,-42.73,-482,-5631,6083,-1,-1,-1
177.35,-3.27,-42.73,-469,-5620,6094,-1,-1,0
177.35,-3.27,-42.73,-467,-5627,6095,0,-1,0
177.35,-3.27,-42.73,-465,-5617,6101,0,0,-1
177.35,-3.27,-42.73,-470,-5621,6106,-1,0,-1
177.35,-3.27,-42.74,-472,-5620,6103,-1,0,-1
177.36,-3.27,-42.74,-481,-5623,6101,-1,0,-1
177.35,-3.27,-42.74,-484,-5623,6088,-1,-1,-1
177.36,-3.27,-42.74,-479,-5627,6089,-1,-1,-1
177.36,-3.27,-42.75,-481,-5627,6082,-1,-1,-1
177.36,-3.26,-42.75,-475,-5633,6080,0,-1,-1
177.36,-3.26,-42.75,-475,-5635,6091,-1,-1,-1
177.36,-3.26,-42.75,-477,-5621,6094,0,0,-1
177.36,-3.26,-42.75,-477,-5618,6096,-1,0,-1
177.36,-3.26,-42.74,-477,-5622,6100,-1,-1,-1
177.36,-3.25,-42.75,-468,-5625,6098,-1,-1,-1
177.36,-3.26,-42.75,-464,-5629,6089,-1,0,0
177.36,-3.25,-42.76,-458,-5633,6086,-1,0,0
177.36,-3.25,-42.76,-461,-5633,6088,-1,0,0
177.36,-3.26,-42.77,-466,-5634,6086,-1,0,0
177.36,-3.26,-42.77,-472,-5630,6090,-1,0,-1
177.36,-3.26,-42.78,-475,-5632,6075,-1,0,-1
177.36,-3.27,-42.78,-478,-5639,6078,0,0,-1
177.36,-3.26,-42.78,-476,-5637,6085,0,-1,-1
177.37,-3.26,-42.78,-472,-5634,6091,0,-1,-1
177.37,-3.26,-42.77,-473,-5624,6087,0,-1,-1
177.37,-3.26,-42.77,-475,-5629,6087,-1,-1,-1
177.37,-3.26,-42.78,-471,-5632,6090,-1,0,-1
177.37,-3.25,-42.78,-471,-5632,6088,-1,0,-1
177.37,-3.26,-42.79,-475,-5634,6096,-1,0,-1
177.37,-3.26,-42.79,-480,-5637,6091,-1,-1,0
177.37,-3.25,-42.79,-469,-5631,6087,-1,0,-1
177.37,-3.25,-42.80,-468,-5636,6079,0,-1,-1
177.37,-3.25,-42.80,-470,-5630,6087,0,0,-1
177.37,-3.25,-42.80,-470,-5639,6088,-1,-1,-1
177.37,-3.25,-42.79,-464,-5637,6096,-1,-1,-1
177.37,-3.25,-42.79,-468,-5630,6094,-1,-1,0
177.37,-3.25,-42.80,-470,-5630,6085,-1,0,0
177.37,-3.25,-42.80,-467,-5641,6082,-1,-1,-1
177.37,-3.24,-42.80,-472,-5643,6082,0,-1,-1
177.37,-3.24,-42.80,-464,-5629,6082,0,-1,-1
177.38,-3.23,-42.80,-460,-5620,6084,-1,-1,0
177.38,-3.23,-42.80,-455,-5618,6095,-1,0,0
177.38,-3.23,-42.80,-461,-5632,6091,-1,0,0
177.38,-3.23,-42.80,-466,-5633,6088,-1,0,-1
177.38,-3.23,-42.80,-466,-5634,6085,-1,0,-1
177.38,-3.23,-42.81,-479,-5636,6083,-1,-1,-1
177.38,-3.23,-42.81,-476,-5638,6088,0,-1,-1
177.38,-3.23,-42.81,-470,-5639,6085,0,-1,-1
177.38,-3.22,-42.80,-456,-5632,6095,0,-1,-1
177.38,-3.21,-42.80,-456,-5628,6095,-1,-1,-1
177.38,-3.21,-42.79,-456,-5618,6100,-1,-1,-1
177.38,-3.21,-42.80,-457,-5619,6100,-1,0,0
177.38,-3.21,-42.80,-458,-5629,6099,-1,0,-1
177.38,-3.21,-42.81,-462,-5634,6096,-1,0,0
177.38,-3.21,-42.82,-463,-5640,6084,-1,0,0
177.38,-3.21,-42.82,-467,-5642,6078,-1,0,-1
177.38,-3.22,-42.82,-470,-5643,6068,-1,0,-1
177.38,-3.22,-42.82,-465,-5644,6078,-1,0,-1
177.39,-3.22,-42.82,-461,-5641,6082,-1,0,-1
177.39,-3.22,-42.82,-463,-5639,6092,-1,0,-1
177.39,-3.22,-42.82,-466,-5631,6086,-1,0,-1
177.39,-3.21,-42.83,-465,-5638,6088,-1,0,-1
177.39,-3.22,-42.83,-456,-5636,6093,-1,0,0
177.39,-3.22,-42.83,-449,-5632,6091,-1,0,0
177.38,-3.22,-42.84,-453,-5635,6076,-1,0,0
177.38,-3.23,-42.84,-460,-5639,6072,0,0,0
177.38,-3.24,-42.85,-470,-5646,6075,-1,0,0
177.38,-3.24,-42.85,-476,-5648,6075,-1,0,0
177.38,-3.24,-42.85,-485,-5651,6066,0,0,0
177.37,-3.25,-42.86,-481,-5657,6059,0,-1,0
177.37,-3.25,-42.85,-480,-5653,6065,0,0,-1
177.38,-3.24,-42.85,-471,-5648,6064,0,-1,-1
177.38,-3.24,-42.83,-466,-5641,6080,0,-1,0
177.37,-3.25,-42.83,-463,-5628,6082,0,-1,0
177.37,-3.25,-42.82,-468,-5619,6083,0,0,0
177.37,-3.25,-42.82,-468,-5629,6092,0,0,0
177.37,-3.25,-42.82,-471,-5628,6088,-1,-1,-1
177.37,-3.25,-42.82,-476,-5637,6082,-1,0,0
177.37,-3.25,-42.82,-470,-5637,6080,-1,0,0
177.37,-3.25,-42.82,-467,-5639,6080,0,0,0
177.37,-3.25,-42.82,-476,-5632,6083,0,0,0
177.37,-3.25,-42.81,-472,-5630,6090,0,0,0
177.37,-3.26,-42.81,-480,-5631,6090,-1,0,-1
177.37,-3.26,-42.81,-475,-5638,6093,0,0,-1
177.37,-3.25,-42.81,-468,-5640,6079,0,-1,-1
177.37,-3.25,-42.80,-468,-5630,6086,0,-1,0
177.37,-3.25,-42.80,-470,-5623,6084,0,0,0
177.37,-3.26,-42.80,-472,-5627,6077,0,0,0
177.37,-3.26,-42.80,-471,-5620,6078,0,0,0
177.36,-3.27,-42.80,-479,-5623,6085,-1,0,-1
177.36,-3.27,-42.80,-479,-5633,6073,0,0,-1
177.36,-3.27,-42.79,-484,-5641,6082,0,-1,-1
177.36,-3.27,-42.78,-478,-5638,6087,0,-1,-1
177.37,-3.26,-42.77,-469,-5631,6098,0,-1,0
177.37,-3.26,-42.77,-467,-5624,6089,0,-1,0
177.36,-3.25,-42.76,-463,-5620,6091,0,-1,0
177.36,-3.26,-42.76,-466,-5626,6083,0,0,0
177.36,-3.26,-42.76,-471,-5626,6094,0,0,0
177.36,-3.27,-42.76,-472,-5626,6081,0,0,0
177.35,-3.27,-42.76,-479,-5624,6081,-1,-1,0
177.35,-3.27,-42.76,-483,-5628,6074,0,0,-1
177.35,-3.27,-42.76,-483,-5626,6082,-1,-1,0
177.35,-3.27,-42.76,-479,-5624,6075,0,0,-1
177.35,-3.27,-42.75,-475,-5627,6074,0,-1,0
177.35,-3.27,-42.75,-475,-5623,6080,0,0,0
177.35,-3.27,-42.74,-467,-5626,6079,0,-1,-1
177.35,-3.27,-42.74,-463,-5624,6086,0,0,-1
177.35,-3.26,-42.74,-466,-5618,6090,0,-1,0
177.35,-3.26,-42.73,-467,-5614,6093,-1,-1,0
177.35,-3.26,-42.73,-474,-5612,6097,0,0,0
177.35,-3.27,-42.73,-474,-5621,6089,-1,0,0
177.34,-3.27,-42.73,-469,-5618,6079,-1,0,0
177.34,-3.27,-42.73,-465,-5618,6077,0,0,0
177.34,-3.27,-42.73,-467,-5618,6078,0,0,0
177.34,-3.27,-42.72,-479,-5625,6104,0,-1,0
177.34,-3.27,-42.71,-479,-5626,6103,0,-1,0
177.34,-3.27,-42.70,-472,-5622,6103,0,0,-1
177.35,-3.27,-42.70,-470,-5616,6097,0,-1,0
177.35,-3.27,-42.70,-473,-5617,6088,0,-1,0
177.35,-3.27,-42.69,-467,-5616,6091,0,-1,0
177.34,-3.27,-42.69,-465,-5607,6087,0,0,0
177.34,-3.27,-42.68,-463,-5599,6093,0,0,0
177.34,-3.28,-42.69,-471,-5610,6091,-1,0,0
177.33,-3.28,-42.69,-480,-5623,6095,-1,0,-1
177.34,-3.28,-42.70,-471,-5635,6087,0,0,-1
177.34,-3.28,-42.69,-477,-5624,6090,0,-1,0
177.33,-3.28,-42.69,-471,-5625,6097,0,-1,0
177.33,-3.28,-42.69,-470,-5621,6089,0,0,0
177.32,-3.29,-42.68,-477,-5615,6081,0,0,0
177.32,-3.29,-42.68,-483,-5619,6094,0,0,-1
177.32,-3.29,-42.67,-486,-5614,6100,0,0,0
177.32,-3.29,-42.67,-485,-5616,6098,-1,-1,0
177.32,-3.29,-42.67,-484,-5619,6087,-1,-1,-1
177.32,-3.29,-42.67,-474,-5626,6089,0,-1,-1
177.32,-3.29,-42.67,-468,-5617,6098,0,-1,0
177.32,-3.29,-42.67,-464,-5615,6099,0,0,0
177.32,-3.29,-42.67,-464,-5616,6105,0,0,0
177.32,-3.29,-42.66,-466,-5618,6109,0,0,0
177.32,-3.29,-42.66,-476,-5621,6109,0,0,0
177.32,-3.29,-42.66,-475,-5618,6105,0,0,0
177.31,-3.30,-42.66,-480,-5618,6106,-1,-1,0
177.31,-3.30,-42.66,-483,-5624,6104,0,0,0
177.31,-3.30,-42.65,-483,-5625,6097,0,-1,0
177.31,-3.30,-42.65,-484,-5622,6089,0,0,0
177.31,-3.30,-42.65,-479,-5614,6096,0,0,0
177.31,-3.30,-42.64,-479,-5623,6107,0,-1,-1
177.31,-3.30,-42.64,-480,-5618,6107,-1,-1,-1
177.32,-3.29,-42.64,-470,-5613,6111,-1,-1,-1
177.32,-3.29,-42.64,-462,-5603,6100,-1,-1,0
177.32,-3.28,-42.64,-459,-5612,6106,-1,-1,0
177.32,-3.28,-42.64,-452,-5613,6094,-1,-1,0
177.32,-3.28,-42.65,-459,-5617,6094,-1,0,0
177.31,-3.29,-42.65,-470,-5620,6103,-1,0,0
177.32,-3.28,-42.65,-476,-5617,6108,-1,0,-1
177.31,-3.29,-42.65,-483,-5621,6090,-1,-1,-1
177.32,-3.28,-42.65,-485,-5618,6088,0,-1,-1
177.32,-3.27,-42.65,-475,-5619,6087,0,-1,-1
177.32,-3.27,-42.64,-474,-5608,6100,-1,-1,0
177.32,-3.27,-42.64,-471,-5609,6112,-1,-1,-1
177.32,-3.27,-42.64,-470,-5608,6113,-1,0,-1
177.32,-3.27,-42.64,-477,-5617,6120,-1,-1,-1
177.32,-3.27,-42.65,-477,-5621,6117,-1,-1,-1
177.32,-3.26,-42.65,-475,-5606,6108,-1,-1,0
177.32,-3.26,-42.65,-469,-5609,6092,-1,-1,0
177.32,-3.26,-42.66,-473,-5624,6095,-1,0,0
177.32,-3.26,-42.66,-474,-5625,6094,0,0,-1
177.32,-3.26,-42.66,-480,-5620,6100,0,0,-1
177.32,-3.26,-42.66,-480,-5616,6096,-1,-1,0
177.32,-3.26,-42.66,-476,-5612,6104,-1,-1,-1
177.32,-3.26,-42.66,-478,-5611,6111,-1,-1,-1
177.33,-3.25,-42.66,-479,-5613,6107,-1,-1,-1
177.33,-3.25,-42.66,-473,-5616,6103,-1,-1,-1
177.33,-3.25,-42.67,-467,-5614,6103,-1,0,0
177.33,-3.25,-42.67,-469,-5623,6101,-1,0,0
177.32,-3.26,-42.68,-471,-5619,6099,-1,0,0
177.32,-3.26,-42.69,-473,-5623,6094,-1,0,-1
177.32,-3.26,-42.70,-472,-5625,6090,-1,0,-1
177.33,-3.25,-42.70,-462,-5621,6090,-1,-1,-1
177.33,-3.25,-42.70,-466,-5628,6084,-1,0,-1
177.33,-3.25,-42.70,-472,-5629,6090,-1,0,0
177.33,-3.25,-42.70,-476,-5634,6088,0,0,-1
177.32,-3.26,-42.70,-483,-5626,6089,0,0,-1
177.32,-3.26,-42.70,-480,-5624,6091,-1,-1,0
177.33,-3.25,-42.70,-472,-5615,6095,-1,-1,-1
177.33,-3.25,-42.70,-476,-5620,6100,-1,-1,-1
177.33,-3.25,-42.70,-474,-5620,6099,-1,-1,-1
177.33,-3.25,-42.70,-469,-5622,6095,-1,-1,-1
177.33,-3.25,-42.71,-467,-5621,6096,-1,0,0
177.32,-3.25,-42.72,-471,-5625,6087,-1,0,0
177.32,-3.26,-42.72,-471,-5631,6084,-1,0,-1
177.33,-3.26,-42.72,-478,-5640,6091,-1,-1,-1
177.33,-3.25,-42.72,-475,-5641,6101,-1,-1,-1
177.33,-3.25,-42.72,-480,-5631,6099,0,-1,-1
177.33,-3.25,-42.72,-477,-5628,6091,-1,-1,-1
177.33,-3.24,-42.72,-468,-5622,6088,-1,0,-1
177.33,-3.24,-42.72,-470,-5622,6093,-1,0,-1
177.34,-3.24,-42.72,-465,-5621,6099,-1,0,-1
177.34,-3.24,-42.72,-465,-5615,6103,-1,-1,-1
177.34,-3.24,-42.72,-466,-5612,6101,-1,-1,0
177.33,-3.24,-42.72,-463,-5616,6094,-1,0,0
177.34,-3.24,-42.73,-463,-5622,6095,-1,0,0
177.34,-3.25,-42.74,-472,-5633,6093,-1,0,-1
177.34,-3.25,-42.74,-469,-5632,6100,-1,0,-1
177.34,-3.25,-42.74,-467,-5625,6096,-1,-1,-1
177.34,-3.24,-42.74,-466,-5633,6089,-1,-1,-1
177.34,-3.24,-42.75,-466,-5633,6084,-1,-1,-1
177.34,-3.24,-42.74,-460,-5625,6088,0,-1,-1
177.34,-3.24,-42.74,-460,-5625,6095,-1,-1,0
177.34,-3.24,-42.75,-456,-5617,6090,-1,0,0
177.34,-3.24,-42.75,-461,-5618,6092,-1,0,0
177.34,-3.24,-42.75,-460,-5619,6096,-1,0,0
177.34,-3.24,-42.76,-462,-5624,6086,-1,0,0
177.34,-3.24,-42.76,-467,-5632,6085,-1,0,-1
177.34,-3.24,-42.76,-464,-5638,6073,-1,-1,-1
177.34,-3.24,-42.77,-469,-5640,6073,-1,-1,0
177.34,-3.24,-42.77,-470,-5640,6079,0,0,-1
177.34,-3.24,-42.77,-473,-5636,6083,0,0,-1
177.34,-3.24,-42.77,-475,-5629,6092,-1,0,-1
177.34,-3.24,-42.77,-477,-5624,6093,-1,-1,-1
177.34,-3.24,-42.77,-479,-5615,6080,-1,0,0
177.34,-3.24,-42.77,-476,-5622,6089,-1,0,0
177.34,-3.24,-42.77,-467,-5621,6085,-1,0,-1
177.34,-3.24,-42.77,-465,-5633,6094,-1,-1,0
177.34,-3.24,-42.78,-463,-5631,6090,-1,0,-1
177.34,-3.24,-42.78,-472,-5628,6088,-1,0,-1
177.34,-3.24,-42.78,-474,-5635,6076,-1,-1,0
177.33,-3.24,-42.78,-472,-5639,6079,0,-1,0
177.34,-3.24,-42.78,-471,-5642,6083,0,-1,0
177.34,-3.24,-42.78,-471,-5637,6078,0,-1,0
177.34,-3.23,-42.78,-461,-5631,6075,0,-1,-1
177.34,-3.23,-42.78,-469,-5626,6087,0,-1,0
177.34,-3.23,-42.78,-472,-5628,6086,-1,-1,0
177.34,-3.23,-42.78,-471,-5623,6096,-1,-1,-1
177.34,-3.23,-42.78,-468,-5630,6088,-1,0,-1
177.34,-3.22,-42.79,-464,-5638,6091,-1,-1,-1
177.34,-3.22,-42.79,-466,-5642,6083,0,-1,-1
177.34,-3.22,-42.79,-457,-5633,6083,0,-1,0
177.34,-3.22,-42.79,-454,-5632,6085,0,0,0
177.34,-3.22,-42.79,-458,-5628,6096,-1,0,0
177.33,-3.23,-42.79,-469,-5626,6098,-1,0,0
177.33,-3.23,-42.79,-480,-5623,6095,-1,0,0
177.33,-3.23,-42.80,-485,-5631,6097,-1,-1,-1
177.33,-3.23,-42.81,-477,-5642,6090,-1,-1,-1
177.33,-3.23,-42.81,-468,-5653,6086,0,-1,-1
177.33,-3.23,-42.81,-460,-5652,6077,0,-1,-1
177.34,-3.22,-42.80,-449,-5630,6083,0,0,0
177.34,-3.22,-42.80,-455,-5616,6089,-1,0,0
177.33,-3.23,-42.80,-456,-5618,6092,-1,0,0
177.33,-3.23,-42.81,-452,-5625,6085,-1,0,0
177.33,-3.23,-42.82,-450,-5629,6078,-1,0,0
177.33,-3.24,-42.82,-466,-5631,6086,-1,0,0
177.33,-3.25,-42.83,-460,-5629,6087,-1,0,0
177.32,-3.25,-42.84,-472,-5631,6083,-1,0,0
177.32,-3.26,-42.84,-479,-5638,6091,-1,0,0
177.32,-3.27,-42.85,-487,-5631,6084,-1,0,0
177.32,-3.27,-42.85,-478,-5630,6076,-1,0,0
177.31,-3.28,-42.85,-483,-5630,6093,-1,0,0
177.31,-3.28,-42.85,-470,-5626,6084,-1,0,0
177.31,-3.29,-42.86,-472,-5628,6081,-1,0,0
177.31,-3.29,-42.87,-475,-5626,6079,-1,0,0
177.30,-3.30,-42.88,-473,-5630,6090,-1,0,0
177.29,-3.32,-42.88,-473,-5630,6092,-1,0,0
177.29,-3.32,-42.90,-478,-5646,6083,-1,0,0
177.28,-3.33,-42.91,-479,-5640,6081,-1,0,0
177.28,-3.35,-42.92,-501,-5641,6074,-1,0,0
177.27,-3.36,-42.94,-492,-5654,6064,-1,0,0
177.27,-3.36,-42.94,-494,-5654,6069,-1,0,0
177.26,-3.37,-42.94,-497,-5655,6068,0,0,0
177.26,-3.37,-42.94,-495,-5648,6079,-1,0,-1
177.26,-3.37,-42.94,-492,-5642,6071,0,0,-1
177.26,-3.37,-42.94,-497,-5643,6077,-1,-1,-1
177.26,-3.37,-42.94,-503,-5650,6071,0,-1,-1
177.26,-3.37,-42.93,-493,-5655,6073,0,-1,-1
177.27,-3.35,-42.92,-483,-5643,6074,0,-1,-1
177.27,-3.35,-42.92,-484,-5646,6078,0,-1,-1
177.28,-3.34,-42.92,-483,-5650,6075,0,-1,-1
177.29,-3.33,-42.91,-479,-5645,6066,0,-1,-1
177.29,-3.32,-42.90,-462,-5638,6073,0,-1,-1
177.29,-3.31,-42.89,-465,-5640,6077,0,-1,-1
177.30,-3.30,-42.88,-471,-5645,6076,0,0,-1
177.30,-3.30,-42.88,-484,-5643,6086,0,-1,-1
177.30,-3.30,-42.87,-495,-5643,6094,0,-1,-1
177.30,-3.30,-42.86,-493,-5639,6083,0,-1,-1
177.31,-3.29,-42.85,-489,-5646,6088,0,-1,-1
177.31,-3.29,-42.85,-479,-5651,6083,0,-1,-1
177.31,-3.28,-42.84,-473,-5643,6082,0,-1,-1
177.32,-3.27,-42.83,-459,-5633,6084,0,-1,0
177.32,-3.27,-42.83,-454,-5625,6090,0,0,0
177.32,-3.27,-42.83,-454,-5631,6089,-1,0,0
177.32,-3.27,-42.83,-461,-5639,6092,-1,-1,0
177.32,-3.27,-42.83,-470,-5645,6079,-1,0,0
177.31,-3.28,-42.83,-487,-5638,6074,0,0,0
177.31,-3.28,-42.83,-487,-5640,6068,0,-1,0
177.32,-3.27,-42.82,-485,-5641,6059,0,-1,-1
177.32,-3.27,-42.82,-485,-5648,6071,0,0,-1
177.31,-3.28,-42.81,-490,-5642,6079,0,-1,-1
177.31,-3.28,-42.80,-486,-5639,6082,0,-1,0
177.31,-3.28,-42.79,-479,-5625,6087,0,-1,-1
177.31,-3.28,-42.78,-477,-5616,6089,0,-1,-1
177.31,-3.27,-42.78,-477,-5621,6092,0,-1,-1
177.31,-3.27,-42.77,-468,-5617,6086,0,-1,-1
177.31,-3.27,-42.77,-469,-5617,6088,-1,0,0
177.31,-3.27,-42.77,-475,-5621,6083,0,0,0
177.31,-3.27,-42.77,-472,-5624,6082,0,0,0
177.30,-3.28,-42.76,-473,-5633,6084,0,-1,0
177.31,-3.27,-42.76,-470,-5635,6089,0,0,-1
177.30,-3.28,-42.76,-483,-5629,6077,0,-1,0
177.31,-3.27,-42.75,-479,-5631,6079,0,-1,-1
177.31,-3.26,-42.74,-469,-5634,6078,0,-1,-1
177.31,-3.26,-42.73,-467,-5622,6087,0,0,0
177.31,-3.26,-42.72,-464,-5617,6096,0,-1,0
177.31,-3.26,-42.72,-463,-5609,6104,0,0,0
177.31,-3.26,-42.72,-462,-5612,6094,-1,-1,0
177.31,-3.26,-42.72,-468,-5619,6093,0,0,0
177.31,-3.27,-42.72,-473,-5624,6095,-1,0,0
177.31,-3.27,-42.72,-479,-5628,6089,0,0,0
177.31,-3.27,-42.72,-481,-5634,6084,0,-1,0
177.30,-3.27,-42.72,-475,-5643,6089,0,-1,0
177.30,-3.27,-42.71,-471,-5633,6093,0,-1,0
177.30,-3.27,-42.70,-470,-5620,6092,0,-1,0
177.30,-3.27,-42.70,-471,-5617,6097,0,0,0
177.30,-3.27,-42.70,-473,-5622,6093,0,0,-1
177.30,-3.27,-42.69,-474,-5631,6099,0,0,-1
177.31,-3.27,-42.68,-461,-5625,6102,0,-1,-1
177.31,-3.26,-42.68,-451,-5608,6097,0,-1,0
177.30,-3.27,-42.68,-459,-5609,6094,-1,0,0
177.30,-3.27,-42.68,-471,-5613,6097,-1,0,0
177.30,-3.28,-42.67,-478,-5622,6105,0,0,0
177.30,-3.29,-42.66,-486,-5626,6118,0,0,-1
177.29,-3.29,-42.66,-496,-5629,6106,0,0,-1
177.29,-3.29,-42.66,-491,-5628,6098,0,-1,-1
177.30,-3.29,-42.66,-487,-5629,6100,0,-1,-1
177.30,-3.28,-42.65,-475,-5623,6095,0,-1,-1
177.30,-3.28,-42.64,-467,-5613,6101,0,-1,0
177.30,-3.28,-42.64,-461,-5610,6115,0,0,0
177.30,-3.28,-42.63,-467,-5603,6091,-1,0,0
177.29,-3.28,-42.64,-470,-5615,6092,-1,0,0
177.29,-3.29,-42.64,-479,-5617,6097,-1,0,0
177.29,-3.30,-42.64,-481,-5621,6090,-1,0,0
177.29,-3.30,-42.64,-483,-5622,6084,-1,-1,0
177.29,-3.30,-42.64,-480,-5623,6090,0,0,0
177.29,-3.30,-42.64,-483,-5625,6091,0,0,0
177.28,-3.30,-42.64,-481,-5631,6091,0,0,0
177.29,-3.30,-42.64,-479,-5627,6104,0,0,-1
177.29,-3.30,-42.63,-477,-5612,6111,0,-1,-1
177.29,-3.30,-42.62,-479,-5616,6113,0,-1,0
177.29,-3.30,-42.62,-482,-5612,6107,0,-1,-1
177.29,-3.30,-42.62,-482,-5613,6100,0,-1,-1
177.29,-3.30,-42.61,-472,-5611,6106,-1,0,0
177.29,-3.29,-42.62,-469,-5612,6114,-1,-1,0
177.28,-3.30,-42.62,-469,-5613,6102,-1,0,0
177.28,-3.30,-42.62,-482,-5620,6107,0,-1,0
177.28,-3.30,-42.62,-482,-5621,6106,-1,-1,-1
177.28,-3.30,-42.62,-494,-5618,6103,0,-1,-1
177.28,-3.29,-42.62,-486,-5616,6099,-1,-1,0
177.29,-3.28,-42.62,-481,-5619,6098,0,-1,-1
177.29,-3.28,-42.61,-478,-5618,6101,0,-1,-1
177.29,-3.28,-42.61,-476,-5615,6106,-1,-1,-1
177.29,-3.28,-42.62,-469,-5615,6106,-1,-1,0
177.30,-3.28,-42.62,-469,-5608,6103,-1,0,-1
177.30,-3.28,-42.63,-479,-5607,6099,-1,0,-1
177.30,-3.28,-42.64,-479,-5611,6089,-1,0,-1
177.30,-3.28,-42.64,-480,-5622,6087,-1,0,-1
177.30,-3.28,-42.64,-478,-5624,6088,-1,0,-1
177.30,-3.28,-42.64,-474,-5628,6089,-1,-1,-1
177.30,-3.27,-42.64,-476,-5620,6090,0,-1,-1
177.30,-3.27,-42.64,-464,-5612,6102,-1,-1,0
177.30,-3.27,-42.65,-471,-5607,6098,-1,0,-1
177.30,-3.27,-42.66,-475,-5610,6101,-1,0,-1
177.30,-3.27,-42.66,-473,-5622,6099,-1,0,-1
177.31,-3.27,-42.66,-468,-5614,6095,-1,0,-1
177.31,-3.26,-42.66,-459,-5607,6092,-1,0,0
177.30,-3.27,-42.66,-464,-5603,6090,-1,0,0
177.30,-3.27,-42.67,-478,-5617,6098,-1,0,0
177.30,-3.27,-42.68,-474,-5623,6093,-1,0,-1
177.30,-3.28,-42.69,-482,-5625,6094,-1,0,0
177.30,-3.28,-42.69,-489,-5617,6096,-1,0,0
177.30,-3.29,-42.70,-493,-5617,6091,-1,-1,-1
177.30,-3.28,-42.70,-474,-5619,6081,0,0,-1
177.30,-3.28,-42.70,-475,-5623,6095,-1,-1,-1
177.30,-3.28,-42.70,-473,-5623,6091,-1,-1,-1
177.30,-3.28,-42.70,-477,-5616,6093,-1,0,-1
177.31,-3.27,-42.70,-479,-5620,6098,-1,-1,0
177.31,-3.27,-42.71,-473,-5627,6096,-1,-1,-1
177.31,-3.27,-42.71,-469,-5625,6092,-1,0,-1
177.31,-3.27,-42.71,-462,-5624,6093,-1,0,0
177.31,-3.26,-42.71,-467,-5626,6088,-1,-1,0
177.31,-3.27,-42.71,-468,-5628,6090,-1,0,-1
177.31,-3.27,-42.72,-472,-5629,6087,0,0,-1
177.31,-3.27,-42.72,-473,-5626,6095,-1,-1,-1
177.31,-3.26,-42.72,-477,-5621,6092,-1,-1,-1
177.32,-3.26,-42.72,-473,-5621,6084,-1,-1,-1
177.32,-3.26,-42.72,-471,-5626,6086,0,-1,-1
177.32,-3.26,-42.71,-466,-5616,6097,-1,-1,-1
177.32,-3.26,-42.71,-463,-5615,6099,-1,-1,0
177.32,-3.26,-42.72,-459,-5610,6096,-1,0,0
177.32,-3.26,-42.72,-466,-5615,6093,-1,0,-1
177.32,-3.26,-42.72,-467,-5621,6094,-1,0,-1
177.32,-3.26,-42.73,-464,-5625,6088,-1,0,0
177.32,-3.26,-42.73,-475,-5633,6090,-1,-1,-1
177.32,-3.26,-42.73,-478,-5638,6089,-1,-1,-1
177.32,-3.26,-42.73,-467,-5630,6092,0,-1,-1
177.32,-3.26,-42.72,-470,-5626,6104,0,-1,-1
177.32,-3.26,-42.72,-470,-5624,6110,-1,-1,-1
177.33,-3.25,-42.72,-468,-5621,6111,-1,0,-1
177.33,-3.25,-42.72,-467,-5629,6100,-1,0,-1
177.33,-3.25,-42.73,-467,-5629,6098,-1,0,0
177.33,-3.25,-42.73,-471,-5628,6103,-1,0,-1
177.32,-3.25,-42.74,-468,-5635,6092,-1,0,-1
177.32,-3.25,-42.74,-467,-5631,6086,-1,0,-1
177.32,-3.25,-42.74,-471,-5633,6093,-1,-1,0
177.32,-3.25,-42.75,-475,-5634,6082,-1,0,-1
177.33,-3.25,-42.75,-475,-5636,6075,-1,-1,-1
177.33,-3.25,-42.75,-472,-5626,6081,0,-1,-1
177.33,-3.25,-42.75,-463,-5619,6080,-1,0,0
177.33,-3.25,-42.75,-460,-5613,6081,-1,0,0
177.32,-3.25,-42.76,-472,-5629,6083,-1,-1,0
177.33,-3.25,-42.76,-474,-5642,6083,-1,-1,-1
177.33,-3.24,-42.76,-479,-5640,6082,0,-1,-1
177.33,-3.25,-42.76,-474,-5640,6088,0,-1,0
177.33,-3.24,-42.76,-471,-5632,6086,-1,-1,0
177.33,-3.24,-42.76,-462,-5637,6076,-1,0,0
177.33,-3.24,-42.76,-464,-5628,6079,0,0,0
177.33,-3.24,-42.76,-471,-5627,6097,-1,0,0
177.33,-3.25,-42.76,-485,-5631,6091,-1,0,0
177.33,-3.25,-42.77,-486,-5632,6083,-1,-1,-1
177.33,-3.24,-42.77,-474,-5641,6080,-1,-1,-1
177.33,-3.23,-42.77,-464,-5640,6078,0,-1,-1
177.33,-3.23,-42.78,-458,-5629,6082,-1,-1,0
177.33,-3.23,-42.77,-454,-5627,6088,0,0,0
177.33,-3.23,-42.77,-453,-5621,6084,-1,0,0
177.33,-3.23,-42.78,-454,-5621,6087,-1,0,0
177.33,-3.23,-42.78,-450,-5625,6093,-1,0,0
177.33,-3.23,-42.78,-462,-5628,6083,-1,-1,0
177.33,-3.23,-42.79,-468,-5632,6080,-1,-1,0
177.33,-3.23,-42.79,-468,-5633,6079,-1,-1,-1
177.33,-3.23,-42.79,-473,-5638,6086,-1,-1,-1
177.33,-3.23,-42.79,-477,-5636,6089,0,-1,-1
177.33,-3.23,-42.79,-471,-5628,6089,0,-1,-1
177.34,-3.22,-42.78,-466,-5628,6091,0,-1,-1
177.34,-3.22,-42.78,-467,-5626,6095,0,-1,-1
177.34,-3.22,-42.78,-469,-5625,6095,-1,0,-1
177.34,-3.22,-42.78,-465,-5618,6101,-1,0,-1
177.34,-3.22,-42.78,-460,-5623,6093,-1,0,0
177.34,-3.22,-42.79,-459,-5624,6089,-1,0,-1
177.34,-3.22,-42.80,-463,-5626,6091,-1,0,-1
177.34,-3.22,-42.80,-463,-5627,6084,-1,0,0
177.34,-3.23,-42.81,-465,-5635,6078,-1,0,-1
177.34,-3.23,-42.81,-464,-5637,6069,0,0,-1
177.34,-3.24,-42.81,-469,-5646,6083,-1,-1,0
177.35,-3.23,-42.81,-470,-5643,6093,-1,0,-1
177.35,-3.24,-42.81,-475,-5636,6095,-1,0,-1
177.35,-3.24,-42.82,-474,-5630,6091,-1,0,-1
177.34,-3.25,-42.82,-475,-5635,6078,-1,0,0
177.34,-3.25,-42.83,-473,-5634,6079,-1,0,0
177.34,-3.25,-42.83,-468,-5633,6082,-1,0,0
177.34,-3.25,-42.83,-465,-5637,6081,-1,0,0
177.34,-3.26,-42.83,-479,-5638,6082,0,0,0
177.34,-3.26,-42.83,-471,-5641,6074,0,0,0
177.34,-3.26,-42.83,-470,-5633,6080,0,0,-1
177.34,-3.27,-42.83,-473,-5638,6081,0,-1,0
177.34,-3.26,-42.83,-470,-5635,6075,0,-1,0
177.34,-3.26,-42.83,-469,-5639,6061,0,-1,0
177.33,-3.26,-42.83,-469,-5646,6062,0,-1,-1
177.33,-3.26,-42.82,-472,-5641,6074,0,-1,-1
177.33,-3.26,-42.82,-474,-5634,6066,0,-1,0
177.33,-3.26,-42.81,-469,-5634,6072,0,-1,-1
177.33,-3.25,-42.81,-469,-5630,6075,0,-1,0
177.33,-3.25,-42.80,-469,-5630,6089,0,-1,0
177.33,-3.26,-42.79,-466,-5627,6085,0,0,0
177.33,-3.26,-42.79,-466,-5629,6078,-1,0,0
177.33,-3.26,-42.80,-469,-5629,6073,-1,0,-1
177.33,-3.25,-42.80,-469,-5636,6063,0,-1,-1
177.34,-3.25,-42.79,-462,-5626,6076,0,-1,0
177.34,-3.25,-42.78,-458,-5623,6083,0,0,0
177.33,-3.25,-42.78,-461,-5625,6081,0,0,0
177.33,-3.26,-42.77,-472,-5628,6098,0,0,0
177.33,-3.26,-42.77,-472,-5629,6095,0,0,-1
177.33,-3.26,-42.76,-482,-5625,6092,0,0,0
177.33,-3.26,-42.76,-481,-5625,6081,0,-1,-1
177.33,-3.26,-42.76,-478,-5641,6074,0,-1,0
177.33,-3.26,-42.76,-476,-5647,6074,0,-1,-1
177.33,-3.25,-42.76,-468,-5641,6089,0,-1,0
177.33,-3.25,-42.75,-458,-5629,6097,0,-1,0
177.33,-3.25,-42.74,-465,-5614,6095,0,0,0
177.33,-3.25,-42.74,-460,-5615,6099,-1,0,0
177.33,-3.25,-42.74,-467,-5622,6103,-1,0,-1
177.33,-3.26,-42.75,-471,-5635,6100,-1,0,0
177.33,-3.26,-42.75,-476,-5642,6095,0,-1,0
177.33,-3.26,-42.75,-471,-5642,6094,0,0,0
177.32,-3.26,-42.74,-478,-5638,6094,0,0,0
177.32,-3.26,-42.73,-477,-5629,6089,0,0,-1
177.32,-3.27,-42.72,-483,-5626,6099,0,0,0
177.32,-3.27,-42.72,-484,-5627,6100,0,-1,0
177.32,-3.27,-42.72,-473,-5619,6095,0,-1,-1
177.33,-3.26,-42.71,-468,-5620,6101,0,0,-1
177.33,-3.26,-42.71,-472,-5622,6093,0,0,0
177.32,-3.27,-42.71,-468,-5622,6087,-1,0,0
177.32,-3.27,-42.71,-466,-5622,6090,-1,0,0
177.32,-3.27,-42.71,-470,-5622,6089,0,0,0
177.32,-3.27,-42.71,-475,-5629,6087,0,0,0
177.32,-3.27,-42.71,-478,-5633,6086,0,-1,0
177.31,-3.28,-42.70,-480,-5636,6086,0,-1,0
177.31,-3.28,-42.70,-477,-5627,6092,0,0,0
177.31,-3.28,-42.69,-481,-5617,6098,0,0,0
177.31,-3.28,-42.69,-484,-5621,6098,0,-1,0
177.31,-3.27,-42.68,-477,-5617,6107,0,-1,0
177.31,-3.27,-42.67,-466,-5610,6121,-1,0,0
177.31,-3.28,-42.66,-473,-5609,6120,-1,0,0
177.31,-3.29,-42.67,-471,-5613,6109,-1,0,0
177.31,-3.29,-42.67,-478,-5621,6108,-1,-1,0
177.31,-3.29,-42.67,-480,-5623,6101,-1,0,0
177.30,-3.29,-42.67,-484,-5626,6101,0,-1,0
177.30,-3.29,-42.67,-479,-5631,6118,0,0,0
177.30,-3.29,-42.66,-481,-5630,6105,0,-1,0
177.30,-3.30,-42.66,-483,-5626,6102,0,0,0
177.30,-3.30,-42.66,-479,-5613,6091,0,0,0
177.30,-3.30,-42.66,-474,-5618,6090,0,0,0
177.30,-3.30,-42.65,-474,-5621,6105,-1,0,0
177.30,-3.30,-42.65,-474,-5617,6106,0,0,-1
177.30,-3.30,-42.65,-472,-5621,6095,-1,0,0
177.30,-3.30,-42.65,-470,-5623,6096,0,-1,0
177.30,-3.30,-42.65,-467,-5620,6083,0,-1,0
177.30,-3.30,-42.65,-475,-5621,6094,0,-1,0
177.30,-3.30,-42.64,-479,-5624,6104,0,0,0
177.30,-3.30,-42.64,-483,-5629,6097,0,0,-1
177.30,-3.30,-42.64,-482,-5613,6096,0,-1,0
177.30,-3.30,-42.63,-473,-5606,6099,0,-1,0
177.30,-3.30,-42.62,-462,-5602,6094,0,-1,0
177.29,-3.30,-42.62,-456,-5605,6105,0,0,0
177.29,-3.30,-42.61,-469,-5605,6109,0,0,0
177.29,-3.31,-42.61,-485,-5604,6106,0,0,0
177.29,-3.31,-42.61,-490,-5609,6107,0,0,0
177.28,-3.32,-42.61,-502,-5610,6104,-1,-1,-1
177.29,-3.31,-42.61,-491,-5610,6103,0,-1,-1
177.29,-3.31,-42.60,-478,-5613,6097,0,-1,-1
177.29,-3.31,-42.60,-466,-5606,6095,0,-1,0
177.29,-3.30,-42.60,-463,-5604,6102,0,-1,0
177.29,-3.30,-42.60,-463,-5605,6102,0,-1,0
177.29,-3.30,-42.60,-469,-5599,6107,-1,0,0
177.29,-3.30,-42.60,-474,-5602,6109,-1,0,0
177.29,-3.30,-42.60,-487,-5612,6105,-1,0,0
177.29,-3.30,-42.60,-491,-5609,6101,-1,-1,-1
177.29,-3.30,-42.60,-491,-5615,6100,-1,-1,-1
177.29,-3.30,-42.61,-485,-5615,6095,-1,-1,0
177.28,-3.30,-42.61,-482,-5617,6094,0,-1,-1
177.28,-3.30,-42.61,-473,-5607,6096,0,-1,0
177.28,-3.30,-42.60,-477,-5610,6106,-1,-1,-1
177.28,-3.29,-42.61,-481,-5615,6109,-1,-1,-1
177.29,-3.29,-42.61,-479,-5600,6108,-1,-1,-1
177.29,-3.28,-42.62,-477,-5601,6099,-1,-1,-1
177.29,-3.28,-42.62,-469,-5610,6088,-1,-1,-1
177.30,-3.28,-42.63,-461,-5619,6089,-1,-1,-1
177.30,-3.28,-42.64,-464,-5618,6094,-1,0,-1
177.30,-3.28,-42.64,-474,-5617,6092,-1,0,0
177.30,-3.28,-42.64,-477,-5614,6101,-1,0,-1
177.30,-3.28,-42.64,-479,-5616,6104,-1,0,-1
177.30,-3.28,-42.64,-481,-5620,6107,-1,-1,-1
177.30,-3.28,-42.64,-474,-5619,6104,-1,-1,-1
177.30,-3.27,-42.64,-473,-5614,6109,-1,-1,0
177.30,-3.27,-42.64,-474,-5610,6109,-1,-1,0
177.30,-3.27,-42.64,-472,-5618,6108,-1,0,-1
177.30,-3.27,-42.65,-467,-5609,6105,-1,0,-1
177.30,-3.27,-42.65,-468,-5613,6098,-1,0,-1
177.30,-3.27,-42.66,-468,-5616,6101,-1,0,-1
177.30,-3.27,-42.66,-462,-5621,6096,-1,0,-1
177.30,-3.27,-42.66,-467,-5624,6093,-1,0,0
177.30,-3.27,-42.66,-478,-5621,6101,-1,0,-1
177.30,-3.27,-42.67,-481,-5621,6094,-1,0,-1
177.30,-3.27,-42.67,-479,-5615,6089,-1,-1,-1
177.30,-3.27,-42.67,-475,-5616,6091,-1,-1,-1
177.30,-3.27,-42.67,-471,-5614,6095,0,0,-1
177.30,-3.27,-42.67,-469,-5604,6096,-1,-1,0
177.30,-3.27,-42.67,-473,-5604,6098,-1,0,-1
177.30,-3.27,-42.68,-477,-5613,6105,-1,0,-1
177.31,-3.26,-42.68,-472,-5624,6108,-1,-1,-1
177.31,-3.26,-42.68,-469,-5625,6100,-1,-1,-1
177.31,-3.26,-42.68,-465,-5618,6096,-1,-1,-1
177.31,-3.26,-42.68,-465,-5614,6090,-1,-1,0
177.31,-3.26,-42.69,-466,-5619,6088,-1,0,0
177.31,-3.26,-42.69,-467,-5624,6095,-1,0,0
177.31,-3.26,-42.69,-474,-5617,6096,-1,0,-1
177.32,-3.26,-42.69,-480,-5620,6100,-1,-1,-1
177.32,-3.26,-42.70,-479,-5621,6105,-1,-1,-1
177.32,-3.26,-42.70,-476,-5625,6101,0,-1,-1
177.32,-3.26,-42.70,-471,-5624,6103,-1,-1,-1
177.32,-3.25,-42.70,-459,-5619,6105,-1,-1,0
177.32,-3.25,-42.70,-460,-5621,6086,-1,-1,-1
177.32,-3.25,-42.70,-466,-5615,6083,-1,0,0
177.32,-3.25,-42.71,-468,-5618,6084,-1,0,0
177.32,-3.25,-42.71,-467,-5614,6088,-1,0,-1
177.32,-3.26,-42.72,-470,-5618,6085,-1,0,0
177.32,-3.25,-42.72,-472,-5619,6083,-1,-1,-1
177.32,-3.25,-42.72,-473,-5625,6077,-1,0,-1
177.32,-3.25,-42.73,-478,-5623,6083,-1,0,-1
177.32,-3.25,-42.72,-477,-5627,6090,-1,0,0
177.32,-3.25,-42.73,-474,-5629,6090,-1,0,-1
177.32,-3.25,-42.72,-470,-5629,6089,-1,-1,-1
177.32,-3.25,-42.73,-471,-5629,6090,-1,-1,-1
177.33,-3.24,-42.73,-467,-5622,6088,-1,-1,-1
177.33,-3.24,-42.73,-462,-5616,6092,-1,0,-1
177.33,-3.24,-42.73,-460,-5608,6092,-1,0,0
177.34,-3.24,-42.74,-458,-5615,6093,-1,0,0
177.34,-3.24,-42.75,-459,-5627,6091,-1,0,0
177.33,-3.24,-42.75,-461,-5631,6091,-1,0,-1
177.33,-3.24,-42.76,-473,-5635,6091,-1,0,0
177.33,-3.24,-42.76,-474,-5638,6090,-1,-1,0
177.33,-3.24,-42.76,-474,-5640,6092,-1,-1,0
177.33,-3.24,-42.76,-469,-5633,6096,-1,0,-1
177.33,-3.24,-42.76,-462,-5629,6093,0,0,-1
177.34,-3.24,-42.75,-453,-5626,6091,0,0,-1
177.34,-3.23,-42.75,-462,-5634,6097,-1,-1,0
177.34,-3.23,-42.76,-464,-5632,6102,-1,-1,-1
177.34,-3.23,-42.76,-472,-5626,6091,-1,-1,-1
177.34,-3.23,-42.76,-465,-5625,6089,-1,-1,0
177.34,-3.22,-42.76,-460,-5632,6084,-1,0,-1
177.34,-3.22,-42.76,-460,-5636,6087,0,-1,-1
177.34,-3.22,-42.76,-457,-5633,6092,0,-1,0
177.34,-3.22,-42.76,-461,-5623,6087,-1,-1,0
177.34,-3.22,-42.76,-467,-5624,6087,-1,0,0
177.34,-3.22,-42.77,-469,-5626,6091,-1,0,-1
177.34,-3.22,-42.77,-464,-5625,6089,-1,-1,-1
177.35,-3.21,-42.77,-458,-5631,6079,-1,-1,-1
177.35,-3.21,-42.77,-454,-5619,6079,-1,-1,0
177.35,-3.21,-42.77,-454,-5627,6086,-1,0,0
177.35,-3.21,-42.77,-462,-5624,6096,-1,0,0
177.34,-3.22,-42.78,-468,-5626,6097,-1,0,-1
177.34,-3.22,-42.78,-466,-5629,6089,-1,0,0
177.34,-3.22,-42.78,-465,-5626,6089,-1,0,-1
177.34,-3.23,-42.79,-468,-5627,6079,-1,0,-1
177.34,-3.23,-42.79,-465,-5629,6084,-1,0,-1
177.34,-3.23,-42.80,-462,-5621,6084,-1,0,0
177.34,-3.23,-42.80,-461,-5628,6085,-1,0,0
177.33,-3.24,-42.81,-462,-5635,6084,-1,0,0
177.33,-3.24,-42.82,-460,-5628,6084,-1,0,0
177.33,-3.24,-42.82,-459,-5636,6083,-1,0,0
177.33,-3.25,-42.83,-468,-5640,6083,-1,0,0
177.33,-3.25,-42.84,-466,-5643,6086,-1,0,0
177.33,-3.26,-42.84,-466,-5640,6078,-1,0,0
177.33,-3.26,-42.85,-462,-5636,6081,-1,0,0
177.33,-3.26,-42.85,-469,-5642,6082,-1,0,0
177.33,-3.27,-42.85,-476,-5645,6083,0,0,-1
177.33,-3.27,-42.85,-487,-5649,6094,-1,-1,-1
177.33,-3.27,-42.85,-481,-5647,6091,-1,-1,-1
177.33,-3.26,-42.85,-480,-5640,6080,-1,-1,-1
177.33,-3.26,-42.85,-466,-5635,6080,0,-1,0
177.33,-3.26,-42.85,-463,-5641,6084,0,-1,0
177.33,-3.26,-42.85,-461,-5641,6079,0,-1,0
177.33,-3.25,-42.85,-459,-5638,6085,0,-1,0
177.33,-3.25,-42.85,-462,-5637,6088,-1,-1,0
177.33,-3.25,-42.84,-474,-5630,6076,0,-1,-1
177.33,-3.25,-42.84,-480,-5636,6079,0,-1,0
177.33,-3.25,-42.84,-476,-5640,6085,0,-1,-1
177.33,-3.24,-42.83,-471,-5641,6079,0,-1,-1
177.33,-3.24,-42.82,-459,-5644,6075,0,-1,-1
177.34,-3.23,-42.82,-460,-5644,6086,0,0,-1
177.34,-3.23,-42.82,-459,-5638,6086,0,0,-1
177.34,-3.24,-42.81,-462,-5628,6087,0,0,-1
177.34,-3.24,-42.81,-462,-5627,6080,-1,0,-1
177.34,-3.24,-42.81,-461,-5631,6071,0,0,-1
177.34,-3.24,-42.81,-468,-5640,6066,0,0,0
177.34,-3.24,-42.80,-469,-5641,6072,0,-1,0
177.34,-3.24,-42.80,-466,-5635,6087,0,0,-1
177.34,-3.24,-42.80,-467,-5633,6085,-1,0,-1
177.34,-3.24,-42.80,-469,-5632,6083,0,0,-1
177.34,-3.24,-42.79,-467,-5631,6086,0,-1,-1
177.35,-3.23,-42.78,-457,-5622,6096,0,-1,0
177.35,-3.23,-42.78,-456,-5628,6095,0,0,0
177.34,-3.24,-42.78,-461,-5620,6095,0,0,0
177.34,-3.25,-42.77,-472,-5626,6089,0,0,0
177.34,-3.25,-42.77,-479,-5633,6084,0,0,-1
177.34,-3.25,-42.76,-488,-5636,6084,0,-1,-1
177.34,-3.25,-42.76,-484,-5635,6089,0,-1,-1
177.34,-3.25,-42.76,-479,-5635,6084,0,-1,-1
177.35,-3.24,-42.75,-465,-5624,6076,0,-1,0
177.35,-3.24,-42.74,-460,-5629,6089,0,-1,0
177.35,-3.24,-42.74,-456,-5628,6095,0,0,0
177.35,-3.23,-42.73,-458,-5621,6099,0,0,0
177.34,-3.24,-42.73,-458,-5611,6102,-1,-1,0
177.34,-3.24,-42.73,-462,-5606,6096,-1,0,0
177.34,-3.24,-42.73,-464,-5622,6089,-1,0,0
177.34,-3.24,-42.73,-473,-5635,6089,0,-1,0
177.34,-3.24,-42.73,-476,-5635,6093,0,-1,0
177.33,-3.25,-42.72,-482,-5628,6078,0,-1,0
177.33,-3.25,-42.72,-474,-5627,6081,0,0,0
177.33,-3.25,-42.72,-470,-5628,6097,0,-1,0
177.33,-3.25,-42.71,-470,-5626,6095,0,0,0
177.33,-3.25,-42.71,-465,-5624,6099,0,0,0
177.33,-3.25,-42.70,-464,-5622,6104,0,0,-1
177.33,-3.25,-42.70,-466,-5617,6104,0,0,0
177.33,-3.25,-42.70,-464,-5621,6110,-1,-1,0
177.33,-3.25,-42.70,-466,-5617,6110,0,0,0
177.33,-3.25,-42.70,-467,-5620,6099,0,0,0
177.33,-3.25,-42.70,-471,-5625,6089,0,0,0
177.33,-3.25,-42.70,-467,-5617,6088,0,0,0
177.32,-3.26,-42.70,-471,-5626,6086,0,0,0
177.33,-3.26,-42.69,-473,-5627,6093,0,0,-1
177.33,-3.25,-42.68,-471,-5623,6106,0,-1,-1
177.33,-3.25,-42.68,-477,-5617,6103,0,0,0
177.32,-3.26,-42.67,-475,-5609,6097,0,-1,0
177.33,-3.25,-42.66,-477,-5619,6098,0,-1,0
177.33,-3.25,-42.66,-466,-5621,6102,0,-1,0
177.33,-3.25,-42.66,-465,-5621,6102,0,0,0
177.33,-3.25,-42.66,-465,-5620,6106,0,-1,0
177.33,-3.25,-42.66,-470,-5612,6095,0,0,0
177.32,-3.26,-42.65,-472,-5614,6103,0,0,0
177.32,-3.26,-42.65,-479,-5614,6118,0,0,0
177.32,-3.26,-42.65,-482,-5619,6102,-1,0,0
177.31,-3.27,-42.66,-483,-5627,6099,0,0,-1
177.32,-3.26,-42.66,-473,-5627,6089,0,-1,0
177.32,-3.26,-42.64,-468,-5613,6097,0,-1,0
177.31,-3.26,-42.64,-465,-5607,6098,0,-1,0
177.31,-3.26,-42.64,-466,-5611,6099,0,0,0
177.31,-3.26,-42.64,-464,-5612,6102,0,0,0
177.31,-3.27,-42.64,-474,-5614,6104,0,0,0
177.31,-3.28,-42.64,-487,-5617,6106,-1,-1,0
177.31,-3.27,-42.64,-481,-5621,6100,-1,-1,-1
177.30,-3.27,-42.64,-477,-5619,6103,0,-1,-1
177.30,-3.27,-42.64,-465,-5613,6095,0,-1,0
177.30,-3.27,-42.63,-460,-5609,6100,0,0,0
177.30,-3.27,-42.62,-458,-5612,6110,0,0,0
177.31,-3.26,-42.62,-455,-5611,6115,0,0,0
177.31,-3.26,-42.62,-461,-5614,6119,-1,0,0
177.31,-3.27,-42.62,-469,-5610,6110,-1,0,0
177.30,-3.27,-42.62,-477,-5617,6102,0,0,0
177.30,-3.27,-42.62,-479,-5617,6101,0,-1,0
177.30,-3.28,-42.62,-481,-5623,6097,0,-1,0
177.30,-3.27,-42.61,-477,-5628,6101,0,-1,0
177.30,-3.28,-42.61,-479,-5626,6110,0,0,0
177.30,-3.28,-42.61,-477,-5620,6107,0,-1,0
177.30,-3.28,-42.60,-484,-5606,6106,0,-1,-1
177.30,-3.28,-42.60,-482,-5609,6110,-1,-1,-1
177.30,-3.27,-42.60,-480,-5604,6100,-1,-1,0
177.30,-3.28,-42.60,-478,-5599,6097,-1,-1,0
177.30,-3.28,-42.60,-471,-5601,6098,-1,-1,0
177.30,-3.28,-42.60,-473,-5605,6098,-1,-1,0
177.30,-3.28,-42.61,-471,-5606,6091,-1,0,0
177.30,-3.27,-42.61,-467,-5612,6089,-1,0,-1
177.30,-3.27,-42.62,-470,-5617,6092,-1,-1,-1
177.30,-3.27,-42.62,-474,-5615,6097,0,-1,-1
177.30,-3.26,-42.62,-471,-5622,6104,-1,-1,-1
177.30,-3.26,-42.62,-478,-5609,6113,-1,-1,0
177.30,-3.26,-42.62,-476,-5598,6101,-1,0,0
177.30,-3.26,-42.62,-464,-5605,6096,-1,0,0
177.30,-3.26,-42.62,-467,-5610,6104,-1,-1,-1
177.30,-3.26,-42.63,-474,-5614,6107,-1,0,-1
177.30,-3.26,-42.63,-478,-5616,6095,-1,0,-1
177.31,-3.25,-42.64,-472,-5615,6098,-1,-1,-1
177.31,-3.25,-42.64,-466,-5615,6096,-1,-1,-1
177.31,-3.25,-42.64,-459,-5616,6095,0,-1,0
177.31,-3.24,-42.64,-461,-5616,6098,-1,-1,0
177.31,-3.24,-42.64,-464,-5622,6096,-1,-1,-1
177.31,-3.24,-42.64,-461,-5614,6100,-1,-1,0
177.31,-3.24,-42.64,-466,-5611,6115,-1,0,0
177.31,-3.24,-42.65,-476,-5613,6107,-1,-1,-1
177.31,-3.24,-42.66,-476,-5622,6088,-1,0,-1
177.31,-3.24,-42.66,-469,-5627,6097,0,-1,-1
177.31,-3.24,-42.66,-468,-5619,6100,0,-1,-1
177.32,-3.23,-42.66,-460,-5608,6096,-1,-1,0
177.32,-3.23,-42.66,-463,-5608,6111,-1,0,0
177.31,-3.24,-42.66,-467,-5619,6101,-1,0,-1
177.31,-3.24,-42.66,-474,-5621,6103,-1,0,0
177.31,-3.25,-42.67,-478,-5621,6098,-1,0,-1
177.32,-3.24,-42.67,-482,-5616,6103,-1,0,-1
177.32,-3.24,-42.67,-475,-5617,6098,-1,-1,-1
177.32,-3.24,-42.68,-464,-5614,6086,-1,-1,-1
177.32,-3.24,-42.68,-458,-5613,6097,-1,-1,-1
177.32,-3.23,-42.68,-457,-5614,6099,-1,0,-1
177.32,-3.23,-42.68,-461,-5611,6103,-1,0,0
177.32,-3.24,-42.68,-467,-5603,6103,-1,0,0
177.33,-3.24,-42.69,-468,-5608,6098,-1,0,-1
177.33,-3.24,-42.69,-466,-5615,6105,-1,0,-1
177.33,-3.24,-42.70,-470,-5623,6096,-1,-1,0
177.33,-3.24,-42.70,-465,-5626,6096,-1,0,-1
177.33,-3.24,-42.70,-466,-5632,6091,-1,0,-1
177.33,-3.24,-42.70,-470,-5625,6091,0,0,-1
177.33,-3.24,-42.70,-474,-5631,6094,0,0,-1
177.33,-3.24,-42.70,-466,-5627,6093,0,-1,-1
177.33,-3.23,-42.71,-465,-5626,6081,-1,-1,-1
177.34,-3.23,-42.71,-459,-5615,6085,-1,0,0
177.34,-3.23,-42.71,-458,-5616,6086,0,0,-1
177.34,-3.23,-42.71,-457,-5615,6093,-1,0,-1
177.34,-3.23,-42.72,-459,-5619,6095,-1,0,-1
177.34,-3.23,-42.72,-460,-5624,6089,-1,0,0
177.33,-3.23,-42.72,-473,-5626,6082,-1,0,-1
177.33,-3.23,-42.73,-475,-5629,6083,-1,0,-1
177.33,-3.23,-42.73,-477,-5629,6091,-1,-1,-1
177.33,-3.23,-42.73,-478,-5629,6090,0,-1,-1
177.33,-3.23,-42.72,-475,-5623,6090,0,-1,-1
177.33,-3.23,-42.72,-469,-5621,6096,-1,-1,0
177.33,-3.23,-42.72,-471,-5616,6092,-1,0,0
177.33,-3.23,-42.72,-465,-5620,6093,-1,0,-1
177.34,-3.22,-42.73,-463,-5622,6099,-1,-1,-1
177.34,-3.22,-42.73,-462,-5614,6087,-1,0,-1
177.34,-3.22,-42.74,-457,-5617,6084,-1,0,0
177.34,-3.22,-42.75,-468,-5622,6085,-1,-1,0
177.34,-3.22,-42.75,-463,-5627,6094,-1,-1,-1
177.34,-3.22,-42.75,-463,-5625,6092,-1,0,-1
177.34,-3.22,-42.75,-463,-5630,6094,-1,-1,-1
177.34,-3.22,-42.75,-461,-5623,6089,-1,-1,0
177.34,-3.22,-42.76,-461,-5616,6091,-1,0,0
177.34,-3.22,-42.76,-460,-5619,6094,-1,0,0
177.34,-3.22,-42.76,-469,-5626,6099,-1,0,-1
177.34,-3.22,-42.76,-471,-5627,6096,0,0,-1
177.34,-3.22,-42.76,-470,-5623,6101,0,-1,0
177.34,-3.22,-42.76,-458,-5616,6102,-1,-1,0
177.34,-3.22,-42.76,-458,-5621,6111,-1,0,0
177.34,-3.22,-42.76,-466,-5623,6096,-1,0,-1
177.34,-3.22,-42.77,-471,-5630,6093,-1,0,-1
177.34,-3.22,-42.78,-479,-5627,6082,-1,0,-1
177.34,-3.22,-42.78,-476,-5630,6076,-1,-1,-1
177.34,-3.22,-42.78,-479,-5635,6078,-1,-1,-1
177.34,-3.22,-42.78,-460,-5629,6076,0,-1,-1
177.35,-3.21,-42.78,-454,-5624,6085,0,0,-1
177.35,-3.21,-42.78,-442,-5622,6092,0,0,-1
177.35,-3.21,-42.78,-454,-5629,6094,-1,-1,0
177.35,-3.21,-42.78,-458,-5617,6095,-1,0,0
177.35,-3.21,-42.78,-466,-5617,6096,-1,0,0
177.35,-3.21,-42.78,-468,-5623,6087,-1,0,-1
177.35,-3.21,-42.78,-467,-5632,6080,-1,-1,-1
177.35,-3.21,-42.79,-464,-5640,6080,0,-1,0
177.35,-3.21,-42.79,-463,-5639,6080,-1,0,-1
177.35,-3.21,-42.78,-464,-5635,6102,0,0,0
177.35,-3.21,-42.78,-469,-5627,6099,-1,0,-1
177.35,-3.21,-42.78,-459,-5632,6097,-1,0,-1
177.35,-3.21,-42.78,-460,-5629,6096,-1,-1,-1
177.35,-3.20,-42.79,-457,-5628,6091,-1,0,-1
177.35,-3.20,-42.79,-457,-5633,6093,-1,0,0
177.35,-3.20,-42.79,-465,-5637,6096,-1,0,-1
177.35,-3.21,-42.79,-465,-5632,6102,-1,0,0
177.35,-3.21,-42.80,-470,-5624,6087,-1,0,0
177.35,-3.21,-42.81,-467,-5633,6077,-1,0,-1
177.35,-3.21,-42.81,-463,-5629,6080,-1,0,0
177.35,-3.21,-42.81,-467,-5631,6080,-1,0,0
177.35,-3.21,-42.82,-475,-5635,6078,-1,0,-1
177.35,-3.21,-42.82,-472,-5638,6071,0,0,-1
177.35,-3.21,-42.81,-470,-5632,6084,-1,0,-1
177.35,-3.21,-42.81,-469,-5637,6089,-1,-1,0
177.35,-3.21,-42.81,-467,-5638,6089,0,-1,-1
177.35,-3.21,-42.82,-457,-5638,6089,-1,0,0
177.35,-3.21,-42.82,-453,-5632,6092,-1,0,0
177.35,-3.21,-42.82,-455,-5633,6086,-1,0,0
177.35,-3.22,-42.82,-463,-5635,6084,-1,0,0
177.35,-3.22,-42.82,-460,-5641,6089,0,0,-1
177.35,-3.22,-42.82,-471,-5643,6089,0,0,-1
177.35,-3.22,-42.82,-472,-5635,6093,0,-1,0
177.34,-3.22,-42.82,-469,-5636,6084,0,-1,0
177.34,-3.22,-42.81,-463,-5632,6087,0,-1,0
177.34,-3.22,-42.81,-462,-5629,6080,-1,0,-1
177.34,-3.22,-42.81,-465,-5635,6081,-1,0,-1
177.34,-3.22,-42.81,-464,-5637,6069,0,0,0
177.34,-3.22,-42.80,-466,-5632,6075,0,-1,0
177.34,-3.22,-42.79,-458,-5621,6085,0,-1,0
177.35,-3.21,-42.79,-452,-5627,6089,-1,0,0
177.34,-3.22,-42.79,-461,-5626,6084,0,0,0
177.34,-3.22,-42.79,-470,-5630,6087,0,0,0
177.34,-3.22,-42.78,-475,-5639,6103,0,0,-1
177.34,-3.22,-42.78,-482,-5640,6088,0,-1,-1
177.35,-3.22,-42.78,-470,-5642,6090,0,-1,-1
177.35,-3.22,-42.78,-470,-5635,6093,0,-1,-1
177.35,-3.22,-42.78,-460,-5631,6086,0,-1,-1
177.35,-3.22,-42.77,-462,-5627,6089,0,0,0
177.35,-3.22,-42.77,-462,-5624,6090,0,0,0
177.34,-3.22,-42.77,-462,-5620,6095,-1,0,0
177.34,-3.22,-42.77,-469,-5622,6091,-1,0,0
177.34,-3.22,-42.77,-470,-5623,6095,0,0,0
177.34,-3.23,-42.77,-476,-5629,6089,-1,0,0
177.34,-3.23,-42.76,-476,-5634,6099,0,-1,0
177.33,-3.23,-42.76,-480,-5639,6088,0,-1,-1
177.34,-3.23,-42.76,-477,-5629,6084,0,0,0
177.33,-3.24,-42.76,-478,-5623,6092,0,0,0
177.34,-3.24,-42.75,-470,-5621,6091,0,0,-1
177.33,-3.24,-42.75,-479,-5629,6103,0,-1,0
177.34,-3.24,-42.74,-471,-5632,6106,0,-1,-1
177.33,-3.24,-42.73,-471,-5624,6101,0,-1,0
177.33,-3.24,-42.73,-465,-5612,6093,0,-1,0
177.33,-3.24,-42.72,-464,-5614,6090,0,-1,0
177.33,-3.24,-42.72,-465,-5617,6096,0,0,0
177.33,-3.24,-42.72,-459,-5620,6092,0,0,0
177.33,-3.24,-42.72,-460,-5617,6090,0,0,0
177.33,-3.24,-42.72,-473,-5619,6085,0,0,0
177.33,-3.24,-42.72,-468,-5630,6082,0,0,0
177.32,-3.24,-42.72,-469,-5621,6087,0,-1,0
177.32,-3.24,-42.72,-466,-5625,6098,0,0,-1
177.32,-3.24,-42.71,-468,-5621,6100,0,-1,0
177.32,-3.24,-42.70,-464,-5622,6093,0,-1,0
177.33,-3.24,-42.70,-464,-5613,6097,0,-1,0
177.32,-3.24,-42.70,-461,-5610,6099,0,0,0
177.32,-3.24,-42.70,-460,-5608,6098,-1,0,0
177.32,-3.24,-42.70,-462,-5633,6099,0,0,0
177.32,-3.24,-42.70,-471,-5628,6093,0,0,0
177.32,-3.25,-42.70,-472,-5626,6105,-1,0,0
177.32,-3.25,-42.70,-470,-5621,6104,-1,-1,0
177.32,-3.25,-42.70,-469,-5632,6096,0,0,0
177.32,-3.25,-42.70,-470,-5626,6095,0,0,0
177.32,-3.25,-42.69,-455,-5620,6092,0,-1,0
177.32,-3.25,-42.68,-463,-5622,6109,0,0,0
177.31,-3.26,-42.68,-474,-5624,6111,0,0,0
177.31,-3.26,-42.67,-490,-5622,6110,-1,0,0
177.31,-3.26,-42.67,-488,-5619,6091,0,-1,-1
177.31,-3.26,-42.67,-492,-5627,6093,0,-1,-1
177.31,-3.26,-42.67,-481,-5627,6092,0,-1,-1
177.31,-3.26,-42.67,-477,-5624,6094,0,-1,-1
177.31,-3.26,-42.66,-467,-5625,6090,0,-1,0
177.31,-3.25,-42.66,-462,-5617,6093,0,-1,0
177.31,-3.25,-42.65,-460,-5614,6101,0,0,0
177.31,-3.25,-42.64,-461,-5605,6115,-1,-1,0
177.31,-3.25,-42.64,-457,-5606,6109,-1,0,0
177.31,-3.26,-42.64,-465,-5609,6108,-1,0,0
177.31,-3.26,-42.65,-466,-5618,6105,-1,0,0
177.30,-3.26,-42.65,-473,-5628,6094,0,0,0
177.30,-3.27,-42.65,-475,-5627,6090,0,0,0
177.30,-3.27,-42.65,-474,-5628,6100,0,0,0
177.30,-3.27,-42.64,-473,-5624,6097,0,0,0
177.30,-3.27,-42.64,-478,-5623,6106,0,-1,0
177.30,-3.26,-42.64,-478,-5619,6112,0,-1,-1
177.30,-3.26,-42.63,-474,-5609,6112,0,-1,0
177.30,-3.26,-42.63,-468,-5613,6113,0,0,0
177.30,-3.26,-42.62,-464,-5614,6112,0,0,0
177.30,-3.26,-42.62,-469,-5612,6117,-1,0,0
177.30,-3.26,-42.62,-471,-5614,6114,-1,0,0
177.30,-3.27,-42.62,-482,-5617,6104,-1,-1,-1
177.29,-3.27,-42.62,-476,-5619,6104,0,-1,0
177.29,-3.27,-42.62,-476,-5621,6102,-1,-1,-1
177.29,-3.27,-42.62,-475,-5620,6101,0,-1,-1
177.29,-3.27,-42.62,-473,-5618,6100,0,-1,0
177.30,-3.26,-42.61,-476,-5611,6101,0,0,0
177.30,-3.26,-42.61,-479,-5616,6107,-1,-1,0
177.30,-3.26,-42.61,-471,-5609,6118,-1,-1,-1
177.30,-3.26,-42.61,-474,-5611,6103,-1,-1,-1
177.30,-3.26,-42.62,-473,-5617,6092,-1,-1,-1
177.29,-3.25,-42.63,-472,-5619,6092,-1,-1,0
177.29,-3.25,-42.63,-473,-5618,6091,0,-1,0
177.29,-3.25,-42.63,-472,-5613,6094,0,-1,0
177.30,-3.25,-42.62,-474,-5609,6106,-1,-1,0
177.29,-3.25,-42.63,-471,-5604,6106,-1,-1,0
177.29,-3.25,-42.63,-475,-5615,6109,-1,0,-1
177.29,-3.25,-42.63,-473,-5623,6100,-1,0,-1
177.30,-3.24,-42.63,-472,-5621,6107,-1,-1,-1
177.30,-3.24,-42.63,-471,-5616,6108,-1,-1,-1
177.30,-3.24,-42.63,-466,-5607,6098,-1,-1,0
177.30,-3.24,-42.64,-472,-5614,6088,-1,-1,0
177.30,-3.24,-42.64,-476,-5612,6096,-1,0,0
177.30,-3.24,-42.65,-473,-5619,6101,-1,0,-1
177.30,-3.24,-42.65,-469,-5623,6084,-1,0,-1
177.30,-3.25,-42.65,-481,-5623,6099,0,-1,-1
177.30,-3.24,-42.65,-473,-5620,6103,-1,-1,-1
177.30,-3.24,-42.65,-470,-5619,6105,-1,-1,-1
177.31,-3.23,-42.65,-467,-5609,6101,-1,-1,0
177.30,-3.24,-42.65,-466,-5607,6099,-1,-1,0
177.30,-3.24,-42.65,-463,-5605,6110,-1,0,-1
177.30,-3.24,-42.66,-459,-5611,6105,-1,0,0
177.30,-3.24,-42.66,-461,-5626,6108,-1,0,0
177.30,-3.24,-42.67,-467,-5623,6092,-1,0,0
177.30,-3.24,-42.67,-473,-5624,6100,-1,0,-1
177.30,-3.24,-42.67,-469,-5627,6101,-1,-1,-1
177.31,-3.23,-42.68,-464,-5634,6094,-1,-1,-1
177.31,-3.23,-42.68,-465,-5632,6096,-1,-1,0
177.31,-3.23,-42.68,-467,-5627,6100,0,-1,0
177.31,-3.23,-42.68,-463,-5629,6089,-1,0,-1
177.31,-3.23,-42.69,-467,-5620,6088,0,0,-1
177.31,-3.23,-42.69,-472,-5610,6087,-1,0,-1
177.31,-3.23,-42.69,-471,-5614,6090,-1,-1,0
177.31,-3.23,-42.69,-464,-5614,6094,-1,0,0
177.31,-3.23,-42.69,-463,-5619,6089,-1,0,0
177.31,-3.23,-42.70,-470,-5624,6087,-1,0,-1
177.31,-3.23,-42.70,-469,-5624,6088,-1,0,0
177.30,-3.24,-42.71,-473,-5628,6085,-1,0,-1
177.30,-3.24,-42.71,-471,-5626,6081,0,0,0
177.30,-3.24,-42.71,-470,-5620,6089,0,-1,-1
177.30,-3.24,-42.71,-468,-5623,6080,-1,-1,0
177.31,-3.23,-42.71,-457,-5619,6084,-1,0,-1
177.31,-3.23,-42.71,-461,-5616,6090,-1,0,-1
177.31,-3.23,-42.72,-463,-5621,6097,-1,0,-1
177.31,-3.23,-42.72,-463,-5612,6092,-1,-1,-1
177.31,-3.23,-42.72,-469,-5618,6086,-1,-1,-1
177.31,-3.23,-42.72,-467,-5619,6087,-1,0,0
177.32,-3.23,-42.73,-466,-5621,6088,-1,0,-1
177.32,-3.23,-42.72,-466,-5620,6087,0,0,-1
177.32,-3.23,-42.72,-471,-5620,6098,0,-1,0
177.32,-3.23,-42.72,-472,-5621,6092,-1,0,-1
177.32,-3.23,-42.73,-479,-5624,6083,-1,0,-1
177.32,-3.23,-42.74,-475,-5633,6087,-1,-1,-1
177.32,-3.23,-42.74,-469,-5633,6091,0,-1,-1
177.32,-3.23,-42.73,-457,-5626,6099,0,-1,-1
177.33,-3.22,-42.73,-452,-5621,6100,-1,0,0
177.32,-3.22,-42.73,-459,-5620,6097,-1,0,0
177.32,-3.23,-42.73,-466,-5617,6090,-1,0,0
177.32,-3.23,-42.74,-473,-5623,6094,-1,0,-1
177.32,-3.23,-42.74,-479,-5622,6100,-1,-1,-1
177.32,-3.23,-42.75,-476,-5633,6090,-1,-1,-1
177.32,-3.23,-42.75,-467,-5638,6082,-1,-1,-1
177.32,-3.23,-42.75,-459,-5628,6081,0,-1,0
177.33,-3.22,-42.75,-454,-5625,6090,-1,-1,0
177.33,-3.22,-42.75,-460,-5622,6090,-1,0,0
177.32,-3.22,-42.75,-458,-5611,6091,-1,0,0
177.32,-3.22,-42.75,-457,-5611,6091,-1,0,0
177.32,-3.22,-42.75,-460,-5625,6086,-1,0,0
177.32,-3.23,-42.76,-465,-5634,6085,-1,0,0
177.32,-3.23,-42.76,-474,-5632,6086,-1,-1,-1
177.32,-3.23,-42.76,-477,-5631,6089,-1,-1,0
177.32,-3.22,-42.77,-473,-5640,6091,0,-1,-1
177.32,-3.22,-42.76,-465,-5637,6090,0,-1,-1
177.32,-3.22,-42.76,-467,-5630,6095,0,-1,-1
177.32,-3.22,-42.76,-464,-5629,6093,-1,-1,-1
177.32,-3.22,-42.76,-465,-5627,6096,-1,0,-1
177.32,-3.22,-42.76,-467,-5622,6090,-1,0,0
177.32,-3.22,-42.76,-460,-5619,6085,-1,0,-1
177.32,-3.22,-42.77,-457,-5616,6082,-1,-1,0
177.32,-3.22,-42.77,-466,-5628,6088,-1,-1,0
177.32,-3.22,-42.78,-460,-5627,6079,-1,0,-1
177.32,-3.22,-42.78,-463,-5634,6072,-1,0,0
177.32,-3.22,-42.78,-463,-5641,6081,0,0,-1
177.32,-3.22,-42.78,-468,-5634,6085,0,0,-1
177.32,-3.22,-42.78,-461,-5640,6081,0,-1,-1
177.32,-3.21,-42.78,-466,-5638,6079,0,-1,-1
177.32,-3.21,-42.78,-454,-5634,6082,0,-1,-1
177.33,-3.20,-42.78,-458,-5628,6094,0,-1,-1
177.33,-3.20,-42.78,-457,-5620,6093,-1,-1,-1
177.33,-3.20,-42.78,-453,-5620,6095,-1,0,0
177.33,-3.20,-42.78,-453,-5622,6098,-1,0,0
177.33,-3.20,-42.78,-456,-5627,6097,-1,0,0
177.32,-3.21,-42.79,-463,-5629,6086,-1,0,0
177.32,-3.21,-42.80,-468,-5637,6083,-1,0,-1
177.33,-3.21,-42.80,-461,-5632,6087,-1,0,-1
177.33,-3.21,-42.81,-460,-5630,6090,-1,0,0
177.33,-3.21,-42.81,-458,-5637,6093,-1,0,0
177.33,-3.21,-42.81,-461,-5637,6092,-1,0,0
177.33,-3.22,-42.82,-459,-5631,6098,-1,0,0
177.33,-3.22,-42.82,-461,-5616,6104,-1,0,-1
177.32,-3.23,-42.82,-467,-5623,6090,-1,0,0
177.33,-3.22,-42.83,-466,-5631,6083,-1,0,-1
177.33,-3.23,-42.84,-467,-5643,6078,-1,0,-1
177.33,-3.23,-42.84,-467,-5638,6081,0,0,0
