Yaw,Pitch,Roll,AX,AY,AZ,GX,GY,GZ
-28.61,-3.84,35.75,-549,4729,6566,-1,-1,0
-28.61,-3.84,35.75,-547,4736,6571,-1,-1,0
-28.61,-3.84,35.75,-549,4736,6568,-1,-1,0
-28.61,-3.84,35.74,-545,4732,6562,-1,-1,0
-28.62,-3.83,35.74,-538,4729,6564,-1,-1,0
-28.62,-3.82,35.74,-536,4723,6570,0,-1,-1
-28.62,-3.82,35.74,-538,4729,6565,-1,-1,0
-28.62,-3.82,35.74,-540,4725,6572,-1,-1,0
-28.63,-3.81,35.73,-540,4719,6577,-1,-1,0
-28.63,-3.81,35.73,-545,4709,6572,0,-1,0
-28.64,-3.81,35.73,-548,4717,6565,0,-1,0
-28.63,-3.81,35.73,-549,4733,6562,-1,-1,0
-28.64,-3.80,35.73,-543,4736,6562,-1,-1,0
-28.64,-3.80,35.72,-542,4724,6562,-1,-1,0
-28.65,-3.79,35.72,-540,4727,6576,-1,-1,0
-28.65,-3.79,35.72,-544,4724,6571,-1,-1,0
-28.65,-3.79,35.72,-538,4724,6568,-1,-1,0
-28.66,-3.79,35.71,-541,4721,6570,-1,-1,0
-28.66,-3.79,35.71,-537,4714,6569,-1,-1,0
-28.66,-3.78,35.70,-544,4709,6562,-1,-1,0
-28.66,-3.78,35.70,-537,4714,6569,-1,-1,0
-28.66,-3.78,35.70,-542,4719,6572,-1,-1,0
-28.66,-3.77,35.70,-539,4720,6565,-1,-1,0
-28.66,-3.77,35.70,-536,4721,6564,0,-1,-1
-28.66,-3.78,35.70,-544,4726,6568,-1,-1,0
-28.66,-3.78,35.70,-545,4734,6572,-1,-1,0
-28.67,-3.77,35.69,-541,4728,6571,-1,-1,0
-28.68,-3.76,35.70,-535,4724,6573,-1,-1,0
-28.68,-3.76,35.69,-528,4725,6572,-1,-1,0
-28.68,-3.76,35.70,-528,4722,6567,-1,-1,-1
-28.68,-3.76,35.70,-533,4716,6559,-1,0,-1
-28.68,-3.76,35.69,-538,4718,6563,-1,-1,-1
-28.68,-3.76,35.69,-544,4717,6555,-1,0,0
-28.69,-3.76,35.68,-547,4721,6575,-1,-1,0
-28.69,-3.76,35.69,-542,4722,6578,0,-1,0
-28.69,-3.76,35.69,-539,4723,6576,0,-1,0
-28.69,-3.76,35.69,-538,4722,6565,-1,-1,0
-28.69,-3.75,35.70,-532,4719,6562,0,-1,0
-28.70,-3.75,35.69,-523,4719,6561,-1,0,0
-28.70,-3.75,35.69,-531,4713,6564,-1,0,-1
-28.70,-3.75,35.69,-537,4720,6564,-1,0,0
-28.70,-3.75,35.68,-535,4723,6563,-1,-1,0
-28.71,-3.75,35.68,-534,4720,6575,-1,-1,0
-28.71,-3.75,35.67,-533,4715,6579,-1,-1,0
-28.71,-3.75,35.67,-529,4711,6572,-1,-1,0
-28.72,-3.74,35.67,-533,4711,6571,-1,-1,0
-28.72,-3.74,35.67,-532,4704,6581,-1,0,-1
-28.71,-3.75,35.67,-535,4708,6590,0,-1,-1
-28.71,-3.75,35.67,-536,4716,6585,0,-1,0
-28.71,-3.75,35.67,-536,4718,6574,0,-1,0
-28.71,-3.74,35.68,-538,4729,6571,-1,-1,0
-28.72,-3.74,35.68,-536,4726,6566,-1,-1,0
-28.72,-3.73,35.68,-534,4725,6568,-1,-1,0
-28.72,-3.73,35.68,-538,4721,6567,-1,0,0
-28.72,-3.74,35.67,-532,4720,6574,-1,-1,0
-28.72,-3.74,35.67,-537,4712,6578,-1,-1,-1
-28.72,-3.74,35.67,-528,4714,6572,0,0,-1
-28.72,-3.74,35.67,-529,4720,6573,-1,-1,0
-28.72,-3.73,35.67,-528,4716,6579,0,-1,0
-28.73,-3.73,35.67,-538,4714,6577,0,-1,0
-28.73,-3.73,35.67,-535,4714,6575,0,-1,-1
-28.72,-3.73,35.67,-538,4724,6566,0,0,-1
-28.72,-3.73,35.68,-540,4726,6566,-1,0,0
-28.72,-3.73,35.68,-544,4724,6564,-1,-1,0
-28.72,-3.73,35.68,-543,4731,6574,-1,-1,0
-28.73,-3.73,35.68,-533,4727,6572,-1,-1,0
-28.72,-3.73,35.68,-538,4724,6574,-1,-1,-1
-28.72,-3.73,35.68,-540,4726,6571,-1,0,0
-28.73,-3.73,35.68,-539,4723,6569,-1,0,0
-28.73,-3.73,35.68,-537,4722,6579,-1,-1,-1
-28.73,-3.73,35.68,-535,4719,6579,0,-1,-1
-28.72,-3.73,35.68,-535,4718,6579,-1,-1,-1
-28.72,-3.73,35.68,-531,4715,6573,-1,-1,0
-28.73,-3.73,35.68,-538,4714,6572,0,0,0
-28.73,-3.73,35.68,-537,4709,6573,0,-1,0
-28.72,-3.73,35.68,-533,4714,6580,0,-1,0
-28.72,-3.73,35.68,-537,4718,6565,0,-1,0
-28.72,-3.74,35.69,-535,4720,6560,0,0,-1
-28.72,-3.74,35.69,-538,4720,6564,-1,0,-1
-28.72,-3.75,35.68,-542,4721,6568,-1,0,-1
-28.71,-3.74,35.69,-539,4727,6565,0,-1,0
-28.71,-3.74,35.69,-539,4725,6573,0,-1,0
-28.71,-3.74,35.69,-531,4724,6569,-1,-1,0
-28.72,-3.73,35.68,-527,4720,6573,-1,-1,0
-28.72,-3.73,35.68,-522,4713,6563,-1,0,0
-28.72,-3.74,35.68,-534,4711,6570,0,0,-1
-28.72,-3.74,35.68,-534,4711,6577,0,0,-1
-28.71,-3.75,35.69,-542,4731,6576,0,-1,-1
-28.71,-3.75,35.69,-539,4731,6580,0,-1,0
-28.71,-3.74,35.69,-537,4729,6575,0,-1,0
-28.71,-3.74,35.69,-527,4721,6576,0,-1,0
-28.72,-3.74,35.69,-531,4718,6568,0,0,-1
-28.71,-3.74,35.70,-530,4727,6563,0,0,-1
-28.71,-3.74,35.70,-531,4730,6567,-1,0,-1
-28.71,-3.74,35.70,-535,4728,6569,-1,-1,-1
-28.72,-3.74,35.70,-530,4720,6567,-1,0,0
-28.72,-3.74,35.70,-530,4715,6566,-1,-1,0
-28.72,-3.74,35.70,-530,4720,6568,-1,0,0
-28.72,-3.74,35.70,-526,4717,6572,-1,-1,0
-28.72,-3.74,35.70,-528,4719,6574,0,0,-1
-28.72,-3.74,35.70,-524,4712,6574,0,0,-1
-28.72,-3.74,35.70,-532,4714,6575,0,0,-1
-28.71,-3.75,35.70,-531,4712,6571,0,-1,-1
-28.71,-3.75,35.70,-533,4712,6572,0,0,0
-28.70,-3.75,35.70,-532,4717,6571,0,-1,-1
-28.70,-3.75,35.70,-536,4718,6567,0,0,-1
-28.70,-3.75,35.70,-536,4727,6572,0,0,-1
-28.70,-3.75,35.71,-535,4730,6572,-1,0,0
-28.70,-3.75,35.70,-528,4726,6567,-1,-1,-1
-28.70,-3.75,35.70,-527,4722,6575,0,0,0
-28.70,-3.75,35.70,-521,4716,6572,0,0,-1
-28.70,-3.75,35.71,-524,4725,6563,0,0,-1
-28.70,-3.75,35.71,-534,4730,6562,-1,0,0
-28.70,-3.75,35.71,-527,4730,6574,-1,0,0
-28.71,-3.75,35.71,-530,4726,6578,-1,-1,0
-28.71,-3.75,35.71,-532,4719,6574,-1,0,-1
-28.71,-3.75,35.71,-531,4717,6573,0,0,-1
-28.71,-3.76,35.71,-540,4730,6572,-1,0,0
-28.71,-3.77,35.70,-539,4727,6569,-1,0,0
-28.71,-3.77,35.70,-536,4733,6567,-1,0,0
-28.71,-3.77,35.70,-539,4726,6572,-1,-1,0
-28.71,-3.77,35.70,-533,4723,6568,-1,0,-1
-28.71,-3.77,35.70,-531,4716,6568,-1,0,-1
-28.71,-3.78,35.70,-539,4715,6572,0,0,-1
-28.71,-3.78,35.70,-554,4728,6565,0,0,-1
-28.70,-3.78,35.71,-551,4731,6569,0,-1,0
-28.70,-3.78,35.71,-540,4727,6570,-1,-1,0
-28.71,-3.78,35.71,-533,4728,6562,-1,-1,0
-28.72,-3.77,35.71,-528,4722,6556,-1,0,-1
-28.71,-3.78,35.71,-527,4715,6555,0,0,-1
-28.70,-3.79,35.71,-537,4708,6549,0,0,-1
-28.69,-3.79,35.71,-545,4714,6564,0,0,-1
-28.68,-3.80,35.72,-554,4720,6565,0,-1,-1
-28.68,-3.80,35.72,-563,4720,6580,0,0,-1
-28.68,-3.80,35.72,-548,4711,6568,0,-1,-1
-28.68,-3.80,35.74,-546,4721,6555,0,-1,-1
-28.67,-3.80,35.74,-537,4722,6555,0,-1,-1
-28.67,-3.80,35.74,-541,4720,6561,0,-1,-1
-28.67,-3.80,35.74,-540,4723,6565,-1,-1,-1
-28.66,-3.80,35.74,-547,4730,6567,0,-1,-1
-28.66,-3.80,35.74,-548,4726,6563,0,-1,0
-28.66,-3.80,35.74,-551,4728,6566,-1,-1,0
-28.66,-3.79,35.74,-551,4724,6558,-1,-1,0
-28.66,-3.79,35.74,-549,4714,6562,-1,-1,0
-28.66,-3.79,35.74,-549,4717,6555,0,-1,-1
-28.66,-3.79,35.74,-550,4721,6557,-1,-1,-1
-28.66,-3.79,35.74,-554,4720,6567,-1,-1,-1
-28.66,-3.79,35.74,-552,4724,6566,-1,-1,0
-28.66,-3.79,35.74,-547,4727,6570,-1,-1,0
-28.66,-3.79,35.74,-547,4728,6566,-1,-1,0
-28.67,-3.78,35.74,-542,4727,6566,-1,-1,0
-28.67,-3.77,35.73,-535,4721,6568,-1,-1,0
-28.67,-3.78,35.73,-529,4721,6567,-1,-1,0
-28.67,-3.78,35.73,-536,4720,6563,-1,0,0
-28.68,-3.77,35.73,-537,4723,6566,-1,-1,0
-28.68,-3.77,35.72,-542,4723,6568,-1,-1,0
-28.69,-3.76,35.72,-545,4724,6562,-1,-1,0
-28.69,-3.76,35.72,-540,4717,6566,-1,-1,-1
-28.69,-3.76,35.71,-527,4713,6564,0,-1,-1
-28.69,-3.76,35.72,-533,4719,6555,-1,-1,0
-28.69,-3.76,35.71,-531,4721,6560,-1,-1,0
-28.70,-3.76,35.71,-543,4714,6558,-1,-1,0
-28.70,-3.76,35.71,-543,4720,6562,-1,-1,-1
-28.69,-3.75,35.71,-543,4729,6562,-1,-1,0
-28.70,-3.76,35.71,-541,4727,6560,-1,-1,0
-28.70,-3.75,35.71,-541,4720,6563,-1,-1,0
-28.71,-3.74,35.70,-536,4717,6562,-1,-1,0
-28.70,-3.74,35.70,-533,4714,6559,-1,-1,0
-28.70,-3.74,35.70,-532,4708,6559,-1,-1,-1
-28.70,-3.74,35.69,-535,4708,6557,-1,0,-1
-28.70,-3.75,35.70,-535,4710,6563,-1,0,-1
-28.70,-3.75,35.70,-537,4714,6559,-1,-1,0
-28.70,-3.74,35.69,-539,4727,6562,-1,-1,0
-28.71,-3.74,35.70,-538,4714,6559,-1,-1,0
-28.72,-3.74,35.70,-540,4714,6563,-1,-1,0
-28.72,-3.74,35.70,-539,4715,6562,0,-1,0
-28.72,-3.74,35.70,-543,4714,6561,0,-1,0
-28.72,-3.74,35.70,-542,4720,6557,-1,0,0
-28.72,-3.74,35.70,-541,4726,6556,-1,-1,0
-28.72,-3.74,35.70,-540,4724,6563,-1,-1,0
-28.72,-3.74,35.69,-535,4722,6572,-1,-1,0
-28.73,-3.74,35.69,-535,4718,6576,-1,-1,0
-28.73,-3.73,35.69,-538,4718,6575,-1,-1,0
-28.73,-3.73,35.68,-538,4710,6575,0,-1,0
-28.73,-3.74,35.69,-537,4715,6574,0,-1,-1
-28.73,-3.74,35.69,-539,4718,6574,0,0,0
-28.73,-3.73,35.69,-546,4716,6580,-1,-1,0
-28.73,-3.73,35.69,-542,4715,6576,-1,-1,0
-28.74,-3.74,35.68,-542,4713,6570,-1,-1,0
-28.74,-3.73,35.68,-529,4712,6574,0,0,0
-28.73,-3.73,35.69,-532,4728,6573,-1,0,-1
-28.73,-3.73,35.69,-534,4732,6572,-1,-1,0
-28.74,-3.73,35.68,-538,4731,6568,-1,-1,0
-28.74,-3.73,35.68,-531,4723,6571,-1,-1,0
-28.74,-3.73,35.67,-534,4718,6577,-1,0,0
-28.74,-3.74,35.67,-543,4719,6568,-1,0,0
-28.74,-3.74,35.67,-539,4727,6568,0,0,0
-28.74,-3.74,35.67,-538,4726,6576,-1,-1,0
-28.74,-3.73,35.68,-535,4724,6568,0,-1,0
-28.74,-3.73,35.68,-535,4725,6568,0,-1,-1
-28.74,-3.73,35.68,-537,4729,6566,0,0,-1
-28.74,-3.73,35.68,-540,4724,6561,-1,0,-1
-28.74,-3.74,35.68,-544,4720,6558,-1,-1,-1
-28.74,-3.74,35.68,-543,4714,6567,0,-1,0
-28.74,-3.73,35.68,-539,4718,6573,0,-1,0
-28.74,-3.73,35.68,-534,4722,6570,-1,-1,0
-28.74,-3.73,35.68,-527,4717,6570,-1,-1,0
-28.74,-3.73,35.68,-527,4716,6570,-1,0,-1
-28.74,-3.73,35.68,-534,4716,6568,-1,0,-1
-28.74,-3.73,35.68,-540,4720,6580,-1,0,-1
-28.74,-3.73,35.68,-549,4721,6584,-1,-1,0
-28.74,-3.73,35.68,-540,4722,6581,0,-1,-1
-28.73,-3.73,35.68,-532,4719,6568,0,-1,-1
-28.73,-3.73,35.69,-532,4724,6554,0,-1,0
-28.73,-3.73,35.69,-530,4719,6563,0,-1,-1
-28.73,-3.73,35.69,-533,4720,6566,0,0,-1
-28.73,-3.74,35.70,-533,4725,6568,-1,-1,-1
-28.73,-3.74,35.70,-542,4723,6565,0,0,-1
-28.73,-3.74,35.70,-537,4718,6568,-1,-1,0
-28.73,-3.73,35.69,-528,4717,6566,-1,-1,0
-28.73,-3.73,35.69,-526,4710,6569,-1,-1,0
-28.73,-3.73,35.69,-527,4711,6569,0,-1,0
-28.73,-3.73,35.69,-536,4718,6569,0,0,-1
-28.73,-3.74,35.70,-536,4725,6572,-1,0,-1
-28.73,-3.74,35.69,-534,4725,6573,-1,0,0
-28.73,-3.74,35.69,-541,4719,6572,0,-1,-1
-28.72,-3.74,35.70,-530,4713,6567,0,-1,-1
-28.72,-3.74,35.70,-537,4725,6563,0,-1,0
-28.73,-3.74,35.70,-535,4728,6569,-1,0,0
-28.73,-3.74,35.70,-537,4728,6567,-1,0,0
-28.73,-3.74,35.70,-536,4724,6560,0,0,0
-28.72,-3.74,35.70,-536,4727,6563,-1,-1,-1
-28.73,-3.74,35.70,-537,4728,6575,-1,0,0
-28.73,-3.74,35.70,-538,4721,6572,-1,0,0
-28.73,-3.74,35.70,-537,4717,6566,-1,-1,0
-28.73,-3.74,35.70,-539,4713,6561,-1,-1,0
-28.73,-3.75,35.69,-543,4709,6560,-1,-1,0
-28.73,-3.74,35.70,-539,4716,6562,0,-1,-1
-28.73,-3.74,35.70,-536,4722,6563,-1,0,-1
-28.73,-3.74,35.70,-539,4724,6563,-1,0,0
-28.73,-3.75,35.69,-536,4718,6575,-1,-1,0
-28.73,-3.75,35.69,-537,4713,6563,-1,-1,0
-28.73,-3.74,35.69,-527,4709,6565,0,-1,-1
-28.73,-3.74,35.70,-525,4711,6552,0,0,-1
-28.72,-3.75,35.70,-537,4711,6554,-1,0,-1
-28.72,-3.75,35.70,-541,4718,6559,-1,0,-1
-28.72,-3.75,35.70,-544,4726,6564,-1,-1,0
-28.72,-3.75,35.69,-547,4724,6571,-1,-1,0
-28.72,-3.75,35.70,-543,4717,6570,0,-1,0
-28.73,-3.74,35.70,-535,4715,6566,0,-1,0
-28.73,-3.74,35.70,-525,4715,6568,-1,-1,0
-28.73,-3.74,35.70,-525,-1,-1,-1,0,-1
-28.72,-3.75,35.70,-534,4712,6559,-1,0,-1
-28.72,-3.76,35.70,-537,4714,6570,0,0,-1
-28.72,-3.76,35.70,-542,4718,6581,0,-1,-1
-28.72,-3.76,35.70,-548,4722,6579,0,-1,0
-28.72,-3.76,35.70,-540,4720,6579,0,-1,0
-28.71,-3.76,35.71,-540,4723,6571,0,0,0
-28.72,-3.76,35.71,-539,4726,6568,0,0,-1
-28.72,-3.76,35.71,-539,4731,6567,0,0,-1
-28.72,-3.76,35.71,-534,4722,6567,-1,0,-1
-28.72,-3.76,35.71,-542,4721,6571,-1,0,-1
-28.71,-3.77,35.71,-543,4718,6572,-1,0,0
-28.71,-3.77,35.71,-538,4718,6576,0,-1,-1
-28.71,-3.77,35.71,-544,4724,6569,0,-1,0
-28.71,-3.77,35.72,-539,4718,6568,-1,-1,-1
-28.71,-3.77,35.71,-537,4717,6574,-1,0,0
-28.71,-3.77,35.71,-537,4713,6575,0,-1,-1
-28.70,-3.77,35.72,-529,4720,6572,0,0,-1
-28.70,-3.78,35.72,-533,4723,6573,0,-1,-1
-28.70,-3.78,35.72,-538,4730,6572,0,-1,0
-28.70,-3.77,35.72,-543,4723,6571,0,-1,0
-28.70,-3.77,35.73,-541,4720,6566,0,-1,-1
-28.70,-3.77,35.73,-536,4720,6567,0,-1,-1
-28.69,-3.77,35.73,-258,-258,-258,0,-1,-1
-28.69,-3.77,35.73,-544,4723,6566,0,-1,0
-28.69,-3.77,35.73,-543,4726,6563,0,-1,-1
-28.69,-3.77,35.73,-538,4723,6556,0,-1,-1
-28.69,-3.77,35.73,-540,4722,6557,-1,-1,0
-28.69,-3.77,35.73,-542,4728,6561,0,-1,0
-28.69,-3.77,35.73,-540,4722,6557,0,-1,0
-28.69,-3.77,35.73,-537,4718,6557,-1,-1,0
-28.69,-3.76,35.73,-543,4715,6554,-1,-1,0
-28.69,-3.76,35.73,-545,4718,6565,-1,-1,0
-28.69,-3.76,35.73,-540,4723,6576,-1,-1,0
-28.69,-3.76,35.73,-540,4719,6577,-1,-1,0
-28.70,-3.76,35.72,-532,4719,6581,-1,-1,0
-28.70,-3.76,35.72,-535,4729,6581,-1,-1,0
-28.70,-3.75,35.72,-529,4728,6567,-1,-1,0
-28.71,-3.75,35.72,-530,4727,6561,-1,0,0
-28.71,-3.75,35.72,-528,4727,6560,-1,-1,0
-28.71,-3.74,35.72,-533,4728,6565,-1,-1,0
-28.71,-3.74,35.72,-536,4726,6565,0,-1,0
-28.72,-3.74,35.72,-536,4733,6568,-1,-1,0
-28.72,-3.73,35.72,-529,4727,6573,-1,-1,0
-28.73,-3.72,35.71,-524,4715,6575,-1,-1,0
-28.74,-3.72,35.71,-523,4716,6561,-1,-1,-1
-28.73,-3.73,35.71,-528,4724,6567,0,0,-1
-28.73,-3.73,35.71,-537,4730,6572,-1,0,-1
-28.73,-3.73,35.71,-544,4722,6578,-1,-1,0
-28.73,-3.73,35.71,-542,4724,6571,-1,-1,0
-28.73,-3.72,35.71,-539,4718,6573,-1,-1,0
-28.74,-3.72,35.71,-537,4720,6578,0,-1,0
-28.74,-3.72,35.71,-534,4721,6571,0,-1,0
-28.73,-3.72,35.71,-529,4730,6573,-1,0,0
-28.74,-3.72,35.71,-536,4728,6572,-1,0,-1
-28.74,-3.72,35.71,-539,4726,6569,-1,-1,0
-28.74,-3.72,35.71,-539,4725,6563,-1,-1,0
-28.75,-3.72,35.70,-531,4721,6578,-1,-1,0
-28.75,-3.71,35.70,-523,4718,6578,-1,-1,0
-28.75,-3.71,35.70,-523,4715,6570,-1,0,0
-28.75,-3.71,35.70,-526,4715,6569,0,-1,-1
-28.75,-3.71,35.70,-532,4722,6575,0,-1,-1
-28.74,-3.72,35.71,-533,4727,6574,0,-1,0
-28.74,-3.72,35.70,-534,4720,6565,-1,-1,0
-28.74,-3.71,35.70,-531,4719,6562,-1,-1,0
-28.74,-3.71,35.70,-530,4720,6568,-1,-1,0
-28.74,-3.71,35.70,-532,4717,6565,-1,-1,0
-28.74,-3.71,35.70,-526,4719,6570,-1,-1,0
-28.74,-3.71,35.70,-528,4716,6569,0,-1,0
-28.75,-3.71,35.70,-532,4717,6573,-1,-1,0
-28.75,-3.71,35.70,-533,4717,6572,-1,-1,0
-28.75,-3.71,35.70,-533,4724,6573,-1,-1,-1
-28.75,-3.71,35.70,-532,4736,6574,-1,-1,0
-28.75,-3.71,35.70,-531,4729,6575,-1,-1,0
-28.75,-3.71,35.70,-528,4725,6571,-1,0,-1
-28.76,-3.71,35.69,-539,4709,6579,-1,0,0
-28.76,-3.71,35.69,-538,4709,6577,0,-1,-1
-28.75,-3.72,35.69,-538,4720,6577,0,0,-1
-28.75,-3.72,35.69,-541,4722,6580,-1,-1,0
-28.75,-3.72,35.69,-537,4718,6562,-1,-1,0
-28.76,-3.72,35.69,-532,4718,6561,-1,0,-1
-28.76,-3.72,35.69,-528,4716,6571,-1,0,0
-28.75,-3.72,35.68,-526,4713,6576,-1,-1,0
-28.76,-3.72,35.67,-531,4718,6581,-1,-1,0
-28.75,-3.71,35.68,-530,4725,6582,-1,-1,0
-28.76,-3.71,35.67,-526,4715,6583,-1,-1,0
-28.77,-3.71,35.67,-529,4707,6584,-1,0,-1
-28.76,-3.72,35.67,-531,4706,6575,-1,0,-1
-28.76,-3.72,35.67,-526,4712,6577,0,0,-1
-28.76,-3.73,35.67,-536,4724,6581,0,0,-1
-28.76,-3.73,35.67,-543,4733,6584,-1,-1,0
-28.75,-3.72,35.67,-536,4718,6579,0,-1,-1
-28.75,-3.72,35.68,-529,4713,6571,0,-1,0
-28.75,-3.72,35.68,-528,4712,6565,0,0,-1
-28.75,-3.72,35.68,-526,4717,6576,-1,0,-1
-28.75,-3.73,35.68,-523,4729,6566,-1,0,-1
-28.75,-3.73,35.67,-539,4736,6570,-1,0,0
-28.75,-3.74,35.67,-542,4715,6577,-1,-1,0
-28.76,-3.73,35.66,-538,4715,6579,-1,-1,0
-28.76,-3.73,35.66,-538,4713,6571,0,-1,-1
-28.76,-3.73,35.67,-535,4711,6571,0,0,-1
-28.75,-3.73,35.67,-530,4707,6560,0,0,-1
-28.75,-3.74,35.68,-530,4713,6558,0,0,-1
-28.75,-3.75,35.67,-551,4717,6573,0,0,0
-28.75,-3.75,35.68,-535,4722,6568,0,-1,0
-28.75,-3.75,35.68,-536,4724,6559,0,0,-1
-28.74,-3.74,35.68,-537,4725,6563,-1,0,0
-28.75,-3.75,35.68,-530,4719,6564,-1,0,0
-28.75,-3.75,35.68,-523,4723,6564,-1,0,0
-28.75,-3.75,35.68,-527,4721,6556,0,0,-1
-28.74,-3.75,35.68,-533,4715,6562,0,0,-1
-28.74,-3.75,35.68,-537,4723,6566,0,0,0
-28.74,-3.75,35.68,-532,4725,6573,-1,0,0
-28.74,-3.75,35.68,-537,4720,6567,0,-1,0
-28.74,-3.76,35.69,-542,4718,6560,0,0,-1
-28.74,-3.76,35.69,-541,4722,6567,0,0,-1
-28.73,-3.77,35.69,-540,4720,6578,0,0,-1
-28.73,-3.76,35.70,-543,4723,6568,0,0,-1
-28.73,-3.77,35.70,-543,4718,6558,0,0,-1
-28.71,-3.78,35.71,-542,4723,6562,0,0,-1
-28.71,-3.78,35.71,-547,4722,6557,-1,0,-1
-28.72,-3.78,35.70,-548,4717,6553,-1,0,0
-28.71,-3.78,35.71,-539,4721,6561,0,-1,0
-28.71,-3.78,35.71,-533,4722,6567,0,-1,0
-28.71,-3.77,35.71,-527,4716,6560,0,-1,-1
-28.71,-3.77,35.72,-519,4718,6560,0,0,-1
-28.70,-3.78,35.72,-529,4721,6558,0,0,-1
-28.70,-3.78,35.73,-534,4722,6557,0,0,-1
-28.70,-3.78,35.73,-537,4719,6556,-1,0,0
-28.70,-3.78,35.72,-537,4729,6569,0,-1,0
-28.70,-3.78,35.72,-530,4728,6573,0,-1,0
-28.70,-3.77,35.73,-532,4723,6572,0,-1,0
-28.70,-3.77,35.73,-531,4720,6564,0,-1,0
-28.70,-3.77,35.73,-529,4720,6553,0,0,-1
-28.70,-3.77,35.73,-537,4730,6560,0,0,-1
-28.70,-3.77,35.73,-541,4729,6565,-1,0,-1
-28.70,-3.77,35.73,-542,4724,6561,-1,0,-1
-28.70,-3.78,35.72,-544,4727,6553,-1,0,0
-28.70,-3.78,35.72,-543,4727,6551,-1,-1,0
-28.71,-3.77,35.72,-534,4726,6558,-1,-1,0
-28.71,-3.77,35.72,-529,4722,6564,-1,0,0
-28.71,-3.77,35.72,-539,4719,6570,0,0,0
-28.71,-3.77,35.72,-540,4711,6571,0,-1,-1
-28.71,-3.77,35.72,-547,4710,6579,0,-1,-1
-28.71,-3.77,35.72,-539,4721,6565,0,-1,0
-28.70,-3.77,35.73,-539,4727,6572,0,-1,0
-28.70,-3.77,35.73,-540,4727,6565,-1,-1,0
-28.71,-3.77,35.72,-535,4724,6575,-1,0,0
-28.71,-3.76,35.72,-534,4726,6564,-1,0,0
-28.71,-3.76,35.72,-535,4727,6558,-1,-1,0
-28.71,-3.76,35.72,-538,4718,6561,-1,0,0
-28.71,-3.76,35.72,-533,4718,6560,-1,-1,0
-28.72,-3.76,35.71,-531,4716,6564,-1,0,0
-28.72,-3.75,35.71,-529,4717,6566,-1,0,0
-28.72,-3.75,35.71,-532,4712,6574,0,0,0
-28.72,-3.75,35.71,-525,4717,6573,0,0,0
-28.72,-3.75,35.71,-531,4719,6578,-1,-1,0
-28.73,-3.76,35.70,-527,4705,6577,-1,-1,0
-28.73,-3.75,35.70,-540,4698,6568,-1,0,-1
-28.73,-3.76,35.70,-540,4703,6563,0,0,-1
-28.73,-3.76,35.70,-514,-258,-258,-1,0,-1
-28.73,-3.76,35.70,-538,4725,6564,-1,-1,0
-28.74,-3.76,35.70,-539,4722,6564,-1,-1,0
-28.74,-3.75,35.69,-529,4716,6566,0,-1,0
-28.74,-3.75,35.69,-524,4716,6575,-1,-1,0
-28.74,-3.75,35.69,-524,4713,6573,0,0,-1
-28.73,-3.75,35.69,-526,4708,6565,0,0,-1
-28.73,-3.76,35.69,-540,4712,6570,-1,0,0
-28.73,-3.76,35.69,-550,4712,6573,-1,-1,0
-28.73,-3.76,35.69,-547,4723,6559,0,-1,0
-28.73,-3.76,35.69,-538,4728,6567,0,-1,0
-28.73,-3.75,35.69,-532,4727,6563,-1,0,0
-28.74,-3.75,35.69,-523,4717,6554,0,0,-1
-28.74,-3.76,35.70,-527,4722,6557,0,0,0
-28.74,-3.75,35.69,-524,4723,6557,-1,0,-1
-28.73,-3.75,35.69,-528,4726,6572,-1,0,-1
-28.74,-3.75,35.69,-535,4719,6572,-1,-1,0
-28.74,-3.75,35.69,-537,4717,6577,-1,0,0
-28.74,-3.75,35.68,-527,4707,6581,0,-1,0
-28.75,-3.75,35.68,-524,4700,6575,0,-1,0
-28.74,-3.75,35.68,-528,4707,6573,0,0,-1
-28.74,-3.75,35.68,-536,4714,6573,-1,0,-1
-28.74,-3.76,35.68,-538,4710,6567,0,0,-1
-28.73,-3.77,35.69,-545,4721,6562,0,0,-1
-28.71,-3.77,35.70,-543,4734,6554,0,0,-1
-28.72,-3.77,35.70,-531,4735,6547,-1,0,0
-28.73,-3.77,35.68,-530,4732,6561,-1,0,0
-28.74,-3.76,35.67,-527,4715,6593,-1,-1,0
-28.73,-3.76,35.67,-523,4694,6600,0,0,-1
-28.72,-3.77,35.67,-534,4691,6604,0,0,-1
-28.71,-3.78,35.69,-541,4699,6593,0,0,-1
-28.70,-3.78,35.71,-542,4712,6580,0,0,-1
-28.70,-3.79,35.72,-560,4732,6572,0,-1,0
-28.70,-3.78,35.73,-553,4746,6564,-1,-1,0
-28.70,-3.78,35.72,-537,4737,6543,-1,-1,0
-28.71,-3.78,35.70,-534,4738,6563,-1,0,0
-28.72,-3.77,35.69,-525,4726,6586,-1,-1,0
-28.72,-3.77,35.70,-518,4719,6591,0,0,-1
-28.71,-3.77,35.70,-524,4731,6573,0,0,-1
-28.71,-3.77,35.70,-535,4731,6561,-1,0,0
-28.72,-3.78,35.69,-537,4704,6570,-1,-1,0
-28.73,-3.77,35.68,-537,4686,6577,0,0,0
-28.72,-3.77,35.69,-538,4693,6582,0,0,-1
-28.71,-3.77,35.70,-543,4710,6586,0,-1,0
-28.72,-3.77,35.71,-539,4719,6581,0,-1,0
-28.71,-3.77,35.71,-531,4719,6558,0,0,-1
-28.71,-3.77,35.71,-532,4724,6555,-1,-1,-1
-28.72,-3.77,35.71,-531,4729,6560,-1,-1,-1
-28.72,-3.77,35.70,-531,4724,6560,-1,-1,-1
-28.72,-3.77,35.70,-533,4719,6559,0,0,-1
-28.71,-3.78,35.70,-531,4723,6563,0,0,-1
-28.71,-3.78,35.70,-541,4733,6563,-1,0,0
-28.72,-3.78,35.70,-542,4725,6564,-1,0,-1
-28.72,-3.78,35.69,-543,4710,6575,-1,0,0
-28.72,-3.78,35.67,-543,4701,6578,-1,-1,0
-28.72,-3.78,35.67,-541,4701,6580,0,0,-1
-28.72,-3.78,35.67,-540,4705,6589,0,-1,0
-28.72,-3.78,35.67,-535,4707,6587,0,-1,0
-28.72,-3.78,35.69,-532,4714,6577,0,0,0
-28.72,-3.78,35.69,-538,4718,6572,0,0,-1
-28.72,-3.78,35.70,-547,4727,6570,0,0,0
-28.72,-3.78,35.70,-551,4739,6559,-1,-1,0
-28.72,-3.78,35.70,-544,4734,6574,-1,-1,0
-28.72,-3.78,35.69,-540,4726,6571,-1,-1,0
-28.72,-3.78,35.69,-539,4718,6574,0,-1,0
-28.72,-3.78,35.69,-543,4717,6574,0,-1,-1
-28.72,-3.78,35.69,-537,4714,6567,0,0,0
-28.72,-3.78,35.69,-532,4714,6557,0,0,-1
-28.72,-3.78,35.69,-538,4716,6557,-1,-1,0
-28.72,-3.78,35.69,-536,4721,6572,-1,-1,0
-28.72,-3.78,35.69,-530,4722,6574,-1,-1,0
-28.72,-3.78,35.69,-525,4717,6571,0,0,-1
-28.73,-3.77,35.69,-522,4712,6565,0,0,0
-28.72,-3.78,35.69,-529,4713,6564,0,0,-1
-28.72,-3.78,35.69,-532,4723,6562,-1,0,-1
-28.72,-3.78,35.69,-531,4733,6570,-1,0,0
-28.73,-3.77,35.68,-532,4728,6568,-1,-1,0
-28.73,-3.77,35.68,-533,4722,6577,-1,-1,0
-28.74,-3.76,35.68,-535,4705,6580,0,-1,0
-28.74,-3.76,35.68,-533,4705,6575,0,-1,0
-28.73,-3.76,35.69,-534,4714,6574,0,-1,0
-28.72,-3.76,35.70,-528,4725,6558,0,0,-1
-28.72,-3.76,35.71,-538,4730,6564,0,-1,-1
-28.72,-3.76,35.71,-543,4724,6559,0,0,-1
-28.72,-3.76,35.71,-544,4718,6574,0,-1,0
-28.72,-3.76,35.71,-542,4721,6573,0,-1,0
-28.72,-3.75,35.71,-534,4730,6571,0,-1,0
-28.72,-3.75,35.72,-531,4725,6572,-1,-1,0
-28.72,-3.75,35.71,-521,4716,6562,-1,0,-1
-28.73,-3.76,35.70,-526,4705,6563,-1,0,-1
-28.72,-3.76,35.70,-526,4706,6563,0,0,-1
-28.71,-3.77,35.70,-536,4721,6561,-1,0,-1
-28.72,-3.77,35.70,-542,4729,6578,-1,-1,0
-28.72,-3.77,35.70,-542,4727,6581,-1,-1,0
-28.72,-3.76,35.70,-537,4715,6570,0,0,0
-28.72,-3.76,35.70,-528,4704,6569,0,0,0
-28.72,-3.76,35.70,-525,4707,6565,0,0,-1
-28.72,-3.77,35.70,-528,4718,6565,0,0,-1
-28.72,-3.77,35.70,-536,4724,6573,-1,0,0
-28.72,-3.77,35.70,-531,4726,6573,-1,-1,0
-28.72,-3.76,35.70,-527,4721,6579,0,-1,0
-28.72,-3.76,35.70,-529,4721,6571,0,-1,0
-28.73,-3.75,35.70,-525,4720,6568,0,-1,0
-28.73,-3.75,35.69,-528,4715,6566,-1,0,-1
-28.73,-3.75,35.69,-529,4718,6569,-1,0,-1
-28.73,-3.75,35.69,-525,4725,6575,-1,0,-1
-28.73,-3.75,35.69,-535,4719,6573,-1,-1,0
-28.73,-3.75,35.69,-528,4714,6581,0,-1,0
-28.73,-3.75,35.69,-531,4712,6566,0,-1,0
-28.73,-3.75,35.70,-532,4719,6568,0,0,0
-28.73,-3.75,35.70,-528,4725,6556,-1,0,-1
-28.73,-3.75,35.70,-532,4725,6566,-1,0,-1
-28.73,-3.75,35.69,-532,4723,6572,-1,0,-1
-28.73,-3.75,35.69,-539,4712,6562,-1,-1,0
-28.73,-3.75,35.69,-537,4708,6561,0,-1,-1
-28.73,-3.75,35.69,-533,4714,6571,0,0,0
-28.73,-3.75,35.69,-526,4719,6570,-1,-1,0
-28.73,-3.75,35.69,-524,4715,6562,0,0,-1
-28.73,-3.75,35.69,-532,4717,6564,-1,0,0
-28.72,-3.76,35.70,-532,4714,6559,0,-1,-1
-28.72,-3.76,35.70,-530,4721,6564,0,0,-1
-28.72,-3.76,35.70,-530,4728,6569,-1,-1,0
-28.73,-3.75,35.69,-534,4723,6570,-1,-1,0
-28.73,-3.75,35.69,-523,4720,6573,-1,-1,0
-28.74,-3.74,35.70,-521,4715,6569,0,-1,0
-28.74,-3.74,35.70,-519,4714,6567,0,0,-1
-28.73,-3.75,35.70,-529,4719,6568,0,0,-1
-28.74,-3.75,35.69,-535,4723,6572,-1,0,-1
-28.72,-3.76,35.70,-540,4728,6569,0,-1,0
-28.73,-3.76,35.70,-537,4726,6561,0,-1,0
-28.73,-3.76,35.70,-536,4720,6569,0,-1,0
-28.73,-3.75,35.70,-531,4720,6568,0,-1,0
-28.73,-3.75,35.70,-529,4722,6564,0,0,-1
-28.73,-3.76,35.70,-526,4727,6564,-1,0,-1
-28.73,-3.76,35.70,-525,4732,6565,-1,0,-1
-28.73,-3.76,35.70,-534,4733,6567,-1,0,-1
-28.72,-3.76,35.70,-533,4724,6575,-1,-1,0
-28.72,-3.76,35.70,-536,4719,6573,-1,-1,0
-28.73,-3.75,35.69,-538,4719,6575,-1,-1,0
-28.74,-3.75,35.69,-532,4715,6575,-1,0,-1
-28.74,-3.75,35.69,-533,4713,6568,-1,0,-1
-28.73,-3.76,35.69,-531,4714,6567,-1,0,-1
-28.74,-3.76,35.68,-531,4716,6567,-1,0,-1
-28.73,-3.76,35.68,-534,4715,6570,0,-1,-1
-28.73,-3.76,35.69,-532,4725,6573,0,0,0
-28.73,-3.76,35.69,-534,4718,6574,-1,-1,0
-28.74,-3.76,35.68,-527,4719,6575,-1,0,0
-28.74,-3.76,35.68,-533,4721,6576,-1,-1,0
-28.74,-3.76,35.68,-536,4719,6573,0,0,-1
-28.74,-3.76,35.68,-536,4721,6576,-1,0,-1
-28.74,-3.76,35.68,-532,4719,6586,-1,-1,0
-28.74,-3.76,35.67,-524,4719,6577,-1,-1,0
-28.75,-3.75,35.67,-521,4710,6576,0,0,0
-28.74,-3.76,35.67,-529,4711,6571,0,-1,-1
-28.74,-3.76,35.68,-536,4710,6559,0,0,-1
-28.73,-3.76,35.68,-536,4726,6560,0,0,-1
-28.74,-3.77,35.68,-544,4728,6564,-1,0,0
-28.74,-3.77,35.68,-539,4718,6566,-1,-1,0
-28.74,-3.76,35.68,-536,4714,6567,0,-1,0
-28.74,-3.76,35.68,-532,4717,6572,0,-1,0
-28.74,-3.76,35.68,-525,4715,6565,0,0,0
-28.74,-3.76,35.68,-528,4708,6563,0,0,-1
-28.74,-3.77,35.68,-534,4713,6565,0,0,-1
-28.74,-3.77,35.68,-537,4720,6567,-1,0,-1
-28.74,-3.77,35.68,-537,4717,6571,0,-1,0
-28.74,-3.77,35.68,-537,4718,6575,0,-1,0
-28.74,-3.77,35.68,-530,4723,6573,0,-1,0
-28.74,-3.76,35.68,-526,4720,6571,0,0,0
-28.73,-3.77,35.68,-532,4717,6557,0,0,-1
-28.73,-3.77,35.68,-530,4714,6553,0,0,-1
-28.73,-3.77,35.68,-530,4718,6554,-1,0,0
-28.74,-3.77,35.68,-536,4719,6561,-1,0,0
-28.74,-3.78,35.68,-543,4722,6567,-1,0,0
-28.74,-3.77,35.67,-542,4724,6582,-1,-1,0
-28.75,-3.77,35.67,-527,4717,6580,-1,-1,-1
-28.74,-3.77,35.67,-530,4717,6572,0,0,-1
-28.74,-3.78,35.68,-537,4730,6567,0,0,-1
-28.73,-3.78,35.68,-541,4732,6570,-1,-1,-1
-28.73,-3.78,35.68,-537,4724,6564,-1,0,0
-28.74,-3.78,35.67,-543,4716,6571,0,-1,-1
-28.73,-3.78,35.68,-533,4710,6576,0,-1,-1
-28.73,-3.78,35.69,-535,4719,6572,0,0,-1
-28.73,-3.78,35.69,-536,4723,6572,-1,0,0
-28.73,-3.78,35.68,-523,4720,6561,-1,0,-1
-28.73,-3.78,35.68,-534,4720,6568,-1,-1,0
-28.73,-3.77,35.67,-531,4716,6575,-1,0,0
-28.73,-3.78,35.67,-532,4714,6580,0,0,0
-28.73,-3.77,35.67,-527,4714,6577,0,0,-1
-28.73,-3.78,35.67,-537,4721,6581,-1,0,0
-28.74,-3.78,35.67,-537,4723,6569,0,0,0
-28.74,-3.77,35.67,-534,4729,6576,-1,-1,0
-28.74,-3.77,35.67,-531,4716,6578,-1,-1,0
-28.74,-3.77,35.67,-530,4703,6578,0,0,-1
-28.73,-3.77,35.67,-532,4711,6574,0,0,0
-28.73,-3.77,35.68,-527,4720,6561,-1,0,-1
-28.73,-3.78,35.68,-533,4720,6569,0,0,-1
-28.73,-3.78,35.67,-536,4716,6569,0,0,-1
-28.73,-3.78,35.67,-539,4711,6570,0,-1,0
-28.74,-3.77,35.67,-538,4716,6579,0,-1,0
-28.74,-3.77,35.67,-526,4722,6576,0,-1,0
-28.74,-3.76,35.68,-524,4716,6580,0,0,-1
-28.74,-3.77,35.67,-527,4710,6578,0,0,-1
-28.73,-3.77,35.67,-530,4715,6579,0,0,-1
-28.73,-3.77,35.68,-531,4723,6572,0,0,-1
-28.73,-3.77,35.68,-528,4730,6574,0,-1,0
-28.73,-3.77,35.68,-535,4726,6573,-1,-1,0
-28.73,-3.77,35.68,-525,4716,6572,-1,-1,0
-28.74,-3.77,35.68,-530,4707,6564,0,0,0
-28.73,-3.76,35.68,-519,4709,6571,0,0,-1
-28.73,-3.77,35.69,-535,4727,6573,0,0,-1
-28.72,-3.77,35.69,-533,4731,6575,-1,0,-1
-28.73,-3.77,35.68,-530,4724,6580,-1,0,0
-28.73,-3.77,35.68,-528,4724,6579,-1,-1,0
-28.74,-3.77,35.68,-530,4717,6575,-1,0,0
-28.73,-3.77,35.68,-533,4722,6585,0,-1,0
-28.73,-3.77,35.68,-524,4714,6578,0,0,-1
-28.72,-3.77,35.69,-540,4713,6577,0,0,-1
-28.72,-3.78,35.70,-542,4718,6571,0,0,0
-28.72,-3.77,35.69,-532,4716,6573,-1,-1,-1
-28.72,-3.77,35.69,-531,4714,6572,0,0,0
-28.72,-3.77,35.69,-533,4716,6583,0,-1,0
-28.72,-3.77,35.69,-535,4718,6571,-1,0,-1
-28.72,-3.77,35.69,-535,4722,6571,0,0,0
-28.73,-3.78,35.69,-538,4714,6568,-1,0,0
-28.73,-3.78,35.69,-535,4716,6573,-1,0,0
-28.73,-3.77,35.69,-533,4711,6570,-1,0,0
-28.74,-3.78,35.68,-532,4712,6574,-1,0,0
-28.74,-3.78,35.67,-528,4712,6567,-1,0,0
-28.74,-3.77,35.67,-527,4718,6577,-1,0,0
-28.74,-3.77,35.68,-524,4722,6579,0,0,-1
-28.74,-3.78,35.68,-523,4726,6575,0,0,-1
-28.74,-3.77,35.68,-528,4718,6575,-1,-1,0
-28.74,-3.77,35.68,-525,4712,6569,-1,0,0
-28.74,-3.77,35.67,-536,4718,6581,0,-1,0
-28.74,-3.77,35.68,-524,4716,6579,0,-1,-1
-28.73,-3.78,35.69,-530,4725,6561,0,0,-1
-28.73,-3.78,35.69,-531,4726,6558,0,0,-1
-28.72,-3.78,35.69,-544,4726,6560,0,-1,0
-28.72,-3.78,35.70,-534,4727,6562,0,-1,0
-28.72,-3.77,35.69,-529,4718,6564,0,-1,0
-28.72,-3.78,35.70,-529,4723,6572,-1,0,-1
-28.72,-3.78,35.70,-530,4719,6567,-1,0,-1
-28.72,-3.78,35.69,-537,4709,6575,-1,-1,0
-28.73,-3.78,35.69,-530,4711,6581,0,-1,-1
-28.73,-3.78,35.69,-539,4729,6576,0,0,-1
-28.73,-3.78,35.69,-539,4719,6563,-1,-1,0
-28.73,-3.78,35.69,-532,4714,6561,0,0,-1
-28.72,-3.78,35.69,-537,4716,6565,0,0,-1
-28.72,-3.78,35.69,-542,4721,6578,0,0,0
-28.72,-3.78,35.69,-534,4725,6576,-1,-1,0
-28.73,-3.77,35.68,-525,4716,6583,-1,-1,0
-28.74,-3.76,35.68,-518,4712,6576,0,-1,0
-28.74,-3.76,35.68,-514,4707,6568,0,-1,-1
-28.74,-3.76,35.68,-526,4706,6566,0,0,-1
-28.73,-3.77,35.68,-540,4717,6566,-1,0,-1
-28.73,-3.77,35.68,-546,4724,6577,0,0,-1
-28.73,-3.77,35.68,-548,4722,6579,0,-1,0
-28.73,-3.77,35.68,-544,4723,6583,0,-1,0
-28.74,-3.76,35.68,-536,4715,6578,0,-1,0
-28.74,-3.76,35.68,-535,4711,6571,0,0,0
-28.73,-3.77,35.68,-534,4716,6567,0,0,-1
-28.73,-3.77,35.68,-531,4726,6571,-1,0,-1
-28.73,-3.77,35.68,-534,4723,6566,-1,0,0
-28.74,-3.77,35.68,-544,4723,6574,-1,-1,0
-28.74,-3.77,35.68,-538,4720,6575,0,-1,0
-28.74,-3.77,35.68,-530,4716,6573,0,-1,0
-28.74,-3.76,35.68,-531,4713,6581,0,-1,0
-28.74,-3.77,35.67,-524,4705,6590,-1,0,-1
-28.74,-3.77,35.67,-527,4709,6583,-1,0,0
-28.74,-3.77,35.67,-535,4712,6577,0,-1,-1
-28.73,-3.76,35.67,-531,4717,6569,0,0,-1
-28.74,-3.77,35.68,-538,4719,6571,0,0,0
-28.74,-3.76,35.68,-528,4722,6569,-1,-1,0
-28.74,-3.76,35.68,-530,4726,6567,0,-1,0
-28.74,-3.76,35.67,-526,4725,6573,0,0,0
-28.74,-3.76,35.67,-529,4721,6577,-1,0,-1
-28.74,-3.76,35.68,-530,4726,6571,-1,0,-1
-28.74,-3.76,35.68,-532,4722,6568,-1,0,0
-28.74,-3.76,35.68,-538,4719,6569,-1,0,0
-28.74,-3.77,35.67,-537,4707,6569,-1,-1,0
-28.74,-3.76,35.67,-533,4700,6575,0,-1,0
-28.74,-3.76,35.67,-528,4703,6582,0,0,0
-28.74,-3.76,35.67,-525,4712,6573,0,0,0
-28.74,-3.76,35.67,-528,4714,6575,0,0,-1
-28.74,-3.76,35.67,-527,4716,6575,0,0,-1
-28.74,-3.76,35.67,-528,4718,6576,0,-1,0
-28.74,-3.76,35.67,-532,4715,6575,-1,-1,0
-28.74,-3.76,35.67,-534,4712,6573,-1,-1,0
-28.74,-3.76,35.67,-535,4711,6577,0,-1,0
-28.74,-3.76,35.67,-538,4715,6578,0,0,0
-28.75,-3.76,35.66,-533,4715,6574,-1,-1,0
-28.75,-3.76,35.66,-529,4718,6567,-1,-1,-1
-28.75,-3.76,35.66,-532,4710,6567,-1,0,-1
-28.74,-3.76,35.67,-543,4712,6574,-1,0,-1
-28.74,-3.76,35.66,-540,4718,6573,0,0,0
-28.75,-3.76,35.66,-543,4715,6573,-1,-1,0
-28.75,-3.76,35.66,-534,4720,6582,0,-1,0
-28.75,-3.75,35.66,-516,4722,6587,-1,0,0
-28.75,-3.75,35.66,-520,4716,6588,-1,-1,0
-28.75,-3.75,35.66,-527,4709,6585,-1,0,-1
-28.75,-3.76,35.65,-535,4708,6577,-1,0,-1
-28.75,-3.76,35.65,-534,4710,6581,0,0,-1
-28.75,-3.76,35.65,-544,4719,6574,0,0,-1
-28.75,-3.76,35.65,-551,4716,6578,-1,-1,0
-28.75,-3.76,35.65,-535,4711,6574,-1,-1,0
-28.75,-3.75,35.66,-531,4717,6567,0,-1,0
-28.75,-3.75,35.66,-530,4713,6567,0,0,-1
-28.75,-3.76,35.66,-531,4713,6560,0,0,-1
-28.75,-3.76,35.66,-534,4716,6556,-1,0,-1
-28.75,-3.77,35.65,-542,4719,6563,-1,0,0
-28.75,-3.76,35.65,-540,4722,6574,-1,-1,0
-28.76,-3.76,35.65,-532,4717,6572,-1,-1,0
-28.76,-3.75,35.65,-524,4712,6570,-1,-1,0
-28.76,-3.75,35.65,-524,4704,6564,-1,0,-1
-28.76,-3.75,35.65,-525,4702,6559,0,0,-1
-28.75,-3.76,35.65,-530,4702,6565,0,0,-1
-28.75,-3.76,35.65,-531,4705,6568,0,-1,0
-28.75,-3.76,35.65,-535,4714,6569,0,-1,0
-28.75,-3.76,35.65,-535,4717,6572,-1,-1,0
-28.76,-3.75,35.65,-534,4714,6566,0,0,0
-28.76,-3.75,35.65,-536,4716,6562,0,0,0
-28.76,-3.75,35.65,-540,4724,6563,0,-1,0
-28.76,-3.75,35.65,-535,4716,6578,-1,0,0
-28.76,-3.75,35.65,-536,4716,6580,-1,0,0
-28.76,-3.75,35.65,-533,4715,6585,-1,-1,0
-28.76,-3.75,35.65,-538,4717,6579,0,-1,0
-28.76,-3.75,35.65,-533,4705,6583,0,0,-1
-28.76,-3.75,35.65,-532,4702,6581,0,0,0
-28.76,-3.76,35.64,-535,4707,6577,-1,0,-1
-28.76,-3.76,35.64,-536,4711,6563,0,0,0
-28.76,-3.76,35.64,-538,4708,6587,0,-1,0
-28.76,-3.76,35.64,-524,4700,6588,0,-1,-1
-28.76,-3.76,35.64,-527,4709,6576,0,0,-1
-28.76,-3.76,35.64,-532,4708,6579,0,0,-1
-28.76,-3.76,35.64,-537,4712,6578,-1,0,0
-28.75,-3.76,35.65,-532,4718,6572,-1,-1,0
-28.76,-3.76,35.64,-530,4717,6582,0,-1,0
-28.76,-3.75,35.65,-526,4719,6575,-1,-1,0
-28.76,-3.75,35.65,-522,4708,6564,0,0,0
-28.76,-3.75,35.64,-521,4703,6573,-1,0,-1
-28.76,-3.76,35.64,-523,4693,6574,0,0,-1
-28.76,-3.76,35.64,-526,4702,6572,0,0,-1
-28.75,-3.76,35.65,-527,4713,6575,0,0,-1
-28.75,-3.76,35.65,-537,4715,6582,0,-1,0
-28.75,-3.76,35.65,-536,4708,6582,0,-1,0
-28.75,-3.76,35.65,-532,4708,6581,0,-1,0
-28.75,-3.76,35.65,-530,4710,6579,0,0,-1
-28.74,-3.76,35.66,-526,4708,6575,0,0,-1
-28.74,-3.76,35.66,-534,4712,6567,-1,0,-1
-28.74,-3.77,35.65,-538,4716,6572,-1,0,-1
-28.74,-3.77,35.65,-533,4717,6571,-1,0,-1
-28.75,-3.76,35.65,-530,4719,6580,-1,-1,0
-28.75,-3.76,35.65,-520,4717,6575,0,-1,0
-28.75,-3.76,35.65,-526,4713,6571,0,-1,0
-28.75,-3.76,35.65,-525,4711,6571,0,0,-1
-28.74,-3.76,35.66,-530,4718,6573,0,0,-1
-28.73,-3.77,35.66,-536,4721,6565,0,0,-1
-28.73,-3.77,35.67,-533,4717,6566,0,-1,-1
-28.73,-3.77,35.66,-539,4708,6568,-1,0,0
-28.73,-3.77,35.67,-531,4711,6577,0,-1,-1
-28.73,-3.77,35.67,-531,4711,6576,0,0,-1
-28.73,-3.77,35.67,-533,4723,6576,-1,0,0
-28.73,-3.77,35.67,-530,4717,6562,-1,-1,0
-28.73,-3.77,35.67,-535,4718,6569,0,0,0
-28.73,-3.77,35.67,-535,4721,6577,0,-1,0
-28.73,-3.77,35.67,-534,4717,6580,0,-1,-1
-28.73,-3.77,35.67,-540,4712,6576,0,-1,-1
-28.73,-3.77,35.67,-541,4710,6572,0,0,-1
-28.72,-3.78,35.67,-542,4713,6574,0,0,-1
-28.72,-3.78,35.67,-538,4717,6586,-1,-1,0
-28.73,-3.77,35.67,-532,4715,6581,0,-1,-1
-28.73,-3.77,35.67,-530,4710,6568,0,0,-1
-28.72,-3.78,35.67,-537,4711,6564,0,0,-1
-28.72,-3.78,35.67,-540,4714,6564,0,0,-1
-28.72,-3.78,35.67,-538,4716,6568,0,0,0
-28.72,-3.78,35.67,-535,4716,6573,-1,-1,0
-28.72,-3.78,35.67,-531,4715,6582,0,-1,0
-28.72,-3.78,35.67,-533,4714,6577,0,-1,0
-28.72,-3.78,35.67,-530,4708,6566,0,0,0
-28.72,-3.78,35.67,-528,4710,6569,0,0,-1
-28.72,-3.78,35.67,-535,4708,6573,0,0,-1
-28.71,-3.79,35.67,-536,4712,6567,0,0,-1
-28.70,-3.79,35.68,-545,4724,6563,0,0,0
-28.70,-3.79,35.68,-547,4722,6570,-1,-1,0
-28.71,-3.79,35.67,-546,4710,6567,-1,0,0
-28.72,-3.78,35.67,-534,4712,6570,0,-1,0
-28.70,-3.79,35.68,-527,4711,6570,0,0,-1
-28.70,-3.79,35.69,-534,4719,6568,0,0,-1
-28.70,-3.79,35.69,-539,4723,6566,-1,-1,-1
-28.70,-3.79,35.68,-541,4717,6578,-1,-1,0
-28.70,-3.79,35.68,-538,4719,6572,-1,0,0
-28.70,-3.79,35.68,-528,4711,6575,0,0,0
-28.71,-3.78,35.68,-529,4703,6575,0,-1,-1
-28.71,-3.79,35.67,-527,4710,6586,0,0,0
-28.71,-3.79,35.68,-534,4707,6577,-1,0,-1
-28.71,-3.79,35.68,-541,4701,6577,0,-1,-1
-28.71,-3.79,35.68,-543,4701,6582,0,0,0
-28.71,-3.80,35.68,-543,4708,6572,0,0,-1
-28.70,-3.80,35.68,-535,4720,6567,0,-1,-1
-28.70,-3.80,35.68,-533,4724,6567,0,-1,0
-28.70,-3.79,35.68,-533,4721,6576,0,-1,0
-28.70,-3.79,35.68,-530,4722,6573,-1,0,0
-28.70,-3.80,35.68,-538,4717,6566,-1,0,-1
-28.70,-3.80,35.68,-540,4716,6566,-1,0,-1
-28.70,-3.80,35.68,-538,4708,6566,-1,0,-1
-28.71,-3.80,35.68,-543,4720,6567,-1,0,-1
-28.71,-3.80,35.68,-537,4715,6573,0,-1,-1
-28.70,-3.80,35.68,-533,4714,6575,0,-1,-1
-28.70,-3.80,35.68,-535,4714,6578,0,0,-1
-28.70,-3.81,35.69,-535,4716,6589,0,-1,-1
-28.70,-3.80,35.68,-534,4714,6580,-1,0,0
-28.70,-3.80,35.68,-528,4710,6583,0,-1,-1
-28.69,-3.80,35.68,-535,4719,6573,0,0,-1
-28.69,-3.81,35.69,-540,4721,6563,-1,0,-1
-28.69,-3.81,35.69,-545,4717,6565,0,0,0
-28.69,-3.81,35.69,-537,4725,6576,0,-1,0
-28.69,-3.81,35.69,-529,4724,6584,0,-1,0
-28.69,-3.80,35.70,-525,4715,6583,0,-1,-1
-28.68,-3.80,35.70,-516,4710,6571,0,0,-1
-28.68,-3.80,35.70,-535,4710,6575,0,0,-1
-28.67,-3.81,35.70,-538,4708,6577,0,0,-1
-28.66,-3.81,35.70,-538,4719,6585,0,-1,-1
-28.65,-3.81,35.71,-540,4720,6585,0,-1,-1
-28.65,-3.81,35.72,-537,4721,6574,0,0,-1
-28.65,-3.81,35.72,-538,4719,6568,0,-1,0
-28.65,-3.81,35.72,-529,4710,6558,0,0,-1
-28.65,-3.81,35.73,-536,4712,6567,0,-1,-1
-28.63,-3.82,35.74,-540,4726,6565,0,0,-1
-28.63,-3.82,35.74,-549,4733,6562,-1,0,-1
-28.63,-3.83,35.73,-547,4733,6562,-1,0,-1
-28.64,-3.83,35.73,-544,4727,6575,-1,-1,0
-28.64,-3.82,35.72,-536,4720,6565,-1,-1,0
-28.64,-3.82,35.72,-537,4715,6560,0,-1,0
-28.64,-3.82,35.73,-536,4721,6561,-1,-1,0
-28.64,-3.82,35.72,-530,4718,6561,-1,0,-1
-28.64,-3.82,35.72,-536,4718,6565,0,0,0
-28.64,-3.82,35.72,-532,4710,6568,0,-1,-1
-28.63,-3.82,35.73,-543,4723,6568,0,-1,-1
-28.63,-3.82,35.74,-545,4735,6566,0,0,0
-28.64,-3.82,35.73,-538,4720,6563,-1,-1,0
-28.64,-3.82,35.73,-539,4712,6565,-1,0,0
-28.64,-3.82,35.73,-540,4714,6569,0,-1,0
-28.65,-3.81,35.73,-538,4723,6563,-1,0,0
-28.65,-3.82,35.72,-551,4729,6565,-1,-1,0
-28.65,-3.81,35.72,-539,4723,6565,-1,-1,0
-28.66,-3.81,35.71,-534,4723,6563,-1,0,0
-28.67,-3.80,35.71,-536,4715,6564,-1,0,0
-28.67,-3.81,35.71,-537,4715,6567,-1,0,0
-28.67,-3.81,35.71,-542,4714,6568,0,-1,0
-28.67,-3.81,35.71,-547,4721,6575,0,0,0
-28.67,-3.81,35.71,-551,4725,6581,-1,0,0
-28.67,-3.81,35.70,-548,4724,6572,-1,-1,0
-28.67,-3.81,35.70,-548,4727,6565,-1,0,0
-28.68,-3.81,35.70,-548,4726,6574,-1,-1,0
-28.68,-3.81,35.70,-549,4726,6573,-1,0,0
-28.68,-3.81,35.70,-541,4716,6579,0,-1,0
-28.68,-3.81,35.70,-539,4712,6570,0,-1,0
-28.68,-3.81,35.70,-543,4713,6571,-1,0,-1
-28.68,-3.81,35.70,-547,4718,6568,-1,0,-1
-28.68,-3.81,35.70,-551,4711,6573,-1,0,0
-28.69,-3.81,35.69,-546,4719,6579,-1,-1,0
-28.69,-3.81,35.69,-542,4714,6582,-1,-1,0
-28.70,-3.80,35.68,-536,4706,6585,-1,-1,0
-28.70,-3.79,35.68,-524,4703,6576,-1,0,0
-28.70,-3.79,35.68,-525,4706,6578,-1,0,-1
-28.70,-3.80,35.68,-537,4711,6586,-1,0,-1
-28.70,-3.80,35.68,-542,4712,6583,0,0,-1
-28.70,-3.80,35.68,-548,4721,6592,0,-1,0
-28.70,-3.80,35.68,-547,4720,6588,0,-1,0
-28.70,-3.80,35.68,-540,4713,6579,0,-1,0
-28.70,-3.80,35.68,-536,4709,6573,0,0,0
-28.70,-3.80,35.68,-536,4715,6571,0,0,-1
-28.70,-3.80,35.68,-535,4724,6569,0,0,0
-28.70,-3.80,35.68,-538,4724,6572,-1,0,-1
-28.71,-3.80,35.68,-538,4716,6577,-1,0,0
-28.71,-3.80,35.68,-540,4713,6573,-1,-1,0
-28.71,-3.79,35.68,-528,4707,6565,0,0,0
-28.71,-3.79,35.67,-532,4714,6566,-1,-1,0
-28.71,-3.79,35.67,-532,4715,6572,-1,0,0
-28.71,-3.79,35.67,-526,4715,6578,0,0,0
-28.71,-3.79,35.67,-537,4716,6579,0,0,-1
-28.71,-3.80,35.68,-542,4714,6578,0,0,0
-28.71,-3.80,35.68,-535,4719,6559,0,-1,-1
-28.70,-3.80,35.68,-537,4725,6562,0,0,0
-28.71,-3.80,35.68,-541,4729,6565,-1,-1,0
-28.71,-3.79,35.68,-534,4722,6563,-1,-1,0
-28.71,-3.79,35.67,-534,4721,6575,-1,-1,0
-28.71,-3.79,35.67,-522,4717,6571,-1,0,0
-28.71,-3.79,35.67,-528,4722,6575,-1,0,0
-28.72,-3.78,35.67,-527,4724,6576,0,0,0
-28.72,-3.78,35.67,-533,4718,6572,0,-1,0
-28.72,-3.78,35.67,-535,4717,6582,0,0,0
-28.72,-3.78,35.67,-530,4714,6573,0,0,0
-28.72,-3.78,35.67,-534,4719,6570,0,0,0
-28.72,-3.78,35.67,-531,4711,6576,0,0,0
-28.72,-3.78,35.67,-533,4711,6574,0,0,-1
-28.72,-3.78,35.67,-538,4713,6574,-1,0,0
-28.72,-3.78,35.68,-537,4715,6574,0,-1,0
-28.72,-3.78,35.68,-535,4715,6566,-1,-1,0
-28.72,-3.78,35.68,-535,4719,6570,0,0,0
-28.72,-3.78,35.68,-530,4721,6573,0,-1,0
-28.72,-3.78,35.68,-528,4715,6581,0,0,-1
-28.72,-3.78,35.68,-529,4723,6577,0,0,-1
-28.72,-3.78,35.68,-530,4727,6573,0,0,-1
-28.71,-3.78,35.69,-536,4726,6569,0,0,-1
-28.71,-3.78,35.68,-538,4718,6570,-1,-1,0
-28.72,-3.78,35.69,-533,4721,6571,0,-1,0
-28.72,-3.78,35.69,-529,4730,6568,0,0,0
-28.72,-3.77,35.69,-516,4724,6572,-1,-1,-1
-28.72,-3.77,35.69,-514,4714,6570,-1,0,-1
-28.72,-3.77,35.68,-523,4706,6565,0,0,-1
-28.71,-3.78,35.69,-527,4706,6569,0,0,-1
-28.71,-3.79,35.69,-539,4721,6575,0,0,-1
-28.70,-3.79,35.69,-541,4726,6584,0,-1,-1
-28.70,-3.79,35.69,-544,4715,6576,0,-1,0
-28.71,-3.78,35.69,-535,4707,6567,0,0,0
-28.71,-3.78,35.69,-528,4705,6570,0,0,-1
-28.70,-3.79,35.70,-528,4712,6563,0,0,-1
-28.70,-3.79,35.70,-530,4718,6572,-1,0,-1
-28.70,-3.79,35.69,-537,4722,6581,-1,0,0
-28.70,-3.79,35.69,-542,4717,6579,-1,-1,0
-28.71,-3.79,35.69,-537,4720,6576,-1,0,0
-28.71,-3.79,35.69,-530,4719,6579,-1,-1,0
-28.71,-3.78,35.68,-532,4706,6584,0,0,-1
-28.71,-3.79,35.68,-534,4703,6578,0,0,-1
-28.70,-3.80,35.68,-539,4707,6572,0,0,-1
-28.70,-3.80,35.69,-542,4720,6575,0,0,-1
-28.70,-3.80,35.69,-541,4727,6579,0,-1,-1
-28.70,-3.80,35.69,-533,4722,6583,0,-1,0
-28.70,-3.80,35.69,-534,4723,6579,0,-1,0
-28.70,-3.80,35.69,-531,4720,6583,0,0,0
-28.70,-3.79,35.70,-530,4718,6570,0,0,-1
-28.70,-3.79,35.70,-534,4720,6570,0,0,-1
-28.70,-3.79,35.70,-540,4721,6563,-1,0,-1
-28.70,-3.80,35.69,-534,4721,6567,-1,-1,0
-28.70,-3.80,35.69,-531,4708,6571,0,-1,0
-28.70,-3.80,35.69,-534,4705,6575,0,0,0
-28.70,-3.80,35.69,-537,-1,-1,0,0,-1
-28.70,-3.79,35.70,-528,4716,6569,0,0,-1
-28.70,-3.80,35.69,-532,4716,6577,-1,-1,-1
-28.70,-3.80,35.69,-530,4711,6578,-1,0,0
-28.70,-3.80,35.69,-544,4708,6577,0,-1,0
-28.70,-3.80,35.69,-533,4706,6566,0,0,-1
-28.69,-3.80,35.70,-542,4715,6569,0,0,-1
-28.69,-3.80,35.70,-546,4718,6572,0,0,-1
-28.68,-3.81,35.70,-547,4716,6580,0,0,-1
-28.69,-3.81,35.69,-545,4714,6577,0,0,0
-28.69,-3.80,35.69,-540,4716,6577,0,-1,0
-28.69,-3.80,35.70,-536,4714,6578,0,-1,0
-28.69,-3.80,35.70,-532,4711,6572,-1,0,-1
-28.69,-3.81,35.69,-541,4712,6565,-1,0,-1
-28.69,-3.81,35.69,-546,4708,6572,0,0,-1
-28.68,-3.82,35.70,-550,4708,6572,0,0,-1
-28.68,-3.82,35.70,-550,4714,6569,0,0,0
-28.68,-3.82,35.70,-550,4720,6578,0,-1,0
-28.68,-3.82,35.70,-548,4713,6584,0,0,-1
-28.68,-3.82,35.71,-544,4708,6583,0,0,0
-28.68,-3.82,35.71,-539,4713,6577,0,0,-1
-28.68,-3.83,35.71,-540,4720,6564,-1,0,-1
-28.68,-3.83,35.70,-543,4719,6568,-1,0,-1
-28.68,-3.84,35.70,-544,4721,6580,-1,0,-1
-28.68,-3.84,35.70,-543,4715,6577,-1,0,0
-28.68,-3.84,35.70,-540,4718,6567,0,-1,0
-28.68,-3.83,35.70,-545,4718,6575,0,-1,0
-28.68,-3.84,35.70,-542,4718,6566,0,0,-1
-28.67,-3.84,35.70,-535,4712,6571,0,0,-1
-28.67,-3.85,35.71,-541,4714,6572,0,0,-1
-28.66,-3.85,35.71,-546,4722,6568,0,0,-1
-28.65,-3.85,35.71,-543,4721,6576,0,-1,-1
-28.65,-3.85,35.72,-541,4713,6581,0,-1,-1
-28.65,-3.84,35.73,-542,4713,6570,0,-1,-1
-28.64,-3.84,35.74,-535,4715,6557,0,-1,-1
-28.64,-3.84,35.74,-538,4721,6558,0,0,-1
-28.63,-3.85,35.74,-543,4724,6562,-1,-1,-1
-28.64,-3.84,35.74,-546,4725,6568,-1,-1,0
-28.64,-3.84,35.74,-545,4722,6563,-1,-1,0
-28.64,-3.84,35.74,-542,4718,6569,-1,-1,0
-28.64,-3.84,35.74,-543,4715,6570,0,-1,0
-28.63,-3.84,35.74,-541,4715,6564,0,0,-1
-28.64,-3.84,35.74,-547,4719,6571,0,0,0
-28.63,-3.84,35.74,-549,4716,6578,-1,-1,0
-28.64,-3.84,35.73,-546,4707,6578,0,-1,0
-28.64,-3.84,35.73,-546,4716,6569,0,0,-1
-28.63,-3.85,35.73,-545,4725,6561,-1,0,0
-28.64,-3.84,35.73,-541,4728,6560,-1,0,0
-28.64,-3.84,35.73,-540,4722,6560,-1,-1,0
-28.65,-3.83,35.72,-538,4723,6568,-1,-1,0
-28.65,-3.83,35.72,-540,4724,6568,-1,-1,0
-28.65,-3.82,35.72,-537,4723,6569,-1,-1,0
-28.66,-3.83,35.71,-538,4712,6571,-1,-1,0
-28.66,-3.82,35.71,-530,4720,6578,-1,0,0
-28.67,-3.83,35.71,-531,4714,6582,-1,0,-1
-28.67,-3.82,35.70,-536,4717,6584,-1,0,0
-28.67,-3.82,35.70,-538,4722,6581,-1,-1,0
-28.67,-3.82,35.70,-539,4727,6586,0,-1,0
-28.67,-3.82,35.70,-542,4720,6580,0,-1,0
-28.67,-3.82,35.70,-543,4725,6575,0,0,0
-28.67,-3.82,35.70,-546,4726,6570,-1,-1,0
-28.67,-3.82,35.70,-539,4724,6570,-1,0,0
-28.68,-3.82,35.70,-541,4721,6575,-1,0,0
-28.68,-3.82,35.69,-536,4721,6578,-1,0,-1
-28.69,-3.81,35.69,-539,4728,6579,-1,0,0
-28.69,-3.81,35.69,-539,4725,6583,-1,-1,0
-28.69,-3.81,35.68,-538,4724,6592,-1,-1,0
-28.69,-3.81,35.68,-533,4716,6588,0,0,-1
-28.69,-3.81,35.68,-526,4714,6577,0,0,-1
-28.69,-3.81,35.68,-532,4713,6580,0,0,-1
-28.69,-3.81,35.68,-536,4711,6576,0,0,-1
-28.69,-3.81,35.68,-537,4719,6582,-1,0,0
-28.69,-3.81,35.68,-535,4721,6569,0,-1,0
-28.69,-3.81,35.68,-533,4722,6569,-1,0,0
-28.70,-3.80,35.68,-540,4719,6578,-1,0,0
-28.70,-3.80,35.68,-537,4712,6578,-1,0,0
-28.70,-3.81,35.67,-538,4707,6582,-1,0,-1
-28.70,-3.81,35.67,-541,4708,6578,0,0,0
-28.70,-3.80,35.67,-535,4716,6588,0,0,0
-28.70,-3.80,35.67,-528,4717,6591,-1,-1,0
-28.71,-3.80,35.66,-531,4712,6579,-1,0,0
-28.71,-3.80,35.66,-535,4710,6577,-1,0,-1
-28.71,-3.80,35.66,-531,4711,6586,-1,0,0
-28.71,-3.80,35.66,-531,4706,6584,-1,0,-1
-28.71,-3.80,35.66,-535,4706,6577,0,0,0
-28.71,-3.81,35.66,-540,4704,6583,0,-1,0
-28.71,-3.80,35.65,-541,4710,6575,0,-1,0
-28.71,-3.80,35.66,-531,4706,6571,0,0,0
-28.71,-3.80,35.66,-541,4715,6565,0,0,0
-28.71,-3.80,35.66,-545,4721,6572,0,0,-1
-28.71,-3.80,35.66,-538,4730,6570,-1,0,-1
-28.71,-3.80,35.66,-547,4726,6572,-1,-1,0
-28.71,-3.81,35.66,-544,4712,6581,0,-1,0
-28.71,-3.80,35.66,-539,4708,6572,0,-1,0
-28.72,-3.79,35.66,-525,4709,6574,0,-1,-1
-28.71,-3.79,35.66,-525,4704,6568,0,0,-1
-28.71,-3.80,35.66,-536,4712,6578,0,0,-1
-28.71,-3.80,35.66,-545,4710,6578,0,0,0
-28.71,-3.80,35.66,-544,4711,6591,0,-1,0
-28.71,-3.80,35.66,-540,4711,6586,0,-1,0
-28.71,-3.80,35.66,-534,4703,6577,0,-1,0
-28.71,-3.80,35.66,-536,4699,6565,0,0,-1
-28.70,-3.80,35.67,-535,4716,6573,0,0,0
-28.70,-3.80,35.67,-531,4720,6570,0,-1,0
-28.71,-3.80,35.67,-532,4723,6569,-1,0,-1
-28.71,-3.80,35.67,-532,4716,6573,-1,0,0
-28.71,-3.80,35.67,-534,4713,6571,-1,0,0
-28.71,-3.80,35.67,-533,4714,6568,0,0,0
-28.71,-3.80,35.66,-534,4709,6577,0,-1,-1
-28.71,-3.80,35.67,-529,4716,6580,0,0,-1
-28.71,-3.80,35.67,-532,4712,6578,0,0,-1
-28.70,-3.80,35.67,-529,4714,6570,0,0,-1
-28.70,-3.80,35.67,-534,4711,6572,0,0,-1
-28.70,-3.80,35.67,-540,4714,6579,0,0,0
-28.70,-3.81,35.67,-546,4721,6578,0,0,0
-28.70,-3.81,35.67,-546,4724,6584,0,-1,0
-28.70,-3.81,35.67,-543,4712,6582,0,0,-1
-28.70,-3.81,35.67,-533,4710,6581,-1,0,-1
-28.70,-3.81,35.67,-536,4711,6575,-1,0,-1
-28.70,-3.81,35.67,-536,4713,6579,-1,0,0
-28.71,-3.81,35.66,-539,4712,6588,0,-1,0
-28.70,-3.81,35.67,-532,4714,6582,0,-1,-1
-28.70,-3.81,35.67,-537,4720,6577,0,0,-1
-28.70,-3.81,35.67,-538,4711,6569,0,0,-1
-28.70,-3.82,35.67,-539,4712,6572,0,0,-1
-28.70,-3.82,35.67,-537,4715,6578,0,0,-1
-28.70,-3.82,35.67,-538,4715,6580,0,0,-1
-28.69,-3.83,35.67,-543,4712,6578,0,0,-1
-28.69,-3.83,35.67,-550,4706,6569,0,0,-1
-28.69,-3.83,35.67,-557,4718,6571,-1,0,0
-28.69,-3.83,35.67,-547,4719,6566,-1,0,-1
-28.69,-3.83,35.67,-542,4719,6571,-1,0,-1
-28.69,-3.83,35.67,-533,4716,6569,-1,0,-1
-28.69,-3.83,35.67,-531,4718,6572,-1,0,-1
-28.69,-3.84,35.67,-534,4707,6590,0,0,-1
-28.69,-3.84,35.67,-540,4712,6580,0,0,-1
-28.69,-3.85,35.67,-536,4708,6582,0,0,-1
-28.68,-3.85,35.67,-541,4713,6586,0,0,-1
-28.68,-3.85,35.67,-545,4710,6578,0,0,0
-28.68,-3.86,35.67,-540,4713,6576,0,0,-1
-28.68,-3.86,35.67,-540,4716,6569,-1,0,-1
-28.68,-3.87,35.67,-549,4719,6576,-1,0,-1
-28.67,-3.87,35.67,-553,4717,6580,0,0,-1
-28.67,-3.88,35.68,-554,4720,6572,0,0,-1
-28.67,-3.88,35.68,-551,4722,6576,0,-1,0
-28.67,-3.87,35.68,-538,4715,6578,0,0,-1
-28.68,-3.88,35.67,-542,4714,6576,-1,0,0
-28.67,-3.88,35.67,-542,4710,6574,0,0,-1
-28.67,-3.89,35.68,-546,4712,6563,0,0,-1
-28.66,-3.89,35.68,-556,4710,6568,0,0,-1
-28.66,-3.90,35.68,-557,4715,6574,0,0,-1
-28.65,-3.91,35.69,-564,4724,6562,0,0,0
-28.65,-3.91,35.69,-562,4720,6563,0,0,0
-28.65,-3.91,35.70,-552,4718,6558,0,0,-1
-28.65,-3.92,35.70,-556,4719,6560,0,0,-1
-28.65,-3.92,35.70,-554,4724,6556,0,0,-1
-28.64,-3.93,35.71,-550,4727,6558,-1,0,-1
-28.64,-3.93,35.71,-549,4716,6565,-1,0,-1
-28.64,-3.94,35.71,-554,4712,6565,0,0,-1
-28.64,-3.94,35.70,-557,4715,6565,0,0,0
-28.64,-3.94,35.70,-553,4712,6572,0,0,-1
-28.64,-3.94,35.71,-551,4706,6567,0,0,-1
-28.64,-3.95,35.71,-559,4716,6569,0,0,-1
-28.63,-3.96,35.72,-557,4718,6576,0,0,-1
-28.62,-3.96,35.72,-554,4719,6568,0,0,-1
-28.62,-3.97,35.73,-564,4718,6580,0,0,-1
-28.62,-3.97,35.73,-566,4727,6564,0,0,0
-28.62,-3.97,35.74,-561,4728,6567,0,0,0
-28.63,-3.97,35.74,-555,4723,6573,0,0,0
-28.62,-3.98,35.74,-561,4725,6564,0,0,-1
-28.62,-3.98,35.74,-562,4722,6567,0,0,-1
-28.62,-3.99,35.74,-562,4711,6563,0,0,-1
-28.61,-4.00,35.74,-564,4710,6567,-1,0,0
-28.62,-4.00,35.74,-568,4713,6565,0,0,0
-28.63,-4.00,35.74,-563,4714,6566,0,0,-1
-28.62,-4.01,35.75,-569,4719,6569,0,0,-1
-28.62,-4.01,35.75,-568,4722,6572,0,0,-1
-28.62,-4.01,35.75,-572,4722,6577,0,0,-1
-28.62,-4.01,35.75,-563,4728,6569,0,0,-1
-28.61,-4.02,35.76,-569,4729,6577,0,0,-1
-28.61,-4.03,35.77,-568,4719,6558,0,0,-1
-28.61,-4.03,35.77,-576,4725,6551,0,0,-1
-28.60,-4.04,35.78,-578,4730,6557,0,0,0
-28.60,-4.04,35.78,-572,4726,6557,-1,0,-1
-28.61,-4.03,35.78,-568,4718,6558,-1,0,-1
-28.61,-4.03,35.78,-574,4722,6559,0,0,-1
-28.60,-4.04,35.78,-578,4725,6555,0,-1,-1
-28.60,-4.03,35.78,-578,4732,6544,0,-1,-1
-28.59,-4.04,35.78,-578,4728,6560,0,0,-1
-28.58,-4.04,35.79,-576,4720,6555,0,0,-1
-28.58,-4.04,35.79,-571,4730,6559,0,-1,-1
-28.59,-4.04,35.79,-572,4728,6565,-1,-1,0
-28.59,-4.04,35.79,-579,4736,6558,0,-1,0
-28.58,-4.03,35.79,-577,4736,6553,0,-1,0
-28.58,-4.02,35.79,-570,4727,6554,0,-1,0
-28.58,-4.01,35.80,-559,4719,6552,-1,-1,-1
-28.58,-4.01,35.79,-570,4717,6559,-1,-1,-1
-28.57,-4.01,35.79,-580,4716,6566,0,-1,-1
-28.57,-4.01,35.79,-582,4723,6574,-1,-1,0
-28.58,-4.01,35.78,-583,4725,6584,0,-1,0
-28.58,-4.00,35.78,-577,4725,6567,0,-1,0
-28.59,-3.99,35.79,-577,4737,6569,0,-1,0
-28.59,-3.98,35.79,-568,4734,6565,0,-1,0
-28.58,-3.98,35.79,-564,4726,6559,-1,-1,-1
-28.58,-3.98,35.79,-562,4724,6556,0,-1,-1
-28.58,-3.98,35.79,-573,4729,6561,0,-1,-1
-28.57,-3.97,35.79,-566,4736,6566,0,-1,-1
-28.57,-3.97,35.80,-568,4744,6570,0,-1,-1
-28.57,-3.96,35.79,-573,4735,6564,-1,-1,0
-28.57,-3.95,35.79,-561,4718,6555,-1,-1,-1
-28.56,-3.95,35.79,-565,4712,6560,0,-1,-1
-28.57,-3.95,35.78,-559,4712,6562,0,-1,-1
-28.56,-3.95,35.79,-560,4733,6567,-1,-1,0
-28.58,-3.94,35.79,-561,4748,6567,-1,-1,0
-28.59,-3.93,35.79,-555,4741,6561,-1,-1,0
-28.59,-3.92,35.78,-555,4734,6558,-1,-1,0
-28.59,-3.91,35.79,-555,4734,6549,-1,-1,0
-28.59,-3.91,35.79,-555,4729,6547,-1,-1,0
-28.60,-3.90,35.78,-551,4733,6552,-1,-1,0
-28.60,-3.90,35.78,-549,4723,6546,-1,-1,0
-28.61,-3.89,35.77,-561,4720,6552,-1,-1,0
-28.61,-3.89,35.77,-565,4724,6554,-1,-1,0
-28.61,-3.88,35.77,-565,4726,6565,-1,-1,0
-28.62,-3.88,35.77,-562,4728,6564,-1,-1,0
-28.62,-3.88,35.77,-557,4728,6563,-1,-1,0
-28.62,-3.87,35.77,-549,4721,6560,-1,-1,0
-28.62,-3.87,35.76,-540,4720,6562,-1,-1,-1
-28.62,-3.86,35.76,-547,4724,6564,-1,-1,-1
-28.62,-3.86,35.76,-555,4721,6569,-1,-1,0
-28.62,-3.85,35.76,-552,4719,6565,0,-1,0
-28.63,-3.85,35.76,-552,4728,6563,-1,-1,0
-28.63,-3.85,35.76,-547,4724,6557,-1,-1,0
-28.64,-3.84,35.75,-542,4723,6552,-1,-1,0
-28.64,-3.83,35.75,-545,4732,6557,-1,-1,0
-28.64,-3.83,35.75,-547,4735,6559,-1,-1,0
-28.65,-3.83,35.75,-556,4736,6566,-1,-1,0
-28.65,-3.82,35.74,-556,4738,6567,-1,-1,0
-28.66,-3.82,35.74,-551,4736,6562,-1,-1,0
-28.67,-3.80,35.73,-542,4728,6563,-1,-1,0
-28.68,-3.80,35.72,-538,4718,6559,-1,-1,0
-28.68,-3.80,35.71,-548,4714,6556,-1,-1,0
-28.68,-3.80,35.71,-549,4714,6565,-1,-1,-1
-28.68,-3.80,35.71,-548,4726,6578,0,-1,-1
-28.68,-3.80,35.71,-550,4734,6570,0,0,0
-28.68,-3.79,35.72,-552,4733,6569,-1,-1,0
-28.69,-3.78,35.71,-548,4724,6570,-1,-1,0
-28.69,-3.78,35.71,-546,4719,6568,-1,-1,0
-28.69,-3.78,35.71,-539,4729,6554,0,-1,-1
-28.69,-3.78,35.71,-538,4730,6547,-1,0,0
-28.70,-3.78,35.71,-541,4728,6566,-1,-1,0
-28.70,-3.77,35.70,-544,4728,6579,-1,-1,0
-28.72,-3.77,35.69,-538,4730,6572,-1,-1,0
-28.71,-3.76,35.69,-541,4722,6579,-1,-1,0
-28.72,-3.76,35.69,-537,4719,6567,-1,-1,0
-28.72,-3.76,35.68,-542,4713,6581,-1,0,-1
-28.72,-3.76,35.68,-544,4723,6581,-1,0,0
-28.72,-3.76,35.67,-547,4716,6580,-1,-1,0
-28.72,-3.76,35.67,-542,4716,6582,-1,-1,0
-28.72,-3.76,35.67,-545,4719,6572,0,-1,0
-28.72,-3.76,35.68,-549,4723,6572,0,-1,0
-28.73,-3.75,35.68,-547,4720,6573,0,-1,0
-28.73,-3.75,35.68,-546,4723,6569,-1,-1,0
-28.73,-3.74,35.67,-537,4714,6568,-1,-1,0
-28.74,-3.74,35.67,-538,4716,6563,-1,-1,0
-28.74,-3.74,35.67,-541,4720,6563,-1,-1,0
-28.74,-3.74,35.67,-549,4721,6564,-1,-1,0
-28.74,-3.74,35.67,-543,4717,6571,-1,-1,0
-28.75,-3.74,35.66,-541,4713,6570,-1,-1,-1
-28.75,-3.74,35.66,-535,4713,6569,-1,-1,0
-28.75,-3.74,35.66,-540,4714,6576,-1,-1,0
-28.76,-3.73,35.65,-535,4721,6568,-1,-1,0
-28.76,-3.73,35.65,-530,4720,6570,-1,-1,0
-28.76,-3.73,35.65,-536,4725,6574,0,-1,-1
-28.76,-3.73,35.65,-528,4726,6581,-1,-1,-1
-28.76,-3.73,35.65,-535,4722,6580,-1,0,0
-28.76,-3.73,35.65,-536,4719,6575,-1,-1,0
-28.77,-3.73,35.64,-541,4716,6575,-1,-1,0
-28.77,-3.73,35.64,-550,4715,6581,-1,-1,0
-28.76,-3.72,35.64,-539,4714,6577,0,0,-1
-28.76,-3.73,35.64,-545,4713,6573,-1,0,-1
-28.76,-3.73,35.63,-551,4717,6562,-1,0,0
-28.76,-3.73,35.63,-547,4722,6579,-1,-1,0
-28.76,-3.73,35.63,-543,4724,6586,-1,-1,0
-28.77,-3.73,35.62,-535,4716,6583,-1,-1,0
-28.77,-3.73,35.62,-532,4710,6579,-1,-1,-1
-28.77,-3.73,35.62,-540,4714,6574,-1,0,-1
-28.77,-3.73,35.62,-543,4711,6568,-1,0,-1
-28.77,-3.74,35.62,-541,4715,6566,-1,0,-1
-28.76,-3.74,35.61,-543,4708,6579,-1,-1,-1
-28.76,-3.74,35.61,-548,4710,6587,0,0,-1
-28.76,-3.75,35.61,-547,4727,6584,-1,-1,0
-28.76,-3.74,35.61,-543,4723,6577,-1,-1,-1
-28.76,-3.75,35.61,-543,4715,6574,0,0,0
-28.76,-3.75,35.61,-542,4710,6582,-1,0,0
-28.76,-3.75,35.61,-544,4711,6569,-1,0,-1
-28.76,-3.75,35.61,-539,4709,6572,-1,0,-1
-28.77,-3.75,35.60,-539,4709,6577,-1,0,0
-28.77,-3.75,35.60,-538,4700,6578,-1,0,0
-28.77,-3.75,35.60,-536,4703,6575,0,-1,0
-28.77,-3.75,35.60,-534,4706,6577,0,0,-1
-28.77,-3.75,35.60,-531,4708,6578,0,0,-1
-28.76,-3.76,35.60,-540,4704,6581,0,0,-1
-28.76,-3.76,35.61,-544,4704,6581,-1,0,-1
-28.77,-3.76,35.60,-550,4704,6585,-1,0,0
-28.77,-3.76,35.60,-541,4707,6580,0,0,-1
-28.75,-3.77,35.61,-552,4715,6575,0,0,-1
-28.75,-3.78,35.61,-553,4724,6570,0,0,-1
-28.75,-3.78,35.61,-545,4717,6574,-1,0,-1
-28.74,-3.79,35.61,-552,4716,6574,0,0,-1
-28.74,-3.79,35.61,-546,4716,6576,0,0,-1
-28.74,-3.79,35.62,-546,4713,6570,0,0,-1
-28.73,-3.79,35.62,-549,4715,6569,0,0,-1
-28.73,-3.80,35.62,-553,4721,6567,0,-1,-1
-28.73,-3.80,35.62,-553,4717,6571,-1,0,-1
-28.72,-3.81,35.63,-550,4710,6566,0,0,-1
-28.72,-3.80,35.63,-551,4714,6571,0,0,-1
-28.71,-3.81,35.64,-550,4713,6571,0,0,-1
-28.71,-3.82,35.64,-552,4717,6576,0,0,-1
-28.70,-3.82,35.65,-554,4726,6576,0,0,-1
-28.70,-3.82,35.65,-555,4729,6567,0,0,-1
-28.69,-3.83,35.66,-562,4736,6549,0,0,-1
-28.69,-3.83,35.67,-568,4735,6547,-1,0,-1
-28.69,-3.83,35.66,-568,4723,6558,-1,0,0
-28.69,-3.84,35.67,-568,4719,6564,0,0,0
-28.69,-3.83,35.67,-556,4716,6570,0,-1,0
-28.69,-3.83,35.67,-544,4716,6569,0,-1,-1
-28.68,-3.83,35.68,-554,4719,6563,0,0,-1
-28.67,-3.85,35.68,-568,4715,6569,0,0,-1
-28.67,-3.85,35.68,-565,4719,6570,-1,0,0
-28.67,-3.85,35.68,-560,4720,6572,0,-1,0
-28.66,-3.84,35.70,-563,4725,6572,0,-1,0
-28.66,-3.84,35.70,-550,4726,6569,0,-1,-1
-28.66,-3.84,35.71,-549,4721,6567,0,-1,-1
-28.65,-3.84,35.72,-549,4713,6567,0,0,-1
-28.64,-3.84,35.72,-556,4708,6568,0,0,-1
-28.63,-3.85,35.72,-565,4720,6564,0,-1,-1
-28.62,-3.86,35.73,-571,4714,6568,0,-1,-1
-28.62,-3.86,35.73,-583,4720,6585,0,-1,0
-28.63,-3.85,35.73,-571,4726,6571,-1,-1,0
-28.64,-3.84,35.73,-558,4725,6565,-1,-1,0
-28.64,-3.84,35.72,-551,4718,6559,-1,-1,0
-28.64,-3.83,35.73,-549,4721,6554,-1,-1,0
-28.65,-3.83,35.72,-545,4726,6558,-1,0,-1
-28.65,-3.84,35.72,-554,4718,6561,-1,0,0
-28.65,-3.84,35.72,-557,4718,6558,-1,-1,0
-28.65,-3.83,35.72,-559,4722,6562,-1,-1,0
-28.66,-3.83,35.71,-556,4721,6559,-1,-1,0
-28.67,-3.83,35.71,-552,4717,6570,-1,-1,0
-28.67,-3.83,35.71,-560,4723,6577,-1,0,0
-28.67,-3.83,35.71,-564,4725,6578,-1,-1,0
-28.67,-3.83,35.71,-564,4730,6570,-1,-1,0
-28.67,-3.83,35.71,-567,4727,6567,0,-1,0
-28.66,-3.82,35.71,-564,4733,6565,0,-1,0
-28.66,-3.82,35.72,-561,4734,6566,0,-1,0
-28.66,-3.82,35.72,-557,4724,6561,-1,-1,0
-28.66,-3.82,35.72,-547,4721,6552,-1,-1,0
-28.66,-3.82,35.71,-557,4709,6565,-1,0,0
-28.66,-3.82,35.71,-560,4717,6565,-1,-1,0
-28.66,-3.82,35.71,-562,4723,6560,-1,0,0
-28.67,-3.82,35.70,-566,4721,6568,-1,-1,0
-28.68,-3.81,35.70,-561,4726,6576,-1,-1,0
-28.68,-3.81,35.70,-555,4711,6567,-1,-1,0
-28.68,-3.81,35.69,-547,4705,6575,-1,-1,-1
-28.68,-3.81,35.69,-550,4712,6578,0,-1,-1
-28.67,-3.81,35.69,-564,4715,6566,0,-1,-1
-28.67,-3.82,35.69,-562,4718,6571,-1,-1,0
-28.68,-3.81,35.69,-555,4716,6574,-1,-1,0
-28.68,-3.80,35.69,-548,4714,6575,-1,-1,0
-28.68,-3.80,35.69,-544,4712,6570,-1,-1,0
-28.69,-3.80,35.68,-547,4723,6566,-1,-1,0
-28.69,-3.80,35.68,-545,4731,6571,-1,-1,0
-28.69,-3.80,35.68,-551,4729,6571,-1,-1,0
-28.69,-3.80,35.68,-553,4724,6569,0,-1,0
-28.69,-3.80,35.68,-559,4725,6569,-1,-1,0
-28.70,-3.79,35.68,-549,4721,6564,-1,-1,0
-28.70,-3.79,35.68,-553,4721,6561,-1,0,0
-28.69,-3.79,35.68,-555,4719,6562,-1,-1,-1
-28.70,-3.80,35.67,-558,4723,6558,-1,-1,-1
-28.70,-3.79,35.68,-556,4732,6576,0,-1,0
-28.70,-3.79,35.68,-554,4722,6580,0,-1,0
-28.69,-3.78,35.68,-550,4717,6571,0,-1,0
-28.69,-3.78,35.68,-541,4720,6563,-1,-1,-1
-28.69,-3.78,35.68,-542,4720,6559,-1,0,-1
-28.69,-3.78,35.68,-553,4712,6561,-1,-1,-1
-28.69,-3.78,35.68,-556,4718,6569,-1,-1,-1
-28.69,-3.79,35.68,-562,4717,6566,0,-1,0
-28.68,-3.78,35.68,-548,4716,6580,0,-1,-1
-28.68,-3.78,35.69,-553,4725,6561,0,-1,0
-28.68,-3.78,35.70,-553,4725,6565,0,-1,0
-28.68,-3.78,35.70,-546,4723,6555,0,-1,0
-28.68,-3.78,35.70,-541,4730,6553,-1,-1,0
-28.68,-3.78,35.70,-546,4729,6550,-1,-1,0
-28.69,-3.78,35.70,-550,4728,6560,-1,0,0
-28.69,-3.77,35.70,-551,4717,6561,-1,-1,0
-28.69,-3.77,35.69,-543,4715,6558,-1,-1,0
-28.69,-3.77,35.69,-541,4717,6559,-1,-1,0
-28.69,-3.76,35.69,-532,4714,6557,0,-1,-1
-28.69,-3.76,35.69,-539,4715,6565,-1,0,-1
-28.68,-3.77,35.69,-548,4708,6577,0,0,-1
-28.68,-3.77,35.69,-553,4723,6578,0,-1,-1
-28.68,-3.77,35.69,-550,4731,6573,0,-1,-1
-28.67,-3.77,35.70,-548,4729,6568,0,-1,-1
-28.67,-3.77,35.71,-544,4727,6559,0,-1,0
-28.67,-3.76,35.71,-545,4716,6559,-1,-1,0
-28.67,-3.76,35.71,-544,4717,6562,-1,-1,0
-28.68,-3.76,35.70,-541,4716,6566,-1,-1,-1
-28.68,-3.76,35.70,-545,4719,6562,-1,-1,0
-28.68,-3.76,35.70,-542,4721,6566,-1,-1,0
-28.68,-3.76,35.70,-539,4725,6565,-1,-1,0
-28.68,-3.76,35.70,-542,4726,6568,0,-1,0
-28.67,-3.75,35.70,-538,4724,6571,0,-1,-1
-28.68,-3.75,35.70,-540,4731,6569,-1,0,-1
-28.67,-3.75,35.70,-544,4723,6571,-1,-1,0
-28.67,-3.75,35.70,-543,4720,6565,-1,0,0
-28.68,-3.75,35.69,-550,4720,6569,-1,-1,0
-28.67,-3.75,35.70,-543,4719,6565,0,-1,-1
-28.67,-3.75,35.70,-550,4720,6556,0,-1,-1
-28.67,-3.75,35.70,-551,4729,6565,-1,-1,0
-28.67,-3.75,35.70,-553,4722,6571,-1,-1,0
-28.67,-3.75,35.70,-548,4725,6570,-1,-1,0
-28.67,-3.75,35.70,-542,4725,6573,0,-1,0
-28.68,-3.74,35.70,-539,4724,6565,-1,0,0
-28.68,-3.74,35.70,-547,4733,6558,-1,0,0
-28.68,-3.75,35.69,-551,4732,6573,-1,0,0
-28.69,-3.74,35.68,-544,4718,6577,-1,-1,0
-28.70,-3.74,35.68,-534,4708,6576,-1,-1,0
-28.69,-3.74,35.68,-541,4715,6562,0,-1,0
-28.70,-3.73,35.68,-534,4720,6564,-1,-1,0
-28.70,-3.73,35.68,-532,4716,6560,-1,0,-1
-28.70,-3.73,35.68,-532,4716,6557,-1,0,-1
-28.70,-3.73,35.68,-538,4712,6558,-1,-1,-1
-28.69,-3.73,35.68,-542,4719,6566,0,-1,-1
-28.69,-3.73,35.68,-541,4718,6570,0,-1,0
-28.69,-3.73,35.68,-547,4726,6578,0,-1,0
-28.69,-3.73,35.68,-552,4724,6569,0,-1,0
-28.69,-3.73,35.69,-547,4728,6570,0,-1,-1
-28.69,-3.74,35.69,-550,4724,6566,0,-1,0
-28.69,-3.74,35.69,-554,4723,6562,-1,-1,0
-28.69,-3.73,35.69,-546,4728,6559,-1,-1,0
-28.70,-3.73,35.68,-544,4728,6544,-1,0,0
-28.70,-3.73,35.68,-545,4724,6546,-1,0,0
-28.71,-3.73,35.67,-545,4722,6561,-1,-1,0
-28.71,-3.73,35.67,-542,4721,6573,-1,0,0
-28.72,-3.73,35.66,-541,4714,6573,-1,-1,0
-28.71,-3.73,35.66,-540,4708,6578,-1,-1,0
-28.72,-3.72,35.65,-540,4706,6579,-1,0,0
-28.72,-3.72,35.65,-532,4711,6567,-1,-1,-1
-28.72,-3.72,35.65,-534,4710,6578,0,-1,-1
-28.72,-3.72,35.65,-543,4726,6568,-1,-1,0
-28.72,-3.72,35.65,-541,4728,6556,-1,-1,0
-28.72,-3.72,35.65,-538,4729,6559,-1,-1,0
-28.72,-3.72,35.65,-540,4725,6564,-1,-1,0
-28.73,-3.72,35.64,-545,4717,6568,-1,-1,0
-28.73,-3.72,35.64,-543,4715,6566,-1,-1,0
-28.73,-3.72,35.64,-538,4721,6572,-1,0,0
-28.73,-3.72,35.63,-544,4714,6567,-1,-1,0
-28.73,-3.72,35.63,-549,4716,6577,-1,-1,0
-28.73,-3.72,35.62,-548,4717,6575,-1,-1,0
-28.73,-3.72,35.62,-548,4719,6577,-1,-1,0
-28.73,-3.72,35.62,-551,4717,6570,-1,0,0
-28.73,-3.72,35.62,-546,4714,6570,0,0,-1
-28.73,-3.72,35.62,-548,4721,6569,-1,-1,-1
-28.73,-3.72,35.62,-545,4717,6570,-1,-1,0
-28.73,-3.72,35.62,-552,4717,6570,-1,-1,0
-28.73,-3.73,35.62,-551,4712,6572,-1,-1,0
-28.73,-3.73,35.62,-547,4714,6575,-1,-1,0
-28.73,-3.73,35.62,-541,4718,6578,0,-1,0
-28.74,-3.72,35.62,-537,4718,6576,-1,0,0
-28.74,-3.72,35.62,-535,4714,6575,-1,-1,0
-28.74,-3.72,35.62,-538,4713,6576,-1,0,-1
-28.74,-3.72,35.62,-536,4717,6572,-1,0,-1
-28.74,-3.72,35.62,-532,4712,6576,-1,0,-1
-28.74,-3.72,35.62,-542,4706,6574,0,-1,-1
-28.74,-3.72,35.62,-546,4707,6580,0,-1,0
-28.74,-3.72,35.62,-542,4711,6581,-1,-1,0
-28.75,-3.71,35.61,-532,4711,6572,-1,-1,0
-28.75,-3.71,35.61,-531,4708,6563,-1,-1,-1
-28.74,-3.71,35.61,-535,4710,6559,0,0,-1
-28.74,-3.72,35.62,-544,4716,6573,-1,0,-1
-28.74,-3.72,35.61,-542,4719,6575,-1,-1,0
-28.74,-3.72,35.61,-544,4716,6578,0,-1,0
-28.74,-3.72,35.62,-542,4710,6580,0,-1,0
-28.74,-3.72,35.62,-537,4709,6577,0,-1,0
-28.74,-3.71,35.61,-531,4713,6564,0,0,-1
-28.74,-3.71,35.62,-538,4727,6565,0,0,0
-28.74,-3.71,35.62,-538,4726,6560,-1,-1,0
-28.74,-3.71,35.62,-535,4724,6566,-1,-1,-1
-28.74,-3.72,35.62,-539,4722,6566,-1,-1,0
-28.75,-3.71,35.61,-534,4708,6570,-1,-1,0
-28.75,-3.71,35.61,-530,4708,6574,-1,-1,0
-28.75,-3.71,35.61,-530,4706,6573,0,-1,0
-28.75,-3.71,35.61,-535,4710,6573,0,-1,-1
-28.75,-3.71,35.61,-541,4718,6575,-1,0,-1
-28.75,-3.71,35.61,-537,4721,6573,-1,0,-1
-28.75,-3.71,35.61,-541,4720,6578,-1,-1,0
-28.75,-3.72,35.61,-549,4717,6583,0,-1,0
-28.75,-3.72,35.61,-541,4714,6583,0,-1,0
-28.75,-3.71,35.61,-536,4712,6578,0,-1,0
-28.75,-3.71,35.61,-543,4709,6574,0,-1,0
-28.75,-3.71,35.61,-546,4712,6566,-1,-1,0
-28.75,-3.71,35.61,-547,4715,6566,-1,-1,0
-28.75,-3.71,35.61,-549,4707,6565,-1,-1,0
-28.75,-3.71,35.61,-541,4708,6569,-1,-1,-1
-28.75,-3.71,35.61,-539,4710,6578,0,-1,-1
-28.75,-3.71,35.61,-537,4721,6572,-1,0,0
-28.75,-3.71,35.61,-534,4713,6570,-1,-1,0
-28.75,-3.71,35.61,-536,4709,6569,-1,0,0
-28.75,-3.71,35.61,-539,4711,6573,0,-1,-1
-28.75,-3.71,35.61,-541,4716,6566,0,0,-1
-28.75,-3.71,35.61,-545,4717,6566,-1,0,0
-28.75,-3.72,35.61,-544,4715,6567,-1,-1,0
-28.75,-3.71,35.61,-542,4716,6563,-1,-1,0
-28.75,-3.71,35.61,-538,4712,6562,0,-1,0
-28.75,-3.71,35.61,-531,4716,6562,0,-1,-1
-28.75,-3.71,35.61,-532,4716,6575,0,0,-1
-28.75,-3.71,35.61,-534,4717,6575,0,0,0
-28.75,-3.71,35.61,-543,4716,6578,-1,-1,0
-28.75,-3.71,35.61,-540,4713,6572,-1,-1,0
-28.75,-3.71,35.61,-539,4703,6566,0,-1,0
-28.76,-3.71,35.61,-536,4707,6573,0,-1,0
-28.76,-3.70,35.62,-531,4713,6569,0,-1,-1
-28.75,-3.71,35.62,-534,4715,6571,0,0,-1
-28.75,-3.70,35.63,-538,4721,6567,-1,0,-1
-28.75,-3.71,35.63,-539,4722,6565,-1,0,-1
-28.75,-3.71,35.62,-545,4719,6566,-1,0,0
-28.75,-3.71,35.62,-540,4724,6576,-1,-1,0
-28.76,-3.70,35.62,-534,4718,6579,-1,-1,0
-28.76,-3.70,35.62,-533,4718,6569,-1,-1,0
-28.76,-3.70,35.62,-528,4708,6568,-1,0,-1
-28.76,-3.70,35.62,-529,4708,6567,-1,0,-1
-28.75,-3.71,35.61,-532,4707,6576,-1,0,-1
-28.75,-3.71,35.61,-547,4718,6581,0,-1,0
-28.75,-3.71,35.61,-551,4721,6587,0,-1,0
-28.75,-3.71,35.62,-541,4726,6580,0,-1,0
-28.75,-3.70,35.63,-541,4714,6571,0,-1,0
-28.75,-3.70,35.63,-537,4715,6566,0,-1,-1
-28.75,-3.70,35.63,-537,4713,6570,0,-1,-1
-28.75,-3.70,35.63,-534,4726,6569,0,-1,-1
-28.74,-3.71,35.64,-542,4726,6564,-1,0,-1
-28.75,-3.70,35.63,-539,4714,6561,-1,-1,-1
-28.75,-3.70,35.63,-544,4715,6568,-1,-1,0
-28.76,-3.70,35.62,-540,4708,6572,-1,-1,0
-28.75,-3.70,35.63,-537,4713,6568,0,0,-1
-28.75,-3.70,35.63,-539,4711,6573,-1,-1,-1
-28.75,-3.71,35.62,-543,4707,6575,-1,-1,-1
-28.75,-3.71,35.62,-545,4707,6571,0,0,-1
-28.75,-3.71,35.62,-543,4712,6575,0,-1,0
-28.75,-3.71,35.62,-538,4712,6579,0,-1,0
-28.74,-3.71,35.63,-539,4713,6575,0,-1,-1
-28.74,-3.71,35.63,-536,4716,6563,0,-1,0
-28.74,-3.71,35.63,-536,4715,6570,-1,-1,0
-28.74,-3.70,35.63,-535,4716,6557,-1,-1,0
