Yaw,Pitch,Roll,AX,AY,AZ,GX,GY,GZ
-49.45,8.67,15.52,1231,2161,7754,0,-1,0
-49.45,8.68,15.52,1232,2161,7759,0,-1,0
-49.46,8.69,15.53,1247,2160,7760,-1,-1,0
-49.46,8.69,15.52,1246,2158,7747,-1,-1,0
-49.46,8.69,15.52,1241,2152,7744,0,-1,-1
-49.46,8.70,15.53,1235,2161,7749,0,0,-1
-49.46,8.69,15.53,1228,2161,7740,0,-1,-1
-49.45,8.69,15.54,1228,2161,7745,0,-1,-1
-49.45,8.70,15.54,1238,2169,7748,0,-1,0
-49.46,8.71,15.55,1238,2171,7749,-1,-1,0
-49.46,8.71,15.55,1242,2162,7732,-1,-1,0
-49.46,8.72,15.54,1240,2160,7730,-1,-1,0
-49.47,8.73,15.54,1252,2161,7736,-1,-1,0
-49.47,8.73,15.54,1245,2162,7746,-1,-1,0
-49.47,8.73,15.53,1246,2149,7741,-1,-1,0
-49.48,8.74,15.53,1235,2144,7760,0,-1,0
-49.48,8.74,15.53,1240,2149,7771,0,-1,0
-49.48,8.75,15.54,1240,2159,7759,0,-1,0
-49.48,8.75,15.54,1248,2163,7746,0,-1,0
-49.48,8.76,15.54,1257,2158,7737,-1,-1,0
-49.48,8.76,15.54,1256,2163,7738,0,-1,0
-49.48,8.77,15.54,1250,2159,7753,0,-1,0
-49.48,8.77,15.55,1252,2163,7753,0,-1,0
-49.49,8.77,15.56,1246,2174,7750,0,-1,0
-49.49,8.78,15.55,1253,2174,7747,-1,-1,0
-49.50,8.78,15.55,1257,2172,7744,-1,-1,0
-49.51,8.79,15.55,1256,2166,7736,-1,-1,0
-49.51,8.79,15.54,1251,2161,7751,-1,0,0
-49.51,8.79,15.54,1252,2153,7762,-1,-1,0
-49.51,8.79,15.54,1260,2154,7756,0,0,-1
-49.51,8.79,15.55,1262,2153,7757,0,0,-1
-49.51,8.79,15.55,1258,2162,7747,0,0,-1
-49.52,8.79,15.55,1259,2160,7744,-1,0,0
-49.52,8.79,15.55,1250,2162,7747,0,0,0
-49.52,8.79,15.56,1254,2164,7753,0,-1,0
-49.52,8.80,15.56,1259,2157,7759,0,-1,0
-49.53,8.80,15.58,1260,2162,7740,0,0,0
-49.52,8.79,15.59,1249,2195,7750,0,0,0
-49.53,8.78,15.60,1233,2192,7745,0,-1,0
-49.54,8.79,15.60,1273,2160,7763,0,0,0
-49.53,8.77,15.61,1248,2187,7755,0,0,-1
-49.53,8.75,15.63,1225,2195,7768,0,-1,0
-49.54,8.77,15.61,1272,2176,7733,-1,0,0
-49.55,8.74,15.62,1237,2172,7753,-1,0,0
-49.54,8.76,15.61,1285,2146,7756,0,0,-1
-49.54,8.73,15.63,1273,2153,7774,0,1,-1
-49.52,8.70,15.64,1212,2164,7756,0,-1,-1
-49.52,8.70,15.67,1244,2178,7751,0,0,-1
-49.52,8.68,15.68,1239,2185,7744,0,0,-1
-49.51,8.67,15.70,1224,2182,7722,0,-1,-1
-49.51,8.68,15.73,1261,2210,7767,0,0,-1
-49.51,8.65,15.74,1221,2197,7749,0,-1,0
-49.51,8.65,15.75,1261,2202,7742,0,1,0
-49.52,8.63,15.77,1242,2204,7749,0,0,0
-49.52,8.61,15.77,1227,2221,7742,-1,1,-1
-49.53,8.61,15.76,1234,2170,7718,-1,0,-1
-49.53,8.60,15.77,1247,2160,7750,0,0,0
-49.52,8.59,15.79,1197,2207,7731,0,-1,-1
-49.52,8.60,15.79,1235,2177,7720,0,-1,-1
-49.51,8.60,15.80,1229,2191,7706,0,0,-1
-49.50,8.59,15.80,1210,2220,7711,-1,0,-1
-49.50,8.59,15.80,1222,2189,7734,0,0,-1
-49.49,8.57,15.80,1197,2227,7741,-1,-1,-1
-49.48,8.58,15.79,1198,2209,7728,-1,-1,-1
-49.48,8.60,15.77,1249,2205,7712,-1,-1,0
-49.49,8.59,15.75,1208,2194,7735,-2,-1,-1
-49.48,8.61,15.72,1243,2176,7742,-1,-1,-1
-49.46,8.61,15.70,1208,2187,7751,-1,-1,-1
-49.45,8.61,15.68,1220,2186,7758,-1,-1,-1
-49.46,8.61,15.66,1221,2180,7764,-1,-1,-1
-49.46,8.63,15.64,1236,2154,7761,-1,-1,-1
-49.46,8.63,15.63,1241,2160,7764,-1,-1,-1
-49.46,8.64,15.62,1238,2162,7764,-1,-1,-1
-49.45,8.65,15.61,1240,2154,7752,-1,-1,-1
-49.45,8.66,15.61,1248,2157,7748,-1,-1,-1
-49.45,8.66,15.61,1242,2168,7743,-1,0,-1
-49.45,8.65,15.60,1241,2175,7744,-1,0,-1
-49.44,8.65,15.61,1232,2180,7758,-1,0,-1
-49.43,8.64,15.60,1230,2189,7752,-1,0,-1
-49.44,8.63,15.60,1224,2189,7755,-1,0,-1
-49.44,8.64,15.59,1226,2169,7756,-1,-1,-1
-49.43,8.64,15.58,1232,2155,7751,-1,0,-1
-49.43,8.64,15.57,1236,2154,7754,-1,0,-1
-49.43,8.64,15.57,1236,2160,7746,-1,0,-1
-49.42,8.64,15.57,1240,2166,7751,-1,0,-1
-49.42,8.63,15.57,1235,2160,7748,-1,0,-1
-49.41,8.62,15.57,1226,2163,7751,0,0,-1
-49.41,8.61,15.58,1215,2172,7756,0,0,-1
-49.41,8.61,15.58,1216,2175,7757,0,-1,-1
-49.40,8.60,15.58,1214,2186,7769,-1,0,-1
-49.40,8.60,15.58,1209,2192,7753,-1,-1,-1
-49.40,8.60,15.58,1227,2172,7743,0,-1,0
-49.40,8.61,15.58,1238,2167,7750,0,0,-1
-49.40,8.61,15.58,1228,2164,7748,-1,-1,-1
-49.40,8.62,15.57,1250,2117,7744,0,-1,-1
-49.40,8.61,15.58,1238,2133,7776,0,0,-1
-49.39,8.60,15.59,1211,2163,7758,0,0,-1
-49.39,8.61,15.60,1225,2147,7735,0,-1,-1
-49.38,8.60,15.61,1239,2174,7730,0,0,-1
-49.38,8.58,15.62,1218,2197,7728,0,0,-1
-49.37,8.58,15.62,1225,2161,7745,-1,0,-1
-49.37,8.56,15.61,1220,2171,7754,-1,0,-1
-49.37,8.55,15.62,1201,2189,7736,0,-1,0
-49.37,8.56,15.62,1231,2172,7731,-1,0,0
-49.37,8.54,15.62,1229,2196,7749,-1,0,-1
-49.37,8.53,15.61,1200,2183,7747,-1,0,0
-49.36,8.53,15.61,1217,2167,7732,-1,-1,-1
-49.36,8.52,15.61,1219,2183,7744,-1,0,-1
-49.37,8.52,15.59,1218,2169,7739,-1,0,-1
-49.36,8.50,15.58,1225,2173,7762,-1,0,-1
-49.36,8.49,15.58,1196,2163,7765,-1,0,-1
-49.35,8.48,15.58,1189,2166,7761,-1,-1,-1
-49.35,8.49,15.57,1204,2161,7757,-1,0,-1
-49.35,8.48,15.56,1212,2154,7751,-1,0,-1
-49.35,8.48,15.57,1216,2165,7754,-1,0,-1
-49.34,8.48,15.57,1215,2166,7761,-1,0,-1
-49.34,8.47,15.56,1214,2166,7762,-1,0,-1
-49.32,8.46,15.57,1204,2181,7760,0,0,-1
-49.32,8.46,15.57,1213,2178,7760,-1,0,-1
-49.32,8.45,15.57,1208,2176,7768,-1,0,-1
-49.31,8.45,15.56,1195,2174,7761,-1,0,-1
-49.31,8.45,15.56,1206,2160,7757,-1,-1,-1
-49.31,8.44,15.55,1206,2151,7751,-1,0,-1
-49.31,8.44,15.55,1214,2150,7757,0,0,-1
-49.30,8.44,15.55,1220,2154,7754,0,0,-1
-49.30,8.43,15.55,1213,2158,7754,-1,0,-1
-49.30,8.42,15.55,1207,2161,7761,0,0,-1
-49.29,8.42,15.55,1197,2160,7753,-1,0,-1
-49.29,8.40,15.56,1192,2177,7757,-1,0,-1
-49.29,8.40,15.55,1187,2164,7764,-1,0,-1
-49.29,8.40,15.54,1190,2162,7753,-1,-1,-1
-49.28,8.41,15.55,1190,2171,7751,0,-1,-1
-49.28,8.41,15.55,1193,2171,7742,-1,-1,-1
-49.28,8.42,15.55,1197,2172,7742,-1,-1,0
-49.29,8.43,15.54,1206,2165,7744,-1,-1,-1
-49.28,8.43,15.53,1211,2159,7749,-1,-1,-1
-49.28,8.43,15.53,1207,2159,7762,-1,-1,-1
-49.28,8.44,15.53,1198,2152,7758,-1,-1,0
-49.28,8.45,15.53,1208,2152,7758,0,-1,-1
-49.28,8.46,15.53,1207,2152,7755,0,-1,-1
-49.27,8.46,15.54,1211,2149,7762,0,-1,-1
-49.27,8.46,15.54,1203,2164,7762,0,0,-1
-49.27,8.46,15.54,1188,2174,7758,-1,-1,-1
-49.27,8.47,15.54,1203,2168,7756,-1,-1,-1
-49.27,8.47,15.54,1196,2173,7760,-1,-1,0
-49.27,8.47,15.54,1205,2169,7750,-1,-1,0
-49.28,8.47,15.54,1205,2170,7743,-1,-1,0
-49.28,8.48,15.53,1215,2170,7750,-1,-1,0
-49.28,8.49,15.53,1215,2167,7753,-1,-1,0
-49.29,8.49,15.52,1218,2156,7757,-1,-1,0
-49.29,8.50,15.52,1213,2151,7762,-1,-1,0
-49.29,8.51,15.52,1211,2156,7768,0,-1,-1
-49.29,8.51,15.52,1213,2152,7766,-1,-1,0
-49.29,8.52,15.52,1223,2151,7760,-1,-1,-1
-49.29,8.52,15.52,1217,2161,7756,-1,-1,0
-49.29,8.53,15.51,1220,2156,7759,-1,-1,0
-49.29,8.53,15.52,1224,2154,7753,0,-1,-1
-49.29,8.53,15.52,1213,2176,7752,-1,-1,-1
-49.29,8.53,15.52,1202,2176,7751,-1,-1,0
-49.29,8.54,15.51,1203,2170,7746,-1,-1,0
-49.30,8.55,15.50,1210,2161,7747,-1,-1,0
-49.31,8.57,15.50,1225,2151,7745,-1,-1,0
-49.31,8.57,15.49,1226,2143,7745,-1,-1,0
-49.31,8.57,15.49,1226,2136,7751,0,-1,-1
-49.31,8.57,15.49,1219,2138,7753,0,-1,-1
-49.31,8.57,15.50,1212,2147,7756,0,0,-1
-49.30,8.57,15.50,1211,2157,7755,0,-1,-1
-49.30,8.57,15.51,1207,2163,7753,0,-1,-1
-49.30,8.58,15.51,1209,2166,7752,0,-1,0
-49.30,8.58,15.51,1213,2170,7749,-1,-1,0
-49.31,8.59,15.51,1225,2174,7738,-1,-1,-1
-49.31,8.59,15.51,1223,2168,7739,-1,0,0
-49.31,8.58,15.50,1221,2159,7742,-1,0,0
-49.31,8.58,15.50,1219,2153,7746,-1,-1,0
-49.31,8.58,15.50,1227,2156,7760,-1,-1,0
-49.31,8.59,15.50,1229,2158,7759,-1,-1,0
-49.31,8.60,15.50,1231,2157,7744,-1,-1,-1
-49.31,8.60,15.50,1230,2150,7752,-1,-1,-1
-49.31,8.60,15.49,1230,2147,7746,0,-1,-1
-49.31,8.60,15.50,1227,2147,7750,0,-1,-1
-49.30,8.60,15.50,1224,2147,7756,0,0,-1
-49.30,8.60,15.50,1218,2157,7758,0,-1,-1
-49.30,8.60,15.50,1217,2165,7763,0,-1,-1
-49.30,8.61,15.51,1225,2173,7762,-1,-1,0
-49.30,8.61,15.51,1231,2169,7758,-1,-1,0
-49.30,8.61,15.50,1237,2165,7740,-1,-1,0
-49.31,8.62,15.50,1234,2151,7746,-1,-1,-1
-49.31,8.62,15.49,1248,2152,7752,-1,0,-1
-49.31,8.61,15.49,1213,2162,7765,-1,0,-1
-49.31,8.62,15.48,1200,2137,7759,-1,-1,0
-49.31,8.63,15.48,1220,2130,7761,0,-1,-1
-49.31,8.64,15.49,1215,2149,7764,0,-1,-1
-49.30,8.65,15.49,1247,2147,7752,0,0,-1
-49.30,8.64,15.50,1223,2145,7747,0,-1,-1
-49.30,8.65,15.51,1231,2152,7751,0,-1,0
-49.30,8.65,15.52,1228,2167,7743,0,0,0
-49.29,8.65,15.53,1231,2180,7747,-1,-1,0
-49.29,8.64,15.52,1237,2187,7757,-1,0,-1
-49.30,8.64,15.52,1207,2171,7756,-1,-1,0
-49.31,8.66,15.51,1228,2151,7769,-1,-1,0
-49.31,8.65,15.50,1229,2156,7762,-1,0,0
-49.32,8.66,15.50,1244,2148,7736,-1,-1,0
-49.31,8.66,15.50,1252,2141,7746,-1,0,-1
-49.31,8.66,15.50,1234,2141,7742,0,-1,0
-49.31,8.66,15.50,1236,2145,7758,0,-1,-1
-49.32,8.66,15.50,1236,2159,7765,-1,-1,0
-49.31,8.67,15.50,1241,2163,7770,-1,-1,0
-49.32,8.67,15.50,1228,2158,7755,-1,-1,0
-49.33,8.68,15.50,1243,2158,7748,0,-1,0
-49.33,8.69,15.50,1246,2166,7740,-1,-1,0
-49.33,8.70,15.49,1245,2167,7733,-1,-1,0
-49.34,8.70,15.48,1249,2157,7738,-1,0,0
-49.34,8.70,15.48,1237,2145,7749,-1,0,0
-49.34,8.70,15.47,1237,2145,7771,-1,-1,0
-49.35,8.71,15.48,1245,2151,7761,0,-1,0
-49.35,8.72,15.48,1247,2159,7759,-1,-1,0
-49.35,8.73,15.48,1251,2157,7748,-1,-1,0
-49.35,8.74,15.47,1251,2148,7743,-1,-1,0
-49.35,8.74,15.48,1238,2143,7744,0,-1,0
-49.35,8.74,15.48,1246,2137,7744,0,-1,0
-49.36,8.75,15.48,1243,2151,7750,0,-1,-1
-49.36,8.75,15.49,1249,2168,7750,0,-1,0
-49.36,8.76,15.49,1249,2174,7744,-1,-1,0
-49.36,8.76,15.49,1246,2170,7735,-1,-1,0
-49.36,8.76,15.48,1255,2157,7730,-1,-1,0
-49.37,8.77,15.48,1252,2154,7741,-1,-1,0
-49.38,8.78,15.48,1248,2145,7744,-1,-1,-1
-49.38,8.78,15.48,1250,2141,7759,0,-1,0
-49.38,8.78,15.48,1249,2148,7754,0,0,0
-49.37,8.78,15.48,1252,2158,7747,0,-1,0
-49.37,8.79,15.48,1254,2156,7747,-1,-1,0
-49.38,8.79,15.48,1248,2149,7737,0,-1,0
-49.38,8.79,15.49,1251,2155,7739,0,-1,0
-49.39,8.80,15.49,1254,2152,7746,0,-1,0
-49.38,8.80,15.49,1259,2150,7742,0,-1,-1
-49.38,8.80,15.50,1255,2164,7748,0,0,-1
-49.38,8.80,15.50,1245,2171,7741,-1,0,0
-49.39,8.80,15.49,1239,2171,7739,-1,0,0
-49.39,8.80,15.49,1238,2156,7751,-1,-1,0
-49.39,8.80,15.49,1244,2146,7753,0,-1,0
-49.40,8.81,15.49,1259,2151,7757,-1,-1,0
-49.40,8.82,15.48,1269,2140,7749,-1,0,0
-49.40,8.81,15.48,1267,2142,7745,0,0,0
-49.41,8.82,15.48,1269,2148,7746,0,0,-1
-49.40,8.81,15.49,1260,2157,7746,0,0,-1
-49.40,8.82,15.50,1248,2165,7743,0,-1,-1
-49.40,8.82,15.51,1259,2172,7744,0,-1,-1
-49.39,8.82,15.51,1251,2186,7757,-1,-1,-1
-49.40,8.82,15.50,1249,2160,7744,-1,-1,0
-49.40,8.83,15.50,1272,2144,7743,0,0,0
-49.40,8.83,15.51,1257,2155,7727,0,-1,-1
-49.40,8.83,15.51,1270,2161,7740,-1,0,-1
-49.40,8.83,15.49,1259,2143,7741,-1,0,0
-49.41,8.83,15.48,1257,2132,7747,-1,-1,0
-49.41,8.84,15.49,1251,2146,7755,0,-1,0
-49.41,8.84,15.49,1258,2148,7741,-1,-1,0
-49.41,8.85,15.49,1270,2152,7741,-1,0,-1
-49.41,8.85,15.49,1266,2151,7742,0,0,-1
-49.40,8.84,15.49,1267,2145,7746,0,0,-1
-49.40,8.84,15.49,1261,2148,7749,0,0,-1
-49.40,8.84,15.50,1258,2165,7750,0,0,-1
-49.39,8.84,15.50,1254,2173,7745,0,0,-1
-49.39,8.84,15.50,1258,2170,7751,-1,0,-1
-49.39,8.84,15.50,1253,2171,7748,-1,0,0
-49.39,8.83,15.50,1254,2167,7748,-1,0,-1
-49.39,8.83,15.50,1261,2158,7749,-1,0,-1
-49.38,8.83,15.50,1267,2158,7752,-1,0,-1
-49.38,8.82,15.49,1268,2148,7764,0,0,-1
-49.38,8.81,15.49,1259,2153,7744,-1,0,-1
-49.37,8.81,15.50,1246,2154,7760,0,0,-1
-49.37,8.80,15.50,1252,2153,7745,0,-1,-1
-49.36,8.80,15.51,1258,2148,7750,0,0,-1
-49.37,8.80,15.50,1252,2153,7738,0,0,-1
-49.36,8.80,15.51,1252,2163,7739,0,0,-1
-49.36,8.79,15.51,1262,2163,7756,0,0,-1
-49.36,8.79,15.51,1260,2159,7751,-1,0,-1
-49.35,8.79,15.50,1254,2157,7748,0,0,-1
-49.35,8.78,15.51,1258,2155,7738,-1,0,-1
-49.35,8.78,15.51,1256,2153,7735,-1,0,-1
-49.35,8.78,15.51,1257,2157,7741,-1,0,-1
-49.35,8.78,15.50,1251,2148,7750,-1,0,-1
-49.34,8.78,15.50,1256,2137,7736,0,0,-1
-49.34,8.77,15.51,1257,2153,7733,0,0,-1
-49.33,8.77,15.52,1261,2161,7745,0,0,-1
-49.33,8.76,15.52,1249,2168,7754,-1,0,-1
-49.32,8.75,15.51,1242,2161,7753,-1,0,-1
-49.32,8.75,15.51,1238,2159,7751,-1,0,-1
-49.32,8.75,15.51,1243,2149,7750,0,0,-1
-49.32,8.75,15.52,1259,2156,7756,0,0,-1
-49.32,8.75,15.52,1263,2157,7744,-1,0,-1
-49.32,8.75,15.51,1266,2144,7741,-1,0,-1
-49.31,8.74,15.51,1263,2137,7750,0,0,-1
-49.31,8.73,15.51,1246,2148,7753,0,0,-1
-49.30,8.72,15.52,1239,2155,7755,0,0,-1
-49.30,8.71,15.52,1240,2158,7758,0,0,-1
-49.30,8.71,15.53,1236,2163,7756,0,0,-1
-49.30,8.71,15.53,1251,2169,7751,0,0,-1
-49.29,8.71,15.53,1254,2159,7749,-1,0,-1
-49.28,8.71,15.53,1246,2159,7743,-1,0,-1
-49.28,8.70,15.53,1241,2166,7745,-1,0,-1
-49.29,8.69,15.53,1239,2163,7748,-1,0,-1
-49.28,8.68,15.53,1232,2156,7749,-1,0,-1
-49.28,8.68,15.52,1238,2151,7756,0,0,-1
-49.27,8.68,15.52,1243,2160,7757,-1,0,-1
-49.27,8.67,15.53,1241,2154,7764,-1,0,-1
-49.27,8.66,15.52,1237,2150,7758,0,0,-1
-49.27,8.66,15.53,1235,2146,7756,0,0,-1
-49.26,8.65,15.53,1229,2156,7745,0,0,-1
-49.26,8.64,15.53,1232,2166,7757,0,0,-1
-49.25,8.64,15.54,1233,2170,7748,0,0,-1
-49.25,8.63,15.55,1234,2170,7753,0,0,-1
-49.25,8.63,15.55,1229,2163,7747,-1,0,-1
-49.25,8.62,15.54,1232,2167,7756,-1,0,-1
-49.25,8.62,15.54,1227,2158,7758,-1,0,-1
-49.24,8.61,15.54,1230,2150,7769,-1,0,-1
-49.24,8.60,15.54,1222,2152,7763,-1,0,-1
-49.24,8.59,15.53,1224,2149,7765,-1,0,-1
-49.24,8.59,15.53,1231,2140,7759,0,0,-1
-49.23,8.59,15.53,1237,2140,7748,0,0,-1
-49.23,8.58,15.54,1227,2149,7738,0,0,-1
-49.23,8.57,15.53,1226,2151,7742,-1,0,-1
-49.23,8.56,15.54,1222,2154,7749,0,0,-1
-49.23,8.55,15.53,1215,2156,7756,-1,0,-1
-49.23,8.55,15.54,1215,2155,7757,0,0,-1
-49.22,8.54,15.54,1221,2160,7769,0,0,-1
-49.22,8.52,15.54,1212,2168,7770,-1,0,-1
-49.22,8.52,15.54,1216,2153,7767,-1,0,-1
-49.22,8.52,15.53,1210,2144,7761,0,0,-1
-49.21,8.52,15.54,1219,2154,7759,0,0,-1
-49.20,8.51,15.54,1229,2161,7752,-1,0,-1
-49.20,8.49,15.54,1216,2157,7755,-1,0,-1
-49.20,8.48,15.53,1213,2138,7768,-1,0,-1
-49.20,8.48,15.52,1204,2140,7775,0,0,-1
-49.20,8.47,15.52,1196,2145,7773,0,0,-1
-49.19,8.46,15.53,1209,2158,7765,-1,0,-1
-49.19,8.46,15.53,1209,2165,7754,-1,0,-1
-49.19,8.45,15.52,1217,2158,7744,-1,0,-1
-49.19,8.44,15.52,1219,2139,7745,0,0,-1
-49.18,8.43,15.52,1206,2134,7753,0,0,-1
-49.17,8.43,15.52,1201,2148,7757,0,0,-1
-49.17,8.42,15.52,1194,2153,7768,0,0,-1
-49.17,8.42,15.53,1195,2158,7756,0,0,-1
-49.17,8.42,15.53,1202,2165,7749,-1,0,-1
-49.17,8.42,15.53,1210,2155,7745,-1,0,-1
-49.16,8.42,15.53,1211,2154,7750,-1,0,-1
-49.17,8.42,15.52,1211,2146,7766,-1,0,-1
-49.17,8.42,15.52,1199,2139,7763,0,0,-1
-49.16,8.42,15.52,1197,2142,7768,0,-1,-1
-49.15,8.42,15.52,1198,2153,7764,0,-1,-1
-49.15,8.42,15.53,1205,2149,7759,0,-1,-1
-49.15,8.42,15.53,1205,2156,7737,-1,0,0
-49.15,8.42,15.53,1196,2156,7764,0,-1,-1
-49.15,8.42,15.53,1199,2150,7763,0,-1,-1
-49.15,8.43,15.53,1201,2153,7761,0,-1,-1
-49.15,8.43,15.54,1203,2161,7753,0,-1,0
-49.15,8.44,15.55,1218,2175,7745,0,-1,0
-49.15,8.44,15.55,1218,2183,7749,-1,-1,0
-49.15,8.45,15.55,1225,2172,7754,-1,-1,0
-49.15,8.46,15.55,1216,2152,7749,-1,0,0
-49.15,8.45,15.54,1210,2150,7751,-1,-1,0
-49.15,8.46,15.54,1209,2138,7764,-1,-1,-1
-49.15,8.46,15.54,1205,2141,7774,0,-1,0
-49.15,8.46,15.54,1205,2146,7762,0,-1,-1
-49.15,8.47,15.54,1211,2148,7759,0,-1,-1
-49.15,8.47,15.55,1210,2162,7748,0,-1,-1
-49.15,8.48,15.55,1214,2161,7748,0,-1,-1
-49.15,8.48,15.55,1210,2155,7750,0,0,-1
-49.15,8.48,15.55,1209,2153,7751,0,0,-1
-49.15,8.48,15.56,1215,2169,7766,-1,-1,0
-49.15,8.48,15.55,1217,2160,7762,0,0,0
-49.15,8.49,15.55,1213,2162,7767,0,-1,0
-49.16,8.49,15.55,1213,2154,7757,0,-1,0
-49.16,8.50,15.56,1214,2157,7748,0,-1,-1
-49.16,8.50,15.56,1221,2162,7749,-1,-1,-1
-49.16,8.51,15.56,1225,2168,7740,-1,0,0
-49.16,8.51,15.55,1217,2157,7764,-1,-1,0
-49.17,8.51,15.54,1216,2150,7771,-1,-1,0
-49.17,8.52,15.54,1212,2152,7765,0,-1,0
-49.17,8.53,15.55,1219,2149,7754,0,-1,0
-49.18,8.54,15.55,1231,2151,7742,0,-1,0
-49.18,8.55,15.54,1238,2151,7740,-1,-1,0
-49.18,8.55,15.54,1234,2144,7742,-1,0,0
-49.18,8.55,15.53,1227,2141,7752,0,-1,-1
-49.18,8.56,15.54,1220,2147,7758,0,-1,0
-49.18,8.56,15.54,1216,2150,7766,0,-1,0
-49.18,8.57,15.54,1223,2155,7757,0,-1,0
-49.19,8.57,15.54,1230,2163,7752,-1,-1,0
-49.19,8.57,15.54,1236,2157,7755,-1,-1,0
-49.19,8.58,15.54,1230,2155,7750,-1,-1,0
-49.19,8.58,15.54,1225,2150,7758,-1,0,0
-49.20,8.58,15.53,1226,2148,7759,-1,-1,0
-49.20,8.59,15.53,1230,2140,7756,0,-1,-1
-49.20,8.59,15.53,1226,2148,7758,0,-1,0
-49.20,8.59,15.53,1228,2145,7752,0,-1,-1
-49.20,8.60,15.53,1231,2147,7752,0,-1,0
-49.20,8.60,15.53,1238,2146,7744,0,0,-1
-49.20,8.60,15.53,1235,2154,7747,0,0,-1
-49.20,8.60,15.53,1231,2158,7755,0,0,-1
-49.19,8.60,15.54,1237,2161,7759,0,-1,-1
-49.19,8.61,15.53,1241,2158,7759,0,-1,0
-49.19,8.61,15.54,1236,2165,7761,0,-1,0
-49.19,8.61,15.54,1231,2168,7751,0,-1,-1
-49.19,8.62,15.54,1240,2157,7741,-1,0,0
-49.19,8.62,15.53,1238,2156,7742,-1,-1,-1
-49.20,8.62,15.53,1239,2137,7749,-1,0,0
-49.20,8.62,15.52,1229,2139,7758,-1,-1,0
-49.20,8.62,15.53,1227,2146,7750,0,-1,-1
-49.20,8.62,15.53,1227,2151,7750,0,-1,-1
-49.20,8.63,15.53,1235,2160,7743,0,-1,0
-49.19,8.64,15.53,1243,2161,7742,-1,-1,-1
-49.20,8.64,15.52,1245,2147,7753,-1,-1,0
-49.20,8.64,15.52,1245,2144,7757,0,0,-1
-49.20,8.64,15.52,1246,2142,7756,0,-1,-1
-49.20,8.65,15.53,1248,2143,7755,0,-1,-1
-49.20,8.66,15.54,1245,2156,7759,0,-1,-1
-49.20,8.66,15.54,1244,2172,7759,-1,0,-1
-49.20,8.66,15.54,1244,2172,7753,-1,0,0
-49.20,8.66,15.53,1243,2164,7758,-1,-1,0
-49.20,8.66,15.53,1238,2144,7760,-1,-1,0
-49.21,8.66,15.52,1240,2129,7755,0,-1,0
-49.21,8.67,15.52,1252,2138,7751,0,-1,0
-49.21,8.68,15.52,1262,2145,7752,0,0,-1
-49.21,8.68,15.53,1252,2154,7748,0,0,-1
-49.21,8.68,15.53,1241,2152,7748,0,0,-1
-49.21,8.68,15.53,1235,2162,7755,0,-1,0
-49.21,8.68,15.53,1232,2160,7755,0,-1,0
-49.21,8.68,15.53,1233,2165,7755,0,-1,0
-49.20,8.68,15.54,1240,2163,7759,0,-1,0
-49.21,8.69,15.54,1238,2164,7756,0,-1,0
-49.21,8.69,15.54,1246,2158,7743,0,-1,-1
-49.21,8.70,15.54,1246,2161,7742,-1,-1,-1
-49.21,8.70,15.54,1246,2148,7746,-1,0,0
-49.22,8.70,15.53,1251,2139,7745,-1,0,0
-49.22,8.70,15.52,1244,2135,7751,-1,-1,0
-49.22,8.70,15.52,1248,2136,7760,0,-1,0
-49.22,8.71,15.53,1244,2139,7755,0,-1,-1
-49.22,8.71,15.52,1244,2149,7749,0,-1,0
-49.22,8.71,15.52,1247,2140,7743,0,0,0
-49.22,8.72,15.53,1242,2144,7756,0,-1,0
-49.22,8.72,15.53,1248,2154,7761,0,-1,0
-49.22,8.73,15.53,1252,2159,7751,0,-1,-1
-49.22,8.73,15.54,1246,2164,7755,0,-1,0
-49.23,8.73,15.55,1241,2169,7746,-1,-1,0
-49.23,8.73,15.54,1242,2162,7737,-1,-1,0
-49.23,8.74,15.54,1240,2157,7732,-1,-1,0
-49.23,8.74,15.54,1243,2150,7743,-1,-1,0
-49.23,8.74,15.53,1245,2140,7755,0,-1,0
-49.24,8.75,15.52,1253,2135,7754,0,-1,0
-49.24,8.75,15.53,1249,2143,7749,0,-1,0
-49.24,8.75,15.54,1249,2144,7751,0,0,0
-49.24,8.76,15.54,1250,2155,7760,0,-1,0
-49.24,8.76,15.54,1250,2159,7753,0,-1,0
-49.24,8.76,15.54,1251,2150,7752,0,-1,0
-49.24,8.77,15.55,1250,2149,7745,0,-1,0
-49.25,8.77,15.55,1251,2158,7747,0,-1,0
-49.25,8.77,15.55,1253,2163,7745,0,0,0
-49.25,8.77,15.56,1252,2164,7748,0,0,0
-49.25,8.77,15.56,1250,2164,7749,0,-1,0
-49.26,8.77,15.56,1246,2161,7748,-1,-1,0
-49.27,8.78,15.56,1260,2149,7737,-1,-1,0
-49.28,8.79,15.55,1265,2149,7739,0,0,0
-49.28,8.79,15.56,1263,2154,7737,0,-1,0
-49.28,8.80,15.56,1267,2145,7733,0,0,0
-49.28,8.80,15.56,1268,2142,7743,0,0,-1
-49.28,8.80,15.57,1261,2146,7746,0,0,0
-49.28,8.79,15.57,1256,2158,7747,0,0,0
-49.27,8.79,15.57,1255,2155,7753,0,0,0
-49.28,8.80,15.58,1257,2165,7749,0,0,0
-49.28,8.80,15.59,1257,2181,7748,0,-1,0
-49.29,8.81,15.58,1266,2174,7739,-1,-1,0
-49.30,8.81,15.58,1268,2170,7749,-1,-1,0
-49.30,8.82,15.57,1268,2162,7747,-1,0,0
-49.31,8.81,15.56,1262,2152,7755,-1,0,0
-49.31,8.82,15.55,1264,2138,7758,-1,-1,0
-49.31,8.82,15.55,1271,2140,7764,0,0,-1
-49.31,8.81,15.55,1272,2141,7754,0,0,-1
-49.30,8.82,15.56,1268,2150,7742,0,0,-1
-49.30,8.81,15.55,1262,2154,7744,-1,0,-1
-49.30,8.81,15.55,1270,2152,7739,-1,0,-1
-49.30,8.81,15.55,1267,2161,7744,0,0,-1
-49.29,8.82,15.56,1259,2157,7751,0,0,-1
-49.28,8.81,15.56,1260,2161,7750,0,-1,-1
-49.28,8.81,15.56,1271,2164,7745,-1,0,-1
-49.28,8.81,15.56,1274,2161,7733,-1,0,-1
-49.28,8.81,15.56,1270,2151,7738,-1,0,-1
-49.28,8.81,15.55,1267,2153,7746,-1,0,-1
-49.27,8.81,15.55,1254,2144,7753,-1,0,-1
-49.27,8.81,15.54,1258,2146,7747,-1,0,-1
-49.27,8.81,15.55,1262,2148,7747,0,0,-1
-49.27,8.81,15.55,1266,2145,7746,0,0,-1
-49.25,8.80,15.55,1274,2139,7756,0,0,-1
-49.25,8.80,15.55,1269,2136,7752,0,0,-1
-49.25,8.79,15.55,1268,2147,7744,0,0,-1
-49.24,8.78,15.56,1253,2157,7751,0,0,-1
-49.23,8.78,15.57,1268,2162,7746,0,0,-1
-49.22,8.77,15.57,1252,2178,7758,0,0,-1
-49.22,8.76,15.57,1251,2168,7756,-1,-1,-1
-49.22,8.76,15.57,1254,2152,7747,-1,0,-1
-49.22,8.76,15.56,1247,2129,7751,0,-1,0
-49.23,8.76,15.57,1259,2140,7756,0,0,0
-49.23,8.75,15.56,1265,2142,7748,0,0,-1
-49.22,8.74,15.56,1272,2144,7762,-1,0,-1
-49.22,8.74,15.55,1253,2133,7743,0,0,-1
-49.21,8.72,15.57,1253,2156,7755,0,0,-1
-49.20,8.71,15.58,1239,2173,7760,0,0,-1
-49.20,8.71,15.58,1238,2178,7745,-1,0,0
-49.21,8.71,15.57,1240,2150,7738,-1,-1,0
-49.21,8.71,15.57,1266,2160,7746,0,0,-1
-49.20,8.70,15.57,1232,2161,7744,-1,-1,-1
-49.20,8.70,15.56,1258,2152,7739,-1,0,-1
-49.20,8.69,15.57,1246,2163,7739,0,0,-1
-49.20,8.68,15.56,1249,2171,7744,-1,0,-1
-49.20,8.69,15.55,1243,2148,7745,-1,0,-1
-49.20,8.68,15.55,1244,2148,7748,-1,0,-1
-49.20,8.68,15.55,1239,2156,7754,-1,0,-1
-49.20,8.68,15.55,1255,2151,7761,0,0,-1
-49.19,8.68,15.54,1253,2148,7758,-1,0,-1
-49.18,8.68,15.54,1243,2153,7755,-1,0,-1
-49.18,8.67,15.54,1239,2153,7743,0,0,-1
-49.18,8.66,15.55,1237,2162,7753,0,0,-1
-49.17,8.66,15.55,1241,2162,7761,0,0,-1
-49.17,8.66,15.55,1247,2160,7759,-1,0,0
-49.17,8.66,15.55,1240,2163,7755,-1,0,-1
-49.17,8.65,15.54,1246,2162,7751,-1,0,-1
-49.17,8.65,15.54,1244,2153,7742,-1,0,-1
-49.17,8.64,15.53,1238,2150,7741,-1,0,-1
-49.16,8.64,15.53,1241,2147,7757,0,0,-1
-49.16,8.63,15.53,1244,2146,7764,0,0,-1
-49.16,8.63,15.53,1231,2152,7764,0,0,-1
-49.16,8.63,15.53,1236,2148,7751,0,0,-1
-49.15,8.62,15.54,1238,2156,7743,0,0,-1
-49.14,8.61,15.55,1237,2158,7743,0,0,-1
-49.14,8.60,15.54,1236,2162,7741,-1,0,-1
-49.14,8.60,15.54,1233,2162,7753,-1,0,-1
-49.14,8.59,15.54,1232,2165,7760,-1,0,-1
-49.14,8.59,15.54,1229,2154,7756,-1,0,-1
-49.14,8.58,15.53,1230,2159,7758,-1,0,-1
-49.13,8.57,15.53,1229,2149,7756,-1,0,-1
-49.14,8.57,15.52,1238,2137,7749,-1,0,-1
-49.13,8.55,15.52,1223,2131,7744,0,0,-1
-49.12,8.54,15.52,1227,2128,7755,0,0,-1
-49.11,8.53,15.52,1216,2141,7753,0,0,-1
-49.10,8.52,15.53,1216,2169,7763,0,0,-1
-49.09,8.50,15.54,1208,2183,7756,-1,0,-1
-49.09,8.50,15.54,1208,2169,7741,-1,0,-1
-49.09,8.50,15.53,1221,2143,7735,-1,0,-1
-49.08,8.48,15.53,1215,2143,7750,-1,0,-1
-49.08,8.47,15.52,1209,2135,7750,0,0,-1
-49.07,8.46,15.52,1204,2148,7754,0,0,-1
-49.07,8.46,15.52,1205,2148,7760,0,-1,0
-49.07,8.46,15.52,1220,2150,7760,0,0,-1
-49.07,8.45,15.52,1209,2148,7767,0,0,-1
-49.07,8.44,15.52,1216,2140,7761,-1,0,-1
-49.06,8.44,15.52,1214,2118,7755,0,0,-1
-49.05,8.42,15.53,1229,2145,7766,0,0,-1
-49.05,8.40,15.55,1190,2160,7768,0,0,-1
-49.04,8.39,15.56,1205,2171,7764,0,0,-1
-49.04,8.38,15.57,1165,2175,7763,0,-1,0
-49.04,8.38,15.57,1192,2164,7765,-1,0,0
-49.06,8.38,15.56,1210,2150,7755,0,0,0
-49.05,8.37,15.56,1193,2183,7769,-1,0,-1
-49.04,8.37,15.56,1198,2145,7753,0,-1,-1
-49.05,8.38,15.55,1222,2133,7752,0,0,-1
-49.04,8.37,15.56,1199,2160,7758,0,0,-1
-49.04,8.37,15.55,1192,2169,7746,-1,-1,0
-49.04,8.37,15.54,1193,2140,7771,-1,-1,0
-49.05,8.39,15.53,1201,2138,7771,0,-1,0
-49.05,8.39,15.54,1199,2144,7760,0,-1,0
-49.05,8.41,15.54,1216,2142,7752,0,-1,-1
-49.05,8.41,15.55,1220,2166,7741,0,0,-1
-49.04,8.41,15.55,1201,2195,7756,-1,-1,0
-49.05,8.42,15.54,1202,2172,7759,-1,-1,0
-49.05,8.42,15.53,1196,2152,7764,-1,-1,0
-49.05,8.43,15.53,1207,2147,7765,0,-1,0
-49.05,8.44,15.53,1216,2143,7759,0,-1,0
-49.05,8.45,15.53,1226,2140,7753,-1,-1,-1
-49.05,8.45,15.53,1226,2135,7756,0,0,-1
-49.05,8.45,15.53,1217,2137,7760,0,0,-1
-49.05,8.46,15.53,1205,2142,7765,0,-1,-1
-49.05,8.46,15.53,1201,2156,7759,0,-1,-1
-49.05,8.46,15.54,1209,2163,7771,0,-1,-1
-49.04,8.46,15.55,1204,2166,7763,0,0,0
-49.04,8.47,15.54,1206,2156,7756,0,-1,0
-49.04,8.48,15.55,1217,2154,7750,0,0,-1
-49.04,8.48,15.55,1210,2165,7742,-1,0,0
-49.04,8.47,15.54,1211,2163,7744,-1,-1,0
-49.04,8.47,15.54,1209,2154,7745,-1,0,0
-49.05,8.48,15.53,1210,2148,7778,-1,-1,0
-49.05,8.48,15.53,1217,2146,7769,0,-1,0
-49.05,8.48,15.53,1211,2145,7774,0,-1,0
-49.06,8.49,15.53,1216,2148,7772,0,-1,0
-49.06,8.49,15.53,1217,2142,7762,0,-1,-1
-49.06,8.49,15.53,1218,2145,7755,0,-1,-1
-49.06,8.50,15.53,1218,2152,7757,0,-1,-1
-49.06,8.50,15.54,1214,2156,7758,0,-1,-1
-49.06,8.50,15.54,1215,2166,7759,0,-1,0
-49.06,8.51,15.54,1225,2173,7751,-1,-1,0
-49.06,8.51,15.54,1221,2160,7747,-1,-1,0
-49.06,8.51,15.54,1222,2150,7745,-1,0,0
-49.06,8.51,15.53,1219,2147,7756,-1,0,-1
-49.06,8.52,15.53,1212,2140,7765,-1,-1,-1
-49.06,8.51,15.52,1217,2144,7767,0,0,-1
-49.06,8.52,15.52,1223,2145,7763,0,-1,-1
-49.06,8.52,15.53,1214,2148,7757,-1,-1,0
-49.06,8.53,15.52,1214,2146,7755,0,-1,0
-49.06,8.53,15.52,1210,2141,7749,0,-1,0
-49.06,8.54,15.52,1216,2142,7752,0,-1,0
-49.06,8.54,15.53,1215,2150,7752,0,-1,0
-49.06,8.54,15.53,1215,2163,7752,0,-1,-1
-49.06,8.54,15.53,1219,2162,7757,-1,0,-1
-49.06,8.54,15.53,1217,2163,7758,-1,0,0
-49.06,8.54,15.52,1210,2159,7757,-1,-1,0
-49.07,8.55,15.52,1222,2156,7757,-1,-1,0
-49.07,8.56,15.52,1224,2149,7765,-1,-1,0
-49.07,8.56,15.52,1237,2146,7758,-1,-1,0
-49.08,8.57,15.50,1240,2134,7756,-1,0,-1
-49.08,8.57,15.50,1231,2136,7760,0,0,-1
-49.08,8.57,15.51,1231,2135,7758,0,0,-1
-49.08,8.57,15.51,1219,2149,7763,0,-1,-1
-49.07,8.57,15.52,1222,2154,7767,0,-1,-1
-49.07,8.58,15.52,1228,2164,7758,-1,-1,0
-49.07,8.59,15.52,1236,2155,7751,-1,-1,0
-49.08,8.59,15.51,1239,2152,7744,-1,0,0
-49.08,8.59,15.51,1231,2147,7739,-1,-1,0
-49.08,8.60,15.51,1229,2147,7749,-1,-1,-1
-49.08,8.60,15.50,1224,2148,7758,-1,-1,0
-49.08,8.60,15.50,1221,2148,7757,-1,-1,0
-49.08,8.60,15.50,1227,2149,7752,-1,-1,0
-49.08,8.61,15.49,1238,2145,7758,-1,-1,0
-49.08,8.62,15.49,1237,2135,7766,-1,0,0
-49.09,8.61,15.49,1236,2128,7756,0,-1,0
-49.08,8.62,15.49,1234,2125,7746,0,0,-1
-49.08,8.62,15.49,1232,2140,7752,0,-1,0
-49.09,8.63,15.50,1240,2154,7749,0,-1,0
-49.09,8.63,15.50,1239,2162,7762,-1,-1,0
-49.09,8.64,15.51,1240,2173,7753,-1,-1,0
-49.09,8.64,15.50,1244,2168,7753,-1,-1,0
-49.09,8.64,15.50,1241,2155,7760,-1,-1,0
-49.09,8.64,15.50,1238,2145,7749,-1,-1,0
-49.10,8.65,15.49,1233,2134,7754,-1,-1,0
-49.10,8.65,15.49,1231,2125,7759,0,-1,0
-49.10,8.65,15.49,1226,2139,7760,0,-1,0
-49.10,8.65,15.49,1231,2142,7769,0,-1,0
-49.10,8.66,15.49,1235,2150,7760,0,-1,0
-49.11,8.67,15.49,1244,2150,7749,0,-1,0
-49.11,8.67,15.50,1247,2155,7746,0,-1,0
-49.11,8.67,15.50,1247,2154,7748,0,-1,0
-49.11,8.67,15.50,1243,2152,7749,0,-1,0
-49.10,8.68,15.50,1244,2157,7748,0,-1,0
-49.11,8.68,15.50,1245,2156,7743,-1,-1,0
-49.12,8.69,15.50,1252,2149,7741,-1,-1,0
-49.12,8.69,15.50,1249,2143,7748,-1,-1,0
-49.12,8.70,15.49,1250,2137,7759,0,-1,0
-49.12,8.71,15.49,1251,2135,7751,0,-1,0
-49.12,8.72,15.50,1249,2144,7756,0,-1,0
-49.12,8.73,15.50,1257,2156,7754,0,-1,0
-49.13,8.73,15.51,1260,2154,7751,-1,-1,0
-49.13,8.73,15.50,1257,2153,7759,-1,-1,0
-49.13,8.74,15.50,1253,2148,7768,0,-1,0
-49.13,8.74,15.51,1253,2143,7755,0,-1,0
-49.14,8.76,15.51,1254,2150,7745,0,-1,0
-49.14,8.77,15.50,1269,2144,7738,-1,-1,0
-49.14,8.77,15.50,1263,2141,7739,-1,0,0
-49.15,8.77,15.50,1258,2140,7744,0,0,0
-49.14,8.77,15.50,1251,2144,7759,0,-1,-1
-49.14,8.77,15.51,1246,2147,7764,0,-1,0
-49.15,8.77,15.51,1249,2146,7754,0,-1,0
-49.15,8.78,15.51,1251,2159,7743,0,-1,0
-49.16,8.79,15.52,1254,2156,7736,0,-1,0
-49.16,8.80,15.52,1258,2153,7732,0,-1,0
-49.16,8.80,15.52,1254,2145,7734,-1,-1,0
-49.17,8.80,15.51,1256,2150,7746,-1,0,0
-49.17,8.80,15.51,1264,2141,7754,-1,0,0
-49.17,8.80,15.51,1259,2138,7763,0,-1,0
-49.17,8.81,15.51,1261,2138,7763,0,-1,0
-49.18,8.82,15.51,1261,2140,7757,0,-1,0
-49.19,8.83,15.51,1263,2146,7750,-1,-1,0
-49.19,8.83,15.51,1270,2143,7742,-1,0,0
-49.19,8.82,15.50,1249,2135,7756,0,0,0
-49.19,8.82,15.50,1252,2138,7759,0,-1,0
-49.19,8.83,15.51,1257,2152,7756,0,-1,0
-49.19,8.83,15.52,1253,2153,7752,0,-1,0
-49.19,8.84,15.52,1260,2161,7745,0,-1,0
-49.19,8.85,15.52,1265,2161,7745,-1,-1,0
-49.21,8.85,15.52,1266,2151,7747,-1,-1,0
-49.21,8.85,15.51,1268,2140,7755,-1,0,0
-49.21,8.85,15.50,1261,2135,7756,0,-1,0
-49.21,8.86,15.51,1258,2139,7755,0,-1,0
-49.21,8.86,15.51,1265,2147,7750,0,-1,0
-49.21,8.86,15.51,1262,2155,7752,0,-1,0
-49.22,8.87,15.51,1271,2157,7755,0,-1,0
-49.22,8.87,15.51,1271,2154,7742,-1,-1,0
-49.22,8.88,15.51,1269,2150,7742,-1,-1,0
-49.22,8.88,15.51,1269,2147,7749,0,-1,-1
-49.22,8.88,15.51,1266,2152,7759,-1,-1,-1
-49.22,8.88,15.51,1267,2154,7757,0,-1,0
-49.22,8.88,15.51,1262,2154,7756,-1,-1,-1
-49.22,8.88,15.51,1268,2151,7759,-1,-1,-1
-49.22,8.88,15.50,1265,2142,7750,-1,0,-1
-49.21,8.88,15.50,1272,2136,7750,0,0,-1
-49.21,8.88,15.51,1268,2152,7757,0,0,-1
-49.21,8.87,15.51,1262,2155,7748,-1,0,-1
-49.21,8.87,15.51,1272,2135,7744,0,0,-1
-49.20,8.87,15.51,1261,2148,7742,0,0,-1
-49.20,8.86,15.51,1246,2138,7749,0,-1,-1
-49.20,8.87,15.51,1264,2123,7743,0,-1,-1
-49.19,8.87,15.52,1269,2142,7743,0,0,-1
-49.20,8.87,15.53,1260,2159,7761,0,-1,0
-49.20,8.87,15.53,1276,2141,7746,0,0,0
-49.20,8.85,15.54,1262,2147,7743,0,0,-1
-49.20,8.85,15.54,1261,2152,7765,0,0,0
-49.19,8.84,15.55,1269,2143,7766,0,0,-1
-49.19,8.82,15.56,1252,2158,7766,0,0,-1
-49.19,8.81,15.57,1246,2186,7733,-1,0,0
-49.19,8.81,15.56,1239,2161,7735,-1,-1,0
-49.20,8.81,15.55,1264,2140,7748,0,0,-1
-49.20,8.80,15.56,1264,2149,7759,0,0,-1
-49.19,8.79,15.55,1248,2158,7744,-1,-1,-1
-49.19,8.79,15.55,1260,2153,7747,-1,0,-1
-49.19,8.79,15.55,1254,2149,7761,0,0,-1
-49.19,8.78,15.54,1262,2143,7761,-1,0,-1
-49.19,8.77,15.54,1255,2133,7758,0,0,-1
-49.17,8.76,15.55,1242,2153,7753,0,0,-1
-49.18,8.77,15.55,1271,2139,7746,0,0,-1
-49.17,8.76,15.56,1262,2167,7746,0,0,-1
-49.17,8.75,15.57,1232,2159,7754,-1,-1,0
-49.17,8.75,15.56,1266,2134,7757,0,0,-1
-49.17,8.73,15.56,1239,2155,7765,0,0,-1
-49.17,8.73,15.57,1240,2155,7751,0,-1,-1
-49.17,8.73,15.57,1239,2154,7746,0,0,-1
-49.17,8.73,15.57,1232,2154,7735,-1,-1,0
-49.17,8.72,15.57,1247,2167,7742,-1,0,-1
-49.17,8.72,15.56,1247,2154,7752,-1,0,-1
-49.17,8.71,15.54,1246,2132,7748,0,0,-1
-49.16,8.71,15.55,1236,2149,7754,-1,-1,-1
-49.15,8.71,15.54,1229,2154,7753,-1,-1,0
-49.15,8.71,15.53,1242,2142,7751,-1,0,0
-49.15,8.71,15.52,1246,2145,7759,-1,0,-1
-49.16,8.71,15.51,1239,2148,7751,-1,0,-1
-49.14,8.70,15.51,1238,2140,7764,-1,-1,-1
-49.15,8.70,15.51,1241,2141,7770,0,0,-1
-49.14,8.70,15.51,1245,2163,7762,0,0,-1
-49.14,8.69,15.52,1236,2174,7748,-1,0,-1
-49.14,8.68,15.52,1230,2176,7749,-1,0,0
-49.13,8.68,15.51,1227,2160,7746,-1,0,-1
-49.14,8.68,15.50,1232,2151,7744,-1,0,0
-49.14,8.67,15.50,1242,2138,7759,-1,-1,-1
-49.14,8.68,15.49,1251,2133,7760,-1,0,-1
-49.14,8.67,15.48,1247,2136,7763,-1,0,-1
-49.13,8.67,15.48,1237,2127,7757,0,0,-1
-49.13,8.66,15.49,1242,2134,7756,0,0,-1
-49.13,8.65,15.49,1228,2149,7751,0,0,-1
-49.13,8.65,15.49,1231,2155,7749,0,0,-1
-49.12,8.64,15.50,1221,2150,7750,0,0,-1
-49.13,8.64,15.50,1231,2152,7756,-1,0,0
-49.13,8.64,15.50,1232,2151,7747,0,0,-1
-49.12,8.63,15.50,1234,2154,7748,-1,0,-1
-49.11,8.62,15.50,1227,2154,7758,-1,0,-1
-49.12,8.62,15.49,1227,2149,7752,-1,0,-1
-49.12,8.62,15.48,1227,2143,7752,-1,0,-1
-49.12,8.61,15.48,1226,2139,7757,0,0,-1
-49.12,8.61,15.48,1228,2139,7759,0,0,-1
-49.11,8.60,15.48,1228,2133,7762,0,0,-1
-49.11,8.59,15.48,1229,2145,7756,-1,0,-1
-49.11,8.59,15.48,1224,2142,7748,-1,0,-1
-49.11,8.58,15.48,1226,2135,7757,0,0,-1
-49.10,8.57,15.48,1229,2156,7758,0,0,-1
-49.09,8.55,15.49,1221,2175,7777,-1,0,-1
-49.08,8.54,15.49,1186,2172,7763,-1,0,-1
-49.08,8.54,15.48,1195,2149,7746,-1,-1,0
-49.08,8.54,15.48,1220,2123,7746,0,0,0
-49.08,8.54,15.49,1224,2132,7748,0,0,-1
-49.08,8.53,15.48,1221,2137,7751,-1,0,-1
-49.08,8.51,15.48,1214,2145,7759,-1,0,-1
-49.08,8.50,15.48,1209,2157,7766,-1,0,0
-49.09,8.49,15.47,1206,2153,7761,-1,0,0
-49.09,8.49,15.47,1207,2150,7771,-1,-1,0
-49.09,8.50,15.46,1213,2134,7755,-1,-1,-1
-49.09,8.50,15.46,1212,2129,7754,0,0,-1
-49.09,8.49,15.47,1212,2142,7752,0,0,-1
-49.08,8.50,15.48,1215,2155,7756,0,0,-1
-49.07,8.49,15.48,1206,2160,7753,-1,0,-1
-49.07,8.49,15.47,1201,2159,7760,-1,-1,-1
-49.08,8.49,15.46,1199,2147,7765,-1,-1,0
-49.08,8.49,15.46,1207,2139,7775,-1,-1,0
-49.09,8.50,15.46,1212,2137,7765,0,-1,-1
-49.08,8.51,15.45,1219,2135,7767,0,-1,-1
-49.08,8.51,15.46,1217,2133,7757,0,-1,-1
-49.08,8.51,15.47,1219,2132,7771,0,-1,-1
-49.08,8.51,15.47,1210,2138,7772,0,-1,-1
-49.07,8.52,15.47,1209,2147,7775,0,-1,-1
-49.08,8.53,15.48,1216,2159,7768,0,-1,-1
-49.08,8.53,15.48,1208,2159,7766,-1,-1,0
-49.08,8.53,15.48,1210,2151,7760,-1,-1,0
-49.08,8.54,15.47,1210,2143,7757,-1,-1,0
-49.08,8.54,15.46,1218,2145,7749,-1,-1,-1
-49.07,8.54,15.46,1213,2150,7761,-1,0,-1
-49.07,8.54,15.45,1205,2138,7761,-1,-1,0
-49.09,8.55,15.44,1208,2118,7758,0,-1,0
-49.09,8.56,15.45,1220,2128,7772,0,-1,0
-49.09,8.57,15.44,1222,2126,7758,-1,-1,0
-49.09,8.57,15.44,1225,2124,7747,0,-1,-1
-49.09,8.57,15.45,1214,2122,7749,0,-1,0
-49.09,8.57,15.46,1214,2139,7755,0,-1,0
-49.10,8.58,15.45,1228,2145,7766,0,-1,0
-49.10,8.58,15.46,1226,2156,7753,-1,-1,0
-49.10,8.58,15.46,1220,2156,7759,-1,-1,0
-49.11,8.59,15.45,1225,2145,7755,0,-1,0
-49.11,8.60,15.45,1228,2150,7745,0,-1,0
-49.11,8.60,15.46,1225,2147,7740,0,-1,0
-49.11,8.60,15.46,1227,2147,7750,0,-1,0
-49.12,8.61,15.46,1221,2146,7765,-1,-1,0
-49.12,8.60,15.45,1221,2141,7762,-1,-1,0
-49.12,8.61,15.45,1231,2138,7747,0,-1,0
-49.12,8.61,15.45,1230,2131,7750,0,0,0
-49.12,8.61,15.45,1231,2131,7751,0,-1,0
-49.13,8.62,15.46,1230,2138,7751,0,-1,0
-49.13,8.62,15.46,1230,2149,7761,0,-1,0
-49.13,8.62,15.47,1229,2153,7757,0,0,-1
-49.13,8.62,15.47,1223,2153,7750,0,0,0
-49.13,8.62,15.47,1221,2154,7746,-1,-1,0
-49.13,8.62,15.46,1224,2141,7753,-1,-1,0
-49.13,8.62,15.46,1223,2137,7767,0,-1,0
-49.13,8.63,15.46,1230,2146,7763,0,-1,0
-49.13,8.63,15.46,1232,2144,7757,-1,-1,-1
-49.13,8.63,15.46,1231,2137,7752,-1,0,0
-49.13,8.63,15.46,1230,2137,7745,0,0,-1
-49.13,8.63,15.46,1227,2139,7755,0,0,-1
-49.12,8.63,15.47,1220,2148,7766,0,-1,-1
-49.12,8.63,15.47,1215,2153,7758,0,-1,-1
-49.12,8.63,15.47,1222,2155,7763,-1,0,0
-49.14,8.63,15.47,1224,2152,7761,0,-1,0
-49.14,8.64,15.47,1232,2150,7754,0,-1,0
-49.13,8.63,15.48,1221,2153,7759,0,-1,-1
-49.14,8.64,15.47,1225,2150,7760,-1,0,0
-49.14,8.64,15.47,1229,2152,7752,-1,0,0
-49.14,8.64,15.47,1228,2143,7757,-1,-1,0
-49.14,8.64,15.46,1236,2136,7759,-1,-1,0
-49.14,8.65,15.46,1244,2134,7759,0,-1,-1
-49.14,8.65,15.46,1234,2131,7753,0,-1,0
-49.14,8.65,15.46,1226,2135,7759,0,-1,0
-49.14,8.65,15.47,1230,2139,7757,0,0,-1
-49.14,8.65,15.47,1226,2137,7762,0,-1,0
-49.14,8.65,15.47,1226,2140,7761,0,-1,0
-49.14,8.65,15.47,1225,2149,7767,0,-1,-1
-49.13,8.66,15.48,1232,2159,7765,-1,-1,0
-49.14,8.66,15.48,1240,2155,7751,-1,-1,0
-49.14,8.67,15.47,1233,2150,7759,-1,-1,0
-49.14,8.67,15.47,1239,2144,7752,-1,-1,0
-49.14,8.66,15.46,1233,2138,7760,-1,0,0
-49.14,8.67,15.46,1229,2129,7760,0,-1,0
-49.14,8.67,15.46,1236,2130,7758,0,-1,-1
-49.14,8.67,15.47,1234,2139,7758,0,-1,-1
-49.14,8.67,15.47,1236,2136,7747,0,0,-1
-49.14,8.68,15.47,1221,2140,7757,0,-1,0
-49.13,8.68,15.48,1232,2130,7762,0,-1,0
-49.14,8.70,15.49,1247,2148,7767,0,0,-1
-49.13,8.70,15.49,1235,2144,7748,-1,-1,0
-49.14,8.71,15.49,1254,2134,7730,0,-1,0
-49.13,8.70,15.50,1235,2154,7761,0,0,0
-49.14,8.70,15.50,1221,2143,7741,0,-1,0
-49.13,8.70,15.51,1238,2139,7770,0,0,0
-49.15,8.69,15.51,1228,2154,7767,0,-1,0
-49.14,8.70,15.51,1235,2165,7749,-1,-1,0
-49.16,8.72,15.51,1245,2143,7750,0,-1,0
-49.16,8.72,15.50,1249,2131,7750,-1,0,0
-49.17,8.72,15.50,1246,2112,7742,0,-1,0
-49.17,8.72,15.51,1267,2136,7753,0,0,-1
-49.16,8.71,15.51,1227,2155,7738,0,0,-1
-49.16,8.71,15.52,1218,2153,7752,0,-1,0
-49.17,8.72,15.52,1234,2149,7754,0,0,0
-49.17,8.72,15.52,1231,2171,7753,-1,-1,0
-49.18,8.73,15.53,1239,2155,7741,0,-1,0
-49.19,8.74,15.52,1242,2146,7736,0,-1,0
-49.19,8.74,15.52,1244,2156,7735,0,-1,0
-49.18,8.75,15.53,1252,2172,7742,-1,-1,0
-49.19,8.75,15.52,1254,2154,7753,-1,0,0
-49.19,8.75,15.51,1240,2145,7751,-1,-1,0
-49.20,8.76,15.50,1247,2131,7764,0,-1,0
-49.20,8.77,15.51,1252,2136,7757,0,-1,0
-49.20,8.78,15.51,1251,2139,7747,0,-1,0
-49.21,8.78,15.51,1258,2137,7755,0,0,0
-49.22,8.79,15.51,1255,2142,7754,0,-1,0
-49.21,8.79,15.51,1254,2138,7735,0,-1,0
-49.21,8.79,15.52,1237,2144,7740,0,-1,0
-49.21,8.80,15.53,1241,2159,7747,0,-1,0
-49.22,8.80,15.54,1249,2166,7745,0,-1,0
-49.22,8.81,15.54,1253,2164,7743,-1,-1,0
-49.23,8.82,15.53,1260,2157,7737,-1,-1,0
-49.23,8.82,15.53,1256,2157,7733,0,0,0
-49.24,8.82,15.53,1258,2155,7747,-1,-1,0
-49.24,8.82,15.52,1255,2138,7758,-1,-1,0
-49.24,8.83,15.52,1265,2134,7750,0,-1,0
-49.24,8.83,15.53,1260,2147,7765,0,-1,0
-49.24,8.84,15.52,1262,2145,7760,-1,-1,0
-49.25,8.84,15.52,1260,2155,7758,0,-1,0
-49.25,8.85,15.52,1259,2149,7755,-1,-1,0
-49.26,8.86,15.52,1264,2149,7744,-1,-1,0
-49.26,8.87,15.52,1258,2151,7742,-1,-1,0
-49.26,8.87,15.51,1258,2139,7741,0,-1,0
-49.27,8.88,15.51,1261,2139,7747,0,-1,0
-49.27,8.89,15.52,1262,2135,7746,0,-1,0
-49.27,8.89,15.52,1265,2150,7744,0,-1,0
-49.28,8.90,15.52,1268,2146,7748,0,0,0
-49.28,8.90,15.52,1273,2143,7755,0,0,0
-49.29,8.91,15.52,1271,2143,7750,0,0,0
-49.29,8.91,15.52,1267,2152,7752,0,-1,0
-49.29,8.91,15.52,1263,2149,7745,-1,-1,0
-49.30,8.92,15.52,1271,2151,7739,0,-1,0
-49.30,8.93,15.52,1279,2157,7742,-1,-1,0
-49.30,8.93,15.52,1288,2144,7737,-1,-1,0
-49.30,8.94,15.51,1284,2133,7741,-1,0,-1
-49.30,8.94,15.50,1282,2128,7738,0,0,-1
-49.30,8.93,15.51,1271,2140,7739,0,0,-1
-49.29,8.92,15.51,1263,2150,7758,0,0,-1
-49.29,8.92,15.51,1260,2156,7754,-1,-1,0
-49.29,8.92,15.51,1257,2157,7754,-1,-1,0
-49.29,8.92,15.51,1259,2151,7745,-1,-1,-1
-49.29,8.93,15.51,1265,2153,7744,-1,-1,-1
-49.29,8.93,15.51,1271,2141,7747,-1,-1,-1
-49.28,8.93,15.51,1267,2144,7749,-1,0,-1
-49.28,8.92,15.50,1271,2143,7761,-1,0,-1
-49.28,8.92,15.50,1271,2136,7762,0,0,-1
-49.28,8.92,15.50,1263,2143,7758,0,-1,-1
-49.27,8.92,15.51,1267,2154,7760,0,-1,-1
-49.27,8.92,15.51,1282,2154,7756,-1,0,-1
-49.27,8.92,15.50,1275,2141,7750,-1,0,-1
-49.26,8.91,15.50,1269,2138,7756,-1,0,-1
-49.26,8.91,15.50,1254,2137,7751,0,0,-1
-49.26,8.90,15.51,1252,2146,7754,0,0,-1
-49.25,8.89,15.51,1258,2156,7753,0,0,-1
-49.25,8.89,15.51,1259,2162,7745,0,0,-1
-49.25,8.89,15.51,1266,2160,7752,-1,0,0
-49.26,8.89,15.51,1268,2145,7752,-1,0,-1
-49.25,8.88,15.50,1265,2140,7749,-1,0,-1
-49.24,8.88,15.50,1269,2141,7754,-1,0,-1
-49.25,8.87,15.50,1259,2136,7751,0,0,-1
-49.24,8.87,15.50,1245,2135,7764,0,0,-1
-49.23,8.86,15.51,1252,2139,7764,0,0,-1
-49.23,8.86,15.50,1261,2143,7759,0,0,-1
-49.23,8.85,15.50,1262,2144,7756,0,0,-1
-49.23,8.85,15.50,1260,2148,7740,0,0,-1
-49.23,8.84,15.51,1262,2152,7747,-1,0,-1
-49.23,8.84,15.50,1264,2146,7754,-1,0,-1
-49.22,8.83,15.50,1255,2142,7752,0,0,-1
-49.22,8.83,15.51,1259,2143,7758,0,0,-1
-49.22,8.82,15.51,1265,2150,7750,0,0,-1
-49.22,8.83,15.51,1265,2154,7750,0,0,-1
-49.22,8.82,15.51,1266,2144,7741,-1,0,-1
-49.22,8.81,15.51,1260,2146,7744,-1,0,-1
-49.21,8.80,15.50,1248,2150,7749,-1,0,-1
-49.21,8.79,15.51,1243,2146,7755,-1,0,-1
-49.21,8.79,15.51,1246,2147,7759,0,0,0
-49.21,8.79,15.51,1251,2151,7757,-1,-1,-1
-49.21,8.80,15.50,1265,2142,7750,-1,0,-1
-49.20,8.79,15.49,1265,2134,7757,-1,0,-1
-49.20,8.78,15.50,1250,2134,7761,0,0,-1
-49.20,8.76,15.49,1242,2140,7762,0,0,-1
-49.19,8.76,15.50,1236,2147,7777,0,0,-1
-49.19,8.75,15.50,1233,2158,7768,0,0,-1
-49.19,8.75,15.51,1242,2160,7762,0,0,-1
-49.18,8.75,15.51,1257,2157,7760,0,0,-1
-49.18,8.74,15.51,1238,2163,7761,-1,0,-1
-49.18,8.73,15.50,1242,2139,7753,-1,0,-1
-49.17,8.72,15.50,1244,2132,7740,0,0,-1
-49.17,8.71,15.49,1237,2130,7746,-1,0,-1
-49.17,8.71,15.49,1242,2125,7746,0,0,-1
-49.17,8.70,15.49,1242,2132,7757,0,0,-1
-49.17,8.70,15.49,1235,2145,7749,-1,0,0
-49.17,8.69,15.49,1229,2133,7751,0,0,-1
-49.16,8.68,15.49,1235,2135,7752,0,0,-1
-49.16,8.67,15.49,1230,2146,7757,0,0,-1
-49.16,8.67,15.49,1227,2142,7760,0,0,-1
-49.16,8.67,15.50,1235,2146,7753,0,0,-1
-49.16,8.66,15.50,1234,2151,7765,0,0,-1
-49.15,8.66,15.50,1232,2156,7766,0,0,-1
-49.15,8.65,15.50,1236,2147,7765,0,0,-1
-49.15,8.65,15.50,1229,2148,7752,-1,0,0
-49.15,8.64,15.49,1233,2141,7756,-1,0,-1
-49.15,8.63,15.48,1230,2138,7767,-1,0,-1
-49.15,8.62,15.48,1223,2132,7779,-1,0,-1
-49.15,8.62,15.47,1222,2135,7775,0,0,-1
-49.14,8.61,15.48,1229,2136,7775,0,0,-1
-49.14,8.60,15.48,1228,2142,7776,0,0,-1
-49.14,8.60,15.48,1224,2148,7773,0,0,-1
-49.13,8.59,15.48,1219,2157,7765,-1,0,-1
-49.13,8.58,15.48,1216,2151,7769,-1,0,-1
-49.13,8.58,15.48,1214,2144,7763,-1,0,-1
-49.13,8.57,15.48,1221,2143,7774,0,0,-1
-49.13,8.57,15.48,1227,2145,7771,0,0,-1
-49.12,8.57,15.48,1224,2149,7751,0,0,-1
-49.12,8.56,15.48,1220,2144,7753,0,0,-1
-49.12,8.55,15.47,1209,2141,7757,-1,0,0
-49.12,8.55,15.47,1202,2145,7770,-1,-1,0
-49.12,8.55,15.47,1210,2138,7764,-1,-1,0
-49.12,8.56,15.47,1222,2144,7762,0,-1,-1
-49.12,8.57,15.47,1228,2139,7749,-1,-1,-1
-49.12,8.56,15.46,1233,2130,7753,-1,0,-1
-49.12,8.56,15.46,1230,2127,7764,0,0,-1
-49.11,8.56,15.46,1223,2136,7762,0,0,-1
-49.11,8.56,15.47,1219,2145,7773,0,-1,-1
-49.11,8.56,15.47,1217,2151,7772,0,-1,-1
-49.11,8.56,15.48,1208,2149,7768,0,-1,0
-49.11,8.57,15.47,1213,2154,7758,0,-1,0
-49.12,8.58,15.48,1224,2155,7745,0,-1,0
-49.12,8.59,15.48,1233,2154,7750,-1,-1,0
-49.12,8.59,15.48,1236,2151,7751,-1,-1,0
-49.12,8.59,15.47,1230,2145,7754,-1,-1,0
-49.12,8.60,15.47,1228,2142,7760,-1,-1,0
-49.13,8.60,15.46,1223,2135,7766,-1,-1,0
-49.13,8.60,15.46,1220,2136,7777,0,-1,0
-49.14,8.61,15.47,1231,2132,7767,0,-1,0
-49.14,8.62,15.47,1230,2146,7756,0,-1,-1
-49.14,8.62,15.47,1222,2153,7755,0,-1,0
-49.14,8.62,15.47,1224,2152,7754,-1,-1,0
-49.14,8.62,15.47,1225,2144,7760,0,-1,0
-49.14,8.63,15.48,1221,2146,7756,0,-1,0
-49.15,8.63,15.48,1223,2154,7765,0,-1,0
-49.15,8.64,15.48,1228,2152,7758,-1,-1,0
-49.15,8.65,15.48,1231,2152,7756,-1,-1,0
-49.15,8.65,15.48,1232,2149,7753,-1,-1,0
-49.16,8.65,15.47,1237,2137,7760,-1,-1,0
-49.16,8.66,15.46,1234,2131,7770,0,-1,-1
-49.16,8.66,15.46,1226,2137,7756,0,-1,0
-49.16,8.67,15.47,1226,2136,7763,0,-1,0
-49.16,8.67,15.47,1231,2147,7758,0,-1,-1
-49.16,8.68,15.46,1234,2148,7761,-1,-1,0
-49.17,8.68,15.46,1237,2139,7760,-1,-1,0
-49.17,8.69,15.46,1241,2133,7756,0,-1,0
-49.17,8.70,15.46,1245,2138,7758,0,-1,-1
-49.16,8.70,15.47,1241,2146,7764,0,-1,-1
-49.16,8.69,15.47,1236,2161,7768,0,0,0
-49.17,8.70,15.47,1225,2167,7765,-1,-1,0
-49.18,8.70,15.47,1222,2154,7765,-1,-1,0
-49.18,8.72,15.46,1237,2139,7767,-1,-1,0
-49.18,8.73,15.46,1241,2133,7760,0,-1,0
-49.18,8.73,15.45,1248,2132,7760,0,-1,-1
-49.18,8.73,15.45,1250,2133,7760,-1,-1,-1
-49.18,8.73,15.45,1245,2123,7751,0,-1,0
-49.18,8.74,15.46,1246,2128,7755,0,-1,-1
-49.18,8.74,15.47,1237,2137,7750,0,-1,-1
-49.19,8.74,15.47,1235,2145,7754,0,-1,0
-49.19,8.75,15.48,1239,2154,7754,0,-1,0
-49.19,8.76,15.48,1259,2147,7743,0,-1,0
-49.20,8.77,15.48,1258,2152,7747,-1,-1,0
-49.20,8.77,15.47,1241,2130,7735,-1,-1,0
-49.21,8.77,15.47,1255,2128,7749,0,0,0
-49.21,8.77,15.47,1251,2146,7751,0,0,0
-49.22,8.77,15.47,1238,2170,7749,-1,-1,0
-49.22,8.78,15.47,1237,2154,7757,-1,-1,0
-49.23,8.79,15.45,1241,2136,7753,-1,-1,0
-49.23,8.80,15.45,1259,2122,7747,-1,-1,0
-49.23,8.80,15.45,1256,2121,7743,0,-1,-1
-49.23,8.80,15.45,1256,2121,7745,0,-1,-1
-49.23,8.81,15.46,1251,2135,7755,0,-1,-1
-49.23,8.81,15.47,1243,2153,7755,0,-1,0
-49.23,8.81,15.47,1236,2155,7767,0,-1,0
-49.23,8.81,15.47,1239,2161,7766,-1,-1,0
-49.24,8.82,15.48,1244,2156,7764,-1,-1,0
-49.25,8.83,15.46,1254,2145,7753,-1,-1,0
-49.25,8.84,15.47,1260,2141,7750,0,-1,0
-49.25,8.84,15.47,1262,2148,7745,0,-1,0
-49.25,8.84,15.47,1257,2145,7760,0,-1,0
-49.25,8.84,15.47,1250,2140,7764,-1,-1,0
-49.26,8.85,15.46,1250,2141,7765,0,-1,0
-49.26,8.85,15.47,1253,2136,7770,0,-1,0
-49.26,8.86,15.47,1258,2134,7759,0,-1,0
-49.26,8.87,15.47,1264,2134,7747,0,-1,-1
-49.26,8.87,15.48,1267,2146,7751,0,0,0
-49.26,8.87,15.48,1266,2152,7744,0,-1,0
-49.27,8.87,15.48,1251,2155,7759,-1,0,0
-49.27,8.88,15.47,1251,2150,7763,-1,-1,0
-49.28,8.89,15.47,1254,2144,7757,0,-1,0
-49.28,8.89,15.47,1254,2138,7751,0,-1,0
-49.29,8.90,15.46,1268,2133,7753,-1,-1,0
-49.29,8.91,15.46,1268,2128,7747,0,-1,0
-49.29,8.91,15.46,1272,2122,7748,0,-1,-1
-49.29,8.91,15.46,1265,2116,7750,0,-1,-1
-49.29,8.91,15.47,1254,2128,7754,0,-1,-1
-49.29,8.91,15.47,1253,2140,7743,0,-1,0
-49.29,8.92,15.48,1258,2148,7744,0,-1,0
-49.30,8.92,15.48,1269,2151,7743,-1,-1,0
-49.30,8.93,15.48,1274,2145,7741,-1,-1,0
-49.30,8.94,15.47,1268,2149,7746,-1,-1,0
-49.30,8.94,15.47,1265,2142,7751,-1,-1,0
-49.32,8.94,15.47,1263,2136,7754,-1,-1,0
-49.32,8.94,15.47,1264,2135,7758,-1,-1,0
-49.32,8.94,15.47,1268,2136,7751,-1,-1,0
-49.32,8.95,15.46,1268,2138,7756,0,-1,0
-49.33,8.95,15.47,1269,2136,7749,0,-1,0
-49.33,8.95,15.46,1269,2136,7748,0,-1,0
-49.33,8.96,15.47,1257,2139,7750,0,-1,0
-49.33,8.96,15.48,1257,2140,7751,0,-1,0
-49.33,8.96,15.48,1259,2145,7755,0,-1,0
-49.33,8.96,15.48,1266,2151,7758,0,-1,0
-49.33,8.96,15.49,1268,2161,7751,-1,-1,0
-49.34,8.97,15.48,1267,2154,7746,-1,-1,0
-49.34,8.97,15.48,1266,2143,7734,-1,0,0
-49.35,8.97,15.47,1267,2135,7753,-1,-1,0
-49.35,8.98,15.46,1271,2127,7752,-1,-1,-1
-49.35,8.97,15.45,1260,2131,7762,0,-1,-1
-49.35,8.98,15.46,1261,2135,7762,0,-1,0
-49.35,8.98,15.45,1263,2128,7763,0,-1,0
-49.35,8.98,15.46,1270,2130,7752,0,-1,-1
-49.35,8.98,15.46,1273,2139,7752,0,0,-1
-49.34,8.98,15.47,1271,2150,7746,0,0,-1
-49.34,8.97,15.46,1269,2155,7752,-1,0,-1
-49.34,8.97,15.46,1263,2150,7756,-1,-1,0
-49.34,8.97,15.46,1263,2151,7756,-1,-1,0
-49.34,8.97,15.46,1268,2151,7753,-1,-1,-1
-49.34,8.97,15.46,1278,2146,7753,-1,-1,0
-49.34,8.97,15.45,1280,2134,7751,-1,0,-1
-49.34,8.97,15.45,1270,2127,7751,0,0,-1
-49.34,8.96,15.45,1267,2130,7757,0,0,-1
-49.33,8.96,15.46,1267,2138,7762,0,0,-1
-49.33,8.96,15.46,1263,2151,7758,0,-1,-1
-49.33,8.95,15.46,1265,2154,7753,0,-1,-1
-49.33,8.96,15.47,1268,2153,7754,0,-1,-1
-49.33,8.96,15.46,1269,2141,7754,0,0,-1
-49.33,8.95,15.47,1269,2147,7757,0,0,-1
-49.32,8.95,15.47,1269,2152,7758,0,0,-1
-49.32,8.94,15.47,1264,2150,7760,-1,0,-1
-49.32,8.93,15.46,1259,2153,7763,-1,0,-1
-49.32,8.94,15.46,1264,2146,7764,-1,0,-1
-49.32,8.93,15.46,1267,2138,7760,-1,-1,-1
-49.32,8.93,15.46,1262,2134,7750,0,0,-1
-49.31,8.93,15.46,1271,2132,7748,0,0,-1
-49.31,8.93,15.46,1270,2134,7746,0,0,-1
-49.31,8.92,15.46,1271,2137,7749,0,0,-1
-49.31,8.92,15.46,1268,2136,7755,0,0,-1
-49.30,8.92,15.47,1265,2143,7761,0,0,-1
-49.30,8.91,15.47,1261,2147,7757,0,0,-1
-49.30,8.91,15.47,1263,2144,7753,0,0,-1
-49.30,8.91,15.48,1256,2156,7746,-1,0,-1
-49.30,8.91,15.47,1262,2152,7746,-1,0,-1
-49.30,8.90,15.47,1268,2146,7757,-1,0,-1
-49.29,8.89,15.46,1266,2139,7757,-1,0,-1
-49.29,8.89,15.46,1257,2130,7759,0,0,-1
-49.30,8.88,15.46,1258,2130,7757,0,0,-1
-49.29,8.88,15.46,1256,2130,7762,0,0,-1
-49.29,8.88,15.46,1249,2130,7759,0,0,-1
-49.29,8.87,15.46,1253,2135,7755,0,0,-1
-49.29,8.86,15.47,1253,2146,7756,0,0,-1
-49.28,8.86,15.47,1245,2160,7744,0,0,-1
-49.27,8.85,15.48,1249,2161,7751,-1,0,-1
-49.28,8.84,15.47,1243,2155,7756,-1,0,-1
-49.28,8.84,15.47,1243,2145,7750,-1,0,-1
-49.28,8.83,15.47,1251,2136,7755,0,0,-1
-49.27,8.83,15.46,1262,2141,7758,-1,0,-1
-49.27,8.82,15.47,1239,2156,7753,-1,0,-1
-49.27,8.82,15.46,1244,2140,7748,-1,0,-1
-49.26,8.81,15.46,1241,2137,7743,0,0,-1
-49.26,8.80,15.46,1242,2138,7759,0,0,-1
-49.25,8.80,15.46,1246,2136,7760,0,0,-1
-49.25,8.79,15.47,1238,2146,7755,0,0,-1
-49.24,8.78,15.48,1228,2153,7751,0,0,-1
-49.24,8.78,15.47,1234,2150,7753,0,0,-1
-49.23,8.77,15.48,1244,2166,7754,-1,0,-1
-49.22,8.76,15.48,1245,2152,7748,-1,0,-1
-49.23,8.76,15.47,1237,2135,7750,-1,0,-1
-49.22,8.75,15.47,1244,2131,7752,0,0,-1
-49.22,8.74,15.47,1234,2138,7767,0,0,-1
-49.21,8.73,15.47,1229,2139,7771,-1,0,-1
-49.21,8.73,15.47,1234,2127,7764,0,0,-1
-49.21,8.73,15.48,1241,2132,7768,0,0,-1
-49.21,8.72,15.48,1226,2131,7755,0,0,-1
-49.21,8.70,15.49,1238,2150,7766,0,0,-1
-49.20,8.69,15.50,1212,2156,7759,0,-1,-1
-49.20,8.69,15.50,1251,2148,7766,0,0,-1
-49.20,8.66,15.51,1216,2171,7761,-1,0,-1
-49.20,8.66,15.50,1213,2166,7770,-1,0,-1
-49.20,8.65,15.50,1221,2155,7765,0,0,-1
-49.19,8.64,15.50,1192,2163,7759,-1,-1,0
-49.20,8.64,15.49,1229,2142,7753,-1,0,0
-49.20,8.63,15.48,1217,2153,7757,-1,0,-1
-49.20,8.63,15.47,1220,2135,7763,-1,0,0
-49.20,8.62,15.46,1224,2123,7770,-1,0,-1
-49.20,8.61,15.46,1221,2131,7762,0,0,-1
-49.20,8.60,15.47,1215,2149,7763,-1,0,-1
-49.20,8.60,15.46,1212,2141,7763,-1,0,-1
-49.20,8.59,15.46,1208,2139,7778,-1,0,-1
-49.20,8.59,15.46,1207,2143,7758,-1,0,-1
-49.19,8.59,15.46,1211,2145,7755,-1,0,-1
-49.19,8.58,15.45,1216,2146,7757,-1,0,-1
-49.19,8.58,15.45,1213,2148,7755,-1,0,0
-49.20,8.58,15.45,1211,2140,7761,-1,0,-1
-49.19,8.58,15.45,1207,2147,7774,0,0,-1
-49.19,8.57,15.45,1207,2153,7780,-1,-1,-1
-49.19,8.57,15.44,1217,2141,7776,-1,-1,0
-49.19,8.57,15.44,1215,2135,7754,-1,-1,0
-49.19,8.58,15.44,1213,2131,7767,0,-1,-1
-49.19,8.58,15.44,1215,2138,7760,0,-1,-1
-49.19,8.58,15.45,1209,2152,7765,0,-1,-1
-49.18,8.58,15.46,1205,2161,7764,0,-1,-1
-49.18,8.58,15.46,1205,2163,7761,-1,-1,-1
-49.18,8.59,15.46,1204,2157,7771,-1,-1,0
-49.18,8.59,15.45,1213,2140,7772,-1,-1,0
-49.18,8.60,15.45,1219,2135,7766,0,-1,0
-49.19,8.61,15.46,1220,2140,7753,0,-1,0
-49.19,8.62,15.45,1224,2140,7750,-1,-1,0
-49.20,8.62,15.45,1225,2132,7748,0,-1,0
-49.20,8.62,15.45,1211,2127,7759,0,-1,-1
-49.20,8.62,15.45,1205,2138,7776,0,-1,-1
-49.19,8.62,15.46,1201,2144,7781,0,-1,0
-49.19,8.62,15.46,1206,2146,7777,0,-1,0
-49.20,8.63,15.47,1215,2148,7771,0,-1,0
-49.20,8.64,15.46,1221,2146,7751,0,-1,0
-49.20,8.65,15.47,1226,2146,7746,-1,-1,0
-49.20,8.65,15.47,1221,2154,7757,-1,-1,0
-49.21,8.65,15.47,1224,2149,7758,-1,-1,0
-49.22,8.66,15.47,1225,2148,7759,-1,-1,-1
-49.22,8.66,15.46,1227,2151,7764,-1,-1,0
-49.22,8.67,15.46,1229,2149,7757,0,-1,0
-49.22,8.68,15.46,1225,2139,7759,0,-1,0
-49.22,8.68,15.45,1231,2139,7762,-1,-1,0
-49.22,8.68,15.45,1218,2143,7757,0,-1,-1
-49.22,8.68,15.46,1211,2139,7754,0,-1,0
-49.23,8.69,15.47,1218,2151,7761,0,-1,0
-49.23,8.70,15.47,1235,2163,7766,0,-1,-1
-49.23,8.70,15.47,1223,2169,7762,-1,-1,0
-49.23,8.70,15.46,1216,2143,7752,-1,-1,0
-49.23,8.71,15.45,1219,2131,7749,0,-1,0
-49.23,8.72,15.46,1234,2144,7758,0,-1,-1
-49.23,8.72,15.46,1231,2144,7763,-1,-1,0
-49.23,8.72,15.45,1229,2131,7767,0,-1,-1
-49.23,8.72,15.45,1216,2131,7776,0,-1,0
-49.25,8.73,15.45,1217,2132,7772,0,-1,0
-49.25,8.74,15.45,1222,2130,7759,0,-1,0
-49.24,8.74,15.46,1242,2147,7760,0,0,-1
-49.24,8.74,15.47,1232,2161,7757,-1,-1,0
-49.25,8.74,15.46,1233,2152,7745,-1,-1,0
-49.25,8.75,15.45,1241,2139,7751,0,-1,0
-49.26,8.74,15.46,1231,2148,7751,0,-1,0
-49.26,8.75,15.46,1240,2152,7750,-1,-1,0
-49.26,8.76,15.46,1237,2144,7763,-1,-1,0
-49.26,8.76,15.46,1233,2153,7749,-1,-1,0
-49.27,8.76,15.46,1230,2144,7752,-1,-1,0
-49.27,8.76,15.45,1233,2131,7755,-1,-1,0
-49.28,8.77,15.44,1238,2133,7756,0,-1,0
-49.28,8.78,15.45,1251,2143,7754,0,-1,0
-49.28,8.78,15.45,1250,2148,7762,0,-1,0
-49.28,8.78,15.45,1245,2154,7756,0,0,0
-49.28,8.78,15.46,1232,2153,7758,-1,-1,0
-49.29,8.78,15.45,1227,2145,7764,0,-1,0
-49.29,8.80,15.46,1236,2148,7760,0,-1,0
-49.29,8.81,15.46,1244,2147,7750,-1,-1,0
-49.30,8.82,15.46,1255,2135,7749,-1,-1,0
-49.30,8.82,15.45,1253,2122,7747,0,-1,0
-49.31,8.82,15.45,1243,2118,7748,0,-1,0
-49.31,8.82,15.45,1231,2124,7758,0,-1,0
-49.31,8.82,15.45,1228,2132,7760,0,-1,0
-49.30,8.83,15.46,1228,2152,7759,0,-1,0
-49.31,8.83,15.45,1239,2153,7752,0,-1,0
-49.31,8.84,15.46,1250,2150,7744,-1,-1,0
-49.31,8.85,15.46,1250,2149,7745,-1,-1,0
-49.32,8.85,15.45,1242,2143,7745,-1,-1,0
-49.32,8.85,15.45,1238,2148,7748,0,-1,-1
-49.32,8.85,15.45,1240,2138,7759,-1,-1,0
-49.32,8.86,15.44,1249,2138,7760,-1,-1,-1
-49.32,8.86,15.44,1247,2130,7764,-1,-1,0
-49.32,8.87,15.44,1245,2123,7756,0,-1,0
-49.32,8.88,15.45,1257,2119,7748,0,-1,-1
-49.32,8.89,15.45,1254,2139,7757,0,-1,-1
-49.32,8.89,15.45,1240,2141,7751,-1,-1,0
-49.33,8.90,15.46,1249,2133,7752,0,-1,0
-49.32,8.90,15.46,1255,2152,7765,0,0,0
-49.32,8.89,15.47,1242,2156,7768,-1,-1,0
-49.34,8.91,15.47,1264,2135,7751,0,-1,0
-49.33,8.92,15.47,1270,2158,7754,0,0,0
-49.33,8.92,15.48,1254,2164,7753,-1,-1,0
-49.34,8.92,15.47,1272,2139,7751,-1,-1,-1
-49.34,8.92,15.46,1262,2134,7758,0,0,0
-49.35,8.92,15.46,1252,2140,7760,-1,-1,0
-49.35,8.93,15.46,1264,2127,7762,0,-1,-1
-49.35,8.92,15.46,1247,2146,7756,0,0,-1
-49.35,8.94,15.47,1258,2144,7745,0,-1,0
-49.35,8.94,15.47,1262,2157,7744,0,-1,0
-49.35,8.94,15.47,1261,2156,7744,-1,-1,0
-49.36,8.94,15.47,1271,2148,7742,-1,0,0
-49.36,8.94,15.47,1264,2135,7743,0,0,0
-49.37,8.94,15.47,1253,2142,7750,-1,-1,0
-49.37,8.94,15.47,1256,2142,7752,-1,-1,0
-49.37,8.94,15.46,1257,2143,7765,-1,-1,0
-49.37,8.95,15.46,1258,2139,7764,0,-1,0
-49.38,8.95,15.46,1265,2137,7745,0,-1,0
-49.38,8.96,15.47,1270,2145,7746,0,-1,0
-49.38,8.96,15.47,1267,2154,7748,0,0,0
-49.38,8.96,15.47,1265,2152,7745,-1,-1,0
-49.39,8.96,15.47,1262,2144,7753,0,-1,0
-49.40,8.97,15.46,1264,2133,7753,0,-1,0
-49.41,8.97,15.47,1268,2136,7751,0,-1,0
-49.41,8.98,15.47,1277,2145,7746,0,-1,0
-49.41,8.99,15.48,1281,2145,7745,-1,0,0
-49.41,8.99,15.48,1276,2142,7750,0,0,0
-49.42,8.99,15.47,1275,2130,7753,0,-1,0
-49.42,8.99,15.48,1260,2136,7757,0,-1,0
-49.42,8.99,15.48,1262,2146,7755,0,-1,0
-49.42,8.99,15.49,1268,2144,7760,0,-1,0
-49.43,9.00,15.49,1275,2160,7744,0,-1,0
-49.43,9.01,15.49,1270,2156,7750,-1,-1,0
-49.43,9.01,15.48,1273,2148,7751,-1,-1,0
-49.44,9.01,15.48,1269,2154,7749,-1,-1,0
-49.43,9.01,15.49,1270,2150,7752,-1,-1,0
-49.44,9.02,15.49,1280,2149,7762,0,-1,0
-49.44,9.03,15.48,1280,2148,7763,-1,-1,0
-49.44,9.03,15.48,1278,2150,7761,-1,-1,-1
-49.44,9.02,15.49,1283,2148,7751,0,0,-1
-49.44,9.02,15.49,1275,2140,7751,0,0,-1
-49.43,9.01,15.49,1282,2151,7759,0,0,-1
-49.43,9.01,15.49,1268,2156,7759,0,0,-1
-49.43,9.01,15.49,1274,2149,7751,-1,-1,-1
-49.43,9.01,15.49,1270,2153,7757,0,-1,-1
-49.43,9.01,15.49,1268,2141,7752,0,-1,-1
-49.43,9.01,15.49,1275,2139,7736,-1,0,0
-49.43,9.01,15.49,1275,2135,7734,0,0,-1
-49.42,9.01,15.48,1271,2130,7736,0,0,-1
-49.42,9.00,15.49,1268,2137,7750,-1,0,-1
-49.42,9.00,15.48,1270,2144,7758,-1,0,-1
-49.42,9.00,15.48,1271,2146,7762,0,0,-1
-49.42,8.99,15.48,1274,2142,7760,-1,-1,-1
-49.42,8.99,15.48,1273,2137,7757,0,0,-1
-49.41,8.99,15.47,1269,2136,7746,0,-1,-1
-49.41,8.99,15.48,1271,2145,7745,0,0,-1
-49.41,8.99,15.48,1276,2149,7748,0,-1,-1
-49.40,8.99,15.49,1270,2149,7748,0,0,-1
-49.40,8.98,15.49,1272,2147,7751,-1,0,0
-49.40,8.98,15.49,1265,2149,7752,0,0,-1
-49.40,8.97,15.49,1250,2155,7745,-1,0,-1
-49.39,8.96,15.49,1244,2158,7745,-1,-1,-1
-49.39,8.97,15.49,1253,2146,7748,-1,-1,-1
-49.39,8.97,15.49,1270,2152,7754,-1,0,-1
-49.39,8.96,15.48,1266,2149,7756,-1,0,-1
-49.39,8.96,15.48,1275,2130,7750,-1,0,-1
-49.38,8.96,15.47,1278,2119,7752,0,0,-1
-49.37,8.95,15.48,1267,2135,7761,0,0,-1
-49.37,8.93,15.49,1257,2144,7761,0,0,-1
-49.36,8.93,15.49,1255,2150,7768,0,0,-1
-49.36,8.92,15.49,1243,2154,7762,-1,0,0
-49.36,8.92,15.48,1260,2144,7752,-1,-1,0
-49.36,8.92,15.48,1258,2139,7744,0,0,-1
-49.36,8.92,15.49,1268,2141,7738,-1,0,-1
-49.36,8.92,15.49,1270,2148,7750,0,0,-1
-49.36,8.90,15.49,1251,2151,7752,-1,0,-1
-49.36,8.90,15.49,1252,2151,7762,-1,0,0
-49.36,8.90,15.48,1257,2139,7763,-1,0,0
-49.36,8.90,15.48,1254,2134,7773,-1,0,0
-49.36,8.89,15.48,1249,2126,7759,0,0,-1
-49.36,8.89,15.48,1260,2131,7752,0,0,-1
-49.35,8.88,15.48,1262,2144,7754,0,0,-1
-49.35,8.87,15.48,1252,2140,7751,0,0,-1
-49.35,8.86,15.48,1248,2141,7753,0,0,-1
-49.35,8.86,15.48,1248,2150,7752,0,0,-1
-49.34,8.85,15.49,1249,2153,7747,0,0,-1
-49.34,8.85,15.49,1251,2155,7755,0,0,-1
-49.34,8.85,15.49,1250,2157,7758,-1,0,-1
-49.34,8.84,15.49,1247,2150,7756,-1,0,-1
-49.34,8.84,15.47,1247,2137,7753,-1,0,-1
-49.34,8.83,15.48,1245,2136,7752,0,0,-1
-49.32,8.83,15.48,1239,2145,7760,0,0,-1
-49.32,8.82,15.48,1236,2137,7767,0,0,-1
-49.32,8.82,15.48,1234,2136,7756,0,-1,-1
-49.32,8.82,15.49,1239,2137,7764,0,0,-1
-49.32,8.82,15.50,1249,2146,7756,0,0,-1
-49.31,8.81,15.51,1244,2158,7744,0,0,-1
-49.31,8.80,15.52,1242,2167,7753,0,0,-1
-49.31,8.79,15.52,1233,2176,7765,-1,0,-1
-49.30,8.78,15.52,1233,2162,7771,0,0,-1
-49.30,8.77,15.51,1227,2146,7754,0,0,-1
-49.30,8.76,15.52,1223,2155,7759,-1,0,-1
-49.30,8.76,15.52,1230,2139,7760,0,-1,0
-49.30,8.75,15.52,1254,2139,7757,0,0,-1
-49.30,8.72,15.53,1240,2151,7755,0,0,-1
-49.31,8.71,15.54,1245,2139,7765,0,0,-1
-49.30,8.67,15.57,1226,2153,7752,0,1,0
-49.30,8.64,15.60,1196,2177,7778,0,0,0
-49.31,8.63,15.61,1218,2178,7757,0,0,0
-49.32,8.61,15.61,1229,2158,7746,0,0,0
-49.32,8.60,15.63,1222,2167,7730,0,0,-1
-49.31,8.58,15.64,1190,2200,7737,-1,0,-1
-49.31,8.58,15.62,1213,2151,7714,0,-1,0
-49.32,8.56,15.62,1217,2182,7746,-1,0,-1
-49.31,8.55,15.63,1183,2178,7745,-1,0,-1
-49.31,8.54,15.62,1221,2159,7750,-1,0,-1
-49.31,8.53,15.62,1207,2159,7759,0,0,0
-49.31,8.52,15.61,1202,2146,7751,0,0,-1
-49.31,8.52,15.62,1203,2152,7745,0,0,-1
-49.30,8.51,15.64,1208,2173,7736,-1,0,0
-49.31,8.50,15.63,1199,2144,7746,0,0,-1
-49.31,8.49,15.64,1200,2174,7741,0,0,-1
-49.30,8.48,15.65,1169,2191,7741,0,-1,-1
-49.30,8.48,15.65,1200,2193,7735,-1,0,-1
-49.29,8.49,15.64,1195,2183,7743,-1,0,-1
-49.31,8.48,15.63,1190,2163,7745,-1,0,0
-49.30,8.48,15.61,1199,2144,7763,-1,-1,0
-49.30,8.48,15.62,1202,2170,7764,0,0,-1
-49.30,8.48,15.62,1172,2164,7767,-1,-1,0
-49.30,8.49,15.62,1213,2165,7760,0,0,-1
-49.30,8.48,15.60,1174,2178,7764,-1,-1,-1
-49.30,8.50,15.58,1210,2142,7763,-1,-1,0
-49.30,8.51,15.57,1203,2125,7767,-1,-1,-1
-49.30,8.51,15.57,1191,2135,7748,0,-1,-1
-49.28,8.52,15.58,1200,2171,7741,-1,-1,-1
-49.28,8.52,15.58,1202,2191,7742,-1,-1,-1
-49.27,8.53,15.57,1198,2199,7761,-1,-1,0
-49.27,8.53,15.56,1186,2182,7760,-1,-1,0
-49.29,8.54,15.54,1189,2157,7773,-1,-1,0
-49.29,8.56,15.53,1200,2132,7764,0,-1,0
-49.29,8.58,15.53,1216,2133,7756,0,-1,-1
-49.29,8.59,15.53,1223,2139,7753,-1,-1,-1
-49.29,8.60,15.52,1225,2136,7747,-1,-1,-1
-49.29,8.59,15.52,1205,2138,7762,0,-1,-1
-49.29,8.60,15.53,1199,2147,7770,0,-1,0
-49.29,8.60,15.53,1208,2160,7762,0,-1,-1
-49.29,8.62,15.53,1213,2148,7755,-1,-1,0
-49.29,8.62,15.53,1217,2154,7746,-1,-1,0
-49.30,8.63,15.53,1220,2152,7737,0,-1,0
-49.31,8.64,15.53,1221,2149,7743,-1,-1,0
-49.30,8.64,15.53,1214,2164,7751,-1,-1,0
-49.30,8.65,15.53,1212,2166,7753,-1,-1,0
-49.31,8.65,15.53,1216,2159,7754,-1,-1,0
-49.31,8.66,15.52,1225,2155,7755,-1,-1,0
-49.31,8.67,15.51,1228,2143,7757,-1,-1,0
-49.32,8.68,15.51,1232,2135,7759,0,-1,0
-49.32,8.68,15.51,1221,2139,7753,0,-1,0
-49.32,8.69,15.51,1222,2148,7754,0,-1,0
-49.32,8.69,15.51,1223,2154,7757,0,-1,0
-49.32,8.69,15.51,1217,2152,7759,0,-1,0
-49.32,8.69,15.52,1211,2158,7756,0,-1,0
-49.32,8.70,15.51,1212,2156,7754,-1,-1,0
-49.33,8.70,15.52,1222,2154,7746,-1,-1,0
-49.33,8.71,15.52,1226,2160,7744,-1,-1,0
-49.34,8.71,15.52,1225,2152,7740,-1,-1,0
-49.34,8.71,15.51,1232,2147,7754,-1,-1,0
-49.34,8.72,15.50,1222,2144,7747,-1,-1,0
-49.34,8.72,15.50,1222,2141,7753,-1,-1,0
-49.34,8.72,15.50,1221,2141,7758,-1,-1,0
-49.34,8.73,15.49,1219,2146,7765,-1,-1,0
-49.35,8.74,15.49,1221,2139,7763,-1,-1,0
-49.35,8.74,15.49,1230,2136,7759,-1,-1,0
-49.35,8.75,15.49,1235,2138,7752,0,-1,0
-49.36,8.75,15.49,1237,2141,7745,0,-1,0
-49.36,8.75,15.50,1224,2156,7739,0,-1,-1
-49.35,8.76,15.50,1225,2163,7747,-1,-1,0
-49.35,8.76,15.50,1217,2174,7755,-1,-1,0
-49.36,8.76,15.49,1218,2157,7753,-1,-1,0
-49.36,8.77,15.49,1218,2147,7750,-1,-1,0
-49.36,8.78,15.48,1225,2140,7747,-1,-1,0
-49.38,8.79,15.48,1235,2133,7743,-1,-1,0
-49.38,8.79,15.47,1231,2139,7740,-1,-1,0
-49.38,8.79,15.47,1233,2141,7744,-1,-1,0
-49.38,8.80,15.48,1233,2145,7744,0,-1,-1
-49.38,8.80,15.48,1226,2146,7755,0,-1,0
-49.37,8.80,15.48,1226,2152,7759,0,-1,0
-49.37,8.81,15.49,1227,2153,7759,0,-1,0
-49.37,8.81,15.49,1232,2154,7748,0,-1,0
-49.38,8.82,15.49,1238,2156,7752,-1,-1,0
-49.38,8.82,15.49,1243,2156,7758,-1,-1,0
-49.39,8.83,15.49,1238,2161,7756,-1,-1,0
-49.39,8.83,15.48,1234,2145,7763,-1,-1,0
-49.39,8.83,15.48,1231,2144,7770,-1,-1,0
-49.39,8.84,15.47,1232,2143,7763,-1,-1,0
-49.39,8.84,15.47,1233,2141,7767,0,-1,-1
-49.39,8.85,15.47,1243,2142,7762,0,-1,0
-49.39,8.85,15.48,1251,2148,7753,0,0,-1
-49.39,8.84,15.48,1222,2161,7756,-1,-1,-1
-49.39,8.85,15.47,1218,2134,7756,-1,-1,0
-49.39,8.86,15.47,1239,2128,7761,0,-1,0
-49.38,8.86,15.49,1237,2163,7753,0,-1,-1
-49.38,8.87,15.49,1250,2157,7744,-1,-1,-1
-49.39,8.88,15.49,1252,2155,7738,-1,-1,0
-49.40,8.88,15.49,1234,2155,7738,-1,-1,0
-49.40,8.89,15.48,1245,2151,7741,-1,-1,0
-49.40,8.89,15.48,1247,2142,7747,0,-1,-1
-49.40,8.89,15.48,1245,2160,7746,0,-1,-1
-49.40,8.90,15.48,1233,2145,7753,-1,-1,0
-49.40,8.91,15.48,1242,2139,7753,-1,-1,0
-49.41,8.91,15.48,1252,2138,7743,0,-1,0
-49.41,8.92,15.49,1244,2144,7753,0,-1,-1
-49.41,8.92,15.49,1249,2138,7744,0,-1,0
-49.41,8.93,15.49,1244,2144,7758,0,-1,0
-49.42,8.94,15.49,1250,2151,7763,0,-1,0
-49.42,8.94,15.49,1251,2150,7745,0,-1,0
-49.42,8.94,15.50,1256,2163,7742,0,-1,0
-49.42,8.95,15.50,1248,2162,7749,-1,-1,0
-49.42,8.95,15.49,1249,2154,7756,-1,-1,0
-49.43,8.95,15.48,1246,2139,7752,-1,-1,0
-49.44,8.95,15.48,1240,2134,7753,0,-1,0
-49.44,8.96,15.48,1252,2140,7747,0,-1,0
-49.44,8.98,15.48,1260,2138,7743,-1,-1,0
-49.44,8.98,15.47,1263,2135,7747,-1,-1,0
-49.44,8.98,15.47,1257,2133,7733,0,-1,-1
-49.44,8.98,15.48,1258,2130,7746,0,-1,-1
-49.44,8.97,15.48,1237,2145,7763,0,-1,-1
-49.43,8.98,15.50,1235,2148,7752,0,-1,0
-49.44,8.98,15.50,1241,2157,7762,0,-1,0
-49.45,8.99,15.50,1254,2160,7750,0,-1,0
-49.45,8.99,15.51,1253,2153,7738,-1,-1,0
-49.46,9.00,15.51,1272,2151,7736,0,-1,0
-49.46,9.00,15.51,1255,2157,7736,-1,0,0
-49.46,9.00,15.50,1251,2149,7745,-1,-1,0
