Yaw,Pitch,Roll,AX,AY,AZ,GX,GY,GZ
177.91,-3.11,-42.50,-444,-5610,6112,0,-1,-1
177.91,-3.11,-42.50,-440,-5604,6112,0,-1,0
177.91,-3.11,-42.50,-440,-5604,6114,-1,-1,0
177.91,-3.11,-42.50,-442,-5604,6112,0,0,0
177.91,-3.11,-42.50,-446,-5600,6118,0,0,0
177.91,-3.11,-42.50,-451,-5598,6125,-1,0,-1
177.91,-3.11,-42.50,-448,-5599,6128,-1,-1,-1
177.92,-3.11,-42.50,-452,-5602,6110,-1,0,-1
177.92,-3.11,-42.51,-449,-5601,6107,-1,-1,-1
177.92,-3.10,-42.51,-437,-5603,6113,0,-1,-1
177.92,-3.10,-42.50,-435,-5602,6123,0,0,-1
177.92,-3.10,-42.50,-437,-5604,6129,0,0,-1
177.93,-3.10,-42.50,-443,-5602,6127,-1,0,0
177.93,-3.10,-42.50,-439,-5599,6113,-1,0,-1
177.93,-3.09,-42.51,-443,-5605,6101,-1,-1,-1
177.93,-3.09,-42.52,-440,-5617,6098,-1,-1,-1
177.93,-3.09,-42.52,-441,-5611,6107,-1,-1,0
177.93,-3.09,-42.52,-443,-5613,6102,0,0,0
177.93,-3.09,-42.52,-447,-5612,6100,-1,0,0
177.93,-3.10,-42.52,-450,-5611,6101,-1,0,-1
177.94,-3.10,-42.52,-447,-5608,6105,0,0,-1
177.94,-3.09,-42.53,-447,-5605,6105,-1,-1,-1
177.94,-3.09,-42.53,-445,-5603,6107,-1,-1,-1
177.94,-3.09,-42.53,-439,-5602,6107,-1,0,-1
177.94,-3.09,-42.54,-438,-5603,6101,-1,0,0
177.94,-3.09,-42.55,-442,-5602,6102,-1,0,0
177.94,-3.10,-42.55,-446,-5606,6100,-1,0,-1
177.94,-3.10,-42.55,-444,-5607,6111,-1,0,-1
177.94,-3.10,-42.56,-440,-5614,6104,-1,0,-1
177.94,-3.10,-42.56,-443,-5616,6095,0,0,-1
177.94,-3.10,-42.56,-445,-5613,6090,0,0,0
177.95,-3.09,-42.56,-441,-5613,6100,-1,-1,-1
177.95,-3.09,-42.56,-441,-5610,6104,0,0,-1
177.95,-3.09,-42.56,-441,-5604,6119,0,-1,-1
177.95,-3.09,-42.56,-442,-5606,6118,-1,0,-1
177.95,-3.09,-42.56,-442,-5608,6107,-1,0,-1
177.95,-3.09,-42.57,-439,-5613,6108,-1,0,-1
177.96,-3.08,-42.57,-441,-5622,6105,-1,-1,0
177.95,-3.09,-42.57,-447,-5612,6109,0,0,0
177.95,-3.09,-42.57,-443,-5610,6110,-1,0,0
177.95,-3.09,-42.58,-440,-5612,6104,-1,0,0
177.95,-3.09,-42.58,-453,-5623,6103,-1,-1,-1
177.95,-3.09,-42.58,-456,-5629,6102,0,-1,-1
177.95,-3.09,-42.58,-451,-5623,6097,0,-1,-1
177.96,-3.08,-42.58,-446,-5609,6099,0,-1,0
177.96,-3.08,-42.58,-437,-5609,6109,0,0,0
177.96,-3.08,-42.58,-443,-5607,6105,0,0,-1
177.96,-3.08,-42.58,-444,-5607,6115,-1,0,0
177.95,-3.09,-42.58,-448,-5608,6115,-1,0,-1
177.95,-3.09,-42.58,-455,-5612,6100,-1,0,-1
177.95,-3.09,-42.58,-454,-5624,6094,0,-1,-1
177.96,-3.08,-42.58,-445,-5624,6094,0,-1,-1
177.97,-3.08,-42.58,-429,-5620,6099,0,-1,-1
177.97,-3.07,-42.58,-421,-5605,6104,0,-1,0
177.97,-3.07,-42.58,-427,-5604,6106,-1,0,0
177.96,-3.07,-42.58,-431,-5601,6112,-1,0,0
177.96,-3.07,-42.58,-435,-5601,6107,-1,0,0
177.96,-3.07,-42.59,-444,-5610,6102,-1,0,0
177.96,-3.08,-42.60,-447,-5620,6097,-1,-1,0
177.96,-3.08,-42.60,-450,-5623,6091,-1,-1,0
177.96,-3.07,-42.60,-447,-5627,6095,0,-1,0
177.96,-3.07,-42.60,-451,-5622,6098,0,0,-1
177.96,-3.07,-42.60,-446,-5618,6103,0,-1,-1
177.96,-3.07,-42.60,-439,-5610,6108,-1,-1,0
177.96,-3.07,-42.60,-444,-5606,6115,-1,-1,-1
177.96,-3.07,-42.60,-435,-5610,6101,-1,0,-1
177.97,-3.06,-42.61,-432,-5612,6102,-1,0,-1
177.97,-3.07,-42.61,-437,-5613,6117,-1,0,-1
177.97,-3.07,-42.61,-439,-5620,6112,-1,-1,0
177.97,-3.07,-42.61,-440,-5615,6104,-1,0,-1
177.97,-3.07,-42.62,-436,-5610,6077,-1,0,0
177.97,-3.07,-42.61,-437,-5607,6089,0,0,0
177.97,-3.08,-42.62,-446,-5621,6088,0,0,-1
177.97,-3.07,-42.61,-450,-5626,6092,0,0,-1
177.97,-3.07,-42.61,-446,-5626,6094,0,-1,-1
177.97,-3.07,-42.61,-447,-5621,6092,0,-1,-1
177.97,-3.07,-42.61,-445,-5612,6103,0,0,-1
177.98,-3.06,-42.61,-435,-5614,6102,-1,0,-1
177.98,-3.06,-42.62,-436,-5618,6099,-1,0,-1
177.98,-3.06,-42.62,-432,-5616,6096,0,0,-1
177.99,-3.06,-42.62,-429,-5608,6100,-1,0,0
177.98,-3.07,-42.62,-431,-5609,6098,-1,0,-1
177.98,-3.07,-42.62,-438,-5614,6100,-1,0,0
177.98,-3.07,-42.62,-439,-5610,6113,0,0,0
177.98,-3.07,-42.62,-441,-5615,6104,-1,0,0
177.98,-3.07,-42.63,-448,-5618,6093,-1,0,0
177.98,-3.07,-42.64,-448,-5627,6090,-1,0,0
177.98,-3.07,-42.64,-440,-5634,6096,0,0,0
177.98,-3.07,-42.63,-432,-5613,6085,0,0,0
177.98,-3.07,-42.63,-433,-5604,6094,-1,0,0
177.98,-3.08,-42.63,-435,-5605,6107,-1,0,0
177.98,-3.08,-42.63,-446,-5611,6109,-1,0,0
177.98,-3.09,-42.63,-454,-5613,6103,-1,0,0
177.97,-3.09,-42.63,-460,-5617,6112,-1,0,-1
177.97,-3.09,-42.63,-460,-5621,6099,0,-1,-1
177.97,-3.09,-42.63,-452,-5624,6101,0,-1,-1
177.98,-3.09,-42.62,-437,-5623,6095,0,-1,-1
177.98,-3.08,-42.62,-427,-5624,6099,0,-1,0
177.98,-3.08,-42.62,-427,-5620,6106,0,0,0
177.98,-3.08,-42.62,-425,-5614,6110,-1,0,0
177.98,-3.09,-42.62,-434,-5611,6102,-1,0,0
177.98,-3.09,-42.62,-443,-5619,6099,-1,0,0
177.98,-3.09,-42.62,-449,-5619,6098,0,0,-1
177.98,-3.09,-42.62,-450,-5615,6109,0,0,0
177.97,-3.09,-42.62,-445,-5621,6101,0,0,0
177.97,-3.09,-42.61,-457,-5615,6116,0,-1,-1
177.98,-3.09,-42.61,-445,-5623,6114,0,-1,-1
177.98,-3.09,-42.60,-448,-5611,6112,0,0,-1
177.98,-3.09,-42.59,-445,-5612,6104,0,-1,0
177.98,-3.09,-42.59,-447,-5619,6103,0,-1,-1
177.98,-3.09,-42.59,-445,-5618,6106,0,-1,-1
177.98,-3.08,-42.59,-437,-5606,6108,0,-1,-1
177.98,-3.09,-42.59,-442,-5607,6115,-1,-1,0
177.98,-3.09,-42.59,-447,-5606,6110,-1,0,0
177.98,-3.09,-42.59,-451,-5611,6107,-1,0,0
177.98,-3.09,-42.59,-451,-5619,6112,0,-1,0
177.98,-3.09,-42.59,-446,-5617,6117,-1,0,0
177.98,-3.09,-42.59,-449,-5615,6107,0,0,0
177.98,-3.09,-42.58,-450,-5615,6115,0,-1,0
177.98,-3.09,-42.57,-448,-5615,6105,0,0,0
177.98,-3.09,-42.56,-443,-5609,6115,0,0,0
177.98,-3.09,-42.56,-444,-5607,6119,0,0,0
177.98,-3.09,-42.56,-441,-5602,6121,0,0,-1
177.98,-3.09,-42.56,-439,-5606,6110,0,0,0
177.98,-3.09,-42.56,-443,-5607,6110,0,0,0
177.98,-3.09,-42.56,-442,-5615,6111,0,0,-1
177.98,-3.09,-42.56,-436,-5617,6110,0,0,-1
177.98,-3.09,-42.55,-440,-5611,6104,0,0,0
177.98,-3.09,-42.55,-431,-5607,6114,-1,-1,0
177.98,-3.09,-42.55,-434,-5606,6118,-1,0,0
177.97,-3.10,-42.55,-440,-5613,6110,0,0,-1
177.98,-3.10,-42.55,-444,-5624,6106,0,0,-1
177.98,-3.10,-42.54,-448,-5616,6108,0,-1,-1
177.98,-3.10,-42.53,-450,-5607,6107,0,-1,0
177.98,-3.09,-42.53,-446,-5600,6098,0,-1,0
177.97,-3.10,-42.53,-443,-5606,6098,0,0,0
177.97,-3.10,-42.53,-449,-5609,6109,0,0,0
177.97,-3.10,-42.53,-450,-5606,6103,0,0,0
177.97,-3.11,-42.53,-451,-5604,6095,0,0,-1
177.97,-3.11,-42.53,-450,-5604,6099,-1,-1,-1
177.98,-3.10,-42.53,-445,-5612,6103,0,-1,-1
177.97,-3.10,-42.52,-442,-5613,6109,0,-1,0
177.97,-3.10,-42.52,-444,-5610,6105,0,0,0
177.97,-3.10,-42.52,-440,-5608,6104,0,-1,0
177.97,-3.10,-42.52,-436,-5602,6104,0,-1,0
177.97,-3.10,-42.52,-435,-5601,6104,-1,0,0
177.97,-3.11,-42.52,-440,-5603,6100,0,0,0
177.96,-3.11,-42.52,-451,-5605,6102,0,0,0
177.97,-3.11,-42.51,-455,-5608,6105,0,0,0
177.96,-3.12,-42.51,-454,-5610,6107,0,0,0
177.96,-3.12,-42.51,-451,-5614,6110,0,0,0
177.96,-3.12,-42.50,-456,-5611,6110,0,-1,0
177.96,-3.12,-42.50,-456,-5607,6107,0,0,0
177.96,-3.12,-42.49,-455,-5604,6115,0,0,-1
177.96,-3.12,-42.48,-448,-5593,6123,0,-1,-1
177.96,-3.12,-42.48,-448,-5598,6122,0,0,0
177.96,-3.12,-42.47,-453,-5589,6109,0,-1,0
177.96,-3.12,-42.47,-452,-5603,6114,0,-1,0
177.96,-3.12,-42.47,-445,-5601,6108,0,0,0
177.96,-3.12,-42.47,-442,-5599,6112,0,0,0
177.96,-3.12,-42.47,-447,-5605,6116,0,0,0
177.95,-3.13,-42.47,-458,-5599,6124,0,0,0
177.95,-3.13,-42.47,-456,-5598,6123,0,0,0
177.95,-3.13,-42.46,-458,-5604,6123,0,-1,0
177.95,-3.13,-42.46,-453,-5604,6122,0,0,0
177.95,-3.13,-42.46,-460,-5604,6118,0,-1,0
177.95,-3.13,-42.45,-453,-5598,6123,0,0,0
177.95,-3.13,-42.45,-452,-5598,6112,0,0,0
177.95,-3.13,-42.45,-453,-5595,6122,0,0,0
177.95,-3.13,-42.45,-448,-5594,6120,0,0,0
177.94,-3.14,-42.44,-444,-5598,6119,-1,0,0
177.95,-3.13,-42.44,-448,-5605,6119,0,-1,0
177.95,-3.13,-42.44,-448,-5589,6119,0,-1,0
177.95,-3.13,-42.44,-449,-5591,6116,0,0,0
177.94,-3.14,-42.44,-449,-5596,6112,0,0,0
177.94,-3.14,-42.43,-447,-5600,6124,0,0,-1
177.95,-3.13,-42.43,-453,-5597,6125,0,-1,-1
177.95,-3.13,-42.42,-448,-5588,6117,0,-1,0
177.94,-3.14,-42.42,-449,-5587,6110,-1,-1,0
177.94,-3.14,-42.42,-451,-5596,6109,0,0,0
177.94,-3.14,-42.42,-461,-5600,6116,0,0,-1
177.94,-3.14,-42.41,-459,-5598,6117,0,0,-1
177.94,-3.14,-42.41,-462,-5599,6123,0,-1,-1
177.94,-3.14,-42.41,-463,-5598,6117,0,-1,-1
177.94,-3.14,-42.41,-453,-5593,6126,0,-1,-1
177.94,-3.13,-42.41,-452,-5589,6119,0,-1,-1
177.95,-3.13,-42.41,-449,-5593,6120,0,0,-1
177.95,-3.13,-42.41,-443,-5584,6119,-1,-1,0
177.95,-3.12,-42.41,-438,-5584,6133,-1,0,0
177.95,-3.12,-42.41,-444,-5597,6127,-1,0,0
177.95,-3.12,-42.42,-449,-5597,6120,-1,0,-1
177.95,-3.12,-42.43,-455,-5604,6123,-1,-1,-1
177.95,-3.12,-42.43,-450,-5601,6115,-1,-1,-1
177.95,-3.11,-42.43,-445,-5600,6114,-1,-1,-1
177.95,-3.11,-42.43,-450,-5587,6109,-1,0,0
177.95,-3.11,-42.43,-453,-5591,6113,-1,0,-1
177.95,-3.11,-42.43,-445,-5598,6112,0,0,-1
177.96,-3.11,-42.44,-451,-5602,6127,-1,-1,-1
177.96,-3.11,-42.44,-448,-5605,6119,-1,0,-1
177.96,-3.11,-42.44,-450,-5599,6116,-1,-1,-1
177.96,-3.10,-42.45,-445,-5594,6119,-1,-1,0
177.96,-3.10,-42.45,-440,-5598,6123,-1,-1,0
177.96,-3.10,-42.46,-439,-5591,6111,-1,-1,-1
177.96,-3.10,-42.47,-444,-5594,6106,-1,-1,0
177.96,-3.10,-42.47,-440,-5606,6097,-1,0,0
177.96,-3.10,-42.47,-443,-5602,6109,-1,0,-1
177.96,-3.10,-42.47,-451,-5597,6119,-1,-1,0
177.96,-3.10,-42.48,-449,-5602,6118,-1,-1,0
177.96,-3.10,-42.49,-456,-5601,6112,-1,-1,-1
177.96,-3.10,-42.49,-447,-5602,6121,-1,-1,-1
177.97,-3.09,-42.49,-446,-5602,6121,-1,-1,-1
177.97,-3.09,-42.49,-443,-5598,6117,-1,0,-1
177.97,-3.09,-42.49,-444,-5595,6112,-1,0,0
177.97,-3.09,-42.50,-446,-5593,6116,-1,0,0
177.97,-3.09,-42.50,-440,-5590,6123,-1,0,-1
177.97,-3.09,-42.51,-442,-5602,6125,-1,0,-1
177.97,-3.09,-42.52,-451,-5614,6116,-1,0,-1
177.98,-3.09,-42.53,-450,-5617,6105,0,-1,-1
177.98,-3.09,-42.52,-441,-5598,6104,0,-1,-1
177.98,-3.08,-42.52,-443,-5600,6102,-1,-1,0
177.98,-3.09,-42.52,-444,-5602,6100,-1,0,0
177.98,-3.09,-42.53,-452,-5609,6109,-1,0,0
177.98,-3.09,-42.53,-455,-5602,6108,-1,0,-1
177.98,-3.09,-42.53,-449,-5602,6114,-1,0,-1
177.98,-3.09,-42.54,-440,-5606,6097,-1,0,-1
177.98,-3.09,-42.54,-445,-5612,6104,-1,-1,-1
177.99,-3.08,-42.54,-438,-5606,6110,0,-1,-1
177.99,-3.08,-42.53,-443,-5594,6114,0,-1,-1
177.99,-3.08,-42.53,-440,-5590,6109,-1,-1,0
177.99,-3.08,-42.54,-435,-5596,6114,-1,-1,0
178.00,-3.07,-42.54,-429,-5601,6117,-1,-1,-1
178.00,-3.07,-42.55,-433,-5600,6119,-1,0,0
177.99,-3.08,-42.55,-442,-5607,6124,-1,-1,0
177.99,-3.08,-42.55,-442,-5601,6117,-1,0,-1
178.00,-3.07,-42.56,-448,-5606,6111,-1,0,-1
178.00,-3.07,-42.56,-447,-5608,6107,-1,0,-1
178.00,-3.07,-42.56,-446,-5611,6101,-1,-1,-1
178.00,-3.07,-42.56,-445,-5607,6105,-1,0,-1
178.00,-3.07,-42.57,-446,-5617,6103,0,-1,-1
178.00,-3.07,-42.57,-436,-5616,6105,-1,-1,-1
178.01,-3.06,-42.57,-432,-5609,6104,-1,-1,-1
178.01,-3.06,-42.57,-429,-5605,6106,-1,0,-1
178.01,-3.06,-42.58,-430,-5597,6112,-1,0,0
178.01,-3.06,-42.59,-433,-5605,6104,-1,0,0
178.01,-3.06,-42.59,-441,-5612,6103,-1,0,-1
178.01,-3.06,-42.60,-445,-5613,6096,-1,0,-1
178.01,-3.06,-42.60,-447,-5620,6097,-1,0,-1
178.01,-3.06,-42.60,-444,-5623,6107,0,-1,0
178.01,-3.06,-42.60,-446,-5622,6102,0,-1,-1
178.01,-3.06,-42.60,-448,-5617,6106,-1,-1,-1
178.01,-3.06,-42.60,-448,-5610,6112,-1,0,-1
178.01,-3.06,-42.60,-440,-5605,6108,-1,0,-1
178.01,-3.06,-42.60,-432,-5599,6109,-1,0,0
178.02,-3.05,-42.61,-433,-5603,6103,-1,0,0
178.02,-3.05,-42.61,-438,-5601,6106,-1,-1,0
178.02,-3.05,-42.61,-437,-5604,6120,0,-1,0
178.02,-3.05,-42.61,-443,-5606,6121,-1,-1,-1
178.02,-3.05,-42.61,-449,-5609,6112,-1,0,0
178.02,-3.05,-42.61,-450,-5613,6104,-1,-1,-1
178.02,-3.05,-42.61,-441,-5614,6108,0,-1,-1
178.02,-3.04,-42.61,-428,-5603,6112,0,-1,-1
178.02,-3.04,-42.61,-420,-5599,6114,0,-1,0
178.02,-3.04,-42.61,-428,-5600,6117,-1,-1,0
178.02,-3.04,-42.61,-437,-5603,6107,-1,0,0
178.02,-3.04,-42.61,-445,-5607,6116,-1,0,-1
178.02,-3.05,-42.61,-451,-5605,6120,-1,-1,-1
178.02,-3.04,-42.61,-443,-5612,6111,-1,-1,-1
178.03,-3.04,-42.62,-437,-5620,6101,-1,-1,-1
178.03,-3.04,-42.62,-437,-5613,6101,0,-1,0
178.03,-3.03,-42.61,-427,-5607,6115,-1,0,0
178.03,-3.03,-42.61,-432,-5602,6107,-1,0,0
178.03,-3.03,-42.62,-437,-5602,6119,-1,0,0
178.03,-3.04,-42.62,-437,-5606,6108,-1,0,0
178.03,-3.04,-42.64,-441,-5616,6098,-1,0,0
178.03,-3.05,-42.65,-442,-5619,6096,-1,0,0
178.03,-3.05,-42.65,-447,-5610,6102,-1,0,-1
178.02,-3.05,-42.65,-443,-5615,6096,-1,0,-1
178.02,-3.05,-42.65,-444,-5613,6100,-1,-1,-1
178.02,-3.05,-42.65,-447,-5618,6095,0,0,0
178.03,-3.05,-42.65,-442,-5614,6099,0,0,-1
178.03,-3.04,-42.65,-435,-5622,6102,-1,0,-1
178.03,-3.04,-42.65,-437,-5618,6112,-1,0,-1
178.04,-3.05,-42.66,-443,-5620,6103,-1,0,-1
178.04,-3.05,-42.66,-442,-5614,6099,-1,0,-1
178.04,-3.05,-42.67,-436,-5611,6090,-1,0,-1
178.04,-3.05,-42.68,-437,-5618,6089,-1,0,0
178.04,-3.04,-42.68,-442,-5615,6082,0,0,-1
178.04,-3.05,-42.68,-456,-5630,6098,-1,-1,-1
178.04,-3.05,-42.68,-454,-5626,6101,-1,0,-1
178.05,-3.05,-42.68,-462,-5619,6094,0,0,-1
178.05,-3.05,-42.68,-449,-5619,6095,-1,-1,-1
178.05,-3.04,-42.68,-436,-5630,6097,0,-1,-1
178.06,-3.04,-42.68,-438,-5627,6109,0,0,-1
178.06,-3.04,-42.68,-439,-5614,6107,-1,-1,0
178.05,-3.04,-42.68,-437,-5608,6103,-1,0,0
178.05,-3.05,-42.68,-437,-5608,6092,-1,0,0
178.05,-3.05,-42.68,-443,-5613,6091,0,0,0
178.05,-3.05,-42.68,-437,-5617,6096,-1,-1,0
178.05,-3.05,-42.68,-434,-5615,6093,-1,0,0
178.04,-3.06,-42.68,-441,-5612,6094,-1,0,0
178.04,-3.06,-42.69,-445,-5619,6096,-1,0,0
178.04,-3.06,-42.69,-445,-5629,6099,0,0,-1
178.04,-3.06,-42.68,-444,-5629,6098,0,-1,0
178.04,-3.06,-42.68,-441,-5616,6090,0,-1,0
178.04,-3.06,-42.68,-439,-5614,6095,-1,0,0
178.04,-3.06,-42.68,-442,-5615,6093,0,0,0
178.03,-3.06,-42.68,-447,-5614,6096,0,0,0
178.03,-3.07,-42.68,-452,-5618,6103,0,0,0
178.03,-3.07,-42.68,-460,-5611,6106,-1,0,-1
178.03,-3.08,-42.68,-451,-5616,6099,-1,0,-1
178.04,-3.07,-42.68,-442,-5612,6106,-1,0,0
178.04,-3.07,-42.68,-447,-5617,6104,-1,0,0
178.03,-3.08,-42.68,-447,-5621,6096,-1,-1,0
178.03,-3.07,-42.68,-439,-5620,6094,0,0,0
178.03,-3.08,-42.68,-432,-5612,6107,0,0,0
178.03,-3.08,-42.68,-432,-5607,6099,-1,0,0
178.03,-3.08,-42.68,-439,-5599,6096,0,0,0
178.03,-3.08,-42.68,-454,-5614,6095,-1,-1,0
178.03,-3.08,-42.68,-449,-5618,6097,0,0,-1
178.03,-3.08,-42.68,-459,-5622,6092,0,-1,-1
178.02,-3.09,-42.67,-462,-5622,6090,0,0,0
178.02,-3.09,-42.66,-462,-5612,6095,0,-1,0
178.02,-3.09,-42.66,-459,-5610,6091,0,-1,-1
178.02,-3.09,-42.65,-457,-5607,6094,0,-1,0
178.02,-3.08,-42.64,-453,-5612,6095,0,-1,0
178.02,-3.08,-42.63,-454,-5604,6104,0,-1,-1
178.02,-3.08,-42.62,-452,-5599,6113,0,-1,-1
178.03,-3.07,-42.62,-446,-5602,6105,-1,-1,0
178.03,-3.07,-42.63,-442,-5606,6102,-1,0,0
178.02,-3.08,-42.63,-447,-5614,6105,0,0,0
178.02,-3.08,-42.62,-447,-5611,6104,0,0,0
178.02,-3.08,-42.62,-451,-5614,6100,0,-1,0
178.02,-3.08,-42.62,-457,-5611,6097,0,-1,0
178.02,-3.08,-42.62,-458,-5608,6111,0,-1,0
178.02,-3.08,-42.61,-458,-5603,6107,0,-1,0
178.02,-3.08,-42.61,-447,-5605,6103,0,0,-1
178.02,-3.08,-42.60,-445,-5603,6109,-1,-1,0
178.02,-3.08,-42.60,-447,-5605,6104,-1,-1,0
178.01,-3.08,-42.61,-445,-5606,6112,-1,0,0
178.01,-3.08,-42.61,-446,-5608,6110,-1,0,0
178.01,-3.08,-42.61,-439,-5619,6098,0,0,0
178.01,-3.08,-42.60,-447,-5617,6114,0,-1,0
178.01,-3.08,-42.60,-446,-5608,6108,0,0,0
178.01,-3.09,-42.60,-462,-5601,6113,-1,0,0
178.01,-3.09,-42.60,-457,-5615,6100,0,-1,-1
178.01,-3.08,-42.59,-449,-5617,6098,0,-1,-1
178.01,-3.08,-42.59,-440,-5610,6103,0,-1,-1
178.02,-3.07,-42.58,-433,-5601,6108,0,-1,0
178.01,-3.08,-42.57,-435,-5594,6104,0,0,0
178.01,-3.09,-42.57,-444,-5606,6102,-1,0,0
178.01,-3.09,-42.57,-446,-5607,6113,0,0,-1
178.01,-3.09,-42.57,-451,-5609,6114,-1,0,-1
178.01,-3.09,-42.58,-448,-5609,6115,-1,-1,-1
178.01,-3.09,-42.57,-447,-5608,6113,0,-1,0
178.01,-3.08,-42.56,-439,-5608,6109,0,-1,0
178.02,-3.07,-42.56,-437,-5605,6106,0,-1,0
178.02,-3.07,-42.55,-439,-5593,6109,0,0,0
178.01,-3.07,-42.54,-438,-5582,6121,0,0,0
178.01,-3.08,-42.54,-434,-5591,6120,-1,0,0
178.01,-3.08,-42.55,-444,-5595,6116,-1,0,0
178.01,-3.08,-42.55,-446,-5602,6112,0,-1,-1
178.01,-3.09,-42.54,-449,-5601,6114,-1,-1,0
178.01,-3.09,-42.55,-448,-5607,6112,0,0,0
178.01,-3.09,-42.54,-443,-5603,6102,0,0,0
178.01,-3.09,-42.53,-448,-5603,6120,0,-1,0
178.01,-3.09,-42.53,-454,-5603,6122,0,0,-1
178.01,-3.09,-42.53,-459,-5601,6115,0,0,-1
178.01,-3.09,-42.52,-452,-5597,6114,0,-1,-1
178.01,-3.09,-42.52,-449,-5596,6113,0,-1,-1
178.01,-3.08,-42.51,-444,-5593,6114,0,-1,0
178.01,-3.08,-42.51,-435,-5587,6113,0,0,0
178.00,-3.08,-42.51,-435,-5589,6122,-1,0,0
178.00,-3.09,-42.51,-442,-5600,6122,-1,0,0
178.00,-3.09,-42.51,-450,-5601,6124,0,0,-1
178.00,-3.10,-42.51,-448,-5602,6122,-1,0,-1
178.00,-3.10,-42.51,-454,-5602,6112,0,0,0
178.00,-3.10,-42.51,-450,-5600,6117,0,-1,0
178.00,-3.10,-42.50,-445,-5603,6119,0,-1,0
178.00,-3.09,-42.50,-450,-5603,6125,0,0,-1
178.00,-3.10,-42.50,-449,-5597,6124,0,0,0
178.00,-3.09,-42.50,-443,-5593,6119,0,-1,0
178.00,-3.09,-42.49,-452,-5595,6127,0,0,0
178.00,-3.10,-42.49,-452,-5589,6123,-1,-1,-1
178.00,-3.09,-42.49,-446,-5596,6117,-1,-1,0
177.99,-3.10,-42.49,-446,-5585,6130,-1,0,0
177.99,-3.09,-42.49,-447,-5589,6121,-1,0,0
177.99,-3.10,-42.49,-447,-5599,6121,-1,0,0
177.99,-3.10,-42.50,-451,-5613,6130,-1,0,-1
178.00,-3.10,-42.49,-456,-5608,6118,0,-1,-1
178.00,-3.10,-42.48,-452,-5588,6111,0,-1,-1
177.99,-3.09,-42.48,-451,-5579,6115,-1,-1,0
177.99,-3.09,-42.48,-446,-5586,6110,-1,0,0
177.99,-3.09,-42.48,-442,-5592,6119,-1,0,0
177.99,-3.09,-42.48,-452,-5590,6117,-1,0,0
177.99,-3.09,-42.49,-461,-5591,6113,-1,0,-1
177.99,-3.10,-42.49,-468,-5600,6109,-1,-1,0
177.99,-3.10,-42.49,-463,-5597,6120,-1,-1,-1
177.99,-3.09,-42.49,-452,-5593,6117,0,-1,-1
178.00,-3.09,-42.49,-437,-5593,6114,-1,-1,-1
178.00,-3.09,-42.49,-432,-5591,6119,-1,-1,-1
178.00,-3.08,-42.49,-435,-5588,6130,-1,0,0
178.01,-3.08,-42.50,-439,-5584,6118,-1,0,-1
178.00,-3.08,-42.50,-442,-5590,6121,-1,0,0
178.00,-3.09,-42.50,-451,-5594,6124,-1,-1,0
178.00,-3.09,-42.51,-448,-5601,6118,-1,-1,-1
178.00,-3.08,-42.51,-445,-5607,6107,-1,-1,-1
178.01,-3.08,-42.51,-450,-5612,6107,0,0,-1
178.01,-3.08,-42.51,-458,-5610,6111,0,-1,-1
178.01,-3.08,-42.51,-461,-5604,6117,0,-1,-1
178.01,-3.08,-42.51,-455,-5600,6124,-1,-1,-1
178.01,-3.07,-42.51,-448,-5595,6129,-1,-1,-1
178.01,-3.07,-42.51,-441,-5590,6123,-1,-1,0
178.01,-3.07,-42.51,-431,-5592,6116,-1,0,0
178.01,-3.07,-42.52,-437,-5595,6117,-1,0,0
178.01,-3.07,-42.52,-436,-5595,6133,-1,-1,0
178.01,-3.07,-42.53,-447,-5601,6126,-1,0,-1
178.01,-3.07,-42.53,-448,-5598,6118,-1,0,0
178.01,-3.07,-42.53,-447,-5598,6111,-1,-1,0
178.01,-3.07,-42.53,-443,-5604,6112,-1,-1,-1
178.01,-3.07,-42.53,-446,-5607,6109,0,-1,0
178.01,-3.07,-42.53,-438,-5607,6115,0,-1,0
178.01,-3.07,-42.53,-436,-5606,6117,-1,0,-1
178.01,-3.07,-42.53,-441,-5596,6120,-1,-1,-1
178.01,-3.07,-42.53,-442,-5596,6129,-1,-1,-1
178.02,-3.06,-42.53,-434,-5597,6126,-1,0,-1
178.02,-3.06,-42.54,-433,-5597,6119,-1,0,0
178.02,-3.06,-42.54,-432,-5600,6115,-1,0,0
178.02,-3.06,-42.55,-441,-5599,6117,-1,0,0
178.02,-3.06,-42.55,-440,-5605,6107,-1,0,0
178.02,-3.06,-42.56,-441,-5615,6102,-1,0,-1
178.02,-3.06,-42.56,-440,-5611,6099,0,-1,-1
178.03,-3.05,-42.56,-435,-5601,6102,0,-1,-1
178.03,-3.05,-42.56,-430,-5603,6110,-1,-1,0
178.02,-3.05,-42.56,-438,-5602,6117,-1,0,0
178.02,-3.06,-42.56,-441,-5607,6118,-1,0,0
178.03,-3.06,-42.56,-445,-5608,6115,-1,0,0
178.03,-3.06,-42.57,-454,-5605,6113,-1,0,-1
178.03,-3.06,-42.58,-454,-5610,6116,-1,-1,-1
178.03,-3.06,-42.58,-448,-5608,6116,0,-1,-1
178.03,-3.06,-42.58,-442,-5605,6115,-1,-1,-1
178.03,-3.05,-42.58,-438,-5598,6114,-1,-1,-1
178.03,-3.05,-42.58,-442,-5597,6118,-1,-1,0
178.03,-3.05,-42.58,-438,-5600,6124,-1,0,0
178.03,-3.05,-42.58,-430,-5600,6122,-1,0,-1
178.03,-3.05,-42.59,-443,-5601,6110,-1,0,0
178.03,-3.05,-42.59,-444,-5611,6116,-1,-1,-1
178.04,-3.05,-42.59,-448,-5617,6109,-1,-1,-1
178.04,-3.05,-42.60,-445,-5615,6106,-1,0,-1
178.03,-3.05,-42.60,-444,-5614,6103,-1,0,0
178.03,-3.05,-42.60,-442,-5608,6100,0,0,-1
178.04,-3.05,-42.60,-450,-5615,6110,-1,-1,-1
178.04,-3.05,-42.60,-451,-5611,6115,-1,-1,-1
178.04,-3.04,-42.61,-448,-5608,6105,-1,-1,-1
178.04,-3.04,-42.61,-443,-5604,6114,-1,-1,-1
178.05,-3.04,-42.61,-435,-5600,6117,-1,-1,-1
178.05,-3.04,-42.61,-432,-5598,6112,-1,0,-1
178.05,-3.04,-42.62,-428,-5598,6102,-1,0,0
178.04,-3.04,-42.62,-436,-5600,6103,-1,0,0
178.04,-3.04,-42.62,-443,-5606,6105,-1,0,0
178.04,-3.05,-42.63,-455,-5611,6095,-1,0,0
178.04,-3.05,-42.63,-458,-5617,6103,-1,-1,-1
178.04,-3.05,-42.64,-447,-5617,6113,-1,-1,-1
178.04,-3.05,-42.64,-441,-5606,6106,-1,0,0
178.04,-3.05,-42.65,-443,-5607,6108,-1,-1,0
178.04,-3.05,-42.65,-439,-5618,6097,-1,0,0
178.04,-3.05,-42.66,-435,-5618,6106,-1,0,0
178.04,-3.05,-42.66,-443,-5615,6112,-1,0,0
178.04,-3.05,-42.66,-436,-5610,6112,-1,-1,0
178.04,-3.05,-42.67,-439,-5611,6103,-1,0,-1
178.04,-3.06,-42.68,-451,-5617,6108,-1,0,-1
178.04,-3.06,-42.69,-445,-5632,6095,-1,-1,-1
178.05,-3.05,-42.69,-439,-5632,6101,0,-1,-1
178.04,-3.05,-42.68,-434,-5619,6109,0,-1,0
178.04,-3.05,-42.68,-436,-5608,6116,-1,0,0
178.04,-3.05,-42.68,-441,-5604,6128,-1,0,0
178.04,-3.06,-42.68,-454,-5612,6121,-1,0,-1
178.04,-3.06,-42.68,-457,-5621,6112,-1,-1,-1
178.03,-3.06,-42.69,-464,-5625,6109,-1,-1,-1
178.04,-3.06,-42.70,-452,-5629,6105,-1,-1,-1
178.04,-3.06,-42.70,-452,-5623,6100,-1,0,0
178.04,-3.06,-42.69,-440,-5617,6089,0,0,-1
178.04,-3.06,-42.69,-443,-5624,6102,-1,-1,0
178.04,-3.06,-42.70,-436,-5620,6110,-1,0,-1
178.05,-3.05,-42.70,-442,-5615,6111,-1,0,0
178.05,-3.05,-42.70,-439,-5613,6104,-1,-1,0
178.05,-3.05,-42.71,-445,-5623,6098,-1,0,-1
178.05,-3.06,-42.71,-444,-5631,6105,-1,0,-1
178.06,-3.05,-42.72,-425,-5629,6101,-1,0,-1
178.06,-3.05,-42.72,-432,-5623,6101,-1,0,-1
178.05,-3.06,-42.72,-445,-5622,6102,0,0,-1
178.05,-3.06,-42.72,-449,-5629,6098,0,0,-1
178.06,-3.05,-42.72,-447,-5625,6103,-1,-1,-1
178.06,-3.05,-42.71,-444,-5619,6101,-1,-1,-1
178.06,-3.05,-42.71,-440,-5609,6095,0,0,-1
178.07,-3.04,-42.71,-432,-5609,6092,-1,0,-1
178.07,-3.05,-42.72,-434,-5607,6089,-1,0,0
178.07,-3.05,-42.72,-431,-5609,6091,-1,0,0
178.07,-3.05,-42.72,-441,-5611,6092,-1,0,0
178.06,-3.06,-42.73,-444,-5616,6096,-1,0,0
178.06,-3.06,-42.73,-449,-5624,6090,-1,0,0
178.06,-3.06,-42.73,-454,-5628,6086,0,0,0
178.06,-3.06,-42.72,-450,-5627,6092,0,0,0
178.06,-3.06,-42.72,-448,-5622,6104,0,0,-1
178.06,-3.06,-42.72,-434,-5614,6099,0,0,0
178.06,-3.06,-42.71,-440,-5616,6103,-1,0,0
178.06,-3.06,-42.72,-443,-5621,6105,-1,0,0
178.06,-3.06,-42.72,-444,-5619,6101,-1,-1,-1
178.06,-3.06,-42.71,-436,-5619,6098,0,0,0
178.06,-3.06,-42.71,-439,-5623,6096,0,0,0
178.06,-3.06,-42.70,-433,-5617,6095,0,-1,0
178.06,-3.07,-42.69,-447,-5613,6109,0,-1,0
178.06,-3.07,-42.69,-446,-5615,6109,0,0,-1
178.06,-3.06,-42.69,-452,-5618,6103,0,0,-1
178.06,-3.06,-42.69,-448,-5618,6092,0,-1,0
178.06,-3.06,-42.69,-438,-5618,6099,0,-1,0
178.06,-3.05,-42.68,-433,-5614,6103,0,-1,0
178.06,-3.06,-42.67,-433,-5614,6101,0,0,0
178.06,-3.06,-42.67,-437,-5614,6102,0,0,0
178.06,-3.07,-42.66,-451,-5607,6115,0,0,0
178.06,-3.07,-42.66,-450,-5613,6107,0,0,-1
178.06,-3.07,-42.66,-454,-5613,6112,0,-1,-1
178.06,-3.07,-42.66,-448,-5624,6106,0,-1,0
178.06,-3.06,-42.66,-439,-5624,6107,0,-1,0
178.06,-3.06,-42.65,-438,-5613,6104,0,-1,0
178.06,-3.06,-42.65,-442,-5610,6099,0,0,0
178.05,-3.06,-42.64,-444,-5603,6107,0,0,0
178.05,-3.06,-42.64,-441,-5610,6109,-1,0,0
178.05,-3.07,-42.64,-444,-5612,6106,-1,0,0
178.05,-3.07,-42.65,-451,-5616,6096,0,0,0
178.05,-3.07,-42.64,-455,-5614,6095,0,-1,-1
178.05,-3.07,-42.64,-451,-5621,6093,0,-1,-1
178.05,-3.07,-42.64,-442,-5624,6092,0,-1,0
178.05,-3.07,-42.63,-439,-5615,6093,0,-1,0
178.05,-3.07,-42.63,-435,-5606,6107,0,0,0
178.05,-3.07,-42.63,-440,-5615,6119,0,0,-1
178.05,-3.06,-42.62,-441,-5617,6122,0,-1,-1
178.05,-3.06,-42.62,-443,-5609,6117,0,0,-1
178.05,-3.06,-42.61,-447,-5596,6104,0,-1,-1
178.05,-3.06,-42.61,-441,-5602,6103,0,-1,0
178.06,-3.06,-42.61,-432,-5604,6107,0,0,0
178.05,-3.06,-42.61,-431,-5600,6099,-1,0,0
178.05,-3.07,-42.61,-440,-5600,6098,-1,0,0
178.04,-3.07,-42.61,-448,-5600,6104,-1,0,0
178.04,-3.07,-42.60,-454,-5608,6107,0,0,-1
178.04,-3.07,-42.60,-459,-5615,6118,0,-1,-1
178.04,-3.07,-42.60,-449,-5614,6122,0,0,0
178.04,-3.07,-42.59,-447,-5618,6118,0,-1,0
178.04,-3.07,-42.59,-446,-5604,6120,0,-1,0
178.04,-3.07,-42.58,-450,-5603,6111,0,0,0
178.04,-3.07,-42.58,-437,-5603,6113,0,0,0
178.04,-3.07,-42.58,-440,-5599,6112,0,0,0
178.04,-3.07,-42.58,-442,-5598,6109,0,-1,0
178.05,-3.07,-42.57,-442,-5599,6108,0,-1,0
178.04,-3.07,-42.57,-443,-5600,6118,0,-1,0
178.04,-3.07,-42.57,-447,-5602,6112,-1,0,0
178.04,-3.07,-42.57,-452,-5601,6114,-1,0,0
178.04,-3.07,-42.57,-447,-5609,6111,0,0,-1
178.04,-3.08,-42.56,-447,-5602,6128,0,0,-1
178.04,-3.07,-42.55,-442,-5597,6120,0,-1,0
178.04,-3.07,-42.55,-450,-5601,6112,0,0,0
178.03,-3.08,-42.54,-451,-5605,6120,0,0,0
178.03,-3.08,-42.54,-450,-5609,6128,0,0,0
178.03,-3.08,-42.54,-452,-5609,6120,0,-1,-1
178.03,-3.08,-42.54,-451,-5608,6108,0,-1,-1
178.03,-3.08,-42.54,-450,-5603,6105,0,-1,0
178.03,-3.08,-42.53,-451,-5592,6108,0,-1,0
178.04,-3.07,-42.53,-445,-5591,6112,0,-1,0
178.04,-3.07,-42.53,-445,-5591,6121,-1,-1,0
178.04,-3.07,-42.53,-443,-5588,6129,-1,0,0
178.03,-3.07,-42.52,-442,-5584,6124,-1,0,0
178.03,-3.07,-42.53,-441,-5596,6110,-1,0,0
178.03,-3.07,-42.53,-446,-5600,6105,-1,0,0
178.03,-3.08,-42.53,-450,-5595,6103,0,0,0
178.03,-3.08,-42.53,-448,-5596,6103,-1,-1,0
178.03,-3.08,-42.53,-449,-5597,6106,0,-1,-1
178.03,-3.08,-42.53,-448,-5601,6118,0,0,-1
178.03,-3.08,-42.53,-449,-5604,6120,0,-1,-1
178.03,-3.07,-42.52,-440,-5602,6121,0,0,-1
178.03,-3.07,-42.52,-440,-5593,6117,0,-1,-1
178.03,-3.07,-42.52,-442,-5591,6118,0,-1,-1
178.03,-3.07,-42.52,-446,-5595,6117,-1,-1,-1
178.03,-3.07,-42.52,-435,-5597,6113,-1,0,0
178.03,-3.07,-42.53,-442,-5590,6108,-1,0,0
178.03,-3.07,-42.53,-444,-5602,6102,-1,0,0
178.03,-3.07,-42.53,-449,-5608,6110,-1,0,0
178.03,-3.08,-42.53,-450,-5605,6118,-1,-1,-1
178.03,-3.08,-42.53,-458,-5608,6118,-1,0,-1
178.03,-3.07,-42.54,-457,-5613,6111,-1,-1,-1
178.03,-3.07,-42.54,-446,-5612,6123,0,-1,-1
178.03,-3.07,-42.53,-442,-5610,6129,0,-1,-1
178.04,-3.06,-42.53,-429,-5605,6126,-1,-1,-1
178.04,-3.06,-42.53,-432,-5602,6129,-1,0,-1
178.04,-3.06,-42.53,-437,-5591,6135,-1,0,-1
178.04,-3.06,-42.54,-445,-5591,6117,-1,-1,0
178.04,-3.06,-42.55,-447,-5597,6120,-1,0,-1
178.04,-3.06,-42.55,-440,-5599,6113,-1,-1,-1
178.04,-3.06,-42.56,-442,-5606,6113,-1,-1,0
178.04,-3.06,-42.56,-444,-5605,6121,0,-1,0
178.04,-3.06,-42.55,-444,-5601,6123,-1,0,0
178.04,-3.06,-42.56,-447,-5606,6118,-1,0,-1
178.04,-3.06,-42.56,-450,-5612,6115,-1,-1,-1
178.04,-3.06,-42.56,-442,-5606,6105,0,-1,-1
178.04,-3.06,-42.56,-442,-5604,6109,-1,-1,0
178.04,-3.06,-42.56,-441,-5605,6112,-1,-1,0
178.04,-3.06,-42.56,-443,-5610,6111,-1,0,0
178.04,-3.06,-42.57,-453,-5607,6114,-1,0,-1
178.04,-3.06,-42.56,-456,-5599,6117,-1,0,-1
178.03,-3.07,-42.57,-457,-5605,6115,-1,-1,-1
178.04,-3.06,-42.57,-446,-5607,6113,-1,-1,-1
178.04,-3.06,-42.57,-440,-5610,6112,0,-1,-1
178.05,-3.06,-42.57,-436,-5613,6114,-1,-1,-1
178.05,-3.05,-42.57,-427,-5607,6109,0,-1,0
178.05,-3.05,-42.57,-433,-5595,6108,-1,0,0
178.05,-3.06,-42.57,-437,-5590,6107,-1,0,-1
178.05,-3.05,-42.57,-442,-5595,6114,-1,0,-1
178.05,-3.05,-42.58,-443,-5606,6119,-1,0,-1
178.05,-3.05,-42.59,-449,-5610,6121,-1,-1,-1
178.05,-3.05,-42.59,-448,-5609,6113,-1,-1,-1
178.05,-3.05,-42.59,-446,-5606,6102,-1,-1,-1
178.05,-3.05,-42.59,-445,-5609,6104,0,-1,-1
178.05,-3.05,-42.59,-444,-5610,6108,0,0,-1
178.05,-3.05,-42.59,-451,-5609,6116,-1,-1,-1
178.06,-3.05,-42.59,-445,-5606,6122,-1,0,-1
178.06,-3.05,-42.59,-447,-5603,6126,-1,0,-1
178.06,-3.05,-42.59,-449,-5603,6114,-1,0,-1
178.06,-3.05,-42.59,-445,-5605,6112,-1,-1,-1
178.06,-3.05,-42.60,-439,-5612,6101,-1,-1,0
178.06,-3.05,-42.61,-441,-5603,6101,-1,0,0
178.06,-3.05,-42.61,-445,-5609,6098,-1,0,0
178.06,-3.06,-42.61,-448,-5604,6104,-1,0,0
178.05,-3.06,-42.61,-449,-5602,6098,-1,0,0
178.05,-3.06,-42.62,-451,-5607,6103,-1,0,0
178.05,-3.06,-42.62,-447,-5609,6104,0,0,-1
178.06,-3.06,-42.62,-445,-5603,6106,-1,-1,-1
178.06,-3.05,-42.62,-446,-5605,6108,-1,-1,-1
178.06,-3.06,-42.62,-445,-5599,6104,-1,0,0
178.06,-3.06,-42.62,-443,-5602,6104,-1,0,0
178.06,-3.05,-42.62,-438,-5613,6094,-1,0,0
178.06,-3.05,-42.63,-443,-5611,6099,-1,-1,-1
178.06,-3.06,-42.63,-446,-5608,6102,-1,0,-1
178.06,-3.05,-42.63,-442,-5615,6098,-1,-1,0
178.06,-3.05,-42.63,-443,-5609,6099,0,-1,0
178.05,-3.05,-42.62,-440,-5603,6113,-1,0,0
178.05,-3.06,-42.63,-444,-5603,6106,-1,0,-1
178.05,-3.06,-42.63,-451,-5620,6109,-1,0,-1
178.05,-3.06,-42.63,-448,-5623,6104,0,-1,-1
178.06,-3.05,-42.63,-444,-5612,6102,0,-1,-1
178.06,-3.05,-42.63,-433,-5602,6099,-1,-1,0
178.06,-3.04,-42.63,-432,-5602,6099,-1,0,0
178.06,-3.05,-42.63,-438,-5608,6099,-1,0,-1
178.06,-3.05,-42.63,-448,-5609,6103,-1,0,-1
178.06,-3.05,-42.63,-452,-5611,6110,-1,-1,0
178.06,-3.05,-42.63,-452,-5615,6105,-1,0,-1
178.06,-3.05,-42.63,-453,-5608,6107,-1,-1,-1
178.06,-3.05,-42.63,-442,-5608,6110,0,-1,-1
178.06,-3.04,-42.62,-437,-5607,6110,0,-1,-1
178.07,-3.03,-42.63,-426,-5602,6110,-1,0,0
178.07,-3.03,-42.63,-428,-5597,6116,-1,-1,0
178.06,-3.04,-42.62,-439,-5605,6111,-1,0,-1
178.07,-3.04,-42.63,-440,-5617,6113,-1,0,0
178.07,-3.04,-42.63,-450,-5616,6109,-1,0,-1
178.07,-3.04,-42.63,-449,-5621,6108,-1,-1,-1
178.07,-3.04,-42.63,-448,-5615,6109,-1,-1,-1
178.07,-3.04,-42.63,-447,-5624,6099,0,-1,-1
178.07,-3.04,-42.63,-446,-5623,6091,0,0,-1
178.07,-3.04,-42.63,-445,-5613,6107,0,-1,-1
178.07,-3.04,-42.63,-445,-5608,6107,-1,0,-1
178.07,-3.04,-42.63,-448,-5611,6113,-1,0,-1
178.07,-3.04,-42.63,-431,-5612,6109,-1,0,-1
178.07,-3.04,-42.63,-431,-5610,6112,-1,0,0
178.07,-3.04,-42.63,-428,-5606,6112,-1,0,-1
178.07,-3.04,-42.64,-434,-5607,6104,-1,0,0
178.08,-3.04,-42.65,-442,-5619,6098,-1,0,0
178.08,-3.04,-42.65,-442,-5619,6094,-1,0,-1
178.08,-3.04,-42.65,-445,-5620,6097,-1,0,-1
178.08,-3.04,-42.65,-437,-5613,6097,-1,0,-1
178.08,-3.05,-42.65,-444,-5615,6095,0,0,-1
178.08,-3.05,-42.65,-442,-5611,6106,0,0,-1
178.08,-3.05,-42.65,-446,-5615,6106,-1,-1,-1
178.08,-3.05,-42.65,-449,-5608,6105,-1,0,0
178.08,-3.05,-42.65,-448,-5611,6100,-1,0,0
178.08,-3.05,-42.66,-451,-5615,6098,0,0,0
178.08,-3.06,-42.65,-443,-5611,6098,0,0,0
178.08,-3.06,-42.65,-438,-5618,6096,0,0,0
178.07,-3.07,-42.65,-442,-5612,6093,-1,0,0
178.07,-3.07,-42.65,-446,-5616,6107,-1,0,0
178.06,-3.08,-42.65,-448,-5611,6112,-1,0,0
178.06,-3.08,-42.65,-449,-5612,6111,-1,0,0
178.07,-3.08,-42.66,-451,-5620,6115,-1,-1,-1
178.07,-3.08,-42.66,-444,-5625,6101,0,-1,0
178.06,-3.08,-42.65,-437,-5610,6101,0,-1,0
178.06,-3.08,-42.65,-441,-5611,6110,0,-1,0
178.06,-3.08,-42.64,-446,-5605,6113,0,0,0
178.06,-3.09,-42.64,-449,-5600,6105,0,0,-1
178.06,-3.09,-42.64,-461,-5604,6108,-1,0,-1
178.06,-3.09,-42.64,-455,-5606,6103,-1,-1,-1
178.06,-3.09,-42.64,-461,-5615,6103,0,-1,-1
178.06,-3.09,-42.64,-452,-5615,6091,0,0,-1
178.07,-3.09,-42.63,-446,-5613,6099,0,-1,0
178.07,-3.09,-42.63,-439,-5603,6104,0,-1,0
178.06,-3.08,-42.62,-437,-5602,6100,0,-1,0
178.06,-3.08,-42.62,-439,-5605,6100,-1,0,0
178.06,-3.09,-42.62,-438,-5603,6112,-1,0,0
178.06,-3.09,-42.62,-432,-5610,6103,0,0,0
178.06,-3.09,-42.61,-445,-5613,6115,0,0,0
178.06,-3.09,-42.61,-454,-5615,6106,0,-1,0
178.06,-3.09,-42.61,-456,-5616,6092,0,-1,0
178.06,-3.09,-42.60,-454,-5615,6094,0,-1,-1
178.06,-3.09,-42.60,-454,-5620,6097,0,-1,0
178.06,-3.09,-42.59,-456,-5616,6105,0,-1,-1
178.06,-3.08,-42.59,-453,-5609,6109,0,-1,-1
178.06,-3.08,-42.58,-444,-5599,6111,0,-1,-1
178.06,-3.08,-42.57,-445,-5594,6116,0,0,0
178.06,-3.08,-42.57,-432,-5592,6115,0,0,0
178.06,-3.08,-42.57,-436,-5591,6118,0,-1,0
178.06,-3.08,-42.57,-427,-5597,6104,-1,0,0
178.06,-3.08,-42.57,-440,-5602,6096,-1,0,0
178.06,-3.08,-42.57,-446,-5602,6093,0,-1,0
178.05,-3.09,-42.57,-458,-5611,6100,0,-1,0
178.05,-3.09,-42.57,-452,-5617,6107,0,-1,0
178.06,-3.08,-42.57,-448,-5614,6105,0,-1,0
178.06,-3.08,-42.56,-442,-5608,6111,0,0,0
178.06,-3.08,-42.56,-438,-5607,6109,0,-1,0
178.06,-3.08,-42.55,-439,-5602,6113,0,-1,0
178.06,-3.08,-42.55,-446,-5594,6109,-1,0,0
178.06,-3.08,-42.55,-443,-5597,6104,0,0,0
178.05,-3.09,-42.54,-442,-5590,6099,0,0,0
178.05,-3.09,-42.54,-447,-5592,6096,0,0,0
178.05,-3.09,-42.54,-451,-5603,6106,-1,0,0
178.05,-3.09,-42.54,-449,-5611,6107,0,0,-1
178.05,-3.09,-42.53,-446,-5605,6110,0,-1,0
178.06,-3.08,-42.53,-439,-5592,6110,0,-1,0
178.05,-3.09,-42.52,-440,-5591,6103,0,-1,0
178.05,-3.09,-42.52,-444,-5591,6114,0,0,0
178.05,-3.09,-42.51,-449,-5596,6119,0,0,0
178.05,-3.09,-42.51,-449,-5590,6119,0,-1,-1
178.05,-3.09,-42.51,-450,-5596,6122,-1,-1,-1
178.05,-3.09,-42.51,-443,-5602,6121,0,0,-1
178.06,-3.08,-42.51,-438,-5605,6124,-1,-1,0
178.06,-3.08,-42.51,-432,-5596,6117,0,0,0
178.06,-3.08,-42.51,-436,-5592,6118,-1,-1,0
178.05,-3.08,-42.51,-437,-5598,6105,0,0,0
178.05,-3.09,-42.51,-443,-5600,6111,-1,-1,0
178.04,-3.09,-42.51,-444,-5597,6123,-1,0,0
178.04,-3.10,-42.51,-445,-5594,6109,-1,0,0
178.04,-3.10,-42.51,-443,-5592,6112,-1,0,0
178.04,-3.10,-42.52,-455,-5603,6111,-1,0,-1
178.04,-3.10,-42.52,-454,-5608,6103,-1,0,0
178.04,-3.11,-42.52,-456,-5614,6109,-1,0,0
178.04,-3.11,-42.52,-457,-5613,6105,0,0,0
178.03,-3.12,-42.51,-455,-5608,6113,0,0,-1
178.04,-3.11,-42.51,-459,-5604,6123,0,-1,-1
178.04,-3.11,-42.50,-456,-5598,6126,0,-1,-1
178.04,-3.11,-42.49,-445,-5588,6129,0,-1,0
178.04,-3.10,-42.48,-441,-5590,6122,0,-1,0
178.04,-3.10,-42.48,-437,-5584,6125,-1,0,0
178.04,-3.10,-42.49,-435,-5594,6115,-1,0,0
178.04,-3.11,-42.49,-447,-5600,6108,-1,0,0
178.04,-3.12,-42.49,-452,-5605,6111,-1,0,0
178.03,-3.12,-42.50,-450,-5616,6105,0,0,0
178.04,-3.12,-42.49,-455,-5608,6112,0,-1,0
178.04,-3.12,-42.49,-449,-5601,6116,0,0,0
178.04,-3.12,-42.49,-446,-5598,6120,0,-1,0
178.04,-3.12,-42.48,-441,-5590,6119,-1,0,-1
178.04,-3.12,-42.48,-448,-5593,6114,-1,-1,0
178.04,-3.12,-42.48,-452,-5598,6113,0,0,0
178.03,-3.12,-42.48,-454,-5596,6122,-1,0,0
178.03,-3.12,-42.48,-457,-5593,6132,-1,0,0
178.03,-3.13,-42.48,-454,-5592,6120,-1,0,0
178.03,-3.13,-42.49,-456,-5601,6111,-1,0,0
178.02,-3.13,-42.49,-457,-5607,6116,0,-1,-1
178.03,-3.13,-42.49,-452,-5605,6110,0,0,-1
178.03,-3.12,-42.48,-460,-5604,6119,0,-1,-1
178.04,-3.12,-42.48,-453,-5598,6113,0,-1,-1
178.04,-3.12,-42.47,-450,-5593,6116,0,-1,-1
178.04,-3.12,-42.47,-454,-5587,6124,0,-1,-1
178.04,-3.12,-42.46,-453,-5596,6123,0,-1,-1
178.04,-3.11,-42.47,-456,-5593,6119,-1,-1,-1
178.04,-3.10,-42.47,-450,-5594,6120,-1,-1,-1
178.04,-3.10,-42.47,-443,-5597,6118,-1,-1,-1
178.04,-3.10,-42.47,-441,-5593,6123,-1,-1,-1
178.05,-3.09,-42.47,-443,-5597,6128,0,-1,-1
178.05,-3.09,-42.47,-448,-5600,6131,-1,-1,-1
178.05,-3.09,-42.47,-454,-5604,6123,-1,0,-1
178.05,-3.09,-42.47,-451,-5597,6117,-1,-1,0
178.05,-3.08,-42.47,-446,-5592,6115,-1,-1,-1
178.05,-3.08,-42.48,-448,-5588,6108,-1,-1,-1
178.05,-3.08,-42.48,-451,-5595,6109,-1,-1,0
178.05,-3.08,-42.48,-447,-5600,6123,-1,-1,-1
178.06,-3.07,-42.48,-444,-5606,6123,-1,-1,0
178.06,-3.07,-42.48,-450,-5604,6123,-1,-1,-1
178.06,-3.07,-42.48,-448,-5599,6124,-1,-1,-1
178.06,-3.07,-42.48,-446,-5594,6129,-1,-1,0
178.06,-3.07,-42.48,-442,-5594,6136,-1,-1,-1
178.06,-3.07,-42.48,-445,-5597,6135,-1,-1,-1
178.06,-3.07,-42.48,-446,-5595,6131,-1,-1,-1
178.06,-3.07,-42.49,-443,-5600,6126,-1,-1,-1
178.06,-3.07,-42.50,-442,-5598,6121,-1,0,0
178.06,-3.07,-42.51,-436,-5597,6112,-1,0,0
178.07,-3.06,-42.51,-434,-5592,6103,-1,0,0
178.07,-3.06,-42.51,-443,-5603,6123,0,-1,0
178.07,-3.06,-42.51,-444,-5606,6128,-1,0,-1
178.07,-3.06,-42.51,-454,-5605,6112,-1,0,-1
178.07,-3.06,-42.51,-451,-5606,6113,0,-1,0
178.07,-3.06,-42.51,-446,-5607,6117,0,-1,-1
178.07,-3.06,-42.51,-437,-5602,6112,-1,0,-1
178.07,-3.06,-42.51,-435,-5595,6121,-1,-1,0
178.07,-3.06,-42.51,-441,-5592,6117,-1,0,-1
178.07,-3.06,-42.52,-442,-5593,6116,-1,0,-1
178.07,-3.06,-42.52,-445,-5594,6114,-1,0,-1
178.07,-3.06,-42.52,-447,-5594,6118,-1,-1,-1
178.07,-3.06,-42.53,-445,-5601,6112,-1,-1,-1
178.07,-3.06,-42.54,-447,-5612,6112,-1,0,-1
178.08,-3.06,-42.54,-446,-5615,6106,0,0,-1
178.08,-3.05,-42.54,-436,-5608,6103,0,-1,-1
178.08,-3.05,-42.53,-436,-5601,6111,-1,-1,0
178.08,-3.05,-42.54,-434,-5593,6105,-1,0,0
178.08,-3.06,-42.54,-436,-5594,6112,-1,0,0
178.08,-3.06,-42.55,-449,-5598,6118,-1,0,0
178.07,-3.07,-42.56,-460,-5591,6121,-1,0,0
178.07,-3.07,-42.57,-449,-5600,6113,-1,0,-1
178.08,-3.08,-42.58,-465,-5603,6114,-1,0,-1
178.07,-3.07,-42.59,-459,-5616,6108,-1,-1,-1
178.08,-3.07,-42.60,-445,-5613,6108,-1,-1,-1
178.08,-3.06,-42.60,-431,-5621,6101,0,-1,-1
178.08,-3.06,-42.59,-426,-5613,6101,0,0,0
178.08,-3.06,-42.59,-425,-5598,6100,-1,0,0
178.08,-3.06,-42.59,-435,-5602,6104,-1,-1,-1
178.08,-3.06,-42.60,-434,-5599,6110,-1,0,-1
178.08,-3.06,-42.60,-428,-5605,6105,-1,-1,0
178.08,-3.06,-42.61,-435,-5608,6103,-1,0,0
178.08,-3.06,-42.62,-439,-5617,6100,-1,0,0
178.08,-3.06,-42.61,-445,-5612,6103,0,0,-1
178.08,-3.06,-42.61,-443,-5615,6107,0,-1,-1
178.09,-3.05,-42.61,-451,-5612,6097,-1,-1,-1
178.09,-3.05,-42.62,-456,-5613,6097,-1,-1,-1
178.09,-3.05,-42.62,-454,-5612,6095,0,-1,-1
178.09,-3.05,-42.62,-441,-5620,6095,-1,-1,-1
178.09,-3.05,-42.62,-424,-5610,6106,-1,0,-1
178.09,-3.05,-42.62,-427,-5596,6105,-1,0,0
178.09,-3.05,-42.63,-431,-5593,6102,-1,0,0
178.09,-3.05,-42.63,-442,-5602,6105,-1,0,0
178.09,-3.05,-42.64,-449,-5615,6100,-1,0,-1
178.10,-3.05,-42.64,-452,-5628,6098,0,-1,-1
178.10,-3.05,-42.64,-448,-5622,6098,0,-1,-1
178.10,-3.05,-42.64,-447,-5614,6100,0,-1,-1
178.10,-3.05,-42.63,-441,-5605,6104,0,0,-1
178.10,-3.05,-42.63,-445,-5596,6104,-1,0,0
178.10,-3.05,-42.63,-441,-5597,6105,-1,0,0
178.10,-3.05,-42.63,-440,-5604,6107,-1,0,-1
178.10,-3.05,-42.64,-435,-5611,6105,-1,0,-1
178.10,-3.05,-42.64,-438,-5623,6100,-1,0,-1
178.10,-3.05,-42.64,-446,-5624,6101,0,-1,-1
178.10,-3.05,-42.64,-440,-5612,6110,0,-1,0
178.09,-3.05,-42.64,-443,-5608,6101,-1,-1,0
178.09,-3.05,-42.64,-445,-5612,6097,-1,-1,-1
178.10,-3.05,-42.65,-439,-5624,6094,-1,-1,-1
178.10,-3.04,-42.65,-437,-5621,6103,0,-1,-1
178.10,-3.04,-42.65,-434,-5610,6091,0,-1,-1
178.10,-3.04,-42.65,-434,-5608,6101,-1,0,0
178.10,-3.04,-42.65,-436,-5613,6109,-1,0,0
178.10,-3.04,-42.65,-440,-5614,6110,-1,0,-1
178.10,-3.04,-42.65,-441,-5609,6113,-1,0,-1
178.11,-3.04,-42.65,-444,-5607,6103,-1,0,-1
178.10,-3.04,-42.65,-436,-5611,6101,0,0,-1
178.11,-3.03,-42.65,-442,-5629,6101,0,-1,-1
178.11,-3.03,-42.64,-440,-5629,6107,0,-1,-1
178.12,-3.03,-42.64,-435,-5617,6104,0,0,-1
178.12,-3.02,-42.64,-430,-5610,6103,0,-1,-1
178.12,-3.02,-42.64,-431,-5610,6105,-1,0,0
178.12,-3.02,-42.64,-437,-5606,6100,-1,0,-1
178.13,-3.03,-42.64,-434,-5610,6101,-1,0,-1
178.13,-3.03,-42.65,-438,-5613,6092,-1,0,-1
178.13,-3.03,-42.65,-440,-5610,6092,-1,0,-1
178.13,-3.03,-42.66,-441,-5618,6099,-1,0,-1
178.13,-3.03,-42.66,-437,-5619,6097,-1,-1,0
178.13,-3.03,-42.66,-438,-5621,6102,0,-1,0
178.13,-3.03,-42.65,-435,-5617,6107,0,0,0
178.13,-3.03,-42.65,-431,-5614,6101,0,0,0
178.12,-3.04,-42.64,-433,-5607,6106,0,0,0
178.12,-3.04,-42.64,-436,-5606,6108,-1,0,0
178.12,-3.04,-42.64,-436,-5606,6103,-1,0,0
178.12,-3.04,-42.65,-440,-5604,6105,-1,0,0
178.12,-3.04,-42.65,-446,-5610,6094,-1,0,0
178.12,-3.05,-42.65,-448,-5615,6093,-1,0,0
178.11,-3.05,-42.65,-450,-5617,6087,0,0,0
178.11,-3.05,-42.65,-446,-5611,6089,0,0,0
178.11,-3.05,-42.64,-448,-5609,6090,0,-1,0
178.11,-3.05,-42.64,-450,-5614,6094,0,-1,-1
178.11,-3.05,-42.63,-444,-5620,6103,0,-1,0
178.11,-3.05,-42.63,-450,-5619,6106,0,-1,0
178.11,-3.05,-42.63,-446,-5614,6099,0,0,0
178.11,-3.06,-42.63,-443,-5608,6102,-1,0,0
178.11,-3.06,-42.63,-442,-5606,6104,0,0,-1
178.12,-3.05,-42.62,-447,-5610,6117,0,-1,0
178.11,-3.06,-42.63,-445,-5617,6106,0,-1,-1
178.11,-3.06,-42.62,-451,-5618,6102,0,-1,0
178.11,-3.06,-42.62,-450,-5608,6095,0,-1,0
178.11,-3.06,-42.62,-440,-5609,6096,-1,-1,0
178.11,-3.06,-42.62,-435,-5620,6095,0,0,-1
178.11,-3.05,-42.62,-438,-5628,6098,0,0,-1
178.11,-3.05,-42.61,-435,-5614,6099,0,-1,0
178.11,-3.05,-42.60,-433,-5594,6104,0,0,0
178.11,-3.05,-42.60,-436,-5593,6106,-1,0,0
178.11,-3.06,-42.60,-446,-5606,6107,-1,0,0
178.11,-3.06,-42.61,-451,-5614,6105,-1,0,0
178.11,-3.06,-42.61,-446,-5612,6102,0,-1,-1
178.11,-3.06,-42.60,-451,-5614,6107,0,-1,-1
178.11,-3.06,-42.60,-447,-5614,6109,0,-1,-1
178.11,-3.06,-42.59,-448,-5611,6102,0,-1,0
178.11,-3.06,-42.58,-438,-5600,6103,0,-1,0
178.11,-3.05,-42.57,-436,-5596,6115,0,-1,0
178.11,-3.06,-42.57,-438,-5594,6116,-1,0,0
178.11,-3.06,-42.57,-440,-5593,6114,-1,0,0
178.11,-3.06,-42.57,-445,-5598,6116,-1,0,0
178.11,-3.06,-42.57,-438,-5604,6114,-1,-1,0
178.11,-3.06,-42.57,-440,-5609,6109,0,0,0
178.10,-3.06,-42.57,-445,-5609,6095,0,-1,0
178.10,-3.06,-42.57,-450,-5616,6097,0,-1,0
178.10,-3.07,-42.57,-447,-5616,6116,0,0,0
178.10,-3.07,-42.56,-439,-5605,6113,0,0,0
178.10,-3.07,-42.55,-452,-5600,6127,0,-1,-1
178.10,-3.07,-42.55,-445,-5605,6126,0,-1,-1
178.11,-3.06,-42.55,-445,-5601,6126,0,-1,0
178.11,-3.06,-42.54,-438,-5596,6117,0,0,0
178.11,-3.06,-42.54,-435,-5596,6118,0,0,0
178.11,-3.06,-42.54,-435,-5594,6123,-1,0,0
178.11,-3.06,-42.54,-430,-5601,6116,-1,0,0
178.11,-3.06,-42.54,-437,-5606,6108,-1,0,0
178.10,-3.07,-42.54,-443,-5608,6102,-1,0,0
178.10,-3.07,-42.54,-441,-5604,6101,0,0,-1
178.10,-3.07,-42.54,-449,-5605,6109,-1,0,0
178.10,-3.07,-42.54,-452,-5602,6116,-1,0,0
178.10,-3.07,-42.54,-446,-5604,6126,-1,-1,0
178.10,-3.07,-42.54,-441,-5609,6118,0,0,-1
178.10,-3.07,-42.54,-447,-5611,6119,0,-1,-1
178.10,-3.07,-42.54,-450,-5607,6116,0,0,0
178.09,-3.08,-42.53,-445,-5592,6113,0,0,0
178.09,-3.08,-42.53,-444,-5594,6118,-1,-1,0
178.09,-3.08,-42.53,-447,-5598,6111,-1,0,-1
178.09,-3.08,-42.54,-449,-5609,6101,0,0,-1
178.09,-3.08,-42.53,-444,-5613,6107,0,-1,0
178.10,-3.07,-42.52,-435,-5599,6116,0,-1,0
178.09,-3.07,-42.52,-430,-5596,6110,0,0,0
178.09,-3.07,-42.51,-443,-5601,6125,0,0,0
178.09,-3.08,-42.51,-452,-5610,6124,0,0,0
178.09,-3.08,-42.51,-461,-5599,6134,0,0,-1
178.09,-3.08,-42.51,-458,-5598,6135,-1,-1,0
178.09,-3.08,-42.51,-457,-5603,6118,-1,-1,-1
178.09,-3.08,-42.51,-447,-5601,6107,0,-1,-1
178.09,-3.08,-42.50,-444,-5601,6116,0,-1,0
178.09,-3.07,-42.50,-437,-5597,6112,0,0,0
178.08,-3.07,-42.49,-435,-5593,6120,0,-1,0
178.08,-3.07,-42.48,-434,-5591,6128,0,0,0
178.08,-3.08,-42.48,-440,-5597,6124,-1,0,0
178.08,-3.08,-42.49,-448,-5595,6113,-1,0,0
178.08,-3.09,-42.49,-451,-5595,6108,-1,-1,0
178.08,-3.08,-42.50,-449,-5603,6108,0,-1,0
178.08,-3.08,-42.50,-448,-5602,6113,0,0,0
178.08,-3.09,-42.49,-456,-5603,6111,0,0,0
178.08,-3.09,-42.49,-452,-5604,6117,0,0,0
178.08,-3.09,-42.49,-457,-5605,6131,0,-1,0
178.08,-3.09,-42.48,-447,-5602,6127,0,-1,-1
178.08,-3.09,-42.48,-442,-5588,6126,-1,-1,0
178.08,-3.08,-42.48,-428,-5585,6113,-1,-1,0
178.08,-3.08,-42.48,-420,-5580,6109,-1,0,0
178.08,-3.08,-42.48,-434,-5581,6122,-1,-1,0
178.08,-3.08,-42.48,-436,-5588,6118,-1,0,-1
178.08,-3.09,-42.48,-449,-5590,6117,-1,0,0
178.08,-3.09,-42.48,-458,-5599,6112,-1,-1,-1
178.08,-3.09,-42.48,-454,-5609,6113,0,-1,-1
178.08,-3.08,-42.48,-450,-5609,6119,0,-1,-1
178.08,-3.07,-42.48,-444,-5598,6124,0,-1,-1
178.08,-3.07,-42.47,-445,-5593,6123,0,-1,-1
178.08,-3.07,-42.47,-450,-5582,6120,-1,-1,0
178.09,-3.07,-42.48,-437,-5585,6117,-1,0,-1
178.09,-3.07,-42.48,-436,-5587,6128,-1,-1,-1
178.09,-3.06,-42.48,-431,-5591,6131,-1,0,-1
178.09,-3.07,-42.48,-441,-5581,6122,-1,0,0
178.09,-3.07,-42.49,-442,-5589,6118,-1,0,-1
178.09,-3.07,-42.50,-449,-5596,6114,-1,-1,-1
178.09,-3.07,-42.50,-449,-5601,6109,0,-1,-1
178.10,-3.06,-42.49,-450,-5598,6118,0,-1,-1
178.10,-3.06,-42.49,-439,-5595,6122,-1,-1,0
178.09,-3.05,-42.49,-437,-5601,6125,-1,-1,-1
178.10,-3.05,-42.50,-442,-5605,6129,-1,0,-1
178.10,-3.05,-42.50,-439,-5604,6124,-1,0,-1
178.10,-3.05,-42.50,-442,-5603,6119,-1,0,-1
178.10,-3.05,-42.51,-444,-5599,6111,-1,-1,-1
178.10,-3.05,-42.51,-445,-5599,6112,-1,-1,-1
178.10,-3.05,-42.51,-438,-5602,6113,-1,0,-1
178.11,-3.04,-42.51,-444,-5606,6126,0,-1,-1
178.11,-3.04,-42.51,-448,-5604,6119,-1,0,-1
178.11,-3.04,-42.51,-443,-5596,6118,-1,0,0
178.11,-3.04,-42.51,-444,-5587,6121,-1,-1,0
178.11,-3.04,-42.52,-441,-5596,6114,-1,0,-1
178.11,-3.04,-42.53,-451,-5598,6108,-1,0,-1
178.11,-3.04,-42.53,-442,-5601,6102,-1,0,0
178.11,-3.04,-42.54,-445,-5603,6097,-1,-1,-1
178.11,-3.04,-42.54,-445,-5607,6105,-1,-1,-1
178.11,-3.04,-42.54,-448,-5603,6114,0,-1,-1
178.11,-3.04,-42.54,-447,-5600,6115,-1,-1,-1
178.11,-3.04,-42.54,-445,-5593,6125,-1,-1,-1
178.11,-3.04,-42.54,-439,-5596,6125,-1,-1,-1
178.12,-3.03,-42.54,-438,-5600,6122,-1,-1,-1
178.12,-3.03,-42.54,-431,-5599,6123,-1,0,-1
178.12,-3.03,-42.54,-432,-5598,6124,-1,0,-1
178.12,-3.03,-42.54,-435,-5600,6117,-1,0,-1
178.12,-3.03,-42.55,-441,-5607,6107,-1,0,-1
178.11,-3.04,-42.56,-447,-5611,6111,-1,0,-1
178.11,-3.04,-42.56,-445,-5607,6104,-1,0,-1
178.11,-3.04,-42.56,-447,-5608,6105,0,0,0
178.12,-3.04,-42.56,-443,-5604,6106,-1,0,-1
178.12,-3.04,-42.56,-441,-5603,6113,-1,0,-1
178.12,-3.04,-42.56,-438,-5601,6120,-1,0,0
178.12,-3.03,-42.56,-440,-5599,6121,-1,0,-1
178.12,-3.03,-42.57,-440,-5605,6121,-1,0,-1
178.12,-3.03,-42.57,-437,-5601,6117,-1,0,-1
178.13,-3.03,-42.57,-434,-5602,6118,-1,0,-1
178.13,-3.03,-42.57,-434,-5599,6115,-1,0,-1
178.13,-3.03,-42.57,-434,-5599,6113,-1,-1,0
178.13,-3.03,-42.58,-439,-5611,6120,-1,0,-1
178.13,-3.03,-42.59,-450,-5614,6115,-1,0,-1
178.13,-3.03,-42.59,-449,-5612,6105,-1,0,-1
178.13,-3.03,-42.59,-439,-5605,6104,0,-1,-1
178.13,-3.03,-42.58,-433,-5593,6105,0,0,-1
178.13,-3.03,-42.59,-434,-5605,6107,-1,-1,0
178.13,-3.03,-42.59,-433,-5612,6109,-1,0,0
178.13,-3.03,-42.59,-450,-5599,6112,-1,0,0
178.13,-3.04,-42.60,-459,-5600,6105,-1,0,0
178.13,-3.05,-42.61,-464,-5607,6106,-1,-1,0
178.13,-3.05,-42.61,-456,-5607,6104,-1,0,0
178.13,-3.05,-42.62,-445,-5608,6095,-1,-1,0
178.12,-3.04,-42.63,-428,-5613,6105,-1,-1,0
178.12,-3.05,-42.63,-427,-5607,6099,-1,0,0
178.12,-3.05,-42.63,-437,-5607,6094,-1,0,0
178.12,-3.05,-42.63,-445,-5595,6108,-1,0,0
178.12,-3.05,-42.64,-454,-5600,6109,-1,0,-1
178.12,-3.05,-42.66,-455,-5618,6099,-1,0,-1
178.12,-3.05,-42.67,-453,-5621,6098,-1,-1,0
178.11,-3.06,-42.67,-455,-5623,6108,-1,0,-1
178.12,-3.05,-42.67,-451,-5626,6110,0,-1,-1
178.12,-3.05,-42.67,-450,-5619,6098,0,-1,0
178.12,-3.05,-42.67,-445,-5617,6112,0,-1,0
178.12,-3.05,-42.66,-444,-5613,6111,-1,-1,-1
178.13,-3.05,-42.66,-443,-5611,6109,0,-1,-1
178.13,-3.05,-42.66,-440,-5613,6111,-1,-1,-1
178.13,-3.04,-42.66,-430,-5613,6102,-1,-1,-1
178.13,-3.04,-42.67,-427,-5610,6109,-1,-1,-1
178.13,-3.04,-42.67,-428,-5604,6105,-1,0,-1
178.13,-3.04,-42.67,-436,-5610,6103,-1,0,-1
178.13,-3.04,-42.67,-445,-5620,6095,-1,0,-1
178.13,-3.04,-42.68,-439,-5620,6102,-1,0,-1
178.13,-3.04,-42.68,-442,-5620,6100,-1,0,0
178.14,-3.04,-42.68,-445,-5620,6099,0,0,-1
178.14,-3.04,-42.67,-446,-5623,6108,0,0,-1
178.14,-3.04,-42.67,-446,-5622,6116,0,-1,-1
178.14,-3.04,-42.67,-444,-5616,6115,-1,0,-1
178.14,-3.04,-42.67,-442,-5608,6100,-1,0,-1
178.15,-3.03,-42.67,-434,-5616,6098,-1,-1,-1
178.15,-3.03,-42.68,-435,-5617,6089,-1,0,-1
178.14,-3.04,-42.68,-441,-5617,6097,0,0,-1
178.15,-3.04,-42.67,-440,-5610,6101,-1,0,-1
178.15,-3.04,-42.67,-436,-5608,6101,-1,0,0
178.15,-3.04,-42.67,-429,-5609,6103,-1,0,0
178.15,-3.04,-42.68,-442,-5611,6098,-1,0,-1
178.16,-3.03,-42.69,-439,-5622,6095,-1,0,-1
178.16,-3.03,-42.69,-443,-5633,6095,-1,0,-1
178.16,-3.03,-42.69,-434,-5625,6107,0,-1,-1
178.16,-3.03,-42.69,-434,-5623,6103,-1,-1,0
178.16,-3.03,-42.69,-440,-5623,6103,-1,0,0
178.16,-3.03,-42.69,-444,-5623,6100,-1,0,-1
178.16,-3.04,-42.69,-451,-5620,6096,-1,0,0
178.16,-3.04,-42.69,-456,-5622,6103,-1,0,-1
178.16,-3.04,-42.70,-451,-5623,6103,-1,-1,-1
178.16,-3.04,-42.70,-443,-5629,6092,0,-1,0
178.16,-3.04,-42.70,-436,-5625,6088,0,-1,0
178.16,-3.03,-42.69,-424,-5622,6091,0,-1,0
178.16,-3.03,-42.69,-423,-5609,6088,0,0,0
178.15,-3.04,-42.69,-429,-5600,6103,-1,0,0
178.15,-3.04,-42.69,-430,-5604,6109,-1,0,0
178.15,-3.04,-42.69,-433,-5615,6110,-1,0,0
178.15,-3.04,-42.69,-434,-5623,6102,-1,-1,0
178.15,-3.04,-42.69,-434,-5618,6104,-1,-1,0
178.15,-3.04,-42.69,-441,-5626,6095,0,-1,0
178.15,-3.04,-42.69,-444,-5624,6083,0,0,-1
178.14,-3.04,-42.68,-452,-5624,6095,0,-1,0
178.14,-3.04,-42.67,-445,-5621,6105,0,-1,-1
178.15,-3.04,-42.67,-447,-5611,6108,0,-1,-1
178.15,-3.04,-42.66,-438,-5606,6101,0,-1,-1
178.15,-3.03,-42.66,-435,-5615,6105,0,0,-1
178.15,-3.03,-42.65,-429,-5607,6099,0,-1,0
178.15,-3.03,-42.65,-433,-5609,6091,0,0,0
178.15,-3.03,-42.64,-432,-5601,6101,0,0,0
178.15,-3.03,-42.64,-437,-5603,6107,-1,-1,0
178.15,-3.04,-42.64,-443,-5609,6096,0,0,-1
178.15,-3.04,-42.64,-449,-5610,6096,0,-1,-1
178.15,-3.04,-42.64,-444,-5615,6100,0,0,0
178.15,-3.03,-42.63,-441,-5615,6099,0,-1,-1
178.15,-3.03,-42.63,-433,-5611,6109,0,0,0
178.15,-3.03,-42.62,-443,-5607,6108,0,0,0
178.15,-3.04,-42.61,-445,-5604,6114,0,0,-1
178.15,-3.04,-42.61,-446,-5605,6118,0,0,-1
178.15,-3.04,-42.61,-447,-5603,6108,0,0,-1
178.15,-3.04,-42.61,-443,-5605,6106,0,-1,0
178.15,-3.04,-42.61,-434,-5611,6098,0,0,0
178.15,-3.04,-42.61,-438,-5607,6095,0,0,0
178.15,-3.04,-42.61,-442,-5605,6106,0,-1,0
178.15,-3.04,-42.61,-446,-5610,6104,-1,0,0
178.15,-3.04,-42.60,-444,-5613,6102,0,0,-1
178.15,-3.04,-42.60,-438,-5612,6102,0,-1,-1
178.15,-3.04,-42.59,-437,-5599,6102,0,0,0
178.16,-3.03,-42.58,-423,-5600,6098,0,-1,0
178.15,-3.04,-42.58,-440,-5607,6108,0,0,0
178.15,-3.04,-42.58,-454,-5610,6104,0,0,0
178.14,-3.04,-42.57,-455,-5607,6098,0,0,-1
178.15,-3.04,-42.57,-457,-5607,6101,0,-1,-1
178.15,-3.04,-42.57,-450,-5606,6112,0,-1,-1
178.15,-3.04,-42.57,-443,-5610,6114,0,-1,0
178.15,-3.04,-42.56,-441,-5597,6109,0,-1,0
178.15,-3.04,-42.55,-431,-5599,6104,0,0,0
178.15,-3.04,-42.55,-430,-5588,6117,0,-1,0
178.15,-3.03,-42.55,-426,-5593,6127,-1,0,0
178.15,-3.04,-42.55,-434,-5595,6122,-1,0,0
178.15,-3.04,-42.55,-433,-5594,6122,0,0,0
178.15,-3.04,-42.55,-443,-5605,6121,-1,0,0
178.14,-3.05,-42.55,-448,-5610,6114,0,0,0
178.14,-3.05,-42.54,-450,-5609,6117,0,0,-1
178.14,-3.05,-42.54,-458,-5609,6112,0,0,0
178.14,-3.05,-42.53,-452,-5606,6112,0,0,-1
178.14,-3.05,-42.53,-451,-5603,6104,0,0,-1
178.14,-3.05,-42.52,-450,-5597,6117,0,-1,-1
178.14,-3.05,-42.52,-441,-5595,6119,0,-1,-1
178.14,-3.05,-42.52,-431,-5588,6115,-1,0,0
178.14,-3.05,-42.52,-439,-5589,6107,-1,0,0
178.14,-3.05,-42.52,-432,-5593,6108,0,0,0
178.14,-3.05,-42.51,-436,-5594,6120,0,0,0
178.14,-3.05,-42.51,-444,-5594,6119,0,0,0
178.13,-3.06,-42.51,-457,-5594,6114,-1,0,0
178.13,-3.06,-42.51,-456,-5596,6111,0,-1,0
178.13,-3.06,-42.51,-455,-5602,6111,0,-1,0
178.13,-3.06,-42.51,-454,-5604,6121,0,0,-1
178.13,-3.06,-42.49,-456,-5593,6120,0,-1,0
178.13,-3.06,-42.49,-452,-5588,6115,0,0,0
178.13,-3.07,-42.49,-454,-5589,6125,-1,0,0
178.13,-3.07,-42.48,-454,-5584,6116,0,0,0
178.13,-3.07,-42.49,-453,-5597,6120,-1,0,0
178.13,-3.07,-42.49,-442,-5594,6123,0,0,0
178.12,-3.07,-42.48,-441,-5586,6125,-1,0,0
178.12,-3.07,-42.49,-441,-5599,6123,-1,0,0
178.12,-3.08,-42.49,-445,-5603,6111,-1,0,0
178.12,-3.08,-42.49,-452,-5606,6109,0,0,-1
178.12,-3.08,-42.49,-446,-5603,6114,0,-1,0
178.12,-3.07,-42.48,-443,-5597,6122,0,-1,0
178.11,-3.08,-42.48,-448,-5595,6115,0,0,0
178.12,-3.08,-42.48,-449,-5598,6129,0,0,0
178.11,-3.09,-42.47,-451,-5595,6131,0,0,-1
178.11,-3.09,-42.47,-452,-5593,6120,0,0,-1
178.11,-3.09,-42.47,-462,-5606,6123,0,-1,-1
178.11,-3.09,-42.47,-460,-5609,6126,0,-1,-1
178.11,-3.09,-42.47,-464,-5598,6114,0,-1,-1
178.12,-3.08,-42.46,-452,-5594,6115,0,-1,0
178.12,-3.08,-42.46,-444,-5592,6116,0,-1,-1
178.12,-3.07,-42.46,-436,-5590,6120,-1,-1,0
178.12,-3.07,-42.46,-440,-5588,6118,-1,-1,-1
178.11,-3.07,-42.47,-443,-5593,6121,-1,-1,0
178.11,-3.07,-42.48,-442,-5589,6119,-1,0,0
178.11,-3.07,-42.49,-452,-5601,6110,-1,-1,-1
178.11,-3.07,-42.49,-453,-5599,6115,-1,-1,-1
178.11,-3.07,-42.49,-457,-5602,6112,-1,-1,-1
178.12,-3.06,-42.49,-452,-5601,6112,0,-1,-1
178.12,-3.06,-42.49,-446,-5598,6115,0,-1,-1
178.12,-3.06,-42.49,-443,-5592,6117,-1,-1,-1
178.12,-3.06,-42.49,-434,-5592,6119,-1,-1,-1
178.13,-3.05,-42.50,-429,-5590,6123,-1,0,-1
178.13,-3.05,-42.50,-432,-5590,6128,-1,-1,0
178.12,-3.05,-42.51,-435,-5587,6126,-1,-1,0
178.12,-3.06,-42.51,-439,-5590,6118,-1,0,-1
178.13,-3.05,-42.52,-435,-5587,6128,-1,0,-1
178.12,-3.06,-42.53,-450,-5602,6121,-1,0,-1
178.12,-3.06,-42.53,-448,-5607,6124,-1,-1,-1
178.12,-3.06,-42.53,-447,-5603,6122,0,0,-1
178.13,-3.06,-42.53,-447,-5593,6119,0,0,-1
178.13,-3.05,-42.53,-433,-5600,6125,0,0,-1
178.13,-3.05,-42.52,-424,-5590,6123,0,0,-1
178.13,-3.05,-42.52,-437,-5596,6129,-1,0,-1
178.14,-3.05,-42.53,-437,-5596,6118,-1,0,-1
178.14,-3.05,-42.54,-439,-5586,6118,-1,0,-1
178.14,-3.05,-42.54,-443,-5593,6110,-1,0,-1
178.14,-3.05,-42.55,-446,-5597,6111,-1,-1,-1
178.14,-3.05,-42.55,-451,-5601,6104,-1,-1,-1
178.14,-3.05,-42.55,-450,-5607,6095,0,-1,-1
178.14,-3.04,-42.55,-445,-5597,6103,0,-1,0
178.14,-3.04,-42.55,-437,-5593,6109,-1,0,0
178.14,-3.04,-42.55,-442,-5592,6114,-1,0,-1
178.14,-3.04,-42.56,-442,-5601,6119,-1,-1,-1
178.14,-3.04,-42.56,-445,-5607,6108,-1,-1,-1
178.14,-3.04,-42.57,-438,-5601,6107,-1,-1,-1
178.15,-3.04,-42.57,-430,-5602,6108,-1,-1,0
178.15,-3.04,-42.57,-428,-5605,6107,-1,0,0
178.15,-3.04,-42.57,-438,-5601,6104,-1,0,0
178.14,-3.04,-42.57,-449,-5600,6113,-1,0,-1
178.15,-3.04,-42.57,-448,-5594,6120,-1,0,-1
178.15,-3.04,-42.57,-449,-5598,6117,-1,-1,-1
178.15,-3.04,-42.57,-443,-5603,6115,-1,-1,-1
178.15,-3.04,-42.57,-443,-5602,6108,-1,-1,-1
178.15,-3.04,-42.57,-434,-5605,6111,0,0,-1
178.15,-3.04,-42.57,-433,-5607,6118,-1,0,0
178.15,-3.04,-42.57,-441,-5601,6122,-1,0,0
178.15,-3.04,-42.57,-441,-5598,6122,-1,0,0
178.15,-3.04,-42.58,-437,-5607,6113,-1,0,0
178.15,-3.04,-42.59,-436,-5607,6106,-1,0,0
178.15,-3.04,-42.60,-435,-5614,6092,0,0,0
178.15,-3.04,-42.60,-442,-5614,6105,-1,0,-1
178.15,-3.05,-42.61,-451,-5611,6102,-1,0,-1
178.15,-3.05,-42.61,-455,-5612,6093,-1,-1,-1
178.15,-3.05,-42.61,-453,-5614,6095,-1,-1,-1
178.15,-3.04,-42.61,-439,-5617,6098,0,-1,-1
178.16,-3.03,-42.61,-435,-5612,6113,-1,-1,-1
178.16,-3.03,-42.61,-435,-5607,6107,-1,-1,0
178.15,-3.04,-42.61,-431,-5597,6119,-1,-1,0
178.15,-3.04,-42.61,-432,-5589,6122,-1,0,0
178.15,-3.04,-42.62,-437,-5599,6113,-1,0,0
178.15,-3.04,-42.63,-435,-5608,6110,-1,-1,-1
178.16,-3.03,-42.63,-436,-5613,6113,-1,0,-1
178.16,-3.04,-42.64,-436,-5620,6100,-1,0,-1
178.16,-3.04,-42.65,-441,-5622,6103,-1,0,0
178.16,-3.04,-42.65,-452,-5628,6099,-1,-1,0
178.15,-3.05,-42.65,-451,-5622,6097,0,0,-1
178.15,-3.05,-42.65,-450,-5620,6093,0,-1,-1
178.16,-3.04,-42.66,-442,-5613,6099,-1,-1,0
178.15,-3.05,-42.66,-440,-5612,6111,-1,0,0
178.15,-3.05,-42.66,-442,-5608,6092,-1,-1,0
178.15,-3.05,-42.67,-447,-5612,6086,-1,0,-1
178.15,-3.05,-42.67,-446,-5620,6090,-1,-1,-1
178.15,-3.04,-42.67,-438,-5618,6085,-1,-1,-1
178.15,-3.04,-42.67,-444,-5615,6101,0,-1,0
178.15,-3.04,-42.67,-445,-5615,6101,0,-1,0
178.15,-3.04,-42.67,-440,-5611,6109,-1,-1,0
178.15,-3.04,-42.67,-448,-5617,6099,-1,-1,-1
178.15,-3.04,-42.67,-439,-5615,6093,-1,0,-1
178.15,-3.04,-42.67,-442,-5619,6093,0,0,-1
178.15,-3.04,-42.67,-431,-5613,6088,0,-1,-1
178.16,-3.03,-42.67,-434,-5612,6100,-1,-1,0
178.16,-3.03,-42.67,-439,-5619,6105,-1,0,-1
178.16,-3.04,-42.67,-456,-5617,6099,-1,0,-1
178.16,-3.04,-42.67,-455,-5614,6095,-1,0,-1
178.16,-3.04,-42.67,-453,-5614,6105,-1,-1,-1
178.16,-3.04,-42.67,-443,-5614,6104,0,-1,-1
178.17,-3.03,-42.67,-440,-5612,6103,-1,-1,-1
178.17,-3.03,-42.67,-435,-5605,6100,-1,-1,-1
178.17,-3.03,-42.67,-434,-5607,6109,-1,0,-1
178.17,-3.03,-42.67,-432,-5614,6101,0,0,-1
178.18,-3.03,-42.67,-436,-5609,6099,-1,0,-1
178.18,-3.03,-42.67,-437,-5602,6105,-1,0,-1
178.18,-3.03,-42.67,-439,-5608,6101,-1,0,-1
178.18,-3.03,-42.68,-443,-5612,6109,-1,0,-1
178.18,-3.03,-42.68,-444,-5617,6104,-1,0,-1
178.18,-3.03,-42.68,-443,-5615,6092,-1,0,-1
178.19,-3.03,-42.68,-444,-5615,6085,0,0,-1
178.18,-3.03,-42.68,-445,-5618,6095,-1,0,-1
178.18,-3.03,-42.68,-448,-5615,6106,-1,0,-1
178.18,-3.03,-42.68,-445,-5614,6106,-1,-1,-1
178.18,-3.03,-42.68,-441,-5618,6100,-1,0,-1
178.19,-3.03,-42.68,-439,-5613,6096,-1,-1,0
178.19,-3.03,-42.68,-441,-5609,6103,-1,-1,0
178.19,-3.03,-42.69,-437,-5613,6113,-1,-1,0
178.18,-3.03,-42.69,-435,-5617,6099,-1,0,0
178.18,-3.03,-42.69,-436,-5624,6092,-1,0,0
178.18,-3.04,-42.69,-435,-5627,6102,-1,0,0
178.18,-3.04,-42.69,-439,-5628,6099,0,-1,0
178.18,-3.04,-42.69,-441,-5630,6099,0,-1,0
178.18,-3.04,-42.69,-441,-5619,6097,0,-1,0
178.18,-3.04,-42.68,-440,-5617,6089,0,0,-1
178.18,-3.04,-42.67,-437,-5613,6101,0,0,-1
178.18,-3.04,-42.67,-433,-5615,6108,0,-1,0
178.18,-3.04,-42.67,-437,-5616,6110,0,-1,0
178.18,-3.04,-42.67,-445,-5620,6097,0,-1,0
178.18,-3.04,-42.66,-445,-5625,6096,0,-1,0
178.18,-3.04,-42.66,-435,-5619,6094,0,0,0
178.18,-3.04,-42.65,-432,-5610,6105,0,0,-1
178.18,-3.04,-42.64,-443,-5609,6114,-1,-1,0
178.17,-3.04,-42.64,-448,-5609,6102,0,0,0
178.17,-3.04,-42.64,-445,-5607,6115,-1,-1,0
178.17,-3.04,-42.64,-449,-5617,6118,-1,0,0
178.17,-3.04,-42.65,-449,-5621,6111,-1,0,0
178.17,-3.05,-42.65,-446,-5615,6106,0,0,-1
178.17,-3.05,-42.64,-445,-5610,6096,0,-1,0
178.17,-3.05,-42.64,-445,-5604,6100,-1,-1,0
178.16,-3.06,-42.64,-447,-5602,6092,0,0,0
178.16,-3.06,-42.64,-447,-5614,6098,-1,-1,0
178.16,-3.07,-42.64,-449,-5609,6104,0,0,0
178.15,-3.07,-42.64,-457,-5610,6094,0,0,0
178.16,-3.07,-42.64,-452,-5612,6101,0,-1,-1
178.16,-3.07,-42.64,-459,-5607,6106,0,-1,-1
178.16,-3.06,-42.64,-448,-5617,6099,0,-1,-1
178.16,-3.06,-42.63,-446,-5619,6099,0,-1,0
178.16,-3.05,-42.62,-441,-5613,6107,0,-1,0
178.16,-3.05,-42.61,-436,-5603,6101,0,-1,0
178.16,-3.05,-42.61,-433,-5595,6104,0,0,0
178.16,-3.05,-42.60,-440,-5598,6121,0,-1,0
178.16,-3.05,-42.59,-447,-5602,6120,-1,-1,-1
178.16,-3.05,-42.59,-442,-5601,6113,-1,-1,0
178.16,-3.05,-42.59,-441,-5604,6101,0,-1,0
178.16,-3.05,-42.59,-443,-5615,6095,0,0,0
178.16,-3.05,-42.58,-444,-5616,6105,0,-1,0
178.16,-3.05,-42.58,-444,-5619,6104,0,-1,0
178.16,-3.05,-42.57,-453,-5609,6104,0,0,0
178.16,-3.05,-42.57,-448,-5609,6116,0,-1,0
178.17,-3.05,-42.55,-446,-5602,6125,0,-1,-1
178.16,-3.05,-42.55,-444,-5598,6122,0,-1,0
178.16,-3.05,-42.55,-446,-5593,6127,0,-1,0
178.16,-3.05,-42.55,-450,-5598,6123,-1,-1,0
178.15,-3.05,-42.55,-453,-5605,6117,-1,0,0
178.15,-3.06,-42.55,-453,-5605,6110,0,0,0
178.15,-3.06,-42.55,-453,-5596,6106,0,0,0
178.15,-3.07,-42.55,-451,-5597,6112,0,0,0
178.15,-3.06,-42.54,-443,-5603,6119,0,-1,-1
178.14,-3.06,-42.54,-446,-5611,6117,0,0,0
178.14,-3.06,-42.53,-445,-5603,6113,0,-1,0
178.14,-3.06,-42.52,-439,-5597,6111,0,-1,-1
178.14,-3.06,-42.52,-443,-5599,6119,0,0,-1
178.14,-3.06,-42.52,-438,-5595,6117,0,0,-1
178.15,-3.06,-42.52,-432,-5600,6119,0,-1,0
178.15,-3.06,-42.51,-431,-5593,6120,-1,-1,0
178.14,-3.06,-42.51,-431,-5600,6115,-1,0,0
178.14,-3.06,-42.52,-436,-5610,6108,0,0,-1
178.14,-3.06,-42.52,-445,-5604,6109,0,-1,-1
178.14,-3.06,-42.51,-446,-5605,6113,0,-1,-1
178.15,-3.06,-42.50,-442,-5596,6119,0,-1,0
178.15,-3.06,-42.49,-441,-5586,6113,0,-1,0
178.15,-3.06,-42.49,-443,-5596,6114,0,0,0
178.14,-3.06,-42.49,-447,-5594,6119,0,0,0
178.14,-3.06,-42.49,-450,-5589,6127,0,0,0
178.14,-3.07,-42.49,-453,-5591,6111,0,0,-1
178.14,-3.07,-42.49,-451,-5604,6118,-1,-1,-1
178.14,-3.06,-42.49,-449,-5598,6119,0,-1,-1
178.14,-3.06,-42.48,-446,-5594,6114,0,-1,0
178.14,-3.06,-42.48,-440,-5588,6121,0,0,0
178.14,-3.06,-42.47,-439,-5588,6127,0,-1,0
178.14,-3.06,-42.47,-450,-5591,6131,-1,0,0
178.13,-3.07,-42.47,-444,-5595,6128,-1,0,0
178.13,-3.07,-42.47,-444,-5600,6128,-1,0,0
178.13,-3.07,-42.48,-445,-5592,6115,-1,0,0
178.13,-3.07,-42.47,-444,-5592,6121,-1,0,0
178.13,-3.07,-42.48,-451,-5602,6116,0,0,0
178.13,-3.07,-42.47,-450,-5609,6120,0,-1,-1
178.13,-3.07,-42.47,-459,-5597,6122,0,-1,-1
178.13,-3.07,-42.46,-456,-5586,6130,0,-1,-1
178.13,-3.07,-42.46,-449,-5583,6135,0,-1,-1
178.13,-3.07,-42.46,-441,-5587,6122,0,-1,-1
178.13,-3.07,-42.46,-447,-5590,6131,0,-1,-1
178.13,-3.07,-42.46,-441,-5590,6135,-1,0,-1
178.13,-3.07,-42.46,-451,-5591,6133,-1,0,-1
178.14,-3.06,-42.46,-454,-5590,6132,-1,-1,-1
178.13,-3.07,-42.46,-455,-5599,6117,-1,-1,0
178.13,-3.07,-42.47,-446,-5603,6106,-1,-1,-1
178.13,-3.07,-42.47,-449,-5602,6111,-1,-1,0
178.13,-3.07,-42.47,-439,-5599,6120,-1,-1,-1
178.14,-3.06,-42.47,-436,-5587,6115,-1,0,-1
178.13,-3.06,-42.47,-441,-5585,6114,-1,-1,-1
178.13,-3.06,-42.48,-442,-5587,6117,-1,-1,-1
178.14,-3.06,-42.48,-441,-5597,6124,-1,0,-1
178.14,-3.05,-42.48,-436,-5588,6117,-1,-1,-1
178.14,-3.05,-42.49,-431,-5592,6118,-1,-1,-1
178.14,-3.05,-42.49,-438,-5597,6114,-1,0,0
178.14,-3.05,-42.49,-443,-5593,6115,-1,0,0
178.14,-3.05,-42.50,-439,-5596,6116,-1,0,-1
178.14,-3.05,-42.51,-445,-5603,6106,-1,0,-1
178.15,-3.05,-42.51,-444,-5603,6126,0,0,-1
178.15,-3.05,-42.51,-439,-5598,6123,-1,-1,-1
178.15,-3.04,-42.51,-429,-5593,6122,-1,-1,0
178.15,-3.04,-42.51,-423,-5590,6117,-1,0,0
178.15,-3.05,-42.52,-438,-5600,6126,-1,0,0
178.15,-3.06,-42.52,-448,-5599,6125,-1,0,-1
178.15,-3.06,-42.52,-459,-5598,6122,-1,0,-1
178.15,-3.06,-42.52,-459,-5604,6121,-1,0,-1
178.15,-3.05,-42.53,-454,-5609,6118,-1,-1,-1
178.16,-3.05,-42.54,-444,-5615,6114,-1,0,-1
178.16,-3.05,-42.54,-438,-5605,6111,-1,0,0
178.16,-3.05,-42.54,-425,-5602,6102,0,0,0
178.16,-3.05,-42.54,-440,-5599,6120,-1,0,0
178.16,-3.05,-42.54,-439,-5595,6128,-1,0,0
178.16,-3.06,-42.55,-449,-5599,6124,-1,0,-1
178.16,-3.06,-42.55,-454,-5609,6118,-1,-1,0
178.16,-3.05,-42.56,-440,-5602,6107,-1,-1,-1
178.17,-3.05,-42.56,-435,-5607,6107,0,-1,-1
178.17,-3.04,-42.56,-434,-5606,6102,0,-1,-1
178.17,-3.04,-42.56,-437,-5603,6104,0,0,0
178.17,-3.04,-42.56,-443,-5604,6106,-1,0,0
178.17,-3.04,-42.56,-440,-5604,6115,-1,-1,0
178.17,-3.04,-42.56,-449,-5605,6119,-1,-1,-1
178.17,-3.04,-42.57,-440,-5606,6113,-1,-1,-1
178.17,-3.04,-42.57,-439,-5598,6115,-1,0,-1
178.17,-3.04,-42.58,-435,-5601,6104,-1,0,0
178.17,-3.04,-42.58,-436,-5604,6108,-1,0,0
178.17,-3.04,-42.59,-438,-5607,6109,-1,0,0
178.17,-3.04,-42.59,-444,-5608,6109,-1,0,0
178.16,-3.05,-42.60,-442,-5605,6105,-1,0,0
178.17,-3.04,-42.60,-447,-5607,6116,-1,0,-1
178.16,-3.05,-42.60,-451,-5610,6109,-1,-1,0
178.17,-3.05,-42.61,-447,-5611,6114,-1,-1,-1
178.17,-3.05,-42.61,-437,-5613,6115,-1,-1,-1
178.17,-3.05,-42.61,-440,-5609,6104,-1,0,-1
178.17,-3.05,-42.61,-443,-5600,6103,-1,0,-1
178.17,-3.04,-42.61,-447,-5603,6100,-1,0,-1
178.17,-3.04,-42.61,-450,-5598,6108,-1,-1,-1
178.17,-3.04,-42.61,-447,-5600,6112,-1,-1,-1
178.17,-3.04,-42.61,-441,-5598,6113,-1,-1,0
178.17,-3.04,-42.61,-439,-5600,6107,-1,0,0
178.17,-3.04,-42.62,-439,-5604,6109,-1,0,-1
178.17,-3.05,-42.62,-446,-5609,6106,0,0,-1
178.17,-3.05,-42.62,-449,-5615,6103,0,-1,-1
178.18,-3.04,-42.62,-448,-5607,6105,-1,-1,-1
178.18,-3.04,-42.62,-444,-5609,6099,-1,-1,0
178.17,-3.05,-42.62,-443,-5611,6100,-1,0,0
178.17,-3.04,-42.62,-447,-5608,6111,-1,0,0
178.18,-3.04,-42.62,-440,-5607,6110,-1,0,-1
178.18,-3.04,-42.62,-441,-5601,6123,-1,0,-1
178.18,-3.04,-42.62,-441,-5601,6100,-1,-1,-1
178.18,-3.04,-42.62,-440,-5604,6108,-1,-1,0
178.18,-3.04,-42.63,-441,-5608,6110,0,-1,-1
178.18,-3.04,-42.63,-435,-5609,6109,-1,-1,0
178.18,-3.04,-42.63,-433,-5607,6114,-1,0,0
178.18,-3.04,-42.63,-434,-5605,6106,-1,0,0
178.18,-3.04,-42.64,-432,-5604,6116,-1,0,0
178.18,-3.04,-42.64,-446,-5608,6107,-1,0,-1
178.17,-3.05,-42.65,-449,-5611,6109,-1,0,-1
178.17,-3.05,-42.65,-456,-5617,6096,-1,0,0
178.17,-3.05,-42.66,-453,-5622,6100,-1,0,0
178.17,-3.05,-42.66,-442,-5624,6101,-1,-1,-1
178.17,-3.05,-42.66,-446,-5616,6099,0,0,-1
178.17,-3.05,-42.66,-446,-5610,6099,0,-1,-1
178.18,-3.05,-42.66,-443,-5610,6106,-1,0,-1
178.18,-3.05,-42.66,-442,-5614,6105,-1,0,-1
178.18,-3.05,-42.67,-442,-5615,6113,-1,0,-1
178.18,-3.05,-42.67,-441,-5608,6109,-1,0,-1
178.18,-3.05,-42.67,-432,-5611,6097,-1,0,-1
178.18,-3.05,-42.68,-436,-5608,6097,-1,0,0
178.19,-3.05,-42.69,-436,-5617,6093,-1,0,-1
178.19,-3.05,-42.69,-432,-5610,6091,-1,0,0
178.19,-3.06,-42.69,-437,-5606,6098,-1,0,0
178.19,-3.07,-42.69,-454,-5607,6103,-1,0,0
178.18,-3.08,-42.70,-453,-5607,6107,-1,0,0
178.17,-3.09,-42.71,-449,-5612,6120,-1,0,0
178.18,-3.09,-42.71,-452,-5620,6114,-1,0,-1
178.18,-3.10,-42.72,-453,-5630,6102,-1,0,0
178.16,-3.11,-42.74,-452,-5620,6096,-1,-1,0
178.16,-3.11,-42.74,-443,-5625,6090,-1,0,0
178.16,-3.11,-42.75,-441,-5629,6075,-1,0,-1
178.16,-3.11,-42.75,-450,-5616,6079,0,0,0
178.15,-3.12,-42.75,-458,-5619,6085,-1,0,0
178.14,-3.13,-42.76,-460,-5623,6105,-1,0,0
178.14,-3.13,-42.77,-456,-5622,6090,-1,-1,-1
178.15,-3.12,-42.77,-449,-5636,6078,0,0,-1
178.16,-3.13,-42.76,-471,-5612,6078,0,-1,0
178.15,-3.12,-42.76,-454,-5625,6077,0,-1,0
178.15,-3.12,-42.75,-445,-5642,6095,0,-1,-1
178.16,-3.11,-42.74,-449,-5637,6107,0,0,-1
178.16,-3.11,-42.74,-457,-5622,6095,0,-1,-1
178.16,-3.11,-42.73,-461,-5613,6083,0,0,-1
178.16,-3.11,-42.72,-466,-5622,6091,0,-1,-1
178.17,-3.11,-42.72,-454,-5627,6092,0,-1,-1
178.17,-3.10,-42.72,-453,-5631,6102,0,-1,-1
178.17,-3.09,-42.71,-445,-5624,6103,0,-1,-1
178.17,-3.09,-42.71,-435,-5619,6107,0,-1,0
178.17,-3.09,-42.70,-428,-5607,6106,0,0,0
178.17,-3.09,-42.70,-435,-5604,6102,0,0,0
178.17,-3.09,-42.69,-429,-5606,6102,0,0,0
178.17,-3.09,-42.69,-451,-5616,6115,-1,-1,0
178.17,-3.09,-42.69,-454,-5622,6105,0,-1,-1
178.17,-3.09,-42.69,-458,-5622,6091,0,-1,0
178.17,-3.09,-42.69,-453,-5629,6088,0,-1,-1
178.18,-3.08,-42.68,-448,-5623,6080,0,-1,-1
178.18,-3.08,-42.67,-445,-5616,6089,0,-1,-1
178.18,-3.07,-42.66,-444,-5612,6102,0,-1,0
178.17,-3.08,-42.65,-446,-5608,6112,0,-1,-1
178.17,-3.08,-42.65,-449,-5603,6111,0,-1,0
178.18,-3.07,-42.64,-448,-5606,6106,0,-1,-1
178.18,-3.07,-42.64,-445,-5606,6101,0,-1,0
178.18,-3.07,-42.64,-440,-5603,6098,0,-1,0
178.18,-3.07,-42.64,-438,-5603,6105,0,-1,0
178.18,-3.06,-42.64,-438,-5612,6095,0,0,0
178.18,-3.06,-42.63,-436,-5614,6100,0,0,-1
178.18,-3.07,-42.63,-446,-5614,6100,0,0,-1
178.18,-3.07,-42.62,-452,-5615,6095,0,-1,-1
178.18,-3.07,-42.62,-451,-5617,6095,0,-1,-1
178.18,-3.06,-42.61,-445,-5619,6097,0,-1,-1
178.18,-3.06,-42.61,-441,-5614,6099,0,0,-1
178.18,-3.06,-42.61,-439,-5613,6110,0,-1,0
178.18,-3.06,-42.60,-435,-5600,6109,0,0,0
178.18,-3.06,-42.60,-439,-5600,6107,0,0,0
178.18,-3.06,-42.60,-437,-5607,6102,0,0,-1
178.18,-3.06,-42.60,-440,-5615,6110,0,-1,0
178.18,-3.06,-42.59,-446,-5613,6106,0,0,-1
178.18,-3.07,-42.59,-459,-5608,6105,0,-1,0
178.18,-3.06,-42.59,-448,-5608,6110,0,-1,0
178.17,-3.07,-42.59,-446,-5609,6107,-1,0,0
178.18,-3.07,-42.59,-445,-5609,6105,0,0,-1
178.18,-3.07,-42.58,-449,-5600,6107,0,0,0
