Yaw,Pitch,Roll,AX,AY,AZ,GX,GY,GZ
-27.40,3.56,13.57,506,1911,7919,0,0,-1
-27.40,3.55,13.58,507,1915,7911,0,0,-1
-27.39,3.54,13.58,507,1918,7895,0,0,-1
-27.39,3.54,13.58,503,1918,7914,-1,0,-1
-27.39,3.54,13.58,502,1917,7913,0,0,-1
-27.38,3.53,13.58,495,1912,7916,-1,0,-1
-27.38,3.52,13.58,495,1912,7915,0,0,-1
-27.38,3.52,13.58,500,1912,7904,0,0,-1
-27.38,3.51,13.59,504,1910,7911,0,0,-1
-27.38,3.51,13.59,502,1923,7912,0,0,-1
-27.38,3.50,13.59,499,1916,7917,0,0,-1
-27.37,3.50,13.60,499,1921,7913,0,0,-1
-27.37,3.49,13.59,498,1917,7915,-1,0,-1
-27.37,3.49,13.59,494,1911,7910,-1,0,0
-27.37,3.49,13.58,503,1910,7932,-1,0,-1
-27.37,3.48,13.59,492,1910,7926,0,0,-1
-27.36,3.48,13.59,486,1914,7925,0,0,-1
-27.36,3.47,13.60,489,1925,7918,0,0,-1
-27.36,3.47,13.60,495,1928,7912,-1,0,-1
-27.36,3.47,13.60,492,1924,7916,-1,0,-1
-27.35,3.46,13.60,488,1919,7908,0,0,-1
-27.34,3.45,13.61,486,1920,7906,0,0,-1
-27.34,3.45,13.62,486,1925,7916,0,0,-1
-27.33,3.44,13.63,488,1920,7905,0,0,-1
-27.32,3.44,13.64,492,1933,7902,0,0,-1
-27.30,3.44,13.66,483,1939,7905,0,0,-1
-27.29,3.43,13.66,483,1927,7909,0,0,-1
-27.29,3.42,13.66,482,1916,7913,0,0,-1
-27.28,3.42,13.67,478,1921,7916,0,-1,-1
-27.27,3.42,13.68,486,1928,7904,0,0,-1
-27.26,3.41,13.70,479,1933,7906,0,-1,-1
-27.26,3.42,13.70,494,1919,7918,0,-1,0
-27.26,3.43,13.71,497,1931,7910,0,-1,-1
-27.26,3.42,13.72,482,1923,7912,0,-1,-1
-27.26,3.42,13.72,473,1933,7919,0,0,0
-27.26,3.43,13.72,472,1939,7901,0,-1,0
-27.26,3.43,13.72,486,1910,7894,0,-1,0
-27.27,3.44,13.73,487,1929,7918,0,0,0
-27.27,3.44,13.73,474,1926,7909,-1,-1,0
-27.27,3.45,13.73,498,1946,7911,-1,0,0
-27.27,3.45,13.73,474,1947,7905,-1,-1,0
-27.28,3.46,13.71,496,1924,7915,-1,-1,0
-27.28,3.46,13.72,485,1934,7920,-1,-1,0
-27.29,3.46,13.71,494,1932,7903,0,-1,0
-27.29,3.48,13.72,506,1931,7904,0,-1,0
-27.29,3.48,13.71,497,1942,7903,-1,0,0
-27.30,3.48,13.70,489,1936,7913,-1,-1,0
-27.30,3.48,13.70,479,1923,7904,-1,-1,0
-27.31,3.50,13.69,494,1914,7918,-1,-1,0
-27.31,3.49,13.69,488,1925,7910,-1,-1,0
-27.31,3.50,13.69,497,1926,7899,0,-1,0
-27.32,3.51,13.69,491,1929,7908,-1,-1,0
-27.32,3.52,13.69,504,1919,7892,-1,-1,0
-27.32,3.52,13.69,502,1930,7899,0,0,-1
-27.32,3.52,13.69,494,1935,7889,-1,-1,0
-27.33,3.52,13.69,506,1936,7914,-1,-1,0
-27.33,3.52,13.69,490,1927,7905,-1,-1,0
-27.33,3.52,13.69,498,1935,7902,-1,0,0
-27.33,3.53,13.69,490,1933,7901,0,-1,0
-27.33,3.53,13.70,506,1936,7897,0,-1,0
-27.33,3.54,13.70,503,1945,7903,-1,0,0
-27.33,3.54,13.69,498,1926,7906,-1,-1,0
-27.34,3.55,13.69,506,1925,7897,-1,-1,0
-27.35,3.55,13.68,508,1914,7907,-1,-1,0
-27.35,3.55,13.68,512,1925,7900,0,-1,0
-27.35,3.56,13.69,500,1938,7895,-1,-1,0
-27.35,3.56,13.68,511,1930,7902,-1,-1,0
-27.36,3.57,13.67,508,1922,7908,-1,-1,0
-27.37,3.57,13.66,505,1921,7915,-1,-1,0
-27.37,3.57,13.66,509,1924,7911,-1,-1,0
-27.37,3.57,13.66,511,1922,7908,0,-1,0
-27.37,3.57,13.66,512,1916,7916,-1,-1,0
-27.37,3.58,13.65,515,1908,7913,0,-1,0
-27.37,3.58,13.66,508,1913,7913,0,-1,-1
-27.37,3.58,13.66,505,1920,7917,0,-1,0
-27.37,3.58,13.66,502,1928,7915,-1,-1,0
-27.37,3.59,13.66,513,1925,7907,0,0,0
-27.37,3.59,13.66,512,1928,7908,0,-1,-1
-27.37,3.59,13.67,520,1925,7910,0,-1,0
-27.38,3.59,13.67,524,1919,7913,0,0,0
-27.38,3.59,13.68,520,1921,7902,0,-1,-1
-27.38,3.59,13.68,517,1928,7902,0,0,-1
-27.38,3.59,13.68,513,1925,7906,-1,-1,0
-27.38,3.59,13.68,499,1930,7901,0,0,0
-27.38,3.60,13.69,510,1937,7895,-1,-1,0
-27.39,3.60,13.68,507,1919,7922,0,-1,0
-27.39,3.60,13.69,505,1925,7909,0,-1,-1
-27.39,3.61,13.69,518,1922,7910,-1,0,0
-27.40,3.61,13.68,528,1922,7912,-1,0,0
-27.40,3.61,13.69,515,1925,7901,0,-1,0
-27.40,3.61,13.68,504,1914,7913,-1,-1,0
-27.40,3.62,13.68,515,1910,7903,-1,-1,0
-27.40,3.62,13.68,515,1925,7897,0,0,0
-27.41,3.62,13.68,504,1936,7898,0,-1,0
-27.42,3.63,13.67,525,1924,7894,-1,-1,0
-27.42,3.64,13.67,528,1931,7897,-1,0,0
-27.42,3.63,13.67,516,1921,7890,0,0,-1
-27.42,3.63,13.67,506,1916,7899,0,0,0
-27.42,3.63,13.67,506,1918,7908,0,-1,0
-27.42,3.64,13.67,521,1927,7913,-1,-1,0
-27.43,3.64,13.67,515,1920,7915,0,-1,0
-27.44,3.65,13.68,515,1922,7919,0,0,0
-27.44,3.66,13.68,528,1919,7910,-1,-1,0
-27.44,3.65,13.68,521,1911,7906,0,0,-1
-27.44,3.65,13.68,516,1925,7910,0,-1,-1
-27.44,3.66,13.68,514,1906,7901,0,0,0
-27.45,3.66,13.69,534,1937,7908,-1,-1,0
-27.45,3.65,13.69,524,1948,7912,0,0,-1
-27.45,3.65,13.69,506,1927,7903,0,-1,-1
-27.45,3.66,13.69,527,1922,7899,-1,0,0
-27.46,3.65,13.69,514,1932,7896,-1,0,0
-27.46,3.66,13.69,523,1933,7900,-1,-1,0
-27.46,3.65,13.69,522,1938,7916,-1,0,0
-27.46,3.65,13.68,523,1931,7910,-1,-1,0
-27.46,3.66,13.68,525,1930,7917,-1,-1,-1
-27.46,3.67,13.67,529,1925,7902,-1,0,0
-27.47,3.66,13.66,522,1919,7894,-1,-1,0
-27.47,3.67,13.64,526,1904,7911,-1,-1,0
-27.48,3.67,13.63,530,1906,7914,-1,-1,0
-27.48,3.68,13.63,528,1920,7912,-1,-1,-1
-27.48,3.68,13.63,524,1922,7927,-1,-1,0
-27.48,3.69,13.62,528,1913,7925,-1,-1,0
-27.48,3.68,13.62,525,1906,7922,0,-1,0
-27.49,3.69,13.62,526,1907,7931,0,-1,0
-27.50,3.69,13.62,521,1915,7920,0,-1,0
-27.49,3.69,13.63,515,1923,7924,0,-1,-1
-27.50,3.69,13.62,515,1921,7930,-1,-1,0
-27.50,3.69,13.62,520,1907,7937,-1,-1,0
-27.50,3.70,13.61,524,1895,7926,0,-1,0
-27.50,3.70,13.61,531,1899,7910,0,-1,0
-27.50,3.71,13.62,547,1925,7904,-1,0,-1
-27.50,3.70,13.62,533,1927,7907,-1,0,-1
-27.49,3.70,13.62,538,1923,7903,-1,0,-1
-27.49,3.70,13.61,529,1912,7919,-1,0,-1
-27.49,3.69,13.60,521,1907,7905,-1,0,-1
-27.49,3.69,13.59,520,1904,7908,-1,-1,0
-27.49,3.70,13.59,529,1904,7910,-1,-1,0
-27.49,3.70,13.59,536,1904,7905,0,0,-1
-27.48,3.70,13.60,539,1912,7897,0,0,-1
-27.48,3.70,13.60,539,1913,7894,-1,0,-1
-27.48,3.70,13.59,530,1910,7887,-1,-1,-1
-27.48,3.70,13.59,527,1904,7912,-1,0,-1
-27.48,3.69,13.58,528,1895,7924,-1,0,0
-27.48,3.70,13.58,523,1895,7932,0,-1,0
-27.48,3.70,13.58,535,1893,7917,0,-1,-1
-27.48,3.70,13.58,531,1899,7903,0,0,-1
-27.48,3.70,13.59,533,1908,7904,0,0,-1
-27.48,3.70,13.59,533,1913,7899,-1,0,-1
-27.47,3.70,13.59,539,1913,7903,0,0,-1
-27.47,3.69,13.59,530,1906,7914,0,0,-1
-27.47,3.69,13.59,524,1909,7917,-1,0,-1
-27.47,3.69,13.59,530,1908,7901,0,0,-1
-27.46,3.68,13.59,531,1915,7907,0,0,-1
-27.46,3.68,13.59,529,1920,7910,-1,0,0
-27.46,3.67,13.59,524,1919,7913,-1,0,-1
-27.46,3.67,13.59,524,1922,7912,0,0,-1
-27.46,3.67,13.59,518,1917,7913,-1,0,-1
-27.45,3.67,13.59,515,1913,7914,0,0,-1
-27.45,3.67,13.59,525,1915,7918,0,0,0
-27.45,3.67,13.60,524,1913,7916,0,0,-1
-27.45,3.66,13.60,524,1907,7913,0,0,-1
-27.45,3.66,13.60,522,1910,7910,0,0,-1
-27.44,3.65,13.60,522,1919,7905,0,0,-1
-27.43,3.65,13.62,524,1919,7910,0,0,-1
-27.42,3.64,13.63,522,1932,7911,0,0,-1
-27.42,3.63,13.62,518,1913,7914,-1,0,-1
-27.42,3.63,13.62,523,1895,7915,0,0,-1
-27.41,3.61,13.63,506,1892,7913,0,0,-1
-27.40,3.61,13.64,525,1913,7916,0,0,-1
-27.39,3.60,13.66,515,1938,7919,0,0,-1
-27.39,3.59,13.66,511,1928,7921,0,-1,0
-27.39,3.59,13.66,513,1911,7914,0,0,-1
-27.39,3.58,13.66,520,1900,7904,0,0,-1
-27.38,3.58,13.68,509,1904,7923,0,0,-1
-27.37,3.57,13.70,507,1920,7917,0,0,0
-27.37,3.56,13.71,512,1921,7897,0,0,-1
-27.37,3.55,13.72,489,1921,7895,0,-1,-1
-27.37,3.55,13.73,521,1929,7921,0,0,-1
-27.37,3.55,13.74,481,1940,7915,0,-1,0
-27.37,3.56,13.76,519,1927,7889,0,0,-1
-27.37,3.54,13.75,493,1916,7905,0,0,0
-27.37,3.55,13.77,516,1913,7873,0,0,0
-27.36,3.53,13.79,497,1912,7904,0,-1,-1
-27.36,3.54,13.81,504,1959,7891,-1,0,0
-27.36,3.53,13.81,495,1921,7908,0,-1,0
-27.36,3.53,13.82,517,1964,7887,0,0,-1
-27.36,3.52,13.83,491,1946,7922,0,-1,0
-27.36,3.52,13.83,510,1964,7903,-1,0,-1
-27.36,3.53,13.82,499,1922,7905,0,-1,0
-27.35,3.52,13.84,511,1963,7897,-1,0,-1
-27.34,3.50,13.84,482,1967,7924,-1,-1,0
-27.34,3.51,13.83,489,1948,7932,-1,0,-1
-27.34,3.51,13.83,492,1925,7899,0,0,-1
-27.34,3.51,13.83,520,1942,7884,-1,0,0
-27.34,3.50,13.83,511,1937,7900,0,-1,-1
-27.34,3.50,13.83,505,1948,7899,0,0,-1
-27.34,3.49,13.82,503,1954,7896,-1,0,-1
-27.33,3.48,13.83,483,1961,7910,-1,-1,-1
-27.32,3.49,13.83,507,1953,7905,-1,0,-1
-27.33,3.47,13.81,492,1950,7899,-1,0,0
-27.33,3.46,13.81,480,1953,7905,-1,-1,0
-27.32,3.46,13.81,501,1945,7898,0,0,-1
-27.32,3.46,13.81,503,1951,7909,-1,0,-1
-27.32,3.45,13.80,499,1948,7912,-1,-1,0
-27.32,3.45,13.80,504,1920,7897,0,0,-1
-27.32,3.44,13.81,484,1951,7903,-1,0,-1
-27.31,3.43,13.80,490,1956,7898,-1,0,0
-27.32,3.43,13.79,481,1940,7915,-1,0,0
-27.32,3.43,13.77,486,1923,7915,-1,-1,-1
-27.32,3.42,13.77,482,1916,7911,-1,0,-1
-27.32,3.42,13.76,480,1926,7905,-1,0,0
-27.32,3.41,13.76,489,1939,7907,-1,0,0
-27.32,3.41,13.76,485,1944,7905,-1,0,0
-27.32,3.40,13.74,483,1938,7915,-1,0,0
-27.32,3.41,13.74,481,1933,7929,-1,-1,-1
-27.32,3.41,13.74,483,1929,7919,0,-1,-1
-27.32,3.41,13.74,496,1931,7913,0,0,0
-27.32,3.41,13.74,490,1933,7907,0,-1,0
-27.32,3.41,13.74,486,1939,7903,-1,-1,0
-27.32,3.41,13.74,484,1930,7911,-1,-1,0
-27.32,3.41,13.74,476,1924,7917,0,-1,-1
-27.32,3.42,13.74,482,1920,7906,0,-1,-1
-27.32,3.42,13.75,494,1927,7920,0,-1,-1
-27.32,3.42,13.75,491,1919,7910,0,0,-1
-27.31,3.42,13.75,494,1924,7909,0,-1,-1
-27.31,3.43,13.75,494,1930,7909,0,-1,-1
-27.31,3.43,13.76,487,1944,7909,0,-1,-1
-27.31,3.43,13.76,483,1939,7910,-1,-1,-1
-27.31,3.43,13.76,491,1925,7913,-1,-1,0
-27.31,3.43,13.76,485,1920,7933,0,-1,-1
-27.31,3.44,13.76,494,1927,7926,0,-1,0
-27.31,3.45,13.78,488,1939,7919,0,-1,-1
-27.31,3.46,13.79,485,1941,7920,0,-1,0
-27.32,3.47,13.79,491,1951,7894,0,0,0
-27.32,3.47,13.80,487,1951,7897,0,-1,0
-27.32,3.49,13.80,498,1961,7899,0,-1,-1
-27.33,3.49,13.80,507,1950,7893,-1,0,0
-27.33,3.48,13.80,494,1939,7889,-1,0,0
-27.33,3.49,13.79,491,1942,7902,-1,-1,-1
-27.33,3.49,13.79,501,1941,7913,-1,0,0
-27.33,3.49,13.78,494,1949,7915,-1,-1,0
-27.33,3.49,13.77,507,1945,7907,-1,-1,0
-27.34,3.49,13.77,500,1932,7898,-1,-1,0
-27.34,3.50,13.76,508,1933,7906,-1,-1,0
-27.34,3.50,13.76,504,1936,7906,-1,0,0
-27.34,3.51,13.74,505,1932,7917,-1,-1,0
-27.35,3.51,13.74,502,1928,7919,-1,-1,0
-27.35,3.50,13.73,501,1927,7915,-1,-1,0
-27.35,3.51,13.73,497,1929,7904,0,-1,0
-27.36,3.52,13.73,500,1932,7906,-1,-1,0
-27.36,3.53,13.73,505,1931,7905,-1,-1,-1
-27.37,3.53,13.72,507,1929,7905,-1,0,0
-27.37,3.54,13.71,502,1919,7913,-1,-1,0
-27.37,3.54,13.71,503,1926,7909,0,-1,0
-27.37,3.54,13.72,502,1935,7903,0,-1,0
-27.37,3.55,13.72,508,1941,7900,-1,-1,0
-27.37,3.55,13.71,512,1928,7905,-1,-1,0
-27.38,3.56,13.71,513,1919,7917,0,-1,0
-27.38,3.56,13.71,514,1916,7902,0,-1,-1
-27.38,3.56,13.71,510,1936,7907,0,0,-1
-27.38,3.56,13.71,505,1943,7908,-1,-1,0
-27.38,3.56,13.70,513,1929,7906,-1,-1,0
-27.38,3.56,13.70,513,1928,7910,0,-1,0
-27.38,3.56,13.70,512,1924,7909,0,-1,-1
-27.38,3.57,13.71,515,1927,7903,0,-1,0
-27.38,3.57,13.71,522,1926,7911,0,-1,-1
-27.37,3.57,13.72,522,1938,7921,0,0,-1
-27.37,3.57,13.72,510,1934,7908,-1,0,-1
-27.37,3.57,13.72,506,1923,7909,0,-1,-1
-27.37,3.57,13.72,509,1909,7906,0,0,-1
-27.37,3.57,13.73,511,1916,7919,0,-1,0
-27.36,3.57,13.73,528,1916,7914,0,0,-1
-27.35,3.56,13.74,508,1915,7912,0,0,-1
-27.37,3.58,13.75,511,1892,7918,0,-1,0
-27.37,3.59,13.77,511,1925,7926,0,-1,-1
-27.38,3.60,13.79,512,1953,7917,0,-1,0
-27.38,3.60,13.79,517,1933,7906,-1,0,0
-27.39,3.61,13.79,499,1948,7887,-1,-1,0
-27.41,3.61,13.79,517,1943,7895,-1,-1,0
-27.41,3.62,13.79,538,1928,7899,0,0,-1
-27.40,3.60,13.80,518,1966,7906,-1,0,0
-27.41,3.62,13.79,512,1933,7923,-1,-1,0
-27.41,3.62,13.79,526,1950,7910,-1,0,-1
-27.41,3.62,13.78,491,1931,7935,0,-1,0
-27.42,3.63,13.78,538,1934,7915,-1,0,-1
-27.42,3.62,13.78,517,1939,7909,0,0,-1
-27.42,3.63,13.78,506,1929,7918,-1,-2,0
-27.42,3.63,13.77,532,1931,7917,-1,0,-1
-27.42,3.61,13.77,507,1940,7906,-1,0,-1
-27.41,3.62,13.77,488,1920,7913,0,-1,0
-27.42,3.63,13.77,534,1922,7908,-1,-1,0
-27.42,3.63,13.77,504,1951,7905,0,0,-1
-27.42,3.64,13.77,543,1925,7893,-1,0,0
-27.42,3.62,13.77,484,1942,7884,0,-1,-1
-27.42,3.64,13.77,543,1923,7903,0,-1,0
-27.42,3.63,13.76,516,1931,7902,-1,0,-1
-27.42,3.64,13.77,517,1940,7894,-1,-1,0
-27.43,3.64,13.76,525,1937,7913,-1,0,-1
-27.43,3.64,13.76,498,1934,7915,0,-1,0
-27.43,3.65,13.76,545,1911,7908,0,0,-1
-27.43,3.65,13.76,528,1945,7902,-1,-1,0
-27.43,3.66,13.75,532,1943,7892,-1,-1,0
-27.44,3.67,13.75,530,1931,7914,-1,-1,0
-27.44,3.67,13.73,524,1926,7900,-1,0,0
-27.45,3.67,13.73,518,1930,7899,0,-1,0
-27.44,3.68,13.73,518,1921,7898,-1,-1,0
-27.45,3.69,13.72,544,1928,7914,-1,-1,0
-27.45,3.68,13.72,530,1926,7915,-1,0,0
-27.45,3.69,13.72,532,1925,7902,-1,-1,-1
-27.45,3.70,13.72,531,1929,7907,-1,-1,0
-27.46,3.69,13.70,528,1933,7902,-1,0,0
-27.46,3.69,13.70,520,1933,7901,-1,-1,0
-27.46,3.70,13.69,521,1920,7904,-1,-1,0
-27.46,3.70,13.69,520,1919,7929,-1,-1,0
-27.47,3.70,13.68,522,1924,7928,-1,-1,0
-27.47,3.70,13.68,517,1931,7918,-1,-1,0
-27.47,3.71,13.67,519,1919,7906,-1,-1,0
-27.47,3.71,13.66,521,1918,7911,-1,0,0
-27.47,3.71,13.66,525,1915,7917,-1,0,0
-27.47,3.71,13.66,519,1912,7912,0,-1,0
-27.47,3.71,13.66,516,1916,7917,-1,-1,0
-27.47,3.71,13.65,531,1918,7922,-1,0,0
-27.47,3.71,13.65,527,1919,7912,-1,0,0
-27.48,3.71,13.65,533,1918,7893,-1,0,0
-27.48,3.71,13.64,533,1909,7897,-1,0,0
-27.48,3.71,13.63,535,1907,7906,-1,0,0
-27.48,3.71,13.63,535,1910,7912,-1,0,0
-27.48,3.71,13.63,526,1911,7908,-1,-1,-1
-27.48,3.71,13.63,531,1914,7895,0,-1,-1
-27.48,3.71,13.63,533,1926,7895,-1,0,-1
-27.48,3.71,13.63,531,1925,7900,-1,0,-1
-27.48,3.71,13.63,531,1925,7905,0,-1,-1
-27.48,3.71,13.63,534,1928,7908,-1,-1,0
-27.48,3.71,13.63,540,1916,7906,-1,0,-1
-27.47,3.71,13.63,523,1917,7914,0,0,-1
-27.47,3.70,13.63,528,1914,7917,-1,0,-1
-27.47,3.70,13.63,525,1914,7912,0,-1,-1
-27.47,3.70,13.63,523,1917,7903,-1,-1,0
-27.47,3.70,13.63,523,1928,7894,-1,0,0
-27.47,3.70,13.63,525,1924,7888,-1,0,0
-27.47,3.70,13.63,527,1917,7897,0,0,-1
-27.47,3.70,13.63,528,1911,7894,0,0,-1
-27.47,3.69,13.63,532,1914,7898,0,0,-1
-27.47,3.68,13.63,523,1917,7904,0,0,-1
-27.46,3.68,13.63,523,1912,7891,0,0,-1
-27.46,3.68,13.64,521,1923,7897,0,0,-1
-27.46,3.68,13.63,519,1921,7907,-1,0,-1
-27.46,3.68,13.64,518,1919,7897,0,0,-1
-27.46,3.68,13.63,523,1913,7914,0,-1,-1
-27.45,3.68,13.64,529,1917,7906,0,-1,-1
-27.45,3.68,13.64,527,1918,7910,0,0,0
-27.45,3.67,13.64,522,1919,7906,-1,0,0
-27.45,3.67,13.64,525,1902,7917,-1,0,-1
-27.45,3.67,13.64,529,1902,7914,0,-1,-1
-27.44,3.67,13.64,523,1914,7908,0,0,-1
-27.44,3.66,13.64,524,1918,7915,-1,0,-1
-27.44,3.66,13.64,529,1923,7909,-1,0,-1
-27.44,3.65,13.64,531,1919,7916,-1,0,-1
-27.43,3.65,13.63,534,1909,7914,-1,0,-1
-27.43,3.65,13.63,524,1914,7902,0,0,-1
-27.43,3.64,13.64,522,1920,7903,0,0,-1
-27.42,3.63,13.65,516,1924,7918,0,0,-1
-27.42,3.63,13.65,520,1925,7917,0,0,-1
-27.42,3.63,13.65,520,1927,7911,-1,0,-1
-27.42,3.63,13.65,519,1921,7924,-1,0,-1
-27.42,3.63,13.65,511,1919,7917,0,0,-1
-27.41,3.62,13.65,516,1914,7912,0,0,-1
-27.41,3.62,13.65,514,1915,7915,0,0,-1
-27.41,3.61,13.65,514,1912,7911,0,0,-1
-27.41,3.60,13.65,520,1916,7905,-1,0,-1
-27.41,3.60,13.65,518,1915,7906,-1,0,-1
-27.41,3.60,13.65,514,1910,7897,-1,0,-1
-27.41,3.60,13.65,517,1915,7915,0,0,-1
-27.41,3.59,13.64,519,1907,7917,-1,0,-1
-27.40,3.59,13.64,515,1909,7902,0,0,-1
-27.40,3.58,13.64,514,1899,7920,0,0,-1
-27.39,3.58,13.64,517,1902,7918,0,0,-1
-27.39,3.58,13.66,517,1933,7916,0,0,-1
-27.39,3.58,13.66,509,1935,7902,-1,-1,-1
-27.39,3.58,13.66,517,1924,7897,-1,0,0
-27.39,3.57,13.65,521,1908,7916,-1,0,0
-27.39,3.57,13.65,517,1913,7923,-1,-1,-1
-27.38,3.58,13.65,523,1917,7912,0,0,-1
-27.38,3.57,13.66,523,1918,7900,0,0,-1
-27.38,3.57,13.66,511,1923,7901,-1,0,-1
-27.38,3.57,13.65,509,1920,7909,-1,-1,-1
-27.38,3.57,13.65,505,1915,7915,-1,-1,0
-27.38,3.57,13.65,510,1912,7907,0,-1,-1
-27.38,3.57,13.66,521,1917,7907,0,0,-1
-27.38,3.57,13.66,516,1921,7916,0,0,-1
-27.38,3.57,13.67,515,1925,7905,0,0,-1
-27.38,3.57,13.67,509,1931,7900,-1,-1,-1
-27.37,3.57,13.67,515,1931,7908,-1,-1,-1
-27.37,3.57,13.66,517,1910,7905,-1,-1,-1
-27.37,3.57,13.65,513,1893,7917,0,0,-1
-27.37,3.57,13.66,522,1904,7923,0,0,-1
-27.37,3.57,13.67,522,1930,7916,0,0,-1
-27.37,3.57,13.69,509,1944,7915,0,0,-1
-27.37,3.57,13.68,511,1927,7911,-1,0,0
-27.38,3.56,13.68,495,1926,7908,-1,-1,0
-27.38,3.56,13.68,498,1933,7927,-1,-1,0
-27.38,3.57,13.67,507,1922,7931,-1,-1,0
-27.38,3.58,13.67,518,1920,7920,0,-1,0
-27.38,3.58,13.67,518,1914,7917,0,-1,-1
-27.38,3.58,13.67,517,1908,7906,0,0,-1
-27.38,3.57,13.67,510,1905,7896,0,0,-1
-27.38,3.56,13.68,500,1921,7916,0,0,-1
-27.38,3.55,13.69,494,1931,7913,-1,0,-1
-27.38,3.55,13.69,493,1936,7906,-1,-1,0
-27.38,3.55,13.68,498,1921,7916,-1,-1,0
-27.39,3.57,13.68,513,1918,7915,-1,-1,0
-27.39,3.57,13.67,526,1910,7905,0,0,-1
-27.38,3.57,13.68,516,1912,7914,0,0,-1
-27.38,3.56,13.68,510,1912,7925,0,0,-1
-27.38,3.55,13.69,503,1919,7908,0,0,-1
-27.38,3.55,13.70,502,1923,7905,0,-1,-1
-27.37,3.55,13.71,496,1935,7910,0,-1,-1
-27.37,3.55,13.72,509,1939,7902,-1,-1,-1
-27.37,3.56,13.71,513,1919,7902,0,0,-1
-27.36,3.56,13.71,515,1903,7909,0,0,-1
-27.36,3.55,13.73,507,1910,7906,0,0,-1
-27.35,3.55,13.75,506,1929,7909,0,0,-1
-27.34,3.54,13.76,491,1949,7899,0,-1,-1
-27.34,3.55,13.76,497,1950,7887,-1,-1,0
-27.34,3.56,13.76,497,1948,7895,-1,-1,0
-27.34,3.58,13.74,512,1930,7888,-1,-1,-1
-27.34,3.58,13.74,525,1901,7903,0,-1,-1
-27.34,3.59,13.74,539,1899,7926,0,0,-1
-27.34,3.59,13.75,528,1905,7935,0,0,-1
-27.33,3.58,13.77,516,1928,7907,0,0,-1
-27.33,3.57,13.79,495,1944,7894,0,-1,-1
-27.32,3.57,13.80,489,1963,7887,-1,-1,0
-27.33,3.58,13.80,492,1964,7885,-1,-1,0
-27.33,3.59,13.78,505,1932,7910,-1,-1,0
-27.34,3.61,13.76,526,1899,7928,-1,-1,0
-27.34,3.62,13.76,522,1895,7936,0,-1,-1
-27.35,3.62,13.79,527,1923,7922,0,-1,-1
-27.34,3.62,13.82,535,1958,7895,0,0,-1
-27.34,3.62,13.82,531,1965,7876,-1,0,-1
-27.34,3.62,13.82,508,1956,7868,-1,0,0
-27.35,3.62,13.79,508,1944,7891,-1,-1,0
-27.35,3.63,13.78,519,1923,7916,-1,-1,0
-27.35,3.63,13.76,530,1915,7939,-1,0,-1
-27.36,3.63,13.76,519,1902,7922,0,-1,0
-27.36,3.63,13.76,524,1905,7904,0,-1,-1
-27.35,3.64,13.78,535,1894,7891,0,0,-1
-27.35,3.62,13.79,529,1915,7882,0,0,-1
-27.34,3.61,13.81,518,1963,7898,0,0,-1
-27.35,3.61,13.82,524,1996,7918,-1,-1,0
-27.35,3.61,13.82,515,1990,7915,-1,-1,0
-27.36,3.62,13.79,507,1942,7891,-1,-1,0
-27.37,3.62,13.76,516,1893,7895,-1,-1,0
-27.37,3.63,13.76,533,1875,7925,0,-1,0
-27.38,3.63,13.78,555,1894,7943,0,0,-1
-27.37,3.62,13.81,545,1939,7924,0,0,-1
-27.36,3.61,13.83,516,1974,7901,0,0,-1
-27.36,3.60,13.83,502,1985,7876,-1,0,0
-27.37,3.60,13.83,482,1990,7869,-1,-1,0
-27.37,3.61,13.79,497,1963,7892,-2,-1,0
-27.39,3.63,13.76,522,1903,7915,-1,-1,0
-27.40,3.64,13.75,544,1868,7926,0,0,0
-27.40,3.64,13.77,549,1902,7937,1,0,-1
-27.39,3.64,13.79,532,1955,7910,0,0,-1
-27.38,3.63,13.80,505,1970,7876,-1,-1,-1
-27.39,3.63,13.78,505,1935,7869,-1,-1,0
-27.39,3.63,13.78,520,1903,7902,0,-1,0
-27.39,3.64,13.78,534,1905,7932,0,-1,0
-27.39,3.65,13.80,537,1942,7934,0,-1,-1
-27.39,3.65,13.81,534,1963,7912,0,-1,-1
-27.39,3.65,13.81,532,1928,7871,0,0,-1
-27.39,3.65,13.81,514,1913,7873,0,0,-1
-27.39,3.64,13.82,507,1941,7884,0,-1,-1
-27.39,3.65,13.84,517,1976,7897,-1,-1,-1
-27.39,3.67,13.83,534,1982,7902,-1,-1,0
-27.39,3.67,13.82,542,1947,7901,-1,0,0
-27.39,3.68,13.81,540,1919,7890,0,-1,-1
-27.39,3.68,13.81,525,1915,7890,0,0,-1
-27.39,3.68,13.82,522,1930,7908,-1,-1,0
-27.39,3.68,13.81,516,1953,7897,-1,-1,0
-27.40,3.70,13.80,530,1937,7907,-1,-1,0
-27.40,3.70,13.79,527,1912,7933,0,-1,-1
-27.40,3.70,13.80,537,1925,7932,0,-1,-1
-27.39,3.71,13.81,524,1936,7931,0,-1,-1
-27.39,3.71,13.82,527,1930,7911,0,-1,-1
-27.39,3.73,13.82,546,1904,7903,0,-1,0
-27.39,3.73,13.84,545,1920,7902,0,-1,-1
-27.39,3.73,13.87,551,1949,7916,0,0,-1
-27.39,3.72,13.89,533,1994,7911,-1,-1,-1
-27.40,3.74,13.88,533,1973,7877,-1,-1,0
-27.41,3.75,13.87,536,1948,7868,-1,-1,0
-27.42,3.76,13.86,529,1938,7893,-1,-1,0
-27.43,3.76,13.85,540,1941,7907,-1,-1,0
-27.43,3.77,13.84,557,1932,7905,-1,-1,0
-27.44,3.78,13.83,554,1917,7910,0,-1,0
-27.44,3.78,13.85,552,1944,7905,0,0,-1
-27.44,3.78,13.86,524,1958,7884,-1,-1,0
-27.44,3.79,13.84,540,1948,7869,-1,0,0
-27.45,3.79,13.82,539,1937,7886,-1,-1,0
-27.45,3.79,13.80,540,1922,7908,-1,-1,-1
-27.45,3.79,13.80,544,1935,7932,-1,-1,-1
-27.45,3.79,13.80,548,1926,7917,0,0,-1
-27.45,3.78,13.81,539,1929,7897,0,0,-1
-27.45,3.77,13.80,534,1926,7895,-1,0,-1
-27.44,3.78,13.79,542,1909,7892,-1,0,-1
-27.44,3.77,13.79,552,1903,7925,0,0,-1
-27.44,3.77,13.81,547,1930,7938,0,0,-1
-27.44,3.76,13.82,548,1961,7934,0,-1,-1
-27.44,3.77,13.83,549,1955,7902,0,0,0
-27.44,3.77,13.84,553,1943,7875,0,0,-1
-27.43,3.76,13.85,541,1946,7878,0,0,-1
-27.43,3.75,13.86,537,1963,7899,-1,-1,0
-27.44,3.76,13.85,534,1949,7906,-1,-1,0
-27.44,3.76,13.85,542,1933,7906,0,-1,0
-27.44,3.77,13.86,546,1930,7912,0,0,-1
-27.44,3.77,13.87,543,1940,7910,0,0,-1
-27.43,3.76,13.88,540,1946,7905,0,0,-1
-27.43,3.75,13.88,534,1946,7898,-1,0,-1
-27.43,3.74,13.87,526,1957,7910,0,0,-1
-27.44,3.74,13.88,524,1969,7903,0,-1,0
-27.44,3.75,13.89,531,1971,7915,-1,-1,0
-27.44,3.76,13.88,544,1951,7907,-1,-1,0
-27.45,3.77,13.87,552,1926,7901,0,0,-1
-27.44,3.76,13.87,539,1911,7914,0,0,-1
-27.44,3.76,13.88,534,1919,7906,0,0,-1
-27.44,3.75,13.89,530,1946,7897,0,0,-1
-27.44,3.75,13.89,543,1959,7897,-1,-1,0
-27.44,3.76,13.89,547,1951,7891,0,-1,-1
-27.44,3.75,13.89,546,1951,7897,0,0,-1
-27.44,3.75,13.90,534,1957,7907,-1,-1,0
-27.44,3.76,13.89,530,1942,7895,-1,-1,0
-27.44,3.76,13.89,531,1935,7865,-1,0,0
-27.44,3.76,13.89,531,1948,7860,0,0,-1
-27.44,3.76,13.89,542,1970,7904,-1,0,-1
-27.44,3.76,13.88,546,1950,7931,-1,0,-1
-27.44,3.75,13.87,533,1918,7921,0,0,-1
-27.44,3.75,13.88,523,1921,7906,0,0,0
-27.44,3.75,13.89,527,1958,7882,0,-1,0
-27.45,3.76,13.90,524,1986,7859,-1,-1,0
-27.46,3.76,13.87,534,1976,7869,-1,-1,0
-27.47,3.77,13.85,540,1953,7900,-1,-1,0
-27.47,3.77,13.84,541,1922,7924,-1,-1,0
-27.47,3.78,13.84,551,1893,7938,0,-1,-1
-27.47,3.77,13.85,559,1895,7932,1,0,-1
-27.46,3.78,13.89,550,1932,7890,1,0,-1
-27.45,3.77,13.92,527,1989,7851,0,0,-1
-27.45,3.76,13.91,517,1996,7856,-1,-1,-1
-27.45,3.76,13.87,523,1946,7880,-2,0,0
-27.46,3.76,13.84,542,1881,7935,-1,0,0
-27.45,3.76,13.85,546,1891,7960,1,0,-1
-27.45,3.76,13.90,545,1968,7937,1,-1,-1
-27.44,3.76,13.93,544,2021,7876,-1,-1,-1
-27.44,3.77,13.92,533,2011,7826,-2,0,0
-27.45,3.76,13.87,521,1935,7846,-2,0,0
-27.46,3.76,13.84,525,1874,7905,-1,0,0
-27.45,3.76,13.85,543,1887,7963,0,-1,-1
-27.44,3.76,13.88,547,1947,7962,0,-1,-1
-27.44,3.77,13.89,572,1957,7916,0,0,-1
-27.43,3.76,13.90,557,1955,7847,0,0,-1
-27.43,3.75,13.91,526,1956,7819,-1,0,-1
-27.43,3.75,13.89,521,1958,7861,-1,-1,0
-27.43,3.76,13.86,532,1940,7926,-1,-1,0
-27.44,3.76,13.85,556,1909,7962,-1,0,0
-27.44,3.76,13.85,553,1895,7969,0,0,-1
-27.43,3.76,13.87,558,1920,7940,0,0,-1
-27.43,3.76,13.88,550,1954,7874,0,0,-1
-27.43,3.75,13.90,539,1982,7815,-1,0,-1
-27.43,3.74,13.89,527,1995,7828,-1,0,-1
-27.42,3.74,13.87,528,1989,7881,-2,-1,-1
-27.43,3.75,13.81,537,1905,7947,-1,-1,0
-27.43,3.75,13.80,548,1847,7967,0,0,-1
-27.42,3.75,13.83,542,1870,7967,1,-1,-1
-27.41,3.74,13.87,559,1920,7917,1,0,-1
-27.39,3.72,13.91,545,1980,7852,0,0,-1
-27.38,3.71,13.91,523,1986,7821,-1,0,-1
-27.38,3.70,13.90,504,1985,7848,-1,-1,0
-27.38,3.70,13.88,511,1974,7904,-1,-1,0
-27.38,3.71,13.88,518,1987,7960,-1,-1,0
-27.39,3.72,13.86,533,1964,7975,-1,-1,-1
-27.39,3.73,13.84,535,1869,7929,-1,-1,0
-27.39,3.71,13.85,554,1854,7869,1,0,-1
-27.37,3.70,13.91,532,1950,7832,1,0,-1
-27.37,3.70,13.96,524,2058,7837,-1,-1,0
-27.37,3.72,13.94,526,2086,7872,-2,-1,-1
-27.36,3.72,13.87,536,1965,7924,-3,0,-1
-27.37,3.71,13.80,525,1804,7928,-1,0,-1
-27.36,3.69,13.82,510,1824,7955,2,0,-1
-27.36,3.69,13.87,505,1932,7946,1,-1,-1
-27.36,3.71,13.89,550,1994,7876,-1,-1,0
-27.36,3.71,13.87,548,1991,7834,-1,0,-1
-27.36,3.70,13.85,539,1996,7862,-2,0,-1
-27.37,3.69,13.81,535,1914,7923,-2,-1,0
-27.37,3.70,13.79,558,1891,7942,0,0,-1
-27.36,3.70,13.80,530,1897,7949,0,-1,-1
-27.35,3.71,13.84,549,1924,7915,1,-1,-1
-27.33,3.70,13.87,542,2001,7899,0,0,-1
-27.32,3.70,13.85,533,1991,7895,-2,0,-1
-27.32,3.69,13.80,541,1916,7883,-2,0,-1
-27.31,3.68,13.78,534,1868,7864,0,0,-1
-27.29,3.66,13.81,526,1975,7905,0,0,-1
-27.28,3.66,13.83,490,2032,7924,-2,-1,-1
-27.27,3.69,13.79,531,2020,7902,-2,-1,-1
-27.27,3.69,13.75,531,1968,7892,-2,0,-1
-27.26,3.69,13.72,524,1932,7919,-2,-1,-1
-27.27,3.70,13.68,534,1910,7914,-1,-1,-1
-27.26,3.70,13.67,506,1908,7909,0,-1,-1
-27.26,3.71,13.69,525,1913,7910,0,0,-1
-27.25,3.71,13.70,510,1961,7910,-1,-1,-1
-27.24,3.73,13.70,529,1976,7861,0,-1,-1
-27.23,3.74,13.69,521,1984,7898,-2,-1,-1
-27.23,3.75,13.63,542,1936,7919,-2,-1,-1
-27.21,3.75,13.59,540,1867,7941,-2,0,-1
-27.19,3.74,13.57,484,1858,7973,0,-1,-1
-27.17,3.76,13.56,471,1862,7966,-1,-2,-1
-27.17,3.81,13.53,499,1858,7942,-1,-2,-1
-27.16,3.84,13.52,522,1879,7935,-1,-2,0
-27.16,3.87,13.50,529,1902,7940,-2,-2,-1
-27.17,3.90,13.45,543,1912,7951,-3,-1,0
-27.19,3.93,13.39,549,1891,7934,-3,-2,0
-27.19,3.95,13.34,575,1830,7911,-1,-1,0
-27.21,3.98,13.31,595,1782,7929,0,-1,0
-27.23,4.00,13.33,568,1823,7923,1,-1,0
-27.26,4.05,13.35,551,1867,7928,-1,-2,1
-27.28,4.09,13.37,550,1839,7867,1,-2,0
-27.30,4.14,13.39,560,1862,7883,0,-2,0
-27.31,4.20,13.40,583,1889,7888,-1,-3,0
-27.33,4.26,13.37,623,1876,7900,-2,-2,0
-27.36,4.34,13.31,717,1786,7880,-1,-2,1
-27.39,4.34,13.34,731,1803,7831,2,1,0
-27.41,4.33,13.39,713,1871,7830,1,1,1
-27.46,4.28,13.40,658,1922,7895,-1,2,1
-27.52,4.25,13.40,635,1948,7937,-1,1,2
-27.56,4.21,13.38,609,1873,7975,0,2,1
-27.61,4.16,13.38,547,1877,7988,0,1,2
-27.70,4.14,13.34,537,1807,7983,-2,2,4
-27.82,4.09,13.32,442,1709,7976,3,1,4
-27.94,4.09,13.39,438,1723,7974,3,0,4
-28.01,4.12,13.55,459,1782,7974,7,-1,2
-28.07,4.17,13.74,511,1807,7936,6,-2,2
-28.10,4.23,13.99,548,1824,7985,9,-3,1
-28.15,4.37,14.26,562,1942,7848,10,-5,1
-28.21,4.56,14.54,651,2194,7759,6,-6,4
-28.33,4.75,14.68,736,2289,7702,3,-6,5
-28.54,4.90,14.73,794,2299,7807,0,-2,7
-28.77,5.02,14.73,738,2195,7804,0,-3,8
-29.00,5.19,14.77,678,2137,7951,2,-7,8
-29.23,5.44,14.85,721,2049,7890,5,-7,8
-29.47,5.71,15.00,788,2068,7963,6,-9,8
-29.69,5.98,15.22,882,2084,7777,9,-7,7
-29.88,6.20,15.51,980,2152,7743,10,-5,7
-30.07,6.38,15.81,928,2187,7780,12,-6,6
-30.21,6.60,16.10,1016,2393,7801,7,-5,5
-30.36,6.73,16.13,1147,2482,7630,-5,-1,4
-30.46,6.77,16.00,1125,2174,7701,-4,1,2
-30.52,6.76,15.88,1068,1987,7767,-2,1,1
-30.54,6.70,15.87,1058,1846,7791,3,3,0
-30.52,6.57,16.00,1089,1859,7811,8,6,-3
-30.42,6.34,16.20,957,1932,7861,8,7,-4
-30.30,6.13,16.43,873,2031,7841,8,5,-3
-30.25,5.95,16.67,928,2098,7778,9,7,-3
-30.15,5.69,17.00,978,2057,7675,13,10,-4
-29.98,5.35,17.44,800,2266,7536,15,9,-7
-29.75,5.05,17.84,708,2428,7592,10,7,-8
-29.52,4.76,18.15,639,2557,7688,9,7,-8
-29.32,4.53,18.41,605,2615,7700,7,5,-6
-29.21,4.40,18.57,567,2702,7630,3,1,-4
-29.11,4.35,18.73,530,2832,7568,4,-2,-3
-29.03,4.32,18.83,604,2822,7596,1,1,-3
-28.98,4.27,18.86,467,2677,7680,0,-3,-1
-28.94,4.37,18.93,559,2601,7757,4,-3,-2
-28.91,4.46,19.02,627,2532,7781,3,-4,-1
-28.88,4.51,19.18,648,2558,7711,7,-2,-1
-28.86,4.56,19.36,655,2687,7735,5,-3,0
-28.87,4.63,19.48,695,2692,7710,2,-2,0
-28.88,4.70,19.56,766,2559,7734,6,-1,-1
-28.86,4.71,19.75,718,2523,7684,8,-1,-1
-28.81,4.71,19.99,723,2527,7689,10,-1,-2
-28.73,4.71,20.34,741,2602,7581,13,-2,-2
-28.64,4.71,20.76,831,2758,7443,15,0,-3
-28.52,4.63,21.22,744,3057,7363,13,3,-4
-28.41,4.55,21.53,641,3307,7386,6,1,-3
-28.35,4.47,21.60,564,3448,7553,-4,1,-2
-28.37,4.40,21.44,561,3307,7561,-8,2,1
-28.45,4.32,21.18,555,3185,7576,-10,3,1
-28.57,4.28,20.89,528,3043,7563,-11,2,3
-28.71,4.27,20.57,541,2824,7677,-10,-1,4
-28.81,4.31,20.39,612,2728,7653,-4,0,2
-28.90,4.37,20.29,648,2707,7631,-3,-2,2
-28.92,4.44,20.25,700,2719,7592,-2,-3,-1
-28.91,4.51,20.21,701,2711,7563,-2,-3,-2
-28.86,4.59,20.18,720,2736,7528,-2,-4,-3
-28.82,4.64,20.11,762,2789,7517,-4,-1,-2
-28.84,4.65,20.02,767,2790,7590,-3,0,0
-28.85,4.64,19.97,723,2792,7688,-2,0,0
-28.85,4.62,19.93,697,2797,7707,-2,1,-1
-28.84,4.58,19.88,646,2767,7733,-2,0,0
-28.86,4.55,19.86,663,2721,7645,-1,1,0
-28.88,4.50,19.85,645,2705,7525,-1,2,0
-28.90,4.42,19.83,639,2713,7472,-1,3,0
-28.93,4.33,19.79,645,2726,7540,-2,3,0
-28.94,4.23,19.71,636,2720,7712,-3,4,0
-28.94,4.12,19.62,609,2677,7836,-2,3,-2
-28.89,3.98,19.57,528,2646,7862,-1,3,-3
-28.83,3.87,19.55,456,2582,7818,-1,1,-3
-28.77,3.77,19.54,466,2537,7700,0,2,-3
-28.71,3.64,19.55,396,2546,7632,0,3,-2
-28.65,3.55,19.56,319,2618,7692,0,-1,-3
-28.58,3.55,19.57,428,2702,7656,-1,-2,-2
-28.54,3.55,19.58,608,2664,7489,0,2,-2
-28.51,3.40,19.61,530,2748,7367,0,5,-2
-28.50,3.32,19.62,400,2850,7337,-3,0,0
-28.52,3.31,19.50,317,2880,7553,-7,-2,0
-28.52,3.45,19.38,160,2798,7920,-3,-12,0
-28.51,3.89,19.41,212,2583,7928,5,-21,1
-28.49,4.43,19.73,517,2637,7632,15,-18,0
-28.45,4.88,20.27,693,3025,7375,15,-15,0
-28.41,5.26,20.67,795,3444,7256,5,-13,0
-28.39,5.50,20.76,832,3726,7393,-7,-8,0
-28.42,5.64,20.45,884,3644,7561,-18,-3,0
-28.46,5.61,19.88,905,3373,7814,-23,3,-1
-28.52,5.52,19.20,865,3038,8007,-25,3,1
-28.61,5.42,18.49,869,2504,7981,-22,5,0
-28.67,5.26,17.91,804,2107,8021,-15,6,0
-28.76,5.17,17.49,698,1848,8041,-10,1,2
-28.83,5.17,17.24,594,1573,7965,-1,-3,0
-28.83,5.30,17.23,582,1438,7759,6,-7,-1
-28.79,5.49,17.44,665,1407,7548,13,-8,-2
-28.71,5.69,17.86,795,1595,7395,18,-7,-3
-28.61,5.85,18.42,924,1968,7367,20,-6,-4
-28.45,5.95,19.02,1091,2435,7394,18,-3,-6
-28.25,5.94,19.57,1193,2929,7490,14,1,-7
-28.03,5.83,19.97,1220,3361,7521,7,4,-7
-27.85,5.61,20.18,1112,3572,7465,0,7,-6
-27.72,5.36,20.21,977,3537,7433,-5,8,-5
-27.64,5.07,20.07,823,3401,7511,-8,9,-3
-27.61,4.80,19.83,688,3229,7591,-11,9,-2
-27.62,4.55,19.50,582,3029,7685,-13,8,-1
-27.64,4.31,19.11,560,2727,7748,-13,8,-1
-27.66,4.07,18.74,539,2421,7793,-9,8,-2
-27.63,3.81,18.52,440,2188,7793,-4,8,-3
-27.56,3.60,18.48,351,2164,7871,2,4,-3
-27.51,3.51,18.52,349,2247,7891,3,0,-2
-27.46,3.49,18.63,391,2309,7817,5,-1,-2
-27.41,3.48,18.80,433,2420,7722,6,-1,-2
-27.34,3.50,19.00,490,2524,7609,6,-1,-2
-27.28,3.50,19.20,536,2655,7559,6,-1,-2
-27.23,3.50,19.37,585,2778,7545,4,0,-2
-27.16,3.45,19.50,589,2878,7573,2,2,-3
-27.11,3.37,19.54,593,2915,7627,-1,3,-3
-27.06,3.27,19.51,558,2921,7692,-3,3,-2
-27.04,3.14,19.43,517,2821,7655,-4,4,-2
-27.02,3.00,19.32,454,2730,7667,-4,4,-1
-27.02,2.86,19.24,360,2696,7666,-3,4,-1
-27.02,2.77,19.16,313,2707,7684,-4,2,0
-27.04,2.71,19.07,339,2641,7656,-3,1,0
-27.04,2.65,19.00,327,2550,7644,-1,1,-1
-27.01,2.61,19.01,333,2607,7691,0,0,-2
-26.99,2.59,19.01,386,2664,7724,-1,0,-1
-26.96,2.55,18.98,418,2630,7710,-2,1,-2
-26.93,2.49,18.96,439,2545,7691,0,3,-3
-26.87,2.36,19.00,386,2576,7715,1,4,-3
-26.82,2.24,19.03,321,2690,7755,0,3,-2
-26.82,2.17,19.03,284,2771,7792,-2,1,0
-26.84,2.12,18.96,289,2746,7744,-4,2,0
-26.88,2.03,18.86,300,2641,7660,-4,3,0
-26.91,1.94,18.79,289,2581,7659,-2,3,0
-26.91,1.87,18.76,298,2549,7626,-1,2,-1
-26.87,1.79,18.75,355,2583,7617,-1,3,-2
-26.84,1.65,18.72,325,2624,7613,-2,5,-2
-26.82,1.50,18.67,246,2654,7683,-3,4,-2
-26.81,1.40,18.59,202,2676,7766,-4,3,-1
-26.83,1.32,18.49,174,2686,7775,-4,2,0
-26.86,1.24,18.40,131,2683,7778,-4,2,0
-26.91,1.21,18.29,127,2638,7750,-5,0,1
-26.97,1.22,18.17,158,2595,7724,-5,0,1
-27.02,1.23,18.04,194,2536,7683,-5,0,1
-27.06,1.21,17.92,194,2488,7670,-4,1,0
-27.08,1.18,17.81,173,2487,7723,-4,0,-1
-27.09,1.15,17.69,181,2467,7740,-5,1,0
-27.12,1.10,17.57,159,2430,7793,-4,1,0
-27.16,1.07,17.46,125,2406,7823,-3,0,0
-27.18,1.07,17.38,113,2421,7845,-3,-1,0
-27.22,1.10,17.31,153,2415,7804,-3,-1,1
-27.25,1.11,17.22,154,2365,7787,-3,0,0
-27.27,1.11,17.15,154,2332,7783,-3,-1,0
-27.27,1.12,17.10,153,2327,7756,-2,-1,-1
-27.27,1.13,17.04,120,2307,7782,-2,-2,-1
-27.27,1.16,16.99,161,2284,7791,-1,-1,-1
-27.27,1.18,17.00,159,2330,7799,0,-1,-1
-27.27,1.21,17.00,140,2370,7803,0,-2,0
-27.29,1.25,17.01,154,2430,7836,-1,-2,0
-27.30,1.30,16.99,163,2391,7816,-2,-3,0
-27.33,1.36,16.95,233,2312,7772,-1,-1,0
-27.34,1.37,16.95,236,2306,7755,0,-1,0
-27.33,1.40,16.97,239,2344,7772,0,-1,-1
-27.32,1.39,16.99,236,2423,7827,-1,0,-1
-27.32,1.38,17.00,211,2430,7880,-1,0,-1
-27.31,1.37,16.97,166,2375,7876,-1,0,-1
-27.31,1.37,16.96,162,2302,7840,0,-1,0
-27.32,1.40,16.98,194,2294,7794,1,-1,0
-27.33,1.42,17.01,205,2330,7754,1,-1,0
-27.35,1.46,17.04,234,2397,7740,0,-1,0
-27.36,1.48,17.05,278,2455,7753,-1,0,-1
-27.36,1.46,17.02,266,2475,7787,-2,1,-1
-27.35,1.41,16.99,207,2451,7837,-2,1,-1
-27.36,1.38,16.95,198,2356,7854,-1,0,0
-27.39,1.35,16.93,171,2307,7854,0,1,0
-27.40,1.33,16.93,174,2301,7838,0,0,0
-27.42,1.31,16.95,179,2322,7781,0,1,0
-27.44,1.29,16.96,184,2375,7749,-1,1,1
-27.49,1.26,16.96,179,2418,7734,-1,0,1
-27.52,1.25,16.92,231,2416,7744,-2,1,0
-27.52,1.21,16.90,203,2443,7774,-2,1,-1
-27.53,1.18,16.86,167,2443,7792,-3,0,-1
-27.53,1.16,16.79,173,2381,7803,-3,1,-1
-27.53,1.13,16.73,145,2296,7828,-2,0,-1
-27.52,1.11,16.69,120,2230,7843,-1,0,-1
-27.51,1.12,16.70,89,2237,7867,1,-2,-1
-27.51,1.15,16.74,103,2270,7845,1,-2,0
-27.51,1.22,16.77,158,2282,7790,1,-3,-1
-27.49,1.27,16.83,208,2340,7751,1,-2,-1
-27.46,1.31,16.90,232,2430,7740,1,-2,-1
-27.44,1.34,16.93,217,2476,7751,-1,-2,-1
-27.44,1.37,16.93,229,2472,7773,-1,-2,-1
-27.43,1.40,16.90,238,2437,7794,-2,-1,-1
-27.42,1.41,16.87,201,2369,7798,-1,-2,-1
-27.41,1.43,16.84,204,2352,7784,-1,-1,-1
-27.40,1.44,16.81,217,2326,7785,-2,-1,-1
-27.38,1.45,16.78,192,2297,7803,-1,-1,-2
-27.35,1.46,16.76,184,2288,7825,-1,-2,-2
-27.32,1.49,16.75,192,2296,7847,-1,-2,-2
-27.28,1.53,16.75,211,2309,7862,0,-2,-2
-27.25,1.56,16.77,221,2330,7822,0,-2,-2
-27.21,1.58,16.78,236,2342,7788,0,-1,-2
-27.16,1.59,16.79,241,2339,7776,0,-1,-2
-27.13,1.60,16.80,255,2344,7762,0,-1,-2
-27.09,1.60,16.80,248,2379,7765,-1,-1,-2
-27.06,1.60,16.80,245,2398,7805,-1,-1,-2
-27.02,1.60,16.77,236,2383,7811,-1,-1,-2
-27.00,1.59,16.76,232,2365,7816,-1,-1,-2
-26.96,1.58,16.75,217,2346,7833,-1,0,-2
-26.94,1.57,16.74,212,2326,7829,-1,-1,-1
-26.91,1.58,16.73,214,2319,7821,-1,-1,-1
-26.88,1.57,16.73,217,2318,7810,0,-1,-1
-26.87,1.57,16.73,227,2324,7820,0,-1,-1
-26.84,1.57,16.75,222,2338,7828,0,-1,-1
-26.81,1.57,16.77,217,2353,7822,0,-1,-1
-26.79,1.57,16.80,217,2352,7816,0,-1,-1
-26.76,1.57,16.82,225,2336,7794,0,-1,-1
-26.73,1.58,16.85,224,2328,7778,1,-1,-1
-26.70,1.59,16.87,230,2354,7774,0,-1,-1
-26.68,1.59,16.90,233,2387,7780,0,-1,-1
-26.67,1.59,16.91,226,2419,7793,0,-1,-1
-26.66,1.60,16.92,232,2402,7821,-1,-1,-1
-26.65,1.61,16.91,240,2362,7822,0,-1,-1
-26.63,1.62,16.92,239,2320,7788,1,-1,-1
-26.61,1.62,16.95,243,2328,7773,1,-1,-1
-26.58,1.61,16.99,240,2375,7773,0,0,-1
-26.57,1.61,17.01,233,2404,7775,0,0,-1
-26.56,1.61,17.01,211,2403,7786,-1,-1,-1
-26.54,1.61,16.99,214,2380,7796,-1,-1,-1
-26.53,1.62,16.98,211,2351,7806,-1,-1,-1
-26.52,1.64,16.99,223,2350,7829,0,-1,-1
-26.51,1.65,17.01,236,2377,7817,0,-1,-1
-26.50,1.67,17.03,231,2410,7797,0,-1,0
-26.49,1.69,17.09,247,2710,7784,0,-1,-1
-26.55,1.71,17.08,346,2916,7755,-8,2,2
-26.64,1.61,16.83,287,2337,7789,-6,4,1
-26.69,1.52,16.66,189,2030,7855,-2,2,0
-26.69,1.51,16.61,161,2016,7879,0,-2,-1
-26.65,1.56,16.65,195,2148,7780,1,-3,-1
-26.64,1.60,16.70,227,2246,7717,1,-2,-1
-26.63,1.62,16.74,256,2352,7704,0,0,-1
-26.63,1.62,16.76,262,2477,7752,-2,0,-1
-26.62,1.60,16.72,285,2479,7808,-3,1,-1
-26.61,1.56,16.66,274,2446,7838,-3,1,-1
-26.62,1.50,16.58,222,2327,7856,-3,1,0
-26.64,1.47,16.49,193,2197,7856,-2,0,0
-26.65,1.45,16.44,199,2120,7826,-1,0,0
-26.64,1.43,16.44,218,2093,7797,1,1,-1
-26.61,1.39,16.49,204,2162,7798,2,0,-2
-26.58,1.37,16.57,210,2259,7805,2,0,-2
-26.54,1.34,16.65,200,2335,7834,2,0,-1
-26.50,1.32,16.73,184,2398,7846,2,0,-2
-26.47,1.33,16.79,166,2426,7834,1,-1,-1
-26.45,1.33,16.83,163,2421,7824,0,-1,-1
-26.44,1.35,16.84,147,2369,7844,0,-1,-1
-26.43,1.38,16.85,154,2322,7865,0,-2,-1
-26.43,1.42,16.88,183,2304,7854,1,-2,0
-26.42,1.45,16.93,198,2303,7837,1,-2,-1
-26.42,1.48,16.97,209,2301,7813,2,-1,-1
-26.40,1.49,17.02,214,2333,7792,1,-1,-1
-26.39,1.52,17.06,222,2344,7775,1,-1,-1
-26.38,1.55,17.11,248,2392,7737,1,-1,-1
-26.37,1.58,17.17,280,2472,7676,1,-1,-1
-26.36,1.57,17.20,272,2555,7667,-1,0,-1
-26.37,1.58,17.16,245,2561,7718,-3,-1,0
-26.38,1.59,17.07,251,2478,7768,-4,-1,0
-26.39,1.59,16.96,229,2400,7818,-4,0,-1
-26.39,1.57,16.86,213,2292,7867,-3,0,-1
-26.39,1.56,16.80,193,2212,7893,-1,-1,-1
-26.39,1.57,16.81,198,2198,7862,1,-1,0
-26.39,1.59,16.85,198,2239,7848,2,-1,-1
-26.37,1.61,16.93,205,2331,7805,2,-2,-1
-26.37,1.66,17.00,235,2438,7754,1,-2,-1
-26.37,1.70,17.02,263,2483,7746,-1,-2,0
-26.37,1.73,17.00,285,2444,7728,-2,-1,0
-26.39,1.74,16.96,296,2400,7723,-1,0,0
-26.41,1.74,16.95,303,2383,7741,-1,0,0
-26.41,1.73,16.95,273,2405,7789,-1,0,0
-26.42,1.74,16.95,238,2417,7822,-1,-1,-1
-26.41,1.73,16.92,201,2393,7830,-2,-1,-1
-26.39,1.72,16.87,171,2310,7833,-2,-1,-1
-26.38,1.71,16.82,164,2213,7840,-1,-1,-1
-26.36,1.70,16.82,153,2195,7829,1,-1,-1
-26.36,1.73,16.87,175,2274,7815,2,-2,0
-26.37,1.78,16.95,224,2394,7801,1,-2,0
-26.38,1.84,17.00,292,2505,7783,0,-2,0
-26.39,1.89,17.01,337,2548,7747,-2,-1,0
-26.41,1.92,16.95,332,2460,7736,-3,-1,0
-26.41,1.93,16.88,330,2362,7727,-2,0,-1
-26.40,1.92,16.84,300,2311,7770,-1,0,-1
-26.40,1.91,16.82,278,2316,7814,-1,-1,-1
-26.40,1.92,16.81,280,2321,7825,-1,-1,0
-26.41,1.94,16.81,301,2342,7803,-1,-1,0
-26.42,1.95,16.78,321,2350,7756,-2,0,0
-26.43,1.95,16.74,327,2328,7739,-2,0,0
-26.43,1.93,16.70,344,2318,7749,-2,0,-1
-26.42,1.89,16.67,326,2333,7787,-2,1,-1
-26.40,1.83,16.64,254,2343,7892,-2,1,-2
-26.38,1.80,16.59,184,2312,7965,-2,0,-1
-26.37,1.79,16.56,151,2257,7963,-1,-1,-1
-26.36,1.81,16.55,147,2202,7912,0,-2,0
-26.36,1.86,16.59,177,2210,7813,1,-2,0
-26.38,1.91,16.64,255,2281,7728,1,-2,0
-26.39,1.95,16.69,307,2383,7720,0,-2,0
-26.39,1.99,16.73,352,2479,7742,-1,-2,0
-26.40,2.03,16.73,381,2483,7768,-2,-1,0
-26.40,2.04,16.70,375,2428,7781,-1,-1,-1
-26.41,2.05,16.67,343,2353,7781,-1,0,-1
-26.41,2.05,16.64,302,2278,7767,-1,0,0
-26.41,2.04,16.63,276,2250,7752,0,0,0
-26.41,2.02,16.64,268,2279,7763,0,0,0
-26.42,2.03,16.64,252,2329,7803,-1,-1,0
-26.42,2.04,16.60,271,2326,7831,-2,-1,0
-26.43,2.05,16.55,303,2274,7819,-2,-1,0
-26.43,2.06,16.53,333,2255,7821,-1,0,0
-26.43,2.06,16.54,324,2285,7834,0,-1,-1
-26.42,2.07,16.56,314,2324,7834,0,-1,-1
-26.41,2.06,16.57,315,2350,7812,0,0,-1
-26.40,2.06,16.57,308,2372,7793,-1,0,-1
-26.41,2.06,16.55,290,2374,7802,-2,-1,0
-26.41,2.07,16.50,275,2323,7826,-2,-1,-1
-26.41,2.08,16.45,283,2259,7823,-2,-1,-1
-26.41,2.09,16.42,284,2220,7832,-1,-1,-1
-26.40,2.09,16.42,286,2217,7851,0,-1,-1
-26.39,2.11,16.45,298,2261,7849,1,-1,-1
-26.38,2.12,16.49,306,2308,7824,1,-1,-1
-26.36,2.13,16.51,302,2351,7786,0,-1,-1
-26.36,2.13,16.51,305,2343,7755,-1,-1,-1
-26.36,2.13,16.50,320,2329,7738,-1,0,-1
-26.35,2.13,16.48,317,2320,7759,-1,0,-1
-26.35,2.13,16.47,327,2334,7797,-1,-1,-1
-26.34,2.13,16.47,330,2356,7828,-1,-1,-1
-26.34,2.13,16.46,328,2346,7833,-1,-1,-1
-26.33,2.13,16.45,333,2330,7802,-1,0,-1
-26.33,2.12,16.44,310,2309,7782,-1,0,-1
-26.33,2.10,16.42,306,2302,7795,-1,0,0
-26.34,2.09,16.37,302,2278,7828,-2,0,-1
-26.33,2.09,16.35,295,2275,7865,-1,0,-1
-26.33,2.08,16.33,278,2265,7891,-1,-1,-1
-26.32,2.08,16.30,280,2210,7886,-1,-1,-1
-26.31,2.08,16.31,296,2173,7854,1,-1,-1
-26.29,2.08,16.35,306,2219,7829,2,0,-1
-26.29,2.08,16.42,318,2313,7808,1,-1,-1
-26.28,2.09,16.46,328,2379,7774,0,-1,-1
-26.28,2.09,16.48,335,2405,7773,-1,0,-1
-26.28,2.09,16.46,319,2393,7806,-1,0,-1
-26.28,2.08,16.44,295,2332,7838,-1,0,0
-26.29,2.08,16.41,286,2250,7858,-1,-1,0
-26.29,2.08,16.40,285,2193,7828,0,-1,0
-26.29,2.08,16.42,300,2173,7783,1,0,-1
-26.29,2.08,16.47,330,2233,7754,2,0,-1
-26.28,2.07,16.55,338,2372,7752,1,0,-1
-26.28,2.05,16.58,330,2458,7790,-1,0,0
-26.29,2.05,16.55,326,2442,7821,-2,0,0
-26.30,2.04,16.50,312,2371,7814,-2,0,0
-26.30,2.02,16.45,283,2287,7831,-2,0,-1
-26.30,1.99,16.41,253,2236,7842,-1,0,-1
-26.29,1.97,16.39,244,2196,7851,0,0,-1
-26.29,1.97,16.39,249,2202,7855,0,0,-1
-26.29,1.96,16.42,271,2247,7858,1,0,-1
-26.28,1.97,16.44,275,2302,7857,0,-1,-1
-26.28,1.97,16.45,280,2324,7842,0,-1,-1
-26.27,1.98,16.45,271,2294,7819,0,-1,-1
-26.26,1.98,16.47,275,2274,7809,0,-1,-1
-26.26,1.98,16.47,289,2266,7800,0,-1,-1
-26.25,1.99,16.50,296,2289,7791,0,-1,-1
-26.25,1.99,16.53,311,2322,7778,0,0,-1
-26.23,1.98,16.55,315,2352,7767,0,0,-1
-26.23,1.97,16.56,312,2364,7759,-1,0,-1
-26.23,1.95,16.55,295,2353,7773,-1,0,-1
-26.23,1.93,16.54,286,2352,7776,-1,0,-1
-26.23,1.91,16.53,274,2348,7798,-1,0,-1
-26.23,1.90,16.50,260,2326,7812,-1,0,-1
-26.23,1.89,16.47,278,2293,7819,-1,0,-1
-26.23,1.88,16.46,281,2275,7821,0,0,-1
-26.23,1.86,16.47,269,2288,7838,0,0,-1
-26.23,1.84,16.47,262,2302,7845,0,0,-1
-26.22,1.83,16.47,259,2291,7844,0,0,-1
-26.22,1.83,16.47,247,2284,7819,0,0,-1
-26.21,1.82,16.48,250,2293,7814,0,0,-1
-26.21,1.82,16.50,256,2291,7814,0,0,-1
-26.20,1.82,16.52,262,2298,7814,0,-1,-1
-26.20,1.83,16.55,272,2319,7819,0,-1,-1
-26.19,1.83,16.56,266,2321,7802,0,-1,-1
-26.18,1.83,16.57,270,2332,7786,0,0,-1
-26.19,1.82,16.58,264,2330,7790,-1,0,-1
-26.18,1.81,16.58,262,2335,7797,-1,0,-1
-26.18,1.81,16.57,257,2334,7805,-1,0,-1
-26.18,1.81,16.56,259,2321,7802,-1,0,-1
-26.17,1.81,16.56,268,2304,7802,-1,0,-1
-26.17,1.81,16.55,270,2295,7802,0,0,-1
-26.17,1.80,16.55,273,2302,7804,0,0,-1
-26.16,1.79,16.56,270,2321,7809,0,0,-1
-26.16,1.78,16.56,260,2334,7815,-1,0,-1
-26.15,1.78,16.56,255,2324,7816,-1,0,-1
-26.15,1.77,16.56,249,2329,7821,-1,0,-1
-26.15,1.77,16.56,247,2320,7833,0,-1,-1
-26.14,1.77,16.56,254,2301,7838,0,-1,-1
-26.14,1.78,16.56,260,2290,7825,0,-1,-1
-26.14,1.79,16.58,265,2308,7818,0,-1,-1
-26.14,1.80,16.60,268,2331,7813,0,-1,-1
-26.13,1.81,16.61,269,2334,7801,0,-1,0
-26.14,1.81,16.61,266,2325,7807,-1,-1,0
-26.14,1.82,16.60,266,2314,7814,0,-1,0
-26.14,1.82,16.60,267,2319,7802,0,-1,-1
-26.14,1.82,16.61,259,2332,7805,0,-1,-1
-26.14,1.83,16.61,262,2328,7794,0,-1,0
-26.15,1.84,16.62,272,2340,7796,0,-1,0
-26.15,1.84,16.62,274,2342,7790,-1,0,0
-26.15,1.84,16.61,271,2326,7794,-1,0,0
-26.15,1.84,16.59,264,2314,7803,-1,-1,-1
-26.15,1.84,16.58,259,2301,7807,-1,0,-1
-26.15,1.84,16.58,254,2300,7814,-1,-1,-1
-26.15,1.84,16.57,264,2304,7809,0,-1,0
-26.15,1.84,16.58,268,2309,7806,0,-1,0
-26.15,1.84,16.58,260,2318,7809,0,-1,-1
-26.15,1.85,16.59,264,2322,7820,-1,-1,-1
-26.15,1.85,16.59,266,2306,7804,0,-1,-1
-26.15,1.85,16.60,265,2309,7800,0,-1,0
-26.15,1.86,16.60,266,2317,7808,0,-1,-1
-26.15,1.87,16.61,273,2331,7795,-1,-1,0
-26.15,1.88,16.61,276,2329,7797,-1,-1,0
-26.15,1.88,16.59,277,2311,7813,-1,-1,-1
-26.15,1.88,16.58,273,2297,7809,0,-1,-1
-26.15,1.89,16.59,273,2307,7806,0,-1,-1
-26.14,1.88,16.60,268,2313,7805,0,-1,-1
-26.14,1.88,16.60,271,2316,7813,0,-1,-1
-26.14,1.89,16.61,272,2330,7811,0,0,0
-26.15,1.89,16.61,274,2333,7803,-1,-1,0
-26.15,1.89,16.60,276,2323,7800,-1,-1,0
-26.16,1.90,16.59,278,2310,7807,-1,0,0
-26.16,1.90,16.59,277,2317,7812,-1,-1,-1
-26.16,1.90,16.58,274,2314,7817,-1,-1,-1
-26.16,1.90,16.58,271,2311,7828,-1,-1,-1
-26.16,1.90,16.58,269,2311,7826,-1,-1,0
-26.16,1.90,16.58,268,2308,7817,0,-1,-1
-26.16,1.91,16.58,277,2306,7806,0,-1,-1
-26.16,1.91,16.58,283,2306,7796,0,-1,-1
-26.15,1.91,16.58,285,2316,7806,0,-1,-1
-26.15,1.92,16.59,281,2321,7804,0,-1,-1
-26.15,1.92,16.60,277,2339,7811,0,-1,-1
-26.15,1.92,16.60,285,2344,7809,-1,-1,0
-26.15,1.93,16.59,273,2329,7812,-1,-1,0
-26.16,1.93,16.59,275,2315,7804,-1,-1,-1
-26.15,1.93,16.59,282,2316,7791,0,-1,-1
-26.16,1.94,16.59,283,2321,7793,-1,-1,0
-26.16,1.94,16.59,282,2328,7802,-1,-1,0
-26.16,1.95,16.59,285,2328,7805,-1,-1,-1
-26.16,1.95,16.59,283,2316,7811,-1,0,-1
-26.16,1.94,16.58,282,2301,7814,-1,-1,-1
-26.16,1.94,16.58,281,2296,7805,0,0,-1
-26.16,1.94,16.58,283,2302,7806,0,-1,-1
-26.16,1.94,16.58,285,2313,7799,-1,0,0
-26.16,1.94,16.58,285,2320,7811,-1,-1,0
-26.17,1.95,16.57,278,2321,7816,-1,-1,0
-26.17,1.95,16.57,282,2318,7824,-1,-1,-1
-26.17,1.95,16.57,281,2315,7822,0,-1,-1
-26.17,1.96,16.57,283,2310,7814,0,-1,0
-26.17,1.96,16.57,280,2311,7807,0,-1,0
-26.17,1.97,16.58,284,2319,7789,0,-1,0
-26.18,1.97,16.58,282,2333,7799,0,-1,0
-26.18,1.97,16.58,287,2336,7807,-1,0,0
-26.18,1.97,16.57,279,2318,7811,-1,0,0
-26.18,1.97,16.56,277,2299,7821,0,-1,-1
-26.18,1.97,16.56,274,2306,7811,0,-1,-1
-26.17,1.97,16.57,273,2324,7817,0,-1,0
-26.18,1.97,16.57,277,2323,7814,-1,-1,0
-26.19,1.98,16.57,275,2314,7808,0,-1,0
-26.19,1.98,16.57,280,2318,7794,0,0,-1
-26.18,1.97,16.57,283,2313,7800,-1,0,-1
-26.18,1.97,16.57,280,2311,7792,-1,-1,0
-26.18,1.97,16.57,279,2312,7788,0,0,0
-26.19,1.97,16.57,279,2322,7797,-1,0,0
-26.19,1.97,16.56,276,2322,7796,-1,0,0
-26.20,1.97,16.56,280,2311,7801,-1,-1,0
-26.20,1.98,16.55,285,2307,7802,-1,-1,0
-26.21,1.98,16.54,291,2304,7812,0,-1,0
-26.21,1.99,16.55,294,2303,7813,0,0,-1
-26.21,1.99,16.55,295,2304,7809,0,0,0
-26.21,1.98,16.55,288,2320,7811,0,0,0
-26.21,1.98,16.55,287,2324,7808,0,-1,0
-26.21,1.99,16.56,283,2325,7806,-1,-1,0
-26.21,1.99,16.55,290,2328,7801,-1,0,0
-26.22,1.99,16.54,279,2315,7808,-1,-1,0
-26.23,2.00,16.53,280,2300,7813,-1,-1,0
-26.23,2.00,16.53,284,2300,7810,0,-1,0
-26.23,2.01,16.52,289,2310,7820,0,-1,0
-26.24,2.02,16.52,290,2311,7822,-1,-1,0
-26.24,2.02,16.52,288,2308,7824,-1,-1,0
-26.24,2.02,16.51,291,2306,7811,-1,-1,-1
-26.25,2.02,16.51,292,2294,7814,-1,0,-1
-26.25,2.02,16.51,293,2290,7815,0,-1,-1
-26.25,2.02,16.51,290,2298,7802,0,-1,-1
-26.25,2.03,16.51,290,2307,7808,0,-1,0
-26.25,2.03,16.52,295,2310,7798,-1,-1,0
-26.25,2.04,16.51,290,2307,7805,0,-1,0
-26.25,2.04,16.52,296,2306,7804,0,-1,0
-26.25,2.04,16.52,296,2321,7798,-1,0,0
-26.26,2.04,16.52,302,2328,7800,-1,0,-1
-26.26,2.05,16.52,293,2317,7796,-1,-1,0
-26.26,2.04,16.50,294,2307,7809,-1,-1,0
-26.26,2.05,16.50,301,2302,7813,-1,-1,0
-26.26,2.06,16.50,300,2306,7824,-1,-1,-1
-26.26,2.06,16.50,307,2310,7822,0,-1,-1
-26.26,2.06,16.50,308,2306,7809,-1,-1,0
-26.26,2.06,16.50,301,2307,7802,-1,0,0
-26.26,2.06,16.48,294,2293,7822,0,-1,-1
-26.26,2.06,16.48,296,2290,7813,0,-1,-1
-26.25,2.06,16.50,294,2306,7808,0,-1,-1
-26.25,2.06,16.50,301,2307,7814,0,-1,-1
-26.25,2.07,16.50,306,2311,7810,0,-1,-1
-26.24,2.07,16.51,308,2303,7803,0,-1,-1
-26.24,2.07,16.51,310,2306,7800,-1,0,-1
-26.24,2.06,16.51,300,2308,7803,0,0,-1
-26.23,2.06,16.51,294,2305,7800,0,0,-1
-26.23,2.06,16.51,295,2314,7805,-1,-1,-1
-26.23,2.07,16.50,298,2310,7814,-1,-1,-1
-26.23,2.07,16.50,299,2303,7814,0,-1,-1
-26.23,2.07,16.50,303,2298,7800,0,-1,-1
-26.23,2.07,16.50,304,2299,7808,-1,0,-1
-26.22,2.07,16.50,298,2301,7809,0,0,-1
-26.22,2.06,16.50,299,2301,7810,-1,0,-1
-26.22,2.06,16.50,303,2294,7816,-1,0,-1
-26.22,2.06,16.50,292,2297,7816,0,-1,-1
-26.22,2.06,16.50,291,2307,7817,0,0,-1
-26.21,2.05,16.51,292,2319,7806,0,-1,-1
-26.21,2.05,16.51,292,2321,7801,-1,0,-1
-26.21,2.05,16.51,298,2308,7814,-1,0,-1
-26.21,2.05,16.50,291,2301,7807,0,-1,-1
-26.20,2.05,16.51,292,2308,7811,0,0,-1
-26.20,2.05,16.51,294,2312,7811,0,-1,-1
-26.20,2.05,16.51,306,2306,7805,0,-1,-1
-26.20,2.05,16.51,308,2305,7808,-1,0,-1
-26.20,2.04,16.51,307,2307,7803,0,0,-1
-26.20,2.04,16.51,299,2309,7796,0,0,-1
-26.19,2.04,16.51,298,2308,7799,0,0,-1
-26.19,2.04,16.51,290,2310,7795,0,0,-1
-26.18,2.03,16.52,293,2313,7801,0,0,-1
-26.18,2.02,16.52,288,2305,7807,0,0,-1
-26.18,2.02,16.52,287,2307,7808,0,0,-1
-26.18,2.02,16.52,294,2313,7807,0,0,-1
-26.17,2.01,16.52,299,2311,7814,0,0,-1
-26.17,2.01,16.52,298,2316,7818,0,0,-1
-26.17,2.01,16.52,297,2308,7812,-1,0,-1
-26.17,2.01,16.52,293,2307,7811,0,0,-1
-26.16,2.01,16.52,294,2304,7817,0,0,-1
-26.16,2.01,16.52,292,2308,7810,-1,-1,-1
-26.16,2.00,16.52,294,2312,7805,-1,0,-1
-26.16,2.00,16.51,292,2295,7816,-1,0,-1
-26.15,1.99,16.50,291,2292,7810,0,0,-1
-26.15,1.99,16.51,279,2302,7809,0,0,-1
-26.15,1.99,16.52,284,2305,7807,0,0,-1
-26.14,1.98,16.53,289,2315,7803,0,0,-1
-26.14,1.98,16.53,288,2324,7798,0,0,-1
-26.14,1.98,16.53,293,2328,7799,-1,0,-1
-26.14,1.97,16.53,285,2314,7796,-1,0,-1
-26.14,1.97,16.53,284,2310,7801,-1,0,-1
-26.14,1.97,16.52,287,2302,7804,-1,0,-1
-26.14,1.97,16.52,288,2298,7808,-1,0,-1
-26.14,1.96,16.52,289,2301,7809,0,0,-1
-26.14,1.96,16.52,289,2303,7814,0,0,-1
-26.13,1.95,16.52,290,2313,7811,0,0,-1
-26.13,1.95,16.52,291,2308,7815,0,0,-1
-26.12,1.94,16.52,282,2302,7806,0,0,-1
-26.12,1.94,16.53,282,2311,7816,0,0,-1
-26.12,1.93,16.53,282,2309,7811,0,0,-1
-26.12,1.93,16.53,279,2307,7809,0,0,-1
-26.12,1.93,16.54,276,2317,7806,0,0,-1
-26.11,1.92,16.54,274,2326,7800,-1,0,-1
-26.12,1.91,16.54,271,2321,7808,-1,0,0
-26.12,1.92,16.52,280,2298,7816,-1,0,-1
-26.11,1.91,16.52,278,2294,7808,0,0,-1
-26.11,1.90,16.53,273,2302,7816,0,0,-1
-26.11,1.90,16.53,268,2309,7816,-1,0,-1
-26.11,1.89,16.53,274,2313,7813,0,0,-1
-26.11,1.89,16.53,274,2312,7815,-1,0,-1
-26.10,1.89,16.53,273,2311,7821,0,0,-1
-26.10,1.88,16.53,273,2305,7824,0,0,-1
-26.10,1.87,16.53,268,2311,7819,0,0,-1
-26.09,1.87,16.53,272,2309,7811,0,0,-1
-26.09,1.85,16.54,264,2314,7800,0,0,-1
-26.08,1.85,16.55,263,2323,7801,0,0,-1
-26.08,1.85,16.55,269,2319,7796,0,0,-1
-26.08,1.84,16.55,268,2314,7793,-1,0,-1
-26.08,1.84,16.55,264,2311,7801,0,0,-1
-26.07,1.84,16.56,272,2305,7811,0,0,-1
-26.07,1.84,16.56,280,2301,7818,0,0,-1
-26.06,1.83,16.56,270,2296,7823,0,0,-1
-26.06,1.83,16.56,261,2297,7823,0,0,-1
-26.05,1.83,16.57,259,2315,7816,0,-1,-1
-26.05,1.83,16.58,265,2323,7810,0,0,-1
-26.05,1.83,16.58,267,2305,7821,-1,-1,-1
-26.04,1.83,16.58,272,2301,7813,0,-1,-1
-26.04,1.83,16.59,273,2318,7803,0,0,-1
-26.03,1.83,16.61,270,2336,7803,0,-1,-1
-26.03,1.83,16.61,269,2340,7799,0,-1,-1
-26.03,1.83,16.61,269,2340,7805,0,-1,-1
-26.03,1.84,16.62,268,2336,7792,0,-1,-1
-26.03,1.83,16.61,270,2324,7793,-1,0,-1
-26.03,1.84,16.61,271,2321,7797,-1,-1,-1
-26.03,1.84,16.61,276,2312,7804,0,0,-1
-26.02,1.84,16.61,274,2315,7806,0,0,-1
-26.02,1.84,16.61,272,2318,7811,0,0,-1
-26.02,1.83,16.61,260,2332,7806,0,0,-1
-26.02,1.83,16.62,257,2329,7802,-1,-1,0
-26.02,1.84,16.60,268,2316,7803,-1,-1,0
-26.03,1.84,16.60,265,2304,7800,-1,-1,0
-26.03,1.85,16.60,270,2315,7797,0,-1,0
-26.04,1.85,16.60,270,2322,7809,0,-1,0
-26.04,1.86,16.60,267,2323,7815,-1,-1,0
-26.04,1.86,16.60,270,2326,7812,-1,-1,0
-26.04,1.86,16.59,267,2320,7818,-1,-1,0
-26.05,1.87,16.59,266,2320,7821,-1,-1,-1
-26.05,1.87,16.59,270,2319,7829,0,-1,0
-26.05,1.87,16.59,269,2325,7821,0,-1,0
-26.05,1.88,16.60,267,2324,7807,0,-1,-1
-26.05,1.88,16.60,278,2320,7808,0,0,0
-26.05,1.88,16.59,274,2303,7816,-1,0,0
-26.06,1.89,16.58,272,2293,7816,0,-1,-1
-26.05,1.89,16.59,268,2308,7806,0,-1,-1
-26.05,1.89,16.59,264,2321,7801,0,-1,-1
-26.05,1.89,16.60,271,2334,7803,0,-1,0
-26.05,1.89,16.60,285,2335,7800,-1,0,0
-26.05,1.89,16.60,287,2325,7795,-1,0,-1
-26.05,1.89,16.60,280,2320,7792,-1,0,-1
-26.05,1.89,16.59,284,2315,7798,-1,0,-1
-26.05,1.89,16.59,276,2316,7810,0,-1,-1
-26.05,1.89,16.59,278,2315,7819,0,0,-1
-26.05,1.88,16.60,265,2312,7816,0,-1,-1
-26.05,1.89,16.59,284,2312,7815,-1,0,-1
-26.05,1.87,16.60,264,2312,7816,0,0,-1
-26.04,1.88,16.60,280,2308,7806,0,0,-1
-26.04,1.87,16.61,264,2323,7806,0,0,-1
-26.03,1.87,16.61,269,2323,7812,0,-1,-1
-26.03,1.87,16.61,265,2319,7816,-1,-1,0
-26.04,1.87,16.61,276,2316,7808,0,0,0
-26.04,1.87,16.61,254,2319,7802,0,-1,-1
-26.04,1.88,16.62,293,2313,7801,0,0,0
-26.04,1.87,16.62,269,2328,7811,0,0,-1
-26.04,1.88,16.62,282,2324,7804,-1,-1,-1
-26.04,1.88,16.61,267,2326,7794,-1,-1,0
-26.05,1.88,16.60,259,2326,7803,-1,-1,0
-26.06,1.89,16.58,262,2300,7816,-1,-1,0
-26.07,1.91,16.57,276,2295,7798,0,-1,0
-26.07,1.91,16.57,274,2309,7801,-1,-1,0
-26.07,1.93,16.57,275,2322,7806,-1,-1,0
-26.08,1.93,16.56,284,2319,7811,-1,-1,0
-26.08,1.94,16.56,280,2304,7817,-1,-1,0
-26.08,1.94,16.56,280,2301,7812,0,0,0
-26.09,1.94,16.56,276,2304,7814,0,-1,0
-26.09,1.94,16.56,282,2311,7808,0,-1,0
-26.09,1.94,16.57,281,2321,7811,-1,-1,0
-26.10,1.95,16.57,283,2324,7795,-1,0,0
-26.10,1.95,16.56,277,2316,7798,-1,-1,0
-26.11,1.96,16.55,272,2311,7802,-1,-1,0
-26.11,1.96,16.55,285,2297,7803,-1,-1,0
-26.11,1.96,16.54,281,2307,7804,-1,-1,0
-26.11,1.96,16.55,287,2308,7798,0,-1,0
-26.12,1.97,16.55,286,2308,7810,0,-1,-1
-26.12,1.97,16.55,287,2309,7806,0,0,-1
-26.12,1.97,16.55,287,2306,7803,0,0,-1
-26.12,1.97,16.55,284,2308,7810,0,-1,0
-26.12,1.97,16.55,278,2308,7810,-1,-1,0
-26.12,1.98,16.54,277,2304,7814,-1,-1,0
-26.12,1.98,16.54,283,2314,7824,0,-1,-1
-26.12,1.98,16.55,284,2323,7813,0,0,0
-26.12,1.98,16.55,291,2328,7803,-1,0,0
-26.12,1.98,16.54,292,2310,7819,-1,0,0
-26.13,1.98,16.54,290,2292,7813,-1,-1,-1
-26.12,1.98,16.54,289,2308,7804,0,-1,-1
-26.12,1.99,16.54,281,2322,7820,-1,-1,0
-26.13,1.99,16.53,288,2311,7820,-1,-1,0
-26.13,2.00,16.53,289,2302,7818,-1,0,0
-26.13,2.00,16.53,290,2298,7815,0,-1,0
-26.13,2.00,16.53,299,2301,7814,0,0,0
-26.13,2.00,16.53,286,2305,7827,0,-1,0
-26.14,2.00,16.52,291,2318,7824,0,-1,0
-26.14,2.00,16.52,294,2313,7822,-1,-1,0
-26.14,2.01,16.52,293,2311,7817,0,-1,0
-26.15,2.01,16.52,287,2309,7809,-1,-1,0
-26.15,2.01,16.52,288,2309,7807,-1,-1,0
-26.15,2.01,16.52,288,2317,7797,-1,-1,0
-26.15,2.01,16.52,295,2321,7806,-1,0,0
-26.15,2.01,16.52,288,2318,7817,-1,-1,0
-26.16,2.02,16.51,291,2303,7816,-1,-1,0
-26.16,2.02,16.51,297,2300,7804,0,-1,0
-26.16,2.02,16.51,305,2297,7805,0,-1,-1
-26.16,2.03,16.51,307,2301,7802,0,0,0
-26.16,2.03,16.51,293,2305,7804,-1,-1,-1
-26.17,2.03,16.51,291,2307,7796,0,-1,0
-26.16,2.03,16.52,299,2309,7803,0,-1,0
-26.17,2.04,16.52,301,2316,7805,-1,0,0
-26.17,2.04,16.51,297,2311,7814,-1,-1,0
-26.18,2.05,16.50,299,2298,7809,0,-1,-1
-26.18,2.05,16.51,297,2299,7807,0,-1,-1
-26.17,2.05,16.51,296,2315,7809,0,-1,-1
-26.17,2.05,16.51,289,2321,7809,-1,-1,0
-26.18,2.05,16.51,287,2317,7811,-1,-1,0
-26.18,2.05,16.50,290,2304,7815,-1,-1,-1
-26.18,2.05,16.50,299,2296,7812,-1,-1,0
-26.18,2.06,16.50,307,2292,7814,0,-1,-1
-26.18,2.07,16.50,315,2293,7815,0,-1,-1
-26.18,2.07,16.50,312,2299,7812,0,0,-1
-26.18,2.06,16.50,305,2303,7812,0,0,-1
-26.18,2.06,16.50,291,2302,7813,0,0,-1
-26.17,2.06,16.50,293,2306,7820,0,-1,-1
-26.17,2.06,16.50,292,2309,7816,0,-1,-1
-26.17,2.05,16.51,294,2302,7822,0,0,-1
-26.16,2.05,16.51,296,2317,7812,0,0,-1
-26.16,2.05,16.51,288,2317,7813,0,0,-1
-26.16,2.05,16.51,289,2317,7807,-1,0,-1
-26.16,2.04,16.51,288,2316,7817,-1,0,-1
-26.16,2.04,16.51,296,2314,7814,-1,0,-1
-26.16,2.04,16.50,296,2304,7821,-1,-1,-1
-26.16,2.04,16.50,302,2298,7817,0,0,-1
-26.15,2.04,16.51,302,2297,7807,0,0,-1
-26.15,2.04,16.51,305,2307,7805,0,0,-1
-26.15,2.04,16.51,301,2319,7812,0,0,-1
-26.15,2.04,16.50,298,2304,7827,-1,0,-1
-26.15,2.03,16.50,299,2302,7817,0,0,-1
-26.14,2.03,16.52,295,2310,7807,0,0,-1
-26.14,2.03,16.52,294,2318,7811,0,-1,-1
-26.14,2.03,16.52,296,2305,7802,-1,0,-1
-26.14,2.03,16.52,299,2307,7797,0,0,-1
-26.14,2.02,16.52,298,2309,7803,0,0,-1
-26.13,2.02,16.53,291,2320,7799,-1,0,-1
-26.13,2.01,16.53,280,2322,7812,-1,0,-1
-26.13,2.01,16.52,290,2317,7808,-1,0,-1
-26.13,2.01,16.52,291,2313,7799,-1,0,-1
-26.13,2.01,16.51,292,2298,7800,-1,-1,-1
-26.13,2.01,16.51,301,2296,7810,0,0,-1
-26.13,2.01,16.52,301,2293,7815,0,0,-1
-26.12,2.01,16.52,307,2299,7807,0,0,-1
-26.12,2.00,16.52,295,2302,7803,0,0,-1
-26.11,1.99,16.52,291,2310,7812,0,0,-1
-26.11,1.99,16.53,281,2313,7817,0,-1,-1
-26.11,1.99,16.53,287,2312,7826,0,0,-1
-26.11,1.99,16.53,287,2315,7813,0,-1,-1
-26.11,1.99,16.53,291,2319,7803,-1,0,-1
-26.10,1.99,16.53,295,2320,7806,0,0,-1
-26.11,1.99,16.53,294,2318,7806,-1,0,0
-26.11,1.99,16.53,284,2317,7805,-1,0,0
-26.12,1.99,16.51,290,2301,7818,-1,-1,0
-26.11,2.00,16.51,300,2287,7817,0,0,-1
-26.11,1.99,16.51,293,2297,7818,0,0,-1
-26.11,1.98,16.51,288,2302,7824,-1,0,-1
-26.11,1.98,16.51,290,2312,7825,0,0,0
-26.11,1.98,16.51,290,2313,7819,0,0,-1
-26.11,1.98,16.51,287,2313,7818,0,0,-1
-26.10,1.98,16.52,286,2317,7814,0,0,-1
-26.10,1.97,16.52,280,2321,7815,0,0,-1
-26.10,1.96,16.53,276,2320,7811,0,0,-1
-26.09,1.96,16.53,278,2323,7803,0,0,-1
-26.09,1.96,16.53,278,2323,7816,-1,0,-1
-26.09,1.95,16.53,282,2311,7809,-1,0,-1
-26.09,1.95,16.53,286,2311,7814,0,0,-1
-26.09,1.95,16.53,282,2312,7809,0,0,-1
-26.08,1.95,16.52,279,2306,7806,-1,0,-1
-26.08,1.94,16.52,274,2303,7815,-1,0,-1
-26.08,1.93,16.52,270,2302,7810,0,0,0
-26.08,1.93,16.52,276,2303,7809,0,0,-1
-26.08,1.93,16.52,284,2301,7823,0,0,-1
-26.08,1.93,16.52,288,2300,7823,0,0,-1
-26.08,1.93,16.53,287,2314,7814,0,0,-1
-26.08,1.93,16.53,285,2321,7805,-1,0,-1
-26.08,1.92,16.51,282,2300,7818,-1,0,-1
-26.08,1.92,16.52,275,2297,7815,0,0,-1
-26.08,1.92,16.52,276,2306,7813,0,0,-1
-26.07,1.91,16.53,270,2324,7815,0,0,-1
-26.07,1.90,16.53,279,2329,7809,0,0,-1
-26.06,1.90,16.54,283,2331,7805,0,0,-1
-26.06,1.89,16.54,289,2318,7800,0,0,-1
-26.05,1.88,16.55,292,2320,7805,0,0,-1
-26.03,1.86,16.56,277,2319,7813,0,0,-1
-26.03,1.85,16.56,279,2312,7816,0,0,-1
-26.01,1.84,16.57,282,2315,7817,0,0,-1
-25.99,1.81,16.60,266,2321,7811,0,0,-1
-25.98,1.80,16.61,270,2320,7805,0,0,-1
-25.96,1.79,16.63,268,2319,7799,0,0,-1
-25.95,1.78,16.66,254,2304,7817,1,-1,-1
-25.95,1.78,16.68,306,2327,7801,0,1,-1
-25.93,1.75,16.70,206,2358,7799,0,-1,-1
-25.93,1.77,16.71,291,2335,7797,0,0,0
-25.92,1.75,16.73,259,2366,7803,-1,0,-1
-25.93,1.76,16.72,252,2326,7783,0,-1,0
-25.92,1.76,16.74,263,2354,7802,0,0,-1
-25.92,1.76,16.73,243,2337,7787,0,0,-1
-25.92,1.76,16.74,263,2320,7790,0,-1,-1
-25.93,1.77,16.73,274,2327,7796,-1,-1,0
-25.92,1.75,16.73,245,2352,7782,-1,0,-1
-25.92,1.76,16.73,237,2334,7772,-1,-1,0
-25.92,1.77,16.72,272,2365,7808,-1,-1,0
-25.92,1.77,16.71,241,2335,7789,-1,-1,-1
-25.92,1.78,16.71,264,2333,7796,-1,0,-1
-25.92,1.78,16.70,255,2309,7793,-1,-1,0
-25.92,1.78,16.70,279,2326,7805,0,0,-1
-25.91,1.77,16.71,234,2346,7807,0,-1,-1
-25.91,1.78,16.70,246,2329,7826,0,-1,0
-25.92,1.78,16.73,242,2349,7784,0,-1,0
-25.92,1.80,16.73,250,2353,7831,0,-1,0
-25.92,1.81,16.74,262,2344,7802,0,0,-1
-25.93,1.81,16.73,268,2323,7832,-1,-1,0
-25.95,1.82,16.75,239,2337,7791,0,-1,0
-25.96,1.85,16.76,284,2362,7825,0,-1,0
-25.96,1.85,16.77,271,2357,7817,0,0,0
-25.96,1.84,16.77,231,2365,7797,-1,0,0
-25.98,1.86,16.76,282,2337,7774,-1,0,0
-25.99,1.85,16.76,254,2350,7809,-1,-1,0
-25.99,1.87,16.77,275,2351,7811,0,-1,-1
-25.99,1.86,16.76,274,2363,7828,-1,0,0
-26.00,1.88,16.76,248,2331,7796,0,0,-1
-26.02,1.90,16.74,316,2315,7766,0,1,-1
-26.00,1.88,16.76,240,2353,7748,0,-1,-1
-26.02,1.91,16.76,262,2336,7758,-1,-2,1
-26.02,1.90,16.76,297,2386,7826,-2,-1,0
-26.00,1.88,16.76,243,2377,7792,0,1,-1
-26.02,1.91,16.74,281,2329,7777,-1,0,0
-26.02,1.91,16.73,300,2358,7823,-2,-1,0
-26.02,1.90,16.73,231,2334,7813,0,-1,-1
-26.04,1.93,16.73,303,2307,7794,0,0,0
-26.04,1.92,16.73,240,2365,7845,-1,-2,0
-26.03,1.93,16.74,306,2345,7808,0,1,-1
-26.05,1.93,16.73,264,2352,7770,-1,1,0
-26.05,1.94,16.73,264,2333,7778,0,-2,0
-26.06,1.94,16.72,280,2326,7784,-1,0,0
-26.05,1.93,16.72,265,2369,7830,-1,-2,0
-26.06,1.94,16.71,293,2334,7796,-1,1,-1
-26.07,1.95,16.70,264,2329,7778,-1,-1,0
-26.06,1.96,16.69,312,2340,7796,-1,0,0
-26.07,1.94,16.67,277,2330,7801,-1,0,-1
-26.05,1.93,16.67,265,2337,7794,-1,0,-1
-26.05,1.92,16.66,256,2346,7778,-1,-1,-1
-26.06,1.93,16.64,272,2353,7789,-1,-1,0
-26.07,1.94,16.62,279,2343,7797,-2,-1,0
-26.08,1.95,16.58,276,2311,7817,-1,-1,0
-26.09,1.96,16.56,279,2296,7821,-1,-1,0
-26.09,1.97,16.55,283,2298,7825,-1,-1,0
-26.09,1.98,16.54,291,2306,7827,-1,-1,0
-26.10,2.00,16.54,295,2312,7815,-1,-1,0
-26.10,2.00,16.54,293,2317,7818,-1,-1,0
-26.11,2.01,16.53,290,2304,7822,-1,-1,-1
-26.11,2.01,16.52,294,2300,7812,-1,-1,0
-26.11,2.01,16.52,297,2294,7815,0,-1,0
-26.11,2.01,16.51,288,2303,7817,0,-1,0
-26.11,2.01,16.52,287,2317,7809,0,-1,-1
-26.11,2.01,16.53,285,2322,7806,0,0,0
-26.11,2.02,16.53,291,2328,7802,-1,-1,0
-26.11,2.02,16.53,289,2329,7798,-1,-1,0
-26.11,2.03,16.53,294,2320,7803,-1,-1,0
-26.12,2.03,16.52,286,2320,7807,-1,-1,0
-26.12,2.03,16.52,289,2315,7810,-1,-1,0
-26.12,2.03,16.52,289,2314,7805,-1,0,0
-26.12,2.03,16.52,292,2317,7801,-1,-1,0
-26.12,2.03,16.52,289,2318,7797,0,0,0
-26.12,2.03,16.52,286,2315,7807,-1,-1,0
-26.13,2.04,16.51,290,2304,7800,0,-1,0
-26.13,2.04,16.51,291,2307,7798,0,0,-1
-26.12,2.04,16.52,283,2314,7799,0,0,-1
-26.13,2.04,16.52,285,2322,7799,-1,0,0
-26.13,2.04,16.52,290,2317,7810,-1,-1,0
-26.13,2.04,16.51,294,2308,7810,-1,-1,0
-26.14,2.05,16.51,292,2302,7810,-1,-1,0
-26.14,2.06,16.51,302,2301,7799,0,-1,0
-26.14,2.06,16.51,303,2315,7802,0,-1,0
-26.15,2.06,16.50,308,2317,7807,-1,0,0
-26.15,2.06,16.50,299,2313,7809,-1,0,0
-26.15,2.06,16.50,287,2321,7814,0,0,-1
-26.15,2.06,16.51,282,2325,7805,0,-1,0
-26.15,2.06,16.50,299,2316,7814,-1,0,0
