Yaw,Pitch,Roll,AX,AY,AZ,GX,GY,GZ
177.35,-3.25,-42.76,-466,-5620,6094,0,0,0
177.35,-3.25,-42.76,-465,-5624,6095,-1,-1,0
177.35,-3.25,-42.76,-469,-5628,6088,-1,0,0
177.35,-3.25,-42.76,-475,-5634,6085,-1,-1,-1
177.35,-3.25,-42.76,-469,-5638,6090,0,0,0
177.35,-3.25,-42.76,-472,-5633,6092,0,-1,0
177.35,-3.25,-42.76,-468,-5631,6093,-1,-1,0
177.35,-3.25,-42.76,-461,-5625,6100,-1,0,0
177.35,-3.25,-42.76,-471,-5630,6092,-1,0,-1
177.35,-3.25,-42.77,-471,-5636,6079,0,-1,-1
177.35,-3.25,-42.76,-472,-5630,6078,0,-1,-1
177.35,-3.25,-42.76,-460,-5627,6087,-1,-1,0
177.35,-3.25,-42.77,-463,-5621,6091,-1,0,0
177.35,-3.25,-42.77,-473,-5626,6080,-1,0,0
177.34,-3.26,-42.77,-484,-5634,6094,-1,0,0
177.34,-3.26,-42.77,-482,-5634,6100,-1,-1,-1
177.34,-3.26,-42.77,-485,-5645,6087,-1,-1,-1
177.35,-3.25,-42.77,-484,-5633,6087,0,-1,-1
177.35,-3.24,-42.77,-473,-5631,6087,0,-1,-1
177.36,-3.23,-42.77,-461,-5623,6092,0,-1,-1
177.36,-3.23,-42.76,-457,-5624,6087,0,-1,-1
177.36,-3.22,-42.76,-452,-5615,6084,-1,-1,0
177.36,-3.22,-42.77,-461,-5614,6081,-1,0,0
177.36,-3.23,-42.77,-460,-5616,6081,-1,0,0
177.36,-3.23,-42.78,-465,-5617,6098,-1,-1,0
177.36,-3.23,-42.78,-461,-5622,6094,-1,-1,-1
177.36,-3.22,-42.79,-459,-5630,6088,-1,0,0
177.36,-3.22,-42.79,-469,-5635,6089,-1,0,0
177.36,-3.22,-42.79,-466,-5634,6080,-1,0,0
177.36,-3.22,-42.79,-467,-5633,6071,0,-1,-1
177.36,-3.22,-42.79,-459,-5629,6082,-1,-1,-1
177.36,-3.22,-42.79,-464,-5620,6096,-1,-1,-1
177.37,-3.21,-42.79,-460,-5625,6098,-1,0,-1
177.37,-3.21,-42.79,-459,-5628,6104,-1,-1,0
177.37,-3.21,-42.79,-457,-5628,6097,-1,0,-1
177.37,-3.21,-42.79,-458,-5620,6094,-1,0,0
177.37,-3.21,-42.80,-464,-5621,6081,-1,0,0
177.36,-3.22,-42.80,-470,-5629,6079,-1,0,0
177.36,-3.22,-42.81,-471,-5630,6082,-1,0,-1
177.36,-3.22,-42.81,-467,-5629,6081,-1,0,-1
177.36,-3.22,-42.81,-466,-5630,6082,-1,0,-1
177.36,-3.22,-42.81,-470,-5637,6080,-1,-1,-1
177.37,-3.21,-42.82,-469,-5640,6083,-1,-1,-1
177.37,-3.21,-42.82,-465,-5639,6081,-1,-1,-1
177.38,-3.21,-42.82,-454,-5632,6083,-1,0,0
177.37,-3.21,-42.82,-464,-5632,6082,-1,0,-1
177.37,-3.21,-42.82,-455,-5628,6082,-1,0,-1
177.37,-3.21,-42.82,-458,-5623,6083,-1,-1,-1
177.37,-3.21,-42.82,-463,-5629,6086,-1,0,-1
177.38,-3.21,-42.82,-473,-5627,6085,0,0,-1
177.37,-3.21,-42.82,-467,-5623,6072,-1,-1,0
177.38,-3.21,-42.83,-469,-5630,6066,-1,0,-1
177.38,-3.21,-42.84,-470,-5638,6073,-1,0,-1
177.38,-3.21,-42.84,-468,-5637,6081,0,-1,-1
177.38,-3.20,-42.83,-459,-5623,6084,0,-1,0
177.38,-3.20,-42.83,-460,-5621,6084,-1,0,0
177.38,-3.20,-42.83,-464,-5623,6081,-1,0,0
177.38,-3.21,-42.84,-467,-5635,6083,-1,0,-1
177.38,-3.21,-42.85,-472,-5645,6081,-1,0,-1
177.38,-3.21,-42.85,-474,-5648,6077,-1,0,-1
177.39,-3.21,-42.85,-476,-5655,6074,-1,-1,-1
177.38,-3.21,-42.86,-472,-5650,6071,-1,-1,-1
177.39,-3.20,-42.86,-462,-5637,6067,-1,-1,-1
177.39,-3.19,-42.86,-454,-5639,6079,-1,-1,-1
177.39,-3.19,-42.86,-453,-5631,6086,-1,0,0
177.39,-3.19,-42.86,-453,-5630,6096,-1,0,0
177.39,-3.20,-42.86,-460,-5632,6088,-1,0,0
177.39,-3.20,-42.87,-466,-5639,6089,-1,0,0
177.39,-3.20,-42.87,-468,-5640,6081,-1,0,0
177.39,-3.20,-42.88,-468,-5647,6072,-1,-1,-1
177.39,-3.20,-42.88,-472,-5646,6059,-1,0,-1
177.39,-3.20,-42.88,-467,-5646,6061,-1,0,0
177.39,-3.20,-42.88,-462,-5642,6068,-1,0,-1
177.39,-3.20,-42.88,-467,-5642,6066,0,0,-1
177.39,-3.20,-42.88,-457,-5639,6075,0,0,-1
177.39,-3.20,-42.88,-460,-5641,6084,-1,-1,-1
177.40,-3.19,-42.88,-456,-5642,6082,-1,-1,-1
177.40,-3.19,-42.88,-463,-5635,6078,-1,0,-1
177.40,-3.19,-42.88,-458,-5632,6072,-1,-1,0
177.40,-3.19,-42.89,-454,-5637,6066,-1,0,0
177.40,-3.19,-42.89,-455,-5636,6069,-1,0,0
177.40,-3.19,-42.89,-460,-5646,6065,-1,-1,0
177.40,-3.19,-42.90,-464,-5649,6066,-1,0,0
177.40,-3.19,-42.90,-470,-5645,6072,-1,-1,0
177.40,-3.19,-42.90,-471,-5653,6080,0,-1,-1
177.40,-3.19,-42.90,-465,-5651,6084,-1,-1,-1
177.40,-3.19,-42.90,-463,-5645,6077,-1,-1,-1
177.40,-3.19,-42.90,-458,-5648,6072,-1,-1,0
177.40,-3.19,-42.90,-460,-5646,6077,0,0,-1
177.40,-3.19,-42.90,-465,-5643,6083,-1,0,0
177.40,-3.19,-42.90,-465,-5637,6074,-1,0,-1
177.40,-3.19,-42.91,-469,-5648,6076,-1,0,-1
177.40,-3.19,-42.91,-466,-5662,6067,-1,0,-1
177.40,-3.19,-42.91,-465,-5658,6072,0,-1,-1
177.40,-3.18,-42.91,-452,-5652,6068,0,-1,0
177.40,-3.18,-42.91,-453,-5646,6072,-1,-1,0
177.40,-3.18,-42.91,-460,-5644,6082,0,0,0
177.40,-3.18,-42.91,-466,-5644,6092,-1,0,-1
177.41,-3.18,-42.91,-467,-5645,6088,-1,0,-1
177.41,-3.18,-42.91,-468,-5649,6079,-1,-1,-1
177.41,-3.18,-42.91,-463,-5653,6078,-1,-1,-1
177.41,-3.18,-42.91,-462,-5651,6066,-1,-1,-1
177.42,-3.17,-42.91,-449,-5645,6062,0,0,0
177.42,-3.17,-42.91,-443,-5648,6066,-1,0,-1
177.42,-3.17,-42.91,-450,-5639,6074,0,0,-1
177.42,-3.17,-42.91,-460,-5640,6086,-1,-1,0
177.42,-3.17,-42.91,-461,-5638,6078,-1,0,-1
177.41,-3.17,-42.92,-461,-5643,6075,-1,0,-1
177.42,-3.17,-42.92,-464,-5650,6070,-1,0,0
177.42,-3.17,-42.92,-458,-5657,6062,-1,0,-1
177.42,-3.17,-42.93,-460,-5661,6063,-1,-1,0
177.42,-3.17,-42.93,-457,-5660,6065,0,0,0
177.41,-3.17,-42.92,-454,-5651,6074,0,0,0
177.41,-3.17,-42.92,-455,-5650,6081,0,0,0
177.41,-3.18,-42.92,-461,-5654,6083,0,0,0
177.41,-3.18,-42.92,-472,-5642,6083,-1,0,0
177.41,-3.18,-42.92,-462,-5643,6085,-1,0,0
177.41,-3.18,-42.92,-458,-5641,6084,-1,0,0
177.41,-3.19,-42.92,-455,-5644,6080,-1,0,0
177.41,-3.19,-42.92,-457,-5643,6068,-1,0,0
177.41,-3.19,-42.92,-462,-5649,6062,-1,0,0
177.40,-3.20,-42.92,-473,-5658,6065,0,0,0
177.40,-3.21,-42.92,-475,-5650,6078,0,0,0
177.39,-3.21,-42.91,-479,-5648,6082,0,-1,-1
177.39,-3.21,-42.91,-470,-5642,6072,0,-1,0
177.40,-3.20,-42.90,-465,-5642,6071,0,0,0
177.40,-3.20,-42.90,-462,-5642,6077,0,0,-1
177.40,-3.20,-42.89,-464,-5637,6083,0,0,0
177.39,-3.21,-42.89,-467,-5639,6085,-1,0,0
177.39,-3.21,-42.90,-465,-5642,6069,-1,0,0
177.39,-3.22,-42.90,-476,-5648,6070,-1,0,0
177.39,-3.22,-42.89,-474,-5649,6065,0,0,-1
177.39,-3.22,-42.88,-477,-5643,6078,0,-1,0
177.39,-3.22,-42.88,-469,-5637,6072,0,-1,-1
177.39,-3.22,-42.88,-468,-5640,6067,0,0,0
177.39,-3.22,-42.87,-473,-5645,6076,0,0,0
177.39,-3.22,-42.87,-477,-5646,6083,0,0,0
177.39,-3.22,-42.86,-482,-5646,6082,0,-1,-1
177.38,-3.22,-42.86,-478,-5643,6086,0,0,0
177.39,-3.22,-42.85,-468,-5637,6082,0,-1,0
177.39,-3.22,-42.85,-468,-5638,6079,0,0,0
177.39,-3.22,-42.85,-453,-5639,6083,0,0,0
177.39,-3.21,-42.84,-455,-5633,6090,0,-1,0
177.38,-3.21,-42.84,-460,-5631,6095,0,0,0
177.38,-3.22,-42.83,-459,-5633,6083,-1,0,0
177.38,-3.22,-42.84,-461,-5631,6073,0,0,0
177.38,-3.22,-42.84,-468,-5638,6072,0,0,0
177.37,-3.22,-42.83,-472,-5643,6080,0,0,0
177.37,-3.23,-42.83,-474,-5641,6080,0,-1,0
177.37,-3.23,-42.82,-476,-5645,6079,0,-1,0
177.37,-3.23,-42.82,-477,-5642,6071,0,0,0
177.37,-3.23,-42.82,-473,-5646,6082,0,-1,-1
177.37,-3.23,-42.81,-473,-5648,6090,0,-1,-1
177.37,-3.23,-42.81,-469,-5636,6092,0,-1,0
177.37,-3.22,-42.80,-464,-5630,6087,0,0,0
177.37,-3.22,-42.80,-455,-5628,6082,-1,0,0
177.37,-3.22,-42.80,-455,-5624,6070,-1,0,0
177.37,-3.23,-42.80,-465,-5630,6074,-1,-1,0
177.37,-3.23,-42.80,-468,-5638,6077,-1,0,0
177.36,-3.24,-42.81,-474,-5644,6073,0,0,0
177.36,-3.24,-42.80,-484,-5645,6069,0,-1,0
177.36,-3.24,-42.80,-479,-5655,6069,0,-1,0
177.36,-3.24,-42.79,-472,-5641,6070,0,-1,-1
177.36,-3.23,-42.79,-467,-5624,6089,0,-1,0
177.36,-3.23,-42.78,-465,-5622,6078,0,-1,0
177.36,-3.23,-42.78,-466,-5616,6079,-1,-1,0
177.36,-3.23,-42.77,-459,-5624,6086,0,0,0
177.35,-3.24,-42.77,-462,-5618,6091,-1,0,0
177.35,-3.24,-42.77,-465,-5619,6087,-1,0,0
177.35,-3.24,-42.78,-472,-5623,6084,-1,-1,0
177.35,-3.25,-42.78,-473,-5636,6077,0,0,0
177.35,-3.25,-42.78,-479,-5639,6082,0,-1,0
177.34,-3.25,-42.77,-470,-5626,6079,0,-1,0
177.34,-3.25,-42.76,-467,-5623,6084,0,-1,0
177.34,-3.25,-42.76,-463,-5627,6092,0,0,0
177.34,-3.25,-42.76,-472,-5632,6095,0,0,0
177.34,-3.26,-42.76,-476,-5635,6096,0,0,0
177.34,-3.26,-42.75,-481,-5630,6088,-1,0,-1
177.34,-3.27,-42.75,-479,-5623,6091,0,0,0
177.34,-3.27,-42.75,-470,-5626,6081,0,0,0
177.34,-3.27,-42.74,-471,-5634,6085,0,-1,0
177.33,-3.26,-42.74,-463,-5635,6091,0,-1,0
177.33,-3.26,-42.73,-470,-5631,6082,0,0,0
177.33,-3.26,-42.73,-466,-5618,6082,0,-1,0
177.33,-3.26,-42.73,-468,-5620,6086,-1,0,0
177.33,-3.26,-42.73,-464,-5624,6085,0,0,0
177.33,-3.27,-42.73,-468,-5625,6094,0,0,0
177.33,-3.26,-42.72,-466,-5627,6097,-1,-1,0
177.33,-3.26,-42.72,-467,-5630,6092,-1,-1,0
177.33,-3.26,-42.72,-469,-5627,6082,0,0,0
177.32,-3.27,-42.72,-482,-5627,6088,-1,-1,0
177.32,-3.27,-42.72,-479,-5621,6088,0,0,0
177.32,-3.27,-42.72,-478,-5615,6091,-1,0,0
177.32,-3.27,-42.72,-478,-5623,6091,-1,-1,0
177.32,-3.27,-42.72,-473,-5619,6100,-1,0,0
177.32,-3.27,-42.72,-462,-5610,6104,-1,0,0
177.32,-3.27,-42.72,-469,-5614,6103,-1,-1,0
177.32,-3.27,-42.72,-464,-5620,6103,-1,0,0
177.32,-3.27,-42.73,-472,-5624,6094,-1,-1,-1
177.32,-3.27,-42.74,-466,-5626,6090,-1,0,0
177.32,-3.27,-42.74,-476,-5627,6081,0,0,-1
177.32,-3.27,-42.74,-468,-5629,6074,0,0,0
177.32,-3.26,-42.73,-469,-5634,6088,0,-1,-1
177.32,-3.26,-42.73,-471,-5633,6096,0,-1,-1
177.33,-3.25,-42.73,-472,-5625,6088,0,-1,-1
177.32,-3.25,-42.73,-479,-5626,6092,-1,-1,-1
177.33,-3.24,-42.73,-469,-5630,6091,-1,-1,-1
177.34,-3.24,-42.74,-456,-5633,6081,-1,-1,-1
177.34,-3.23,-42.74,-454,-5632,6085,-1,-1,-1
177.34,-3.23,-42.75,-462,-5629,6087,-1,0,-1
177.34,-3.23,-42.75,-466,-5633,6090,-1,0,0
177.34,-3.23,-42.75,-468,-5631,6101,-1,-1,-1
177.34,-3.23,-42.75,-475,-5629,6095,-1,-1,0
177.34,-3.23,-42.76,-475,-5621,6097,-1,0,-1
177.34,-3.23,-42.76,-471,-5618,6095,-1,0,-1
177.34,-3.23,-42.76,-471,-5629,6085,-1,0,-1
177.34,-3.23,-42.76,-465,-5632,6090,0,-1,-1
177.35,-3.22,-42.76,-456,-5620,6094,0,-1,0
177.34,-3.22,-42.76,-451,-5622,6102,-1,-1,0
177.34,-3.22,-42.76,-463,-5629,6091,-1,0,0
177.34,-3.23,-42.76,-467,-5633,6083,-1,0,-1
177.34,-3.23,-42.77,-472,-5638,6085,-1,0,-1
177.34,-3.23,-42.78,-476,-5635,6082,-1,0,-1
177.34,-3.23,-42.78,-469,-5635,6084,-1,-1,-1
177.35,-3.23,-42.78,-467,-5643,6081,-1,-1,-1
177.35,-3.22,-42.78,-468,-5639,6087,0,-1,-1
177.35,-3.22,-42.78,-464,-5633,6088,0,-1,-1
177.36,-3.21,-42.78,-451,-5628,6095,-1,-1,0
177.36,-3.21,-42.78,-449,-5613,6100,-1,0,0
177.36,-3.21,-42.78,-455,-5615,6097,-1,0,0
177.35,-3.22,-42.79,-460,-5629,6091,-1,0,0
177.35,-3.22,-42.80,-467,-5634,6089,-1,0,-1
177.35,-3.23,-42.81,-477,-5639,6087,-1,0,-1
177.35,-3.23,-42.82,-482,-5640,6072,-1,-1,-1
177.35,-3.23,-42.82,-481,-5645,6078,-1,-1,0
177.35,-3.23,-42.82,-480,-5650,6079,0,-1,-1
177.35,-3.23,-42.82,-470,-5651,6085,0,-1,-1
177.35,-3.22,-42.81,-461,-5640,6082,0,0,-1
177.36,-3.22,-42.81,-457,-5627,6085,-1,-1,-1
177.36,-3.22,-42.80,-465,-5622,6095,-1,0,0
177.36,-3.22,-42.81,-474,-5620,6085,-1,-1,-1
177.36,-3.22,-42.81,-466,-5627,6079,-1,0,-1
177.36,-3.22,-42.82,-462,-5628,6088,-1,0,0
177.36,-3.22,-42.82,-461,-5631,6083,-1,0,-1
177.36,-3.22,-42.82,-467,-5633,6077,-1,0,-1
177.36,-3.22,-42.82,-472,-5635,6082,-1,0,-1
177.36,-3.22,-42.82,-474,-5636,6074,-1,-1,-1
177.36,-3.22,-42.82,-470,-5644,6077,-1,-1,-1
177.36,-3.22,-42.82,-469,-5648,6082,0,-1,-1
177.37,-3.21,-42.82,-466,-5643,6079,-1,-1,-1
177.37,-3.21,-42.82,-459,-5640,6079,-1,-1,-1
177.37,-3.21,-42.83,-453,-5636,6078,-1,0,-1
177.37,-3.21,-42.83,-450,-5639,6075,-1,0,-1
177.37,-3.21,-42.83,-461,-5642,6079,-1,0,-1
177.37,-3.21,-42.84,-459,-5645,6078,-1,0,-1
177.37,-3.21,-42.84,-461,-5641,6079,-1,0,-1
177.37,-3.21,-42.84,-458,-5636,6076,-1,-1,0
177.37,-3.21,-42.84,-459,-5633,6082,0,0,-1
177.37,-3.21,-42.83,-461,-5628,6094,-1,0,0
177.37,-3.21,-42.84,-462,-5636,6092,-1,0,-1
177.37,-3.21,-42.84,-470,-5646,6094,-1,0,-1
177.37,-3.21,-42.85,-467,-5650,6081,0,-1,-1
177.38,-3.20,-42.84,-455,-5638,6077,0,-1,-1
177.39,-3.19,-42.84,-448,-5634,6084,-1,-1,0
177.38,-3.19,-42.84,-453,-5634,6074,-1,0,0
177.38,-3.20,-42.84,-456,-5637,6082,-1,0,0
177.38,-3.20,-42.84,-460,-5636,6075,-1,0,0
177.38,-3.20,-42.85,-465,-5632,6087,-1,0,-1
177.38,-3.20,-42.85,-468,-5637,6080,-1,-1,-1
177.38,-3.20,-42.85,-466,-5643,6073,-1,-1,-1
177.39,-3.19,-42.85,-462,-5641,6071,-1,-1,-1
177.39,-3.18,-42.85,-445,-5637,6067,-1,-1,0
177.39,-3.18,-42.85,-445,-5634,6072,-1,0,0
177.39,-3.18,-42.85,-449,-5630,6076,-1,0,0
177.39,-3.19,-42.85,-456,-5632,6076,-1,0,0
177.39,-3.19,-42.86,-462,-5634,6071,-1,0,0
177.39,-3.19,-42.87,-468,-5645,6061,-1,0,0
177.39,-3.19,-42.88,-470,-5653,6061,-1,-1,0
177.38,-3.19,-42.88,-469,-5657,6074,0,-1,-1
177.38,-3.19,-42.88,-470,-5652,6078,-1,-1,0
177.38,-3.19,-42.88,-469,-5646,6078,0,-1,-1
177.38,-3.19,-42.88,-469,-5643,6073,-1,-1,-1
177.38,-3.19,-42.88,-460,-5645,6075,0,-1,-1
177.39,-3.18,-42.87,-455,-5640,6083,0,-1,-1
177.39,-3.18,-42.87,-452,-5633,6085,-1,-1,-1
177.39,-3.18,-42.87,-454,-5640,6078,-1,-1,-1
177.39,-3.17,-42.88,-454,-5639,6073,-1,-1,0
177.39,-3.17,-42.88,-451,-5635,6073,-1,0,0
177.39,-3.17,-42.88,-455,-5633,6080,-1,0,0
177.39,-3.17,-42.88,-458,-5636,6066,0,0,-1
177.39,-3.18,-42.88,-459,-5641,6071,0,0,-1
177.39,-3.18,-42.88,-463,-5646,6077,0,0,-1
177.40,-3.17,-42.88,-461,-5649,6081,-1,0,-1
177.40,-3.17,-42.88,-460,-5642,6079,-1,0,-1
177.40,-3.17,-42.88,-457,-5640,6082,-1,0,-1
177.40,-3.17,-42.89,-457,-5645,6084,-1,0,-1
177.40,-3.18,-42.89,-455,-5649,6079,-1,0,-1
177.40,-3.19,-42.90,-456,-5638,6076,-1,0,0
177.40,-3.19,-42.91,-464,-5642,6069,-1,0,0
177.40,-3.19,-42.91,-455,-5641,6074,-1,0,0
177.39,-3.20,-42.91,-460,-5630,6084,-1,0,0
177.39,-3.21,-42.92,-471,-5635,6075,-1,0,-1
177.39,-3.21,-42.94,-469,-5654,6063,-1,0,-1
177.39,-3.22,-42.94,-461,-5653,6066,-1,0,0
177.39,-3.22,-42.94,-457,-5647,6080,-1,0,0
177.39,-3.22,-42.94,-461,-5644,6064,-1,0,0
177.38,-3.22,-42.95,-457,-5641,6060,-1,0,0
177.38,-3.23,-42.95,-464,-5639,6073,-1,0,0
177.38,-3.24,-42.96,-475,-5653,6068,-1,0,0
177.38,-3.24,-42.97,-480,-5653,6062,-1,0,-1
177.37,-3.24,-42.97,-479,-5656,6064,0,0,0
177.37,-3.24,-42.97,-478,-5660,6068,0,-1,-1
177.38,-3.24,-42.96,-476,-5655,6059,0,-1,-1
177.38,-3.24,-42.95,-476,-5645,6060,0,-1,-1
177.38,-3.23,-42.94,-465,-5642,6069,0,-1,-1
177.38,-3.23,-42.94,-459,-5641,6066,0,-1,-1
177.38,-3.22,-42.94,-456,-5647,6075,-1,-1,-1
177.38,-3.22,-42.94,-460,-5650,6079,0,-1,-1
177.38,-3.22,-42.93,-461,-5653,6070,0,-1,0
177.38,-3.22,-42.93,-470,-5653,6067,0,0,0
177.38,-3.22,-42.92,-466,-5650,6055,0,0,-1
177.38,-3.22,-42.91,-474,-5656,6067,0,-1,-1
177.38,-3.22,-42.91,-475,-5655,6074,0,-1,-1
177.38,-3.22,-42.90,-485,-5648,6073,0,-1,-1
177.39,-3.22,-42.89,-477,-5642,6071,0,-1,-1
177.39,-3.21,-42.88,-462,-5645,6078,0,-1,-1
177.39,-3.21,-42.88,-455,-5642,6080,0,-1,0
177.39,-3.20,-42.87,-451,-5640,6090,0,-1,0
177.39,-3.20,-42.87,-451,-5630,6078,-1,0,0
177.39,-3.21,-42.87,-462,-5636,6083,-1,0,0
177.39,-3.21,-42.88,-469,-5646,6083,0,0,0
177.38,-3.21,-42.87,-467,-5643,6089,0,0,-1
177.38,-3.21,-42.87,-473,-5648,6076,0,0,0
177.38,-3.21,-42.87,-465,-5653,6070,0,-1,0
177.38,-3.21,-42.86,-467,-5649,6075,0,-1,-1
177.38,-3.21,-42.85,-465,-5647,6077,0,0,0
177.39,-3.21,-42.85,-464,-5645,6085,0,0,-1
177.39,-3.21,-42.85,-461,-5639,6079,-1,0,-1
177.39,-3.21,-42.85,-471,-5642,6079,0,0,0
177.38,-3.21,-42.85,-470,-5645,6076,0,0,0
177.38,-3.22,-42.84,-468,-5640,6084,0,0,0
177.38,-3.22,-42.84,-468,-5637,6079,-1,0,0
177.38,-3.22,-42.85,-472,-5643,6071,-1,0,0
177.38,-3.22,-42.85,-474,-5653,6063,0,-1,0
177.38,-3.22,-42.85,-464,-5648,6069,0,-1,-1
177.38,-3.21,-42.84,-460,-5634,6071,0,-1,0
177.38,-3.21,-42.83,-456,-5626,6078,0,0,0
177.37,-3.22,-42.82,-457,-5636,6075,0,-1,0
177.37,-3.22,-42.82,-470,-5631,6084,0,0,0
177.37,-3.23,-42.82,-487,-5633,6079,0,0,-1
177.37,-3.23,-42.82,-482,-5637,6081,0,-1,-1
177.37,-3.23,-42.82,-476,-5638,6090,0,-1,-1
177.37,-3.22,-42.81,-471,-5638,6083,0,-1,-1
177.37,-3.21,-42.81,-457,-5632,6084,0,-1,0
177.37,-3.21,-42.80,-457,-5628,6089,0,0,0
177.37,-3.21,-42.79,-456,-5618,6081,0,0,0
177.37,-3.21,-42.79,-455,-5620,6092,-1,0,0
177.37,-3.21,-42.79,-447,-5625,6081,-1,0,0
177.37,-3.21,-42.80,-464,-5635,6081,-1,0,0
177.36,-3.22,-42.80,-461,-5643,6081,-1,0,0
177.36,-3.22,-42.80,-470,-5639,6079,0,0,0
177.36,-3.22,-42.80,-469,-5645,6074,0,-1,-1
177.36,-3.22,-42.79,-473,-5648,6076,0,-1,0
177.36,-3.22,-42.79,-477,-5642,6073,0,-1,0
177.36,-3.22,-42.79,-467,-5633,6085,0,-1,0
177.36,-3.22,-42.78,-460,-5627,6085,0,0,-1
177.37,-3.21,-42.78,-451,-5630,6086,-1,0,0
177.37,-3.21,-42.78,-452,-5631,6082,-1,-1,0
177.37,-3.21,-42.78,-453,-5637,6082,-1,0,0
177.37,-3.21,-42.78,-449,-5622,6099,-1,0,0
177.37,-3.21,-42.78,-463,-5620,6089,-1,0,0
177.36,-3.22,-42.78,-464,-5628,6075,0,0,-1
177.36,-3.22,-42.77,-462,-5640,6082,0,-1,0
177.36,-3.22,-42.77,-457,-5642,6083,0,0,0
177.36,-3.23,-42.76,-472,-5632,6078,0,0,0
177.36,-3.23,-42.76,-478,-5627,6085,0,-1,0
177.35,-3.23,-42.76,-478,-5627,6100,0,-1,0
177.35,-3.23,-42.75,-469,-5629,6094,0,0,-1
177.35,-3.23,-42.75,-463,-5632,6093,-1,-1,0
177.35,-3.23,-42.75,-471,-5630,6082,0,0,0
177.35,-3.23,-42.75,-461,-5631,6085,0,0,0
177.35,-3.23,-42.75,-469,-5619,6093,-1,0,0
177.34,-3.24,-42.75,-468,-5621,6096,-1,0,0
177.34,-3.24,-42.76,-477,-5626,6084,-1,0,0
177.34,-3.25,-42.76,-478,-5637,6076,0,0,-1
177.34,-3.25,-42.76,-481,-5643,6080,0,-1,0
177.34,-3.25,-42.75,-474,-5635,6081,0,-1,0
177.34,-3.24,-42.75,-468,-5619,6075,0,-1,0
177.33,-3.25,-42.74,-474,-5623,6082,0,0,0
177.33,-3.25,-42.74,-478,-5632,6102,0,0,0
177.33,-3.26,-42.74,-484,-5630,6102,0,-1,-1
177.33,-3.26,-42.74,-483,-5626,6103,-1,-1,-1
177.33,-3.25,-42.74,-479,-5631,6087,0,-1,-1
177.33,-3.25,-42.74,-476,-5636,6081,0,0,-1
177.33,-3.24,-42.73,-467,-5637,6097,0,-1,0
177.34,-3.24,-42.73,-461,-5633,6091,0,-1,-1
177.34,-3.24,-42.73,-464,-5623,6091,0,-1,0
177.34,-3.24,-42.72,-465,-5608,6086,-1,-1,0
177.34,-3.23,-42.73,-462,-5616,6084,-1,-1,-1
177.34,-3.23,-42.73,-464,-5620,6087,-1,0,-1
177.34,-3.23,-42.73,-458,-5622,6090,-1,-1,-1
177.34,-3.23,-42.74,-469,-5620,6084,-1,-1,0
177.34,-3.23,-42.74,-468,-5630,6076,-1,-1,0
177.34,-3.23,-42.74,-472,-5632,6085,-1,-1,-1
177.34,-3.22,-42.74,-477,-5637,6078,0,-1,-1
177.34,-3.23,-42.74,-482,-5627,6084,-1,-1,-1
177.34,-3.22,-42.74,-478,-5627,6086,-1,-1,-1
177.34,-3.22,-42.75,-470,-5630,6087,-1,-1,-1
177.34,-3.22,-42.75,-467,-5630,6093,-1,-1,-1
177.34,-3.22,-42.75,-459,-5622,6088,-1,-1,0
177.35,-3.21,-42.75,-452,-5621,6089,-1,-1,-1
177.35,-3.21,-42.76,-456,-5626,6091,-1,0,-1
177.35,-3.21,-42.76,-460,-5630,6089,-1,0,-1
177.35,-3.21,-42.76,-457,-5627,6095,-1,0,-1
177.35,-3.21,-42.76,-462,-5636,6093,-1,0,-1
177.35,-3.21,-42.77,-470,-5631,6088,-1,-1,0
177.35,-3.21,-42.77,-468,-5628,6083,-1,0,0
177.35,-3.21,-42.77,-469,-5633,6088,-1,-1,0
177.35,-3.21,-42.77,-463,-5630,6086,0,0,0
177.35,-3.21,-42.77,-460,-5632,6090,0,0,-1
177.35,-3.21,-42.77,-457,-5623,6093,-1,-1,-1
177.35,-3.21,-42.77,-461,-5619,6090,-1,0,-1
177.35,-3.21,-42.78,-464,-5627,6085,-1,-1,-1
177.35,-3.20,-42.78,-460,-5633,6075,-1,-1,0
177.35,-3.21,-42.79,-462,-5634,6071,-1,0,-1
177.35,-3.20,-42.79,-453,-5638,6073,-1,0,-1
177.35,-3.20,-42.79,-460,-5638,6080,0,-1,-1
177.35,-3.20,-42.79,-468,-5638,6087,0,0,0
177.35,-3.21,-42.79,-469,-5639,6086,-1,-1,0
177.35,-3.20,-42.79,-472,-5627,6082,-1,-1,-1
177.35,-3.20,-42.80,-468,-5625,6086,-1,0,0
177.35,-3.21,-42.81,-464,-5641,6085,-1,0,-1
177.36,-3.20,-42.82,-457,-5649,6080,0,-1,-1
177.36,-3.20,-42.82,-459,-5637,6075,0,-1,0
177.36,-3.20,-42.81,-454,-5622,6081,-1,-1,0
177.36,-3.20,-42.81,-449,-5618,6079,-1,0,0
177.36,-3.20,-42.82,-449,-5620,6078,-1,0,0
177.36,-3.20,-42.82,-455,-5621,6076,-1,0,-1
177.36,-3.20,-42.82,-464,-5628,6083,-1,0,-1
177.36,-3.21,-42.82,-472,-5626,6077,-1,0,-1
177.36,-3.21,-42.83,-477,-5633,6074,-1,0,-1
177.36,-3.21,-42.83,-475,-5634,6087,-1,-1,-1
177.36,-3.20,-42.83,-468,-5635,6089,0,-1,-1
177.37,-3.20,-42.83,-460,-5640,6088,0,-1,-1
177.37,-3.20,-42.83,-459,-5630,6088,0,0,0
177.37,-3.20,-42.83,-459,-5618,6090,-1,0,0
177.37,-3.20,-42.83,-459,-5623,6084,-1,0,0
177.36,-3.20,-42.84,-468,-5630,6088,-1,0,-1
177.36,-3.20,-42.84,-471,-5637,6083,-1,-1,-1
177.36,-3.20,-42.85,-474,-5643,6074,-1,0,-1
177.37,-3.20,-42.86,-473,-5647,6064,-1,0,-1
177.37,-3.20,-42.86,-471,-5649,6059,0,-1,-1
177.37,-3.20,-42.86,-468,-5651,6064,0,-1,-1
177.37,-3.20,-42.86,-460,-5651,6072,0,-1,-1
177.37,-3.20,-42.85,-463,-5641,6078,0,-1,-1
177.37,-3.20,-42.85,-462,-5640,6077,0,-1,0
177.37,-3.20,-42.85,-460,-5632,6081,-1,0,0
177.37,-3.20,-42.85,-457,-5624,6087,-1,0,-1
177.38,-3.19,-42.86,-451,-5634,6085,-1,0,-1
177.38,-3.19,-42.87,-454,-5639,6078,-1,0,0
177.37,-3.20,-42.88,-454,-5642,6079,-1,0,0
177.37,-3.20,-42.88,-458,-5640,6073,-1,0,0
177.37,-3.20,-42.88,-465,-5642,6078,0,-1,-1
177.37,-3.20,-42.88,-468,-5640,6077,0,-1,-1
177.37,-3.20,-42.88,-470,-5637,6081,0,-1,-1
177.38,-3.19,-42.88,-466,-5644,6075,-1,-1,0
177.38,-3.19,-42.88,-460,-5637,6077,-1,-1,-1
177.38,-3.18,-42.88,-453,-5634,6081,-1,0,-1
177.38,-3.18,-42.88,-451,-5634,6075,-1,-1,-1
177.38,-3.18,-42.88,-453,-5633,6080,-1,0,0
177.38,-3.18,-42.88,-460,-5635,6084,-1,0,0
177.38,-3.18,-42.88,-466,-5637,6084,-1,-1,0
177.38,-3.18,-42.88,-468,-5638,6084,-1,-1,-1
177.38,-3.18,-42.89,-461,-5650,6075,-1,-1,-1
177.38,-3.18,-42.89,-459,-5649,6070,0,-1,-1
177.38,-3.18,-42.89,-464,-5643,6072,-1,0,0
177.38,-3.18,-42.89,-463,-5641,6072,-1,-1,-1
177.38,-3.18,-42.90,-460,-5644,6080,-1,0,-1
177.38,-3.18,-42.90,-464,-5643,6070,-1,0,-1
177.38,-3.18,-42.90,-471,-5645,6070,0,0,-1
177.38,-3.18,-42.90,-458,-5638,6062,0,-1,-1
177.39,-3.17,-42.90,-455,-5644,6072,-1,-1,0
177.39,-3.17,-42.90,-452,-5641,6076,-1,0,0
177.38,-3.18,-42.90,-469,-5646,6075,-1,0,-1
177.38,-3.18,-42.90,-469,-5638,6071,-1,0,-1
177.38,-3.19,-42.90,-473,-5640,6070,-1,0,-1
177.38,-3.19,-42.91,-474,-5650,6075,-1,-1,-1
177.39,-3.18,-42.91,-464,-5652,6072,-1,0,-1
177.39,-3.18,-42.91,-451,-5654,6071,0,0,-1
177.39,-3.18,-42.91,-450,-5644,6073,-1,0,-1
177.39,-3.18,-42.91,-448,-5646,6074,-1,0,-1
177.39,-3.18,-42.92,-448,-5640,6086,-1,0,-1
177.39,-3.19,-42.93,-453,-5642,6078,-1,0,-1
177.40,-3.19,-42.94,-460,-5647,6066,-1,0,-1
177.40,-3.19,-42.94,-457,-5647,6064,-1,0,-1
177.39,-3.20,-42.95,-466,-5648,6064,-1,0,-1
177.40,-3.20,-42.95,-464,-5647,6065,-1,0,0
177.40,-3.20,-42.96,-464,-5646,6068,-1,0,0
177.39,-3.21,-42.97,-467,-5656,6071,-1,0,0
177.39,-3.21,-42.97,-467,-5663,6074,0,0,0
177.39,-3.22,-42.96,-471,-5655,6073,0,0,0
177.38,-3.22,-42.96,-471,-5642,6070,0,0,0
177.38,-3.22,-42.96,-469,-5643,6070,-1,0,0
177.38,-3.22,-42.96,-470,-5638,6079,-1,-1,0
177.38,-3.22,-42.96,-464,-5642,6067,-1,0,0
177.38,-3.23,-42.96,-467,-5639,6072,-1,0,0
177.38,-3.23,-42.97,-473,-5652,6063,-1,0,0
177.37,-3.23,-42.97,-472,-5643,6062,-1,0,0
177.37,-3.23,-42.97,-468,-5653,6061,-1,-1,0
177.37,-3.23,-42.98,-465,-5655,6066,-1,0,0
177.37,-3.23,-42.97,-472,-5659,6070,0,0,0
177.37,-3.24,-42.97,-476,-5658,6071,0,0,-1
177.37,-3.24,-42.97,-471,-5659,6070,0,-1,0
177.37,-3.23,-42.97,-465,-5656,6057,0,0,-1
177.37,-3.23,-42.97,-463,-5651,6064,0,-1,0
177.37,-3.23,-42.96,-466,-5645,6060,0,0,0
177.37,-3.23,-42.96,-474,-5657,6067,0,-1,0
177.38,-3.23,-42.95,-464,-5651,6077,0,-1,0
177.37,-3.23,-42.94,-467,-5642,6072,0,-1,0
177.37,-3.23,-42.94,-470,-5640,6068,0,0,0
177.36,-3.23,-42.94,-469,-5642,6066,0,-1,0
177.36,-3.23,-42.93,-471,-5647,6073,0,-1,-1
177.37,-3.23,-42.92,-470,-5654,6075,0,-1,-1
177.37,-3.22,-42.91,-461,-5646,6080,0,-1,0
177.37,-3.22,-42.91,-458,-5643,6078,0,-1,0
177.36,-3.22,-42.90,-463,-5648,6076,0,0,0
177.36,-3.22,-42.90,-472,-5646,6075,0,0,0
177.36,-3.23,-42.89,-469,-5641,6078,0,0,0
177.36,-3.23,-42.89,-475,-5649,6073,-1,-1,0
177.36,-3.22,-42.89,-468,-5649,6075,0,-1,0
177.36,-3.22,-42.89,-462,-5649,6069,0,-1,-1
177.36,-3.22,-42.89,-469,-5645,6075,0,-1,0
177.36,-3.22,-42.88,-468,-5639,6078,0,-1,-1
177.36,-3.22,-42.88,-466,-5632,6087,0,-1,0
177.36,-3.22,-42.87,-461,-5621,6088,-1,-1,0
177.35,-3.22,-42.88,-465,-5625,6088,-1,0,0
177.35,-3.22,-42.87,-455,-5631,6081,-1,0,0
177.36,-3.22,-42.87,-465,-5637,6086,0,0,-1
177.36,-3.22,-42.87,-467,-5643,6086,0,-1,-1
177.35,-3.23,-42.87,-474,-5647,6077,0,-1,0
177.35,-3.23,-42.86,-479,-5641,6077,0,-1,0
177.35,-3.23,-42.86,-471,-5637,6076,0,-1,0
177.35,-3.22,-42.85,-462,-5629,6080,0,-1,-1
177.36,-3.21,-42.84,-450,-5628,6075,0,-1,-1
177.36,-3.21,-42.84,-442,-5617,6087,-1,0,0
177.36,-3.21,-42.84,-451,-5610,6093,-1,0,0
177.35,-3.22,-42.84,-460,-5620,6083,-1,-1,0
177.35,-3.22,-42.84,-458,-5624,6077,-1,0,0
177.35,-3.22,-42.85,-458,-5637,6076,-1,0,0
177.35,-3.23,-42.85,-471,-5645,6072,-1,0,-1
177.35,-3.23,-42.85,-463,-5644,6073,0,0,0
177.35,-3.23,-42.85,-470,-5635,6066,0,-1,0
177.35,-3.23,-42.84,-463,-5640,6066,0,-1,-1
177.35,-3.23,-42.84,-468,-5633,6068,0,-1,-1
177.35,-3.22,-42.84,-461,-5631,6069,0,-1,-1
177.35,-3.22,-42.83,-465,-5633,6087,0,-1,0
177.35,-3.22,-42.82,-459,-5625,6085,0,0,-1
177.35,-3.22,-42.82,-455,-5624,6090,-1,0,0
177.35,-3.22,-42.82,-458,-5630,6104,-1,0,0
177.34,-3.23,-42.83,-457,-5637,6089,0,0,0
177.34,-3.23,-42.82,-469,-5644,6092,0,-1,0
177.34,-3.24,-42.82,-475,-5644,6090,-1,0,0
177.34,-3.24,-42.82,-486,-5644,6082,0,0,0
177.34,-3.24,-42.82,-486,-5640,6081,0,-1,-1
177.34,-3.24,-42.82,-477,-5639,6075,0,-1,0
177.34,-3.23,-42.81,-467,-5632,6082,0,-1,0
177.34,-3.23,-42.80,-462,-5628,6088,0,-1,0
177.34,-3.23,-42.79,-460,-5623,6088,0,0,0
177.33,-3.23,-42.79,-468,-5617,6097,0,0,0
177.33,-3.24,-42.78,-473,-5628,6098,-1,0,0
177.33,-3.25,-42.79,-477,-5634,6100,-1,0,-1
177.33,-3.25,-42.79,-474,-5637,6087,0,-1,-1
177.33,-3.24,-42.79,-469,-5631,6090,-1,-1,0
177.33,-3.24,-42.79,-461,-5636,6081,0,-1,0
177.33,-3.24,-42.78,-457,-5625,6090,0,-1,0
177.32,-3.24,-42.78,-464,-5621,6094,0,0,0
177.32,-3.24,-42.78,-462,-5616,6091,-1,0,0
177.32,-3.24,-42.78,-468,-5623,6096,-1,0,0
177.32,-3.24,-42.78,-466,-5634,6086,-1,0,-1
177.32,-3.25,-42.78,-478,-5629,6068,-1,-1,0
177.32,-3.25,-42.78,-469,-5633,6065,0,0,0
177.32,-3.25,-42.78,-472,-5637,6060,0,0,-1
177.32,-3.25,-42.78,-474,-5641,6078,0,-1,-1
177.32,-3.24,-42.77,-482,-5644,6083,0,-1,-1
177.32,-3.24,-42.76,-488,-5628,6094,0,-1,-1
177.33,-3.24,-42.76,-478,-5627,6088,0,-1,-1
177.32,-3.24,-42.75,-472,-5617,6094,0,-1,-1
177.33,-3.23,-42.75,-465,-5612,6100,0,-1,-1
177.33,-3.22,-42.75,-456,-5609,6101,-1,-1,0
177.33,-3.22,-42.75,-451,-5620,6093,-1,0,0
177.32,-3.23,-42.76,-458,-5625,6088,-1,0,0
177.33,-3.22,-42.76,-468,-5634,6085,-1,0,0
177.33,-3.22,-42.76,-480,-5643,6081,-1,0,-1
177.32,-3.23,-42.77,-478,-5634,6080,-1,-1,-1
177.32,-3.23,-42.77,-481,-5635,6084,0,-1,0
177.32,-3.23,-42.77,-473,-5634,6077,0,-1,-1
177.33,-3.22,-42.76,-470,-5631,6087,-1,-1,-1
177.33,-3.21,-42.76,-463,-5622,6102,-1,-1,-1
177.33,-3.21,-42.76,-465,-5625,6098,-1,-1,-1
177.33,-3.21,-42.77,-462,-5629,6097,-1,0,-1
177.33,-3.21,-42.77,-462,-5627,6099,-1,0,-1
177.33,-3.21,-42.77,-465,-5628,6099,-1,0,-1
177.33,-3.21,-42.77,-462,-5620,6101,-1,0,0
177.33,-3.21,-42.78,-470,-5629,6090,-1,0,-1
177.33,-3.21,-42.78,-481,-5638,6089,-1,-1,-1
177.34,-3.21,-42.79,-468,-5637,6080,-1,0,-1
177.33,-3.21,-42.79,-459,-5625,6091,0,-1,0
177.33,-3.21,-42.78,-451,-5620,6087,-1,-1,0
177.34,-3.20,-42.79,-453,-5629,6101,-1,0,-1
177.33,-3.21,-42.79,-455,-5633,6110,-1,0,0
177.34,-3.21,-42.79,-473,-5639,6096,-1,0,-1
177.34,-3.21,-42.79,-478,-5636,6083,-1,0,-1
177.34,-3.21,-42.80,-476,-5631,6086,-1,-1,-1
177.34,-3.21,-42.80,-466,-5629,6083,-1,-1,-1
177.34,-3.20,-42.80,-449,-5628,6082,0,-1,-1
177.35,-3.19,-42.79,-441,-5629,6085,-1,-1,-1
177.36,-3.19,-42.79,-440,-5623,6090,-1,0,-1
177.35,-3.19,-42.79,-450,-5614,6103,-1,0,0
177.35,-3.19,-42.79,-457,-5619,6093,-1,0,0
177.35,-3.19,-42.81,-458,-5630,6094,-1,0,0
177.35,-3.20,-42.82,-463,-5640,6081,-1,0,0
177.35,-3.20,-42.82,-465,-5650,6074,-1,0,-1
177.35,-3.20,-42.82,-467,-5639,6088,-1,0,-1
177.35,-3.21,-42.82,-467,-5639,6078,-1,-1,0
177.35,-3.21,-42.82,-470,-5629,6087,-1,0,0
177.34,-3.21,-42.82,-476,-5631,6095,-1,0,-1
177.35,-3.20,-42.83,-475,-5642,6090,-1,-1,-1
177.35,-3.20,-42.84,-472,-5639,6095,-1,-1,-1
177.35,-3.20,-42.84,-465,-5636,6091,-1,0,-1
177.35,-3.20,-42.84,-458,-5636,6082,-1,0,-1
177.35,-3.20,-42.84,-462,-5639,6077,-1,0,-1
177.36,-3.20,-42.85,-457,-5635,6076,-1,0,0
177.36,-3.20,-42.85,-455,-5642,6082,-1,0,0
177.36,-3.20,-42.86,-466,-5644,6087,-1,-1,-1
177.36,-3.20,-42.86,-467,-5641,6075,0,0,-1
177.36,-3.20,-42.86,-463,-5635,6063,-1,-1,-1
177.36,-3.19,-42.86,-463,-5632,6071,-1,-1,-1
177.36,-3.19,-42.86,-459,-5634,6076,0,-1,-1
177.36,-3.19,-42.85,-453,-5628,6078,0,0,-1
177.36,-3.19,-42.85,-465,-5632,6074,-1,-1,0
177.36,-3.19,-42.86,-464,-5635,6074,-1,0,-1
177.37,-3.18,-42.87,-457,-5635,6078,-1,-1,-1
177.37,-3.19,-42.87,-450,-5636,6069,-1,-1,-1
177.37,-3.19,-42.88,-451,-5638,6076,-1,0,-1
177.37,-3.19,-42.88,-458,-5635,6076,-1,0,-1
177.37,-3.18,-42.88,-456,-5643,6083,-1,-1,0
177.37,-3.18,-42.88,-465,-5634,6091,-1,-1,0
177.36,-3.19,-42.88,-475,-5631,6089,-1,0,0
177.37,-3.19,-42.88,-474,-5637,6090,-1,0,-1
177.37,-3.19,-42.89,-476,-5646,6078,-1,-1,-1
177.37,-3.18,-42.89,-471,-5650,6073,0,-1,-1
177.37,-3.18,-42.88,-463,-5645,6075,0,-1,-1
177.38,-3.17,-42.88,-451,-5634,6080,0,-1,0
177.38,-3.17,-42.88,-452,-5631,6083,-1,0,0
177.38,-3.17,-42.88,-453,-5637,6096,-1,0,0
177.38,-3.17,-42.88,-466,-5641,6088,-1,0,-1
177.37,-3.18,-42.88,-472,-5646,6092,-1,0,-1
177.38,-3.18,-42.88,-471,-5653,6090,-1,-1,-1
177.38,-3.17,-42.88,-465,-5652,6087,0,-1,-1
177.38,-3.17,-42.88,-463,-5645,6079,0,-1,-1
177.39,-3.16,-42.88,-458,-5640,6083,0,-1,0
177.39,-3.16,-42.88,-448,-5638,6085,0,0,0
177.39,-3.16,-42.88,-446,-5639,6080,-1,0,0
177.39,-3.16,-42.88,-455,-5636,6089,-1,0,-1
177.39,-3.16,-42.88,-459,-5640,6083,-1,0,0
177.39,-3.16,-42.89,-460,-5637,6076,-1,0,0
177.38,-3.17,-42.90,-463,-5637,6068,-1,0,0
177.38,-3.17,-42.89,-456,-5636,6066,0,-1,0
177.38,-3.17,-42.89,-464,-5642,6079,0,-1,-1
177.38,-3.17,-42.89,-465,-5653,6080,0,-1,-1
177.38,-3.17,-42.89,-472,-5652,6080,0,-1,-1
177.39,-3.16,-42.89,-468,-5641,6069,-1,-1,-1
177.39,-3.15,-42.88,-462,-5644,6070,0,-1,-1
177.39,-3.15,-42.88,-460,-5641,6071,0,-1,-1
177.39,-3.15,-42.88,-454,-5636,6077,0,0,-1
177.39,-3.15,-42.88,-450,-5630,6079,-1,0,0
177.39,-3.15,-42.88,-448,-5624,6078,-1,0,0
177.39,-3.15,-42.88,-453,-5636,6080,-1,0,-1
177.40,-3.15,-42.89,-454,-5643,6084,-1,0,-1
177.40,-3.15,-42.90,-456,-5651,6076,-1,0,-1
177.40,-3.16,-42.90,-464,-5642,6069,0,0,0
177.40,-3.15,-42.89,-456,-5642,6074,0,-1,-1
177.40,-3.15,-42.89,-460,-5643,6078,0,0,-1
177.40,-3.15,-42.89,-458,-5642,6086,0,0,0
177.40,-3.15,-42.89,-453,-5638,6082,-1,-1,0
177.40,-3.15,-42.89,-444,-5637,6085,-1,0,0
177.40,-3.16,-42.89,-451,-5639,6080,-1,0,0
177.40,-3.16,-42.89,-452,-5641,6086,-1,0,0
177.40,-3.16,-42.89,-457,-5646,6078,-1,0,0
177.39,-3.17,-42.89,-462,-5655,6077,-1,0,0
177.39,-3.17,-42.89,-467,-5654,6076,0,0,0
177.38,-3.18,-42.89,-466,-5646,6079,-1,0,0
177.38,-3.18,-42.89,-464,-5636,6082,-1,0,0
177.38,-3.18,-42.89,-462,-5643,6079,0,0,-1
177.38,-3.18,-42.89,-462,-5649,6081,0,-1,-1
177.38,-3.18,-42.88,-456,-5644,6082,0,-1,0
177.38,-3.18,-42.88,-455,-5643,6074,0,-1,0
177.38,-3.18,-42.88,-452,-5639,6078,0,0,0
177.38,-3.19,-42.88,-458,-5632,6074,-1,0,0
177.38,-3.19,-42.88,-474,-5644,6082,0,0,0
177.38,-3.20,-42.88,-474,-5649,6098,0,0,-1
177.38,-3.20,-42.87,-469,-5655,6102,0,-1,-1
177.38,-3.19,-42.87,-468,-5648,6090,0,-1,-1
177.38,-3.19,-42.86,-459,-5640,6083,0,-1,-1
177.38,-3.19,-42.85,-451,-5635,6071,0,-1,0
177.38,-3.18,-42.85,-449,-5633,6069,0,-1,0
177.38,-3.18,-42.85,-454,-5629,6074,0,0,0
177.38,-3.19,-42.84,-448,-5631,6081,-1,0,0
177.38,-3.19,-42.85,-458,-5633,6087,-1,0,0
177.37,-3.20,-42.84,-459,-5635,6079,-1,0,0
177.37,-3.20,-42.84,-463,-5635,6075,0,0,-1
177.38,-3.19,-42.84,-465,-5641,6067,0,-1,0
177.38,-3.19,-42.84,-457,-5641,6069,0,-1,0
177.38,-3.19,-42.84,-460,-5652,6076,0,0,0
177.37,-3.20,-42.84,-471,-5649,6083,0,-1,0
177.37,-3.20,-42.83,-466,-5646,6088,0,-1,-1
177.37,-3.19,-42.82,-466,-5643,6097,0,-1,0
177.37,-3.19,-42.82,-457,-5639,6096,0,-1,0
177.37,-3.19,-42.82,-456,-5634,6089,0,-1,0
177.37,-3.19,-42.82,-453,-5629,6085,0,0,0
177.37,-3.19,-42.82,-457,-5633,6078,0,0,0
177.37,-3.19,-42.82,-463,-5638,6089,-1,0,0
177.37,-3.20,-42.82,-468,-5638,6084,0,0,0
177.36,-3.20,-42.82,-466,-5647,6093,0,-1,0
177.36,-3.20,-42.82,-472,-5647,6082,0,0,0
177.36,-3.20,-42.82,-468,-5641,6081,0,-1,0
177.36,-3.20,-42.82,-459,-5642,6076,0,-1,0
177.36,-3.20,-42.81,-465,-5643,6084,0,-1,0
177.36,-3.20,-42.80,-465,-5641,6088,0,-1,-1
177.36,-3.20,-42.79,-471,-5636,6089,0,0,0
177.36,-3.19,-42.79,-462,-5633,6093,0,-1,0
177.36,-3.19,-42.78,-461,-5630,6082,0,0,0
177.36,-3.20,-42.78,-454,-5625,6088,0,-1,0
177.36,-3.20,-42.78,-456,-5628,6085,-1,0,0
177.36,-3.20,-42.78,-463,-5638,6082,-1,0,-1
177.35,-3.20,-42.78,-473,-5638,6083,0,-1,0
177.35,-3.20,-42.78,-467,-5635,6087,0,0,-1
177.35,-3.20,-42.77,-458,-5626,6086,0,-1,0
177.35,-3.20,-42.77,-458,-5619,6089,-1,0,0
177.35,-3.21,-42.77,-460,-5634,6088,-1,0,0
177.34,-3.21,-42.77,-467,-5639,6086,0,0,0
177.34,-3.21,-42.77,-472,-5629,6094,0,0,0
177.34,-3.21,-42.77,-480,-5627,6087,0,0,-1
177.34,-3.21,-42.77,-471,-5630,6081,0,-1,-1
177.34,-3.21,-42.76,-465,-5631,6076,0,-1,-1
177.34,-3.21,-42.76,-452,-5623,6083,0,-1,0
177.34,-3.20,-42.76,-452,-5624,6093,0,-1,0
177.34,-3.20,-42.75,-450,-5616,6091,0,-1,0
177.34,-3.20,-42.75,-449,-5614,6085,-1,0,0
177.34,-3.20,-42.75,-452,-5618,6078,0,0,0
177.34,-3.21,-42.75,-459,-5628,6077,0,0,0
177.33,-3.22,-42.75,-467,-5632,6090,-1,-1,0
177.33,-3.22,-42.76,-470,-5636,6086,-1,0,0
177.33,-3.22,-42.76,-485,-5636,6089,0,0,0
177.33,-3.22,-42.76,-473,-5639,6080,0,0,0
177.33,-3.22,-42.75,-477,-5645,6071,0,-1,0
177.33,-3.22,-42.75,-467,-5639,6078,0,-1,0
177.33,-3.22,-42.74,-462,-5629,6081,0,-1,0
177.33,-3.21,-42.73,-459,-5622,6080,0,0,0
177.33,-3.21,-42.73,-455,-5622,6093,0,0,0
177.33,-3.21,-42.73,-458,-5622,6098,-1,0,0
177.33,-3.21,-42.73,-456,-5621,6095,-1,0,0
177.33,-3.22,-42.74,-459,-5622,6086,-1,0,0
177.33,-3.22,-42.74,-466,-5620,6083,-1,0,0
177.32,-3.23,-42.75,-481,-5629,6083,-1,0,0
177.32,-3.23,-42.75,-482,-5632,6088,0,0,-1
177.32,-3.23,-42.74,-478,-5633,6093,0,-1,0
177.32,-3.23,-42.73,-466,-5633,6098,0,-1,-1
177.32,-3.22,-42.73,-468,-5627,6096,0,-1,-1
177.32,-3.22,-42.72,-461,-5619,6104,0,-1,-1
177.32,-3.22,-42.72,-456,-5615,6108,0,-1,-1
177.33,-3.21,-42.72,-456,-5608,6098,-1,0,0
177.33,-3.21,-42.72,-455,-5619,6095,-1,0,0
177.32,-3.22,-42.73,-459,-5622,6088,-1,0,-1
177.32,-3.22,-42.73,-470,-5637,6098,0,-1,-1
177.32,-3.22,-42.73,-478,-5634,6101,0,-1,-1
177.32,-3.22,-42.73,-478,-5628,6097,-1,-1,-1
177.33,-3.21,-42.73,-470,-5628,6090,-1,-1,0
177.33,-3.21,-42.73,-463,-5629,6091,-1,-1,-1
177.33,-3.21,-42.73,-472,-5617,6095,0,0,-1
177.33,-3.21,-42.73,-471,-5614,6100,-1,-1,-1
177.33,-3.21,-42.73,-467,-5623,6093,-1,-1,-1
177.33,-3.21,-42.73,-468,-5619,6094,-1,-1,-1
177.33,-3.20,-42.73,-464,-5615,6099,-1,0,-1
177.33,-3.20,-42.74,-463,-5618,6097,-1,-1,-1
177.33,-3.20,-42.74,-456,-5615,6092,-1,-1,-1
177.33,-3.20,-42.74,-454,-5620,6096,-1,-1,0
177.33,-3.20,-42.75,-447,-5619,6094,-1,0,0
177.33,-3.20,-42.75,-452,-5621,6086,-1,0,0
177.33,-3.20,-42.75,-462,-5627,6089,-1,0,-1
177.33,-3.20,-42.75,-464,-5632,6082,-1,0,-1
177.33,-3.20,-42.76,-461,-5634,6083,-1,0,-1
177.33,-3.20,-42.77,-466,-5643,6083,-1,0,-1
177.33,-3.20,-42.78,-470,-5646,6086,-1,0,-1
177.33,-3.20,-42.78,-469,-5642,6079,0,0,-1
177.33,-3.20,-42.78,-470,-5637,6077,-1,-1,-1
177.33,-3.20,-42.78,-465,-5631,6081,-1,-1,0
177.34,-3.19,-42.78,-463,-5634,6087,-1,-1,-1
177.34,-3.19,-42.78,-466,-5630,6088,-1,-1,-1
177.34,-3.19,-42.78,-463,-5625,6087,-1,-1,-1
177.34,-3.19,-42.79,-452,-5624,6075,-1,0,0
177.34,-3.19,-42.80,-451,-5633,6077,-1,0,0
177.34,-3.19,-42.81,-455,-5637,6074,-1,0,-1
177.34,-3.20,-42.82,-467,-5655,6080,-1,0,-1
177.34,-3.20,-42.82,-467,-5651,6090,-1,-1,-1
177.35,-3.20,-42.82,-472,-5647,6087,0,0,-1
177.35,-3.20,-42.82,-475,-5640,6079,0,-1,-1
177.35,-3.19,-42.81,-467,-5633,6073,0,-1,0
177.35,-3.19,-42.81,-458,-5630,6084,-1,-1,-1
177.35,-3.19,-42.81,-457,-5624,6082,-1,-1,-1
177.35,-3.18,-42.81,-456,-5619,6088,-1,0,0
177.35,-3.19,-42.81,-458,-5626,6090,-1,0,-1
177.35,-3.19,-42.81,-462,-5618,6086,-1,0,0
177.35,-3.19,-42.82,-465,-5627,6083,-1,-1,0
177.35,-3.19,-42.82,-457,-5627,6078,-1,0,0
177.35,-3.19,-42.83,-464,-5640,6077,-1,0,-1
177.36,-3.19,-42.83,-462,-5644,6079,0,0,-1
177.36,-3.19,-42.83,-462,-5634,6078,0,-1,-1
177.36,-3.18,-42.82,-453,-5632,6079,0,-1,0
177.36,-3.18,-42.82,-453,-5630,6085,-1,0,-1
177.36,-3.18,-42.82,-453,-5630,6088,-1,0,0
177.36,-3.18,-42.83,-455,-5635,6094,-1,0,-1
177.36,-3.19,-42.83,-471,-5629,6089,-1,0,-1
177.36,-3.19,-42.84,-472,-5635,6091,-1,0,-1
177.36,-3.19,-42.84,-467,-5638,6085,-1,-1,-1
177.36,-3.18,-42.84,-461,-5637,6086,0,-1,-1
177.36,-3.18,-42.84,-453,-5629,6081,-1,-1,-1
177.37,-3.17,-42.84,-449,-5632,6076,-1,-1,-1
177.36,-3.18,-42.84,-453,-5631,6091,-1,0,0
177.36,-3.18,-42.84,-456,-5636,6087,-1,0,0
177.36,-3.18,-42.84,-460,-5637,6090,-1,0,-1
177.36,-3.18,-42.85,-470,-5637,6091,-1,0,0
177.36,-3.18,-42.86,-473,-5643,6078,-1,0,-1
177.36,-3.18,-42.86,-470,-5647,6073,-1,0,0
177.36,-3.18,-42.87,-460,-5651,6059,0,0,-1
177.37,-3.18,-42.86,-461,-5646,6076,0,0,-1
177.36,-3.19,-42.87,-466,-5646,6070,0,0,-1
177.37,-3.18,-42.86,-463,-5637,6076,-1,-1,-1
177.37,-3.18,-42.86,-468,-5637,6073,-1,0,-1
177.36,-3.19,-42.87,-459,-5638,6088,-1,-1,0
177.37,-3.18,-42.87,-458,-5635,6101,-1,0,0
177.37,-3.18,-42.87,-456,-5634,6100,-1,0,0
177.37,-3.18,-42.88,-449,-5636,6089,-1,0,0
177.36,-3.19,-42.88,-455,-5640,6087,-1,0,0
177.36,-3.19,-42.89,-460,-5642,6085,-1,0,0
177.36,-3.20,-42.89,-465,-5638,6082,-1,0,-1
177.36,-3.21,-42.90,-475,-5650,6077,-1,-1,-1
177.36,-3.20,-42.91,-467,-5651,6075,-1,0,0
177.36,-3.20,-42.92,-461,-5659,6068,-1,0,-1
177.36,-3.20,-42.92,-451,-5663,6054,0,0,-1
177.36,-3.21,-42.92,-450,-5649,6061,-1,0,0
177.36,-3.21,-42.92,-455,-5636,6078,-1,0,0
177.36,-3.21,-42.93,-457,-5636,6072,-1,-1,0
177.35,-3.21,-42.94,-456,-5640,6080,-1,0,0
177.35,-3.21,-42.95,-465,-5660,6070,-1,0,0
177.36,-3.21,-42.96,-462,-5663,6073,-1,0,-1
177.36,-3.22,-42.96,-466,-5656,6074,-1,0,-1
177.36,-3.22,-42.96,-465,-5653,6068,-1,0,-1
177.36,-3.22,-42.96,-465,-5652,6067,-1,0,0
177.36,-3.22,-42.96,-466,-5650,6067,0,0,0
177.36,-3.22,-42.96,-463,-5644,6070,-1,-1,-1
177.36,-3.22,-42.96,-464,-5640,6069,-1,-1,-1
177.36,-3.22,-42.97,-472,-5644,6069,-1,0,-1
177.36,-3.22,-42.97,-478,-5656,6070,-1,0,-1
177.37,-3.22,-42.97,-478,-5662,6078,0,0,-1
177.37,-3.21,-42.97,-465,-5654,6074,0,-1,-1
177.38,-3.20,-42.97,-462,-5644,6070,-1,-1,-1
177.38,-3.20,-42.96,-464,-5645,6068,-1,0,-1
177.38,-3.20,-42.96,-463,-5645,6061,0,0,-1
177.38,-3.20,-42.96,-483,-5654,6062,0,0,-1
177.38,-3.20,-42.96,-479,-5649,6065,-1,-1,-1
177.38,-3.20,-42.97,-471,-5649,6069,-1,-1,-1
177.38,-3.20,-42.97,-473,-5647,6068,0,-1,-1
177.38,-3.20,-42.97,-467,-5644,6055,0,-1,-1
177.38,-3.19,-42.96,-464,-5645,6059,0,-1,-1
177.39,-3.19,-42.96,-454,-5640,6062,0,-1,0
177.38,-3.19,-42.96,-447,-5642,6065,0,-1,0
177.38,-3.19,-42.95,-445,-5643,6076,-1,0,0
177.38,-3.19,-42.95,-456,-5643,6067,-1,0,0
177.38,-3.19,-42.95,-464,-5642,6062,0,-1,0
177.38,-3.19,-42.95,-473,-5642,6058,0,-1,-1
177.37,-3.20,-42.95,-474,-5652,6059,0,-1,0
177.37,-3.20,-42.95,-469,-5657,6051,0,-1,0
177.37,-3.19,-42.95,-471,-5660,6062,0,-1,0
177.37,-3.19,-42.94,-463,-5656,6075,0,-1,-1
177.37,-3.19,-42.93,-463,-5645,6079,0,-1,-1
177.37,-3.19,-42.92,-458,-5638,6074,0,-1,-1
177.38,-3.18,-42.92,-454,-5628,6072,0,-1,0
177.38,-3.18,-42.91,-451,-5632,6071,0,0,0
177.38,-3.18,-42.91,-452,-5638,6071,-1,0,0
177.38,-3.18,-42.92,-453,-5641,6074,-1,0,0
177.38,-3.18,-42.92,-455,-5641,6065,-1,0,0
177.37,-3.19,-42.92,-460,-5644,6065,-1,0,0
177.37,-3.20,-42.92,-470,-5647,6057,0,0,0
177.37,-3.20,-42.92,-461,-5648,6054,0,0,-1
177.37,-3.20,-42.91,-474,-5647,6072,0,-1,0
177.37,-3.20,-42.91,-470,-5647,6069,0,0,-1
177.37,-3.20,-42.90,-478,-5636,6076,0,-1,-1
177.37,-3.20,-42.90,-469,-5642,6084,0,-1,0
177.37,-3.20,-42.90,-462,-5634,6083,0,-1,-1
177.37,-3.20,-42.89,-461,-5636,6078,0,-1,-1
177.37,-3.20,-42.88,-461,-5632,6085,0,0,0
177.37,-3.20,-42.88,-455,-5627,6084,-1,0,0
177.37,-3.20,-42.88,-465,-5629,6080,-1,0,0
177.36,-3.20,-42.88,-469,-5637,6078,0,0,-1
177.36,-3.20,-42.88,-468,-5640,6085,-1,-1,-1
177.37,-3.20,-42.88,-467,-5638,6083,0,-1,0
177.37,-3.20,-42.88,-462,-5630,6074,-1,-1,0
177.37,-3.20,-42.88,-463,-5633,6073,-1,0,0
177.36,-3.20,-42.88,-474,-5642,6070,0,0,-1
177.36,-3.20,-42.88,-469,-5646,6074,0,0,-1
177.36,-3.20,-42.87,-466,-5634,6081,0,-1,0
177.36,-3.20,-42.86,-460,-5629,6076,0,-1,0
177.36,-3.20,-42.86,-458,-5632,6080,-1,0,0
177.36,-3.21,-42.86,-464,-5632,6077,0,0,0
177.36,-3.21,-42.85,-464,-5630,6080,0,0,0
177.36,-3.21,-42.85,-473,-5635,6088,-1,0,0
177.35,-3.22,-42.86,-473,-5635,6081,-1,-1,0
177.35,-3.22,-42.86,-465,-5645,6077,0,0,0
177.35,-3.22,-42.85,-468,-5643,6080,0,0,-1
177.35,-3.22,-42.85,-467,-5646,6082,0,-1,-1
177.36,-3.21,-42.85,-469,-5644,6079,0,-1,0
177.35,-3.22,-42.85,-467,-5635,6076,0,-1,0
177.35,-3.22,-42.84,-465,-5634,6082,0,-1,0
177.35,-3.22,-42.84,-471,-5641,6081,0,-1,0
177.35,-3.22,-42.84,-464,-5635,6079,0,-1,-1
177.35,-3.22,-42.83,-457,-5624,6085,0,-1,0
177.35,-3.22,-42.82,-460,-5624,6081,0,0,0
177.34,-3.21,-42.82,-456,-5635,6082,-1,0,0
177.34,-3.22,-42.82,-463,-5637,6081,-1,-1,0
177.34,-3.22,-42.82,-463,-5638,6076,0,0,0
177.34,-3.22,-42.82,-472,-5634,6078,0,-1,0
177.35,-3.21,-42.82,-466,-5638,6081,0,-1,0
177.34,-3.21,-42.81,-474,-5638,6083,0,-1,0
177.34,-3.21,-42.80,-469,-5631,6085,0,-1,0
177.34,-3.21,-42.79,-466,-5625,6103,0,-1,0
177.34,-3.21,-42.79,-456,-5620,6098,-1,0,0
177.33,-3.22,-42.79,-459,-5628,6099,-1,0,0
177.33,-3.22,-42.79,-464,-5627,6089,-1,0,0
177.33,-3.22,-42.80,-471,-5626,6077,-1,0,0
177.33,-3.22,-42.80,-474,-5633,6074,-1,-1,0
177.33,-3.22,-42.80,-470,-5640,6076,0,0,0
177.33,-3.22,-42.80,-474,-5641,6078,0,0,0
177.32,-3.23,-42.79,-467,-5635,6087,0,-1,0
177.32,-3.23,-42.78,-466,-5632,6094,0,0,-1
177.33,-3.22,-42.78,-459,-5629,6093,0,0,0
177.33,-3.22,-42.78,-466,-5623,6094,0,0,0
177.32,-3.23,-42.77,-460,-5622,6088,0,-1,0
177.32,-3.23,-42.77,-458,-5617,6098,0,0,0
177.32,-3.23,-42.77,-462,-5627,6092,0,-1,0
177.32,-3.23,-42.76,-467,-5615,6090,0,0,0
177.32,-3.23,-42.76,-470,-5622,6087,-1,0,0
177.31,-3.23,-42.77,-473,-5630,6094,-1,-1,0
177.32,-3.23,-42.77,-470,-5643,6081,0,0,-1
177.32,-3.23,-42.77,-468,-5634,6084,0,-1,-1
177.32,-3.23,-42.76,-459,-5624,6080,0,-1,0
177.32,-3.23,-42.76,-463,-5625,6091,0,-1,0
177.32,-3.23,-42.76,-463,-5628,6079,0,0,0
177.31,-3.24,-42.75,-467,-5630,6096,0,0,0
177.31,-3.24,-42.75,-470,-5622,6096,0,0,-1
177.31,-3.24,-42.75,-472,-5622,6107,0,0,-1
177.32,-3.23,-42.74,-474,-5629,6093,0,-1,-1
177.32,-3.23,-42.75,-465,-5623,6091,-1,-1,0
177.32,-3.23,-42.74,-459,-5621,6091,0,-1,-1
177.32,-3.22,-42.74,-450,-5618,6087,0,0,-1
177.32,-3.22,-42.73,-446,-5613,6103,0,-1,0
177.32,-3.22,-42.73,-458,-5617,6089,-1,0,-1
177.32,-3.22,-42.74,-463,-5614,6083,-1,-1,0
177.32,-3.22,-42.74,-466,-5615,6086,-1,-1,-1
177.32,-3.22,-42.75,-469,-5628,6083,-1,-1,-1
177.32,-3.22,-42.75,-464,-5635,6080,-1,-1,-1
177.33,-3.21,-42.75,-465,-5631,6083,-1,-1,-1
177.33,-3.21,-42.75,-470,-5631,6066,-1,0,0
177.32,-3.22,-42.76,-479,-5628,6070,-1,-1,0
177.33,-3.21,-42.76,-473,-5626,6080,-1,-1,-1
177.33,-3.21,-42.76,-468,-5632,6097,-1,-1,-1
177.33,-3.20,-42.76,-466,-5623,6098,-1,-1,-1
177.33,-3.20,-42.76,-458,-5623,6093,-1,-1,-1
177.34,-3.19,-42.77,-456,-5623,6089,-1,-1,-1
177.33,-3.20,-42.77,-461,-5618,6092,-1,-1,0
177.33,-3.20,-42.77,-464,-5620,6097,-1,0,0
177.33,-3.20,-42.78,-463,-5623,6091,-1,0,0
177.33,-3.20,-42.78,-467,-5633,6081,-1,0,0
177.33,-3.20,-42.79,-467,-5633,6077,-1,-1,0
177.33,-3.20,-42.79,-471,-5630,6078,-1,0,-1
177.33,-3.20,-42.80,-464,-5632,6074,-1,-1,-1
177.34,-3.19,-42.80,-457,-5639,6077,0,0,-1
177.34,-3.19,-42.80,-462,-5634,6087,-1,0,-1
177.34,-3.19,-42.80,-460,-5630,6090,0,-1,-1
177.34,-3.19,-42.79,-458,-5616,6098,-1,-1,0
177.34,-3.19,-42.80,-458,-5613,6087,-1,0,0
177.34,-3.19,-42.81,-453,-5622,6080,-1,0,-1
177.34,-3.19,-42.81,-454,-5627,6085,-1,0,-1
177.34,-3.19,-42.82,-456,-5624,6073,0,0,-1
177.34,-3.19,-42.81,-458,-5628,6078,0,-1,0
177.34,-3.19,-42.81,-458,-5628,6078,-1,0,0
177.34,-3.19,-42.81,-469,-5631,6078,-1,0,-1
177.34,-3.19,-42.81,-465,-5628,6075,0,0,-1
177.34,-3.19,-42.82,-473,-5631,6085,0,-1,-1
177.34,-3.19,-42.82,-466,-5628,6091,-1,-1,-1
177.34,-3.18,-42.82,-466,-5627,6089,-1,-1,-1
177.34,-3.18,-42.82,-465,-5622,6072,-1,-1,-1
177.34,-3.18,-42.82,-462,-5627,6073,-1,-1,-1
177.34,-3.18,-42.82,-452,-5633,6074,-1,0,-1
177.34,-3.18,-42.82,-457,-5630,6079,-1,0,-1
177.34,-3.18,-42.82,-457,-5626,6076,-1,-1,0
177.34,-3.18,-42.83,-465,-5627,6072,-1,0,0
177.34,-3.18,-42.84,-463,-5639,6071,-1,0,-1
177.34,-3.18,-42.84,-462,-5632,6082,-1,0,-1
177.34,-3.18,-42.84,-466,-5631,6079,-1,-1,-1
177.34,-3.18,-42.84,-463,-5639,6075,-1,0,-1
177.35,-3.18,-42.84,-471,-5640,6086,-1,0,-1
177.34,-3.19,-42.84,-476,-5637,6073,0,-1,-1
177.35,-3.19,-42.84,-468,-5635,6089,0,-1,-1
177.35,-3.18,-42.84,-464,-5632,6088,-1,-1,-1
177.35,-3.18,-42.84,-461,-5629,6088,-1,-1,-1
177.35,-3.18,-42.84,-458,-5627,6084,-1,0,0
177.35,-3.18,-42.84,-452,-5626,6085,-1,-1,-1
177.35,-3.18,-42.84,-450,-5625,6079,-1,0,-1
177.36,-3.18,-42.85,-461,-5635,6071,-1,0,0
177.36,-3.18,-42.86,-462,-5639,6080,-1,0,-1
177.36,-3.18,-42.86,-470,-5647,6076,-1,-1,0
177.36,-3.18,-42.86,-465,-5642,6083,-1,0,0
177.35,-3.18,-42.86,-461,-5647,6073,0,0,-1
177.36,-3.18,-42.86,-457,-5638,6076,0,0,-1
177.36,-3.18,-42.85,-464,-5638,6085,0,-1,-1
177.36,-3.18,-42.85,-464,-5626,6082,-1,-1,-1
177.36,-3.18,-42.85,-473,-5629,6089,-1,-1,0
177.35,-3.18,-42.84,-458,-5622,6087,-1,-1,0
177.35,-3.18,-42.85,-455,-5630,6083,-1,0,-1
177.36,-3.17,-42.86,-454,-5633,6082,-1,0,-1
177.36,-3.17,-42.87,-453,-5645,6077,-1,0,-1
177.36,-3.17,-42.86,-455,-5645,6080,0,-1,0
177.36,-3.17,-42.86,-454,-5638,6085,-1,-1,0
177.36,-3.17,-42.86,-455,-5641,6075,0,0,0
177.36,-3.17,-42.87,-460,-5643,6071,-1,0,0
177.36,-3.17,-42.87,-466,-5640,6074,-1,0,-1
177.36,-3.18,-42.87,-471,-5640,6069,-1,0,-1
177.36,-3.18,-42.88,-456,-5642,6065,-1,0,-1
177.36,-3.17,-42.88,-457,-5644,6065,-1,-1,-1
177.36,-3.17,-42.88,-458,-5645,6071,0,-1,-1
177.36,-3.17,-42.88,-456,-5633,6076,-1,-1,-1
177.36,-3.17,-42.88,-449,-5632,6071,-1,0,0
177.36,-3.17,-42.88,-454,-5642,6075,-1,0,0
177.36,-3.17,-42.88,-451,-5632,6073,-1,0,0
177.36,-3.17,-42.88,-454,-5631,6078,-1,0,0
177.36,-3.17,-42.89,-462,-5635,6075,-1,0,-1
177.36,-3.17,-42.89,-466,-5642,6073,-1,0,0
177.36,-3.17,-42.90,-463,-5643,6064,-1,-1,-1
177.36,-3.17,-42.90,-464,-5643,6058,0,-1,-1
177.36,-3.17,-42.90,-465,-5649,6068,0,-1,-1
177.36,-3.17,-42.89,-466,-5646,6070,0,-1,-1
177.36,-3.17,-42.89,-461,-5642,6072,0,-1,-1
177.36,-3.16,-42.88,-458,-5637,6079,0,-1,-1
177.37,-3.16,-42.88,-456,-5629,6085,-1,0,-1
177.37,-3.16,-42.88,-454,-5624,6082,-1,0,-1
177.37,-3.16,-42.89,-453,-5626,6083,-1,0,0
177.37,-3.16,-42.90,-450,-5632,6083,-1,0,0
177.37,-3.16,-42.90,-457,-5636,6079,-1,0,0
177.37,-3.17,-42.91,-459,-5643,6065,-1,0,-1
177.38,-3.17,-42.91,-463,-5648,6069,-1,0,-1
177.37,-3.18,-42.92,-465,-5660,6071,-1,0,0
177.37,-3.18,-42.92,-466,-5650,6073,-1,0,0
177.37,-3.19,-42.92,-474,-5644,6071,-1,0,-1
177.37,-3.19,-42.93,-466,-5651,6068,-1,-1,-1
177.37,-3.19,-42.93,-459,-5646,6075,-1,0,-1
177.38,-3.18,-42.93,-453,-5645,6077,-1,0,-1
177.38,-3.18,-42.93,-458,-5643,6083,-1,0,0
177.37,-3.19,-42.94,-459,-5640,6082,-1,0,0
177.37,-3.19,-42.94,-463,-5648,6082,-1,-1,0
177.37,-3.19,-42.94,-461,-5646,6076,-1,-1,-1
177.37,-3.19,-42.94,-461,-5644,6068,-1,-1,0
177.37,-3.19,-42.94,-460,-5644,6068,-1,-1,0
177.37,-3.19,-42.94,-460,-5642,6063,-1,0,0
177.36,-3.19,-42.94,-461,-5641,6066,0,-1,0
177.36,-3.19,-42.94,-461,-5647,6077,0,-1,0
177.36,-3.19,-42.94,-453,-5638,6074,0,-1,0
177.36,-3.18,-42.94,-448,-5635,6067,-1,-1,0
177.35,-3.19,-42.94,-455,-5643,6071,0,0,0
177.35,-3.19,-42.93,-454,-5653,6079,0,0,0
177.35,-3.19,-42.93,-458,-5648,6076,0,0,0
177.35,-3.19,-42.93,-464,-5646,6070,0,-1,-1
177.35,-3.19,-42.92,-465,-5639,6060,0,-1,-1
177.35,-3.19,-42.92,-456,-5642,6072,0,-1,-1
177.36,-3.18,-42.91,-452,-5640,6073,0,-1,0
177.36,-3.18,-42.91,-445,-5648,6076,0,0,0
177.36,-3.18,-42.91,-447,-5635,6073,0,0,0
177.36,-3.18,-42.91,-455,-5637,6075,0,0,0
177.35,-3.19,-42.91,-459,-5653,6071,0,0,0
177.36,-3.18,-42.91,-458,-5650,6074,0,0,0
177.35,-3.19,-42.91,-462,-5644,6073,0,0,0
177.35,-3.19,-42.90,-467,-5635,6077,0,-1,0
177.35,-3.19,-42.90,-466,-5642,6069,0,-1,0
177.34,-3.20,-42.90,-467,-5646,6074,0,-1,-1
177.35,-3.19,-42.90,-467,-5647,6076,0,-1,-1
177.35,-3.19,-42.89,-458,-5649,6075,0,0,0
177.35,-3.19,-42.88,-458,-5631,6076,0,0,0
177.35,-3.19,-42.88,-454,-5637,6083,0,0,0
177.35,-3.19,-42.88,-461,-5639,6088,-1,0,-1
177.35,-3.19,-42.88,-458,-5640,6076,-1,0,0
177.35,-3.19,-42.88,-464,-5637,6081,-1,-1,0
177.35,-3.19,-42.88,-461,-5641,6083,-1,-1,0
177.35,-3.19,-42.88,-465,-5636,6077,0,0,0
177.35,-3.20,-42.88,-463,-5633,6078,0,0,-1
177.35,-3.20,-42.88,-463,-5635,6082,0,0,0
177.35,-3.20,-42.88,-468,-5637,6075,0,-1,0
177.35,-3.19,-42.88,-460,-5638,6067,0,-1,-1
177.35,-3.19,-42.87,-459,-5646,6073,0,-1,0
177.34,-3.19,-42.87,-464,-5639,6074,0,-1,0
177.34,-3.19,-42.87,-466,-5636,6069,0,-1,0
177.34,-3.19,-42.87,-460,-5630,6077,-1,0,0
177.35,-3.19,-42.87,-458,-5632,6072,-1,0,-1
177.35,-3.19,-42.87,-465,-5639,6081,0,0,-1
177.35,-3.19,-42.87,-453,-5638,6075,0,0,-1
177.35,-3.19,-42.87,-467,-5648,6071,0,0,-1
177.35,-3.19,-42.87,-468,-5644,6067,0,-1,0
177.35,-3.19,-42.86,-466,-5645,6069,0,-1,0
177.35,-3.19,-42.85,-461,-5641,6079,0,-1,0
177.34,-3.19,-42.84,-460,-5632,6084,0,-1,0
177.34,-3.18,-42.84,-457,-5625,6087,-1,0,0
177.34,-3.19,-42.84,-459,-5631,6085,-1,0,-1
177.35,-3.19,-42.85,-458,-5639,6076,0,0,-1
177.35,-3.19,-42.84,-462,-5630,6079,0,-1,0
177.35,-3.18,-42.84,-456,-5628,6082,0,-1,0
177.34,-3.18,-42.84,-450,-5624,6078,-1,-1,0
177.34,-3.18,-42.84,-456,-5628,6082,0,0,0
177.34,-3.19,-42.84,-458,-5634,6081,0,0,0
177.34,-3.19,-42.84,-468,-5632,6090,-1,0,-1
177.34,-3.20,-42.83,-474,-5635,6083,0,0,-1
177.34,-3.20,-42.83,-472,-5637,6080,0,-1,-1
177.34,-3.19,-42.83,-463,-5638,6069,0,-1,-1
177.34,-3.18,-42.82,-455,-5628,6086,0,-1,-1
177.34,-3.18,-42.82,-454,-5625,6093,0,-1,0
177.34,-3.18,-42.81,-455,-5620,6089,0,0,0
177.35,-3.18,-42.81,-456,-5618,6084,-1,-1,0
177.34,-3.19,-42.81,-461,-5623,6099,-1,0,0
177.34,-3.19,-42.81,-467,-5629,6085,-1,0,0
177.34,-3.20,-42.82,-458,-5629,6082,0,0,0
177.34,-3.20,-42.81,-467,-5636,6085,0,0,0
177.33,-3.20,-42.81,-472,-5637,6085,0,0,0
177.33,-3.21,-42.81,-476,-5639,6091,0,-1,-1
177.33,-3.21,-42.80,-469,-5642,6089,0,-1,0
177.33,-3.20,-42.79,-463,-5637,6090,0,-1,-1
177.33,-3.20,-42.78,-458,-5635,6100,0,-1,-1
177.34,-3.19,-42.78,-458,-5635,6088,0,-1,-1
177.34,-3.19,-42.78,-453,-5626,6075,0,0,0
177.34,-3.19,-42.78,-452,-5621,6085,-1,-1,0
177.34,-3.19,-42.78,-452,-5623,6092,-1,0,0
177.33,-3.20,-42.78,-462,-5618,6093,-1,0,0
177.33,-3.20,-42.78,-460,-5624,6087,-1,0,0
177.33,-3.21,-42.78,-466,-5632,6079,-1,-1,0
177.33,-3.21,-42.78,-459,-5635,6073,0,0,0
177.32,-3.21,-42.78,-459,-5635,6080,0,0,0
177.33,-3.21,-42.77,-467,-5628,6086,0,-1,0
177.33,-3.21,-42.76,-461,-5622,6092,0,-1,0
177.33,-3.21,-42.76,-464,-5627,6093,0,0,0
177.33,-3.21,-42.75,-471,-5627,6086,0,0,-1
177.33,-3.21,-42.75,-469,-5624,6088,0,0,0
177.33,-3.21,-42.75,-462,-5618,6092,-1,0,-1
177.33,-3.21,-42.75,-457,-5622,6083,-1,-1,0
177.33,-3.21,-42.76,-465,-5626,6091,0,-1,-1
177.33,-3.21,-42.76,-465,-5628,6097,-1,0,-1
177.33,-3.21,-42.75,-468,-5625,6094,0,0,0
177.33,-3.21,-42.75,-471,-5617,6095,-1,-1,0
177.33,-3.21,-42.75,-471,-5627,6096,-1,-1,0
177.33,-3.20,-42.75,-469,-5635,6080,-1,-1,-1
177.33,-3.20,-42.75,-469,-5633,6079,0,-1,-1
177.33,-3.20,-42.75,-460,-5622,6084,0,-1,0
177.33,-3.19,-42.75,-451,-5610,6097,-1,-1,0
177.33,-3.19,-42.75,-452,-5614,6080,-1,0,0
177.33,-3.19,-42.75,-464,-5618,6090,-1,0,-1
177.32,-3.20,-42.75,-476,-5623,6091,-1,0,-1
177.32,-3.20,-42.76,-485,-5626,6103,-1,-1,-1
177.32,-3.20,-42.76,-477,-5635,6099,-1,-1,-1
177.33,-3.19,-42.76,-471,-5635,6092,0,-1,-1
177.33,-3.19,-42.76,-459,-5623,6091,0,-1,-1
177.33,-3.18,-42.76,-449,-5621,6085,-1,-1,0
177.33,-3.18,-42.76,-448,-5617,6092,-1,0,0
177.33,-3.18,-42.76,-449,-5615,6101,-1,-1,0
177.33,-3.18,-42.77,-458,-5623,6100,-1,0,0
177.33,-3.18,-42.78,-454,-5625,6096,-1,0,-1
177.33,-3.19,-42.78,-458,-5626,6095,-1,0,0
177.33,-3.18,-42.78,-463,-5629,6084,-1,-1,-1
177.33,-3.18,-42.79,-462,-5630,6079,-1,-1,-1
177.33,-3.18,-42.79,-461,-5626,6077,-1,0,-1
177.33,-3.18,-42.79,-463,-5632,6076,-1,0,-1
177.33,-3.18,-42.79,-458,-5623,6080,0,-1,-1
177.34,-3.18,-42.79,-457,-5631,6086,0,-1,-1
177.34,-3.18,-42.79,-457,-5630,6086,-1,-1,-1
177.34,-3.17,-42.79,-461,-5625,6094,-1,-1,-1
177.34,-3.18,-42.79,-463,-5618,6094,-1,-1,0
177.34,-3.18,-42.79,-459,-5620,6098,-1,-1,0
177.34,-3.18,-42.79,-456,-5630,6087,-1,0,-1
177.34,-3.17,-42.80,-454,-5629,6085,-1,0,0
177.34,-3.17,-42.80,-466,-5628,6080,-1,0,0
177.34,-3.18,-42.81,-464,-5634,6079,-1,0,-1
177.34,-3.18,-42.81,-467,-5638,6075,-1,0,-1
177.34,-3.18,-42.81,-469,-5635,6082,-1,-1,-1
177.34,-3.17,-42.81,-458,-5634,6085,-1,-1,-1
177.34,-3.18,-42.81,-458,-5643,6079,-1,0,-1
177.34,-3.17,-42.81,-456,-5637,6083,-1,-1,-1
177.34,-3.17,-42.81,-450,-5637,6082,0,0,-1
177.34,-3.17,-42.81,-457,-5628,6085,0,0,0
177.34,-3.17,-42.81,-458,-5621,6094,-1,0,-1
177.34,-3.17,-42.82,-461,-5626,6091,-1,0,-1
177.35,-3.17,-42.83,-460,-5636,6087,-1,0,-1
177.35,-3.17,-42.83,-461,-5640,6088,0,0,-1
177.36,-3.17,-42.82,-455,-5640,6086,0,-1,-1
177.36,-3.16,-42.82,-452,-5635,6087,-1,-1,0
177.36,-3.16,-42.82,-450,-5631,6092,-1,0,0
177.36,-3.17,-42.82,-462,-5634,6094,-1,0,0
177.36,-3.17,-42.82,-467,-5640,6092,-1,0,-1
177.35,-3.18,-42.83,-469,-5636,6091,-1,-1,-1
177.35,-3.18,-42.83,-467,-5632,6091,-1,0,-1
177.36,-3.17,-42.84,-461,-5631,6084,-1,-1,-1
177.36,-3.17,-42.84,-450,-5625,6079,0,0,-1
177.36,-3.17,-42.84,-453,-5636,6088,-1,-1,-1
177.37,-3.16,-42.84,-453,-5635,6097,-1,0,-1
177.37,-3.16,-42.84,-450,-5629,6092,-1,0,-1
177.37,-3.16,-42.84,-448,-5627,6094,-1,-1,0
177.37,-3.16,-42.84,-457,-5634,6084,-1,-1,-1
177.37,-3.16,-42.84,-459,-5634,6079,-1,0,-1
177.37,-3.16,-42.84,-452,-5638,6081,-1,-1,0
177.37,-3.16,-42.84,-448,-5632,6077,-1,-1,-1
177.37,-3.16,-42.85,-462,-5637,6082,-1,0,0
177.37,-3.16,-42.85,-468,-5642,6077,0,0,-1
177.37,-3.16,-42.85,-462,-5638,6086,-1,-1,0
177.37,-3.16,-42.85,-457,-5634,6070,-1,0,-1
177.37,-3.16,-42.85,-454,-5638,6083,-1,0,0
177.37,-3.16,-42.85,-458,-5635,6093,-1,-1,0
177.36,-3.17,-42.86,-446,-5639,6092,-1,0,0
177.36,-3.17,-42.87,-459,-5627,6092,-1,0,0
177.35,-3.18,-42.88,-460,-5628,6077,-1,0,0
177.35,-3.19,-42.88,-469,-5635,6083,-1,0,0
177.34,-3.20,-42.89,-467,-5640,6072,-1,0,0
177.34,-3.20,-42.90,-474,-5645,6070,-1,0,0
177.33,-3.21,-42.91,-475,-5645,6075,-1,0,0
177.32,-3.22,-42.91,-468,-5650,6070,-1,0,0
177.32,-3.23,-42.91,-479,-5639,6076,-1,0,0
177.31,-3.24,-42.92,-469,-5646,6057,-1,0,0
177.31,-3.24,-42.93,-471,-5636,6065,-1,0,0
177.31,-3.25,-42.93,-467,-5644,6068,-1,0,0
177.31,-3.25,-42.94,-456,-5639,6074,-1,0,0
177.30,-3.26,-42.95,-463,-5628,6077,-1,0,0
177.30,-3.27,-42.97,-472,-5637,6064,-1,0,0
177.29,-3.28,-42.98,-466,-5633,6070,-1,0,0
177.29,-3.29,-43.00,-465,-5643,6060,-1,0,-1
177.29,-3.29,-43.00,-470,-5646,6069,-1,0,0
177.29,-3.29,-43.00,-470,-5659,6064,0,0,0
177.28,-3.30,-43.01,-481,-5662,6048,-1,0,0
177.28,-3.31,-43.02,-483,-5662,6064,-1,0,0
177.27,-3.32,-43.02,-489,-5659,6055,0,0,0
177.27,-3.32,-43.02,-499,-5661,6070,-1,-1,-1
177.27,-3.32,-43.02,-484,-5661,6060,-1,0,-1
177.28,-3.31,-43.02,-476,-5659,6064,-1,-1,-1
177.28,-3.30,-43.02,-470,-5658,6058,-1,-1,-1
177.28,-3.30,-43.03,-478,-5666,6053,-1,-1,0
177.28,-3.29,-43.03,-474,-5668,6055,0,-1,-1
177.29,-3.28,-43.02,-481,-5661,6066,0,-1,-1
177.30,-3.27,-43.01,-469,-5652,6059,0,-1,-1
177.31,-3.26,-43.01,-465,-5653,6068,-1,-1,-1
177.31,-3.26,-43.01,-464,-5659,6063,0,-1,-1
177.32,-3.25,-43.01,-463,-5657,6056,0,0,-1
177.32,-3.25,-43.01,-468,-5655,6067,0,-1,-1
177.32,-3.25,-43.00,-464,-5653,6068,0,0,-1
177.33,-3.25,-43.00,-472,-5657,6071,0,0,-1
177.33,-3.25,-43.00,-471,-5653,6076,0,0,-1
177.34,-3.24,-43.00,-465,-5655,6075,0,0,-1
177.34,-3.24,-42.99,-465,-5653,6074,0,0,-1
177.35,-3.24,-42.99,-460,-5651,6069,0,0,-1
177.35,-3.24,-42.99,-457,-5648,6068,-1,0,-1
177.35,-3.23,-42.99,-455,-5645,6071,-1,0,-1
177.36,-3.23,-43.00,-456,-5650,6073,-1,0,0
177.36,-3.24,-43.00,-467,-5650,6065,-1,0,0
177.36,-3.24,-43.00,-471,-5661,6058,-1,-1,0
177.36,-3.24,-43.01,-479,-5672,6056,-1,-1,-1
177.36,-3.24,-43.00,-475,-5672,6062,0,-1,-1
177.36,-3.23,-43.00,-476,-5665,6057,0,-1,0
177.36,-3.22,-42.99,-467,-5662,6062,0,-1,0
177.35,-3.22,-42.98,-472,-5660,6067,0,-1,0
177.36,-3.22,-42.97,-476,-5653,6071,0,-1,0
177.36,-3.21,-42.96,-463,-5651,6076,0,-1,-1
177.36,-3.21,-42.96,-461,-5645,6080,0,-1,-1
177.36,-3.21,-42.95,-451,-5640,6081,-1,-1,-1
177.36,-3.20,-42.95,-457,-5642,6072,0,0,-1
177.36,-3.20,-42.95,-459,-5648,6069,-1,-1,-1
177.36,-3.20,-42.95,-459,-5649,6071,-1,0,0
177.36,-3.20,-42.95,-470,-5649,6068,-1,-1,0
177.36,-3.21,-42.95,-474,-5648,6068,0,-1,-1
177.36,-3.20,-42.95,-471,-5660,6064,0,-1,-1
177.37,-3.20,-42.94,-472,-5654,6065,0,-1,-1
177.37,-3.19,-42.93,-458,-5647,6072,0,-1,0
177.37,-3.19,-42.93,-445,-5638,6063,0,-1,0
177.37,-3.19,-42.92,-448,-5643,6064,0,0,0
177.37,-3.19,-42.92,-458,-5647,6069,0,0,0
177.37,-3.19,-42.91,-465,-5643,6068,0,0,-1
177.37,-3.20,-42.91,-479,-5646,6076,-1,-1,-1
177.37,-3.20,-42.91,-478,-5648,6080,0,0,-1
177.37,-3.19,-42.91,-473,-5651,6081,0,-1,-1
177.37,-3.19,-42.90,-464,-5643,6089,0,0,-1
177.37,-3.19,-42.90,-464,-5652,6082,0,-1,0
177.38,-3.18,-42.89,-457,-5647,6074,0,0,-1
177.38,-3.18,-42.88,-464,-5638,6076,-1,-1,0
177.37,-3.19,-42.88,-457,-5638,6075,0,0,0
177.38,-3.18,-42.88,-462,-5642,6086,0,0,-1
177.38,-3.18,-42.88,-458,-5640,6086,0,0,-1
177.38,-3.19,-42.88,-457,-5627,6092,-1,0,-1
177.38,-3.19,-42.88,-462,-5630,6076,-1,0,0
177.38,-3.20,-42.88,-463,-5639,6074,-1,0,0
177.37,-3.21,-42.88,-460,-5639,6075,0,0,-1
177.38,-3.21,-42.88,-462,-5645,6079,-1,0,0
177.37,-3.22,-42.88,-468,-5640,6082,-1,0,-1
177.38,-3.23,-42.88,-469,-5632,6091,-1,0,-1
177.38,-3.24,-42.88,-463,-5623,6082,-1,0,-1
177.38,-3.25,-42.89,-451,-5617,6082,-1,0,-1
177.38,-3.26,-42.91,-445,-5630,6078,-1,0,0
177.38,-3.28,-42.92,-455,-5638,6068,-1,0,0
177.38,-3.29,-42.95,-462,-5650,6067,-1,0,-1
177.38,-3.31,-42.95,-462,-5654,6063,-1,0,0
177.38,-3.32,-42.96,-474,-5659,6059,-1,0,0
177.37,-3.34,-42.97,-491,-5655,6068,-1,0,0
177.37,-3.36,-42.97,-504,-5653,6060,-1,0,0
177.36,-3.38,-42.97,-505,-5658,6060,0,0,0
177.37,-3.39,-42.96,-501,-5654,6069,0,0,-1
177.36,-3.41,-42.97,-492,-5639,6072,-1,0,0
177.37,-3.42,-42.97,-488,-5633,6071,-1,0,0
177.36,-3.44,-42.97,-490,-5632,6071,-1,0,0
177.35,-3.46,-42.98,-486,-5636,6069,-1,1,0
177.35,-3.48,-42.99,-492,-5643,6071,-1,1,0
177.35,-3.51,-42.99,-503,-5644,6069,-1,0,0
177.35,-3.53,-43.00,-515,-5649,6055,-1,0,-1
177.34,-3.54,-43.01,-522,-5659,6047,-1,0,0
177.34,-3.56,-43.01,-527,-5662,6046,0,0,-1
177.34,-3.56,-43.01,-541,-5664,6042,0,0,-1
177.34,-3.56,-43.01,-556,-5662,6047,0,-1,-1
177.35,-3.55,-43.01,-537,-5669,6049,0,-1,-1
177.36,-3.54,-42.98,-526,-5661,6051,0,-1,-1
177.37,-3.52,-42.97,-506,-5656,6060,0,-1,-1
177.37,-3.51,-42.96,-486,-5650,6066,0,-1,0
177.37,-3.51,-42.95,-488,-5642,6062,0,0,0
177.37,-3.51,-42.94,-498,-5637,6071,0,0,0
177.37,-3.52,-42.93,-517,-5630,6080,0,0,0
177.36,-3.53,-42.93,-527,-5639,6076,-1,0,0
177.36,-3.53,-42.93,-524,-5651,6079,0,0,-1
177.37,-3.52,-42.92,-524,-5660,6078,0,-1,-1
177.38,-3.51,-42.92,-507,-5658,6081,0,-1,-1
177.38,-3.50,-42.92,-508,-5667,6069,0,-1,-1
177.38,-3.49,-42.91,-501,-5650,6058,0,-1,0
177.38,-3.48,-42.90,-495,-5646,6070,0,-1,0
177.37,-3.48,-42.90,-493,-5639,6069,0,-1,0
177.37,-3.47,-42.89,-490,-5636,6071,0,-1,0
177.37,-3.46,-42.89,-498,-5632,6077,0,-1,0
177.36,-3.46,-42.89,-502,-5633,6076,-1,-1,0
177.36,-3.46,-42.89,-521,-5644,6078,-1,-1,0
177.36,-3.45,-42.89,-518,-5658,6077,-1,-1,0
177.36,-3.45,-42.89,-511,-5659,6070,0,-1,-1
177.36,-3.44,-42.88,-510,-5652,6064,0,-1,-1
177.36,-3.44,-42.87,-498,-5643,6065,0,-1,-1
177.36,-3.43,-42.87,-493,-5627,6059,0,-1,-1
177.37,-3.42,-42.87,-484,-5623,6059,-1,-1,0
177.36,-3.42,-42.87,-484,-5621,6066,-1,-1,0
177.36,-3.41,-42.87,-483,-5629,6075,-1,-1,0
177.37,-3.41,-42.87,-485,-5635,6076,-1,-1,0
177.37,-3.41,-42.87,-488,-5637,6079,-1,0,0
177.36,-3.41,-42.87,-487,-5637,6075,-1,-1,0
177.37,-3.41,-42.87,-498,-5649,6071,-1,-1,0
177.37,-3.41,-42.88,-494,-5641,6071,-1,-1,-1
177.37,-3.41,-42.88,-504,-5644,6069,-1,-1,-1
177.37,-3.41,-42.88,-504,-5644,6074,0,-1,-1
177.37,-3.40,-42.88,-501,-5639,6076,0,-1,-1
177.37,-3.40,-42.87,-490,-5639,6079,0,-1,-1
177.37,-3.39,-42.87,-485,-5638,6081,0,-1,-1
177.37,-3.39,-42.87,-482,-5635,6075,-1,-1,-1
177.37,-3.39,-42.87,-480,-5633,6074,-1,-1,0
177.37,-3.39,-42.88,-491,-5636,6079,-1,0,0
177.37,-3.39,-42.88,-490,-5642,6076,-1,-1,-1
177.37,-3.38,-42.89,-493,-5648,6073,-1,-1,0
177.37,-3.39,-42.89,-495,-5640,6075,-1,-1,0
177.37,-3.38,-42.89,-492,-5645,6076,-1,-1,0
177.37,-3.38,-42.90,-491,-5641,6065,-1,0,0
177.37,-3.38,-42.90,-491,-5642,6063,-1,0,-1
177.37,-3.38,-42.90,-493,-5639,6068,0,-1,-1
177.37,-3.38,-42.90,-490,-5635,6072,0,-1,-1
177.37,-3.38,-42.90,-482,-5639,6075,-1,-1,0
177.37,-3.38,-42.90,-481,-5642,6070,-1,0,0
177.37,-3.38,-42.90,-489,-5644,6078,-1,0,0
177.37,-3.38,-42.90,-501,-5643,6081,-1,0,-1
177.38,-3.38,-42.91,-497,-5639,6076,-1,0,-1
177.38,-3.38,-42.91,-494,-5642,6068,-1,-1,-1
177.38,-3.37,-42.91,-479,-5645,6073,-1,-1,-1
177.38,-3.37,-42.91,-475,-5642,6071,0,-1,-1
177.39,-3.37,-42.90,-465,-5639,6088,-1,0,-1
177.39,-3.37,-42.90,-476,-5644,6088,0,-1,-1
177.39,-3.37,-42.90,-475,-5631,6093,-1,0,-1
177.39,-3.37,-42.90,-487,-5635,6090,-1,0,-1
177.39,-3.37,-42.90,-488,-5638,6084,-1,0,0
177.39,-3.37,-42.91,-490,-5639,6081,-1,0,-1
177.39,-3.37,-42.91,-485,-5649,6072,-1,0,-1
177.39,-3.37,-42.91,-482,-5647,6074,-1,0,0
177.39,-3.37,-42.91,-485,-5652,6075,-1,0,-1
177.39,-3.37,-42.91,-495,-5654,6070,-1,0,-1
177.40,-3.37,-42.91,-490,-5650,6073,-1,-1,-1
177.40,-3.37,-42.91,-488,-5656,6064,-1,-1,-1
177.40,-3.36,-42.92,-481,-5651,6063,0,-1,-1
177.40,-3.36,-42.91,-480,-5642,6067,0,0,-1
177.40,-3.36,-42.91,-472,-5635,6077,-1,-1,-1
177.40,-3.36,-42.91,-481,-5636,6078,-1,0,-1
177.41,-3.36,-42.92,-483,-5639,6074,-1,0,-1
177.41,-3.36,-42.93,-485,-5644,6075,-1,0,0
177.40,-3.36,-42.93,-493,-5645,6076,-1,0,0
177.40,-3.36,-42.93,-496,-5654,6081,-1,0,0
177.40,-3.37,-42.93,-500,-5662,6076,-1,0,-1
177.40,-3.36,-42.93,-494,-5656,6075,0,-1,-1
177.40,-3.36,-42.93,-493,-5655,6080,0,-1,0
177.40,-3.36,-42.93,-489,-5648,6082,0,-1,-1
177.40,-3.36,-42.93,-489,-5639,6077,-1,-1,-1
177.40,-3.36,-42.93,-485,-5646,6073,-1,-1,-1
177.41,-3.36,-42.93,-482,-5644,6076,-1,0,-1
177.41,-3.36,-42.93,-484,-5646,6078,-1,-1,-1
177.41,-3.36,-42.93,-482,-5640,6082,-1,0,0
177.41,-3.36,-42.93,-485,-5639,6085,-1,-1,0
177.41,-3.36,-42.93,-495,-5634,6072,-1,-1,-1
177.41,-3.36,-42.94,-493,-5637,6063,-1,0,-1
177.41,-3.36,-42.95,-490,-5645,6057,0,0,-1
177.42,-3.35,-42.94,-481,-5637,6056,0,-1,-1
177.42,-3.35,-42.93,-475,-5638,6069,0,-1,0
177.42,-3.35,-42.93,-473,-5637,6075,-1,-1,-1
177.42,-3.35,-42.93,-480,-5637,6066,-1,0,0
177.42,-3.35,-42.93,-493,-5639,6062,-1,-1,-1
177.42,-3.35,-42.93,-498,-5647,6066,0,0,-1
177.43,-3.34,-42.93,-489,-5648,6067,-1,-1,-1
177.43,-3.34,-42.93,-484,-5648,6070,0,-1,-1
177.43,-3.34,-42.93,-478,-5646,6064,0,-1,-1
177.43,-3.34,-42.93,-476,-5641,6059,0,0,-1
177.43,-3.34,-42.93,-483,-5642,6068,0,-1,-1
177.43,-3.33,-42.93,-475,-5647,6076,-1,-1,-1
177.44,-3.33,-42.94,-478,-5644,6075,-1,0,-1
177.44,-3.33,-42.94,-483,-5646,6079,-1,0,-1
177.44,-3.33,-42.94,-481,-5651,6069,-1,0,0
177.44,-3.33,-42.95,-488,-5655,6069,-1,0,-1
177.44,-3.33,-42.95,-483,-5661,6067,-1,0,-1
177.44,-3.33,-42.95,-484,-5661,6068,0,0,-1
177.44,-3.33,-42.95,-479,-5664,6068,-1,0,-1
177.44,-3.33,-42.95,-486,-5653,6070,0,0,-1
177.44,-3.33,-42.95,-491,-5653,6078,0,0,-1
177.44,-3.33,-42.94,-495,-5649,6069,0,-1,-1
177.44,-3.33,-42.94,-485,-5646,6073,-1,-1,-1
177.45,-3.32,-42.94,-475,-5648,6081,0,0,-1
177.45,-3.32,-42.94,-473,-5645,6080,-1,-1,-1
177.45,-3.32,-42.94,-474,-5644,6072,-1,0,-1
177.46,-3.32,-42.94,-474,-5642,6071,-1,0,-1
177.46,-3.32,-42.95,-484,-5651,6073,-1,0,-1
177.46,-3.32,-42.95,-485,-5653,6064,0,-1,-1
177.47,-3.32,-42.95,-475,-5649,6062,0,0,-1
177.47,-3.32,-42.95,-480,-5644,6060,0,0,-1
177.47,-3.32,-42.94,-477,-5641,6063,0,0,-1
177.47,-3.32,-42.94,-478,-5649,6080,-1,-1,-1
177.47,-3.32,-42.94,-474,-5647,6083,0,-1,-1
177.48,-3.31,-42.94,-479,-5646,6083,-1,0,-1
177.48,-3.31,-42.94,-479,-5652,6082,-1,0,0
177.48,-3.31,-42.94,-480,-5652,6066,-1,0,0
177.48,-3.31,-42.94,-471,-5652,6068,-1,0,0
177.47,-3.32,-42.94,-470,-5651,6067,-1,0,0
177.47,-3.32,-42.94,-467,-5647,6071,-1,-1,0
177.46,-3.32,-42.94,-471,-5638,6072,-1,0,0
177.46,-3.32,-42.95,-483,-5643,6069,-1,0,0
177.46,-3.33,-42.96,-485,-5652,6064,-1,-1,-1
177.46,-3.32,-42.96,-483,-5657,6070,0,-1,-1
177.46,-3.33,-42.95,-473,-5648,6061,0,-1,0
177.46,-3.32,-42.95,-475,-5650,6067,0,-1,0
177.45,-3.32,-42.94,-473,-5645,6072,0,0,0
177.45,-3.32,-42.94,-479,-5639,6072,0,0,0
177.45,-3.33,-42.94,-487,-5639,6076,0,0,0
177.45,-3.33,-42.94,-493,-5646,6081,-1,0,-1
177.45,-3.33,-42.94,-492,-5647,6067,-1,-1,-1
177.45,-3.33,-42.94,-489,-5655,6063,0,-1,-1
177.45,-3.33,-42.94,-483,-5655,6068,0,-1,0
177.45,-3.32,-42.93,-476,-5652,6068,0,-1,0
177.45,-3.32,-42.93,-475,-5649,6072,0,-1,0
177.45,-3.33,-42.92,-474,-5636,6078,0,-1,0
177.45,-3.33,-42.92,-471,-5631,6074,-1,0,0
177.45,-3.33,-42.92,-476,-5639,6061,-1,0,0
177.44,-3.33,-42.92,-475,-5640,6060,0,0,0
177.44,-3.33,-42.92,-483,-5642,6066,0,0,0
177.44,-3.33,-42.91,-486,-5649,6069,0,-1,-1
177.44,-3.33,-42.91,-484,-5652,6070,0,0,-1
177.45,-3.33,-42.91,-494,-5648,6062,0,0,-1
177.45,-3.33,-42.90,-489,-5643,6072,0,-1,-1
177.45,-3.33,-42.89,-491,-5645,6069,0,-1,-1
177.45,-3.33,-42.89,-486,-5639,6067,0,-1,-1
177.45,-3.33,-42.88,-482,-5642,6079,0,-1,0
177.45,-3.33,-42.88,-480,-5633,6077,0,0,0
177.45,-3.33,-42.88,-475,-5637,6075,0,0,0
177.45,-3.33,-42.88,-474,-5635,6080,-1,0,0
177.45,-3.33,-42.88,-478,-5639,6069,-1,0,0
177.44,-3.34,-42.88,-480,-5647,6061,0,0,0
177.44,-3.34,-42.88,-488,-5652,6070,0,0,0
177.44,-3.34,-42.87,-488,-5648,6077,0,0,0
177.44,-3.34,-42.87,-490,-5640,6074,0,0,0
177.44,-3.35,-42.86,-491,-5641,6081,0,-1,0
