Yaw,Pitch,Roll,AX,AY,AZ,GX,GY,GZ
-29.63,-4.46,44.94,-631,5697,5713,0,-1,0
-29.63,-4.45,44.93,-617,5699,5718,-1,0,0
-29.64,-4.45,44.93,-617,5695,5720,-1,-1,0
-29.64,-4.44,44.93,-620,5691,5717,-1,0,0
-29.64,-4.44,44.93,-624,5684,5708,-1,-1,0
-29.65,-4.44,44.92,-624,5684,5708,-1,0,0
-29.65,-4.43,44.92,-626,5687,5714,-1,-1,0
-29.65,-4.43,44.92,-619,5683,5716,0,-1,0
-29.65,-4.43,44.93,-618,5695,5721,-1,0,0
-29.66,-4.43,44.92,-627,5694,5721,-1,-1,0
-29.66,-4.43,44.91,-619,5690,5714,-1,0,0
-29.67,-4.43,44.90,-628,5678,5719,-1,-1,0
-29.67,-4.43,44.90,-621,5675,5716,0,-1,-1
-29.66,-4.42,44.91,-623,5683,5713,0,0,-1
-29.66,-4.42,44.91,-623,5691,5719,-1,-1,0
-29.66,-4.42,44.91,-621,5692,5713,-1,0,0
-29.67,-4.41,44.91,-621,5691,5712,-1,-1,0
-29.67,-4.42,44.90,-614,5683,5719,0,0,-1
-29.67,-4.42,44.90,-619,5678,5719,0,-1,-1
-29.67,-4.42,44.91,-625,5693,5717,-1,0,0
-29.67,-4.42,44.90,-625,5695,5714,-1,0,0
-29.67,-4.42,44.91,-618,5686,5707,-1,-1,-1
-29.67,-4.42,44.90,-624,5684,5710,0,0,-1
-29.67,-4.43,44.90,-627,5692,5711,-1,0,-1
-29.67,-4.43,44.90,-628,5697,5704,-1,0,0
-29.67,-4.43,44.90,-627,5696,5716,-1,-1,0
-29.68,-4.42,44.90,-619,5700,5713,-1,-1,0
-29.68,-4.41,44.90,-610,5691,5710,-1,-1,0
-29.69,-4.41,44.89,-612,5678,5713,-1,0,0
-29.69,-4.41,44.88,-617,5678,5717,-1,0,0
-29.70,-4.41,44.88,-620,5683,5730,0,-1,0
-29.70,-4.41,44.88,-626,5684,5737,-1,-1,0
-29.70,-4.40,44.88,-630,5683,5737,-1,-1,0
-29.71,-4.40,44.87,-625,5684,5737,-1,-1,0
-29.72,-4.40,44.87,-615,5683,5732,-1,-1,0
-29.72,-4.39,44.87,-617,5679,5712,-1,0,0
-29.73,-4.39,44.87,-613,5679,5714,0,-1,0
-29.72,-4.39,44.87,-613,5687,5709,0,0,-1
-29.72,-4.39,44.87,-620,5692,5708,-1,0,0
-29.73,-4.39,44.87,-620,5697,5711,-1,-1,0
-29.74,-4.38,44.86,-625,5690,5717,-1,-1,0
-29.74,-4.38,44.85,-614,5683,5716,-1,-1,0
-29.74,-4.38,44.85,-616,5675,5714,-1,0,0
-29.75,-4.38,44.85,-614,5682,5709,-1,-1,0
-29.75,-4.37,44.84,-610,5687,5720,-1,0,0
-29.75,-4.37,44.84,-617,5686,5729,-1,0,0
-29.76,-4.37,44.84,-615,5678,5731,0,0,-1
-29.76,-4.37,44.84,-617,5681,5724,0,-1,0
-29.76,-4.37,44.84,-621,5686,5732,0,0,0
-29.76,-4.37,44.84,-623,5688,5732,-1,-1,0
-29.76,-4.36,44.84,-613,5688,5727,-1,-1,0
-29.77,-4.36,44.83,-616,5681,5725,-1,-1,0
-29.78,-4.36,44.83,-616,5680,5724,-1,-1,0
-29.78,-4.36,44.83,-612,5679,5726,-1,0,0
-29.78,-4.35,44.83,-612,5679,5729,-1,-1,0
-29.79,-4.36,44.82,-615,5682,5730,-1,0,0
-29.79,-4.35,44.82,-610,5677,5727,-1,0,0
-29.79,-4.35,44.82,-613,5682,5725,-1,0,0
-29.79,-4.35,44.81,-619,5684,5730,-1,0,0
-29.80,-4.35,44.80,-619,5677,5721,-1,-1,0
-29.80,-4.35,44.80,-622,5677,5730,-1,-1,0
-29.80,-4.35,44.80,-609,5676,5723,-1,-1,0
-29.80,-4.34,44.80,-603,5681,5726,0,-1,0
-29.81,-4.34,44.81,-608,5679,5720,0,0,-1
-29.81,-4.35,44.80,-618,5678,5718,0,0,-1
-29.80,-4.35,44.80,-611,5678,5720,-1,0,0
-29.81,-4.35,44.80,-622,5675,5730,-1,-1,0
-29.82,-4.35,44.79,-622,5676,5732,-1,-1,0
-29.82,-4.35,44.79,-615,5675,5737,0,-1,0
-29.82,-4.34,44.79,-605,5671,5729,-1,0,0
-29.83,-4.34,44.79,-606,5665,5719,-1,0,0
-29.83,-4.34,44.78,-608,5661,5723,0,0,-1
-29.83,-4.34,44.79,-613,5668,5728,0,0,-1
-29.82,-4.35,44.79,-621,5682,5729,0,-1,0
-29.83,-4.34,44.79,-626,5690,5729,-1,-1,0
-29.83,-4.34,44.78,-621,5690,5726,-1,-1,0
-29.84,-4.34,44.78,-607,5680,5722,-1,-1,0
-29.84,-4.33,44.78,-604,5677,5722,0,0,0
-29.84,-4.34,44.78,-606,5676,5730,0,0,-1
-29.84,-4.34,44.78,-612,5682,5737,-1,0,0
-29.84,-4.34,44.78,-617,5694,5737,-1,0,0
-29.85,-4.34,44.78,-614,5681,5733,-1,0,0
-29.85,-4.33,44.77,-610,5673,5736,-1,-1,0
-29.86,-4.33,44.77,-608,5673,5740,-1,-1,0
-29.86,-4.33,44.77,-607,5671,5731,-1,-1,0
-29.86,-4.33,44.77,-612,5669,5731,0,0,0
-29.86,-4.33,44.77,-609,5671,5735,-1,0,0
-29.86,-4.33,44.77,-611,5671,5735,0,0,-1
-29.87,-4.33,44.77,-607,5674,5734,0,0,0
-29.87,-4.33,44.77,-608,5675,5737,0,0,0
-29.87,-4.33,44.77,-610,5678,5723,0,-1,0
-29.87,-4.32,44.77,-603,5673,5720,-1,-1,0
-29.88,-4.32,44.77,-607,5672,5727,-1,0,0
-29.88,-4.32,44.77,-604,5667,5733,-1,0,0
-29.88,-4.32,44.76,-609,5671,5732,-1,0,0
-29.89,-4.32,44.76,-604,5676,5732,-1,0,0
-29.89,-4.32,44.76,-605,5674,5738,0,0,-1
-29.89,-4.32,44.76,-608,5677,5734,0,-1,-1
-29.89,-4.32,44.76,-610,5670,5743,0,-1,0
-29.89,-4.32,44.77,-608,5676,5727,-1,0,0
-29.89,-4.32,44.76,-600,5673,5725,-1,0,-1
-29.89,-4.32,44.76,-600,5668,5717,-1,0,0
-29.90,-4.33,44.76,-608,5660,5725,0,0,-1
-29.90,-4.33,44.76,-622,5667,5736,0,0,-1
-29.89,-4.34,44.77,-622,5679,5748,0,-1,-1
-29.88,-4.34,44.77,-616,5672,5736,0,-1,-1
-29.88,-4.34,44.78,-603,5676,5724,0,0,-1
-29.88,-4.34,44.78,-610,5684,5722,0,0,-1
-29.87,-4.35,44.78,-609,5681,5740,0,0,-1
-29.87,-4.35,44.78,-611,5680,5739,0,0,-1
-29.87,-4.36,44.78,-613,5671,5738,0,0,0
-29.87,-4.35,44.78,-614,5679,5736,0,-1,0
-29.87,-4.35,44.78,-605,5670,5729,0,-1,-1
-29.87,-4.35,44.78,-606,5670,5722,-1,0,-1
-29.86,-4.36,44.77,-608,5669,5723,-1,0,-1
-29.86,-4.36,44.78,-615,5665,5728,0,0,-1
-29.85,-4.37,44.78,-609,5670,5733,0,0,-1
-29.84,-4.37,44.79,-614,5685,5740,0,-1,-1
-29.83,-4.37,44.79,-620,5679,5729,0,-1,-1
-29.83,-4.38,44.80,-611,5681,5732,0,0,-1
-29.82,-4.39,44.80,-623,5675,5734,0,0,-1
-29.82,-4.39,44.80,-616,5678,5720,0,0,-1
-29.82,-4.39,44.81,-623,5682,5725,0,0,-1
-29.81,-4.40,44.81,-620,5686,5722,0,-1,0
-29.81,-4.40,44.82,-609,5683,5726,0,0,-1
-29.80,-4.40,44.82,-611,5682,5727,0,-1,-1
-29.80,-4.40,44.82,-610,5679,5727,-1,0,-1
-29.80,-4.40,44.82,-618,5659,5725,-1,0,-1
-29.80,-4.40,44.81,-627,5665,5725,-1,-1,-1
-29.80,-4.40,44.81,-625,5665,5738,0,-1,-1
-29.79,-4.41,44.81,-627,5682,5734,0,-1,-1
-29.79,-4.40,44.82,-619,5693,5722,0,0,-1
-29.78,-4.41,44.82,-620,5697,5723,-1,-1,-1
-29.79,-4.41,44.81,-612,5710,5712,-1,0,-1
-29.79,-4.41,44.80,-624,5709,5726,-1,-1,0
-29.80,-4.41,44.79,-624,5684,5731,-1,-1,-1
-29.80,-4.41,44.78,-629,5662,5723,-1,0,0
-29.81,-4.40,44.78,-618,5669,5725,0,-1,0
-29.82,-4.40,44.78,-613,5682,5729,0,-1,0
-29.81,-4.39,44.80,-608,5694,5727,0,-1,0
-29.81,-4.38,44.80,-604,5697,5713,-1,-1,0
-29.81,-4.38,44.80,-609,5684,5708,-1,0,-1
-29.81,-4.38,44.80,-614,5683,5723,-1,0,-1
-29.81,-4.38,44.79,-622,5678,5733,-1,0,-1
-29.82,-4.38,44.79,-620,5668,5740,-1,-1,0
-29.82,-4.38,44.79,-628,5664,5741,0,-1,0
-29.81,-4.38,44.79,-624,5672,5744,0,-1,0
-29.81,-4.38,44.80,-621,5672,5741,0,0,-1
-29.80,-4.39,44.80,-610,5680,5712,0,0,-1
-29.79,-4.39,44.80,-614,5687,5703,-1,0,-1
-29.78,-4.41,44.80,-617,5695,5706,-1,0,-1
-29.78,-4.41,44.80,-618,5689,5715,-1,0,-1
-29.79,-4.42,44.78,-626,5680,5732,-1,0,0
-29.79,-4.42,44.77,-628,5672,5738,-1,-1,0
-29.80,-4.42,44.78,-625,5666,5726,0,0,-1
-29.79,-4.43,44.79,-631,5670,5729,0,0,-1
-29.79,-4.43,44.79,-637,5675,5730,0,0,0
-29.79,-4.43,44.80,-630,5685,5722,0,-1,0
-29.79,-4.42,44.80,-629,5690,5723,0,-1,0
-29.78,-4.42,44.81,-625,5678,5726,0,-1,0
-29.78,-4.42,44.81,-619,5669,5731,0,0,-1
-29.78,-4.42,44.81,-616,5664,5735,0,0,-1
-29.78,-4.42,44.81,-620,5669,5733,0,0,-1
-29.77,-4.43,44.81,-624,5673,5738,0,0,-1
-29.77,-4.43,44.81,-627,5681,5735,0,0,-1
-29.77,-4.43,44.81,-626,5679,5746,0,0,-1
-29.77,-4.43,44.81,-622,5679,5727,0,0,-1
-29.76,-4.44,44.81,-619,5673,5718,0,0,-1
-29.76,-4.45,44.82,-626,5679,5711,0,0,-1
-29.76,-4.45,44.82,-623,5687,5715,0,0,-1
-29.75,-4.46,44.82,-626,5690,5724,-1,0,-1
-29.75,-4.46,44.82,-630,5689,5732,-1,0,-1
-29.75,-4.46,44.82,-633,5681,5725,0,0,0
-29.75,-4.46,44.82,-630,5679,5734,0,-1,-1
-29.74,-4.47,44.83,-625,5680,5721,0,-1,-1
-29.74,-4.47,44.83,-624,5682,5728,0,0,-1
-29.73,-4.47,44.84,-626,5675,5724,0,0,-1
-29.73,-4.48,44.85,-633,5657,5726,0,0,-1
-29.72,-4.49,44.85,-636,5668,5719,0,0,-1
-29.71,-4.49,44.86,-643,5681,5727,0,0,-1
-29.70,-4.50,44.87,-645,5701,5725,0,0,0
-29.70,-4.49,44.87,-633,5695,5717,0,-1,0
-29.70,-4.49,44.87,-630,5691,5710,-1,0,0
-29.71,-4.49,44.87,-628,5681,5722,-1,0,-1
-29.70,-4.50,44.87,-629,5678,5720,0,0,-1
-29.70,-4.51,44.87,-637,5683,5726,0,0,-1
-29.70,-4.51,44.87,-637,5689,5726,0,0,-1
-29.70,-4.51,44.87,-642,5690,5725,-1,0,0
-29.70,-4.51,44.87,-640,5684,5717,0,0,0
-29.70,-4.52,44.87,-634,5687,5717,0,0,-1
-29.70,-4.51,44.87,-630,5691,5722,-1,0,-1
-29.70,-4.51,44.86,-631,5680,5720,-1,0,-1
-29.71,-4.52,44.85,-631,5681,5726,-1,0,-1
-29.71,-4.52,44.85,-639,5675,5733,0,-1,0
-29.70,-4.52,44.86,-643,5681,5731,0,-1,-1
-29.69,-4.52,44.87,-644,5688,5729,0,-1,-1
-29.69,-4.52,44.88,-645,5688,5714,0,-1,0
-29.69,-4.51,44.89,-642,5696,5703,0,-1,0
-29.69,-4.51,44.89,-638,5696,5713,0,-1,0
-29.69,-4.50,44.89,-630,5695,5708,0,-1,0
-29.69,-4.50,44.89,-627,5703,5711,-1,-1,0
-29.70,-4.49,44.88,-626,5675,5712,-1,-1,-1
-29.70,-4.49,44.87,-625,5661,5718,-1,0,0
-29.70,-4.49,44.87,-634,5663,5721,0,0,-1
-29.70,-4.49,44.87,-634,5671,5722,0,0,-1
-29.70,-4.50,44.88,-646,5686,5722,-1,-1,0
-29.70,-4.50,44.87,-647,5689,5730,-1,-1,0
-29.71,-4.49,44.87,-639,5688,5722,-1,-1,0
-29.71,-4.49,44.87,-634,5686,5710,-1,-1,0
-29.71,-4.49,44.87,-634,5682,5714,0,-1,0
-29.71,-4.49,44.87,-624,5684,5713,0,0,-1
-29.71,-4.49,44.87,-629,5682,5720,-1,0,-1
-29.72,-4.48,44.86,-640,5690,5733,-1,-1,0
-29.73,-4.47,44.85,-639,5679,5739,-1,-1,0
-29.74,-4.47,44.85,-638,5687,5727,-1,-1,0
-29.74,-4.46,44.85,-629,5682,5730,-1,-1,0
-29.75,-4.46,44.84,-623,5676,5732,-1,-1,0
-29.75,-4.46,44.84,-622,5673,5733,0,0,0
-29.75,-4.46,44.84,-624,5674,5731,0,0,-1
-29.75,-4.46,44.84,-623,5679,5730,-1,0,-1
-29.75,-4.46,44.84,-629,5684,5725,-1,0,0
-29.75,-4.45,44.83,-624,5684,5722,-1,-1,0
-29.76,-4.44,44.83,-625,5684,5717,-1,-1,0
-29.76,-4.44,44.83,-626,5679,5704,-1,-1,0
-29.76,-4.44,44.83,-619,5678,5711,-1,0,0
-29.78,-4.43,44.82,-620,5681,5726,-1,0,0
-29.78,-4.43,44.82,-626,5690,5734,-1,-1,0
-29.78,-4.43,44.81,-628,5687,5734,-1,-1,0
-29.79,-4.43,44.81,-624,5682,5738,-1,-1,0
-29.79,-4.43,44.80,-630,5679,5731,-1,0,0
-29.79,-4.42,44.80,-624,5674,5730,0,-1,-1
-29.79,-4.42,44.80,-624,5665,5732,-1,0,0
-29.79,-4.42,44.80,-626,5677,5731,0,-1,-1
-29.79,-4.42,44.81,-623,5678,5719,0,0,-1
-29.79,-4.42,44.81,-630,5691,5722,-1,0,0
-29.79,-4.42,44.81,-636,5689,5717,-1,-1,0
-29.80,-4.41,44.80,-622,5680,5722,-1,-1,0
-29.81,-4.40,44.80,-618,5676,5728,-1,-1,0
-29.81,-4.40,44.79,-613,5665,5726,-1,0,-1
-29.81,-4.40,44.79,-609,5670,5725,0,0,-1
-29.81,-4.40,44.79,-618,5680,5733,-1,0,-1
-29.82,-4.40,44.78,-618,5684,5738,-1,-1,-1
-29.82,-4.40,44.78,-625,5679,5725,0,0,-1
-29.82,-4.40,44.78,-630,5677,5726,-1,-1,0
-29.82,-4.40,44.78,-623,5677,5724,-1,-1,0
-29.83,-4.40,44.78,-621,5674,5722,-1,-1,0
-29.83,-4.40,44.78,-617,5677,5716,-1,0,-1
-29.83,-4.40,44.78,-624,5680,5730,0,-1,-1
-29.82,-4.40,44.78,-628,5678,5725,-1,0,-1
-29.82,-4.40,44.78,-624,5671,5724,0,0,-1
-29.82,-4.40,44.78,-626,5678,5717,0,0,0
-29.82,-4.40,44.79,-619,5683,5715,-1,0,0
-29.82,-4.40,44.79,-625,5688,5716,-1,-1,0
-29.82,-4.39,44.78,-623,5685,5718,-1,-1,0
-29.83,-4.40,44.78,-624,5678,5719,-1,0,0
-29.83,-4.39,44.78,-629,5670,5723,-1,-1,0
-29.83,-4.39,44.77,-624,5672,5721,-1,0,0
-29.84,-4.40,44.77,-626,5671,5722,-1,0,0
-29.84,-4.39,44.77,-619,5675,5723,-1,-1,-1
-29.84,-4.39,44.77,-618,5683,5730,-1,-1,0
-29.84,-4.38,44.77,-620,5682,5731,-1,-1,0
-29.85,-4.38,44.76,-620,5674,5730,-1,-1,0
-29.85,-4.38,44.75,-620,5670,5722,-1,-1,0
-29.85,-4.38,44.75,-625,5680,5729,-1,-1,-1
-29.85,-4.38,44.75,-621,5686,5725,-1,0,0
-29.85,-4.38,44.75,-619,5681,5729,-1,0,0
-29.86,-4.37,44.74,-620,5674,5730,-1,0,0
-29.86,-4.37,44.74,-621,5672,5731,0,0,-1
-29.86,-4.37,44.75,-620,5684,5726,0,-1,0
-29.87,-4.36,44.74,-608,5690,5729,-1,-1,0
-29.87,-4.36,44.74,-608,5690,5725,-1,-1,0
-29.88,-4.36,44.74,-613,5680,5728,-1,0,0
-29.88,-4.36,44.73,-621,5671,5733,-1,0,-1
-29.88,-4.36,44.73,-621,5669,5741,-1,-1,0
-29.88,-4.36,44.73,-618,5681,5732,-1,-1,0
-29.89,-4.36,44.73,-616,5685,5733,-1,0,0
-29.90,-4.35,44.72,-612,5676,5733,-1,-1,0
-29.90,-4.34,44.72,-610,5669,5728,-1,0,-1
-29.91,-4.35,44.72,-615,5664,5732,-1,0,0
-29.91,-4.35,44.71,-611,5661,5743,-1,0,-1
-29.91,-4.35,44.71,-618,5662,5743,0,0,0
-29.91,-4.35,44.71,-625,5672,5741,0,-1,0
-29.92,-4.35,44.71,-626,5677,5739,-1,-1,0
-29.92,-4.34,44.71,-619,5671,5735,-1,-1,0
-29.93,-4.34,44.71,-615,5668,5730,-1,0,0
-29.92,-4.34,44.71,-618,5675,5721,0,0,0
-29.92,-4.34,44.71,-620,5673,5726,-1,0,0
-29.93,-4.34,44.71,-616,5680,5732,-1,0,0
-29.93,-4.34,44.71,-619,5675,5735,-1,0,0
-29.94,-4.34,44.70,-624,5675,5729,-1,-1,0
-29.94,-4.33,44.70,-620,5677,5735,-1,-1,0
-29.95,-4.33,44.70,-611,5675,5734,-1,0,0
-29.96,-4.33,44.69,-613,5672,5735,-1,-1,0
-29.96,-4.32,44.69,-612,5668,5747,0,-1,-1
-29.96,-4.32,44.69,-611,5670,5745,-1,0,-1
-29.96,-4.32,44.69,-607,5664,5738,-1,0,0
-29.96,-4.33,44.68,-615,5658,5735,-1,0,0
-29.96,-4.33,44.68,-614,5663,5730,0,-1,0
-29.96,-4.32,44.69,-607,5671,5732,0,-1,-1
-29.96,-4.32,44.69,-616,5683,5723,-1,-1,0
-29.97,-4.32,44.68,-611,5678,5722,-1,-1,0
-29.98,-4.32,44.68,-610,5671,5733,-1,0,0
-29.98,-4.32,44.68,-613,5672,5737,-1,0,0
-29.98,-4.32,44.68,-613,5675,5730,-1,0,-1
-29.98,-4.31,44.67,-607,5671,5738,-1,-1,-1
-29.99,-4.31,44.67,-612,5664,5739,-1,0,0
-30.00,-4.31,44.66,-614,5659,5736,-1,0,0
-30.00,-4.31,44.66,-615,5658,5732,-1,-1,0
-30.00,-4.30,44.66,-612,5670,5738,-1,-1,0
-30.01,-4.31,44.65,-617,5664,5742,-1,-1,0
-30.01,-4.30,44.65,-610,5664,5737,-1,-1,0
-30.02,-4.30,44.65,-607,5668,5736,-1,-1,0
-30.01,-4.30,44.66,-610,5669,5738,-1,0,-1
-30.01,-4.30,44.65,-616,5668,5740,0,-1,-1
-30.00,-4.30,44.66,-615,5678,5741,-1,0,-1
-30.00,-4.30,44.66,-608,5677,5740,-1,-1,-1
-30.00,-4.30,44.65,-607,5673,5741,-1,0,-1
-30.00,-4.30,44.65,-606,5666,5739,0,-1,0
-30.00,-4.30,44.65,-602,5654,5732,0,-1,-1
-30.00,-4.30,44.66,-602,5656,5739,0,0,-1
-29.98,-4.31,44.66,-605,5655,5730,0,0,-1
-29.97,-4.32,44.68,-614,5665,5736,0,0,-1
-29.96,-4.32,44.69,-609,5685,5737,0,0,-1
-29.95,-4.33,44.69,-615,5679,5738,0,0,-1
-29.95,-4.33,44.69,-628,5670,5729,0,-1,-1
-29.93,-4.33,44.70,-609,5662,5729,0,-1,-1
-29.92,-4.33,44.72,-618,5670,5725,0,-1,-1
-29.91,-4.33,44.73,-606,5670,5727,0,0,-1
-29.89,-4.34,44.74,-627,5676,5727,0,-1,-1
-29.88,-4.34,44.75,-617,5683,5736,0,0,-1
-29.87,-4.34,44.77,-629,5699,5737,0,-1,-1
-29.86,-4.33,44.78,-614,5689,5725,0,-1,0
-29.86,-4.33,44.78,-605,5677,5720,0,-1,0
-29.85,-4.33,44.78,-616,5668,5712,0,-1,0
-29.85,-4.33,44.80,-615,5689,5710,0,0,-1
-29.84,-4.33,44.80,-624,5691,5722,-1,-1,-1
-29.84,-4.33,44.80,-619,5688,5723,-1,0,-1
-29.84,-4.34,44.79,-616,5686,5714,-1,0,-1
-29.84,-4.34,44.79,-624,5676,5730,-1,-1,0
-29.85,-4.33,44.78,-608,5665,5722,0,-1,0
-29.85,-4.34,44.79,-614,5682,5721,-1,0,0
-29.86,-4.34,44.77,-616,5686,5720,-1,0,0
-29.87,-4.34,44.76,-616,5684,5715,-1,0,0
-29.87,-4.34,44.76,-624,5684,5720,-1,-1,0
-29.88,-4.33,44.74,-600,5668,5727,-1,0,-1
-29.87,-4.34,44.75,-614,5680,5732,-1,0,-1
-29.87,-4.34,44.75,-608,5677,5731,-1,0,-1
-29.88,-4.33,44.74,-618,5676,5728,-1,0,0
-29.88,-4.34,44.73,-617,5674,5732,-1,-1,0
-29.89,-4.33,44.73,-605,5671,5722,-1,0,-1
-29.89,-4.33,44.73,-610,5671,5726,-1,-1,-1
-29.89,-4.33,44.72,-606,5670,5740,-1,0,-1
-29.88,-4.34,44.72,-615,5672,5730,-1,0,-1
-29.88,-4.34,44.72,-611,5675,5723,-1,0,0
-29.88,-4.34,44.72,-616,5672,5729,0,0,-1
-29.87,-4.35,44.73,-616,5672,5720,0,0,-1
-29.87,-4.35,44.73,-618,5671,5723,0,0,-1
-29.86,-4.36,44.74,-621,5679,5734,-1,0,-1
-29.87,-4.36,44.73,-623,5677,5734,-1,0,-1
-29.86,-4.36,44.73,-621,5684,5745,-1,0,-1
-29.87,-4.37,44.73,-625,5684,5738,-1,0,-1
-29.86,-4.36,44.73,-624,5680,5717,0,0,-1
-29.86,-4.37,44.73,-624,5680,5710,0,0,-1
-29.86,-4.37,44.74,-621,5688,5719,0,0,-1
-29.86,-4.38,44.74,-622,5687,5721,-1,0,-1
-29.87,-4.38,44.74,-625,5676,5724,-1,0,-1
-29.86,-4.39,44.74,-625,5674,5722,-1,0,0
-29.86,-4.39,44.73,-623,5667,5723,0,0,-1
-29.86,-4.39,44.74,-620,5679,5727,0,0,0
-29.86,-4.39,44.74,-611,5677,5740,0,0,0
-29.87,-4.39,44.74,-609,5660,5732,0,0,0
-29.86,-4.39,44.75,-615,5667,5732,0,0,-1
-29.86,-4.40,44.76,-618,5670,5731,0,0,-1
-29.85,-4.41,44.76,-626,5690,5733,0,0,-1
-29.86,-4.41,44.76,-630,5693,5735,-1,-1,0
-29.86,-4.40,44.76,-625,5692,5729,-1,0,0
-29.87,-4.40,44.76,-618,5686,5721,-1,0,0
-29.87,-4.40,44.76,-618,5672,5712,0,0,-1
-29.86,-4.40,44.77,-615,5680,5717,0,0,-1
-29.86,-4.41,44.77,-616,5685,5727,-1,0,-1
-29.86,-4.42,44.77,-632,5684,5729,0,0,-1
-29.84,-4.42,44.78,-642,5687,5730,0,0,-1
-29.84,-4.43,44.79,-637,5694,5728,0,0,-1
-29.84,-4.43,44.79,-629,5681,5727,0,0,-1
-29.83,-4.43,44.80,-620,5678,5716,0,0,-1
-29.82,-4.44,44.81,-619,5683,5717,0,0,-1
-29.82,-4.45,44.81,-629,5687,5713,0,0,-1
-29.81,-4.46,44.82,-632,5683,5704,0,0,-1
-29.81,-4.46,44.82,-627,5680,5715,0,0,-1
-29.80,-4.46,44.83,-637,5687,5718,-1,-1,-1
-29.79,-4.47,44.83,-636,5682,5706,0,0,-1
-29.79,-4.46,44.83,-642,5684,5713,0,-1,-1
-29.79,-4.46,44.83,-635,5678,5711,0,0,-1
-29.79,-4.46,44.83,-644,5696,5719,-1,-1,0
-29.79,-4.47,44.83,-639,5685,5707,-1,0,-1
-29.79,-4.47,44.82,-633,5675,5707,-1,0,0
-29.79,-4.47,44.82,-637,5672,5718,-1,-1,0
-29.79,-4.47,44.82,-641,5670,5718,0,-1,-1
-29.79,-4.47,44.83,-633,5685,5729,0,-1,-1
-29.79,-4.46,44.83,-629,5689,5730,0,-1,-1
-29.78,-4.47,44.83,-637,5688,5719,0,0,-1
-29.78,-4.47,44.83,-639,5683,5714,-1,0,-1
-29.78,-4.47,44.83,-635,5682,5703,0,-1,-1
-29.78,-4.46,44.84,-636,5685,5702,0,-1,-1
-29.77,-4.47,44.84,-635,5687,5716,-1,0,0
-29.78,-4.46,44.84,-633,5690,5725,-1,-1,0
-29.78,-4.46,44.84,-627,5682,5722,0,0,0
-29.78,-4.46,44.84,-630,5687,5716,-1,-1,-1
-29.78,-4.46,44.84,-639,5686,5714,-1,-1,0
-29.79,-4.46,44.84,-640,5690,5712,-1,-1,0
-29.79,-4.45,44.83,-638,5679,5718,-1,-1,0
-29.80,-4.45,44.82,-637,5669,5724,-1,-1,0
-29.80,-4.45,44.82,-630,5665,5726,-1,-1,0
-29.81,-4.44,44.81,-635,5670,5722,0,-1,0
-29.81,-4.44,44.81,-629,5680,5711,-1,-1,0
-29.81,-4.43,44.81,-622,5681,5707,-1,-1,0
-29.81,-4.43,44.82,-622,5682,5718,-1,0,-1
-29.81,-4.43,44.81,-636,5682,5721,-1,0,-1
-29.81,-4.43,44.81,-644,5693,5735,-1,-1,0
-29.82,-4.42,44.81,-633,5693,5721,0,-1,0
-29.82,-4.42,44.81,-623,5700,5730,-1,-1,0
-29.82,-4.42,44.81,-628,5689,5729,-1,-1,0
-29.83,-4.41,44.80,-621,5680,5717,-1,0,0
-29.83,-4.41,44.80,-619,5664,5732,-1,0,0
-29.84,-4.41,44.79,-618,5668,5735,0,0,-1
-29.83,-4.41,44.80,-626,5686,5729,0,-1,-1
-29.83,-4.41,44.80,-637,5688,5731,-1,-1,0
-29.84,-4.40,44.79,-631,5684,5722,-1,-1,0
-29.85,-4.39,44.79,-629,5681,5713,-1,-1,0
-29.85,-4.39,44.79,-627,5675,5709,-1,-1,0
-29.86,-4.39,44.79,-625,5676,5707,-1,0,0
-29.86,-4.39,44.79,-625,5681,5707,-1,0,-1
-29.86,-4.39,44.78,-633,5687,5722,-1,0,0
-29.86,-4.40,44.78,-642,5682,5721,-1,-1,0
-29.88,-4.39,44.77,-635,5679,5722,-1,-1,0
-29.88,-4.39,44.77,-630,5679,5722,-1,-1,0
-29.89,-4.38,44.76,-622,5679,5727,-1,-1,0
-29.90,-4.38,44.75,-617,5674,5725,-1,-1,0
-29.90,-4.37,44.75,-620,5667,5729,-1,-1,0
-29.90,-4.37,44.75,-630,5676,5735,-1,-1,0
-29.90,-4.37,44.74,-627,5671,5738,-1,0,0
-29.91,-4.37,44.74,-628,5670,5731,-1,0,0
-29.91,-4.37,44.74,-632,5671,5734,-1,-1,0
-29.92,-4.36,44.74,-629,5680,5731,-1,-1,0
-29.92,-4.36,44.74,-628,5675,5734,-1,-1,0
-29.92,-4.37,44.73,-627,5670,5726,-1,0,0
-29.93,-4.36,44.73,-621,5671,5720,-1,-1,0
-29.93,-4.36,44.73,-623,5674,5727,-1,0,0
-29.94,-4.35,44.72,-614,5671,5719,-1,0,0
-29.94,-4.35,44.72,-619,5674,5724,-1,0,0
-29.94,-4.35,44.72,-623,5674,5732,-1,-1,0
-29.95,-4.35,44.72,-622,5677,5730,-1,0,0
-29.95,-4.35,44.72,-614,5677,5732,-1,-1,0
-29.95,-4.35,44.72,-617,5673,5726,0,-1,0
-29.95,-4.35,44.72,-616,5677,5733,-1,0,0
-29.95,-4.35,44.72,-615,5675,5729,-1,0,-1
-29.95,-4.35,44.72,-621,5669,5727,-1,0,0
-29.95,-4.35,44.71,-629,5683,5729,-1,-1,0
-29.96,-4.35,44.72,-623,5685,5731,0,-1,0
-29.96,-4.34,44.71,-619,5685,5728,-1,-1,0
-29.97,-4.33,44.71,-613,5677,5732,-1,-1,0
-29.98,-4.33,44.70,-609,5668,5734,-1,-1,0
-29.98,-4.33,44.70,-607,5664,5738,-1,0,0
-29.98,-4.33,44.70,-611,5668,5739,-1,0,-1
-29.98,-4.33,44.69,-622,5668,5738,0,0,-1
-29.98,-4.33,44.70,-620,5673,5732,0,0,0
-29.99,-4.33,44.70,-625,5677,5730,-1,-1,0
-29.99,-4.33,44.69,-613,5677,5725,-1,0,0
-30.00,-4.33,44.69,-610,5675,5718,-1,-1,0
-30.00,-4.33,44.69,-607,5675,5719,-1,0,0
-30.00,-4.32,44.69,-607,5670,5731,-1,0,-1
-30.00,-4.33,44.68,-619,5673,5744,-1,0,0
-30.00,-4.33,44.68,-624,5672,5732,-1,0,0
-30.01,-4.33,44.68,-622,5675,5732,-1,0,0
-30.01,-4.32,44.68,-614,5676,5729,0,0,-1
-30.01,-4.32,44.68,-611,5668,5726,-1,-1,0
-30.01,-4.32,44.68,-609,5664,5734,-1,0,0
-30.02,-4.32,44.67,-601,5662,5740,-1,0,0
-30.02,-4.32,44.67,-603,5663,5735,-1,0,0
-30.02,-4.32,44.67,-611,5669,5742,-1,0,0
-30.03,-4.32,44.67,-609,5671,5737,-1,0,0
-30.03,-4.32,44.67,-614,5671,5742,-1,0,0
-30.04,-4.32,44.66,-614,5671,5731,-1,0,0
-30.03,-4.31,44.67,-613,5677,5728,-1,0,0
-30.04,-4.31,44.66,-611,5673,5737,-1,0,0
-30.05,-4.31,44.66,-614,5665,5736,-1,-1,-1
-30.05,-4.31,44.66,-614,5671,5748,-1,0,0
-30.05,-4.31,44.65,-613,5664,5745,-1,0,0
-30.06,-4.31,44.64,-615,5656,5740,-1,-1,0
-30.07,-4.31,44.64,-612,5652,5731,0,0,0
-30.07,-4.31,44.65,-612,5667,5732,0,0,0
-30.07,-4.31,44.65,-611,5675,5735,-1,0,0
-30.07,-4.30,44.65,-612,5677,5726,-1,0,0
-30.07,-4.30,44.65,-617,5667,5721,-1,0,0
-30.09,-4.31,44.65,-622,5670,5731,-1,0,0
-30.09,-4.31,44.65,-615,5670,5732,-1,0,0
-30.09,-4.31,44.65,-618,5674,5742,-1,0,0
-30.09,-4.30,44.64,-612,5670,5731,-1,-1,0
-30.10,-4.30,44.64,-604,5669,5735,-1,-1,0
-30.11,-4.29,44.63,-600,5669,5741,-1,-1,0
-30.11,-4.29,44.63,-596,5676,5734,-1,-1,0
-30.12,-4.29,44.62,-601,5669,5745,-1,-1,-1
-30.12,-4.28,44.62,-603,5664,5741,0,-1,-1
-30.11,-4.28,44.63,-604,5676,5751,0,-1,0
-30.12,-4.28,44.63,-609,5680,5749,0,-1,0
-30.12,-4.28,44.63,-611,5673,5736,-1,-1,0
-30.12,-4.27,44.63,-602,5661,5738,0,-1,0
-30.12,-4.27,44.63,-599,5666,5737,0,0,0
-30.12,-4.27,44.63,-604,5666,5743,0,-1,-1
-30.11,-4.27,44.62,-605,5668,5747,-1,0,-1
-30.11,-4.28,44.62,-605,5666,5749,0,0,-1
-30.11,-4.28,44.62,-606,5668,5740,-1,0,0
-30.11,-4.28,44.62,-612,5661,5728,-1,-1,0
-30.10,-4.28,44.63,-616,5660,5726,-1,-1,0
-30.11,-4.28,44.62,-611,5653,5740,0,-1,-1
-30.11,-4.28,44.62,-607,5661,5745,-1,-1,-1
-30.11,-4.28,44.62,-601,5662,5737,-1,0,-1
-30.11,-4.28,44.62,-609,5654,5738,0,0,-1
-30.10,-4.29,44.63,-608,5653,5743,0,-1,-1
-30.09,-4.29,44.63,-611,5657,5733,0,-1,-1
-30.08,-4.29,44.64,-618,5673,5736,0,-1,-1
-30.08,-4.29,44.64,-614,5669,5739,-1,-1,0
-30.08,-4.29,44.64,-606,5667,5741,-1,0,-1
-30.08,-4.29,44.64,-606,5661,5740,-1,0,-1
-30.08,-4.30,44.64,-611,5665,5740,-1,0,-1
-30.08,-4.30,44.64,-617,5669,5730,-1,0,-1
-30.08,-4.30,44.64,-619,5664,5742,-1,0,-1
-30.08,-4.30,44.63,-622,5655,5742,-1,0,0
-30.08,-4.30,44.63,-617,5650,5740,0,0,-1
-30.08,-4.30,44.63,-611,5658,5737,0,-1,0
-30.08,-4.30,44.63,-603,5664,5738,0,-1,-1
-30.08,-4.30,44.64,-602,5662,5739,0,0,-1
-30.07,-4.31,44.64,-606,5662,5736,0,0,-1
-30.07,-4.32,44.64,-617,5669,5735,0,0,-1
-30.06,-4.32,44.65,-618,5678,5737,0,0,-1
-30.06,-4.32,44.65,-622,5677,5734,-1,-1,0
-30.06,-4.32,44.65,-617,5671,5738,-1,-1,0
-30.07,-4.32,44.64,-611,5666,5729,-1,0,0
-30.07,-4.32,44.64,-612,5661,5733,-1,-1,-1
-30.06,-4.32,44.65,-602,5653,5731,0,0,-1
-30.06,-4.32,44.65,-610,5668,5742,0,0,-1
-30.05,-4.33,44.65,-616,5675,5740,0,0,-1
-30.06,-4.33,44.65,-622,5668,5743,-1,0,0
-30.06,-4.33,44.65,-617,5672,5742,0,-1,-1
-30.05,-4.33,44.66,-608,5673,5731,0,0,-1
-30.05,-4.33,44.66,-608,5676,5734,0,0,-1
-30.04,-4.33,44.67,-609,5672,5734,0,0,-1
-30.04,-4.33,44.67,-609,5676,5732,0,0,-1
-30.03,-4.34,44.68,-610,5685,5738,0,0,-1
-30.02,-4.35,44.68,-617,5667,5735,0,0,-1
-30.01,-4.36,44.69,-625,5670,5736,0,0,-1
-30.00,-4.37,44.69,-618,5681,5742,0,0,-1
-29.99,-4.38,44.70,-635,5679,5727,0,-1,-1
-29.99,-4.38,44.70,-617,5679,5740,-1,0,-1
-29.98,-4.39,44.70,-621,5672,5728,-1,0,-1
-29.98,-4.39,44.70,-616,5663,5732,0,0,-1
-29.96,-4.40,44.71,-627,5663,5723,0,-1,-1
-29.95,-4.41,44.72,-619,5677,5724,0,0,-1
-29.93,-4.43,44.73,-653,5682,5721,0,-1,-1
-29.93,-4.42,44.73,-624,5672,5724,0,0,-1
-29.92,-4.43,44.74,-644,5673,5721,0,-1,-1
-29.92,-4.42,44.74,-630,5678,5730,-1,-1,0
-29.92,-4.43,44.73,-645,5671,5719,-1,-1,-1
-29.92,-4.42,44.73,-617,5676,5733,0,-1,-1
-29.91,-4.43,44.72,-635,5682,5727,-1,-1,-1
-29.91,-4.43,44.72,-623,5683,5734,-1,-1,-1
-29.91,-4.43,44.72,-637,5663,5722,-1,0,-1
-29.91,-4.43,44.71,-621,5658,5739,0,0,-1
-29.91,-4.44,44.71,-639,5681,5733,0,0,-1
-29.90,-4.44,44.71,-625,5678,5727,-1,-1,0
-29.92,-4.44,44.70,-645,5679,5723,-1,-1,0
-29.91,-4.44,44.69,-627,5668,5721,-1,-1,-1
-29.91,-4.44,44.69,-637,5672,5725,0,-1,-1
-29.92,-4.44,44.70,-620,5662,5726,-1,0,-1
-29.91,-4.44,44.71,-615,5664,5721,0,0,-1
-29.90,-4.46,44.71,-623,5663,5723,0,0,-1
-29.88,-4.47,44.72,-636,5673,5719,0,0,-1
-29.87,-4.48,44.73,-634,5685,5716,0,0,-1
-29.86,-4.49,44.74,-650,5696,5706,-1,0,-1
-29.86,-4.49,44.73,-653,5667,5718,-1,-1,0
-29.86,-4.48,44.73,-630,5675,5725,0,0,0
-29.86,-4.48,44.73,-634,5680,5724,-1,-1,-1
-29.87,-4.48,44.73,-630,5680,5738,0,0,-1
-29.87,-4.48,44.72,-638,5665,5732,-1,-1,0
-29.87,-4.49,44.72,-636,5666,5727,0,0,-1
-29.87,-4.49,44.72,-643,5676,5727,0,-1,0
-29.87,-4.48,44.73,-632,5675,5720,-1,-1,0
-29.88,-4.48,44.72,-633,5672,5709,-1,0,-1
-29.88,-4.49,44.71,-640,5660,5721,-1,0,0
-29.89,-4.49,44.70,-642,5655,5725,-1,0,-1
-29.89,-4.49,44.70,-644,5656,5728,0,0,0
-29.88,-4.50,44.70,-645,5664,5731,0,0,0
-29.89,-4.50,44.71,-646,5677,5729,0,0,0
-29.88,-4.50,44.71,-648,5686,5730,0,0,-1
-29.88,-4.51,44.72,-649,5681,5724,-1,0,0
-29.89,-4.50,44.72,-645,5677,5721,-1,0,0
-29.89,-4.51,44.73,-645,5677,5719,0,0,-1
-29.89,-4.51,44.72,-652,5680,5729,-1,0,-1
-29.89,-4.51,44.72,-647,5676,5736,-1,-1,0
-29.88,-4.51,44.72,-645,5667,5734,0,-1,0
-29.89,-4.51,44.72,-641,5674,5736,0,-1,0
-29.89,-4.50,44.72,-645,5675,5731,0,-1,0
-29.89,-4.50,44.72,-644,5680,5722,0,-1,0
-29.88,-4.50,44.73,-639,5679,5720,0,-1,0
-29.88,-4.50,44.74,-646,5682,5722,0,-1,0
-29.87,-4.51,44.74,-642,5678,5724,0,-1,-1
-29.87,-4.51,44.74,-644,5677,5714,0,0,-1
-29.87,-4.50,44.75,-644,5680,5728,0,-1,0
-29.87,-4.50,44.75,-641,5680,5734,0,-1,0
-29.87,-4.50,44.76,-645,5689,5727,0,-1,0
-29.87,-4.50,44.76,-641,5683,5732,-1,-1,0
-29.88,-4.49,44.76,-636,5682,5733,-1,0,0
-29.88,-4.49,44.75,-639,5671,5723,-1,0,0
-29.89,-4.49,44.75,-641,5668,5723,-1,-1,0
-29.89,-4.48,44.75,-641,5675,5728,0,-1,0
-29.89,-4.48,44.76,-648,5692,5727,-1,-1,0
-29.90,-4.48,44.75,-645,5687,5726,-1,-1,0
-29.89,-4.47,44.75,-644,5685,5720,-1,-1,0
-29.90,-4.47,44.75,-643,5679,5725,-1,-1,0
-29.91,-4.47,44.74,-642,5670,5734,0,-1,0
-29.91,-4.47,44.74,-634,5676,5720,-1,0,0
-29.91,-4.46,44.74,-641,5685,5724,-1,-1,0
-29.91,-4.46,44.74,-641,5679,5734,-1,-1,0
-29.91,-4.46,44.74,-641,5676,5735,-1,-1,0
-29.92,-4.46,44.74,-636,5677,5729,-1,-1,0
-29.93,-4.45,44.73,-633,5667,5728,-1,-1,0
-29.93,-4.45,44.73,-638,5667,5729,-1,-1,0
-29.94,-4.44,44.73,-633,5675,5731,-1,-1,0
-29.93,-4.44,44.74,-629,5679,5730,-1,0,0
-29.94,-4.44,44.73,-640,5676,5734,-1,0,0
-29.93,-4.45,44.73,-642,5678,5732,-1,0,0
-29.94,-4.44,44.73,-637,5682,5740,-1,-1,0
-29.96,-4.43,44.73,-626,5681,5733,-1,-1,0
-29.96,-4.42,44.73,-623,5679,5735,-1,-1,0
-29.97,-4.42,44.72,-616,5676,5728,-1,-1,0
-29.96,-4.42,44.72,-624,5664,5722,-1,0,0
-29.97,-4.42,44.71,-633,5670,5733,-1,-1,0
-29.96,-4.42,44.72,-628,5683,5733,0,-1,-1
-29.96,-4.42,44.72,-637,5686,5732,0,-1,0
-29.95,-4.42,44.73,-643,5682,5733,-1,-1,0
-29.96,-4.41,44.72,-638,5669,5730,-1,-1,0
-29.98,-4.40,44.71,-635,5660,5733,-1,-1,0
-29.97,-4.40,44.71,-626,5659,5722,0,-1,-1
-29.97,-4.40,44.71,-629,5675,5719,0,-1,0
-29.97,-4.40,44.71,-623,5680,5723,-1,-1,0
-29.97,-4.40,44.71,-634,5681,5721,-1,-1,0
-29.98,-4.39,44.71,-630,5678,5736,-1,-1,0
-29.99,-4.39,44.70,-628,5672,5732,-1,-1,0
-29.99,-4.39,44.70,-627,5673,5733,0,-1,0
-29.99,-4.39,44.70,-622,5676,5735,-1,-1,0
-30.00,-4.38,44.70,-627,5676,5732,-1,-1,0
-30.00,-4.38,44.70,-631,5670,5726,-1,-1,0
-30.00,-4.38,44.69,-631,5675,5725,-1,-1,0
-30.00,-4.38,44.69,-631,5683,5734,-1,-1,0
-30.00,-4.38,44.69,-625,5683,5742,-1,-1,0
-30.01,-4.37,44.69,-623,5679,5738,-1,-1,0
-30.00,-4.37,44.70,-620,5679,5725,-1,-1,0
-30.01,-4.36,44.69,-624,5677,5724,-1,-1,0
-30.01,-4.36,44.69,-629,5675,5720,-1,-1,0
-30.02,-4.36,44.70,-624,5677,5723,-1,-1,0
-30.02,-4.36,44.70,-626,5671,5718,-1,-1,0
-30.03,-4.35,44.69,-631,5670,5723,-1,-1,0
-30.03,-4.35,44.69,-627,5668,5721,-1,-1,0
-30.04,-4.35,44.69,-619,5668,5731,-1,-1,0
-30.05,-4.35,44.68,-618,5660,5730,-1,-1,0
-30.05,-4.35,44.68,-616,5660,5735,-1,-1,0
-30.05,-4.34,44.67,-620,5662,5736,0,0,0
-30.05,-4.35,44.68,-631,5674,5738,-1,-1,0
-30.05,-4.34,44.67,-630,5674,5749,-1,-1,0
-30.05,-4.34,44.67,-624,5673,5736,-1,-1,0
-30.07,-4.33,44.66,-630,5664,5743,-1,-1,0
-30.07,-4.33,44.66,-616,5661,5734,0,-1,0
-30.07,-4.33,44.67,-613,5665,5728,0,-1,-1
-30.06,-4.34,44.67,-623,5672,5728,-1,0,-1
-30.06,-4.34,44.67,-626,5673,5727,-1,0,0
-30.07,-4.33,44.67,-624,5680,5731,-1,0,0
-30.07,-4.33,44.67,-632,5679,5740,-1,-1,0
-30.08,-4.33,44.67,-624,5670,5740,-1,-1,0
-30.09,-4.32,44.67,-615,5668,5719,-1,-1,0
-30.09,-4.32,44.66,-612,5665,5729,-1,-1,0
-30.10,-4.31,44.65,-608,5660,5738,-1,0,0
-30.10,-4.31,44.65,-608,5662,5745,0,-1,-1
-30.10,-4.32,44.65,-616,5665,5751,0,-1,0
-30.10,-4.31,44.65,-621,5665,5750,0,-1,0
-30.10,-4.31,44.65,-625,5664,5750,0,-1,0
-30.11,-4.30,44.65,-614,5659,5738,0,-1,0
-30.11,-4.30,44.66,-622,5670,5734,-1,0,0
-30.12,-4.30,44.65,-620,5666,5735,-1,0,0
-30.11,-4.31,44.65,-622,5661,5733,-1,0,0
-30.12,-4.30,44.64,-617,5665,5731,-1,0,0
-30.13,-4.30,44.64,-614,5662,5754,-1,-1,0
-30.13,-4.30,44.63,-611,5657,5752,-1,-1,0
-30.14,-4.29,44.63,-607,5663,5746,-1,-1,0
-30.14,-4.29,44.63,-612,5662,5743,-1,-1,0
-30.15,-4.29,44.62,-617,5665,5747,-1,-1,0
-30.15,-4.29,44.62,-618,5660,5735,0,-1,-1
-30.16,-4.29,44.62,-621,5668,5742,-1,0,0
-30.16,-4.29,44.62,-622,5670,5733,-1,-1,0
-30.16,-4.29,44.61,-622,5659,5739,-1,-1,0
-30.17,-4.29,44.61,-630,5664,5732,-1,-1,0
-30.17,-4.29,44.61,-620,5662,5727,-1,-1,0
-30.17,-4.28,44.61,-623,5672,5725,-1,-1,0
-30.17,-4.28,44.61,-618,5671,5725,-1,-1,0
-30.18,-4.28,44.60,-613,5664,5736,-1,-1,0
-30.18,-4.27,44.60,-611,5659,5742,-1,0,0
-30.17,-4.28,44.60,-610,5652,5748,0,0,-1
-30.18,-4.28,44.60,-615,5661,5738,0,0,0
-30.18,-4.28,44.61,-618,5662,5734,-1,0,-1
-30.18,-4.28,44.61,-621,5663,5743,-1,0,0
-30.18,-4.29,44.60,-622,5669,5738,-1,-1,0
-30.19,-4.29,44.59,-619,5657,5741,-1,0,0
-30.19,-4.29,44.59,-623,5659,5742,-1,-1,0
-30.18,-4.29,44.59,-613,5653,5749,-1,-1,0
-30.20,-4.28,44.59,-617,5662,5742,0,-1,0
-30.20,-4.28,44.59,-616,5664,5743,-1,-1,0
-30.20,-4.28,44.59,-614,5664,5737,-1,0,-1
-30.19,-4.29,44.58,-624,5658,5736,-1,-1,0
-30.19,-4.29,44.58,-618,5653,5742,-1,-1,0
-30.21,-4.28,44.58,-614,5652,5753,0,0,0
-30.20,-4.28,44.58,-607,5651,5752,0,-1,0
-30.20,-4.28,44.58,-606,5652,5750,-1,-1,-1
-30.20,-4.28,44.58,-611,5650,5747,0,0,-1
-30.19,-4.28,44.58,-606,5650,5746,0,-1,-1
-30.19,-4.29,44.59,-610,5657,5740,0,0,-1
-30.18,-4.29,44.59,-617,5660,5735,0,-1,-1
-30.18,-4.29,44.59,-626,5661,5735,-1,0,0
-30.18,-4.29,44.59,-620,5668,5741,-1,-1,0
-30.18,-4.29,44.59,-611,5662,5735,0,-1,0
-30.18,-4.29,44.59,-612,5661,5738,0,0,-1
-30.18,-4.29,44.59,-620,5667,5738,-1,-1,0
-30.18,-4.30,44.59,-614,5663,5742,-1,0,0
-30.19,-4.29,44.58,-624,5658,5754,-1,-1,0
-30.19,-4.29,44.57,-613,5650,5758,-1,-1,0
-30.19,-4.29,44.57,-607,5657,5756,-1,-1,-1
-30.19,-4.29,44.57,-608,5663,5740,-1,0,0
-30.19,-4.29,44.58,-606,5665,5751,0,-1,0
-30.18,-4.29,44.58,-617,5663,5754,-1,-1,0
-30.19,-4.30,44.57,-616,5665,5749,-1,0,-1
-30.19,-4.30,44.57,-617,5661,5744,-1,-1,-1
-30.18,-4.30,44.57,-613,5657,5753,0,0,-1
-30.18,-4.31,44.57,-621,5664,5746,0,-1,-1
-30.17,-4.30,44.58,-618,5674,5741,-1,-1,0
-30.17,-4.30,44.58,-624,5674,5748,-1,-1,0
-30.17,-4.30,44.58,-619,5654,5737,-1,-1,0
-30.18,-4.30,44.57,-616,5646,5735,-1,-1,0
-30.18,-4.30,44.57,-616,5647,5750,-1,-1,0
-30.19,-4.30,44.57,-616,5658,5750,0,-1,0
-30.18,-4.30,44.57,-620,5665,5750,0,-1,0
-30.18,-4.30,44.57,-616,5663,5747,-1,-1,0
-30.18,-4.29,44.57,-617,5655,5743,-1,-1,0
-30.19,-4.29,44.56,-621,5640,5744,-1,-1,0
-30.19,-4.29,44.56,-616,5645,5746,0,-1,-1
-30.18,-4.30,44.56,-621,5653,5747,0,0,-1
-30.18,-4.30,44.56,-618,5663,5754,-1,-1,0
-30.18,-4.30,44.56,-616,5663,5754,-1,0,0
-30.18,-4.30,44.56,-613,5655,5749,-1,0,0
-30.18,-4.30,44.56,-608,5647,5753,0,0,-1
-30.18,-4.30,44.56,-610,5650,5746,0,0,0
-30.18,-4.31,44.57,-616,5659,5737,0,0,0
-30.18,-4.31,44.57,-612,5664,5732,0,0,-1
-30.17,-4.31,44.58,-615,5665,5737,-1,0,-1
-30.17,-4.32,44.57,-618,5665,5735,-1,0,-1
-30.17,-4.32,44.57,-620,5665,5751,-1,-1,0
-30.17,-4.32,44.57,-621,5669,5744,-1,-1,0
-30.17,-4.32,44.58,-618,5671,5744,0,-1,0
-30.17,-4.32,44.58,-615,5665,5739,0,0,0
-30.17,-4.32,44.58,-611,5658,5735,0,0,0
-30.17,-4.32,44.58,-612,5657,5743,-1,0,-1
-30.17,-4.33,44.58,-623,5653,5743,-1,0,-1
-30.17,-4.33,44.58,-626,5660,5751,0,-1,-1
-30.16,-4.33,44.59,-625,5656,5753,0,-1,0
-30.15,-4.34,44.59,-628,5667,5750,0,-1,-1
-30.15,-4.34,44.59,-626,5667,5742,0,0,-1
-30.15,-4.34,44.59,-624,5659,5734,-1,0,0
-30.15,-4.34,44.59,-618,5659,5736,0,-1,0
-30.15,-4.34,44.60,-618,5654,5736,0,0,-1
-30.15,-4.34,44.60,-625,5661,5735,-1,0,-1
-30.15,-4.34,44.60,-625,5657,5732,-1,-1,0
-30.15,-4.35,44.60,-627,5661,5739,-1,0,0
-30.15,-4.35,44.60,-613,5659,5738,0,0,-1
-30.14,-4.36,44.60,-613,5658,5735,0,0,-1
-30.13,-4.36,44.61,-621,5666,5735,0,0,-1
-30.13,-4.37,44.62,-625,5672,5745,0,0,-1
-30.12,-4.38,44.62,-633,5671,5735,0,0,-1
-30.11,-4.38,44.62,-628,5665,5736,0,0,-1
-30.11,-4.39,44.62,-630,5663,5741,0,0,-1
-30.10,-4.39,44.63,-637,5670,5742,0,-1,-1
-30.09,-4.40,44.64,-627,5666,5735,0,0,-1
-30.09,-4.40,44.65,-633,5670,5731,0,0,-1
-30.08,-4.41,44.66,-632,5674,5722,0,0,-1
-30.08,-4.42,44.67,-631,5668,5717,0,0,-1
-30.07,-4.42,44.67,-634,5659,5718,0,-1,-1
-30.07,-4.43,44.67,-631,5666,5724,0,0,-1
-30.06,-4.43,44.67,-631,5667,5734,-1,-1,0
-30.06,-4.43,44.67,-631,5677,5736,-1,-1,0
-30.08,-4.42,44.66,-625,5670,5738,-1,0,0
-30.08,-4.42,44.65,-633,5658,5734,-1,-1,0
-30.09,-4.42,44.64,-629,5654,5736,-1,-1,0
-30.09,-4.42,44.64,-636,5652,5729,0,0,0
-30.09,-4.42,44.65,-635,5665,5732,0,0,-1
-30.09,-4.42,44.65,-635,5675,5730,0,0,0
-30.08,-4.42,44.66,-637,5684,5733,0,0,0
-30.08,-4.42,44.66,-638,5673,5726,-1,0,0
-30.08,-4.42,44.66,-638,5667,5728,0,0,0
-30.08,-4.43,44.67,-630,5666,5727,0,0,-1
-30.08,-4.43,44.67,-633,5673,5724,-1,0,0
-30.08,-4.43,44.67,-643,5677,5735,-1,-1,0
-30.09,-4.43,44.66,-634,5670,5729,-1,-1,0
-30.09,-4.43,44.66,-635,5668,5733,0,0,0
-30.09,-4.43,44.66,-631,5662,5739,0,-1,0
-30.08,-4.43,44.67,-632,5653,5731,0,-1,0
-30.08,-4.43,44.67,-634,5660,5734,0,0,-1
-30.07,-4.44,44.67,-641,5666,5736,0,0,-1
-30.06,-4.45,44.67,-643,5672,5732,0,0,-1
-30.07,-4.44,44.67,-638,5673,5738,0,-1,0
-30.07,-4.44,44.67,-635,5671,5738,-1,-1,0
-30.08,-4.43,44.67,-633,5659,5735,-1,-1,0
-30.08,-4.43,44.67,-627,5650,5731,-1,-1,0
-30.08,-4.43,44.67,-626,5657,5732,0,-1,-1
-30.08,-4.43,44.67,-634,5658,5741,0,-1,-1
-30.07,-4.44,44.67,-645,5661,5732,0,-1,-1
-30.06,-4.44,44.67,-648,5660,5747,0,-1,0
-30.06,-4.44,44.67,-657,5664,5747,0,-1,0
-30.06,-4.44,44.68,-648,5673,5736,0,-1,0
-30.06,-4.43,44.68,-645,5680,5727,-1,-1,0
-30.07,-4.43,44.68,-630,5674,5720,-1,-1,0
-30.07,-4.42,44.68,-631,5670,5726,-1,-1,0
-30.07,-4.42,44.68,-632,5666,5727,-1,0,0
-30.07,-4.42,44.67,-636,5668,5741,-1,-1,0
-30.08,-4.42,44.67,-643,5672,5742,-1,-1,0
-30.09,-4.41,44.67,-633,5667,5741,-1,-1,0
-30.09,-4.41,44.66,-623,5660,5732,-1,-1,0
-30.09,-4.41,44.66,-629,5664,5727,-1,-1,0
-30.10,-4.40,44.65,-627,5661,5730,-1,-1,0
-30.11,-4.40,44.65,-636,5659,5736,-1,0,0
-30.11,-4.40,44.65,-633,5671,5736,0,-1,0
-30.11,-4.40,44.65,-640,5672,5731,0,-1,0
-30.10,-4.40,44.65,-637,5672,5729,0,-1,0
-30.11,-4.39,44.65,-630,5675,5737,0,-1,0
-30.11,-4.39,44.65,-633,5671,5736,0,-1,0
-30.11,-4.39,44.65,-631,5670,5735,-1,-1,0
-30.10,-4.39,44.66,-636,5674,5722,-1,-1,0
-30.11,-4.39,44.65,-641,5667,5727,-1,-1,0
-30.11,-4.39,44.65,-633,5666,5726,0,-1,0
-30.10,-4.39,44.66,-629,5682,5730,-1,-1,0
-30.11,-4.39,44.65,-628,5670,5737,-1,-1,-1
-30.12,-4.39,44.64,-633,5652,5736,-1,-1,0
-30.12,-4.39,44.64,-632,5660,5741,0,0,0
-30.11,-4.39,44.65,-633,5668,5733,0,-1,-1
-30.11,-4.39,44.65,-637,5677,5739,0,-1,0
-30.12,-4.38,44.65,-626,5673,5738,-1,-1,0
-30.12,-4.38,44.65,-624,5661,5738,-1,-1,0
-30.12,-4.37,44.64,-626,5663,5750,0,-1,0
-30.12,-4.38,44.65,-628,5658,5743,0,-1,-1
-30.11,-4.38,44.65,-630,5662,5736,0,0,-1
-30.10,-4.39,44.66,-631,5674,5734,0,0,0
-30.10,-4.38,44.66,-634,5683,5726,-1,-1,0
-30.11,-4.37,44.66,-626,5677,5731,-1,-1,0
-30.11,-4.37,44.65,-628,5663,5740,-1,-1,0
-30.12,-4.37,44.65,-637,5676,5739,-1,-1,0
-30.13,-4.36,44.64,-627,5670,5731,-1,0,0
-30.14,-4.36,44.63,-634,5662,5735,-1,0,0
-30.14,-4.37,44.63,-637,5667,5742,-1,-1,0
-30.15,-4.36,44.62,-632,5667,5752,-1,-1,0
-30.16,-4.35,44.61,-632,5660,5748,-1,-1,0
-30.17,-4.34,44.60,-614,5650,5736,-1,-1,0
-30.18,-4.34,44.59,-613,5650,5740,-1,-1,0
-30.17,-4.34,44.59,-613,5656,5738,-1,0,-1
-30.17,-4.34,44.59,-625,5658,5738,-1,0,-1
-30.17,-4.34,44.59,-628,5661,5747,0,0,0
-30.17,-4.34,44.59,-636,5660,5748,0,-1,0
-30.17,-4.34,44.60,-634,5667,5740,0,-1,0
-30.17,-4.33,44.60,-622,5669,5744,0,-1,0
-30.17,-4.33,44.61,-613,5664,5732,-1,-1,0
-30.17,-4.33,44.61,-617,5658,5743,-1,0,0
-30.18,-4.33,44.60,-612,5661,5743,-1,0,0
-30.18,-4.33,44.60,-618,5652,5745,0,-1,0
-30.18,-4.32,44.60,-616,5656,5745,0,-1,0
-30.18,-4.32,44.61,-622,5672,5740,-1,-1,0
-30.19,-4.32,44.61,-625,5677,5738,-1,-1,0
-30.20,-4.30,44.60,-611,5662,5733,-1,0,0
-30.20,-4.31,44.60,-619,5665,5744,-1,0,0
-30.20,-4.31,44.59,-618,5662,5755,-1,-1,0
-30.20,-4.31,44.58,-624,5661,5763,0,0,-1
-30.20,-4.31,44.58,-627,5665,5752,0,-1,0
-30.20,-4.30,44.59,-617,5664,5743,0,-1,0
-30.20,-4.31,44.59,-619,5667,5747,-1,-1,0
-30.20,-4.31,44.59,-620,5667,5734,-1,-1,0
-30.21,-4.30,44.59,-609,5669,5739,-1,0,0
-30.21,-4.30,44.58,-615,5663,5745,-1,-1,0
-30.22,-4.30,44.57,-610,5667,5745,-1,-1,0
-30.23,-4.30,44.57,-610,5654,5754,-1,-1,0
-30.23,-4.30,44.56,-615,5653,5755,-1,-1,0
-30.24,-4.30,44.56,-614,5657,5754,-1,0,0
-30.25,-4.30,44.56,-613,5666,5747,-1,0,0
-30.25,-4.30,44.56,-616,5657,5745,-1,0,0
-30.25,-4.30,44.55,-625,5662,5748,-1,0,0
-30.26,-4.30,44.55,-627,5664,5752,-1,-1,0
-30.25,-4.29,44.55,-623,5659,5746,-1,-1,0
-30.26,-4.30,44.55,-622,5656,5749,0,0,0
-30.25,-4.29,44.55,-623,5660,5744,0,-1,0
-30.25,-4.29,44.56,-617,5662,5751,-1,0,0
-30.26,-4.30,44.55,-623,5658,5747,-1,-1,0
-30.26,-4.29,44.55,-620,5661,5742,-1,0,0
-30.26,-4.29,44.55,-626,5658,5750,-1,-1,0
-30.27,-4.28,44.55,-612,5655,5743,0,-1,0
-30.27,-4.28,44.55,-615,5660,5739,0,-1,0
-30.27,-4.28,44.55,-614,5664,5749,-1,-1,0
-30.28,-4.28,44.54,-613,5665,5743,-1,0,0
-30.28,-4.28,44.54,-613,5657,5738,-1,0,0
-30.29,-4.28,44.54,-619,5658,5740,-1,-1,0
-30.29,-4.28,44.54,-615,5661,5749,-1,-1,0
-30.30,-4.27,44.53,-606,5663,5754,-1,-1,0
-30.31,-4.26,44.53,-610,5662,5759,-1,-1,0
-30.33,-4.26,44.51,-613,5658,5761,-1,-1,0
-30.32,-4.26,44.50,-615,5655,5759,-1,-1,0
-30.33,-4.26,44.49,-615,5652,5769,-1,-1,0
-30.34,-4.25,44.48,-614,5648,5765,-1,-1,0
-30.35,-4.24,44.48,-619,5650,5760,-1,-1,0
-30.34,-4.24,44.49,-615,5645,5757,0,-1,0
-30.35,-4.24,44.49,-614,5646,5738,0,-1,0
-30.34,-4.24,44.49,-611,5640,5743,0,-1,0
-30.34,-4.24,44.49,-613,5653,5742,-1,0,0
-30.36,-4.24,44.49,-611,5654,5745,-1,-1,0
-30.36,-4.24,44.49,-611,5648,5750,-1,-1,0
-30.36,-4.24,44.49,-614,5652,5757,-1,-1,0
-30.37,-4.23,44.49,-604,5655,5755,-1,-1,0
-30.37,-4.23,44.49,-598,5653,5759,-1,-1,0
-30.37,-4.23,44.49,-593,5654,5757,0,0,-1
-30.35,-4.23,44.49,-602,5661,5753,-1,0,0
-30.35,-4.23,44.49,-602,5652,5753,-1,-1,-1
-30.35,-4.24,44.49,-606,5632,5761,-1,0,0
-30.35,-4.24,44.49,-604,5644,5756,0,-1,-1
-30.35,-4.24,44.50,-606,5651,5758,0,-1,-1
-30.33,-4.25,44.51,-611,5662,5751,0,0,0
-30.33,-4.25,44.51,-616,5667,5736,0,-1,0
-30.34,-4.24,44.51,-612,5663,5730,-1,-1,0
-30.34,-4.24,44.51,-609,5652,5732,-1,-1,0
-30.33,-4.25,44.51,-607,5651,5733,0,-1,-1
-30.33,-4.24,44.52,-610,5658,5729,0,0,0
-30.33,-4.25,44.52,-614,5661,5736,-1,0,-1
-30.33,-4.25,44.52,-618,5659,5738,-1,-1,0
-30.32,-4.26,44.53,-619,5651,5741,-1,-1,-1
-30.32,-4.26,44.53,-618,5656,5736,-1,-1,0
-30.32,-4.26,44.53,-609,5650,5730,-1,-1,0
-30.32,-4.26,44.53,-612,5649,5750,0,-1,-1
-30.32,-4.26,44.53,-612,5648,5749,0,0,-1
-30.31,-4.27,44.53,-618,5653,5753,0,0,-1
-30.31,-4.27,44.53,-625,5655,5747,-1,0,-1
-30.31,-4.28,44.52,-623,5657,5754,-1,0,0
-30.31,-4.28,44.52,-622,5653,5756,-1,-1,0
-30.31,-4.28,44.52,-615,5646,5747,0,-1,-1
-30.31,-4.28,44.52,-615,5649,5743,0,-1,-1
-30.30,-4.28,44.52,-613,5650,5745,0,0,-1
-30.30,-4.28,44.53,-611,5653,5741,0,0,-1
-30.29,-4.28,44.53,-611,5658,5742,-1,-1,-1
-30.29,-4.29,44.54,-616,5656,5747,-1,0,-1
-30.29,-4.29,44.53,-617,5640,5750,-1,-1,0
-30.30,-4.28,44.53,-607,5642,5754,0,-1,0
-30.30,-4.28,44.53,-609,5648,5742,0,0,0
-30.29,-4.28,44.53,-609,5656,5750,-1,-1,-1
-30.29,-4.28,44.53,-609,5652,5742,-1,0,-1
-30.29,-4.28,44.53,-612,5655,5742,-1,0,-1
-30.29,-4.29,44.54,-611,5655,5747,0,0,-1
-30.28,-4.30,44.54,-619,5657,5757,0,0,-1
-30.28,-4.30,44.54,-619,5657,5758,0,0,0
-30.28,-4.30,44.54,-611,5659,5750,0,0,-1
-30.28,-4.30,44.54,-609,5660,5743,0,-1,0
-30.28,-4.30,44.54,-618,5661,5743,0,0,-1
-30.28,-4.31,44.55,-623,5665,5743,0,0,-1
-30.28,-4.31,44.55,-625,5662,5739,-1,-1,-1
-30.28,-4.31,44.55,-619,5660,5749,-1,0,0
-30.28,-4.32,44.55,-621,5662,5754,0,-1,0
-30.28,-4.32,44.55,-619,5659,5752,0,0,-1
-30.27,-4.32,44.56,-618,5664,5746,0,0,-1
-30.26,-4.32,44.56,-613,5657,5745,0,0,-1
-30.26,-4.32,44.56,-621,5656,5750,0,-1,-1
-30.26,-4.33,44.56,-618,5651,5757,0,0,-1
-30.26,-4.33,44.56,-620,5653,5760,0,-1,-1
-30.25,-4.34,44.56,-625,5656,5753,0,0,-1
-30.25,-4.34,44.56,-620,5651,5760,0,0,0
-30.25,-4.34,44.56,-621,5649,5752,0,0,-1
-30.24,-4.35,44.57,-628,5659,5746,0,0,-1
-30.24,-4.34,44.57,-625,5666,5744,-1,0,0
-30.24,-4.35,44.57,-624,5666,5741,-1,0,0
-30.24,-4.35,44.57,-622,5661,5744,-1,0,0
-30.25,-4.35,44.56,-616,5640,5752,-1,0,-1
-30.25,-4.35,44.55,-617,5637,5739,0,0,-1
-30.25,-4.35,44.56,-617,5654,5731,0,0,0
-30.25,-4.36,44.57,-624,5674,5735,0,0,0
-30.25,-4.36,44.57,-624,5668,5745,-1,-1,-1
-30.25,-4.36,44.56,-627,5657,5755,-1,0,-1
-30.25,-4.37,44.55,-629,5630,5767,0,-1,-1
-30.24,-4.37,44.54,-633,5620,5767,0,0,-1
-30.23,-4.38,44.56,-630,5643,5761,0,0,-1
-30.22,-4.38,44.57,-621,5667,5747,0,0,-1
-30.22,-4.39,44.58,-609,5686,5738,0,0,0
-30.22,-4.39,44.59,-607,5691,5719,-1,0,-1
-30.22,-4.41,44.58,-624,5709,5728,-1,0,-1
-30.24,-4.42,44.55,-637,5687,5761,-2,0,-1
-30.24,-4.43,44.52,-659,5648,5766,-1,0,-1
-30.24,-4.43,44.51,-664,5634,5783,0,-1,-1
-30.24,-4.44,44.51,-665,5623,5787,0,-1,0
-30.24,-4.42,44.51,-629,5614,5769,0,-1,0
-30.22,-4.42,44.53,-615,5625,5731,0,0,-1
-30.21,-4.43,44.56,-613,5652,5725,0,0,-1
-30.20,-4.44,44.56,-616,5659,5718,0,0,-1
-30.19,-4.45,44.56,-625,5672,5726,0,0,-1
-30.18,-4.46,44.57,-638,5687,5745,0,0,-1
-30.18,-4.46,44.57,-646,5677,5738,-1,0,-1
-30.17,-4.47,44.56,-645,5654,5738,-1,0,-1
-30.16,-4.48,44.56,-643,5639,5737,-1,0,-1
-30.16,-4.50,44.54,-652,5638,5731,-1,0,-1
-30.16,-4.52,44.54,-657,5640,5733,-1,0,-1
-30.15,-4.54,44.53,-661,5660,5740,-1,0,-1
-30.14,-4.55,44.51,-654,5681,5745,-1,0,-1
-30.14,-4.56,44.51,-653,5689,5756,-1,0,-1
-30.15,-4.56,44.50,-651,5682,5756,-1,0,0
-30.16,-4.56,44.49,-647,5666,5749,-1,-1,0
-30.17,-4.56,44.48,-647,5642,5749,-1,0,-1
-30.16,-4.57,44.47,-648,5621,5749,-1,0,-1
-30.15,-4.58,44.47,-663,5628,5768,-1,0,-1
-30.15,-4.58,44.47,-660,5631,5768,0,0,-1
-30.14,-4.59,44.48,-673,5634,5764,0,0,0
-30.13,-4.58,44.51,-665,5664,5749,0,-1,0
-30.13,-4.57,44.54,-645,5691,5734,0,-1,0
-30.13,-4.55,44.55,-644,5696,5723,0,-1,0
-30.15,-4.52,44.55,-619,5679,5705,-1,-1,0
-30.18,-4.50,44.53,-624,5647,5712,-1,0,0
-30.20,-4.49,44.50,-645,5607,5755,-1,-1,0
-30.20,-4.50,44.49,-647,5579,5783,0,-1,-1
-30.17,-4.50,44.52,-671,5602,5797,1,-1,0
-30.14,-4.49,44.57,-663,5652,5780,1,-1,0
-30.13,-4.47,44.61,-635,5701,5734,0,-1,0
-30.13,-4.47,44.63,-630,5706,5695,-1,-1,-1
-30.13,-4.46,44.61,-611,5667,5666,-1,-1,-1
-30.13,-4.46,44.60,-614,5662,5674,-1,0,-1
-30.14,-4.47,44.58,-637,5675,5746,-1,-1,-1
-30.14,-4.47,44.56,-660,5673,5802,-1,-1,-1
-30.14,-4.47,44.56,-657,5646,5808,0,-1,0
-30.13,-4.45,44.61,-650,5656,5772,1,-1,0
-30.13,-4.42,44.65,-643,5680,5748,0,-1,0
-30.14,-4.40,44.64,-626,5674,5731,-1,-1,0
-30.16,-4.39,44.60,-595,5617,5693,-2,-1,-1
-30.17,-4.41,44.55,-572,5589,5678,-2,0,-2
-30.15,-4.46,44.50,-607,5615,5735,-2,1,-2
-30.14,-4.51,44.47,-633,5655,5803,-1,0,-2
-30.12,-4.56,44.46,-655,5656,5832,0,1,-2
-30.09,-4.59,44.49,-676,5688,5822,1,0,-1
-30.07,-4.60,44.55,-649,5739,5771,1,1,0
-30.09,-4.63,44.56,-629,5727,5698,-2,1,0
-30.15,-4.66,44.50,-589,5695,5635,-4,2,0
-30.29,-4.68,44.32,-690,5738,5593,-11,1,1
-30.58,-4.57,43.95,-862,5692,5782,-15,-7,6
-30.89,-4.33,43.58,-802,5742,5879,-12,-7,6
-31.10,-4.06,43.35,-721,5722,5930,-7,-8,5
-31.22,-3.82,43.22,-629,5630,5955,-4,-8,3
-31.32,-3.61,43.09,-546,5496,5923,-4,-7,2
-31.39,-3.44,42.99,-436,5366,5888,-3,-5,1
-31.44,-3.37,42.90,-382,5320,5880,-3,-1,0
-31.48,-3.34,42.79,-412,5343,5908,-4,-2,-1
-31.51,-3.32,42.65,-421,5457,5917,-6,-2,-2
-31.53,-3.33,42.50,-429,5542,5948,-7,-1,-2
-31.58,-3.33,42.30,-442,5553,5958,-8,-1,-3
-31.59,-3.37,42.12,-447,5524,5965,-7,-1,-3
-31.58,-3.42,41.97,-450,5453,5977,-6,0,-3
-31.58,-3.47,41.82,-462,5355,5948,-5,0,-3
-31.54,-3.53,41.70,-484,5292,5955,-4,-1,-3
-31.50,-3.58,41.62,-482,5315,5956,-3,0,-3
-31.48,-3.65,41.52,-490,5446,5993,-6,1,-3
-31.53,-3.72,41.32,-507,5516,6028,-10,1,-2
-31.62,-3.82,41.05,-479,5315,5984,-8,4,-3
-31.65,-3.96,40.92,-613,5255,6183,-3,3,-1
-31.69,-4.03,40.86,-649,5293,6265,-2,1,0
-31.75,-4.04,40.78,-622,5260,6205,-3,0,0
-31.82,-4.04,40.72,-597,5140,6123,-2,1,1
-31.84,-4.04,40.70,-570,5086,6088,0,0,0
-31.85,-4.05,40.71,-551,5109,6063,0,0,-1
-31.82,-4.08,40.73,-547,5181,6075,0,0,-1
-31.79,-4.12,40.74,-544,5261,6117,0,1,-2
-31.75,-4.16,40.75,-552,5335,6149,-1,0,-2
-31.71,-4.21,40.75,-572,5350,6141,0,1,-2
-31.70,-4.27,40.73,-592,5332,6116,-2,1,-2
-31.71,-4.32,40.70,-631,5305,6102,-2,1,-1
-31.73,-4.35,40.65,-642,5245,6090,-2,0,0
-31.76,-4.37,40.60,-642,5216,6095,-2,0,0
-31.79,-4.39,40.56,-629,5222,6123,-2,0,-1
-31.80,-4.41,40.53,-625,5232,6157,-2,0,-1
-31.82,-4.43,40.50,-630,5238,6177,-1,0,-1
-31.82,-4.46,40.48,-635,5218,6166,-1,0,-1
-31.81,-4.48,40.47,-623,5200,6136,-1,0,-1
-31.81,-4.51,40.47,-627,5207,6115,-1,1,-1
-31.79,-4.55,40.46,-640,5217,6132,-1,0,-1
-31.79,-4.58,40.45,-648,5240,6155,-1,0,-1
-31.78,-4.60,40.45,-654,5249,6177,0,0,-1
-31.77,-4.62,40.45,-661,5257,6192,0,0,-1
-31.78,-4.63,40.46,-665,5243,6171,0,0,-1
-31.77,-4.64,40.47,-671,5225,6129,0,0,0
-31.76,-4.65,40.50,-666,5227,6111,0,0,0
-31.76,-4.65,40.52,-664,5232,6107,0,0,0
-31.77,-4.65,40.52,-655,5260,6123,0,0,0
-31.77,-4.65,40.52,-651,5282,6125,-1,0,-1
-31.77,-4.65,40.52,-654,5286,6140,-1,0,-1
-31.77,-4.65,40.50,-666,5260,6157,-1,-1,0
-31.78,-4.64,40.50,-667,5243,6176,-1,-1,0
-31.78,-4.64,40.49,-672,5202,6170,0,-1,0
-31.78,-4.63,40.48,-656,5166,6142,0,-1,0
-31.77,-4.63,40.49,-649,5160,6118,0,0,-1
-31.77,-4.64,40.50,-641,5186,6124,0,0,-1
-31.76,-4.64,40.51,-639,5241,6135,0,0,-1
-31.75,-4.67,40.51,-646,5266,6143,-1,0,-1
-31.74,-4.68,40.51,-663,5259,6160,0,0,-1
-31.72,-4.70,40.52,-668,5267,6163,1,0,-1
-31.69,-4.71,40.59,-641,5342,6101,0,1,-1
-31.70,-4.74,40.57,-674,5228,6129,0,0,0
-31.70,-4.74,40.60,-676,5185,6098,2,0,0
-31.70,-4.73,40.67,-693,5226,6086,1,0,1
-31.71,-4.70,40.71,-688,5254,6089,1,-1,0
-31.68,-4.67,40.76,-666,5289,6098,1,-2,0
-31.67,-4.65,40.80,-650,5335,6115,0,-1,0
-31.67,-4.64,40.80,-659,5342,6144,-1,-1,0
-31.68,-4.65,40.76,-667,5289,6148,-2,0,-1
-31.69,-4.66,40.73,-681,5242,6164,-1,0,-1
-31.69,-4.67,40.70,-689,5185,6160,-1,-1,-1
-31.67,-4.68,40.70,-687,5163,6146,0,0,-1
-31.65,-4.69,40.73,-687,5180,6125,1,-1,-1
-31.62,-4.68,40.77,-679,5221,6118,1,-1,-1
-31.60,-4.66,40.80,-649,5268,6098,0,-1,-1
-31.58,-4.66,40.81,-647,5294,6087,-1,-1,-1
-31.57,-4.68,40.80,-635,5284,6071,-1,0,-1
-31.56,-4.70,40.79,-632,5273,6051,-1,0,-1
-31.54,-4.73,40.77,-645,5279,6062,-1,0,-1
-31.55,-4.75,40.75,-655,5294,6090,-1,0,-1
-31.53,-4.77,40.72,-674,5304,6107,-1,0,-1
-31.53,-4.79,40.70,-696,5301,6132,-1,0,-1
-31.53,-4.81,40.67,-696,5265,6145,-1,0,-1
-31.54,-4.82,40.64,-695,5239,6140,-1,0,-1
-31.54,-4.83,40.64,-704,5221,6146,0,0,-1
-31.53,-4.83,40.65,-698,5249,6142,0,-1,0
-31.53,-4.83,40.65,-695,5265,6152,0,-1,0
-31.52,-4.82,40.66,-693,5267,6161,0,-1,-1
-31.52,-4.81,40.67,-677,5265,6138,0,-1,-1
-31.50,-4.82,40.68,-674,5271,6119,0,0,-1
-31.49,-4.82,40.68,-683,5263,6116,-1,-1,-1
-31.49,-4.83,40.67,-683,5261,6088,-1,0,-1
-31.49,-4.83,40.65,-688,5266,6097,-1,-1,-1
-31.49,-4.84,40.63,-702,5287,6111,-2,-1,-1
-31.51,-4.84,40.59,-692,5275,6139,-2,-1,-1
-31.52,-4.84,40.53,-689,5240,6138,-2,-1,-1
-31.54,-4.84,40.50,-684,5187,6118,-1,0,-1
-31.53,-4.84,40.49,-676,5190,6117,0,0,-1
-31.52,-4.85,40.50,-668,5229,6110,0,0,-1
-31.52,-4.85,40.51,-674,5257,6121,0,0,-1
-31.50,-4.86,40.51,-679,5269,6126,0,-1,-1
-31.49,-4.86,40.52,-678,5265,6112,0,0,-1
-31.48,-4.87,40.52,-668,5250,6098,0,0,-1
-31.46,-4.88,40.53,-675,5263,6098,-1,0,-1
-31.46,-4.90,40.52,-706,5258,6132,-1,0,-1
-31.45,-4.92,40.50,-724,5267,6180,-1,-1,-1
-31.44,-4.92,40.48,-727,5246,6208,-1,-1,-1
-31.42,-4.93,40.48,-725,5221,6218,0,-1,-1
-31.41,-4.92,40.49,-725,5195,6201,1,-1,0
-31.40,-4.91,40.52,-724,5187,6173,1,-1,0
-31.37,-4.90,40.56,-707,5201,6134,1,-1,-1
-31.36,-4.90,40.58,-690,5215,6100,0,-1,-1
-31.34,-4.91,40.59,-685,5231,6087,0,0,-1
-31.34,-4.92,40.57,-680,5229,6108,-1,0,-1
-31.33,-4.92,40.58,-666,5233,6104,0,0,-1
-31.31,-4.94,40.59,-667,5247,6098,0,0,-1
-31.28,-4.97,40.59,-681,5270,6099,-1,0,-2
-31.27,-5.01,40.57,-685,5261,6098,-2,0,-2
-31.27,-5.06,40.52,-692,5239,6098,-2,1,-2
-31.25,-5.13,40.48,-706,5221,6118,-2,1,-2
-31.23,-5.19,40.43,-749,5231,6184,-2,1,-2
-31.21,-5.26,40.39,-804,5230,6236,-1,0,-2
-31.19,-5.30,40.37,-837,5198,6260,0,-1,-1
-31.14,-5.31,40.39,-836,5177,6244,1,-1,-1
-31.11,-5.28,40.46,-807,5191,6173,2,-2,0
-31.09,-5.24,40.55,-754,5255,6096,2,-2,0
-31.07,-5.19,40.62,-714,5311,6028,1,-1,0
-31.07,-5.17,40.64,-681,5337,6009,-1,-1,-1
-31.08,-5.16,40.61,-673,5314,6039,-2,0,-1
-31.08,-5.18,40.57,-696,5263,6101,-2,0,-1
-31.07,-5.20,40.55,-721,5227,6136,-1,0,-1
-31.06,-5.21,40.56,-751,5205,6176,1,0,-1
-31.03,-5.21,40.59,-764,5199,6186,1,-1,0
-31.02,-5.19,40.65,-754,5209,6158,2,-1,0
-31.00,-5.16,40.71,-732,5231,6120,1,-1,0
-30.99,-5.15,40.75,-718,5246,6080,0,-1,0
-30.98,-5.15,40.75,-716,5253,6062,-1,0,-1
-30.97,-5.18,40.73,-729,5253,6094,-1,0,-1
-30.96,-5.20,40.71,-756,5256,6148,-1,0,-1
-30.95,-5.21,40.72,-758,5260,6157,0,-1,-1
-30.94,-5.21,40.74,-750,5281,6124,0,-1,0
-30.93,-5.19,40.75,-733,5303,6078,-1,-1,0
-30.95,-5.20,40.72,-723,5288,6056,-3,0,-1
-30.98,-5.21,40.64,-722,5219,6079,-3,0,-1
-30.99,-5.24,40.57,-737,5172,6128,-2,0,-1
-30.98,-5.25,40.55,-745,5186,6176,0,0,-1
-30.95,-5.27,40.58,-751,5240,6205,1,-1,-1
-30.91,-5.27,40.63,-765,5285,6196,1,-1,-1
-30.89,-5.26,40.69,-777,5285,6153,1,-1,0
-30.86,-5.25,40.74,-774,5270,6111,1,-1,0
-30.85,-5.24,40.78,-764,5261,6079,1,-1,0
-30.85,-5.21,40.81,-749,5274,6065,0,-1,0
-30.86,-5.18,40.82,-734,5293,6087,0,-1,0
-30.87,-5.15,40.82,-726,5308,6105,-1,-1,0
-30.89,-5.13,40.83,-711,5305,6108,0,-1,0
-30.90,-5.10,40.82,-702,5279,6099,-1,-1,0
-30.92,-5.09,40.81,-696,5247,6076,-1,-1,0
-30.93,-5.08,40.80,-694,5227,6070,-1,0,0
-30.94,-5.08,40.80,-690,5233,6055,-1,0,-1
-30.94,-5.09,40.78,-703,5247,6081,-1,0,-1
-30.94,-5.10,40.76,-721,5265,6127,-1,0,-1
-30.94,-5.11,40.74,-724,5263,6151,-1,0,-1
-30.93,-5.12,40.74,-740,5242,6160,0,0,-1
-30.92,-5.13,40.75,-746,5238,6149,0,-1,-1
-30.89,-5.14,40.78,-746,5245,6121,1,-1,-1
-30.88,-5.14,40.80,-739,5261,6099,0,0,-1
-30.87,-5.15,40.81,-746,5285,6087,-1,0,-1
-30.86,-5.16,40.80,-743,5301,6093,-1,0,-1
-30.86,-5.17,40.78,-747,5311,6111,-1,-1,-1
-30.87,-5.17,40.75,-751,5303,6126,-1,-1,-1
-30.87,-5.16,40.73,-747,5283,6127,-1,-1,0
-30.88,-5.14,40.72,-733,5257,6123,0,-1,0
-30.88,-5.12,40.72,-721,5245,6100,0,-1,0
-30.89,-5.09,40.74,-698,5255,6094,0,-1,0
-30.88,-5.07,40.76,-679,5254,6066,0,-1,0
-30.89,-5.05,40.77,-672,5267,6061,0,-1,0
-30.89,-5.06,40.77,-680,5269,6070,-1,0,-1
-30.88,-5.07,40.78,-695,5275,6074,0,0,-1
-30.88,-5.08,40.77,-716,5277,6099,-1,0,-1
-30.87,-5.09,40.77,-737,5271,6121,-1,0,0
-30.88,-5.08,40.75,-745,5246,6143,-1,-1,0
-30.88,-5.08,40.75,-740,5242,6128,0,-1,0
-30.87,-5.08,40.76,-744,5244,6120,0,-1,-1
-30.88,-5.08,40.75,-740,5257,6119,0,-1,0
-30.88,-5.07,40.75,-733,5268,6126,-1,-1,0
-30.88,-5.07,40.75,-728,5272,6121,-1,-1,0
-30.88,-5.06,40.74,-723,5269,6135,-1,-1,0
-30.88,-5.05,40.73,-724,5256,6126,0,-1,0
-30.89,-5.04,40.73,-722,5248,6116,0,-1,0
-30.88,-5.03,40.74,-709,5251,6108,0,-1,0
-30.89,-5.02,40.75,-698,5254,6085,0,-1,0
-30.88,-5.02,40.76,-693,5263,6075,0,-1,0
-30.87,-5.02,40.77,-692,5266,6073,-1,0,-1
-30.87,-5.02,40.77,-696,5267,6078,-1,0,-1
-30.88,-5.02,40.76,-696,5263,6091,-1,0,-1
-30.89,-5.02,40.75,-701,5258,6100,-1,0,-1
-30.88,-5.03,40.74,-710,5260,6112,-1,0,-1
-30.89,-5.03,40.73,-715,5265,6128,-1,0,-1
-30.89,-5.03,40.72,-724,5264,6132,-1,0,-1
-30.89,-5.04,40.70,-730,5256,6147,-1,0,-1
-30.90,-5.04,40.70,-736,5249,6144,-1,-1,0
-30.90,-5.04,40.69,-736,5244,6144,0,-1,0
-30.90,-5.02,40.70,-727,5246,6146,0,-1,0
-30.90,-5.01,40.71,-715,5246,6124,0,-1,0
-30.89,-5.00,40.73,-703,5262,6112,0,-1,0
-30.89,-4.99,40.73,-696,5264,6105,0,-1,0
-30.89,-4.99,40.74,-696,5262,6098,0,0,0
-30.88,-4.99,40.74,-700,5268,6101,0,-1,-1
-30.88,-5.00,40.75,-705,5267,6098,0,-1,-1
-30.88,-5.00,40.75,-707,5276,6097,-1,0,-1
-30.88,-5.00,40.74,-708,5278,6101,-1,0,0
-30.89,-5.00,40.73,-711,5271,6104,-1,0,0
-30.89,-5.00,40.73,-722,5268,6113,-1,0,0
-30.89,-5.01,40.71,-719,5254,6112,-1,0,-1
-30.90,-5.01,40.71,-720,5255,6113,-1,0,-1
-30.90,-5.02,40.70,-726,5247,6131,-1,0,-1
-30.90,-5.02,40.70,-725,5248,6136,-1,-1,0
-30.91,-5.01,40.69,-720,5250,6130,0,-1,0
-30.91,-5.01,40.69,-721,5246,6124,0,-1,0
-30.90,-5.00,40.70,-713,5240,6115,0,-1,0
-30.90,-4.99,40.71,-701,5260,6116,0,-1,0
-30.90,-4.99,40.71,-700,5261,6110,0,-1,0
-30.89,-4.99,40.72,-698,5254,6108,0,-1,0
-30.89,-4.99,40.72,-706,5252,6109,0,0,0
-30.89,-4.99,40.73,-706,5257,6098,0,0,-1
-30.89,-4.99,40.73,-700,5266,6099,-1,0,0
-30.90,-4.98,40.72,-709,5268,6105,-1,0,0
-30.90,-4.99,40.71,-712,5261,6111,-1,0,0
-30.90,-4.99,40.71,-711,5256,6113,-1,0,0
-30.90,-4.99,40.71,-712,5261,6117,0,-1,-1
-30.90,-4.99,40.71,-715,5265,6118,-1,0,-1
-30.90,-5.00,40.70,-714,5261,6118,-1,0,0
-30.92,-5.00,40.69,-722,5248,6139,-1,-1,0
-30.91,-5.00,40.69,-713,5250,6132,0,-1,-1
-30.91,-5.00,40.69,-714,5257,6135,0,-1,-1
-30.91,-5.00,40.69,-720,5259,6125,0,-1,0
-30.91,-4.99,40.70,-712,5260,6117,0,-1,0
-30.90,-4.99,40.71,-704,5274,6110,0,-1,0
-30.90,-4.98,40.72,-693,5279,6114,-1,-1,-1
-30.91,-4.98,40.71,-699,5261,6109,-1,0,-1
-30.91,-4.98,40.70,-702,5253,6103,-1,0,0
-30.91,-4.98,40.70,-706,5255,6114,0,0,0
-30.91,-4.98,40.71,-705,5270,6125,0,-1,0
-30.91,-4.98,40.71,-697,5278,6118,-1,-1,0
-30.92,-4.97,40.70,-706,5262,6117,-1,0,0
-30.93,-4.98,40.69,-703,5238,6110,-1,0,-1
-30.93,-4.98,40.69,-702,5218,6118,0,0,-1
-30.92,-4.98,40.69,-705,5236,6123,0,0,-1
-30.91,-4.99,40.70,-713,5264,6128,0,0,-1
-30.91,-4.99,40.70,-719,5269,6132,-1,-1,0
-30.92,-4.98,40.69,-715,5247,6132,0,-1,0
-30.92,-4.98,40.69,-712,5233,6118,0,-1,0
-30.92,-4.98,40.70,-698,5235,6110,0,-1,0
-30.92,-4.97,40.71,-697,5260,6103,0,0,0
-30.92,-4.97,40.72,-697,5278,6090,0,0,-1
-30.91,-4.98,40.72,-700,5278,6093,-1,-1,-1
-30.92,-4.97,40.71,-701,5262,6097,-1,0,0
-30.93,-4.97,40.70,-706,5243,6111,-1,-1,0
-30.93,-4.97,40.70,-697,5254,6107,0,-1,0
-30.93,-4.97,40.71,-697,5257,6105,0,0,-1
-30.93,-4.97,40.71,-709,5256,6106,-1,0,0
-30.93,-4.97,40.70,-710,5255,6116,-1,0,0
-30.94,-4.97,40.70,-709,5256,6123,-1,0,0
-30.94,-4.97,40.70,-712,5253,6117,0,-1,0
-30.94,-4.97,40.70,-709,5259,6115,0,0,0
-30.95,-4.98,40.70,-704,5263,6118,-1,0,0
-30.95,-4.97,40.70,-707,5258,6113,-1,0,0
-30.95,-4.97,40.70,-713,5259,6112,-1,-1,0
-30.96,-4.96,40.69,-706,5278,6116,-1,-1,0
-30.97,-4.96,40.69,-696,5273,6125,-1,-1,0
-30.99,-4.95,40.67,-692,5253,6124,-1,0,0
-30.99,-4.94,40.66,-691,5251,6120,-1,-1,0
-30.99,-4.94,40.66,-686,5248,6119,-1,-1,0
-31.00,-4.94,40.66,-687,5250,6114,0,0,0
-31.01,-4.93,40.66,-683,5261,6116,0,0,0
-31.01,-4.93,40.66,-685,5259,6121,-1,0,0
-31.02,-4.93,40.66,-694,5255,6119,-1,0,0
-31.02,-4.93,40.65,-693,5249,6121,-1,-1,0
-31.03,-4.92,40.65,-698,5246,6108,0,0,0
-31.03,-4.92,40.65,-694,5263,6124,-1,-1,0
-31.04,-4.91,40.64,-693,5265,6112,-1,0,0
-31.06,-4.91,40.63,-697,5239,6108,-1,-1,0
-31.06,-4.90,40.62,-691,5229,6121,-1,-1,-1
-31.06,-4.90,40.62,-693,5242,6128,-1,0,0
-31.06,-4.91,40.62,-705,5249,6138,-1,-1,0
-31.07,-4.90,40.62,-702,5258,6133,0,-1,0
-31.08,-4.89,40.61,-696,5257,6127,-1,-1,0
-31.08,-4.89,40.61,-686,5252,6125,-1,-1,0
-31.09,-4.88,40.61,-691,5247,6115,-1,0,0
-31.09,-4.88,40.60,-685,5247,6115,-1,-1,0
-31.09,-4.88,40.60,-689,5244,6115,-1,-1,0
-31.09,-4.87,40.60,-691,5246,6114,-1,-1,0
-31.09,-4.88,40.59,-697,5246,6138,-1,-1,0
-31.09,-4.87,40.59,-695,5241,6149,0,-1,0
-31.09,-4.87,40.59,-683,5235,6141,0,-1,0
-31.09,-4.87,40.58,-688,5237,6138,0,-1,-1
-31.09,-4.87,40.59,-690,5236,6131,0,-1,-1
-31.08,-4.87,40.59,-685,5234,6126,0,-1,-1
-31.07,-4.87,40.59,-688,5235,6133,0,0,-1
-31.06,-4.87,40.60,-689,5240,6121,0,-1,-1
-31.05,-4.88,40.62,-688,5248,6122,0,-1,-1
-31.04,-4.88,40.63,-684,5263,6123,0,0,-1
-31.05,-4.89,40.62,-692,5253,6129,-1,-1,-1
-31.04,-4.88,40.62,-687,5243,6117,0,-1,-1
-31.03,-4.89,40.63,-686,5242,6117,0,0,-1
-31.03,-4.89,40.63,-698,5250,6125,0,-1,-1
-31.03,-4.89,40.64,-696,5260,6127,0,-1,-1
-31.02,-4.88,40.64,-695,5258,6126,0,-1,-1
-31.02,-4.88,40.64,-695,5267,6116,0,0,-1
-31.02,-4.89,40.64,-694,5265,6111,-1,0,-1
-31.02,-4.89,40.64,-698,5260,6107,-1,0,-1
-31.01,-4.90,40.64,-695,5246,6118,0,0,-1
-31.01,-4.90,40.64,-693,5254,6128,0,-1,0
-31.01,-4.90,40.65,-695,5260,6133,0,-1,0
-31.01,-4.90,40.65,-694,5260,6127,0,-1,-1
-31.01,-4.90,40.65,-690,5247,6117,0,0,-1
-31.00,-4.90,40.65,-687,5240,6122,0,0,-1
-31.00,-4.90,40.65,-696,5244,6125,0,0,-1
-30.99,-4.91,40.65,-703,5256,6123,0,0,-1
-30.99,-4.92,40.65,-711,5255,6118,-1,0,-1
-30.99,-4.92,40.65,-712,5255,6120,0,-1,-1
-30.98,-4.92,40.66,-703,5258,6122,0,0,-1
-30.98,-4.92,40.66,-700,5251,6122,-1,0,0
-30.99,-4.92,40.65,-697,5234,6117,0,-1,-1
-30.98,-4.92,40.65,-693,5236,6111,0,0,-1
-30.98,-4.93,40.66,-703,5247,6106,0,0,-1
-30.97,-4.93,40.66,-709,5259,6117,-1,0,-1
-30.97,-4.93,40.66,-703,5261,6125,0,-1,0
-30.97,-4.93,40.66,-707,5258,6120,-1,-1,0
-30.98,-4.93,40.66,-701,5239,6120,-1,0,-1
-30.97,-4.94,40.66,-698,5238,6115,0,0,-1
-30.97,-4.95,40.66,-700,5247,6117,0,0,-1
-30.97,-4.95,40.66,-704,5259,6129,0,0,-1
-30.96,-4.95,40.67,-705,5263,6129,0,0,-1
-30.95,-4.95,40.67,-706,5265,6125,0,0,-1
-30.96,-4.95,40.67,-703,5267,6130,0,0,-1
-30.95,-4.95,40.67,-703,5258,6133,0,0,-1
-30.95,-4.96,40.67,-699,5256,6126,0,0,-1
-30.95,-4.96,40.68,-707,5260,6118,0,0,-1
-30.95,-4.97,40.67,-705,5262,6124,-1,0,-1
-30.94,-4.97,40.68,-702,5261,6126,0,0,-1
-30.93,-4.98,40.68,-703,5259,6131,0,0,-1
-30.93,-4.98,40.68,-708,5253,6123,-1,0,0
-30.94,-4.98,40.68,-710,5237,6117,0,0,-1
-30.93,-4.99,40.68,-705,5252,6121,0,0,-1
-30.92,-4.99,40.70,-704,5257,6113,0,0,-1
-30.92,-5.00,40.70,-707,5266,6107,-1,0,-1
-30.92,-5.00,40.70,-706,5264,6111,0,0,0
-30.92,-5.00,40.70,-709,5264,6114,-1,0,0
-30.93,-5.00,40.69,-713,5254,6128,-1,0,-1
-30.93,-5.00,40.69,-702,5255,6122,0,0,-1
-30.92,-5.01,40.69,-703,5249,6112,0,0,-1
-30.92,-5.02,40.70,-709,5252,6109,0,0,-1
-30.91,-5.02,40.70,-712,5253,6108,0,0,-1
-30.90,-5.03,40.70,-714,5263,6116,0,0,-1
-30.90,-5.03,40.71,-717,5265,6119,0,0,-1
-30.90,-5.03,40.71,-720,5259,6115,0,0,-1
-30.90,-5.03,40.71,-712,5265,6114,0,0,0
-30.89,-5.04,40.72,-712,5261,6105,0,0,-1
-30.89,-5.05,40.72,-720,5267,6108,0,0,-1
-30.88,-5.05,40.72,-714,5265,6111,0,0,-1
-30.88,-5.06,40.73,-718,5267,6111,0,0,-1
-30.88,-5.06,40.72,-724,5265,6109,-1,0,-1
-30.88,-5.06,40.72,-725,5253,6123,-1,0,0
-30.89,-5.06,40.71,-719,5247,6119,0,0,0
-30.88,-5.07,40.72,-722,5245,6115,0,0,-1
-30.88,-5.08,40.73,-723,5255,6105,0,0,-1
-30.88,-5.08,40.73,-721,5256,6100,0,0,0
-30.88,-5.08,40.73,-718,5261,6105,0,0,-1
-30.88,-5.08,40.73,-723,5264,6113,0,0,-1
-30.88,-5.09,40.73,-722,5267,6108,0,0,-1
-30.87,-5.09,40.74,-721,5269,6100,0,0,-1
-30.87,-5.10,40.75,-722,5270,6093,0,0,-1
-30.87,-5.10,40.75,-721,5268,6098,-1,0,-1
-30.87,-5.10,40.75,-727,5262,6111,-1,0,-1
-30.87,-5.11,40.74,-728,5256,6121,-1,0,-1
-30.87,-5.11,40.73,-721,5255,6112,0,0,-1
-30.87,-5.11,40.74,-722,5259,6104,0,0,-1
-30.86,-5.11,40.74,-720,5251,6113,0,0,-1
-30.86,-5.12,40.75,-725,5253,6106,0,0,-1
-30.86,-5.12,40.76,-725,5256,6110,0,0,-1
-30.85,-5.13,40.76,-717,5262,6100,0,0,-1
-30.83,-5.14,40.78,-723,5279,6105,0,0,-1
-30.83,-5.14,40.78,-729,5277,6113,0,0,-1
-30.83,-5.14,40.78,-730,5268,6098,-1,0,0
-30.82,-5.15,40.78,-735,5263,6104,0,0,-1
-30.81,-5.15,40.79,-731,5264,6095,0,0,-1
-30.80,-5.16,40.80,-736,5270,6099,0,0,-1
-30.80,-5.16,40.80,-740,5269,6105,0,-1,-1
-30.80,-5.16,40.80,-730,5270,6109,0,-1,-1
-30.79,-5.16,40.80,-733,5273,6112,0,-1,-1
-30.79,-5.16,40.80,-729,5262,6106,0,-1,-1
-30.77,-5.17,40.81,-734,5266,6114,0,0,-1
-30.78,-5.17,40.81,-736,5262,6120,0,0,-1
-30.77,-5.17,40.81,-735,5265,6112,0,-1,-1
-30.77,-5.17,40.81,-738,5270,6104,0,-1,-1
-30.77,-5.17,40.82,-732,5270,6101,0,-1,0
-30.76,-5.17,40.83,-732,5263,6107,0,-1,-1
-30.76,-5.17,40.83,-730,5271,6105,0,0,-1
-30.75,-5.17,40.83,-734,5267,6103,-1,0,-1
-30.75,-5.17,40.82,-732,5268,6100,-1,-1,0
-30.76,-5.17,40.82,-736,5273,6106,-1,-1,0
-30.76,-5.16,40.82,-733,5279,6111,-1,-1,0
-30.76,-5.16,40.82,-740,5272,6106,-1,-1,0
-30.77,-5.15,40.81,-726,5266,6102,-1,-1,0
-30.76,-5.15,40.81,-727,5256,6091,0,-1,-1
-30.76,-5.15,40.81,-730,5262,6101,0,0,-1
-30.75,-5.15,40.81,-731,5272,6110,0,-1,-1
-30.76,-5.15,40.81,-737,5272,6111,-1,0,0
-30.76,-5.14,40.81,-738,5268,6115,-1,-1,0
-30.76,-5.14,40.81,-740,5261,6109,0,-1,0
-30.76,-5.14,40.82,-736,5268,6108,0,-1,0
-30.77,-5.13,40.81,-732,5272,6108,-1,-1,0
-30.77,-5.13,40.81,-728,5273,6107,-1,-1,0
-30.77,-5.13,40.80,-732,5273,6113,-1,0,0
-30.78,-5.13,40.80,-736,5260,6110,-1,-1,0
-30.78,-5.13,40.80,-734,5260,6116,-1,0,0
-30.79,-5.13,40.79,-735,5263,6112,-1,-1,0
-30.79,-5.12,40.79,-732,5266,6107,0,-1,0
-30.79,-5.12,40.79,-725,5269,6102,0,-1,0
-30.79,-5.11,40.79,-719,5270,6104,-1,-1,0
-30.79,-5.11,40.79,-720,5265,6116,0,-1,-1
-30.79,-5.11,40.79,-722,5262,6107,0,0,-1
-30.79,-5.11,40.79,-729,5268,6113,0,-1,0
-30.79,-5.11,40.79,-726,5275,6111,0,-1,0
-30.79,-5.11,40.79,-727,5269,6097,-1,-1,0
-30.79,-5.11,40.79,-724,5265,6101,-1,-1,0
-30.80,-5.11,40.79,-722,5271,6114,-1,-1,0
-30.80,-5.10,40.79,-724,5266,6119,-1,0,-1
-30.81,-5.10,40.78,-729,5268,6119,-1,-1,0
-30.81,-5.10,40.78,-724,5261,6120,-1,-1,0
-30.81,-5.10,40.78,-726,5262,6116,0,-1,-1
-30.81,-5.10,40.78,-727,5270,6112,0,-1,0
-30.80,-5.10,40.77,-722,5264,6113,0,-1,0
-30.81,-5.10,40.77,-730,5252,6124,-1,0,0
-30.81,-5.10,40.77,-724,5251,6117,0,-1,-1
-30.80,-5.10,40.77,-719,5266,6113,0,0,0
-30.81,-5.10,40.78,-719,5272,6108,-1,0,0
-30.81,-5.09,40.77,-721,5279,6105,-1,-1,0
-30.82,-5.09,40.77,-717,5278,6099,-1,-1,0
-30.82,-5.08,40.77,-714,5266,6106,-1,-1,0
-30.82,-5.08,40.76,-715,5258,6114,0,-1,0
-30.83,-5.08,40.76,-714,5262,6115,-1,-1,0
-30.83,-5.08,40.76,-718,5264,6101,-1,0,0
-30.83,-5.08,40.76,-718,5259,6104,-1,-1,0
-30.83,-5.07,40.76,-713,5260,6108,-1,-1,0
-30.84,-5.07,40.76,-711,5265,6105,-1,-1,0
