Yaw,Pitch,Roll,AX,AY,AZ,GX,GY,GZ
177.51,-3.39,-43.07,-483,-5655,6054,0,-1,0
177.50,-3.39,-43.07,-489,-5657,6058,-1,0,0
177.51,-3.39,-43.07,-491,-5661,6061,-1,0,-1
177.51,-3.39,-43.07,-485,-5664,6062,-1,-1,-1
177.51,-3.38,-43.07,-482,-5665,6052,-1,0,-1
177.51,-3.39,-43.08,-483,-5671,6047,-1,0,0
177.51,-3.39,-43.09,-481,-5672,6054,-1,0,-1
177.51,-3.39,-43.09,-485,-5675,6055,-1,0,0
177.51,-3.39,-43.09,-491,-5674,6055,-1,0,-1
177.51,-3.39,-43.09,-490,-5672,6052,0,-1,-1
177.51,-3.39,-43.10,-491,-5671,6053,-1,-1,-1
177.51,-3.39,-43.09,-486,-5672,6051,-1,0,-1
177.51,-3.39,-43.10,-485,-5671,6060,-1,0,-1
177.51,-3.39,-43.10,-486,-5671,6055,-1,0,-1
177.51,-3.39,-43.11,-488,-5669,6055,-1,0,-1
177.52,-3.39,-43.11,-485,-5665,6049,-1,0,0
177.52,-3.39,-43.11,-488,-5656,6052,-1,0,0
177.51,-3.40,-43.11,-490,-5658,6046,-1,0,-1
177.52,-3.40,-43.12,-495,-5669,6045,-1,0,-1
177.52,-3.41,-43.13,-501,-5684,6042,-1,0,-1
177.52,-3.41,-43.13,-497,-5681,6042,0,-1,-1
177.52,-3.41,-43.13,-486,-5671,6042,-1,-1,0
177.52,-3.41,-43.14,-484,-5668,6039,-1,0,0
177.52,-3.41,-43.14,-475,-5679,6047,0,0,0
177.52,-3.42,-43.14,-490,-5678,6048,-1,0,0
177.51,-3.42,-43.14,-499,-5674,6059,-1,0,0
177.50,-3.43,-43.14,-508,-5672,6051,-1,0,0
177.50,-3.44,-43.15,-513,-5684,6046,-1,-1,0
177.50,-3.44,-43.15,-511,-5685,6042,0,-1,0
177.50,-3.43,-43.15,-499,-5688,6034,0,-1,-1
177.50,-3.43,-43.14,-492,-5682,6028,0,-1,0
177.50,-3.42,-43.14,-486,-5667,6034,0,-1,0
177.50,-3.43,-43.12,-482,-5660,6040,0,-1,0
177.50,-3.43,-43.12,-483,-5657,6044,0,0,0
177.50,-3.43,-43.12,-487,-5662,6046,0,0,0
177.50,-3.43,-43.12,-489,-5663,6047,0,0,0
177.50,-3.43,-43.12,-494,-5674,6043,0,-1,0
177.50,-3.43,-43.11,-500,-5677,6036,0,0,0
177.50,-3.43,-43.11,-498,-5677,6041,0,0,-1
177.50,-3.43,-43.10,-496,-5677,6046,0,-1,-1
177.50,-3.42,-43.09,-500,-5672,6045,0,-1,-1
177.49,-3.42,-43.08,-500,-5668,6054,0,-1,-1
177.50,-3.42,-43.08,-494,-5670,6059,0,-1,-1
177.50,-3.42,-43.08,-486,-5664,6062,0,0,0
177.50,-3.42,-43.08,-487,-5662,6061,0,0,0
177.49,-3.42,-43.07,-488,-5660,6064,-1,0,0
177.49,-3.42,-43.07,-492,-5665,6055,-1,0,0
177.49,-3.42,-43.07,-491,-5665,6055,0,0,0
177.49,-3.43,-43.07,-488,-5673,6047,0,0,0
177.49,-3.43,-43.06,-498,-5678,6054,0,-1,0
177.49,-3.43,-43.06,-500,-5681,6052,0,-1,-1
177.49,-3.43,-43.05,-503,-5683,6053,0,-1,-1
177.49,-3.43,-43.05,-501,-5674,6060,0,-1,-1
177.49,-3.42,-43.04,-500,-5674,6067,0,-1,0
177.49,-3.42,-43.03,-485,-5659,6070,0,0,0
177.50,-3.42,-43.02,-480,-5652,6071,0,0,0
177.50,-3.42,-43.02,-481,-5645,6060,0,0,0
177.49,-3.43,-43.02,-491,-5652,6058,-1,0,0
177.49,-3.43,-43.02,-497,-5661,6057,0,0,0
177.49,-3.43,-43.02,-495,-5661,6056,0,-1,-1
177.49,-3.43,-43.02,-493,-5666,6044,0,0,0
177.49,-3.43,-43.02,-494,-5670,6039,0,-1,-1
177.49,-3.43,-43.02,-495,-5672,6041,0,-1,0
177.49,-3.43,-43.01,-487,-5670,6048,0,0,0
177.49,-3.43,-43.01,-488,-5662,6053,0,0,0
177.49,-3.42,-43.00,-486,-5653,6056,0,-1,0
177.49,-3.43,-43.00,-487,-5648,6049,0,0,0
177.49,-3.43,-43.00,-493,-5647,6050,-1,0,0
177.49,-3.43,-43.00,-503,-5657,6039,-1,0,-1
177.48,-3.44,-43.01,-500,-5668,6047,-1,0,-1
177.48,-3.44,-43.01,-496,-5667,6051,0,-1,0
177.49,-3.43,-43.00,-492,-5655,6041,0,-1,0
177.49,-3.43,-42.99,-491,-5660,6062,0,0,0
177.48,-3.43,-42.99,-486,-5661,6062,0,0,0
177.48,-3.44,-42.99,-495,-5663,6062,0,0,0
177.48,-3.45,-42.98,-512,-5657,6064,0,0,0
177.48,-3.45,-42.98,-516,-5656,6063,0,0,-1
177.48,-3.45,-42.98,-512,-5659,6062,0,-1,-1
177.48,-3.45,-42.97,-503,-5662,6057,0,-1,-1
177.47,-3.44,-42.97,-500,-5662,6052,0,-1,0
177.47,-3.44,-42.96,-494,-5650,6060,0,-1,0
177.47,-3.44,-42.95,-484,-5652,6063,0,0,0
177.47,-3.44,-42.95,-485,-5641,6065,-1,-1,0
177.47,-3.44,-42.95,-490,-5639,6060,-1,0,0
177.46,-3.45,-42.95,-500,-5645,6060,-1,0,0
177.46,-3.45,-42.96,-503,-5654,6061,-1,0,0
177.46,-3.46,-42.95,-505,-5657,6055,0,-1,0
177.46,-3.46,-42.95,-501,-5660,6049,0,0,0
177.46,-3.46,-42.95,-503,-5663,6048,0,0,0
177.46,-3.46,-42.95,-508,-5667,6054,0,0,0
177.46,-3.46,-42.95,-500,-5661,6055,0,0,-1
177.46,-3.46,-42.94,-503,-5651,6060,0,0,-1
177.46,-3.46,-42.93,-499,-5647,6068,0,0,0
177.46,-3.46,-42.93,-499,-5646,6063,0,0,0
177.46,-3.47,-42.93,-501,-5647,6060,0,-1,0
177.46,-3.46,-42.93,-494,-5650,6066,0,0,0
177.46,-3.47,-42.93,-495,-5646,6071,0,0,0
177.46,-3.47,-42.93,-497,-5651,6069,-1,0,0
177.46,-3.47,-42.93,-495,-5645,6065,0,-1,0
177.46,-3.47,-42.93,-500,-5650,6059,0,-1,0
177.46,-3.46,-42.93,-496,-5660,6059,0,-1,0
177.45,-3.47,-42.92,-497,-5663,6059,0,-1,0
177.45,-3.47,-42.92,-498,-5662,6068,0,-1,0
177.45,-3.46,-42.91,-494,-5660,6062,0,-1,-1
177.46,-3.46,-42.90,-496,-5646,6066,0,-1,-1
177.46,-3.45,-42.90,-497,-5642,6066,-1,-1,-1
177.46,-3.45,-42.90,-507,-5628,6066,-1,-1,0
177.46,-3.45,-42.91,-497,-5637,6064,-1,-1,-1
177.46,-3.45,-42.91,-490,-5645,6058,-1,-1,0
177.46,-3.45,-42.92,-490,-5647,6063,-1,-1,0
177.46,-3.45,-42.92,-501,-5647,6064,0,-1,-1
177.46,-3.44,-42.92,-496,-5651,6062,0,-1,-1
177.46,-3.44,-42.92,-496,-5648,6073,0,-1,-1
177.47,-3.43,-42.92,-499,-5646,6076,-1,-1,-1
177.47,-3.43,-42.92,-497,-5649,6063,0,-1,-1
177.47,-3.43,-42.92,-496,-5656,6069,0,0,-1
177.47,-3.43,-42.91,-493,-5649,6072,0,-1,0
177.47,-3.43,-42.92,-501,-5649,6059,-1,0,-1
177.47,-3.43,-42.92,-501,-5638,6062,-1,0,-1
177.47,-3.43,-42.93,-503,-5649,6050,-1,-1,-1
177.47,-3.43,-42.93,-497,-5659,6051,0,-1,-1
177.48,-3.42,-42.93,-488,-5653,6060,0,-1,-1
177.48,-3.41,-42.92,-477,-5644,6068,-1,-1,0
177.48,-3.41,-42.93,-484,-5638,6064,-1,0,0
177.48,-3.41,-42.93,-488,-5649,6070,-1,0,0
177.48,-3.42,-42.93,-502,-5649,6066,-1,0,-1
177.47,-3.43,-42.94,-506,-5655,6065,-1,0,-1
177.48,-3.42,-42.95,-506,-5652,6059,-1,-1,-1
177.48,-3.42,-42.95,-504,-5660,6068,-1,-1,-1
177.48,-3.42,-42.95,-494,-5665,6064,-1,-1,-1
177.49,-3.41,-42.95,-486,-5667,6066,-1,-1,-1
177.49,-3.41,-42.95,-489,-5653,6067,-1,0,-1
177.49,-3.41,-42.95,-493,-5641,6074,-1,0,0
177.48,-3.42,-42.95,-496,-5643,6066,-1,0,-1
177.48,-3.42,-42.97,-490,-5649,6061,-1,0,-1
177.49,-3.41,-42.98,-491,-5653,6045,-1,0,-1
177.49,-3.41,-42.99,-490,-5662,6045,-1,0,-1
177.49,-3.41,-42.99,-498,-5669,6061,-1,0,0
177.49,-3.42,-42.99,-495,-5675,6067,0,0,-1
177.49,-3.42,-42.99,-499,-5674,6077,0,0,-1
177.49,-3.42,-42.99,-501,-5667,6068,0,-1,-1
177.49,-3.41,-42.99,-496,-5664,6073,0,-1,-1
177.49,-3.42,-42.99,-501,-5656,6063,-1,-1,-1
177.49,-3.41,-42.99,-491,-5653,6063,0,0,-1
177.49,-3.41,-42.99,-485,-5656,6069,-1,0,-1
177.49,-3.41,-42.99,-487,-5649,6068,-1,-1,-1
177.49,-3.41,-42.99,-487,-5648,6071,-1,0,-1
177.50,-3.41,-42.99,-492,-5654,6051,-1,0,-1
177.50,-3.41,-43.00,-487,-5655,6051,-1,-1,-1
177.50,-3.41,-43.00,-479,-5656,6055,-1,0,-1
177.51,-3.40,-43.00,-479,-5667,6056,0,0,-1
177.51,-3.40,-43.00,-478,-5664,6055,0,0,0
177.51,-3.40,-43.00,-480,-5660,6055,0,-1,-1
177.51,-3.40,-43.00,-486,-5661,6055,-1,0,0
177.51,-3.41,-43.00,-497,-5658,6063,0,0,-1
177.51,-3.40,-43.00,-495,-5665,6055,-1,0,-1
177.51,-3.40,-43.01,-494,-5654,6051,-1,0,-1
177.51,-3.40,-43.01,-496,-5659,6050,-1,-1,0
177.51,-3.40,-43.02,-492,-5664,6058,-1,-1,-1
177.51,-3.40,-43.02,-493,-5661,6060,-1,0,0
177.51,-3.40,-43.02,-495,-5664,6048,-1,0,-1
177.51,-3.40,-43.02,-492,-5661,6048,-1,0,-1
177.51,-3.40,-43.02,-489,-5667,6057,-1,-1,0
177.51,-3.40,-43.02,-493,-5659,6068,-1,0,0
177.51,-3.40,-43.02,-494,-5660,6062,-1,-1,0
177.51,-3.40,-43.03,-493,-5663,6051,-1,0,0
177.51,-3.40,-43.04,-498,-5664,6057,-1,0,-1
177.51,-3.40,-43.04,-499,-5671,6057,0,-1,-1
177.51,-3.40,-43.04,-499,-5658,6053,0,-1,-1
177.52,-3.40,-43.04,-487,-5657,6043,0,-1,0
177.52,-3.40,-43.04,-488,-5660,6054,-1,0,0
177.52,-3.40,-43.04,-491,-5662,6060,-1,0,0
177.51,-3.40,-43.04,-491,-5665,6070,-1,0,0
177.51,-3.40,-43.05,-495,-5661,6077,-1,0,-1
177.51,-3.40,-43.05,-495,-5658,6060,-1,0,0
177.51,-3.41,-43.05,-497,-5667,6057,-1,-1,-1
177.52,-3.41,-43.06,-499,-5666,6058,0,0,-1
177.52,-3.40,-43.05,-491,-5677,6071,-1,-1,0
177.52,-3.40,-43.05,-484,-5671,6065,0,0,-1
177.52,-3.40,-43.05,-489,-5656,6071,-1,0,0
177.52,-3.40,-43.05,-489,-5653,6063,-1,-1,0
177.52,-3.40,-43.06,-491,-5663,6056,-1,-1,-1
177.52,-3.40,-43.06,-491,-5670,6058,-1,-1,-1
177.52,-3.40,-43.06,-483,-5673,6056,-1,-1,0
177.52,-3.39,-43.07,-479,-5675,6054,-1,-1,0
177.52,-3.40,-43.07,-485,-5674,6049,-1,0,0
177.52,-3.40,-43.08,-488,-5681,6044,0,0,-1
177.52,-3.40,-43.08,-495,-5670,6048,-1,0,-1
177.53,-3.40,-43.08,-497,-5669,6049,-1,-1,-1
177.53,-3.40,-43.08,-493,-5671,6048,-1,0,-1
177.53,-3.40,-43.08,-484,-5672,6052,0,-1,-1
177.53,-3.39,-43.08,-480,-5670,6060,0,0,0
177.53,-3.39,-43.08,-477,-5667,6057,-1,0,0
177.53,-3.40,-43.08,-487,-5654,6065,-1,0,0
177.53,-3.40,-43.08,-489,-5656,6059,-1,0,0
177.53,-3.40,-43.09,-490,-5664,6048,-1,0,-1
177.53,-3.40,-43.10,-500,-5668,6046,-1,0,-1
177.53,-3.41,-43.11,-504,-5680,6045,-1,0,-1
177.53,-3.41,-43.11,-500,-5685,6045,-1,0,-1
177.53,-3.41,-43.11,-497,-5681,6040,0,0,-1
177.53,-3.41,-43.11,-496,-5681,6036,0,0,0
177.53,-3.41,-43.11,-498,-5680,6042,-1,0,0
177.53,-3.41,-43.11,-496,-5673,6048,-1,0,0
177.53,-3.41,-43.11,-493,-5670,6054,-1,0,-1
177.53,-3.41,-43.11,-488,-5670,6055,-1,0,0
177.53,-3.41,-43.12,-484,-5658,6055,-1,0,0
177.52,-3.42,-43.12,-495,-5659,6050,-1,0,0
177.52,-3.43,-43.12,-498,-5666,6052,-1,0,0
177.52,-3.42,-43.12,-500,-5682,6053,0,-1,-1
177.52,-3.42,-43.12,-503,-5687,6045,0,-1,-1
177.51,-3.42,-43.11,-496,-5678,6044,0,-1,0
177.52,-3.42,-43.11,-493,-5669,6037,0,-1,0
177.52,-3.42,-43.10,-487,-5668,6036,0,-1,0
177.51,-3.41,-43.10,-483,-5666,6042,0,0,0
177.51,-3.41,-43.09,-490,-5667,6050,0,0,0
177.52,-3.42,-43.09,-500,-5660,6052,0,0,-1
177.51,-3.42,-43.08,-503,-5665,6057,-1,-1,-1
177.52,-3.42,-43.08,-496,-5669,6055,0,-1,-1
177.52,-3.41,-43.08,-493,-5671,6046,0,-1,-1
177.52,-3.40,-43.08,-490,-5673,6054,0,-1,0
177.52,-3.41,-43.07,-481,-5671,6051,0,-1,0
177.52,-3.40,-43.06,-486,-5666,6054,0,-1,0
177.51,-3.41,-43.06,-493,-5662,6055,0,0,0
177.51,-3.41,-43.06,-491,-5664,6057,0,0,0
177.51,-3.41,-43.06,-495,-5670,6053,0,0,0
177.51,-3.41,-43.06,-495,-5675,6057,-1,0,0
177.51,-3.42,-43.06,-499,-5678,6053,0,0,0
177.50,-3.42,-43.06,-494,-5677,6046,0,0,-1
177.50,-3.41,-43.06,-500,-5672,6042,0,-1,-1
177.51,-3.41,-43.05,-495,-5671,6062,0,-1,-1
177.51,-3.41,-43.05,-488,-5663,6060,0,-1,-1
177.51,-3.40,-43.04,-486,-5659,6059,0,0,0
177.50,-3.41,-43.04,-487,-5661,6060,0,0,0
177.50,-3.41,-43.03,-481,-5661,6059,0,0,0
177.51,-3.41,-43.03,-483,-5660,6057,0,0,0
177.50,-3.41,-43.03,-485,-5658,6062,-1,0,0
177.50,-3.41,-43.03,-489,-5664,6048,-1,0,0
177.50,-3.41,-43.04,-493,-5669,6038,0,-1,0
177.50,-3.41,-43.03,-499,-5671,6045,0,-1,-1
177.50,-3.41,-43.02,-500,-5675,6053,0,0,-1
177.50,-3.41,-43.02,-499,-5669,6062,0,0,0
177.50,-3.41,-43.01,-499,-5661,6069,0,-1,0
177.51,-3.41,-43.00,-499,-5654,6063,0,0,0
177.51,-3.41,-43.00,-489,-5653,6063,0,0,0
177.51,-3.41,-42.99,-483,-5651,6066,-1,0,0
177.51,-3.41,-43.00,-490,-5655,6063,-1,0,0
177.50,-3.42,-43.01,-492,-5660,6055,-1,0,0
177.50,-3.42,-43.01,-492,-5669,6046,0,0,-1
177.50,-3.42,-43.01,-499,-5668,6053,0,0,-1
177.50,-3.42,-43.00,-495,-5663,6045,0,-1,0
177.50,-3.42,-43.00,-487,-5666,6051,0,0,0
177.50,-3.42,-42.99,-490,-5667,6054,0,0,0
177.50,-3.42,-42.99,-490,-5662,6046,0,0,0
177.49,-3.43,-42.99,-496,-5666,6054,0,0,0
177.49,-3.43,-42.99,-506,-5668,6056,0,0,-1
177.49,-3.43,-42.98,-510,-5657,6055,0,-1,0
177.49,-3.43,-42.98,-508,-5655,6053,0,-1,0
177.49,-3.43,-42.97,-492,-5651,6050,0,0,0
177.48,-3.44,-42.97,-494,-5654,6047,0,0,0
177.49,-3.44,-42.96,-494,-5663,6051,0,0,0
177.49,-3.44,-42.96,-494,-5659,6069,0,0,0
177.48,-3.44,-42.96,-502,-5654,6071,-1,0,0
177.48,-3.45,-42.96,-502,-5661,6058,0,0,0
177.48,-3.45,-42.96,-500,-5661,6052,0,0,0
177.47,-3.45,-42.96,-500,-5662,6048,0,0,0
177.47,-3.45,-42.96,-501,-5657,6051,0,0,0
177.47,-3.46,-42.95,-492,-5653,6065,0,0,0
177.47,-3.46,-42.94,-503,-5644,6065,0,0,0
177.47,-3.47,-42.94,-497,-5650,6072,0,0,0
177.46,-3.47,-42.93,-503,-5650,6080,0,0,0
177.46,-3.47,-42.93,-497,-5650,6087,-1,0,0
177.46,-3.47,-42.93,-499,-5649,6081,-1,-1,0
177.46,-3.47,-42.93,-487,-5652,6079,-1,-1,0
177.46,-3.47,-42.93,-487,-5655,6075,-1,0,0
177.46,-3.47,-42.93,-495,-5658,6071,0,0,0
177.45,-3.48,-42.93,-503,-5663,6061,0,0,0
177.45,-3.48,-42.93,-507,-5659,6060,0,0,0
177.45,-3.48,-42.93,-514,-5669,6059,0,-1,0
177.45,-3.48,-42.93,-512,-5665,6063,0,-1,-1
177.45,-3.48,-42.93,-505,-5660,6059,0,-1,0
177.45,-3.47,-42.92,-495,-5649,6063,0,-1,0
177.45,-3.47,-42.91,-496,-5643,6067,0,-1,-1
177.46,-3.46,-42.90,-484,-5628,6066,0,-1,-1
177.46,-3.46,-42.90,-491,-5636,6074,-1,-1,-1
177.45,-3.46,-42.91,-497,-5644,6067,-1,-1,0
177.45,-3.46,-42.92,-505,-5653,6065,-1,-1,-1
177.46,-3.45,-42.92,-506,-5659,6063,0,-1,-1
177.46,-3.45,-42.91,-490,-5650,6068,0,-1,0
177.46,-3.44,-42.91,-482,-5641,6074,-1,-1,0
177.46,-3.44,-42.91,-487,-5647,6074,-1,-1,0
177.46,-3.44,-42.92,-486,-5655,6060,0,-1,0
177.46,-3.44,-42.92,-505,-5660,6073,-1,-1,-1
177.46,-3.44,-42.92,-508,-5658,6076,-1,-1,-1
177.46,-3.44,-42.92,-507,-5666,6071,0,-1,-1
177.46,-3.43,-42.92,-509,-5662,6069,0,-1,-1
177.46,-3.43,-42.92,-499,-5656,6058,0,-1,0
177.46,-3.43,-42.93,-489,-5653,6063,-1,-1,0
177.46,-3.42,-42.92,-484,-5646,6078,-1,0,0
177.46,-3.42,-42.93,-487,-5652,6070,-1,0,0
177.46,-3.43,-42.93,-488,-5653,6062,-1,0,-1
177.46,-3.42,-42.94,-506,-5655,6048,-1,0,-1
177.46,-3.42,-42.95,-504,-5657,6044,-1,0,-1
177.46,-3.42,-42.95,-503,-5651,6045,-1,-1,-1
177.46,-3.42,-42.95,-500,-5652,6058,-1,-1,-1
177.46,-3.42,-42.95,-491,-5660,6056,0,0,-1
177.46,-3.42,-42.95,-490,-5660,6055,0,0,-1
177.46,-3.42,-42.95,-494,-5664,6061,0,0,-1
177.46,-3.42,-42.95,-502,-5659,6068,-1,0,-1
177.46,-3.42,-42.95,-501,-5651,6062,-1,-1,-1
177.46,-3.42,-42.95,-501,-5654,6070,-1,-1,-1
177.47,-3.42,-42.95,-491,-5664,6065,-1,-1,-1
177.47,-3.41,-42.95,-484,-5657,6062,-1,-1,-1
177.47,-3.41,-42.96,-477,-5650,6066,-1,0,0
177.47,-3.41,-42.97,-484,-5652,6055,-1,0,0
177.47,-3.42,-42.98,-496,-5658,6057,-1,0,0
177.47,-3.42,-42.98,-499,-5670,6059,-1,0,-1
177.47,-3.42,-42.98,-497,-5670,6067,0,-1,-1
177.47,-3.41,-42.99,-499,-5672,6063,0,-1,-1
177.47,-3.41,-42.98,-501,-5667,6067,0,-1,-1
177.47,-3.41,-42.98,-496,-5662,6062,0,-1,-1
177.47,-3.41,-42.98,-498,-5654,6054,0,-1,-1
177.47,-3.41,-42.97,-494,-5647,6059,-1,0,-1
177.47,-3.41,-42.97,-485,-5646,6066,-1,0,0
177.47,-3.41,-42.98,-487,-5654,6068,-1,0,0
177.47,-3.41,-42.99,-486,-5658,6062,-1,0,-1
177.47,-3.41,-42.99,-486,-5657,6057,-1,0,-1
177.47,-3.41,-42.99,-495,-5659,6053,-1,0,0
177.47,-3.41,-42.99,-503,-5652,6054,0,0,-1
177.47,-3.41,-42.99,-501,-5653,6053,0,-1,-1
177.47,-3.41,-42.99,-495,-5658,6053,-1,0,0
177.47,-3.41,-42.99,-492,-5666,6063,0,-1,-1
177.47,-3.41,-42.99,-486,-5659,6063,0,0,-1
177.47,-3.41,-42.99,-485,-5664,6064,-1,-1,0
177.47,-3.41,-42.99,-487,-5666,6068,-1,0,-1
177.47,-3.41,-43.00,-495,-5667,6054,-1,0,-1
177.48,-3.41,-43.01,-488,-5665,6045,0,-1,-1
177.48,-3.40,-43.00,-485,-5663,6054,0,-1,-1
177.49,-3.39,-43.00,-476,-5660,6051,-1,-1,0
177.49,-3.39,-43.01,-475,-5657,6059,-1,0,0
177.49,-3.39,-43.01,-481,-5653,6052,-1,0,0
177.48,-3.40,-43.01,-492,-5659,6048,-1,0,-1
177.48,-3.40,-43.01,-499,-5657,6053,-1,0,-1
177.48,-3.40,-43.01,-508,-5663,6056,-1,-1,-1
177.48,-3.40,-43.02,-500,-5665,6053,-1,-1,-1
177.48,-3.40,-43.02,-502,-5668,6048,0,-1,-1
177.48,-3.39,-43.02,-477,-5666,6049,0,-1,-1
177.49,-3.39,-43.01,-471,-5661,6061,0,-1,0
177.49,-3.39,-43.01,-475,-5653,6062,-1,0,0
177.49,-3.39,-43.01,-472,-5654,6058,-1,0,0
177.49,-3.39,-43.02,-475,-5654,6061,-1,0,0
177.48,-3.39,-43.03,-485,-5667,6050,-1,0,-1
177.48,-3.39,-43.04,-493,-5671,6052,-1,0,-1
177.48,-3.39,-43.04,-491,-5672,6056,-1,0,-1
177.48,-3.39,-43.05,-495,-5678,6052,0,0,-1
177.48,-3.39,-43.05,-497,-5677,6049,0,-1,-1
177.48,-3.39,-43.05,-493,-5677,6048,0,-1,-1
177.49,-3.38,-43.04,-478,-5675,6059,0,-1,-1
177.49,-3.38,-43.04,-484,-5670,6061,0,-1,-1
177.49,-3.38,-43.04,-483,-5666,6063,-1,-1,-1
177.50,-3.38,-43.04,-479,-5654,6056,-1,-1,-1
177.50,-3.38,-43.05,-476,-5663,6066,-1,0,0
177.50,-3.38,-43.05,-484,-5656,6061,-1,0,0
177.50,-3.38,-43.05,-483,-5661,6054,-1,0,0
177.50,-3.38,-43.06,-487,-5667,6053,-1,0,0
177.50,-3.38,-43.07,-486,-5677,6051,-1,0,-1
177.49,-3.38,-43.07,-496,-5675,6041,0,0,0
177.49,-3.39,-43.07,-492,-5676,6043,0,0,0
177.49,-3.38,-43.06,-498,-5680,6066,0,-1,-1
177.49,-3.38,-43.05,-492,-5674,6061,0,-1,-1
177.49,-3.38,-43.05,-493,-5667,6060,0,-1,-1
177.49,-3.37,-43.05,-487,-5657,6075,-1,-1,-1
177.49,-3.37,-43.05,-483,-5660,6066,-1,-1,0
177.49,-3.37,-43.05,-483,-5655,6066,-1,-1,-1
177.49,-3.37,-43.05,-473,-5652,6054,-1,0,0
177.49,-3.37,-43.05,-479,-5651,6049,-1,0,0
177.49,-3.37,-43.06,-485,-5660,6045,-1,0,0
177.49,-3.37,-43.06,-494,-5664,6053,-1,-1,0
177.49,-3.37,-43.06,-496,-5662,6049,-1,-1,-1
177.49,-3.37,-43.07,-489,-5671,6057,-1,0,-1
177.49,-3.37,-43.06,-484,-5661,6064,0,0,-1
177.49,-3.37,-43.06,-481,-5665,6059,0,0,0
177.49,-3.37,-43.06,-480,-5677,6051,0,0,0
177.49,-3.37,-43.06,-480,-5671,6058,0,0,0
177.49,-3.37,-43.06,-480,-5666,6054,-1,0,0
177.49,-3.37,-43.07,-485,-5670,6046,-1,0,-1
177.49,-3.37,-43.07,-488,-5681,6049,0,-1,-1
177.50,-3.36,-43.07,-483,-5676,6041,0,-1,-1
177.50,-3.36,-43.06,-473,-5657,6053,0,-1,-1
177.50,-3.35,-43.06,-471,-5659,6051,-1,0,0
177.50,-3.35,-43.06,-481,-5652,6050,-1,0,0
177.50,-3.36,-43.06,-487,-5649,6061,-1,0,-1
177.50,-3.36,-43.06,-495,-5663,6065,-1,0,-1
177.50,-3.36,-43.06,-499,-5665,6052,-1,0,-1
177.51,-3.36,-43.06,-488,-5670,6042,0,0,-1
177.51,-3.36,-43.07,-485,-5670,6039,0,-1,-1
177.52,-3.35,-43.06,-486,-5668,6048,0,-1,-1
177.52,-3.35,-43.05,-482,-5660,6059,0,-1,-1
177.52,-3.35,-43.05,-477,-5653,6059,0,0,0
177.52,-3.35,-43.05,-481,-5651,6061,-1,0,0
177.52,-3.35,-43.05,-477,-5655,6061,-1,0,-1
177.51,-3.36,-43.05,-486,-5661,6061,-1,0,-1
177.51,-3.36,-43.06,-489,-5671,6057,-1,0,-1
177.51,-3.36,-43.06,-492,-5674,6056,-1,-1,0
177.51,-3.36,-43.07,-486,-5674,6043,0,-1,0
177.51,-3.36,-43.06,-475,-5673,6045,0,0,0
177.51,-3.36,-43.06,-480,-5677,6050,0,0,0
177.51,-3.37,-43.05,-485,-5664,6067,0,0,0
177.51,-3.37,-43.05,-486,-5653,6062,0,0,0
177.51,-3.37,-43.04,-486,-5656,6052,0,0,0
177.51,-3.37,-43.05,-485,-5656,6042,-1,0,0
177.51,-3.37,-43.05,-487,-5649,6050,-1,-1,0
177.51,-3.37,-43.05,-478,-5665,6050,-1,-1,0
177.51,-3.37,-43.05,-482,-5667,6044,-1,0,0
177.50,-3.37,-43.05,-483,-5673,6055,0,0,0
177.50,-3.38,-43.05,-486,-5668,6059,0,0,0
177.50,-3.38,-43.05,-487,-5666,6051,0,0,0
177.49,-3.38,-43.05,-488,-5665,6052,0,0,0
177.49,-3.38,-43.05,-493,-5665,6057,0,-1,0
177.49,-3.38,-43.05,-488,-5670,6055,0,0,0
177.50,-3.38,-43.04,-485,-5671,6058,0,-1,0
177.50,-3.38,-43.04,-478,-5670,6055,0,0,0
177.49,-3.38,-43.04,-484,-5671,6060,0,-1,0
177.49,-3.38,-43.03,-488,-5666,6062,0,-1,0
177.49,-3.39,-43.04,-490,-5668,6053,-1,0,0
177.49,-3.39,-43.04,-487,-5663,6063,-1,-1,0
177.48,-3.39,-43.04,-491,-5666,6059,-1,0,0
177.48,-3.40,-43.04,-491,-5672,6057,0,0,0
177.48,-3.40,-43.03,-497,-5665,6060,0,-1,0
177.48,-3.40,-43.03,-491,-5668,6065,0,0,-1
177.48,-3.40,-43.03,-498,-5668,6055,0,0,-1
177.48,-3.40,-43.02,-501,-5673,6053,0,0,-1
177.48,-3.40,-43.02,-494,-5680,6055,0,-1,-1
177.48,-3.39,-43.01,-482,-5668,6058,0,-1,0
177.48,-3.39,-43.00,-477,-5651,6067,0,0,0
177.47,-3.39,-43.00,-483,-5647,6059,0,0,0
177.47,-3.40,-43.00,-492,-5660,6060,-1,0,0
177.47,-3.40,-43.00,-502,-5667,6070,0,0,-1
177.47,-3.41,-43.00,-508,-5671,6062,-1,-1,-1
177.47,-3.41,-43.00,-509,-5670,6050,0,-1,-1
177.47,-3.40,-43.00,-498,-5670,6057,0,-1,-1
177.47,-3.40,-42.99,-487,-5660,6058,0,-1,0
177.47,-3.40,-42.98,-482,-5655,6058,0,-1,0
177.47,-3.40,-42.98,-476,-5647,6069,0,0,0
177.47,-3.40,-42.98,-482,-5647,6068,-1,0,0
177.46,-3.41,-42.98,-491,-5652,6072,-1,0,0
177.46,-3.41,-42.98,-492,-5663,6073,0,0,0
177.46,-3.41,-42.98,-487,-5669,6071,0,0,0
177.46,-3.41,-42.98,-490,-5666,6061,0,0,0
177.46,-3.41,-42.98,-497,-5663,6059,0,0,0
177.45,-3.42,-42.97,-492,-5661,6059,0,0,0
177.46,-3.42,-42.97,-492,-5673,6063,0,-1,-1
177.46,-3.42,-42.96,-499,-5667,6065,0,0,-1
177.46,-3.42,-42.95,-503,-5656,6056,0,0,-1
177.46,-3.41,-42.95,-497,-5655,6061,0,-1,0
177.46,-3.42,-42.95,-498,-5650,6065,0,-1,-1
177.46,-3.42,-42.94,-490,-5645,6065,0,-1,0
177.46,-3.41,-42.94,-484,-5635,6064,0,0,0
177.46,-3.41,-42.93,-483,-5643,6067,0,0,0
177.46,-3.42,-42.93,-482,-5646,6059,-1,0,0
177.46,-3.42,-42.93,-485,-5653,6060,0,0,0
177.45,-3.42,-42.94,-497,-5655,6058,-1,0,0
177.45,-3.42,-42.94,-500,-5664,6060,0,0,0
177.45,-3.42,-42.94,-497,-5668,6062,0,-1,0
177.44,-3.43,-42.93,-487,-5662,6062,0,-1,0
177.44,-3.42,-42.93,-486,-5658,6058,0,-1,0
177.44,-3.42,-42.92,-484,-5653,6054,0,0,0
177.44,-3.42,-42.92,-486,-5650,6063,0,-1,0
177.44,-3.42,-42.92,-479,-5645,6064,0,0,0
177.44,-3.42,-42.92,-481,-5646,6067,0,0,0
177.44,-3.42,-42.92,-488,-5642,6063,-1,0,0
177.44,-3.43,-42.92,-491,-5645,6066,-1,0,0
177.44,-3.43,-42.92,-498,-5655,6050,0,0,-1
177.44,-3.43,-42.92,-499,-5669,6072,0,-1,-1
177.44,-3.43,-42.91,-495,-5663,6072,0,-1,-1
177.44,-3.43,-42.91,-488,-5657,6065,0,0,0
177.44,-3.43,-42.90,-493,-5649,6069,0,0,0
177.43,-3.43,-42.90,-495,-5651,6071,0,-1,0
177.43,-3.43,-42.89,-495,-5648,6076,0,-1,-1
177.43,-3.43,-42.89,-500,-5649,6069,0,-1,-1
177.44,-3.42,-42.89,-501,-5651,6062,0,-1,-1
177.44,-3.42,-42.89,-497,-5650,6072,-1,-1,-1
177.44,-3.42,-42.89,-488,-5649,6078,0,-1,-1
177.44,-3.41,-42.89,-488,-5644,6070,-1,-1,-1
177.44,-3.41,-42.89,-485,-5644,6076,-1,-1,-1
177.44,-3.40,-42.89,-486,-5645,6075,-1,-1,0
177.44,-3.41,-42.89,-492,-5648,6066,-1,-1,0
177.44,-3.41,-42.89,-493,-5647,6060,-1,0,0
177.44,-3.41,-42.90,-498,-5653,6065,0,0,-1
177.44,-3.41,-42.90,-500,-5655,6073,-1,-1,-1
177.44,-3.41,-42.90,-499,-5657,6071,-1,-1,-1
177.44,-3.41,-42.90,-497,-5656,6063,-1,-1,-1
177.44,-3.41,-42.91,-494,-5654,6061,-1,-1,0
177.44,-3.40,-42.91,-490,-5650,6062,0,0,-1
177.45,-3.40,-42.90,-490,-5648,6069,0,0,-1
177.45,-3.40,-42.90,-493,-5649,6090,0,-1,-1
177.44,-3.40,-42.90,-496,-5650,6085,-1,-1,-1
177.44,-3.39,-42.90,-493,-5642,6079,-1,-1,-1
177.44,-3.39,-42.91,-487,-5644,6073,-1,-1,0
177.44,-3.39,-42.91,-477,-5650,6068,-1,0,-1
177.44,-3.39,-42.92,-480,-5649,6065,-1,0,-1
177.44,-3.39,-42.92,-483,-5649,6059,-1,0,0
177.44,-3.39,-42.92,-485,-5650,6047,-1,0,-1
177.44,-3.39,-42.93,-496,-5656,6057,-1,0,0
177.44,-3.39,-42.93,-492,-5655,6062,0,-1,-1
177.44,-3.39,-42.93,-493,-5661,6071,0,-1,-1
177.44,-3.39,-42.93,-493,-5653,6070,-1,-1,-1
177.45,-3.38,-42.93,-486,-5654,6075,-1,-1,-1
177.45,-3.38,-42.93,-483,-5652,6069,-1,-1,-1
177.45,-3.38,-42.93,-477,-5656,6074,-1,0,-1
177.45,-3.38,-42.94,-480,-5652,6072,-1,0,0
177.44,-3.39,-42.94,-483,-5651,6078,-1,-1,0
177.44,-3.39,-42.94,-489,-5657,6079,-1,0,0
177.44,-3.39,-42.95,-497,-5655,6069,-1,0,-1
177.44,-3.39,-42.95,-494,-5660,6062,-1,0,-1
177.45,-3.38,-42.95,-487,-5655,6062,0,-1,-1
177.45,-3.38,-42.95,-486,-5655,6063,0,-1,-1
177.45,-3.38,-42.95,-485,-5656,6063,-1,-1,0
177.45,-3.38,-42.95,-482,-5659,6064,-1,-1,0
177.45,-3.38,-42.95,-484,-5649,6074,-1,0,0
177.45,-3.38,-42.95,-487,-5652,6072,-1,0,-1
177.45,-3.38,-42.95,-491,-5651,6063,-1,0,-1
177.45,-3.38,-42.95,-499,-5659,6067,0,-1,-1
177.45,-3.38,-42.96,-496,-5666,6059,-1,-1,-1
177.45,-3.38,-42.96,-495,-5657,6051,0,-1,-1
177.45,-3.38,-42.96,-491,-5659,6063,0,-1,0
177.46,-3.37,-42.95,-483,-5661,6073,0,-1,-1
177.46,-3.37,-42.95,-483,-5650,6058,0,0,-1
177.46,-3.37,-42.96,-482,-5653,6065,-1,0,0
177.46,-3.37,-42.96,-485,-5655,6069,-1,0,0
177.45,-3.38,-42.97,-485,-5659,6067,-1,0,0
177.45,-3.38,-42.97,-485,-5661,6057,-1,0,-1
177.45,-3.38,-42.97,-491,-5661,6058,-1,-1,-1
177.45,-3.38,-42.97,-496,-5668,6051,-1,-1,-1
177.45,-3.38,-42.98,-495,-5666,6053,0,0,-1
177.45,-3.38,-42.97,-495,-5668,6063,0,-1,-1
177.45,-3.38,-42.97,-488,-5672,6069,0,-1,0
177.46,-3.37,-42.97,-487,-5661,6070,-1,-1,-1
177.46,-3.37,-42.97,-489,-5655,6067,-1,-1,-1
177.46,-3.37,-42.98,-487,-5658,6061,-1,0,-1
177.46,-3.37,-42.99,-480,-5663,6057,-1,0,0
177.46,-3.37,-42.99,-482,-5664,6068,-1,0,0
177.46,-3.37,-43.00,-486,-5666,6072,-1,0,-1
177.46,-3.37,-43.00,-487,-5670,6061,-1,0,0
177.46,-3.37,-43.00,-485,-5666,6057,0,0,0
177.46,-3.37,-43.00,-492,-5663,6058,0,0,-1
177.46,-3.37,-43.00,-490,-5660,6053,0,-1,-1
177.46,-3.37,-43.00,-487,-5664,6060,0,-1,-1
177.46,-3.37,-43.00,-481,-5655,6061,0,-1,0
177.46,-3.37,-43.00,-487,-5660,6059,-1,-1,-1
177.46,-3.37,-43.01,-483,-5666,6062,-1,0,-1
177.46,-3.37,-43.01,-483,-5666,6056,-1,-1,-1
177.46,-3.36,-43.01,-468,-5663,6051,-1,0,-1
177.46,-3.36,-43.01,-473,-5662,6051,-1,0,0
177.46,-3.36,-43.02,-480,-5653,6029,0,0,-1
177.46,-3.36,-43.02,-487,-5662,6049,-1,-1,0
177.46,-3.36,-43.02,-483,-5659,6056,0,-1,-1
177.45,-3.36,-43.01,-487,-5651,6048,0,-1,0
177.46,-3.35,-43.01,-490,-5647,6056,-1,-1,0
177.46,-3.35,-43.02,-491,-5655,6059,-1,-1,-1
177.46,-3.35,-43.02,-485,-5669,6059,0,-1,-1
177.46,-3.35,-43.02,-478,-5667,6059,0,-1,-1
177.46,-3.35,-43.01,-477,-5654,6052,0,-1,0
177.46,-3.35,-43.01,-475,-5648,6055,-1,0,0
177.46,-3.35,-43.01,-481,-5654,6056,-1,0,0
177.46,-3.35,-43.02,-487,-5668,6063,-1,-1,-1
177.46,-3.35,-43.03,-494,-5676,6060,-1,0,-1
177.46,-3.35,-43.03,-484,-5678,6045,-1,0,-1
177.46,-3.35,-43.03,-487,-5670,6051,-1,0,-1
177.46,-3.35,-43.04,-486,-5672,6052,0,-1,-1
177.46,-3.34,-43.04,-477,-5663,6055,-1,-1,-1
177.46,-3.34,-43.04,-480,-5661,6063,-1,0,-1
177.46,-3.34,-43.04,-473,-5664,6064,-1,0,0
177.46,-3.34,-43.04,-472,-5658,6064,-1,0,-1
177.46,-3.34,-43.05,-469,-5661,6049,-1,0,-1
177.46,-3.35,-43.05,-477,-5661,6054,-1,0,0
177.46,-3.35,-43.06,-483,-5663,6043,-1,0,-1
177.46,-3.35,-43.07,-489,-5661,6039,-1,0,-1
177.46,-3.35,-43.07,-488,-5676,6043,-1,0,-1
177.46,-3.35,-43.07,-491,-5678,6046,0,0,-1
177.46,-3.35,-43.07,-490,-5681,6041,0,0,-1
177.47,-3.35,-43.07,-476,-5676,6038,0,0,-1
177.47,-3.35,-43.07,-482,-5671,6038,0,0,-1
177.47,-3.35,-43.07,-477,-5658,6040,0,0,-1
177.47,-3.35,-43.06,-479,-5663,6064,-1,-1,0
177.48,-3.34,-43.07,-479,-5673,6067,-1,0,-1
177.47,-3.35,-43.07,-485,-5663,6060,-1,0,-1
177.47,-3.35,-43.07,-486,-5662,6051,-1,-1,0
177.47,-3.35,-43.07,-481,-5665,6048,-1,0,0
177.47,-3.35,-43.08,-487,-5671,6040,0,0,0
177.47,-3.35,-43.08,-491,-5676,6047,0,0,0
177.47,-3.36,-43.07,-489,-5675,6050,0,0,0
177.46,-3.36,-43.07,-486,-5666,6050,0,0,0
177.46,-3.36,-43.07,-490,-5674,6061,0,0,-1
177.46,-3.36,-43.07,-491,-5667,6066,0,-1,-1
177.46,-3.36,-43.06,-488,-5665,6055,0,0,-1
177.46,-3.37,-43.06,-484,-5665,6064,0,-1,0
177.46,-3.37,-43.06,-485,-5668,6064,0,-1,-1
177.46,-3.37,-43.05,-488,-5666,6060,0,0,0
177.46,-3.37,-43.04,-494,-5663,6058,0,0,0
177.46,-3.37,-43.04,-490,-5662,6055,0,0,0
177.45,-3.37,-43.04,-493,-5659,6058,0,0,0
177.45,-3.37,-43.04,-495,-5661,6054,0,-1,0
177.45,-3.37,-43.04,-490,-5659,6054,0,0,0
177.45,-3.37,-43.03,-482,-5665,6055,0,0,0
177.45,-3.37,-43.03,-484,-5664,6052,0,0,0
177.45,-3.37,-43.03,-488,-5662,6048,0,0,0
177.45,-3.38,-43.03,-485,-5663,6055,-1,0,-1
177.45,-3.38,-43.03,-487,-5668,6058,0,0,-1
177.45,-3.38,-43.02,-487,-5669,6050,0,-1,-1
177.45,-3.37,-43.01,-476,-5657,6058,0,-1,0
177.45,-3.37,-43.01,-469,-5657,6062,0,0,0
177.45,-3.37,-43.01,-468,-5648,6050,0,0,0
177.45,-3.38,-43.01,-481,-5658,6058,0,0,0
177.45,-3.38,-43.00,-487,-5670,6059,0,0,-1
177.44,-3.39,-43.00,-510,-5666,6054,0,0,0
177.44,-3.39,-43.00,-505,-5668,6052,0,-1,-1
177.44,-3.39,-43.00,-496,-5678,6052,0,-1,-1
177.45,-3.38,-42.99,-484,-5667,6051,0,-1,-1
177.45,-3.37,-42.97,-476,-5656,6061,0,-1,0
177.44,-3.38,-42.97,-473,-5644,6061,0,0,0
177.44,-3.38,-42.96,-471,-5637,6077,0,0,0
177.44,-3.38,-42.96,-473,-5641,6073,-1,0,0
177.44,-3.38,-42.96,-483,-5642,6085,-1,0,0
177.44,-3.38,-42.97,-488,-5656,6076,-1,0,0
177.44,-3.39,-42.97,-485,-5664,6071,0,0,0
177.44,-3.39,-42.97,-483,-5662,6063,0,0,0
177.44,-3.39,-42.96,-488,-5671,6054,0,-1,0
177.43,-3.39,-42.96,-495,-5669,6055,0,0,0
177.43,-3.39,-42.95,-495,-5667,6062,0,-1,0
177.43,-3.39,-42.95,-487,-5663,6068,0,-1,0
177.43,-3.39,-42.94,-483,-5656,6074,0,-1,-1
177.43,-3.39,-42.94,-486,-5649,6066,0,0,0
177.43,-3.39,-42.94,-481,-5648,6065,0,-1,0
177.43,-3.39,-42.94,-483,-5648,6065,-1,0,0
177.43,-3.39,-42.94,-484,-5649,6059,0,0,0
177.43,-3.40,-42.94,-481,-5651,6054,0,0,0
177.43,-3.41,-42.94,-495,-5660,6065,0,0,0
177.42,-3.41,-42.94,-504,-5659,6063,0,0,0
177.42,-3.41,-42.93,-504,-5666,6059,0,-1,0
177.42,-3.41,-42.93,-503,-5666,6055,0,-1,0
177.41,-3.41,-42.92,-495,-5667,6064,0,-1,0
177.41,-3.41,-42.91,-488,-5666,6070,0,-1,-1
177.42,-3.40,-42.91,-485,-5651,6077,0,-1,0
177.42,-3.40,-42.90,-489,-5644,6083,0,0,0
177.41,-3.41,-42.90,-487,-5649,6074,-1,0,0
177.41,-3.41,-42.90,-485,-5641,6076,0,0,0
177.41,-3.41,-42.90,-485,-5646,6069,-1,0,0
177.41,-3.41,-42.90,-489,-5648,6066,0,0,0
177.41,-3.41,-42.90,-488,-5653,6064,0,0,0
177.41,-3.42,-42.91,-485,-5652,6060,0,0,0
177.41,-3.42,-42.90,-487,-5654,6071,0,0,0
177.41,-3.42,-42.90,-498,-5654,6067,0,0,0
177.40,-3.42,-42.89,-500,-5650,6069,0,0,0
177.40,-3.43,-42.89,-504,-5640,6075,-1,0,0
177.40,-3.43,-42.89,-505,-5645,6076,0,0,-1
177.40,-3.43,-42.88,-492,-5648,6068,0,0,-1
177.40,-3.43,-42.88,-485,-5642,6076,0,-1,0
177.40,-3.42,-42.88,-482,-5636,6068,0,-1,0
177.40,-3.43,-42.88,-482,-5650,6073,0,0,0
177.39,-3.43,-42.87,-488,-5649,6079,0,0,0
177.39,-3.44,-42.87,-504,-5657,6071,0,0,0
177.39,-3.44,-42.87,-500,-5655,6071,0,0,0
177.39,-3.44,-42.87,-505,-5646,6068,0,-1,-1
177.39,-3.44,-42.86,-503,-5643,6071,0,-1,-1
177.39,-3.43,-42.86,-487,-5641,6068,0,-1,-1
177.39,-3.42,-42.85,-484,-5643,6069,0,-1,0
177.39,-3.42,-42.85,-486,-5643,6064,0,-1,0
177.39,-3.42,-42.85,-485,-5646,6062,0,0,0
177.39,-3.42,-42.85,-486,-5638,6070,-1,-1,0
177.39,-3.42,-42.85,-491,-5637,6072,-1,0,0
177.39,-3.42,-42.86,-498,-5643,6071,-1,-1,0
177.39,-3.42,-42.87,-503,-5645,6061,-1,-1,0
177.39,-3.42,-42.87,-500,-5648,6065,0,-1,0
177.38,-3.42,-42.87,-502,-5653,6070,-1,-1,-1
177.38,-3.42,-42.87,-499,-5651,6063,0,-1,-1
177.38,-3.42,-42.87,-502,-5650,6078,0,-1,-1
177.39,-3.42,-42.86,-500,-5648,6079,0,-1,-1
177.39,-3.41,-42.86,-497,-5648,6068,0,-1,-1
177.39,-3.41,-42.86,-495,-5645,6077,0,-1,-1
177.40,-3.40,-42.86,-487,-5639,6075,0,-1,-1
177.40,-3.40,-42.87,-479,-5641,6076,-1,-1,0
177.39,-3.40,-42.87,-479,-5643,6067,-1,-1,0
177.40,-3.39,-42.88,-484,-5654,6079,-1,0,-1
177.40,-3.39,-42.88,-490,-5650,6079,-1,0,-1
177.40,-3.40,-42.89,-504,-5653,6072,-1,0,-1
177.40,-3.40,-42.89,-508,-5649,6066,-1,0,-1
177.40,-3.40,-42.90,-494,-5651,6061,-1,-1,-1
177.40,-3.39,-42.90,-482,-5656,6062,0,-1,-1
177.40,-3.39,-42.90,-472,-5651,6063,0,-1,-1
177.40,-3.39,-42.90,-476,-5643,6072,0,-1,0
177.40,-3.39,-42.90,-478,-5641,6072,0,0,0
177.40,-3.39,-42.90,-479,-5638,6082,-1,0,-1
177.41,-3.39,-42.90,-483,-5638,6084,-1,0,-1
177.41,-3.39,-42.91,-483,-5640,6075,-1,0,-1
177.41,-3.39,-42.91,-486,-5646,6065,-1,0,-1
177.41,-3.39,-42.91,-482,-5651,6062,-1,0,0
177.41,-3.39,-42.92,-483,-5661,6068,-1,-1,0
177.41,-3.39,-42.92,-484,-5653,6063,0,0,-1
177.41,-3.39,-42.92,-489,-5645,6063,-1,-1,0
177.41,-3.39,-42.92,-493,-5639,6074,-1,0,-1
177.41,-3.39,-42.93,-497,-5654,6068,-1,0,-1
177.41,-3.38,-42.94,-494,-5661,6071,-1,0,-1
177.41,-3.38,-42.94,-488,-5660,6070,0,-1,-1
177.42,-3.38,-42.94,-477,-5656,6067,0,-1,0
177.42,-3.38,-42.94,-476,-5649,6060,-1,0,-1
177.42,-3.38,-42.94,-488,-5655,6069,-1,0,0
177.41,-3.39,-42.94,-502,-5655,6074,-1,0,-1
177.42,-3.39,-42.94,-501,-5663,6076,-1,-1,-1
177.42,-3.39,-42.95,-492,-5667,6075,-1,0,-1
177.42,-3.39,-42.95,-487,-5655,6065,-1,-1,-1
177.43,-3.38,-42.95,-481,-5655,6054,0,-1,-1
177.43,-3.38,-42.95,-476,-5655,6055,0,-1,-1
177.43,-3.37,-42.95,-470,-5654,6063,-1,-1,-1
177.43,-3.37,-42.95,-481,-5651,6062,-1,0,0
177.43,-3.37,-42.96,-486,-5656,6058,-1,0,0
177.43,-3.37,-42.97,-483,-5659,6042,-1,0,-1
177.43,-3.37,-42.97,-482,-5660,6049,-1,0,-1
177.43,-3.37,-42.97,-479,-5661,6054,-1,0,-1
177.43,-3.37,-42.97,-482,-5660,6063,-1,0,0
177.43,-3.37,-42.98,-489,-5665,6053,-1,0,0
177.43,-3.37,-42.98,-494,-5665,6057,-1,0,-1
177.43,-3.38,-42.99,-500,-5663,6053,-1,0,-1
177.43,-3.37,-42.99,-492,-5665,6058,-1,-1,-1
177.43,-3.37,-42.99,-495,-5662,6055,-1,-1,-1
177.43,-3.37,-42.99,-490,-5666,6059,0,-1,0
177.43,-3.37,-42.99,-481,-5658,6055,-1,-1,-1
177.43,-3.37,-42.99,-477,-5656,6068,-1,-1,0
177.43,-3.36,-42.99,-468,-5651,6071,-1,-1,0
177.43,-3.36,-43.00,-468,-5645,6061,-1,0,0
177.43,-3.36,-43.00,-478,-5659,6056,-1,0,0
177.43,-3.37,-43.00,-491,-5656,6059,-1,0,0
177.42,-3.37,-43.01,-495,-5663,6052,-1,0,-1
177.42,-3.37,-43.01,-494,-5670,6057,-1,-1,-1
177.42,-3.37,-43.01,-494,-5669,6057,0,0,-1
177.42,-3.37,-43.01,-494,-5663,6056,0,-1,0
177.42,-3.37,-43.01,-484,-5662,6053,0,-1,-1
177.43,-3.36,-43.01,-484,-5662,6072,0,0,-1
177.43,-3.36,-43.01,-483,-5666,6070,-1,-1,-1
177.43,-3.36,-43.01,-485,-5657,6068,-1,-1,-1
177.43,-3.36,-43.01,-484,-5655,6064,-1,-1,0
177.43,-3.36,-43.02,-477,-5657,6056,-1,0,0
177.43,-3.36,-43.03,-478,-5670,6049,-1,-1,-1
177.43,-3.35,-43.03,-471,-5671,6041,0,-1,-1
177.43,-3.35,-43.03,-471,-5674,6057,0,-1,0
177.43,-3.34,-43.02,-470,-5667,6067,-1,-1,0
177.43,-3.34,-43.02,-487,-5666,6058,-1,-1,0
177.43,-3.35,-43.02,-488,-5666,6058,0,0,0
177.43,-3.35,-43.02,-490,-5663,6070,0,-1,-1
177.43,-3.35,-43.02,-489,-5661,6065,-1,0,-1
177.43,-3.35,-43.02,-488,-5659,6060,-1,-1,-1
177.44,-3.34,-43.02,-481,-5658,6063,0,-1,-1
177.44,-3.34,-43.02,-474,-5658,6066,0,0,-1
177.44,-3.33,-43.02,-470,-5658,6061,0,0,-1
177.44,-3.33,-43.01,-472,-5663,6071,0,0,-1
177.45,-3.33,-43.01,-473,-5655,6069,-1,0,-1
177.45,-3.33,-43.02,-472,-5651,6064,-1,0,-1
177.45,-3.33,-43.02,-477,-5656,6067,-1,0,-1
177.45,-3.34,-43.02,-475,-5663,6060,-1,0,-1
177.45,-3.34,-43.03,-478,-5666,6053,-1,0,-1
177.45,-3.34,-43.03,-479,-5671,6056,-1,0,-1
177.45,-3.34,-43.03,-478,-5674,6039,-1,0,-1
177.45,-3.34,-43.04,-487,-5675,6038,0,0,-1
177.45,-3.34,-43.04,-484,-5671,6043,0,-1,-1
177.45,-3.34,-43.04,-477,-5666,6052,-1,0,-1
177.45,-3.34,-43.04,-474,-5661,6060,-1,-1,0
177.45,-3.33,-43.04,-461,-5665,6057,0,0,0
177.45,-3.34,-43.04,-460,-5663,6050,-1,0,0
177.45,-3.34,-43.04,-467,-5662,6062,-1,0,0
177.45,-3.35,-43.05,-483,-5663,6062,-1,0,0
177.44,-3.36,-43.05,-489,-5663,6063,-1,0,0
177.44,-3.36,-43.05,-480,-5669,6053,-1,0,0
177.43,-3.37,-43.06,-493,-5681,6044,0,0,0
177.43,-3.37,-43.05,-489,-5674,6034,0,0,0
177.43,-3.37,-43.04,-486,-5680,6047,0,-1,0
177.44,-3.36,-43.03,-480,-5667,6050,0,-1,-1
177.44,-3.36,-43.03,-479,-5653,6063,0,0,0
177.44,-3.36,-43.02,-475,-5648,6058,0,-1,0
177.44,-3.36,-43.01,-477,-5647,6060,0,0,0
177.44,-3.36,-43.01,-482,-5653,6055,-1,0,0
177.43,-3.37,-43.02,-486,-5664,6051,-1,0,-1
177.43,-3.37,-43.02,-479,-5674,6046,0,0,0
177.43,-3.37,-43.01,-485,-5668,6062,0,-1,0
177.43,-3.37,-43.00,-480,-5665,6056,0,0,0
177.43,-3.37,-43.00,-489,-5661,6061,0,-1,0
177.43,-3.37,-42.99,-489,-5658,6067,0,0,0
177.43,-3.37,-42.99,-493,-5658,6062,0,0,0
177.43,-3.38,-42.98,-486,-5659,6066,0,0,0
177.43,-3.38,-42.98,-484,-5662,6056,0,0,-1
177.43,-3.38,-42.98,-485,-5663,6053,0,-1,-1
177.43,-3.37,-42.97,-484,-5666,6065,0,-1,-1
177.43,-3.37,-42.97,-487,-5662,6064,0,-1,0
177.43,-3.37,-42.97,-485,-5663,6068,0,-1,0
177.43,-3.37,-42.97,-483,-5659,6068,0,0,0
177.43,-3.37,-42.96,-492,-5654,6064,0,-1,0
177.42,-3.38,-42.96,-492,-5651,6064,0,0,0
177.43,-3.38,-42.96,-488,-5656,6059,0,0,0
177.42,-3.38,-42.96,-488,-5659,6053,0,0,0
177.42,-3.38,-42.96,-483,-5655,6058,0,0,0
177.42,-3.38,-42.95,-487,-5657,6050,0,0,0
177.42,-3.38,-42.94,-491,-5657,6063,0,-1,-1
177.42,-3.38,-42.94,-491,-5656,6077,0,-1,-1
177.42,-3.38,-42.93,-501,-5648,6068,0,-1,0
177.42,-3.39,-42.92,-501,-5640,6067,0,-1,0
177.42,-3.39,-42.91,-497,-5648,6076,0,-1,0
177.42,-3.39,-42.91,-488,-5644,6073,0,-1,0
177.41,-3.39,-42.91,-482,-5646,6079,0,-1,0
177.41,-3.39,-42.91,-481,-5644,6071,-1,0,0
177.41,-3.39,-42.91,-491,-5639,6063,-1,0,0
177.41,-3.40,-42.91,-489,-5651,6063,0,0,0
177.41,-3.40,-42.91,-495,-5649,6066,-1,0,0
177.40,-3.40,-42.91,-486,-5661,6064,0,0,0
177.40,-3.41,-42.91,-490,-5664,6058,0,0,0
177.40,-3.41,-42.91,-489,-5661,6059,0,0,0
177.40,-3.40,-42.90,-496,-5654,6072,0,-1,0
177.40,-3.40,-42.89,-490,-5644,6071,0,-1,0
177.40,-3.40,-42.88,-483,-5647,6066,0,-1,0
177.40,-3.40,-42.88,-481,-5644,6068,0,-1,0
177.40,-3.40,-42.88,-479,-5643,6079,0,0,0
177.39,-3.41,-42.88,-484,-5641,6075,-1,0,0
177.39,-3.41,-42.88,-484,-5649,6066,-1,0,0
177.39,-3.41,-42.88,-492,-5651,6072,-1,0,0
177.39,-3.41,-42.88,-491,-5650,6062,0,0,0
177.39,-3.41,-42.87,-482,-5648,6077,0,0,0
177.39,-3.41,-42.87,-483,-5646,6081,0,0,0
177.39,-3.42,-42.86,-491,-5650,6071,0,0,0
177.38,-3.42,-42.86,-494,-5646,6063,0,0,0
177.38,-3.43,-42.85,-499,-5646,6074,0,0,0
177.38,-3.43,-42.85,-498,-5647,6078,0,0,-1
177.38,-3.43,-42.85,-490,-5644,6078,0,0,-1
177.38,-3.43,-42.84,-491,-5647,6084,0,-1,0
177.38,-3.42,-42.84,-486,-5647,6078,0,0,0
177.38,-3.42,-42.83,-481,-5643,6085,0,-1,0
177.38,-3.42,-42.82,-485,-5631,6079,0,0,0
177.38,-3.42,-42.82,-487,-5633,6082,-1,0,0
177.37,-3.43,-42.82,-492,-5634,6083,-1,0,0
177.37,-3.43,-42.82,-491,-5644,6078,-1,0,0
177.37,-3.44,-42.83,-498,-5644,6073,0,0,0
177.37,-3.44,-42.83,-499,-5642,6072,0,-1,0
177.37,-3.44,-42.82,-496,-5640,6074,0,-1,-1
177.37,-3.43,-42.82,-495,-5639,6067,0,-1,0
177.37,-3.43,-42.82,-496,-5642,6068,0,-1,-1
177.37,-3.43,-42.82,-504,-5644,6070,0,-1,-1
177.37,-3.43,-42.82,-493,-5636,6071,-1,-1,-1
177.37,-3.43,-42.81,-487,-5631,6072,0,-1,-1
177.38,-3.42,-42.82,-493,-5638,6083,0,-1,-1
177.38,-3.42,-42.81,-486,-5635,6100,-1,-1,-1
177.38,-3.41,-42.81,-495,-5636,6088,-1,-1,0
177.38,-3.41,-42.82,-490,-5637,6079,-1,-1,-1
177.38,-3.41,-42.82,-494,-5638,6065,-1,-1,-1
177.38,-3.41,-42.82,-491,-5644,6066,0,-1,-1
177.38,-3.41,-42.82,-489,-5642,6079,0,-1,-1
177.38,-3.41,-42.81,-495,-5645,6088,0,-1,-1
177.39,-3.40,-42.81,-497,-5637,6075,0,-1,0
177.39,-3.40,-42.81,-494,-5649,6069,0,-1,-1
177.39,-3.39,-42.81,-495,-5646,6065,0,-1,-1
177.39,-3.39,-42.81,-491,-5638,6072,-1,-1,-1
177.39,-3.39,-42.82,-490,-5633,6074,-1,-1,-1
177.39,-3.39,-42.82,-480,-5629,6072,-1,-1,-1
177.39,-3.38,-42.83,-472,-5632,6067,-1,0,-1
177.39,-3.39,-42.84,-477,-5645,6071,-1,0,0
177.39,-3.39,-42.85,-490,-5638,6074,-1,0,0
177.39,-3.39,-42.85,-500,-5641,6073,-1,0,-1
177.39,-3.39,-42.85,-500,-5645,6074,-1,-1,-1
177.39,-3.39,-42.86,-497,-5655,6057,0,-1,-1
177.39,-3.39,-42.86,-484,-5647,6062,0,0,0
177.39,-3.39,-42.86,-485,-5645,6057,-1,-1,0
177.39,-3.39,-42.87,-490,-5644,6065,-1,0,-1
177.39,-3.39,-42.87,-485,-5650,6078,-1,-1,-1
177.39,-3.39,-42.87,-484,-5656,6080,0,-1,-1
177.39,-3.38,-42.87,-477,-5648,6070,-1,-1,-1
177.39,-3.38,-42.87,-470,-5641,6065,-1,0,0
177.39,-3.38,-42.87,-472,-5647,6069,-1,0,0
177.39,-3.38,-42.88,-477,-5649,6084,-1,0,0
177.39,-3.39,-42.88,-498,-5645,6078,-1,0,-1
177.39,-3.39,-42.89,-509,-5650,6065,-1,0,-1
177.39,-3.39,-42.90,-503,-5655,6057,-1,-1,-1
177.40,-3.38,-42.90,-498,-5656,6067,0,-1,-1
177.40,-3.38,-42.89,-487,-5654,6069,0,-1,-1
177.40,-3.37,-42.89,-479,-5648,6069,0,-1,0
177.40,-3.37,-42.89,-479,-5639,6069,0,-1,0
177.40,-3.37,-42.89,-481,-5638,6070,-1,-1,0
177.40,-3.37,-42.89,-475,-5634,6080,-1,0,-1
177.40,-3.37,-42.90,-482,-5641,6084,-1,0,-1
177.40,-3.37,-42.91,-485,-5649,6073,-1,0,0
177.40,-3.38,-42.91,-494,-5664,6071,-1,0,0
177.40,-3.38,-42.92,-487,-5664,6067,-1,0,-1
177.40,-3.38,-42.92,-489,-5664,6067,0,0,-1
177.40,-3.38,-42.92,-491,-5660,6066,-1,0,-1
177.40,-3.38,-42.92,-499,-5658,6069,-1,-1,-1
177.41,-3.37,-42.92,-488,-5654,6064,0,-1,-1
177.41,-3.37,-42.92,-487,-5655,6076,0,0,-1
177.41,-3.37,-42.91,-484,-5649,6074,0,0,-1
177.41,-3.37,-42.91,-483,-5651,6077,-1,0,-1
177.41,-3.37,-42.92,-480,-5646,6069,-1,0,-1
177.41,-3.37,-42.93,-478,-5647,6058,-1,0,-1
177.41,-3.37,-42.94,-485,-5652,6056,-1,0,0
177.41,-3.37,-42.94,-488,-5660,6062,-1,0,0
177.41,-3.37,-42.95,-490,-5663,6060,-1,0,-1
177.41,-3.37,-42.95,-489,-5666,6051,-1,0,-1
177.41,-3.37,-42.95,-487,-5659,6055,-1,0,0
177.41,-3.37,-42.95,-484,-5661,6058,0,0,-1
177.41,-3.37,-42.95,-482,-5664,6064,0,0,-1
177.41,-3.37,-42.95,-481,-5658,6070,0,-1,-1
177.41,-3.37,-42.95,-484,-5654,6058,-1,-1,-1
177.42,-3.36,-42.95,-486,-5650,6059,-1,0,-1
177.42,-3.36,-42.96,-479,-5656,6064,-1,-1,-1
177.42,-3.36,-42.96,-482,-5655,6070,-1,0,-1
177.42,-3.36,-42.96,-478,-5658,6072,-1,0,-1
177.42,-3.36,-42.96,-475,-5648,6071,-1,0,0
177.42,-3.36,-42.97,-477,-5650,6061,-1,0,0
177.42,-3.36,-42.97,-479,-5664,6052,-1,0,0
177.42,-3.36,-42.97,-484,-5657,6063,0,0,-1
177.42,-3.36,-42.97,-485,-5663,6055,-1,0,-1
177.42,-3.36,-42.98,-485,-5660,6063,-1,0,-1
177.42,-3.36,-42.99,-489,-5666,6060,-1,0,-1
177.42,-3.36,-42.98,-482,-5664,6062,0,-1,-1
177.42,-3.36,-42.98,-476,-5659,6057,0,-1,0
177.42,-3.36,-42.98,-470,-5653,6062,-1,-1,0
177.42,-3.36,-42.98,-476,-5652,6057,-1,0,0
177.42,-3.36,-42.98,-479,-5659,6059,-1,0,0
177.42,-3.36,-42.99,-485,-5664,6067,-1,0,0
177.42,-3.36,-42.99,-487,-5660,6064,-1,-1,-1
177.42,-3.36,-42.99,-489,-5659,6058,-1,-1,-1
177.42,-3.36,-42.99,-484,-5660,6064,0,-1,-1
177.43,-3.35,-42.99,-477,-5654,6064,0,-1,0
177.43,-3.34,-42.99,-468,-5649,6063,0,-1,-1
177.43,-3.34,-42.99,-473,-5651,6056,0,-1,0
177.42,-3.35,-42.99,-474,-5658,6057,-1,-1,0
177.42,-3.35,-42.99,-478,-5651,6065,-1,-1,0
177.42,-3.35,-42.99,-477,-5658,6064,-1,0,0
177.42,-3.34,-42.99,-473,-5662,6051,0,-1,-1
177.42,-3.34,-42.99,-468,-5663,6052,0,0,0
177.43,-3.33,-42.99,-476,-5675,6050,0,-1,0
177.43,-3.33,-42.99,-482,-5670,6046,0,-1,-1
177.43,-3.33,-42.99,-491,-5665,6052,0,-1,0
177.43,-3.33,-42.99,-490,-5666,6049,0,-1,-1
177.43,-3.33,-42.99,-490,-5671,6055,0,-1,-1
177.43,-3.33,-42.99,-475,-5671,6060,0,-1,-1
177.43,-3.32,-42.99,-467,-5657,6066,0,-1,-1
177.43,-3.32,-42.99,-467,-5656,6065,0,0,0
177.43,-3.32,-42.99,-473,-5644,6063,-1,0,0
177.43,-3.32,-42.99,-479,-5652,6070,-1,0,0
177.43,-3.32,-42.99,-476,-5665,6062,-1,0,-1
177.43,-3.32,-43.00,-473,-5672,6062,-1,0,0
177.43,-3.32,-43.01,-473,-5670,6046,-1,0,-1
177.43,-3.32,-43.01,-474,-5667,6052,0,0,-1
177.43,-3.32,-43.01,-478,-5670,6053,0,0,0
177.43,-3.32,-43.00,-480,-5671,6065,0,0,0
177.43,-3.32,-43.00,-481,-5667,6066,0,0,0
177.43,-3.32,-43.00,-478,-5660,6073,-1,0,0
177.43,-3.32,-43.00,-475,-5664,6071,-1,0,0
177.43,-3.32,-43.01,-475,-5667,6062,-1,0,0
177.43,-3.33,-43.01,-476,-5666,6066,0,0,0
177.43,-3.33,-43.00,-476,-5661,6070,-1,0,0
177.42,-3.34,-43.01,-482,-5660,6069,-1,0,0
177.42,-3.34,-43.02,-482,-5673,6058,-1,0,0
177.41,-3.35,-43.03,-487,-5689,6053,0,0,-1
177.41,-3.35,-43.03,-485,-5683,6048,0,-1,0
177.41,-3.35,-43.02,-483,-5670,6053,0,-1,0
177.42,-3.34,-43.02,-474,-5661,6065,0,-1,0
177.41,-3.35,-43.01,-479,-5660,6069,0,0,0
177.41,-3.36,-43.01,-488,-5663,6060,0,0,-1
177.41,-3.36,-43.00,-485,-5660,6067,0,0,-1
177.41,-3.36,-43.00,-491,-5664,6067,-1,-1,-1
177.41,-3.36,-43.01,-494,-5668,6062,0,-1,-1
177.41,-3.36,-43.00,-496,-5664,6056,0,-1,-1
177.41,-3.36,-43.00,-487,-5671,6049,0,-1,0
177.41,-3.36,-42.99,-478,-5668,6049,0,-1,0
177.41,-3.36,-42.99,-471,-5656,6044,0,0,0
177.41,-3.36,-42.98,-474,-5644,6062,0,0,0
177.41,-3.36,-42.98,-468,-5640,6067,-1,0,0
177.41,-3.36,-42.98,-483,-5653,6073,-1,0,0
177.41,-3.36,-42.98,-496,-5662,6065,0,0,0
177.41,-3.37,-42.98,-490,-5660,6063,0,0,-1
177.41,-3.37,-42.98,-495,-5670,6055,0,0,-1
177.41,-3.37,-42.98,-493,-5671,6054,0,-1,0
177.41,-3.37,-42.97,-494,-5667,6063,0,0,0
177.41,-3.37,-42.97,-490,-5660,6067,0,-1,0
177.41,-3.36,-42.96,-486,-5652,6073,0,-1,-1
177.41,-3.36,-42.95,-485,-5653,6065,0,-1,0
177.41,-3.36,-42.95,-480,-5643,6073,0,0,-1
177.41,-3.36,-42.95,-475,-5637,6065,-1,0,0
177.41,-3.36,-42.95,-481,-5640,6068,-1,0,0
177.41,-3.37,-42.96,-484,-5651,6062,-1,0,0
177.41,-3.37,-42.96,-484,-5661,6055,0,0,0
177.41,-3.38,-42.96,-486,-5664,6066,0,0,0
177.41,-3.38,-42.96,-494,-5667,6055,0,0,-1
177.41,-3.38,-42.95,-496,-5673,6055,0,0,-1
177.41,-3.38,-42.95,-491,-5674,6068,0,-1,-1
177.41,-3.37,-42.94,-488,-5670,6071,0,-1,0
177.41,-3.37,-42.94,-482,-5663,6065,0,0,0
177.41,-3.37,-42.93,-475,-5660,6059,0,-1,0
177.40,-3.37,-42.93,-481,-5651,6063,0,0,0
177.40,-3.37,-42.93,-482,-5643,6067,0,-1,0
177.40,-3.37,-42.93,-482,-5648,6076,-1,0,0
177.40,-3.37,-42.93,-490,-5645,6074,-1,0,-1
177.40,-3.38,-42.93,-493,-5662,6070,-1,0,0
177.40,-3.38,-42.93,-490,-5656,6067,0,-1,0
177.40,-3.38,-42.93,-477,-5649,6057,0,0,0
177.40,-3.38,-42.93,-493,-5647,6067,-1,0,0
177.40,-3.38,-42.93,-493,-5659,6062,0,0,0
177.39,-3.39,-42.93,-496,-5658,6056,-1,0,0
177.39,-3.40,-42.93,-493,-5658,6058,0,0,0
177.39,-3.40,-42.94,-496,-5656,6059,0,0,0
177.39,-3.40,-42.94,-487,-5661,6062,0,0,0
177.39,-3.40,-42.94,-495,-5651,6067,0,-1,-1
177.39,-3.40,-42.93,-484,-5647,6076,0,-1,-1
177.39,-3.40,-42.93,-474,-5649,6067,0,0,0
177.39,-3.40,-42.93,-482,-5652,6084,-1,0,0
177.39,-3.40,-42.93,-474,-5651,6069,0,0,0
177.39,-3.41,-42.93,-478,-5650,6070,-1,0,0
177.38,-3.42,-42.93,-486,-5656,6072,0,0,0
177.38,-3.42,-42.93,-494,-5660,6072,-1,0,-1
177.38,-3.43,-42.94,-514,-5651,6070,0,-1,0
177.38,-3.43,-42.94,-499,-5656,6064,0,0,0
177.38,-3.43,-42.93,-497,-5661,6057,0,0,0
177.38,-3.43,-42.93,-497,-5664,6044,0,-1,0
177.37,-3.43,-42.92,-495,-5658,6044,0,-1,0
177.37,-3.43,-42.91,-493,-5649,6060,0,-1,0
177.37,-3.42,-42.90,-492,-5644,6066,0,-1,0
177.37,-3.42,-42.90,-490,-5641,6066,0,-1,-1
177.37,-3.42,-42.89,-488,-5633,6069,0,-1,0
177.37,-3.42,-42.89,-484,-5639,6071,0,0,0
177.37,-3.42,-42.89,-484,-5640,6070,-1,0,0
177.37,-3.42,-42.89,-485,-5644,6070,0,0,0
177.37,-3.42,-42.89,-491,-5646,6069,0,0,0
177.36,-3.42,-42.89,-489,-5644,6075,0,-1,0
177.37,-3.42,-42.88,-499,-5651,6076,0,-1,0
177.37,-3.42,-42.88,-501,-5647,6075,0,-1,0
177.37,-3.42,-42.87,-504,-5644,6071,0,-1,-1
177.37,-3.41,-42.87,-495,-5640,6088,0,-1,0
177.37,-3.41,-42.87,-493,-5637,6084,0,-1,-1
177.37,-3.40,-42.87,-485,-5640,6077,0,0,-1
177.37,-3.40,-42.87,-491,-5637,6076,0,-1,0
177.37,-3.40,-42.87,-493,-5637,6075,-1,-1,0
177.37,-3.40,-42.87,-499,-5630,6071,-1,-1,-1
177.37,-3.40,-42.87,-499,-5640,6071,-1,-1,-1
177.38,-3.39,-42.88,-499,-5648,6069,0,-1,-1
177.38,-3.39,-42.87,-491,-5651,6064,0,-1,-1
177.38,-3.38,-42.87,-478,-5641,6074,0,-1,0
177.38,-3.37,-42.87,-471,-5633,6071,-1,-1,0
177.38,-3.38,-42.87,-482,-5641,6067,-1,0,0
177.38,-3.38,-42.87,-493,-5646,6079,0,0,-1
177.38,-3.39,-42.87,-490,-5651,6081,-1,0,-1
177.38,-3.39,-42.88,-500,-5654,6074,-1,0,-1
177.38,-3.39,-42.89,-502,-5660,6071,-1,-1,-1
177.38,-3.38,-42.89,-495,-5658,6068,0,-1,-1
177.39,-3.37,-42.90,-482,-5652,6068,0,-1,-1
177.39,-3.37,-42.90,-475,-5643,6066,-1,-1,-1
177.39,-3.37,-42.89,-474,-5637,6076,-1,-1,0
177.38,-3.37,-42.89,-474,-5630,6079,-1,0,0
177.38,-3.37,-42.90,-470,-5636,6071,-1,0,0
177.39,-3.37,-42.91,-472,-5647,6074,-1,0,-1
177.39,-3.37,-42.91,-479,-5652,6081,-1,0,-1
177.39,-3.37,-42.92,-481,-5655,6069,-1,0,-1
177.39,-3.37,-42.92,-488,-5656,6064,-1,0,-1
177.39,-3.37,-42.93,-490,-5657,6056,-1,-1,-1
177.39,-3.37,-42.93,-485,-5652,6065,0,0,0
177.39,-3.36,-42.93,-483,-5649,6078,0,0,-1
177.39,-3.36,-42.92,-474,-5654,6081,0,0,-1
177.39,-3.36,-42.92,-478,-5648,6091,-1,-1,0
177.40,-3.36,-42.92,-476,-5647,6093,-1,-1,-1
177.40,-3.36,-42.92,-479,-5645,6077,-1,0,-1
177.40,-3.35,-42.93,-471,-5647,6070,-1,-1,0
177.40,-3.35,-42.93,-475,-5650,6062,-1,0,0
177.40,-3.35,-42.94,-474,-5654,6055,-1,0,-1
177.40,-3.35,-42.94,-474,-5656,6055,0,0,0
177.40,-3.35,-42.94,-486,-5660,6058,0,0,0
177.40,-3.36,-42.94,-488,-5657,6061,0,0,-1
177.40,-3.35,-42.94,-485,-5652,6070,0,0,-1
177.41,-3.35,-42.94,-487,-5649,6067,-1,-1,-1
177.40,-3.35,-42.94,-483,-5650,6066,-1,-1,-1
177.41,-3.35,-42.95,-479,-5651,6067,-1,0,0
177.41,-3.35,-42.95,-479,-5646,6076,-1,0,0
177.41,-3.35,-42.95,-480,-5652,6071,-1,0,-1
177.41,-3.35,-42.96,-475,-5654,6065,-1,0,-1
177.41,-3.35,-42.96,-484,-5648,6077,-1,0,0
177.41,-3.35,-42.96,-479,-5646,6072,-1,-1,0
177.41,-3.35,-42.96,-479,-5653,6075,-1,0,-1
177.41,-3.35,-42.97,-480,-5659,6068,-1,0,-1
177.41,-3.35,-42.97,-484,-5657,6070,0,0,-1
177.42,-3.34,-42.97,-488,-5655,6068,0,-1,-1
177.41,-3.34,-42.96,-477,-5645,6069,-1,-1,-1
177.41,-3.34,-42.97,-476,-5649,6055,-1,-1,0
177.41,-3.35,-42.97,-479,-5656,6056,-1,0,0
177.41,-3.35,-42.97,-490,-5661,6066,-1,0,-1
177.42,-3.35,-42.97,-484,-5654,6064,-1,0,-1
177.41,-3.35,-42.98,-495,-5663,6066,-1,-1,-1
177.41,-3.35,-42.99,-488,-5664,6064,-1,-1,-1
177.42,-3.34,-42.99,-489,-5666,6053,0,-1,-1
177.42,-3.34,-42.99,-480,-5664,6051,0,-1,-1
177.42,-3.34,-42.99,-471,-5654,6058,0,-1,0
177.42,-3.34,-42.98,-471,-5648,6069,0,0,0
177.42,-3.34,-42.98,-471,-5649,6079,-1,0,0
177.42,-3.34,-42.98,-475,-5646,6068,-1,0,0
177.42,-3.34,-42.99,-488,-5646,6077,-1,0,0
177.42,-3.34,-42.99,-486,-5653,6075,0,0,-1
177.42,-3.34,-42.99,-484,-5661,6068,-1,-1,0
177.42,-3.33,-43.00,-486,-5664,6057,-1,-1,0
177.42,-3.33,-42.99,-484,-5661,6067,0,-1,0
177.42,-3.33,-42.99,-484,-5654,6063,0,-1,-1
177.42,-3.33,-42.99,-483,-5649,6079,0,-1,0
177.42,-3.33,-42.99,-475,-5648,6076,0,-1,-1
177.42,-3.32,-42.99,-479,-5648,6066,-1,-1,-1
177.42,-3.32,-42.99,-473,-5648,6064,-1,-1,-1
177.42,-3.32,-42.99,-478,-5659,6075,-1,0,-1
177.42,-3.32,-42.99,-480,-5650,6073,-1,0,0
177.42,-3.32,-43.00,-476,-5655,6063,-1,0,0
177.42,-3.33,-43.00,-482,-5657,6062,0,0,-1
177.42,-3.33,-43.00,-487,-5660,6063,0,-1,-1
177.42,-3.33,-43.00,-485,-5666,6072,0,-1,0
177.42,-3.32,-43.00,-488,-5665,6075,0,-1,-1
177.42,-3.32,-43.00,-483,-5666,6079,0,-1,-1
177.42,-3.32,-43.00,-478,-5668,6078,0,0,-1
177.43,-3.32,-42.99,-474,-5656,6074,-1,-1,-1
177.43,-3.32,-43.00,-475,-5650,6066,-1,0,-1
177.43,-3.32,-43.00,-480,-5657,6063,-1,-1,-1
177.43,-3.32,-43.01,-487,-5663,6051,-1,-1,0
177.42,-3.32,-43.02,-486,-5663,6045,-1,0,0
177.43,-3.32,-43.02,-480,-5659,6055,0,0,-1
177.42,-3.32,-43.02,-480,-5650,6053,0,0,-1
177.42,-3.32,-43.02,-473,-5665,6055,0,-1,0
177.43,-3.32,-43.02,-472,-5662,6061,-1,-1,-1
177.43,-3.32,-43.02,-484,-5658,6063,0,0,0
177.42,-3.32,-43.02,-486,-5652,6061,-1,-1,0
177.42,-3.32,-43.02,-489,-5664,6070,-1,0,-1
177.43,-3.32,-43.03,-491,-5665,6072,-1,0,-1
177.43,-3.32,-43.03,-487,-5671,6059,0,0,-1
177.43,-3.32,-43.02,-481,-5659,6058,0,-1,0
177.43,-3.32,-43.02,-471,-5646,6062,-1,0,0
177.43,-3.32,-43.03,-468,-5646,6052,-1,0,-1
177.43,-3.33,-43.03,-481,-5658,6055,-1,0,-1
177.43,-3.32,-43.03,-488,-5664,6050,-1,0,-1
177.43,-3.33,-43.04,-495,-5665,6062,-1,0,-1
177.43,-3.33,-43.04,-492,-5663,6049,-1,-1,0
177.43,-3.33,-43.04,-494,-5674,6052,0,-1,-1
177.43,-3.33,-43.04,-487,-5666,6057,0,-1,-1
177.43,-3.32,-43.04,-474,-5657,6057,0,-1,0
177.43,-3.32,-43.04,-467,-5653,6058,-1,-1,0
177.42,-3.33,-43.04,-475,-5653,6062,-1,0,0
177.42,-3.33,-43.05,-477,-5668,6053,-1,0,0
177.42,-3.34,-43.05,-484,-5670,6058,-1,0,0
177.42,-3.34,-43.05,-486,-5673,6060,0,0,0
177.42,-3.34,-43.05,-485,-5673,6059,0,-1,0
177.42,-3.34,-43.05,-483,-5673,6052,0,0,0
177.42,-3.34,-43.05,-483,-5673,6049,0,0,0
177.42,-3.34,-43.04,-476,-5666,6051,0,0,0
177.42,-3.34,-43.03,-481,-5662,6056,0,0,0
177.42,-3.34,-43.03,-490,-5663,6063,0,-1,0
177.41,-3.35,-43.03,-490,-5657,6069,0,0,-1
177.42,-3.34,-43.02,-486,-5666,6079,0,-1,-1
177.42,-3.34,-43.01,-486,-5652,6073,0,0,0
177.42,-3.34,-43.01,-488,-5647,6065,0,0,0
177.41,-3.35,-43.01,-484,-5654,6062,0,-1,0
177.41,-3.35,-43.01,-480,-5662,6052,0,0,0
177.41,-3.35,-43.01,-484,-5661,6058,0,0,0
177.41,-3.35,-43.01,-486,-5666,6064,-1,-1,0
177.41,-3.35,-43.01,-492,-5659,6059,0,0,0
177.41,-3.35,-43.01,-491,-5667,6057,0,0,-1
177.41,-3.35,-43.00,-493,-5664,6062,0,-1,-1
177.41,-3.35,-43.00,-486,-5667,6055,0,-1,-1
177.41,-3.35,-42.99,-484,-5663,6067,0,-1,0
177.40,-3.35,-42.99,-483,-5662,6068,0,0,0
177.40,-3.35,-42.99,-483,-5664,6068,-1,0,0
177.40,-3.35,-42.99,-485,-5658,6058,0,0,0
177.40,-3.35,-43.00,-485,-5659,6052,-1,0,0
177.40,-3.35,-43.00,-489,-5659,6061,-1,0,0
177.40,-3.36,-42.99,-484,-5660,6065,0,0,0
177.40,-3.36,-42.99,-484,-5649,6068,-1,0,0
177.40,-3.36,-42.99,-485,-5651,6059,-1,-1,0
177.40,-3.36,-42.99,-492,-5662,6059,0,-1,-1
177.40,-3.36,-42.99,-486,-5663,6070,0,-1,0
177.40,-3.35,-42.99,-472,-5656,6061,0,-1,-1
177.40,-3.35,-42.98,-471,-5651,6060,0,0,0
177.40,-3.36,-42.98,-477,-5652,6054,0,0,0
177.39,-3.36,-42.98,-489,-5655,6062,0,0,0
177.39,-3.37,-42.98,-494,-5654,6069,0,0,-1
177.40,-3.37,-42.98,-492,-5657,6057,0,0,-1
177.40,-3.37,-42.98,-497,-5664,6069,0,-1,-1
177.40,-3.36,-42.97,-491,-5669,6059,0,-1,-1
177.40,-3.36,-42.97,-487,-5665,6062,0,-1,-1
177.40,-3.36,-42.97,-484,-5654,6057,0,-1,0
177.40,-3.35,-42.96,-478,-5658,6048,0,-1,0
177.40,-3.35,-42.95,-467,-5646,6065,0,0,-1
177.40,-3.35,-42.95,-471,-5643,6067,-1,0,0
177.40,-3.35,-42.95,-478,-5645,6076,-1,0,0
177.39,-3.36,-42.95,-481,-5648,6069,-1,0,0
177.39,-3.36,-42.95,-484,-5656,6067,0,0,-1
177.40,-3.36,-42.95,-490,-5655,6063,0,-1,-1
177.40,-3.36,-42.95,-491,-5660,6065,0,0,-1
177.40,-3.37,-42.94,-495,-5661,6069,0,-1,-1
177.39,-3.36,-42.94,-490,-5653,6067,0,-1,0
177.39,-3.36,-42.93,-483,-5646,6067,0,-1,-1
177.40,-3.36,-42.93,-476,-5647,6069,0,-1,0
177.39,-3.36,-42.93,-482,-5646,6072,0,-1,0
177.40,-3.36,-42.92,-474,-5641,6077,0,0,0
177.39,-3.36,-42.92,-474,-5638,6071,0,0,0
177.39,-3.36,-42.92,-477,-5648,6068,-1,0,0
177.39,-3.37,-42.92,-489,-5649,6066,0,0,0
177.39,-3.37,-42.92,-498,-5651,6070,0,0,0
177.39,-3.37,-42.92,-500,-5647,6078,0,0,0
177.39,-3.37,-42.91,-493,-5652,6070,0,0,0
177.39,-3.37,-42.91,-491,-5655,6071,0,-1,0
177.39,-3.37,-42.91,-483,-5649,6067,0,0,0
177.39,-3.37,-42.90,-490,-5651,6080,0,-1,-1
177.39,-3.37,-42.89,-487,-5646,6077,0,0,-1
177.39,-3.37,-42.89,-486,-5648,6071,0,0,0
177.39,-3.37,-42.88,-484,-5644,6065,0,-1,0
177.39,-3.37,-42.89,-482,-5644,6067,0,-1,0
177.38,-3.37,-42.89,-480,-5645,6068,-1,0,0
177.39,-3.37,-42.89,-486,-5654,6059,0,0,-1
177.38,-3.37,-42.89,-489,-5652,6056,0,0,0
177.38,-3.37,-42.88,-490,-5643,6066,0,-1,0
177.38,-3.37,-42.87,-476,-5645,6069,0,0,0
177.38,-3.37,-42.87,-484,-5646,6075,0,0,0
177.37,-3.38,-42.87,-489,-5644,6085,0,0,0
177.37,-3.38,-42.87,-496,-5640,6078,0,0,0
177.37,-3.38,-42.87,-497,-5638,6076,0,0,0
177.37,-3.39,-42.87,-498,-5639,6077,0,-1,-1
177.37,-3.38,-42.86,-485,-5644,6078,0,-1,0
177.37,-3.38,-42.86,-481,-5642,6073,0,0,0
177.37,-3.38,-42.86,-475,-5640,6071,0,-1,0
177.37,-3.38,-42.85,-477,-5633,6077,0,-1,0
177.37,-3.38,-42.85,-483,-5638,6085,0,-1,0
177.37,-3.38,-42.85,-490,-5636,6079,-1,0,0
177.36,-3.39,-42.86,-486,-5638,6076,-1,0,0
177.36,-3.39,-42.86,-482,-5639,6073,0,0,-1
177.36,-3.39,-42.86,-492,-5645,6087,0,-1,0
177.36,-3.39,-42.85,-496,-5645,6088,-1,-1,-1
177.36,-3.39,-42.85,-504,-5653,6084,0,-1,-1
177.37,-3.38,-42.85,-501,-5650,6076,0,-1,0
177.37,-3.38,-42.85,-495,-5646,6082,0,-1,-1
177.37,-3.37,-42.85,-489,-5640,6078,0,-1,-1
177.37,-3.37,-42.85,-480,-5627,6084,-1,-1,-1
177.37,-3.37,-42.85,-481,-5627,6079,-1,-1,0
177.37,-3.37,-42.86,-479,-5626,6075,-1,-1,0
177.37,-3.37,-42.87,-479,-5627,6079,-1,0,-1
177.37,-3.36,-42.87,-482,-5633,6081,-1,-1,-1
177.37,-3.36,-42.88,-482,-5644,6076,-1,0,-1
177.37,-3.36,-42.88,-486,-5651,6072,-1,-1,-1
177.37,-3.36,-42.88,-484,-5650,6079,0,-1,-1
177.37,-3.36,-42.88,-486,-5644,6079,0,-1,-1
177.38,-3.35,-42.88,-479,-5641,6079,0,0,-1
177.38,-3.35,-42.88,-476,-5641,6077,0,-1,-1
177.39,-3.34,-42.88,-479,-5644,6081,-1,-1,-1
177.39,-3.34,-42.88,-481,-5647,6071,-1,0,-1
177.39,-3.34,-42.88,-480,-5646,6074,-1,0,-1
177.39,-3.34,-42.89,-477,-5641,6073,-1,0,-1
177.39,-3.34,-42.90,-481,-5650,6078,-1,-1,-1
177.39,-3.34,-42.90,-483,-5648,6074,-1,0,-1
177.39,-3.34,-42.90,-479,-5650,6061,-1,-1,-1
177.39,-3.34,-42.90,-475,-5643,6066,-1,-1,0
177.38,-3.34,-42.91,-482,-5646,6063,-1,0,0
177.38,-3.34,-42.92,-481,-5653,6065,-1,0,-1
177.39,-3.34,-42.92,-481,-5663,6075,0,0,-1
177.39,-3.34,-42.91,-488,-5659,6075,0,-1,-1
177.39,-3.34,-42.91,-482,-5642,6075,0,-1,-1
177.39,-3.34,-42.91,-470,-5644,6079,-1,-1,0
177.39,-3.34,-42.92,-471,-5652,6072,-1,0,-1
177.39,-3.34,-42.92,-479,-5657,6074,0,0,-1
177.40,-3.33,-42.92,-479,-5657,6070,-1,0,-1
177.40,-3.34,-42.92,-489,-5650,6060,-1,0,-1
177.40,-3.34,-42.93,-489,-5647,6060,-1,-1,-1
177.40,-3.33,-42.93,-487,-5644,6058,0,-1,-1
177.41,-3.33,-42.93,-484,-5648,6068,-1,-1,-1
177.41,-3.32,-42.93,-477,-5647,6068,-1,0,-1
177.41,-3.32,-42.93,-472,-5651,6074,-1,0,0
177.41,-3.32,-42.93,-476,-5651,6074,-1,0,0
177.41,-3.33,-42.94,-477,-5660,6070,-1,0,0
177.41,-3.33,-42.95,-481,-5658,6073,-1,0,-1
177.41,-3.33,-42.95,-482,-5654,6073,-1,0,-1
177.41,-3.33,-42.96,-483,-5658,6068,-1,-1,-1
177.41,-3.33,-42.96,-480,-5664,6067,0,0,-1
177.41,-3.33,-42.96,-479,-5664,6066,0,0,0
177.41,-3.33,-42.96,-484,-5654,6063,-1,0,-1
177.41,-3.33,-42.96,-483,-5654,6074,-1,0,-1
177.41,-3.33,-42.96,-483,-5651,6078,-1,-1,-1
177.41,-3.32,-42.96,-485,-5655,6081,-1,-1,-1
177.41,-3.32,-42.96,-486,-5665,6076,-1,-1,-1
177.42,-3.32,-42.97,-475,-5662,6067,-1,0,-1
177.41,-3.32,-42.98,-476,-5658,6060,-1,-1,0
177.41,-3.32,-42.99,-471,-5656,6060,-1,0,0
177.41,-3.33,-42.99,-474,-5655,6058,-1,0,0
177.41,-3.33,-42.99,-475,-5655,6061,-1,0,-1
177.41,-3.33,-42.99,-485,-5660,6068,-1,-1,-1
177.41,-3.33,-43.00,-490,-5667,6062,-1,-1,-1
177.41,-3.33,-43.00,-503,-5665,6050,0,-1,-1
177.41,-3.33,-43.00,-492,-5666,6048,0,-1,-1
177.41,-3.32,-42.99,-482,-5664,6054,0,-1,-1
177.42,-3.32,-42.99,-478,-5661,6055,0,-1,-1
177.42,-3.32,-42.99,-476,-5647,6048,-1,-1,-1
177.42,-3.31,-42.99,-479,-5652,6065,-1,-1,-1
177.42,-3.31,-43.00,-478,-5651,6066,-1,0,0
177.42,-3.31,-43.01,-482,-5664,6060,-1,0,-1
177.43,-3.31,-43.01,-486,-5665,6061,-1,-1,-1
177.42,-3.31,-43.01,-484,-5667,6057,-1,-1,0
177.42,-3.31,-43.02,-487,-5660,6054,0,-1,-1
177.42,-3.31,-43.02,-481,-5656,6053,0,-1,0
177.42,-3.31,-43.01,-482,-5657,6061,0,-1,-1
177.42,-3.30,-43.01,-479,-5659,6055,0,-1,-1
177.42,-3.30,-43.01,-478,-5648,6062,-1,-1,0
177.42,-3.30,-43.01,-478,-5654,6055,-1,0,-1
177.42,-3.31,-43.02,-486,-5674,6048,-1,0,-1
177.43,-3.30,-43.03,-487,-5678,6054,0,-1,-1
177.43,-3.30,-43.02,-474,-5668,6057,0,-1,0
177.42,-3.30,-43.02,-469,-5659,6055,0,-1,0
177.42,-3.30,-43.02,-468,-5652,6055,0,0,0
177.42,-3.30,-43.02,-476,-5648,6057,0,0,-1
177.42,-3.30,-43.02,-483,-5653,6057,0,0,-1
177.43,-3.30,-43.02,-486,-5654,6062,-1,0,-1
177.43,-3.30,-43.02,-492,-5655,6062,-1,0,-1
177.43,-3.30,-43.02,-494,-5664,6052,-1,-1,-1
177.43,-3.30,-43.03,-488,-5671,6051,0,-1,-1
177.43,-3.30,-43.02,-481,-5658,6059,0,0,0
177.43,-3.29,-43.02,-477,-5652,6051,0,0,0
177.43,-3.29,-43.01,-469,-5638,6065,0,0,-1
177.43,-3.30,-43.01,-471,-5650,6081,-1,-1,0
177.43,-3.30,-43.02,-469,-5654,6073,-1,0,-1
177.43,-3.30,-43.03,-479,-5660,6053,-1,0,0
177.43,-3.30,-43.03,-479,-5663,6044,-1,-1,0
177.43,-3.30,-43.03,-475,-5670,6040,0,0,0
177.43,-3.30,-43.04,-481,-5670,6036,0,0,0
177.43,-3.31,-43.04,-477,-5667,6042,0,0,0
177.43,-3.31,-43.03,-475,-5665,6041,0,0,0
177.42,-3.31,-43.03,-481,-5654,6053,0,0,0
177.42,-3.32,-43.03,-481,-5662,6058,0,0,0
177.42,-3.32,-43.03,-483,-5664,6060,-1,0,0
177.42,-3.32,-43.03,-480,-5660,6067,-1,0,0
177.42,-3.33,-43.03,-475,-5655,6063,-1,0,0
177.42,-3.33,-43.04,-472,-5656,6057,-1,0,0
177.41,-3.33,-43.04,-478,-5656,6050,0,0,0
177.41,-3.34,-43.04,-486,-5662,6044,0,0,0
177.41,-3.34,-43.04,-478,-5664,6047,0,0,0
177.41,-3.33,-43.04,-483,-5665,6061,0,-1,0
177.41,-3.33,-43.03,-477,-5663,6052,0,0,0
177.41,-3.33,-43.03,-482,-5664,6049,0,-1,-1
177.41,-3.34,-43.03,-473,-5658,6054,0,-1,0
177.41,-3.33,-43.03,-470,-5654,6062,0,-1,0
177.41,-3.33,-43.02,-471,-5660,6063,0,0,0
177.41,-3.33,-43.02,-470,-5659,6075,0,0,0
177.41,-3.33,-43.02,-473,-5659,6065,-1,0,0
177.41,-3.33,-43.02,-482,-5655,6065,-1,0,0
177.41,-3.33,-43.01,-478,-5659,6065,0,0,-1
177.41,-3.33,-43.01,-480,-5656,6071,0,0,-1
177.41,-3.33,-43.00,-482,-5662,6072,0,-1,0
177.41,-3.33,-42.99,-483,-5661,6068,0,0,0
177.40,-3.34,-42.99,-494,-5650,6063,0,-1,0
177.40,-3.34,-42.99,-484,-5644,6065,0,-1,-1
177.41,-3.33,-42.99,-479,-5664,6071,0,0,-1
177.41,-3.33,-42.99,-477,-5671,6065,0,-1,-1
177.41,-3.33,-42.97,-472,-5653,6072,0,-1,0
177.41,-3.33,-42.97,-471,-5644,6063,0,-1,0
177.41,-3.33,-42.96,-477,-5645,6068,-1,0,0
177.40,-3.34,-42.96,-485,-5643,6076,0,0,-1
177.40,-3.34,-42.96,-489,-5654,6075,0,0,-1
177.40,-3.34,-42.96,-494,-5653,6060,-1,0,-1
177.40,-3.34,-42.97,-492,-5659,6058,-1,-1,0
177.40,-3.34,-42.97,-489,-5664,6057,0,-1,0
177.40,-3.34,-42.96,-477,-5661,6057,0,-1,-1
177.40,-3.34,-42.95,-479,-5652,6068,0,-1,0
177.40,-3.34,-42.94,-477,-5643,6074,0,-1,0
177.40,-3.34,-42.94,-475,-5649,6076,-1,0,0
177.40,-3.34,-42.94,-475,-5647,6076,-1,0,0
177.40,-3.34,-42.94,-473,-5650,6066,-1,0,0
177.39,-3.35,-42.95,-479,-5654,6068,-1,0,0
177.39,-3.35,-42.94,-482,-5654,6071,0,0,0
177.39,-3.35,-42.94,-485,-5647,6061,-1,-1,0
177.39,-3.35,-42.95,-486,-5654,6054,0,0,0
177.39,-3.35,-42.95,-480,-5665,6057,0,0,0
177.39,-3.36,-42.94,-483,-5657,6057,0,0,0
177.39,-3.36,-42.93,-489,-5654,6076,0,-1,0
177.39,-3.35,-42.93,-494,-5653,6070,0,-1,-1
177.39,-3.36,-42.93,-496,-5654,6062,0,0,0
177.39,-3.36,-42.93,-485,-5642,6067,0,-1,0
177.39,-3.35,-42.92,-478,-5641,6068,0,0,0
177.39,-3.36,-42.91,-480,-5639,6067,0,0,0
177.38,-3.36,-42.91,-485,-5636,6076,0,-1,0
177.38,-3.36,-42.91,-483,-5638,6077,0,0,0
177.38,-3.36,-42.90,-491,-5635,6085,-1,-1,0
177.38,-3.36,-42.90,-492,-5644,6085,0,0,0
177.38,-3.36,-42.90,-487,-5646,6081,-1,0,0
177.38,-3.36,-42.90,-488,-5656,6076,-1,0,0
177.38,-3.36,-42.90,-488,-5648,6068,0,0,-1
177.38,-3.36,-42.90,-489,-5644,6069,0,-1,0
177.37,-3.37,-42.90,-485,-5635,6069,0,0,0
177.37,-3.37,-42.90,-489,-5633,6066,-1,0,0
177.37,-3.38,-42.90,-490,-5638,6066,-1,0,0
177.37,-3.38,-42.90,-485,-5655,6074,0,0,0
177.37,-3.38,-42.90,-487,-5646,6076,0,0,0
177.37,-3.38,-42.90,-496,-5650,6072,0,0,0
177.36,-3.39,-42.90,-498,-5648,6080,-1,0,0
177.36,-3.39,-42.90,-495,-5651,6074,0,0,0
177.36,-3.39,-42.90,-494,-5652,6066,0,-1,-1
177.36,-3.39,-42.88,-482,-5642,6079,0,-1,0
177.37,-3.38,-42.87,-476,-5640,6081,0,-1,0
177.36,-3.38,-42.87,-481,-5639,6072,0,0,0
177.36,-3.39,-42.87,-497,-5641,6071,0,0,0
177.36,-3.39,-42.87,-494,-5644,6074,0,0,0
177.36,-3.39,-42.87,-497,-5639,6082,0,0,-1
177.36,-3.39,-42.86,-492,-5634,6082,-1,-1,-1
177.36,-3.39,-42.86,-495,-5637,6082,0,-1,-1
177.36,-3.38,-42.86,-485,-5634,6073,0,-1,0
177.36,-3.38,-42.86,-476,-5641,6075,0,-1,0
177.36,-3.38,-42.85,-481,-5634,6083,0,-1,0
177.36,-3.38,-42.85,-483,-5634,6079,-1,0,0
177.36,-3.38,-42.85,-488,-5633,6084,-1,-1,0
177.36,-3.38,-42.85,-488,-5640,6089,-1,-1,0
177.36,-3.38,-42.86,-487,-5640,6085,-1,0,0
177.36,-3.38,-42.86,-485,-5646,6090,-1,0,-1
177.36,-3.38,-42.86,-488,-5645,6075,-1,-1,-1
177.36,-3.38,-42.86,-487,-5647,6066,-1,-1,0
177.36,-3.37,-42.86,-491,-5645,6071,0,-1,-1
177.36,-3.37,-42.86,-491,-5645,6076,0,-1,-1
177.36,-3.37,-42.86,-492,-5641,6074,0,-1,-1
177.36,-3.37,-42.86,-483,-5638,6078,-1,-1,-1
177.36,-3.37,-42.86,-484,-5631,6083,-1,-1,0
177.36,-3.36,-42.86,-474,-5623,6078,-1,-1,0
177.36,-3.36,-42.86,-466,-5629,6066,-1,0,0
177.36,-3.36,-42.86,-475,-5640,6074,-1,-1,-1
177.37,-3.36,-42.87,-486,-5639,6078,-1,0,-1
177.37,-3.36,-42.87,-496,-5638,6064,-1,0,-1
177.36,-3.36,-42.87,-496,-5642,6065,-1,-1,-1
177.37,-3.35,-42.87,-492,-5648,6066,0,-1,-1
177.37,-3.35,-42.87,-488,-5655,6078,0,-1,-1
177.38,-3.34,-42.87,-477,-5641,6079,0,-1,-1
177.38,-3.34,-42.87,-481,-5635,6075,-1,-1,-1
177.38,-3.34,-42.87,-476,-5632,6082,-1,-1,0
177.38,-3.34,-42.87,-480,-5637,6084,-1,0,-1
177.38,-3.34,-42.87,-478,-5635,6082,-1,-1,-1
177.38,-3.34,-42.88,-480,-5638,6080,-1,0,-1
177.38,-3.34,-42.89,-479,-5640,6081,-1,0,0
177.38,-3.34,-42.90,-482,-5650,6079,-1,0,-1
177.38,-3.34,-42.90,-483,-5656,6072,-1,-1,-1
177.38,-3.34,-42.90,-477,-5643,6072,0,-1,0
177.38,-3.33,-42.89,-471,-5641,6075,-1,-1,0
177.38,-3.33,-42.89,-475,-5640,6077,-1,-1,0
177.38,-3.33,-42.90,-479,-5642,6071,-1,0,0
177.38,-3.34,-42.90,-491,-5641,6066,-1,0,-1
177.38,-3.34,-42.90,-489,-5640,6070,-1,0,-1
177.38,-3.34,-42.90,-485,-5635,6080,-1,0,-1
177.38,-3.34,-42.91,-483,-5638,6079,-1,0,-1
177.38,-3.33,-42.91,-480,-5636,6088,-1,-1,-1
177.38,-3.33,-42.91,-470,-5637,6079,-1,-1,0
177.38,-3.33,-42.91,-473,-5638,6075,-1,0,0
177.38,-3.33,-42.92,-478,-5650,6074,-1,0,0
177.38,-3.33,-42.93,-480,-5643,6075,-1,0,0
177.38,-3.34,-42.93,-478,-5649,6069,-1,0,-1
177.38,-3.33,-42.94,-477,-5647,6070,-1,0,-1
177.38,-3.33,-42.95,-480,-5647,6053,-1,0,-1
177.38,-3.34,-42.95,-484,-5657,6043,0,0,-1
177.38,-3.33,-42.96,-486,-5668,6060,0,-1,-1
177.38,-3.33,-42.95,-487,-5660,6069,0,-1,-1
177.38,-3.33,-42.95,-489,-5657,6071,0,-1,-1
177.38,-3.33,-42.95,-483,-5648,6069,-1,-1,-1
177.39,-3.33,-42.95,-473,-5644,6073,-1,-1,-1
177.39,-3.32,-42.95,-467,-5646,6074,-1,-1,-1
177.39,-3.32,-42.95,-471,-5640,6077,-1,-1,-1
177.39,-3.32,-42.95,-469,-5647,6082,-1,0,-1
177.39,-3.32,-42.96,-481,-5644,6073,-1,0,0
177.39,-3.33,-42.96,-477,-5653,6071,-1,0,0
177.39,-3.33,-42.96,-485,-5650,6072,-1,0,-1
177.39,-3.32,-42.97,-486,-5665,6056,-1,-1,-1
177.39,-3.32,-42.97,-477,-5667,6064,-1,-1,-1
177.39,-3.32,-42.98,-481,-5664,6061,0,-1,-1
177.39,-3.32,-42.97,-483,-5662,6072,0,-1,0
177.39,-3.32,-42.97,-484,-5653,6071,0,0,-1
177.39,-3.32,-42.97,-486,-5654,6068,-1,0,0
177.39,-3.32,-42.97,-484,-5656,6075,-1,-1,-1
177.39,-3.32,-42.98,-480,-5649,6068,-1,0,-1
177.39,-3.32,-42.98,-479,-5652,6067,-1,-1,0
177.39,-3.32,-42.98,-483,-5642,6079,-1,-1,-1
177.39,-3.32,-42.99,-481,-5646,6072,-1,0,0
177.39,-3.32,-42.99,-481,-5643,6058,-1,0,0
177.40,-3.32,-42.99,-480,-5652,6052,-1,0,-1
177.40,-3.32,-42.99,-478,-5656,6059,0,-1,-1
177.40,-3.31,-42.99,-478,-5652,6061,0,-1,0
177.40,-3.31,-42.99,-469,-5645,6061,-1,-1,0
177.40,-3.31,-42.99,-473,-5651,6059,-1,0,0
177.40,-3.32,-42.99,-482,-5652,6063,0,0,0
177.40,-3.32,-42.99,-489,-5650,6084,-1,0,-1
177.40,-3.32,-42.99,-488,-5650,6081,-1,-1,-1
177.40,-3.32,-43.00,-496,-5654,6064,-1,-1,-1
177.40,-3.32,-43.00,-494,-5651,6061,-1,-1,-1
177.40,-3.31,-42.99,-480,-5656,6062,0,-1,-1
177.40,-3.31,-42.99,-471,-5646,6062,0,-1,0
177.41,-3.30,-42.99,-468,-5647,6074,0,-1,0
177.41,-3.30,-42.99,-468,-5637,6074,-1,0,0
177.40,-3.31,-42.99,-475,-5640,6067,-1,0,0
177.40,-3.31,-43.00,-476,-5650,6067,-1,0,0
177.40,-3.32,-43.00,-483,-5657,6073,-1,0,0
177.40,-3.31,-43.00,-482,-5658,6069,-1,-1,-1
177.40,-3.31,-43.01,-478,-5663,6062,-1,0,-1
177.40,-3.31,-43.01,-475,-5668,6050,0,0,-1
177.40,-3.31,-43.01,-473,-5666,6056,0,-1,-1
177.40,-3.31,-43.00,-476,-5658,6060,0,-1,-1
177.41,-3.30,-43.00,-471,-5649,6072,-1,-1,0
177.41,-3.30,-43.00,-474,-5650,6068,-1,-1,0
177.41,-3.30,-43.00,-473,-5658,6070,-1,-1,-1
177.41,-3.30,-43.01,-467,-5661,6063,-1,0,0
177.41,-3.30,-43.01,-469,-5659,6059,-1,-1,0
