Yaw,Pitch,Roll,AX,AY,AZ,GX,GY,GZ
-48.80,8.18,15.21,1172,2127,7785,0,-1,-1
-48.80,8.19,15.22,1155,2125,7773,-1,-1,0
-48.80,8.19,15.21,1165,2117,7778,-1,-1,0
-48.81,8.20,15.21,1169,2124,7771,-1,-1,0
-48.81,8.20,15.21,1185,2124,7763,-1,0,-1
-48.81,8.20,15.21,1183,2119,7773,-1,0,-1
-48.81,8.20,15.20,1169,2109,7781,-1,0,0
-48.82,8.20,15.19,1162,2106,7787,-1,-1,0
-48.82,8.21,15.19,1165,2098,7783,-1,-1,0
-48.83,8.21,15.19,1170,2096,7792,-1,-1,0
-48.83,8.22,15.19,1175,2100,7782,0,-1,-1
-48.83,8.23,15.19,1181,2110,7777,-1,-1,0
-48.83,8.23,15.19,1189,2110,7777,-1,-1,0
-48.83,8.24,15.20,1188,2109,7772,-1,0,0
-48.83,8.23,15.20,1171,2117,7773,0,-1,-1
-48.83,8.24,15.20,1168,2117,7775,0,-1,0
-48.83,8.24,15.21,1164,2125,7772,0,-1,0
-48.84,8.25,15.21,1170,2131,7769,-1,-1,0
-48.84,8.26,15.22,1186,2133,7759,-1,-1,0
-48.84,8.27,15.21,1195,2121,7767,-1,-1,0
-48.85,8.28,15.20,1189,2104,7758,-1,-1,0
-48.85,8.28,15.20,1189,2095,7761,0,-1,0
-48.86,8.28,15.20,1184,2096,7774,0,-1,-1
-48.86,8.29,15.20,1182,2098,7786,0,-1,0
-48.86,8.29,15.20,1184,2104,7795,0,-1,-1
-48.86,8.30,15.21,1190,2101,7787,0,-1,0
-48.86,8.30,15.21,1188,2110,7775,0,-1,0
-48.85,8.30,15.22,1185,2123,7770,0,-1,-1
-48.85,8.30,15.23,1189,2132,7762,0,0,-1
-48.85,8.30,15.23,1196,2127,7761,-1,0,-1
-48.85,8.30,15.23,1188,2127,7761,-1,0,0
-48.85,8.30,15.23,1188,2122,7768,-1,-1,0
-48.86,8.31,15.22,1188,2112,7784,-1,-1,0
-48.87,8.32,15.21,1198,2096,7778,0,-1,-1
-48.87,8.32,15.21,1201,2101,7773,-1,0,0
-48.86,8.32,15.21,1198,2092,7766,0,0,-1
-48.85,8.31,15.22,1191,2092,7774,0,0,-1
-48.86,8.31,15.23,1195,2093,7782,0,0,-1
-48.86,8.30,15.25,1183,2121,7779,0,0,0
-48.86,8.30,15.26,1181,2120,7767,0,-1,0
-48.86,8.31,15.27,1191,2132,7756,0,-1,0
-48.86,8.30,15.28,1179,2142,7752,0,0,0
-48.86,8.30,15.28,1188,2147,7744,-1,0,0
-48.86,8.30,15.28,1181,2147,7751,-1,-1,0
-48.88,8.31,15.27,1184,2145,7749,-1,0,0
-48.87,8.31,15.26,1171,2136,7778,-1,-1,0
-48.89,8.32,15.24,1180,2116,7776,-1,-1,0
-48.89,8.33,15.24,1199,2096,7778,-1,-1,0
-48.90,8.34,15.24,1218,2095,7773,0,-1,-1
-48.90,8.35,15.25,1212,2097,7771,0,0,-1
-48.90,8.34,15.26,1216,2092,7767,0,0,-1
-48.89,8.34,15.28,1195,2120,7782,0,0,-1
-48.90,8.34,15.29,1201,2134,7780,0,0,0
-48.90,8.34,15.29,1209,2142,7783,-1,0,0
-48.90,8.34,15.29,1186,2135,7748,-1,-1,0
-48.90,8.35,15.29,1206,2117,7762,0,-1,0
-48.91,8.36,15.29,1196,2138,7764,-1,0,0
-48.92,8.37,15.29,1197,2132,7755,-1,-1,0
-48.93,8.38,15.29,1222,2121,7768,-1,0,0
-48.93,8.37,15.28,1204,2116,7769,0,0,0
-48.93,8.37,15.28,1189,2104,7776,0,-1,-1
-48.93,8.38,15.29,1197,2105,7772,0,0,0
-48.93,8.37,15.30,1192,2110,7768,0,-1,0
-48.94,8.38,15.31,1203,2111,7774,0,-1,0
-48.94,8.38,15.32,1205,2117,7768,0,0,0
-48.94,8.37,15.33,1195,2138,7762,0,0,-1
-48.94,8.38,15.34,1206,2151,7771,0,0,-1
-48.94,8.37,15.34,1202,2158,7765,-1,0,0
-48.95,8.38,15.33,1199,2121,7762,-1,-1,0
-48.95,8.37,15.32,1188,2136,7776,-1,0,0
-48.95,8.38,15.32,1195,2136,7756,-1,-1,0
-48.95,8.39,15.31,1218,2096,7765,0,0,0
-48.96,8.39,15.31,1199,2092,7756,0,-1,0
-48.96,8.40,15.33,1222,2123,7754,0,0,-1
-48.95,8.39,15.34,1203,2136,7749,0,0,-1
-48.94,8.39,15.34,1213,2130,7774,0,0,-1
-48.94,8.38,15.35,1184,2133,7765,-1,0,0
-48.95,8.39,15.34,1211,2125,7748,-1,0,-1
-48.95,8.38,15.34,1196,2120,7771,0,-1,0
-48.95,8.38,15.35,1213,2148,7764,0,0,-1
-48.94,8.38,15.35,1197,2141,7761,0,-1,-1
-48.94,8.39,15.34,1202,2120,7752,-1,0,0
-48.94,8.38,15.34,1214,2145,7761,-1,0,-1
-48.94,8.38,15.33,1193,2138,7769,-1,-1,0
-48.95,8.38,15.32,1206,2120,7759,-1,0,-1
-48.94,8.38,15.32,1181,2120,7766,0,-1,-1
-48.93,8.39,15.32,1188,2138,7765,-1,-1,-1
-48.94,8.40,15.32,1204,2129,7765,-1,-1,-1
-48.93,8.40,15.31,1211,2123,7771,-1,0,-1
-48.93,8.40,15.31,1207,2127,7768,-1,-1,-1
-48.92,8.40,15.31,1205,2117,7769,-1,0,-1
-48.92,8.40,15.31,1202,2120,7771,-1,0,-1
-48.92,8.40,15.32,1204,2122,7772,0,-1,-1
-48.92,8.40,15.32,1207,2133,7760,-1,0,-1
-48.91,8.40,15.32,1204,2142,7773,-1,0,-1
-48.91,8.40,15.31,1200,2142,7769,-1,0,-1
-48.91,8.40,15.31,1203,2131,7773,-1,-1,-1
-48.91,8.40,15.30,1205,2135,7772,-1,0,-1
-48.91,8.40,15.29,1208,2120,7782,-1,0,-1
-48.90,8.40,15.29,1210,2106,7769,0,0,-1
-48.89,8.38,15.30,1197,2117,7766,0,0,-1
-48.89,8.39,15.31,1207,2126,7774,0,0,-1
-48.88,8.39,15.32,1211,2126,7765,0,0,-1
-48.88,8.38,15.33,1201,2145,7746,0,0,-1
-48.87,8.37,15.33,1207,2145,7753,-1,0,0
-48.87,8.36,15.32,1205,2134,7759,-1,0,-1
-48.87,8.35,15.32,1186,2140,7768,-1,0,-1
-48.87,8.35,15.32,1185,2131,7785,-1,-1,-1
-48.87,8.35,15.32,1190,2128,7784,-1,-1,-1
-48.87,8.35,15.31,1201,2122,7770,-1,0,-1
-48.87,8.34,15.30,1200,2109,7764,-1,0,-1
-48.87,8.34,15.28,1201,2098,7770,-1,0,-1
-48.87,8.33,15.28,1194,2095,7757,0,0,-1
-48.87,8.32,15.28,1195,2097,7767,0,0,-1
-48.86,8.31,15.29,1193,2122,7775,0,0,-1
-48.85,8.30,15.30,1178,2142,7776,-1,0,-1
-48.85,8.30,15.30,1186,2138,7782,-1,0,-1
-48.86,8.30,15.29,1190,2140,7765,-1,0,-1
-48.86,8.31,15.29,1202,2134,7760,-1,0,-1
-48.85,8.30,15.29,1206,2132,7766,-1,0,-1
-48.85,8.28,15.28,1193,2126,7770,-1,0,-1
-48.85,8.27,15.27,1186,2129,7778,-1,0,-1
-48.85,8.27,15.27,1183,2125,7776,-1,0,-1
-48.85,8.27,15.27,1180,2122,7774,-1,0,-1
-48.84,8.26,15.26,1186,2110,7767,-1,0,-1
-48.84,8.26,15.26,1183,2109,7768,-1,0,-1
-48.84,8.24,15.26,1179,2114,7770,0,0,-1
-48.84,8.24,15.26,1189,2113,7772,-1,0,-1
-48.84,8.24,15.26,1190,2119,7780,0,0,-1
-48.83,8.24,15.27,1182,2129,7775,0,0,-1
-48.83,8.23,15.27,1178,2132,7774,0,0,-1
-48.83,8.23,15.27,1180,2131,7772,-1,0,-1
-48.83,8.22,15.26,1178,2126,7765,-1,0,0
-48.83,8.22,15.25,1173,2114,7763,-1,0,-1
-48.83,8.21,15.25,1167,2117,7773,-1,0,-1
-48.82,8.20,15.24,1157,2108,7779,-1,0,-1
-48.83,8.19,15.24,1158,2108,7786,-1,0,-1
-48.83,8.19,15.24,1166,2117,7775,-1,0,-1
-48.83,8.19,15.24,1176,2107,7779,-1,0,0
-48.83,8.18,15.23,1177,2110,7778,-1,0,-1
-48.83,8.18,15.24,1174,2104,7770,0,0,-1
-48.82,8.17,15.24,1175,2111,7772,0,0,-1
-48.82,8.17,15.24,1179,2124,7770,0,0,-1
-48.82,8.15,15.25,1168,2131,7774,-1,0,-1
-48.81,8.14,15.24,1152,2130,7781,-1,0,-1
-48.82,8.14,15.23,1159,2120,7778,-1,0,0
-48.82,8.13,15.23,1157,2117,7786,-1,0,-1
-48.82,8.13,15.23,1160,2113,7784,-1,0,-1
-48.82,8.13,15.22,1164,2106,7779,-1,0,-1
-48.82,8.12,15.21,1173,2102,7776,0,0,-1
-48.81,8.11,15.22,1170,2105,7770,-1,0,-1
-48.81,8.11,15.21,1155,2106,7773,-1,0,-1
-48.81,8.10,15.22,1151,2100,7779,0,0,-1
-48.80,8.09,15.22,1149,2112,7771,0,0,-1
-48.80,8.09,15.23,1147,2126,7769,0,-1,-1
-48.79,8.10,15.23,1152,2124,7771,-1,-1,-1
-48.80,8.10,15.23,1163,2124,7766,-1,-1,-1
-48.79,8.11,15.24,1160,2130,7765,-1,-1,-1
-48.79,8.10,15.23,1160,2124,7769,-1,0,-1
-48.79,8.10,15.22,1158,2109,7774,-1,0,-1
-48.79,8.10,15.23,1150,2113,7781,0,0,-1
-48.79,8.10,15.23,1151,2111,7786,0,-1,0
-48.79,8.11,15.22,1160,2116,7787,0,-1,-1
-48.79,8.11,15.22,1166,2112,7774,-1,0,-1
-48.79,8.11,15.23,1165,2114,7781,0,-1,-1
-48.79,8.11,15.23,1161,2106,7784,0,0,-1
-48.78,8.12,15.23,1161,2112,7781,0,-1,-1
-48.78,8.12,15.24,1159,2118,7780,0,-1,-1
-48.78,8.12,15.25,1159,2123,7789,0,0,-1
-48.78,8.12,15.25,1156,2127,7783,-1,-1,0
-48.78,8.12,15.25,1153,2123,7768,0,0,0
-48.78,8.13,15.25,1151,2128,7768,0,-1,-1
-48.78,8.13,15.25,1159,2124,7780,-1,-1,0
-48.78,8.14,15.23,1174,2102,7773,-1,0,0
-48.78,8.14,15.23,1169,2102,7776,-1,0,0
-48.79,8.14,15.22,1176,2088,7778,0,0,-1
-48.79,8.14,15.22,1170,2092,7786,0,-1,-1
-48.78,8.14,15.24,1166,2100,7786,0,0,-1
-48.78,8.14,15.25,1147,2109,7778,0,-1,-1
-48.77,8.17,15.26,1162,2113,7791,0,-1,-1
-48.78,8.17,15.28,1176,2106,7766,0,0,-1
-48.77,8.18,15.31,1195,2116,7781,0,-1,-1
-48.76,8.17,15.32,1184,2141,7791,0,0,0
-48.77,8.16,15.32,1153,2130,7761,-1,0,0
-48.78,8.15,15.31,1166,2088,7768,0,0,0
-48.78,8.13,15.34,1163,2158,7765,0,1,-1
-48.78,8.13,15.35,1140,2131,7758,0,-1,0
-48.78,8.14,15.35,1171,2150,7774,-1,0,-1
-48.79,8.13,15.35,1132,2127,7755,0,-1,0
-48.79,8.14,15.36,1201,2141,7770,-1,0,-1
-48.78,8.12,15.36,1132,2124,7768,0,-1,0
-48.79,8.13,15.37,1224,2116,7766,0,0,-1
-48.77,8.09,15.39,1107,2182,7802,0,0,-1
-48.78,8.11,15.38,1151,2108,7760,0,-1,0
-48.77,8.09,15.40,1131,2177,7759,0,0,-1
-48.78,8.11,15.39,1147,2151,7774,-1,-2,0
-48.79,8.12,15.40,1208,2129,7758,0,1,-1
-48.79,8.10,15.40,1152,2146,7752,-1,-1,-1
-48.79,8.11,15.40,1166,2142,7774,0,0,0
-48.80,8.09,15.39,1170,2138,7771,-1,0,0
-48.80,8.09,15.39,1122,2137,7748,0,-1,0
-48.80,8.11,15.39,1183,2094,7778,-1,-1,0
-48.80,8.10,15.40,1148,2127,7782,0,-1,-1
-48.80,8.11,15.40,1173,2124,7759,0,-1,0
-48.80,8.10,15.41,1159,2150,7770,-1,0,-1
-48.80,8.11,15.42,1147,2157,7787,0,-1,0
-48.81,8.12,15.40,1168,2109,7754,0,-1,0
-48.80,8.11,15.43,1175,2154,7780,0,0,-1
-48.80,8.10,15.43,1115,2189,7791,-1,-1,0
-48.82,8.13,15.40,1215,2114,7739,-1,0,0
-48.82,8.11,15.41,1150,2159,7754,0,0,-1
-48.81,8.12,15.40,1127,2156,7745,-1,-2,0
-48.83,8.14,15.39,1191,2109,7757,0,0,0
-48.83,8.12,15.39,1134,2145,7776,-1,-1,0
-48.83,8.14,15.38,1144,2166,7768,-1,-1,0
-48.84,8.18,15.36,1197,2121,7776,-1,-1,0
-48.85,8.19,15.36,1181,2126,7791,-1,-1,0
-48.85,8.19,15.35,1171,2133,7766,-1,-1,-1
-48.85,8.20,15.34,1175,2112,7767,-1,-1,0
-48.85,8.22,15.34,1204,2124,7764,0,-1,-1
-48.85,8.21,15.35,1190,2147,7758,0,0,-1
-48.85,8.21,15.35,1168,2165,7770,-1,-1,-1
-48.86,8.22,15.34,1165,2131,7774,-1,0,0
-48.86,8.22,15.34,1157,2132,7787,0,-1,0
-48.86,8.22,15.34,1184,2164,7786,-1,0,0
-48.87,8.23,15.34,1177,2126,7768,0,-1,0
-48.87,8.24,15.34,1222,2093,7780,0,0,-1
-48.87,8.22,15.36,1183,2136,7799,-1,0,-1
-48.88,8.22,15.36,1188,2118,7725,0,0,0
-48.88,8.21,15.38,1189,2077,7777,0,0,-1
-48.88,8.21,15.39,1183,2134,7784,0,0,0
-48.87,8.21,15.41,1166,2161,7736,0,-1,-1
-48.87,8.21,15.43,1168,2191,7741,-1,0,0
-48.88,8.21,15.41,1173,2167,7776,-1,-1,0
-48.88,8.22,15.41,1163,2184,7743,-1,-1,0
-48.89,8.23,15.39,1170,2173,7742,-1,-1,0
-48.90,8.24,15.37,1194,2145,7761,-1,-1,0
-48.90,8.25,15.35,1189,2122,7765,-1,-1,0
-48.90,8.27,15.34,1183,2123,7773,-1,-1,-1
-48.90,8.29,15.33,1184,2129,7769,-1,-1,0
-48.90,8.32,15.32,1203,2117,7771,-1,-1,0
-48.91,8.35,15.31,1219,2111,7778,-1,-1,0
-48.91,8.35,15.31,1215,2120,7789,-1,-1,-1
-48.91,8.36,15.30,1198,2124,7800,-1,-1,-1
-48.91,8.38,15.30,1207,2120,7779,0,-1,0
-48.91,8.39,15.31,1209,2129,7767,-1,-1,0
-48.91,8.40,15.31,1201,2142,7756,-1,-1,-1
-48.91,8.41,15.31,1202,2142,7754,-1,-1,0
-48.91,8.42,15.30,1203,2132,7776,-1,-1,0
-48.91,8.42,15.29,1205,2130,7771,-1,-1,-1
-48.91,8.43,15.29,1189,2137,7769,-1,-1,0
-48.91,8.43,15.28,1208,2120,7769,-1,-1,0
-48.92,8.44,15.27,1210,2113,7761,-1,-1,0
-48.92,8.44,15.27,1211,2110,7761,-1,-1,0
-48.92,8.45,15.27,1215,2102,7756,0,-1,-1
-48.93,8.45,15.27,1212,2105,7764,0,-1,-1
-48.93,8.46,15.27,1214,2112,7772,0,-1,-1
-48.93,8.46,15.27,1215,2123,7776,-1,-1,-1
-48.93,8.47,15.28,1215,2127,7764,-1,0,-1
-48.93,8.47,15.28,1209,2134,7758,-1,-1,0
-48.93,8.47,15.28,1216,2128,7762,-1,0,0
-48.93,8.47,15.27,1210,2131,7764,-1,0,0
-48.93,8.47,15.26,1199,2125,7773,-1,-1,0
-48.93,8.48,15.26,1209,2111,7768,-1,-1,0
-48.94,8.48,15.26,1217,2111,7765,-1,-1,0
-48.93,8.49,15.26,1221,2112,7757,-1,-1,0
-48.93,8.49,15.26,1221,2104,7760,0,0,-1
-48.93,8.49,15.26,1216,2115,7772,0,0,-1
-48.93,8.49,15.26,1213,2119,7773,0,0,-1
-48.93,8.49,15.26,1210,2114,7781,0,0,-1
-48.93,8.49,15.27,1210,2118,7772,0,-1,-1
-48.94,8.49,15.27,1203,2117,7766,0,-1,0
-48.94,8.49,15.27,1210,2123,7756,0,-1,0
-48.94,8.50,15.27,1218,2119,7744,0,-1,0
-48.94,8.50,15.27,1226,2122,7741,-1,0,0
-48.94,8.50,15.27,1222,2122,7760,-1,0,0
-48.94,8.50,15.27,1213,2115,7766,-1,-1,0
-48.95,8.50,15.26,1213,2121,7775,-1,-1,0
-48.95,8.50,15.26,1209,2114,7770,0,-1,0
-48.95,8.51,15.27,1218,2110,7769,0,-1,0
-48.96,8.52,15.26,1225,2112,7764,0,-1,0
-48.96,8.52,15.27,1239,2106,7768,0,0,0
-48.96,8.53,15.27,1235,2108,7767,0,0,0
-48.96,8.53,15.28,1219,2122,7774,0,0,-1
-48.96,8.52,15.29,1221,2128,7769,0,0,-1
-48.96,8.52,15.29,1216,2137,7769,0,-1,0
-48.96,8.52,15.29,1215,2139,7771,-1,0,0
-48.96,8.52,15.29,1220,2146,7768,-1,-1,0
-48.96,8.53,15.28,1229,2131,7760,-1,0,-1
-48.96,8.53,15.28,1227,2118,7762,-1,0,-1
-48.96,8.52,15.27,1222,2117,7778,-1,0,-1
-48.96,8.52,15.26,1215,2113,7772,-1,0,-1
-48.96,8.51,15.26,1218,2109,7752,0,0,-1
-48.96,8.51,15.27,1215,2107,7754,0,-1,-1
-48.96,8.51,15.27,1220,2111,7763,0,0,-1
-48.96,8.51,15.27,1225,2113,7769,0,0,-1
-48.94,8.51,15.27,1217,2117,7762,0,0,-1
-48.94,8.50,15.27,1213,2132,7763,0,0,-1
-48.94,8.49,15.28,1213,2139,7772,-1,0,-1
-48.94,8.49,15.27,1215,2127,7766,-1,0,-1
-48.93,8.49,15.26,1210,2122,7762,-1,0,-1
-48.94,8.49,15.25,1208,2106,7764,-1,0,0
-48.94,8.49,15.25,1221,2102,7768,-1,-1,-1
-48.94,8.50,15.25,1226,2101,7763,0,0,-1
-48.93,8.49,15.25,1224,2097,7762,-1,0,-1
-48.93,8.49,15.24,1220,2101,7756,0,0,-1
-48.92,8.48,15.25,1223,2108,7751,0,0,-1
-48.92,8.49,15.25,1214,2115,7769,0,0,-1
-48.92,8.48,15.26,1220,2121,7763,0,0,-1
-48.92,8.48,15.26,1217,2125,7761,0,0,-1
-48.91,8.48,15.27,1213,2130,7759,-1,0,-1
-48.91,8.48,15.27,1218,2133,7757,-1,0,-1
-48.91,8.47,15.26,1216,2124,7754,-1,0,-1
-48.91,8.46,15.26,1213,2127,7760,-1,0,-1
-48.91,8.46,15.25,1213,2116,7767,-1,0,-1
-48.91,8.46,15.25,1211,2112,7761,-1,0,-1
-48.91,8.46,15.25,1212,2108,7774,0,0,-1
-48.90,8.46,15.24,1218,2106,7782,0,0,-1
-48.90,8.45,15.24,1225,2104,7777,0,0,-1
-48.90,8.45,15.24,1231,2110,7775,0,0,-1
-48.89,8.44,15.25,1218,2125,7769,0,0,-1
-48.88,8.43,15.26,1213,2129,7770,0,0,-1
-48.87,8.42,15.27,1211,2119,7776,0,-1,-1
-48.85,8.42,15.28,1219,2124,7771,0,0,-1
-48.86,8.41,15.31,1217,2132,7773,1,0,0
-48.85,8.39,15.32,1232,2114,7769,0,1,-1
-48.84,8.35,15.34,1173,2123,7778,0,0,-1
-48.84,8.34,15.36,1191,2133,7778,0,0,0
-48.85,8.32,15.37,1192,2102,7784,0,0,0
-48.85,8.30,15.38,1210,2142,7771,-1,0,-1
-48.85,8.28,15.39,1199,2123,7727,0,0,-1
-48.83,8.24,15.39,1192,2122,7758,0,1,-1
-48.83,8.22,15.40,1196,2125,7773,0,1,0
-48.82,8.20,15.43,1131,2159,7784,0,-1,-1
-48.82,8.21,15.42,1186,2113,7785,-1,0,0
-48.83,8.20,15.42,1196,2141,7764,0,0,0
-48.82,8.18,15.44,1167,2140,7738,0,0,-1
-48.82,8.16,15.45,1223,2126,7748,0,1,-1
-48.80,8.13,15.47,1160,2198,7772,-1,0,-1
-48.81,8.12,15.45,1130,2145,7724,-1,-1,0
-48.81,8.13,15.44,1191,2152,7768,0,1,-1
-48.81,8.10,15.43,1128,2159,7790,-1,-1,0
-48.81,8.12,15.43,1202,2108,7781,0,0,-1
-48.81,8.10,15.43,1170,2120,7783,0,0,-1
-48.80,8.09,15.45,1189,2133,7765,0,0,-1
-48.80,8.07,15.46,1182,2130,7781,0,1,-1
-48.80,8.04,15.48,1158,2111,7779,0,0,-1
-48.79,8.01,15.51,1135,2163,7767,1,1,-1
-48.79,7.99,15.53,1130,2135,7783,-1,-1,0
-48.77,7.98,15.56,1170,2188,7774,2,1,-2
-48.77,7.96,15.57,1112,2194,7764,-1,0,0
-48.77,7.97,15.56,1168,2161,7748,0,0,-1
-48.76,7.94,15.58,1117,2178,7785,0,0,-1
-48.77,7.93,15.57,1162,2150,7788,-1,0,0
-48.77,7.91,15.58,1133,2159,7768,1,0,-1
-48.76,7.90,15.59,1144,2180,7788,-1,0,-1
-48.75,7.90,15.59,1153,2146,7766,0,0,-1
-48.75,7.88,15.60,1150,2162,7730,-1,0,0
-48.75,7.86,15.60,1109,2171,7765,-1,0,-1
-48.74,7.86,15.60,1144,2191,7794,0,0,-1
-48.74,7.86,15.60,1113,2191,7773,-1,-1,-1
-48.74,7.87,15.58,1128,2175,7750,-1,-1,-1
-48.73,7.87,15.57,1129,2181,7774,-1,0,-1
-48.74,7.86,15.55,1133,2163,7758,-1,-1,0
-48.75,7.87,15.53,1160,2138,7764,0,0,-1
-48.74,7.84,15.52,1111,2177,7791,-2,-1,-1
-48.74,7.85,15.49,1133,2130,7765,-1,-1,-1
-48.73,7.85,15.48,1134,2151,7753,-1,0,-1
-48.73,7.83,15.48,1094,2162,7784,-1,-1,-1
-48.74,7.85,15.46,1125,2149,7769,-1,-1,0
-48.73,7.85,15.45,1138,2130,7777,0,0,-1
-48.74,7.85,15.45,1137,2143,7775,-1,0,-1
-48.74,7.85,15.44,1131,2140,7769,-1,0,-1
-48.73,7.85,15.44,1139,2130,7769,-1,0,-1
-48.73,7.85,15.43,1129,2146,7764,-1,0,-1
-48.73,7.84,15.42,1121,2154,7758,-1,0,-1
-48.73,7.83,15.42,1120,2153,7769,-1,0,-1
-48.72,7.84,15.40,1119,2143,7776,-1,-1,0
-48.73,7.85,15.39,1126,2143,7780,-1,-1,0
-48.73,7.86,15.38,1141,2123,7781,-1,-1,0
-48.74,7.87,15.37,1149,2109,7782,-1,-1,-1
-48.73,7.88,15.37,1141,2112,7775,0,-1,-1
-48.73,7.88,15.37,1140,2117,7772,0,0,-1
-48.73,7.88,15.38,1126,2125,7786,0,-1,-1
-48.73,7.89,15.39,1127,2132,7786,0,-1,-1
-48.72,7.89,15.40,1129,2163,7778,-1,-1,-1
-48.72,7.89,15.40,1118,2165,7768,-1,-1,0
-48.73,7.91,15.40,1147,2145,7754,0,-1,0
-48.73,7.92,15.40,1144,2151,7763,-1,-1,0
-48.73,7.92,15.40,1154,2143,7762,-1,-1,0
-48.73,7.93,15.39,1152,2133,7775,-1,0,-1
-48.73,7.93,15.39,1136,2133,7781,0,-1,0
-48.73,7.93,15.39,1140,2135,7781,0,-1,0
-48.74,7.93,15.38,1137,2134,7785,-1,-1,0
-48.75,7.95,15.38,1153,2131,7783,0,-1,0
-48.75,7.96,15.38,1148,2130,7771,0,-1,-1
-48.75,7.96,15.38,1155,2124,7775,0,-1,-1
-48.75,7.97,15.38,1150,2130,7782,-1,-1,-1
-48.75,7.97,15.38,1143,2133,7775,0,-1,-1
-48.75,7.98,15.38,1140,2129,7772,0,-1,0
-48.75,7.98,15.38,1136,2145,7772,-1,-1,0
-48.75,8.00,15.37,1149,2136,7771,-1,-1,0
-48.76,8.01,15.37,1159,2141,7774,-1,-1,0
-48.76,8.01,15.36,1154,2142,7781,-1,-1,0
-48.76,8.02,15.35,1160,2132,7771,-1,0,0
-48.77,8.02,15.34,1142,2127,7783,-1,-1,-1
-48.77,8.02,15.33,1148,2116,7785,-1,-1,0
-48.77,8.03,15.33,1152,2110,7779,0,-1,0
-48.77,8.04,15.33,1163,2114,7779,0,-1,0
-48.77,8.05,15.33,1173,2113,7775,0,-1,-1
-48.77,8.05,15.34,1172,2125,7767,0,-1,-1
-48.77,8.06,15.35,1167,2131,7766,0,-1,-1
-48.76,8.05,15.37,1176,2160,7769,0,0,-1
-48.76,8.04,15.37,1154,2164,7775,-1,0,0
-48.77,8.05,15.37,1170,2140,7787,0,-1,0
-48.78,8.05,15.37,1167,2141,7779,-1,0,-1
-48.78,8.05,15.37,1145,2113,7807,0,-1,0
-48.78,8.05,15.39,1193,2097,7783,1,0,-1
-48.78,8.04,15.42,1133,2108,7815,0,-1,0
-48.81,8.04,15.42,1225,2096,7762,0,1,0
-48.80,7.99,15.46,1137,2101,7810,2,0,-1
-48.79,7.99,15.51,1174,2118,7782,2,0,-1
-48.79,7.95,15.53,1092,2177,7759,-1,0,0
-48.79,7.96,15.55,1135,2150,7717,2,0,-1
-48.79,7.97,15.59,1133,2221,7774,-2,-1,0
-48.80,7.97,15.56,1153,2167,7726,0,0,-1
-48.80,8.00,15.57,1140,2191,7748,-1,-2,0
-48.81,8.00,15.55,1166,2174,7732,-1,0,-1
-48.81,7.98,15.54,1115,2195,7777,-2,-1,0
-48.83,8.03,15.50,1183,2129,7741,-1,-1,0
-48.83,8.02,15.50,1126,2186,7776,-2,0,-1
-48.82,8.04,15.47,1133,2158,7761,-1,-2,0
-48.84,8.08,15.45,1166,2127,7765,-1,-1,-1
-48.84,8.10,15.44,1160,2144,7775,-1,-1,0
-48.84,8.12,15.43,1149,2145,7791,-1,-2,0
-48.86,8.16,15.41,1212,2102,7781,-1,-1,0
-48.87,8.16,15.40,1201,2097,7790,0,0,-1
-48.87,8.16,15.41,1179,2126,7790,0,-1,-1
-48.86,8.17,15.41,1174,2151,7775,-1,-1,-1
-48.86,8.17,15.42,1171,2160,7761,-1,-1,0
-48.86,8.18,15.41,1160,2165,7747,-1,-1,0
-48.86,8.19,15.40,1173,2162,7753,-1,-1,0
-48.87,8.20,15.37,1175,2149,7777,-1,-1,0
-48.87,8.22,15.36,1180,2125,7793,-1,-1,-1
-48.87,8.23,15.34,1198,2104,7786,-1,-1,-1
-48.87,8.24,15.33,1181,2102,7775,0,-1,-1
-48.87,8.25,15.34,1178,2112,7772,0,-1,-1
-48.87,8.26,15.35,1181,2131,7774,0,-1,-1
-48.86,8.26,15.36,1182,2140,7776,-1,-1,0
-48.86,8.28,15.36,1191,2144,7772,0,-1,0
-48.86,8.29,15.36,1193,2145,7766,-1,0,0
-48.86,8.28,15.36,1179,2152,7776,-1,-1,0
-48.87,8.29,15.34,1181,2141,7768,-1,-1,0
-48.87,8.29,15.33,1177,2131,7764,-1,-1,0
-48.87,8.30,15.33,1177,2124,7773,-1,-1,0
-48.87,8.31,15.33,1191,2120,7765,-1,-1,0
-48.88,8.33,15.33,1202,2108,7761,-1,-1,0
-48.89,8.33,15.32,1206,2109,7762,-1,-1,0
-48.89,8.33,15.32,1215,2116,7751,-1,-1,-1
-48.89,8.34,15.32,1208,2122,7763,0,0,-1
-48.89,8.34,15.32,1200,2117,7769,0,-1,0
-48.89,8.34,15.32,1195,2124,7772,0,-1,0
-48.89,8.34,15.33,1192,2136,7771,0,-1,0
-48.89,8.35,15.32,1195,2134,7767,-1,-1,0
-48.89,8.36,15.33,1207,2133,7772,0,-1,0
-48.89,8.36,15.33,1209,2131,7761,0,-1,0
-48.90,8.37,15.32,1215,2130,7772,-1,-1,0
-48.90,8.37,15.32,1210,2123,7767,-1,0,0
-48.90,8.38,15.32,1205,2118,7762,-1,-1,0
-48.90,8.38,15.32,1208,2117,7770,0,-1,0
-48.90,8.39,15.32,1213,2117,7778,0,-1,0
-48.91,8.39,15.31,1211,2118,7777,0,-1,-1
-48.90,8.40,15.32,1210,2116,7768,0,-1,0
-48.91,8.40,15.32,1217,2119,7762,0,0,0
-48.91,8.40,15.33,1215,2124,7765,0,0,-1
-48.90,8.40,15.33,1202,2123,7766,0,0,-1
-48.90,8.39,15.34,1207,2127,7773,0,-1,-1
-48.90,8.40,15.34,1219,2128,7771,0,0,-1
-48.90,8.40,15.34,1217,2134,7760,0,0,-1
-48.91,8.40,15.34,1214,2124,7743,-1,0,0
-48.91,8.39,15.34,1206,2115,7760,0,0,-1
-48.91,8.39,15.34,1212,2120,7767,0,0,0
-48.91,8.39,15.35,1209,2114,7780,0,0,0
-48.91,8.37,15.35,1205,2127,7778,0,0,0
-48.92,8.37,15.35,1191,2121,7764,0,0,0
-48.92,8.37,15.35,1209,2128,7772,0,-1,0
-48.93,8.38,15.36,1210,2128,7782,-1,0,0
-48.93,8.37,15.35,1203,2134,7781,-1,0,0
-48.94,8.37,15.35,1207,2131,7776,-1,-1,0
-48.94,8.38,15.35,1210,2130,7776,0,0,0
-48.95,8.38,15.35,1201,2146,7772,-1,-1,0
-48.95,8.39,15.35,1201,2145,7763,-1,-1,0
-48.95,8.39,15.34,1201,2139,7772,-1,-1,0
-48.95,8.40,15.34,1208,2138,7777,-1,-1,0
-48.96,8.41,15.33,1211,2132,7770,-1,-1,-1
-48.95,8.41,15.33,1212,2124,7764,-1,-1,-1
-48.95,8.42,15.32,1217,2121,7773,-1,-1,-1
-48.95,8.42,15.31,1217,2121,7768,-1,-1,-1
-48.95,8.43,15.31,1223,2115,7759,-1,-1,-1
-48.95,8.43,15.31,1224,2111,7765,-1,0,-1
-48.95,8.43,15.31,1225,2117,7764,0,0,-1
-48.94,8.43,15.31,1214,2125,7767,0,0,-1
-48.93,8.43,15.32,1212,2131,7767,0,0,-1
-48.93,8.43,15.32,1219,2139,7771,0,-1,-1
-48.93,8.44,15.32,1217,2129,7767,-1,0,0
-48.93,8.44,15.32,1220,2130,7769,-1,-1,-1
-48.93,8.44,15.32,1221,2133,7761,0,-1,-1
-48.93,8.44,15.31,1221,2127,7754,-1,0,-1
-48.93,8.44,15.31,1217,2127,7761,-1,0,-1
-48.92,8.43,15.30,1215,2125,7770,-1,0,-1
-48.92,8.43,15.30,1211,2123,7780,-1,0,-1
-48.92,8.43,15.30,1215,2117,7794,0,0,-1
-48.92,8.43,15.30,1214,2108,7778,0,0,-1
-48.92,8.43,15.30,1223,2117,7770,0,0,-1
-48.91,8.43,15.30,1217,2124,7761,0,0,-1
-48.91,8.43,15.30,1210,2125,7764,-1,0,-1
-48.90,8.42,15.30,1207,2123,7769,0,0,-1
-48.90,8.42,15.30,1204,2124,7763,0,0,-1
-48.90,8.41,15.30,1205,2124,7770,0,0,-1
-48.90,8.41,15.31,1205,2132,7762,-1,0,-1
-48.90,8.41,15.31,1211,2136,7760,-1,0,-1
-48.89,8.41,15.30,1215,2130,7764,-1,0,-1
-48.89,8.40,15.30,1205,2121,7770,-1,0,-1
-48.89,8.39,15.30,1204,2125,7766,0,0,-1
-48.88,8.38,15.30,1198,2136,7783,0,0,-1
-48.86,8.37,15.31,1198,2139,7785,0,0,-1
-48.85,8.36,15.32,1207,2135,7776,0,0,-1
-48.85,8.35,15.31,1201,2102,7773,0,0,-1
-48.84,8.34,15.33,1216,2113,7754,0,0,-1
-48.84,8.31,15.33,1202,2112,7765,0,1,-1
-48.83,8.29,15.35,1189,2092,7777,0,-1,-1
-48.82,8.29,15.38,1241,2108,7779,1,1,-1
-48.81,8.23,15.42,1173,2216,7789,0,1,-1
-48.80,8.21,15.41,1170,2162,7768,-1,0,0
-48.81,8.20,15.40,1211,2114,7763,0,1,-1
-48.80,8.17,15.42,1170,2162,7784,0,1,-1
-48.80,8.16,15.42,1161,2136,7775,0,-1,0
-48.78,8.15,15.43,1179,2174,7780,0,0,-1
-48.78,8.12,15.41,1165,2123,7753,-1,0,-1
-48.77,8.11,15.43,1198,2130,7772,1,0,-1
-48.77,8.08,15.44,1151,2160,7771,-1,0,-1
-48.77,8.08,15.43,1138,2166,7769,-1,-1,-1
-48.77,8.09,15.42,1206,2097,7765,0,0,0
-48.77,8.06,15.43,1169,2147,7755,0,1,-1
-48.75,8.05,15.44,1154,2150,7762,0,0,-1
-48.76,8.05,15.43,1173,2140,7796,-1,0,-1
-48.76,8.05,15.42,1153,2132,7757,0,0,-1
-48.76,8.04,15.42,1151,2123,7733,0,0,0
-48.75,8.03,15.44,1152,2153,7780,-1,0,-1
-48.75,8.02,15.43,1146,2154,7763,-1,0,-1
-48.76,8.02,15.42,1142,2157,7763,-1,0,0
-48.75,8.02,15.42,1151,2147,7751,-1,0,-1
-48.75,8.01,15.41,1155,2153,7762,-1,0,-1
-48.75,8.01,15.40,1131,2159,7767,-1,-1,0
-48.76,8.03,15.37,1154,2116,7751,-1,-1,0
-48.76,8.03,15.38,1166,2138,7768,-1,0,-1
-48.75,8.03,15.37,1158,2153,7770,-1,-1,-1
-48.75,8.03,15.35,1161,2137,7765,-1,0,-1
-48.75,8.03,15.33,1157,2114,7770,-1,0,-1
-48.75,8.03,15.33,1155,2117,7775,0,0,-1
-48.75,8.02,15.34,1154,2134,7768,-1,0,-1
-48.74,8.02,15.33,1157,2132,7767,-1,0,-1
-48.73,8.02,15.33,1150,2134,7762,0,0,-1
-48.73,8.01,15.33,1152,2136,7768,-1,0,-1
-48.73,8.01,15.33,1146,2143,7779,-1,-1,-1
-48.73,8.02,15.32,1154,2140,7769,-1,-1,-1
-48.73,8.02,15.31,1163,2119,7759,-1,0,0
-48.73,8.01,15.30,1167,2117,7773,-1,0,-1
-48.73,8.01,15.30,1155,2108,7769,-1,0,-1
-48.73,8.00,15.29,1140,2108,7782,-1,0,-1
-48.72,8.00,15.29,1147,2111,7783,-1,0,-1
-48.72,8.00,15.29,1153,2116,7786,0,0,-1
-48.73,7.99,15.28,1152,2122,7782,-1,0,-1
-48.73,7.99,15.28,1160,2119,7776,-1,0,-1
-48.73,7.99,15.28,1155,2115,7770,0,0,-1
-48.72,7.99,15.28,1157,2121,7765,0,0,-1
-48.72,7.98,15.29,1147,2130,7770,0,0,-1
-48.72,7.98,15.29,1151,2132,7765,-1,0,-1
-48.72,7.97,15.29,1141,2140,7769,-1,0,-1
-48.72,7.96,15.28,1140,2136,7766,-1,0,0
-48.72,7.95,15.27,1138,2125,7769,-1,0,-1
-48.72,7.96,15.27,1142,2121,7781,-1,-1,-1
-48.72,7.97,15.27,1146,2110,7780,0,-1,0
-48.72,7.97,15.27,1154,2110,7773,-1,-1,-1
-48.72,7.97,15.27,1160,2109,7771,0,0,-1
-48.72,7.97,15.27,1157,2098,7773,0,0,-1
-48.72,7.97,15.27,1143,2107,7772,0,0,-1
-48.71,7.96,15.28,1134,2122,7768,0,-1,-1
-48.71,7.96,15.29,1137,2126,7776,0,-1,-1
-48.71,7.97,15.29,1140,2130,7773,0,-1,0
-48.71,7.98,15.29,1139,2126,7765,-1,-1,0
-48.71,7.99,15.29,1142,2125,7768,-1,-1,-1
-48.71,7.99,15.28,1153,2117,7771,-1,-1,-1
-48.71,8.00,15.28,1149,2114,7775,-1,0,-1
-48.71,7.99,15.28,1139,2127,7783,-1,-1,0
-48.71,8.00,15.27,1152,2125,7794,-1,-1,0
-48.71,8.00,15.27,1156,2123,7784,-1,-1,0
-48.71,8.01,15.26,1159,2118,7781,-1,-1,0
-48.72,8.02,15.26,1160,2113,7775,0,-1,0
-48.72,8.02,15.26,1158,2113,7774,0,-1,-1
-48.72,8.02,15.27,1163,2115,7770,0,-1,-1
-48.71,8.03,15.26,1159,2117,7782,0,-1,-1
-48.71,8.03,15.27,1163,2113,7776,0,-1,-1
-48.72,8.04,15.28,1160,2125,7778,0,-1,0
-48.72,8.04,15.27,1151,2129,7770,0,-1,0
-48.72,8.05,15.28,1161,2143,7767,-1,-1,0
-48.72,8.06,15.27,1166,2132,7768,-1,-1,0
-48.73,8.06,15.26,1165,2124,7760,-1,-1,0
-48.73,8.06,15.26,1158,2106,7769,-1,0,0
-48.73,8.07,15.26,1159,2103,7776,-1,-1,0
-48.73,8.07,15.25,1155,2113,7778,0,-1,-1
-48.73,8.08,15.26,1152,2114,7766,0,-1,-1
-48.74,8.08,15.26,1156,2112,7766,0,-1,0
-48.74,8.09,15.26,1160,2117,7761,0,-1,0
-48.74,8.09,15.27,1174,2127,7761,0,-1,0
-48.73,8.10,15.27,1169,2133,7757,0,0,-1
-48.73,8.09,15.28,1160,2138,7763,-1,0,-1
-48.74,8.09,15.27,1163,2131,7775,-1,0,0
-48.74,8.09,15.26,1164,2124,7781,-1,-1,0
-48.74,8.11,15.25,1162,2119,7777,-1,-1,0
-48.75,8.11,15.25,1165,2111,7772,-1,-1,0
-48.75,8.12,15.25,1177,2103,7764,0,-1,-1
-48.75,8.12,15.25,1168,2104,7763,0,-1,-1
-48.75,8.12,15.25,1172,2100,7768,0,0,-1
-48.74,8.12,15.25,1168,2106,7777,0,0,-1
-48.74,8.12,15.25,1164,2117,7772,0,-1,-1
-48.75,8.12,15.26,1168,2128,7780,0,-1,0
-48.75,8.13,15.26,1169,2131,7779,-1,-1,0
-48.76,8.14,15.26,1166,2121,7769,-1,-1,0
-48.76,8.14,15.26,1176,2116,7760,0,-1,0
-48.76,8.14,15.26,1172,2125,7762,-1,-1,-1
-48.76,8.14,15.25,1175,2119,7761,-1,0,0
-48.76,8.14,15.25,1170,2117,7764,-1,0,-1
-48.76,8.14,15.24,1169,2110,7774,-1,0,0
-48.76,8.14,15.24,1165,2109,7793,-1,-1,0
-48.76,8.15,15.23,1172,2107,7781,0,-1,-1
-48.76,8.15,15.24,1172,2108,7773,0,-1,-1
-48.76,8.16,15.24,1173,2114,7772,0,-1,0
-48.76,8.16,15.24,1179,2111,7771,0,0,-1
-48.76,8.16,15.24,1179,2109,7764,0,0,-1
-48.76,8.16,15.24,1170,2111,7772,-1,0,-1
-48.76,8.16,15.25,1172,2114,7775,0,0,-1
-48.75,8.15,15.26,1168,2131,7775,0,0,-1
-48.75,8.15,15.26,1168,2132,7777,-1,-1,0
-48.76,8.16,15.25,1178,2120,7784,-1,-1,0
-48.76,8.16,15.24,1171,2114,7779,-1,0,0
-48.76,8.16,15.24,1173,2116,7778,-1,0,0
-48.77,8.16,15.22,1170,2098,7784,-1,0,0
-48.77,8.16,15.22,1170,2093,7778,0,-1,-1
-48.77,8.16,15.23,1170,2098,7779,0,-1,0
-48.76,8.17,15.23,1172,2109,7773,0,-1,0
-48.78,8.18,15.24,1185,2111,7771,0,-1,0
-48.77,8.19,15.24,1191,2110,7773,0,-1,-1
-48.77,8.19,15.24,1189,2113,7759,0,0,-1
-48.77,8.19,15.25,1184,2122,7769,-1,-1,0
-48.78,8.20,15.24,1179,2127,7774,-1,-1,0
-48.79,8.20,15.24,1177,2125,7776,-1,-1,0
-48.79,8.21,15.24,1178,2124,7780,-1,-1,0
-48.79,8.22,15.24,1190,2113,7769,-1,-1,0
-48.80,8.22,15.23,1188,2100,7770,0,-1,0
-48.80,8.22,15.23,1188,2101,7754,0,-1,-1
-48.80,8.23,15.24,1176,2106,7765,0,0,-1
-48.80,8.23,15.24,1183,2110,7774,0,0,-1
-48.80,8.23,15.25,1177,2120,7780,0,-1,0
-48.80,8.23,15.25,1187,2122,7784,0,-1,0
-48.80,8.24,15.25,1185,2122,7779,0,-1,0
-48.80,8.24,15.26,1183,2123,7763,0,-1,-1
-48.79,8.24,15.27,1192,2134,7769,0,0,-1
-48.79,8.24,15.27,1185,2137,7768,0,-1,-1
-48.79,8.24,15.27,1197,2113,7769,0,0,0
-48.79,8.23,15.27,1184,2110,7776,0,0,-1
-48.80,8.23,15.29,1154,2118,7774,0,-1,0
-48.80,8.24,15.30,1183,2113,7792,0,-1,0
-48.80,8.23,15.29,1202,2111,7787,0,0,-1
-48.79,8.22,15.30,1180,2093,7774,0,-1,-1
-48.80,8.21,15.32,1232,2097,7773,0,1,-1
-48.79,8.19,15.33,1187,2114,7780,0,0,-1
-48.79,8.17,15.36,1183,2112,7780,0,0,-1
-48.77,8.14,15.38,1171,2153,7766,0,1,-1
-48.79,8.13,15.37,1130,2174,7755,-1,-1,0
-48.81,8.15,15.35,1185,2111,7744,0,0,0
-48.81,8.14,15.36,1139,2175,7775,-1,-1,0
-48.80,8.17,15.37,1145,2176,7760,-1,-2,-1
-48.80,8.19,15.36,1179,2172,7769,-1,-1,0
-48.82,8.22,15.33,1210,2139,7753,-1,-1,0
-48.84,8.22,15.30,1239,2092,7772,-1,0,0
-48.84,8.20,15.30,1198,2070,7788,0,0,-1
-48.82,8.19,15.32,1143,2076,7764,0,-1,-1
-48.82,8.20,15.34,1128,2109,7758,0,-1,0
-48.83,8.23,15.34,1176,2137,7752,0,-1,0
-48.84,8.25,15.35,1198,2186,7782,-1,-1,0
-48.84,8.26,15.33,1192,2166,7791,-1,-1,0
-48.85,8.27,15.32,1216,2121,7783,-1,-1,0
-48.85,8.28,15.32,1192,2128,7768,-1,-1,0
-48.86,8.28,15.31,1179,2127,7765,-1,-1,0
-48.87,8.29,15.30,1190,2106,7759,-1,0,0
-48.87,8.29,15.29,1186,2105,7769,-1,-1,0
-48.87,8.30,15.29,1193,2116,7790,0,-1,0
-48.87,8.31,15.29,1202,2122,7779,-1,-1,0
-48.87,8.32,15.29,1209,2125,7779,0,-1,0
-48.87,8.32,15.29,1215,2121,7778,0,0,0
-48.88,8.32,15.29,1215,2108,7779,0,0,-1
-48.87,8.32,15.29,1202,2105,7768,0,0,0
-48.88,8.32,15.30,1201,2119,7766,0,-1,-1
-48.88,8.33,15.31,1188,2136,7764,0,-1,0
-48.88,8.34,15.32,1201,2135,7778,0,-1,0
-48.88,8.35,15.32,1210,2149,7779,0,0,0
-48.89,8.34,15.33,1196,2146,7774,-1,-1,0
-48.89,8.35,15.31,1203,2128,7765,-1,-1,0
-48.89,8.35,15.31,1199,2134,7762,-1,0,0
-48.89,8.36,15.31,1187,2131,7763,-1,-1,0
-48.90,8.36,15.30,1190,2112,7769,-1,-1,0
-48.91,8.38,15.30,1191,2117,7781,-1,-1,0
-48.91,8.39,15.30,1195,2125,7775,0,-1,-1
-48.90,8.40,15.30,1203,2133,7779,-1,-1,0
-48.91,8.41,15.30,1203,2118,7771,-1,-1,0
-48.91,8.43,15.29,1211,2107,7768,-1,-1,0
-48.91,8.43,15.29,1211,2122,7768,-1,-1,-1
-48.91,8.45,15.29,1223,2124,7761,0,-1,-1
-48.91,8.45,15.29,1221,2130,7761,0,-1,-1
-48.90,8.45,15.29,1229,2128,7770,-1,0,-1
-48.90,8.45,15.29,1228,2124,7753,-1,0,-1
-48.90,8.45,15.29,1221,2125,7760,-1,0,-1
-48.90,8.45,15.28,1214,2117,7763,-1,0,-1
-48.90,8.45,15.27,1213,2109,7764,-1,0,-1
-48.90,8.45,15.26,1213,2112,7770,-1,0,-1
-48.90,8.45,15.27,1218,2110,7755,0,0,-1
-48.89,8.45,15.27,1218,2113,7759,0,0,-1
-48.88,8.45,15.27,1214,2104,7766,0,0,-1
-48.88,8.45,15.27,1224,2109,7768,0,0,-1
-48.88,8.44,15.27,1214,2120,7772,0,0,-1
-48.88,8.45,15.28,1219,2122,7756,0,0,-1
-48.87,8.44,15.28,1235,2131,7760,0,0,-1
-48.87,8.44,15.28,1221,2140,7762,-1,0,-1
-48.87,8.43,15.28,1214,2143,7757,-1,0,-1
-48.87,8.43,15.27,1210,2119,7759,-1,0,-1
-48.87,8.43,15.27,1220,2118,7773,0,-1,-1
-48.86,8.43,15.28,1214,2123,7768,0,0,-1
-48.85,8.44,15.29,1227,2105,7765,0,-1,-1
-48.84,8.43,15.30,1239,2107,7765,0,0,-1
-48.84,8.42,15.30,1230,2092,7754,0,0,-1
-48.82,8.39,15.32,1197,2116,7772,0,0,-1
-48.82,8.37,15.33,1201,2094,7766,0,0,0
-48.81,8.36,15.35,1250,2095,7767,1,1,-1
-48.79,8.31,15.41,1183,2178,7798,1,1,-1
-48.78,8.30,15.42,1184,2162,7719,0,0,-1
-48.78,8.28,15.43,1170,2181,7754,0,0,-1
-48.78,8.26,15.43,1215,2124,7748,0,0,0
-48.78,8.23,15.45,1173,2211,7775,-1,1,-1
-48.78,8.23,15.42,1174,2104,7770,0,-1,0
-48.77,8.23,15.43,1224,2141,7816,-1,1,-1
-48.77,8.20,15.42,1138,2107,7763,0,-1,-1
-48.75,8.21,15.45,1216,2116,7744,0,0,-1
-48.76,8.19,15.46,1192,2114,7788,0,0,-1
-48.74,8.18,15.49,1203,2153,7776,0,0,-1
-48.73,8.16,15.50,1183,2138,7769,1,1,-1
-48.73,8.12,15.51,1174,2138,7766,-1,1,-1
-48.72,8.10,15.54,1138,2204,7757,0,0,-1
-48.73,8.11,15.52,1165,2148,7714,0,-1,0
-48.72,8.10,15.54,1147,2185,7776,-1,0,-1
-48.72,8.09,15.53,1173,2140,7750,0,0,0
-48.72,8.09,15.53,1146,2200,7758,-1,-1,0
-48.72,8.09,15.53,1190,2114,7744,0,0,-1
-48.71,8.06,15.54,1160,2180,7780,-1,1,-1
-48.71,8.06,15.52,1148,2123,7747,0,-1,0
-48.71,8.06,15.52,1177,2145,7763,-1,0,-1
-48.71,8.05,15.50,1146,2117,7743,0,-1,-1
-48.70,8.05,15.51,1150,2168,7760,-1,0,0
-48.71,8.04,15.50,1152,2146,7760,-1,0,-1
-48.70,8.03,15.50,1145,2180,7783,-1,-1,-1
-48.70,8.05,15.49,1176,2160,7760,-1,-1,-1
-48.70,8.04,15.49,1161,2184,7771,-1,0,-1
-48.70,8.03,15.46,1162,2156,7777,-1,0,0
-48.70,8.03,15.44,1160,2143,7772,-1,0,-1
-48.69,8.02,15.44,1144,2155,7767,-1,-1,-1
-48.69,8.03,15.43,1152,2162,7769,-1,-1,-1
-48.70,8.04,15.40,1173,2128,7770,-1,0,0
-48.70,8.04,15.39,1172,2117,7778,-1,0,-1
-48.70,8.03,15.38,1159,2123,7779,-1,0,-1
-48.69,8.01,15.38,1139,2123,7778,0,0,-1
-48.68,8.01,15.39,1151,2120,7767,0,0,-1
-48.68,8.00,15.40,1145,2155,7763,0,0,-1
-48.67,7.99,15.41,1141,2157,7777,-1,0,-1
-48.67,7.99,15.41,1171,2139,7770,0,0,-1
-48.66,7.98,15.43,1149,2171,7779,0,0,-1
-48.65,7.96,15.43,1140,2130,7769,0,0,0
-48.65,7.94,15.44,1175,2135,7792,0,1,-1
-48.67,7.92,15.42,1145,2108,7765,0,0,0
-48.66,7.90,15.45,1143,2134,7784,0,0,-1
-48.67,7.89,15.44,1131,2094,7738,0,0,-1
-48.65,7.87,15.48,1136,2143,7791,0,0,-1
-48.65,7.84,15.48,1101,2152,7771,-1,0,0
-48.65,7.85,15.49,1141,2159,7770,0,-1,-1
-48.65,7.85,15.48,1118,2184,7756,-2,0,0
-48.66,7.85,15.47,1131,2168,7753,-1,-1,-1
-48.65,7.86,15.46,1137,2139,7749,0,0,-1
-48.64,7.85,15.44,1094,2157,7757,-2,-1,0
-48.64,7.87,15.43,1114,2144,7752,-1,-1,0
-48.64,7.89,15.42,1128,2153,7763,-1,-1,-1
-48.64,7.90,15.41,1131,2145,7759,-1,-1,-1
-48.64,7.91,15.40,1126,2161,7781,-1,-1,0
-48.64,7.92,15.38,1126,2143,7786,-1,-1,0
-48.65,7.94,15.36,1143,2110,7788,-1,-1,0
-48.65,7.96,15.36,1151,2112,7782,0,-1,-1
-48.65,7.96,15.36,1152,2112,7775,0,-1,-1
-48.64,7.98,15.37,1165,2110,7771,0,-1,-1
-48.64,7.97,15.38,1147,2143,7765,0,0,-1
-48.63,7.97,15.40,1133,2162,7763,0,-1,-1
-48.64,7.98,15.40,1171,2160,7782,-1,0,0
-48.64,7.97,15.40,1149,2149,7777,0,0,-1
-48.65,7.98,15.40,1146,2132,7778,-1,-1,0
-48.65,7.98,15.39,1142,2118,7785,0,-1,0
-48.66,7.99,15.39,1164,2124,7764,0,0,0
-48.65,7.99,15.41,1154,2136,7772,0,-1,-1
-48.66,7.99,15.40,1166,2115,7785,0,0,-1
-48.66,7.98,15.41,1147,2137,7782,0,0,-1
-48.65,7.98,15.43,1136,2150,7779,0,-1,0
-48.66,7.98,15.43,1146,2148,7786,-1,0,0
-48.67,7.97,15.41,1134,2137,7773,-1,-1,0
-48.67,7.98,15.42,1149,2148,7776,0,-1,0
-48.67,7.98,15.42,1121,2152,7753,0,-1,0
-48.68,8.00,15.42,1156,2139,7758,-1,-1,0
-48.69,8.01,15.41,1176,2150,7755,-1,0,0
-48.69,8.01,15.40,1153,2155,7754,-1,-1,0
-48.69,8.03,15.39,1165,2126,7753,-1,-1,0
-48.69,8.03,15.38,1159,2134,7782,-1,-1,0
-48.69,8.04,15.38,1138,2144,7774,-1,-1,0
-48.70,8.05,15.36,1148,2123,7764,-1,-1,0
-48.71,8.06,15.36,1167,2120,7760,-1,-1,0
-48.71,8.07,15.35,1163,2127,7770,-1,-1,0
-48.72,8.08,15.34,1162,2118,7776,-1,-1,0
-48.72,8.09,15.35,1153,2114,7788,0,-1,0
-48.72,8.09,15.35,1159,2139,7779,0,-1,0
-48.72,8.10,15.36,1159,2153,7767,-1,-1,0
-48.72,8.11,15.34,1175,2153,7767,-1,-1,0
-48.72,8.12,15.33,1163,2147,7773,-1,-1,0
-48.73,8.13,15.32,1161,2139,7776,-1,-1,0
-48.73,8.14,15.31,1166,2124,7766,-1,-1,-1
-48.73,8.15,15.30,1170,2111,7769,-1,-1,-1
-48.73,8.16,15.29,1178,2111,7788,-1,-1,-1
-48.73,8.16,15.29,1176,2105,7779,-1,-1,0
-48.74,8.16,15.28,1180,2104,7786,0,-1,0
-48.74,8.17,15.29,1181,2112,7774,0,-1,-1
-48.73,8.18,15.30,1180,2129,7762,0,-1,-1
-48.73,8.19,15.30,1178,2141,7768,0,-1,-1
-48.73,8.19,15.30,1183,2147,7782,-1,-1,0
-48.73,8.19,15.30,1173,2143,7777,-1,-1,0
-48.73,8.20,15.31,1185,2134,7784,0,-1,-1
-48.73,8.21,15.31,1183,2136,7786,0,-1,-1
-48.73,8.22,15.30,1179,2104,7766,0,-1,0
-48.72,8.23,15.31,1198,2102,7767,0,-1,0
-48.73,8.23,15.31,1188,2108,7759,0,0,0
-48.74,8.24,15.31,1193,2118,7762,-1,-1,0
-48.74,8.24,15.31,1199,2104,7774,0,0,-1
-48.74,8.23,15.32,1178,2122,7781,0,0,-1
-48.73,8.23,15.33,1181,2143,7779,-1,0,0
-48.74,8.23,15.32,1172,2141,7768,-1,-1,0
-48.74,8.24,15.31,1190,2136,7763,-1,-1,0
-48.74,8.24,15.30,1188,2124,7769,-1,0,0
-48.75,8.24,15.29,1199,2116,7762,-1,-1,-1
-48.75,8.25,15.29,1195,2111,7766,-1,0,-1
-48.75,8.25,15.29,1186,2111,7769,0,-1,0
-48.75,8.25,15.29,1187,2121,7782,0,-1,0
-48.75,8.26,15.29,1186,2130,7780,-1,-1,0
-48.76,8.26,15.29,1191,2119,7776,-1,-1,0
-48.76,8.27,15.28,1185,2122,7773,-1,-1,0
-48.76,8.27,15.28,1186,2113,7778,0,-1,0
-48.76,8.28,15.29,1194,2116,7774,0,-1,-1
-48.76,8.28,15.29,1193,2112,7765,0,-1,-1
-48.76,8.29,15.29,1199,2114,7762,0,0,0
-48.76,8.29,15.30,1190,2130,7777,0,-1,-1
-48.76,8.30,15.30,1190,2132,7764,0,-1,0
-48.77,8.30,15.31,1191,2141,7771,-1,-1,0
-48.77,8.30,15.30,1192,2135,7760,-1,-1,0
-48.77,8.31,15.30,1198,2129,7765,-1,-1,0
-48.77,8.32,15.29,1198,2123,7779,-1,-1,0
-48.77,8.31,15.29,1200,2115,7789,-1,0,0
-48.77,8.31,15.29,1190,2106,7787,0,-1,-1
-48.77,8.32,15.29,1188,2099,7774,0,-1,-1
-48.77,8.32,15.31,1199,2121,7777,0,0,0
-48.78,8.32,15.32,1191,2129,7769,0,0,0
-48.77,8.33,15.33,1209,2114,7745,0,0,-1
-48.77,8.32,15.34,1211,2152,7763,0,0,-1
-48.77,8.30,15.35,1184,2176,7782,-1,0,0
-48.78,8.31,15.33,1184,2138,7769,-1,-1,0
-48.79,8.32,15.33,1202,2113,7771,0,0,0
-48.79,8.31,15.33,1189,2134,7762,-1,0,-1
-48.79,8.32,15.33,1204,2105,7755,0,-1,-1
-48.79,8.32,15.34,1208,2105,7762,0,0,-1
-48.78,8.32,15.35,1197,2137,7760,0,0,0
-48.80,8.32,15.35,1218,2143,7776,0,0,0
-48.80,8.31,15.35,1200,2128,7791,0,0,0
-48.79,8.31,15.36,1190,2131,7781,0,-1,-1
-48.79,8.32,15.37,1178,2142,7765,0,-1,0
-48.80,8.32,15.38,1203,2136,7749,0,0,0
-48.80,8.32,15.38,1200,2159,7742,0,0,0
-48.81,8.32,15.38,1205,2132,7751,0,0,0
-48.82,8.32,15.38,1205,2133,7761,0,0,-1
-48.81,8.31,15.38,1174,2136,7771,-1,-1,0
-48.82,8.32,15.38,1179,2131,7765,0,-1,0
-48.82,8.33,15.39,1189,2138,7768,0,-1,0
-48.83,8.34,15.38,1202,2128,7768,0,0,0
-48.83,8.33,15.39,1209,2130,7769,0,0,-1
-48.83,8.34,15.38,1210,2114,7771,0,-1,0
-48.83,8.33,15.39,1200,2130,7766,0,0,-1
-48.82,8.33,15.40,1189,2130,7763,0,-1,0
-48.82,8.33,15.41,1195,2131,7767,0,0,0
-48.83,8.33,15.41,1195,2135,7767,0,-1,0
-48.83,8.34,15.41,1195,2147,7764,-1,-1,0
-48.83,8.35,15.41,1205,2151,7756,-1,-1,0
-48.83,8.36,15.41,1216,2151,7764,-1,-1,0
-48.84,8.37,15.39,1214,2139,7765,-1,0,0
-48.84,8.36,15.39,1205,2128,7757,-1,0,0
-48.85,8.37,15.38,1203,2112,7772,-1,-1,0
-48.85,8.37,15.37,1197,2116,7775,-1,-1,0
-48.85,8.38,15.37,1196,2122,7774,-1,-1,0
-48.85,8.39,15.37,1215,2129,7781,0,-1,-1
-48.85,8.39,15.37,1218,2132,7781,-1,-1,-1
-48.85,8.39,15.37,1216,2139,7772,0,-1,-1
-48.85,8.40,15.38,1219,2143,7772,-1,-1,-1
-48.84,8.40,15.38,1216,2142,7756,0,0,-1
-48.84,8.40,15.38,1213,2151,7757,-1,0,0
-48.84,8.40,15.37,1210,2148,7761,-1,-1,-1
-48.85,8.40,15.36,1214,2123,7771,-1,-1,-1
-48.85,8.40,15.35,1213,2112,7776,-1,-1,-1
-48.84,8.41,15.34,1213,2120,7768,-1,0,-1
-48.84,8.41,15.34,1221,2114,7765,0,0,-1
-48.84,8.41,15.34,1221,2115,7761,0,0,-1
-48.84,8.41,15.35,1218,2118,7763,0,0,-1
-48.83,8.40,15.35,1215,2118,7767,0,0,-1
-48.82,8.40,15.35,1212,2124,7773,0,0,-1
-48.82,8.40,15.36,1199,2140,7767,0,0,-1
-48.81,8.40,15.37,1207,2145,7761,0,0,-1
-48.81,8.39,15.38,1221,2135,7755,0,0,-1
-48.81,8.38,15.39,1202,2155,7761,0,0,-1
-48.80,8.38,15.39,1222,2150,7773,-1,0,0
-48.81,8.37,15.39,1196,2133,7753,0,0,-1
-48.80,8.36,15.41,1217,2122,7770,0,0,-1
-48.80,8.35,15.42,1191,2139,7776,0,0,0
-48.80,8.34,15.42,1209,2105,7767,0,0,0
-48.81,8.33,15.44,1207,2105,7772,0,0,0
-48.81,8.32,15.46,1214,2129,7776,0,0,0
-48.81,8.32,15.49,1204,2127,7792,1,0,0
-48.80,8.32,15.50,1192,2147,7766,0,-1,-1
-48.81,8.32,15.53,1196,2136,7737,1,0,0
-48.80,8.30,15.55,1220,2182,7762,-1,0,0
-48.81,8.28,15.54,1161,2145,7766,0,0,-1
-48.81,8.29,15.54,1228,2153,7730,-1,0,0
-48.80,8.27,15.57,1181,2169,7753,0,0,-1
-48.80,8.27,15.58,1186,2177,7763,-1,-1,-1
-48.80,8.28,15.57,1225,2168,7736,0,0,0
-48.79,8.25,15.56,1161,2184,7762,-1,0,-1
-48.81,8.26,15.53,1160,2142,7759,-1,-1,-1
-48.81,8.26,15.53,1213,2125,7754,0,1,0
-48.79,8.24,15.53,1162,2183,7786,-2,-1,-1
-48.78,8.26,15.51,1187,2128,7734,-1,0,-1
-48.76,8.25,15.49,1189,2145,7729,-1,-1,-1
-48.75,8.25,15.48,1162,2153,7771,-1,-1,-1
-48.75,8.25,15.47,1190,2162,7764,-1,0,-1
-48.74,8.24,15.46,1180,2174,7772,-1,0,-1
-48.74,8.24,15.44,1185,2164,7782,-1,-1,-1
-48.74,8.25,15.42,1185,2146,7778,-1,-1,0
-48.75,8.25,15.40,1183,2135,7771,-1,-1,0
-48.75,8.26,15.39,1188,2125,7758,-1,-1,-1
-48.75,8.26,15.37,1195,2119,7759,-1,-1,-1
-48.74,8.27,15.36,1197,2108,7759,-1,0,-1
-48.74,8.26,15.36,1196,2102,7776,0,0,-1
-48.73,8.24,15.36,1182,2119,7792,0,0,-1
-48.73,8.23,15.37,1168,2133,7783,0,0,-1
-48.72,8.23,15.38,1170,2145,7786,0,-1,-1
-48.72,8.23,15.39,1186,2156,7776,-1,0,-1
-48.71,8.23,15.38,1180,2155,7766,-1,0,-1
-48.72,8.23,15.36,1197,2127,7768,-1,0,-1
-48.72,8.22,15.35,1198,2114,7768,-1,0,-1
-48.73,8.22,15.34,1189,2122,7790,-1,0,-1
-48.72,8.21,15.35,1187,2119,7787,0,0,-1
-48.73,8.21,15.34,1182,2119,7790,-1,0,0
-48.73,8.20,15.34,1181,2122,7773,0,0,-1
-48.73,8.20,15.34,1184,2117,7762,-1,0,-1
-48.73,8.20,15.34,1186,2114,7760,0,0,-1
-48.72,8.19,15.34,1183,2126,7769,0,0,-1
-48.71,8.19,15.34,1175,2138,7763,0,0,-1
-48.71,8.18,15.35,1173,2139,7766,0,0,-1
-48.71,8.17,15.35,1178,2148,7765,-1,0,-1
-48.71,8.17,15.35,1180,2149,7756,-1,0,-1
-48.71,8.16,15.35,1182,2137,7763,-1,0,-1
-48.71,8.15,15.33,1178,2125,7764,-1,0,-1
-48.71,8.15,15.34,1176,2131,7783,0,0,-1
-48.71,8.14,15.33,1172,2126,7781,-1,0,-1
-48.71,8.13,15.33,1167,2127,7785,-1,0,-1
-48.71,8.13,15.32,1169,2124,7783,-1,0,-1
-48.70,8.12,15.32,1168,2118,7776,0,0,-1
-48.69,8.12,15.33,1166,2121,7771,0,0,-1
-48.69,8.10,15.33,1154,2117,7770,0,0,-1
-48.69,8.09,15.33,1168,2124,7774,0,0,-1
-48.69,8.08,15.34,1165,2144,7769,-1,0,-1
-48.69,8.07,15.33,1155,2151,7769,-1,0,-1
-48.69,8.07,15.32,1162,2142,7772,-1,0,-1
-48.69,8.07,15.32,1164,2138,7772,-1,0,-1
-48.69,8.07,15.32,1177,2123,7772,-1,0,-1
-48.69,8.07,15.31,1178,2117,7768,-1,0,-1
-48.68,8.07,15.30,1175,2117,7767,0,0,-1
-48.68,8.06,15.31,1170,2116,7767,0,0,-1
-48.68,8.05,15.31,1157,2119,7755,0,0,-1
-48.67,8.04,15.31,1158,2126,7769,0,0,-1
-48.66,8.04,15.32,1147,2132,7769,0,0,-1
-48.66,8.04,15.32,1140,2138,7783,0,-1,-1
-48.66,8.05,15.33,1153,2139,7776,-1,-1,-1
-48.66,8.05,15.33,1161,2143,7767,-1,-1,-1
-48.65,8.06,15.33,1165,2140,7775,-1,-1,-1
-48.65,8.06,15.32,1172,2127,7769,-1,0,-1
-48.65,8.05,15.32,1155,2126,7765,-1,0,-1
-48.65,8.06,15.31,1163,2121,7774,-1,-1,0
-48.66,8.06,15.31,1162,2116,7792,0,-1,-1
-48.66,8.07,15.31,1160,2123,7794,-1,-1,-1
-48.66,8.07,15.30,1166,2118,7784,-1,-1,-1
-48.66,8.08,15.31,1163,2110,7771,0,-1,0
-48.66,8.08,15.31,1163,2111,7779,0,-1,-1
-48.66,8.08,15.30,1166,2119,7785,0,-1,-1
-48.65,8.09,15.31,1155,2119,7786,0,-1,-1
-48.65,8.09,15.31,1164,2129,7778,0,-1,-1
-48.65,8.10,15.32,1158,2145,7782,-1,-1,0
-48.65,8.10,15.32,1171,2148,7769,-1,-1,-1
-48.65,8.11,15.31,1170,2131,7760,-1,0,0
-48.66,8.11,15.30,1169,2124,7766,-1,0,0
-48.66,8.11,15.30,1167,2120,7774,0,0,-1
-48.65,8.10,15.30,1156,2119,7782,-1,-1,-1
-48.65,8.11,15.31,1167,2105,7778,0,-1,0
-48.65,8.13,15.32,1188,2115,7786,0,-1,-1
-48.65,8.12,15.33,1176,2144,7790,0,0,-1
-48.65,8.12,15.33,1185,2126,7779,0,-1,-1
-48.65,8.13,15.35,1192,2119,7767,0,0,0
-48.66,8.12,15.38,1170,2130,7776,0,0,0
-48.67,8.10,15.40,1177,2155,7788,0,0,0
-48.66,8.09,15.41,1123,2150,7789,0,-1,0
-48.68,8.12,15.40,1200,2099,7781,1,-1,0
-48.69,8.11,15.44,1157,2116,7779,1,0,-1
-48.68,8.11,15.46,1171,2145,7783,0,-1,0
-48.69,8.10,15.45,1180,2111,7744,-1,0,0
-48.70,8.10,15.46,1176,2081,7722,1,0,-1
-48.69,8.09,15.50,1166,2128,7782,0,0,-1
-48.69,8.07,15.53,1172,2132,7760,1,0,-1
-48.67,8.06,15.58,1138,2193,7782,0,-1,0
-48.68,8.06,15.59,1155,2200,7787,1,1,-1
-48.69,8.06,15.59,1152,2204,7746,-2,-1,0
-48.71,8.08,15.60,1163,2179,7752,0,0,-1
-48.70,8.08,15.59,1175,2188,7751,-1,-1,0
-48.71,8.08,15.58,1143,2162,7761,-1,0,-1
-48.71,8.08,15.56,1161,2127,7743,-1,0,0
-48.72,8.07,15.57,1148,2128,7753,0,0,-1
-48.71,8.08,15.58,1201,2163,7793,-1,-1,-1
-48.70,8.07,15.60,1097,2176,7793,0,-1,0
-48.72,8.10,15.58,1196,2130,7734,-1,0,0
-48.71,8.08,15.59,1119,2198,7796,0,-1,0
-48.71,8.10,15.60,1182,2147,7750,0,0,0
-48.72,8.10,15.60,1160,2163,7784,-1,0,0
-48.72,8.09,15.61,1156,2155,7750,0,-1,-1
-48.72,8.10,15.62,1180,2198,7761,-1,0,0
-48.72,8.10,15.61,1151,2170,7767,-1,-1,0
-48.74,8.11,15.60,1181,2168,7758,0,-1,0
-48.73,8.10,15.61,1148,2200,7733,-1,0,-1
-48.73,8.11,15.60,1177,2173,7727,-1,-1,0
-48.74,8.13,15.59,1177,2152,7765,-1,-1,0
-48.75,8.13,15.57,1161,2154,7769,-1,0,-1
-48.75,8.15,15.56,1186,2149,7753,-1,-1,0
-48.75,8.16,15.56,1176,2155,7783,-1,0,-1
-48.75,8.16,15.55,1179,2141,7761,-1,-1,0
-48.75,8.17,15.56,1158,2163,7773,0,-1,-1
-48.75,8.19,15.54,1181,2167,7761,-1,-1,0
-48.75,8.21,15.54,1183,2168,7758,-1,-1,-1
-48.75,8.21,15.53,1197,2183,7751,-1,0,0
-48.75,8.20,15.52,1173,2172,7775,-1,-1,0
-48.75,8.21,15.49,1180,2158,7769,-1,-1,0
-48.76,8.21,15.47,1165,2145,7770,-1,-1,0
-48.76,8.24,15.45,1182,2129,7766,-1,-1,0
-48.76,8.25,15.45,1192,2121,7761,-1,-1,-1
-48.76,8.26,15.44,1200,2121,7750,0,-1,-1
-48.76,8.27,15.45,1209,2120,7772,0,-1,-1
-48.76,8.27,15.45,1196,2129,7775,0,-1,-1
-48.76,8.28,15.46,1203,2151,7778,0,0,-1
-48.75,8.27,15.47,1189,2155,7782,0,0,-1
-48.75,8.27,15.47,1187,2143,7781,0,0,0
-48.76,8.27,15.47,1187,2144,7765,0,0,0
-48.76,8.27,15.49,1181,2139,7772,0,-1,0
-48.76,8.26,15.50,1186,2147,7761,0,0,-1
-48.77,8.26,15.50,1183,2138,7770,0,-1,0
-48.77,8.26,15.53,1234,2145,7786,1,0,0
-48.77,8.22,15.56,1164,2151,7762,1,0,-1
-48.77,8.22,15.58,1156,2151,7793,0,-2,0
-48.78,8.23,15.60,1185,2167,7739,1,1,0
-48.78,8.20,15.61,1137,2180,7757,-1,-1,0
-48.80,8.23,15.61,1253,2098,7728,1,1,0
-48.78,8.19,15.65,1157,2201,7786,0,0,-1
-48.80,8.19,15.64,1192,2106,7726,0,0,0
-48.79,8.18,15.66,1180,2206,7765,0,-1,-1
-48.79,8.18,15.67,1147,2169,7743,0,-1,-1
-48.78,8.19,15.68,1190,2229,7715,-1,0,0
-48.80,8.18,15.66,1162,2193,7760,-1,-1,0
-48.80,8.21,15.66,1229,2188,7761,0,0,0
-48.80,8.19,15.64,1122,2190,7778,-2,-1,0
-48.81,8.22,15.61,1211,2136,7744,0,-1,-1
-48.81,8.22,15.62,1164,2151,7764,-1,-1,-1
-48.81,8.23,15.60,1162,2168,7744,-1,-1,0
-48.81,8.24,15.60,1167,2165,7744,-1,-1,-1
-48.81,8.25,15.59,1182,2160,7776,-1,-1,-1
-48.81,8.26,15.57,1187,2175,7779,-1,-1,0
-48.81,8.28,15.56,1190,2155,7766,-1,-1,0
-48.81,8.29,15.55,1198,2153,7759,-1,-1,-1
-48.81,8.30,15.55,1193,2144,7757,-1,-1,-1
-48.81,8.31,15.54,1198,2155,7743,-1,0,0
-48.82,8.31,15.53,1193,2159,7751,-1,-1,0
-48.82,8.31,15.52,1203,2157,7767,-1,-1,0
-48.82,8.33,15.51,1195,2162,7772,-1,-1,0
-48.82,8.34,15.50,1193,2158,7779,-1,-1,0
-48.82,8.35,15.49,1192,2136,7777,-1,-1,0
-48.83,8.36,15.48,1209,2126,7757,-1,-1,0
-48.83,8.37,15.48,1210,2134,7750,-1,-1,0
-48.84,8.37,15.47,1210,2126,7758,-1,-1,-1
-48.83,8.38,15.48,1213,2130,7772,0,-1,-1
-48.82,8.39,15.48,1206,2147,7764,0,-1,-1
-48.82,8.38,15.49,1195,2162,7773,0,-1,-1
-48.82,8.39,15.49,1199,2170,7776,-1,-1,0
-48.82,8.40,15.48,1203,2168,7766,-1,-1,0
-48.83,8.42,15.48,1216,2166,7761,-1,-1,0
-48.83,8.42,15.47,1229,2157,7762,-1,0,0
-48.83,8.42,15.47,1222,2148,7760,-1,0,-1
-48.82,8.41,15.46,1216,2150,7759,-1,0,-1
-48.82,8.41,15.46,1213,2156,7768,0,-1,-1
-48.82,8.42,15.46,1208,2151,7771,-1,-1,-1
-48.82,8.43,15.45,1218,2139,7763,-1,-1,-1
-48.82,8.44,15.45,1218,2133,7757,0,-1,0
-48.82,8.44,15.45,1226,2132,7750,0,-1,-1
-48.81,8.44,15.45,1226,2137,7760,0,0,-1
-48.81,8.43,15.46,1221,2145,7764,0,0,-1
-48.80,8.43,15.46,1220,2148,7772,0,0,-1
-48.80,8.43,15.46,1214,2156,7766,0,0,-1
-48.79,8.43,15.46,1223,2148,7768,-1,0,-1
-48.79,8.43,15.46,1213,2148,7768,-1,0,0
-48.79,8.44,15.45,1220,2144,7763,-1,0,-1
-48.80,8.43,15.44,1227,2138,7759,-1,0,-1
-48.80,8.43,15.44,1221,2132,7758,-1,0,-1
-48.79,8.43,15.44,1221,2124,7765,0,0,-1
-48.78,8.42,15.44,1211,2133,7767,0,0,-1
-48.78,8.42,15.44,1215,2140,7757,0,0,-1
-48.78,8.42,15.44,1209,2143,7761,-1,-1,-1
-48.78,8.43,15.44,1221,2136,7758,0,0,-1
-48.78,8.42,15.44,1209,2142,7759,-1,0,-1
-48.78,8.43,15.44,1215,2137,7752,0,-1,-1
-48.77,8.42,15.44,1221,2148,7758,0,0,-1
-48.76,8.42,15.45,1219,2159,7754,0,0,-1
-48.76,8.41,15.45,1215,2161,7753,-1,0,-1
-48.77,8.41,15.44,1208,2158,7766,-1,0,-1
-48.76,8.41,15.43,1204,2150,7772,-1,0,-1
-48.76,8.41,15.42,1209,2136,7774,-1,-1,-1
-48.76,8.41,15.41,1219,2129,7771,-1,-1,-1
-48.76,8.41,15.41,1226,2124,7761,-1,0,-1
-48.76,8.42,15.41,1229,2117,7758,-1,0,-1
-48.76,8.41,15.40,1225,2110,7769,0,0,-1
-48.75,8.40,15.40,1212,2122,7765,0,0,-1
-48.75,8.39,15.41,1205,2128,7775,0,0,-1
-48.74,8.39,15.41,1201,2142,7765,0,0,-1
-48.74,8.39,15.41,1199,2151,7757,-1,-1,-1
-48.74,8.39,15.41,1204,2150,7764,-1,0,-1
-48.74,8.38,15.40,1213,2152,7756,-1,0,-1
-48.74,8.38,15.40,1215,2143,7757,-1,0,-1
-48.74,8.38,15.39,1211,2134,7760,-1,0,-1
-48.73,8.37,15.39,1207,2125,7760,-1,0,-1
-48.73,8.36,15.38,1205,2121,7763,-1,0,-1
-48.73,8.36,15.38,1211,2126,7768,0,0,-1
-48.73,8.36,15.38,1211,2124,7770,0,0,-1
-48.73,8.36,15.38,1211,2122,7763,0,0,-1
-48.72,8.36,15.39,1211,2124,7756,0,0,-1
-48.72,8.36,15.39,1209,2132,7772,-1,0,-1
-48.72,8.35,15.39,1204,2135,7760,-1,0,-1
-48.72,8.33,15.39,1198,2126,7769,0,0,-1
-48.71,8.33,15.39,1182,2143,7767,0,0,-1
-48.71,8.32,15.39,1185,2152,7770,-1,0,-1
-48.71,8.32,15.39,1193,2148,7774,-1,0,-1
-48.71,8.31,15.40,1194,2153,7771,-1,0,-1
-48.70,8.31,15.39,1199,2145,7764,-1,0,-1
-48.70,8.31,15.38,1200,2132,7770,-1,0,-1
-48.71,8.30,15.38,1196,2124,7768,-1,0,-1
-48.71,8.29,15.38,1188,2125,7774,0,0,-1
-48.69,8.28,15.38,1198,2126,7768,0,0,-1
-48.69,8.28,15.38,1198,2132,7760,-1,0,-1
-48.69,8.27,15.38,1198,2127,7766,0,0,-1
-48.69,8.27,15.38,1194,2137,7761,0,0,-1
-48.69,8.26,15.39,1194,2145,7760,0,0,-1
-48.68,8.25,15.39,1192,2151,7755,-1,0,-1
-48.68,8.25,15.39,1189,2155,7765,-1,0,-1
-48.68,8.24,15.38,1189,2158,7769,-1,0,-1
-48.67,8.22,15.37,1194,2151,7774,-1,0,-1
-48.66,8.22,15.38,1155,2142,7759,0,-1,-1
-48.66,8.24,15.38,1189,2107,7765,0,-1,0
-48.66,8.25,15.37,1229,2083,7785,-1,0,-1
-48.67,8.23,15.37,1174,2081,7750,0,0,0
-48.66,8.23,15.39,1207,2060,7744,1,0,-1
-48.65,8.22,15.42,1178,2148,7769,0,0,-1
-48.64,8.20,15.43,1164,2189,7766,-1,0,-1
-48.64,8.20,15.43,1181,2184,7760,-1,0,0
-48.64,8.19,15.42,1184,2176,7765,-1,0,0
-48.65,8.20,15.41,1183,2166,7763,-1,0,0
-48.65,8.20,15.39,1198,2114,7757,-1,0,-1
-48.65,8.18,15.38,1190,2106,7764,0,0,-1
-48.65,8.16,15.37,1164,2112,7758,0,0,-1
-48.65,8.15,15.38,1163,2130,7766,0,0,-1
-48.64,8.14,15.38,1167,2132,7772,0,0,-1
-48.64,8.14,15.37,1171,2137,7781,-1,0,-1
-48.64,8.13,15.37,1170,2138,7770,-1,0,-1
-48.64,8.12,15.36,1173,2136,7763,-1,0,-1
-48.64,8.11,15.36,1166,2129,7759,-1,0,-1
-48.63,8.10,15.36,1163,2117,7764,0,0,-1
-48.63,8.10,15.36,1154,2123,7767,0,0,-1
-48.62,8.09,15.36,1146,2139,7769,0,0,-1
-48.62,8.09,15.37,1156,2146,7773,0,-1,-1
-48.61,8.09,15.37,1163,2154,7774,-1,0,-1
-48.61,8.08,15.37,1157,2144,7770,-1,0,0
-48.62,8.08,15.35,1158,2123,7770,-1,0,-1
-48.62,8.08,15.35,1147,2120,7777,0,-1,-1
-48.61,8.09,15.35,1153,2113,7776,0,-1,-1
-48.61,8.09,15.35,1158,2118,7773,0,-1,-1
-48.61,8.10,15.35,1156,2119,7774,0,-1,0
-48.61,8.11,15.36,1171,2122,7771,0,-1,-1
-48.60,8.11,15.36,1182,2128,7773,0,0,-1
-48.60,8.11,15.37,1172,2141,7767,0,0,-1
-48.59,8.10,15.38,1171,2145,7765,0,0,-1
-48.59,8.10,15.38,1150,2156,7767,-1,-1,-1
-48.59,8.10,15.37,1158,2140,7784,-1,-1,0
-48.60,8.11,15.36,1159,2125,7781,-1,-1,0
-48.59,8.11,15.36,1155,2117,7781,-1,0,-1
-48.59,8.10,15.36,1168,2108,7780,0,-1,0
-48.60,8.11,15.36,1186,2116,7776,0,0,-1
-48.59,8.11,15.38,1161,2139,7777,0,-1,0
-48.59,8.12,15.37,1195,2114,7781,0,0,-1
-48.60,8.10,15.37,1169,2129,7783,0,0,0
-48.59,8.10,15.39,1150,2141,7786,0,-1,0
-48.60,8.11,15.40,1163,2142,7788,0,-1,-1
-48.59,8.11,15.40,1165,2148,7761,0,-1,0
-48.60,8.12,15.40,1166,2168,7756,-1,-1,0
-48.60,8.12,15.39,1195,2123,7755,-1,0,-1
-48.60,8.11,15.39,1190,2143,7779,-1,0,-1
-48.60,8.10,15.40,1143,2132,7759,0,-1,-1
-48.60,8.11,15.40,1164,2113,7772,0,0,-1
-48.60,8.09,15.41,1141,2160,7779,-1,0,0
-48.62,8.11,15.39,1168,2114,7755,0,-1,0
-48.61,8.12,15.41,1190,2137,7761,0,0,-1
-48.61,8.11,15.41,1129,2142,7755,-1,-1,0
-48.63,8.13,15.40,1194,2098,7750,0,-1,0
-48.62,8.12,15.41,1166,2150,7781,0,0,-1
-48.62,8.13,15.41,1172,2150,7756,0,-1,-1
-48.62,8.14,15.41,1175,2138,7745,-1,0,-1
-48.62,8.13,15.42,1155,2162,7747,-1,0,0
-48.63,8.14,15.40,1160,2159,7750,-1,-1,0
-48.63,8.15,15.39,1176,2137,7751,-1,-1,0
-48.64,8.15,15.38,1178,2127,7764,-1,-1,0
-48.64,8.16,15.37,1182,2132,7767,-1,0,-1
-48.64,8.16,15.36,1171,2128,7771,-1,-1,0
-48.64,8.16,15.35,1177,2110,7774,-1,-1,0
-48.64,8.17,15.36,1172,2123,7778,0,-1,0
-48.64,8.18,15.35,1166,2122,7778,0,-1,0
-48.64,8.19,15.36,1181,2128,7779,0,-1,0
-48.64,8.20,15.36,1186,2131,7772,0,-1,-1
-48.65,8.20,15.37,1183,2148,7754,-1,-1,0
-48.65,8.20,15.37,1184,2151,7763,-1,0,0
-48.66,8.21,15.36,1182,2142,7767,-1,-1,-1
-48.66,8.21,15.36,1178,2133,7763,-1,-1,0
-48.66,8.22,15.35,1176,2135,7768,-1,-1,0
-48.66,8.22,15.35,1182,2128,7767,-1,-1,0
-48.66,8.23,15.35,1193,2128,7762,-1,-1,0
-48.66,8.24,15.34,1200,2115,7769,0,0,-1
-48.66,8.24,15.34,1191,2112,7765,0,0,-1
-48.66,8.24,15.34,1189,2122,7771,0,0,-1
-48.66,8.23,15.35,1174,2135,7775,0,-1,-1
-48.66,8.23,15.35,1166,2139,7767,0,-1,0
-48.66,8.24,15.36,1172,2139,7765,-1,-1,0
-48.66,8.24,15.36,1182,2139,7768,0,-1,0
-48.67,8.25,15.35,1188,2139,7770,-1,-1,0
-48.67,8.26,15.36,1204,2136,7761,-1,0,-1
-48.67,8.26,15.35,1197,2135,7764,-1,0,0
-48.67,8.26,15.35,1185,2131,7762,-1,0,0
-48.67,8.25,15.35,1181,2124,7767,-1,-1,0
-48.67,8.26,15.34,1184,2117,7781,0,-1,0
-48.67,8.27,15.35,1188,2123,7775,0,-1,0
-48.67,8.27,15.35,1195,2124,7773,0,-1,0
-48.68,8.28,15.34,1200,2112,7757,0,0,0
-48.68,8.28,15.34,1194,2112,7763,0,0,-1
-48.68,8.28,15.34,1195,2114,7768,0,-1,-1
-48.67,8.28,15.36,1191,2126,7763,0,-1,-1
-48.67,8.29,15.36,1190,2142,7768,0,0,0
-48.68,8.29,15.36,1194,2150,7755,-1,-1,0
-48.68,8.30,15.36,1201,2143,7753,-1,0,0
-48.69,8.30,15.35,1199,2139,7770,-1,-1,0
-48.69,8.30,15.35,1193,2126,7764,-1,0,-1
-48.69,8.30,15.34,1190,2122,7776,-1,-1,-1
-48.69,8.30,15.34,1188,2118,7787,0,-1,0
-48.69,8.31,15.34,1195,2116,7779,0,-1,0
-48.69,8.31,15.34,1192,2123,7776,0,-1,0
-48.69,8.32,15.34,1200,2119,7779,0,-1,0
-48.69,8.32,15.34,1202,2125,7767,0,-1,-1
-48.69,8.32,15.36,1205,2138,7753,0,0,-1
-48.69,8.33,15.37,1206,2137,7759,0,0,-1
-48.69,8.33,15.37,1196,2146,7772,-1,0,-1
-48.69,8.32,15.36,1190,2148,7767,-1,0,0
-48.69,8.32,15.36,1185,2145,7777,-1,0,0
-48.69,8.33,15.36,1189,2142,7783,-1,-1,0
-48.70,8.34,15.35,1213,2118,7772,-1,-1,0
-48.70,8.33,15.34,1201,2099,7773,-1,0,0
-48.70,8.34,15.34,1201,2094,7763,0,-1,0
-48.70,8.34,15.34,1205,2093,7769,0,0,-1
-48.70,8.34,15.35,1199,2117,7773,0,-1,-1
-48.69,8.34,15.36,1192,2145,7776,0,-1,0
-48.70,8.34,15.37,1185,2154,7764,0,-1,0
-48.70,8.35,15.37,1188,2153,7763,0,-1,0
-48.70,8.36,15.37,1198,2144,7752,0,-1,0
-48.71,8.37,15.37,1209,2134,7749,0,-1,0
-48.72,8.37,15.37,1205,2132,7748,-1,0,0
-48.72,8.37,15.37,1205,2133,7760,-1,0,0
-48.72,8.37,15.37,1195,2136,7768,0,-1,0
-48.72,8.38,15.37,1205,2134,7771,0,-1,0
-48.72,8.39,15.37,1211,2134,7767,0,-1,0
-48.73,8.39,15.37,1211,2135,7757,-1,-1,0
-48.73,8.39,15.37,1206,2122,7763,0,-1,0
-48.73,8.40,15.37,1211,2119,7760,0,-1,-1
-48.73,8.41,15.38,1205,2120,7753,0,-1,-1
-48.72,8.41,15.39,1210,2125,7758,0,-1,0
-48.72,8.42,15.40,1213,2142,7764,0,-1,0
-48.73,8.42,15.40,1216,2153,7773,0,-1,0
-48.74,8.43,15.40,1224,2139,7750,-1,-1,0
-48.74,8.44,15.40,1223,2135,7736,0,-1,0
-48.75,8.44,15.40,1218,2138,7738,0,0,0
-48.75,8.44,15.40,1216,2139,7751,0,0,0
-48.75,8.45,15.39,1217,2132,7758,-1,-1,0
-48.75,8.45,15.39,1212,2118,7765,0,-1,0
-48.76,8.45,15.39,1213,2117,7780,0,-1,0
-48.76,8.46,15.39,1213,2120,7780,0,-1,0
-48.76,8.46,15.39,1208,2122,7779,0,-1,0
-48.76,8.47,15.40,1218,2132,7765,0,-1,-1
-48.76,8.47,15.40,1218,2130,7759,0,-1,-1
-48.76,8.47,15.40,1228,2139,7752,0,0,-1
-48.76,8.47,15.40,1223,2149,7757,0,0,-1
-48.76,8.46,15.40,1210,2154,7764,-1,0,0
-48.76,8.46,15.40,1204,2156,7766,-1,0,0
-48.77,8.46,15.39,1207,2146,7763,-1,-1,0
-48.77,8.47,15.39,1216,2140,7767,-1,-1,-1
-48.77,8.47,15.38,1231,2127,7766,-1,0,-1
-48.77,8.47,15.38,1240,2120,7759,-1,0,-1
-48.77,8.46,15.38,1230,2117,7759,0,0,-1
-48.76,8.46,15.38,1223,2120,7768,0,0,-1
-48.75,8.45,15.39,1225,2127,7768,0,0,-1
-48.74,8.45,15.40,1212,2142,7771,0,0,-1
-48.74,8.45,15.40,1209,2152,7756,-1,0,-1
-48.74,8.45,15.41,1220,2149,7742,0,-1,-1
-48.73,8.45,15.41,1221,2149,7747,-1,0,-1
-48.73,8.45,15.40,1214,2149,7742,-1,0,-1
-48.72,8.45,15.40,1228,2131,7751,0,0,-1
-48.71,8.43,15.41,1190,2142,7756,0,0,-1
-48.71,8.43,15.41,1201,2114,7754,0,-1,-1
-48.70,8.42,15.43,1222,2125,7780,0,0,-1
-48.70,8.41,15.44,1180,2129,7786,0,-1,0
-48.69,8.42,15.44,1247,2094,7763,0,1,-1
-48.69,8.39,15.47,1220,2120,7784,1,1,-1
-48.69,8.37,15.48,1199,2112,7745,0,0,0
-48.68,8.36,15.52,1248,2118,7730,1,1,-1
-48.66,8.31,15.56,1184,2189,7798,0,1,-1
-48.66,8.29,15.56,1167,2191,7754,-1,-1,0
-48.65,8.28,15.57,1189,2183,7731,0,1,-1
-48.65,8.26,15.57,1140,2198,7767,-1,-1,0
-48.66,8.28,15.56,1195,2165,7735,-1,0,0
-48.65,8.26,15.56,1205,2173,7759,0,0,-1
-48.66,8.25,15.54,1176,2123,7750,-1,0,0
-48.65,8.24,15.55,1208,2158,7773,-1,0,0
-48.65,8.23,15.56,1197,2127,7773,1,0,-1
-48.64,8.20,15.56,1180,2159,7755,-2,0,0
-48.64,8.20,15.56,1171,2131,7737,1,0,-1
-48.63,8.19,15.58,1173,2172,7772,0,0,-1
-48.63,8.19,15.57,1172,2162,7754,-1,-1,0
-48.63,8.19,15.57,1205,2156,7764,0,0,-1
-48.63,8.18,15.56,1181,2153,7734,0,0,0
-48.62,8.17,15.57,1177,2184,7762,0,0,-1
-48.62,8.15,15.57,1149,2187,7755,0,0,-1
-48.63,8.16,15.55,1173,2175,7783,-2,-1,0
-48.63,8.16,15.54,1171,2151,7769,0,0,-1
-48.63,8.15,15.55,1187,2172,7759,-1,0,-1
-48.63,8.15,15.54,1158,2131,7761,0,-1,0
-48.63,8.15,15.54,1241,2113,7765,0,1,-1
-48.63,8.11,15.54,1149,2116,7775,0,0,0
-48.64,8.11,15.55,1158,2143,7777,-1,-1,0
-48.64,8.12,15.55,1188,2123,7737,0,0,-1
-48.63,8.11,15.57,1155,2192,7750,0,0,-1
-48.63,8.11,15.57,1150,2199,7749,-1,-1,0
-48.64,8.11,15.55,1164,2184,7751,-1,-1,0
-48.64,8.12,15.54,1162,2182,7746,-1,-1,0
-48.63,8.13,15.52,1157,2174,7749,-1,-1,-1
-48.64,8.14,15.49,1182,2147,7775,-1,-1,-1
-48.64,8.16,15.47,1193,2134,7780,-1,0,-1
-48.64,8.15,15.47,1183,2143,7779,-1,0,-1
-48.64,8.16,15.46,1182,2132,7779,-1,0,-1
-48.64,8.16,15.44,1181,2121,7770,-1,0,-1
-48.64,8.15,15.44,1178,2127,7769,-1,0,-1
-48.63,8.14,15.44,1174,2140,7764,0,0,-1
-48.63,8.14,15.44,1172,2152,7771,-1,0,-1
-48.63,8.13,15.44,1169,2156,7771,-1,0,-1
-48.61,8.12,15.44,1166,2167,7763,-1,0,-1
-48.61,8.11,15.43,1162,2158,7767,-1,0,-1
-48.61,8.11,15.42,1167,2145,7780,-1,0,-1
-48.61,8.11,15.42,1169,2141,7781,-1,0,-1
-48.61,8.12,15.41,1174,2135,7775,-1,0,-1
-48.61,8.11,15.40,1182,2138,7762,-1,0,-1
-48.61,8.11,15.39,1179,2129,7762,-1,0,-1
-48.61,8.10,15.38,1170,2125,7780,-1,0,-1
-48.61,8.09,15.38,1161,2124,7780,0,0,-1
-48.60,8.09,15.38,1157,2135,7769,-1,0,-1
-48.60,8.09,15.38,1158,2138,7766,0,-1,-1
-48.59,8.10,15.38,1164,2137,7756,0,0,-1
-48.60,8.09,15.38,1165,2144,7760,-1,0,-1
-48.59,8.09,15.38,1176,2135,7762,-1,0,-1
-48.58,8.08,15.38,1168,2136,7766,-1,0,-1
-48.59,8.07,15.37,1161,2144,7769,-1,0,-1
-48.58,8.06,15.37,1158,2138,7773,-1,0,-1
-48.58,8.05,15.36,1155,2136,7786,-1,0,-1
-48.58,8.05,15.35,1152,2132,7778,-1,0,-1
-48.58,8.05,15.34,1164,2118,7775,-1,0,-1
-48.58,8.04,15.34,1169,2114,7779,0,0,-1
-48.58,8.03,15.34,1160,2111,7788,0,0,-1
-48.57,8.03,15.34,1158,2114,7789,0,0,-1
-48.56,8.02,15.35,1155,2133,7786,0,0,-1
-48.56,8.02,15.36,1153,2149,7774,-1,0,-1
-48.56,8.01,15.35,1157,2140,7772,0,0,-1
-48.56,8.01,15.35,1155,2146,7763,-1,0,-1
-48.56,8.00,15.36,1149,2152,7766,-1,0,-1
-48.55,8.00,15.35,1147,2136,7766,-1,0,-1
-48.55,8.00,15.34,1157,2135,7769,-1,0,-1
-48.55,8.00,15.34,1152,2130,7772,-1,0,-1
-48.55,8.00,15.34,1160,2132,7788,-1,0,-1
-48.54,8.00,15.33,1158,2129,7786,-1,-1,-1
-48.54,8.00,15.34,1155,2127,7777,0,-1,-1
-48.53,8.00,15.34,1147,2123,7770,0,-1,-1
-48.53,8.02,15.35,1176,2106,7787,0,-1,-1
-48.53,8.01,15.35,1143,2133,7772,0,0,-1
-48.53,8.00,15.36,1141,2104,7770,0,-1,0
-48.52,8.02,15.37,1175,2103,7767,0,0,-1
-48.53,8.01,15.39,1167,2128,7776,1,0,-1
-48.52,8.00,15.40,1155,2165,7781,0,0,-1
-48.53,8.00,15.41,1139,2143,7775,-1,0,0
-48.54,8.00,15.40,1148,2131,7768,0,-1,0
-48.54,8.00,15.40,1158,2134,7769,0,0,-1
-48.54,8.01,15.41,1131,2126,7776,0,-1,0
-48.54,8.02,15.42,1186,2100,7761,0,0,-1
-48.54,7.99,15.43,1148,2154,7775,0,1,0
-48.55,7.99,15.43,1139,2134,7777,-1,-1,0
-48.54,7.99,15.44,1174,2112,7783,1,0,-1
-48.55,7.98,15.45,1132,2143,7791,0,0,0
-48.55,7.98,15.47,1142,2149,7748,0,-1,0
-48.55,7.99,15.48,1150,2167,7750,0,0,0
-48.56,7.99,15.47,1137,2171,7752,-1,-1,0
-48.56,7.99,15.48,1161,2187,7762,-1,0,0
-48.57,7.99,15.45,1152,2154,7753,-1,0,0
-48.58,7.99,15.43,1158,2136,7780,-1,0,0
-48.58,7.99,15.42,1134,2104,7789,0,-1,0
-48.58,8.01,15.42,1145,2130,7770,-1,-1,0
-48.58,8.01,15.41,1135,2143,7770,-1,-1,0
-48.58,8.02,15.40,1154,2130,7756,-1,-1,0
-48.58,8.03,15.38,1160,2126,7767,-1,-1,-1
-48.58,8.04,15.38,1155,2127,7788,-1,-1,-1
-48.58,8.04,15.38,1153,2120,7797,0,-1,-1
-48.58,8.05,15.38,1139,2134,7774,0,-1,-1
-48.58,8.06,15.39,1158,2140,7750,0,-1,0
-48.58,8.07,15.39,1172,2144,7748,-1,-1,0
-48.58,8.07,15.38,1167,2150,7760,-1,-1,0
-48.59,8.08,15.37,1174,2138,7765,-1,-1,0
-48.59,8.09,15.36,1172,2131,7771,-1,-1,0
-48.60,8.10,15.35,1166,2126,7772,-1,-1,0
-48.60,8.10,15.34,1165,2126,7779,-1,-1,0
-48.60,8.11,15.34,1162,2125,7771,0,-1,0
-48.60,8.12,15.34,1162,2124,7770,-1,-1,0
-48.61,8.13,15.34,1170,2126,7771,0,-1,0
-48.60,8.14,15.34,1177,2131,7769,-1,-1,0
-48.61,8.14,15.34,1176,2130,7773,-1,-1,0
-48.61,8.16,15.33,1177,2123,7772,0,-1,-1
-48.61,8.16,15.34,1171,2126,7770,0,-1,-1
-48.60,8.16,15.35,1174,2127,7768,0,-1,-1
-48.61,8.17,15.34,1169,2136,7769,-1,-1,0
-48.61,8.18,15.35,1173,2133,7759,-1,-1,0
-48.62,8.19,15.34,1174,2137,7762,-1,-1,0
-48.62,8.19,15.34,1178,2139,7769,-1,-1,0
-48.62,8.20,15.33,1183,2125,7769,-1,-1,0
-48.62,8.20,15.33,1179,2117,7774,0,-1,0
-48.62,8.21,15.33,1181,2122,7773,0,-1,-1
-48.62,8.22,15.33,1182,2127,7774,0,-1,-1
-48.62,8.22,15.33,1181,2128,7770,0,-1,-1
-48.62,8.22,15.34,1180,2138,7768,-1,-1,-1
-48.62,8.23,15.33,1181,2133,7763,0,-1,0
-48.62,8.24,15.34,1182,2131,7764,0,-1,0
-48.62,8.24,15.34,1184,2127,7755,0,-1,0
-48.63,8.24,15.34,1189,2128,7758,0,-1,-1
-48.63,8.25,15.34,1190,2124,7761,0,-1,-1
-48.62,8.25,15.35,1196,2133,7769,0,-1,-1
-48.62,8.25,15.35,1184,2145,7777,-1,-1,-1
-48.63,8.25,15.34,1180,2142,7771,-1,-1,0
-48.63,8.26,15.34,1180,2128,7769,-1,-1,0
