Yaw,Pitch,Roll,AX,AY,AZ,GX,GY,GZ
177.39,-3.16,-42.77,-444,-5619,6096,-1,0,0
177.39,-3.16,-42.77,-441,-5617,6096,-1,0,0
177.39,-3.17,-42.78,-439,-5634,6083,-1,0,0
177.39,-3.17,-42.78,-448,-5630,6073,0,0,0
177.38,-3.18,-42.78,-460,-5633,6083,0,-1,0
177.38,-3.18,-42.78,-464,-5637,6093,0,0,0
177.38,-3.18,-42.77,-470,-5630,6078,0,0,0
177.38,-3.18,-42.77,-475,-5626,6073,0,-1,0
177.37,-3.18,-42.76,-469,-5630,6079,0,-1,-1
177.38,-3.18,-42.76,-465,-5627,6087,0,-1,-1
177.38,-3.17,-42.75,-456,-5622,6089,0,-1,-1
177.38,-3.17,-42.75,-459,-5621,6091,0,-1,-1
177.38,-3.17,-42.74,-456,-5616,6097,0,-1,0
177.38,-3.17,-42.73,-457,-5619,6097,0,0,0
177.38,-3.17,-42.74,-454,-5617,6091,-1,-1,0
177.38,-3.17,-42.74,-451,-5622,6079,-1,0,0
177.38,-3.17,-42.74,-456,-5620,6090,0,0,0
177.37,-3.17,-42.74,-458,-5629,6094,0,0,0
177.37,-3.18,-42.74,-464,-5635,6090,0,0,0
177.37,-3.18,-42.73,-472,-5629,6091,0,-1,-1
177.37,-3.18,-42.72,-468,-5625,6095,0,-1,-1
177.37,-3.17,-42.72,-463,-5628,6102,0,-1,0
177.37,-3.17,-42.72,-460,-5619,6101,0,0,0
177.37,-3.17,-42.72,-463,-5619,6091,0,0,0
177.37,-3.18,-42.71,-461,-5621,6100,0,0,0
177.37,-3.18,-42.71,-463,-5625,6101,0,0,-1
177.37,-3.18,-42.71,-466,-5620,6102,-1,-1,0
177.37,-3.18,-42.71,-459,-5620,6096,0,0,0
177.36,-3.18,-42.71,-454,-5626,6093,0,0,0
177.37,-3.18,-42.70,-454,-5625,6080,0,0,0
177.37,-3.18,-42.70,-458,-5629,6098,0,-1,0
177.36,-3.18,-42.69,-460,-5614,6113,0,-1,0
177.36,-3.18,-42.69,-464,-5614,6099,-1,0,0
177.36,-3.19,-42.69,-464,-5615,6090,-1,0,0
177.36,-3.19,-42.69,-461,-5627,6078,0,0,-1
177.37,-3.18,-42.69,-454,-5628,6080,0,-1,-1
177.37,-3.18,-42.68,-443,-5619,6091,0,-1,0
177.37,-3.18,-42.67,-446,-5609,6101,0,0,0
177.36,-3.18,-42.67,-457,-5603,6105,-1,0,0
177.36,-3.18,-42.66,-459,-5613,6102,0,0,-1
177.36,-3.19,-42.66,-464,-5615,6111,-1,0,-1
177.36,-3.19,-42.67,-470,-5627,6100,-1,0,0
177.36,-3.19,-42.67,-476,-5628,6097,0,-1,-1
177.36,-3.19,-42.66,-469,-5626,6096,0,0,-1
177.36,-3.19,-42.66,-466,-5619,6102,0,-1,0
177.36,-3.19,-42.65,-460,-5611,6104,0,-1,0
177.36,-3.19,-42.64,-454,-5604,6106,0,0,0
177.36,-3.19,-42.64,-455,-5603,6104,-1,0,0
177.36,-3.19,-42.64,-457,-5605,6101,-1,0,0
177.36,-3.19,-42.64,-459,-5613,6104,-1,0,0
177.35,-3.20,-42.64,-465,-5619,6097,0,0,0
177.35,-3.20,-42.64,-469,-5614,6091,0,0,0
177.35,-3.20,-42.64,-470,-5622,6095,0,-1,0
177.35,-3.20,-42.63,-470,-5625,6089,0,0,-1
177.35,-3.20,-42.63,-470,-5623,6098,0,-1,0
177.35,-3.20,-42.62,-469,-5624,6108,0,-1,-1
177.35,-3.20,-42.61,-475,-5619,6103,0,-1,-1
177.35,-3.20,-42.60,-471,-5610,6106,0,-1,0
177.35,-3.20,-42.60,-459,-5600,6104,0,-1,0
177.35,-3.19,-42.59,-448,-5590,6110,0,0,0
177.35,-3.19,-42.59,-444,-5588,6107,-1,0,0
177.35,-3.19,-42.59,-447,-5600,6112,-1,0,0
177.34,-3.20,-42.59,-463,-5607,6108,-1,0,0
177.34,-3.20,-42.59,-467,-5609,6115,0,0,0
177.34,-3.20,-42.59,-468,-5607,6114,-1,0,0
177.34,-3.20,-42.59,-470,-5611,6102,0,0,0
177.33,-3.21,-42.59,-467,-5613,6110,0,-1,0
177.33,-3.21,-42.58,-462,-5611,6104,0,-1,0
177.33,-3.21,-42.57,-467,-5614,6115,0,-1,0
177.33,-3.21,-42.57,-463,-5612,6115,0,-1,0
177.33,-3.21,-42.57,-467,-5606,6108,0,0,0
177.33,-3.20,-42.57,-461,-5601,6112,0,0,-1
177.33,-3.21,-42.57,-464,-5606,6110,-1,0,0
177.33,-3.21,-42.57,-471,-5611,6106,-1,0,-1
177.33,-3.21,-42.57,-474,-5610,6101,-1,-1,0
177.33,-3.21,-42.57,-467,-5611,6100,0,0,0
177.33,-3.21,-42.57,-470,-5605,6103,0,-1,0
177.32,-3.22,-42.57,-461,-5602,6106,0,0,0
177.32,-3.22,-42.57,-470,-5618,6112,0,0,-1
177.33,-3.21,-42.57,-475,-5619,6111,0,0,-1
177.33,-3.21,-42.56,-478,-5609,6109,0,-1,-1
177.33,-3.21,-42.55,-466,-5599,6109,0,-1,0
177.33,-3.21,-42.55,-461,-5596,6110,0,-1,0
177.33,-3.21,-42.54,-455,-5593,6108,0,0,0
177.33,-3.21,-42.54,-461,-5595,6108,0,0,0
177.33,-3.21,-42.54,-465,-5597,6113,-1,0,0
177.33,-3.21,-42.54,-475,-5594,6110,-1,0,-1
177.33,-3.21,-42.55,-475,-5607,6110,-1,-1,-1
177.33,-3.21,-42.55,-478,-5608,6113,-1,-1,-1
177.32,-3.21,-42.55,-472,-5603,6099,-1,-1,0
177.32,-3.20,-42.55,-459,-5598,6102,-1,-1,0
177.33,-3.20,-42.55,-456,-5599,6104,-1,-1,0
177.33,-3.20,-42.56,-456,-5592,6107,-1,0,0
177.32,-3.20,-42.56,-458,-5592,6122,-1,0,0
177.32,-3.20,-42.57,-465,-5603,6116,-1,0,-1
177.32,-3.20,-42.57,-465,-5609,6108,-1,-1,0
177.32,-3.20,-42.57,-464,-5611,6101,-1,-1,0
177.33,-3.20,-42.57,-469,-5609,6103,0,-1,0
177.33,-3.20,-42.57,-467,-5613,6098,0,-1,-1
177.33,-3.20,-42.57,-466,-5607,6092,0,-1,-1
177.33,-3.20,-42.57,-468,-5604,6099,-1,-1,-1
177.33,-3.19,-42.58,-460,-5607,6105,-1,-1,-1
177.33,-3.18,-42.58,-457,-5607,6108,-1,-1,0
177.34,-3.18,-42.58,-454,-5598,6108,-1,0,-1
177.34,-3.18,-42.58,-455,-5605,6114,-1,0,-1
177.34,-3.18,-42.58,-458,-5605,6119,-1,-1,0
177.34,-3.18,-42.59,-466,-5604,6115,-1,0,-1
177.34,-3.18,-42.59,-472,-5602,6106,-1,0,-1
177.34,-3.18,-42.59,-470,-5613,6116,-1,0,0
177.34,-3.18,-42.60,-469,-5614,6100,-1,0,-1
177.34,-3.18,-42.60,-462,-5612,6104,-1,-1,-1
177.34,-3.18,-42.61,-458,-5613,6111,-1,-1,0
177.34,-3.18,-42.61,-456,-5618,6115,-1,-1,0
177.34,-3.18,-42.61,-460,-5616,6110,-1,0,0
177.34,-3.18,-42.61,-469,-5607,6118,-1,0,-1
177.34,-3.18,-42.61,-467,-5605,6122,-1,0,-1
177.34,-3.18,-42.61,-458,-5598,6108,-1,-1,-1
177.34,-3.18,-42.62,-455,-5607,6105,-1,0,0
177.34,-3.18,-42.63,-458,-5608,6103,-1,0,0
177.34,-3.18,-42.63,-456,-5611,6106,-1,0,0
177.34,-3.18,-42.63,-465,-5611,6112,-1,0,-1
177.35,-3.18,-42.63,-465,-5614,6111,-1,0,-1
177.35,-3.18,-42.63,-461,-5612,6109,0,-1,-1
177.35,-3.18,-42.63,-454,-5613,6101,-1,-1,-1
177.35,-3.17,-42.63,-449,-5605,6096,-1,0,0
177.35,-3.18,-42.64,-453,-5605,6098,-1,0,-1
177.35,-3.18,-42.64,-465,-5612,6105,-1,0,-1
177.35,-3.18,-42.64,-477,-5617,6114,-1,0,-1
177.35,-3.18,-42.65,-479,-5620,6100,-1,0,-1
177.35,-3.18,-42.66,-476,-5623,6095,-1,-1,-1
177.35,-3.18,-42.66,-476,-5625,6095,-1,-1,-1
177.36,-3.18,-42.66,-461,-5619,6092,-1,-1,-1
177.36,-3.17,-42.66,-453,-5612,6092,-1,-1,-1
177.36,-3.17,-42.66,-448,-5604,6093,-1,0,0
177.36,-3.17,-42.66,-449,-5605,6083,-1,0,0
177.36,-3.17,-42.66,-456,-5609,6093,-1,0,0
177.36,-3.18,-42.67,-467,-5618,6103,-1,0,0
177.36,-3.18,-42.68,-475,-5627,6098,-1,0,-1
177.36,-3.18,-42.69,-475,-5630,6098,-1,-1,-1
177.36,-3.18,-42.69,-467,-5635,6086,-1,-1,-1
177.37,-3.18,-42.69,-456,-5631,6090,-1,0,-1
177.37,-3.18,-42.69,-460,-5621,6090,0,0,0
177.36,-3.18,-42.69,-465,-5617,6112,-1,-1,-1
177.36,-3.18,-42.69,-465,-5618,6111,-1,-1,-1
177.37,-3.18,-42.69,-467,-5615,6117,-1,0,-1
177.37,-3.18,-42.69,-462,-5615,6117,-1,0,0
177.37,-3.18,-42.69,-456,-5616,6107,-1,0,0
177.37,-3.18,-42.70,-451,-5623,6098,-1,0,0
177.37,-3.18,-42.71,-447,-5619,6095,-1,0,0
177.37,-3.18,-42.72,-453,-5616,6093,-1,0,0
177.37,-3.19,-42.72,-459,-5623,6092,-1,0,-1
177.37,-3.19,-42.72,-463,-5632,6093,-1,-1,0
177.37,-3.18,-42.72,-469,-5629,6102,0,-1,-1
177.37,-3.18,-42.72,-462,-5628,6101,-1,-1,-1
177.37,-3.17,-42.72,-456,-5628,6098,-1,-1,-1
177.38,-3.17,-42.72,-450,-5616,6099,0,-1,-1
177.38,-3.17,-42.72,-451,-5615,6095,-1,0,-1
177.38,-3.16,-42.72,-446,-5613,6104,-1,0,-1
177.38,-3.16,-42.72,-449,-5612,6098,-1,0,0
177.38,-3.16,-42.73,-451,-5616,6102,-1,0,-1
177.38,-3.16,-42.74,-463,-5625,6086,-1,0,-1
177.38,-3.16,-42.75,-469,-5637,6084,-1,-1,-1
177.38,-3.16,-42.75,-468,-5629,6086,0,-1,-1
177.38,-3.16,-42.75,-457,-5624,6086,0,-1,-1
177.39,-3.15,-42.74,-453,-5614,6087,0,-1,-1
177.39,-3.15,-42.74,-454,-5617,6092,-1,-1,-1
177.39,-3.15,-42.74,-454,-5610,6105,-1,0,-1
177.38,-3.16,-42.74,-460,-5613,6104,-1,0,-1
177.39,-3.16,-42.74,-470,-5617,6104,-1,0,-1
177.39,-3.16,-42.75,-466,-5629,6100,-1,0,-1
177.39,-3.16,-42.75,-466,-5624,6099,-1,-1,-1
177.40,-3.15,-42.75,-459,-5628,6100,-1,0,-1
177.40,-3.15,-42.75,-450,-5620,6104,-1,-1,0
177.40,-3.15,-42.75,-446,-5621,6099,-1,0,0
177.40,-3.15,-42.75,-449,-5617,6100,-1,0,0
177.40,-3.15,-42.76,-449,-5614,6097,-1,0,0
177.40,-3.16,-42.77,-454,-5624,6093,-1,0,-1
177.40,-3.16,-42.78,-463,-5643,6098,-1,0,-1
177.40,-3.17,-42.78,-463,-5636,6090,-1,0,-1
177.40,-3.17,-42.79,-454,-5637,6085,-1,0,-1
177.40,-3.17,-42.79,-451,-5632,6087,-1,0,0
177.40,-3.17,-42.79,-460,-5630,6083,-1,0,0
177.40,-3.17,-42.79,-458,-5625,6098,-1,0,0
177.40,-3.18,-42.79,-458,-5621,6094,-1,0,0
177.40,-3.18,-42.80,-458,-5627,6092,-1,0,0
177.40,-3.18,-42.80,-464,-5622,6097,-1,0,-1
177.40,-3.18,-42.80,-462,-5631,6086,0,0,-1
177.40,-3.18,-42.81,-465,-5627,6085,-1,0,-1
177.39,-3.19,-42.81,-467,-5626,6089,-1,0,0
177.39,-3.19,-42.81,-463,-5629,6082,0,0,0
177.39,-3.19,-42.81,-456,-5630,6088,0,0,0
177.39,-3.19,-42.80,-466,-5633,6090,0,-1,0
177.39,-3.19,-42.79,-473,-5633,6094,0,-1,0
177.39,-3.19,-42.79,-475,-5631,6084,0,-1,-1
177.39,-3.18,-42.79,-463,-5631,6086,0,-1,-1
177.39,-3.18,-42.78,-456,-5623,6095,0,-1,-1
177.39,-3.18,-42.77,-455,-5618,6091,0,-1,-1
177.40,-3.17,-42.76,-448,-5623,6089,0,-1,0
177.40,-3.17,-42.76,-451,-5615,6090,0,0,-1
177.40,-3.17,-42.75,-452,-5619,6091,0,-1,0
177.40,-3.17,-42.75,-451,-5618,6098,-1,0,0
177.40,-3.17,-42.76,-458,-5623,6091,-1,0,0
177.40,-3.17,-42.76,-459,-5637,6089,0,0,-1
177.40,-3.17,-42.76,-460,-5644,6086,0,-1,-1
177.40,-3.17,-42.75,-456,-5622,6091,0,-1,0
177.40,-3.16,-42.73,-448,-5610,6101,0,0,0
177.40,-3.17,-42.73,-455,-5616,6105,-1,0,0
177.40,-3.17,-42.73,-464,-5616,6096,0,0,0
177.40,-3.17,-42.73,-464,-5626,6099,0,0,-1
177.40,-3.17,-42.73,-467,-5624,6093,0,-1,-1
177.40,-3.17,-42.73,-458,-5623,6087,0,0,-1
177.40,-3.17,-42.72,-468,-5615,6091,0,-1,0
177.40,-3.16,-42.72,-460,-5617,6088,0,-1,0
177.40,-3.16,-42.72,-444,-5615,6093,0,0,0
177.40,-3.16,-42.71,-450,-5613,6101,0,0,0
177.40,-3.16,-42.71,-451,-5611,6098,-1,0,0
177.40,-3.16,-42.71,-452,-5607,6092,-1,0,0
177.40,-3.16,-42.72,-450,-5621,6094,-1,0,0
177.40,-3.17,-42.72,-454,-5624,6094,-1,0,0
177.40,-3.17,-42.72,-468,-5627,6076,0,0,0
177.39,-3.17,-42.72,-462,-5629,6087,0,-1,0
177.39,-3.17,-42.71,-463,-5627,6084,0,-1,0
177.39,-3.17,-42.71,-466,-5626,6082,0,0,-1
177.39,-3.17,-42.70,-463,-5622,6091,0,0,0
177.39,-3.17,-42.69,-462,-5616,6096,0,-1,-1
177.39,-3.17,-42.70,-460,-5623,6089,0,0,0
177.39,-3.17,-42.69,-464,-5620,6093,0,0,-1
177.39,-3.17,-42.69,-465,-5615,6102,0,0,0
177.39,-3.18,-42.69,-467,-5613,6106,-1,0,0
177.39,-3.18,-42.69,-455,-5615,6093,-1,-1,0
177.38,-3.19,-42.69,-466,-5616,6100,-1,0,0
177.38,-3.19,-42.69,-470,-5621,6097,0,0,-1
177.38,-3.19,-42.69,-476,-5621,6087,0,-1,-1
177.38,-3.19,-42.69,-480,-5629,6091,0,-1,0
177.39,-3.19,-42.68,-474,-5625,6095,0,-1,-1
177.39,-3.18,-42.67,-464,-5618,6107,0,-1,-1
177.39,-3.17,-42.66,-455,-5607,6118,0,-1,0
177.39,-3.17,-42.66,-453,-5606,6116,0,-1,0
177.38,-3.17,-42.65,-458,-5608,6110,0,0,0
177.38,-3.17,-42.65,-458,-5612,6105,0,0,-1
177.39,-3.17,-42.65,-462,-5606,6107,-1,0,0
177.38,-3.17,-42.65,-459,-5614,6107,0,0,0
177.38,-3.18,-42.65,-464,-5615,6106,0,0,0
177.38,-3.18,-42.64,-465,-5621,6108,0,-1,0
177.38,-3.17,-42.64,-467,-5624,6110,0,-1,0
177.38,-3.18,-42.63,-469,-5615,6106,0,-1,0
177.38,-3.18,-42.63,-463,-5606,6112,0,0,0
177.38,-3.18,-42.63,-451,-5601,6115,-1,0,0
177.38,-3.18,-42.63,-455,-5615,6116,0,-1,-1
177.38,-3.18,-42.63,-459,-5605,6109,0,-1,-1
177.38,-3.18,-42.62,-457,-5598,6103,-1,-1,0
177.38,-3.18,-42.62,-449,-5600,6098,0,0,0
177.37,-3.18,-42.62,-451,-5604,6099,-1,0,0
177.37,-3.19,-42.62,-463,-5604,6095,0,0,0
177.37,-3.19,-42.61,-473,-5611,6103,0,0,-1
177.37,-3.19,-42.61,-474,-5613,6116,0,-1,-1
177.37,-3.19,-42.61,-471,-5622,6106,0,0,-1
177.38,-3.18,-42.61,-468,-5619,6104,0,-1,-1
177.37,-3.19,-42.61,-460,-5611,6111,0,-1,0
177.37,-3.18,-42.60,-453,-5615,6118,0,-1,0
177.37,-3.18,-42.59,-442,-5601,6111,0,0,0
177.37,-3.18,-42.59,-451,-5592,6113,0,0,0
177.37,-3.18,-42.59,-458,-5592,6115,-1,0,0
177.36,-3.19,-42.59,-462,-5600,6113,-1,0,0
177.36,-3.20,-42.59,-468,-5606,6123,-1,0,0
177.36,-3.20,-42.59,-471,-5603,6112,-1,0,0
177.36,-3.20,-42.59,-474,-5600,6111,-1,-1,0
177.36,-3.20,-42.59,-473,-5604,6112,0,-1,0
177.36,-3.20,-42.59,-475,-5604,6112,0,0,0
177.36,-3.20,-42.58,-475,-5605,6103,0,-1,0
177.36,-3.19,-42.58,-469,-5602,6107,0,-1,-1
177.36,-3.19,-42.57,-471,-5599,6115,-1,-1,-1
177.36,-3.19,-42.57,-464,-5605,6124,0,-1,-1
177.37,-3.18,-42.57,-461,-5599,6131,-1,-1,-1
177.37,-3.18,-42.57,-458,-5596,6125,-1,-1,-1
177.37,-3.18,-42.57,-447,-5592,6122,-1,-1,0
177.36,-3.18,-42.58,-453,-5595,6114,-1,0,0
177.36,-3.18,-42.59,-458,-5611,6110,-1,0,0
177.36,-3.18,-42.59,-466,-5614,6116,-1,-1,-1
177.36,-3.18,-42.60,-478,-5622,6112,-1,-1,-1
177.36,-3.18,-42.60,-477,-5622,6095,0,-1,-1
177.36,-3.17,-42.60,-467,-5614,6105,0,-1,-1
177.36,-3.17,-42.59,-461,-5610,6108,0,-1,-1
177.37,-3.16,-42.59,-458,-5605,6111,-1,-1,-1
177.37,-3.16,-42.59,-450,-5604,6106,-1,-1,-1
177.38,-3.16,-42.60,-448,-5596,6108,-1,-1,0
177.38,-3.16,-42.60,-450,-5600,6107,-1,0,0
177.37,-3.16,-42.60,-455,-5606,6107,-1,0,-1
177.38,-3.16,-42.61,-455,-5617,6109,-1,-1,-1
177.38,-3.16,-42.61,-462,-5619,6106,-1,-1,-1
177.38,-3.16,-42.62,-458,-5616,6104,0,0,-1
177.38,-3.16,-42.62,-461,-5613,6104,-1,-1,0
177.38,-3.16,-42.62,-459,-5608,6104,-1,0,-1
177.38,-3.15,-42.63,-456,-5608,6109,-1,0,-1
177.38,-3.15,-42.63,-455,-5615,6117,-1,-1,-1
177.38,-3.15,-42.63,-452,-5613,6116,-1,-1,-1
177.38,-3.15,-42.63,-452,-5601,6116,-1,-1,0
177.38,-3.15,-42.63,-449,-5597,6110,-1,0,0
177.38,-3.15,-42.63,-457,-5605,6105,-1,0,0
177.38,-3.15,-42.63,-463,-5613,6110,-1,0,-1
177.38,-3.16,-42.63,-473,-5611,6108,-1,0,-1
177.38,-3.16,-42.64,-474,-5615,6100,-1,-1,-1
177.38,-3.15,-42.64,-464,-5619,6095,-1,-1,-1
177.38,-3.15,-42.64,-456,-5615,6085,0,-1,-1
177.39,-3.14,-42.64,-445,-5606,6100,-1,0,-1
177.39,-3.14,-42.64,-447,-5594,6100,-1,0,0
177.39,-3.14,-42.64,-453,-5605,6104,-1,0,0
177.39,-3.14,-42.65,-454,-5607,6106,-1,0,0
177.39,-3.15,-42.66,-463,-5607,6100,-1,0,-1
177.39,-3.15,-42.66,-464,-5611,6097,-1,0,-1
177.39,-3.15,-42.66,-460,-5609,6098,-1,0,-1
177.39,-3.15,-42.67,-464,-5618,6101,-1,0,0
177.39,-3.15,-42.67,-472,-5616,6099,-1,-1,-1
177.39,-3.16,-42.67,-477,-5625,6091,-1,-1,-1
177.38,-3.16,-42.67,-471,-5617,6092,-1,0,0
177.38,-3.16,-42.67,-465,-5618,6091,0,0,-1
177.39,-3.16,-42.67,-454,-5621,6102,0,0,-1
177.39,-3.15,-42.67,-449,-5626,6099,-1,-1,-1
177.39,-3.15,-42.67,-455,-5619,6105,-1,-1,-1
177.39,-3.15,-42.67,-455,-5614,6098,-1,-1,-1
177.39,-3.15,-42.68,-454,-5615,6096,-1,0,-1
177.40,-3.14,-42.68,-449,-5618,6101,-1,0,0
177.40,-3.14,-42.69,-443,-5621,6108,-1,0,0
177.40,-3.14,-42.69,-446,-5622,6101,-1,0,-1
177.40,-3.14,-42.69,-454,-5625,6103,-1,0,-1
177.40,-3.14,-42.69,-455,-5624,6115,-1,0,-1
177.40,-3.14,-42.69,-456,-5632,6113,-1,-1,-1
177.40,-3.14,-42.69,-458,-5627,6105,-1,-1,-1
177.40,-3.14,-42.69,-463,-5618,6108,-1,-1,0
177.41,-3.13,-42.69,-456,-5610,6094,-1,0,-1
177.41,-3.13,-42.69,-452,-5607,6094,-1,0,0
177.41,-3.13,-42.69,-445,-5612,6094,-1,0,-1
177.41,-3.13,-42.70,-446,-5611,6093,-1,0,0
177.41,-3.13,-42.70,-450,-5608,6096,-1,-1,0
177.41,-3.13,-42.71,-455,-5618,6098,-1,0,-1
177.41,-3.13,-42.72,-458,-5627,6100,-1,0,-1
177.41,-3.13,-42.72,-459,-5633,6103,0,0,-1
177.41,-3.13,-42.72,-448,-5630,6098,0,-1,0
177.41,-3.12,-42.71,-450,-5613,6105,-1,-1,0
177.41,-3.12,-42.71,-452,-5611,6105,-1,0,0
177.41,-3.13,-42.72,-462,-5615,6103,-1,0,-1
177.41,-3.14,-42.72,-468,-5613,6090,-1,0,-1
177.41,-3.14,-42.73,-466,-5614,6098,-1,0,-1
177.42,-3.14,-42.73,-468,-5620,6100,-1,-1,-1
177.42,-3.13,-42.73,-465,-5625,6093,-1,-1,-1
177.42,-3.13,-42.73,-460,-5628,6094,-1,-1,-1
177.42,-3.13,-42.73,-450,-5621,6101,0,-1,-1
177.42,-3.12,-42.73,-442,-5616,6101,-1,-1,-1
177.42,-3.12,-42.73,-444,-5606,6100,-1,0,0
177.42,-3.12,-42.73,-440,-5605,6096,-1,0,0
177.42,-3.12,-42.73,-440,-5611,6101,-1,0,-1
177.42,-3.12,-42.74,-455,-5629,6102,-1,-1,0
177.42,-3.13,-42.74,-462,-5630,6094,-1,0,-1
177.42,-3.13,-42.75,-467,-5633,6090,-1,0,0
177.42,-3.13,-42.75,-462,-5626,6089,-1,0,0
177.41,-3.14,-42.75,-474,-5630,6084,0,-1,-1
177.42,-3.13,-42.75,-470,-5628,6087,0,-1,-1
177.42,-3.13,-42.75,-457,-5633,6095,0,-1,-1
177.43,-3.12,-42.75,-448,-5625,6102,-1,-1,-1
177.43,-3.12,-42.75,-444,-5618,6097,-1,0,0
177.43,-3.12,-42.75,-445,-5613,6097,-1,0,-1
177.43,-3.12,-42.75,-448,-5610,6101,-1,-1,0
177.43,-3.12,-42.76,-449,-5615,6103,-1,0,-1
177.43,-3.12,-42.77,-448,-5620,6096,-1,0,-1
177.42,-3.13,-42.78,-450,-5627,6088,-1,0,-1
177.43,-3.12,-42.78,-451,-5634,6094,0,-1,-1
177.43,-3.12,-42.77,-454,-5632,6096,0,-1,-1
177.43,-3.12,-42.77,-455,-5629,6096,0,-1,-1
177.43,-3.12,-42.76,-454,-5625,6104,0,-1,-1
177.44,-3.11,-42.76,-452,-5620,6105,-1,0,-1
177.44,-3.11,-42.75,-454,-5619,6107,-1,0,-1
177.44,-3.11,-42.76,-447,-5624,6107,-1,0,-1
177.45,-3.11,-42.76,-450,-5622,6096,-1,0,-1
177.45,-3.11,-42.76,-456,-5622,6098,-1,0,-1
177.45,-3.11,-42.77,-458,-5626,6094,-1,0,-1
177.45,-3.11,-42.77,-467,-5630,6092,-1,0,-1
177.44,-3.12,-42.78,-472,-5636,6090,0,-1,-1
177.45,-3.11,-42.77,-465,-5627,6090,0,-1,-1
177.45,-3.11,-42.77,-451,-5617,6091,0,-1,0
177.45,-3.11,-42.77,-451,-5615,6088,-1,0,0
177.44,-3.12,-42.77,-453,-5612,6087,-1,0,0
177.45,-3.12,-42.77,-466,-5615,6088,-1,0,0
177.44,-3.12,-42.78,-472,-5627,6097,-1,0,0
177.44,-3.13,-42.78,-473,-5636,6093,0,0,-1
177.44,-3.14,-42.78,-465,-5636,6089,0,-1,0
177.44,-3.14,-42.77,-457,-5627,6089,0,0,0
177.44,-3.14,-42.77,-448,-5618,6093,0,-1,0
177.44,-3.14,-42.77,-441,-5608,6095,-1,0,0
177.44,-3.14,-42.77,-441,-5611,6098,-1,0,0
177.43,-3.14,-42.77,-446,-5610,6087,-1,0,0
177.43,-3.15,-42.78,-454,-5619,6092,-1,0,0
177.43,-3.15,-42.78,-461,-5631,6093,0,0,-1
177.43,-3.15,-42.78,-457,-5634,6089,0,-1,0
177.43,-3.15,-42.79,-456,-5639,6078,0,-1,-1
177.42,-3.15,-42.78,-457,-5636,6074,0,-1,0
177.42,-3.15,-42.77,-454,-5636,6078,0,0,0
177.42,-3.15,-42.76,-462,-5625,6094,0,0,-1
177.42,-3.15,-42.75,-456,-5610,6091,0,0,0
177.42,-3.15,-42.75,-454,-5605,6099,-1,-1,0
177.42,-3.15,-42.75,-454,-5605,6110,-1,0,0
177.42,-3.15,-42.75,-458,-5613,6092,-1,0,0
177.42,-3.15,-42.75,-456,-5616,6086,-1,0,0
177.42,-3.16,-42.76,-465,-5614,6090,-1,0,0
177.42,-3.16,-42.76,-471,-5625,6090,0,0,0
177.41,-3.16,-42.75,-471,-5626,6084,0,-1,0
177.41,-3.16,-42.75,-463,-5627,6083,0,-1,-1
177.42,-3.16,-42.75,-465,-5623,6091,0,-1,0
177.42,-3.16,-42.74,-458,-5622,6086,0,-1,0
177.42,-3.16,-42.73,-454,-5623,6097,0,0,0
177.42,-3.16,-42.73,-464,-5620,6103,0,-1,0
177.42,-3.16,-42.73,-465,-5618,6106,0,-1,0
177.41,-3.16,-42.73,-467,-5615,6094,0,-1,0
177.42,-3.16,-42.73,-458,-5615,6088,0,-1,0
177.41,-3.16,-42.72,-457,-5621,6091,0,-1,0
177.42,-3.15,-42.71,-445,-5606,6097,0,0,0
177.41,-3.16,-42.71,-458,-5607,6094,-1,0,0
177.41,-3.16,-42.72,-459,-5612,6089,-1,0,-1
177.41,-3.16,-42.71,-469,-5622,6094,0,-1,-1
177.41,-3.16,-42.71,-465,-5622,6099,0,-1,-1
177.41,-3.15,-42.70,-455,-5618,6090,0,-1,0
177.41,-3.15,-42.70,-450,-5615,6089,0,0,0
177.41,-3.15,-42.70,-453,-5616,6094,0,0,0
177.41,-3.16,-42.69,-462,-5616,6093,0,0,0
177.41,-3.16,-42.69,-465,-5614,6094,0,0,0
177.40,-3.17,-42.69,-466,-5615,6101,0,0,-1
177.40,-3.17,-42.69,-470,-5611,6104,0,-1,-1
177.41,-3.16,-42.69,-459,-5615,6102,0,-1,-1
177.41,-3.15,-42.68,-453,-5612,6105,0,-1,0
177.41,-3.15,-42.67,-452,-5611,6104,0,0,0
177.41,-3.15,-42.67,-451,-5609,6096,0,0,0
177.41,-3.16,-42.67,-454,-5608,6099,0,0,0
177.41,-3.16,-42.67,-451,-5612,6095,-1,0,0
177.41,-3.16,-42.67,-452,-5615,6099,-1,0,0
177.40,-3.17,-42.67,-460,-5620,6100,0,0,0
177.41,-3.16,-42.67,-454,-5629,6107,0,0,0
177.41,-3.16,-42.67,-458,-5625,6103,0,-1,0
177.41,-3.16,-42.66,-467,-5629,6103,0,-1,-1
177.41,-3.16,-42.65,-462,-5620,6106,0,-1,0
177.41,-3.16,-42.64,-456,-5612,6113,0,-1,-1
177.41,-3.16,-42.63,-452,-5608,6110,0,-1,0
177.41,-3.15,-42.63,-443,-5606,6112,0,-1,0
177.41,-3.15,-42.63,-442,-5590,6112,0,0,0
177.41,-3.15,-42.63,-441,-5600,6110,-1,0,0
177.40,-3.16,-42.63,-456,-5608,6111,-1,-1,0
177.40,-3.16,-42.63,-463,-5616,6093,-1,0,0
177.40,-3.16,-42.63,-466,-5620,6095,0,0,0
177.40,-3.16,-42.63,-460,-5610,6102,0,0,0
177.39,-3.17,-42.63,-466,-5607,6097,0,-1,0
177.39,-3.17,-42.63,-462,-5611,6097,0,-1,0
177.39,-3.17,-42.62,-465,-5614,6105,0,-1,0
177.39,-3.17,-42.62,-459,-5615,6100,0,-1,-1
177.39,-3.17,-42.62,-453,-5608,6105,0,0,0
177.39,-3.17,-42.62,-455,-5604,6092,-1,-1,0
177.39,-3.17,-42.62,-461,-5606,6102,-1,0,0
177.39,-3.17,-42.62,-454,-5608,6106,-1,0,-1
177.39,-3.17,-42.62,-459,-5609,6103,0,0,0
177.39,-3.17,-42.61,-452,-5612,6104,0,0,0
177.39,-3.17,-42.61,-460,-5609,6093,0,-1,0
177.39,-3.17,-42.61,-462,-5598,6093,-1,0,0
177.38,-3.17,-42.62,-464,-5599,6100,-1,0,0
177.38,-3.17,-42.62,-463,-5605,6094,-1,0,-1
177.38,-3.17,-42.62,-469,-5618,6102,0,-1,-1
177.39,-3.17,-42.61,-465,-5608,6110,0,-1,-1
177.39,-3.17,-42.61,-464,-5600,6106,0,-1,0
177.39,-3.16,-42.61,-461,-5604,6106,-1,-1,0
177.39,-3.16,-42.61,-462,-5606,6110,-1,0,0
177.39,-3.17,-42.61,-459,-5601,6113,-1,0,-1
177.39,-3.17,-42.61,-461,-5593,6107,-1,-1,-1
177.39,-3.16,-42.61,-460,-5605,6106,-1,-1,-1
177.39,-3.16,-42.61,-463,-5611,6106,-1,-1,0
177.39,-3.16,-42.62,-462,-5614,6110,-1,-1,-1
177.39,-3.15,-42.62,-453,-5612,6115,-1,-1,-1
177.40,-3.15,-42.62,-451,-5609,6114,-1,-1,-1
177.40,-3.15,-42.62,-443,-5600,6115,-1,-1,0
177.39,-3.15,-42.62,-444,-5602,6112,-1,-1,0
177.39,-3.15,-42.63,-448,-5607,6111,-1,0,0
177.39,-3.16,-42.63,-468,-5609,6112,-1,0,0
177.39,-3.16,-42.63,-469,-5616,6111,-1,0,0
177.39,-3.16,-42.64,-465,-5617,6098,-1,-1,-1
177.40,-3.15,-42.65,-467,-5617,6097,-1,0,-1
177.40,-3.15,-42.65,-462,-5618,6097,-1,0,-1
177.40,-3.15,-42.65,-463,-5616,6100,-1,-1,-1
177.40,-3.15,-42.65,-465,-5616,6104,-1,0,-1
177.40,-3.15,-42.65,-459,-5614,6109,-1,-1,-1
177.41,-3.14,-42.65,-452,-5612,6114,-1,-1,-1
177.41,-3.14,-42.65,-446,-5614,6107,-1,0,-1
177.41,-3.14,-42.65,-447,-5617,6113,-1,0,-1
177.41,-3.14,-42.66,-450,-5613,6116,-1,0,0
177.41,-3.14,-42.66,-454,-5607,6115,-1,0,0
177.41,-3.14,-42.66,-463,-5612,6113,-1,0,-1
177.40,-3.15,-42.67,-461,-5622,6108,-1,0,0
177.40,-3.15,-42.67,-469,-5617,6096,-1,0,-1
177.41,-3.15,-42.67,-468,-5622,6095,-1,-1,0
177.41,-3.15,-42.67,-469,-5624,6103,0,0,-1
177.41,-3.15,-42.67,-465,-5620,6108,-1,-1,-1
177.41,-3.15,-42.67,-459,-5610,6108,-1,0,0
177.41,-3.15,-42.67,-462,-5608,6105,-1,0,-1
177.41,-3.15,-42.67,-452,-5605,6101,0,0,-1
177.42,-3.15,-42.67,-459,-5610,6106,-1,-1,-1
177.42,-3.15,-42.67,-457,-5610,6113,-1,0,-1
177.42,-3.15,-42.67,-460,-5612,6101,-1,0,-1
177.42,-3.15,-42.68,-457,-5617,6096,-1,0,0
177.42,-3.15,-42.68,-461,-5618,6092,0,-1,0
177.42,-3.15,-42.68,-459,-5616,6101,-1,-1,-1
177.42,-3.15,-42.68,-460,-5617,6108,-1,-1,0
177.42,-3.15,-42.69,-461,-5618,6110,-1,0,-1
177.42,-3.14,-42.69,-456,-5625,6107,0,-1,-1
177.42,-3.14,-42.68,-448,-5614,6103,-1,-1,0
177.42,-3.13,-42.69,-446,-5612,6105,-1,0,0
177.42,-3.13,-42.69,-446,-5616,6096,-1,0,0
177.42,-3.14,-42.69,-453,-5622,6097,-1,0,0
177.42,-3.14,-42.70,-462,-5627,6088,-1,0,-1
177.42,-3.15,-42.71,-467,-5624,6084,-1,0,-1
177.42,-3.14,-42.71,-460,-5621,6097,-1,-1,-1
177.42,-3.14,-42.71,-453,-5623,6098,-1,-1,-1
177.43,-3.13,-42.71,-451,-5614,6100,0,-1,-1
177.43,-3.13,-42.71,-448,-5608,6104,-1,-1,-1
177.43,-3.13,-42.71,-446,-5607,6104,-1,-1,0
177.43,-3.12,-42.71,-441,-5608,6105,-1,0,0
177.43,-3.13,-42.71,-445,-5608,6106,-1,0,0
177.43,-3.13,-42.71,-452,-5607,6094,-1,0,0
177.43,-3.13,-42.72,-452,-5614,6089,-1,0,-1
177.43,-3.13,-42.72,-456,-5613,6091,-1,-1,-1
177.43,-3.13,-42.72,-454,-5615,6091,-1,-1,0
177.43,-3.13,-42.73,-457,-5620,6088,0,0,0
177.43,-3.13,-42.72,-452,-5621,6089,0,0,-1
177.43,-3.13,-42.72,-453,-5624,6092,0,-1,-1
177.43,-3.12,-42.72,-454,-5629,6090,-1,-1,-1
177.43,-3.12,-42.73,-458,-5630,6097,-1,-1,-1
177.44,-3.12,-42.72,-450,-5627,6110,-1,0,-1
177.44,-3.12,-42.72,-445,-5617,6107,-1,0,0
177.44,-3.11,-42.72,-443,-5610,6105,-1,0,-1
177.44,-3.12,-42.72,-452,-5614,6105,-1,-1,0
177.44,-3.12,-42.73,-450,-5622,6094,-1,0,-1
177.44,-3.12,-42.73,-464,-5620,6086,-1,0,-1
177.44,-3.12,-42.73,-459,-5620,6092,-1,0,0
177.44,-3.12,-42.73,-459,-5627,6090,0,-1,-1
177.44,-3.11,-42.73,-455,-5627,6091,0,-1,-1
177.44,-3.11,-42.73,-451,-5625,6089,0,-1,0
177.44,-3.11,-42.72,-453,-5618,6107,-1,-1,0
177.44,-3.11,-42.72,-451,-5620,6108,-1,0,0
177.44,-3.11,-42.73,-456,-5619,6099,-1,-1,0
177.44,-3.11,-42.73,-457,-5619,6096,-1,-1,-1
177.44,-3.11,-42.73,-448,-5621,6094,-1,0,-1
177.44,-3.11,-42.73,-444,-5616,6089,-1,0,0
177.44,-3.11,-42.73,-444,-5620,6083,-1,0,0
177.44,-3.11,-42.74,-452,-5635,6086,-1,0,-1
177.44,-3.11,-42.75,-447,-5640,6082,0,0,0
177.45,-3.11,-42.75,-449,-5631,6091,0,0,-1
177.45,-3.11,-42.74,-440,-5623,6095,-1,0,0
177.44,-3.12,-42.74,-443,-5616,6102,-1,0,0
177.44,-3.13,-42.76,-453,-5626,6098,-1,0,0
177.44,-3.14,-42.76,-458,-5622,6092,-1,0,0
177.42,-3.15,-42.77,-478,-5628,6098,-1,0,0
177.42,-3.16,-42.78,-477,-5630,6092,-1,0,-1
177.42,-3.16,-42.79,-479,-5626,6090,-1,0,-1
177.42,-3.17,-42.79,-469,-5637,6099,-1,-1,0
177.42,-3.17,-42.79,-457,-5622,6095,-1,0,0
177.42,-3.17,-42.80,-455,-5621,6095,-1,0,0
177.42,-3.17,-42.80,-453,-5630,6098,-1,0,0
177.41,-3.18,-42.81,-455,-5637,6088,-1,0,0
177.41,-3.18,-42.82,-464,-5642,6086,-1,0,0
177.41,-3.19,-42.82,-467,-5641,6086,-1,0,0
177.42,-3.18,-42.82,-471,-5636,6077,0,-1,-1
177.42,-3.18,-42.82,-464,-5637,6069,0,-1,-1
177.42,-3.18,-42.81,-464,-5647,6084,0,-1,-1
177.42,-3.17,-42.80,-458,-5641,6085,0,-1,-1
177.42,-3.17,-42.79,-471,-5634,6083,0,-1,-1
177.42,-3.16,-42.79,-466,-5626,6086,0,-1,-1
177.43,-3.16,-42.78,-452,-5624,6094,0,-1,-1
177.43,-3.15,-42.77,-455,-5625,6101,0,-1,-1
177.43,-3.15,-42.76,-446,-5617,6109,0,-1,0
177.43,-3.15,-42.76,-442,-5607,6106,-1,0,0
177.43,-3.15,-42.76,-446,-5609,6092,-1,0,0
177.43,-3.15,-42.76,-450,-5624,6101,-1,0,0
177.43,-3.15,-42.76,-460,-5629,6100,0,0,-1
177.43,-3.15,-42.76,-460,-5628,6095,0,-1,-1
177.44,-3.15,-42.75,-461,-5634,6092,0,-1,0
177.44,-3.15,-42.75,-458,-5629,6097,0,-1,0
177.44,-3.15,-42.74,-456,-5624,6097,0,-1,0
177.44,-3.15,-42.73,-456,-5616,6107,0,0,-1
177.44,-3.15,-42.73,-457,-5612,6101,-1,0,0
177.44,-3.15,-42.73,-455,-5616,6097,-1,-1,0
177.44,-3.15,-42.73,-452,-5620,6099,-1,0,0
177.43,-3.15,-42.73,-456,-5633,6093,0,0,0
177.44,-3.15,-42.73,-458,-5625,6092,0,0,0
177.44,-3.15,-42.73,-453,-5616,6093,-1,-1,0
177.44,-3.15,-42.73,-461,-5626,6086,-1,0,0
177.43,-3.15,-42.73,-463,-5631,6083,-1,0,-1
177.43,-3.15,-42.73,-455,-5631,6082,0,0,0
177.44,-3.15,-42.72,-453,-5619,6086,0,-1,0
177.44,-3.15,-42.71,-447,-5612,6087,0,-1,0
177.44,-3.15,-42.71,-457,-5613,6090,0,0,0
177.43,-3.16,-42.70,-462,-5616,6094,0,0,0
177.43,-3.16,-42.70,-470,-5623,6091,0,0,0
177.43,-3.16,-42.70,-482,-5628,6091,0,0,-1
177.43,-3.16,-42.70,-479,-5629,6092,0,-1,-1
177.43,-3.16,-42.70,-473,-5633,6090,0,-1,-1
177.44,-3.15,-42.70,-455,-5626,6095,0,-1,-1
177.44,-3.15,-42.69,-448,-5608,6098,0,-1,0
177.43,-3.15,-42.68,-446,-5605,6103,0,-1,0
177.43,-3.15,-42.68,-446,-5604,6106,-1,-1,0
177.43,-3.15,-42.68,-446,-5613,6107,-1,0,-1
177.43,-3.16,-42.68,-455,-5619,6101,-1,0,0
177.43,-3.16,-42.69,-457,-5620,6092,-1,0,0
177.43,-3.16,-42.69,-465,-5622,6088,0,-1,0
177.43,-3.16,-42.69,-463,-5624,6093,0,-1,0
177.43,-3.16,-42.68,-465,-5625,6086,0,0,0
177.43,-3.16,-42.68,-464,-5628,6094,0,-1,0
177.42,-3.17,-42.67,-468,-5622,6094,0,0,0
177.42,-3.17,-42.67,-470,-5617,6109,0,0,-1
177.42,-3.17,-42.67,-469,-5617,6107,0,-1,-1
177.42,-3.17,-42.67,-459,-5620,6106,0,-1,-1
177.42,-3.16,-42.67,-452,-5613,6099,0,-1,0
177.42,-3.16,-42.67,-449,-5617,6096,0,0,-1
177.42,-3.16,-42.66,-447,-5604,6101,-1,-1,0
177.42,-3.16,-42.66,-447,-5605,6107,0,0,0
177.43,-3.16,-42.66,-451,-5620,6103,0,0,0
177.42,-3.17,-42.66,-457,-5621,6099,0,-1,0
177.42,-3.17,-42.65,-465,-5618,6109,0,-1,0
177.42,-3.17,-42.65,-462,-5613,6104,0,-1,0
177.42,-3.17,-42.64,-456,-5612,6106,0,-1,0
177.42,-3.17,-42.64,-459,-5614,6108,0,-1,0
177.42,-3.17,-42.63,-466,-5612,6115,0,-1,0
177.42,-3.17,-42.63,-461,-5606,6114,0,-1,0
177.42,-3.17,-42.62,-457,-5600,6110,0,0,0
177.42,-3.17,-42.62,-458,-5600,6102,-1,0,0
177.42,-3.17,-42.62,-459,-5607,6102,0,0,0
177.41,-3.17,-42.62,-456,-5610,6109,-1,-1,0
177.41,-3.17,-42.61,-455,-5604,6110,0,0,0
177.41,-3.17,-42.62,-457,-5607,6102,-1,-1,0
177.41,-3.17,-42.62,-459,-5613,6109,0,0,0
177.41,-3.17,-42.62,-463,-5620,6100,0,0,-1
177.41,-3.17,-42.61,-458,-5615,6104,0,0,0
177.42,-3.17,-42.61,-448,-5601,6111,0,-1,0
177.42,-3.17,-42.60,-445,-5595,6114,-1,0,0
177.41,-3.17,-42.60,-458,-5606,6116,-1,0,0
177.41,-3.18,-42.60,-465,-5617,6111,-1,0,0
177.41,-3.19,-42.61,-475,-5610,6106,-1,0,-1
177.41,-3.19,-42.61,-478,-5610,6098,-1,-1,-1
177.41,-3.19,-42.61,-459,-5603,6101,0,0,0
177.41,-3.19,-42.61,-462,-5607,6101,0,-1,-1
177.41,-3.18,-42.60,-455,-5608,6105,0,0,0
177.41,-3.19,-42.60,-464,-5613,6118,0,0,0
177.41,-3.19,-42.59,-460,-5606,6127,0,0,0
177.41,-3.19,-42.59,-460,-5605,6121,-1,0,0
177.41,-3.19,-42.59,-460,-5602,6113,-1,0,0
177.41,-3.19,-42.59,-466,-5606,6108,-1,0,0
177.40,-3.19,-42.60,-464,-5617,6097,0,0,0
177.40,-3.19,-42.60,-464,-5617,6102,0,0,0
177.41,-3.19,-42.59,-464,-5607,6100,0,-1,-1
177.41,-3.19,-42.59,-465,-5612,6095,0,-1,0
177.41,-3.19,-42.58,-464,-5607,6100,0,0,0
177.40,-3.20,-42.58,-464,-5605,6108,0,0,-1
177.41,-3.19,-42.58,-474,-5603,6100,0,-1,-1
177.41,-3.19,-42.58,-470,-5594,6106,-1,-1,0
177.41,-3.19,-42.58,-468,-5587,6114,-1,-1,-1
177.40,-3.20,-42.58,-467,-5586,6104,-1,-1,0
177.40,-3.19,-42.58,-466,-5588,6114,-1,-1,-1
177.40,-3.19,-42.58,-461,-5601,6118,-1,-1,0
177.40,-3.18,-42.58,-456,-5603,6114,-1,-1,0
177.40,-3.18,-42.59,-455,-5607,6110,-1,0,-1
177.40,-3.18,-42.60,-452,-5601,6098,-1,-1,0
177.40,-3.18,-42.60,-464,-5608,6107,-1,-1,-1
177.40,-3.18,-42.61,-470,-5613,6103,-1,-1,-1
177.40,-3.18,-42.61,-461,-5609,6103,0,0,-1
177.41,-3.18,-42.61,-460,-5614,6107,0,-1,-1
177.41,-3.18,-42.60,-460,-5606,6113,0,-1,-1
177.41,-3.18,-42.60,-461,-5611,6118,0,0,-1
177.41,-3.17,-42.60,-450,-5604,6115,-1,-1,-1
177.42,-3.17,-42.60,-460,-5603,6113,-1,0,-1
177.42,-3.17,-42.60,-461,-5605,6109,-1,-1,-1
177.42,-3.17,-42.61,-459,-5615,6097,-1,-1,-1
177.42,-3.17,-42.61,-459,-5618,6100,-1,-1,-1
177.42,-3.16,-42.61,-458,-5617,6104,-1,-1,0
177.42,-3.16,-42.61,-459,-5617,6105,-1,-1,0
177.42,-3.16,-42.61,-452,-5614,6112,-1,-1,0
177.42,-3.16,-42.61,-447,-5605,6108,-1,0,0
177.42,-3.16,-42.61,-456,-5600,6108,-1,0,-1
177.42,-3.16,-42.62,-456,-5617,6104,-1,0,-1
177.43,-3.15,-42.63,-455,-5622,6107,-1,0,-1
177.43,-3.15,-42.63,-454,-5613,6101,-1,-1,0
177.43,-3.15,-42.63,-453,-5610,6101,-1,-1,0
177.43,-3.15,-42.64,-450,-5609,6105,-1,0,0
177.43,-3.15,-42.64,-455,-5613,6113,-1,0,0
177.42,-3.16,-42.64,-461,-5614,6116,-1,0,-1
177.43,-3.16,-42.64,-466,-5610,6112,-1,0,-1
177.43,-3.16,-42.64,-471,-5614,6122,-1,-1,-1
177.43,-3.16,-42.64,-471,-5617,6107,-1,-1,-1
177.44,-3.15,-42.64,-460,-5624,6101,0,-1,-1
177.44,-3.15,-42.64,-452,-5619,6108,-1,-1,-1
177.44,-3.15,-42.64,-445,-5612,6105,-1,0,0
177.44,-3.15,-42.64,-445,-5612,6115,-1,0,0
177.44,-3.15,-42.65,-451,-5610,6110,-1,0,0
177.44,-3.15,-42.65,-451,-5613,6107,-1,0,-1
177.45,-3.15,-42.66,-452,-5617,6096,-1,0,-1
177.44,-3.15,-42.67,-463,-5620,6104,-1,0,0
177.44,-3.15,-42.67,-457,-5617,6100,-1,0,-1
177.44,-3.15,-42.67,-457,-5619,6101,-1,0,-1
177.44,-3.15,-42.67,-460,-5621,6102,-1,0,-1
177.45,-3.15,-42.67,-453,-5622,6102,-1,-1,-1
177.45,-3.14,-42.67,-445,-5625,6102,-1,-1,-1
177.45,-3.14,-42.67,-445,-5623,6110,-1,-1,-1
177.45,-3.14,-42.67,-451,-5621,6108,-1,-1,-1
177.45,-3.14,-42.67,-447,-5612,6112,-1,-1,-1
177.46,-3.13,-42.67,-445,-5601,6107,-1,-1,-1
177.46,-3.13,-42.68,-444,-5600,6100,-1,0,0
177.46,-3.13,-42.69,-450,-5603,6098,-1,0,-1
177.46,-3.14,-42.69,-452,-5608,6089,-1,0,-1
177.46,-3.14,-42.70,-464,-5621,6093,-1,0,0
177.46,-3.15,-42.70,-464,-5630,6089,-1,0,-1
177.46,-3.15,-42.71,-472,-5631,6092,-1,0,-1
177.46,-3.15,-42.71,-468,-5624,6090,-1,-1,-1
177.46,-3.14,-42.70,-467,-5624,6095,0,-1,-1
177.46,-3.14,-42.70,-459,-5620,6094,-1,-1,-1
177.46,-3.14,-42.70,-444,-5612,6093,-1,-1,-1
177.47,-3.13,-42.71,-440,-5608,6098,-1,0,0
177.47,-3.13,-42.71,-441,-5606,6096,-1,0,-1
177.47,-3.13,-42.71,-447,-5617,6102,-1,0,0
177.46,-3.14,-42.71,-458,-5620,6100,-1,-1,-1
177.46,-3.14,-42.72,-461,-5623,6094,-1,-1,-1
177.46,-3.14,-42.73,-461,-5623,6085,-1,-1,-1
177.47,-3.13,-42.73,-457,-5621,6093,0,-1,0
177.47,-3.13,-42.72,-459,-5619,6097,-1,-1,0
177.47,-3.13,-42.73,-453,-5614,6098,-1,0,-1
177.47,-3.13,-42.73,-456,-5622,6100,-1,0,-1
177.47,-3.13,-42.73,-457,-5625,6101,-1,-1,-1
177.47,-3.13,-42.73,-450,-5632,6101,-1,-1,-1
177.47,-3.13,-42.73,-445,-5623,6099,0,-1,0
177.47,-3.13,-42.73,-441,-5619,6093,-1,-1,0
177.47,-3.13,-42.73,-445,-5616,6097,-1,0,0
177.47,-3.13,-42.74,-458,-5621,6090,-1,0,-1
177.47,-3.13,-42.74,-462,-5622,6087,-1,-1,-1
177.47,-3.13,-42.74,-465,-5615,6088,-1,-1,-1
177.47,-3.13,-42.74,-458,-5623,6097,-1,-1,-1
177.48,-3.12,-42.74,-451,-5620,6094,0,-1,-1
177.48,-3.12,-42.74,-457,-5625,6099,0,-1,0
177.48,-3.12,-42.74,-450,-5622,6103,0,-1,-1
177.47,-3.12,-42.74,-449,-5619,6101,-1,0,0
177.48,-3.12,-42.74,-446,-5611,6103,-1,0,0
177.48,-3.12,-42.74,-451,-5608,6103,-1,0,0
177.48,-3.12,-42.74,-456,-5614,6097,0,0,-1
177.48,-3.12,-42.74,-456,-5623,6100,-1,-1,-1
177.48,-3.12,-42.75,-456,-5621,6091,-1,-1,-1
177.48,-3.12,-42.74,-462,-5621,6096,-1,-1,-1
177.48,-3.12,-42.74,-457,-5625,6087,0,-1,-1
177.48,-3.11,-42.74,-461,-5634,6101,0,-1,-1
177.48,-3.11,-42.74,-454,-5633,6094,0,-1,-1
177.48,-3.11,-42.73,-453,-5623,6093,0,0,-1
177.48,-3.11,-42.73,-450,-5618,6099,-1,-1,-1
177.49,-3.11,-42.73,-449,-5614,6098,-1,0,-1
177.49,-3.11,-42.73,-447,-5618,6097,-1,0,0
177.49,-3.11,-42.74,-442,-5616,6098,-1,0,-1
177.49,-3.11,-42.75,-447,-5618,6095,-1,0,0
177.49,-3.11,-42.75,-448,-5616,6096,-1,0,0
177.49,-3.11,-42.76,-449,-5622,6097,-1,0,0
177.49,-3.11,-42.76,-452,-5631,6098,-1,0,0
177.49,-3.12,-42.76,-457,-5633,6095,0,0,0
177.49,-3.12,-42.76,-455,-5628,6096,0,0,-1
177.49,-3.12,-42.76,-457,-5622,6096,0,0,0
177.49,-3.12,-42.75,-451,-5623,6094,0,0,0
177.49,-3.12,-42.75,-451,-5624,6098,0,0,0
177.48,-3.13,-42.75,-459,-5618,6103,-1,0,0
177.48,-3.13,-42.74,-468,-5618,6107,0,0,0
177.48,-3.14,-42.74,-468,-5623,6095,0,0,0
177.48,-3.14,-42.74,-463,-5618,6089,0,0,0
177.48,-3.14,-42.74,-456,-5621,6095,0,0,0
177.48,-3.14,-42.73,-454,-5612,6109,0,0,0
177.48,-3.14,-42.73,-451,-5613,6105,-1,0,0
177.48,-3.14,-42.73,-457,-5625,6102,-1,0,-1
177.48,-3.14,-42.73,-460,-5635,6087,0,-1,-1
177.48,-3.14,-42.73,-448,-5620,6087,0,-1,0
177.48,-3.14,-42.73,-447,-5609,6086,0,-1,0
177.48,-3.14,-42.72,-450,-5607,6087,0,0,0
177.47,-3.15,-42.72,-462,-5621,6101,-1,0,0
177.47,-3.15,-42.72,-469,-5625,6097,0,0,-1
177.47,-3.16,-42.72,-474,-5628,6098,0,0,0
177.47,-3.16,-42.72,-477,-5631,6090,0,-1,-1
177.48,-3.15,-42.72,-466,-5635,6084,0,-1,-1
177.48,-3.15,-42.71,-453,-5636,6091,0,-1,-1
177.48,-3.14,-42.70,-440,-5619,6098,0,-1,0
177.48,-3.14,-42.70,-437,-5607,6103,0,-1,0
177.48,-3.14,-42.69,-441,-5603,6105,0,0,0
177.48,-3.14,-42.69,-445,-5601,6104,-1,0,0
177.48,-3.15,-42.69,-459,-5606,6112,-1,0,0
177.48,-3.15,-42.69,-466,-5620,6097,-1,0,0
177.47,-3.16,-42.70,-467,-5622,6087,0,0,0
177.47,-3.16,-42.69,-465,-5630,6093,0,-1,0
177.47,-3.16,-42.69,-455,-5629,6094,0,0,0
177.47,-3.16,-42.69,-453,-5623,6091,0,0,0
177.46,-3.17,-42.68,-461,-5622,6085,0,-1,0
177.47,-3.16,-42.68,-467,-5627,6093,0,-1,0
177.47,-3.16,-42.67,-452,-5623,6095,0,-1,-1
177.47,-3.16,-42.67,-449,-5612,6107,0,0,-1
177.47,-3.16,-42.67,-455,-5605,6107,-1,-1,0
177.47,-3.16,-42.67,-450,-5609,6103,-1,0,0
177.47,-3.16,-42.67,-448,-5611,6100,-1,0,0
177.46,-3.17,-42.67,-455,-5617,6099,-1,0,0
177.46,-3.17,-42.68,-453,-5620,6095,-1,0,0
177.46,-3.17,-42.67,-459,-5620,6098,0,0,0
177.46,-3.17,-42.67,-459,-5627,6101,0,0,0
177.46,-3.17,-42.67,-471,-5624,6107,-1,-1,0
177.46,-3.17,-42.67,-473,-5624,6100,0,0,-1
177.46,-3.17,-42.67,-466,-5624,6106,0,-1,0
177.46,-3.17,-42.66,-459,-5622,6101,0,0,-1
177.47,-3.17,-42.65,-450,-5610,6101,0,0,0
177.46,-3.17,-42.65,-457,-5603,6110,0,0,0
177.46,-3.17,-42.65,-463,-5603,6116,-1,0,0
177.46,-3.17,-42.65,-463,-5601,6119,-1,0,0
177.45,-3.18,-42.65,-465,-5607,6114,-1,0,-1
177.45,-3.19,-42.65,-471,-5619,6107,-1,-1,0
177.45,-3.19,-42.65,-471,-5619,6098,0,0,0
177.45,-3.18,-42.65,-461,-5622,6098,0,-1,0
177.45,-3.18,-42.64,-453,-5610,6096,0,-1,0
177.45,-3.18,-42.64,-460,-5611,6089,0,0,0
177.45,-3.18,-42.63,-464,-5610,6094,0,0,0
177.44,-3.19,-42.63,-468,-5603,6109,0,0,-1
177.44,-3.19,-42.63,-470,-5606,6112,-1,0,-1
177.44,-3.19,-42.63,-465,-5614,6103,-1,-1,0
177.45,-3.18,-42.63,-471,-5615,6102,-1,-1,-1
177.45,-3.18,-42.63,-464,-5612,6107,-1,0,0
177.45,-3.18,-42.63,-449,-5615,6114,0,-1,0
177.45,-3.18,-42.63,-440,-5611,6108,0,0,0
177.45,-3.18,-42.62,-452,-5611,6117,-1,-1,0
177.45,-3.18,-42.62,-463,-5608,6111,-1,0,0
177.44,-3.19,-42.63,-479,-5607,6094,-1,0,0
177.44,-3.20,-42.63,-482,-5606,6091,0,0,0
177.44,-3.20,-42.63,-476,-5609,6092,0,-1,0
177.44,-3.20,-42.62,-471,-5612,6096,0,0,0
177.44,-3.20,-42.62,-471,-5605,6097,0,0,0
177.44,-3.20,-42.61,-474,-5612,6102,0,-1,0
177.43,-3.20,-42.61,-470,-5614,6106,0,0,0
177.43,-3.20,-42.61,-464,-5611,6105,0,0,0
177.43,-3.20,-42.60,-472,-5607,6105,-1,-1,0
177.43,-3.20,-42.60,-466,-5606,6106,0,0,0
177.43,-3.21,-42.60,-463,-5601,6106,0,0,0
177.42,-3.21,-42.60,-456,-5603,6099,-1,0,0
177.42,-3.21,-42.60,-462,-5600,6104,-1,-1,0
177.42,-3.21,-42.60,-458,-5603,6104,0,0,0
177.43,-3.21,-42.60,-462,-5604,6110,-1,0,-1
177.42,-3.21,-42.60,-468,-5607,6105,0,0,-1
177.42,-3.21,-42.60,-469,-5610,6113,0,-1,-1
177.43,-3.21,-42.60,-473,-5607,6110,-1,-1,-1
177.43,-3.21,-42.60,-465,-5601,6109,-1,0,-1
177.43,-3.21,-42.60,-463,-5602,6104,-1,-1,-1
177.43,-3.21,-42.60,-462,-5600,6100,-1,0,-1
177.43,-3.21,-42.60,-466,-5610,6113,0,0,-1
177.43,-3.20,-42.60,-466,-5613,6109,-1,-1,-1
177.43,-3.20,-42.60,-470,-5601,6106,0,-1,0
177.43,-3.20,-42.60,-467,-5596,6103,-1,-1,0
177.43,-3.20,-42.61,-459,-5597,6104,-1,-1,0
177.43,-3.20,-42.61,-458,-5605,6102,-1,0,-1
177.43,-3.19,-42.61,-455,-5612,6106,-1,-1,-1
177.43,-3.19,-42.61,-464,-5603,6112,-1,-1,-1
177.43,-3.18,-42.61,-461,-5605,6100,-1,-1,0
177.43,-3.18,-42.61,-458,-5604,6100,-1,-1,0
177.43,-3.18,-42.61,-460,-5607,6114,-1,0,-1
177.43,-3.18,-42.62,-465,-5608,6104,-1,-1,-1
177.43,-3.18,-42.61,-465,-5607,6110,0,0,-1
177.44,-3.18,-42.62,-464,-5614,6113,-1,-1,-1
177.44,-3.18,-42.62,-463,-5615,6107,0,-1,-1
177.44,-3.18,-42.62,-470,-5613,6105,0,-1,-1
177.44,-3.17,-42.62,-459,-5617,6100,-1,-1,-1
177.44,-3.17,-42.62,-455,-5616,6103,-1,-1,-1
177.44,-3.16,-42.62,-447,-5605,6110,-1,0,-1
177.45,-3.16,-42.63,-449,-5602,6104,-1,0,-1
177.45,-3.17,-42.63,-453,-5608,6098,-1,0,-1
177.45,-3.17,-42.64,-455,-5607,6094,-1,0,-1
177.45,-3.17,-42.64,-461,-5617,6101,-1,0,-1
177.45,-3.17,-42.65,-457,-5611,6097,-1,-1,-1
177.45,-3.16,-42.65,-462,-5604,6102,-1,-1,-1
177.45,-3.16,-42.65,-456,-5615,6094,0,0,-1
177.45,-3.16,-42.65,-458,-5608,6087,0,0,-1
177.45,-3.16,-42.64,-462,-5609,6107,0,-1,-1
177.46,-3.16,-42.64,-461,-5609,6107,-1,0,-1
177.46,-3.16,-42.65,-462,-5613,6096,-1,-1,-1
177.46,-3.15,-42.65,-463,-5607,6101,-1,-1,-1
177.46,-3.15,-42.65,-461,-5614,6102,-1,-1,-1
177.47,-3.15,-42.65,-457,-5616,6097,-1,-1,-1
177.47,-3.15,-42.66,-447,-5607,6095,-1,0,0
177.47,-3.15,-42.66,-449,-5605,6099,-1,0,-1
177.47,-3.15,-42.66,-450,-5608,6082,-1,0,0
177.47,-3.15,-42.67,-463,-5617,6094,-1,0,-1
177.47,-3.15,-42.67,-462,-5617,6099,-1,-1,-1
177.47,-3.15,-42.67,-465,-5622,6089,-1,-1,-1
177.47,-3.15,-42.67,-462,-5624,6090,0,0,0
177.47,-3.15,-42.67,-463,-5617,6092,-1,0,-1
177.47,-3.15,-42.67,-459,-5616,6103,-1,0,-1
177.48,-3.14,-42.67,-454,-5609,6111,-1,-1,0
177.48,-3.14,-42.67,-452,-5610,6106,-1,0,-1
177.48,-3.14,-42.67,-462,-5612,6107,-1,0,-1
177.48,-3.14,-42.68,-466,-5615,6109,-1,0,0
177.48,-3.14,-42.68,-461,-5621,6098,-1,0,-1
177.48,-3.14,-42.69,-459,-5624,6091,-1,-1,-1
177.48,-3.14,-42.69,-466,-5615,6097,-1,-1,0
177.48,-3.14,-42.69,-463,-5616,6102,-1,0,0
177.48,-3.14,-42.70,-456,-5621,6104,-1,0,-1
177.49,-3.14,-42.70,-453,-5630,6102,-1,-1,-1
177.49,-3.14,-42.70,-455,-5622,6106,0,-1,-1
177.49,-3.13,-42.69,-455,-5606,6103,-1,-1,0
177.48,-3.14,-42.69,-449,-5607,6101,-1,0,0
177.48,-3.14,-42.70,-460,-5617,6098,-1,0,0
177.48,-3.14,-42.70,-462,-5618,6098,-1,0,0
177.48,-3.14,-42.70,-460,-5611,6101,-1,0,-1
177.48,-3.15,-42.70,-474,-5608,6104,-1,0,-1
177.48,-3.15,-42.71,-474,-5617,6104,-1,-1,-1
177.48,-3.14,-42.71,-467,-5628,6103,-1,-1,-1
177.48,-3.14,-42.72,-452,-5633,6094,-1,-1,0
177.48,-3.14,-42.72,-445,-5631,6092,-1,0,0
177.48,-3.14,-42.72,-439,-5619,6091,0,0,0
177.48,-3.14,-42.72,-448,-5616,6106,-1,-1,0
177.48,-3.14,-42.72,-455,-5618,6103,-1,0,-1
177.48,-3.14,-42.73,-458,-5628,6096,-1,0,-1
177.48,-3.14,-42.73,-464,-5628,6085,-1,-1,0
177.48,-3.14,-42.73,-461,-5635,6085,-1,-1,-1
177.48,-3.14,-42.73,-455,-5638,6080,-1,-1,-1
177.48,-3.14,-42.73,-449,-5632,6086,0,0,-1
177.49,-3.13,-42.73,-457,-5628,6093,0,0,0
177.49,-3.13,-42.73,-461,-5627,6094,0,0,-1
177.49,-3.13,-42.73,-456,-5617,6099,-1,-1,-1
177.49,-3.13,-42.73,-458,-5618,6097,0,-1,-1
177.49,-3.13,-42.73,-458,-5624,6104,-1,-1,-1
177.49,-3.12,-42.73,-447,-5625,6101,0,0,-1
177.49,-3.12,-42.73,-449,-5619,6096,-1,0,0
177.49,-3.12,-42.73,-457,-5625,6099,-1,0,0
177.49,-3.13,-42.73,-461,-5627,6099,-1,0,-1
177.49,-3.13,-42.74,-458,-5636,6088,-1,0,-1
177.49,-3.13,-42.74,-451,-5634,6086,-1,0,0
177.49,-3.13,-42.74,-450,-5637,6086,-1,0,-1
177.49,-3.13,-42.75,-453,-5625,6085,-1,0,-1
177.50,-3.13,-42.75,-455,-5619,6092,-1,0,-1
177.50,-3.13,-42.74,-449,-5618,6105,-1,0,-1
177.50,-3.13,-42.75,-446,-5623,6100,-1,0,-1
177.50,-3.12,-42.75,-449,-5620,6098,-1,0,-1
177.50,-3.13,-42.76,-454,-5624,6100,-1,0,-1
177.50,-3.13,-42.76,-460,-5626,6086,-1,0,-1
177.50,-3.13,-42.77,-456,-5627,6083,-1,0,-1
177.50,-3.13,-42.77,-464,-5630,6098,-1,0,-1
177.50,-3.14,-42.77,-461,-5628,6091,-1,0,-1
177.50,-3.14,-42.77,-461,-5638,6085,0,0,-1
177.50,-3.14,-42.77,-462,-5624,6078,-1,0,0
177.50,-3.14,-42.78,-461,-5627,6081,-1,0,-1
177.50,-3.14,-42.79,-454,-5630,6080,-1,0,-1
177.51,-3.14,-42.79,-458,-5639,6080,0,0,-1
177.51,-3.15,-42.79,-454,-5631,6090,0,0,0
177.51,-3.14,-42.79,-440,-5630,6099,-1,-1,0
177.51,-3.15,-42.79,-453,-5627,6095,-1,0,0
177.51,-3.15,-42.78,-461,-5633,6090,0,0,0
177.50,-3.16,-42.78,-465,-5631,6095,0,0,0
177.50,-3.16,-42.77,-464,-5633,6101,0,0,0
177.50,-3.16,-42.77,-466,-5633,6102,-1,-1,-1
177.50,-3.16,-42.77,-467,-5632,6101,-1,-1,0
177.50,-3.16,-42.77,-454,-5630,6100,0,-1,-1
177.50,-3.16,-42.77,-449,-5626,6095,-1,0,0
177.50,-3.16,-42.77,-448,-5632,6096,0,0,0
177.50,-3.16,-42.77,-451,-5632,6099,-1,0,0
177.50,-3.16,-42.77,-457,-5644,6096,-1,0,0
177.49,-3.17,-42.77,-470,-5635,6088,-1,-1,0
177.49,-3.17,-42.77,-469,-5636,6085,0,-1,0
177.49,-3.16,-42.77,-468,-5632,6090,0,-1,0
177.49,-3.16,-42.76,-463,-5623,6088,0,-1,0
177.49,-3.16,-42.76,-461,-5624,6086,0,0,0
177.49,-3.16,-42.75,-464,-5627,6094,0,0,0
177.49,-3.16,-42.74,-468,-5630,6106,0,0,0
177.49,-3.16,-42.74,-466,-5628,6107,0,0,-1
177.49,-3.16,-42.74,-466,-5625,6096,0,-1,-1
177.49,-3.16,-42.74,-462,-5618,6091,0,-1,-1
177.49,-3.16,-42.73,-455,-5622,6091,0,-1,0
177.50,-3.15,-42.72,-444,-5623,6099,0,-1,-1
177.50,-3.15,-42.72,-443,-5617,6111,0,0,0
177.50,-3.15,-42.71,-448,-5609,6099,0,0,0
177.49,-3.16,-42.71,-451,-5607,6090,0,0,-1
177.49,-3.16,-42.71,-463,-5614,6088,0,-1,0
177.49,-3.16,-42.71,-463,-5619,6083,0,0,-1
177.49,-3.16,-42.71,-467,-5618,6087,0,-1,-1
177.49,-3.16,-42.70,-460,-5619,6089,0,-1,0
177.49,-3.16,-42.69,-458,-5621,6100,0,-1,0
177.49,-3.16,-42.68,-454,-5616,6098,0,-1,-1
177.49,-3.16,-42.68,-452,-5610,6095,0,-1,0
177.49,-3.15,-42.68,-451,-5616,6099,0,-1,-1
177.49,-3.15,-42.67,-454,-5612,6108,0,-1,0
177.49,-3.15,-42.67,-460,-5611,6111,0,0,0
177.48,-3.16,-42.67,-461,-5618,6105,-1,0,0
177.48,-3.16,-42.68,-471,-5622,6096,-1,0,-1
177.48,-3.16,-42.68,-462,-5627,6095,0,-1,0
177.48,-3.16,-42.67,-458,-5620,6097,0,-1,0
177.49,-3.15,-42.66,-456,-5613,6091,0,-1,0
177.48,-3.15,-42.65,-458,-5602,6092,0,0,0
177.48,-3.16,-42.65,-457,-5608,6094,-1,0,0
177.48,-3.16,-42.65,-461,-5612,6099,0,0,0
177.48,-3.17,-42.65,-473,-5612,6104,0,0,0
177.48,-3.17,-42.65,-471,-5620,6096,0,-1,-1
177.48,-3.17,-42.65,-470,-5621,6103,0,-1,-1
177.48,-3.17,-42.64,-466,-5618,6105,0,-1,-1
177.48,-3.16,-42.64,-452,-5615,6108,0,-1,0
177.48,-3.16,-42.64,-445,-5615,6100,0,0,0
177.48,-3.16,-42.63,-454,-5616,6111,0,0,0
177.47,-3.17,-42.62,-462,-5611,6120,0,0,0
177.47,-3.17,-42.62,-469,-5605,6116,-1,0,0
177.47,-3.18,-42.62,-468,-5612,6108,0,0,0
177.47,-3.18,-42.62,-468,-5614,6099,-1,0,0
177.47,-3.18,-42.62,-453,-5620,6099,0,0,0
177.47,-3.18,-42.62,-459,-5622,6106,0,0,0
177.47,-3.18,-42.62,-463,-5623,6103,0,-1,0
177.47,-3.18,-42.62,-473,-5619,6104,0,0,0
177.46,-3.18,-42.61,-471,-5615,6113,0,-1,-1
177.46,-3.18,-42.60,-461,-5610,6127,0,-1,0
177.46,-3.17,-42.59,-456,-5605,6123,0,-1,0
177.46,-3.17,-42.59,-451,-5601,6123,0,-1,0
177.46,-3.17,-42.59,-443,-5599,6109,-1,0,0
177.46,-3.17,-42.59,-440,-5598,6110,-1,0,0
177.45,-3.18,-42.59,-453,-5601,6112,-1,0,0
177.45,-3.18,-42.60,-455,-5620,6102,0,0,0
177.45,-3.19,-42.60,-464,-5620,6090,0,0,-1
177.45,-3.19,-42.59,-475,-5626,6102,0,-1,0
177.45,-3.19,-42.58,-475,-5611,6112,0,-1,-1
177.45,-3.18,-42.58,-462,-5609,6110,0,-1,0
177.46,-3.18,-42.57,-453,-5605,6115,0,-1,0
177.46,-3.17,-42.56,-445,-5597,6117,0,0,0
177.46,-3.17,-42.56,-448,-5592,6114,0,0,0
177.45,-3.18,-42.55,-456,-5590,6118,-1,0,0
177.45,-3.18,-42.56,-469,-5604,6114,-1,0,0
177.46,-3.18,-42.57,-464,-5611,6104,-1,-1,-1
177.46,-3.18,-42.57,-468,-5608,6097,0,-1,-1
177.45,-3.18,-42.56,-461,-5601,6098,0,-1,0
177.45,-3.18,-42.56,-454,-5594,6092,0,-1,0
177.45,-3.18,-42.56,-464,-5601,6103,0,-1,0
177.45,-3.18,-42.56,-471,-5604,6109,0,0,0
177.45,-3.18,-42.55,-470,-5604,6114,-1,0,0
177.45,-3.18,-42.55,-468,-5600,6120,-1,-1,-1
177.45,-3.18,-42.56,-471,-5605,6112,-1,-1,-1
177.46,-3.17,-42.56,-458,-5599,6106,-1,-1,-1
177.46,-3.16,-42.56,-452,-5599,6096,-1,-1,-1
177.46,-3.16,-42.57,-455,-5598,6089,-1,-1,-1
177.47,-3.15,-42.57,-453,-5598,6095,-1,-1,-1
177.47,-3.15,-42.57,-453,-5592,6107,-1,0,0
177.47,-3.15,-42.57,-451,-5598,6110,-1,-1,0
177.47,-3.15,-42.58,-458,-5605,6109,-1,0,-1
177.47,-3.15,-42.58,-471,-5605,6108,-1,0,-1
177.46,-3.15,-42.58,-465,-5604,6098,-1,-1,-1
177.46,-3.15,-42.58,-465,-5606,6086,-1,-1,-1
177.46,-3.15,-42.58,-461,-5607,6100,0,-1,-1
177.46,-3.15,-42.58,-472,-5603,6113,-1,-1,-1
177.46,-3.15,-42.58,-459,-5605,6107,-1,-1,0
177.47,-3.15,-42.59,-460,-5600,6106,-1,-1,0
177.46,-3.15,-42.59,-452,-5602,6109,-1,0,-1
177.46,-3.15,-42.59,-452,-5606,6110,-1,0,-1
177.47,-3.15,-42.59,-451,-5604,6110,-1,-1,-1
177.47,-3.15,-42.60,-453,-5610,6110,-1,0,-1
177.47,-3.15,-42.61,-458,-5611,6100,-1,0,0
177.47,-3.15,-42.61,-455,-5616,6098,-1,0,0
177.47,-3.15,-42.61,-459,-5620,6095,-1,0,-1
177.48,-3.15,-42.62,-462,-5623,6101,0,0,-1
177.48,-3.15,-42.62,-453,-5623,6088,-1,0,-1
177.48,-3.15,-42.62,-459,-5615,6092,-1,0,0
177.47,-3.16,-42.62,-469,-5606,6112,-1,0,0
177.47,-3.16,-42.62,-466,-5609,6110,-1,0,-1
177.48,-3.16,-42.63,-462,-5609,6105,-1,0,-1
177.48,-3.16,-42.64,-461,-5605,6105,-1,0,-1
177.48,-3.16,-42.64,-456,-5609,6101,-1,0,0
177.48,-3.16,-42.65,-462,-5614,6100,-1,0,0
177.48,-3.16,-42.65,-460,-5621,6095,-1,0,0
177.48,-3.17,-42.66,-466,-5617,6097,0,0,-1
177.48,-3.17,-42.65,-464,-5603,6103,-1,-1,-1
177.48,-3.16,-42.65,-460,-5602,6099,-1,-1,0
177.48,-3.16,-42.65,-455,-5605,6101,-1,-1,0
177.48,-3.16,-42.66,-452,-5618,6099,-1,0,-1
177.48,-3.16,-42.66,-452,-5615,6101,-1,0,-1
177.48,-3.16,-42.66,-466,-5611,6110,-1,0,-1
177.48,-3.16,-42.66,-469,-5610,6095,-1,-1,-1
177.48,-3.16,-42.67,-468,-5614,6093,-1,-1,-1
177.49,-3.16,-42.67,-460,-5622,6096,0,-1,-1
177.49,-3.16,-42.67,-457,-5618,6104,-1,-1,-1
177.49,-3.15,-42.67,-452,-5613,6107,-1,-1,0
177.49,-3.15,-42.67,-448,-5612,6116,-1,-1,-1
177.50,-3.14,-42.67,-448,-5607,6116,-1,-1,0
177.49,-3.15,-42.68,-451,-5606,6104,-1,0,0
177.49,-3.15,-42.68,-456,-5622,6093,-1,0,-1
177.49,-3.15,-42.68,-463,-5627,6094,-1,0,-1
177.49,-3.15,-42.69,-469,-5628,6092,-1,-1,-1
177.49,-3.15,-42.69,-470,-5636,6089,0,-1,-1
177.49,-3.15,-42.69,-472,-5627,6080,0,-1,-1
177.49,-3.15,-42.69,-461,-5620,6082,0,-1,-1
177.50,-3.14,-42.69,-451,-5617,6092,0,0,-1
177.50,-3.14,-42.68,-457,-5613,6100,-1,-1,-1
177.50,-3.14,-42.69,-456,-5619,6092,-1,-1,0
177.50,-3.14,-42.70,-449,-5618,6097,-1,0,0
177.50,-3.14,-42.70,-446,-5613,6101,-1,0,-1
177.50,-3.15,-42.71,-458,-5616,6095,-1,0,-1
177.50,-3.14,-42.72,-455,-5620,6094,-1,-1,0
177.50,-3.14,-42.73,-455,-5624,6089,-1,0,0
177.50,-3.14,-42.73,-452,-5629,6083,-1,0,-1
177.50,-3.15,-42.73,-454,-5625,6082,0,0,0
177.50,-3.15,-42.73,-462,-5623,6091,0,0,-1
177.50,-3.15,-42.73,-466,-5622,6104,-1,-1,0
177.50,-3.15,-42.73,-470,-5627,6100,-1,0,-1
177.50,-3.15,-42.73,-457,-5632,6087,-1,0,-1
177.50,-3.15,-42.74,-454,-5627,6092,-1,0,0
177.50,-3.15,-42.74,-456,-5624,6099,-1,0,0
177.50,-3.15,-42.74,-460,-5622,6095,-1,-1,0
177.50,-3.15,-42.74,-460,-5624,6092,-1,0,0
177.50,-3.15,-42.74,-462,-5621,6094,-1,-1,-1
177.50,-3.15,-42.74,-467,-5627,6091,-1,-1,-1
177.50,-3.15,-42.75,-462,-5631,6094,-1,-1,-1
177.50,-3.15,-42.74,-463,-5626,6104,-1,-1,-1
177.50,-3.15,-42.74,-470,-5631,6099,-1,-1,0
177.50,-3.15,-42.75,-471,-5630,6088,-1,-1,-1
177.50,-3.15,-42.75,-465,-5629,6081,-1,-1,-1
177.50,-3.15,-42.75,-466,-5622,6092,-1,-1,-1
177.50,-3.15,-42.75,-463,-5627,6087,0,0,-1
177.50,-3.15,-42.74,-465,-5626,6100,-1,-1,0
177.50,-3.14,-42.75,-464,-5627,6099,-1,-1,-1
177.50,-3.15,-42.76,-469,-5630,6087,-1,0,-1
177.50,-3.15,-42.76,-469,-5635,6084,0,-1,-1
177.50,-3.14,-42.76,-466,-5628,6083,0,-1,-1
177.50,-3.13,-42.75,-450,-5620,6090,0,-1,-1
177.51,-3.13,-42.74,-448,-5615,6089,-1,-1,-1
177.51,-3.13,-42.74,-444,-5619,6091,-1,0,0
177.50,-3.13,-42.74,-452,-5616,6087,-1,0,-1
177.51,-3.13,-42.74,-455,-5615,6096,-1,0,-1
177.51,-3.14,-42.75,-472,-5623,6094,-1,-1,-1
177.51,-3.13,-42.75,-464,-5627,6086,-1,-1,-1
177.52,-3.12,-42.75,-456,-5630,6083,0,-1,-1
177.52,-3.12,-42.75,-448,-5624,6092,0,-1,0
177.52,-3.12,-42.75,-436,-5624,6096,0,0,0
177.52,-3.12,-42.74,-439,-5613,6100,-1,0,0
177.52,-3.12,-42.75,-443,-5611,6094,-1,0,0
177.52,-3.12,-42.76,-445,-5608,6086,-1,0,0
177.52,-3.12,-42.76,-453,-5621,6084,-1,0,0
177.52,-3.13,-42.77,-461,-5633,6081,-1,0,-1
177.52,-3.13,-42.77,-461,-5642,6081,-1,-1,-1
177.52,-3.13,-42.77,-465,-5638,6084,0,-1,-1
177.52,-3.13,-42.77,-463,-5633,6085,0,-1,-1
177.52,-3.13,-42.77,-461,-5631,6086,0,0,0
177.52,-3.13,-42.76,-457,-5621,6092,0,0,0
177.52,-3.13,-42.76,-448,-5624,6102,0,0,-1
177.52,-3.13,-42.76,-449,-5617,6100,-1,0,0
177.51,-3.13,-42.76,-455,-5620,6097,-1,0,0
177.51,-3.13,-42.76,-454,-5628,6088,-1,0,0
177.51,-3.13,-42.77,-447,-5623,6083,-1,0,0
177.51,-3.14,-42.77,-453,-5628,6084,-1,0,0
177.51,-3.14,-42.77,-458,-5639,6085,0,0,0
177.51,-3.15,-42.77,-470,-5636,6077,0,0,-1
177.50,-3.15,-42.77,-467,-5639,6072,0,-1,0
177.51,-3.15,-42.76,-469,-5634,6076,0,-1,-1
177.50,-3.15,-42.75,-469,-5625,6077,0,-1,-1
177.51,-3.14,-42.74,-461,-5618,6090,0,-1,0
177.51,-3.14,-42.74,-457,-5616,6093,0,-1,-1
177.51,-3.14,-42.74,-448,-5614,6091,0,0,0
177.51,-3.14,-42.74,-454,-5614,6092,-1,0,0
177.51,-3.14,-42.73,-453,-5616,6094,0,0,0
177.51,-3.14,-42.74,-454,-5621,6098,-1,-1,0
177.50,-3.15,-42.74,-459,-5633,6097,0,0,-1
177.50,-3.15,-42.73,-463,-5633,6100,0,-1,0
177.51,-3.14,-42.73,-461,-5629,6110,0,-1,0
177.51,-3.14,-42.72,-451,-5632,6096,0,-1,0
177.50,-3.15,-42.72,-456,-5631,6104,0,-1,0
177.50,-3.15,-42.71,-458,-5629,6106,0,-1,-1
177.50,-3.15,-42.71,-457,-5623,6108,0,0,0
177.50,-3.15,-42.70,-460,-5615,6110,0,0,0
177.50,-3.15,-42.70,-460,-5612,6108,-1,0,0
177.49,-3.16,-42.70,-466,-5625,6097,-1,0,-1
177.50,-3.15,-42.71,-460,-5628,6091,0,-1,-1
177.50,-3.15,-42.70,-455,-5619,6092,0,-1,-1
177.50,-3.15,-42.70,-454,-5615,6089,0,-1,0
177.50,-3.15,-42.69,-448,-5615,6092,0,0,0
177.50,-3.15,-42.69,-454,-5613,6096,0,0,0
177.50,-3.15,-42.68,-450,-5615,6101,0,0,0
177.49,-3.16,-42.68,-469,-5619,6116,-1,0,-1
177.49,-3.16,-42.68,-468,-5621,6105,-1,-1,-1
177.49,-3.16,-42.68,-479,-5622,6091,0,-1,-1
177.50,-3.15,-42.68,-467,-5628,6079,0,-1,-1
177.50,-3.15,-42.68,-458,-5624,6081,0,-1,0
177.50,-3.15,-42.66,-448,-5612,6092,0,-1,0
177.50,-3.15,-42.66,-446,-5609,6106,0,0,0
177.50,-3.14,-42.65,-441,-5607,6113,-1,-1,0
177.49,-3.15,-42.66,-451,-5603,6111,-1,0,0
177.49,-3.16,-42.66,-459,-5617,6101,-1,0,-1
177.49,-3.16,-42.66,-459,-5621,6099,-1,0,-1
177.49,-3.16,-42.67,-458,-5623,6103,-1,0,0
177.49,-3.16,-42.67,-469,-5635,6094,0,-1,0
177.49,-3.16,-42.67,-470,-5628,6083,0,0,0
177.48,-3.16,-42.66,-469,-5633,6087,0,-1,0
177.48,-3.16,-42.65,-462,-5624,6099,0,-1,0
177.48,-3.16,-42.64,-462,-5617,6103,0,-1,-1
177.49,-3.16,-42.63,-454,-5603,6111,0,-1,0
177.49,-3.16,-42.63,-457,-5602,6104,0,-1,0
177.49,-3.16,-42.63,-457,-5606,6100,-1,-1,0
177.48,-3.16,-42.63,-452,-5609,6098,-1,0,0
177.48,-3.16,-42.63,-453,-5609,6088,-1,0,0
177.48,-3.17,-42.63,-463,-5613,6093,-1,0,0
177.47,-3.17,-42.63,-465,-5621,6093,0,0,0
177.47,-3.17,-42.63,-468,-5624,6107,0,0,0
177.47,-3.18,-42.63,-476,-5621,6101,0,0,-1
177.47,-3.18,-42.62,-473,-5611,6101,0,-1,-1
177.47,-3.17,-42.62,-471,-5607,6101,0,-1,0
177.47,-3.17,-42.62,-465,-5603,6097,0,-1,0
177.47,-3.16,-42.61,-456,-5599,6105,0,0,0
177.47,-3.16,-42.60,-453,-5602,6108,-1,-1,0
177.46,-3.17,-42.60,-465,-5602,6116,-1,0,0
177.46,-3.17,-42.60,-465,-5605,6110,-1,0,0
177.46,-3.17,-42.60,-471,-5609,6106,-1,0,0
177.45,-3.18,-42.60,-466,-5604,6103,-1,0,0
177.45,-3.18,-42.60,-468,-5607,6101,-1,0,0
177.45,-3.18,-42.61,-460,-5611,6109,-1,-1,0
177.45,-3.18,-42.60,-461,-5610,6105,0,0,0
177.45,-3.19,-42.60,-471,-5603,6106,0,0,0
177.44,-3.19,-42.59,-467,-5609,6118,-1,0,0
177.44,-3.20,-42.59,-477,-5612,6120,-1,0,-1
177.44,-3.20,-42.59,-473,-5611,6112,0,-1,-1
177.45,-3.19,-42.59,-459,-5610,6102,0,-1,-1
177.45,-3.19,-42.58,-449,-5591,6112,0,-1,0
177.44,-3.19,-42.58,-451,-5598,6111,0,0,0
177.44,-3.19,-42.58,-449,-5599,6118,0,0,0
177.44,-3.20,-42.58,-466,-5612,6124,0,0,0
177.44,-3.20,-42.58,-486,-5622,6120,-1,0,-1
177.44,-3.20,-42.58,-485,-5616,6118,0,-1,-1
177.44,-3.20,-42.58,-478,-5619,6111,0,-1,-1
177.45,-3.19,-42.58,-473,-5620,6102,0,-1,-1
177.45,-3.18,-42.57,-459,-5612,6101,0,-1,-1
177.45,-3.18,-42.57,-450,-5607,6105,0,-1,0
177.45,-3.18,-42.57,-454,-5602,6116,-1,0,0
177.45,-3.18,-42.57,-456,-5597,6115,-1,-1,0
177.45,-3.18,-42.58,-466,-5593,6116,-1,0,-1
177.45,-3.18,-42.58,-465,-5599,6107,-1,0,0
177.45,-3.18,-42.59,-469,-5610,6101,-1,0,0
177.45,-3.18,-42.59,-469,-5612,6101,-1,-1,0
177.45,-3.18,-42.60,-466,-5612,6098,-1,-1,-1
177.45,-3.18,-42.59,-464,-5609,6110,0,-1,0
177.45,-3.18,-42.59,-462,-5610,6109,0,-1,-1
177.45,-3.18,-42.59,-467,-5608,6112,-1,-1,-1
177.45,-3.18,-42.59,-466,-5609,6105,0,-1,-1
177.45,-3.18,-42.59,-466,-5611,6104,-1,-1,-1
177.45,-3.17,-42.59,-456,-5600,6117,-1,-1,-1
177.46,-3.17,-42.59,-446,-5596,6108,-1,0,-1
177.46,-3.16,-42.60,-444,-5598,6103,-1,0,0
177.46,-3.16,-42.60,-451,-5611,6106,-1,0,-1
177.46,-3.17,-42.61,-458,-5613,6107,-1,0,-1
177.46,-3.17,-42.61,-461,-5619,6104,-1,0,0
177.46,-3.17,-42.62,-466,-5619,6095,-1,0,-1
177.46,-3.17,-42.63,-466,-5629,6091,0,0,-1
177.46,-3.17,-42.62,-465,-5636,6099,0,-1,-1
177.46,-3.17,-42.62,-465,-5625,6100,-1,-1,-1
177.46,-3.17,-42.63,-471,-5624,6102,-1,-1,-1
177.47,-3.17,-42.63,-466,-5624,6103,-1,-1,-1
177.47,-3.17,-42.63,-460,-5619,6109,-1,-1,-1
177.47,-3.16,-42.64,-457,-5616,6105,-1,0,-1
177.47,-3.16,-42.64,-451,-5605,6104,-1,0,-1
177.47,-3.16,-42.64,-451,-5608,6106,-1,0,0
177.47,-3.16,-42.64,-451,-5604,6106,-1,0,0
177.47,-3.16,-42.64,-450,-5608,6112,-1,0,0
177.47,-3.16,-42.65,-458,-5616,6113,-1,0,-1
177.48,-3.16,-42.65,-464,-5623,6105,-1,0,-1
177.48,-3.16,-42.65,-462,-5623,6096,0,-1,-1
177.48,-3.16,-42.65,-450,-5610,6098,-1,-1,0
177.48,-3.15,-42.65,-444,-5609,6087,-1,0,0
177.48,-3.16,-42.66,-444,-5609,6087,-1,0,0
177.48,-3.17,-42.66,-451,-5602,6092,-1,0,0
177.48,-3.16,-42.66,-461,-5607,6104,-1,0,-1
177.48,-3.17,-42.67,-464,-5618,6102,-1,0,-1
177.48,-3.17,-42.68,-466,-5627,6099,-1,0,-1
177.49,-3.17,-42.68,-466,-5629,6099,-1,-1,-1
177.49,-3.17,-42.68,-460,-5627,6103,-1,-1,-1
177.49,-3.16,-42.68,-449,-5615,6104,-1,-1,0
177.49,-3.16,-42.68,-453,-5614,6103,-1,-1,-1
177.49,-3.16,-42.68,-436,-5611,6106,-1,0,0
177.49,-3.16,-42.68,-435,-5606,6111,-1,0,0
177.49,-3.16,-42.69,-455,-5617,6098,-1,0,0
177.49,-3.17,-42.70,-466,-5619,6104,-1,0,-1
177.49,-3.17,-42.71,-468,-5622,6099,-1,0,-1
177.49,-3.17,-42.71,-456,-5629,6086,-1,-1,-1
177.49,-3.17,-42.72,-455,-5626,6076,-1,0,0
177.49,-3.17,-42.72,-464,-5627,6082,-1,0,0
177.49,-3.17,-42.72,-475,-5628,6094,-1,-1,-1
177.49,-3.17,-42.72,-462,-5625,6108,-1,-1,-1
177.50,-3.16,-42.72,-462,-5627,6106,-1,-1,-1
177.50,-3.16,-42.72,-453,-5620,6100,-1,-1,-1
177.50,-3.16,-42.73,-447,-5613,6092,-1,0,0
177.50,-3.16,-42.73,-446,-5613,6090,-1,0,0
177.50,-3.16,-42.74,-445,-5619,6087,-1,0,0
177.50,-3.16,-42.74,-454,-5620,6085,-1,0,0
177.50,-3.16,-42.75,-467,-5625,6083,-1,0,-1
177.50,-3.16,-42.75,-474,-5626,6077,-1,-1,-1
177.50,-3.16,-42.76,-472,-5632,6093,-1,-1,-1
177.50,-3.16,-42.76,-465,-5634,6090,-1,-1,-1
177.50,-3.16,-42.76,-466,-5630,6086,0,-1,-1
177.50,-3.16,-42.76,-462,-5633,6095,0,-1,-1
177.50,-3.16,-42.75,-457,-5622,6096,0,-1,-1
177.50,-3.15,-42.75,-456,-5619,6101,-1,-1,-1
177.50,-3.15,-42.75,-448,-5615,6098,-1,-1,0
177.50,-3.15,-42.76,-448,-5617,6092,-1,0,0
177.50,-3.15,-42.76,-459,-5616,6083,-1,0,-1
177.50,-3.15,-42.77,-464,-5626,6085,-1,-1,-1
177.51,-3.15,-42.76,-455,-5623,6091,0,-1,-1
177.51,-3.14,-42.76,-449,-5622,6087,0,-1,0
177.51,-3.14,-42.76,-447,-5623,6084,0,-1,0
177.51,-3.14,-42.76,-449,-5625,6086,0,0,0
177.51,-3.14,-42.76,-450,-5628,6090,-1,0,-1
177.51,-3.14,-42.76,-455,-5630,6095,-1,0,-1
177.51,-3.14,-42.76,-460,-5624,6100,-1,-1,-1
177.51,-3.14,-42.76,-460,-5625,6098,-1,-1,-1
177.51,-3.13,-42.76,-456,-5620,6092,-1,-1,-1
177.51,-3.13,-42.76,-456,-5622,6085,0,-1,-1
177.52,-3.13,-42.76,-439,-5611,6089,0,0,-1
177.52,-3.13,-42.75,-448,-5621,6104,-1,-1,0
177.52,-3.13,-42.75,-447,-5619,6107,-1,-1,-1
177.52,-3.13,-42.75,-456,-5617,6106,-1,0,-1
177.52,-3.13,-42.76,-452,-5623,6100,-1,0,-1
177.52,-3.13,-42.76,-455,-5629,6106,-1,0,0
177.52,-3.13,-42.76,-450,-5627,6100,0,-1,-1
177.52,-3.13,-42.76,-451,-5629,6084,0,0,-1
177.53,-3.13,-42.76,-446,-5626,6084,0,0,-1
177.53,-3.13,-42.76,-449,-5628,6087,0,0,-1
177.53,-3.13,-42.76,-452,-5626,6096,0,0,-1
177.53,-3.13,-42.76,-449,-5630,6098,-1,-1,-1
177.53,-3.13,-42.76,-448,-5626,6101,-1,0,-1
177.54,-3.12,-42.77,-450,-5627,6096,-1,0,-1
177.54,-3.12,-42.77,-448,-5618,6093,-1,0,0
177.54,-3.12,-42.77,-444,-5626,6086,-1,0,0
177.54,-3.12,-42.78,-449,-5625,6088,-1,0,0
177.54,-3.13,-42.78,-449,-5627,6080,-1,0,0
177.54,-3.13,-42.79,-454,-5630,6084,-1,0,0
177.53,-3.14,-42.78,-461,-5631,6090,0,0,0
177.53,-3.15,-42.78,-459,-5630,6097,0,0,0
177.53,-3.15,-42.78,-461,-5634,6082,0,0,0
177.52,-3.15,-42.78,-458,-5636,6087,-1,0,0
177.52,-3.15,-42.78,-463,-5625,6085,0,0,0
177.52,-3.16,-42.78,-461,-5630,6090,-1,0,0
177.52,-3.16,-42.78,-464,-5636,6094,0,-1,0
177.52,-3.16,-42.77,-463,-5629,6099,0,0,0
177.52,-3.16,-42.77,-461,-5625,6093,0,0,0
177.52,-3.16,-42.77,-461,-5618,6091,-1,0,0
177.52,-3.16,-42.78,-458,-5632,6083,-1,0,-1
177.52,-3.17,-42.78,-457,-5637,6083,0,0,0
177.52,-3.17,-42.77,-454,-5633,6093,0,-1,0
177.52,-3.17,-42.77,-459,-5633,6102,0,0,0
177.52,-3.16,-42.77,-452,-5631,6097,0,0,0
177.52,-3.17,-42.76,-461,-5633,6094,0,0,0
177.52,-3.17,-42.76,-469,-5626,6092,0,0,0
177.52,-3.17,-42.75,-467,-5624,6100,0,-1,-1
177.52,-3.17,-42.75,-471,-5629,6097,0,-1,-1
177.52,-3.17,-42.75,-463,-5627,6095,0,-1,-1
177.52,-3.16,-42.74,-460,-5624,6093,0,-1,0
177.52,-3.16,-42.74,-449,-5617,6088,0,0,-1
177.52,-3.16,-42.73,-444,-5617,6093,-1,-1,0
177.52,-3.16,-42.73,-459,-5613,6096,0,0,0
177.52,-3.16,-42.73,-463,-5614,6099,-1,0,0
177.52,-3.17,-42.73,-466,-5622,6093,-1,0,0
177.51,-3.17,-42.74,-467,-5634,6090,0,-1,0
177.51,-3.17,-42.74,-469,-5633,6091,0,0,0
177.51,-3.17,-42.73,-460,-5631,6097,0,0,0
177.51,-3.17,-42.72,-463,-5622,6096,0,0,0
177.51,-3.18,-42.71,-468,-5618,6097,0,0,-1
177.51,-3.18,-42.71,-468,-5621,6094,0,-1,-1
177.51,-3.18,-42.71,-470,-5621,6099,0,-1,-1
177.51,-3.17,-42.71,-459,-5614,6099,0,0,0
177.51,-3.18,-42.70,-463,-5615,6096,0,0,0
177.51,-3.18,-42.70,-458,-5610,6098,-1,0,0
177.51,-3.18,-42.70,-450,-5616,6094,-1,0,0
177.51,-3.18,-42.70,-455,-5615,6096,-1,0,0
177.51,-3.18,-42.70,-454,-5615,6100,-1,0,0
177.51,-3.18,-42.70,-456,-5620,6100,0,0,0
177.51,-3.18,-42.70,-460,-5625,6090,0,0,-1
177.51,-3.18,-42.69,-465,-5626,6102,0,-1,0
177.51,-3.18,-42.69,-463,-5622,6100,0,-1,-1
177.51,-3.18,-42.68,-468,-5621,6105,0,-1,-1
177.51,-3.17,-42.68,-465,-5614,6105,0,-1,0
177.51,-3.18,-42.67,-463,-5616,6102,0,-1,-1
177.51,-3.17,-42.66,-458,-5615,6096,0,-1,-1
177.52,-3.17,-42.65,-449,-5610,6098,0,0,-1
177.52,-3.17,-42.65,-450,-5602,6098,0,0,-1
177.52,-3.17,-42.65,-463,-5607,6106,-1,-1,0
177.52,-3.17,-42.65,-462,-5608,6105,0,0,0
177.52,-3.18,-42.65,-470,-5609,6101,-1,-1,-1
177.52,-3.18,-42.65,-468,-5619,6088,0,-1,-1
177.52,-3.18,-42.65,-464,-5610,6087,0,-1,0
177.51,-3.17,-42.65,-454,-5617,6091,0,0,0
177.51,-3.17,-42.65,-456,-5614,6085,-1,0,0
177.52,-3.18,-42.65,-461,-5614,6083,0,0,0
177.52,-3.18,-42.65,-462,-5614,6086,0,0,0
177.51,-3.18,-42.64,-459,-5602,6093,0,-1,0
177.51,-3.18,-42.64,-456,-5604,6103,-1,-1,0
177.51,-3.18,-42.64,-461,-5608,6101,0,0,0
177.51,-3.19,-42.63,-469,-5612,6102,0,0,0
177.51,-3.19,-42.63,-471,-5610,6099,0,0,-1
177.50,-3.19,-42.63,-473,-5603,6099,-1,0,0
177.50,-3.19,-42.63,-473,-5610,6092,0,-1,0
177.50,-3.19,-42.63,-462,-5617,6085,0,0,-1
177.51,-3.19,-42.62,-457,-5626,6104,0,-1,-1
177.51,-3.19,-42.62,-453,-5620,6104,0,0,-1
177.51,-3.19,-42.62,-457,-5607,6099,0,0,0
177.51,-3.19,-42.62,-452,-5604,6091,-1,-1,0
177.51,-3.19,-42.62,-455,-5603,6088,-1,0,0
177.51,-3.19,-42.62,-454,-5611,6090,-1,0,0
177.51,-3.19,-42.62,-455,-5607,6098,0,0,0
177.51,-3.19,-42.62,-460,-5604,6101,0,0,0
177.50,-3.19,-42.62,-468,-5613,6115,-1,0,0
177.50,-3.19,-42.62,-469,-5614,6112,0,0,0
177.50,-3.19,-42.62,-469,-5619,6112,0,0,0
177.50,-3.20,-42.61,-469,-5613,6108,0,0,-1
177.50,-3.19,-42.61,-462,-5609,6109,0,-1,0
177.50,-3.19,-42.60,-466,-5601,6112,0,0,0
177.50,-3.19,-42.59,-461,-5605,6115,0,-1,0
177.50,-3.19,-42.59,-457,-5600,6116,0,0,0
177.50,-3.19,-42.59,-460,-5602,6117,-1,0,0
177.50,-3.20,-42.59,-461,-5605,6111,-1,0,0
177.50,-3.20,-42.60,-468,-5605,6110,-1,0,0
177.50,-3.20,-42.60,-470,-5606,6107,-1,0,0
177.50,-3.21,-42.60,-482,-5614,6101,-1,0,0
177.50,-3.21,-42.60,-472,-5613,6099,0,-1,-1
177.50,-3.20,-42.60,-468,-5616,6102,0,-1,0
177.50,-3.20,-42.60,-468,-5617,6104,0,-1,0
177.50,-3.20,-42.59,-468,-5617,6111,0,0,-1
177.50,-3.19,-42.59,-461,-5614,6119,0,-1,-1
177.51,-3.19,-42.59,-461,-5605,6113,-1,-1,-1
177.51,-3.19,-42.59,-458,-5601,6113,-1,-1,-1
177.51,-3.19,-42.60,-459,-5606,6109,-1,-1,-1
177.51,-3.19,-42.60,-456,-5602,6102,-1,0,-1
177.51,-3.19,-42.61,-462,-5605,6096,-1,-1,-1
177.51,-3.19,-42.61,-457,-5607,6099,-1,-1,0
177.51,-3.19,-42.61,-460,-5609,6101,-1,0,-1
177.51,-3.19,-42.61,-467,-5603,6108,-1,-1,0
177.51,-3.19,-42.62,-460,-5608,6114,-1,0,-1
177.51,-3.19,-42.62,-455,-5609,6114,-1,0,-1
177.51,-3.19,-42.64,-462,-5626,6100,-1,0,-1
177.51,-3.19,-42.65,-466,-5626,6107,-1,0,-1
177.51,-3.19,-42.64,-464,-5612,6104,0,0,0
177.51,-3.19,-42.64,-460,-5612,6107,-1,-1,0
177.51,-3.19,-42.65,-454,-5613,6112,-1,0,0
177.51,-3.19,-42.65,-461,-5615,6108,-1,0,0
177.51,-3.19,-42.65,-459,-5609,6117,-1,0,-1
177.51,-3.20,-42.65,-463,-5607,6116,-1,0,-1
177.51,-3.20,-42.66,-462,-5616,6106,-1,0,-1
177.51,-3.20,-42.68,-470,-5617,6104,-1,-1,-1
177.52,-3.19,-42.68,-455,-5631,6105,-1,-1,-1
177.52,-3.19,-42.68,-457,-5630,6105,-1,0,0
177.52,-3.19,-42.68,-453,-5627,6103,-1,-1,-1
177.52,-3.18,-42.68,-459,-5617,6104,-1,-1,0
177.52,-3.18,-42.68,-453,-5606,6097,-1,0,0
177.52,-3.18,-42.69,-449,-5612,6096,-1,0,0
177.52,-3.18,-42.69,-444,-5617,6087,0,0,0
177.52,-3.19,-42.69,-460,-5624,6106,-1,0,0
177.52,-3.19,-42.69,-457,-5621,6102,-1,0,-1
177.52,-3.19,-42.70,-468,-5628,6095,-1,0,-1
177.52,-3.19,-42.70,-462,-5623,6095,-1,-1,0
177.53,-3.18,-42.70,-462,-5620,6098,0,-1,-1
177.53,-3.18,-42.70,-449,-5619,6102,0,-1,-1
177.53,-3.18,-42.70,-453,-5613,6104,-1,-1,0
177.53,-3.18,-42.70,-450,-5612,6106,-1,0,0
177.53,-3.18,-42.70,-465,-5604,6103,-1,0,0
177.53,-3.18,-42.71,-474,-5613,6105,-1,-1,0
177.53,-3.18,-42.72,-469,-5612,6096,-1,-1,-1
177.53,-3.18,-42.73,-472,-5618,6095,-1,0,-1
177.53,-3.18,-42.75,-469,-5627,6092,-1,0,-1
177.53,-3.18,-42.75,-465,-5631,6084,-1,0,-1
177.53,-3.18,-42.76,-460,-5631,6082,-1,-1,-1
177.53,-3.18,-42.76,-461,-5632,6081,-1,-1,-1
177.53,-3.18,-42.76,-461,-5624,6082,-1,-1,-1
177.53,-3.18,-42.76,-467,-5624,6085,-1,-1,-1
177.54,-3.18,-42.77,-464,-5631,6078,-1,-1,-1
177.54,-3.17,-42.77,-460,-5629,6081,-1,-1,-1
177.54,-3.17,-42.77,-455,-5627,6086,-1,0,-1
177.55,-3.17,-42.77,-451,-5626,6088,-1,0,-1
177.55,-3.17,-42.77,-447,-5627,6091,-1,0,0
177.55,-3.17,-42.78,-449,-5630,6092,-1,0,-1
177.55,-3.17,-42.78,-457,-5632,6084,-1,0,0
177.55,-3.17,-42.78,-455,-5638,6102,0,0,-1
177.55,-3.17,-42.78,-459,-5623,6101,-1,-1,0
177.55,-3.17,-42.78,-459,-5624,6093,-1,-1,-1
177.55,-3.17,-42.78,-458,-5628,6078,-1,0,-1
177.56,-3.17,-42.78,-456,-5625,6074,0,0,-1
177.56,-3.16,-42.78,-451,-5617,6083,0,0,-1
177.56,-3.16,-42.78,-448,-5621,6075,0,-1,-1
177.56,-3.16,-42.78,-453,-5621,6080,-1,0,0
177.56,-3.16,-42.78,-464,-5624,6084,-1,0,0
177.56,-3.17,-42.78,-470,-5627,6084,-1,0,0
177.56,-3.17,-42.78,-466,-5630,6089,-1,-1,-1
177.56,-3.17,-42.78,-464,-5639,6088,-1,-1,-1
177.56,-3.16,-42.78,-463,-5633,6094,-1,-1,-1
177.56,-3.16,-42.78,-456,-5629,6099,0,-1,0
177.56,-3.16,-42.78,-451,-5620,6106,-1,-1,-1
177.56,-3.16,-42.77,-455,-5617,6106,0,0,-1
177.56,-3.15,-42.78,-450,-5625,6098,-1,0,0
177.56,-3.15,-42.78,-453,-5627,6092,-1,0,0
177.56,-3.16,-42.78,-459,-5629,6090,-1,0,0
177.56,-3.16,-42.78,-456,-5630,6094,-1,-1,-1
177.56,-3.16,-42.78,-455,-5633,6092,-1,0,-1
177.56,-3.16,-42.79,-458,-5633,6087,-1,-1,-1
177.56,-3.16,-42.79,-461,-5633,6083,-1,-1,-1
177.56,-3.16,-42.79,-459,-5630,6086,0,0,0
177.56,-3.16,-42.79,-460,-5627,6083,-1,-1,-1
177.56,-3.16,-42.79,-461,-5630,6089,0,0,-1
177.57,-3.15,-42.79,-461,-5625,6089,-1,-1,-1
177.57,-3.15,-42.79,-458,-5624,6098,0,-1,-1
177.57,-3.15,-42.78,-451,-5626,6104,-1,0,0
177.57,-3.15,-42.79,-448,-5622,6095,-1,0,-1
177.57,-3.15,-42.79,-446,-5622,6097,-1,0,0
177.57,-3.15,-42.79,-457,-5624,6095,-1,0,-1
177.57,-3.16,-42.79,-468,-5630,6097,-1,0,-1
177.57,-3.16,-42.80,-474,-5635,6088,-1,0,-1
