Yaw,Pitch,Roll,AX,AY,AZ,GX,GY,GZ
-164.66,151.29,-110.40,4031,-6858,-2596,0,0,0
-164.66,151.29,-110.39,4026,-6856,-2587,0,-1,0
-164.67,151.31,-110.40,4023,-6858,-2583,0,-1,0
-164.67,151.30,-110.41,4023,-6862,-2577,-1,-1,-1
-164.68,151.30,-110.42,4030,-6865,-2594,-1,0,-1
-164.69,151.30,-110.44,4023,-6867,-2620,-1,-1,0
-164.69,151.30,-110.44,4023,-6854,-2606,0,-1,0
-164.69,151.31,-110.44,4017,-6854,-2609,0,-1,0
-164.70,151.32,-110.44,4019,-6853,-2610,0,-1,0
-164.70,151.32,-110.45,4029,-6855,-2603,0,-1,0
-164.70,151.32,-110.45,4024,-6848,-2606,0,0,-1
-164.70,151.31,-110.45,4024,-6848,-2594,0,0,-1
-164.70,151.30,-110.46,4031,-6848,-2600,-1,0,-1
-164.71,151.30,-110.47,4035,-6849,-2610,0,-1,0
-164.71,151.30,-110.48,4035,-6861,-2619,0,-1,-1
-164.71,151.30,-110.48,4034,-6851,-2611,0,-1,-1
-164.70,151.30,-110.48,4030,-6847,-2601,0,-1,0
-164.71,151.30,-110.48,4027,-6846,-2603,-1,-1,0
-164.71,151.31,-110.49,4028,-6850,-2618,0,0,0
-164.69,151.30,-110.48,4038,-6847,-2599,-1,0,-1
-164.71,151.29,-110.49,4023,-6854,-2607,-1,0,-1
-164.71,151.29,-110.49,4029,-6845,-2617,0,0,0
-164.71,151.28,-110.50,4024,-6849,-2614,0,0,0
-164.70,151.28,-110.50,4032,-6850,-2615,0,-1,-1
-164.71,151.29,-110.49,4031,-6859,-2610,0,-1,0
-164.70,151.29,-110.50,4032,-6853,-2608,0,-1,0
-164.71,151.29,-110.51,4034,-6853,-2610,-1,-1,0
-164.71,151.29,-110.52,4028,-6852,-2608,0,-1,0
-164.73,151.30,-110.53,4026,-6854,-2616,0,-1,0
-164.72,151.30,-110.53,4031,-6844,-2614,0,-1,-1
-164.72,151.30,-110.53,4031,-6852,-2621,0,-1,0
-164.72,151.30,-110.54,4028,-6843,-2619,0,-1,0
-164.72,151.30,-110.54,4028,-6839,-2609,0,0,-1
-164.72,151.29,-110.54,4032,-6849,-2610,-1,0,-1
-164.71,151.28,-110.54,4032,-6853,-2615,0,0,-1
-164.71,151.28,-110.54,4031,-6855,-2613,0,0,-1
-164.71,151.28,-110.54,4026,-6850,-2607,0,0,0
-164.72,151.28,-110.55,4027,-6853,-2622,0,0,-1
-164.71,151.28,-110.55,4029,-6858,-2630,0,0,-1
-164.71,151.27,-110.55,4037,-6855,-2623,0,-1,0
-164.71,151.28,-110.56,4034,-6858,-2621,0,-1,-1
-164.71,151.28,-110.56,4037,-6853,-2623,0,-1,0
-164.71,151.28,-110.56,4031,-6852,-2622,0,-1,0
-164.72,151.28,-110.57,4032,-6851,-2630,0,0,-1
-164.72,151.28,-110.57,4036,-6852,-2633,-1,0,-1
-164.71,151.26,-110.58,4037,-6856,-2634,0,0,-1
-164.70,151.26,-110.57,4035,-6850,-2621,0,0,-1
-164.71,151.27,-110.58,4031,-6847,-2619,0,-1,0
-164.71,151.27,-110.58,4032,-6845,-2615,0,-1,0
-164.71,151.27,-110.59,4034,-6844,-2613,-1,0,0
-164.72,151.27,-110.59,4035,-6850,-2626,0,0,-1
-164.72,151.27,-110.59,4035,-6852,-2640,0,0,-1
-164.71,151.26,-110.59,4032,-6856,-2621,0,-1,-1
-164.71,151.26,-110.59,4036,-6847,-2623,0,-1,0
-164.72,151.27,-110.60,4032,-6848,-2624,-1,-1,0
-164.72,151.27,-110.60,4031,-6855,-2632,0,0,-1
-164.72,151.27,-110.60,4037,-6854,-2633,0,0,-1
-164.71,151.26,-110.60,4025,-6845,-2626,0,-1,-1
-164.72,151.27,-110.62,4030,-6847,-2634,-1,-1,0
-164.72,151.27,-110.63,4031,-6855,-2636,0,-1,-1
-164.72,151.27,-110.62,4035,-6853,-2624,0,0,-1
-164.71,151.26,-110.62,4030,-6847,-2624,0,-1,-1
-164.72,151.27,-110.63,4029,-6848,-2629,0,-1,0
-164.71,151.27,-110.63,4027,-6840,-2620,0,-1,0
-164.71,151.27,-110.63,4036,-6841,-2625,0,-1,0
-164.72,151.27,-110.63,4034,-6839,-2630,0,0,0
-164.72,151.27,-110.64,4041,-6851,-2642,0,0,-1
-164.71,151.26,-110.63,4048,-6853,-2638,0,0,0
-164.72,151.27,-110.63,4032,-6848,-2624,0,-1,0
-164.72,151.28,-110.63,4027,-6849,-2618,0,-1,-1
-164.72,151.28,-110.63,4026,-6852,-2620,-1,0,-1
-164.72,151.27,-110.63,4027,-6858,-2624,0,0,-1
-164.73,151.28,-110.65,4027,-6850,-2638,0,-1,0
-164.72,151.28,-110.64,4027,-6845,-2631,0,-1,0
-164.72,151.28,-110.65,4026,-6843,-2634,0,-1,0
-164.73,151.28,-110.65,4028,-6841,-2623,0,-1,0
-164.72,151.28,-110.65,4028,-6841,-2623,0,-1,-1
-164.72,151.28,-110.66,4031,-6836,-2631,0,-1,0
-164.73,151.29,-110.67,4030,-6847,-2642,0,-1,0
-164.73,151.29,-110.67,4032,-6843,-2636,0,0,0
-164.74,151.30,-110.67,4025,-6853,-2635,-1,-1,0
-164.74,151.30,-110.67,4027,-6862,-2644,0,0,-1
-164.73,151.29,-110.67,4024,-6849,-2623,0,0,0
-164.74,151.30,-110.67,4027,-6846,-2633,0,-1,0
-164.73,151.29,-110.67,4031,-6846,-2630,0,-1,0
-164.74,151.30,-110.68,4022,-6843,-2634,0,-1,0
-164.75,151.31,-110.69,4024,-6842,-2631,0,-1,0
-164.75,151.30,-110.69,4022,-6846,-2635,0,0,-1
-164.75,151.30,-110.69,4022,-6848,-2633,0,0,-1
-164.75,151.30,-110.69,4027,-6846,-2631,0,-1,0
-164.75,151.31,-110.70,4027,-6840,-2621,0,-1,0
-164.76,151.32,-110.71,4025,-6842,-2621,-1,-1,0
-164.77,151.32,-110.73,4030,-6846,-2633,-1,0,-1
-164.77,151.31,-110.73,4033,-6849,-2650,-1,0,0
-164.78,151.32,-110.74,4024,-6850,-2658,0,-1,-1
-164.78,151.32,-110.74,4020,-6845,-2646,0,-1,0
-164.78,151.32,-110.74,4016,-6841,-2639,0,-1,0
-164.78,151.33,-110.75,4020,-6842,-2639,0,-1,0
-164.79,151.33,-110.76,4022,-6839,-2653,0,-1,0
-164.79,151.33,-110.76,4028,-6837,-2644,0,0,0
-164.80,151.33,-110.76,4025,-6841,-2643,-1,0,0
-164.80,151.34,-110.76,4030,-6845,-2633,-1,0,0
-164.82,151.34,-110.78,4022,-6844,-2642,-1,0,0
-164.82,151.33,-110.78,4022,-6841,-2648,-1,0,-1
-164.82,151.33,-110.79,4028,-6838,-2652,0,-1,0
-164.82,151.34,-110.79,4026,-6838,-2645,0,-1,0
-164.82,151.34,-110.79,4013,-6830,-2635,0,-1,0
-164.84,151.35,-110.80,4013,-6838,-2629,-1,-1,0
-164.84,151.35,-110.80,4018,-6843,-2647,-1,0,0
-164.85,151.35,-110.80,4010,-6850,-2651,-1,0,0
-164.85,151.35,-110.81,4021,-6851,-2664,0,0,0
-164.85,151.35,-110.80,4029,-6846,-2653,0,-1,0
-164.85,151.36,-110.80,4020,-6847,-2645,0,-1,0
-164.84,151.36,-110.80,4017,-6847,-2635,0,-1,0
-164.84,151.36,-110.80,4018,-6839,-2639,0,0,0
-164.85,151.36,-110.81,4008,-6839,-2642,-1,0,-1
-164.84,151.34,-110.81,4014,-6848,-2652,0,0,-1
-164.83,151.34,-110.81,4016,-6853,-2664,0,0,-1
-164.82,151.33,-110.80,4020,-6851,-2675,0,-1,-1
-164.81,151.34,-110.79,4027,-6849,-2664,0,-1,0
-164.80,151.33,-110.78,4021,-6839,-2663,0,0,0
-164.80,151.33,-110.77,4020,-6836,-2645,0,0,-1
-164.78,151.31,-110.76,4026,-6833,-2653,0,0,-1
-164.76,151.30,-110.75,4029,-6839,-2651,0,0,-1
-164.75,151.29,-110.75,4032,-6835,-2649,0,0,-1
-164.74,151.29,-110.74,4026,-6835,-2633,0,-1,-1
-164.74,151.30,-110.73,4024,-6840,-2635,0,0,0
-164.74,151.30,-110.73,4019,-6837,-2636,0,0,0
-164.73,151.29,-110.73,4020,-6839,-2642,0,0,-1
-164.72,151.27,-110.74,4035,-6842,-2654,0,0,-1
-164.71,151.27,-110.73,4030,-6844,-2641,0,0,-1
-164.71,151.27,-110.73,4029,-6840,-2637,0,-1,0
-164.72,151.28,-110.74,4031,-6837,-2629,0,-1,0
-164.73,151.29,-110.74,4030,-6842,-2645,0,-1,0
-164.73,151.29,-110.75,4031,-6845,-2650,0,0,0
-164.73,151.29,-110.75,4023,-6841,-2644,0,0,0
-164.74,151.30,-110.75,4026,-6840,-2643,0,-1,0
-164.74,151.30,-110.76,4032,-6843,-2650,0,-1,0
-164.75,151.30,-110.77,4030,-6837,-2653,0,-1,0
-164.75,151.31,-110.77,4030,-6839,-2653,0,-1,0
-164.75,151.30,-110.77,4032,-6846,-2656,0,0,0
-164.75,151.31,-110.77,4029,-6842,-2644,0,-1,0
-164.75,151.31,-110.77,4033,-6845,-2651,0,-1,0
-164.75,151.32,-110.78,4032,-6842,-2648,0,-1,0
-164.75,151.31,-110.78,4031,-6845,-2650,0,0,-1
-164.75,151.31,-110.79,4031,-6838,-2652,0,0,0
-164.74,151.31,-110.78,4031,-6839,-2645,0,-1,0
-164.75,151.31,-110.78,4026,-6848,-2652,0,-1,0
-164.75,151.31,-110.78,4019,-6840,-2647,0,0,-1
-164.73,151.30,-110.79,4015,-6842,-2643,-1,-1,-1
-164.71,151.28,-110.78,4035,-6846,-2637,0,0,-1
-164.71,151.27,-110.79,4035,-6851,-2651,0,0,0
-164.70,151.27,-110.78,4033,-6842,-2649,0,0,0
-164.71,151.28,-110.78,4034,-6845,-2646,0,-1,0
-164.71,151.27,-110.80,4029,-6840,-2657,0,-1,0
-164.72,151.28,-110.80,4031,-6840,-2651,0,-1,0
-164.73,151.29,-110.81,4025,-6836,-2647,-1,-1,0
-164.75,151.31,-110.82,4030,-6838,-2664,0,-1,0
-164.73,151.30,-110.82,4027,-6842,-2648,0,-1,-1
-164.74,151.30,-110.82,4025,-6845,-2652,0,-1,-1
-164.74,151.30,-110.83,4023,-6838,-2648,0,-1,0
-164.74,151.31,-110.83,4040,-6845,-2647,0,-1,0
-164.75,151.32,-110.83,4032,-6849,-2652,0,-1,0
-164.74,151.31,-110.83,4024,-6847,-2651,0,0,0
-164.74,151.31,-110.83,4026,-6842,-2640,0,0,-1
-164.72,151.29,-110.83,4033,-6842,-2639,-1,0,-1
-164.73,151.28,-110.84,4030,-6849,-2657,0,0,-1
-164.74,151.29,-110.85,4029,-6848,-2660,0,-1,0
-164.73,151.29,-110.85,4024,-6843,-2654,0,-1,0
-164.73,151.29,-110.85,4030,-6833,-2646,0,0,-1
-164.73,151.28,-110.86,4031,-6832,-2648,-1,0,-1
-164.73,151.28,-110.86,4038,-6835,-2650,0,-1,0
-164.73,151.29,-110.87,4033,-6840,-2655,0,-1,0
-164.74,151.29,-110.87,4036,-6848,-2656,0,-1,-1
-164.73,151.28,-110.88,4031,-6844,-2665,0,0,-1
-164.73,151.28,-110.88,4026,-6838,-2658,0,-1,0
-164.74,151.30,-110.88,4028,-6838,-2662,0,-1,0
-164.75,151.30,-110.88,4032,-6830,-2654,0,-1,0
-164.74,151.29,-110.88,4039,-6830,-2638,-1,0,-1
-164.75,151.28,-110.90,4025,-6834,-2656,-1,0,-1
-164.75,151.27,-110.92,4037,-6835,-2686,-1,0,-1
-164.76,151.27,-110.92,4035,-6836,-2670,0,-1,0
-164.76,151.27,-110.93,4033,-6835,-2667,-1,-1,0
-164.76,151.27,-110.94,4036,-6836,-2673,0,-1,0
-164.76,151.27,-110.94,4030,-6836,-2669,0,0,0
-164.77,151.27,-110.95,4033,-6831,-2664,0,0,-1
-164.77,151.27,-110.95,4031,-6834,-2670,-1,-1,-1
-164.77,151.27,-110.97,4034,-6823,-2657,-1,-1,0
-164.78,151.27,-110.97,4029,-6833,-2651,0,-1,-1
-164.77,151.26,-110.97,4027,-6827,-2653,0,0,0
-164.77,151.27,-110.98,4022,-6827,-2660,0,-1,0
-164.77,151.27,-110.98,4032,-6832,-2652,0,-1,0
-164.77,151.27,-110.98,4023,-6831,-2658,0,-1,0
-164.78,151.27,-110.99,4031,-6828,-2660,-1,0,0
-164.79,151.27,-110.99,4031,-6825,-2656,-1,0,0
-164.80,151.27,-111.01,4016,-6832,-2680,-1,0,-1
-164.80,151.26,-111.01,4029,-6842,-2681,0,0,-1
-164.79,151.26,-111.00,4040,-6836,-2662,0,-1,0
-164.79,151.26,-111.01,4028,-6837,-2669,0,0,0
-164.79,151.26,-111.01,4022,-6833,-2653,-1,-1,0
-164.80,151.27,-111.02,4023,-6827,-2655,-1,-1,0
-164.81,151.27,-111.03,4029,-6830,-2665,-1,-1,-1
-164.81,151.27,-111.05,4030,-6835,-2683,-1,-1,-1
-164.81,151.26,-111.05,4031,-6835,-2671,0,0,-1
-164.81,151.26,-111.05,4027,-6831,-2666,0,0,-1
-164.80,151.26,-111.05,4028,-6835,-2670,0,-1,-1
-164.80,151.26,-111.05,4033,-6833,-2672,0,0,0
-164.80,151.26,-111.06,4039,-6837,-2674,-1,0,0
-164.81,151.26,-111.05,4025,-6835,-2672,0,0,0
-164.82,151.26,-111.06,4017,-6834,-2667,0,0,0
-164.82,151.26,-111.06,4024,-6829,-2668,0,0,0
-164.81,151.26,-111.06,4031,-6832,-2664,0,0,0
-164.82,151.26,-111.06,4032,-6829,-2655,-1,-1,0
-164.82,151.26,-111.07,4030,-6831,-2666,-1,0,-1
-164.83,151.26,-111.08,4030,-6832,-2671,-1,-1,0
-164.83,151.27,-111.09,4030,-6834,-2674,-1,-1,0
-164.84,151.27,-111.10,4029,-6831,-2670,0,-1,0
-164.84,151.27,-111.10,4030,-6836,-2672,-1,-1,0
-164.85,151.27,-111.10,4024,-6834,-2674,-1,-1,0
-164.86,151.28,-111.12,4027,-6831,-2667,-1,-1,0
-164.86,151.28,-111.12,4028,-6835,-2675,-1,-1,0
-164.87,151.28,-111.13,4027,-6831,-2691,-1,-1,-1
-164.87,151.28,-111.13,4027,-6829,-2680,0,-1,0
-164.87,151.29,-111.14,4027,-6833,-2685,-1,-1,0
-164.88,151.29,-111.14,4033,-6827,-2673,0,0,0
-164.88,151.29,-111.15,4023,-6837,-2674,-1,-1,0
-164.89,151.29,-111.16,4027,-6832,-2693,0,0,-1
-164.89,151.29,-111.17,4023,-6825,-2691,-1,-1,0
-164.89,151.29,-111.18,4028,-6827,-2696,0,-1,0
-164.89,151.28,-111.18,4031,-6828,-2691,0,0,-1
-164.89,151.28,-111.18,4029,-6834,-2682,0,-1,-1
-164.88,151.28,-111.18,4024,-6830,-2686,0,0,-1
-164.88,151.27,-111.18,4024,-6819,-2683,0,0,0
-164.88,151.27,-111.18,4023,-6824,-2685,-1,-1,-1
-164.88,151.27,-111.19,4025,-6829,-2682,0,-1,-1
-164.88,151.27,-111.19,4025,-6831,-2681,0,0,-1
-164.87,151.27,-111.18,4023,-6830,-2674,0,0,-1
-164.87,151.27,-111.18,4020,-6832,-2685,0,0,-1
-164.86,151.26,-111.18,4015,-6823,-2689,0,0,-1
-164.86,151.26,-111.17,4014,-6825,-2682,0,0,0
-164.85,151.25,-111.17,4024,-6822,-2683,0,0,0
-164.85,151.26,-111.16,4026,-6824,-2680,0,0,0
-164.85,151.25,-111.15,4030,-6822,-2675,0,0,0
-164.84,151.24,-111.15,4029,-6831,-2678,0,0,-1
-164.84,151.24,-111.14,4026,-6828,-2677,0,0,-1
-164.83,151.23,-111.13,4022,-6825,-2672,0,0,-1
-164.83,151.23,-111.13,4024,-6819,-2665,-1,-1,0
-164.83,151.23,-111.14,4026,-6826,-2664,0,0,-1
-164.83,151.23,-111.14,4029,-6835,-2665,-1,-1,0
-164.82,151.23,-111.14,4029,-6830,-2670,0,-1,-1
-164.83,151.23,-111.15,4025,-6832,-2676,-1,-1,0
-164.83,151.23,-111.16,4037,-6829,-2680,-1,-1,0
-164.84,151.24,-111.16,4032,-6830,-2686,0,0,0
-164.84,151.24,-111.16,4031,-6831,-2684,0,-1,0
-164.84,151.24,-111.16,4028,-6835,-2683,0,0,-1
-164.83,151.22,-111.17,4025,-6832,-2682,0,0,-1
-164.82,151.22,-111.16,4035,-6831,-2673,0,-1,-1
-164.81,151.22,-111.15,4031,-6825,-2664,0,0,0
-164.81,151.22,-111.15,4028,-6822,-2658,0,0,-1
-164.81,151.21,-111.15,4034,-6820,-2661,-1,-1,-1
-164.81,151.21,-111.15,4035,-6824,-2660,0,0,0
-164.81,151.21,-111.16,4034,-6828,-2672,-1,-1,-1
-164.81,151.21,-111.16,4030,-6831,-2673,0,-1,-1
-164.81,151.21,-111.16,4033,-6829,-2666,0,-1,0
-164.82,151.22,-111.17,4035,-6832,-2674,0,-1,0
-164.82,151.22,-111.17,4037,-6829,-2669,0,0,0
-164.82,151.21,-111.18,4039,-6830,-2678,-1,-1,0
-164.83,151.22,-111.18,4036,-6835,-2682,0,-1,0
-164.83,151.22,-111.18,4035,-6835,-2672,-1,-1,0
-164.83,151.23,-111.19,4032,-6837,-2680,-1,-1,0
-164.83,151.23,-111.19,4032,-6840,-2678,0,0,-1
-164.83,151.23,-111.19,4034,-6827,-2665,-1,-1,-1
-164.83,151.23,-111.19,4026,-6823,-2663,0,-1,0
-164.84,151.24,-111.19,4025,-6823,-2654,-1,-1,0
-164.84,151.22,-111.20,4026,-6831,-2671,-1,0,-1
-164.83,151.21,-111.21,4041,-6842,-2686,-1,0,-1
-164.83,151.20,-111.22,4031,-6842,-2699,0,0,-1
-164.83,151.20,-111.22,4029,-6826,-2677,-1,-1,0
-164.84,151.20,-111.22,4032,-6822,-2677,-1,-1,0
-164.84,151.21,-111.23,4036,-6826,-2682,0,0,0
-164.84,151.21,-111.23,4034,-6830,-2678,0,-1,0
-164.85,151.22,-111.23,4030,-6829,-2680,0,0,0
-164.85,151.22,-111.23,4036,-6825,-2676,-1,-1,0
-164.85,151.22,-111.24,4030,-6820,-2671,-1,-1,0
-164.86,151.22,-111.25,4031,-6828,-2674,-1,-1,0
-164.86,151.23,-111.26,4036,-6829,-2679,0,-1,0
-164.87,151.23,-111.26,4033,-6824,-2684,0,-1,0
-164.87,151.24,-111.27,4025,-6828,-2683,0,-1,0
-164.88,151.24,-111.27,4033,-6831,-2683,0,-1,0
-164.88,151.25,-111.27,4022,-6827,-2682,0,0,-1
-164.87,151.24,-111.27,4022,-6828,-2671,-1,0,-1
-164.87,151.22,-111.26,4033,-6830,-2669,-1,0,-1
-164.88,151.21,-111.28,4031,-6838,-2692,-1,0,-1
-164.88,151.20,-111.28,4024,-6833,-2691,0,0,0
-164.88,151.21,-111.28,4024,-6841,-2686,0,-1,0
-164.88,151.22,-111.28,4027,-6843,-2675,0,-1,0
-164.88,151.22,-111.28,4030,-6842,-2672,-1,-1,0
-164.89,151.22,-111.28,4024,-6834,-2680,-1,0,0
-164.89,151.21,-111.29,4030,-6827,-2690,-1,-1,0
-164.90,151.22,-111.30,4034,-6828,-2705,0,-1,0
-164.91,151.23,-111.32,4034,-6827,-2702,-1,-1,0
-164.92,151.23,-111.32,4034,-6825,-2699,-1,-1,0
-164.91,151.23,-111.32,4034,-6821,-2697,0,-1,0
-164.92,151.23,-111.33,4026,-6822,-2693,0,-1,0
-164.92,151.23,-111.33,4029,-6820,-2694,0,-1,0
-164.92,151.23,-111.33,4033,-6821,-2698,0,0,0
-164.92,151.23,-111.33,4036,-6821,-2696,-1,0,-1
-164.92,151.22,-111.33,4032,-6816,-2693,-1,0,-1
-164.93,151.22,-111.34,4036,-6825,-2700,-1,0,-1
-164.92,151.21,-111.34,4030,-6827,-2698,0,-1,0
-164.93,151.22,-111.35,4019,-6820,-2701,0,-1,0
-164.93,151.22,-111.35,4018,-6825,-2699,0,-1,-1
-164.93,151.22,-111.35,4025,-6826,-2692,0,0,-1
-164.93,151.22,-111.35,4034,-6819,-2675,-1,-1,0
-164.94,151.22,-111.36,4032,-6825,-2692,0,0,0
-164.93,151.21,-111.36,4042,-6832,-2693,-1,0,-1
-164.91,151.20,-111.35,4051,-6837,-2699,0,0,-1
-164.91,151.20,-111.35,4042,-6824,-2701,0,-1,0
-164.92,151.21,-111.35,4033,-6819,-2682,0,-1,0
-164.93,151.22,-111.36,4027,-6818,-2684,0,-1,0
-164.92,151.20,-111.36,4039,-6819,-2682,-1,0,-1
-164.93,151.20,-111.36,4045,-6830,-2691,-1,0,0
-164.93,151.20,-111.36,4034,-6832,-2701,0,0,0
-164.93,151.20,-111.36,4026,-6823,-2706,0,-1,0
-164.93,151.21,-111.36,4031,-6826,-2691,0,-1,0
-164.93,151.22,-111.36,4037,-6825,-2684,0,0,0
-164.93,151.21,-111.36,4033,-6817,-2676,-1,0,0
-164.93,151.20,-111.36,4029,-6816,-2679,-1,0,-1
-164.92,151.20,-111.36,4027,-6824,-2681,0,-1,-1
-164.93,151.21,-111.37,4039,-6824,-2689,0,-1,0
-164.93,151.21,-111.36,4041,-6821,-2694,0,0,0
-164.92,151.20,-111.36,4037,-6821,-2683,0,0,-1
-164.92,151.20,-111.36,4041,-6817,-2675,0,0,0
-164.92,151.19,-111.36,4037,-6817,-2679,0,0,0
-164.92,151.20,-111.37,4039,-6817,-2686,-1,-1,0
-164.92,151.20,-111.37,4036,-6820,-2693,-1,0,0
-164.93,151.20,-111.36,4030,-6822,-2701,-1,0,0
-164.93,151.20,-111.37,4034,-6822,-2704,0,0,-1
-164.92,151.20,-111.36,4035,-6818,-2699,0,0,0
-164.92,151.20,-111.37,4028,-6815,-2679,-1,-1,0
-164.93,151.21,-111.37,4027,-6818,-2687,0,0,-1
-164.92,151.20,-111.37,4029,-6815,-2679,-1,0,-1
-164.93,151.20,-111.38,4029,-6818,-2691,-1,0,-1
-164.93,151.20,-111.38,4027,-6814,-2691,-1,-1,0
-164.94,151.21,-111.39,4032,-6819,-2693,-1,-1,-1
-164.94,151.20,-111.39,4039,-6825,-2693,0,0,-1
-164.94,151.20,-111.39,4033,-6832,-2701,-1,-1,0
-164.95,151.21,-111.40,4026,-6827,-2698,0,-1,0
-164.95,151.21,-111.41,4033,-6820,-2701,-1,-1,-1
-164.95,151.21,-111.42,4035,-6820,-2692,-1,0,0
-164.96,151.21,-111.42,4032,-6820,-2700,-1,0,0
-164.97,151.21,-111.43,4035,-6817,-2715,-1,0,0
-164.97,151.21,-111.43,4031,-6823,-2711,0,-1,0
-164.97,151.21,-111.43,4023,-6819,-2706,0,-1,-1
-164.97,151.21,-111.44,4031,-6820,-2701,-1,-1,-1
-164.97,151.21,-111.44,4030,-6823,-2701,-1,0,0
-164.98,151.21,-111.45,4024,-6816,-2707,-1,-1,0
-164.98,151.21,-111.46,4030,-6825,-2711,-1,-1,-1
-164.98,151.21,-111.46,4035,-6831,-2712,0,0,-1
-164.98,151.21,-111.46,4031,-6829,-2705,0,-1,0
-164.98,151.22,-111.46,4027,-6822,-2695,0,-1,0
-164.99,151.22,-111.46,4027,-6821,-2702,-1,-1,0
-164.99,151.22,-111.47,4036,-6819,-2710,0,0,-1
-164.99,151.22,-111.47,4039,-6814,-2705,-1,0,0
-165.00,151.22,-111.48,4037,-6814,-2723,0,0,-1
-164.99,151.21,-111.48,4035,-6814,-2711,-1,0,-1
-164.99,151.21,-111.49,4031,-6808,-2700,-1,-1,0
-165.00,151.22,-111.49,4032,-6812,-2692,-1,-1,0
-165.00,151.21,-111.50,4032,-6818,-2694,-1,-1,0
-165.00,151.22,-111.50,4036,-6818,-2706,0,0,-1
-165.00,151.22,-111.51,4029,-6817,-2721,0,-1,-1
-165.00,151.21,-111.51,4031,-6823,-2718,0,-1,0
-165.00,151.21,-111.51,4036,-6820,-2721,0,0,-1
-165.00,151.21,-111.51,4030,-6825,-2716,0,-1,-1
-164.99,151.20,-111.51,4034,-6819,-2709,0,0,-1
-164.99,151.20,-111.51,4030,-6814,-2703,0,0,-1
-164.99,151.20,-111.51,4033,-6812,-2706,0,0,0
-164.98,151.20,-111.50,4032,-6807,-2707,0,0,0
-164.98,151.19,-111.50,4037,-6811,-2708,0,0,-1
-164.97,151.19,-111.49,4034,-6816,-2702,0,0,-1
-164.96,151.19,-111.48,4033,-6821,-2699,0,0,0
-164.96,151.19,-111.48,4033,-6812,-2709,0,0,-1
-164.96,151.18,-111.48,4039,-6810,-2703,0,0,0
-164.96,151.18,-111.48,4038,-6809,-2699,0,-1,-1
-164.96,151.18,-111.48,4038,-6808,-2702,-1,-1,-1
-164.96,151.18,-111.49,4036,-6809,-2707,0,0,0
-164.96,151.19,-111.48,4030,-6810,-2703,-1,-1,0
-164.97,151.19,-111.49,4031,-6815,-2711,0,0,0
-164.96,151.18,-111.48,4040,-6816,-2694,0,0,-1
-164.96,151.18,-111.48,4036,-6814,-2702,-1,0,-1
-164.95,151.18,-111.48,4036,-6814,-2696,0,0,-1
-164.96,151.18,-111.48,4036,-6813,-2693,0,-1,0
-164.96,151.18,-111.48,4036,-6816,-2701,0,0,0
-164.96,151.18,-111.47,4031,-6823,-2702,0,0,0
-164.96,151.18,-111.47,4032,-6816,-2702,0,0,0
-164.95,151.18,-111.47,4037,-6812,-2709,0,0,-1
-164.95,151.18,-111.47,4036,-6816,-2693,0,0,0
-164.94,151.18,-111.46,4035,-6819,-2692,-1,-1,0
-164.94,151.18,-111.46,4034,-6812,-2700,0,0,-1
-164.94,151.18,-111.46,4043,-6810,-2691,0,-1,0
-164.95,151.19,-111.47,4038,-6811,-2710,0,-1,0
-164.95,151.18,-111.47,4036,-6818,-2721,0,0,-1
-164.96,151.18,-111.48,4032,-6820,-2716,0,0,-1
-164.94,151.17,-111.48,4037,-6811,-2712,0,0,-1
-164.94,151.17,-111.48,4039,-6808,-2704,0,-1,0
-164.94,151.17,-111.47,4038,-6812,-2701,0,-1,0
-164.94,151.17,-111.47,4035,-6817,-2701,0,0,0
-164.94,151.17,-111.47,4041,-6815,-2703,0,0,-1
-164.94,151.17,-111.47,4040,-6818,-2705,0,-1,0
-164.94,151.17,-111.47,4036,-6819,-2703,-1,-1,0
-164.95,151.18,-111.47,4035,-6819,-2709,-1,-1,0
-164.95,151.18,-111.48,4036,-6819,-2713,0,-1,-1
-164.95,151.18,-111.48,4037,-6818,-2699,0,0,-1
-164.95,151.18,-111.47,4033,-6819,-2688,0,-1,0
-164.95,151.19,-111.48,4039,-6822,-2701,-1,-1,0
-164.95,151.18,-111.48,4038,-6825,-2710,0,0,-1
-164.95,151.18,-111.48,4047,-6821,-2710,-1,-1,-1
-164.94,151.17,-111.49,4041,-6823,-2715,0,0,-1
-164.94,151.17,-111.49,4039,-6820,-2707,-1,-1,0
-164.95,151.18,-111.50,4041,-6817,-2703,0,-1,0
-164.95,151.19,-111.49,4039,-6812,-2719,0,0,0
-164.95,151.19,-111.49,4037,-6813,-2717,0,-1,0
-164.95,151.19,-111.49,4034,-6817,-2713,0,0,0
-164.95,151.19,-111.49,4030,-6817,-2710,0,0,-1
-164.95,151.18,-111.49,4025,-6816,-2704,-1,0,-1
-164.93,151.16,-111.48,4028,-6821,-2694,-1,0,-1
-164.93,151.16,-111.49,4040,-6819,-2712,0,0,-1
-164.93,151.16,-111.49,4036,-6813,-2704,0,-1,0
-164.94,151.16,-111.49,4032,-6805,-2706,-1,-1,0
-164.94,151.17,-111.50,4031,-6807,-2711,-1,-1,-1
-164.94,151.17,-111.51,4030,-6813,-2717,0,-1,-1
-164.94,151.16,-111.51,4038,-6806,-2709,0,-1,-1
-164.94,151.16,-111.52,4044,-6806,-2709,0,-1,0
-164.94,151.16,-111.52,4048,-6811,-2714,0,-1,0
-164.95,151.17,-111.52,4041,-6817,-2710,0,-1,0
-164.94,151.17,-111.51,4040,-6821,-2718,0,-1,-1
-164.94,151.17,-111.52,4037,-6815,-2716,0,-1,0
-164.94,151.16,-111.51,4038,-6806,-2705,-1,0,0
-164.94,151.16,-111.51,4025,-6802,-2691,-1,0,-1
-164.95,151.16,-111.52,4025,-6809,-2717,-1,-1,0
-164.95,151.16,-111.52,4030,-6814,-2719,0,0,-1
-164.95,151.16,-111.53,4025,-6814,-2718,-1,-1,0
-164.96,151.16,-111.53,4032,-6816,-2727,0,0,-1
-164.95,151.15,-111.53,4038,-6814,-2700,0,-1,0
-164.95,151.16,-111.53,4034,-6813,-2702,-1,-1,0
-164.94,151.16,-111.52,4035,-6809,-2701,0,0,0
-164.94,151.16,-111.52,4038,-6805,-2690,-1,-1,-1
-164.94,151.15,-111.52,4044,-6804,-2700,-1,0,-1
-164.95,151.15,-111.53,4044,-6812,-2709,-1,0,0
-164.96,151.15,-111.53,4037,-6814,-2724,0,0,-1
-164.96,151.15,-111.53,4041,-6810,-2721,0,-1,-1
-164.96,151.15,-111.53,4036,-6800,-2714,-1,-1,0
-164.96,151.15,-111.55,4040,-6802,-2711,0,-1,0
-164.96,151.15,-111.53,4038,-6806,-2710,0,0,0
-164.96,151.15,-111.54,4039,-6810,-2703,0,-1,0
-164.96,151.15,-111.54,4024,-6818,-2714,0,-1,-1
-164.96,151.15,-111.55,4032,-6810,-2707,0,-1,-1
-164.96,151.15,-111.55,4040,-6804,-2707,-1,-1,0
-164.97,151.16,-111.56,4043,-6803,-2708,-1,0,-1
-164.97,151.15,-111.56,4044,-6808,-2703,-1,-1,-1
-164.97,151.15,-111.57,4039,-6816,-2715,0,-1,-1
-164.97,151.15,-111.57,4036,-6812,-2717,0,-1,0
-164.97,151.16,-111.57,4035,-6810,-2712,0,-1,0
-164.97,151.15,-111.56,4038,-6811,-2704,-1,0,-1
-164.98,151.15,-111.57,4038,-6811,-2710,-1,0,0
-164.99,151.15,-111.58,4037,-6815,-2724,-1,0,0
-164.99,151.16,-111.58,4032,-6812,-2728,0,-1,0
-165.00,151.16,-111.59,4032,-6809,-2729,0,-1,0
-165.00,151.17,-111.59,4031,-6807,-2727,0,-1,-1
-164.99,151.16,-111.59,4039,-6813,-2723,-1,0,-1
-164.99,151.15,-111.59,4037,-6814,-2734,0,0,0
-164.99,151.16,-111.59,4031,-6807,-2707,-1,-1,0
-165.01,151.18,-111.60,4020,-6814,-2714,0,0,0
-165.00,151.17,-111.59,4027,-6813,-2702,-1,0,-1
-165.00,151.16,-111.60,4039,-6823,-2718,0,0,-1
-165.00,151.16,-111.60,4038,-6817,-2722,0,0,-1
-165.00,151.16,-111.59,4040,-6814,-2711,-1,-1,0
-164.99,151.15,-111.59,4043,-6815,-2721,0,0,0
-164.99,151.16,-111.59,4040,-6816,-2713,0,-1,0
-164.99,151.16,-111.59,4036,-6813,-2714,0,-1,-1
-164.99,151.15,-111.59,4043,-6812,-2726,-1,0,-1
-165.00,151.16,-111.59,4034,-6807,-2734,0,0,0
-165.01,151.17,-111.60,4020,-6799,-2733,0,-1,-1
-165.00,151.16,-111.60,4030,-6805,-2726,-1,-1,-1
-164.99,151.15,-111.60,4047,-6811,-2731,0,0,0
-164.99,151.15,-111.59,4040,-6810,-2721,0,-1,0
-164.99,151.16,-111.59,4030,-6802,-2707,0,-1,0
-164.99,151.17,-111.59,4040,-6798,-2690,-1,-1,-1
-164.99,151.16,-111.60,4051,-6802,-2688,-1,0,0
-165.00,151.16,-111.60,4045,-6808,-2713,-1,0,-1
-165.00,151.15,-111.61,4037,-6812,-2722,0,-1,0
-165.01,151.16,-111.61,4034,-6810,-2725,0,-1,0
-165.00,151.17,-111.60,4033,-6808,-2716,0,-1,0
-165.00,151.17,-111.60,4039,-6804,-2710,0,-1,-1
-165.00,151.17,-111.61,4036,-6809,-2713,-1,-1,0
-165.00,151.17,-111.61,4038,-6800,-2721,0,0,0
-165.00,151.17,-111.61,4037,-6798,-2717,-1,-1,0
-165.01,151.17,-111.62,4037,-6808,-2726,0,0,-1
-165.00,151.17,-111.61,4034,-6807,-2722,0,0,-1
-165.00,151.16,-111.62,4044,-6802,-2730,-1,-1,-1
-164.99,151.15,-111.63,4042,-6802,-2725,0,-1,-1
-164.99,151.15,-111.63,4039,-6806,-2727,-1,-1,0
-165.00,151.16,-111.64,4043,-6805,-2730,0,-1,0
-165.00,151.16,-111.64,4039,-6807,-2726,-1,0,0
-165.01,151.16,-111.64,4037,-6811,-2729,-1,0,0
-165.00,151.15,-111.63,4035,-6808,-2723,0,0,0
-165.00,151.16,-111.63,4036,-6807,-2721,-1,-1,0
-165.01,151.16,-111.64,4039,-6810,-2724,0,-1,0
-165.01,151.16,-111.63,4037,-6806,-2722,0,-1,0
-165.01,151.17,-111.64,4038,-6804,-2721,0,-1,0
-165.02,151.16,-111.64,4043,-6809,-2718,-1,0,-1
-165.03,151.17,-111.66,4044,-6810,-2724,-1,-1,0
-165.03,151.17,-111.66,4037,-6809,-2724,0,-1,0
-165.02,151.17,-111.66,4031,-6807,-2720,0,-1,-1
-165.02,151.17,-111.66,4033,-6811,-2727,0,-1,-1
-165.01,151.16,-111.65,4044,-6813,-2728,0,-1,0
-165.00,151.17,-111.66,4043,-6811,-2732,0,-1,-1
-165.00,151.16,-111.65,4055,-6805,-2727,0,0,-1
-165.00,151.16,-111.66,4052,-6800,-2728,0,-1,-1
-164.99,151.15,-111.65,4044,-6797,-2724,0,0,-1
-164.98,151.15,-111.64,4045,-6804,-2719,-1,0,0
-164.98,151.15,-111.62,4034,-6792,-2717,0,0,0
-164.98,151.15,-111.63,4037,-6806,-2689,-1,-1,0
-164.99,151.15,-111.66,4041,-6816,-2735,-1,-1,-1
-164.98,151.14,-111.67,4041,-6816,-2742,0,0,-1
-164.98,151.14,-111.66,4047,-6812,-2741,0,-1,0
-164.97,151.14,-111.63,4041,-6802,-2716,0,0,0
-164.98,151.15,-111.63,4041,-6800,-2694,-1,-1,0
-164.99,151.15,-111.65,4044,-6813,-2709,-1,0,-1
-165.00,151.15,-111.67,4038,-6824,-2732,-1,-1,-1
-165.00,151.15,-111.68,4034,-6812,-2732,-1,-1,-1
-165.00,151.15,-111.68,4039,-6815,-2733,-1,-1,-1
-165.01,151.15,-111.68,4034,-6817,-2728,0,0,0
-165.01,151.16,-111.67,4038,-6805,-2732,0,-1,0
-165.01,151.16,-111.68,4046,-6811,-2725,0,-1,0
-165.01,151.15,-111.69,4046,-6809,-2728,-1,-1,-1
-165.02,151.16,-111.69,4043,-6806,-2719,-1,-1,-1
-165.02,151.16,-111.70,4043,-6803,-2731,-1,-1,0
-165.02,151.16,-111.70,4042,-6810,-2739,0,0,0
-165.02,151.16,-111.70,4035,-6803,-2737,0,0,0
-165.02,151.17,-111.70,4032,-6809,-2733,0,0,0
-165.02,151.16,-111.69,4032,-6805,-2729,0,0,-1
-165.02,151.16,-111.70,4037,-6802,-2735,-1,-1,-1
-165.02,151.16,-111.70,4039,-6800,-2736,0,0,-1
-165.01,151.16,-111.69,4032,-6798,-2732,0,0,0
-165.01,151.16,-111.69,4038,-6798,-2732,-1,-1,0
-165.01,151.15,-111.68,4034,-6803,-2730,0,0,-1
-165.01,151.15,-111.69,4039,-6811,-2736,-1,-1,-1
-165.00,151.14,-111.69,4040,-6804,-2732,0,0,-1
-165.01,151.15,-111.69,4035,-6803,-2711,-1,-1,0
-165.01,151.15,-111.70,4035,-6806,-2732,0,-1,0
-165.01,151.15,-111.70,4036,-6800,-2725,0,-1,0
-165.02,151.16,-111.71,4035,-6803,-2737,0,-1,0
-165.03,151.17,-111.71,4042,-6807,-2735,0,-1,0
-165.03,151.17,-111.71,4038,-6810,-2733,0,-1,-1
-165.03,151.17,-111.72,4034,-6813,-2733,-1,-1,0
-165.04,151.17,-111.72,4033,-6816,-2732,0,-1,0
-165.03,151.18,-111.71,4032,-6812,-2734,0,0,0
-165.03,151.18,-111.71,4035,-6809,-2747,0,0,0
-165.03,151.18,-111.71,4035,-6807,-2744,0,0,0
-165.04,151.18,-111.70,4035,-6804,-2737,0,0,0
-165.03,151.18,-111.70,4038,-6810,-2738,0,0,-1
-165.03,151.17,-111.70,4033,-6808,-2738,0,0,-1
-165.03,151.18,-111.71,4033,-6806,-2733,0,-1,0
-165.04,151.18,-111.71,4034,-6810,-2735,0,-1,0
-165.04,151.19,-111.72,4031,-6821,-2737,-1,-1,-1
-165.04,151.18,-111.71,4030,-6823,-2730,0,0,-1
-165.04,151.18,-111.71,4036,-6816,-2738,-1,-1,-1
-165.05,151.19,-111.73,4037,-6807,-2733,0,-1,0
-165.05,151.19,-111.72,4032,-6807,-2726,0,-1,0
-165.05,151.20,-111.72,4026,-6807,-2722,0,-1,0
-165.06,151.20,-111.73,4024,-6812,-2735,-1,0,-1
-165.03,151.17,-111.72,4033,-6799,-2729,0,0,-1
-165.04,151.17,-111.74,4037,-6812,-2752,-1,-1,-1
-165.04,151.16,-111.75,4039,-6803,-2740,0,0,-1
-165.05,151.17,-111.75,4037,-6798,-2736,-1,-1,0
-165.05,151.18,-111.76,4043,-6805,-2744,0,0,0
-165.04,151.17,-111.74,4036,-6803,-2729,0,0,0
-165.05,151.17,-111.75,4038,-6802,-2731,-1,-1,0
-165.05,151.18,-111.76,4032,-6807,-2730,-1,-1,-1
-165.05,151.18,-111.76,4032,-6801,-2735,-1,-1,0
-165.06,151.18,-111.76,4030,-6803,-2732,-1,-1,-1
-165.06,151.18,-111.77,4032,-6803,-2735,-1,-1,-1
-165.06,151.18,-111.77,4028,-6800,-2740,0,-1,0
-165.06,151.19,-111.77,4033,-6796,-2741,0,-1,0
-165.07,151.19,-111.77,4037,-6804,-2738,0,-1,0
-165.07,151.19,-111.77,4035,-6810,-2746,0,0,-1
-165.06,151.18,-111.77,4035,-6799,-2733,-1,0,-1
-165.06,151.17,-111.78,4034,-6802,-2738,-1,0,-1
-165.05,151.17,-111.77,4030,-6803,-2729,0,0,-1
-165.05,151.17,-111.77,4028,-6802,-2725,-1,-1,0
-165.06,151.18,-111.77,4027,-6808,-2725,0,-1,0
-165.07,151.18,-111.78,4027,-6806,-2730,-1,-1,0
-165.08,151.19,-111.78,4026,-6806,-2739,-1,-1,-1
-165.07,151.18,-111.80,4031,-6808,-2750,0,-1,-1
-165.07,151.18,-111.80,4039,-6807,-2739,0,-1,-1
-165.07,151.18,-111.80,4042,-6804,-2737,0,-1,0
-165.07,151.18,-111.80,4040,-6804,-2730,-1,-1,0
-165.07,151.18,-111.80,4043,-6807,-2739,0,-1,-1
-165.07,151.18,-111.80,4035,-6801,-2743,0,0,-1
-165.07,151.18,-111.80,4037,-6792,-2732,-1,-1,0
-165.08,151.18,-111.81,4040,-6793,-2747,-1,0,-1
-165.08,151.18,-111.81,4037,-6797,-2750,0,-1,-1
-165.07,151.17,-111.81,4041,-6801,-2751,0,0,-1
-165.07,151.17,-111.81,4044,-6791,-2734,0,-1,-1
-165.08,151.17,-111.82,4037,-6793,-2737,-1,-1,0
-165.08,151.17,-111.82,4039,-6798,-2748,0,0,-1
-165.08,151.17,-111.82,4032,-6792,-2737,-1,-1,0
-165.08,151.17,-111.82,4034,-6795,-2746,0,0,-1
-165.08,151.17,-111.83,4037,-6790,-2737,-1,0,-1
-165.09,151.17,-111.83,4039,-6794,-2734,-1,-1,0
-165.09,151.17,-111.83,4044,-6806,-2733,-1,-1,-1
-165.08,151.17,-111.83,4044,-6803,-2735,-1,-1,-1
-165.09,151.17,-111.84,4042,-6801,-2737,-1,-1,0
-165.09,151.17,-111.84,4038,-6804,-2745,0,-1,0
-165.09,151.17,-111.84,4035,-6799,-2754,0,-1,-1
-165.09,151.17,-111.84,4037,-6800,-2740,-1,-1,-1
-165.09,151.17,-111.85,4043,-6804,-2736,-1,-1,0
-165.09,151.18,-111.85,4039,-6803,-2745,-1,-1,-1
-165.09,151.17,-111.85,4041,-6802,-2737,0,0,-1
-165.09,151.17,-111.85,4030,-6795,-2741,0,-1,0
-165.09,151.18,-111.85,4033,-6797,-2730,-1,0,0
-165.10,151.17,-111.85,4036,-6798,-2731,-1,0,-1
-165.10,151.17,-111.86,4042,-6804,-2741,-1,0,-1
-165.10,151.17,-111.86,4028,-6787,-2747,-1,0,0
-165.12,151.18,-111.87,4026,-6790,-2737,-1,-1,0
-165.13,151.18,-111.88,4026,-6796,-2755,-1,0,0
-165.12,151.17,-111.88,4029,-6801,-2742,0,0,-1
-165.12,151.17,-111.88,4033,-6803,-2752,-1,-1,-1
-165.12,151.17,-111.88,4030,-6795,-2743,0,-1,-1
-165.13,151.18,-111.89,4034,-6801,-2741,-1,-1,0
-165.14,151.18,-111.89,4038,-6802,-2751,0,-1,0
-165.14,151.19,-111.90,4040,-6802,-2753,-1,-1,-1
-165.13,151.18,-111.90,4041,-6801,-2758,-1,0,-1
-165.14,151.17,-111.91,4035,-6795,-2762,0,0,-1
-165.13,151.17,-111.90,4028,-6787,-2746,0,0,0
-165.13,151.17,-111.91,4033,-6787,-2748,0,0,0
-165.13,151.17,-111.90,4031,-6796,-2740,0,0,-1
-165.13,151.17,-111.90,4033,-6795,-2749,0,0,0
-165.12,151.17,-111.88,4031,-6798,-2737,0,0,0
-165.12,151.16,-111.87,4037,-6788,-2725,-1,1,0
-165.12,151.15,-111.88,4031,-6792,-2736,-1,0,-1
-165.12,151.14,-111.89,4038,-6797,-2757,0,0,-1
-165.12,151.14,-111.89,4040,-6790,-2741,0,-1,-1
-165.13,151.15,-111.89,4038,-6800,-2756,-1,-1,0
-165.13,151.15,-111.90,4039,-6800,-2756,0,-1,-1
-165.14,151.16,-111.91,4033,-6802,-2747,-1,-1,0
-165.15,151.16,-111.92,4039,-6810,-2754,-1,-1,-1
-165.14,151.16,-111.92,4038,-6809,-2755,-1,-1,-1
-165.14,151.16,-111.92,4031,-6805,-2755,0,0,0
-165.15,151.17,-111.93,4039,-6799,-2742,-1,-1,0
-165.15,151.17,-111.93,4040,-6799,-2749,0,0,-1
-165.14,151.16,-111.91,4039,-6801,-2739,-1,0,-1
-165.14,151.16,-111.92,4037,-6796,-2758,0,0,-1
-165.13,151.16,-111.91,4038,-6798,-2745,0,0,0
-165.15,151.17,-111.91,4033,-6798,-2750,-1,-1,0
-165.15,151.17,-111.91,4031,-6799,-2740,0,0,-1
-165.14,151.16,-111.91,4031,-6804,-2737,-1,0,-1
-165.15,151.17,-111.92,4034,-6803,-2752,-1,-1,-1
-165.15,151.16,-111.92,4032,-6796,-2749,0,0,-1
-165.15,151.17,-111.93,4032,-6792,-2738,-1,-1,0
-165.15,151.17,-111.93,4030,-6792,-2745,-1,-1,-1
-165.15,151.17,-111.93,4022,-6790,-2744,-1,0,-1
-165.16,151.17,-111.94,4037,-6790,-2747,-1,-1,0
-165.16,151.17,-111.94,4041,-6791,-2746,0,0,0
-165.16,151.17,-111.94,4032,-6795,-2745,0,-1,-1
-165.16,151.17,-111.94,4033,-6800,-2749,0,0,-1
-165.16,151.17,-111.94,4035,-6795,-2750,0,-1,0
-165.16,151.17,-111.94,4037,-6799,-2761,0,-1,-1
-165.16,151.17,-111.94,4036,-6794,-2760,0,0,-1
-165.15,151.16,-111.94,4032,-6798,-2751,0,0,-1
-165.16,151.17,-111.94,4032,-6798,-2748,0,-1,0
-165.16,151.17,-111.94,4040,-6794,-2743,-1,0,0
-165.17,151.17,-111.94,4045,-6799,-2754,-1,0,0
-165.18,151.17,-111.95,4030,-6798,-2766,0,0,-1
-165.18,151.18,-111.95,4031,-6801,-2760,-1,-1,0
-165.18,151.17,-111.94,4028,-6800,-2761,0,0,-1
-165.18,151.17,-111.94,4025,-6802,-2746,-1,-1,-1
-165.19,151.17,-111.96,4028,-6804,-2761,-1,-1,-1
-165.19,151.17,-111.96,4035,-6799,-2745,-1,-1,0
-165.19,151.18,-111.96,4036,-6807,-2746,-1,-1,0
-165.19,151.18,-111.95,4038,-6802,-2747,0,0,0
-165.19,151.18,-111.96,4035,-6801,-2744,-1,-1,-1
-165.19,151.17,-111.97,4026,-6803,-2741,0,0,-1
-165.20,151.18,-111.97,4035,-6800,-2752,0,0,-1
-165.19,151.17,-111.97,4034,-6795,-2743,-1,-1,0
-165.19,151.17,-111.98,4031,-6794,-2753,-1,0,-1
-165.20,151.17,-111.99,4036,-6795,-2773,0,-1,-1
-165.19,151.17,-111.98,4039,-6790,-2761,0,0,0
-165.20,151.17,-111.98,4035,-6785,-2746,-1,1,0
-165.20,151.14,-111.98,4024,-6791,-2753,-1,1,-1
-165.20,151.13,-111.99,4039,-6796,-2769,-1,0,-1
-165.21,151.13,-111.99,4043,-6802,-2778,0,0,0
-165.21,151.13,-111.99,4044,-6800,-2774,0,-1,0
-165.21,151.15,-111.98,4047,-6795,-2746,0,-1,0
-165.21,151.15,-111.99,4054,-6795,-2732,-1,-1,-1
-165.20,151.14,-111.98,4048,-6790,-2727,-1,0,-1
-165.22,151.14,-111.99,4041,-6792,-2736,-1,0,-1
-165.23,151.14,-112.00,4040,-6798,-2769,-1,-1,0
-165.22,151.14,-112.00,4040,-6799,-2753,0,-1,0
-165.22,151.14,-112.01,4046,-6793,-2751,0,0,0
-165.22,151.14,-112.00,4052,-6791,-2734,-1,-1,0
-165.22,151.14,-112.00,4043,-6791,-2745,-1,0,-1
-165.23,151.14,-112.01,4047,-6785,-2757,-1,0,0
-165.23,151.13,-112.02,4046,-6797,-2767,-1,0,-1
-165.23,151.13,-112.01,4037,-6784,-2759,-1,0,-1
-165.23,151.13,-112.01,4037,-6785,-2759,0,-1,0
-165.23,151.13,-112.01,4037,-6789,-2756,0,0,-1
-165.23,151.13,-112.01,4036,-6792,-2755,0,-1,0
-165.23,151.14,-112.02,4035,-6788,-2762,-1,0,-1
-165.23,151.13,-112.02,4032,-6793,-2769,-1,0,-1
-165.22,151.12,-112.02,4037,-6786,-2763,0,0,-1
-165.23,151.12,-112.02,4039,-6786,-2762,-1,0,-1
-165.22,151.12,-112.02,4037,-6787,-2761,0,0,-1
-165.22,151.12,-112.02,4042,-6789,-2768,0,0,-1
-165.22,151.11,-112.02,4042,-6782,-2760,0,-1,-1
-165.22,151.11,-112.02,4041,-6787,-2761,0,0,-1
-165.20,151.10,-112.02,4045,-6793,-2759,0,0,-1
-165.19,151.10,-112.01,4051,-6793,-2752,0,0,-1
-165.18,151.10,-112.00,4049,-6783,-2742,0,-1,0
-165.19,151.10,-112.00,4051,-6776,-2738,-1,-1,0
-165.19,151.10,-112.01,4046,-6781,-2752,-1,0,-1
-165.18,151.09,-112.01,4054,-6791,-2759,-1,0,-1
-165.18,151.08,-112.00,4048,-6794,-2760,0,0,-1
-165.18,151.08,-112.00,4049,-6786,-2761,-1,-1,-1
-165.17,151.08,-112.00,4052,-6785,-2751,0,0,-1
-165.17,151.08,-112.00,4051,-6787,-2739,-1,-1,-1
-165.17,151.07,-112.00,4049,-6789,-2743,0,-1,-1
-165.18,151.07,-112.00,4052,-6793,-2747,-1,-1,0
-165.18,151.08,-112.01,4049,-6789,-2753,0,0,-1
-165.18,151.07,-112.00,4054,-6780,-2754,0,0,-1
-165.17,151.07,-112.01,4058,-6784,-2750,0,-1,-1
-165.17,151.07,-112.01,4052,-6787,-2757,0,-1,-1
-165.17,151.07,-112.01,4045,-6785,-2752,0,-1,0
-165.17,151.07,-112.01,4044,-6790,-2747,-1,-1,0
-165.17,151.08,-112.02,4040,-6786,-2749,0,-1,0
-165.18,151.09,-112.01,4043,-6785,-2759,0,-1,0
-165.18,151.08,-112.01,4040,-6783,-2752,0,0,-1
-165.16,151.07,-112.01,4047,-6789,-2748,-1,0,-1
-165.16,151.05,-112.01,4054,-6794,-2760,-1,0,-1
-165.16,151.05,-112.00,4052,-6790,-2759,0,0,0
-165.17,151.05,-112.01,4042,-6785,-2754,0,-1,0
-165.17,151.06,-112.01,4044,-6782,-2749,0,-1,-1
-165.17,151.06,-112.01,4053,-6787,-2743,-1,0,-1
-165.17,151.06,-112.01,4053,-6787,-2751,-1,0,-1
-165.17,151.05,-112.02,4052,-6779,-2763,-1,0,-1
-165.17,151.04,-112.03,4056,-6786,-2767,-1,-1,-1
-165.16,151.04,-112.03,4061,-6789,-2762,-1,-1,-1
-165.17,151.04,-112.04,4052,-6788,-2763,-1,-1,-1
-165.17,151.04,-112.05,4055,-6783,-2765,0,-1,0
-165.17,151.04,-112.05,4055,-6786,-2767,0,-1,0
-165.17,151.04,-112.05,4054,-6786,-2767,0,0,-1
-165.17,151.04,-112.05,4041,-6780,-2764,0,0,0
-165.17,151.05,-112.04,4042,-6778,-2759,-1,-1,0
-165.19,151.06,-112.05,4040,-6784,-2767,0,0,0
-165.17,151.05,-112.04,4043,-6783,-2744,0,0,-1
-165.17,151.04,-112.04,4050,-6788,-2755,-1,0,-1
-165.17,151.03,-112.04,4051,-6781,-2758,-1,0,0
-165.18,151.04,-112.05,4043,-6774,-2767,-1,-1,-1
-165.17,151.03,-112.05,4055,-6782,-2771,-1,-1,-1
-165.17,151.02,-112.06,4065,-6780,-2765,0,0,0
-165.17,151.03,-112.05,4055,-6782,-2766,0,-1,0
-165.18,151.04,-112.05,4049,-6772,-2759,0,-1,0
-165.18,151.04,-112.06,4044,-6769,-2753,-1,-1,-1
-165.19,151.04,-112.07,4057,-6784,-2742,-1,0,-1
-165.19,151.03,-112.07,4049,-6792,-2748,-1,0,-1
-165.19,151.02,-112.07,4056,-6788,-2765,-1,0,0
-165.19,151.02,-112.07,4054,-6775,-2773,0,-1,-1
-165.19,151.03,-112.08,4060,-6777,-2763,0,-1,-1
-165.19,151.03,-112.08,4058,-6779,-2760,-1,-1,0
-165.19,151.03,-112.09,4053,-6778,-2762,-1,-1,-1
-165.19,151.03,-112.09,4050,-6774,-2752,-1,-1,-1
-165.19,151.03,-112.09,4053,-6770,-2759,0,-1,0
-165.19,151.03,-112.09,4059,-6770,-2761,0,-1,0
-165.20,151.02,-112.09,4061,-6771,-2761,-1,0,-1
-165.19,151.02,-112.10,4059,-6774,-2767,-1,0,-1
-165.19,151.01,-112.11,4065,-6775,-2778,-1,0,-1
-165.19,151.01,-112.11,4060,-6782,-2783,0,-1,0
-165.20,151.02,-112.11,4061,-6778,-2773,0,-1,0
-165.21,151.03,-112.12,4057,-6774,-2771,0,-1,0
-165.21,151.02,-112.12,4054,-6771,-2777,0,0,-1
-165.21,151.02,-112.12,4054,-6777,-2771,-1,-1,0
-165.22,151.02,-112.13,4054,-6777,-2787,0,0,-1
-165.21,151.01,-112.12,4056,-6779,-2777,-1,-1,-1
-165.22,151.02,-112.13,4052,-6779,-2778,0,-1,0
-165.21,151.02,-112.12,4053,-6775,-2762,0,-1,0
-165.21,151.02,-112.12,4049,-6776,-2752,-1,-1,-1
-165.22,151.02,-112.13,4052,-6776,-2761,-1,0,-1
-165.22,151.01,-112.14,4060,-6779,-2772,-1,0,-1
-165.21,151.00,-112.14,4066,-6780,-2794,0,0,-1
-165.22,151.01,-112.15,4062,-6781,-2793,0,-1,0
-165.23,151.02,-112.15,4055,-6777,-2784,0,-1,0
-165.23,151.03,-112.15,4050,-6775,-2776,-1,-1,-1
-165.23,151.02,-112.16,4056,-6783,-2767,-1,0,-1
-165.23,151.01,-112.15,4058,-6779,-2769,-1,0,-1
-165.24,151.01,-112.16,4045,-6782,-2767,-1,-1,0
-165.24,151.02,-112.16,4044,-6785,-2773,0,-1,-1
-165.24,151.02,-112.16,4055,-6785,-2770,0,-1,0
-165.24,151.02,-112.16,4050,-6777,-2762,-1,-1,-1
-165.23,151.02,-112.16,4043,-6772,-2765,-1,0,-1
-165.24,151.02,-112.17,4053,-6777,-2765,-1,0,0
-165.24,151.02,-112.17,4051,-6773,-2762,-1,-1,0
-165.25,151.03,-112.17,4051,-6773,-2764,-1,-1,-1
-165.24,151.02,-112.17,4067,-6782,-2770,-1,0,-1
-165.24,151.01,-112.17,4065,-6780,-2766,0,0,0
-165.24,151.02,-112.17,4052,-6765,-2769,0,-1,0
-165.24,151.03,-112.17,4048,-6768,-2751,-1,-1,-1
-165.25,151.03,-112.18,4055,-6776,-2770,-1,0,-1
-165.25,151.02,-112.18,4060,-6780,-2783,-1,0,-1
-165.26,151.03,-112.19,4053,-6788,-2798,0,0,0
-165.26,151.03,-112.18,4044,-6779,-2789,0,-1,0
-165.27,151.04,-112.19,4042,-6770,-2774,-1,-1,-1
-165.27,151.03,-112.20,4054,-6772,-2775,-1,-1,-1
-165.27,151.03,-112.20,4062,-6776,-2781,0,0,-1
-165.27,151.03,-112.20,4057,-6775,-2775,-1,-1,-1
-165.27,151.04,-112.20,4049,-6784,-2784,0,0,0
-165.28,151.04,-112.20,4054,-6781,-2777,0,-1,0
-165.27,151.04,-112.21,4051,-6775,-2775,-1,-1,-1
-165.28,151.04,-112.22,4055,-6778,-2778,-1,-1,-1
-165.28,151.04,-112.21,4050,-6779,-2780,0,0,-1
-165.28,151.04,-112.22,4041,-6772,-2782,-1,-1,0
-165.29,151.04,-112.23,4044,-6771,-2786,0,-1,-1
-165.28,151.03,-112.22,4051,-6769,-2782,0,0,-1
-165.28,151.04,-112.22,4054,-6775,-2777,-1,-1,0
-165.28,151.04,-112.23,4058,-6768,-2792,-1,0,0
-165.29,151.04,-112.23,4054,-6773,-2789,-1,0,0
-165.30,151.04,-112.23,4047,-6775,-2791,-1,0,-1
-165.30,151.04,-112.23,4049,-6778,-2791,0,-1,-1
-165.30,151.04,-112.23,4050,-6783,-2791,0,-1,0
-165.29,151.04,-112.23,4051,-6774,-2779,0,-1,-1
-165.31,151.05,-112.24,4051,-6769,-2785,-1,-1,-1
-165.30,151.04,-112.25,4056,-6773,-2793,0,0,-1
-165.30,151.04,-112.25,4052,-6775,-2784,-1,-1,-1
-165.30,151.04,-112.25,4053,-6780,-2770,0,-1,-1
-165.30,151.04,-112.25,4052,-6775,-2772,-1,-1,0
-165.31,151.05,-112.26,4055,-6772,-2781,-1,-1,-1
-165.31,151.05,-112.26,4058,-6767,-2783,0,-1,-1
-165.30,151.04,-112.26,4059,-6771,-2785,-1,0,-1
-165.31,151.05,-112.26,4056,-6774,-2789,-1,-1,0
-165.31,151.05,-112.26,4056,-6760,-2797,0,-1,0
-165.32,151.06,-112.26,4054,-6764,-2786,-1,-1,0
-165.32,151.06,-112.27,4052,-6764,-2787,-1,-1,-1
-165.32,151.05,-112.26,4053,-6769,-2782,0,0,0
-165.32,151.06,-112.26,4045,-6770,-2776,-1,-1,0
-165.33,151.06,-112.28,4050,-6775,-2791,-1,-1,-1
-165.33,151.06,-112.28,4043,-6779,-2788,-1,0,-1
-165.33,151.06,-112.28,4050,-6776,-2789,-1,-1,-1
-165.34,151.06,-112.29,4053,-6770,-2795,-1,-1,0
-165.34,151.06,-112.29,4046,-6767,-2793,0,0,0
-165.35,151.07,-112.30,4046,-6774,-2793,-1,-1,0
-165.35,151.07,-112.30,4045,-6777,-2793,-1,-1,-1
-165.35,151.07,-112.30,4056,-6782,-2785,0,0,-1
-165.35,151.07,-112.30,4055,-6780,-2786,-1,-1,-1
-165.34,151.06,-112.29,4058,-6774,-2781,0,0,-1
-165.34,151.07,-112.30,4055,-6774,-2783,-1,-1,0
-165.35,151.07,-112.30,4061,-6776,-2792,0,-1,0
-165.35,151.07,-112.30,4056,-6771,-2782,-1,0,0
-165.36,151.08,-112.31,4048,-6777,-2796,-1,-1,-1
-165.36,151.07,-112.31,4039,-6771,-2794,0,0,-1
-165.36,151.08,-112.31,4041,-6774,-2790,-1,-1,-1
-165.36,151.08,-112.31,4045,-6773,-2800,-1,-1,-1
-165.36,151.07,-112.32,4042,-6770,-2788,0,-1,-1
-165.37,151.08,-112.33,4052,-6778,-2801,-1,-1,0
-165.36,151.07,-112.32,4055,-6772,-2800,0,0,-1
-165.35,151.07,-112.32,4052,-6772,-2793,-1,0,-1
-165.35,151.07,-112.32,4054,-6768,-2789,-1,-1,-1
-165.36,151.06,-112.32,4056,-6768,-2788,-1,-1,-1
-165.35,151.06,-112.32,4055,-6763,-2793,0,0,-1
-165.34,151.05,-112.32,4049,-6761,-2788,0,0,-1
-165.34,151.05,-112.30,4050,-6766,-2795,0,0,-1
-165.33,151.04,-112.30,4056,-6765,-2788,0,0,0
-165.33,151.04,-112.29,4057,-6766,-2793,0,0,0
-165.33,151.05,-112.29,4050,-6765,-2802,0,0,0
-165.33,151.05,-112.28,4047,-6758,-2788,-1,0,0
-165.32,151.04,-112.28,4041,-6764,-2787,0,0,-1
-165.32,151.02,-112.26,4042,-6769,-2785,-1,0,-1
-165.30,151.01,-112.27,4054,-6769,-2805,0,0,-1
-165.31,151.02,-112.26,4053,-6768,-2801,0,-1,0
-165.31,151.03,-112.27,4056,-6765,-2781,-1,-1,0
-165.31,151.03,-112.27,4048,-6768,-2779,-1,-1,-1
-165.31,151.02,-112.28,4058,-6766,-2787,-1,-1,-1
-165.31,151.02,-112.29,4057,-6774,-2784,-1,-1,-1
-165.31,151.02,-112.29,4057,-6767,-2775,0,0,-1
-165.31,151.02,-112.29,4054,-6764,-2773,0,-1,0
-165.32,151.03,-112.30,4058,-6769,-2786,0,-1,0
-165.32,151.03,-112.29,4056,-6770,-2783,0,-1,0
-165.32,151.03,-112.29,4055,-6763,-2777,-1,0,0
-165.31,151.03,-112.28,4051,-6762,-2779,-1,0,-1
-165.32,151.02,-112.28,4051,-6767,-2784,-1,0,-1
-165.31,151.02,-112.28,4056,-6771,-2788,0,0,-1
-165.32,151.02,-112.29,4059,-6772,-2785,-1,0,0
-165.32,151.02,-112.29,4054,-6766,-2789,-1,0,-1
-165.32,151.02,-112.28,4053,-6768,-2783,-1,-1,-1
-165.32,151.02,-112.29,4054,-6777,-2784,-1,-1,0
-165.32,151.02,-112.29,4054,-6775,-2778,0,-1,-1
-165.32,151.02,-112.29,4059,-6774,-2786,-1,-1,-1
-165.32,151.01,-112.30,4054,-6769,-2784,0,0,-1
-165.32,151.01,-112.30,4048,-6761,-2789,0,-1,0
-165.33,151.02,-112.30,4054,-6771,-2784,-1,-1,-1
-165.32,151.01,-112.30,4059,-6781,-2798,0,0,-1
-165.30,151.00,-112.30,4063,-6775,-2788,0,0,-1
-165.30,151.00,-112.30,4062,-6769,-2783,-1,-1,-1
-165.31,151.00,-112.30,4059,-6767,-2786,0,-1,0
-165.32,151.02,-112.30,4060,-6772,-2791,0,-1,0
-165.31,151.01,-112.30,4057,-6776,-2796,0,0,-1
-165.30,151.00,-112.29,4049,-6773,-2800,-1,0,-1
-165.31,151.00,-112.30,4051,-6776,-2801,0,0,-1
-165.31,150.99,-112.29,4054,-6766,-2786,0,0,-1
-165.31,151.00,-112.30,4066,-6768,-2782,-1,-1,0
-165.31,151.00,-112.30,4064,-6768,-2791,0,0,-1
-165.31,151.00,-112.30,4058,-6762,-2787,0,0,-1
-165.31,151.00,-112.30,4056,-6765,-2787,-1,0,-1
-165.31,151.00,-112.30,4055,-6768,-2782,0,-1,0
-165.31,151.00,-112.30,4049,-6768,-2786,-1,-1,-1
-165.31,151.00,-112.31,4061,-6769,-2785,0,-1,-1
-165.30,150.99,-112.31,4057,-6765,-2781,0,-1,-1
-165.30,150.99,-112.32,4056,-6766,-2788,-1,-1,-1
-165.31,151.00,-112.31,4059,-6765,-2782,0,-1,0
-165.31,151.00,-112.31,4061,-6765,-2790,0,-1,0
-165.30,151.00,-112.31,4059,-6770,-2790,0,0,0
-165.30,151.00,-112.30,4062,-6770,-2777,-1,0,-1
-165.31,150.99,-112.31,4058,-6773,-2798,-1,0,-1
-165.29,150.98,-112.30,4057,-6774,-2798,0,0,-1
-165.29,150.98,-112.29,4052,-6763,-2788,0,-1,0
-165.30,150.99,-112.30,4055,-6767,-2783,-1,-1,0
-165.30,150.98,-112.29,4056,-6768,-2785,0,0,-1
-165.29,150.98,-112.29,4056,-6770,-2790,-1,0,0
-165.29,150.98,-112.30,4052,-6767,-2788,-1,-1,-1
-165.30,150.97,-112.31,4054,-6758,-2774,-1,-1,0
-165.30,150.98,-112.32,4055,-6764,-2789,0,-1,0
-165.30,150.98,-112.32,4059,-6759,-2790,0,-1,-1
-165.31,150.99,-112.32,4059,-6765,-2798,0,-1,0
-165.31,150.99,-112.32,4056,-6769,-2793,-1,-1,-1
-165.31,150.99,-112.32,4058,-6758,-2788,0,-1,0
-165.31,150.99,-112.33,4061,-6764,-2789,-1,-1,0
-165.31,150.99,-112.33,4062,-6765,-2792,0,0,0
-165.31,150.99,-112.33,4057,-6766,-2800,0,-1,0
-165.32,151.00,-112.33,4060,-6770,-2798,0,0,0
-165.31,150.99,-112.32,4057,-6771,-2797,0,0,0
-165.31,150.99,-112.32,4053,-6767,-2786,-1,0,-1
-165.31,150.98,-112.33,4059,-6769,-2777,-1,0,-1
-165.32,150.98,-112.33,4055,-6769,-2804,-1,0,-1
-165.31,150.97,-112.33,4052,-6762,-2791,0,0,-1
-165.32,150.98,-112.33,4058,-6759,-2785,0,-1,0
-165.32,150.99,-112.34,4063,-6754,-2783,0,-1,0
-165.32,150.98,-112.33,4057,-6759,-2776,-1,0,-1
-165.31,150.97,-112.34,4058,-6764,-2779,-1,0,-1
-165.32,150.97,-112.34,4058,-6769,-2800,-1,0,0
-165.32,150.97,-112.34,4051,-6769,-2801,0,-1,0
-165.32,150.97,-112.34,4057,-6756,-2797,-1,-1,0
-165.33,150.98,-112.35,4058,-6755,-2799,-1,-1,0
-165.33,150.98,-112.35,4056,-6758,-2791,0,-1,0
-165.33,150.98,-112.35,4057,-6762,-2788,0,-1,0
-165.34,150.98,-112.36,4064,-6765,-2791,-1,-1,-1
-165.34,150.99,-112.36,4062,-6759,-2790,-1,-1,-1
-165.34,150.99,-112.36,4058,-6761,-2781,0,-1,0
-165.35,150.99,-112.37,4057,-6770,-2799,-1,-1,0
-165.34,150.99,-112.36,4050,-6769,-2798,0,0,-1
-165.34,150.99,-112.36,4052,-6766,-2784,-1,-1,-1
-165.35,151.00,-112.36,4052,-6763,-2786,-1,-1,0
-165.35,151.00,-112.36,4059,-6764,-2787,-1,-1,0
-165.35,151.00,-112.37,4057,-6766,-2797,0,0,-1
-165.34,150.99,-112.36,4067,-6765,-2787,-1,0,0
-165.34,150.99,-112.36,4065,-6765,-2794,-1,0,-1
-165.34,150.99,-112.36,4062,-6766,-2803,0,-1,0
-165.35,150.99,-112.36,4070,-6761,-2801,0,-1,0
-165.35,151.00,-112.36,4055,-6764,-2797,-1,-1,0
-165.35,150.99,-112.37,4054,-6761,-2791,-1,-1,-1
-165.36,151.00,-112.39,4060,-6761,-2806,-1,-1,0
-165.36,151.00,-112.39,4057,-6758,-2812,0,-1,0
-165.37,151.01,-112.39,4061,-6757,-2810,-1,-1,0
-165.37,151.01,-112.40,4062,-6757,-2814,-1,-1,-1
-165.37,151.01,-112.41,4057,-6755,-2812,-1,-1,-1
-165.38,151.00,-112.41,4062,-6758,-2806,-1,-1,0
-165.38,151.00,-112.41,4063,-6762,-2805,0,-1,0
-165.37,151.01,-112.41,4054,-6762,-2794,0,0,0
-165.38,151.01,-112.40,4053,-6769,-2783,-1,0,0
-165.38,151.01,-112.40,4052,-6768,-2794,-1,0,-1
-165.38,151.01,-112.41,4058,-6771,-2789,-1,-1,-1
-165.38,151.01,-112.41,4056,-6771,-2796,-1,0,0
-165.38,151.01,-112.41,4056,-6767,-2786,-1,-1,0
-165.39,151.02,-112.42,4059,-6769,-2800,-1,-1,0
-165.39,151.01,-112.41,4048,-6755,-2803,0,0,0
-165.39,151.02,-112.42,4054,-6761,-2806,-1,-1,-1
-165.40,151.02,-112.42,4052,-6762,-2799,0,0,-1
-165.39,151.01,-112.43,4058,-6756,-2804,-1,0,-1
-165.39,151.01,-112.43,4062,-6750,-2797,-1,-1,0
-165.40,151.02,-112.43,4057,-6756,-2799,0,-1,0
-165.40,151.02,-112.43,4063,-6760,-2800,0,0,0
-165.40,151.02,-112.43,4057,-6763,-2806,-1,0,0
-165.41,151.03,-112.43,4053,-6759,-2808,-1,0,0
-165.41,151.03,-112.44,4045,-6757,-2808,0,-1,0
-165.41,151.03,-112.44,4053,-6753,-2801,-1,-1,0
-165.42,151.03,-112.44,4057,-6766,-2807,-1,-1,0
-165.42,151.04,-112.45,4059,-6763,-2808,0,-1,0
-165.42,151.04,-112.45,4064,-6762,-2797,0,0,-1
-165.41,151.02,-112.44,4066,-6760,-2793,0,0,-1
-165.41,151.03,-112.45,4057,-6761,-2793,-1,-1,0
-165.41,151.03,-112.45,4066,-6755,-2795,0,-1,0
-165.41,151.03,-112.45,4063,-6764,-2807,0,0,-1
-165.41,151.02,-112.45,4065,-6770,-2807,0,0,0
-165.40,151.01,-112.45,4056,-6763,-2803,-1,0,-1
-165.40,151.01,-112.45,4059,-6765,-2795,-1,0,-1
-165.40,151.00,-112.46,4063,-6757,-2804,0,0,-1
-165.40,151.01,-112.45,4058,-6760,-2798,-1,-1,0
-165.40,151.01,-112.45,4063,-6760,-2818,0,0,0
-165.39,151.00,-112.44,4071,-6760,-2801,-1,0,0
-165.40,151.01,-112.44,4062,-6765,-2817,0,0,0
-165.40,151.01,-112.44,4053,-6760,-2809,0,-1,0
-165.40,151.02,-112.44,4052,-6756,-2787,-1,-1,0
-165.40,151.02,-112.44,4050,-6756,-2784,-1,-1,0
-165.42,151.03,-112.45,4054,-6757,-2783,-1,-1,0
-165.42,151.02,-112.46,4057,-6768,-2801,-1,0,-1
-165.42,151.02,-112.47,4057,-6756,-2818,-1,-1,-1
-165.42,151.02,-112.47,4054,-6755,-2813,-1,-1,0
-165.43,151.02,-112.48,4059,-6757,-2815,-1,-1,0
-165.43,151.02,-112.48,4061,-6758,-2812,0,-1,0
-165.43,151.02,-112.48,4056,-6755,-2819,0,0,0
-165.43,151.02,-112.48,4060,-6761,-2812,-1,0,-1
-165.42,151.01,-112.48,4061,-6763,-2800,0,0,-1
-165.41,151.01,-112.47,4065,-6757,-2802,0,0,-1
-165.41,151.00,-112.47,4067,-6758,-2794,0,0,0
-165.40,151.00,-112.46,4063,-6764,-2795,0,0,0
-165.39,150.99,-112.45,4062,-6762,-2805,0,0,-1
-165.39,150.99,-112.46,4067,-6759,-2806,0,0,-1
-165.39,150.98,-112.45,4055,-6762,-2810,0,0,-1
-165.38,150.98,-112.45,4053,-6764,-2800,0,0,-1
-165.38,150.98,-112.45,4063,-6761,-2806,-1,-1,0
-165.38,150.98,-112.45,4061,-6759,-2824,0,0,-1
-165.38,150.98,-112.44,4055,-6756,-2802,0,0,0
-165.39,150.98,-112.44,4059,-6756,-2806,-1,-1,0
-165.39,150.98,-112.44,4060,-6756,-2794,0,-1,0
-165.38,150.97,-112.45,4067,-6761,-2803,-1,-1,-1
-165.38,150.97,-112.45,4068,-6758,-2812,0,0,-1
-165.38,150.97,-112.45,4072,-6754,-2802,0,-1,0
-165.38,150.98,-112.45,4077,-6758,-2807,0,-1,0
-165.38,150.98,-112.44,4071,-6759,-2810,0,0,0
-165.38,150.98,-112.44,4060,-6759,-2815,0,-1,0
-165.39,150.99,-112.45,4056,-6757,-2821,0,-1,-1
-165.39,150.99,-112.45,4059,-6758,-2805,-1,0,-1
-165.39,150.99,-112.45,4061,-6758,-2804,-1,-1,0
-165.39,150.99,-112.45,4065,-6759,-2800,-1,-1,0
-165.40,150.99,-112.46,4069,-6759,-2807,0,0,0
-165.39,150.99,-112.45,4069,-6756,-2798,0,0,0
-165.39,150.99,-112.45,4072,-6764,-2793,0,-1,0
-165.39,150.99,-112.45,4064,-6765,-2786,-1,-1,0
-165.39,150.99,-112.45,4068,-6758,-2791,-1,-1,0
-165.39,150.99,-112.45,4072,-6756,-2803,0,-1,-1
-165.39,150.99,-112.45,4067,-6757,-2814,0,0,-1
-165.39,150.99,-112.45,4057,-6758,-2806,0,-1,0
-165.40,151.00,-112.46,4061,-6757,-2804,0,-1,0
-165.40,151.00,-112.46,4061,-6759,-2806,0,0,0
-165.40,151.00,-112.45,4062,-6754,-2806,0,0,0
-165.40,151.00,-112.45,4067,-6761,-2810,0,-1,0
-165.39,150.99,-112.44,4065,-6763,-2828,0,0,-1
-165.38,150.99,-112.43,4066,-6755,-2808,-1,0,-1
-165.37,150.98,-112.43,4064,-6761,-2804,0,0,-1
-165.37,150.98,-112.43,4063,-6753,-2790,-1,-1,0
-165.38,150.98,-112.43,4066,-6764,-2793,-1,-1,0
-165.38,150.98,-112.43,4060,-6759,-2794,0,-1,0
-165.38,150.99,-112.44,4067,-6757,-2798,-1,-1,0
-165.39,150.99,-112.45,4066,-6756,-2810,-1,-1,0
-165.40,151.00,-112.46,4063,-6765,-2808,0,0,-1
-165.39,150.99,-112.46,4064,-6764,-2800,-1,-1,0
-165.40,151.00,-112.46,4063,-6764,-2805,-1,-1,-1
-165.40,151.00,-112.46,4065,-6753,-2806,0,-1,0
-165.40,151.00,-112.46,4066,-6760,-2807,0,-1,0
-165.40,151.00,-112.45,4063,-6757,-2801,0,0,0
-165.40,151.00,-112.45,4059,-6757,-2805,0,0,0
-165.40,151.00,-112.45,4062,-6762,-2797,0,0,-1
-165.39,151.00,-112.45,4056,-6760,-2800,0,0,0
-165.39,151.00,-112.45,4059,-6762,-2805,0,0,0
-165.39,151.00,-112.45,4058,-6762,-2805,0,0,0
-165.39,151.00,-112.44,4064,-6767,-2802,0,-1,0
-165.39,151.00,-112.44,4059,-6760,-2806,-1,-1,0
-165.39,151.00,-112.44,4060,-6753,-2795,0,-1,0
-165.39,151.00,-112.45,4062,-6756,-2798,-1,-1,0
-165.39,151.00,-112.46,4063,-6761,-2807,-1,-1,-1
-165.39,151.00,-112.46,4064,-6758,-2814,0,0,0
-165.40,151.01,-112.45,4053,-6753,-2807,0,-1,0
-165.42,151.02,-112.47,4054,-6761,-2817,-1,-1,0
-165.40,151.01,-112.45,4051,-6761,-2804,0,0,-1
-165.39,151.01,-112.45,4054,-6750,-2790,-1,-1,-1
-165.38,151.00,-112.45,4059,-6742,-2782,0,-1,0
-165.39,151.01,-112.46,4057,-6746,-2785,0,-1,0
-165.39,151.01,-112.45,4054,-6753,-2801,0,0,-1
-165.36,150.98,-112.45,4050,-6741,-2789,-1,1,-2
-165.35,150.95,-112.46,4073,-6763,-2797,-2,0,-1
-165.36,150.93,-112.46,4067,-6768,-2823,0,1,-1
-165.36,150.94,-112.46,4066,-6759,-2826,0,-2,0
-165.37,150.96,-112.47,4069,-6758,-2816,0,-1,0
-165.36,150.96,-112.47,4076,-6758,-2807,0,0,0
-165.37,150.97,-112.46,4067,-6742,-2795,-1,0,0
-165.37,150.96,-112.47,4062,-6752,-2801,-1,0,-1
-165.37,150.95,-112.48,4074,-6762,-2810,-1,-1,-1
-165.37,150.95,-112.48,4073,-6762,-2814,0,-1,0
-165.37,150.96,-112.49,4072,-6755,-2817,0,-1,0
-165.38,150.96,-112.49,4069,-6745,-2802,0,-1,0
-165.38,150.97,-112.50,4067,-6742,-2803,-1,-1,0
-165.38,150.97,-112.50,4071,-6752,-2797,-1,-1,-1
-165.38,150.96,-112.50,4073,-6748,-2810,-1,0,-1
-165.39,150.95,-112.52,4079,-6753,-2817,-1,0,0
-165.39,150.95,-112.52,4069,-6753,-2826,0,-1,0
-165.40,150.97,-112.52,4065,-6754,-2830,0,-1,0
-165.39,150.97,-112.52,4063,-6758,-2817,0,-1,0
-165.39,150.97,-112.51,4055,-6744,-2799,0,-1,0
-165.40,150.98,-112.52,4054,-6750,-2797,-1,-1,0
-165.40,150.97,-112.52,4062,-6760,-2800,0,0,-1
-165.40,150.97,-112.52,4061,-6761,-2803,-1,-1,0
-165.40,150.97,-112.53,4063,-6754,-2811,0,-1,0
-165.41,150.98,-112.53,4059,-6740,-2812,-1,-1,0
-165.41,150.98,-112.54,4060,-6745,-2811,-1,0,-1
-165.42,150.98,-112.54,4068,-6755,-2815,-1,0,-1
-165.41,150.97,-112.55,4068,-6759,-2827,-1,0,0
-165.42,150.98,-112.55,4069,-6758,-2834,0,-1,0
-165.43,150.99,-112.56,4063,-6751,-2824,0,-1,0
-165.43,150.99,-112.56,4064,-6756,-2810,-1,-1,0
-165.43,151.00,-112.56,4063,-6752,-2814,-1,0,-1
-165.43,150.99,-112.56,4066,-6750,-2814,-1,0,0
-165.43,150.99,-112.56,4062,-6751,-2819,-1,0,-1
-165.44,150.99,-112.57,4069,-6752,-2820,0,-1,0
-165.44,151.00,-112.57,4072,-6753,-2822,0,-1,0
-165.44,151.00,-112.57,4063,-6752,-2808,-1,-1,0
-165.44,151.00,-112.57,4058,-6740,-2806,-1,-1,0
-165.45,151.01,-112.57,4051,-6743,-2816,-1,-1,-1
-165.45,151.00,-112.58,4070,-6747,-2815,-1,-1,-1
-165.45,151.00,-112.59,4071,-6752,-2826,-1,0,0
-165.45,151.00,-112.58,4055,-6754,-2823,0,-1,0
-165.46,151.01,-112.59,4056,-6745,-2829,0,-1,0
-165.46,151.01,-112.59,4056,-6744,-2825,0,-1,0
-165.46,151.01,-112.59,4062,-6740,-2812,-1,-1,0
-165.47,151.01,-112.61,4064,-6751,-2834,-1,0,0
-165.47,151.00,-112.60,4067,-6750,-2835,0,0,0
-165.48,151.01,-112.61,4052,-6753,-2843,0,-1,0
-165.47,151.01,-112.60,4050,-6749,-2829,0,-1,0
-165.47,151.02,-112.60,4060,-6744,-2810,-1,-1,0
-165.47,151.02,-112.61,4058,-6746,-2816,-1,0,-1
-165.48,151.01,-112.61,4061,-6747,-2824,-1,0,-1
-165.48,151.01,-112.62,4066,-6755,-2830,-1,0,-1
-165.47,151.01,-112.62,4068,-6753,-2835,0,-1,0
-165.48,151.02,-112.62,4064,-6754,-2830,0,-1,0
-165.48,151.02,-112.62,4065,-6749,-2821,0,-1,-1
-165.48,151.02,-112.62,4064,-6743,-2812,-1,0,0
-165.48,151.01,-112.62,4060,-6742,-2821,-1,0,0
-165.49,151.02,-112.63,4064,-6747,-2824,-1,-1,0
-165.48,151.01,-112.63,4068,-6753,-2826,-1,-1,0
-165.49,151.02,-112.63,4073,-6755,-2837,0,0,0
-165.49,151.02,-112.63,4065,-6755,-2829,0,-1,0
-165.48,151.02,-112.62,4067,-6754,-2825,0,-1,0
-165.48,151.02,-112.62,4067,-6751,-2823,0,-1,0
-165.48,151.03,-112.62,4057,-6745,-2818,0,-1,0
-165.48,151.03,-112.62,4054,-6753,-2816,-1,0,-1
-165.49,151.03,-112.62,4057,-6759,-2824,-1,0,-1
-165.48,151.02,-112.62,4057,-6753,-2837,0,0,-1
-165.49,151.03,-112.63,4061,-6756,-2840,-1,-1,0
-165.48,151.01,-112.63,4064,-6753,-2835,0,0,-1
-165.47,151.01,-112.62,4064,-6750,-2824,-1,-1,0
-165.47,151.01,-112.62,4058,-6750,-2836,0,0,-1
-165.46,151.01,-112.61,4054,-6745,-2826,0,0,-1
-165.46,151.01,-112.61,4052,-6743,-2818,0,0,-1
-165.46,151.00,-112.61,4057,-6747,-2810,0,0,-1
-165.45,151.00,-112.59,4060,-6747,-2817,0,0,0
-165.44,150.99,-112.59,4058,-6751,-2814,0,0,-1
-165.43,150.99,-112.58,4067,-6755,-2812,0,0,0
-165.43,150.99,-112.57,4060,-6744,-2814,0,-1,0
-165.43,150.99,-112.58,4052,-6750,-2814,-1,-1,-1
-165.42,150.98,-112.58,4064,-6756,-2825,-1,0,-1
-165.42,150.97,-112.57,4062,-6761,-2829,0,0,0
-165.42,150.97,-112.57,4058,-6755,-2816,0,-1,0
-165.40,150.97,-112.57,4059,-6743,-2808,0,-1,-1
-165.41,150.98,-112.57,4057,-6757,-2806,-1,-1,-1
-165.41,150.97,-112.58,4064,-6756,-2810,-1,0,-1
-165.41,150.96,-112.58,4069,-6752,-2826,-1,0,0
-165.42,150.96,-112.58,4062,-6747,-2829,0,-1,0
-165.42,150.97,-112.58,4057,-6746,-2827,0,-1,0
-165.41,150.98,-112.58,4066,-6751,-2806,0,-1,0
-165.41,150.98,-112.58,4067,-6747,-2806,-1,0,0
-165.41,150.97,-112.58,4068,-6747,-2806,-1,0,0
-165.42,150.97,-112.59,4063,-6748,-2827,-1,0,0
-165.43,150.97,-112.60,4067,-6753,-2836,0,-1,-1
-165.42,150.97,-112.61,4066,-6749,-2833,0,-1,-1
-165.43,150.98,-112.60,4062,-6740,-2821,0,-1,0
-165.42,150.97,-112.61,4059,-6749,-2816,-1,-1,-1
-165.42,150.96,-112.61,4068,-6750,-2836,0,0,-1
-165.42,150.96,-112.60,4071,-6750,-2822,-1,-1,0
-165.41,150.95,-112.60,4068,-6745,-2829,0,0,-1
-165.40,150.95,-112.59,4064,-6741,-2806,0,-1,0
-165.40,150.95,-112.60,4063,-6747,-2817,0,0,-1
-165.39,150.95,-112.59,4075,-6751,-2820,0,0,-1
-165.39,150.95,-112.59,4065,-6748,-2824,0,-1,0
-165.39,150.95,-112.59,4066,-6752,-2828,0,-1,0
-165.40,150.95,-112.59,4066,-6748,-2819,0,-1,0
-165.40,150.95,-112.59,4067,-6749,-2810,-1,-1,0
-165.40,150.95,-112.59,4058,-6746,-2806,-1,0,-1
-165.40,150.95,-112.60,4065,-6752,-2813,-1,0,0
-165.41,150.95,-112.60,4061,-6748,-2824,-1,-1,0
-165.41,150.96,-112.61,4067,-6749,-2820,-1,-1,0
-165.41,150.95,-112.62,4074,-6752,-2820,-1,-1,0
-165.42,150.96,-112.62,4075,-6749,-2814,-1,0,0
-165.42,150.96,-112.62,4071,-6748,-2825,-1,-1,0
-165.42,150.96,-112.62,4070,-6755,-2823,0,-1,0
-165.42,150.96,-112.62,4074,-6753,-2826,0,-1,0
-165.42,150.96,-112.62,4071,-6759,-2817,0,-1,0
-165.41,150.96,-112.61,4065,-6755,-2811,0,0,0
-165.41,150.96,-112.61,4064,-6744,-2807,0,-1,0
-165.41,150.96,-112.61,4065,-6751,-2821,-1,-1,0
-165.42,150.96,-112.63,4065,-6752,-2821,-1,-1,-1
-165.42,150.96,-112.62,4067,-6757,-2817,0,0,-1
-165.41,150.95,-112.62,4068,-6750,-2807,0,0,0
-165.41,150.96,-112.61,4067,-6739,-2800,0,-1,0
-165.41,150.96,-112.63,4073,-6743,-2811,-1,-1,-1
-165.40,150.95,-112.62,4077,-6751,-2814,-1,0,-1
-165.41,150.94,-112.63,4076,-6757,-2829,-1,0,0
-165.42,150.95,-112.63,4072,-6748,-2841,0,0,0
-165.41,150.95,-112.63,4064,-6737,-2835,0,-1,0
-165.41,150.95,-112.63,4073,-6737,-2838,0,-1,-1
-165.40,150.94,-112.63,4077,-6740,-2836,-1,0,0
-165.41,150.94,-112.63,4063,-6746,-2835,-1,0,0
-165.41,150.94,-112.63,4065,-6749,-2836,0,-1,0
-165.41,150.94,-112.64,4066,-6746,-2832,0,-1,0
-165.41,150.95,-112.63,4062,-6741,-2822,0,-1,0
-165.41,150.95,-112.64,4067,-6743,-2816,-1,0,-1
-165.40,150.94,-112.64,4070,-6742,-2827,-1,0,0
-165.41,150.94,-112.64,4061,-6741,-2829,-1,-1,0
-165.42,150.95,-112.65,4062,-6740,-2829,0,-1,-1
-165.42,150.95,-112.65,4068,-6749,-2825,0,-1,-1
-165.42,150.95,-112.65,4076,-6743,-2822,-1,0,0
-165.41,150.94,-112.65,4071,-6734,-2824,-1,0,0
-165.42,150.95,-112.66,4073,-6743,-2831,-1,0,0
-165.42,150.94,-112.66,4069,-6750,-2841,0,-1,0
-165.42,150.95,-112.65,4067,-6747,-2844,0,-1,0
-165.42,150.95,-112.66,4064,-6745,-2831,0,-1,0
-165.42,150.96,-112.65,4066,-6745,-2814,-1,0,0
-165.43,150.95,-112.66,4070,-6748,-2820,-1,0,-1
-165.42,150.95,-112.66,4074,-6750,-2832,-1,0,-1
-165.43,150.95,-112.67,4068,-6743,-2836,-1,-1,0
-165.42,150.95,-112.67,4069,-6744,-2833,0,-1,0
-165.42,150.95,-112.67,4071,-6741,-2833,0,-1,0
-165.43,150.95,-112.67,4074,-6739,-2819,0,-1,0
-165.42,150.95,-112.67,4073,-6743,-2818,-1,0,-1
-165.43,150.95,-112.68,4072,-6747,-2837,-1,0,0
-165.43,150.95,-112.68,4068,-6744,-2838,0,0,0
-165.43,150.95,-112.68,4061,-6742,-2848,0,0,-1
-165.43,150.95,-112.68,4061,-6741,-2830,-1,-1,0
-165.44,150.96,-112.69,4061,-6749,-2838,0,0,-1
-165.42,150.94,-112.68,4067,-6745,-2816,-1,0,-1
-165.43,150.95,-112.69,4063,-6748,-2826,-1,-1,-1
-165.43,150.95,-112.68,4067,-6744,-2819,0,0,0
-165.43,150.95,-112.68,4058,-6737,-2822,-1,-1,0
-165.43,150.95,-112.69,4061,-6741,-2829,-1,-1,-1
-165.43,150.94,-112.70,4072,-6750,-2834,-1,0,-1
-165.43,150.94,-112.69,4077,-6740,-2842,0,0,0
-165.43,150.94,-112.68,4073,-6737,-2839,0,-1,0
-165.43,150.95,-112.69,4061,-6727,-2828,0,-1,0
-165.43,150.96,-112.70,4062,-6736,-2819,-1,-1,-1
-165.44,150.95,-112.71,4070,-6746,-2825,-1,0,-1
-165.43,150.94,-112.70,4070,-6750,-2846,-1,0,0
-165.45,150.95,-112.71,4058,-6743,-2852,0,-1,0
-165.44,150.95,-112.71,4066,-6741,-2835,0,-1,-1
-165.44,150.96,-112.71,4076,-6743,-2822,0,-1,0
-165.44,150.96,-112.70,4066,-6746,-2819,-1,0,0
-165.44,150.95,-112.70,4064,-6744,-2820,-1,0,-1
-165.44,150.95,-112.71,4074,-6740,-2832,-1,-1,0
-165.44,150.95,-112.71,4071,-6738,-2835,0,-1,0
-165.44,150.96,-112.72,4069,-6741,-2827,-1,-1,-1
-165.44,150.95,-112.71,4066,-6745,-2833,-1,0,-1
-165.45,150.95,-112.72,4072,-6741,-2839,-1,0,0
-165.45,150.95,-112.72,4067,-6737,-2840,0,-1,0
-165.44,150.95,-112.72,4066,-6736,-2826,-1,-1,-1
-165.45,150.96,-112.73,4073,-6746,-2840,-1,0,-1
-165.45,150.95,-112.72,4079,-6749,-2833,0,0,0
-165.45,150.95,-112.72,4071,-6749,-2841,-1,-1,0
-165.45,150.95,-112.72,4068,-6745,-2845,0,-1,0
-165.46,150.96,-112.72,4072,-6743,-2841,0,-1,0
-165.45,150.96,-112.72,4071,-6740,-2832,0,0,-1
-165.44,150.96,-112.72,4072,-6743,-2826,-1,0,-1
-165.44,150.95,-112.72,4075,-6746,-2821,-1,0,-1
-165.45,150.95,-112.72,4072,-6752,-2827,0,-1,0
-165.45,150.96,-112.72,4069,-6748,-2829,-1,-1,0
-165.45,150.96,-112.73,4066,-6743,-2825,-1,-1,-1
-165.45,150.96,-112.73,4068,-6737,-2837,-1,0,0
-165.46,150.96,-112.73,4066,-6743,-2849,-1,0,0
-165.46,150.96,-112.74,4063,-6741,-2859,-1,-1,0
-165.46,150.96,-112.75,4072,-6741,-2856,0,-1,0
-165.47,150.97,-112.75,4071,-6742,-2843,0,-1,0
-165.47,150.97,-112.74,4067,-6738,-2835,-1,-1,0
-165.47,150.97,-112.76,4062,-6744,-2834,-1,-1,0
-165.48,150.97,-112.76,4066,-6745,-2838,-1,-1,0
-165.47,150.97,-112.76,4064,-6749,-2845,-1,0,0
-165.48,150.97,-112.77,4066,-6748,-2861,0,0,0
-165.48,150.97,-112.77,4066,-6748,-2857,0,0,0
-165.48,150.98,-112.77,4063,-6742,-2854,0,-1,0
-165.49,150.98,-112.77,4065,-6739,-2841,-1,-1,0
-165.49,150.98,-112.77,4065,-6740,-2854,0,0,-1
-165.49,150.98,-112.77,4065,-6739,-2852,-1,0,0
-165.50,150.98,-112.77,4057,-6742,-2852,0,-1,0
-165.50,150.99,-112.78,4067,-6751,-2842,0,-1,0
-165.49,150.99,-112.78,4062,-6751,-2841,0,0,0
-165.49,150.99,-112.77,4068,-6748,-2835,0,0,0
-165.50,150.99,-112.76,4060,-6736,-2832,0,-1,0
-165.50,150.99,-112.77,4066,-6743,-2828,-1,-1,-1
-165.49,150.99,-112.78,4079,-6748,-2835,-1,0,0
-165.50,150.99,-112.78,4076,-6749,-2851,-1,0,0
-165.51,150.99,-112.79,4064,-6751,-2857,0,0,0
-165.51,150.99,-112.78,4060,-6744,-2848,0,-1,0
-165.50,151.00,-112.78,4060,-6740,-2838,0,-1,0
-165.50,151.00,-112.78,4068,-6742,-2831,-1,-1,0
-165.50,150.99,-112.78,4074,-6741,-2835,-1,0,0
-165.51,150.99,-112.78,4062,-6750,-2840,-1,0,0
-165.51,150.99,-112.78,4060,-6758,-2837,0,-1,0
-165.51,151.00,-112.79,4060,-6750,-2833,0,-1,0
-165.51,151.00,-112.78,4063,-6743,-2820,0,-1,0
-165.51,151.00,-112.78,4062,-6744,-2812,-1,0,-1
-165.51,151.00,-112.79,4063,-6743,-2833,-1,0,-1
-165.52,151.00,-112.80,4061,-6741,-2847,-1,-1,0
-165.52,151.00,-112.80,4066,-6739,-2859,0,-1,0
-165.51,151.00,-112.79,4062,-6736,-2842,0,-1,0
-165.52,151.01,-112.80,4063,-6734,-2852,0,-1,0
-165.52,151.01,-112.80,4066,-6736,-2849,-1,0,0
-165.52,151.00,-112.80,4065,-6746,-2850,-1,0,0
-165.52,151.00,-112.80,4056,-6747,-2864,0,0,-1
-165.51,151.00,-112.79,4057,-6743,-2852,0,-1,0
-165.52,151.01,-112.79,4059,-6741,-2843,0,-1,0
-165.50,151.00,-112.79,4064,-6737,-2838,-1,0,-1
-165.51,151.00,-112.79,4065,-6743,-2834,-1,0,-1
-165.50,150.99,-112.79,4065,-6736,-2839,-1,0,-1
-165.50,150.98,-112.80,4073,-6744,-2852,0,0,-1
-165.50,150.98,-112.80,4068,-6743,-2856,0,0,0
-165.50,150.98,-112.80,4061,-6739,-2864,0,-1,-1
-165.49,150.98,-112.79,4066,-6739,-2851,0,-1,-1
-165.49,150.98,-112.79,4071,-6739,-2843,0,0,-1
-165.48,150.98,-112.78,4067,-6734,-2837,-1,0,-1
-165.48,150.97,-112.79,4066,-6738,-2840,0,0,-1
-165.48,150.97,-112.79,4068,-6743,-2840,0,-1,-1
-165.48,150.97,-112.79,4058,-6747,-2851,0,0,-1
-165.47,150.97,-112.79,4065,-6745,-2846,0,0,-1
-165.47,150.97,-112.78,4067,-6747,-2833,-1,-1,0
-165.47,150.97,-112.79,4062,-6752,-2857,0,0,0
-165.47,150.96,-112.78,4060,-6747,-2846,-1,-1,-1
-165.48,150.96,-112.80,4061,-6752,-2858,-1,0,-1
-165.46,150.95,-112.79,4069,-6750,-2853,0,0,-1
-165.46,150.95,-112.79,4067,-6744,-2843,0,-1,0
-165.47,150.96,-112.78,4060,-6733,-2836,0,-1,-1
-165.47,150.96,-112.79,4063,-6735,-2826,-1,-1,-1
-165.46,150.95,-112.79,4065,-6737,-2826,-1,0,-1
-165.47,150.95,-112.80,4072,-6745,-2853,-1,0,-1
-165.47,150.95,-112.80,4070,-6746,-2846,0,0,-1
-165.47,150.95,-112.80,4067,-6742,-2851,0,-1,-1
-165.46,150.95,-112.79,4071,-6740,-2845,0,-1,0
-165.46,150.95,-112.79,4071,-6738,-2831,0,-1,0
-165.46,150.95,-112.79,4067,-6736,-2834,-1,0,-1
-165.47,150.95,-112.80,4071,-6737,-2839,-1,0,-1
-165.47,150.94,-112.80,4073,-6738,-2847,-1,0,-1
-165.46,150.94,-112.80,4071,-6739,-2855,0,-1,-1
-165.46,150.94,-112.80,4069,-6748,-2843,0,-1,-1
-165.45,150.94,-112.80,4065,-6742,-2829,0,-1,-1
-165.45,150.94,-112.80,4069,-6737,-2820,-1,0,0
-165.45,150.94,-112.80,4076,-6744,-2832,-1,0,-1
-165.45,150.94,-112.80,4082,-6739,-2832,-1,-1,-1
-165.46,150.93,-112.81,4078,-6740,-2846,-1,0,0
-165.46,150.93,-112.80,4071,-6736,-2851,0,0,-1
-165.46,150.94,-112.80,4065,-6733,-2851,0,-1,0
-165.46,150.94,-112.81,4070,-6744,-2849,-1,-1,-1
-165.45,150.94,-112.80,4074,-6746,-2849,0,0,-1
-165.45,150.93,-112.80,4076,-6747,-2836,-1,-1,0
-165.45,150.93,-112.80,4068,-6746,-2842,0,0,-1
-165.45,150.93,-112.80,4061,-6740,-2834,-1,-1,0
-165.45,150.94,-112.80,4055,-6743,-2852,0,0,-1
-165.44,150.92,-112.79,4071,-6742,-2853,-1,0,-1
-165.44,150.91,-112.80,4079,-6741,-2852,0,0,0
-165.43,150.91,-112.79,4082,-6737,-2853,0,-1,0
-165.42,150.91,-112.79,4079,-6727,-2842,0,-1,0
-165.42,150.91,-112.79,4071,-6725,-2829,0,-1,-1
-165.41,150.90,-112.79,4074,-6732,-2840,-1,0,-1
-165.42,150.89,-112.79,4079,-6737,-2845,-1,0,0
-165.41,150.90,-112.78,4069,-6731,-2845,0,-1,0
-165.41,150.90,-112.79,4069,-6735,-2846,0,-1,0
-165.42,150.91,-112.79,4070,-6741,-2833,0,-1,-1
-165.41,150.90,-112.78,4077,-6750,-2827,-1,0,-1
-165.41,150.89,-112.78,4077,-6743,-2834,-1,0,-1
-165.42,150.89,-112.79,4069,-6739,-2843,-1,-1,-1
-165.42,150.90,-112.80,4071,-6737,-2843,-1,-1,-1
-165.41,150.89,-112.80,4081,-6739,-2850,0,0,-1
-165.41,150.89,-112.79,4079,-6743,-2847,0,0,0
-165.41,150.90,-112.79,4069,-6737,-2841,0,-1,0
-165.41,150.90,-112.79,4070,-6730,-2839,-1,-1,-1
-165.40,150.89,-112.80,4076,-6734,-2836,-1,0,-1
-165.41,150.88,-112.80,4079,-6735,-2835,-1,-1,0
-165.42,150.89,-112.82,4064,-6739,-2865,-1,0,-1
-165.41,150.89,-112.80,4062,-6740,-2854,0,-1,-1
-165.42,150.90,-112.81,4067,-6742,-2853,0,-1,0
-165.42,150.90,-112.80,4071,-6730,-2843,0,-1,0
-165.42,150.90,-112.81,4073,-6727,-2839,-1,0,0
-165.42,150.89,-112.81,4076,-6734,-2845,-1,0,-1
-165.42,150.89,-112.81,4075,-6742,-2851,-1,0,-1
-165.42,150.89,-112.82,4080,-6738,-2849,0,-1,-1
-165.42,150.89,-112.82,4081,-6733,-2842,0,-1,-1
-165.41,150.89,-112.81,4078,-6731,-2828,0,-1,0
-165.42,150.89,-112.82,4075,-6736,-2828,-1,0,-1
-165.42,150.89,-112.81,4076,-6731,-2834,-1,0,-1
-165.42,150.89,-112.82,4068,-6734,-2843,0,-1,0
-165.42,150.89,-112.82,4068,-6730,-2847,0,-1,0
-165.42,150.89,-112.82,4075,-6732,-2834,-1,-1,0
-165.42,150.89,-112.82,4069,-6743,-2839,-1,0,0
-165.42,150.89,-112.82,4067,-6743,-2845,-1,0,-1
-165.43,150.89,-112.83,4072,-6736,-2856,0,-1,-1
-165.42,150.89,-112.82,4070,-6732,-2850,0,-1,0
-165.42,150.90,-112.82,4065,-6740,-2836,-1,-1,0
-165.42,150.89,-112.82,4066,-6744,-2841,-1,0,-1
-165.43,150.89,-112.83,4065,-6737,-2843,-1,0,-1
-165.43,150.89,-112.83,4065,-6740,-2847,-1,0,-1
-165.43,150.89,-112.84,4073,-6730,-2853,0,-1,-1
-165.43,150.90,-112.85,4069,-6731,-2852,0,-1,0
-165.43,150.90,-112.84,4074,-6728,-2842,-1,-1,-1
-165.43,150.89,-112.84,4077,-6732,-2848,0,0,0
-165.43,150.90,-112.85,4078,-6728,-2849,-1,-1,-1
-165.44,150.89,-112.86,4079,-6732,-2868,-1,0,-1
-165.44,150.89,-112.86,4075,-6730,-2859,0,0,0
-165.44,150.89,-112.85,4070,-6733,-2845,0,-1,0
-165.43,150.90,-112.85,4071,-6732,-2837,0,-1,0
-165.44,150.90,-112.85,4069,-6729,-2834,-1,-1,0
-165.44,150.89,-112.85,4071,-6734,-2840,-1,0,-1
-165.43,150.89,-112.85,4075,-6739,-2848,-1,0,-1
-165.43,150.89,-112.86,4083,-6745,-2863,0,-1,0
-165.44,150.89,-112.86,4072,-6734,-2851,0,-1,0
-165.45,150.90,-112.86,4065,-6726,-2847,-1,-1,-1
-165.45,150.90,-112.87,4071,-6741,-2844,-1,0,-1
-165.44,150.89,-112.87,4074,-6742,-2846,-1,0,-1
-165.45,150.90,-112.86,4067,-6740,-2856,0,-1,0
-165.45,150.90,-112.86,4059,-6737,-2843,0,-1,-1
-165.44,150.91,-112.87,4070,-6735,-2830,-1,-1,-1
-165.45,150.91,-112.87,4079,-6738,-2819,-1,0,0
-165.46,150.90,-112.88,4073,-6741,-2838,-1,0,0
-165.46,150.90,-112.88,4064,-6736,-2861,0,-1,-1
-165.46,150.90,-112.88,4068,-6731,-2869,0,-1,-1
-165.46,150.91,-112.88,4072,-6739,-2855,0,-1,0
-165.46,150.91,-112.88,4073,-6739,-2841,-1,0,0
-165.46,150.90,-112.88,4073,-6735,-2842,-1,0,-1
-165.46,150.90,-112.88,4065,-6733,-2855,-1,-1,-1
-165.47,150.91,-112.89,4063,-6731,-2859,0,-1,-1
-165.46,150.91,-112.89,4070,-6728,-2843,0,-1,-1
-165.46,150.90,-112.90,4078,-6731,-2843,-1,-1,-1
-165.46,150.90,-112.90,4082,-6732,-2857,0,0,-1
-165.47,150.90,-112.90,4062,-6738,-2863,-1,-1,0
-165.46,150.90,-112.90,4062,-6731,-2862,0,-1,-1
-165.47,150.91,-112.90,4066,-6729,-2855,-1,-1,0
-165.47,150.91,-112.90,4071,-6724,-2856,-1,0,-1
-165.47,150.90,-112.90,4081,-6732,-2865,-1,0,0
-165.48,150.90,-112.91,4070,-6739,-2864,0,-1,0
-165.47,150.91,-112.90,4068,-6733,-2856,0,-1,0
-165.47,150.92,-112.90,4067,-6735,-2849,0,-1,0
-165.47,150.92,-112.90,4074,-6734,-2855,0,-1,-1
-165.47,150.91,-112.90,4074,-6727,-2854,-1,0,-1
-165.48,150.91,-112.91,4069,-6726,-2858,-1,0,-1
-165.48,150.91,-112.92,4066,-6741,-2865,-1,-1,-1
-165.49,150.91,-112.92,4073,-6744,-2866,-1,-1,-1
-165.48,150.91,-112.92,4076,-6738,-2871,0,-1,0
-165.49,150.91,-112.92,4069,-6737,-2861,0,-1,0
-165.48,150.91,-112.92,4070,-6736,-2852,0,-1,-1
-165.48,150.91,-112.92,4069,-6737,-2852,-1,0,0
-165.49,150.91,-112.92,4072,-6732,-2855,-1,0,-1
-165.49,150.91,-112.93,4070,-6735,-2853,-1,0,0
-165.49,150.91,-112.92,4071,-6734,-2845,0,-1,0
-165.49,150.92,-112.93,4072,-6729,-2842,0,-1,0
-165.49,150.92,-112.93,4067,-6734,-2849,0,-1,-1
-165.49,150.92,-112.92,4067,-6731,-2847,0,-1,-1
-165.49,150.92,-112.93,4067,-6733,-2840,-1,-1,0
-165.49,150.91,-112.92,4066,-6734,-2844,0,0,-1
-165.49,150.92,-112.93,4068,-6740,-2846,-1,-1,0
-165.49,150.92,-112.93,4070,-6743,-2858,0,0,-1
-165.49,150.92,-112.93,4073,-6735,-2851,-1,-1,0
-165.50,150.92,-112.93,4064,-6737,-2850,-1,-1,-1
-165.50,150.92,-112.93,4069,-6742,-2851,-1,0,-1
-165.49,150.91,-112.93,4078,-6749,-2856,0,0,0
-165.50,150.92,-112.92,4074,-6741,-2855,0,-1,0
-165.50,150.93,-112.92,4066,-6733,-2848,0,-1,0
-165.50,150.93,-112.93,4076,-6737,-2844,-1,-1,-1
-165.49,150.92,-112.93,4079,-6745,-2854,-1,0,-1
-165.50,150.92,-112.93,4075,-6747,-2867,-1,0,0
-165.51,150.92,-112.94,4060,-6737,-2879,0,-1,0
-165.51,150.93,-112.94,4058,-6734,-2872,0,-1,-1
-165.51,150.93,-112.94,4064,-6735,-2867,0,-1,0
-165.51,150.93,-112.94,4069,-6729,-2853,-1,0,0
-165.50,150.92,-112.94,4066,-6723,-2846,-1,0,-1
-165.50,150.92,-112.94,4071,-6728,-2856,-1,0,-1
-165.51,150.92,-112.95,4073,-6732,-2863,0,0,-1
-165.50,150.92,-112.94,4074,-6737,-2859,0,-1,0
-165.50,150.92,-112.94,4073,-6734,-2853,0,-1,-1
-165.50,150.92,-112.94,4074,-6738,-2845,0,0,-1
-165.49,150.91,-112.93,4069,-6730,-2850,0,0,-1
-165.49,150.91,-112.93,4070,-6731,-2849,-1,-1,-1
-165.48,150.90,-112.92,4081,-6734,-2852,0,0,-1
-165.48,150.90,-112.92,4078,-6732,-2840,-1,-1,0
-165.48,150.90,-112.92,4077,-6725,-2850,0,0,-1
-165.47,150.90,-112.91,4073,-6724,-2869,-1,0,0
-165.47,150.90,-112.92,4066,-6729,-2864,0,0,-1
-165.46,150.89,-112.90,4069,-6733,-2860,0,0,-1
-165.46,150.89,-112.91,4066,-6734,-2854,0,-1,0
-165.46,150.89,-112.90,4069,-6735,-2848,0,-1,-1
-165.45,150.89,-112.89,4069,-6734,-2848,0,0,-1
