Yaw,Pitch,Roll,AX,AY,AZ,GX,GY,GZ
-175.83,152.88,-124.19,3821,-6174,-4187,-1,-1,0
-175.84,152.88,-124.19,3825,-6173,-4192,-1,-1,0
-175.84,152.89,-124.19,3823,-6179,-4200,-1,-1,0
-175.85,152.89,-124.20,3819,-6178,-4199,0,0,0
-175.84,152.89,-124.19,3816,-6171,-4190,0,0,-1
-175.84,152.89,-124.19,3808,-6172,-4188,-1,-1,0
-175.84,152.89,-124.19,3817,-6169,-4194,-1,-1,0
-175.84,152.89,-124.19,3819,-6170,-4198,0,0,-1
-175.84,152.89,-124.19,3811,-6169,-4199,0,0,-1
-175.84,152.89,-124.19,3809,-6167,-4197,-1,-1,-1
-175.85,152.90,-124.20,3811,-6168,-4204,-1,-1,-1
-175.85,152.90,-124.20,3822,-6167,-4196,-1,-1,-1
-175.85,152.90,-124.20,3815,-6170,-4193,-1,-1,-1
-175.86,152.89,-124.20,3821,-6173,-4201,-1,-1,0
-175.86,152.89,-124.20,3824,-6164,-4198,0,0,0
-175.86,152.89,-124.20,3821,-6166,-4205,0,-1,0
-175.86,152.90,-124.21,3823,-6168,-4208,-1,-1,0
-175.85,152.90,-124.20,3821,-6170,-4204,0,0,0
-175.86,152.90,-124.20,3819,-6169,-4204,-1,-1,0
-175.87,152.90,-124.21,3815,-6170,-4200,-1,-1,0
-175.87,152.90,-124.21,3821,-6175,-4203,0,0,0
-175.86,152.90,-124.20,3818,-6179,-4192,0,0,-1
-175.86,152.90,-124.20,3820,-6180,-4184,-1,-1,-1
-175.86,152.90,-124.20,3821,-6182,-4199,-1,-1,-1
-175.86,152.90,-124.21,3830,-6174,-4206,-1,-1,0
-175.86,152.90,-124.21,3826,-6168,-4198,0,0,-1
-175.86,152.90,-124.21,3825,-6173,-4198,0,-1,-1
-175.86,152.90,-124.21,3826,-6174,-4196,-1,-1,-1
-175.86,152.90,-124.21,3831,-6174,-4191,-1,-1,-1
-175.86,152.90,-124.22,3832,-6179,-4194,0,0,-1
-175.86,152.90,-124.21,3826,-6183,-4202,0,0,-1
-175.85,152.90,-124.20,3818,-6179,-4199,0,0,-1
-175.85,152.90,-124.21,3819,-6167,-4187,-1,-1,0
-175.86,152.91,-124.21,3822,-6175,-4203,-1,-1,0
-175.86,152.91,-124.22,3822,-6170,-4210,0,-1,0
-175.86,152.91,-124.21,3818,-6167,-4207,0,-1,0
-175.86,152.91,-124.21,3819,-6168,-4202,0,0,0
-175.86,152.91,-124.21,3819,-6178,-4212,0,0,-1
-175.86,152.91,-124.21,3819,-6168,-4200,0,0,-1
-175.86,152.91,-124.21,3820,-6170,-4196,-1,-1,-1
-175.87,152.91,-124.22,3818,-6171,-4206,0,0,-1
-175.87,152.90,-124.22,3817,-6171,-4201,0,0,-1
-175.86,152.90,-124.22,3819,-6173,-4202,-1,0,-1
-175.87,152.90,-124.23,3819,-6172,-4205,-1,-1,-1
-175.87,152.90,-124.23,3826,-6172,-4216,0,0,-1
-175.86,152.89,-124.23,3830,-6175,-4212,0,0,-1
-175.85,152.88,-124.21,3827,-6170,-4203,0,0,-1
-175.84,152.88,-124.21,3828,-6162,-4202,0,0,-1
-175.85,152.88,-124.22,3823,-6162,-4204,-1,-1,0
-175.85,152.88,-124.22,3833,-6167,-4209,0,0,0
-175.84,152.88,-124.21,3826,-6173,-4215,0,0,-1
-175.83,152.87,-124.20,3821,-6167,-4203,0,0,-1
-175.82,152.86,-124.19,3816,-6167,-4196,0,0,-1
-175.82,152.86,-124.19,3814,-6173,-4194,0,0,-1
-175.82,152.86,-124.19,3818,-6172,-4201,0,0,-1
-175.82,152.86,-124.19,3825,-6177,-4207,-1,0,-1
-175.82,152.85,-124.19,3821,-6180,-4204,0,0,-1
-175.82,152.85,-124.19,3816,-6180,-4197,-1,0,-1
-175.81,152.85,-124.18,3821,-6176,-4197,0,0,-1
-175.81,152.85,-124.19,3823,-6173,-4190,-1,0,-1
-175.81,152.85,-124.19,3821,-6167,-4193,-1,0,-1
-175.81,152.84,-124.19,3825,-6165,-4196,0,0,-1
-175.81,152.84,-124.18,3826,-6165,-4189,0,0,-1
-175.81,152.84,-124.18,3825,-6165,-4181,-1,-1,0
-175.81,152.84,-124.18,3824,-6171,-4196,0,0,-1
-175.80,152.84,-124.17,3824,-6177,-4194,0,0,0
-175.80,152.84,-124.17,3824,-6177,-4191,0,0,-1
-175.80,152.84,-124.17,3818,-6175,-4197,-1,0,-1
-175.80,152.84,-124.17,3817,-6182,-4205,0,0,0
-175.80,152.84,-124.16,3826,-6188,-4198,0,0,-1
-175.80,152.84,-124.16,3823,-6182,-4186,-1,-1,0
-175.80,152.84,-124.16,3827,-6170,-4187,-1,-1,-1
-175.80,152.84,-124.17,3825,-6171,-4196,0,0,-1
-175.80,152.84,-124.17,3830,-6174,-4189,0,0,-1
-175.80,152.84,-124.16,3823,-6177,-4193,0,0,-1
-175.80,152.84,-124.16,3819,-6172,-4189,0,-1,-1
-175.80,152.84,-124.17,3819,-6169,-4193,-1,-1,-1
-175.81,152.84,-124.18,3830,-6170,-4204,0,0,-1
-175.80,152.84,-124.17,3826,-6172,-4208,0,0,-1
-175.79,152.83,-124.15,3821,-6168,-4184,0,0,-1
-175.79,152.83,-124.15,3823,-6171,-4173,-1,-1,0
-175.80,152.84,-124.16,3829,-6180,-4186,-1,-1,0
-175.80,152.85,-124.16,3830,-6179,-4193,0,-1,0
-175.80,152.85,-124.16,3822,-6168,-4199,0,0,-1
-175.80,152.85,-124.16,3820,-6168,-4197,0,0,0
-175.80,152.85,-124.15,3813,-6165,-4191,0,0,0
-175.80,152.85,-124.15,3814,-6172,-4193,0,0,0
-175.80,152.85,-124.15,3827,-6176,-4191,-1,0,-1
-175.80,152.84,-124.16,3833,-6173,-4205,-1,0,-1
-175.80,152.84,-124.17,3830,-6168,-4205,0,0,-1
-175.79,152.83,-124.15,3825,-6170,-4178,0,0,-1
-175.80,152.84,-124.16,3826,-6172,-4176,-1,-1,0
-175.80,152.84,-124.17,3824,-6177,-4198,-1,0,-1
-175.80,152.84,-124.17,3825,-6178,-4201,0,0,-1
-175.79,152.83,-124.15,3823,-6172,-4181,0,0,-1
-175.79,152.83,-124.15,3823,-6162,-4175,-1,-1,0
-175.80,152.84,-124.16,3819,-6166,-4188,-1,-1,0
-175.81,152.85,-124.16,3823,-6172,-4205,0,-1,0
-175.81,152.85,-124.16,3823,-6177,-4201,0,0,0
-175.80,152.85,-124.15,3826,-6178,-4192,0,0,0
-175.80,152.85,-124.15,3826,-6173,-4183,0,0,-1
-175.80,152.85,-124.14,3822,-6171,-4174,0,0,-1
-175.80,152.85,-124.14,3822,-6172,-4177,-1,-1,-1
-175.80,152.85,-124.15,3826,-6178,-4185,-1,0,-1
-175.80,152.85,-124.15,3824,-6176,-4187,0,0,-1
-175.80,152.85,-124.15,3821,-6172,-4173,-1,0,-1
-175.80,152.84,-124.15,3825,-6175,-4171,-1,-1,-1
-175.80,152.84,-124.16,3822,-6163,-4182,-1,-1,-1
-175.80,152.84,-124.16,3822,-6156,-4177,0,0,-1
-175.80,152.84,-124.15,3821,-6159,-4183,0,0,-1
-175.80,152.84,-124.15,3820,-6166,-4185,0,-1,0
-175.80,152.84,-124.15,3827,-6175,-4181,0,-1,0
-175.81,152.85,-124.16,3831,-6170,-4190,0,-1,0
-175.81,152.85,-124.16,3832,-6168,-4197,0,-1,0
-175.80,152.85,-124.15,3825,-6176,-4197,0,0,0
-175.80,152.85,-124.15,3823,-6180,-4201,0,0,0
-175.80,152.85,-124.15,3822,-6179,-4204,0,0,-1
-175.80,152.85,-124.15,3823,-6177,-4202,-1,-1,-1
-175.80,152.85,-124.15,3822,-6175,-4196,-1,0,-1
-175.80,152.85,-124.15,3815,-6170,-4189,0,0,0
-175.81,152.85,-124.15,3820,-6169,-4200,-1,-1,0
-175.82,152.86,-124.16,3822,-6179,-4199,-1,0,0
-175.82,152.85,-124.16,3827,-6177,-4198,0,0,-1
-175.80,152.85,-124.14,3820,-6171,-4176,0,0,-1
-175.80,152.85,-124.15,3826,-6164,-4175,-1,-1,0
-175.82,152.86,-124.16,3819,-6173,-4186,-1,-1,0
-175.82,152.86,-124.16,3824,-6180,-4206,0,0,0
-175.81,152.86,-124.14,3821,-6172,-4195,0,0,0
-175.80,152.85,-124.14,3816,-6167,-4169,-1,-1,0
-175.81,152.86,-124.15,3819,-6171,-4180,-1,-1,0
-175.82,152.87,-124.16,3823,-6171,-4197,-1,-1,0
-175.82,152.87,-124.16,3820,-6168,-4201,0,0,0
-175.82,152.87,-124.16,3819,-6160,-4198,0,0,-1
-175.81,152.86,-124.15,3821,-6167,-4195,0,0,0
-175.81,152.86,-124.15,3825,-6171,-4191,-1,-1,0
-175.82,152.87,-124.15,3818,-6182,-4191,-1,0,0
-175.82,152.87,-124.16,3817,-6183,-4194,-1,0,-1
-175.82,152.86,-124.16,3816,-6179,-4197,0,0,-1
-175.82,152.86,-124.16,3823,-6169,-4189,-1,0,0
-175.82,152.86,-124.16,3828,-6167,-4196,-1,-1,0
-175.82,152.86,-124.16,3829,-6172,-4193,-1,-1,0
-175.83,152.87,-124.17,3825,-6173,-4201,-1,-1,0
-175.83,152.87,-124.17,3820,-6179,-4205,0,0,-1
-175.83,152.87,-124.16,3814,-6176,-4199,0,0,-1
-175.82,152.86,-124.16,3822,-6170,-4192,-1,-1,0
-175.83,152.87,-124.17,3829,-6163,-4190,-1,-1,0
-175.84,152.88,-124.17,3823,-6168,-4195,-1,-1,0
-175.85,152.88,-124.19,3822,-6174,-4214,0,0,0
-175.84,152.88,-124.18,3817,-6170,-4207,0,0,-1
-175.84,152.88,-124.17,3819,-6169,-4189,0,0,-1
-175.84,152.88,-124.17,3817,-6174,-4189,-1,-1,0
-175.84,152.88,-124.17,3820,-6179,-4187,-1,0,0
-175.84,152.88,-124.17,3820,-6178,-4176,-1,-1,-1
-175.84,152.88,-124.17,3822,-6186,-4173,-1,-1,-1
-175.84,152.88,-124.17,3825,-6182,-4183,-1,-1,-1
-175.84,152.88,-124.18,3821,-6181,-4179,-1,-1,-1
-175.84,152.88,-124.18,3830,-6187,-4180,-1,-1,0
-175.85,152.88,-124.19,3827,-6179,-4188,-1,-1,0
-175.85,152.88,-124.19,3827,-6176,-4200,0,-1,0
-175.85,152.88,-124.19,3822,-6170,-4192,-1,-1,0
-175.85,152.89,-124.19,3828,-6179,-4189,-1,-1,0
-175.86,152.89,-124.19,3823,-6179,-4202,-1,-1,0
-175.85,152.89,-124.19,3820,-6177,-4213,0,0,-1
-175.85,152.89,-124.19,3824,-6165,-4200,0,0,0
-175.85,152.89,-124.19,3818,-6172,-4203,-1,-1,0
-175.86,152.90,-124.19,3816,-6173,-4205,-1,-1,0
-175.86,152.90,-124.19,3811,-6179,-4201,-1,-1,-1
-175.87,152.90,-124.20,3812,-6176,-4201,-1,0,-1
-175.87,152.90,-124.20,3816,-6173,-4198,-1,0,-1
-175.87,152.90,-124.20,3824,-6171,-4185,-1,-1,0
-175.87,152.90,-124.20,3823,-6179,-4193,-1,-1,0
-175.87,152.90,-124.20,3819,-6185,-4196,0,0,0
-175.87,152.90,-124.20,3817,-6180,-4186,-1,-1,-1
-175.87,152.90,-124.21,3830,-6175,-4194,-1,-1,0
-175.88,152.90,-124.22,3833,-6182,-4226,-1,0,-1
-175.87,152.90,-124.21,3829,-6179,-4220,0,0,-1
-175.86,152.89,-124.19,3827,-6168,-4191,0,0,0
-175.86,152.90,-124.20,3829,-6168,-4195,-1,-1,0
-175.88,152.91,-124.22,3826,-6178,-4211,-1,-1,0
-175.88,152.91,-124.22,3822,-6178,-4221,0,-1,0
-175.88,152.91,-124.22,3817,-6172,-4211,-1,0,0
-175.89,152.91,-124.23,3817,-6164,-4214,-1,0,-1
-175.88,152.91,-124.22,3815,-6168,-4208,0,0,0
-175.88,152.91,-124.22,3819,-6171,-4199,-1,0,0
-175.88,152.91,-124.22,3824,-6173,-4205,-1,-1,-1
-175.89,152.91,-124.23,3822,-6175,-4203,-1,0,-1
-175.88,152.90,-124.23,3826,-6166,-4192,0,0,-1
-175.87,152.90,-124.23,3827,-6164,-4191,-1,-1,0
-175.89,152.91,-124.23,3819,-6170,-4196,-1,-1,0
-175.89,152.91,-124.23,3824,-6178,-4198,-1,-1,0
-175.89,152.91,-124.24,3827,-6180,-4205,0,0,-1
-175.88,152.90,-124.24,3821,-6180,-4205,0,0,-1
-175.88,152.90,-124.24,3822,-6176,-4202,-1,-1,0
-175.88,152.90,-124.25,3821,-6170,-4214,-1,-1,0
-175.89,152.91,-124.24,3823,-6176,-4212,0,-1,0
-175.89,152.91,-124.24,3824,-6177,-4215,0,-1,0
-175.89,152.92,-124.24,3820,-6167,-4210,-1,-1,0
-175.90,152.92,-124.24,3822,-6177,-4213,0,0,-1
-175.89,152.91,-124.24,3817,-6176,-4208,0,0,-1
-175.88,152.90,-124.24,3823,-6169,-4202,0,0,-1
-175.88,152.90,-124.24,3825,-6170,-4202,-1,0,-1
-175.88,152.90,-124.24,3826,-6170,-4202,0,0,-1
-175.87,152.90,-124.23,3828,-6175,-4195,-1,0,-1
-175.87,152.89,-124.24,3825,-6177,-4202,-1,0,-1
-175.87,152.89,-124.24,3826,-6174,-4207,0,0,-1
-175.86,152.88,-124.23,3823,-6166,-4206,0,0,-1
-175.85,152.87,-124.22,3827,-6167,-4196,0,0,-1
-175.85,152.87,-124.22,3824,-6173,-4197,0,0,-1
-175.84,152.86,-124.21,3825,-6171,-4194,0,0,-1
-175.83,152.86,-124.21,3828,-6172,-4194,0,0,-1
-175.83,152.85,-124.20,3816,-6168,-4190,0,0,-1
-175.83,152.85,-124.19,3815,-6167,-4187,0,0,0
-175.83,152.85,-124.19,3821,-6172,-4183,0,0,-1
-175.82,152.85,-124.19,3825,-6175,-4181,0,0,-1
-175.82,152.85,-124.19,3823,-6164,-4184,-1,0,0
-175.82,152.85,-124.19,3823,-6169,-4198,0,0,0
-175.81,152.85,-124.18,3820,-6177,-4198,0,0,-1
-175.81,152.85,-124.18,3827,-6172,-4193,-1,0,-1
-175.82,152.84,-124.18,3825,-6172,-4187,-1,-1,0
-175.82,152.85,-124.19,3833,-6178,-4184,-1,-1,0
-175.83,152.85,-124.20,3837,-6186,-4212,0,0,-1
-175.81,152.84,-124.17,3826,-6179,-4200,0,0,-1
-175.81,152.84,-124.16,3832,-6168,-4163,-1,-1,0
-175.82,152.85,-124.18,3831,-6166,-4185,-1,-1,0
-175.83,152.86,-124.19,3827,-6178,-4208,-1,-1,0
-175.84,152.86,-124.19,3825,-6181,-4215,0,0,0
-175.83,152.86,-124.18,3819,-6170,-4207,0,0,0
-175.83,152.87,-124.18,3812,-6173,-4199,-1,0,0
-175.84,152.87,-124.18,3820,-6174,-4195,0,0,0
-175.84,152.87,-124.18,3827,-6181,-4198,0,0,0
-175.84,152.87,-124.18,3828,-6182,-4194,-1,0,-1
-175.83,152.87,-124.17,3830,-6177,-4195,-1,0,-1
-175.83,152.86,-124.18,3824,-6178,-4184,-1,0,-1
-175.83,152.87,-124.17,3824,-6176,-4189,-1,-1,0
-175.84,152.86,-124.18,3830,-6182,-4190,-1,0,-1
-175.83,152.87,-124.17,3834,-6178,-4186,-1,-1,0
-175.84,152.86,-124.18,3830,-6181,-4197,-1,0,0
-175.83,152.87,-124.17,3829,-6177,-4194,0,0,-1
-175.82,152.86,-124.16,3832,-6170,-4168,0,0,-1
-175.83,152.87,-124.17,3830,-6162,-4179,-1,-1,0
-175.84,152.87,-124.18,3825,-6167,-4200,-1,-1,0
-175.84,152.87,-124.18,3818,-6180,-4216,0,0,0
-175.83,152.87,-124.16,3822,-6175,-4187,0,0,0
-175.83,152.87,-124.16,3819,-6177,-4179,-1,0,0
-175.84,152.87,-124.16,3825,-6175,-4186,-1,0,0
-175.84,152.87,-124.16,3821,-6174,-4181,0,-1,0
-175.84,152.88,-124.17,3822,-6175,-4180,-1,-1,-1
-175.84,152.87,-124.16,3826,-6177,-4184,-1,-1,-1
-175.84,152.88,-124.17,3817,-6179,-4184,0,0,-1
-175.84,152.87,-124.16,3825,-6173,-4182,-1,-1,0
-175.85,152.87,-124.18,3826,-6176,-4192,-1,-1,0
-175.85,152.87,-124.18,3824,-6180,-4188,0,0,0
-175.84,152.88,-124.17,3824,-6177,-4185,0,0,0
-175.84,152.88,-124.17,3827,-6168,-4188,-1,-1,0
-175.84,152.88,-124.17,3824,-6167,-4192,0,-1,0
-175.84,152.88,-124.17,3824,-6171,-4190,-1,-1,0
-175.85,152.88,-124.17,3825,-6175,-4202,0,0,0
-175.84,152.88,-124.17,3826,-6175,-4203,0,0,0
-175.85,152.88,-124.17,3829,-6165,-4196,-1,-1,0
-175.86,152.89,-124.18,3824,-6181,-4208,-1,0,0
-175.85,152.89,-124.17,3820,-6191,-4203,0,0,0
-175.84,152.88,-124.16,3815,-6177,-4184,-1,0,-1
-175.85,152.88,-124.17,3821,-6167,-4184,-1,-1,0
-175.86,152.89,-124.18,3829,-6178,-4212,-1,0,0
-175.85,152.87,-124.18,3837,-6179,-4202,0,0,-1
-175.84,152.87,-124.16,3830,-6168,-4175,0,0,0
-175.84,152.87,-124.16,3825,-6168,-4163,-1,-1,0
-175.84,152.88,-124.17,3826,-6169,-4183,-1,-1,0
-175.84,152.88,-124.17,3825,-6179,-4186,0,0,0
-175.84,152.88,-124.17,3819,-6178,-4187,0,0,-1
-175.84,152.88,-124.16,3819,-6175,-4189,0,0,0
-175.84,152.88,-124.16,3818,-6169,-4188,0,0,0
-175.85,152.88,-124.16,3823,-6171,-4185,-1,-1,0
-175.85,152.88,-124.16,3826,-6182,-4190,-1,-1,-1
-175.85,152.88,-124.16,3825,-6180,-4193,-1,0,-1
-175.85,152.88,-124.16,3822,-6174,-4195,0,0,-1
-175.84,152.88,-124.17,3823,-6167,-4186,-1,-1,0
-175.85,152.89,-124.17,3820,-6171,-4196,-1,-1,0
-175.86,152.88,-124.18,3825,-6176,-4200,-1,-1,0
-175.86,152.88,-124.18,3831,-6182,-4198,-1,0,-1
-175.85,152.87,-124.18,3825,-6180,-4202,0,0,-1
-175.84,152.88,-124.17,3818,-6171,-4174,0,-1,0
-175.86,152.88,-124.18,3818,-6170,-4186,-1,-1,0
-175.87,152.89,-124.19,3829,-6173,-4216,0,0,0
-175.86,152.88,-124.18,3827,-6179,-4209,0,0,0
-175.85,152.88,-124.17,3835,-6165,-4184,0,-1,0
-175.85,152.89,-124.17,3828,-6163,-4186,-1,-1,0
-175.85,152.89,-124.17,3824,-6176,-4201,0,0,0
-175.85,152.89,-124.17,3826,-6173,-4191,0,0,0
-175.85,152.89,-124.17,3831,-6175,-4188,-1,-1,-1
-175.85,152.89,-124.17,3822,-6177,-4195,-1,0,-1
-175.86,152.88,-124.18,3817,-6170,-4193,0,0,-1
-175.86,152.88,-124.18,3818,-6171,-4187,-1,-1,0
-175.86,152.88,-124.19,3825,-6173,-4191,-1,-1,-1
-175.86,152.88,-124.19,3820,-6174,-4196,0,0,-1
-175.86,152.88,-124.18,3820,-6172,-4192,-1,-1,0
-175.86,152.88,-124.19,3817,-6173,-4193,-1,-1,0
-175.87,152.89,-124.19,3827,-6175,-4198,-1,-1,0
-175.87,152.89,-124.19,3827,-6175,-4200,0,-1,0
-175.87,152.89,-124.19,3829,-6170,-4200,0,-1,0
-175.87,152.89,-124.19,3824,-6169,-4188,-1,-1,0
-175.87,152.89,-124.19,3824,-6173,-4190,-1,-1,0
-175.87,152.89,-124.20,3828,-6171,-4195,-1,-1,0
-175.87,152.89,-124.20,3831,-6171,-4195,0,0,-1
-175.87,152.89,-124.19,3828,-6169,-4191,0,-1,0
-175.87,152.90,-124.20,3822,-6172,-4178,-1,-1,0
-175.89,152.91,-124.21,3823,-6183,-4195,0,-1,0
-175.89,152.91,-124.20,3816,-6186,-4188,0,0,-1
-175.88,152.91,-124.19,3825,-6176,-4176,-1,-1,0
-175.89,152.91,-124.21,3826,-6168,-4183,-1,-1,0
-175.90,152.91,-124.22,3830,-6182,-4220,-1,0,-1
-175.89,152.90,-124.22,3826,-6184,-4221,0,0,-1
-175.88,152.90,-124.20,3810,-6169,-4182,0,0,-1
-175.89,152.91,-124.21,3816,-6176,-4178,-1,-1,0
-175.90,152.91,-124.22,3822,-6180,-4201,-1,-1,0
-175.90,152.92,-124.22,3826,-6189,-4206,0,0,0
-175.89,152.91,-124.21,3815,-6178,-4202,0,0,-1
-175.89,152.91,-124.21,3813,-6175,-4197,0,0,0
-175.89,152.91,-124.21,3818,-6176,-4203,0,0,0
-175.89,152.91,-124.21,3816,-6183,-4208,-1,0,0
-175.89,152.91,-124.21,3818,-6182,-4202,-1,0,-1
-175.89,152.91,-124.21,3823,-6181,-4192,-1,0,-1
-175.88,152.90,-124.21,3819,-6178,-4196,0,0,-1
-175.88,152.90,-124.21,3819,-6171,-4193,0,0,-1
-175.88,152.90,-124.21,3822,-6165,-4204,-1,0,-1
-175.88,152.90,-124.21,3828,-6172,-4215,-1,0,-1
-175.88,152.89,-124.21,3822,-6173,-4214,0,0,-1
-175.87,152.89,-124.20,3823,-6173,-4195,0,0,-1
-175.86,152.88,-124.19,3824,-6162,-4174,-1,-1,0
-175.87,152.88,-124.20,3829,-6170,-4191,0,-1,0
-175.86,152.88,-124.19,3827,-6181,-4199,0,0,0
-175.86,152.88,-124.19,3829,-6175,-4190,0,0,0
-175.86,152.88,-124.18,3825,-6180,-4189,0,0,-1
-175.85,152.88,-124.18,3817,-6177,-4197,0,0,-1
-175.85,152.87,-124.16,3818,-6173,-4188,0,0,-1
-175.84,152.87,-124.16,3819,-6167,-4169,-1,-1,-1
-175.84,152.87,-124.17,3823,-6175,-4184,-1,-1,0
-175.85,152.87,-124.17,3820,-6175,-4203,0,0,-1
-175.84,152.87,-124.17,3825,-6171,-4189,-1,0,-1
-175.84,152.86,-124.17,3830,-6171,-4182,-1,0,-1
-175.84,152.86,-124.18,3827,-6172,-4190,-1,0,-1
-175.84,152.86,-124.18,3826,-6176,-4186,-1,-1,0
-175.84,152.86,-124.18,3824,-6172,-4183,-1,0,0
-175.84,152.85,-124.18,3823,-6174,-4187,0,0,0
-175.84,152.86,-124.17,3825,-6171,-4183,0,0,0
-175.84,152.86,-124.17,3825,-6164,-4188,-1,-1,0
-175.84,152.86,-124.17,3823,-6164,-4188,-1,-1,0
-175.85,152.86,-124.17,3825,-6165,-4190,0,-1,0
-175.85,152.86,-124.18,3822,-6166,-4200,-1,0,0
-175.85,152.86,-124.18,3825,-6172,-4195,0,0,-1
-175.85,152.86,-124.18,3824,-6178,-4203,-1,-1,0
-175.85,152.86,-124.18,3825,-6180,-4202,-1,-1,-1
-175.85,152.86,-124.18,3821,-6183,-4202,-1,-1,0
-175.85,152.86,-124.18,3826,-6184,-4201,-1,0,-1
-175.85,152.86,-124.18,3825,-6176,-4190,0,0,0
-175.85,152.86,-124.18,3831,-6172,-4185,-1,-1,0
-175.86,152.87,-124.20,3834,-6174,-4202,-1,-1,0
-175.85,152.86,-124.18,3836,-6177,-4207,0,0,0
-175.84,152.86,-124.17,3832,-6171,-4187,0,0,-1
-175.85,152.86,-124.18,3827,-6165,-4174,-1,-1,0
-175.86,152.87,-124.20,3830,-6173,-4197,-1,-1,0
-175.86,152.87,-124.20,3830,-6175,-4214,0,0,-1
-175.85,152.86,-124.18,3827,-6171,-4184,0,0,0
-175.84,152.86,-124.17,3829,-6159,-4164,-1,-1,0
-175.86,152.87,-124.19,3825,-6169,-4182,-1,-1,0
-175.86,152.87,-124.20,3830,-6175,-4204,0,-1,0
-175.86,152.87,-124.20,3827,-6178,-4201,0,0,0
-175.86,152.87,-124.19,3830,-6175,-4192,0,0,-1
-175.86,152.87,-124.19,3834,-6176,-4179,0,0,0
-175.86,152.87,-124.18,3827,-6181,-4184,-1,-1,0
-175.86,152.87,-124.19,3819,-6180,-4185,-1,0,0
-175.86,152.87,-124.19,3820,-6184,-4195,-1,0,-1
-175.86,152.87,-124.18,3823,-6178,-4201,0,0,-1
-175.86,152.87,-124.18,3816,-6173,-4204,-1,0,0
-175.87,152.87,-124.19,3823,-6176,-4200,-1,-1,0
-175.87,152.87,-124.20,3826,-6179,-4194,-1,-1,0
-175.87,152.87,-124.20,3830,-6185,-4203,-1,0,-1
-175.87,152.87,-124.20,3825,-6179,-4197,0,0,-1
-175.87,152.87,-124.20,3832,-6181,-4195,0,-1,-1
-175.87,152.88,-124.20,3824,-6177,-4188,-1,-1,0
-175.87,152.88,-124.20,3827,-6175,-4197,-1,-1,0
-175.88,152.88,-124.21,3825,-6174,-4207,0,0,0
-175.87,152.88,-124.20,3822,-6174,-4201,0,0,0
-175.87,152.88,-124.19,3820,-6177,-4184,-1,-1,0
-175.88,152.88,-124.20,3815,-6175,-4199,0,0,0
-175.87,152.88,-124.19,3815,-6171,-4196,0,0,-1
-175.86,152.88,-124.18,3813,-6164,-4192,-1,0,-1
-175.87,152.88,-124.20,3816,-6170,-4201,-1,-1,0
-175.87,152.88,-124.20,3823,-6176,-4198,-1,0,-1
-175.87,152.88,-124.20,3825,-6173,-4194,0,0,-1
-175.87,152.88,-124.20,3820,-6167,-4182,-1,-1,0
-175.87,152.87,-124.20,3828,-6164,-4203,-1,-1,0
-175.87,152.87,-124.21,3825,-6168,-4194,0,-1,0
-175.87,152.87,-124.20,3820,-6165,-4196,0,-1,0
-175.88,152.88,-124.21,3822,-6170,-4202,-1,-1,0
-175.88,152.88,-124.21,3824,-6170,-4205,0,-1,0
-175.88,152.88,-124.21,3820,-6167,-4195,0,0,0
-175.88,152.88,-124.21,3820,-6167,-4198,-1,-1,0
-175.89,152.89,-124.21,3820,-6177,-4206,-1,-1,0
-175.89,152.89,-124.21,3824,-6171,-4205,0,0,0
-175.89,152.88,-124.21,3821,-6170,-4191,-1,0,0
-175.89,152.89,-124.21,3816,-6169,-4192,-1,-1,0
-175.89,152.89,-124.21,3815,-6170,-4193,-1,-1,0
-175.89,152.89,-124.22,3822,-6174,-4196,-1,-1,0
-175.89,152.89,-124.22,3817,-6181,-4198,0,0,0
-175.89,152.89,-124.21,3821,-6183,-4185,0,0,-1
-175.89,152.88,-124.21,3827,-6170,-4180,-1,-1,0
-175.89,152.89,-124.22,3824,-6178,-4183,-1,-1,0
-175.89,152.89,-124.22,3824,-6178,-4203,0,0,0
-175.89,152.88,-124.21,3819,-6170,-4197,0,0,0
-175.88,152.89,-124.19,3817,-6167,-4176,-1,-1,0
-175.90,152.90,-124.21,3821,-6176,-4194,-1,-1,0
-175.91,152.90,-124.22,3825,-6178,-4218,0,-1,0
-175.89,152.90,-124.21,3816,-6175,-4211,0,0,-1
-175.90,152.91,-124.21,3811,-6173,-4200,-1,-1,0
-175.91,152.90,-124.22,3820,-6177,-4211,0,0,0
-175.90,152.91,-124.21,3818,-6184,-4214,0,0,-1
-175.90,152.90,-124.20,3818,-6180,-4193,-1,0,0
-175.90,152.90,-124.21,3826,-6179,-4185,-1,-1,0
-175.90,152.91,-124.21,3826,-6179,-4201,-1,0,0
-175.90,152.90,-124.21,3825,-6170,-4201,0,0,-1
-175.90,152.90,-124.21,3825,-6173,-4196,-1,-1,0
-175.91,152.90,-124.22,3830,-6178,-4200,-1,-1,0
-175.91,152.90,-124.22,3829,-6174,-4198,0,-1,0
-175.90,152.90,-124.22,3830,-6180,-4191,-1,-1,-1
-175.90,152.90,-124.22,3822,-6173,-4186,-1,-1,0
-175.90,152.90,-124.22,3828,-6172,-4189,-1,-1,0
-175.91,152.91,-124.22,3824,-6172,-4194,-1,-1,0
-175.91,152.91,-124.22,3825,-6172,-4193,0,-1,0
-175.91,152.91,-124.22,3825,-6172,-4196,0,-1,0
-175.91,152.91,-124.22,3822,-6170,-4187,0,0,0
-175.91,152.91,-124.22,3818,-6170,-4188,0,0,0
-175.91,152.91,-124.22,3814,-6172,-4198,-1,-1,0
-175.91,152.91,-124.22,3812,-6174,-4195,0,0,-1
-175.91,152.91,-124.22,3813,-6171,-4182,0,-1,-1
-175.91,152.91,-124.22,3810,-6177,-4179,-1,-1,0
-175.92,152.92,-124.22,3809,-6180,-4196,-1,0,0
-175.91,152.92,-124.22,3813,-6180,-4198,0,0,-1
-175.91,152.91,-124.22,3812,-6171,-4186,-1,-1,-1
-175.91,152.92,-124.22,3824,-6172,-4195,-1,-1,0
-175.91,152.92,-124.22,3823,-6172,-4201,0,0,0
-175.91,152.92,-124.22,3821,-6174,-4201,0,0,0
-175.91,152.92,-124.22,3822,-6166,-4190,-1,-1,0
-175.91,152.92,-124.22,3812,-6171,-4201,-1,-1,0
-175.91,152.92,-124.22,3810,-6175,-4203,0,-1,0
-175.91,152.93,-124.22,3809,-6177,-4188,0,-1,0
-175.92,152.93,-124.21,3814,-6178,-4189,-1,-1,0
-175.92,152.93,-124.21,3813,-6178,-4189,0,0,0
-175.91,152.93,-124.22,3816,-6179,-4181,0,0,0
-175.92,152.93,-124.21,3814,-6178,-4185,-1,-1,0
-175.92,152.93,-124.22,3808,-6180,-4195,-1,-1,0
-175.92,152.93,-124.22,3809,-6181,-4203,0,0,-1
-175.92,152.93,-124.21,3811,-6173,-4196,0,0,-1
-175.92,152.93,-124.21,3818,-6170,-4180,-1,-1,0
-175.93,152.93,-124.23,3821,-6169,-4195,-1,-1,0
-175.93,152.93,-124.23,3826,-6179,-4197,0,0,-1
-175.91,152.93,-124.22,3828,-6170,-4188,0,0,0
-175.91,152.93,-124.22,3821,-6160,-4183,-1,-1,0
-175.93,152.93,-124.22,3821,-6173,-4198,-1,-1,0
-175.93,152.93,-124.23,3819,-6176,-4208,-1,-1,0
-175.93,152.93,-124.23,3818,-6173,-4218,0,0,-1
-175.92,152.93,-124.22,3817,-6170,-4204,0,0,0
-175.91,152.93,-124.22,3816,-6171,-4187,0,0,-1
-175.91,152.93,-124.22,3817,-6167,-4183,0,0,0
-175.91,152.92,-124.21,3814,-6171,-4181,-1,0,-1
-175.90,152.91,-124.21,3820,-6171,-4192,0,0,-1
-175.89,152.90,-124.20,3821,-6171,-4194,0,0,-1
-175.88,152.89,-124.19,3822,-6166,-4185,0,0,-1
-175.88,152.89,-124.19,3821,-6170,-4184,0,0,-1
-175.87,152.88,-124.18,3822,-6166,-4190,0,0,-1
-175.87,152.88,-124.18,3829,-6169,-4194,0,0,-1
-175.86,152.87,-124.18,3831,-6173,-4198,0,0,-1
-175.85,152.86,-124.16,3822,-6176,-4194,0,0,-1
-175.84,152.86,-124.16,3818,-6168,-4178,-1,0,0
-175.85,152.86,-124.16,3823,-6169,-4181,-1,-1,0
-175.85,152.86,-124.16,3829,-6175,-4197,0,0,0
-175.85,152.86,-124.16,3833,-6170,-4201,0,0,0
-175.84,152.87,-124.15,3829,-6173,-4195,0,0,0
-175.84,152.87,-124.15,3828,-6172,-4186,-1,0,0
-175.84,152.87,-124.15,3820,-6179,-4191,-1,-1,0
-175.84,152.87,-124.15,3821,-6183,-4195,-1,0,-1
-175.84,152.87,-124.15,3823,-6182,-4181,-1,0,-1
-175.85,152.86,-124.16,3827,-6184,-4191,-1,-1,-1
-175.85,152.86,-124.16,3828,-6186,-4197,-1,0,-1
-175.85,152.86,-124.17,3825,-6171,-4202,0,0,0
-175.85,152.86,-124.17,3824,-6166,-4196,-1,-1,0
-175.87,152.87,-124.18,3834,-6174,-4204,-1,-1,0
-175.86,152.87,-124.17,3830,-6176,-4196,0,0,0
-175.85,152.86,-124.16,3826,-6170,-4176,0,-1,-1
-175.85,152.86,-124.16,3834,-6175,-4176,-1,-1,0
-175.86,152.87,-124.17,3832,-6178,-4188,0,-1,0
-175.86,152.87,-124.17,3830,-6179,-4195,0,0,0
-175.86,152.87,-124.16,3831,-6176,-4191,-1,-1,0
-175.86,152.87,-124.17,3830,-6173,-4192,-1,-1,0
-175.86,152.88,-124.16,3824,-6177,-4189,-1,0,-1
-175.86,152.87,-124.17,3823,-6173,-4195,0,0,-1
-175.86,152.87,-124.17,3822,-6174,-4189,-1,-1,0
-175.87,152.88,-124.17,3825,-6177,-4194,-1,-1,0
-175.86,152.88,-124.17,3819,-6176,-4182,0,0,-1
-175.86,152.87,-124.17,3822,-6179,-4180,-1,-1,0
-175.86,152.88,-124.17,3821,-6181,-4187,-1,-1,0
-175.87,152.88,-124.17,3831,-6181,-4189,-1,-1,0
-175.86,152.88,-124.17,3831,-6182,-4193,0,0,0
-175.86,152.88,-124.17,3824,-6178,-4195,0,0,0
-175.86,152.88,-124.17,3824,-6175,-4176,-1,-1,0
-175.88,152.89,-124.17,3818,-6175,-4182,-1,-1,0
-175.88,152.89,-124.18,3819,-6184,-4203,0,0,-1
-175.87,152.88,-124.17,3817,-6186,-4190,0,0,-1
-175.86,152.88,-124.16,3816,-6178,-4178,-1,-1,-1
-175.86,152.88,-124.16,3815,-6173,-4179,-1,-1,0
-175.88,152.89,-124.17,3826,-6172,-4187,-1,-1,0
-175.88,152.89,-124.18,3820,-6180,-4211,-1,0,-1
-175.88,152.89,-124.18,3822,-6180,-4215,0,0,-1
-175.86,152.88,-124.16,3823,-6171,-4191,0,0,-1
-175.87,152.88,-124.16,3829,-6171,-4184,-1,-1,0
-175.87,152.89,-124.16,3831,-6176,-4197,-1,-1,0
-175.88,152.89,-124.17,3831,-6172,-4202,0,0,-1
-175.86,152.88,-124.17,3828,-6171,-4188,-1,0,-1
-175.86,152.88,-124.17,3823,-6175,-4189,-1,0,-1
-175.86,152.88,-124.17,3828,-6181,-4187,-1,-1,0
-175.87,152.88,-124.17,3820,-6176,-4182,-1,-1,-1
-175.88,152.89,-124.18,3821,-6179,-4192,-1,-1,0
-175.88,152.89,-124.18,3824,-6179,-4203,0,0,-1
-175.87,152.88,-124.18,3823,-6168,-4194,0,0,-1
-175.86,152.88,-124.17,3825,-6163,-4186,-1,-1,0
-175.87,152.88,-124.18,3828,-6166,-4199,-1,-1,0
-175.89,152.89,-124.19,3825,-6173,-4213,0,-1,0
-175.88,152.89,-124.18,3823,-6174,-4199,0,0,-1
-175.87,152.89,-124.17,3828,-6171,-4191,0,0,-1
-175.88,152.89,-124.17,3828,-6174,-4184,0,0,0
-175.87,152.89,-124.16,3826,-6179,-4180,-1,0,-1
-175.88,152.89,-124.17,3827,-6187,-4192,-1,0,-1
-175.88,152.89,-124.17,3823,-6190,-4194,-1,-1,-1
-175.88,152.89,-124.17,3827,-6181,-4191,-1,-1,-1
-175.87,152.89,-124.17,3822,-6181,-4190,-1,0,-1
-175.87,152.88,-124.18,3823,-6173,-4188,-1,-1,-1
-175.87,152.88,-124.18,3828,-6177,-4191,-1,-1,0
-175.87,152.88,-124.18,3823,-6175,-4192,0,-1,-1
-175.87,152.88,-124.18,3822,-6177,-4189,-1,-1,-1
-175.87,152.88,-124.18,3820,-6174,-4192,0,0,-1
-175.87,152.88,-124.18,3828,-6169,-4188,0,-1,0
-175.88,152.89,-124.19,3825,-6172,-4197,-1,-1,0
-175.88,152.89,-124.19,3827,-6173,-4215,0,0,-1
-175.87,152.89,-124.18,3816,-6174,-4208,0,0,-1
-175.87,152.89,-124.17,3819,-6168,-4182,-1,-1,-1
-175.88,152.89,-124.18,3818,-6171,-4196,-1,-1,0
-175.88,152.89,-124.18,3824,-6179,-4202,0,0,-1
-175.88,152.89,-124.18,3823,-6180,-4192,0,0,-1
-175.88,152.89,-124.18,3818,-6178,-4190,-1,-1,-1
-175.88,152.89,-124.19,3819,-6177,-4202,-1,-1,-1
-175.88,152.89,-124.19,3812,-6174,-4197,0,-1,-1
-175.88,152.89,-124.19,3815,-6174,-4201,-1,0,0
-175.88,152.89,-124.19,3821,-6182,-4196,-1,-1,-1
-175.88,152.89,-124.20,3827,-6179,-4208,0,0,-1
-175.88,152.89,-124.19,3824,-6176,-4195,0,0,0
-175.88,152.89,-124.19,3823,-6176,-4182,-1,-1,0
-175.88,152.89,-124.19,3829,-6174,-4188,0,-1,-1
-175.88,152.89,-124.19,3829,-6170,-4187,-1,0,0
-175.88,152.89,-124.20,3827,-6168,-4201,-1,-1,-1
-175.88,152.89,-124.20,3821,-6164,-4209,0,0,0
-175.88,152.89,-124.19,3819,-6166,-4193,0,0,-1
-175.88,152.89,-124.19,3813,-6162,-4181,-1,-1,0
-175.89,152.90,-124.20,3811,-6176,-4186,-1,-1,0
-175.89,152.90,-124.21,3824,-6177,-4211,-1,-1,-1
-175.89,152.90,-124.21,3818,-6172,-4210,0,0,-1
-175.89,152.90,-124.20,3821,-6161,-4196,0,0,0
-175.89,152.90,-124.20,3814,-6162,-4185,-1,-1,0
-175.90,152.91,-124.20,3823,-6173,-4191,-1,0,0
-175.88,152.90,-124.19,3818,-6175,-4186,0,0,-1
-175.88,152.90,-124.19,3820,-6175,-4179,-1,-1,-1
-175.89,152.90,-124.20,3821,-6173,-4183,-1,-1,0
-175.91,152.91,-124.21,3813,-6180,-4203,-1,-1,0
-175.90,152.91,-124.21,3815,-6179,-4196,0,0,-1
-175.90,152.91,-124.21,3814,-6178,-4180,-1,-1,-1
-175.90,152.91,-124.22,3815,-6176,-4188,-1,-1,-1
-175.90,152.91,-124.22,3814,-6174,-4193,-1,-1,-1
-175.90,152.91,-124.22,3817,-6169,-4191,-1,-1,0
-175.91,152.92,-124.22,3819,-6169,-4188,-1,-1,-1
-175.92,152.92,-124.23,3823,-6169,-4202,-1,-1,0
-175.92,152.92,-124.23,3822,-6169,-4208,0,0,0
-175.91,152.92,-124.22,3822,-6163,-4198,0,-1,0
-175.91,152.92,-124.23,3823,-6167,-4204,-1,0,0
-175.92,152.92,-124.23,3814,-6170,-4204,0,0,-1
-175.91,152.92,-124.22,3812,-6166,-4206,0,0,-1
-175.91,152.91,-124.23,3821,-6165,-4199,-1,0,-1
-175.91,152.91,-124.23,3821,-6164,-4205,-1,-1,-1
-175.91,152.92,-124.23,3818,-6166,-4200,-1,-1,-1
-175.91,152.92,-124.24,3818,-6166,-4202,-1,-1,-1
-175.92,152.92,-124.25,3814,-6171,-4214,-1,-1,-1
-175.92,152.92,-124.25,3818,-6171,-4219,0,0,-1
-175.92,152.91,-124.25,3823,-6162,-4206,-1,-1,0
-175.92,152.91,-124.26,3826,-6165,-4208,-1,0,-1
-175.91,152.91,-124.25,3821,-6165,-4199,0,0,-1
-175.92,152.91,-124.25,3819,-6168,-4194,-1,-1,-1
-175.92,152.91,-124.25,3821,-6168,-4197,-1,0,-1
-175.91,152.91,-124.25,3818,-6178,-4201,0,0,-1
-175.90,152.90,-124.23,3819,-6170,-4209,0,0,-1
-175.89,152.89,-124.23,3828,-6166,-4194,0,0,-1
-175.89,152.88,-124.22,3827,-6170,-4186,0,0,-1
-175.88,152.88,-124.22,3821,-6175,-4199,0,0,-1
-175.87,152.87,-124.21,3817,-6173,-4197,0,0,-1
-175.87,152.87,-124.21,3820,-6174,-4192,-1,0,-1
-175.86,152.86,-124.21,3824,-6176,-4190,-1,0,-1
-175.86,152.86,-124.21,3816,-6173,-4203,0,0,-1
-175.86,152.86,-124.20,3823,-6174,-4191,0,0,-1
-175.86,152.86,-124.20,3825,-6177,-4197,0,0,-1
-175.85,152.85,-124.20,3818,-6169,-4186,0,0,-1
-175.85,152.85,-124.20,3817,-6165,-4191,-1,-1,0
-175.86,152.85,-124.20,3822,-6169,-4197,-1,0,0
-175.86,152.85,-124.20,3826,-6172,-4204,0,0,-1
-175.85,152.85,-124.19,3821,-6167,-4182,0,0,-1
-175.85,152.85,-124.19,3827,-6175,-4175,-1,-1,0
-175.86,152.86,-124.20,3824,-6176,-4189,-1,-1,0
-175.87,152.87,-124.21,3823,-6175,-4204,-1,-1,0
-175.87,152.87,-124.21,3823,-6171,-4204,0,0,-1
-175.87,152.87,-124.20,3826,-6169,-4196,0,0,0
-175.87,152.87,-124.20,3829,-6174,-4183,-1,-1,0
-175.88,152.88,-124.20,3821,-6180,-4194,-1,0,0
-175.88,152.88,-124.20,3821,-6178,-4215,0,0,-1
-175.87,152.87,-124.20,3826,-6169,-4203,0,0,-1
-175.87,152.86,-124.20,3828,-6164,-4197,-1,-1,-1
-175.87,152.87,-124.21,3833,-6171,-4197,-1,-1,0
-175.88,152.87,-124.21,3829,-6178,-4197,-1,0,-1
-175.87,152.87,-124.21,3829,-6179,-4192,-1,-1,-1
-175.88,152.87,-124.21,3815,-6186,-4197,-1,0,-1
-175.88,152.87,-124.21,3818,-6183,-4192,-1,-1,-1
-175.88,152.87,-124.21,3821,-6172,-4193,-1,-1,0
-175.88,152.87,-124.21,3823,-6168,-4186,-1,-1,0
-175.89,152.88,-124.22,3821,-6173,-4201,-1,-1,0
-175.89,152.88,-124.22,3825,-6174,-4204,0,0,0
-175.90,152.88,-124.22,3818,-6170,-4207,0,0,0
-175.90,152.88,-124.22,3821,-6163,-4197,0,0,0
-175.90,152.88,-124.22,3819,-6167,-4198,-1,0,0
-175.90,152.88,-124.22,3823,-6170,-4191,0,0,-1
-175.89,152.88,-124.21,3823,-6176,-4189,-1,-1,-1
-175.89,152.88,-124.21,3826,-6175,-4190,-1,-1,-1
-175.90,152.88,-124.22,3824,-6169,-4192,-1,-1,-1
-175.90,152.88,-124.22,3827,-6173,-4191,-1,-1,-1
-175.90,152.88,-124.23,3826,-6168,-4205,-1,0,0
-175.90,152.88,-124.23,3826,-6173,-4193,-1,-1,-1
-175.90,152.88,-124.23,3830,-6174,-4200,-1,-1,-1
-175.90,152.88,-124.23,3828,-6175,-4205,-1,-1,0
-175.90,152.89,-124.23,3828,-6166,-4205,0,-1,0
-175.90,152.89,-124.23,3822,-6170,-4200,-1,-1,0
-175.91,152.89,-124.23,3818,-6176,-4209,-1,0,-1
-175.91,152.89,-124.23,3823,-6171,-4201,0,0,-1
-175.90,152.89,-124.23,3827,-6170,-4192,0,-1,-1
-175.91,152.89,-124.23,3829,-6176,-4188,-1,-1,0
-175.91,152.89,-124.23,3834,-6169,-4205,0,0,0
-175.90,152.88,-124.23,3836,-6174,-4192,0,0,-1
-175.90,152.88,-124.22,3828,-6174,-4182,-1,0,-1
-175.90,152.88,-124.22,3833,-6177,-4192,-1,-1,-1
-175.91,152.88,-124.23,3839,-6177,-4197,-1,-1,0
-175.90,152.88,-124.23,3838,-6174,-4208,0,0,-1
-175.90,152.88,-124.22,3829,-6175,-4201,0,0,-1
-175.89,152.88,-124.21,3823,-6170,-4183,0,0,-1
-175.89,152.88,-124.21,3821,-6171,-4167,-1,-1,0
-175.90,152.88,-124.22,3822,-6174,-4183,-1,-1,0
-175.91,152.89,-124.23,3825,-6180,-4205,-1,-1,0
-175.91,152.89,-124.23,3817,-6171,-4220,0,0,-1
-175.90,152.89,-124.21,3815,-6170,-4204,0,0,-1
-175.90,152.89,-124.21,3818,-6166,-4203,-1,-1,0
-175.91,152.89,-124.22,3820,-6178,-4205,-1,-1,0
-175.91,152.89,-124.22,3820,-6177,-4213,-1,0,-1
-175.91,152.89,-124.22,3819,-6176,-4194,-1,0,-1
-175.91,152.89,-124.22,3817,-6173,-4187,-1,0,-1
-175.91,152.89,-124.22,3820,-6170,-4192,0,-1,0
-175.91,152.89,-124.23,3824,-6168,-4195,-1,-1,0
-175.91,152.89,-124.23,3835,-6176,-4201,-1,-1,-1
-175.91,152.89,-124.23,3836,-6183,-4203,0,0,-1
-175.91,152.89,-124.22,3826,-6180,-4203,0,0,-1
-175.91,152.89,-124.22,3827,-6173,-4189,0,-1,-1
-175.91,152.89,-124.22,3827,-6172,-4194,-1,-1,0
-175.91,152.89,-124.23,3829,-6167,-4203,-1,-1,-1
-175.91,152.89,-124.23,3827,-6168,-4207,0,0,0
-175.91,152.89,-124.22,3829,-6175,-4199,-1,-1,0
-175.91,152.89,-124.23,3826,-6179,-4206,-1,0,-1
-175.91,152.89,-124.22,3824,-6179,-4205,0,0,-1
-175.90,152.89,-124.21,3823,-6173,-4188,0,0,-1
-175.90,152.89,-124.21,3826,-6168,-4193,-1,-1,-1
-175.91,152.89,-124.22,3829,-6176,-4204,-1,-1,-1
-175.91,152.89,-124.22,3819,-6175,-4208,0,0,-1
-175.91,152.89,-124.22,3816,-6167,-4201,-1,0,-1
-175.91,152.89,-124.22,3819,-6164,-4192,-1,0,-1
-175.91,152.88,-124.23,3827,-6169,-4200,-1,0,-1
-175.90,152.88,-124.22,3829,-6178,-4205,0,0,-1
-175.91,152.89,-124.22,3826,-6174,-4194,-1,-1,0
-175.91,152.89,-124.22,3820,-6175,-4190,-1,0,-1
-175.91,152.89,-124.22,3814,-6173,-4192,0,0,0
-175.90,152.89,-124.21,3825,-6164,-4185,-1,-1,0
-175.91,152.89,-124.22,3823,-6171,-4189,-1,-1,0
-175.91,152.89,-124.23,3827,-6172,-4191,-1,-1,0
-175.91,152.89,-124.22,3830,-6170,-4192,0,-1,0
-175.91,152.89,-124.23,3821,-6170,-4195,-1,-1,0
-175.91,152.89,-124.23,3818,-6179,-4206,-1,-1,-1
-175.91,152.89,-124.23,3820,-6176,-4193,-1,0,-1
-175.91,152.89,-124.23,3822,-6172,-4190,-1,-1,-1
-175.93,152.90,-124.24,3825,-6173,-4205,-1,0,-1
-175.91,152.89,-124.23,3819,-6177,-4208,0,0,-1
-175.91,152.89,-124.22,3818,-6170,-4181,0,0,-1
-175.91,152.89,-124.22,3819,-6166,-4172,-1,-1,0
-175.92,152.90,-124.23,3828,-6177,-4190,-1,-1,0
-175.93,152.90,-124.24,3832,-6181,-4209,0,0,0
-175.91,152.89,-124.23,3828,-6175,-4202,0,0,-1
-175.91,152.89,-124.22,3818,-6169,-4186,0,0,-1
-175.91,152.89,-124.22,3817,-6171,-4188,-1,-1,0
-175.92,152.90,-124.21,3813,-6176,-4190,-1,-1,0
-175.92,152.91,-124.22,3820,-6178,-4190,-1,-1,0
-175.92,152.91,-124.23,3819,-6184,-4200,-1,-1,-1
-175.93,152.91,-124.23,3823,-6179,-4202,0,0,-1
-175.93,152.91,-124.23,3815,-6174,-4193,0,0,-1
-175.92,152.91,-124.23,3814,-6168,-4185,-1,-1,0
-175.93,152.91,-124.24,3818,-6174,-4190,-1,-1,0
-175.94,152.92,-124.25,3824,-6181,-4208,-1,-1,0
-175.94,152.92,-124.25,3817,-6182,-4209,0,0,-1
-175.93,152.91,-124.24,3819,-6177,-4196,-1,-1,-1
-175.94,152.92,-124.25,3822,-6164,-4192,-1,-1,0
-175.94,152.92,-124.25,3825,-6167,-4196,0,-1,0
-175.94,152.92,-124.25,3825,-6171,-4199,-1,-1,0
-175.95,152.93,-124.25,3818,-6177,-4195,-1,-1,0
-175.95,152.93,-124.25,3817,-6184,-4195,0,0,-1
-175.95,152.93,-124.24,3812,-6184,-4200,0,0,-1
-175.95,152.93,-124.24,3810,-6177,-4202,0,0,-1
-175.95,152.93,-124.24,3810,-6171,-4189,-1,-1,-1
-175.95,152.93,-124.25,3815,-6171,-4197,-1,-1,-1
-175.95,152.93,-124.26,3807,-6169,-4206,-1,-1,-1
-175.96,152.93,-124.26,3818,-6175,-4208,-1,0,-1
-175.95,152.92,-124.26,3824,-6168,-4211,0,0,-1
-175.94,152.91,-124.26,3819,-6166,-4200,-1,0,-1
-175.94,152.91,-124.26,3822,-6161,-4197,-1,-1,-1
-175.94,152.91,-124.26,3821,-6163,-4208,-1,-1,-1
-175.94,152.91,-124.26,3819,-6168,-4217,0,0,-1
-175.93,152.91,-124.26,3820,-6164,-4217,0,0,-1
-175.93,152.90,-124.25,3817,-6166,-4203,0,0,-1
-175.92,152.89,-124.25,3822,-6170,-4203,0,0,-1
-175.92,152.89,-124.25,3817,-6173,-4205,0,0,-1
-175.91,152.89,-124.23,3821,-6170,-4201,0,0,-1
-175.91,152.89,-124.23,3815,-6170,-4205,0,0,-1
-175.91,152.88,-124.23,3818,-6169,-4203,0,0,-1
-175.90,152.87,-124.23,3818,-6167,-4198,0,0,-1
-175.89,152.87,-124.22,3821,-6178,-4202,0,0,-1
-175.89,152.87,-124.22,3821,-6183,-4201,0,0,-1
-175.89,152.86,-124.21,3828,-6180,-4191,0,0,-1
-175.89,152.86,-124.22,3830,-6172,-4189,-1,-1,-1
-175.89,152.86,-124.23,3837,-6173,-4201,0,0,-1
-175.89,152.86,-124.21,3833,-6183,-4202,0,0,-1
-175.88,152.85,-124.21,3830,-6178,-4182,0,0,0
-175.88,152.86,-124.20,3828,-6171,-4172,-1,-1,0
-175.89,152.86,-124.21,3831,-6176,-4186,-1,-1,0
-175.90,152.87,-124.22,3831,-6180,-4212,0,0,0
-175.89,152.86,-124.21,3827,-6175,-4210,0,0,-1
-175.88,152.87,-124.20,3823,-6169,-4195,0,-1,0
-175.90,152.87,-124.22,3820,-6175,-4204,-1,-1,0
-175.89,152.88,-124.21,3829,-6178,-4201,0,0,0
-175.89,152.87,-124.20,3822,-6177,-4190,0,0,-1
-175.89,152.87,-124.20,3822,-6169,-4190,-1,-1,-1
-175.89,152.87,-124.21,3817,-6160,-4206,-1,0,-1
-175.89,152.86,-124.21,3818,-6163,-4200,0,0,-1
-175.89,152.86,-124.21,3822,-6160,-4183,-1,-1,0
-175.89,152.87,-124.21,3824,-6170,-4190,-1,-1,-1
-175.89,152.86,-124.22,3828,-6168,-4200,-1,-1,-1
-175.89,152.86,-124.22,3831,-6161,-4194,0,0,-1
-175.89,152.86,-124.21,3827,-6161,-4179,-1,-1,0
-175.89,152.86,-124.22,3825,-6161,-4180,-1,-1,0
-175.89,152.87,-124.22,3822,-6164,-4185,-1,-1,0
-175.90,152.87,-124.22,3824,-6164,-4198,0,0,0
-175.90,152.88,-124.22,3823,-6170,-4203,0,-1,0
-175.90,152.88,-124.22,3818,-6184,-4199,-1,0,-1
-175.90,152.88,-124.22,3814,-6181,-4196,0,0,-1
-175.90,152.88,-124.21,3817,-6178,-4184,-1,0,-1
-175.90,152.88,-124.22,3819,-6185,-4190,-1,-1,-1
-175.90,152.88,-124.22,3825,-6181,-4195,-1,-1,-1
-175.90,152.88,-124.22,3823,-6179,-4194,-1,-1,-1
-175.91,152.88,-124.22,3824,-6180,-4196,-1,-1,-1
-175.91,152.88,-124.23,3821,-6174,-4194,-1,-1,-1
-175.91,152.88,-124.23,3822,-6170,-4194,0,-1,0
-175.91,152.88,-124.23,3825,-6170,-4193,-1,-1,0
-175.91,152.88,-124.23,3825,-6165,-4201,-1,-1,-1
-175.91,152.88,-124.23,3821,-6163,-4203,0,-1,-1
-175.91,152.88,-124.23,3817,-6163,-4192,0,-1,0
-175.91,152.88,-124.23,3825,-6164,-4198,-1,-1,0
-175.92,152.89,-124.23,3824,-6167,-4214,0,0,0
-175.91,152.89,-124.22,3820,-6167,-4200,0,0,-1
-175.91,152.89,-124.22,3815,-6169,-4178,-1,0,-1
-175.91,152.89,-124.22,3819,-6171,-4179,-1,-1,0
-175.92,152.89,-124.23,3822,-6176,-4202,-1,0,0
-175.92,152.89,-124.23,3822,-6172,-4206,0,0,-1
-175.91,152.89,-124.22,3825,-6176,-4193,-1,-1,-1
-175.91,152.88,-124.23,3825,-6179,-4194,-1,-1,-1
-175.91,152.88,-124.23,3825,-6171,-4205,-1,-1,0
-175.91,152.88,-124.23,3823,-6170,-4195,-1,0,-1
-175.92,152.89,-124.23,3812,-6173,-4185,-1,-1,0
-175.92,152.89,-124.23,3823,-6171,-4188,-1,-1,-1
-175.92,152.89,-124.24,3823,-6167,-4200,-1,-1,-1
-175.92,152.88,-124.24,3819,-6169,-4202,0,0,-1
-175.92,152.89,-124.23,3815,-6165,-4195,0,0,-1
-175.91,152.89,-124.22,3816,-6163,-4184,-1,-1,0
-175.92,152.89,-124.23,3819,-6170,-4194,-1,-1,0
-175.93,152.90,-124.25,3825,-6180,-4211,-1,-1,0
-175.93,152.90,-124.24,3820,-6173,-4215,0,0,-1
-175.93,152.90,-124.24,3815,-6177,-4203,0,0,-1
-175.93,152.90,-124.24,3817,-6170,-4194,-1,0,0
-175.93,152.90,-124.24,3819,-6179,-4196,0,0,0
-175.93,152.90,-124.24,3824,-6181,-4201,-1,0,-1
-175.92,152.89,-124.23,3823,-6178,-4196,-1,0,-1
-175.92,152.89,-124.23,3823,-6174,-4200,-1,0,-1
-175.93,152.89,-124.24,3824,-6164,-4199,-1,0,-1
-175.93,152.89,-124.24,3829,-6159,-4203,-1,-1,0
-175.93,152.90,-124.25,3827,-6166,-4187,-1,-1,0
-175.93,152.89,-124.25,3826,-6176,-4199,-1,-1,-1
-175.93,152.89,-124.25,3827,-6175,-4211,0,0,-1
-175.92,152.89,-124.24,3819,-6167,-4193,0,0,-1
-175.93,152.89,-124.24,3823,-6170,-4189,-1,-1,0
-175.94,152.90,-124.26,3822,-6170,-4210,-1,-1,0
-175.95,152.91,-124.26,3819,-6173,-4220,0,0,0
-175.93,152.90,-124.25,3821,-6176,-4208,0,0,-1
-175.94,152.91,-124.25,3817,-6175,-4193,-1,0,0
-175.94,152.91,-124.25,3820,-6173,-4191,0,-1,0
-175.93,152.90,-124.24,3825,-6167,-4187,0,-1,0
-175.94,152.91,-124.24,3823,-6175,-4180,-1,-1,0
-175.94,152.91,-124.25,3826,-6179,-4190,-1,-1,-1
-175.94,152.91,-124.25,3822,-6175,-4191,-1,0,-1
-175.94,152.91,-124.25,3818,-6167,-4185,-1,0,-1
-175.94,152.90,-124.25,3816,-6164,-4195,-1,-1,-1
-175.94,152.90,-124.26,3815,-6165,-4196,-1,-1,0
-175.95,152.91,-124.26,3816,-6170,-4196,-1,-1,0
-175.95,152.91,-124.26,3823,-6169,-4198,-1,-1,0
-175.95,152.91,-124.26,3824,-6164,-4201,0,-1,-1
-175.95,152.92,-124.26,3822,-6164,-4199,0,-1,0
-175.95,152.92,-124.26,3815,-6167,-4196,0,-1,0
-175.96,152.93,-124.26,3816,-6169,-4194,-1,-1,0
-175.96,152.93,-124.26,3821,-6175,-4197,-1,-1,0
-175.96,152.93,-124.26,3815,-6166,-4205,-1,0,-1
-175.96,152.92,-124.27,3816,-6163,-4217,0,0,-1
-175.96,152.92,-124.27,3816,-6168,-4209,-1,-1,-1
-175.96,152.92,-124.27,3822,-6171,-4209,-1,-1,-1
-175.95,152.92,-124.26,3818,-6167,-4200,0,0,-1
-175.95,152.92,-124.26,3814,-6176,-4190,-1,-1,-1
-175.97,152.93,-124.26,3816,-6179,-4192,-1,-1,0
-175.98,152.93,-124.28,3824,-6177,-4212,-1,-1,-1
-175.96,152.92,-124.28,3824,-6174,-4224,0,0,-1
-175.96,152.93,-124.27,3813,-6173,-4204,0,0,-1
-175.96,152.93,-124.27,3808,-6171,-4196,-1,-1,0
-175.97,152.94,-124.27,3816,-6179,-4206,-1,-1,0
-175.98,152.94,-124.28,3815,-6181,-4206,-1,-1,0
-175.98,152.95,-124.28,3811,-6175,-4217,-1,-1,0
-175.98,152.95,-124.28,3813,-6172,-4209,0,-1,-1
-175.98,152.95,-124.28,3814,-6164,-4209,0,0,-1
-175.98,152.95,-124.28,3814,-6169,-4212,0,-1,0
-175.98,152.95,-124.28,3818,-6170,-4206,-1,-1,-1
-175.98,152.95,-124.28,3823,-6172,-4200,-1,0,-1
-175.98,152.94,-124.29,3829,-6178,-4210,-1,0,-1
-175.97,152.94,-124.29,3829,-6176,-4214,0,0,-1
-175.97,152.93,-124.28,3820,-6173,-4210,0,0,-1
-175.96,152.92,-124.28,3816,-6171,-4206,-1,0,-1
-175.96,152.93,-124.28,3820,-6173,-4214,-1,0,-1
-175.96,152.92,-124.28,3820,-6180,-4203,0,0,-1
-175.94,152.91,-124.26,3820,-6174,-4202,0,0,-1
-175.94,152.90,-124.26,3815,-6165,-4198,0,0,-1
-175.94,152.90,-124.26,3819,-6167,-4199,0,0,-1
-175.94,152.90,-124.26,3818,-6173,-4207,0,0,-1
-175.93,152.90,-124.25,3822,-6171,-4210,0,0,0
-175.92,152.89,-124.23,3822,-6172,-4193,0,0,-1
-175.91,152.89,-124.22,3825,-6173,-4193,0,0,-1
-175.90,152.88,-124.22,3825,-6172,-4197,0,0,-1
-175.90,152.87,-124.22,3825,-6169,-4196,0,0,-1
-175.90,152.87,-124.21,3826,-6172,-4187,-1,0,-1
-175.89,152.87,-124.21,3830,-6176,-4187,-1,0,-1
-175.89,152.87,-124.21,3828,-6175,-4197,-1,0,-1
-175.90,152.87,-124.22,3827,-6170,-4200,-1,0,-1
-175.90,152.87,-124.22,3830,-6166,-4192,-1,0,-1
-175.90,152.87,-124.22,3829,-6168,-4202,-1,0,-1
-175.90,152.87,-124.22,3832,-6175,-4199,0,-1,0
-175.90,152.87,-124.22,3828,-6171,-4191,-1,-1,0
-175.89,152.87,-124.21,3826,-6173,-4196,-1,0,0
-175.90,152.87,-124.22,3821,-6175,-4198,-1,-1,0
-175.90,152.87,-124.22,3826,-6174,-4195,0,-1,0
-175.90,152.87,-124.22,3825,-6175,-4199,0,-1,-1
-175.90,152.87,-124.22,3818,-6176,-4195,-1,-1,0
-175.90,152.87,-124.22,3819,-6174,-4195,-1,0,0
-175.91,152.88,-124.22,3821,-6175,-4190,0,0,-1
-175.91,152.88,-124.22,3818,-6174,-4190,-1,0,-1
-175.91,152.88,-124.22,3820,-6171,-4187,-1,0,0
-175.91,152.88,-124.22,3821,-6169,-4188,-1,-1,0
-175.91,152.88,-124.22,3818,-6173,-4195,-1,0,-1
-175.91,152.88,-124.22,3821,-6168,-4196,0,0,-1
-175.91,152.88,-124.21,3821,-6163,-4188,0,-1,-1
-175.91,152.88,-124.22,3829,-6167,-4193,-1,-1,0
-175.92,152.88,-124.23,3833,-6176,-4217,-1,0,0
-175.91,152.88,-124.21,3824,-6169,-4207,0,0,-1
-175.89,152.87,-124.20,3825,-6167,-4175,0,0,-1
-175.90,152.87,-124.20,3821,-6170,-4172,-1,-1,0
-175.91,152.88,-124.22,3822,-6182,-4192,-1,-1,0
-175.91,152.89,-124.21,3817,-6183,-4210,0,0,0
-175.91,152.88,-124.21,3821,-6175,-4205,0,0,0
-175.91,152.89,-124.21,3817,-6172,-4197,-1,0,0
-175.91,152.89,-124.21,3818,-6176,-4201,0,0,0
-175.91,152.89,-124.20,3818,-6173,-4197,0,0,0
-175.91,152.89,-124.21,3826,-6177,-4189,-1,-1,0
-175.91,152.89,-124.21,3829,-6177,-4195,-1,0,-1
-175.91,152.88,-124.20,3824,-6174,-4201,0,0,-1
-175.91,152.88,-124.20,3821,-6170,-4187,-1,-1,0
-175.92,152.89,-124.22,3823,-6175,-4193,-1,-1,0
-175.92,152.89,-124.22,3829,-6182,-4200,-1,-1,0
-175.92,152.89,-124.22,3829,-6183,-4198,0,0,-1
-175.91,152.88,-124.20,3825,-6177,-4184,0,0,-1
-175.90,152.88,-124.21,3818,-6167,-4180,-1,-1,0
-175.91,152.89,-124.21,3822,-6165,-4178,-1,-1,0
-175.92,152.89,-124.21,3821,-6174,-4190,-1,-1,0
-175.92,152.89,-124.21,3823,-6171,-4204,0,0,0
-175.91,152.90,-124.20,3831,-6177,-4201,0,0,0
-175.91,152.89,-124.20,3823,-6174,-4189,0,0,-1
-175.91,152.89,-124.20,3819,-6167,-4195,0,0,0
-175.91,152.89,-124.20,3821,-6170,-4189,-1,-1,0
-175.91,152.89,-124.21,3822,-6170,-4190,-1,-1,0
-175.92,152.89,-124.21,3819,-6177,-4204,0,0,0
-175.91,152.89,-124.21,3819,-6178,-4202,0,0,-1
-175.91,152.89,-124.21,3818,-6177,-4186,-1,-1,-1
-175.92,152.89,-124.22,3823,-6173,-4200,-1,-1,0
-175.92,152.89,-124.22,3829,-6180,-4202,0,0,0
-175.91,152.89,-124.21,3828,-6180,-4192,0,-1,0
-175.92,152.89,-124.21,3828,-6183,-4182,-1,-1,0
-175.92,152.89,-124.22,3822,-6177,-4193,-1,-1,0
-175.92,152.89,-124.21,3820,-6172,-4194,0,-1,0
-175.92,152.89,-124.21,3826,-6165,-4198,-1,-1,0
-175.92,152.90,-124.22,3824,-6168,-4194,-1,-1,0
-175.92,152.90,-124.22,3820,-6181,-4194,0,-1,0
-175.92,152.90,-124.22,3815,-6178,-4185,-1,-1,-1
-175.93,152.90,-124.22,3818,-6177,-4198,-1,0,-1
-175.94,152.91,-124.23,3820,-6174,-4212,-1,0,0
-175.93,152.90,-124.23,3821,-6169,-4201,-1,0,-1
-175.93,152.90,-124.23,3822,-6169,-4182,-1,-1,0
-175.94,152.91,-124.23,3822,-6173,-4194,-1,-1,0
-175.94,152.91,-124.23,3820,-6179,-4195,-1,-1,0
-175.94,152.91,-124.24,3820,-6172,-4201,0,0,0
-175.94,152.91,-124.23,3821,-6181,-4198,0,0,0
-175.94,152.91,-124.23,3821,-6179,-4195,-1,-1,0
-175.94,152.91,-124.23,3817,-6172,-4184,-1,-1,0
-175.95,152.92,-124.24,3825,-6176,-4205,-1,-1,0
-175.95,152.92,-124.24,3822,-6177,-4201,0,0,-1
-175.94,152.91,-124.23,3821,-6167,-4181,0,0,-1
-175.94,152.92,-124.22,3819,-6167,-4175,-1,-1,0
-175.95,152.92,-124.24,3824,-6169,-4186,-1,-1,0
-175.95,152.92,-124.25,3818,-6172,-4204,-1,-1,0
-175.96,152.93,-124.25,3815,-6175,-4205,-1,-1,0
-175.96,152.93,-124.25,3810,-6175,-4206,0,0,0
-175.96,152.93,-124.24,3806,-6173,-4199,0,0,-1
-175.95,152.92,-124.24,3811,-6166,-4194,-1,0,0
-175.96,152.93,-124.24,3815,-6166,-4184,-1,-1,0
-175.96,152.93,-124.25,3818,-6177,-4197,-1,0,0
-175.96,152.93,-124.24,3818,-6180,-4198,0,0,-1
-175.96,152.93,-124.24,3818,-6178,-4178,-1,-1,0
-175.96,152.93,-124.24,3817,-6171,-4186,-1,-1,0
-175.97,152.93,-124.25,3814,-6179,-4203,-1,-1,0
-175.97,152.93,-124.25,3813,-6172,-4208,0,0,0
-175.97,152.93,-124.25,3814,-6170,-4191,-1,-1,0
-175.97,152.94,-124.25,3813,-6167,-4195,-1,-1,0
-175.97,152.94,-124.26,3815,-6169,-4211,-1,-1,0
-175.98,152.94,-124.27,3815,-6164,-4215,-1,-1,0
-175.98,152.95,-124.27,3820,-6166,-4217,0,-1,0
-175.98,152.95,-124.27,3819,-6172,-4220,0,0,0
-175.97,152.94,-124.26,3808,-6175,-4211,0,0,-1
-175.97,152.94,-124.26,3811,-6177,-4204,0,0,-1
-175.97,152.94,-124.25,3808,-6182,-4203,-1,0,-1
-175.97,152.94,-124.25,3812,-6181,-4208,-1,0,-1
-175.97,152.93,-124.25,3818,-6185,-4206,-1,0,-1
-175.97,152.93,-124.25,3816,-6181,-4203,-1,0,-1
-175.96,152.92,-124.26,3819,-6175,-4206,-1,0,-1
-175.96,152.92,-124.26,3821,-6170,-4204,-1,0,-1
-175.95,152.92,-124.25,3827,-6174,-4197,0,0,-1
-175.94,152.91,-124.25,3820,-6175,-4195,0,0,-1
-175.94,152.91,-124.25,3817,-6171,-4198,-1,-1,0
-175.95,152.91,-124.25,3819,-6177,-4208,-1,0,-1
-175.95,152.91,-124.24,3819,-6180,-4200,0,0,0
-175.94,152.91,-124.23,3815,-6176,-4195,0,0,0
-175.94,152.91,-124.23,3813,-6171,-4197,0,0,-1
-175.93,152.90,-124.22,3821,-6175,-4201,0,0,-1
-175.92,152.89,-124.21,3825,-6172,-4195,0,0,-1
-175.91,152.89,-124.21,3824,-6171,-4189,-1,0,-1
-175.91,152.89,-124.21,3824,-6176,-4195,-1,-1,-1
-175.91,152.89,-124.21,3820,-6177,-4197,0,0,-1
-175.91,152.89,-124.21,3818,-6173,-4200,0,0,-1
-175.91,152.89,-124.21,3820,-6166,-4197,-1,-1,0
-175.92,152.89,-124.22,3824,-6166,-4199,-1,0,0
-175.92,152.89,-124.22,3825,-6168,-4212,0,-1,0
-175.92,152.89,-124.22,3832,-6167,-4215,-1,-1,0
-175.92,152.89,-124.22,3824,-6169,-4206,0,0,0
-175.92,152.89,-124.22,3822,-6166,-4193,0,0,0
-175.92,152.89,-124.22,3818,-6172,-4191,-1,-1,-1
-175.93,152.89,-124.22,3824,-6175,-4209,-1,0,-1
-175.92,152.88,-124.22,3823,-6175,-4211,0,0,0
-175.91,152.88,-124.21,3817,-6172,-4189,0,0,0
-175.91,152.89,-124.21,3823,-6171,-4179,-1,-1,0
-175.93,152.89,-124.22,3831,-6178,-4190,-1,-1,0
-175.93,152.89,-124.23,3825,-6177,-4211,-1,0,0
-175.92,152.88,-124.22,3827,-6167,-4206,0,0,-1
-175.92,152.89,-124.22,3817,-6162,-4198,0,0,-1
-175.92,152.89,-124.22,3818,-6161,-4195,0,0,0
-175.93,152.89,-124.22,3824,-6168,-4188,0,0,0
-175.91,152.88,-124.21,3826,-6173,-4181,-1,0,-1
-175.91,152.88,-124.21,3820,-6183,-4181,-1,0,0
-175.91,152.88,-124.21,3824,-6176,-4186,-1,0,-1
-175.91,152.88,-124.21,3823,-6168,-4191,-1,-1,0
-175.91,152.88,-124.21,3826,-6162,-4195,-1,-1,0
-175.92,152.88,-124.22,3823,-6175,-4204,-1,-1,0
-175.93,152.89,-124.22,3821,-6179,-4203,0,0,-1
-175.92,152.88,-124.22,3820,-6174,-4199,0,0,-1
-175.92,152.88,-124.22,3823,-6168,-4199,-1,-1,0
-175.92,152.88,-124.22,3823,-6169,-4198,-1,-1,0
-175.93,152.89,-124.23,3821,-6162,-4209,-1,-1,0
-175.93,152.89,-124.23,3820,-6167,-4207,0,0,0
-175.93,152.89,-124.23,3823,-6168,-4203,0,0,0
-175.93,152.89,-124.22,3827,-6169,-4195,0,0,0
-175.93,152.89,-124.22,3821,-6169,-4192,0,0,0
-175.93,152.89,-124.22,3819,-6163,-4189,-1,0,0
-175.93,152.89,-124.22,3817,-6173,-4191,-1,0,0
-175.93,152.89,-124.22,3820,-6175,-4198,-1,-1,0
-175.93,152.89,-124.22,3820,-6172,-4202,-1,-1,-1
-175.93,152.89,-124.23,3824,-6168,-4197,-1,-1,-1
-175.93,152.89,-124.23,3818,-6169,-4193,-1,-1,0
-175.93,152.89,-124.23,3816,-6170,-4194,-1,-1,-1
-175.93,152.89,-124.23,3823,-6169,-4202,0,-1,0
-175.94,152.89,-124.24,3818,-6165,-4194,-1,-1,0
-175.95,152.89,-124.24,3820,-6171,-4207,0,-1,0
-175.94,152.89,-124.24,3819,-6174,-4205,0,0,-1
-175.94,152.89,-124.24,3818,-6171,-4196,0,0,-1
-175.94,152.90,-124.23,3813,-6174,-4197,-1,-1,0
-175.95,152.90,-124.24,3819,-6177,-4211,0,0,0
-175.94,152.90,-124.23,3817,-6175,-4208,0,0,-1
-175.93,152.89,-124.23,3822,-6168,-4198,-1,0,0
-175.94,152.89,-124.24,3824,-6167,-4200,-1,-1,0
-175.94,152.90,-124.23,3820,-6171,-4209,0,0,0
-175.94,152.90,-124.23,3814,-6173,-4212,-1,0,0
-175.94,152.90,-124.23,3819,-6173,-4200,-1,-1,0
-175.95,152.90,-124.25,3822,-6177,-4207,-1,-1,-1
-175.94,152.90,-124.23,3826,-6183,-4212,0,0,-1
-175.93,152.89,-124.23,3814,-6173,-4186,0,0,-1
-175.93,152.90,-124.22,3814,-6165,-4171,-1,-1,0
-175.94,152.90,-124.23,3822,-6173,-4183,-1,-1,0
-175.95,152.91,-124.23,3819,-6184,-4208,-1,-1,0
-175.95,152.91,-124.23,3820,-6178,-4214,0,0,-1
-175.94,152.90,-124.22,3807,-6171,-4201,0,0,0
-175.94,152.90,-124.22,3815,-6169,-4204,-1,0,0
-175.95,152.91,-124.22,3820,-6171,-4208,-1,-1,0
-175.95,152.91,-124.22,3820,-6174,-4208,-1,0,0
-175.95,152.91,-124.23,3813,-6172,-4212,-1,0,-1
-175.95,152.91,-124.23,3815,-6167,-4207,-1,0,-1
-175.95,152.91,-124.23,3815,-6162,-4205,0,0,-1
-175.94,152.90,-124.23,3820,-6162,-4190,-1,-1,0
-175.96,152.91,-124.24,3824,-6174,-4200,-1,-1,0
-175.96,152.91,-124.24,3825,-6180,-4222,0,0,-1
-175.94,152.90,-124.23,3830,-6175,-4212,0,0,-1
-175.94,152.90,-124.23,3826,-6162,-4188,-1,-1,0
-175.95,152.91,-124.24,3825,-6166,-4186,-1,-1,0
-175.96,152.91,-124.24,3826,-6172,-4204,0,-1,0
-175.96,152.91,-124.23,3826,-6176,-4197,0,0,0
-175.96,152.91,-124.23,3825,-6170,-4198,0,0,0
-175.96,152.91,-124.23,3823,-6168,-4207,-1,0,0
-175.96,152.91,-124.23,3815,-6168,-4210,0,-1,0
-175.96,152.91,-124.23,3819,-6168,-4194,-1,-1,0
-175.96,152.91,-124.23,3827,-6175,-4202,-1,-1,-1
-175.96,152.92,-124.25,3825,-6171,-4212,0,-1,-1
-175.95,152.91,-124.24,3826,-6167,-4206,-1,0,-1
-175.96,152.91,-124.24,3824,-6169,-4198,-1,-1,0
-175.97,152.91,-124.25,3822,-6165,-4199,-1,-1,0
-175.96,152.91,-124.25,3820,-6168,-4208,-1,0,-1
-175.97,152.91,-124.25,3819,-6164,-4202,-1,-1,0
-175.97,152.91,-124.25,3820,-6169,-4202,-1,0,0
-175.97,152.91,-124.25,3824,-6174,-4204,0,-1,0
-175.97,152.91,-124.25,3822,-6171,-4201,-1,-1,0
-175.97,152.92,-124.26,3820,-6175,-4201,-1,-1,0
-175.97,152.92,-124.25,3823,-6175,-4202,0,-1,0
-175.97,152.92,-124.25,3819,-6165,-4198,-1,-1,0
-175.97,152.92,-124.25,3816,-6166,-4201,-1,-1,0
-175.97,152.92,-124.25,3816,-6170,-4199,0,0,0
-175.96,152.92,-124.25,3820,-6159,-4207,-1,-1,-1
-175.96,152.92,-124.26,3815,-6162,-4199,-1,-1,0
-175.98,152.92,-124.27,3820,-6170,-4221,-1,-1,0
-175.98,152.92,-124.27,3814,-6176,-4221,0,0,-1
-175.96,152.92,-124.26,3809,-6167,-4195,0,0,-1
-175.96,152.92,-124.26,3815,-6162,-4184,-1,-1,0
-175.97,152.93,-124.26,3818,-6174,-4196,-1,-1,0
-175.98,152.92,-124.27,3820,-6174,-4215,0,-1,0
-175.97,152.93,-124.26,3821,-6176,-4215,0,0,0
-175.97,152.93,-124.26,3821,-6171,-4215,0,0,0
-175.97,152.93,-124.26,3814,-6170,-4205,0,0,0
-175.98,152.93,-124.26,3805,-6170,-4203,-1,-1,0
-175.98,152.93,-124.26,3814,-6181,-4198,-1,-1,0
-175.98,152.93,-124.26,3813,-6181,-4211,-1,0,0
-175.98,152.93,-124.26,3813,-6178,-4212,-1,0,-1
-175.98,152.93,-124.27,3808,-6176,-4206,0,0,0
-175.98,152.93,-124.27,3816,-6169,-4203,-1,-1,0
-175.99,152.94,-124.28,3821,-6170,-4193,-1,-1,0
-175.99,152.94,-124.28,3817,-6170,-4198,-1,-1,0
-175.99,152.94,-124.28,3818,-6175,-4207,0,0,0
-175.98,152.93,-124.27,3822,-6168,-4214,0,0,-1
-175.97,152.93,-124.27,3821,-6167,-4194,0,-1,0
-175.99,152.94,-124.28,3820,-6164,-4208,-1,-1,0
-175.99,152.94,-124.29,3818,-6162,-4219,0,-1,0
-176.00,152.95,-124.28,3817,-6172,-4224,0,0,0
-175.99,152.94,-124.27,3822,-6170,-4205,0,0,0
-175.99,152.94,-124.27,3818,-6170,-4197,-1,-1,0
-176.00,152.95,-124.27,3814,-6170,-4200,-1,-1,0
-176.00,152.95,-124.27,3818,-6172,-4212,-1,-1,0
-176.00,152.95,-124.28,3815,-6176,-4204,-1,-1,0
-176.00,152.95,-124.28,3815,-6177,-4208,-1,-1,0
-176.01,152.95,-124.29,3808,-6169,-4213,-1,-1,-1
-176.00,152.94,-124.29,3814,-6171,-4210,0,0,-1
-176.00,152.94,-124.29,3814,-6166,-4200,-1,-1,0
-176.01,152.95,-124.29,3810,-6172,-4203,-1,-1,0
-176.01,152.95,-124.30,3811,-6172,-4206,0,0,-1
-176.00,152.94,-124.29,3816,-6175,-4198,0,0,-1
-175.99,152.94,-124.29,3823,-6174,-4201,0,0,-1
-175.99,152.94,-124.29,3819,-6168,-4199,0,0,-1
-175.99,152.94,-124.28,3820,-6170,-4207,0,0,-1
-175.99,152.94,-124.28,3814,-6177,-4206,0,0,0
-175.98,152.93,-124.27,3810,-6176,-4214,0,0,-1
-175.98,152.93,-124.26,3811,-6172,-4214,0,0,-1
-175.97,152.93,-124.26,3813,-6177,-4212,-1,0,-1
-175.97,152.93,-124.26,3815,-6175,-4208,-1,0,0
-175.97,152.92,-124.26,3815,-6182,-4208,-1,0,-1
-175.97,152.92,-124.26,3820,-6176,-4210,0,0,-1
-175.96,152.91,-124.25,3828,-6178,-4213,0,0,-1
-175.95,152.90,-124.25,3825,-6172,-4203,0,0,-1
-175.95,152.90,-124.24,3823,-6170,-4193,0,0,-1
-175.95,152.90,-124.24,3821,-6163,-4194,-1,-1,0
-175.95,152.90,-124.25,3831,-6168,-4206,-1,-1,0
-175.95,152.90,-124.25,3826,-6174,-4221,0,0,-1
-175.95,152.90,-124.25,3819,-6173,-4211,0,0,-1
-175.94,152.90,-124.23,3823,-6167,-4196,0,0,0
-175.94,152.90,-124.23,3822,-6170,-4188,-1,0,0
-175.94,152.90,-124.23,3817,-6177,-4193,0,0,0
-175.94,152.90,-124.23,3823,-6177,-4198,-1,0,-1
-175.94,152.90,-124.23,3831,-6178,-4209,-1,0,-1
-175.93,152.89,-124.23,3823,-6169,-4206,0,0,-1
-175.94,152.90,-124.23,3818,-6172,-4200,-1,-1,0
-175.95,152.89,-124.25,3817,-6170,-4209,-1,-1,0
-175.95,152.90,-124.25,3821,-6171,-4219,0,0,-1
-175.94,152.89,-124.25,3828,-6173,-4202,-1,0,-1
-175.95,152.89,-124.24,3822,-6175,-4196,-1,0,-1
-175.93,152.89,-124.23,3828,-6171,-4191,0,0,-1
-175.93,152.89,-124.23,3823,-6170,-4193,-1,-1,-1
-175.94,152.89,-124.24,3821,-6171,-4212,-1,-1,0
-175.94,152.90,-124.23,3818,-6178,-4216,0,0,0
-175.94,152.89,-124.23,3817,-6174,-4210,0,0,0
-175.94,152.89,-124.22,3816,-6173,-4196,0,0,0
-175.93,152.89,-124.22,3818,-6176,-4191,-1,-1,0
-175.94,152.89,-124.22,3820,-6174,-4196,-1,0,-1
-175.94,152.89,-124.22,3815,-6176,-4193,-1,0,-1
-175.94,152.89,-124.22,3817,-6176,-4198,-1,-1,-1
-175.94,152.89,-124.23,3818,-6175,-4198,-1,0,-1
-175.94,152.89,-124.23,3821,-6172,-4201,-1,0,-1
-175.93,152.89,-124.23,3824,-6168,-4195,-1,-1,-1
-175.94,152.89,-124.23,3824,-6173,-4203,-1,-1,0
-175.94,152.89,-124.23,3833,-6175,-4203,0,0,0
-175.93,152.89,-124.23,3829,-6171,-4203,0,0,0
-175.93,152.89,-124.23,3826,-6175,-4194,0,-1,-1
-175.93,152.89,-124.22,3829,-6165,-4201,0,-1,0
-175.93,152.89,-124.23,3826,-6165,-4205,0,0,0
-175.94,152.89,-124.22,3819,-6167,-4196,-1,-1,0
-175.94,152.89,-124.22,3812,-6169,-4180,0,0,0
-175.93,152.89,-124.22,3815,-6173,-4184,-1,-1,0
-175.94,152.90,-124.22,3812,-6173,-4196,-1,0,-1
-175.93,152.89,-124.22,3818,-6165,-4198,0,0,-1
-175.93,152.89,-124.23,3824,-6162,-4187,-1,-1,0
-175.94,152.90,-124.23,3820,-6176,-4203,-1,-1,0
-175.94,152.90,-124.22,3823,-6177,-4212,0,0,-1
-175.94,152.90,-124.22,3818,-6170,-4189,-1,0,-1
-175.93,152.89,-124.23,3826,-6167,-4190,-1,-1,0
-175.94,152.89,-124.22,3824,-6173,-4199,0,0,0
-175.93,152.89,-124.22,3820,-6163,-4197,0,0,0
-175.93,152.89,-124.22,3827,-6170,-4181,-1,-1,0
-175.94,152.90,-124.22,3827,-6178,-4198,-1,-1,0
-175.94,152.90,-124.23,3819,-6180,-4218,0,0,0
-175.94,152.90,-124.22,3823,-6164,-4208,0,0,0
-175.93,152.90,-124.22,3824,-6162,-4192,-1,-1,0
-175.94,152.90,-124.22,3823,-6167,-4203,-1,0,0
-175.94,152.90,-124.22,3825,-6169,-4214,0,0,0
-175.94,152.90,-124.22,3827,-6169,-4202,-1,0,-1
-175.94,152.90,-124.22,3823,-6167,-4201,-1,0,-1
-175.94,152.90,-124.22,3818,-6173,-4196,-1,0,-1
-175.94,152.90,-124.22,3821,-6171,-4194,-1,-1,-1
-175.94,152.90,-124.22,3820,-6164,-4190,-1,-1,0
-175.94,152.90,-124.22,3829,-6161,-4184,-1,0,0
-175.94,152.90,-124.22,3827,-6165,-4204,0,0,0
-175.93,152.89,-124.22,3821,-6166,-4199,0,0,-1
-175.93,152.89,-124.22,3824,-6163,-4189,-1,-1,0
-175.93,152.89,-124.23,3828,-6165,-4211,-1,-1,0
-175.94,152.90,-124.23,3828,-6167,-4219,0,-1,0
-175.94,152.90,-124.23,3833,-6162,-4213,0,-1,0
-175.94,152.90,-124.23,3827,-6171,-4220,0,0,0
-175.94,152.90,-124.22,3827,-6184,-4204,0,0,0
-175.92,152.89,-124.21,3828,-6180,-4195,0,0,-1
-175.92,152.89,-124.21,3826,-6176,-4201,-1,-1,0
-175.93,152.90,-124.22,3828,-6176,-4210,-1,-1,0
-175.93,152.90,-124.22,3822,-6172,-4207,0,0,-1
-175.92,152.89,-124.21,3822,-6174,-4199,-1,0,-1
-175.93,152.89,-124.22,3816,-6170,-4201,-1,-1,-1
-175.93,152.89,-124.23,3815,-6168,-4211,-1,0,0
-175.93,152.89,-124.22,3821,-6173,-4197,0,-1,-1
-175.93,152.90,-124.22,3820,-6179,-4199,-1,-1,0
-175.93,152.90,-124.22,3828,-6180,-4200,0,-1,0
-175.92,152.89,-124.21,3833,-6173,-4186,0,0,0
-175.93,152.90,-124.21,3822,-6174,-4186,-1,-1,0
-175.93,152.90,-124.21,3821,-6178,-4191,-1,-1,0
-175.93,152.90,-124.21,3819,-6174,-4199,0,0,0
-175.93,152.90,-124.21,3821,-6175,-4188,0,0,-1
-175.93,152.90,-124.21,3823,-6178,-4188,-1,0,0
-175.92,152.90,-124.20,3814,-6176,-4183,-1,0,0
-175.92,152.90,-124.20,3820,-6178,-4188,-1,-1,0
-175.93,152.90,-124.21,3813,-6175,-4198,-1,0,0
-175.93,152.90,-124.21,3817,-6174,-4208,0,0,-1
-175.92,152.90,-124.20,3825,-6167,-4190,0,-1,0
-175.93,152.90,-124.21,3822,-6171,-4190,-1,-1,0
-175.93,152.90,-124.22,3824,-6178,-4216,0,0,-1
-175.93,152.90,-124.21,3821,-6174,-4205,0,0,-1
-175.92,152.89,-124.20,3819,-6170,-4197,0,-1,0
-175.92,152.90,-124.20,3822,-6161,-4189,-1,-1,0
-175.93,152.90,-124.22,3821,-6169,-4200,-1,-1,0
-175.93,152.91,-124.22,3825,-6169,-4217,-1,-1,0
-175.93,152.91,-124.22,3818,-6166,-4217,0,0,0
-175.93,152.91,-124.22,3816,-6163,-4207,0,0,0
-175.93,152.91,-124.21,3814,-6164,-4198,0,-1,0
-175.94,152.91,-124.21,3812,-6174,-4192,-1,-1,0
-175.94,152.92,-124.21,3823,-6176,-4203,-1,-1,0
-175.95,152.92,-124.23,3816,-6171,-4205,-1,-1,0
-175.95,152.92,-124.23,3818,-6171,-4200,-1,-1,0
-175.96,152.93,-124.25,3818,-6176,-4216,-1,-1,-1
-175.96,152.93,-124.25,3818,-6179,-4212,0,0,-1
-175.95,152.92,-124.24,3818,-6167,-4206,-1,-1,0
-175.96,152.92,-124.25,3820,-6169,-4203,-1,-1,0
-175.96,152.92,-124.26,3824,-6174,-4207,0,-1,0
-175.97,152.93,-124.25,3815,-6171,-4204,0,-1,-1
-175.97,152.93,-124.26,3811,-6163,-4200,-1,-1,0
-175.97,152.93,-124.26,3818,-6165,-4204,-1,-1,0
-175.97,152.94,-124.26,3813,-6172,-4217,0,-1,0
-175.97,152.94,-124.25,3811,-6170,-4212,0,0,0
-175.97,152.95,-124.25,3807,-6169,-4205,-1,-1,0
-175.98,152.95,-124.26,3806,-6173,-4219,0,0,0
-175.97,152.95,-124.25,3808,-6178,-4210,0,0,-1
-175.97,152.95,-124.25,3810,-6174,-4207,0,0,-1
-175.97,152.95,-124.25,3812,-6175,-4192,-1,-1,0
-175.97,152.95,-124.25,3815,-6171,-4192,-1,-1,0
-175.97,152.94,-124.26,3805,-6175,-4199,-1,-1,-1
-175.97,152.94,-124.26,3811,-6170,-4183,-1,0,-1
-175.97,152.94,-124.26,3815,-6174,-4193,-1,0,-1
-175.97,152.94,-124.26,3817,-6172,-4210,0,-1,0
-175.97,152.94,-124.26,3812,-6169,-4199,-1,-1,0
-175.98,152.95,-124.26,3813,-6172,-4205,-1,-1,0
-175.98,152.95,-124.27,3819,-6173,-4211,-1,-1,0
-175.98,152.95,-124.26,3816,-6171,-4202,0,0,0
-175.98,152.95,-124.26,3819,-6170,-4192,-1,-1,0
-175.98,152.96,-124.27,3816,-6164,-4198,-1,-1,0
-175.99,152.96,-124.28,3813,-6173,-4212,-1,-1,0
-175.99,152.95,-124.28,3812,-6178,-4204,0,0,-1
-175.98,152.96,-124.27,3807,-6174,-4193,0,0,-1
-175.98,152.95,-124.26,3799,-6172,-4198,-1,0,-1
-175.98,152.95,-124.27,3809,-6159,-4204,0,0,0
-175.98,152.95,-124.27,3811,-6165,-4208,0,0,-1
-175.98,152.94,-124.27,3813,-6171,-4210,-1,0,-1
-175.97,152.93,-124.26,3819,-6175,-4219,0,0,-1
-175.96,152.92,-124.26,3829,-6173,-4216,0,0,-1
-175.94,152.91,-124.25,3827,-6164,-4213,0,0,-1
-175.93,152.90,-124.24,3826,-6169,-4210,0,0,-1
-175.92,152.89,-124.22,3825,-6173,-4199,0,0,-1
-175.90,152.89,-124.20,3818,-6162,-4176,0,0,0
-175.91,152.90,-124.20,3820,-6168,-4173,-1,-1,0
-175.92,152.90,-124.22,3818,-6181,-4203,-1,-1,0
-175.92,152.89,-124.21,3824,-6180,-4226,0,0,-1
-175.90,152.89,-124.20,3825,-6162,-4207,0,0,-1
-175.90,152.88,-124.20,3827,-6167,-4199,0,0,0
-175.90,152.88,-124.20,3828,-6168,-4202,0,0,0
-175.89,152.88,-124.19,3819,-6177,-4195,0,0,-1
-175.89,152.88,-124.19,3819,-6175,-4195,-1,0,-1
-175.90,152.87,-124.20,3824,-6171,-4208,-1,0,-1
-175.89,152.87,-124.20,3821,-6165,-4194,0,0,-1
-175.89,152.86,-124.19,3822,-6160,-4189,-1,-1,0
-175.89,152.87,-124.20,3823,-6176,-4206,-1,0,0
-175.89,152.86,-124.19,3826,-6180,-4218,0,0,-1
-175.87,152.86,-124.18,3824,-6181,-4200,0,0,-1
-175.86,152.85,-124.16,3828,-6173,-4180,0,0,-1
-175.86,152.85,-124.16,3834,-6162,-4177,0,-1,0
-175.86,152.85,-124.16,3827,-6167,-4177,-1,-1,0
-175.87,152.86,-124.18,3828,-6168,-4193,-1,-1,0
-175.88,152.87,-124.18,3834,-6167,-4205,0,-1,0
-175.88,152.87,-124.18,3827,-6170,-4201,0,0,0
-175.88,152.87,-124.17,3822,-6172,-4188,0,-1,0
-175.88,152.87,-124.17,3822,-6179,-4190,-1,-1,0
-175.89,152.87,-124.18,3826,-6182,-4187,-1,-1,0
-175.89,152.87,-124.18,3823,-6178,-4185,-1,-1,-1
-175.90,152.88,-124.18,3823,-6175,-4182,-1,-1,0
-175.90,152.88,-124.19,3827,-6168,-4182,-1,-1,-1
-175.90,152.88,-124.19,3826,-6175,-4181,-1,-1,0
-175.91,152.88,-124.20,3823,-6176,-4185,-1,-1,0
-175.91,152.88,-124.20,3820,-6169,-4185,-1,-1,-1
-175.91,152.88,-124.20,3829,-6171,-4193,0,-1,0
-175.91,152.89,-124.21,3820,-6167,-4195,-1,-1,0
-175.91,152.89,-124.21,3823,-6167,-4204,0,0,0
-175.91,152.89,-124.20,3819,-6171,-4195,0,0,-1
-175.91,152.89,-124.20,3820,-6168,-4191,-1,-1,0
-175.91,152.89,-124.20,3829,-6174,-4194,-1,-1,0
-175.91,152.89,-124.20,3824,-6181,-4204,0,0,0
-175.91,152.89,-124.20,3818,-6180,-4195,0,0,0
-175.91,152.89,-124.20,3816,-6170,-4185,-1,-1,-1
-175.91,152.89,-124.21,3822,-6170,-4200,-1,-1,-1
-175.92,152.89,-124.22,3820,-6175,-4205,0,-1,-1
-175.92,152.89,-124.22,3823,-6168,-4185,-1,-1,-1
-175.92,152.88,-124.22,3824,-6172,-4200,-1,0,-1
-175.91,152.88,-124.22,3823,-6164,-4197,0,0,-1
-175.90,152.87,-124.20,3836,-6168,-4160,-1,-1,0
-175.93,152.89,-124.23,3820,-6169,-4172,-2,-1,0
-175.95,152.90,-124.26,3819,-6177,-4233,-1,0,-1
-175.93,152.89,-124.23,3812,-6164,-4217,1,0,-1
-175.91,152.89,-124.21,3823,-6168,-4173,-1,-1,0
-175.92,152.89,-124.22,3825,-6176,-4184,-1,-1,-1
-175.93,152.89,-124.23,3817,-6168,-4208,0,0,-1
-175.91,152.89,-124.21,3814,-6157,-4175,-1,-1,0
-175.93,152.90,-124.24,3818,-6168,-4193,-1,-1,0
-175.95,152.91,-124.25,3818,-6183,-4222,0,0,0
-175.93,152.90,-124.23,3811,-6173,-4202,0,0,-1
-175.93,152.90,-124.22,3809,-6168,-4180,-1,-1,0
-175.94,152.90,-124.23,3815,-6179,-4193,-1,-1,0
-175.94,152.90,-124.23,3820,-6177,-4203,0,0,0
-175.93,152.90,-124.22,3814,-6168,-4187,-1,-1,0
-175.94,152.91,-124.23,3823,-6165,-4185,-1,-1,0
-175.94,152.91,-124.24,3814,-6167,-4203,0,-1,0
-175.94,152.91,-124.24,3812,-6168,-4197,-1,-1,-1
-175.95,152.91,-124.25,3821,-6174,-4205,-1,-1,-1
-175.95,152.90,-124.25,3825,-6177,-4210,0,0,-1
-175.94,152.90,-124.25,3823,-6170,-4199,0,0,-1
-175.94,152.90,-124.25,3826,-6168,-4189,-1,-1,0
-175.95,152.91,-124.25,3821,-6173,-4199,-1,-1,0
-175.96,152.92,-124.26,3823,-6172,-4211,-1,-1,0
-175.96,152.92,-124.26,3829,-6172,-4217,0,0,0
-175.96,152.91,-124.26,3832,-6164,-4218,0,0,-1
-175.95,152.91,-124.26,3828,-6162,-4204,0,0,0
-175.95,152.91,-124.25,3821,-6150,-4180,0,-1,0
-175.96,152.92,-124.26,3813,-6164,-4181,-1,-1,0
-175.97,152.92,-124.26,3817,-6173,-4213,0,0,-1
-175.95,152.92,-124.25,3814,-6175,-4203,0,0,-1
-175.95,152.91,-124.25,3814,-6166,-4180,-1,0,-1
-175.95,152.91,-124.26,3817,-6161,-4186,-1,-1,0
-175.96,152.91,-124.27,3822,-6165,-4204,-1,-1,0
-175.96,152.92,-124.27,3818,-6175,-4206,0,-1,-1
-175.96,152.92,-124.27,3823,-6172,-4212,-1,0,-1
-175.96,152.91,-124.28,3822,-6177,-4211,0,0,-1
-175.95,152.91,-124.27,3822,-6166,-4199,0,0,-1
-175.95,152.91,-124.26,3819,-6166,-4181,-1,-1,0
-175.97,152.91,-124.28,3826,-6173,-4199,-1,-1,0
-175.96,152.92,-124.27,3819,-6182,-4211,0,0,-1
-175.96,152.91,-124.26,3817,-6173,-4195,0,0,0
-175.96,152.91,-124.26,3817,-6173,-4181,-1,-1,-1
-175.96,152.91,-124.26,3824,-6171,-4181,-1,-1,0
-175.95,152.91,-124.26,3826,-6166,-4188,0,0,0
-175.95,152.91,-124.26,3826,-6164,-4180,-1,-1,0
-175.96,152.92,-124.27,3818,-6164,-4199,-1,-1,0
-175.97,152.92,-124.27,3817,-6175,-4204,-1,-1,0
-175.96,152.92,-124.27,3810,-6170,-4198,0,-1,0
-175.98,152.93,-124.28,3820,-6169,-4189,-1,-1,0
-175.99,152.94,-124.29,3821,-6177,-4214,0,-1,0
-175.99,152.94,-124.29,3815,-6179,-4214,0,0,-1
-175.97,152.93,-124.28,3816,-6167,-4193,0,0,0
-175.97,152.93,-124.27,3814,-6167,-4186,-1,-1,0
-175.98,152.94,-124.28,3818,-6173,-4196,-1,-1,0
-175.98,152.95,-124.28,3814,-6176,-4196,-1,-1,-1
-175.99,152.94,-124.29,3814,-6173,-4211,-1,0,-1
-175.98,152.93,-124.28,3819,-6169,-4210,0,0,-1
-175.97,152.93,-124.27,3820,-6160,-4205,0,0,-1
-175.96,152.92,-124.27,3819,-6161,-4205,0,0,0
-175.96,152.92,-124.27,3820,-6166,-4205,-1,0,0
-175.96,152.92,-124.26,3827,-6180,-4203,0,0,-1
-175.95,152.92,-124.25,3825,-6173,-4195,0,0,-1
-175.95,152.91,-124.25,3819,-6171,-4186,0,0,-1
-175.94,152.90,-124.24,3820,-6167,-4184,-1,0,-1
-175.94,152.90,-124.25,3822,-6169,-4193,-1,0,-1
-175.94,152.90,-124.25,3817,-6171,-4199,0,0,0
-175.94,152.90,-124.25,3822,-6173,-4197,-1,0,-1
-175.93,152.89,-124.24,3822,-6172,-4194,-1,0,-1
-175.93,152.89,-124.24,3831,-6164,-4197,0,0,0
-175.93,152.90,-124.23,3825,-6166,-4179,0,-1,0
-175.94,152.91,-124.23,3815,-6171,-4193,-1,-1,0
-175.94,152.91,-124.23,3823,-6184,-4210,0,0,0
-175.93,152.91,-124.22,3818,-6182,-4193,0,0,-1
-175.92,152.90,-124.22,3825,-6173,-4196,-1,-1,0
-175.93,152.91,-124.22,3826,-6175,-4208,-1,0,0
-175.93,152.90,-124.22,3823,-6181,-4203,0,0,-1
-175.93,152.90,-124.22,3823,-6181,-4186,-1,0,-1
-175.92,152.90,-124.22,3819,-6174,-4177,-1,-1,-1
-175.93,152.90,-124.22,3822,-6171,-4185,-1,-1,-1
-175.93,152.90,-124.23,3828,-6171,-4188,-1,0,0
-175.92,152.89,-124.22,3828,-6172,-4200,0,0,-1
-175.92,152.89,-124.22,3832,-6170,-4198,0,0,0
-175.92,152.89,-124.22,3829,-6168,-4195,0,0,0
-175.92,152.89,-124.22,3828,-6166,-4191,0,-1,0
-175.92,152.89,-124.21,3828,-6178,-4188,-1,-1,0
-175.93,152.90,-124.22,3826,-6178,-4192,-1,-1,0
-175.92,152.90,-124.22,3822,-6172,-4191,0,0,0
-175.93,152.90,-124.22,3820,-6171,-4183,0,0,0
-175.93,152.90,-124.22,3828,-6169,-4187,-1,-1,0
-175.93,152.90,-124.22,3828,-6174,-4182,-1,-1,0
-175.93,152.90,-124.22,3819,-6184,-4192,-1,0,-1
-175.93,152.91,-124.21,3810,-6179,-4191,0,0,-1
-175.92,152.90,-124.20,3810,-6166,-4188,-1,-1,-1
-175.92,152.90,-124.22,3815,-6161,-4188,-1,-1,0
-175.93,152.90,-124.23,3832,-6162,-4197,-1,-1,0
-175.93,152.90,-124.23,3827,-6173,-4221,0,0,-1
-175.91,152.89,-124.20,3828,-6175,-4193,0,0,-1
-175.90,152.89,-124.19,3819,-6175,-4174,-1,-1,-1
-175.91,152.90,-124.20,3827,-6169,-4191,-1,-1,0
-175.93,152.90,-124.22,3820,-6170,-4213,-1,-1,0
-175.93,152.91,-124.21,3821,-6165,-4210,0,0,0
-175.92,152.91,-124.20,3822,-6173,-4195,0,0,0
-175.92,152.91,-124.20,3819,-6177,-4205,-1,0,0
-175.93,152.91,-124.20,3815,-6175,-4198,0,0,0
-175.93,152.92,-124.19,3815,-6175,-4182,0,-1,0
-175.93,152.92,-124.20,3821,-6183,-4190,-1,-1,0
-175.93,152.92,-124.20,3820,-6178,-4201,0,0,-1
-175.93,152.92,-124.19,3819,-6175,-4196,0,0,-1
-175.93,152.92,-124.19,3821,-6173,-4190,-1,-1,0
-175.94,152.93,-124.21,3821,-6180,-4201,-1,-1,0
-175.95,152.93,-124.22,3825,-6177,-4208,-1,-1,0
-175.95,152.93,-124.22,3825,-6180,-4218,0,0,-1
-175.95,152.93,-124.21,3818,-6181,-4199,0,0,-1
-175.93,152.92,-124.19,3826,-6171,-4173,0,-1,0
-175.94,152.93,-124.21,3814,-6149,-4163,-1,-1,0
-175.97,152.95,-124.24,3818,-6172,-4201,-1,-1,0
-175.99,152.95,-124.25,3814,-6172,-4233,0,0,-1
-175.97,152.95,-124.23,3818,-6174,-4201,0,0,0
-175.98,152.95,-124.24,3812,-6181,-4197,-1,0,-1
-175.97,152.95,-124.24,3816,-6175,-4208,0,0,-1
-175.96,152.95,-124.22,3810,-6167,-4184,0,0,-1
-175.96,152.94,-124.23,3818,-6162,-4165,-1,-1,0
-175.97,152.95,-124.24,3811,-6170,-4195,-1,-1,0
-175.97,152.95,-124.24,3812,-6172,-4200,0,0,-1
-175.97,152.95,-124.24,3813,-6166,-4186,0,0,-1
-175.97,152.95,-124.24,3814,-6165,-4186,-1,-1,0
-175.98,152.95,-124.25,3816,-6163,-4193,-1,-1,0
-175.98,152.95,-124.25,3821,-6166,-4190,0,-1,0
-175.98,152.95,-124.25,3821,-6177,-4190,-1,-1,0
-175.98,152.95,-124.26,3816,-6171,-4199,-1,-1,0
-175.99,152.95,-124.26,3820,-6168,-4194,0,-1,0
-175.99,152.95,-124.26,3819,-6164,-4189,-1,-1,0
-175.99,152.96,-124.26,3814,-6166,-4195,-1,-1,0
-175.99,152.96,-124.26,3814,-6171,-4199,-1,0,0
-175.99,152.96,-124.26,3815,-6176,-4190,-1,0,-1
-175.99,152.96,-124.26,3816,-6174,-4181,0,0,-1
-175.99,152.96,-124.26,3821,-6173,-4189,-1,-1,0
-175.99,152.96,-124.26,3821,-6176,-4196,-1,-1,0
-175.99,152.96,-124.26,3808,-6170,-4191,-1,-1,-1
-175.99,152.96,-124.27,3814,-6164,-4197,-1,0,0
-175.99,152.96,-124.27,3809,-6165,-4202,0,0,-1
-175.99,152.96,-124.27,3810,-6174,-4200,-1,0,0
-175.99,152.95,-124.26,3811,-6177,-4211,0,0,-1
-175.98,152.95,-124.25,3815,-6173,-4184,0,0,-1
-175.98,152.95,-124.26,3819,-6170,-4188,-1,-1,0
-175.98,152.95,-124.26,3822,-6172,-4205,0,0,0
-175.97,152.95,-124.25,3819,-6164,-4196,0,0,0
-175.97,152.95,-124.24,3805,-6156,-4182,-1,-1,0
-175.99,152.96,-124.26,3813,-6168,-4195,-1,-1,0
-176.00,152.96,-124.27,3817,-6176,-4231,0,0,0
-175.99,152.96,-124.26,3817,-6163,-4221,0,0,-1
-175.99,152.96,-124.26,3815,-6160,-4202,-1,0,0
-175.99,152.96,-124.26,3814,-6157,-4199,-1,-1,0
-175.99,152.96,-124.26,3809,-6173,-4214,0,-1,0
-176.00,152.96,-124.26,3813,-6178,-4212,-1,0,0
-175.99,152.96,-124.26,3812,-6178,-4212,-1,0,-1
-175.99,152.95,-124.26,3812,-6174,-4207,0,0,-1
-175.98,152.95,-124.26,3811,-6170,-4196,0,0,-1
-175.98,152.95,-124.26,3813,-6172,-4187,-1,-1,0
-175.98,152.95,-124.27,3818,-6175,-4197,-1,-1,0
-175.98,152.94,-124.26,3821,-6183,-4194,0,0,-1
-175.97,152.94,-124.26,3823,-6184,-4203,0,0,-1
-175.96,152.93,-124.25,3824,-6175,-4198,0,0,-1
-175.95,152.92,-124.24,3824,-6159,-4188,0,0,-1
-175.95,152.92,-124.25,3820,-6157,-4196,-1,-1,0
-175.97,152.93,-124.26,3820,-6163,-4213,0,0,0
-175.96,152.93,-124.25,3822,-6177,-4217,0,0,-1
-175.95,152.92,-124.23,3822,-6176,-4204,0,0,-1
-175.94,152.91,-124.23,3817,-6174,-4187,-1,0,-1
-175.94,152.91,-124.23,3812,-6180,-4205,0,0,-1
-175.94,152.91,-124.23,3815,-6170,-4203,0,0,-1
-175.94,152.91,-124.23,3815,-6168,-4198,-1,0,-1
-175.95,152.91,-124.23,3824,-6172,-4205,-1,0,-1
-175.94,152.91,-124.23,3822,-6170,-4203,0,0,-1
-175.94,152.90,-124.23,3820,-6162,-4199,-1,0,-1
-175.94,152.90,-124.24,3823,-6164,-4201,-1,0,-1
-175.94,152.90,-124.24,3818,-6167,-4204,0,0,0
-175.94,152.90,-124.23,3824,-6168,-4191,0,-1,0
-175.94,152.90,-124.23,3825,-6169,-4195,-1,-1,0
-175.95,152.91,-124.23,3826,-6170,-4196,-1,-1,0
-175.95,152.91,-124.23,3824,-6169,-4197,0,-1,0
-175.95,152.91,-124.23,3821,-6170,-4196,0,0,0
-175.95,152.91,-124.23,3824,-6167,-4192,0,0,0
-175.95,152.92,-124.23,3817,-6170,-4197,0,-1,0
-175.95,152.92,-124.23,3817,-6169,-4192,-1,-1,0
-175.96,152.92,-124.24,3818,-6173,-4205,-1,0,-1
-175.96,152.92,-124.24,3815,-6167,-4208,0,0,0
-175.95,152.91,-124.24,3815,-6164,-4202,-1,0,-1
-175.95,152.91,-124.24,3819,-6162,-4199,0,-1,0
-175.96,152.92,-124.24,3814,-6167,-4199,-1,-1,0
