Yaw,Pitch,Roll,AX,AY,AZ,GX,GY,GZ
-157.77,13.15,-70.90,1904,-7672,2649,0,0,-1
-157.77,13.15,-70.90,1910,-7678,2640,0,0,-1
-157.76,13.15,-70.89,1904,-7670,2643,0,0,-1
-157.75,13.15,-70.88,1899,-7665,2651,0,-1,-1
-157.75,13.16,-70.88,1899,-7656,2649,0,0,-1
-157.74,13.17,-70.89,1902,-7656,2657,-1,0,-1
-157.74,13.17,-70.89,1906,-7663,2657,0,0,-1
-157.74,13.17,-70.89,1906,-7661,2666,-1,0,-1
-157.74,13.17,-70.88,1900,-7656,2677,-1,-1,-1
-157.74,13.18,-70.89,1901,-7661,2663,-1,-1,-1
-157.74,13.18,-70.89,1911,-7671,2653,-1,-1,-1
-157.74,13.18,-70.89,1915,-7682,2642,0,0,0
-157.74,13.18,-70.89,1908,-7671,2650,0,0,0
-157.73,13.18,-70.89,1904,-7660,2656,0,-1,-1
-157.73,13.19,-70.88,1909,-7665,2659,-1,0,-1
-157.73,13.19,-70.88,1906,-7677,2665,0,0,-1
-157.73,13.19,-70.88,1909,-7680,2662,-1,0,-1
-157.72,13.19,-70.88,1903,-7673,2665,0,0,-1
-157.71,13.19,-70.88,1904,-7668,2671,-1,-1,-1
-157.71,13.20,-70.87,1907,-7672,2668,0,0,-1
-157.71,13.20,-70.87,1917,-7666,2667,0,0,-1
-157.71,13.20,-70.87,1912,-7665,2675,-1,0,0
-157.71,13.20,-70.87,1910,-7662,2667,-1,-1,-1
-157.71,13.20,-70.88,1913,-7664,2648,-1,-1,-1
-157.70,13.21,-70.89,1925,-7677,2641,0,0,-1
-157.69,13.21,-70.88,1924,-7666,2650,0,0,-1
-157.68,13.22,-70.87,1914,-7658,2668,-1,0,0
-157.69,13.21,-70.87,1909,-7656,2672,-1,0,0
-157.69,13.21,-70.88,1916,-7665,2662,-1,0,-1
-157.68,13.22,-70.89,1924,-7674,2651,-1,0,-1
-157.69,13.22,-70.89,1912,-7671,2641,0,0,-1
-157.68,13.22,-70.88,1909,-7667,2646,0,0,-1
-157.67,13.22,-70.88,1911,-7663,2654,0,0,-1
-157.67,13.23,-70.87,1919,-7661,2662,0,0,-1
-157.66,13.23,-70.87,1923,-7645,2652,-1,0,-1
-157.66,13.24,-70.88,1920,-7656,2651,-1,0,-1
-157.65,13.24,-70.88,1909,-7654,2658,-1,0,-1
-157.65,13.24,-70.88,1910,-7658,2654,-1,0,-1
-157.66,13.24,-70.89,1915,-7664,2661,-1,0,-1
-157.66,13.24,-70.89,1919,-7666,2650,0,0,-1
-157.65,13.24,-70.88,1919,-7661,2659,0,0,-1
-157.65,13.24,-70.88,1918,-7656,2660,-1,0,-1
-157.65,13.25,-70.88,1913,-7652,2653,-1,0,-1
-157.65,13.25,-70.88,1911,-7665,2644,0,0,-1
-157.64,13.25,-70.89,1915,-7670,2640,0,0,-1
-157.64,13.25,-70.89,1916,-7675,2651,0,0,-1
-157.64,13.25,-70.88,1915,-7673,2656,0,-1,-1
-157.64,13.25,-70.88,1920,-7661,2671,-1,-1,0
-157.64,13.25,-70.88,1922,-7657,2670,-1,-1,0
-157.64,13.25,-70.88,1921,-7655,2671,-1,-1,0
-157.65,13.24,-70.88,1918,-7661,2665,-1,-1,0
-157.65,13.25,-70.89,1918,-7671,2664,0,-1,0
-157.66,13.24,-70.88,1912,-7668,2664,-1,-1,0
-157.66,13.24,-70.88,1914,-7664,2658,0,0,0
-157.66,13.24,-70.88,1910,-7661,2670,-1,0,0
-157.66,13.24,-70.88,1917,-7663,2656,0,0,-1
-157.66,13.24,-70.88,1915,-7659,2665,-1,-1,0
-157.66,13.24,-70.88,1912,-7659,2665,-1,-1,0
-157.66,13.24,-70.88,1919,-7657,2664,-1,-1,0
-157.66,13.24,-70.88,1919,-7659,2659,-1,0,0
-157.66,13.24,-70.89,1929,-7669,2653,-1,-1,0
-157.67,13.23,-70.89,1923,-7675,2657,0,-1,0
-157.67,13.23,-70.89,1919,-7664,2658,0,0,0
-157.67,13.23,-70.88,1911,-7662,2667,-1,-1,0
-157.67,13.23,-70.89,1909,-7670,2667,-1,-1,0
-157.68,13.23,-70.89,1915,-7677,2650,-1,-1,0
-157.69,13.22,-70.89,1914,-7681,2655,0,-1,0
-157.69,13.22,-70.88,1920,-7656,2664,0,0,0
-157.68,13.22,-70.88,1914,-7648,2663,-1,-1,0
-157.69,13.22,-70.89,1924,-7653,2660,-1,-1,0
-157.70,13.21,-70.90,1923,-7662,2639,-1,-1,0
-157.71,13.21,-70.90,1920,-7667,2631,0,-1,0
-157.71,13.20,-70.90,1904,-7662,2648,0,0,0
-157.71,13.20,-70.89,1900,-7667,2661,0,-1,0
-157.71,13.21,-70.89,1905,-7661,2662,0,-1,0
-157.71,13.20,-70.89,1913,-7660,2657,-1,-1,0
-157.71,13.20,-70.89,1918,-7661,2673,-1,-1,0
-157.72,13.20,-70.89,1915,-7668,2667,-1,-1,0
-157.72,13.20,-70.89,1921,-7659,2664,0,0,0
-157.72,13.20,-70.90,1913,-7660,2653,-1,-1,0
-157.73,13.19,-70.91,1910,-7664,2649,-1,-1,0
-157.74,13.19,-70.91,1908,-7676,2637,-1,-1,0
-157.74,13.19,-70.91,1909,-7668,2652,0,-1,0
-157.75,13.18,-70.91,1905,-7668,2658,-1,-1,0
-157.75,13.19,-70.91,1909,-7667,2653,-1,-1,0
-157.75,13.18,-70.91,1909,-7663,2654,-1,-1,0
-157.75,13.17,-70.91,1907,-7662,2663,0,0,0
-157.76,13.17,-70.90,1905,-7662,2669,-1,-1,0
-157.76,13.17,-70.90,1905,-7664,2664,0,0,0
-157.76,13.17,-70.90,1903,-7662,2659,0,-1,0
-157.77,13.16,-70.90,1902,-7659,2664,-1,-1,0
-157.77,13.17,-70.90,1903,-7668,2651,-1,-1,0
-157.78,13.16,-70.91,1907,-7672,2651,0,-1,0
-157.79,13.15,-70.91,1911,-7674,2647,0,-1,0
-157.79,13.15,-70.90,1902,-7669,2656,0,-1,0
-157.79,13.15,-70.90,1906,-7662,2653,0,-1,0
-157.80,13.14,-70.90,1904,-7660,2647,0,-1,0
-157.80,13.14,-70.89,1908,-7663,2660,0,-1,0
-157.80,13.14,-70.89,1907,-7668,2657,0,-1,0
-157.81,13.13,-70.88,1893,-7663,2666,0,-1,0
-157.81,13.13,-70.88,1899,-7665,2654,0,-1,0
-157.81,13.12,-70.88,1896,-7662,2658,0,-1,0
-157.82,13.12,-70.88,1910,-7663,2662,-1,0,0
-157.83,13.11,-70.87,1900,-7665,2667,0,-1,0
-157.84,13.10,-70.88,1891,-7669,2656,0,-1,0
-157.85,13.09,-70.88,1887,-7666,2667,0,-1,0
-157.85,13.09,-70.87,1897,-7671,2660,0,-1,0
-157.86,13.08,-70.87,1896,-7658,2673,-1,-1,0
-157.86,13.08,-70.88,1888,-7677,2647,0,-1,0
-157.87,13.08,-70.87,1898,-7672,2657,0,-1,0
-157.87,13.07,-70.86,1891,-7663,2661,0,0,0
-157.87,13.07,-70.86,1896,-7645,2678,-1,-1,0
-157.89,13.06,-70.87,1891,-7661,2659,-1,-1,0
-157.89,13.06,-70.87,1901,-7676,2664,-1,-1,0
-157.90,13.05,-70.87,1895,-7684,2642,0,0,0
-157.91,13.04,-70.87,1898,-7686,2651,-1,-1,0
-157.91,13.04,-70.87,1877,-7680,2645,0,-1,-1
-157.91,13.04,-70.85,1891,-7676,2661,0,-1,0
-157.91,13.05,-70.85,1895,-7662,2662,0,0,0
-157.91,13.05,-70.85,1889,-7666,2656,0,0,0
-157.91,13.04,-70.85,1897,-7665,2675,-1,-1,0
-157.91,13.04,-70.84,1905,-7654,2685,0,0,0
-157.92,13.03,-70.85,1887,-7663,2658,-1,-1,0
-157.93,13.03,-70.86,1899,-7657,2652,0,-1,0
-157.94,13.02,-70.87,1880,-7672,2620,0,0,0
-157.94,13.02,-70.85,1896,-7664,2671,0,0,0
-157.94,13.01,-70.86,1883,-7667,2653,-1,-1,0
-157.94,13.01,-70.86,1894,-7671,2665,-1,0,0
-157.95,13.01,-70.87,1898,-7669,2658,0,0,0
-157.96,13.01,-70.87,1882,-7675,2658,-1,-1,0
-157.95,13.00,-70.86,1893,-7668,2662,0,0,-1
-157.96,13.01,-70.87,1886,-7675,2657,-1,-1,0
-157.95,13.00,-70.86,1897,-7670,2667,0,0,0
-157.95,13.00,-70.86,1876,-7671,2665,-1,0,0
-157.96,13.00,-70.87,1890,-7663,2676,0,-1,0
-157.97,13.00,-70.87,1883,-7673,2668,-1,-1,0
-157.97,13.00,-70.87,1891,-7660,2671,-1,-1,0
-157.98,12.99,-70.87,1885,-7669,2659,-1,-1,0
-157.98,12.99,-70.88,1880,-7660,2663,-1,0,0
-157.98,12.98,-70.87,1866,-7672,2666,0,-1,0
-157.99,12.98,-70.88,1878,-7679,2649,0,0,0
-157.98,12.99,-70.87,1892,-7674,2669,0,-1,0
-157.98,12.98,-70.87,1878,-7670,2663,-1,0,0
-157.99,12.98,-70.87,1879,-7662,2651,0,-1,0
-157.99,12.98,-70.87,1882,-7662,2673,-1,0,0
-157.99,12.98,-70.87,1872,-7674,2651,0,0,0
-158.00,12.98,-70.88,1873,-7684,2669,-1,-1,-1
-157.99,12.98,-70.88,1886,-7681,2660,0,-1,0
-157.99,12.98,-70.86,1881,-7675,2663,0,0,0
-157.99,12.98,-70.85,1868,-7665,2692,-1,-1,0
-158.00,12.97,-70.86,1881,-7665,2670,0,0,0
-158.00,12.97,-70.86,1873,-7671,2681,-1,-1,0
-158.00,12.98,-70.87,1880,-7698,2662,0,0,-1
-157.99,12.98,-70.86,1873,-7677,2655,0,-1,-1
-157.97,12.99,-70.84,1894,-7665,2671,0,0,0
-157.98,12.98,-70.84,1884,-7660,2669,-1,-1,0
-157.99,12.98,-70.84,1885,-7663,2672,-1,-1,0
-157.99,12.98,-70.85,1880,-7680,2661,0,0,-1
-157.99,12.98,-70.85,1876,-7680,2660,-1,-1,-1
-157.98,12.99,-70.85,1880,-7677,2648,0,0,-1
-157.98,12.98,-70.84,1871,-7672,2650,0,-1,-1
-157.96,13.00,-70.83,1891,-7664,2682,0,0,-1
-157.96,13.00,-70.83,1891,-7662,2681,0,-1,-1
-157.96,13.00,-70.83,1893,-7661,2682,-1,-1,0
-157.96,13.01,-70.84,1888,-7666,2657,0,-1,-1
-157.96,13.01,-70.84,1892,-7662,2659,-1,0,0
-157.96,13.01,-70.85,1885,-7667,2659,-1,-1,-1
-157.96,13.01,-70.85,1886,-7680,2650,0,-1,-1
-157.95,13.02,-70.85,1889,-7675,2653,0,0,-1
-157.94,13.03,-70.85,1884,-7668,2660,0,0,-1
-157.94,13.03,-70.85,1886,-7666,2665,-1,-1,-1
-157.94,13.03,-70.86,1894,-7675,2653,-1,0,-1
-157.93,13.04,-70.86,1890,-7674,2655,0,0,-1
-157.94,13.03,-70.86,1882,-7666,2649,0,0,-1
-157.93,13.04,-70.86,1887,-7669,2654,-1,-1,-1
-157.93,13.04,-70.86,1889,-7671,2653,0,-1,-1
-157.91,13.05,-70.85,1891,-7663,2681,-1,0,-1
-157.92,13.04,-70.85,1885,-7666,2675,-1,0,-1
-157.92,13.04,-70.85,1872,-7653,2679,-1,-1,0
-157.92,13.04,-70.86,1869,-7665,2665,-1,0,-1
-157.92,13.05,-70.86,1882,-7670,2658,-1,0,-1
-157.92,13.05,-70.86,1893,-7671,2661,0,-1,0
-157.91,13.05,-70.86,1892,-7674,2659,0,0,0
-157.91,13.05,-70.85,1892,-7676,2673,-1,-1,0
-157.91,13.05,-70.85,1884,-7671,2665,0,0,-1
-157.91,13.05,-70.86,1877,-7676,2671,-1,-1,-1
-157.91,13.05,-70.86,1888,-7680,2657,0,0,-1
-157.91,13.05,-70.85,1882,-7671,2662,0,0,-1
-157.90,13.06,-70.85,1883,-7668,2672,-1,-1,-1
-157.90,13.06,-70.86,1886,-7675,2672,-1,-1,-1
-157.90,13.06,-70.86,1889,-7671,2670,-1,0,-1
-157.91,13.07,-70.87,1888,-7668,2662,-1,-1,0
-157.91,13.07,-70.88,1885,-7671,2665,-1,-1,-1
-157.91,13.07,-70.89,1892,-7678,2652,-1,-1,-1
-157.90,13.08,-70.89,1902,-7674,2653,0,0,-1
-157.90,13.08,-70.89,1898,-7660,2663,0,0,0
-157.89,13.08,-70.88,1891,-7656,2665,-1,0,-1
-157.90,13.08,-70.89,1887,-7664,2662,-1,0,-1
-157.90,13.08,-70.89,1895,-7681,2662,-1,0,-1
-157.90,13.08,-70.90,1891,-7687,2650,0,0,-1
-157.89,13.09,-70.89,1891,-7684,2656,0,0,-1
-157.88,13.09,-70.88,1888,-7675,2664,0,0,-1
-157.87,13.09,-70.87,1891,-7674,2673,0,-1,-1
-157.87,13.10,-70.87,1894,-7660,2675,0,0,-1
-157.86,13.11,-70.86,1901,-7660,2681,-1,-1,0
-157.86,13.11,-70.87,1903,-7658,2668,0,0,-1
-157.86,13.11,-70.87,1902,-7663,2675,-1,0,0
-157.85,13.11,-70.87,1897,-7673,2656,0,0,-1
-157.86,13.11,-70.88,1888,-7672,2659,-1,-1,-1
-157.85,13.11,-70.88,1889,-7672,2651,0,0,-1
-157.85,13.12,-70.87,1888,-7667,2656,-1,0,-1
179.22,8.10,-38.44,-258,-258,-258,-258,-258,-258
-157.84,13.13,-70.87,1903,-7675,2640,0,0,-1
-157.84,13.13,-70.87,1897,-7677,2656,0,0,-1
-157.83,13.13,-70.87,1889,-7665,2648,0,0,-1
-157.82,13.14,-70.86,1890,-7662,2668,-1,-1,-1
-157.82,13.14,-70.86,1899,-7666,2656,0,0,-1
-157.81,13.14,-70.86,1899,-7660,2663,-1,0,-1
-157.81,13.15,-70.86,1902,-7666,2669,-1,-1,-1
-157.80,13.16,-70.87,1899,-7663,2659,-1,0,-1
-157.80,13.16,-70.87,1898,-7668,2657,-1,0,-1
-157.80,13.16,-70.87,1905,-7672,2648,-1,0,-1
-157.80,13.16,-70.88,1901,-7677,2649,-1,0,-1
-157.79,13.17,-70.87,1894,-7677,2646,0,0,-1
-157.79,13.17,-70.87,1899,-7676,2645,0,0,-1
-157.78,13.17,-70.86,1898,-7671,2656,0,0,-1
-157.77,13.17,-70.85,1900,-7659,2672,0,0,-1
-157.76,13.18,-70.85,1891,-7653,2678,-1,0,-1
-157.76,13.18,-70.85,1907,-7653,2669,-1,0,-1
-157.75,13.19,-70.85,1906,-7659,2666,-1,0,-1
-157.75,13.19,-70.85,1906,-7673,2670,-1,0,-1
-157.75,13.19,-70.85,1906,-7667,2668,-1,0,-1
-157.74,13.20,-70.85,1897,-7661,2666,-1,0,-1
-157.73,13.20,-70.85,1902,-7663,2662,-1,0,-1
-157.74,13.20,-70.87,1898,-7676,2648,-1,-1,-1
-157.73,13.21,-70.86,1919,-7684,2653,0,0,-1
-157.72,13.21,-70.85,1919,-7683,2650,0,0,-1
-157.72,13.21,-70.85,1921,-7652,2667,-1,0,0
-157.72,13.22,-70.86,1917,-7655,2662,-1,0,-1
-157.72,13.22,-70.87,1915,-7665,2651,-1,0,-1
-157.71,13.23,-70.87,1910,-7674,2642,-1,0,-1
-157.71,13.23,-70.87,1908,-7675,2644,0,0,-1
-157.71,13.23,-70.87,1910,-7666,2649,0,0,-1
-157.70,13.23,-70.86,1907,-7655,2657,0,0,-1
-157.69,13.24,-70.86,1912,-7658,2668,-1,0,-1
-157.68,13.25,-70.87,1916,-7670,2665,-1,0,-1
-157.68,13.25,-70.87,1920,-7671,2653,-1,0,-1
-157.69,13.25,-70.88,1920,-7671,2648,-1,0,-1
-157.68,13.25,-70.88,1916,-7665,2654,-1,0,-1
-157.68,13.26,-70.88,1916,-7661,2645,-1,0,-1
-157.68,13.26,-70.89,1923,-7670,2645,0,0,-1
-157.67,13.26,-70.88,1914,-7669,2658,0,0,-1
-157.67,13.26,-70.88,1908,-7663,2649,-1,0,-1
-157.67,13.26,-70.88,1918,-7658,2656,-1,0,-1
-157.66,13.27,-70.89,1918,-7669,2644,0,0,-1
-157.66,13.27,-70.88,1919,-7675,2651,0,0,-1
-157.65,13.27,-70.88,1913,-7673,2656,0,0,-1
-157.65,13.27,-70.88,1908,-7669,2663,0,0,-1
-157.64,13.28,-70.87,1913,-7669,2675,-1,0,-1
-157.64,13.28,-70.87,1917,-7666,2666,-1,0,-1
-157.63,13.28,-70.88,1917,-7665,2668,-1,0,-1
-157.63,13.29,-70.88,1916,-7674,2659,-1,0,-1
-157.63,13.28,-70.88,1910,-7672,2661,-1,0,-1
-157.63,13.28,-70.89,1916,-7663,2651,0,0,-1
-157.63,13.28,-70.89,1915,-7660,2651,-1,0,0
-157.63,13.29,-70.88,1923,-7668,2650,0,0,-1
-157.62,13.29,-70.88,1919,-7673,2664,-1,0,-1
-157.62,13.29,-70.88,1918,-7666,2663,0,0,-1
-157.62,13.29,-70.88,1921,-7667,2670,-1,-1,0
-157.63,13.28,-70.88,1920,-7667,2660,0,0,0
-157.62,13.29,-70.89,1912,-7670,2644,-1,0,-1
-157.61,13.29,-70.88,1919,-7676,2655,0,0,-1
-157.61,13.29,-70.87,1924,-7669,2659,0,0,-1
-157.60,13.30,-70.87,1930,-7656,2652,0,0,0
-157.60,13.29,-70.86,1925,-7654,2654,-1,-1,0
-157.60,13.29,-70.86,1933,-7664,2646,0,0,0
-157.60,13.29,-70.86,1923,-7667,2646,0,0,0
-157.60,13.29,-70.85,1917,-7653,2646,0,-1,0
-157.61,13.28,-70.85,1915,-7663,2647,-1,-1,0
-157.60,13.29,-70.85,1927,-7665,2639,0,-1,0
-157.60,13.29,-70.85,1928,-7666,2650,0,-1,0
-157.61,13.28,-70.83,1922,-7654,2651,0,-1,0
-157.61,13.28,-70.83,1928,-7637,2666,-1,-1,0
-157.62,13.27,-70.83,1916,-7650,2651,-1,-1,0
-157.63,13.27,-70.84,1924,-7659,2647,-1,-1,0
-157.64,13.26,-70.84,1917,-7671,2654,0,-1,0
-157.65,13.25,-70.84,1905,-7666,2655,0,-1,0
-157.65,13.25,-70.84,1902,-7657,2657,-1,-1,0
-157.66,13.24,-70.83,1908,-7661,2659,0,-1,0
-157.66,13.25,-70.83,1911,-7662,2666,0,-1,0
-157.66,13.25,-70.83,1922,-7659,2672,-1,0,0
-157.66,13.25,-70.84,1923,-7666,2662,-1,-1,0
-157.67,13.24,-70.84,1920,-7660,2664,0,-1,0
-157.67,13.24,-70.84,1917,-7662,2655,0,0,0
-157.68,13.23,-70.84,1910,-7658,2671,-1,-1,0
-157.68,13.23,-70.85,1908,-7670,2656,0,-1,0
-157.68,13.23,-70.85,1919,-7665,2660,-1,-1,0
-157.69,13.22,-70.84,1912,-7662,2662,0,0,0
-157.69,13.22,-70.84,1907,-7653,2666,-1,-1,0
-157.70,13.21,-70.85,1905,-7671,2665,0,0,0
-157.70,13.21,-70.85,1901,-7682,2661,-1,-1,-1
-157.70,13.22,-70.85,1926,-7678,2659,0,0,0
-157.70,13.21,-70.84,1911,-7675,2659,0,0,0
-157.70,13.21,-70.83,1906,-7661,2672,0,-1,-1
-157.70,13.21,-70.84,1912,-7658,2673,-1,-1,0
-157.70,13.21,-70.84,1904,-7655,2678,-1,-1,0
-157.71,13.21,-70.84,1905,-7657,2675,-1,-1,0
-157.72,13.21,-70.85,1914,-7663,2667,-1,-1,0
-157.72,13.20,-70.86,1914,-7670,2660,-1,-1,0
-157.72,13.20,-70.86,1912,-7666,2654,-1,-1,0
-157.72,13.21,-70.86,1922,-7663,2661,-1,-1,0
-157.72,13.21,-70.86,1913,-7665,2654,-1,-1,0
-157.72,13.21,-70.86,1914,-7664,2655,0,0,0
-157.73,13.20,-70.86,1904,-7667,2666,-1,-1,0
-157.73,13.20,-70.86,1909,-7666,2665,0,0,0
-157.74,13.20,-70.87,1909,-7663,2662,-1,-1,0
-157.74,13.20,-70.87,1910,-7668,2671,-1,-1,0
-157.74,13.20,-70.88,1907,-7667,2652,-1,-1,0
-157.74,13.20,-70.88,1903,-7671,2653,-1,-1,0
-157.75,13.20,-70.88,1911,-7683,2646,-1,-1,0
-157.75,13.20,-70.88,1919,-7674,2647,0,0,0
-157.75,13.19,-70.89,1907,-7669,2658,-1,-1,0
-157.75,13.19,-70.89,1906,-7674,2658,-1,0,0
-157.76,13.19,-70.89,1908,-7666,2654,-1,-1,0
-157.77,13.18,-70.90,1900,-7677,2647,-1,-1,0
-157.77,13.18,-70.90,1901,-7683,2651,0,-1,-1
-157.77,13.19,-70.89,1913,-7668,2655,0,-1,-1
-157.76,13.18,-70.88,1910,-7654,2664,0,-1,0
-157.77,13.18,-70.88,1914,-7651,2666,-1,-1,0
-157.79,13.17,-70.89,1894,-7680,2653,-1,-1,0
-157.79,13.16,-70.89,1907,-7693,2648,0,0,0
-157.80,13.16,-70.88,1907,-7677,2651,0,0,0
-157.80,13.15,-70.87,1881,-7667,2657,0,-1,0
-157.79,13.15,-70.86,1892,-7657,2673,0,0,-1
-157.79,13.15,-70.85,1898,-7667,2662,0,-1,0
-157.79,13.15,-70.84,1908,-7664,2676,0,0,0
-157.79,13.14,-70.84,1895,-7649,2682,-1,-1,0
-157.80,13.14,-70.84,1895,-7659,2674,-1,-1,0
-157.81,13.14,-70.86,1890,-7665,2653,-1,-1,0
-157.81,13.13,-70.85,1889,-7671,2649,0,0,0
-157.82,13.12,-70.85,1885,-7677,2658,0,-1,0
-157.82,13.12,-70.85,1899,-7673,2681,-1,-1,0
-157.83,13.11,-70.85,1886,-7671,2658,0,0,0
-157.84,13.11,-70.85,1887,-7671,2662,-1,-1,0
-157.84,13.11,-70.86,1891,-7683,2658,0,0,0
-157.84,13.11,-70.86,1892,-7681,2660,-1,-1,0
-157.84,13.11,-70.86,1896,-7683,2653,0,0,-1
-157.84,13.11,-70.86,1892,-7675,2651,0,-1,-1
-157.84,13.11,-70.86,1889,-7676,2658,-1,-1,-1
-157.85,13.11,-70.87,1901,-7676,2650,-1,0,0
-157.85,13.11,-70.87,1904,-7677,2651,-1,-1,0
-157.85,13.11,-70.88,1899,-7670,2651,-1,-1,0
-157.86,13.10,-70.88,1896,-7666,2642,-1,-1,0
-157.87,13.10,-70.88,1893,-7679,2649,-1,-1,0
-157.87,13.10,-70.89,1891,-7675,2647,0,0,0
-157.88,13.09,-70.88,1887,-7686,2651,0,0,0
-157.88,13.09,-70.88,1890,-7683,2655,0,0,0
-157.88,13.08,-70.88,1887,-7679,2650,0,0,0
-157.89,13.08,-70.87,1874,-7668,2663,0,-1,0
-157.88,13.08,-70.87,1886,-7662,2662,0,0,0
-157.88,13.07,-70.86,1883,-7658,2674,-1,-1,0
-157.88,13.08,-70.87,1884,-7671,2662,0,-1,0
-157.89,13.07,-70.87,1883,-7663,2654,-1,-1,0
-157.89,13.07,-70.86,1893,-7662,2656,-1,-1,0
-157.89,13.07,-70.86,1887,-7665,2664,-1,-1,0
-157.89,13.07,-70.86,1885,-7663,2663,0,-1,0
-157.90,13.07,-70.87,1893,-7667,2668,-1,-1,0
-157.90,13.07,-70.88,1882,-7670,2654,-1,-1,-1
-157.90,13.07,-70.88,1880,-7670,2646,-1,-1,-1
-157.90,13.07,-70.88,1880,-7668,2651,0,0,-1
-157.90,13.08,-70.88,1888,-7656,2653,0,-1,0
-157.90,13.08,-70.88,1889,-7656,2654,-1,0,0
-157.91,13.07,-70.90,1884,-7670,2649,-1,-1,0
-157.91,13.07,-70.90,1878,-7683,2659,-1,0,0
-157.91,13.07,-70.91,1881,-7687,2644,-1,0,-1
-157.91,13.07,-70.91,1883,-7686,2642,-1,0,-1
-157.91,13.07,-70.91,1884,-7684,2627,0,0,-1
-157.90,13.08,-70.90,1893,-7675,2651,0,-1,-1
-157.90,13.07,-70.89,1888,-7668,2652,0,0,0
-157.90,13.07,-70.89,1897,-7661,2674,-1,0,0
-157.90,13.08,-70.90,1895,-7667,2666,-1,0,-1
-157.90,13.08,-70.90,1885,-7665,2668,-1,-1,0
-157.90,13.08,-70.90,1886,-7665,2651,0,0,-1
-157.90,13.08,-70.90,1892,-7667,2659,-1,-1,-1
-157.89,13.08,-70.90,1907,-7676,2657,0,0,-1
-157.89,13.08,-70.90,1902,-7668,2655,-1,0,0
-157.90,13.09,-70.91,1890,-7667,2650,-1,-1,0
-157.90,13.09,-70.91,1880,-7674,2649,0,0,-1
-157.90,13.09,-70.91,1883,-7673,2650,-1,0,-1
-157.88,13.10,-70.90,1891,-7672,2651,0,0,-1
-157.88,13.10,-70.90,1891,-7664,2661,0,0,-1
-157.87,13.10,-70.89,1892,-7665,2662,0,0,-1
-157.87,13.10,-70.89,1896,-7667,2663,-1,-1,-1
-157.87,13.11,-70.90,1896,-7669,2666,-1,-1,-1
-157.87,13.11,-70.90,1901,-7677,2662,-1,-1,-1
-157.87,13.12,-70.91,1901,-7673,2652,-1,0,-1
-157.87,13.12,-70.91,1894,-7671,2654,-1,0,-1
-157.86,13.12,-70.91,1889,-7667,2647,0,0,-1
-157.86,13.12,-70.90,1885,-7670,2650,0,0,-1
-157.86,13.12,-70.90,1885,-7667,2639,0,0,-1
-157.85,13.13,-70.90,1893,-7666,2642,0,0,-1
-157.85,13.13,-70.90,1892,-7667,2655,0,0,-1
-157.85,13.13,-70.90,1890,-7670,2653,-1,0,-1
-157.84,13.14,-70.90,1893,-7673,2647,-1,0,-1
-157.84,13.14,-70.90,1891,-7678,2652,-1,0,-1
-157.84,13.14,-70.90,1888,-7685,2648,0,0,-1
-157.84,13.14,-70.90,1892,-7681,2654,0,0,-1
-157.84,13.14,-70.90,1898,-7673,2652,-1,0,-1
-157.83,13.14,-70.91,1898,-7675,2659,-1,0,-1
-157.83,13.14,-70.91,1898,-7677,2654,-1,0,-1
-157.83,13.15,-70.92,1889,-7682,2651,0,-1,-1
-157.82,13.15,-70.90,1893,-7669,2655,0,0,-1
-157.82,13.15,-70.90,1894,-7659,2660,-1,-1,-1
-157.81,13.16,-70.90,1902,-7657,2677,-1,0,0
-157.82,13.15,-70.90,1893,-7676,2665,-1,0,-1
-157.82,13.15,-70.91,1894,-7679,2653,-1,0,-1
-157.82,13.15,-70.91,1894,-7679,2638,0,0,-1
-157.81,13.16,-70.90,1897,-7676,2641,0,0,-1
-157.81,13.16,-70.90,1895,-7673,2646,0,0,-1
-157.80,13.16,-70.89,1901,-7663,2657,0,0,-1
-157.80,13.16,-70.89,1909,-7658,2658,-1,0,0
-157.80,13.16,-70.89,1900,-7658,2665,-1,-1,0
-157.80,13.17,-70.90,1902,-7661,2659,-1,0,-1
-157.80,13.17,-70.90,1904,-7659,2656,-1,0,-1
-157.80,13.17,-70.90,1896,-7660,2647,-1,-1,-1
-157.80,13.17,-70.90,1897,-7671,2653,0,0,-1
-157.79,13.18,-70.89,1900,-7670,2656,0,0,-1
-157.79,13.17,-70.88,1905,-7669,2652,0,0,-1
-157.79,13.17,-70.88,1902,-7669,2655,-1,0,-1
-157.79,13.17,-70.89,1901,-7673,2653,0,0,-1
-157.78,13.18,-70.88,1907,-7669,2652,0,0,-1
-157.78,13.18,-70.88,1901,-7673,2657,0,0,-1
-157.77,13.19,-70.87,1899,-7667,2661,0,0,-1
-157.77,13.19,-70.87,1897,-7667,2665,0,-1,-1
-157.76,13.19,-70.87,1904,-7660,2668,0,0,-1
-157.76,13.19,-70.87,1906,-7655,2660,-1,0,-1
-157.76,13.19,-70.87,1906,-7669,2653,-1,0,-1
-157.75,13.20,-70.87,1909,-7681,2647,-1,0,-1
-157.75,13.20,-70.87,1909,-7677,2647,0,0,-1
-157.74,13.20,-70.86,1902,-7668,2651,0,0,-1
-157.75,13.20,-70.86,1901,-7662,2662,-1,0,-1
-157.75,13.20,-70.87,1896,-7662,2662,-1,0,-1
-157.75,13.20,-70.87,1896,-7656,2658,-1,-1,-1
-157.74,13.21,-70.87,1899,-7666,2656,-1,0,-1
-157.73,13.21,-70.86,1899,-7662,2658,0,0,-1
-157.73,13.21,-70.87,1902,-7667,2665,-1,0,-1
-157.73,13.21,-70.87,1900,-7672,2656,0,0,-1
-157.73,13.22,-70.87,1903,-7666,2656,-1,-1,-1
-157.72,13.22,-70.87,1910,-7671,2654,-1,0,-1
-157.72,13.23,-70.88,1909,-7668,2649,-1,0,-1
-157.71,13.23,-70.88,1909,-7665,2651,0,0,-1
-157.70,13.24,-70.88,1916,-7659,2659,-1,0,-1
-157.70,13.24,-70.88,1909,-7666,2666,-1,0,-1
-157.71,13.24,-70.88,1902,-7667,2651,-1,0,-1
-157.70,13.25,-70.88,1908,-7682,2644,-1,0,-1
-157.69,13.25,-70.88,1910,-7673,2646,0,0,-1
-157.68,13.26,-70.87,1913,-7657,2661,0,0,-1
-157.68,13.26,-70.87,1914,-7650,2655,-1,0,-1
-157.68,13.25,-70.87,1909,-7658,2648,-1,0,-1
-157.68,13.26,-70.88,1912,-7674,2645,-1,0,-1
-157.68,13.26,-70.88,1906,-7677,2632,0,0,-1
-157.68,13.26,-70.88,1905,-7676,2635,0,0,-1
-157.67,13.26,-70.88,1903,-7666,2650,0,0,-1
-157.66,13.27,-70.87,1909,-7666,2657,0,0,-1
-157.65,13.28,-70.87,1920,-7663,2665,-1,0,-1
-157.65,13.28,-70.87,1925,-7668,2658,-1,0,-1
-157.65,13.28,-70.87,1917,-7663,2659,-1,0,0
-157.65,13.28,-70.87,1914,-7670,2662,0,0,-1
-157.65,13.28,-70.87,1919,-7665,2654,-1,-1,-1
-157.65,13.28,-70.87,1912,-7671,2651,0,0,-1
-157.65,13.28,-70.87,1910,-7673,2652,0,0,-1
-157.64,13.28,-70.86,1913,-7679,2654,0,0,-1
-157.64,13.28,-70.86,1917,-7684,2648,0,0,-1
-157.63,13.29,-70.85,1914,-7661,2655,0,0,-1
-157.64,13.28,-70.86,1909,-7666,2649,-1,-1,-1
-157.64,13.28,-70.86,1909,-7666,2638,0,0,-1
-157.63,13.29,-70.85,1920,-7675,2644,0,0,-1
-157.63,13.28,-70.84,1899,-7674,2649,0,0,-1
-157.62,13.29,-70.84,1912,-7650,2663,-1,0,-1
-157.62,13.29,-70.84,1905,-7654,2663,0,0,-1
-157.62,13.29,-70.84,1915,-7655,2673,-1,-1,-1
-157.62,13.29,-70.85,1926,-7657,2654,-1,0,0
-157.62,13.29,-70.85,1913,-7653,2659,0,0,-1
-157.62,13.29,-70.85,1919,-7657,2647,-1,0,-1
-157.62,13.29,-70.85,1923,-7658,2653,-1,0,-1
-157.62,13.29,-70.86,1912,-7657,2650,-1,-1,-1
-157.61,13.30,-70.85,1914,-7671,2676,-1,0,-1
-157.61,13.30,-70.86,1912,-7670,2660,-1,0,-1
-157.60,13.31,-70.85,1922,-7665,2662,-1,0,-1
-157.59,13.31,-70.86,1921,-7674,2659,-1,0,-1
-157.59,13.32,-70.85,1916,-7665,2667,0,0,-1
-157.59,13.32,-70.85,1917,-7660,2657,-1,0,-1
-157.59,13.32,-70.86,1916,-7661,2651,-1,-1,-1
-157.59,13.32,-70.87,1916,-7658,2654,-1,0,-1
-157.59,13.32,-70.87,1922,-7657,2663,-1,0,-1
-157.59,13.32,-70.87,1917,-7659,2655,-1,0,-1
-157.59,13.32,-70.87,1927,-7658,2653,-1,-1,0
-157.59,13.32,-70.87,1929,-7656,2655,0,0,0
-157.59,13.32,-70.87,1923,-7655,2663,-1,0,0
-157.60,13.31,-70.87,1920,-7659,2657,-1,-1,0
-157.60,13.32,-70.87,1920,-7663,2659,-1,-1,0
-157.60,13.32,-70.87,1931,-7660,2648,0,0,0
-157.60,13.32,-70.87,1931,-7655,2651,0,0,0
-157.59,13.31,-70.86,1926,-7641,2673,-1,0,0
-157.60,13.31,-70.86,1928,-7648,2666,-1,-1,0
-157.61,13.30,-70.87,1919,-7659,2663,-1,-1,0
-157.62,13.30,-70.87,1911,-7675,2652,0,-1,0
-157.62,13.29,-70.87,1910,-7668,2646,0,0,0
-157.63,13.29,-70.87,1904,-7669,2643,0,0,-1
-157.62,13.29,-70.85,1917,-7663,2659,0,-1,0
-157.62,13.29,-70.86,1914,-7665,2664,-1,-1,0
-157.63,13.29,-70.86,1915,-7663,2672,-1,-1,0
-157.63,13.28,-70.86,1916,-7665,2665,-1,-1,0
-157.64,13.28,-70.86,1909,-7667,2659,-1,-1,0
-157.65,13.27,-70.87,1915,-7657,2655,-1,-1,0
-157.65,13.27,-70.87,1911,-7661,2647,-1,-1,0
-157.65,13.27,-70.87,1918,-7662,2653,0,-1,0
-157.65,13.27,-70.87,1911,-7668,2663,-1,-1,0
-157.66,13.26,-70.87,1907,-7662,2658,0,-1,0
-157.67,13.26,-70.88,1909,-7658,2653,-1,-1,0
-157.67,13.26,-70.87,1917,-7663,2661,-1,-1,0
-157.67,13.26,-70.88,1917,-7663,2654,0,-1,0
-157.67,13.26,-70.88,1907,-7670,2654,0,0,0
-157.67,13.25,-70.87,1903,-7664,2663,0,-1,-1
-157.67,13.25,-70.86,1907,-7657,2677,0,-1,0
-157.67,13.25,-70.86,1910,-7655,2675,-1,-1,0
-157.67,13.26,-70.87,1915,-7653,2659,-1,-1,0
-157.68,13.25,-70.87,1908,-7663,2666,-1,-1,0
-157.69,13.24,-70.88,1911,-7669,2649,0,0,0
-157.70,13.24,-70.89,1904,-7668,2634,-1,-1,0
-157.71,13.23,-70.88,1906,-7671,2637,0,-1,0
-157.71,13.23,-70.88,1909,-7668,2643,0,-1,0
-157.71,13.23,-70.87,1910,-7667,2646,0,-1,0
-157.71,13.23,-70.87,1916,-7667,2654,0,-1,0
-157.71,13.22,-70.86,1907,-7678,2658,0,-1,0
-157.72,13.21,-70.85,1905,-7678,2664,0,0,0
-157.72,13.21,-70.84,1909,-7688,2660,0,0,0
-157.72,13.20,-70.83,1912,-7664,2675,-1,0,0
-157.72,13.19,-70.82,1894,-7650,2663,0,-1,0
-157.73,13.18,-70.81,1883,-7653,2680,0,-1,0
-157.73,13.18,-70.82,1900,-7653,2679,0,-1,0
-157.74,13.18,-70.83,1906,-7676,2653,-1,-1,0
-157.75,13.17,-70.82,1906,-7678,2657,0,-1,0
-157.75,13.17,-70.82,1902,-7682,2654,0,0,0
-157.75,13.16,-70.80,1895,-7650,2683,-1,0,0
-157.77,13.15,-70.82,1889,-7660,2656,-1,-1,0
-157.77,13.15,-70.83,1899,-7672,2665,-1,-1,0
-157.78,13.15,-70.83,1901,-7675,2639,0,0,0
-157.78,13.14,-70.82,1891,-7672,2649,0,-1,0
-157.78,13.14,-70.81,1905,-7653,2674,0,0,0
-157.80,13.12,-70.82,1888,-7662,2671,-1,-1,0
-157.81,13.11,-70.82,1895,-7668,2655,-1,0,0
-157.82,13.11,-70.83,1879,-7677,2652,0,0,0
-157.82,13.11,-70.83,1882,-7674,2644,0,-1,-1
-157.82,13.11,-70.83,1902,-7674,2652,0,0,0
-157.83,13.10,-70.82,1878,-7672,2651,-1,-1,0
-157.81,13.10,-70.80,1897,-7652,2693,0,0,0
-157.82,13.10,-70.81,1879,-7654,2662,-1,-1,0
-157.83,13.10,-70.82,1899,-7662,2661,-1,-1,0
-157.84,13.09,-70.82,1890,-7669,2661,-1,-1,0
-157.85,13.08,-70.83,1873,-7676,2657,0,0,0
-157.85,13.08,-70.83,1892,-7676,2648,0,0,0
-157.87,13.07,-70.83,1874,-7679,2655,0,-1,0
-157.86,13.06,-70.82,1885,-7666,2690,-1,-1,0
-157.87,13.06,-70.83,1875,-7667,2648,0,0,0
-157.88,13.06,-70.82,1873,-7657,2686,-1,-1,0
-157.88,13.05,-70.82,1879,-7666,2657,0,0,0
-157.89,13.05,-70.82,1880,-7662,2665,-1,0,0
-157.89,13.05,-70.82,1883,-7666,2659,-1,-1,-1
-157.89,13.05,-70.82,1878,-7648,2661,-1,-1,-1
-157.89,13.05,-70.83,1880,-7668,2655,0,-1,-1
-157.88,13.06,-70.82,1894,-7665,2695,-1,0,-1
-157.88,13.06,-70.83,1882,-7684,2673,0,0,-1
-157.88,13.05,-70.83,1875,-7668,2680,-1,-1,0
-157.89,13.05,-70.84,1880,-7671,2668,-1,0,0
-157.89,13.05,-70.85,1880,-7662,2658,-1,-1,-1
-157.89,13.06,-70.86,1887,-7688,2640,0,0,-1
-157.89,13.06,-70.85,1881,-7686,2651,-1,0,0
-157.90,13.04,-70.85,1881,-7692,2644,0,0,0
-157.90,13.04,-70.85,1882,-7673,2668,-1,-1,-1
-157.90,13.04,-70.85,1877,-7664,2659,-1,-1,-1
-157.90,13.05,-70.85,1895,-7664,2654,0,0,-1
-157.90,13.05,-70.85,1884,-7663,2651,0,0,-1
-157.90,13.05,-70.85,1885,-7676,2669,0,-1,0
-157.90,13.05,-70.85,1877,-7670,2667,0,-1,-1
-157.91,13.05,-70.86,1874,-7671,2657,-1,-1,-1
-157.89,13.06,-70.86,1882,-7674,2649,0,0,-1
-157.89,13.06,-70.85,1901,-7668,2650,0,0,-1
-157.88,13.07,-70.85,1897,-7652,2669,-1,-1,0
-157.89,13.07,-70.85,1891,-7648,2665,-1,-1,0
-157.89,13.07,-70.86,1884,-7668,2650,-1,-1,0
-157.89,13.07,-70.86,1885,-7681,2663,0,0,-1
-157.89,13.07,-70.86,1878,-7675,2671,-1,-1,-1
-157.89,13.07,-70.86,1871,-7668,2657,0,0,-1
-157.88,13.08,-70.86,1872,-7663,2652,0,-1,-1
-157.87,13.08,-70.86,1871,-7659,2650,0,0,-1
-157.86,13.09,-70.86,1890,-7669,2666,-1,0,-1
-157.86,13.10,-70.86,1889,-7676,2673,-1,0,-1
-157.86,13.10,-70.86,1883,-7668,2670,-1,-1,-1
-157.85,13.10,-70.87,1886,-7665,2666,0,0,-1
-157.85,13.11,-70.87,1886,-7662,2659,-1,-1,-1
-157.85,13.11,-70.87,1882,-7663,2662,0,0,-1
-157.84,13.11,-70.86,1895,-7676,2663,0,0,-1
-157.84,13.11,-70.85,1896,-7669,2673,0,0,0
-157.84,13.11,-70.85,1884,-7673,2666,0,0,-1
-157.83,13.11,-70.85,1878,-7678,2668,-1,-1,-1
-157.82,13.12,-70.85,1901,-7684,2635,1,0,-1
-157.80,13.13,-70.82,1898,-7666,2671,-1,0,-1
-157.79,13.13,-70.81,1882,-7640,2689,0,0,-1
-157.79,13.14,-70.83,1879,-7651,2671,-1,-1,-1
-157.79,13.14,-70.83,1889,-7653,2679,-1,0,-1
-157.79,13.14,-70.84,1899,-7673,2670,-1,0,-1
-157.79,13.14,-70.84,1899,-7664,2683,-1,-1,0
-157.79,13.15,-70.85,1887,-7660,2666,-1,0,-1
-157.79,13.15,-70.85,1885,-7664,2658,-1,0,-1
-157.79,13.15,-70.85,1890,-7662,2666,-1,0,-1
-157.79,13.15,-70.86,1886,-7662,2654,-1,-1,-1
-157.78,13.16,-70.86,1897,-7675,2651,-1,0,-1
-157.78,13.17,-70.87,1893,-7678,2649,0,0,-1
-157.77,13.17,-70.86,1900,-7665,2660,0,0,-1
-157.77,13.17,-70.86,1896,-7666,2670,-1,0,-1
-157.77,13.18,-70.87,1898,-7668,2674,-1,0,-1
-157.76,13.18,-70.87,1902,-7660,2666,-1,0,-1
-157.76,13.18,-70.89,1896,-7667,2646,-1,-1,-1
-157.76,13.19,-70.89,1896,-7672,2641,-1,0,-1
-157.75,13.20,-70.89,1897,-7655,2657,0,0,-1
-157.75,13.20,-70.90,1903,-7656,2673,-1,-1,-1
-157.75,13.21,-70.91,1907,-7668,2635,0,-1,-1
-157.74,13.22,-70.91,1910,-7668,2642,-1,0,-1
-157.75,13.21,-70.91,1906,-7680,2642,0,0,0
-157.74,13.21,-70.90,1897,-7674,2666,0,0,-1
-157.74,13.21,-70.90,1891,-7686,2656,-1,0,-1
-157.73,13.21,-70.90,1894,-7674,2667,-1,0,-1
-157.73,13.22,-70.90,1895,-7673,2663,0,0,-1
-157.72,13.22,-70.90,1896,-7675,2663,-1,0,-1
-157.72,13.22,-70.90,1899,-7674,2662,-1,0,-1
-157.72,13.22,-70.90,1902,-7671,2654,-1,0,-1
-157.72,13.23,-70.91,1907,-7660,2656,-1,0,-1
-157.72,13.23,-70.92,1900,-7657,2647,-1,0,0
-157.73,13.22,-70.93,1899,-7665,2641,-1,0,-1
-157.73,13.22,-70.93,1899,-7680,2636,0,0,-1
-157.72,13.23,-70.93,1903,-7678,2648,0,0,-1
-157.72,13.23,-70.92,1900,-7668,2650,0,0,-1
-157.71,13.24,-70.91,1891,-7664,2657,-1,-1,-1
-157.71,13.24,-70.92,1899,-7672,2650,0,0,-1
-157.70,13.24,-70.92,1904,-7670,2654,0,0,-1
-157.70,13.24,-70.91,1901,-7666,2654,0,0,-1
-157.69,13.25,-70.90,1904,-7661,2660,0,0,-1
-157.68,13.25,-70.90,1904,-7661,2672,-1,0,-1
-157.68,13.25,-70.90,1912,-7665,2674,-1,-1,-1
-157.68,13.26,-70.90,1907,-7665,2670,-1,-1,-1
-157.68,13.26,-70.91,1916,-7668,2666,-1,0,-1
-157.68,13.26,-70.91,1915,-7668,2654,-1,0,-1
-157.68,13.26,-70.91,1908,-7669,2645,-1,0,-1
-157.67,13.26,-70.92,1903,-7666,2642,0,0,-1
-157.67,13.27,-70.91,1905,-7669,2642,0,0,-1
-157.66,13.27,-70.91,1904,-7669,2649,0,0,-1
-157.66,13.28,-70.91,1905,-7665,2651,0,0,-1
-157.65,13.27,-70.90,1910,-7669,2653,0,0,-1
-157.65,13.28,-70.90,1909,-7665,2645,0,0,-1
-157.65,13.28,-70.90,1906,-7664,2650,-1,0,-1
-157.64,13.28,-70.91,1905,-7665,2636,-1,-1,-1
-157.64,13.29,-70.91,1909,-7664,2642,-1,-1,-1
-157.64,13.29,-70.91,1911,-7670,2645,0,0,-1
-157.63,13.30,-70.91,1917,-7658,2661,0,0,-1
-157.63,13.29,-70.91,1907,-7662,2655,-1,0,-1
-157.63,13.30,-70.91,1906,-7654,2652,-1,0,-1
-157.63,13.30,-70.92,1903,-7665,2636,-1,0,-1
-157.63,13.30,-70.93,1902,-7666,2628,0,0,-1
-157.61,13.32,-70.92,1916,-7665,2631,0,0,-1
-157.60,13.32,-70.91,1920,-7654,2646,0,0,-1
-157.60,13.32,-70.91,1918,-7643,2660,-1,0,-1
-157.60,13.32,-70.91,1912,-7656,2665,-1,0,-1
-157.60,13.32,-70.92,1918,-7673,2651,-1,0,-1
-157.60,13.33,-70.93,1918,-7683,2641,0,0,-1
-157.59,13.33,-70.92,1913,-7674,2637,0,0,-1
-157.59,13.33,-70.92,1909,-7668,2650,0,0,-1
-157.58,13.34,-70.92,1913,-7659,2657,-1,0,-1
-157.57,13.35,-70.91,1918,-7665,2663,-1,0,-1
-157.57,13.35,-70.91,1921,-7671,2661,-1,0,-1
-157.56,13.35,-70.92,1920,-7674,2651,-1,0,-1
-157.56,13.35,-70.92,1917,-7663,2648,-1,0,-1
-157.56,13.36,-70.92,1913,-7662,2660,-1,0,-1
-157.56,13.35,-70.92,1917,-7665,2656,-1,0,-1
-157.56,13.36,-70.92,1914,-7665,2654,0,0,-1
-157.56,13.36,-70.92,1915,-7668,2650,0,0,-1
-157.55,13.36,-70.92,1908,-7661,2653,-1,0,-1
-157.55,13.36,-70.92,1912,-7668,2651,-1,0,-1
-157.54,13.37,-70.92,1920,-7676,2654,-1,0,-1
-157.54,13.37,-70.92,1923,-7669,2646,0,0,-1
-157.53,13.37,-70.92,1914,-7663,2644,0,0,-1
-157.52,13.38,-70.91,1914,-7658,2650,0,0,-1
-157.52,13.38,-70.91,1923,-7657,2654,-1,0,-1
-157.51,13.39,-70.91,1929,-7656,2661,-1,0,-1
-157.51,13.39,-70.91,1924,-7650,2649,0,-1,-1
-157.51,13.39,-70.92,1925,-7659,2648,-1,0,-1
-157.51,13.39,-70.92,1929,-7657,2647,0,0,-1
-157.50,13.40,-70.92,1921,-7667,2655,-1,0,-1
-157.50,13.39,-70.92,1926,-7674,2642,0,0,-1
-157.50,13.39,-70.92,1911,-7668,2659,-1,0,-1
-157.49,13.40,-70.91,1915,-7667,2656,0,0,-1
-157.49,13.40,-70.91,1914,-7671,2658,-1,0,-1
-157.48,13.40,-70.91,1922,-7674,2655,0,0,-1
-157.48,13.40,-70.91,1925,-7662,2661,-1,0,-1
-157.48,13.40,-70.91,1922,-7664,2668,-1,0,0
-157.49,13.40,-70.91,1914,-7661,2657,-1,-1,-1
-157.49,13.40,-70.91,1916,-7662,2657,-1,0,-1
-157.49,13.40,-70.91,1917,-7662,2663,-1,0,-1
-157.49,13.40,-70.91,1920,-7663,2659,0,-1,-1
-157.49,13.40,-70.91,1915,-7666,2659,-1,-1,0
-157.49,13.40,-70.91,1917,-7663,2653,0,-1,-1
-157.50,13.39,-70.91,1927,-7663,2643,0,-1,-1
-157.50,13.39,-70.91,1920,-7657,2649,0,-1,-1
-157.50,13.39,-70.91,1919,-7655,2648,0,0,0
-157.50,13.39,-70.91,1918,-7656,2662,-1,-1,0
-157.51,13.38,-70.92,1920,-7663,2646,-1,-1,0
-157.51,13.39,-70.92,1919,-7670,2650,-1,-1,-1
-157.50,13.39,-70.92,1924,-7677,2650,0,0,-1
-157.50,13.39,-70.91,1925,-7665,2660,0,0,0
-157.49,13.39,-70.90,1923,-7649,2666,-1,-1,0
-157.51,13.38,-70.91,1921,-7651,2654,-1,-1,0
-157.51,13.38,-70.92,1916,-7666,2637,-1,-1,0
-157.52,13.37,-70.93,1915,-7678,2630,0,0,0
-157.53,13.37,-70.93,1918,-7684,2644,0,0,0
-157.52,13.37,-70.92,1916,-7680,2646,0,0,-1
-157.51,13.37,-70.91,1912,-7664,2664,0,-1,-1
-157.51,13.37,-70.91,1923,-7658,2669,0,0,-1
-157.52,13.37,-70.91,1927,-7666,2662,-1,-1,0
-157.52,13.37,-70.91,1924,-7683,2661,0,-1,0
-157.53,13.36,-70.91,1931,-7682,2651,0,-1,0
-157.53,13.36,-70.90,1919,-7664,2642,0,-1,0
-157.53,13.36,-70.90,1912,-7659,2645,0,0,0
-157.54,13.35,-70.89,1911,-7664,2655,0,-1,0
-157.54,13.35,-70.89,1917,-7667,2660,0,-1,0
-157.54,13.34,-70.89,1916,-7672,2640,0,-1,0
-157.55,13.34,-70.88,1917,-7686,2651,0,-1,0
-157.55,13.33,-70.87,1918,-7666,2659,0,0,0
-157.55,13.33,-70.87,1907,-7657,2654,0,-1,0
-157.56,13.32,-70.88,1903,-7664,2665,-1,-1,0
-157.56,13.32,-70.88,1911,-7668,2660,0,0,0
-157.56,13.32,-70.87,1903,-7660,2672,-1,-1,0
-157.56,13.32,-70.87,1908,-7653,2678,-1,-1,0
-157.57,13.32,-70.88,1912,-7659,2673,-1,-1,0
-157.57,13.31,-70.88,1911,-7662,2668,-1,-1,0
-157.58,13.31,-70.90,1909,-7670,2651,-1,0,0
-157.59,13.31,-70.90,1911,-7663,2647,-1,-1,0
-157.59,13.31,-70.91,1913,-7656,2649,-1,-1,0
-157.60,13.30,-70.91,1907,-7663,2648,-1,-1,0
-157.60,13.30,-70.91,1923,-7669,2652,0,0,0
-157.60,13.30,-70.92,1912,-7677,2663,-1,-1,0
-157.60,13.30,-70.92,1906,-7671,2662,0,0,-1
-157.60,13.30,-70.92,1906,-7662,2653,-1,-1,-1
-157.60,13.30,-70.92,1903,-7656,2657,-1,-1,-1
-157.61,13.29,-70.92,1906,-7660,2646,0,0,-1
-157.61,13.29,-70.92,1913,-7667,2647,-1,0,0
-157.61,13.29,-70.92,1908,-7675,2656,-1,-1,0
-157.62,13.28,-70.93,1906,-7674,2653,-1,-1,0
-157.62,13.28,-70.93,1904,-7663,2647,-1,-1,0
-157.63,13.28,-70.93,1908,-7664,2647,-1,0,0
-157.63,13.28,-70.93,1902,-7666,2646,0,-1,0
-157.63,13.27,-70.93,1904,-7669,2648,0,-1,0
-157.65,13.27,-70.93,1897,-7686,2632,0,-1,0
-157.64,13.27,-70.91,1901,-7673,2651,0,-1,-1
-157.64,13.26,-70.90,1899,-7664,2651,0,-1,0
-157.64,13.26,-70.89,1897,-7655,2664,0,-1,0
-157.64,13.26,-70.88,1906,-7653,2649,0,-1,0
-157.64,13.26,-70.88,1920,-7658,2666,-1,-1,0
-157.66,13.24,-70.89,1902,-7667,2655,0,0,0
-157.66,13.24,-70.88,1895,-7675,2667,0,-1,0
-157.67,13.23,-70.89,1891,-7688,2640,0,-1,0
-157.68,13.22,-70.88,1892,-7686,2655,0,-1,0
-157.67,13.22,-70.86,1908,-7664,2662,0,0,-1
-157.67,13.22,-70.85,1911,-7662,2688,-1,-1,0
-157.67,13.21,-70.84,1894,-7651,2690,0,0,0
-157.68,13.21,-70.86,1892,-7662,2661,-1,-1,0
-157.69,13.21,-70.86,1900,-7662,2661,-1,-1,0
-157.70,13.20,-70.87,1899,-7672,2660,0,0,0
-157.69,13.20,-70.86,1891,-7654,2676,0,-1,0
-157.70,13.18,-70.85,1894,-7662,2675,0,0,0
-157.71,13.18,-70.85,1881,-7655,2664,-1,-1,0
-157.72,13.18,-70.86,1894,-7663,2667,0,0,0
-157.72,13.17,-70.86,1894,-7680,2663,-1,0,0
-157.73,13.17,-70.86,1886,-7674,2650,0,0,0
-157.73,13.17,-70.86,1886,-7664,2664,-1,-1,0
-157.74,13.17,-70.87,1880,-7681,2649,0,-1,-1
-157.73,13.17,-70.85,1893,-7659,2662,0,-1,-1
-157.72,13.17,-70.85,1901,-7664,2672,0,0,0
-157.73,13.17,-70.85,1895,-7662,2675,-1,-1,0
-157.73,13.16,-70.86,1895,-7670,2662,-1,-1,0
-157.74,13.17,-70.87,1889,-7670,2663,-1,-1,-1
-157.74,13.17,-70.87,1887,-7672,2653,0,0,0
-157.74,13.16,-70.87,1890,-7666,2661,-1,0,0
-157.75,13.16,-70.88,1891,-7663,2658,-1,0,0
-157.74,13.16,-70.87,1888,-7663,2685,-1,0,-1
-157.74,13.16,-70.87,1896,-7667,2678,-1,0,-1
-157.74,13.16,-70.88,1886,-7667,2672,-1,-1,-1
-157.75,13.16,-70.89,1891,-7684,2648,-1,0,-1
-157.74,13.16,-70.89,1896,-7675,2648,0,0,-1
-157.74,13.16,-70.89,1888,-7668,2664,0,0,-1
-157.73,13.17,-70.89,1885,-7667,2659,-1,-1,-1
-157.74,13.17,-70.89,1893,-7665,2663,-1,0,0
-157.74,13.17,-70.90,1889,-7658,2655,-1,0,-1
-157.75,13.16,-70.91,1883,-7671,2660,-1,-1,-1
-157.75,13.17,-70.92,1882,-7680,2650,-1,-1,-1
-157.75,13.17,-70.93,1887,-7686,2649,0,-1,-1
-157.74,13.18,-70.92,1891,-7680,2651,0,0,-1
-157.74,13.18,-70.92,1896,-7664,2650,0,0,-1
-157.74,13.18,-70.92,1893,-7655,2652,-1,-1,0
-157.74,13.18,-70.92,1891,-7669,2657,-1,-1,0
-157.74,13.18,-70.93,1891,-7685,2648,-1,0,-1
-157.75,13.17,-70.93,1888,-7694,2644,0,0,-1
-157.75,13.17,-70.93,1883,-7683,2641,0,-1,-1
-157.74,13.18,-70.92,1882,-7677,2639,0,0,-1
-157.74,13.18,-70.92,1891,-7667,2652,0,0,-1
-157.72,13.19,-70.92,1896,-7666,2653,-1,0,-1
-157.72,13.19,-70.92,1893,-7667,2659,-1,-1,-1
-157.73,13.19,-70.93,1895,-7672,2658,-1,-1,-1
-157.73,13.19,-70.93,1893,-7672,2650,0,-1,-1
-157.72,13.20,-70.93,1892,-7667,2644,0,0,-1
-157.72,13.20,-70.92,1899,-7665,2658,-1,0,-1
-157.72,13.20,-70.93,1889,-7674,2649,-1,0,-1
-157.72,13.19,-70.93,1888,-7668,2665,-1,-1,-1
-157.72,13.20,-70.93,1898,-7677,2651,0,0,-1
-157.71,13.20,-70.93,1903,-7673,2649,-1,-1,-1
-157.71,13.21,-70.93,1901,-7667,2643,0,0,-1
-157.70,13.21,-70.93,1900,-7670,2648,0,0,-1
-157.69,13.21,-70.92,1896,-7671,2658,0,0,-1
-157.69,13.21,-70.92,1887,-7666,2658,-1,-1,-1
-157.69,13.21,-70.92,1890,-7663,2658,-1,0,-1
-157.68,13.22,-70.92,1900,-7663,2652,-1,0,-1
-157.69,13.22,-70.93,1898,-7668,2648,-1,-1,-1
-157.69,13.22,-70.93,1892,-7669,2651,0,0,-1
-157.69,13.22,-70.93,1887,-7672,2646,-1,0,-1
-157.68,13.22,-70.93,1889,-7674,2653,0,0,-1
-157.68,13.22,-70.93,1894,-7675,2652,0,0,-1
-157.67,13.23,-70.92,1902,-7674,2655,0,0,-1
-157.67,13.23,-70.92,1900,-7667,2652,0,0,-1
-157.67,13.23,-70.92,1890,-7665,2656,0,0,-1
-157.67,13.23,-70.92,1899,-7666,2658,-1,0,-1
-157.67,13.23,-70.92,1897,-7668,2654,0,0,-1
-157.66,13.24,-70.92,1899,-7669,2652,-1,0,-1
-157.66,13.23,-70.92,1901,-7664,2663,-1,0,-1
-157.66,13.24,-70.92,1897,-7664,2661,-1,0,-1
-157.66,13.24,-70.93,1901,-7682,2662,-1,0,-1
-157.66,13.24,-70.93,1901,-7688,2659,0,-1,-1
-157.65,13.25,-70.92,1904,-7668,2657,0,0,-1
-157.64,13.25,-70.91,1909,-7662,2671,-1,0,-1
-157.64,13.25,-70.92,1900,-7661,2666,-1,-1,-1
-157.64,13.25,-70.92,1903,-7678,2659,-1,0,-1
-157.65,13.25,-70.93,1901,-7684,2644,0,0,-1
-157.64,13.25,-70.93,1896,-7670,2643,-1,0,-1
-157.64,13.25,-70.93,1889,-7668,2641,0,0,-1
-157.63,13.26,-70.92,1889,-7661,2652,0,-1,-1
-157.62,13.26,-70.91,1903,-7668,2660,0,0,-1
-157.62,13.26,-70.92,1910,-7668,2668,-1,-1,-1
-157.62,13.26,-70.92,1907,-7674,2676,-1,-1,-1
-157.62,13.26,-70.92,1898,-7669,2659,-1,-1,-1
-157.62,13.26,-70.92,1901,-7667,2663,-1,-1,-1
-157.63,13.26,-70.93,1907,-7659,2653,-1,0,-1
-157.63,13.26,-70.93,1903,-7669,2641,-1,-1,-1
-157.63,13.26,-70.93,1903,-7674,2639,0,0,-1
-157.62,13.26,-70.93,1898,-7677,2643,0,0,-1
-157.62,13.26,-70.93,1899,-7677,2651,-1,-1,-1
-157.62,13.27,-70.92,1898,-7671,2643,0,0,-1
-157.62,13.27,-70.92,1901,-7673,2649,0,0,-1
-157.61,13.27,-70.92,1898,-7668,2655,0,0,-1
-157.61,13.27,-70.91,1899,-7668,2661,-1,0,-1
-157.60,13.27,-70.91,1909,-7671,2662,0,0,-1
-157.61,13.27,-70.91,1910,-7668,2659,-1,0,-1
-157.61,13.27,-70.91,1906,-7670,2657,-1,-1,-1
-157.60,13.28,-70.91,1911,-7667,2652,-1,-1,-1
-157.60,13.29,-70.92,1909,-7663,2652,-1,0,-1
-157.60,13.29,-70.92,1910,-7664,2646,-1,0,-1
-157.60,13.28,-70.92,1909,-7669,2645,0,0,-1
-157.60,13.28,-70.92,1898,-7672,2639,0,0,-1
-157.59,13.28,-70.92,1902,-7672,2649,0,0,-1
-157.59,13.28,-70.92,1903,-7671,2652,0,0,-1
-157.59,13.29,-70.91,1907,-7670,2654,-1,0,-1
-157.59,13.29,-70.92,1905,-7669,2647,-1,-1,-1
-157.59,13.29,-70.92,1903,-7670,2642,-1,0,-1
-157.59,13.29,-70.92,1901,-7673,2642,0,0,-1
-157.58,13.30,-70.92,1913,-7672,2659,-1,0,-1
-157.58,13.30,-70.92,1908,-7669,2644,-1,0,-1
-157.58,13.30,-70.92,1901,-7663,2656,-1,-1,-1
-157.58,13.30,-70.92,1905,-7663,2654,0,0,-1
-157.58,13.30,-70.92,1898,-7668,2653,-1,-1,-1
-157.57,13.30,-70.92,1904,-7670,2654,-1,-1,-1
-157.57,13.30,-70.93,1911,-7679,2645,0,0,-1
-157.56,13.31,-70.92,1919,-7669,2650,0,0,-1
-157.55,13.31,-70.91,1918,-7656,2661,0,0,-1
-157.55,13.31,-70.91,1911,-7649,2666,-1,0,-1
-157.55,13.31,-70.91,1904,-7666,2656,-1,0,-1
-157.56,13.31,-70.92,1901,-7673,2645,-1,0,-1
-157.55,13.31,-70.92,1900,-7671,2650,0,0,-1
-157.55,13.31,-70.92,1897,-7670,2643,0,0,-1
-157.54,13.32,-70.91,1905,-7671,2656,0,0,-1
-157.53,13.32,-70.90,1915,-7664,2665,0,0,-1
-157.52,13.33,-70.90,1924,-7664,2677,-1,0,-1
-157.52,13.33,-70.90,1916,-7668,2672,-1,0,-1
-157.51,13.34,-70.90,1907,-7670,2663,-1,0,-1
-157.51,13.34,-70.90,1918,-7665,2659,0,0,-1
-157.52,13.33,-70.91,1916,-7665,2657,-1,0,-1
-157.51,13.34,-70.91,1913,-7672,2646,-1,0,-1
-157.51,13.35,-70.91,1913,-7674,2650,0,0,-1
-157.50,13.35,-70.91,1916,-7667,2648,0,0,-1
-157.51,13.34,-70.91,1909,-7665,2643,-1,0,-1
-157.50,13.36,-70.91,1916,-7667,2638,-1,0,-1
-157.49,13.36,-70.91,1916,-7667,2639,0,0,-1
-157.48,13.36,-70.91,1915,-7664,2644,0,0,-1
-157.49,13.36,-70.91,1910,-7668,2645,0,0,-1
-157.48,13.37,-70.91,1910,-7672,2649,0,0,-1
-157.47,13.37,-70.91,1921,-7662,2655,0,0,-1
-157.47,13.37,-70.91,1919,-7663,2654,-1,-1,-1
-157.47,13.37,-70.90,1927,-7665,2658,0,0,-1
-157.46,13.37,-70.91,1913,-7672,2656,-1,0,-1
-157.46,13.37,-70.91,1921,-7677,2652,0,0,-1
-157.46,13.38,-70.91,1918,-7661,2647,-1,0,-1
-157.46,13.38,-70.91,1918,-7671,2646,0,0,-1
-157.46,13.38,-70.91,1926,-7670,2647,0,0,-1
-157.45,13.38,-70.90,1932,-7672,2654,0,0,-1
-157.44,13.38,-70.90,1926,-7658,2659,0,0,-1
-157.44,13.38,-70.90,1919,-7654,2655,-1,-1,-1
-157.44,13.39,-70.89,1913,-7655,2657,-1,-1,-1
-157.44,13.39,-70.89,1931,-7661,2652,-1,0,-1
-157.43,13.39,-70.90,1925,-7668,2663,-1,0,-1
-157.43,13.39,-70.90,1914,-7663,2660,-1,0,-1
-157.43,13.39,-70.90,1915,-7662,2652,0,0,-1
-157.43,13.39,-70.90,1910,-7662,2662,0,0,-1
-157.42,13.40,-70.89,1923,-7666,2655,0,0,-1
-157.41,13.41,-70.90,1931,-7666,2648,-1,0,-1
-157.41,13.41,-70.90,1930,-7665,2645,0,0,-1
-157.40,13.41,-70.89,1931,-7664,2656,-1,0,-1
-157.41,13.40,-70.89,1922,-7660,2666,-1,0,-1
-157.41,13.40,-70.89,1917,-7673,2656,-1,-1,-1
-157.40,13.41,-70.90,1921,-7683,2653,-1,-1,-1
-157.40,13.41,-70.89,1920,-7687,2646,0,0,-1
-157.39,13.41,-70.88,1926,-7666,2650,0,0,-1
-157.39,13.41,-70.88,1919,-7650,2655,-1,0,0
-157.40,13.41,-70.89,1918,-7650,2660,-1,-1,0
-157.41,13.40,-70.89,1911,-7671,2639,0,-1,0
-157.40,13.40,-70.89,1922,-7671,2646,0,0,-1
-157.41,13.40,-70.89,1913,-7672,2646,0,-1,-1
-157.41,13.39,-70.88,1910,-7654,2659,0,0,-1
-157.41,13.39,-70.88,1912,-7652,2655,0,-1,-1
-157.41,13.39,-70.88,1916,-7657,2659,-1,-1,-1
-157.40,13.40,-70.88,1929,-7661,2665,-1,0,-1
-157.40,13.40,-70.88,1924,-7660,2669,-1,-1,0
-157.41,13.39,-70.89,1927,-7657,2657,-1,-1,0
-157.42,13.39,-70.89,1930,-7656,2663,-1,-1,0
-157.42,13.39,-70.90,1919,-7667,2657,-1,-1,0
-157.43,13.39,-70.91,1916,-7674,2646,-1,-1,0
-157.44,13.38,-70.91,1917,-7665,2642,0,0,0
-157.44,13.38,-70.91,1914,-7661,2644,-1,-1,0
-157.44,13.38,-70.91,1915,-7665,2647,0,0,0
-157.44,13.38,-70.92,1918,-7675,2652,-1,-1,0
-157.44,13.38,-70.92,1920,-7670,2639,0,0,-1
-157.44,13.38,-70.92,1921,-7670,2636,0,-1,0
-157.44,13.38,-70.91,1922,-7662,2648,0,0,-1
-157.44,13.38,-70.91,1914,-7659,2661,-1,-1,-1
-157.44,13.38,-70.91,1914,-7655,2660,-1,-1,0
-157.45,13.38,-70.92,1917,-7664,2664,-1,-1,-1
-157.45,13.37,-70.92,1913,-7671,2652,-1,-1,-1
-157.45,13.37,-70.92,1912,-7666,2653,-1,0,0
-157.45,13.37,-70.93,1915,-7669,2641,0,0,-1
-157.46,13.37,-70.93,1926,-7674,2641,0,0,-1
-157.45,13.37,-70.93,1922,-7673,2637,-1,0,-1
-157.45,13.36,-70.92,1924,-7665,2641,0,0,0
-157.46,13.36,-70.91,1913,-7658,2646,0,-1,0
-157.46,13.36,-70.91,1912,-7657,2645,0,0,0
-157.46,13.36,-70.91,1917,-7659,2647,0,-1,0
-157.46,13.35,-70.90,1921,-7654,2651,0,0,0
-157.47,13.35,-70.91,1920,-7658,2655,-1,-1,0
-157.46,13.35,-70.91,1929,-7657,2656,0,-1,0
-157.48,13.34,-70.91,1920,-7662,2654,-1,-1,0
-157.48,13.34,-70.92,1911,-7662,2658,-1,-1,0
-157.49,13.33,-70.91,1905,-7660,2651,0,-1,0
-157.50,13.32,-70.92,1905,-7666,2660,-1,-1,0
-157.50,13.32,-70.92,1907,-7670,2655,0,-1,0
-157.50,13.32,-70.91,1914,-7663,2660,0,-1,0
-157.52,13.31,-70.91,1905,-7668,2650,-1,-1,0
-157.52,13.31,-70.92,1903,-7671,2647,0,-1,0
-157.53,13.30,-70.92,1908,-7678,2647,0,-1,0
-157.53,13.30,-70.91,1912,-7687,2643,0,-1,0
-157.53,13.30,-70.90,1923,-7674,2661,0,0,0
-157.54,13.28,-70.90,1913,-7657,2672,-1,-1,0
-157.55,13.28,-70.90,1908,-7665,2663,-1,-1,0
-157.57,13.27,-70.91,1901,-7679,2642,0,-1,0
-157.56,13.27,-70.91,1912,-7681,2649,0,0,0
-157.56,13.27,-70.91,1909,-7689,2647,0,0,0
-157.57,13.26,-70.90,1896,-7664,2660,0,-1,0
-157.57,13.25,-70.90,1897,-7665,2653,0,-1,0
-157.57,13.25,-70.89,1900,-7667,2660,-1,-1,0
-157.58,13.25,-70.90,1904,-7675,2655,0,-1,0
-157.58,13.24,-70.89,1913,-7662,2664,-1,-1,0
-157.59,13.23,-70.89,1897,-7652,2664,0,-1,0
-157.60,13.23,-70.89,1897,-7657,2668,-1,-1,0
-157.61,13.23,-70.90,1905,-7665,2660,-1,-1,0
-157.62,13.22,-70.90,1911,-7674,2668,0,0,0
-157.62,13.21,-70.89,1905,-7676,2669,-1,-1,0
-157.63,13.21,-70.90,1898,-7675,2655,0,-1,0
-157.63,13.21,-70.90,1903,-7670,2651,0,0,0
-157.64,13.20,-70.90,1899,-7675,2658,-1,-1,0
-157.64,13.20,-70.90,1900,-7666,2659,0,-1,0
-157.64,13.20,-70.90,1905,-7669,2655,-1,0,0
-157.65,13.19,-70.89,1897,-7663,2651,0,-1,0
-157.65,13.19,-70.90,1898,-7668,2650,0,-1,0
-157.65,13.19,-70.89,1900,-7670,2659,-1,-1,0
-157.66,13.18,-70.90,1900,-7668,2656,-1,-1,0
-157.67,13.18,-70.90,1899,-7665,2653,-1,-1,0
-157.68,13.17,-70.89,1891,-7679,2668,-1,0,0
-157.68,13.17,-70.90,1905,-7690,2653,0,0,0
-157.68,13.16,-70.89,1906,-7676,2659,-1,-1,0
-157.69,13.15,-70.90,1889,-7672,2650,0,-1,0
-157.69,13.15,-70.90,1889,-7667,2656,-1,-1,0
-157.69,13.15,-70.90,1899,-7672,2652,0,-1,0
-157.70,13.15,-70.89,1897,-7663,2668,0,0,0
-157.70,13.14,-70.89,1893,-7665,2664,-1,-1,0
-157.70,13.14,-70.89,1886,-7666,2663,0,-1,0
-157.70,13.14,-70.89,1896,-7673,2664,-1,-1,0
-157.71,13.12,-70.88,1882,-7663,2674,0,0,0
-157.72,13.12,-70.89,1874,-7661,2659,-1,-1,0
-157.72,13.12,-70.90,1889,-7677,2656,-1,-1,0
-157.73,13.12,-70.90,1895,-7681,2650,0,-1,0
-157.73,13.12,-70.89,1903,-7668,2665,0,-1,0
-157.73,13.12,-70.89,1895,-7654,2664,-1,-1,0
-157.74,13.11,-70.90,1894,-7659,2653,-1,-1,0
-157.75,13.11,-70.90,1891,-7669,2649,0,0,0
-157.75,13.10,-70.91,1885,-7678,2650,-1,-1,0
-157.76,13.09,-70.91,1883,-7680,2645,0,0,0
-157.77,13.10,-70.91,1883,-7679,2639,-1,-1,0
-157.76,13.09,-70.91,1875,-7664,2642,0,0,-1
-157.76,13.10,-70.91,1887,-7664,2656,-1,-1,0
-157.75,13.10,-70.90,1895,-7659,2664,0,0,-1
-157.76,13.10,-70.91,1897,-7664,2670,-1,-1,0
-157.76,13.10,-70.92,1895,-7669,2660,-1,0,0
-157.76,13.10,-70.93,1894,-7666,2660,-1,-1,0
-157.76,13.10,-70.93,1898,-7673,2654,-1,-1,0
-157.76,13.11,-70.94,1896,-7678,2641,-1,-1,-1
-157.76,13.11,-70.94,1903,-7676,2651,0,-1,0
-157.76,13.10,-70.93,1898,-7672,2657,0,0,0
-157.77,13.10,-70.93,1895,-7665,2651,-1,-1,0
-157.77,13.10,-70.93,1890,-7668,2648,0,-1,0
-157.78,13.10,-70.94,1894,-7682,2648,0,-1,0
-157.77,13.10,-70.93,1886,-7676,2655,0,-1,-1
-157.77,13.10,-70.92,1882,-7670,2659,0,-1,-1
-157.77,13.10,-70.92,1884,-7660,2660,-1,-1,-1
-157.77,13.10,-70.92,1885,-7667,2669,-1,-1,-1
-157.77,13.10,-70.92,1886,-7673,2670,-1,-1,0
-157.77,13.10,-70.92,1897,-7671,2663,-1,-1,0
-157.77,13.10,-70.92,1897,-7670,2648,-1,-1,0
-157.78,13.10,-70.94,1890,-7677,2646,-1,-1,0
-157.78,13.10,-70.94,1890,-7672,2639,0,-1,0
-157.78,13.10,-70.94,1888,-7665,2643,0,-1,-1
-157.76,13.11,-70.93,1894,-7668,2645,0,0,-1
-157.76,13.11,-70.93,1898,-7674,2655,0,0,-1
-157.76,13.11,-70.92,1900,-7670,2653,0,-1,-1
-157.75,13.12,-70.92,1895,-7668,2659,0,-1,-1
-157.75,13.12,-70.92,1899,-7671,2658,0,0,-1
-157.75,13.12,-70.91,1903,-7668,2651,0,-1,-1
-157.75,13.13,-70.92,1898,-7659,2657,-1,-1,0
-157.75,13.13,-70.92,1899,-7669,2656,-1,-1,-1
-157.75,13.13,-70.92,1898,-7672,2655,-1,-1,-1
-157.74,13.13,-70.92,1900,-7682,2653,0,-1,-1
-157.73,13.14,-70.92,1900,-7675,2648,0,0,-1
-157.73,13.14,-70.91,1903,-7661,2657,-1,-1,0
-157.73,13.14,-70.91,1897,-7656,2652,-1,-1,0
-157.74,13.14,-70.92,1892,-7681,2640,-1,-1,0
-157.73,13.14,-70.92,1902,-7683,2651,0,0,-1
-157.74,13.13,-70.92,1886,-7688,2640,0,0,-1
-157.73,13.14,-70.91,1884,-7673,2647,0,0,-1
-157.72,13.14,-70.91,1891,-7663,2656,0,0,-1
-157.72,13.15,-70.90,1897,-7664,2673,-1,-1,-1
-157.71,13.15,-70.91,1900,-7665,2667,-1,0,-1
-157.71,13.15,-70.91,1902,-7678,2666,-1,-1,-1
-157.71,13.15,-70.91,1896,-7670,2658,-1,0,0
-157.71,13.15,-70.91,1892,-7659,2652,-1,-1,0
-157.71,13.15,-70.92,1894,-7656,2651,-1,0,0
-157.72,13.16,-70.93,1889,-7667,2638,-1,0,-1
-157.72,13.16,-70.93,1894,-7671,2637,0,0,-1
-157.71,13.15,-70.92,1893,-7669,2650,0,0,-1
-157.71,13.15,-70.92,1889,-7673,2643,-1,-1,0
-157.71,13.15,-70.92,1896,-7678,2647,0,0,-1
-157.71,13.16,-70.92,1896,-7677,2659,0,0,-1
-157.71,13.16,-70.92,1901,-7669,2658,0,0,-1
-157.71,13.16,-70.91,1900,-7672,2653,0,0,-1
-157.70,13.16,-70.91,1891,-7670,2659,-1,0,-1
-157.70,13.16,-70.91,1893,-7671,2662,-1,-1,-1
-157.70,13.16,-70.91,1893,-7671,2655,-1,-1,-1
-157.70,13.16,-70.92,1904,-7673,2645,-1,-1,-1
-157.70,13.16,-70.92,1902,-7671,2642,-1,-1,0
-157.70,13.16,-70.92,1903,-7670,2649,-1,0,0
-157.70,13.16,-70.92,1902,-7671,2644,0,-1,0
-157.70,13.16,-70.92,1905,-7674,2642,0,0,-1
-157.70,13.17,-70.92,1911,-7674,2642,0,0,-1
-157.69,13.17,-70.92,1909,-7674,2651,0,0,-1
-157.69,13.17,-70.92,1904,-7666,2654,0,-1,-1
-157.69,13.17,-70.91,1899,-7660,2651,-1,-1,-1
-157.69,13.18,-70.91,1900,-7660,2656,-1,0,-1
-157.69,13.18,-70.91,1903,-7668,2649,-1,0,-1
-157.69,13.18,-70.91,1899,-7670,2651,-1,0,-1
-157.69,13.18,-70.91,1902,-7674,2649,-1,-1,0
-157.68,13.18,-70.91,1907,-7659,2641,0,0,-1
-157.68,13.18,-70.92,1916,-7668,2642,0,-1,-1
-157.68,13.19,-70.92,1922,-7662,2656,0,0,-1
-157.67,13.19,-70.91,1913,-7669,2653,0,0,-1
-157.67,13.19,-70.91,1904,-7662,2667,-1,-1,0
-157.68,13.18,-70.92,1893,-7670,2656,0,-1,-1
-157.67,13.19,-70.91,1896,-7677,2661,-1,-1,-1
-157.66,13.20,-70.91,1906,-7677,2649,0,0,-1
-157.66,13.20,-70.90,1909,-7662,2660,0,0,-1
-157.66,13.20,-70.90,1904,-7659,2666,-1,-1,0
-157.66,13.19,-70.91,1901,-7667,2664,-1,-1,0
-157.66,13.20,-70.91,1904,-7675,2652,-1,0,-1
-157.66,13.20,-70.92,1914,-7677,2633,0,0,-1
-157.65,13.20,-70.91,1908,-7668,2637,0,0,-1
-157.65,13.20,-70.91,1901,-7664,2652,0,0,-1
-157.65,13.21,-70.91,1904,-7657,2646,-1,0,-1
-157.64,13.21,-70.91,1905,-7669,2646,-1,0,-1
-157.64,13.21,-70.91,1908,-7670,2644,-1,-1,-1
-157.63,13.23,-70.92,1918,-7673,2644,-1,0,-1
-157.63,13.22,-70.91,1915,-7662,2657,-1,0,-1
-157.63,13.22,-70.91,1911,-7658,2660,-1,0,0
-157.64,13.22,-70.92,1914,-7663,2644,-1,0,-1
-157.64,13.22,-70.93,1910,-7678,2640,-1,0,-1
-157.63,13.23,-70.93,1910,-7678,2626,0,0,-1
-157.63,13.23,-70.93,1908,-7665,2639,0,0,-1
-157.63,13.23,-70.93,1906,-7663,2643,-1,0,0
-157.63,13.23,-70.93,1914,-7667,2645,0,0,-1
-157.62,13.24,-70.93,1918,-7673,2643,0,0,-1
-157.63,13.23,-70.93,1917,-7676,2646,0,0,0
-157.62,13.24,-70.92,1916,-7670,2652,0,0,-1
-157.61,13.24,-70.92,1913,-7668,2650,0,-1,-1
-157.61,13.24,-70.92,1921,-7659,2660,-1,0,0
-157.62,13.24,-70.92,1921,-7662,2654,-1,-1,0
-157.61,13.25,-70.92,1924,-7657,2664,-1,0,0
-157.61,13.25,-70.92,1919,-7669,2655,-1,-1,-1
-157.61,13.25,-70.93,1907,-7664,2652,-1,-1,0
-157.61,13.25,-70.93,1915,-7667,2653,0,0,-1
-157.61,13.25,-70.93,1917,-7667,2647,0,0,-1
-157.60,13.25,-70.92,1917,-7670,2646,0,0,-1
-157.59,13.26,-70.91,1923,-7660,2652,0,0,-1
-157.59,13.26,-70.91,1919,-7662,2661,-1,0,-1
-157.58,13.26,-70.91,1909,-7660,2669,0,0,-1
-157.58,13.26,-70.91,1911,-7663,2657,-1,0,-1
-157.58,13.27,-70.91,1913,-7658,2657,0,0,-1
-157.57,13.28,-70.91,1914,-7654,2651,-1,0,-1
-157.57,13.28,-70.91,1923,-7654,2654,-1,0,-1
-157.56,13.28,-70.91,1924,-7659,2648,-1,0,-1
-157.55,13.29,-70.91,1920,-7656,2649,-1,0,-1
-157.55,13.29,-70.91,1917,-7657,2650,-1,0,-1
-157.55,13.29,-70.91,1917,-7658,2648,-1,0,-1
-157.55,13.29,-70.91,1922,-7662,2647,-1,0,-1
-157.54,13.30,-70.91,1923,-7663,2647,-1,0,-1
-157.54,13.30,-70.91,1920,-7669,2642,0,0,-1
-157.53,13.30,-70.90,1920,-7663,2660,-1,0,-1
-157.53,13.30,-70.91,1918,-7666,2665,-1,0,-1
-157.53,13.31,-70.91,1924,-7672,2674,-1,0,-1
-157.53,13.31,-70.91,1922,-7676,2646,0,0,-1
-157.51,13.31,-70.90,1927,-7657,2653,0,0,-1
-157.51,13.31,-70.90,1932,-7648,2652,-1,0,0
-157.51,13.31,-70.90,1929,-7648,2654,-1,0,0
-157.51,13.32,-70.91,1927,-7660,2657,-1,0,0
-157.52,13.31,-70.91,1918,-7670,2648,-1,0,-1
-157.51,13.32,-70.92,1920,-7673,2634,0,0,-1
-157.51,13.32,-70.91,1913,-7678,2646,-1,0,-1
-157.50,13.32,-70.90,1918,-7670,2656,0,0,-1
-157.49,13.32,-70.90,1919,-7662,2660,-1,-1,-1
-157.49,13.33,-70.90,1928,-7660,2663,-1,-1,-1
-157.49,13.33,-70.90,1932,-7679,2660,-1,-1,-1
-157.49,13.33,-70.90,1935,-7676,2665,-1,0,0
-157.49,13.33,-70.90,1934,-7668,2663,-1,-1,0
-157.49,13.33,-70.91,1931,-7667,2660,-1,-1,0
-157.50,13.32,-70.91,1924,-7666,2647,-1,-1,0
-157.50,13.33,-70.91,1938,-7669,2652,0,-1,0
-157.50,13.33,-70.91,1934,-7660,2645,-1,-1,0
-157.51,13.32,-70.92,1929,-7661,2633,-1,-1,0
-157.52,13.31,-70.92,1926,-7667,2640,0,-1,0
-157.52,13.32,-70.92,1925,-7665,2645,0,0,0
-157.51,13.32,-70.91,1927,-7666,2658,0,-1,0
-157.51,13.32,-70.91,1928,-7659,2661,0,-1,0
-157.51,13.31,-70.90,1920,-7654,2671,0,-1,0
-157.51,13.31,-70.90,1923,-7656,2669,-1,-1,0
-157.52,13.31,-70.90,1922,-7660,2670,-1,-1,0
-157.53,13.31,-70.91,1926,-7665,2664,-1,-1,0
-157.54,13.30,-70.91,1920,-7671,2643,-1,-1,0
-157.54,13.29,-70.92,1911,-7657,2636,-1,-1,0
-157.54,13.30,-70.92,1919,-7662,2643,0,-1,0
-157.55,13.29,-70.92,1922,-7668,2639,0,-1,0
-157.56,13.29,-70.92,1916,-7669,2650,0,0,0
-157.56,13.28,-70.91,1917,-7675,2654,0,-1,0
-157.55,13.28,-70.90,1922,-7664,2661,0,0,0
-157.56,13.28,-70.90,1921,-7655,2662,-1,-1,0
-157.57,13.27,-70.90,1921,-7665,2647,0,-1,0
-157.57,13.27,-70.90,1928,-7673,2649,0,0,0
-157.57,13.27,-70.90,1926,-7676,2659,0,-1,0
-157.57,13.27,-70.90,1928,-7673,2654,0,-1,0
-157.57,13.27,-70.89,1935,-7668,2655,0,-1,0
-157.58,13.26,-70.90,1924,-7671,2653,0,-1,0
-157.59,13.26,-70.89,1921,-7677,2652,0,-1,0
-157.59,13.26,-70.90,1915,-7668,2637,0,-1,0
-157.60,13.25,-70.89,1912,-7677,2641,0,-1,0
-157.60,13.24,-70.89,1910,-7663,2648,0,-1,0
-157.61,13.24,-70.89,1906,-7665,2667,-1,-1,0
-157.62,13.24,-70.89,1914,-7678,2653,0,-1,0
-157.61,13.24,-70.88,1925,-7676,2646,0,0,0
-157.61,13.24,-70.87,1916,-7659,2663,-1,0,0
-157.62,13.23,-70.87,1909,-7655,2653,0,-1,0
-157.63,13.22,-70.87,1917,-7657,2663,-1,-1,0
-157.64,13.21,-70.87,1919,-7663,2665,-1,-1,0
-157.65,13.20,-70.87,1900,-7667,2654,-1,-1,0
-157.65,13.20,-70.87,1899,-7660,2644,0,0,0
-157.65,13.19,-70.87,1886,-7653,2665,-1,-1,0
-157.65,13.19,-70.87,1902,-7653,2666,0,0,-1
-157.66,13.20,-70.88,1910,-7660,2660,-1,-1,0
-157.66,13.20,-70.88,1917,-7666,2659,0,0,0
-157.66,13.19,-70.88,1919,-7673,2662,-1,-1,0
-157.67,13.19,-70.89,1917,-7667,2661,-1,-1,0
-157.68,13.18,-70.89,1911,-7669,2638,-1,-1,0
-157.68,13.18,-70.90,1912,-7666,2636,0,-1,0
-157.69,13.18,-70.90,1903,-7667,2642,0,-1,0
-157.70,13.17,-70.90,1902,-7671,2638,0,-1,0
-157.70,13.17,-70.91,1905,-7672,2646,-1,-1,0
-157.71,13.17,-70.91,1901,-7666,2652,-1,-1,0
-157.71,13.16,-70.90,1899,-7666,2649,0,-1,0
-157.71,13.16,-70.91,1897,-7664,2648,-1,-1,0
-157.71,13.16,-70.91,1911,-7668,2644,0,0,0
-157.71,13.16,-70.91,1911,-7667,2660,0,0,0
-157.71,13.16,-70.91,1904,-7671,2671,-1,-1,0
-157.72,13.15,-70.90,1898,-7666,2676,-1,0,0
-157.72,13.16,-70.91,1901,-7666,2675,-1,-1,0
-157.72,13.16,-70.91,1903,-7658,2664,-1,-1,0
-157.73,13.15,-70.92,1900,-7666,2656,-1,-1,0
-157.73,13.15,-70.92,1907,-7671,2655,-1,0,0
-157.74,13.14,-70.93,1899,-7680,2651,-1,-1,0
-157.75,13.14,-70.93,1901,-7676,2653,-1,0,0
-157.75,13.14,-70.94,1902,-7673,2638,0,0,0
-157.75,13.14,-70.93,1905,-7666,2641,-1,-1,0
-157.75,13.14,-70.93,1912,-7661,2649,0,0,0
-157.75,13.14,-70.93,1913,-7666,2652,-1,-1,0
-157.75,13.14,-70.94,1909,-7665,2647,-1,-1,0
-157.75,13.14,-70.94,1897,-7662,2647,-1,-1,0
-157.76,13.13,-70.94,1906,-7665,2658,-1,-1,0
-157.77,13.13,-70.95,1905,-7673,2649,-1,-1,0
-157.77,13.13,-70.95,1898,-7680,2647,0,-1,0
-157.77,13.13,-70.94,1900,-7667,2645,0,-1,0
-157.77,13.13,-70.94,1900,-7666,2656,0,-1,0
-157.78,13.12,-70.93,1906,-7662,2660,0,-1,0
-157.78,13.12,-70.93,1906,-7666,2646,-1,-1,0
-157.79,13.11,-70.94,1892,-7672,2642,-1,-1,0
-157.80,13.10,-70.94,1885,-7677,2642,0,0,0
-157.80,13.10,-70.93,1892,-7680,2641,0,-1,0
-157.80,13.11,-70.93,1896,-7675,2643,0,-1,0
-157.80,13.11,-70.93,1915,-7673,2651,0,0,0
-157.79,13.10,-70.92,1906,-7663,2663,-1,-1,0
-157.80,13.10,-70.92,1895,-7658,2674,-1,-1,0
-157.80,13.10,-70.92,1892,-7666,2667,-1,-1,0
-157.81,13.10,-70.94,1889,-7679,2644,-1,-1,0
-157.81,13.10,-70.93,1901,-7670,2648,-1,0,0
-157.81,13.09,-70.94,1902,-7680,2642,0,0,0
-157.82,13.09,-70.93,1892,-7665,2655,-1,-1,0
-157.82,13.08,-70.93,1885,-7672,2652,0,-1,0
-157.83,13.08,-70.93,1891,-7667,2651,-1,-1,0
-157.83,13.08,-70.93,1896,-7672,2645,0,0,0
-157.83,13.08,-70.93,1901,-7674,2642,0,0,0
-157.82,13.08,-70.92,1889,-7673,2656,0,0,0
-157.83,13.07,-70.92,1877,-7663,2663,0,-1,0
-157.83,13.08,-70.92,1880,-7668,2674,-1,-1,0
-157.83,13.07,-70.92,1892,-7670,2663,-1,-1,0
-157.84,13.07,-70.92,1891,-7674,2653,-1,-1,0
-157.84,13.07,-70.93,1893,-7676,2655,0,-1,0
-157.85,13.06,-70.93,1890,-7670,2648,-1,-1,0
-157.86,13.06,-70.93,1888,-7676,2644,0,-1,0
-157.86,13.06,-70.93,1896,-7685,2653,0,-1,0
-157.86,13.06,-70.93,1890,-7687,2625,0,0,0
-157.86,13.06,-70.92,1892,-7685,2637,0,-1,0
-157.86,13.06,-70.92,1887,-7670,2635,0,-1,0
-157.86,13.05,-70.92,1899,-7670,2655,-1,-1,0
-157.86,13.05,-70.92,1887,-7675,2638,0,0,0
-157.86,13.05,-70.91,1891,-7679,2649,-1,-1,0
-157.86,13.06,-70.91,1896,-7681,2631,0,-1,-1
-157.86,13.06,-70.91,1889,-7671,2647,0,-1,0
-157.86,13.06,-70.91,1883,-7682,2644,0,-1,-1
-157.85,13.07,-70.90,1899,-7659,2662,0,0,-1
-157.84,13.08,-70.89,1905,-7658,2663,-1,-1,0
-157.85,13.07,-70.90,1891,-7648,2659,-1,-1,0
-157.85,13.07,-70.90,1887,-7664,2650,-1,-1,-1
-157.85,13.07,-70.90,1894,-7684,2649,0,0,0
-157.85,13.07,-70.90,1878,-7676,2651,0,0,-1
-157.84,13.08,-70.89,1886,-7666,2656,0,0,-1
-157.83,13.07,-70.88,1893,-7663,2666,-1,-1,-1
-157.82,13.08,-70.87,1894,-7656,2677,0,0,-1
-157.83,13.08,-70.88,1885,-7661,2684,-1,-1,0
-157.82,13.08,-70.88,1891,-7668,2678,-1,-1,-1
-157.82,13.09,-70.89,1899,-7673,2670,-1,-1,-1
-157.82,13.09,-70.89,1897,-7668,2662,-1,-1,-1
-157.82,13.10,-70.90,1900,-7673,2642,-1,0,-1
-157.82,13.10,-70.90,1904,-7681,2648,-1,0,-1
-157.81,13.10,-70.90,1899,-7677,2648,0,-1,-1
-157.81,13.11,-70.90,1905,-7675,2650,0,-1,0
-157.81,13.11,-70.89,1897,-7674,2659,-1,-1,0
-157.81,13.11,-70.89,1888,-7671,2656,0,0,-1
-157.81,13.11,-70.89,1889,-7682,2640,0,0,-1
-157.80,13.11,-70.89,1891,-7672,2659,0,0,-1
-157.80,13.11,-70.88,1886,-7671,2668,-1,-1,-1
-157.79,13.11,-70.87,1885,-7666,2675,-1,-1,-1
-157.79,13.11,-70.88,1883,-7657,2659,-1,0,-1
-157.79,13.11,-70.88,1893,-7658,2669,-1,-1,-1
-157.79,13.11,-70.88,1901,-7667,2668,-1,0,0
-157.79,13.11,-70.89,1893,-7676,2647,-1,-1,-1
-157.79,13.11,-70.89,1901,-7671,2647,0,0,0
-157.79,13.11,-70.89,1888,-7661,2643,0,-1,-1
-157.79,13.11,-70.89,1889,-7669,2643,-1,-1,0
-157.79,13.11,-70.89,1895,-7681,2643,0,-1,0
-157.79,13.11,-70.89,1901,-7674,2652,0,0,0
-157.79,13.11,-70.89,1894,-7667,2654,-1,0,0
-157.79,13.11,-70.89,1893,-7667,2664,-1,-1,-1
-157.79,13.12,-70.89,1898,-7667,2651,-1,-1,-1
-157.78,13.12,-70.89,1907,-7670,2655,-1,-1,-1
-157.78,13.12,-70.89,1903,-7654,2657,-1,0,0
-157.78,13.13,-70.90,1898,-7665,2644,-1,-1,0
-157.78,13.13,-70.90,1898,-7664,2664,-1,0,-1
-157.79,13.12,-70.91,1897,-7678,2649,-1,-1,-1
-157.78,13.13,-70.91,1899,-7670,2659,0,-1,-1
-157.77,13.14,-70.90,1896,-7655,2660,0,0,-1
-157.77,13.14,-70.90,1898,-7654,2661,-1,-1,0
-157.78,13.14,-70.92,1903,-7665,2650,-1,0,0
-157.78,13.14,-70.92,1895,-7684,2644,-1,0,-1
-157.78,13.14,-70.92,1888,-7680,2642,0,0,-1
-157.78,13.14,-70.92,1883,-7676,2648,0,0,-1
-157.78,13.13,-70.91,1883,-7669,2659,0,0,-1
-157.77,13.14,-70.91,1887,-7671,2658,0,0,-1
-157.76,13.15,-70.91,1896,-7667,2667,-1,0,-1
-157.76,13.15,-70.92,1906,-7673,2675,-1,-1,-1
-157.76,13.15,-70.92,1905,-7674,2660,-1,-1,-1
-157.76,13.16,-70.93,1905,-7674,2650,-1,0,-1
-157.76,13.16,-70.93,1899,-7673,2652,-1,-1,-1
-157.76,13.16,-70.94,1905,-7677,2639,0,-1,-1
-157.76,13.16,-70.93,1907,-7672,2650,0,-1,0
-157.77,13.15,-70.93,1896,-7690,2628,0,-1,0
-157.76,13.16,-70.92,1895,-7684,2646,0,0,-1
-157.74,13.17,-70.90,1901,-7672,2654,0,0,-1
-157.73,13.17,-70.89,1891,-7658,2664,0,-1,-1
-157.73,13.17,-70.89,1908,-7663,2653,0,-1,-1
-157.73,13.17,-70.88,1906,-7661,2648,0,0,-1
-157.72,13.17,-70.86,1897,-7654,2674,0,0,-1
-157.71,13.18,-70.86,1894,-7650,2666,-1,-1,-1
-157.71,13.18,-70.87,1911,-7648,2669,-1,0,-1
-157.70,13.19,-70.87,1905,-7657,2658,-1,0,-1
-157.70,13.19,-70.87,1916,-7657,2662,0,0,-1
-157.70,13.19,-70.87,1910,-7654,2646,0,0,-1
-157.70,13.19,-70.87,1911,-7652,2654,-1,-1,0
-157.70,13.19,-70.88,1900,-7661,2647,-1,0,-1
-157.69,13.20,-70.88,1902,-7669,2650,-1,-1,-1
-157.69,13.20,-70.88,1898,-7671,2649,0,0,-1
-157.68,13.21,-70.88,1910,-7664,2651,-1,0,-1
-157.68,13.21,-70.87,1907,-7655,2658,-1,0,-1
-157.68,13.21,-70.88,1904,-7662,2657,-1,-1,-1
-157.68,13.22,-70.89,1906,-7667,2656,-1,0,-1
-157.68,13.21,-70.91,1910,-7673,2651,-1,-1,-1
-157.68,13.22,-70.91,1907,-7667,2657,-1,0,-1
-157.68,13.22,-70.92,1902,-7667,2647,-1,0,-1
-157.67,13.23,-70.92,1899,-7661,2649,-1,0,-1
-157.68,13.23,-70.93,1907,-7665,2642,-1,0,-1
-157.67,13.23,-70.93,1913,-7669,2644,-1,0,-1
-157.67,13.24,-70.93,1914,-7668,2652,0,0,-1
-157.67,13.24,-70.93,1924,-7666,2647,-1,0,-1
-157.66,13.24,-70.93,1917,-7655,2648,-1,0,-1
-157.66,13.24,-70.93,1914,-7666,2650,-1,0,-1
-157.65,13.25,-70.92,1921,-7671,2652,0,0,-1
-157.64,13.26,-70.93,1917,-7667,2655,-1,0,-1
-157.64,13.26,-70.92,1913,-7666,2651,-1,0,-1
-157.64,13.26,-70.93,1914,-7666,2656,0,0,-1
-157.63,13.27,-70.93,1921,-7663,2649,0,0,-1
-157.62,13.27,-70.92,1921,-7657,2657,0,0,-1
-157.61,13.28,-70.92,1910,-7656,2646,-1,0,-1
-157.62,13.27,-70.93,1910,-7665,2652,-1,0,-1
-157.61,13.28,-70.93,1914,-7675,2650,-1,0,-1
-157.60,13.29,-70.93,1922,-7673,2648,0,0,-1
-157.59,13.29,-70.92,1927,-7658,2657,0,0,-1
-157.59,13.29,-70.92,1922,-7656,2653,-1,0,0
-157.59,13.29,-70.92,1924,-7660,2649,-1,0,0
-157.60,13.29,-70.93,1926,-7678,2637,-1,0,-1
-157.60,13.29,-70.93,1924,-7688,2641,0,0,-1
-157.59,13.29,-70.92,1918,-7676,2645,0,0,-1
-157.59,13.29,-70.92,1910,-7672,2647,0,0,-1
-157.58,13.30,-70.92,1918,-7654,2644,0,0,-1
-157.57,13.31,-70.92,1927,-7662,2658,-1,0,-1
-157.56,13.31,-70.92,1929,-7668,2671,-1,0,-1
-157.56,13.31,-70.92,1935,-7662,2656,-1,0,-1
-157.56,13.31,-70.92,1922,-7662,2667,-1,0,-1
-157.56,13.31,-70.92,1924,-7666,2657,-1,0,-1
-157.56,13.31,-70.93,1920,-7664,2644,-1,-1,-1
-157.55,13.31,-70.92,1927,-7663,2654,0,0,-1
-157.55,13.31,-70.92,1924,-7660,2649,0,0,-1
-157.54,13.32,-70.92,1927,-7655,2649,-1,0,-1
-157.54,13.32,-70.92,1930,-7661,2657,-1,0,-1
-157.54,13.32,-70.92,1924,-7659,2653,-1,0,-1
-157.54,13.32,-70.92,1918,-7655,2650,-1,-1,-1
-157.53,13.33,-70.92,1926,-7656,2651,0,0,-1
-157.53,13.33,-70.92,1921,-7662,2659,-1,-1,-1
-157.53,13.33,-70.92,1922,-7661,2662,-1,-1,-1
-157.53,13.33,-70.93,1926,-7663,2649,-1,-1,-1
-157.53,13.33,-70.93,1926,-7666,2640,-1,0,0
-157.54,13.33,-70.94,1929,-7671,2638,-1,-1,0
-157.54,13.33,-70.95,1934,-7671,2637,-1,-1,0
-157.55,13.32,-70.95,1927,-7670,2645,-1,-1,0
-157.55,13.32,-70.95,1925,-7674,2643,0,-1,0
-157.56,13.32,-70.95,1918,-7672,2644,0,-1,0
-157.56,13.32,-70.95,1919,-7668,2648,0,-1,0
-157.57,13.31,-70.95,1920,-7667,2645,0,-1,0
-157.56,13.31,-70.94,1921,-7672,2657,0,-1,0
-157.56,13.31,-70.94,1922,-7664,2659,0,-1,0
-157.57,13.31,-70.94,1922,-7667,2665,-1,-1,0
-157.57,13.31,-70.94,1924,-7658,2658,-1,-1,0
-157.58,13.30,-70.94,1925,-7661,2655,-1,-1,0
-157.58,13.30,-70.95,1925,-7666,2661,-1,-1,0
-157.58,13.30,-70.94,1931,-7667,2653,0,-1,0
-157.58,13.30,-70.94,1932,-7667,2654,-1,0,0
-157.58,13.30,-70.95,1931,-7670,2641,0,0,0
-157.59,13.29,-70.94,1924,-7660,2654,0,-1,0
-157.60,13.28,-70.94,1918,-7663,2656,0,-1,0
-157.60,13.28,-70.94,1918,-7662,2658,0,0,0
-157.60,13.28,-70.93,1918,-7662,2656,0,-1,0
-157.60,13.27,-70.93,1923,-7655,2660,0,0,0
-157.61,13.27,-70.92,1921,-7658,2662,-1,-1,0
-157.62,13.26,-70.93,1915,-7656,2650,-1,-1,0
-157.62,13.26,-70.93,1921,-7661,2643,0,-1,0
-157.61,13.26,-70.92,1927,-7654,2650,0,-1,0
-157.62,13.26,-70.92,1920,-7642,2653,-1,-1,0
-157.63,13.25,-70.93,1912,-7663,2656,-1,-1,0
-157.64,13.25,-70.93,1916,-7670,2642,0,-1,0
-157.64,13.25,-70.93,1916,-7677,2641,0,0,0
-157.65,13.24,-70.92,1910,-7665,2647,0,-1,0
-157.65,13.23,-70.92,1899,-7654,2643,0,-1,-1
-157.64,13.24,-70.92,1911,-7649,2653,-1,-1,-1
-157.65,13.24,-70.92,1919,-7654,2663,-1,-1,-1
-157.65,13.24,-70.93,1920,-7662,2661,-1,-1,0
-157.65,13.24,-70.93,1922,-7659,2661,-1,-1,0
-157.65,13.24,-70.93,1917,-7660,2662,-1,-1,0
-157.66,13.24,-70.94,1912,-7661,2647,-1,-1,0
-157.66,13.24,-70.95,1915,-7668,2641,-1,0,0
-157.67,13.23,-70.95,1912,-7676,2653,-1,0,0
-157.67,13.23,-70.95,1912,-7678,2648,-1,0,0
-157.67,13.23,-70.95,1911,-7677,2651,-1,-1,0
-157.68,13.23,-70.96,1903,-7685,2648,0,-1,-1
-157.68,13.23,-70.96,1910,-7679,2641,0,0,-1
-157.67,13.23,-70.95,1909,-7673,2645,0,0,-1
-157.67,13.23,-70.95,1907,-7664,2646,0,-1,0
-157.67,13.23,-70.94,1913,-7659,2653,0,-1,0
-157.67,13.23,-70.94,1913,-7661,2650,-1,-1,0
-157.67,13.23,-70.95,1915,-7666,2661,-1,-1,0
-157.67,13.23,-70.95,1913,-7669,2653,-1,-1,0
-157.68,13.23,-70.96,1906,-7665,2655,-1,-1,0
-157.68,13.23,-70.96,1903,-7659,2657,-1,-1,0
-157.69,13.22,-70.96,1904,-7654,2652,0,-1,0
-157.69,13.22,-70.96,1903,-7655,2650,-1,-1,0
-157.69,13.22,-70.96,1907,-7658,2645,-1,0,0
-157.69,13.22,-70.96,1917,-7666,2641,0,-1,0
-157.69,13.22,-70.96,1921,-7670,2649,0,0,0
-157.69,13.22,-70.95,1921,-7665,2649,0,-1,0
-157.69,13.22,-70.95,1918,-7658,2657,0,-1,-1
-157.69,13.22,-70.95,1911,-7662,2652,0,-1,-1
-157.68,13.23,-70.95,1917,-7663,2653,0,-1,-1
-157.68,13.23,-70.95,1922,-7668,2658,-1,-1,0
-157.69,13.22,-70.95,1918,-7670,2645,-1,-1,0
-157.69,13.23,-70.96,1911,-7673,2640,-1,-1,-1
-157.69,13.23,-70.96,1905,-7679,2635,-1,-1,-1
-157.69,13.23,-70.96,1910,-7680,2632,0,-1,-1
-157.68,13.23,-70.95,1921,-7677,2642,0,-1,0
-157.68,13.23,-70.94,1919,-7655,2662,0,0,0
-157.68,13.23,-70.93,1918,-7671,2665,0,-1,0
-157.68,13.23,-70.93,1908,-7682,2648,0,-1,0
-157.67,13.23,-70.92,1905,-7687,2648,0,-1,-1
-157.67,13.23,-70.92,1896,-7676,2649,0,-1,-1
-157.65,13.24,-70.90,1906,-7661,2644,0,0,-1
-157.64,13.24,-70.89,1907,-7651,2662,0,0,-1
-157.63,13.25,-70.87,1911,-7660,2666,0,-1,-1
-157.63,13.26,-70.87,1922,-7669,2672,0,-1,-1
-157.62,13.26,-70.86,1925,-7664,2660,0,-1,0
-157.62,13.26,-70.85,1928,-7654,2672,0,-1,0
-157.62,13.26,-70.85,1916,-7651,2660,-1,-1,0
-157.61,13.26,-70.84,1909,-7645,2666,0,-1,-1
-157.62,13.26,-70.84,1916,-7671,2654,0,-1,0
-157.62,13.26,-70.84,1919,-7672,2659,0,-1,-1
-157.60,13.27,-70.82,1913,-7656,2658,0,0,-1
-157.60,13.27,-70.82,1909,-7642,2671,-1,-1,-1
-157.59,13.28,-70.82,1906,-7650,2663,-1,-1,-1
-157.59,13.28,-70.82,1927,-7660,2657,0,0,-1
-157.58,13.28,-70.81,1920,-7666,2668,0,0,-1
-157.58,13.28,-70.81,1917,-7668,2670,0,0,-1
-157.58,13.28,-70.80,1906,-7671,2673,-1,-1,-1
-157.58,13.28,-70.80,1913,-7656,2666,0,-1,-1
-157.58,13.29,-70.80,1931,-7649,2674,-1,-1,-1
-157.57,13.29,-70.81,1926,-7656,2678,-1,0,-1
-157.57,13.29,-70.81,1928,-7662,2673,-1,0,-1
-157.57,13.29,-70.81,1928,-7669,2668,0,0,-1
-157.57,13.29,-70.81,1911,-7665,2662,0,-1,-1
-157.56,13.30,-70.80,1921,-7662,2661,0,0,-1
-157.56,13.30,-70.80,1922,-7658,2662,0,0,-1
-157.54,13.31,-70.78,1930,-7654,2671,0,-1,-1
