Yaw,Pitch,Roll,AX,AY,AZ,GX,GY,GZ
-156.12,12.25,-68.81,1780,-7589,2931,0,0,0
-156.11,12.26,-68.81,1784,-7585,2931,0,-1,-1
-156.11,12.26,-68.81,1788,-7590,2928,0,0,-1
-156.10,12.26,-68.79,1786,-7594,2942,0,0,-1
-156.10,12.26,-68.79,1784,-7590,2949,0,-1,-1
-156.09,12.27,-68.79,1779,-7581,2949,-1,-1,-1
-156.09,12.27,-68.79,1781,-7573,2945,0,0,-1
-156.08,12.28,-68.78,1788,-7577,2940,0,0,-1
-156.08,12.28,-68.78,1782,-7584,2944,0,0,-1
-156.08,12.28,-68.78,1780,-7583,2950,-1,-1,-1
-156.07,12.29,-68.78,1780,-7576,2946,-1,-1,-1
-156.08,12.29,-68.79,1786,-7577,2938,-1,-1,-1
-156.06,12.30,-68.79,1790,-7593,2938,0,-1,-1
-156.06,12.31,-68.79,1798,-7592,2929,0,0,-1
-156.05,12.31,-68.78,1797,-7575,2953,0,0,0
-156.05,12.30,-68.77,1796,-7567,2957,-1,0,0
-156.05,12.31,-68.78,1787,-7580,2946,-1,0,-1
-156.05,12.31,-68.78,1782,-7586,2946,-1,0,-1
-156.05,12.31,-68.78,1792,-7593,2945,0,0,-1
-156.04,12.32,-68.78,1795,-7586,2940,0,0,-1
-156.03,12.32,-68.77,1794,-7578,2948,0,0,-1
-156.02,12.33,-68.77,1798,-7575,2956,0,0,-1
-156.02,12.33,-68.76,1802,-7579,2963,-1,0,-1
-156.02,12.33,-68.76,1801,-7583,2963,-1,0,-1
-156.01,12.34,-68.76,1802,-7589,2957,-1,-1,-1
-156.01,12.34,-68.76,1796,-7581,2956,0,0,0
-156.01,12.34,-68.76,1797,-7578,2951,-1,-1,-1
-156.02,12.34,-68.77,1794,-7585,2932,0,0,0
-156.01,12.34,-68.76,1792,-7593,2947,-1,0,-1
-156.01,12.34,-68.76,1793,-7600,2945,0,0,-1
-156.00,12.35,-68.76,1785,-7592,2958,-1,0,-1
-156.00,12.35,-68.76,1788,-7591,2951,0,0,-1
-156.00,12.35,-68.76,1787,-7586,2949,0,0,-1
-155.99,12.35,-68.75,1793,-7587,2945,0,0,-1
-155.98,12.36,-68.74,1796,-7590,2961,0,0,-1
-155.98,12.35,-68.74,1787,-7584,2959,0,0,-1
-155.97,12.36,-68.74,1781,-7580,2963,-1,0,-1
-155.97,12.36,-68.73,1796,-7580,2970,-1,-1,-1
-155.96,12.37,-68.74,1806,-7587,2960,-1,0,-1
-155.96,12.37,-68.74,1801,-7585,2958,-1,0,0
-155.96,12.38,-68.75,1798,-7583,2944,0,0,0
-155.96,12.38,-68.75,1799,-7584,2939,-1,0,0
-155.96,12.38,-68.74,1794,-7584,2939,0,0,-1
-155.95,12.38,-68.74,1794,-7589,2949,0,-1,-1
-155.94,12.39,-68.73,1799,-7588,2954,0,0,-1
-155.94,12.39,-68.73,1801,-7580,2951,0,0,-1
-155.93,12.40,-68.73,1799,-7573,2953,0,0,-1
-155.93,12.40,-68.73,1802,-7577,2961,-1,0,-1
-155.92,12.41,-68.72,1806,-7573,2955,-1,-1,-1
-155.91,12.41,-68.72,1808,-7579,2947,-1,-1,-1
-155.91,12.42,-68.72,1812,-7585,2946,0,0,-1
-155.91,12.42,-68.72,1814,-7577,2944,-1,0,-1
-155.90,12.43,-68.72,1810,-7574,2938,-1,0,-1
-155.90,12.43,-68.72,1806,-7573,2958,0,0,-1
-155.89,12.43,-68.72,1809,-7572,2953,-1,0,-1
-155.89,12.43,-68.72,1806,-7581,2955,-1,0,-1
-155.88,12.44,-68.73,1807,-7587,2948,-1,0,-1
-155.88,12.44,-68.73,1814,-7588,2946,0,0,-1
-155.86,12.45,-68.72,1813,-7570,2951,0,0,-1
-155.86,12.45,-68.71,1815,-7565,2957,-1,0,0
-155.86,12.45,-68.72,1809,-7569,2955,-1,-1,-1
-155.86,12.46,-68.72,1803,-7586,2955,-1,0,-1
-155.86,12.46,-68.72,1805,-7596,2954,0,0,-1
-155.85,12.46,-68.72,1807,-7587,2946,0,0,-1
-155.84,12.47,-68.71,1801,-7577,2946,0,0,-1
-155.83,12.47,-68.71,1800,-7566,2948,0,0,-1
-155.82,12.48,-68.70,1808,-7569,2957,-1,-1,-1
-155.81,12.49,-68.69,1828,-7564,2967,0,0,-1
-155.80,12.50,-68.69,1819,-7582,2962,-1,0,-1
-155.79,12.50,-68.69,1821,-7575,2960,0,0,-1
-155.78,12.51,-68.69,1816,-7568,2955,-1,0,-1
-155.78,12.51,-68.69,1824,-7560,2945,-1,0,-1
-155.77,12.52,-68.70,1826,-7575,2956,0,0,-1
-155.76,12.52,-68.69,1827,-7580,2948,0,0,-1
-155.76,12.52,-68.68,1823,-7583,2955,0,0,-1
-155.75,12.53,-68.68,1816,-7580,2949,-1,0,-1
-155.74,12.53,-68.68,1815,-7574,2955,0,0,-1
-155.72,12.54,-68.67,1825,-7578,2953,0,0,-1
-155.72,12.55,-68.67,1823,-7580,2937,0,0,-1
-155.71,12.55,-68.66,1817,-7571,2948,0,0,-1
-155.70,12.55,-68.65,1821,-7568,2965,0,0,-1
-155.68,12.56,-68.65,1829,-7568,2965,0,0,-1
-155.67,12.57,-68.65,1830,-7576,2971,-1,0,-1
-155.67,12.58,-68.65,1829,-7569,2959,-1,0,-1
-155.66,12.58,-68.66,1831,-7566,2953,-1,0,-1
-155.65,12.59,-68.65,1827,-7565,2954,-1,0,-1
-155.65,12.59,-68.65,1826,-7560,2946,0,0,-1
-155.65,12.59,-68.66,1831,-7561,2951,-1,0,-1
-155.64,12.59,-68.65,1832,-7573,2955,0,0,-1
-155.63,12.60,-68.65,1829,-7566,2954,0,0,-1
-155.63,12.60,-68.65,1823,-7566,2951,0,0,-1
-155.62,12.61,-68.64,1831,-7566,2955,-1,0,-1
-155.62,12.61,-68.65,1842,-7569,2954,-1,0,0
-155.63,12.61,-68.65,1843,-7572,2955,-1,-1,0
-155.63,12.61,-68.65,1837,-7571,2952,-1,0,0
-155.63,12.61,-68.66,1834,-7574,2948,-1,-1,0
-155.64,12.61,-68.66,1838,-7575,2954,0,-1,0
-155.64,12.61,-68.66,1841,-7571,2961,-1,-1,0
-155.64,12.61,-68.66,1848,-7575,2958,0,0,0
-155.63,12.61,-68.65,1842,-7564,2970,-1,0,0
-155.65,12.59,-68.66,1837,-7565,2953,-1,0,0
-155.66,12.59,-68.67,1824,-7561,2955,-1,-1,0
-155.67,12.59,-68.68,1823,-7581,2942,0,-1,0
-155.67,12.59,-68.67,1831,-7580,2953,0,0,0
-155.66,12.59,-68.66,1839,-7567,2966,0,0,0
-155.67,12.59,-68.66,1844,-7552,2977,-1,-1,0
-155.68,12.58,-68.67,1840,-7562,2971,-1,-1,0
-155.69,12.58,-68.67,1842,-7583,2962,-1,-1,0
-155.69,12.57,-68.67,1832,-7579,2954,0,-1,0
-155.70,12.57,-68.68,1825,-7584,2942,0,0,0
-155.69,12.56,-68.67,1821,-7567,2947,0,0,0
-155.69,12.57,-68.66,1824,-7562,2961,0,-1,0
-155.69,12.56,-68.66,1818,-7566,2960,-1,-1,0
-155.70,12.56,-68.66,1826,-7578,2967,-1,-1,0
-155.70,12.56,-68.66,1831,-7577,2961,-1,-1,0
-155.71,12.56,-68.67,1836,-7569,2960,0,-1,0
-155.72,12.55,-68.66,1830,-7564,2953,-1,-1,0
-155.73,12.54,-68.67,1824,-7560,2955,-1,-1,0
-155.73,12.54,-68.68,1827,-7566,2950,-1,-1,0
-155.74,12.53,-68.68,1823,-7577,2954,-1,-1,0
-155.75,12.52,-68.67,1817,-7575,2955,-1,-1,0
-155.76,12.52,-68.68,1809,-7579,2946,-1,-1,0
-155.76,12.52,-68.68,1825,-7571,2945,0,0,0
-155.76,12.52,-68.68,1826,-7570,2937,0,0,0
-155.77,12.51,-68.67,1824,-7564,2953,0,0,0
-155.77,12.51,-68.67,1820,-7570,2959,-1,-1,0
-155.78,12.50,-68.67,1815,-7566,2959,-1,-1,0
-155.78,12.50,-68.68,1822,-7568,2947,-1,-1,0
-155.79,12.49,-68.68,1821,-7573,2955,-1,-1,0
-155.80,12.49,-68.69,1824,-7574,2948,-1,-1,0
-155.81,12.49,-68.69,1823,-7572,2950,-1,-1,0
-155.82,12.48,-68.70,1821,-7573,2959,-1,-1,0
-155.82,12.47,-68.69,1817,-7575,2958,-1,-1,0
-155.83,12.46,-68.70,1811,-7576,2944,0,0,0
-155.84,12.46,-68.70,1812,-7583,2954,0,0,0
-155.84,12.46,-68.70,1812,-7577,2953,0,-1,0
-155.85,12.45,-68.69,1816,-7580,2962,-1,-1,0
-155.85,12.45,-68.69,1820,-7579,2964,-1,-1,0
-155.85,12.45,-68.69,1815,-7571,2967,-1,-1,0
-155.86,12.44,-68.69,1819,-7577,2969,0,-1,0
-155.87,12.44,-68.69,1818,-7580,2958,-1,-1,0
-155.88,12.43,-68.70,1813,-7580,2952,-1,-1,0
-155.89,12.42,-68.70,1808,-7577,2951,-1,-1,0
-155.89,12.42,-68.70,1805,-7585,2945,0,-1,0
-155.90,12.42,-68.70,1809,-7578,2946,-1,-1,0
-155.91,12.41,-68.71,1815,-7570,2945,0,-1,0
-155.91,12.41,-68.71,1809,-7576,2952,-1,-1,0
-155.92,12.40,-68.71,1807,-7567,2962,0,0,0
-155.93,12.39,-68.71,1790,-7581,2956,-1,-1,0
-155.94,12.38,-68.72,1797,-7590,2953,-1,0,0
-155.94,12.39,-68.72,1802,-7593,2940,0,-1,0
-155.94,12.39,-68.71,1811,-7578,2940,0,0,0
-155.94,12.38,-68.71,1807,-7562,2944,-1,0,0
-155.95,12.38,-68.72,1802,-7565,2944,-1,-1,0
-155.97,12.37,-68.73,1795,-7585,2933,-1,-1,0
-155.98,12.36,-68.74,1792,-7595,2937,0,-1,0
-155.98,12.36,-68.74,1790,-7600,2937,0,0,0
-155.99,12.35,-68.74,1793,-7595,2938,0,0,0
-155.99,12.35,-68.73,1786,-7587,2951,0,0,0
-155.99,12.34,-68.73,1789,-7577,2950,-1,-1,0
-156.00,12.34,-68.74,1801,-7577,2955,-1,-1,0
-156.00,12.34,-68.74,1805,-7574,2957,-1,-1,0
-156.01,12.34,-68.74,1800,-7575,2957,-1,-1,0
-156.01,12.33,-68.74,1796,-7577,2958,-1,-1,0
-156.02,12.33,-68.75,1799,-7583,2955,-1,-1,0
-156.03,12.32,-68.75,1799,-7583,2947,-1,0,0
-156.04,12.31,-68.75,1793,-7584,2947,-1,0,0
-156.05,12.31,-68.76,1784,-7583,2934,-1,-1,0
-156.06,12.31,-68.76,1793,-7582,2940,-1,-1,0
-156.06,12.30,-68.76,1800,-7582,2937,0,0,0
-156.06,12.30,-68.76,1791,-7591,2946,-1,0,0
-156.06,12.29,-68.76,1795,-7595,2940,0,0,0
-156.08,12.29,-68.76,1782,-7588,2943,-1,-1,0
-156.07,12.28,-68.76,1782,-7584,2944,0,0,0
-156.08,12.28,-68.76,1786,-7583,2946,-1,-1,0
-156.09,12.28,-68.76,1782,-7584,2955,-1,-1,0
-156.09,12.28,-68.76,1790,-7581,2954,-1,0,0
-156.10,12.27,-68.77,1789,-7578,2952,-1,-1,0
-156.11,12.27,-68.78,1789,-7575,2935,-1,-1,0
-156.12,12.26,-68.79,1789,-7585,2936,-1,-1,0
-156.13,12.25,-68.78,1779,-7585,2940,0,0,0
-156.13,12.25,-68.79,1773,-7592,2931,0,-1,0
-156.13,12.25,-68.78,1777,-7586,2940,0,-1,0
-156.13,12.25,-68.78,1780,-7585,2942,0,0,0
-156.14,12.24,-68.78,1777,-7584,2952,0,-1,0
-156.13,12.25,-68.77,1781,-7595,2946,0,-1,0
-156.13,12.25,-68.77,1781,-7594,2941,0,-1,0
-156.14,12.24,-68.77,1788,-7587,2946,-1,0,0
-156.14,12.24,-68.77,1781,-7587,2940,0,-1,0
-156.13,12.25,-68.76,1786,-7588,2947,-1,0,0
-156.13,12.25,-68.76,1776,-7587,2950,0,-1,0
-156.14,12.24,-68.77,1779,-7592,2941,-1,-1,0
-156.14,12.25,-68.77,1785,-7591,2926,0,-1,-1
-156.13,12.26,-68.76,1796,-7595,2949,0,0,0
-156.12,12.26,-68.75,1793,-7582,2950,0,0,0
-156.12,12.25,-68.75,1777,-7566,2957,-1,-1,0
-156.13,12.25,-68.76,1779,-7581,2952,-1,-1,0
-156.13,12.26,-68.76,1775,-7592,2939,-1,-1,-1
-156.12,12.26,-68.76,1776,-7598,2934,0,0,-1
-156.12,12.26,-68.75,1774,-7592,2940,0,0,-1
-156.10,12.27,-68.74,1775,-7589,2945,0,0,-1
-156.10,12.27,-68.74,1781,-7574,2945,0,-1,-1
-156.09,12.28,-68.73,1790,-7582,2955,-1,-1,-1
-156.09,12.29,-68.74,1801,-7590,2945,-1,-1,-1
-156.08,12.29,-68.74,1800,-7586,2952,-1,-1,0
-156.09,12.29,-68.74,1788,-7583,2952,0,-1,0
-156.08,12.29,-68.74,1790,-7586,2955,-1,-1,-1
-156.08,12.30,-68.74,1792,-7587,2955,0,0,-1
-156.07,12.30,-68.74,1797,-7584,2945,0,-1,-1
-156.07,12.31,-68.73,1797,-7579,2947,0,0,-1
-156.06,12.31,-68.73,1795,-7578,2948,0,0,0
-156.06,12.32,-68.73,1795,-7575,2941,0,0,-1
-156.06,12.32,-68.73,1795,-7584,2941,0,0,-1
-156.04,12.32,-68.72,1791,-7586,2945,0,0,-1
-156.04,12.33,-68.72,1797,-7581,2942,0,0,-1
-156.03,12.33,-68.71,1793,-7583,2950,0,0,-1
-156.03,12.34,-68.71,1795,-7572,2971,-1,0,-1
-156.03,12.34,-68.71,1788,-7568,2967,-1,0,-1
-156.02,12.34,-68.72,1800,-7581,2952,-1,0,-1
-156.03,12.35,-68.73,1796,-7585,2950,-1,-1,-1
-156.03,12.35,-68.73,1793,-7584,2942,-1,0,-1
-156.02,12.35,-68.72,1795,-7576,2939,0,0,-1
-156.02,12.35,-68.72,1793,-7580,2945,0,0,-1
-156.01,12.35,-68.72,1795,-7587,2950,0,0,-1
-156.01,12.36,-68.72,1795,-7583,2958,0,0,-1
-156.00,12.36,-68.71,1803,-7587,2962,0,0,-1
-156.00,12.36,-68.71,1797,-7587,2957,-1,0,-1
-156.00,12.37,-68.71,1802,-7579,2958,-1,0,-1
-155.99,12.37,-68.71,1799,-7577,2963,-1,-1,-1
-155.98,12.38,-68.71,1802,-7579,2947,0,0,-1
-155.98,12.38,-68.71,1805,-7580,2936,0,-1,-1
-155.98,12.38,-68.71,1805,-7574,2949,-1,-1,-1
-155.98,12.38,-68.72,1796,-7577,2947,-1,-1,0
-155.98,12.38,-68.72,1803,-7588,2950,-1,0,-1
-155.98,12.39,-68.72,1810,-7603,2938,0,0,-1
-155.97,12.39,-68.71,1801,-7589,2949,0,0,-1
-155.96,12.40,-68.70,1796,-7568,2961,0,0,0
-155.96,12.40,-68.70,1794,-7564,2964,-1,-1,0
-155.96,12.40,-68.71,1805,-7580,2947,-1,0,-1
-155.95,12.40,-68.71,1813,-7594,2946,0,0,-1
-155.94,12.40,-68.70,1803,-7587,2945,0,0,-1
-155.94,12.41,-68.69,1797,-7587,2948,0,0,-1
-155.93,12.41,-68.69,1798,-7564,2957,0,-1,-1
-155.92,12.42,-68.68,1808,-7565,2962,-1,-1,-1
-155.91,12.43,-68.68,1811,-7573,2966,-1,0,-1
-155.90,12.44,-68.68,1820,-7580,2966,0,0,-1
-155.90,12.44,-68.68,1815,-7573,2966,-1,-1,-1
-155.90,12.45,-68.68,1809,-7572,2958,-1,-1,-1
-155.89,12.45,-68.68,1812,-7571,2950,-1,0,-1
-155.89,12.45,-68.69,1815,-7578,2949,-1,0,-1
-155.88,12.46,-68.68,1816,-7575,2954,0,0,-1
-155.87,12.46,-68.68,1805,-7576,2954,0,0,-1
-155.87,12.46,-68.67,1804,-7577,2960,-1,0,-1
-155.86,12.47,-68.68,1807,-7580,2952,-1,0,-1
-155.85,12.48,-68.68,1814,-7576,2944,0,0,-1
-155.85,12.48,-68.67,1816,-7577,2951,0,0,-1
-155.85,12.48,-68.67,1822,-7584,2952,-1,0,-1
-155.84,12.49,-68.68,1826,-7583,2954,0,0,-1
-155.83,12.50,-68.67,1822,-7577,2949,-1,0,-1
-155.82,12.51,-68.67,1823,-7582,2954,-1,0,-1
-155.81,12.51,-68.67,1826,-7581,2961,-1,0,-1
-155.81,12.51,-68.68,1825,-7576,2949,-1,-1,-1
-155.81,12.52,-68.68,1826,-7579,2948,-1,0,-1
-155.81,12.52,-68.68,1823,-7592,2948,0,0,-1
-155.80,12.52,-68.67,1828,-7580,2956,0,0,-1
-155.78,12.53,-68.65,1821,-7584,2966,0,0,-1
-155.77,12.54,-68.64,1824,-7571,2979,0,0,-1
-155.76,12.54,-68.64,1825,-7561,2972,0,-1,-1
-155.76,12.55,-68.64,1818,-7555,2963,-1,0,-1
-155.75,12.55,-68.64,1827,-7568,2959,-1,0,-1
-155.74,12.56,-68.65,1827,-7574,2957,-1,0,-1
-155.74,12.56,-68.65,1826,-7583,2959,0,0,-1
-155.74,12.57,-68.64,1830,-7572,2959,0,0,-1
-155.73,12.58,-68.64,1835,-7557,2952,-1,0,-1
-155.72,12.58,-68.64,1833,-7571,2966,-1,-1,-1
-155.71,12.58,-68.64,1825,-7569,2964,-1,0,-1
-155.71,12.59,-68.64,1833,-7563,2962,-1,0,-1
-155.71,12.59,-68.65,1825,-7576,2962,-1,-1,-1
-155.71,12.59,-68.66,1828,-7582,2957,-1,0,-1
-155.70,12.60,-68.65,1829,-7582,2960,0,0,-1
-155.68,12.61,-68.64,1836,-7572,2968,0,0,-1
-155.68,12.61,-68.64,1832,-7550,2965,-1,0,-1
-155.67,12.62,-68.64,1831,-7546,2960,-1,-1,-1
-155.67,12.62,-68.65,1827,-7568,2949,-1,0,-1
-155.68,12.61,-68.65,1829,-7586,2953,0,0,-1
-155.67,12.62,-68.64,1828,-7576,2957,0,0,-1
-155.66,12.62,-68.64,1819,-7561,2960,0,0,-1
-155.65,12.63,-68.63,1824,-7554,2966,0,0,-1
-155.65,12.63,-68.63,1836,-7560,2963,-1,0,-1
-155.64,12.64,-68.63,1843,-7567,2973,-1,-1,-1
-155.64,12.64,-68.64,1847,-7576,2967,-1,0,0
-155.64,12.64,-68.64,1844,-7573,2959,-1,-1,0
-155.64,12.64,-68.64,1843,-7573,2959,-1,-1,0
-155.65,12.64,-68.65,1845,-7570,2963,-1,-1,0
-155.65,12.64,-68.66,1842,-7575,2951,-1,-1,0
-155.66,12.64,-68.66,1846,-7581,2955,0,0,0
-155.66,12.64,-68.66,1834,-7577,2960,-1,-1,0
-155.66,12.64,-68.66,1836,-7577,2955,-1,-1,0
-155.67,12.63,-68.66,1840,-7572,2955,-1,-1,0
-155.67,12.64,-68.67,1846,-7571,2951,0,0,0
-155.66,12.64,-68.66,1837,-7574,2969,0,0,0
-155.66,12.64,-68.66,1837,-7575,2960,0,0,0
-155.66,12.63,-68.65,1839,-7561,2963,-1,-1,0
-155.67,12.63,-68.66,1834,-7560,2959,0,-1,0
-155.67,12.63,-68.66,1834,-7561,2950,-1,-1,0
-155.68,12.63,-68.66,1839,-7567,2953,-1,-1,0
-155.68,12.63,-68.67,1843,-7563,2957,-1,-1,0
-155.68,12.63,-68.67,1836,-7570,2959,-1,-1,0
-155.69,12.62,-68.67,1832,-7570,2959,-1,-1,0
-155.69,12.62,-68.67,1828,-7569,2952,-1,-1,0
-155.70,12.61,-68.67,1841,-7569,2948,0,-1,0
-155.70,12.61,-68.67,1842,-7570,2955,0,-1,0
-155.70,12.61,-68.67,1830,-7564,2970,0,-1,0
-155.71,12.61,-68.67,1826,-7567,2965,-1,-1,0
-155.72,12.61,-68.68,1829,-7571,2962,-1,-1,0
-155.72,12.61,-68.68,1831,-7567,2960,-1,-1,0
-155.72,12.60,-68.68,1839,-7568,2962,-1,-1,0
-155.72,12.60,-68.67,1838,-7564,2965,-1,-1,0
-155.73,12.59,-68.68,1834,-7566,2973,-1,-1,0
-155.74,12.59,-68.69,1833,-7574,2969,-1,-1,0
-155.75,12.59,-68.69,1830,-7583,2969,0,-1,0
-155.75,12.59,-68.69,1828,-7577,2963,0,-1,0
-155.75,12.58,-68.68,1825,-7563,2961,0,-1,0
-155.76,12.58,-68.69,1826,-7559,2966,-1,-1,0
-155.77,12.57,-68.70,1825,-7567,2951,-1,-1,0
-155.77,12.57,-68.70,1826,-7581,2950,-1,0,0
-155.77,12.57,-68.70,1832,-7585,2942,0,0,0
-155.77,12.57,-68.69,1829,-7572,2950,0,-1,0
-155.77,12.56,-68.69,1825,-7556,2961,-1,-1,0
-155.78,12.56,-68.69,1824,-7560,2962,-1,-1,0
-155.79,12.55,-68.70,1832,-7574,2964,-1,-1,0
-155.79,12.55,-68.70,1830,-7586,2942,0,0,0
-155.80,12.54,-68.70,1814,-7588,2942,0,0,0
-155.80,12.54,-68.69,1807,-7573,2954,0,0,0
-155.80,12.54,-68.69,1815,-7566,2964,0,-1,0
-155.80,12.54,-68.69,1824,-7567,2960,-1,-1,0
-155.81,12.54,-68.69,1818,-7568,2950,-1,-1,0
-155.82,12.53,-68.70,1819,-7572,2956,-1,-1,0
-155.82,12.53,-68.70,1820,-7566,2950,-1,-1,0
-155.83,12.52,-68.71,1814,-7568,2949,-1,-1,0
-155.84,12.52,-68.72,1812,-7571,2929,-1,-1,0
-155.84,12.52,-68.72,1816,-7575,2941,0,-1,0
-155.85,12.52,-68.72,1823,-7577,2950,0,0,0
-155.86,12.51,-68.72,1820,-7576,2960,-1,-1,0
-155.87,12.50,-68.73,1817,-7575,2960,-1,-1,0
-155.87,12.50,-68.73,1814,-7580,2949,0,-1,0
-155.88,12.49,-68.73,1812,-7579,2942,0,-1,0
-155.89,12.49,-68.73,1812,-7585,2946,0,-1,0
-155.88,12.49,-68.72,1811,-7574,2955,0,0,0
-155.89,12.48,-68.72,1811,-7576,2961,-1,-1,0
-155.89,12.48,-68.72,1808,-7574,2965,-1,-1,0
-155.90,12.47,-68.73,1818,-7575,2968,-1,-1,0
-155.91,12.47,-68.73,1816,-7574,2963,-1,-1,0
-155.91,12.47,-68.74,1810,-7578,2949,-1,-1,0
-155.92,12.46,-68.74,1807,-7578,2937,-1,-1,0
-155.93,12.45,-68.75,1813,-7580,2940,-1,-1,0
-155.94,12.45,-68.75,1814,-7578,2937,-1,-1,0
-155.95,12.45,-68.75,1815,-7578,2946,0,-1,0
-155.96,12.44,-68.75,1817,-7588,2947,0,-1,0
-155.96,12.44,-68.75,1809,-7579,2950,-1,-1,0
-155.96,12.43,-68.75,1805,-7576,2954,-1,-1,0
-155.96,12.43,-68.75,1805,-7578,2948,-1,-1,0
-155.97,12.43,-68.76,1808,-7580,2948,-1,-1,0
-155.98,12.43,-68.76,1797,-7578,2948,-1,-1,0
-155.98,12.43,-68.76,1802,-7575,2951,-1,-1,0
-155.99,12.42,-68.76,1800,-7579,2949,-1,-1,0
-156.00,12.41,-68.77,1809,-7577,2945,-1,-1,0
-156.00,12.41,-68.77,1809,-7571,2946,-1,0,0
-156.00,12.41,-68.77,1802,-7577,2945,-1,-1,0
-156.01,12.41,-68.78,1797,-7584,2944,-1,-1,0
-156.02,12.41,-68.78,1799,-7590,2938,0,-1,0
-156.02,12.41,-68.78,1805,-7591,2938,0,0,0
-156.02,12.40,-68.77,1805,-7565,2965,-1,0,0
-156.03,12.39,-68.78,1809,-7571,2957,-1,-1,0
-156.04,12.38,-68.78,1798,-7580,2953,-1,-1,0
-156.05,12.38,-68.79,1797,-7596,2940,-1,0,0
-156.05,12.38,-68.79,1801,-7596,2937,-1,-1,0
-156.05,12.38,-68.79,1794,-7594,2943,0,0,-1
-156.05,12.37,-68.78,1794,-7593,2951,0,0,0
-156.04,12.38,-68.78,1797,-7590,2959,0,-1,0
-156.04,12.38,-68.78,1801,-7579,2959,-1,-1,0
-156.05,12.37,-68.78,1807,-7579,2966,-1,-1,0
-156.05,12.37,-68.78,1800,-7581,2956,-1,0,0
-156.06,12.37,-68.79,1799,-7584,2947,-1,-1,0
-156.07,12.36,-68.79,1798,-7579,2940,0,-1,0
-156.07,12.37,-68.79,1802,-7583,2946,0,-1,0
-156.07,12.37,-68.79,1802,-7576,2948,0,-1,0
-156.07,12.37,-68.79,1796,-7580,2940,-1,-1,0
-156.07,12.36,-68.79,1794,-7582,2943,0,-1,0
-156.08,12.36,-68.79,1798,-7584,2932,0,-1,0
-156.08,12.36,-68.79,1796,-7586,2951,0,-1,0
-156.07,12.37,-68.79,1798,-7588,2948,0,0,-1
-156.07,12.36,-68.78,1791,-7591,2948,0,-1,-1
-156.06,12.37,-68.77,1791,-7578,2946,0,-1,-1
-156.06,12.37,-68.77,1799,-7576,2951,0,-1,-1
-156.06,12.38,-68.77,1792,-7578,2965,-1,-1,0
-156.06,12.38,-68.77,1793,-7585,2950,0,-1,0
-156.06,12.38,-68.77,1801,-7576,2958,0,0,0
-156.06,12.38,-68.77,1802,-7585,2954,-1,-1,-1
-156.06,12.38,-68.77,1791,-7584,2949,0,0,0
-156.05,12.38,-68.76,1791,-7584,2949,0,0,-1
-156.04,12.38,-68.75,1796,-7580,2950,0,-1,-1
-156.03,12.39,-68.75,1799,-7582,2948,0,0,-1
-156.03,12.39,-68.75,1802,-7578,2947,-1,0,-1
-156.03,12.39,-68.74,1796,-7579,2950,-1,0,-1
-156.02,12.40,-68.74,1797,-7577,2948,-1,-1,-1
-156.02,12.41,-68.75,1797,-7582,2951,0,0,-1
-156.01,12.41,-68.74,1807,-7581,2951,0,0,-1
-156.01,12.41,-68.74,1800,-7578,2959,-1,-1,-1
-156.01,12.42,-68.75,1800,-7580,2953,-1,-1,-1
-156.01,12.42,-68.76,1806,-7586,2953,-1,-1,-1
-156.00,12.43,-68.75,1811,-7595,2947,0,0,-1
-155.99,12.43,-68.74,1819,-7580,2960,0,0,0
-155.99,12.43,-68.74,1815,-7571,2961,-1,0,0
-156.00,12.43,-68.75,1805,-7572,2954,-1,-1,0
-156.00,12.42,-68.75,1798,-7592,2942,-1,-1,-1
-156.00,12.43,-68.75,1803,-7600,2938,0,-1,-1
-155.99,12.43,-68.75,1803,-7591,2949,0,0,-1
-155.99,12.43,-68.74,1797,-7586,2961,0,0,-1
-155.98,12.44,-68.73,1810,-7579,2963,0,-1,-1
-155.97,12.45,-68.74,1811,-7572,2964,-1,-1,-1
-155.97,12.44,-68.74,1813,-7582,2971,-1,-1,0
-155.97,12.44,-68.74,1813,-7590,2958,0,-1,0
-155.97,12.44,-68.74,1808,-7582,2964,-1,-1,0
-155.97,12.44,-68.74,1806,-7577,2953,-1,-1,0
-155.98,12.45,-68.74,1803,-7574,2948,-1,-1,-1
-155.97,12.45,-68.74,1801,-7583,2953,0,0,-1
-155.96,12.45,-68.73,1805,-7586,2961,0,0,-1
-155.96,12.45,-68.73,1805,-7582,2952,0,-1,-1
-155.95,12.46,-68.73,1814,-7592,2953,0,-1,-1
-155.95,12.46,-68.73,1805,-7593,2947,0,0,-1
-155.95,12.46,-68.72,1802,-7584,2949,0,0,-1
-155.93,12.47,-68.71,1802,-7573,2958,0,0,-1
-155.93,12.47,-68.71,1811,-7566,2974,0,0,-1
-155.93,12.48,-68.71,1818,-7561,2964,-1,-1,-1
-155.93,12.48,-68.71,1815,-7571,2962,-1,0,-1
-155.93,12.48,-68.72,1819,-7578,2948,-1,-1,-1
-155.93,12.49,-68.73,1815,-7578,2948,-1,-1,-1
-155.93,12.49,-68.73,1815,-7576,2943,-1,-1,0
-155.92,12.49,-68.73,1820,-7574,2949,0,0,-1
-155.92,12.49,-68.73,1812,-7585,2939,0,0,-1
-155.91,12.49,-68.73,1806,-7574,2947,0,-1,-1
-155.91,12.49,-68.73,1812,-7575,2950,0,0,-1
-155.90,12.50,-68.72,1813,-7576,2949,0,-1,-1
-155.90,12.50,-68.72,1819,-7576,2945,0,0,-1
-155.89,12.51,-68.72,1820,-7573,2948,-1,-1,-1
-155.89,12.51,-68.72,1818,-7575,2947,-1,-1,-1
-155.89,12.51,-68.72,1814,-7571,2956,-1,-1,-1
-155.89,12.52,-68.72,1820,-7574,2954,0,-1,-1
-155.88,12.52,-68.71,1822,-7576,2970,-1,-1,-1
-155.88,12.52,-68.72,1819,-7575,2958,-1,0,-1
-155.88,12.52,-68.72,1815,-7578,2955,-1,-1,-1
-155.87,12.53,-68.72,1817,-7589,2948,0,0,-1
-155.86,12.54,-68.72,1826,-7577,2959,0,0,-1
-155.85,12.55,-68.70,1827,-7563,2964,0,0,-1
-155.85,12.55,-68.70,1824,-7557,2972,-1,-1,-1
-155.85,12.55,-68.71,1821,-7570,2960,-1,0,0
-155.85,12.55,-68.71,1817,-7581,2958,-1,0,-1
-155.84,12.55,-68.71,1814,-7582,2956,0,0,-1
-155.83,12.56,-68.70,1816,-7585,2950,0,0,-1
-155.83,12.56,-68.70,1808,-7575,2957,0,0,-1
-155.82,12.57,-68.69,1817,-7566,2966,0,0,-1
-155.81,12.57,-68.69,1815,-7567,2965,-1,-1,-1
-155.82,12.58,-68.70,1819,-7571,2960,-1,0,-1
-155.81,12.58,-68.70,1822,-7571,2960,-1,0,-1
-155.81,12.58,-68.70,1823,-7571,2957,-1,-1,-1
-155.81,12.58,-68.71,1824,-7568,2953,-1,0,-1
-155.81,12.59,-68.71,1825,-7569,2962,-1,0,-1
-155.79,12.60,-68.71,1826,-7578,2962,0,0,-1
-155.79,12.60,-68.71,1825,-7575,2953,0,0,-1
-155.79,12.60,-68.70,1819,-7567,2960,-1,0,-1
-155.79,12.60,-68.71,1823,-7570,2952,-1,-1,-1
-155.78,12.61,-68.71,1835,-7580,2952,0,0,-1
-155.77,12.61,-68.71,1829,-7583,2952,-1,0,-1
-155.76,12.62,-68.70,1821,-7575,2961,0,0,-1
-155.75,12.62,-68.69,1822,-7567,2955,0,0,-1
-155.75,12.63,-68.69,1819,-7571,2952,-1,-1,-1
-155.74,12.63,-68.70,1824,-7572,2954,-1,0,-1
-155.74,12.64,-68.69,1832,-7568,2959,-1,0,-1
-155.73,12.64,-68.70,1836,-7569,2954,-1,0,-1
-155.73,12.64,-68.70,1838,-7563,2945,-1,0,-1
-155.72,12.64,-68.69,1835,-7564,2939,0,0,-1
-155.72,12.65,-68.70,1833,-7573,2930,0,0,-1
-155.72,12.65,-68.69,1831,-7584,2939,0,0,-1
-155.71,12.65,-68.68,1831,-7582,2956,0,0,-1
-155.69,12.66,-68.67,1831,-7569,2964,0,0,-1
-155.69,12.66,-68.67,1839,-7568,2959,0,0,-1
-155.68,12.66,-68.66,1836,-7565,2955,0,0,-1
-155.68,12.66,-68.66,1838,-7561,2962,-1,0,-1
-155.67,12.67,-68.66,1844,-7560,2962,-1,0,-1
-155.67,12.68,-68.66,1838,-7569,2954,-1,0,-1
-155.68,12.67,-68.67,1836,-7570,2961,-1,0,-1
-155.67,12.68,-68.67,1840,-7563,2959,0,0,-1
-155.66,12.68,-68.66,1842,-7561,2964,0,0,-1
-155.66,12.68,-68.66,1841,-7558,2972,-1,0,-1
-155.66,12.68,-68.66,1835,-7560,2973,-1,-1,-1
-155.66,12.69,-68.67,1838,-7572,2971,-1,-1,-1
-155.67,12.68,-68.68,1840,-7588,2963,-1,-1,-1
-155.67,12.69,-68.68,1849,-7577,2964,0,0,0
-155.66,12.69,-68.68,1848,-7562,2961,-1,-1,0
-155.67,12.68,-68.67,1839,-7552,2968,-1,0,0
-155.68,12.68,-68.69,1831,-7564,2958,-1,-1,0
-155.68,12.67,-68.69,1841,-7582,2959,0,0,0
-155.69,12.67,-68.69,1837,-7586,2943,0,-1,0
-155.69,12.67,-68.69,1836,-7574,2945,0,0,0
-155.68,12.67,-68.68,1834,-7562,2946,0,-1,0
-155.68,12.67,-68.68,1834,-7559,2952,0,-1,0
-155.68,12.67,-68.67,1842,-7556,2963,-1,-1,0
-155.68,12.67,-68.68,1839,-7563,2960,-1,-1,0
-155.69,12.67,-68.68,1836,-7559,2962,-1,-1,0
-155.69,12.67,-68.68,1847,-7560,2965,-1,-1,0
-155.70,12.66,-68.69,1837,-7563,2963,-1,-1,0
-155.70,12.66,-68.69,1841,-7566,2958,-1,-1,0
-155.70,12.66,-68.69,1840,-7580,2963,-1,-1,0
-155.70,12.66,-68.69,1838,-7571,2964,0,0,0
-155.71,12.66,-68.69,1835,-7563,2969,-1,-1,0
-155.71,12.65,-68.69,1833,-7570,2969,-1,-1,0
-155.72,12.65,-68.69,1836,-7573,2955,0,0,0
-155.72,12.65,-68.68,1835,-7570,2957,0,-1,0
-155.72,12.65,-68.68,1829,-7573,2960,0,-1,0
-155.72,12.64,-68.69,1826,-7568,2961,0,0,0
-155.73,12.64,-68.68,1818,-7566,2971,-1,-1,0
-155.73,12.64,-68.68,1824,-7562,2966,-1,-1,0
-155.74,12.63,-68.69,1824,-7562,2958,-1,-1,0
-155.74,12.63,-68.70,1833,-7571,2963,0,-1,0
-155.74,12.63,-68.69,1835,-7568,2972,-1,0,0
-155.75,12.62,-68.70,1836,-7578,2959,0,-1,0
-155.75,12.62,-68.70,1825,-7571,2950,-1,-1,0
-155.77,12.61,-68.71,1826,-7575,2942,0,-1,0
-155.76,12.61,-68.70,1822,-7574,2941,0,-1,0
-155.76,12.62,-68.70,1831,-7568,2935,0,0,0
-155.77,12.61,-68.70,1838,-7565,2953,0,-1,0
-155.77,12.61,-68.70,1838,-7571,2962,-1,0,0
-155.77,12.61,-68.70,1840,-7566,2964,-1,-1,0
-155.77,12.61,-68.71,1842,-7575,2953,-1,-1,0
-155.78,12.61,-68.71,1837,-7576,2950,-1,-1,0
-155.78,12.61,-68.71,1834,-7573,2939,0,-1,0
-155.79,12.60,-68.71,1829,-7567,2948,-1,-1,0
-155.79,12.60,-68.71,1828,-7564,2952,-1,-1,0
-155.80,12.60,-68.72,1828,-7564,2953,-1,-1,0
-155.80,12.59,-68.71,1833,-7566,2952,0,-1,0
-155.81,12.59,-68.71,1831,-7561,2951,0,0,0
-155.81,12.59,-68.72,1823,-7562,2955,-1,-1,0
-155.82,12.58,-68.73,1818,-7568,2946,-1,-1,0
-155.83,12.58,-68.73,1823,-7582,2943,-1,-1,0
-155.83,12.58,-68.73,1829,-7585,2952,0,0,0
-155.82,12.58,-68.72,1828,-7572,2965,0,-1,0
-155.83,12.57,-68.72,1824,-7557,2959,-1,-1,0
-155.84,12.57,-68.73,1824,-7569,2955,-1,-1,0
-155.85,12.56,-68.74,1830,-7575,2938,-1,0,0
-155.85,12.56,-68.74,1821,-7589,2944,-1,0,0
-155.87,12.55,-68.74,1814,-7594,2937,0,0,0
-155.86,12.55,-68.74,1809,-7584,2946,0,-1,0
-155.86,12.55,-68.73,1806,-7571,2949,0,0,0
-155.86,12.55,-68.73,1819,-7561,2961,-1,-1,0
-155.86,12.55,-68.73,1831,-7570,2954,-1,0,0
-155.86,12.55,-68.73,1838,-7574,2964,-1,-1,0
-155.87,12.54,-68.74,1826,-7571,2953,-1,-1,0
-155.89,12.54,-68.75,1831,-7561,2939,-1,-1,0
-155.89,12.54,-68.76,1834,-7570,2930,-1,-1,0
-155.90,12.54,-68.76,1830,-7574,2929,-1,-1,0
-155.90,12.53,-68.76,1823,-7573,2935,0,-1,0
-155.91,12.53,-68.76,1818,-7573,2943,-1,-1,0
-155.91,12.53,-68.77,1821,-7581,2933,-1,-1,0
-155.92,12.52,-68.77,1819,-7584,2945,-1,-1,0
-155.92,12.52,-68.77,1825,-7588,2937,0,0,0
-155.93,12.51,-68.77,1816,-7573,2947,0,0,0
-155.93,12.51,-68.77,1810,-7568,2960,-1,0,0
-155.94,12.50,-68.77,1806,-7563,2974,-1,-1,0
-155.95,12.50,-68.78,1815,-7580,2956,-1,-1,0
-155.95,12.50,-68.78,1813,-7581,2963,-1,-1,0
-155.96,12.50,-68.79,1814,-7572,2954,-1,-1,0
-155.97,12.49,-68.80,1818,-7583,2950,-1,-1,0
-155.98,12.48,-68.80,1815,-7586,2951,-1,0,0
-155.99,12.49,-68.81,1822,-7601,2936,-1,-1,0
-155.99,12.48,-68.81,1821,-7602,2934,0,0,0
-155.99,12.48,-68.81,1818,-7591,2938,0,0,0
-155.99,12.47,-68.81,1812,-7580,2942,0,-1,0
-155.99,12.47,-68.81,1812,-7581,2942,0,-1,0
-155.99,12.47,-68.81,1815,-7579,2950,-1,0,0
-155.99,12.47,-68.81,1818,-7573,2961,-1,-1,0
-156.00,12.47,-68.81,1812,-7581,2934,-1,-1,0
-156.01,12.47,-68.82,1806,-7580,2932,-1,-1,0
-156.01,12.47,-68.82,1804,-7583,2939,-1,-1,0
-156.01,12.47,-68.82,1806,-7578,2953,-1,-1,0
-156.01,12.48,-68.82,1813,-7581,2940,-1,-1,0
-156.02,12.48,-68.83,1818,-7586,2938,-1,-1,0
-156.03,12.47,-68.84,1819,-7591,2930,0,-1,0
-156.03,12.47,-68.84,1815,-7584,2937,-1,-1,0
-156.03,12.47,-68.84,1808,-7576,2944,-1,-1,0
-156.04,12.47,-68.85,1810,-7578,2936,-1,-1,0
-156.04,12.47,-68.85,1809,-7586,2934,0,-1,-1
-156.03,12.48,-68.84,1816,-7579,2945,0,-1,-1
-156.03,12.48,-68.83,1814,-7563,2951,0,-1,0
-156.03,12.48,-68.83,1808,-7561,2948,-1,-1,0
-156.04,12.47,-68.84,1804,-7583,2934,-1,-1,0
-156.05,12.48,-68.85,1803,-7584,2927,0,-1,-1
-156.04,12.48,-68.84,1807,-7588,2925,0,-1,-1
-156.04,12.49,-68.84,1807,-7582,2919,0,-1,-1
-156.03,12.49,-68.83,1803,-7581,2948,0,-1,-1
-156.02,12.51,-68.83,1805,-7567,2951,0,-1,-1
-156.01,12.52,-68.82,1809,-7557,2968,-1,-1,-1
-156.01,12.53,-68.84,1813,-7562,2957,-1,-1,-1
-156.02,12.54,-68.85,1822,-7569,2951,-1,-1,-1
-156.02,12.54,-68.86,1822,-7584,2928,-1,-1,-1
-156.02,12.55,-68.87,1825,-7588,2919,-1,-1,-1
-156.02,12.55,-68.88,1831,-7585,2926,-1,-1,-1
-156.03,12.56,-68.88,1818,-7575,2926,-1,-1,-1
-156.03,12.56,-68.89,1823,-7581,2932,-1,-1,-1
-156.03,12.57,-68.91,1825,-7583,2922,-1,-1,-1
-156.03,12.58,-68.92,1824,-7585,2919,-1,-1,-1
-156.04,12.58,-68.93,1823,-7585,2909,-1,-1,-1
-156.03,12.59,-68.94,1820,-7586,2920,-1,-1,-1
-156.03,12.60,-68.94,1821,-7581,2916,-1,-1,-1
-156.03,12.61,-68.95,1834,-7583,2927,-1,-1,-1
-156.03,12.62,-68.96,1840,-7593,2936,-1,-1,-1
-156.02,12.63,-68.96,1834,-7589,2932,-1,-1,-1
-156.01,12.64,-68.97,1836,-7580,2935,-1,-1,-1
-156.02,12.64,-68.98,1830,-7575,2920,-1,-1,-1
-156.03,12.64,-68.99,1834,-7584,2912,-1,-1,-1
-156.03,12.64,-68.99,1830,-7578,2914,-1,-1,-1
-156.03,12.65,-69.01,1827,-7593,2904,-1,-1,-1
-156.02,12.66,-69.01,1834,-7598,2910,0,-1,-1
-156.02,12.66,-69.01,1838,-7595,2911,0,-1,-1
-156.02,12.67,-69.01,1838,-7591,2926,-1,-1,-1
-156.01,12.67,-69.01,1839,-7594,2930,0,-1,-1
-156.00,12.68,-69.00,1843,-7587,2931,0,0,-1
-156.00,12.68,-69.00,1839,-7592,2931,-1,-1,-1
-155.99,12.69,-69.00,1835,-7581,2923,-1,-1,-1
-155.99,12.69,-69.00,1833,-7587,2916,-1,-1,-1
-155.99,12.69,-69.00,1838,-7587,2919,0,0,-1
-155.98,12.70,-69.00,1841,-7574,2930,-1,-1,-1
-155.97,12.71,-69.00,1836,-7576,2925,-1,-1,-1
-155.97,12.72,-69.01,1845,-7584,2914,-1,-1,-1
-155.96,12.74,-69.01,1843,-7579,2912,0,-1,-1
-155.95,12.74,-69.01,1851,-7570,2910,-1,-1,-1
-155.95,12.75,-69.01,1853,-7570,2920,-1,-1,0
-155.95,12.76,-69.02,1852,-7579,2916,-1,-1,0
-155.96,12.76,-69.03,1851,-7592,2909,-1,-1,-1
-155.96,12.77,-69.04,1853,-7594,2910,-1,-1,-1
-155.96,12.77,-69.04,1847,-7594,2906,0,-1,-1
-155.95,12.77,-69.03,1857,-7591,2909,0,-1,-1
-155.94,12.78,-69.03,1867,-7576,2921,0,-1,-1
-155.93,12.79,-69.03,1862,-7575,2918,-1,0,-1
-155.93,12.79,-69.03,1869,-7577,2922,-1,-1,-1
-155.93,12.80,-69.03,1869,-7580,2920,-1,-1,-1
-155.92,12.80,-69.04,1867,-7584,2914,-1,-1,-1
-155.93,12.81,-69.04,1870,-7582,2911,-1,-1,0
-155.93,12.81,-69.04,1870,-7577,2902,-1,-1,0
-155.93,12.81,-69.04,1869,-7580,2901,0,-1,-1
-155.93,12.81,-69.05,1864,-7587,2902,-1,-1,0
-155.93,12.81,-69.05,1859,-7586,2899,-1,-1,-1
-155.92,12.81,-69.05,1863,-7583,2890,0,0,-1
-155.92,12.82,-69.05,1859,-7585,2900,-1,-1,-1
-155.92,12.82,-69.05,1863,-7591,2900,-1,-1,-1
-155.91,12.83,-69.05,1856,-7589,2905,0,0,-1
-155.90,12.84,-69.05,1869,-7588,2915,-1,-1,-1
-155.90,12.84,-69.05,1862,-7570,2919,-1,-1,-1
-155.90,12.85,-69.05,1879,-7588,2905,-1,-1,0
-155.90,12.85,-69.06,1862,-7591,2900,0,-1,-1
-155.89,12.86,-69.06,1874,-7598,2881,0,-1,-1
-155.88,12.86,-69.05,1879,-7579,2897,0,0,0
-155.88,12.86,-69.05,1872,-7586,2881,0,0,0
-155.88,12.86,-69.04,1870,-7583,2901,0,0,0
-155.88,12.85,-69.04,1869,-7598,2897,-1,0,-1
-155.87,12.86,-69.04,1858,-7597,2898,0,0,-1
-155.87,12.85,-69.03,1859,-7586,2906,0,0,-1
-155.86,12.85,-69.02,1855,-7572,2914,0,0,-1
-155.86,12.85,-69.02,1858,-7565,2924,-1,0,0
-155.87,12.85,-69.02,1865,-7579,2922,-1,0,0
-155.87,12.85,-69.03,1875,-7589,2905,-1,-1,0
-155.87,12.85,-69.03,1877,-7592,2903,0,0,0
-155.87,12.85,-69.03,1869,-7581,2906,0,0,0
-155.87,12.85,-69.03,1873,-7577,2913,-1,0,0
-155.87,12.85,-69.04,1867,-7575,2900,-1,-1,0
-155.88,12.85,-69.05,1864,-7590,2899,-1,-1,0
-155.88,12.86,-69.06,1868,-7599,2887,0,-1,-1
-155.87,12.86,-69.05,1869,-7588,2902,0,0,0
-155.87,12.85,-69.04,1873,-7568,2918,0,0,0
-155.88,12.85,-69.05,1878,-7566,2913,-1,-1,0
-155.88,12.85,-69.05,1876,-7580,2895,-1,0,0
-155.89,12.85,-69.06,1873,-7592,2888,-1,0,0
-155.90,12.84,-69.07,1866,-7591,2883,-1,-1,0
-155.90,12.84,-69.07,1859,-7591,2881,0,0,0
-155.90,12.84,-69.07,1853,-7591,2890,-1,-1,0
-155.90,12.84,-69.08,1858,-7586,2899,-1,-1,0
-155.91,12.84,-69.08,1862,-7591,2903,-1,-1,0
-155.92,12.84,-69.09,1869,-7586,2895,-1,-1,0
-155.93,12.84,-69.11,1867,-7582,2884,-1,-1,0
-155.93,12.84,-69.12,1863,-7582,2887,-1,-1,0
-155.95,12.84,-69.14,1868,-7578,2887,-1,-1,0
-155.97,12.83,-69.15,1858,-7584,2903,-1,-1,0
-155.98,12.83,-69.17,1871,-7594,2885,-1,-1,0
-155.99,12.83,-69.19,1859,-7592,2886,-1,-1,0
-156.00,12.83,-69.21,1856,-7592,2873,-1,-1,0
-156.01,12.83,-69.22,1862,-7598,2877,-1,-1,0
-156.03,12.82,-69.24,1870,-7601,2868,-1,-1,0
-156.04,12.82,-69.25,1870,-7599,2876,-1,-1,0
-156.05,12.82,-69.26,1873,-7594,2870,-1,-1,0
-156.06,12.82,-69.27,1862,-7597,2873,-1,-1,0
-156.07,12.82,-69.29,1860,-7607,2876,-1,-1,0
-156.08,12.81,-69.30,1854,-7601,2872,-1,-1,0
-156.10,12.81,-69.32,1859,-7599,2862,-1,-1,0
-156.11,12.80,-69.33,1863,-7606,2856,-1,-1,0
-156.12,12.80,-69.35,1861,-7611,2863,-1,-1,0
-156.13,12.80,-69.35,1861,-7611,2854,-1,-1,0
-156.14,12.80,-69.37,1855,-7613,2846,-1,-1,0
-156.15,12.79,-69.38,1864,-7612,2836,-1,-1,0
-156.16,12.79,-69.38,1857,-7612,2841,-1,-1,0
-156.17,12.78,-69.39,1863,-7614,2844,-1,-1,0
-156.18,12.78,-69.40,1867,-7621,2846,-1,-1,0
-156.19,12.78,-69.40,1863,-7619,2851,-1,-1,0
-156.19,12.78,-69.41,1857,-7607,2847,-1,-1,0
-156.19,12.78,-69.41,1855,-7608,2853,-1,-1,0
-156.20,12.77,-69.41,1861,-7603,2848,0,-1,0
-156.20,12.77,-69.41,1855,-7611,2858,-1,-1,0
-156.20,12.77,-69.42,1864,-7605,2853,0,0,0
-156.21,12.77,-69.42,1849,-7607,2854,-1,-1,0
-156.21,12.77,-69.41,1847,-7611,2851,0,-1,0
-156.22,12.77,-69.42,1852,-7611,2844,-1,-1,0
-156.22,12.77,-69.43,1854,-7614,2846,-1,-1,0
-156.21,12.77,-69.42,1853,-7622,2838,-1,-1,-1
-156.22,12.77,-69.43,1860,-7614,2821,0,0,-1
-156.20,12.78,-69.42,1866,-7603,2830,0,0,-1
-156.20,12.79,-69.42,1862,-7588,2840,0,0,0
-156.20,12.79,-69.42,1861,-7590,2846,-1,-1,0
-156.20,12.79,-69.42,1867,-7605,2826,-1,-1,-1
-156.20,12.79,-69.43,1864,-7621,2813,0,0,-1
-156.20,12.79,-69.43,1869,-7618,2825,0,0,-1
-156.19,12.80,-69.43,1863,-7612,2826,0,0,-1
-156.18,12.80,-69.42,1859,-7605,2835,0,0,-1
-156.17,12.81,-69.41,1856,-7599,2847,0,0,-1
-156.16,12.81,-69.41,1860,-7597,2860,-1,-1,-1
-156.17,12.82,-69.42,1864,-7604,2846,-1,0,-1
-156.17,12.82,-69.42,1861,-7607,2848,-1,0,-1
-156.17,12.82,-69.43,1867,-7604,2837,-1,0,-1
-156.17,12.82,-69.44,1865,-7604,2833,-1,-1,-1
-156.18,12.82,-69.45,1863,-7607,2826,-1,-1,-1
-156.17,12.83,-69.45,1864,-7606,2828,-1,0,0
-156.17,12.83,-69.45,1871,-7606,2823,0,0,-1
-156.17,12.83,-69.45,1873,-7610,2841,-1,0,0
-156.17,12.83,-69.47,1879,-7623,2823,0,0,-1
-156.17,12.83,-69.47,1874,-7615,2829,-1,0,-1
-156.16,12.84,-69.47,1868,-7611,2833,0,0,0
-156.16,12.84,-69.46,1861,-7607,2834,0,0,-1
-156.15,12.84,-69.46,1866,-7611,2838,0,0,-1
-156.15,12.84,-69.46,1875,-7612,2842,-1,-1,0
-156.15,12.85,-69.46,1875,-7614,2842,-1,0,0
-156.15,12.85,-69.47,1878,-7604,2841,-1,-1,0
-156.15,12.85,-69.47,1879,-7612,2838,-1,-1,0
-156.16,12.85,-69.48,1867,-7619,2833,-1,0,0
-156.16,12.85,-69.48,1865,-7613,2828,0,-1,0
-156.16,12.85,-69.48,1868,-7615,2838,0,0,0
-156.16,12.85,-69.48,1870,-7619,2835,0,0,-1
-156.15,12.85,-69.47,1873,-7611,2845,0,0,-1
-156.14,12.86,-69.46,1876,-7607,2840,0,0,-1
-156.13,12.86,-69.46,1872,-7609,2842,0,-1,0
-156.13,12.86,-69.46,1873,-7604,2840,0,0,-1
-156.13,12.86,-69.46,1867,-7604,2847,-1,0,-1
-156.13,12.87,-69.47,1874,-7605,2845,0,0,-1
-156.13,12.87,-69.46,1870,-7601,2845,0,0,-1
-156.12,12.88,-69.46,1868,-7603,2836,-1,0,-1
-156.12,12.88,-69.46,1871,-7609,2826,0,0,-1
-156.12,12.88,-69.47,1871,-7604,2827,-1,0,-1
-156.11,12.88,-69.47,1875,-7613,2836,0,0,-1
-156.11,12.88,-69.46,1871,-7604,2838,0,0,-1
-156.11,12.89,-69.47,1868,-7607,2834,-1,-1,-1
-156.11,12.89,-69.48,1869,-7616,2829,-1,-1,-1
-156.11,12.89,-69.48,1877,-7623,2828,0,0,-1
-156.09,12.89,-69.47,1883,-7613,2842,0,0,-1
-156.09,12.90,-69.46,1883,-7596,2837,0,0,-1
-156.09,12.90,-69.46,1869,-7575,2849,-1,-1,0
-156.09,12.89,-69.47,1872,-7590,2844,-1,0,0
-156.09,12.90,-69.48,1881,-7606,2825,-1,0,-1
-156.09,12.90,-69.48,1874,-7615,2821,0,0,-1
-156.09,12.90,-69.48,1869,-7615,2816,0,0,-1
-156.08,12.90,-69.47,1865,-7617,2819,0,0,-1
-156.08,12.90,-69.47,1864,-7608,2818,0,0,-1
-156.07,12.91,-69.46,1876,-7595,2838,-1,0,-1
-156.06,12.92,-69.47,1885,-7606,2835,-1,0,-1
-156.06,12.92,-69.48,1878,-7607,2833,-1,0,-1
-156.06,12.92,-69.48,1873,-7602,2828,-1,0,-1
-156.07,12.92,-69.49,1872,-7603,2818,-1,-1,0
-156.07,12.92,-69.49,1874,-7606,2823,0,0,-1
-156.06,12.93,-69.48,1877,-7609,2833,0,-1,-1
-156.06,12.93,-69.48,1883,-7604,2831,0,0,0
-156.06,12.93,-69.48,1880,-7605,2824,0,0,0
-156.05,12.93,-69.48,1877,-7610,2825,0,0,-1
-156.05,12.93,-69.48,1881,-7610,2820,0,0,-1
-156.05,12.93,-69.48,1882,-7608,2819,0,0,-1
-156.04,12.94,-69.47,1882,-7606,2826,0,0,-1
-156.03,12.94,-69.47,1882,-7601,2836,0,0,-1
-156.03,12.95,-69.47,1884,-7600,2852,0,0,-1
-156.02,12.95,-69.46,1883,-7596,2848,-1,0,-1
-156.02,12.95,-69.46,1893,-7596,2840,0,-1,-1
-156.03,12.95,-69.47,1889,-7598,2821,-1,-1,0
-156.03,12.95,-69.48,1887,-7605,2823,0,0,-1
-156.02,12.96,-69.48,1888,-7602,2832,0,-1,-1
-156.01,12.96,-69.48,1890,-7600,2831,0,0,-1
-156.01,12.96,-69.48,1880,-7603,2826,0,0,-1
-156.01,12.96,-69.48,1883,-7611,2810,0,0,-1
-156.01,12.97,-69.47,1883,-7606,2820,0,0,-1
-156.00,12.98,-69.47,1890,-7603,2813,0,0,-1
-156.00,12.98,-69.47,1889,-7599,2821,-1,0,-1
-155.99,12.98,-69.47,1888,-7606,2829,0,0,-1
-155.99,12.98,-69.47,1883,-7608,2829,-1,-1,-1
-155.98,12.99,-69.47,1888,-7603,2830,0,0,-1
-155.98,12.99,-69.47,1893,-7606,2836,-1,-1,0
-155.98,12.99,-69.48,1901,-7606,2826,0,0,-1
-155.97,13.00,-69.48,1890,-7612,2839,-1,0,-1
-155.97,13.00,-69.47,1895,-7613,2847,0,0,-1
-155.97,13.00,-69.48,1892,-7604,2853,-1,0,0
-155.97,13.00,-69.48,1889,-7604,2839,0,0,0
-155.97,13.00,-69.48,1887,-7608,2833,-1,0,0
-155.97,13.00,-69.49,1888,-7608,2829,-1,0,-1
-155.96,13.00,-69.49,1896,-7607,2830,-1,0,0
-155.97,13.00,-69.50,1894,-7621,2821,-1,-1,-1
-155.97,13.00,-69.49,1895,-7608,2825,0,0,-1
-155.97,13.00,-69.49,1895,-7591,2822,0,0,0
-155.97,13.00,-69.50,1895,-7599,2821,-1,0,0
-155.97,13.00,-69.50,1890,-7608,2823,-1,0,0
-155.98,12.99,-69.51,1885,-7619,2827,-1,0,0
-155.98,12.99,-69.51,1887,-7620,2822,0,0,0
-155.99,12.99,-69.52,1880,-7615,2817,0,0,-1
-155.98,12.99,-69.51,1878,-7614,2820,0,0,-1
-155.98,12.99,-69.50,1887,-7603,2828,0,0,0
-155.98,12.99,-69.50,1894,-7596,2829,-1,0,0
-155.98,12.99,-69.51,1900,-7595,2833,-1,0,0
-155.98,12.98,-69.51,1894,-7597,2825,-1,0,0
-156.00,12.98,-69.52,1889,-7600,2830,-1,0,0
-156.00,12.98,-69.53,1885,-7605,2817,-1,-1,0
-156.01,12.97,-69.54,1891,-7610,2812,0,0,0
-156.01,12.97,-69.54,1891,-7603,2809,0,-1,0
-156.01,12.97,-69.54,1895,-7597,2813,-1,0,0
-156.02,12.97,-69.55,1898,-7604,2813,-1,-1,0
-156.02,12.96,-69.55,1904,-7612,2819,0,0,0
-156.03,12.96,-69.56,1890,-7621,2795,-1,0,0
-156.03,12.96,-69.56,1888,-7619,2810,0,0,0
-156.04,12.95,-69.56,1888,-7618,2802,0,0,0
-156.03,12.95,-69.56,1887,-7609,2826,0,0,0
-156.04,12.95,-69.56,1886,-7613,2831,-1,-1,0
-156.04,12.95,-69.56,1883,-7606,2826,-1,0,0
-156.05,12.94,-69.57,1884,-7609,2820,-1,0,0
-156.05,12.94,-69.57,1882,-7609,2821,-1,0,0
-156.08,12.93,-69.59,1882,-7615,2812,-1,-1,0
-156.08,12.93,-69.59,1881,-7621,2811,-1,0,0
-156.09,12.92,-69.60,1879,-7621,2808,-1,0,0
-156.09,12.92,-69.60,1879,-7623,2808,-1,0,0
-156.10,12.91,-69.61,1877,-7626,2806,0,0,0
-156.10,12.91,-69.60,1872,-7623,2822,0,0,0
-156.11,12.90,-69.61,1880,-7615,2821,-1,-1,0
-156.11,12.90,-69.61,1879,-7605,2824,0,0,0
-156.12,12.89,-69.61,1877,-7609,2814,-1,0,0
-156.13,12.88,-69.62,1872,-7610,2810,-1,0,0
-156.14,12.88,-69.63,1881,-7613,2806,-1,-1,0
-156.14,12.88,-69.63,1881,-7616,2806,0,0,0
-156.15,12.87,-69.64,1879,-7610,2808,-1,-1,0
-156.15,12.87,-69.64,1878,-7607,2809,-1,-1,0
-156.16,12.87,-69.65,1875,-7622,2796,-1,-1,0
-156.16,12.87,-69.65,1882,-7620,2808,0,0,0
-156.16,12.87,-69.65,1884,-7617,2812,0,0,0
-156.17,12.85,-69.64,1882,-7603,2827,-1,0,0
-156.18,12.85,-69.66,1873,-7609,2813,-1,0,0
-156.19,12.84,-69.67,1865,-7625,2798,-1,0,0
-156.21,12.83,-69.68,1867,-7639,2788,-1,0,0
-156.21,12.83,-69.68,1869,-7633,2790,-1,0,0
-156.22,12.82,-69.69,1863,-7632,2810,0,0,0
-156.22,12.81,-69.68,1863,-7623,2818,0,0,0
-156.22,12.81,-69.69,1873,-7615,2813,-1,0,0
-156.23,12.81,-69.69,1873,-7622,2819,-1,0,0
-156.24,12.81,-69.70,1874,-7617,2805,-1,-1,0
-156.25,12.80,-69.71,1872,-7619,2803,-1,0,0
-156.25,12.79,-69.71,1866,-7616,2807,-1,-1,0
-156.26,12.79,-69.72,1866,-7622,2799,-1,-1,0
-156.27,12.79,-69.73,1869,-7635,2791,0,-1,0
-156.28,12.77,-69.73,1867,-7628,2782,0,0,0
-156.28,12.77,-69.73,1864,-7627,2785,0,0,0
-156.29,12.76,-69.73,1859,-7629,2787,0,0,0
-156.29,12.76,-69.73,1854,-7634,2791,0,-1,0
-156.30,12.77,-69.73,1857,-7637,2789,0,-1,0
-156.29,12.76,-69.72,1853,-7627,2783,0,0,0
-156.29,12.76,-69.71,1858,-7623,2807,0,-1,0
-156.28,12.77,-69.71,1872,-7623,2815,0,0,0
-156.29,12.76,-69.71,1865,-7632,2807,-1,-1,0
-156.28,12.76,-69.71,1858,-7626,2809,0,-1,0
-156.29,12.77,-69.72,1859,-7629,2798,0,-1,0
-156.28,12.77,-69.72,1864,-7622,2795,0,-1,0
-156.28,12.77,-69.71,1861,-7624,2795,0,0,0
-156.28,12.78,-69.71,1860,-7619,2789,0,0,-1
-156.28,12.77,-69.70,1858,-7622,2790,0,0,0
-156.28,12.77,-69.70,1848,-7619,2790,0,-1,-1
-156.26,12.78,-69.69,1852,-7622,2799,0,0,-1
-156.26,12.78,-69.69,1858,-7623,2800,0,0,-1
-156.25,12.79,-69.69,1866,-7619,2799,0,0,-1
-156.25,12.80,-69.69,1864,-7611,2795,-1,0,-1
-156.25,12.80,-69.70,1872,-7623,2798,0,0,-1
-156.24,12.81,-69.69,1865,-7624,2806,0,0,-1
-156.23,12.81,-69.69,1866,-7631,2813,-1,-1,-1
-156.23,12.81,-69.70,1869,-7635,2798,-1,-1,-1
-156.23,12.81,-69.70,1866,-7636,2797,0,0,-1
-156.22,12.82,-69.70,1871,-7629,2796,0,0,-1
-156.21,12.83,-69.69,1876,-7613,2802,0,0,-1
-156.20,12.83,-69.69,1876,-7611,2808,-1,0,-1
-156.21,12.83,-69.69,1871,-7620,2807,-1,0,-1
-156.20,12.83,-69.69,1873,-7631,2804,0,0,-1
-156.20,12.83,-69.69,1865,-7631,2801,0,0,-1
-156.19,12.84,-69.69,1869,-7631,2794,0,0,-1
-156.19,12.84,-69.69,1867,-7632,2790,0,0,-1
-156.18,12.84,-69.67,1865,-7616,2805,0,0,-1
-156.17,12.85,-69.67,1870,-7616,2819,-1,0,-1
-156.17,12.86,-69.67,1881,-7616,2815,0,0,-1
-156.16,12.86,-69.67,1879,-7626,2818,-1,0,0
-156.16,12.86,-69.68,1882,-7622,2801,0,0,-1
-156.16,12.86,-69.68,1878,-7617,2806,-1,-1,-1
-156.16,12.87,-69.69,1877,-7619,2788,0,0,-1
-156.16,12.87,-69.69,1876,-7619,2794,0,0,-1
-156.15,12.87,-69.68,1877,-7620,2799,0,0,-1
-156.14,12.87,-69.68,1877,-7620,2812,0,0,-1
-156.14,12.87,-69.68,1877,-7622,2799,0,0,-1
-156.14,12.88,-69.69,1875,-7622,2790,0,0,-1
-156.13,12.88,-69.68,1884,-7626,2799,0,0,-1
-156.13,12.88,-69.68,1877,-7624,2801,0,0,-1
-156.12,12.88,-69.68,1871,-7622,2811,0,0,-1
-156.12,12.89,-69.67,1872,-7621,2826,0,0,-1
-156.11,12.89,-69.67,1872,-7622,2826,-1,0,-1
-156.11,12.89,-69.67,1881,-7615,2817,-1,0,-1
-156.11,12.90,-69.68,1881,-7619,2813,-1,0,-1
-156.11,12.90,-69.68,1885,-7618,2806,0,0,-1
-156.10,12.90,-69.68,1882,-7614,2800,0,0,-1
-156.10,12.90,-69.68,1875,-7615,2801,0,0,0
-156.10,12.91,-69.68,1879,-7614,2801,0,0,-1
-156.09,12.91,-69.67,1876,-7615,2807,0,0,-1
-156.08,12.91,-69.67,1874,-7613,2804,0,0,-1
-156.08,12.91,-69.67,1877,-7612,2803,-1,0,-1
-156.08,12.92,-69.67,1875,-7609,2810,-1,0,-1
-156.08,12.92,-69.67,1883,-7610,2806,-1,0,-1
-156.07,12.93,-69.68,1882,-7625,2802,0,0,-1
-156.07,12.93,-69.68,1884,-7624,2797,0,0,-1
-156.07,12.93,-69.67,1883,-7618,2794,0,0,-1
-156.07,12.93,-69.67,1881,-7625,2797,0,0,-1
-156.07,12.93,-69.67,1880,-7625,2802,0,0,0
-156.05,12.94,-69.67,1887,-7616,2807,0,0,0
-156.05,12.94,-69.67,1886,-7620,2806,-1,0,-1
-156.06,12.94,-69.67,1886,-7627,2800,0,-1,-1
-156.05,12.95,-69.67,1888,-7622,2794,0,0,-1
-156.04,12.95,-69.66,1889,-7614,2800,0,0,-1
-156.02,12.96,-69.65,1885,-7604,2814,0,-1,-1
-156.02,12.96,-69.65,1880,-7605,2812,0,-1,0
-156.03,12.96,-69.66,1879,-7609,2815,-1,-1,0
-156.03,12.96,-69.66,1883,-7617,2799,0,0,-1
-156.02,12.96,-69.65,1885,-7617,2803,0,0,-1
-156.02,12.96,-69.65,1879,-7624,2802,0,0,-1
-156.01,12.96,-69.65,1878,-7611,2815,0,0,-1
-156.00,12.97,-69.65,1880,-7606,2802,0,0,-1
-155.99,12.98,-69.65,1892,-7611,2799,-1,0,-1
-155.98,12.98,-69.65,1901,-7619,2806,-1,0,-1
-155.99,12.99,-69.66,1902,-7625,2810,-1,0,-1
-155.98,12.99,-69.66,1899,-7614,2817,-1,0,0
-155.98,12.99,-69.66,1901,-7608,2802,-1,0,0
-155.99,12.99,-69.67,1892,-7607,2800,-1,0,-1
-155.98,12.99,-69.66,1900,-7617,2804,-1,0,-1
-155.97,13.00,-69.67,1895,-7619,2805,0,0,-1
-155.97,13.00,-69.67,1892,-7624,2802,0,0,-1
-155.97,13.00,-69.67,1894,-7618,2802,0,0,-1
-155.97,13.00,-69.67,1898,-7610,2798,0,0,-1
-155.96,13.01,-69.67,1894,-7605,2804,0,0,-1
-155.95,13.01,-69.67,1892,-7608,2809,0,0,-1
-155.95,13.01,-69.67,1891,-7614,2804,0,0,-1
-155.95,13.01,-69.66,1892,-7610,2810,0,0,-1
-155.94,13.02,-69.66,1896,-7607,2810,-1,0,-1
-155.94,13.02,-69.66,1896,-7611,2805,-1,0,-1
-155.94,13.02,-69.67,1896,-7615,2801,-1,0,-1
-155.94,13.03,-69.67,1898,-7614,2791,-1,0,-1
-155.94,13.03,-69.68,1900,-7622,2789,0,0,-1
-155.94,13.03,-69.68,1900,-7624,2795,0,0,-1
-155.93,13.03,-69.68,1898,-7625,2795,0,0,-1
-155.93,13.03,-69.67,1895,-7622,2802,0,0,-1
-155.92,13.03,-69.67,1891,-7607,2808,0,0,-1
-155.92,13.03,-69.67,1892,-7603,2791,-1,0,0
-155.92,13.04,-69.68,1894,-7606,2788,-1,0,-1
-155.91,13.04,-69.68,1897,-7607,2787,0,0,-1
-155.92,13.04,-69.68,1900,-7605,2795,-1,0,-1
-155.91,13.04,-69.68,1903,-7609,2799,0,0,-1
-155.90,13.05,-69.69,1898,-7608,2796,-1,0,-1
-155.90,13.05,-69.68,1912,-7612,2797,0,0,-1
-155.90,13.06,-69.69,1910,-7616,2799,-1,0,0
-155.89,13.06,-69.69,1911,-7617,2799,0,0,-1
-155.90,13.05,-69.68,1903,-7610,2807,-1,-1,0
-155.90,13.05,-69.69,1903,-7615,2800,0,0,0
-155.90,13.06,-69.70,1905,-7615,2810,-1,-1,0
-155.91,13.05,-69.70,1905,-7617,2792,0,0,0
-155.90,13.06,-69.70,1900,-7617,2795,0,0,0
-155.90,13.05,-69.69,1904,-7612,2810,0,0,0
-155.90,13.05,-69.69,1902,-7606,2809,-1,0,0
-155.91,13.05,-69.70,1905,-7608,2807,-1,0,0
-155.92,13.04,-69.71,1905,-7614,2794,-1,0,0
-155.93,13.04,-69.72,1902,-7622,2777,-1,0,0
-155.93,13.04,-69.72,1900,-7630,2788,0,0,0
-155.93,13.03,-69.71,1899,-7622,2794,0,0,0
-155.92,13.04,-69.70,1901,-7608,2807,0,0,0
-155.93,13.03,-69.70,1896,-7613,2815,-1,-1,0
-155.93,13.03,-69.71,1900,-7618,2810,-1,-1,0
-155.93,13.03,-69.71,1897,-7617,2804,0,-1,0
-155.94,13.03,-69.71,1896,-7615,2803,0,0,0
-155.94,13.02,-69.71,1890,-7605,2797,-1,0,0
-155.95,13.01,-69.72,1886,-7612,2799,-1,0,0
-155.97,13.01,-69.74,1888,-7619,2787,0,0,0
-155.96,13.00,-69.73,1891,-7621,2801,0,0,0
-155.98,12.99,-69.74,1888,-7619,2781,0,0,0
-155.98,12.99,-69.74,1885,-7615,2784,0,-1,0
-155.98,12.99,-69.74,1894,-7615,2786,0,-1,0
-155.99,12.98,-69.73,1893,-7610,2795,-1,0,0
-156.00,12.98,-69.74,1885,-7620,2783,0,0,0
-155.99,12.97,-69.73,1887,-7626,2804,-1,0,0
-156.00,12.97,-69.73,1891,-7628,2793,0,0,0
-156.00,12.97,-69.73,1886,-7616,2803,-1,-1,0
-156.01,12.96,-69.74,1884,-7619,2797,0,-1,0
-156.02,12.96,-69.75,1892,-7617,2795,-1,0,0
-156.03,12.95,-69.76,1889,-7623,2784,-1,0,0
-156.04,12.94,-69.76,1880,-7628,2795,-1,0,0
-156.05,12.93,-69.77,1878,-7637,2787,0,0,0
-156.05,12.93,-69.76,1879,-7638,2788,0,0,0
-156.05,12.93,-69.76,1885,-7626,2785,0,0,0
-156.05,12.92,-69.76,1882,-7621,2790,0,0,0
-156.05,12.92,-69.76,1884,-7615,2789,-1,0,0
-156.06,12.92,-69.76,1885,-7623,2802,-1,0,0
-156.06,12.92,-69.76,1881,-7628,2798,0,0,0
-156.07,12.91,-69.76,1884,-7632,2792,-1,0,0
-156.07,12.91,-69.76,1882,-7626,2783,-1,0,0
-156.08,12.91,-69.77,1877,-7631,2788,-1,-1,0
-156.08,12.91,-69.77,1880,-7625,2790,-1,-1,0
-156.09,12.90,-69.77,1878,-7621,2790,-1,-1,0
-156.09,12.91,-69.78,1885,-7624,2789,-1,-1,0
-156.09,12.91,-69.78,1886,-7631,2793,-1,0,0
-156.10,12.90,-69.78,1878,-7636,2795,0,0,0
-156.10,12.90,-69.78,1877,-7634,2793,-1,0,0
-156.11,12.89,-69.78,1876,-7620,2794,-1,-1,0
-156.12,12.88,-69.79,1873,-7633,2788,-1,-1,0
-156.11,12.89,-69.79,1884,-7630,2778,0,0,0
-156.11,12.89,-69.79,1884,-7626,2798,-1,0,0
-156.12,12.88,-69.79,1877,-7616,2804,-1,0,0
-156.13,12.88,-69.80,1869,-7619,2796,-1,-1,0
-156.14,12.87,-69.81,1866,-7629,2787,-1,0,0
-156.14,12.87,-69.81,1859,-7630,2790,-1,0,0
-156.15,12.86,-69.82,1868,-7639,2775,0,0,0
-156.15,12.86,-69.81,1868,-7636,2783,0,0,0
-156.15,12.86,-69.81,1867,-7624,2780,0,0,0
-156.15,12.86,-69.81,1859,-7606,2787,-1,-1,0
-156.15,12.86,-69.81,1864,-7620,2788,-1,-1,0
-156.16,12.86,-69.82,1870,-7622,2771,-1,0,0
-156.16,12.85,-69.83,1870,-7620,2769,-1,-1,0
-156.17,12.85,-69.83,1856,-7615,2780,-1,-1,0
-156.18,12.85,-69.83,1856,-7623,2770,-1,-1,0
-156.18,12.85,-69.83,1862,-7630,2767,0,-1,0
-156.19,12.84,-69.84,1862,-7632,2762,0,-1,0
-156.19,12.84,-69.84,1861,-7628,2769,0,-1,0
-156.19,12.84,-69.84,1856,-7626,2767,0,-1,0
-156.19,12.85,-69.84,1855,-7627,2772,0,-1,0
-156.19,12.84,-69.83,1857,-7633,2770,0,-1,-1
-156.18,12.85,-69.83,1858,-7628,2778,0,-1,-1
-156.17,12.86,-69.81,1861,-7616,2787,0,-1,-1
-156.16,12.86,-69.80,1865,-7622,2808,0,-1,-1
-156.15,12.87,-69.79,1872,-7615,2806,0,0,-1
-156.14,12.88,-69.79,1871,-7622,2806,-1,-1,-1
-156.13,12.89,-69.79,1868,-7624,2797,0,0,-1
-156.13,12.89,-69.79,1871,-7626,2789,0,-1,-1
-156.12,12.90,-69.79,1868,-7627,2788,0,-1,-1
-156.12,12.91,-69.78,1872,-7625,2787,0,-1,-1
-156.11,12.91,-69.77,1878,-7623,2784,0,0,-1
-156.10,12.92,-69.76,1871,-7624,2792,0,0,-1
-156.10,12.92,-69.76,1859,-7622,2790,0,0,-1
-156.09,12.93,-69.76,1863,-7620,2789,0,0,-1
-156.08,12.93,-69.76,1869,-7623,2789,0,0,-1
-156.07,12.94,-69.76,1870,-7627,2801,0,0,-1
-156.06,12.94,-69.76,1876,-7618,2796,-1,0,-1
-156.05,12.95,-69.76,1883,-7619,2795,0,0,-1
-156.05,12.96,-69.76,1883,-7619,2796,-1,0,-1
-156.04,12.97,-69.75,1878,-7626,2800,0,0,-1
-156.04,12.96,-69.76,1879,-7622,2803,-1,0,-1
-156.04,12.97,-69.77,1873,-7628,2797,-1,0,-1
-156.03,12.97,-69.76,1876,-7631,2790,0,0,-1
-156.02,12.98,-69.75,1882,-7622,2789,0,0,-1
-156.01,12.98,-69.74,1884,-7607,2795,0,0,-1
-156.01,12.98,-69.74,1880,-7603,2802,-1,0,0
-156.01,12.99,-69.75,1875,-7619,2791,-1,-1,0
-156.02,12.99,-69.76,1880,-7640,2786,0,0,-1
-156.01,12.99,-69.76,1881,-7639,2789,0,0,-1
-156.00,13.00,-69.75,1878,-7616,2788,0,0,-1
-155.99,13.00,-69.75,1875,-7616,2783,-1,0,-1
-155.99,13.00,-69.75,1879,-7625,2788,0,0,-1
-155.97,13.02,-69.74,1894,-7625,2805,-1,0,-1
-155.96,13.02,-69.74,1893,-7634,2793,0,0,-1
-155.96,13.02,-69.73,1894,-7618,2805,0,0,0
-155.96,13.02,-69.73,1883,-7610,2798,0,-1,0
-155.97,13.02,-69.74,1875,-7611,2803,-1,-1,0
-155.97,13.02,-69.74,1885,-7607,2804,0,-1,-1
-155.97,13.02,-69.74,1892,-7620,2799,-1,0,0
-155.97,13.02,-69.74,1886,-7625,2795,-1,-1,0
-155.97,13.02,-69.74,1882,-7629,2790,-1,-1,-1
-155.97,13.03,-69.74,1880,-7629,2791,0,0,-1
-155.97,13.03,-69.74,1885,-7630,2789,0,0,-1
-155.97,13.03,-69.74,1878,-7618,2788,0,0,-1
-155.97,13.03,-69.74,1872,-7623,2802,0,-1,-1
-155.96,13.03,-69.73,1880,-7625,2806,-1,-1,-1
-155.96,13.04,-69.73,1879,-7614,2805,0,-1,-1
-155.96,13.04,-69.74,1884,-7607,2804,-1,-1,0
-155.96,13.04,-69.75,1889,-7622,2800,-1,-1,0
-155.96,13.04,-69.75,1891,-7624,2799,-1,-1,0
-155.96,13.05,-69.76,1892,-7617,2792,0,0,0
-155.96,13.05,-69.76,1889,-7608,2791,0,0,0
-155.96,13.05,-69.76,1891,-7606,2787,0,0,0
-155.96,13.05,-69.76,1887,-7613,2787,0,0,-1
-155.96,13.05,-69.76,1889,-7617,2793,0,0,-1
-155.95,13.05,-69.76,1887,-7624,2794,0,0,-1
-155.95,13.05,-69.76,1881,-7622,2794,0,0,-1
-155.94,13.06,-69.75,1876,-7617,2799,0,-1,-1
-155.95,13.06,-69.75,1885,-7617,2789,0,-1,0
-155.94,13.06,-69.74,1888,-7619,2795,0,-1,0
-155.95,13.06,-69.75,1887,-7619,2796,0,-1,0
-155.95,13.06,-69.75,1883,-7612,2807,-1,-1,0
-155.95,13.06,-69.75,1888,-7607,2807,-1,-1,0
-155.96,13.07,-69.76,1891,-7617,2797,-1,-1,0
-155.96,13.06,-69.75,1894,-7609,2799,0,-1,0
-155.96,13.06,-69.75,1880,-7606,2790,0,-1,0
-155.96,13.07,-69.76,1883,-7605,2799,-1,-1,0
-155.97,13.07,-69.76,1894,-7613,2795,-1,-1,-1
-155.97,13.08,-69.76,1894,-7621,2790,0,-1,-1
-155.97,13.08,-69.76,1890,-7624,2790,0,-1,-1
-155.97,13.08,-69.76,1885,-7610,2791,0,-1,-1
-155.97,13.08,-69.77,1905,-7627,2776,-1,-1,0
-155.98,13.08,-69.76,1892,-7636,2781,1,0,0
-155.96,13.08,-69.74,1877,-7615,2820,0,0,-1
-155.96,13.08,-69.74,1881,-7607,2826,-1,-1,-1
-155.96,13.09,-69.75,1887,-7601,2826,-1,-1,0
-155.97,13.08,-69.77,1890,-7613,2799,-1,-1,0
-155.97,13.08,-69.78,1883,-7625,2788,-1,-1,0
-155.98,13.08,-69.79,1888,-7640,2776,0,0,-1
-155.98,13.08,-69.79,1889,-7636,2780,0,0,-1
-155.98,13.08,-69.79,1887,-7629,2784,0,0,-1
-155.97,13.09,-69.79,1887,-7617,2790,-1,0,-1
-155.97,13.09,-69.79,1893,-7607,2785,-1,0,-1
-155.97,13.09,-69.79,1894,-7613,2786,-1,0,-1
-155.97,13.09,-69.79,1883,-7618,2796,0,0,-1
-155.96,13.09,-69.78,1886,-7619,2795,0,0,-1
-155.96,13.09,-69.78,1883,-7611,2805,-1,0,-1
-155.95,13.10,-69.78,1892,-7612,2805,-1,0,-1
-155.95,13.10,-69.78,1895,-7617,2802,-1,0,-1
-155.95,13.10,-69.79,1900,-7615,2797,-1,0,-1
-155.95,13.11,-69.80,1895,-7619,2788,-1,0,0
-155.95,13.10,-69.80,1891,-7620,2791,-1,0,0
-155.96,13.10,-69.80,1882,-7625,2781,0,0,-1
-155.95,13.10,-69.80,1888,-7622,2778,0,0,-1
-155.95,13.10,-69.80,1891,-7622,2791,0,0,0
-155.95,13.10,-69.80,1893,-7622,2787,0,-1,0
-155.95,13.10,-69.80,1887,-7612,2784,0,0,0
-155.95,13.10,-69.79,1888,-7607,2801,-1,-1,0
-155.96,13.10,-69.79,1884,-7622,2800,-1,-1,0
-155.96,13.10,-69.79,1894,-7628,2794,0,-1,0
-155.96,13.10,-69.79,1899,-7622,2794,0,0,0
-155.96,13.09,-69.80,1893,-7618,2796,0,-1,0
-155.96,13.09,-69.79,1889,-7617,2799,0,-1,0
-155.97,13.09,-69.79,1888,-7610,2793,-1,-1,0
-155.97,13.09,-69.80,1893,-7616,2796,-1,-1,0
-155.99,13.08,-69.81,1895,-7632,2786,-1,-1,0
-155.99,13.08,-69.81,1890,-7625,2779,0,0,0
-155.99,13.07,-69.80,1888,-7622,2782,0,-1,0
-155.99,13.07,-69.79,1888,-7613,2796,0,0,0
-156.01,13.06,-69.81,1880,-7614,2780,-1,-1,0
-156.03,13.05,-69.81,1879,-7624,2779,-1,-1,0
-156.04,13.04,-69.82,1885,-7637,2776,-1,-1,0
-156.04,13.04,-69.82,1887,-7636,2779,0,0,0
-156.04,13.03,-69.82,1880,-7624,2794,0,-1,0
-156.05,13.02,-69.81,1877,-7621,2793,0,0,0
-156.06,13.02,-69.81,1880,-7614,2802,-1,-1,0
-156.07,13.02,-69.82,1877,-7625,2794,-1,-1,0
-156.07,13.01,-69.82,1884,-7632,2794,-1,-1,0
-156.09,13.01,-69.83,1877,-7629,2775,-1,-1,0
-156.10,13.00,-69.84,1875,-7622,2780,-1,-1,0
-156.12,12.99,-69.84,1868,-7624,2778,-1,-1,0
-156.13,12.98,-69.85,1866,-7629,2770,-1,-1,0
-156.13,12.98,-69.85,1865,-7629,2783,0,-1,0
-156.15,12.96,-69.85,1865,-7628,2793,-1,-1,0
-156.16,12.96,-69.86,1865,-7628,2780,-1,-1,0
-156.17,12.95,-69.86,1864,-7632,2778,-1,-1,0
-156.17,12.95,-69.87,1873,-7635,2771,0,-1,0
-156.18,12.94,-69.86,1865,-7639,2781,0,-1,0
-156.19,12.93,-69.86,1858,-7632,2784,0,-1,0
-156.19,12.93,-69.86,1859,-7621,2794,0,-1,0
-156.20,12.92,-69.86,1861,-7626,2797,-1,-1,0
-156.21,12.91,-69.87,1873,-7616,2783,-1,-1,0
-156.23,12.91,-69.88,1869,-7634,2790,-1,-1,0
-156.24,12.90,-69.89,1868,-7635,2780,-1,0,0
-156.26,12.89,-69.89,1861,-7628,2791,-1,-1,0
-156.27,12.88,-69.90,1854,-7634,2784,-1,-1,0
-156.28,12.88,-69.91,1852,-7638,2767,-1,-1,0
-156.29,12.87,-69.92,1855,-7642,2768,-1,-1,0
-156.29,12.86,-69.91,1857,-7638,2775,0,0,0
-156.30,12.85,-69.92,1852,-7625,2777,-1,-1,0
-156.31,12.86,-69.92,1847,-7623,2782,-1,-1,0
-156.32,12.85,-69.92,1856,-7632,2784,-1,-1,0
-156.32,12.84,-69.93,1854,-7639,2778,-1,-1,0
-156.33,12.84,-69.93,1847,-7633,2777,0,0,0
-156.34,12.83,-69.94,1843,-7628,2770,-1,-1,0
-156.35,12.83,-69.94,1840,-7630,2765,0,-1,0
-156.36,12.83,-69.95,1859,-7647,2778,-1,-1,0
-156.37,12.82,-69.96,1857,-7653,2763,0,0,0
-156.37,12.81,-69.96,1852,-7641,2773,0,0,0
-156.38,12.80,-69.96,1843,-7637,2769,-1,-1,0
-156.40,12.79,-69.97,1841,-7641,2773,-1,-1,0
-156.42,12.78,-69.98,1854,-7652,2764,-1,-1,0
-156.42,12.78,-69.97,1847,-7648,2765,0,0,0
-156.42,12.77,-69.97,1848,-7627,2779,0,-1,0
-156.44,12.76,-69.97,1846,-7630,2773,-1,-1,0
-156.45,12.75,-69.98,1849,-7643,2765,-1,0,0
-156.47,12.74,-70.00,1848,-7659,2759,-1,-1,0
-156.49,12.73,-70.00,1838,-7664,2754,-1,-1,0
-156.52,12.71,-70.01,1837,-7674,2749,0,-1,0
-156.53,12.69,-70.00,1834,-7668,2758,0,-1,0
-156.53,12.68,-69.98,1831,-7647,2780,0,-1,0
-156.54,12.67,-69.98,1827,-7629,2782,-1,-1,0
-156.55,12.66,-69.99,1831,-7623,2779,-1,-1,0
-156.57,12.66,-70.00,1843,-7623,2779,-1,-1,0
-156.58,12.65,-70.00,1833,-7627,2773,-1,-1,0
-156.60,12.64,-70.02,1824,-7644,2759,-1,-1,0
-156.61,12.63,-70.02,1816,-7656,2755,0,-1,0
-156.62,12.63,-70.02,1820,-7647,2756,0,-1,0
-156.63,12.62,-70.02,1810,-7648,2756,0,-1,0
-156.63,12.62,-70.02,1806,-7648,2757,0,-1,0
-156.64,12.61,-70.01,1815,-7646,2759,0,-1,0
-156.63,12.62,-70.01,1828,-7647,2753,0,-1,0
-156.64,12.61,-70.00,1823,-7650,2761,0,-1,0
-156.64,12.62,-70.00,1819,-7659,2769,0,-1,0
-156.63,12.61,-69.99,1812,-7659,2774,0,0,-1
-156.63,12.62,-69.99,1818,-7654,2781,0,-1,-1
-156.62,12.62,-69.98,1817,-7646,2778,0,-1,-1
-156.62,12.63,-69.98,1826,-7640,2770,0,-1,-1
-156.62,12.63,-69.97,1837,-7632,2767,0,-1,-1
-156.61,12.64,-69.97,1833,-7639,2780,0,-1,0
-156.61,12.64,-69.96,1827,-7642,2774,0,-1,-1
-156.61,12.64,-69.96,1823,-7639,2771,0,-1,-1
-156.60,12.64,-69.95,1820,-7645,2763,0,-1,-1
-156.59,12.65,-69.93,1826,-7634,2773,0,-1,-1
-156.58,12.66,-69.93,1829,-7631,2790,0,-1,-1
-156.57,12.66,-69.92,1825,-7635,2790,0,0,-1
-156.56,12.67,-69.92,1836,-7649,2792,0,-1,-1
-156.56,12.67,-69.92,1829,-7644,2777,0,0,-1
-156.55,12.67,-69.90,1825,-7641,2784,0,0,-1
-156.54,12.68,-69.90,1825,-7638,2782,0,0,-1
-156.53,12.69,-69.90,1827,-7633,2788,-1,0,-1
-156.53,12.69,-69.90,1828,-7628,2784,0,0,-1
-156.52,12.70,-69.90,1830,-7632,2786,-1,0,-1
-156.52,12.70,-69.90,1833,-7632,2783,-1,0,-1
-156.51,12.71,-69.91,1834,-7634,2781,-1,-1,-1
-156.50,12.72,-69.92,1834,-7641,2770,0,0,-1
-156.48,12.74,-69.91,1832,-7638,2771,0,0,-1
-156.47,12.74,-69.90,1837,-7624,2782,-1,0,-1
-156.46,12.75,-69.91,1844,-7637,2776,-1,0,-1
-156.46,12.76,-69.92,1851,-7665,2774,-1,0,-1
-156.46,12.76,-69.92,1848,-7677,2767,0,0,-1
-156.45,12.77,-69.92,1850,-7660,2766,0,0,-1
-156.44,12.78,-69.91,1840,-7641,2772,0,0,-1
-156.44,12.78,-69.91,1837,-7631,2782,0,0,-1
-156.43,12.78,-69.91,1840,-7624,2787,0,0,-1
-156.42,12.79,-69.90,1848,-7623,2790,-1,-1,-1
-156.42,12.80,-69.91,1856,-7638,2787,-1,-1,-1
-156.41,12.81,-69.91,1857,-7638,2785,-1,0,-1
-156.40,12.81,-69.91,1854,-7634,2782,0,0,-1
-156.40,12.82,-69.91,1849,-7627,2775,-1,-1,-1
-156.39,12.82,-69.91,1850,-7632,2773,0,0,-1
-156.39,12.82,-69.91,1849,-7629,2783,-1,0,-1
-156.39,12.82,-69.92,1847,-7632,2777,-1,0,-1
-156.39,12.83,-69.92,1849,-7639,2772,-1,0,-1
-156.39,12.83,-69.92,1848,-7641,2773,0,0,-1
-156.38,12.83,-69.92,1846,-7639,2776,-1,0,-1
-156.38,12.83,-69.92,1846,-7636,2779,0,0,-1
-156.37,12.84,-69.92,1852,-7629,2779,0,0,-1
-156.36,12.85,-69.91,1854,-7626,2779,0,0,-1
-156.35,12.85,-69.91,1855,-7625,2779,-1,0,-1
-156.35,12.85,-69.91,1860,-7619,2787,-1,0,-1
-156.35,12.86,-69.92,1846,-7626,2782,-1,0,-1
-156.35,12.86,-69.92,1846,-7635,2780,-1,0,-1
-156.35,12.86,-69.93,1849,-7638,2763,0,0,-1
-156.35,12.86,-69.93,1858,-7633,2774,-1,0,-1
-156.34,12.87,-69.93,1858,-7630,2765,0,0,-1
-156.33,12.87,-69.93,1854,-7639,2780,-1,0,-1
-156.33,12.87,-69.93,1844,-7647,2766,0,0,-1
-156.32,12.87,-69.93,1849,-7633,2780,-1,0,-1
-156.32,12.87,-69.93,1850,-7634,2778,-1,0,-1
-156.32,12.88,-69.93,1845,-7624,2785,-1,0,-1
-156.31,12.89,-69.93,1856,-7634,2771,0,0,-1
-156.30,12.90,-69.94,1863,-7630,2762,0,0,-1
-156.30,12.90,-69.94,1860,-7631,2771,0,0,-1
-156.30,12.90,-69.94,1853,-7629,2769,-1,0,0
-156.31,12.89,-69.95,1848,-7635,2756,-1,-1,-1
-156.31,12.90,-69.95,1859,-7643,2756,0,-1,-1
-156.30,12.90,-69.94,1863,-7639,2764,0,0,-1
-156.28,12.91,-69.92,1863,-7619,2781,0,0,-1
-156.28,12.91,-69.92,1860,-7609,2794,-1,-1,0
-156.29,12.90,-69.94,1850,-7620,2781,-1,-1,-1
-156.29,12.91,-69.94,1851,-7643,2769,-1,0,-1
-156.29,12.91,-69.95,1850,-7648,2756,0,0,-1
-156.29,12.91,-69.95,1850,-7648,2743,0,0,-1
-156.28,12.91,-69.94,1850,-7642,2748,0,0,-1
-156.27,12.92,-69.93,1853,-7631,2764,0,0,-1
-156.27,12.92,-69.93,1856,-7633,2768,0,-1,-1
-156.26,12.93,-69.93,1865,-7650,2767,0,-1,-1
-156.25,12.93,-69.91,1865,-7646,2769,0,0,-1
-156.25,12.93,-69.90,1865,-7629,2772,0,-1,-1
-156.24,12.93,-69.89,1864,-7631,2768,0,-1,-1
-156.24,12.93,-69.89,1861,-7635,2762,0,-1,0
-156.23,12.93,-69.86,1872,-7644,2771,1,0,0
-156.23,12.93,-69.84,1867,-7631,2779,0,-1,0
-156.23,12.92,-69.82,1860,-7616,2778,0,-1,0
-156.22,12.92,-69.81,1859,-7614,2784,0,-1,0
-156.23,12.91,-69.79,1861,-7611,2790,0,0,0
-156.23,12.90,-69.79,1843,-7609,2810,-1,0,0
-156.23,12.90,-69.79,1853,-7619,2794,0,0,0
-156.24,12.89,-69.79,1856,-7617,2808,-1,-1,0
-156.25,12.89,-69.80,1846,-7615,2797,-1,-1,0
-156.25,12.89,-69.80,1851,-7618,2799,-1,-1,0
-156.26,12.89,-69.81,1856,-7624,2806,-1,-1,0
-156.27,12.89,-69.82,1862,-7623,2803,-1,-1,0
-156.28,12.89,-69.84,1859,-7622,2789,-1,-1,0
-156.28,12.89,-69.85,1850,-7614,2770,-1,0,-1
-156.28,12.89,-69.86,1847,-7626,2786,-1,0,-1
-156.28,12.89,-69.87,1850,-7636,2780,-1,0,-1
-156.29,12.89,-69.88,1847,-7638,2780,-1,0,-1
-156.28,12.90,-69.89,1857,-7638,2782,-1,0,-1
-156.28,12.90,-69.90,1863,-7639,2785,-1,0,0
-156.28,12.90,-69.90,1862,-7641,2778,-1,0,-1
-156.28,12.90,-69.91,1854,-7639,2784,-1,-1,0
-156.29,12.90,-69.91,1861,-7626,2781,-1,0,0
-156.29,12.89,-69.91,1861,-7619,2776,-1,-1,0
-156.31,12.89,-69.92,1856,-7630,2779,-1,-1,0
-156.31,12.88,-69.93,1857,-7647,2774,-1,-1,0
-156.31,12.88,-69.92,1864,-7654,2781,0,0,0
-156.31,12.88,-69.91,1858,-7636,2788,0,0,0
-156.31,12.87,-69.91,1854,-7621,2802,0,-1,0
-156.32,12.86,-69.91,1855,-7621,2800,-1,-1,0
-156.34,12.85,-69.92,1852,-7640,2781,0,-1,0
-156.34,12.85,-69.92,1856,-7640,2791,0,0,0
-156.35,12.84,-69.92,1846,-7648,2780,-1,0,0
-156.35,12.84,-69.92,1838,-7639,2771,0,0,0
-156.35,12.84,-69.91,1845,-7628,2777,0,0,0
-156.35,12.83,-69.91,1848,-7628,2784,0,-1,0
-156.35,12.83,-69.91,1854,-7627,2779,-1,-1,0
-156.37,12.83,-69.92,1853,-7639,2779,-1,-1,0
-156.37,12.82,-69.91,1852,-7633,2784,0,0,0
-156.38,12.81,-69.92,1852,-7632,2784,-1,0,0
-156.39,12.81,-69.93,1849,-7633,2780,-1,-1,0
-156.40,12.80,-69.93,1847,-7651,2783,0,-1,0
-156.40,12.80,-69.92,1846,-7647,2783,0,-1,0
-156.41,12.79,-69.93,1849,-7641,2778,-1,-1,0
-156.42,12.79,-69.93,1844,-7645,2772,0,-1,0
-156.42,12.78,-69.92,1841,-7644,2777,0,-1,0
-156.43,12.77,-69.91,1838,-7638,2785,0,-1,0
-156.43,12.77,-69.91,1840,-7641,2785,0,-1,0
-156.44,12.76,-69.90,1835,-7642,2789,0,0,0
-156.43,12.76,-69.89,1841,-7637,2795,0,-1,0
-156.45,12.74,-69.90,1833,-7636,2807,-1,-1,0
-156.45,12.74,-69.90,1845,-7632,2798,-1,-1,0
-156.47,12.74,-69.91,1845,-7644,2777,-1,-1,0
-156.48,12.73,-69.92,1838,-7645,2769,0,-1,0
-156.48,12.73,-69.92,1838,-7638,2763,0,-1,0
-156.48,12.72,-69.91,1839,-7626,2783,0,0,0
-156.49,12.72,-69.92,1837,-7637,2775,-1,-1,0
-156.49,12.72,-69.91,1839,-7631,2791,0,0,0
-156.49,12.71,-69.92,1836,-7645,2785,-1,-1,0
-156.49,12.71,-69.91,1836,-7644,2787,0,0,0
-156.50,12.71,-69.91,1838,-7638,2789,-1,0,0
-156.51,12.70,-69.92,1831,-7629,2794,-1,0,0
-156.51,12.70,-69.92,1830,-7630,2780,-1,0,0
-156.51,12.69,-69.92,1832,-7636,2784,0,0,0
-156.51,12.69,-69.92,1822,-7639,2793,0,0,0
-156.51,12.68,-69.91,1820,-7632,2796,0,0,0
-156.51,12.68,-69.91,1819,-7633,2796,-1,0,0
-156.52,12.68,-69.92,1823,-7634,2793,-1,0,-1
-156.52,12.68,-69.93,1821,-7635,2786,-1,0,-1
-156.51,12.69,-69.92,1820,-7637,2792,0,0,-1
-156.50,12.70,-69.92,1813,-7618,2792,0,0,-1
-156.48,12.71,-69.92,1816,-7612,2788,-1,0,-1
-156.46,12.73,-69.92,1818,-7633,2773,-1,0,-1
-156.43,12.76,-69.92,1811,-7660,2775,0,-1,-2
-156.40,12.79,-69.92,1826,-7666,2774,0,0,-2
-156.36,12.82,-69.91,1852,-7660,2768,0,0,-1
-156.34,12.84,-69.90,1856,-7655,2765,0,0,-1
-156.31,12.86,-69.88,1857,-7640,2773,0,0,-1
-156.29,12.88,-69.87,1859,-7628,2788,0,0,-1
-156.27,12.90,-69.87,1869,-7634,2780,-1,-1,-1
-156.26,12.91,-69.88,1870,-7632,2766,0,-1,-1
-156.25,12.92,-69.88,1877,-7639,2765,0,-1,-1
-156.24,12.93,-69.87,1873,-7629,2772,0,0,-1
-156.23,12.93,-69.86,1872,-7624,2801,-1,0,-1
-156.22,12.93,-69.86,1873,-7638,2782,-1,0,-1
-156.21,12.94,-69.86,1863,-7636,2786,-1,-1,-1
-156.21,12.94,-69.86,1855,-7631,2763,-1,0,-1
-156.22,12.95,-69.87,1857,-7638,2767,0,0,-1
-156.20,12.96,-69.86,1866,-7636,2775,0,0,-1
-156.19,12.96,-69.85,1869,-7627,2786,0,0,-1
-156.18,12.97,-69.85,1870,-7633,2792,-1,-1,-1
-156.17,12.97,-69.85,1862,-7628,2789,0,-1,-1
-156.17,12.97,-69.85,1860,-7623,2806,-1,0,-1
-156.17,12.98,-69.85,1861,-7629,2803,-1,0,-1
-156.16,12.99,-69.85,1868,-7625,2793,-1,-1,-1
-156.16,12.99,-69.86,1878,-7632,2776,-1,0,-1
-156.15,13.00,-69.86,1868,-7630,2785,0,0,-1
-156.15,13.00,-69.87,1863,-7634,2785,-1,-1,-1
-156.15,13.00,-69.86,1875,-7633,2772,-1,0,0
-156.16,13.00,-69.87,1874,-7649,2763,0,0,0
-156.15,13.00,-69.87,1874,-7653,2787,0,-1,0
-156.16,13.00,-69.87,1878,-7640,2779,0,-1,-1
-156.15,13.00,-69.86,1881,-7617,2806,0,-1,0
-156.17,12.99,-69.87,1873,-7617,2771,-1,-1,0
-156.19,12.98,-69.89,1869,-7649,2784,-1,-1,0
-156.21,12.97,-69.91,1877,-7661,2767,-1,-1,0
-156.21,12.97,-69.90,1876,-7630,2771,0,0,-1
-156.21,12.98,-69.89,1871,-7604,2792,-1,-1,0
-156.21,12.97,-69.90,1863,-7606,2781,-1,-1,0
-156.22,12.97,-69.91,1870,-7629,2786,-1,-1,0
-156.23,12.97,-69.92,1879,-7641,2765,-1,-1,0
-156.23,12.97,-69.92,1872,-7629,2771,0,0,0
-156.24,12.96,-69.93,1862,-7633,2767,-1,-1,0
-156.25,12.96,-69.94,1868,-7642,2773,-1,-1,-1
-156.25,12.96,-69.95,1872,-7645,2773,0,0,-1
-156.24,12.97,-69.94,1875,-7631,2777,0,0,-1
-156.25,12.96,-69.94,1867,-7622,2776,-1,-1,0
-156.26,12.95,-69.95,1864,-7634,2780,-1,-1,0
-156.27,12.95,-69.95,1863,-7642,2787,-1,-1,0
-156.27,12.94,-69.95,1873,-7644,2778,0,0,0
-156.27,12.95,-69.95,1874,-7635,2768,0,0,0
-156.27,12.95,-69.94,1873,-7639,2768,0,0,0
-156.26,12.95,-69.93,1869,-7624,2787,0,0,-1
-156.25,12.95,-69.92,1874,-7618,2787,-1,0,-1
-156.25,12.95,-69.92,1876,-7625,2787,-1,-1,0
-156.25,12.95,-69.93,1876,-7624,2785,-1,-1,-1
-156.26,12.96,-69.93,1879,-7621,2782,0,-1,-1
-156.26,12.96,-69.93,1874,-7618,2782,-1,-1,0
-156.27,12.95,-69.94,1878,-7615,2779,-1,0,-1
-156.27,12.95,-69.94,1869,-7623,2790,-1,-1,0
-156.27,12.96,-69.95,1876,-7634,2777,-1,0,0
-156.27,12.95,-69.95,1867,-7622,2774,-1,-1,0
-156.27,12.95,-69.95,1861,-7621,2772,-1,-1,-1
-156.27,12.96,-69.95,1871,-7636,2772,-1,0,-1
-156.27,12.96,-69.96,1868,-7631,2773,-1,0,-1
-156.27,12.96,-69.96,1876,-7640,2775,0,0,-1
-156.26,12.96,-69.96,1877,-7640,2783,0,0,-1
-156.26,12.96,-69.95,1871,-7638,2787,0,0,-1
-156.27,12.95,-69.95,1871,-7621,2795,-1,0,0
-156.28,12.95,-69.96,1873,-7635,2785,-1,-1,0
-156.28,12.96,-69.97,1875,-7636,2785,-1,-1,0
-156.28,12.95,-69.97,1872,-7638,2779,-1,0,0
-156.29,12.95,-69.99,1870,-7635,2777,-1,0,0
-156.30,12.95,-69.99,1867,-7635,2774,-1,0,-1
-156.30,12.95,-70.00,1869,-7639,2767,-1,0,-1
-156.30,12.95,-70.00,1875,-7639,2760,-1,0,-1
-156.29,12.96,-70.00,1875,-7630,2765,-1,0,-1
-156.29,12.96,-70.01,1878,-7629,2763,-1,0,-1
-156.29,12.96,-70.01,1881,-7633,2760,-1,0,-1
-156.29,12.96,-70.02,1882,-7635,2762,-1,0,-1
-156.29,12.97,-70.03,1882,-7638,2760,-1,0,-1
-156.29,12.97,-70.03,1878,-7635,2767,-1,0,-1
-156.28,12.98,-70.03,1874,-7639,2769,-1,0,-1
-156.28,12.97,-70.03,1875,-7635,2775,0,0,-1
-156.28,12.97,-70.03,1870,-7623,2771,0,0,-1
-156.27,12.98,-70.03,1874,-7609,2781,-1,-1,-1
-156.27,12.99,-70.05,1883,-7629,2755,-1,0,-1
-156.27,12.99,-70.06,1881,-7643,2743,0,0,-1
-156.26,12.99,-70.05,1881,-7631,2743,0,0,-1
-156.26,12.99,-70.05,1875,-7642,2757,-1,-1,0
-156.26,12.99,-70.05,1888,-7645,2759,0,0,-1
-156.26,13.00,-70.04,1886,-7634,2770,-1,0,0
-156.26,13.00,-70.04,1895,-7615,2762,0,0,0
-156.26,12.99,-70.04,1880,-7612,2774,-1,-1,0
-156.28,12.99,-70.05,1875,-7633,2751,0,0,0
-156.27,12.99,-70.05,1880,-7629,2772,-1,0,-1
-156.27,12.99,-70.05,1875,-7633,2755,0,0,-1
-156.26,13.00,-70.04,1880,-7626,2772,0,0,-1
-156.25,12.99,-70.03,1882,-7618,2778,0,0,-1
-156.25,12.99,-70.03,1882,-7618,2791,-1,-1,-1
-156.25,13.00,-70.03,1880,-7615,2787,-1,0,-1
-156.25,13.00,-70.04,1887,-7627,2788,-1,0,-1
-156.25,13.00,-70.04,1883,-7629,2773,-1,0,-1
-156.25,13.00,-70.04,1886,-7630,2768,-1,0,0
-156.26,13.00,-70.05,1884,-7633,2759,-1,0,0
-156.26,13.00,-70.05,1887,-7639,2769,0,0,0
-156.26,12.99,-70.05,1883,-7641,2769,-1,0,0
-156.26,12.99,-70.05,1882,-7646,2773,-1,-1,0
-156.27,12.98,-70.06,1881,-7639,2764,-1,-1,0
-156.28,12.98,-70.06,1883,-7638,2752,-1,-1,0
-156.29,12.98,-70.07,1893,-7650,2747,0,-1,0
-156.29,12.97,-70.06,1883,-7646,2748,0,0,0
-156.28,12.97,-70.05,1885,-7623,2771,0,0,0
-156.28,12.97,-70.04,1877,-7611,2775,-1,-1,0
-156.29,12.97,-70.04,1879,-7602,2774,-1,-1,0
-156.30,12.96,-70.05,1888,-7612,2786,-1,-1,0
-156.32,12.95,-70.06,1882,-7628,2777,0,-1,0
-156.32,12.95,-70.06,1881,-7631,2778,-1,0,0
-156.33,12.94,-70.06,1874,-7638,2763,0,-1,0
-156.33,12.94,-70.06,1872,-7631,2756,-1,0,0
-156.34,12.93,-70.07,1874,-7629,2758,-1,-1,0
