Yaw,Pitch,Roll,AX,AY,AZ,GX,GY,GZ
178.46,-2.48,-42.26,-348,-5582,6127,-1,-1,0
178.46,-2.48,-42.26,-345,-5588,6126,0,-1,-1
178.46,-2.48,-42.26,-347,-5585,6133,0,-1,-1
178.46,-2.47,-42.25,-351,-5581,6148,0,-1,-1
178.47,-2.47,-42.25,-356,-5580,6144,-1,-1,-1
178.47,-2.47,-42.25,-360,-5581,6141,-1,-1,-1
178.47,-2.46,-42.25,-351,-5581,6139,0,-1,-1
178.47,-2.45,-42.25,-349,-5581,6131,0,-1,-1
178.47,-2.45,-42.25,-347,-5581,6143,0,-1,-1
178.48,-2.45,-42.25,-346,-5577,6141,0,-1,-1
178.48,-2.45,-42.25,-354,-5577,6145,0,-1,-1
178.48,-2.45,-42.25,-345,-5569,6140,-1,0,-1
178.48,-2.45,-42.25,-351,-5578,6138,-1,0,-1
178.48,-2.45,-42.26,-351,-5579,6142,-1,0,-1
178.48,-2.45,-42.26,-352,-5579,6135,-1,-1,-1
178.49,-2.44,-42.27,-349,-5586,6127,-1,0,-1
178.49,-2.44,-42.27,-350,-5592,6133,-1,0,-1
178.49,-2.44,-42.27,-352,-5586,6132,0,0,-1
178.49,-2.45,-42.27,-358,-5587,6146,0,0,-1
178.50,-2.44,-42.27,-358,-5588,6147,0,-1,-1
178.50,-2.44,-42.27,-359,-5583,6147,0,-1,-1
178.50,-2.43,-42.26,-346,-5584,6138,0,-1,-1
178.51,-2.42,-42.26,-340,-5580,6139,0,-1,-1
178.51,-2.42,-42.26,-337,-5576,6143,-1,-1,-1
178.51,-2.42,-42.26,-344,-5582,6135,-1,0,0
178.51,-2.42,-42.27,-347,-5582,6133,-1,0,0
178.50,-2.43,-42.27,-350,-5584,6134,-1,0,-1
178.50,-2.43,-42.27,-351,-5585,6137,0,0,-1
178.51,-2.42,-42.28,-348,-5594,6130,0,0,-1
178.51,-2.42,-42.27,-352,-5589,6131,-1,-1,-1
178.51,-2.42,-42.27,-353,-5590,6142,0,-1,-1
178.52,-2.42,-42.28,-353,-5586,6129,0,0,-1
178.52,-2.42,-42.27,-345,-5577,6137,0,0,-1
178.52,-2.42,-42.27,-342,-5577,6143,0,-1,-1
178.52,-2.42,-42.27,-344,-5574,6144,-1,-1,-1
178.52,-2.42,-42.27,-344,-5575,6141,-1,-1,-1
178.52,-2.42,-42.27,-342,-5574,6144,-1,0,0
178.52,-2.42,-42.27,-339,-5575,6135,-1,0,-1
178.52,-2.42,-42.28,-343,-5588,6139,-1,0,-1
178.52,-2.41,-42.28,-348,-5587,6143,0,-1,-1
178.53,-2.41,-42.27,-348,-5585,6142,0,-1,-1
178.53,-2.41,-42.27,-347,-5578,6138,0,-1,-1
178.52,-2.41,-42.27,-341,-5583,6143,0,0,0
178.52,-2.41,-42.27,-349,-5589,6145,0,0,0
178.52,-2.41,-42.27,-352,-5587,6145,0,0,-1
178.53,-2.41,-42.27,-351,-5582,6143,0,0,-1
178.53,-2.41,-42.27,-354,-5585,6135,0,-1,-1
178.53,-2.41,-42.27,-349,-5586,6126,0,-1,-1
178.53,-2.41,-42.27,-340,-5578,6128,0,-1,-1
178.53,-2.40,-42.26,-341,-5581,6133,0,-1,-1
178.53,-2.40,-42.26,-337,-5579,6130,0,-1,0
178.53,-2.40,-42.26,-336,-5578,6130,0,0,0
178.53,-2.40,-42.26,-332,-5574,6128,-1,0,0
178.53,-2.40,-42.27,-338,-5577,6138,-1,0,-1
178.53,-2.40,-42.27,-351,-5584,6134,-1,0,-1
178.53,-2.40,-42.28,-351,-5587,6133,-1,0,-1
178.53,-2.40,-42.28,-347,-5589,6133,-1,-1,-1
178.53,-2.40,-42.28,-341,-5586,6133,0,0,-1
178.53,-2.40,-42.28,-343,-5583,6132,0,0,-1
178.54,-2.40,-42.28,-340,-5585,6141,0,-1,-1
178.54,-2.40,-42.27,-344,-5583,6147,0,-1,-1
178.54,-2.40,-42.27,-349,-5579,6149,0,-1,-1
178.54,-2.39,-42.27,-349,-5581,6133,0,-1,-1
178.54,-2.39,-42.27,-350,-5579,6133,0,-1,-1
178.54,-2.39,-42.27,-342,-5579,6135,0,-1,-1
178.55,-2.38,-42.27,-340,-5576,6144,-1,-1,-1
178.54,-2.39,-42.27,-345,-5576,6138,-1,0,0
178.54,-2.39,-42.27,-344,-5580,6147,0,0,0
178.54,-2.39,-42.27,-351,-5585,6142,0,0,0
178.54,-2.39,-42.27,-354,-5590,6136,0,0,-1
178.54,-2.39,-42.27,-345,-5595,6135,-1,-1,0
178.54,-2.39,-42.27,-343,-5592,6131,0,0,0
178.54,-2.39,-42.27,-349,-5587,6135,0,0,0
178.53,-2.39,-42.26,-347,-5580,6137,0,0,0
178.53,-2.39,-42.26,-340,-5582,6146,0,0,0
178.53,-2.39,-42.26,-344,-5584,6141,0,0,0
178.53,-2.39,-42.26,-340,-5579,6142,-1,-1,0
178.53,-2.39,-42.26,-340,-5579,6142,0,-1,0
178.53,-2.39,-42.26,-334,-5582,6151,-1,-1,0
178.53,-2.39,-42.26,-328,-5584,6146,-1,0,0
178.52,-2.40,-42.27,-344,-5591,6144,-1,0,0
178.52,-2.40,-42.27,-338,-5586,6130,0,-1,-1
178.53,-2.39,-42.27,-339,-5589,6123,0,-1,0
178.53,-2.39,-42.26,-334,-5580,6126,0,-1,0
178.52,-2.39,-42.26,-332,-5585,6133,0,-1,0
178.52,-2.39,-42.26,-338,-5580,6129,-1,0,0
178.52,-2.39,-42.27,-344,-5586,6128,0,0,0
178.52,-2.39,-42.26,-340,-5579,6135,0,0,0
178.52,-2.39,-42.26,-350,-5583,6146,-1,-1,-1
178.52,-2.39,-42.26,-348,-5593,6138,0,-1,-1
178.52,-2.39,-42.26,-348,-5590,6142,0,-1,-1
178.52,-2.39,-42.26,-344,-5585,6138,0,-1,0
178.52,-2.39,-42.26,-330,-5579,6140,0,-1,0
178.53,-2.38,-42.26,-330,-5576,6147,0,-1,0
178.52,-2.38,-42.26,-331,-5569,6147,-1,-1,0
178.52,-2.38,-42.26,-329,-5573,6143,-1,0,0
178.52,-2.38,-42.26,-333,-5575,6143,-1,0,0
178.52,-2.38,-42.26,-343,-5577,6136,-1,0,0
178.52,-2.39,-42.26,-347,-5579,6131,0,0,0
178.51,-2.38,-42.26,-346,-5587,6132,0,-1,-1
178.52,-2.38,-42.26,-344,-5590,6133,-1,0,0
178.52,-2.39,-42.26,-350,-5582,6136,0,0,0
178.52,-2.39,-42.26,-346,-5579,6135,0,0,0
178.52,-2.39,-42.26,-352,-5573,6138,0,0,0
178.51,-2.39,-42.26,-344,-5576,6132,0,0,0
178.51,-2.39,-42.26,-344,-5575,6128,-1,0,0
178.51,-2.39,-42.26,-344,-5574,6138,-1,0,0
178.51,-2.39,-42.26,-331,-5582,6142,-1,0,0
178.51,-2.39,-42.26,-337,-5582,6139,-1,0,0
178.51,-2.40,-42.26,-349,-5589,6136,-1,0,0
178.50,-2.41,-42.26,-348,-5581,6128,-1,0,0
178.50,-2.41,-42.26,-346,-5582,6127,0,0,0
178.50,-2.41,-42.26,-350,-5576,6130,0,-1,0
178.50,-2.41,-42.25,-353,-5582,6137,0,-1,0
178.50,-2.41,-42.25,-345,-5580,6143,0,-1,0
178.50,-2.41,-42.24,-347,-5581,6142,0,-1,0
178.50,-2.41,-42.24,-343,-5576,6134,0,-1,0
178.50,-2.41,-42.24,-339,-5575,6136,0,-1,0
178.50,-2.41,-42.24,-338,-5573,6143,0,-1,0
178.50,-2.41,-42.24,-340,-5578,6141,0,-1,0
178.50,-2.41,-42.24,-342,-5575,6140,0,0,0
178.49,-2.42,-42.23,-348,-5570,6143,-1,0,0
178.49,-2.42,-42.24,-351,-5577,6140,-1,0,0
178.49,-2.42,-42.24,-355,-5582,6136,-1,-1,0
178.49,-2.42,-42.24,-353,-5592,6129,0,0,0
178.49,-2.42,-42.24,-346,-5587,6131,0,-1,0
178.48,-2.42,-42.24,-337,-5569,6131,0,-1,0
178.47,-2.43,-42.24,-336,-5567,6131,-1,0,0
178.47,-2.43,-42.24,-352,-5580,6135,-1,0,0
178.46,-2.45,-42.24,-360,-5580,6135,0,0,0
178.46,-2.46,-42.23,-355,-5579,6138,0,0,0
178.45,-2.46,-42.23,-368,-5574,6152,0,0,0
178.45,-2.46,-42.23,-362,-5579,6137,0,-1,0
178.45,-2.46,-42.23,-349,-5576,6127,0,-1,0
178.44,-2.47,-42.22,-338,-5569,6134,0,0,0
178.44,-2.47,-42.22,-338,-5567,6149,-1,0,0
178.43,-2.48,-42.21,-335,-5560,6153,-1,0,0
178.43,-2.48,-42.22,-345,-5563,6142,-1,0,0
178.42,-2.49,-42.23,-354,-5568,6144,-1,0,0
178.41,-2.50,-42.23,-348,-5571,6146,-1,0,0
178.41,-2.51,-42.24,-356,-5575,6141,-1,0,0
178.40,-2.52,-42.24,-361,-5583,6144,-1,0,0
178.40,-2.53,-42.24,-359,-5584,6135,0,0,0
178.39,-2.54,-42.24,-364,-5585,6138,0,0,0
178.38,-2.55,-42.24,-358,-5585,6143,0,0,0
178.37,-2.56,-42.24,-368,-5578,6144,-1,0,0
178.36,-2.57,-42.23,-373,-5577,6143,0,0,0
178.36,-2.57,-42.23,-366,-5579,6155,-1,0,0
178.35,-2.58,-42.23,-365,-5577,6142,-1,0,0
178.35,-2.58,-42.23,-366,-5571,6138,-1,0,0
178.34,-2.58,-42.24,-366,-5572,6141,-1,0,0
178.33,-2.59,-42.24,-375,-5577,6137,-1,-1,0
178.33,-2.59,-42.24,-368,-5577,6140,0,-1,0
178.33,-2.59,-42.24,-371,-5578,6145,0,-1,0
178.33,-2.59,-42.24,-384,-5583,6136,0,-1,-1
178.33,-2.58,-42.23,-375,-5574,6145,0,-1,-1
178.33,-2.58,-42.23,-373,-5573,6147,0,-1,-1
178.34,-2.57,-42.23,-357,-5567,6149,-1,-1,0
178.34,-2.57,-42.23,-361,-5560,6146,-1,-1,-1
178.34,-2.56,-42.23,-368,-5561,6147,-1,-1,-1
178.34,-2.56,-42.23,-366,-5569,6157,-1,-1,-1
178.35,-2.55,-42.23,-372,-5582,6154,-1,-1,-1
178.35,-2.55,-42.23,-371,-5577,6142,-1,-1,-1
178.35,-2.54,-42.24,-366,-5575,6137,-1,-1,-1
178.35,-2.53,-42.23,-360,-5576,6139,0,-1,-1
178.35,-2.53,-42.23,-356,-5564,6133,0,-1,-1
178.36,-2.53,-42.23,-360,-5572,6145,-1,-1,-1
178.36,-2.52,-42.23,-356,-5575,6138,0,-1,-1
178.37,-2.51,-42.23,-348,-5572,6132,-1,-1,-1
178.38,-2.50,-42.23,-356,-5569,6130,0,-1,-1
178.37,-2.50,-42.23,-352,-5565,6139,-1,-1,-1
178.37,-2.50,-42.24,-364,-5568,6133,-1,-1,0
178.37,-2.50,-42.25,-367,-5577,6137,-1,0,-1
178.37,-2.50,-42.24,-375,-5584,6139,0,-1,-1
178.38,-2.50,-42.24,-374,-5586,6147,0,-1,-1
178.38,-2.50,-42.24,-371,-5586,6146,-1,-1,-1
178.38,-2.49,-42.24,-358,-5580,6142,0,-1,-1
178.39,-2.48,-42.24,-351,-5576,6142,0,-1,-1
178.39,-2.48,-42.24,-348,-5572,6138,0,-1,-1
178.39,-2.47,-42.24,-345,-5573,6143,-1,-1,0
178.39,-2.47,-42.24,-346,-5570,6140,-1,0,0
178.39,-2.47,-42.24,-346,-5573,6150,-1,0,-1
178.39,-2.47,-42.24,-353,-5574,6142,-1,0,-1
178.39,-2.47,-42.25,-362,-5580,6134,-1,-1,-1
178.39,-2.47,-42.25,-365,-5577,6132,-1,-1,-1
178.40,-2.47,-42.25,-360,-5580,6137,-1,-1,-1
178.40,-2.47,-42.25,-356,-5577,6135,-1,0,-1
178.40,-2.47,-42.25,-361,-5577,6141,0,-1,-1
178.40,-2.47,-42.25,-365,-5582,6133,0,-1,-1
178.41,-2.46,-42.26,-364,-5581,6139,-1,-1,-1
178.41,-2.46,-42.25,-359,-5574,6149,-1,-1,-1
178.41,-2.46,-42.25,-351,-5570,6157,-1,-1,-1
178.42,-2.45,-42.25,-350,-5569,6154,-1,-1,-1
178.42,-2.45,-42.25,-342,-5563,6150,-1,-1,-1
178.42,-2.45,-42.25,-336,-5566,6149,-1,0,0
178.43,-2.44,-42.26,-343,-5571,6141,-1,0,0
178.43,-2.44,-42.26,-356,-5575,6147,-1,0,-1
178.43,-2.44,-42.26,-363,-5573,6139,-1,-1,-1
178.43,-2.44,-42.26,-357,-5577,6129,-1,-1,-1
178.43,-2.44,-42.26,-346,-5576,6127,0,0,-1
178.43,-2.44,-42.26,-338,-5566,6142,0,0,-1
178.43,-2.44,-42.26,-353,-5585,6149,0,-1,-1
178.44,-2.44,-42.26,-352,-5580,6153,-1,-1,-1
178.44,-2.43,-42.26,-350,-5574,6140,-1,-1,-1
178.44,-2.43,-42.26,-352,-5575,6145,-1,-1,-1
178.45,-2.43,-42.26,-342,-5576,6138,0,0,-1
178.45,-2.42,-42.26,-348,-5572,6142,-1,-1,-1
178.45,-2.43,-42.26,-345,-5577,6145,-1,0,0
178.45,-2.42,-42.26,-347,-5586,6140,-1,0,-1
178.45,-2.43,-42.27,-358,-5593,6137,0,0,-1
178.45,-2.43,-42.27,-359,-5594,6137,0,-1,-1
178.45,-2.42,-42.26,-348,-5580,6142,0,-1,-1
178.45,-2.42,-42.26,-352,-5571,6140,-1,-1,0
178.45,-2.42,-42.26,-355,-5578,6136,-1,0,0
178.45,-2.43,-42.26,-353,-5580,6139,-1,0,0
178.45,-2.43,-42.26,-357,-5579,6154,-1,0,-1
178.45,-2.43,-42.26,-362,-5576,6152,-1,-1,-1
178.45,-2.43,-42.27,-361,-5578,6144,-1,-1,-1
178.46,-2.42,-42.26,-347,-5577,6143,-1,-1,-1
178.46,-2.41,-42.26,-332,-5581,6152,0,-1,-1
178.46,-2.41,-42.26,-331,-5581,6134,0,-1,-1
178.46,-2.41,-42.26,-336,-5575,6135,0,-1,0
178.46,-2.41,-42.26,-339,-5577,6139,-1,0,-1
178.46,-2.41,-42.26,-346,-5572,6141,-1,0,0
178.46,-2.41,-42.26,-350,-5574,6142,-1,-1,-1
178.46,-2.41,-42.26,-346,-5568,6132,-1,0,-1
178.47,-2.41,-42.27,-344,-5572,6120,-1,0,-1
178.47,-2.41,-42.27,-340,-5579,6131,-1,-1,-1
178.47,-2.41,-42.27,-340,-5583,6129,0,0,-1
178.47,-2.41,-42.27,-343,-5578,6132,0,0,-1
178.47,-2.41,-42.26,-348,-5583,6149,-1,-1,-1
178.47,-2.41,-42.27,-350,-5581,6145,-1,-1,-1
178.48,-2.40,-42.27,-350,-5580,6146,-1,-1,-1
178.48,-2.40,-42.27,-340,-5576,6139,-1,-1,-1
178.48,-2.40,-42.27,-332,-5571,6137,-1,-1,-1
178.49,-2.40,-42.27,-336,-5574,6141,-1,0,-1
178.49,-2.40,-42.28,-341,-5579,6128,-1,0,0
178.49,-2.40,-42.28,-341,-5581,6132,-1,0,0
178.49,-2.40,-42.29,-354,-5589,6145,-1,0,-1
178.49,-2.40,-42.29,-358,-5590,6139,-1,-1,0
178.48,-2.41,-42.29,-361,-5589,6133,0,0,-1
178.49,-2.40,-42.29,-354,-5586,6132,-1,-1,-1
178.49,-2.40,-42.29,-352,-5583,6133,-1,-1,0
178.49,-2.40,-42.28,-352,-5577,6136,0,0,0
178.49,-2.40,-42.28,-345,-5577,6143,-1,-1,0
178.48,-2.41,-42.28,-342,-5578,6147,-1,0,0
178.48,-2.41,-42.28,-343,-5572,6144,-1,0,0
178.48,-2.41,-42.29,-340,-5585,6130,-1,0,0
178.48,-2.41,-42.29,-339,-5590,6132,-1,-1,-1
178.48,-2.41,-42.29,-343,-5594,6135,0,-1,-1
178.48,-2.41,-42.29,-340,-5588,6132,0,-1,0
178.48,-2.41,-42.29,-344,-5583,6129,0,-1,0
178.48,-2.41,-42.29,-345,-5585,6131,0,-1,0
178.47,-2.41,-42.29,-338,-5580,6138,-1,0,0
178.48,-2.41,-42.29,-342,-5579,6139,0,0,0
178.48,-2.41,-42.28,-343,-5567,6140,0,0,-1
178.48,-2.41,-42.28,-355,-5582,6151,-1,-1,0
178.48,-2.41,-42.28,-344,-5579,6140,0,-1,-1
178.48,-2.41,-42.28,-344,-5567,6139,0,0,-1
178.49,-2.40,-42.27,-336,-5567,6137,0,-1,-1
178.49,-2.40,-42.27,-328,-5572,6137,-1,-1,0
178.49,-2.40,-42.27,-328,-5568,6136,0,0,0
178.48,-2.40,-42.27,-338,-5570,6133,-1,0,0
178.48,-2.41,-42.27,-333,-5581,6142,-1,0,0
178.49,-2.40,-42.27,-340,-5580,6136,0,0,0
178.48,-2.41,-42.27,-351,-5582,6144,-1,0,0
178.48,-2.41,-42.27,-353,-5583,6141,-1,-1,0
178.48,-2.41,-42.27,-350,-5576,6133,-1,0,0
178.48,-2.41,-42.27,-345,-5582,6121,0,0,0
178.48,-2.42,-42.27,-341,-5583,6134,0,0,0
178.48,-2.42,-42.26,-344,-5575,6141,0,0,0
178.48,-2.42,-42.26,-357,-5572,6149,0,0,0
178.48,-2.42,-42.26,-352,-5570,6157,0,-1,0
178.47,-2.43,-42.25,-340,-5566,6155,0,0,0
178.47,-2.43,-42.25,-346,-5560,6155,-1,0,0
178.47,-2.43,-42.25,-340,-5562,6150,-1,0,0
178.47,-2.44,-42.26,-345,-5576,6132,-1,0,0
178.47,-2.44,-42.26,-345,-5573,6128,-1,0,0
178.47,-2.45,-42.26,-343,-5576,6135,0,0,0
178.46,-2.45,-42.26,-354,-5581,6134,0,0,0
178.46,-2.45,-42.26,-354,-5584,6137,0,0,0
178.46,-2.46,-42.25,-353,-5576,6140,0,0,0
178.45,-2.46,-42.24,-357,-5573,6143,0,0,0
178.45,-2.46,-42.24,-364,-5569,6143,0,0,0
178.45,-2.47,-42.24,-354,-5568,6141,0,0,0
178.45,-2.47,-42.24,-355,-5567,6144,0,0,0
178.44,-2.48,-42.24,-356,-5568,6146,-1,0,0
178.44,-2.48,-42.24,-353,-5569,6148,0,0,0
178.44,-2.48,-42.24,-357,-5567,6145,-1,0,0
178.43,-2.49,-42.24,-367,-5576,6141,-1,0,0
178.43,-2.49,-42.24,-369,-5577,6136,-1,0,-1
178.43,-2.49,-42.24,-360,-5579,6138,-1,0,-1
178.43,-2.49,-42.24,-355,-5574,6133,0,0,0
178.43,-2.49,-42.24,-351,-5574,6129,-1,-1,0
178.42,-2.50,-42.24,-341,-5569,6132,-1,0,0
178.42,-2.50,-42.25,-341,-5576,6137,-1,0,0
178.42,-2.51,-42.25,-357,-5580,6144,-1,0,0
178.41,-2.52,-42.25,-366,-5580,6149,0,0,0
178.41,-2.52,-42.24,-368,-5575,6144,0,0,0
178.41,-2.53,-42.24,-371,-5571,6141,-1,0,0
178.41,-2.53,-42.24,-370,-5570,6144,0,0,0
178.41,-2.53,-42.24,-358,-5574,6141,0,0,0
178.40,-2.54,-42.24,-359,-5561,6140,-1,0,0
178.39,-2.54,-42.24,-344,-5565,6146,0,0,0
178.39,-2.55,-42.24,-341,-5553,6140,-1,0,0
178.39,-2.56,-42.24,-354,-5574,6151,-1,0,0
178.38,-2.56,-42.24,-365,-5570,6157,-1,0,0
178.37,-2.57,-42.25,-366,-5576,6143,-1,0,0
178.36,-2.58,-42.25,-369,-5577,6143,-1,0,0
178.36,-2.59,-42.25,-376,-5578,6137,-1,0,0
178.35,-2.60,-42.26,-374,-5581,6128,-1,0,0
178.35,-2.61,-42.26,-371,-5584,6133,-1,0,0
178.34,-2.61,-42.26,-372,-5584,6132,-1,0,0
178.34,-2.62,-42.26,-383,-5580,6132,0,0,0
178.33,-2.63,-42.26,-392,-5582,6131,0,-1,0
178.32,-2.63,-42.25,-390,-5572,6147,0,-1,0
178.32,-2.63,-42.25,-386,-5566,6137,-1,-1,0
178.32,-2.63,-42.26,-384,-5564,6138,-1,-1,0
178.32,-2.63,-42.26,-378,-5565,6138,-1,-1,0
178.32,-2.63,-42.27,-369,-5563,6142,-1,-1,0
178.32,-2.63,-42.27,-366,-5572,6134,-1,0,0
178.32,-2.63,-42.27,-377,-5577,6140,-1,-1,-1
178.32,-2.63,-42.27,-382,-5578,6142,0,-1,-1
178.32,-2.63,-42.27,-392,-5579,6146,0,-1,-1
178.32,-2.62,-42.27,-381,-5582,6134,0,-1,-1
178.32,-2.62,-42.27,-376,-5582,6132,0,-1,-1
178.32,-2.61,-42.27,-371,-5573,6129,-1,-1,-1
178.33,-2.60,-42.27,-369,-5568,6143,-1,-1,-1
178.33,-2.60,-42.27,-367,-5559,6128,-1,-1,-1
178.34,-2.60,-42.27,-363,-5565,6147,-1,-1,-1
178.34,-2.60,-42.27,-367,-5571,6144,-1,-1,-1
178.34,-2.59,-42.27,-375,-5579,6137,-1,-1,-1
178.34,-2.59,-42.27,-384,-5582,6133,0,-1,-1
178.34,-2.58,-42.27,-377,-5584,6134,0,-1,-1
178.34,-2.58,-42.27,-367,-5579,6135,0,-1,-1
178.35,-2.57,-42.26,-368,-5578,6136,0,-1,-1
178.35,-2.56,-42.26,-365,-5573,6143,0,-1,-1
178.35,-2.56,-42.26,-364,-5567,6137,-1,-1,-1
178.36,-2.55,-42.26,-372,-5576,6126,0,-1,-1
178.36,-2.55,-42.26,-372,-5576,6129,0,-1,-1
178.36,-2.54,-42.25,-365,-5569,6129,0,-1,-1
178.36,-2.54,-42.25,-357,-5571,6133,-1,-1,0
178.36,-2.54,-42.25,-362,-5573,6133,-1,-1,-1
178.36,-2.54,-42.25,-360,-5571,6135,-1,0,0
178.36,-2.54,-42.25,-368,-5575,6139,-1,-1,-1
178.36,-2.54,-42.25,-371,-5576,6143,-1,-1,-1
178.37,-2.53,-42.25,-371,-5573,6139,-1,-1,-1
178.37,-2.53,-42.26,-360,-5574,6140,0,-1,-1
178.38,-2.52,-42.25,-359,-5574,6130,0,-1,-1
178.38,-2.51,-42.25,-356,-5565,6128,-1,-1,-1
178.38,-2.51,-42.25,-358,-5566,6139,-1,-1,-1
178.38,-2.51,-42.25,-356,-5563,6146,-1,-1,-1
178.38,-2.51,-42.25,-362,-5567,6145,-1,-1,-1
178.39,-2.50,-42.26,-364,-5568,6143,-1,0,-1
178.38,-2.51,-42.26,-366,-5576,6148,-1,-1,-1
178.39,-2.50,-42.27,-363,-5576,6140,-1,-1,-1
178.39,-2.50,-42.27,-362,-5576,6133,-1,-1,-1
178.39,-2.50,-42.27,-363,-5580,6136,-1,-1,-1
178.39,-2.50,-42.27,-366,-5576,6144,0,-1,-1
178.39,-2.50,-42.26,-364,-5577,6153,0,-1,-1
178.40,-2.49,-42.26,-364,-5580,6155,0,-1,-1
178.40,-2.48,-42.25,-354,-5571,6156,0,-1,-1
178.40,-2.48,-42.25,-352,-5560,6142,0,-1,-1
178.41,-2.47,-42.24,-348,-5554,6154,-1,-1,-1
178.41,-2.46,-42.24,-351,-5558,6155,-1,-1,-1
178.41,-2.46,-42.25,-344,-5562,6150,-1,-1,-1
178.41,-2.46,-42.25,-344,-5568,6146,-1,0,0
178.41,-2.46,-42.26,-340,-5571,6142,-1,0,0
178.42,-2.46,-42.26,-352,-5566,6129,0,0,-1
178.42,-2.46,-42.26,-362,-5587,6144,-1,0,-1
178.42,-2.46,-42.26,-358,-5586,6156,-1,-1,-1
178.42,-2.46,-42.26,-360,-5588,6142,0,-1,-1
178.42,-2.45,-42.26,-357,-5582,6141,0,-1,-1
178.43,-2.45,-42.25,-353,-5571,6142,0,0,-1
178.43,-2.45,-42.24,-349,-5568,6148,0,0,-1
178.43,-2.45,-42.24,-355,-5567,6142,0,0,-1
178.43,-2.45,-42.24,-347,-5566,6136,-1,0,-1
178.43,-2.45,-42.24,-344,-5575,6139,-1,0,-1
178.43,-2.45,-42.24,-344,-5575,6139,-1,0,-1
178.43,-2.45,-42.25,-349,-5584,6143,0,0,0
178.44,-2.45,-42.24,-351,-5582,6151,-1,-1,-1
178.44,-2.45,-42.25,-351,-5581,6135,-1,0,0
178.44,-2.45,-42.25,-354,-5586,6144,-1,0,-1
178.44,-2.45,-42.26,-354,-5590,6139,-1,0,-1
178.44,-2.45,-42.26,-353,-5587,6133,0,-1,-1
178.44,-2.44,-42.26,-348,-5582,6136,0,-1,-1
178.44,-2.44,-42.26,-339,-5580,6136,-1,-1,0
178.44,-2.44,-42.26,-336,-5579,6140,0,0,0
178.44,-2.44,-42.26,-341,-5581,6142,-1,0,0
178.44,-2.45,-42.26,-353,-5576,6149,-1,0,-1
178.44,-2.45,-42.26,-354,-5573,6151,-1,-1,-1
178.45,-2.44,-42.26,-353,-5574,6147,-1,-1,-1
178.45,-2.44,-42.26,-350,-5585,6138,0,-1,-1
178.46,-2.44,-42.26,-351,-5587,6137,0,-1,-1
178.46,-2.43,-42.25,-345,-5580,6136,0,-1,-1
178.46,-2.43,-42.25,-333,-5574,6136,0,-1,-1
178.46,-2.43,-42.25,-336,-5564,6129,-1,-1,0
178.46,-2.43,-42.25,-340,-5567,6138,-1,0,0
178.46,-2.43,-42.26,-352,-5572,6141,-1,0,-1
178.47,-2.43,-42.26,-347,-5571,6138,0,0,-1
178.47,-2.43,-42.26,-356,-5579,6141,-1,-1,-1
178.47,-2.43,-42.26,-350,-5584,6145,-1,-1,-1
178.47,-2.43,-42.26,-354,-5587,6133,0,0,-1
178.47,-2.43,-42.26,-355,-5587,6125,0,-1,-1
178.47,-2.43,-42.25,-356,-5585,6144,0,-1,-1
178.47,-2.42,-42.25,-350,-5577,6147,0,-1,-1
178.48,-2.41,-42.24,-346,-5574,6136,0,-1,-1
178.48,-2.41,-42.24,-337,-5570,6141,0,-1,-1
178.48,-2.41,-42.24,-338,-5568,6144,-1,0,0
178.48,-2.41,-42.24,-345,-5566,6131,0,0,-1
178.47,-2.42,-42.24,-346,-5567,6137,-1,-1,0
178.47,-2.41,-42.24,-339,-5571,6148,-1,0,0
178.47,-2.42,-42.24,-343,-5576,6150,-1,0,0
178.47,-2.42,-42.25,-342,-5578,6146,-1,0,0
178.47,-2.42,-42.25,-342,-5579,6140,-1,0,0
178.47,-2.42,-42.25,-353,-5583,6130,0,0,0
178.47,-2.42,-42.25,-362,-5584,6125,0,-1,-1
178.47,-2.42,-42.25,-356,-5581,6131,0,-1,-1
178.47,-2.42,-42.24,-338,-5575,6142,0,-1,0
178.47,-2.42,-42.24,-344,-5574,6147,-1,-1,0
178.47,-2.42,-42.24,-344,-5571,6153,-1,0,0
178.47,-2.42,-42.24,-345,-5565,6154,-1,-1,0
178.46,-2.43,-42.24,-341,-5562,6147,-1,0,0
178.46,-2.43,-42.24,-345,-5568,6143,-1,0,-1
178.46,-2.43,-42.25,-344,-5582,6140,-1,0,-1
178.46,-2.43,-42.25,-346,-5581,6127,0,-1,0
178.46,-2.43,-42.24,-343,-5568,6125,0,-1,0
178.46,-2.43,-42.24,-333,-5568,6134,0,0,0
178.46,-2.43,-42.24,-343,-5568,6140,-1,0,0
178.46,-2.44,-42.24,-346,-5567,6143,0,0,0
178.46,-2.44,-42.24,-359,-5575,6157,-1,0,0
178.46,-2.45,-42.24,-357,-5580,6148,-1,0,-1
178.46,-2.44,-42.24,-358,-5582,6146,-1,-1,-1
178.46,-2.44,-42.24,-357,-5589,6133,0,-1,-1
178.46,-2.44,-42.24,-349,-5580,6136,0,-1,0
178.46,-2.43,-42.23,-343,-5572,6146,0,-1,0
178.46,-2.43,-42.22,-331,-5562,6148,0,0,0
178.46,-2.44,-42.22,-345,-5561,6149,-1,0,0
178.45,-2.44,-42.22,-353,-5562,6141,-1,0,0
178.45,-2.45,-42.22,-354,-5563,6147,-1,0,0
178.45,-2.45,-42.22,-355,-5565,6146,0,0,0
178.45,-2.45,-42.22,-354,-5574,6128,-1,0,0
178.45,-2.45,-42.23,-353,-5577,6129,-1,0,0
178.45,-2.45,-42.23,-348,-5582,6122,0,0,0
178.45,-2.45,-42.22,-350,-5574,6133,0,0,0
178.45,-2.45,-42.22,-360,-5576,6146,0,0,0
178.44,-2.46,-42.21,-353,-5571,6147,0,-1,0
178.44,-2.46,-42.20,-338,-5561,6152,0,0,0
178.44,-2.46,-42.20,-341,-5560,6145,-1,0,0
178.44,-2.46,-42.20,-341,-5561,6143,0,0,0
178.43,-2.47,-42.20,-346,-5561,6149,-1,0,0
178.43,-2.47,-42.20,-344,-5557,6148,-1,0,0
178.43,-2.47,-42.21,-351,-5558,6150,-1,0,0
178.43,-2.48,-42.21,-364,-5563,6142,-1,0,0
178.42,-2.48,-42.21,-358,-5573,6141,0,0,0
178.42,-2.49,-42.21,-356,-5569,6140,0,0,0
178.42,-2.49,-42.20,-356,-5569,6155,0,0,0
178.42,-2.49,-42.19,-357,-5563,6155,0,0,0
178.41,-2.50,-42.19,-354,-5558,6145,-1,0,0
178.41,-2.50,-42.19,-350,-5561,6152,-1,0,0
178.41,-2.50,-42.19,-354,-5563,6152,-1,0,0
178.41,-2.50,-42.19,-361,-5564,6146,-1,0,0
178.40,-2.51,-42.20,-358,-5565,6141,-1,0,0
178.40,-2.51,-42.20,-364,-5572,6144,-1,0,0
178.40,-2.52,-42.20,-367,-5576,6147,0,0,0
178.40,-2.52,-42.20,-356,-5570,6136,0,0,0
178.40,-2.52,-42.20,-359,-5555,6141,-1,0,0
178.39,-2.53,-42.20,-364,-5566,6142,-1,0,0
178.39,-2.53,-42.21,-363,-5569,6134,-1,0,0
178.39,-2.54,-42.21,-369,-5571,6139,0,0,0
178.39,-2.54,-42.20,-374,-5570,6147,-1,0,0
178.39,-2.54,-42.20,-375,-5571,6153,-1,-1,-1
178.39,-2.54,-42.20,-371,-5568,6149,-1,-1,-1
178.39,-2.54,-42.20,-363,-5566,6154,0,-1,0
178.39,-2.53,-42.20,-354,-5562,6149,0,0,0
178.39,-2.53,-42.19,-351,-5559,6146,0,0,0
178.39,-2.53,-42.19,-358,-5560,6153,-1,-1,0
178.38,-2.53,-42.19,-358,-5557,6148,-1,-1,0
178.38,-2.53,-42.20,-364,-5560,6148,-1,0,0
178.38,-2.53,-42.20,-356,-5573,6151,-1,0,0
178.38,-2.53,-42.21,-369,-5574,6136,-1,-1,-1
178.38,-2.54,-42.21,-379,-5580,6150,0,-1,0
178.38,-2.53,-42.20,-375,-5576,6149,0,-1,-1
178.38,-2.53,-42.20,-374,-5576,6140,0,-1,-1
178.38,-2.53,-42.19,-368,-5572,6153,0,-1,-1
178.39,-2.53,-42.19,-357,-5566,6151,0,-1,-1
178.39,-2.52,-42.19,-360,-5568,6156,-1,-1,-1
178.40,-2.51,-42.19,-354,-5568,6153,-1,-1,-1
178.40,-2.51,-42.19,-350,-5561,6149,-1,-1,-1
178.40,-2.51,-42.19,-351,-5554,6146,-1,-1,-1
178.40,-2.51,-42.20,-351,-5568,6144,-1,-1,-1
178.40,-2.51,-42.20,-359,-5571,6142,-1,-1,-1
178.40,-2.50,-42.21,-361,-5577,6130,-1,-1,-1
178.40,-2.50,-42.21,-366,-5579,6132,-1,-1,-1
178.40,-2.50,-42.21,-366,-5582,6130,0,-1,-1
178.40,-2.49,-42.21,-361,-5587,6137,0,-1,-1
178.41,-2.49,-42.21,-359,-5584,6135,0,-1,-1
178.41,-2.48,-42.21,-360,-5573,6141,0,-1,-1
178.42,-2.48,-42.20,-357,-5563,6142,0,-1,-1
178.42,-2.47,-42.20,-354,-5563,6145,-1,-1,-1
178.42,-2.47,-42.20,-348,-5565,6145,0,-1,-1
178.42,-2.46,-42.20,-351,-5552,6140,-1,-1,-1
178.43,-2.46,-42.20,-353,-5562,6142,-1,-1,-1
178.43,-2.46,-42.20,-358,-5567,6148,-1,-1,-1
178.43,-2.46,-42.21,-353,-5575,6139,0,-1,-1
178.44,-2.45,-42.20,-353,-5577,6145,0,-1,-1
178.44,-2.45,-42.20,-349,-5573,6138,0,-1,-1
178.44,-2.44,-42.20,-353,-5572,6129,-1,-1,-1
178.44,-2.44,-42.20,-349,-5571,6131,0,0,-1
178.44,-2.44,-42.20,-353,-5573,6141,0,0,-1
178.44,-2.45,-42.20,-360,-5569,6141,0,0,-1
178.45,-2.44,-42.20,-366,-5564,6142,-1,0,-1
178.45,-2.44,-42.20,-370,-5570,6138,-1,-1,-1
178.45,-2.43,-42.20,-357,-5574,6137,-1,-1,-1
178.45,-2.42,-42.20,-349,-5570,6136,0,-1,-1
178.46,-2.41,-42.20,-337,-5556,6131,0,-1,-1
178.46,-2.41,-42.20,-337,-5553,6145,0,0,-1
178.46,-2.41,-42.20,-344,-5556,6151,-1,-1,-1
178.46,-2.41,-42.20,-336,-5562,6149,-1,-1,-1
178.47,-2.41,-42.20,-339,-5567,6150,-1,0,-1
178.47,-2.41,-42.20,-346,-5569,6148,-1,0,-1
178.47,-2.41,-42.21,-348,-5581,6141,-1,-1,-1
178.47,-2.41,-42.21,-349,-5582,6137,-1,-1,-1
178.48,-2.40,-42.22,-345,-5578,6137,0,0,-1
178.48,-2.40,-42.22,-348,-5583,6134,0,0,-1
178.48,-2.40,-42.21,-346,-5579,6139,0,-1,-1
178.48,-2.40,-42.21,-340,-5572,6150,-1,-1,-1
178.49,-2.39,-42.21,-344,-5573,6159,0,-1,-1
178.49,-2.39,-42.20,-336,-5569,6162,-1,-1,-1
178.49,-2.39,-42.21,-339,-5564,6153,-1,0,-1
178.50,-2.39,-42.21,-342,-5570,6142,-1,0,-1
178.50,-2.39,-42.22,-347,-5565,6142,-1,0,-1
178.50,-2.39,-42.22,-345,-5575,6139,-1,0,-1
178.49,-2.39,-42.22,-344,-5571,6127,0,0,-1
178.50,-2.39,-42.22,-346,-5573,6135,0,0,-1
178.50,-2.39,-42.22,-357,-5577,6143,0,-1,-1
178.50,-2.38,-42.22,-363,-5582,6139,0,-1,-1
178.50,-2.38,-42.21,-343,-5569,6147,0,-1,-1
178.51,-2.37,-42.21,-337,-5560,6154,-1,0,-1
178.51,-2.37,-42.20,-326,-5558,6157,-1,0,-1
178.52,-2.37,-42.21,-332,-5565,6150,-1,0,-1
178.52,-2.37,-42.22,-345,-5578,6150,-1,-1,-1
178.52,-2.37,-42.22,-345,-5574,6151,-1,-1,-1
178.52,-2.37,-42.22,-348,-5572,6143,0,0,-1
178.53,-2.36,-42.22,-338,-5571,6142,0,0,-1
178.53,-2.36,-42.22,-339,-5573,6139,0,-1,-1
178.53,-2.36,-42.21,-331,-5559,6132,0,-1,-1
178.54,-2.35,-42.21,-333,-5557,6145,-1,0,-1
178.53,-2.36,-42.21,-346,-5563,6151,-1,0,-1
178.53,-2.36,-42.22,-347,-5567,6145,-1,0,-1
178.54,-2.36,-42.22,-343,-5571,6129,0,0,-1
178.54,-2.36,-42.22,-339,-5572,6138,-1,-1,-1
178.54,-2.35,-42.22,-336,-5574,6143,-1,-1,0
178.54,-2.35,-42.22,-330,-5578,6145,-1,0,0
178.54,-2.36,-42.22,-335,-5579,6139,-1,0,-1
178.54,-2.36,-42.22,-348,-5574,6145,-1,0,0
178.54,-2.36,-42.23,-349,-5579,6156,-1,0,0
178.54,-2.36,-42.23,-348,-5576,6153,-1,0,-1
178.54,-2.36,-42.23,-347,-5583,6144,-1,-1,-1
178.54,-2.36,-42.23,-332,-5572,6136,0,-1,-1
178.54,-2.36,-42.23,-331,-5569,6143,0,0,0
178.53,-2.37,-42.23,-337,-5567,6148,-1,0,0
178.53,-2.37,-42.22,-336,-5559,6154,-1,0,0
178.53,-2.37,-42.22,-344,-5555,6153,-1,0,0
178.52,-2.38,-42.23,-345,-5560,6149,-1,0,0
178.52,-2.38,-42.23,-351,-5567,6135,-1,0,0
178.52,-2.38,-42.24,-351,-5574,6135,-1,-1,0
178.52,-2.38,-42.24,-346,-5574,6129,-1,0,-1
178.52,-2.38,-42.24,-352,-5570,6120,0,0,0
178.52,-2.38,-42.24,-348,-5574,6125,0,-1,0
178.52,-2.38,-42.24,-348,-5574,6136,0,-1,-1
178.52,-2.38,-42.23,-342,-5576,6148,0,-1,-1
178.52,-2.38,-42.23,-340,-5579,6133,0,-1,-1
178.52,-2.38,-42.23,-340,-5574,6139,0,-1,-1
178.52,-2.38,-42.23,-332,-5575,6139,0,0,0
178.52,-2.38,-42.23,-337,-5566,6138,-1,0,0
178.52,-2.38,-42.23,-331,-5564,6144,-1,0,0
178.52,-2.38,-42.23,-338,-5561,6143,-1,0,0
178.51,-2.38,-42.24,-348,-5584,6148,-1,-1,0
178.51,-2.38,-42.24,-344,-5579,6144,-1,0,-1
178.51,-2.39,-42.24,-357,-5582,6135,0,0,-1
178.51,-2.39,-42.24,-357,-5586,6131,0,-1,0
178.51,-2.39,-42.23,-348,-5580,6133,0,0,-1
178.51,-2.39,-42.22,-344,-5574,6136,0,-1,-1
178.51,-2.38,-42.22,-333,-5570,6144,0,-1,0
178.51,-2.38,-42.21,-331,-5567,6153,-1,0,0
178.51,-2.39,-42.21,-338,-5560,6143,0,0,0
178.50,-2.39,-42.21,-343,-5565,6145,-1,-1,0
178.50,-2.40,-42.21,-353,-5572,6145,-1,0,-1
178.50,-2.39,-42.22,-349,-5573,6144,-1,0,-1
178.50,-2.40,-42.22,-345,-5577,6142,0,0,0
178.50,-2.40,-42.21,-348,-5573,6146,0,0,0
178.49,-2.40,-42.21,-352,-5562,6138,-1,0,0
178.49,-2.41,-42.21,-354,-5559,6139,-1,0,0
178.49,-2.41,-42.21,-345,-5573,6141,0,0,-1
178.49,-2.41,-42.20,-339,-5568,6145,0,0,-1
178.49,-2.41,-42.20,-343,-5561,6149,0,0,0
178.49,-2.41,-42.20,-333,-5565,6146,0,0,0
178.48,-2.42,-42.20,-336,-5564,6150,-1,0,0
178.48,-2.42,-42.20,-349,-5569,6156,-1,0,0
178.48,-2.42,-42.20,-366,-5570,6152,-1,0,0
178.48,-2.43,-42.19,-363,-5569,6158,-1,-1,-1
178.48,-2.43,-42.19,-359,-5562,6150,0,-1,-1
178.48,-2.43,-42.19,-353,-5566,6144,0,-1,-1
178.48,-2.43,-42.18,-341,-5563,6142,0,0,0
178.47,-2.43,-42.18,-346,-5568,6158,0,0,0
178.47,-2.43,-42.18,-342,-5567,6160,-1,0,0
178.47,-2.44,-42.18,-349,-5566,6142,-1,0,0
178.46,-2.45,-42.18,-355,-5569,6144,-1,0,0
178.46,-2.45,-42.19,-361,-5576,6138,-1,0,0
178.46,-2.45,-42.19,-358,-5577,6147,-1,0,0
178.46,-2.46,-42.19,-357,-5583,6146,-1,0,0
178.45,-2.46,-42.20,-356,-5575,6135,0,0,0
178.45,-2.46,-42.20,-355,-5569,6138,-1,0,0
178.45,-2.47,-42.19,-359,-5570,6133,0,0,0
178.44,-2.48,-42.19,-360,-5575,6147,-1,0,0
178.44,-2.48,-42.19,-356,-5567,6145,-1,0,0
178.44,-2.48,-42.19,-355,-5568,6158,-1,0,0
178.43,-2.48,-42.19,-352,-5570,6163,-1,0,0
178.43,-2.49,-42.19,-355,-5566,6163,-1,0,0
178.43,-2.50,-42.19,-354,-5565,6154,-1,0,0
178.42,-2.50,-42.19,-359,-5567,6150,-1,0,0
178.42,-2.51,-42.20,-362,-5572,6151,-1,0,0
178.42,-2.52,-42.21,-372,-5574,6155,-1,0,0
178.41,-2.52,-42.21,-371,-5578,6148,-1,0,0
178.41,-2.53,-42.22,-375,-5578,6146,-1,0,0
178.40,-2.54,-42.22,-371,-5577,6140,-1,0,0
178.40,-2.54,-42.23,-364,-5573,6131,-1,0,0
178.40,-2.55,-42.23,-369,-5568,6139,-1,0,0
178.40,-2.55,-42.23,-382,-5581,6142,0,0,-1
178.40,-2.55,-42.22,-381,-5575,6147,0,-1,-1
178.40,-2.55,-42.22,-374,-5576,6153,0,-1,-1
178.40,-2.54,-42.21,-372,-5563,6162,0,-1,-1
178.40,-2.54,-42.21,-366,-5554,6156,-1,-1,0
178.40,-2.54,-42.21,-362,-5559,6151,-1,0,-1
178.40,-2.54,-42.21,-363,-5571,6151,-1,0,-1
178.41,-2.53,-42.22,-368,-5579,6150,-1,-1,-1
178.41,-2.53,-42.22,-363,-5572,6144,0,-1,-1
178.41,-2.53,-42.22,-362,-5565,6154,-1,-1,-1
178.41,-2.53,-42.22,-379,-5574,6161,-1,0,-1
178.41,-2.53,-42.23,-378,-5587,6139,-1,-1,-1
178.41,-2.53,-42.24,-378,-5580,6138,-1,0,-1
178.42,-2.53,-42.24,-378,-5581,6141,-1,-1,-1
178.42,-2.53,-42.24,-373,-5577,6135,-1,-1,-1
178.42,-2.52,-42.24,-378,-5574,6136,-1,-1,-1
178.42,-2.51,-42.24,-378,-5591,6132,-1,-1,-1
178.42,-2.50,-42.24,-345,-5578,6134,0,-1,-1
178.43,-2.49,-42.24,-335,-5560,6160,-1,0,-1
178.43,-2.49,-42.24,-343,-5556,6168,-1,-1,-1
178.43,-2.49,-42.24,-358,-5560,6150,-1,-1,-1
178.44,-2.48,-42.26,-360,-5572,6136,-1,-1,-1
178.43,-2.48,-42.27,-368,-5587,6126,-1,-1,-1
178.43,-2.48,-42.27,-374,-5597,6130,0,-1,-1
178.44,-2.47,-42.27,-369,-5600,6128,0,-1,-1
178.44,-2.47,-42.26,-366,-5590,6140,0,-1,-1
178.44,-2.46,-42.26,-369,-5578,6145,0,-1,-1
178.45,-2.45,-42.25,-365,-5576,6141,0,-1,-1
178.45,-2.45,-42.25,-365,-5578,6144,0,-1,-1
178.45,-2.44,-42.24,-356,-5577,6147,0,-1,-1
178.45,-2.43,-42.23,-345,-5564,6145,0,-1,-1
178.46,-2.43,-42.23,-348,-5563,6144,0,-1,-1
178.46,-2.42,-42.23,-340,-5563,6150,0,-1,-1
178.46,-2.42,-42.23,-349,-5562,6156,-1,-1,-1
178.46,-2.41,-42.23,-350,-5571,6143,0,0,-1
178.47,-2.41,-42.23,-348,-5574,6145,0,-1,-1
178.47,-2.41,-42.23,-352,-5575,6148,-1,-1,-1
178.47,-2.40,-42.23,-356,-5571,6148,0,-1,-1
178.47,-2.40,-42.22,-356,-5570,6157,0,-1,-1
178.48,-2.39,-42.22,-362,-5577,6147,0,-1,-1
178.48,-2.39,-42.21,-354,-5576,6145,0,-1,-1
178.48,-2.38,-42.21,-342,-5560,6142,0,-1,-1
178.48,-2.37,-42.20,-345,-5562,6141,0,-1,-1
178.48,-2.37,-42.20,-342,-5570,6145,-1,-1,-1
178.49,-2.37,-42.20,-338,-5570,6145,-1,-1,-1
178.49,-2.36,-42.21,-342,-5570,6140,-1,0,-1
178.49,-2.36,-42.21,-338,-5575,6143,-1,0,-1
178.49,-2.36,-42.21,-342,-5580,6148,0,0,-1
178.50,-2.36,-42.20,-338,-5580,6161,0,-1,-1
178.50,-2.36,-42.20,-335,-5573,6149,-1,-1,-1
178.50,-2.35,-42.20,-335,-5568,6133,-1,0,-1
178.50,-2.36,-42.20,-337,-5572,6135,0,0,-1
178.51,-2.36,-42.20,-341,-5562,6133,0,0,-1
178.51,-2.36,-42.20,-349,-5574,6148,-1,-1,-1
178.51,-2.36,-42.20,-355,-5578,6147,-1,-1,-1
178.51,-2.36,-42.20,-357,-5579,6134,0,-1,-1
178.52,-2.35,-42.20,-348,-5583,6137,0,-1,-1
178.52,-2.34,-42.20,-335,-5571,6153,0,-1,-1
178.52,-2.34,-42.20,-323,-5573,6158,0,-1,-1
178.52,-2.34,-42.20,-331,-5571,6155,0,-1,0
178.52,-2.34,-42.20,-337,-5570,6151,-1,-1,0
178.52,-2.34,-42.20,-340,-5571,6147,-1,0,-1
178.52,-2.34,-42.20,-341,-5576,6149,-1,0,0
178.52,-2.34,-42.20,-341,-5570,6153,0,0,-1
178.53,-2.33,-42.20,-343,-5569,6141,-1,-1,-1
178.53,-2.33,-42.20,-346,-5574,6143,-1,-1,-1
178.53,-2.33,-42.20,-350,-5579,6133,0,-1,-1
178.53,-2.33,-42.20,-346,-5586,6150,0,-1,-1
178.53,-2.33,-42.19,-337,-5571,6146,0,-1,-1
178.53,-2.33,-42.19,-338,-5558,6148,-1,0,-1
178.54,-2.33,-42.19,-341,-5552,6151,-1,0,-1
178.54,-2.33,-42.19,-342,-5548,6148,-1,-1,-1
178.54,-2.33,-42.20,-330,-5557,6142,-1,0,-1
178.54,-2.33,-42.21,-326,-5568,6138,-1,0,-1
178.54,-2.33,-42.22,-340,-5571,6140,-1,0,-1
178.54,-2.33,-42.23,-343,-5578,6134,-1,0,-1
178.54,-2.33,-42.23,-339,-5576,6134,-1,0,-1
178.55,-2.33,-42.23,-343,-5574,6137,-1,0,-1
178.55,-2.33,-42.23,-340,-5571,6141,0,0,-1
178.54,-2.33,-42.22,-351,-5572,6142,-1,-1,-1
178.55,-2.33,-42.22,-347,-5569,6151,0,-1,-1
178.55,-2.32,-42.22,-350,-5567,6151,0,-1,-1
178.55,-2.32,-42.21,-337,-5567,6154,0,0,-1
178.55,-2.32,-42.21,-337,-5568,6153,-1,0,-1
178.55,-2.32,-42.21,-335,-5560,6153,-1,0,-1
178.56,-2.32,-42.21,-330,-5569,6163,-1,0,-1
178.56,-2.32,-42.22,-338,-5575,6152,-1,0,-1
178.56,-2.32,-42.22,-343,-5576,6144,0,-1,-1
178.56,-2.32,-42.22,-343,-5575,6143,0,-1,-1
178.56,-2.32,-42.22,-330,-5572,6138,0,-1,-1
178.57,-2.31,-42.21,-331,-5573,6143,0,0,-1
178.57,-2.31,-42.21,-339,-5575,6138,0,0,-1
178.57,-2.31,-42.20,-347,-5566,6146,0,0,-1
178.57,-2.31,-42.20,-344,-5563,6152,0,0,-1
178.57,-2.31,-42.20,-341,-5558,6158,0,-1,-1
178.57,-2.31,-42.20,-346,-5564,6155,0,0,-1
178.58,-2.30,-42.19,-336,-5567,6154,-1,-1,-1
178.59,-2.29,-42.19,-336,-5572,6149,0,-1,-1
178.59,-2.29,-42.19,-331,-5568,6151,0,-1,-1
178.59,-2.29,-42.19,-336,-5567,6152,-1,-1,-1
178.59,-2.29,-42.19,-335,-5563,6167,-1,0,0
178.58,-2.30,-42.19,-333,-5567,6160,-1,0,0
178.58,-2.30,-42.19,-335,-5565,6159,-1,0,0
178.58,-2.30,-42.20,-339,-5572,6151,-1,0,0
178.58,-2.30,-42.20,-335,-5576,6147,-1,0,0
178.57,-2.31,-42.20,-342,-5581,6148,-1,0,0
178.57,-2.31,-42.20,-339,-5573,6145,0,0,0
178.57,-2.32,-42.20,-341,-5568,6150,-1,-1,0
178.57,-2.32,-42.20,-346,-5567,6149,0,-1,0
178.57,-2.32,-42.20,-338,-5571,6154,0,-1,0
178.57,-2.32,-42.20,-341,-5570,6155,-1,-1,-1
178.57,-2.32,-42.20,-340,-5564,6147,-1,-1,0
178.57,-2.32,-42.20,-332,-5567,6148,-1,0,0
178.57,-2.32,-42.20,-327,-5576,6155,-1,0,0
178.56,-2.33,-42.21,-333,-5576,6143,-1,0,0
178.56,-2.33,-42.21,-340,-5578,6143,0,0,-1
178.56,-2.33,-42.21,-340,-5578,6142,0,0,0
178.56,-2.33,-42.20,-332,-5576,6155,0,0,0
178.56,-2.33,-42.20,-336,-5580,6150,0,0,-1
178.56,-2.33,-42.20,-333,-5579,6145,0,-1,-1
178.56,-2.33,-42.20,-337,-5575,6147,0,-1,0
178.56,-2.33,-42.19,-330,-5567,6144,0,0,-1
178.56,-2.33,-42.19,-337,-5557,6154,-1,0,0
178.56,-2.34,-42.19,-339,-5572,6165,-1,0,0
178.56,-2.34,-42.19,-341,-5573,6154,-1,0,-1
178.56,-2.34,-42.19,-344,-5568,6155,0,0,0
178.56,-2.35,-42.19,-350,-5566,6150,0,0,0
178.56,-2.35,-42.19,-350,-5569,6144,-1,0,0
178.56,-2.35,-42.19,-350,-5578,6142,0,0,-1
178.56,-2.35,-42.19,-340,-5582,6139,0,0,-1
178.56,-2.35,-42.18,-339,-5565,6145,0,0,0
178.56,-2.35,-42.18,-337,-5554,6136,0,0,0
178.55,-2.35,-42.17,-339,-5551,6143,-1,0,0
178.55,-2.35,-42.18,-339,-5560,6137,0,0,0
178.54,-2.36,-42.18,-353,-5571,6143,-1,0,0
178.54,-2.37,-42.18,-360,-5572,6153,-1,0,0
178.54,-2.37,-42.18,-359,-5569,6151,-1,0,0
178.54,-2.37,-42.18,-359,-5580,6155,0,-1,-1
178.54,-2.37,-42.18,-354,-5582,6150,0,-1,0
178.54,-2.37,-42.17,-338,-5572,6151,0,0,-1
178.54,-2.37,-42.16,-336,-5565,6160,0,0,0
178.54,-2.37,-42.16,-337,-5557,6164,0,-1,0
178.54,-2.37,-42.15,-338,-5553,6162,-1,0,0
178.53,-2.38,-42.15,-340,-5558,6150,-1,0,0
178.52,-2.39,-42.16,-355,-5567,6145,-1,0,0
178.52,-2.39,-42.15,-351,-5558,6150,0,0,0
178.52,-2.39,-42.15,-358,-5561,6145,0,0,0
178.52,-2.39,-42.15,-352,-5562,6152,0,0,0
178.51,-2.40,-42.14,-354,-5564,6158,0,0,0
178.51,-2.40,-42.14,-350,-5567,6167,0,0,-1
178.50,-2.41,-42.14,-357,-5563,6165,0,0,0
178.50,-2.41,-42.14,-356,-5560,6154,-1,-1,0
178.50,-2.41,-42.14,-350,-5557,6147,0,0,0
178.49,-2.42,-42.14,-351,-5561,6150,-1,0,0
178.49,-2.42,-42.14,-346,-5565,6149,0,0,0
178.49,-2.42,-42.14,-349,-5569,6153,-1,0,0
178.49,-2.43,-42.14,-349,-5565,6154,-1,0,0
178.48,-2.44,-42.13,-352,-5559,6155,0,0,0
178.48,-2.44,-42.14,-357,-5558,6150,-1,0,0
178.47,-2.44,-42.14,-362,-5556,6145,-1,0,0
178.47,-2.44,-42.14,-363,-5563,6153,-1,0,0
178.47,-2.45,-42.14,-365,-5572,6152,-1,0,0
178.47,-2.45,-42.14,-359,-5577,6159,0,0,0
178.46,-2.46,-42.13,-357,-5565,6157,0,0,0
178.46,-2.46,-42.13,-353,-5556,6161,0,0,0
178.45,-2.47,-42.13,-348,-5552,6163,-1,0,0
178.44,-2.48,-42.13,-358,-5553,6156,-1,0,0
178.44,-2.48,-42.13,-355,-5559,6151,-1,0,0
178.44,-2.48,-42.13,-361,-5558,6143,-1,0,0
178.44,-2.49,-42.14,-369,-5566,6138,-1,0,0
178.43,-2.50,-42.14,-374,-5557,6143,-1,0,0
178.43,-2.51,-42.14,-366,-5561,6155,0,0,0
178.42,-2.51,-42.13,-365,-5558,6159,0,0,0
178.42,-2.52,-42.13,-364,-5562,6172,-1,0,0
178.42,-2.52,-42.14,-366,-5563,6170,-1,0,0
178.42,-2.52,-42.14,-368,-5569,6155,-1,0,-1
178.41,-2.53,-42.14,-368,-5571,6147,0,-1,0
178.41,-2.53,-42.14,-359,-5555,6149,0,-1,0
178.41,-2.53,-42.14,-361,-5557,6145,-1,0,0
178.41,-2.53,-42.15,-370,-5565,6146,-1,0,0
178.40,-2.54,-42.15,-376,-5571,6150,-1,0,0
178.40,-2.54,-42.15,-384,-5562,6156,-1,-1,-1
178.40,-2.54,-42.15,-382,-5567,6148,0,-1,-1
178.41,-2.53,-42.15,-380,-5567,6163,-1,-1,-1
178.41,-2.52,-42.15,-371,-5561,6157,-1,-1,-1
178.41,-2.52,-42.15,-360,-5558,6155,-1,-1,-1
178.41,-2.51,-42.15,-359,-5564,6152,-1,-1,-1
178.41,-2.51,-42.15,-363,-5558,6160,-1,-1,0
178.41,-2.51,-42.16,-367,-5567,6149,-1,-1,-1
178.41,-2.51,-42.16,-365,-5564,6154,-1,-1,-1
178.41,-2.50,-42.16,-369,-5566,6154,-1,-1,-1
178.42,-2.49,-42.16,-368,-5568,6148,0,-1,-1
178.42,-2.49,-42.16,-367,-5563,6146,-1,-1,-1
178.43,-2.48,-42.16,-366,-5566,6140,-1,-1,-1
178.43,-2.48,-42.17,-360,-5580,6137,0,-1,-1
178.44,-2.47,-42.16,-362,-5574,6137,0,-1,-1
178.44,-2.47,-42.15,-369,-5577,6160,0,-1,-1
178.44,-2.46,-42.14,-370,-5568,6161,0,-1,-1
178.45,-2.45,-42.14,-369,-5561,6158,0,-1,-1
178.45,-2.45,-42.14,-357,-5560,6163,0,-1,-1
178.45,-2.44,-42.13,-344,-5553,6161,0,-1,-1
178.46,-2.43,-42.13,-344,-5551,6148,-1,-1,-1
178.46,-2.43,-42.13,-344,-5556,6154,-1,-1,-1
178.46,-2.42,-42.14,-349,-5562,6148,-1,-1,-1
178.46,-2.42,-42.14,-352,-5561,6147,-1,-1,-1
178.46,-2.42,-42.14,-355,-5572,6147,0,-1,-1
178.47,-2.41,-42.14,-356,-5573,6149,-1,-1,-1
178.47,-2.41,-42.14,-355,-5574,6145,0,-1,-1
178.47,-2.41,-42.14,-350,-5573,6142,0,-1,-1
178.47,-2.40,-42.14,-346,-5561,6150,0,-1,-1
178.48,-2.39,-42.13,-349,-5556,6158,0,-1,-1
178.48,-2.39,-42.13,-342,-5558,6158,-1,-1,-1
178.48,-2.39,-42.13,-345,-5560,6154,-1,-1,-1
178.49,-2.38,-42.13,-338,-5556,6145,-1,-1,-1
178.49,-2.38,-42.14,-345,-5556,6140,0,0,-1
178.49,-2.38,-42.14,-346,-5557,6141,-1,-1,-1
178.49,-2.38,-42.14,-355,-5561,6142,-1,-1,-1
178.49,-2.38,-42.14,-354,-5573,6141,-1,0,-1
178.50,-2.37,-42.15,-351,-5581,6137,0,0,-1
178.50,-2.37,-42.14,-348,-5577,6143,0,-1,-1
178.51,-2.36,-42.14,-337,-5564,6155,0,-1,-1
178.51,-2.36,-42.14,-339,-5561,6155,-1,-1,-1
178.50,-2.36,-42.14,-344,-5566,6147,-1,0,-1
178.51,-2.36,-42.14,-354,-5567,6148,0,0,-1
178.51,-2.36,-42.14,-353,-5561,6155,-1,0,-1
178.51,-2.36,-42.14,-358,-5560,6157,-1,-1,-1
178.52,-2.35,-42.14,-346,-5569,6159,-1,-1,-1
178.53,-2.34,-42.14,-344,-5564,6145,0,-1,-1
178.53,-2.34,-42.14,-336,-5552,6141,-1,-1,-1
178.53,-2.33,-42.14,-333,-5553,6138,-1,-1,-1
178.53,-2.33,-42.14,-333,-5553,6148,-1,0,-1
178.53,-2.33,-42.14,-336,-5558,6153,-1,0,0
178.53,-2.33,-42.14,-333,-5562,6157,-1,0,-1
178.53,-2.33,-42.15,-342,-5562,6155,-1,0,-1
178.54,-2.33,-42.15,-344,-5563,6153,0,0,-1
178.54,-2.33,-42.15,-340,-5569,6143,-1,-1,-1
178.54,-2.33,-42.16,-338,-5573,6139,-1,0,-1
178.54,-2.33,-42.16,-344,-5577,6135,-1,0,-1
178.54,-2.33,-42.16,-346,-5573,6139,0,-1,-1
178.55,-2.33,-42.16,-348,-5565,6149,0,0,-1
178.55,-2.33,-42.16,-337,-5565,6159,-1,-1,-1
178.55,-2.32,-42.16,-334,-5562,6151,0,-1,-1
178.56,-2.32,-42.16,-335,-5563,6149,-1,-1,-1
178.56,-2.32,-42.16,-333,-5561,6142,-1,0,-1
178.56,-2.32,-42.17,-332,-5561,6144,-1,0,-1
178.55,-2.32,-42.17,-337,-5560,6151,-1,0,-1
178.55,-2.33,-42.17,-346,-5570,6142,-1,-1,-1
178.55,-2.33,-42.17,-347,-5579,6139,-1,-1,-1
178.56,-2.33,-42.18,-343,-5580,6137,0,0,-1
178.56,-2.33,-42.17,-341,-5579,6145,0,0,-1
178.56,-2.33,-42.17,-344,-5567,6137,0,0,-1
178.56,-2.33,-42.17,-344,-5569,6143,0,0,-1
178.56,-2.33,-42.17,-349,-5564,6147,0,-1,-1
178.56,-2.33,-42.17,-350,-5568,6148,0,-1,-1
178.56,-2.33,-42.16,-343,-5559,6141,0,-1,-1
178.57,-2.32,-42.16,-332,-5554,6140,0,0,-1
178.57,-2.32,-42.16,-329,-5555,6141,-1,0,0
178.57,-2.32,-42.17,-330,-5569,6140,-1,-1,-1
178.57,-2.32,-42.17,-333,-5578,6154,-1,0,-1
178.57,-2.32,-42.17,-333,-5573,6150,0,0,0
178.57,-2.32,-42.16,-328,-5569,6149,0,-1,0
178.57,-2.32,-42.15,-323,-5563,6147,-1,-1,0
178.57,-2.32,-42.16,-325,-5571,6141,-1,0,0
178.57,-2.32,-42.16,-330,-5569,6135,-1,0,0
178.56,-2.33,-42.16,-342,-5568,6133,0,0,0
178.56,-2.33,-42.16,-339,-5565,6141,0,0,0
178.56,-2.33,-42.16,-336,-5564,6148,0,-1,-1
178.56,-2.33,-42.15,-334,-5560,6147,-1,-1,-1
178.56,-2.33,-42.15,-327,-5557,6152,0,-1,0
178.56,-2.33,-42.15,-325,-5560,6152,0,0,0
178.56,-2.33,-42.14,-324,-5558,6151,0,0,0
178.56,-2.33,-42.14,-327,-5551,6158,-1,0,0
178.56,-2.34,-42.14,-326,-5553,6153,-1,0,0
178.56,-2.34,-42.14,-329,-5556,6150,-1,0,0
178.56,-2.35,-42.15,-344,-5557,6156,-1,0,-1
178.55,-2.35,-42.15,-346,-5562,6146,-1,0,0
178.55,-2.35,-42.15,-345,-5563,6155,0,0,0
178.55,-2.36,-42.14,-345,-5576,6146,0,0,0
178.55,-2.36,-42.14,-343,-5561,6143,0,0,0
178.54,-2.37,-42.13,-354,-5569,6156,0,-1,0
178.54,-2.37,-42.13,-344,-5565,6161,0,0,0
178.54,-2.37,-42.13,-341,-5560,6158,0,0,0
178.54,-2.37,-42.12,-352,-5561,6147,0,-1,0
178.53,-2.38,-42.13,-337,-5563,6145,0,0,0
178.53,-2.38,-42.12,-335,-5556,6151,0,0,0
178.53,-2.38,-42.12,-334,-5554,6152,-1,0,0
178.53,-2.39,-42.12,-336,-5557,6149,-1,0,0
178.52,-2.40,-42.12,-343,-5558,6149,-1,0,0
178.52,-2.40,-42.12,-345,-5567,6146,0,0,0
178.52,-2.41,-42.12,-343,-5568,6159,0,0,0
178.51,-2.41,-42.12,-350,-5562,6156,0,0,0
178.51,-2.41,-42.12,-345,-5556,6163,0,0,0
178.50,-2.42,-42.11,-346,-5562,6163,0,0,0
178.50,-2.42,-42.11,-343,-5555,6158,0,0,0
178.50,-2.43,-42.11,-343,-5556,6156,0,0,0
178.49,-2.43,-42.11,-349,-5557,6155,-1,0,0
178.49,-2.44,-42.11,-358,-5559,6155,-1,0,0
178.48,-2.44,-42.11,-350,-5556,6156,-1,0,0
178.48,-2.45,-42.11,-353,-5555,6156,-1,0,0
178.48,-2.45,-42.12,-353,-5563,6155,-1,0,0
178.48,-2.45,-42.12,-349,-5564,6140,0,0,0
178.47,-2.46,-42.12,-345,-5562,6138,-1,0,0
178.47,-2.46,-42.12,-339,-5561,6145,-1,0,0
178.46,-2.47,-42.12,-336,-5568,6154,0,0,0
178.46,-2.48,-42.12,-348,-5564,6158,-1,0,0
178.44,-2.49,-42.12,-372,-5570,6158,-1,0,0
178.43,-2.50,-42.12,-371,-5572,6154,0,0,0
178.43,-2.51,-42.12,-369,-5565,6155,0,0,0
178.43,-2.51,-42.12,-360,-5561,6154,0,0,0
178.43,-2.51,-42.11,-358,-5554,6150,0,0,0
178.42,-2.52,-42.11,-354,-5552,6155,-1,0,0
178.42,-2.52,-42.11,-353,-5555,6156,0,0,0
178.41,-2.53,-42.11,-352,-5564,6155,-1,0,0
178.41,-2.53,-42.10,-359,-5558,6164,-1,0,0
178.40,-2.55,-42.11,-370,-5562,6158,-1,0,0
178.39,-2.56,-42.12,-378,-5565,6157,-1,0,0
178.38,-2.56,-42.12,-374,-5562,6159,-1,0,0
178.38,-2.56,-42.12,-372,-5564,6150,-1,0,0
178.38,-2.57,-42.12,-382,-5566,6148,-1,0,0
178.37,-2.58,-42.12,-386,-5563,6139,-1,-1,0
178.37,-2.57,-42.12,-381,-5568,6141,0,-1,0
178.37,-2.57,-42.12,-372,-5562,6146,0,-1,-1
178.37,-2.57,-42.12,-372,-5561,6157,0,-1,0
178.37,-2.57,-42.12,-371,-5555,6156,0,-1,-1
178.37,-2.56,-42.12,-372,-5549,6151,-1,-1,0
178.37,-2.56,-42.12,-362,-5552,6149,-1,-1,0
178.37,-2.56,-42.12,-360,-5551,6145,-1,-1,-1
178.37,-2.56,-42.12,-373,-5560,6152,-1,-1,-1
178.37,-2.56,-42.13,-377,-5569,6150,-1,-1,-1
178.38,-2.55,-42.13,-366,-5565,6143,0,-1,-1
178.38,-2.54,-42.13,-366,-5566,6147,0,-1,-1
178.38,-2.53,-42.13,-369,-5567,6145,0,-1,-1
178.38,-2.53,-42.12,-366,-5565,6149,0,-1,-1
178.39,-2.52,-42.12,-362,-5553,6156,0,-1,-1
178.40,-2.51,-42.12,-360,-5550,6159,0,-1,-1
178.40,-2.51,-42.12,-367,-5546,6164,-1,-1,-1
178.40,-2.51,-42.12,-357,-5552,6165,0,-1,-1
178.41,-2.50,-42.12,-357,-5551,6159,-1,-1,-1
178.41,-2.49,-42.12,-354,-5558,6151,-1,-1,-1
178.41,-2.49,-42.12,-360,-5565,6154,-1,-1,-1
178.41,-2.49,-42.12,-362,-5573,6155,-1,-1,-1
178.42,-2.48,-42.13,-360,-5574,6141,-1,-1,-1
178.43,-2.48,-42.12,-358,-5569,6144,0,-1,-1
178.43,-2.47,-42.12,-359,-5561,6146,0,-1,-1
178.43,-2.47,-42.12,-346,-5555,6145,0,-1,0
178.44,-2.46,-42.12,-338,-5558,6154,-1,-1,0
178.44,-2.46,-42.12,-349,-5569,6151,0,0,-1
178.44,-2.46,-42.12,-352,-5562,6144,0,-1,-1
178.44,-2.46,-42.12,-361,-5556,6145,-1,-1,-1
178.44,-2.46,-42.12,-360,-5554,6144,-1,-1,-1
178.44,-2.45,-42.12,-351,-5554,6152,0,-1,-1
178.45,-2.44,-42.12,-343,-5554,6153,0,-1,-1
178.46,-2.43,-42.12,-342,-5568,6162,0,-1,-1
178.46,-2.43,-42.11,-339,-5558,6162,-1,-1,-1
178.46,-2.43,-42.11,-343,-5556,6151,0,-1,-1
178.46,-2.42,-42.11,-335,-5559,6153,-1,-1,-1
178.46,-2.41,-42.11,-334,-5558,6162,-1,-1,-1
178.47,-2.41,-42.11,-342,-5563,6160,-1,-1,-1
178.47,-2.41,-42.11,-344,-5565,6160,-1,-1,-1
178.47,-2.41,-42.11,-338,-5561,6162,-1,-1,-1
178.47,-2.41,-42.11,-340,-5558,6163,-1,-1,-1
178.48,-2.40,-42.11,-342,-5561,6153,0,0,-1
178.48,-2.40,-42.11,-346,-5555,6150,-1,-1,-1
178.48,-2.40,-42.11,-339,-5553,6149,-1,-1,-1
178.49,-2.39,-42.11,-339,-5558,6161,-1,0,-1
178.49,-2.39,-42.11,-343,-5563,6156,-1,-1,-1
178.49,-2.38,-42.11,-333,-5561,6150,0,-1,-1
178.50,-2.38,-42.11,-331,-5560,6157,-1,0,-1
178.50,-2.38,-42.12,-333,-5546,6157,-1,0,-1
178.50,-2.39,-42.12,-338,-5553,6150,-1,0,-1
178.50,-2.39,-42.13,-342,-5562,6151,-1,0,-1
178.50,-2.38,-42.13,-340,-5572,6144,-1,0,-1
178.50,-2.38,-42.13,-347,-5573,6150,0,0,-1
178.50,-2.38,-42.13,-348,-5571,6152,0,-1,-1
178.50,-2.38,-42.12,-345,-5565,6152,0,-1,-1
178.51,-2.38,-42.12,-339,-5561,6158,0,-1,-1
178.51,-2.38,-42.12,-331,-5560,6155,0,-1,-1
178.51,-2.38,-42.12,-333,-5556,6153,-1,-1,-1
178.51,-2.38,-42.12,-336,-5554,6156,-1,0,-1
178.51,-2.38,-42.11,-335,-5558,6168,-1,0,-1
178.51,-2.37,-42.12,-343,-5559,6167,-1,-1,-1
178.51,-2.37,-42.12,-338,-5569,6152,-1,0,-1
178.51,-2.37,-42.12,-343,-5562,6141,0,-1,-1
178.52,-2.37,-42.12,-334,-5557,6141,0,0,0
178.51,-2.37,-42.11,-332,-5543,6152,-1,0,0
178.51,-2.37,-42.11,-338,-5555,6167,-1,-1,0
178.52,-2.37,-42.12,-335,-5573,6158,-1,-1,-1
178.52,-2.37,-42.12,-337,-5574,6145,0,0,-1
178.52,-2.37,-42.12,-341,-5563,6141,0,-1,-1
178.52,-2.36,-42.12,-325,-5559,6147,-1,-1,0
178.52,-2.36,-42.12,-321,-5563,6153,0,0,0
178.52,-2.36,-42.12,-334,-5568,6153,-1,0,0
178.52,-2.37,-42.12,-340,-5568,6155,-1,0,0
178.52,-2.37,-42.12,-343,-5559,6154,-1,0,0
178.52,-2.37,-42.12,-343,-5563,6150,-1,-1,-1
178.52,-2.37,-42.11,-344,-5562,6154,0,-1,-1
178.52,-2.36,-42.11,-340,-5560,6151,-1,-1,-1
178.52,-2.36,-42.11,-331,-5562,6148,-1,-1,0
178.52,-2.36,-42.11,-331,-5557,6142,0,0,0
178.52,-2.36,-42.11,-332,-5554,6156,-1,0,0
178.51,-2.37,-42.11,-337,-5552,6154,-1,0,0
178.51,-2.37,-42.11,-347,-5557,6153,-1,0,-1
178.51,-2.38,-42.11,-343,-5557,6155,-1,0,-1
178.51,-2.38,-42.12,-341,-5562,6153,-1,0,-1
178.51,-2.37,-42.12,-339,-5567,6150,-1,0,-1
178.51,-2.37,-42.13,-343,-5575,6142,-1,0,-1
178.52,-2.38,-42.14,-345,-5578,6137,0,0,-1
178.52,-2.38,-42.14,-345,-5584,6143,0,-1,0
178.51,-2.38,-42.13,-342,-5576,6149,0,-1,0
178.51,-2.37,-42.12,-331,-5568,6148,0,-1,0
178.51,-2.37,-42.12,-333,-5560,6147,0,-1,0
178.52,-2.37,-42.11,-330,-5556,6156,0,-1,0
178.51,-2.37,-42.11,-342,-5563,6164,0,-1,0
178.51,-2.37,-42.10,-348,-5559,6169,-1,-1,0
178.51,-2.37,-42.10,-342,-5562,6160,0,-1,0
178.51,-2.37,-42.10,-337,-5554,6149,0,-1,-1
178.51,-2.36,-42.09,-335,-5552,6159,0,-1,-1
178.51,-2.36,-42.08,-332,-5555,6163,0,-1,0
178.51,-2.35,-42.08,-335,-5549,6172,0,-1,0
178.51,-2.35,-42.07,-338,-5550,6170,0,-1,0
178.51,-2.35,-42.08,-330,-5567,6165,-1,-1,-1
178.52,-2.34,-42.07,-334,-5564,6173,0,-1,-1
178.51,-2.35,-42.07,-340,-5549,6158,0,-1,0
178.51,-2.35,-42.07,-341,-5542,6162,-1,-1,0
178.51,-2.35,-42.07,-334,-5549,6149,-1,-1,0
178.51,-2.35,-42.07,-333,-5552,6152,0,0,0
178.51,-2.35,-42.07,-334,-5553,6153,0,0,0
178.51,-2.35,-42.07,-339,-5559,6160,0,0,0
178.51,-2.35,-42.06,-334,-5555,6163,-1,-1,0
178.51,-2.35,-42.06,-333,-5549,6165,-1,-1,0
178.51,-2.35,-42.07,-340,-5554,6158,-1,0,-1
178.51,-2.35,-42.07,-336,-5564,6161,0,-1,-1
178.52,-2.34,-42.07,-335,-5565,6152,0,-1,-1
178.52,-2.33,-42.06,-328,-5557,6154,0,-1,-1
178.51,-2.34,-42.06,-326,-5548,6153,-1,-1,0
178.51,-2.33,-42.07,-324,-5566,6150,-1,-1,0
178.51,-2.33,-42.05,-321,-5550,6158,0,0,-1
178.51,-2.34,-42.05,-334,-5556,6181,-1,0,0
178.51,-2.34,-42.05,-352,-5555,6175,-1,-1,0
178.51,-2.34,-42.06,-339,-5555,6154,-1,-1,0
178.51,-2.34,-42.06,-341,-5564,6150,0,-1,-1
178.51,-2.33,-42.06,-332,-5557,6149,0,-1,-1
178.51,-2.33,-42.05,-328,-5556,6155,0,-1,0
178.52,-2.32,-42.05,-322,-5553,6163,0,-1,0
178.52,-2.32,-42.06,-323,-5568,6158,-1,0,-1
178.53,-2.33,-42.05,-341,-5539,6167,0,-1,-1
178.52,-2.33,-42.05,-339,-5567,6156,0,0,-1
178.53,-2.33,-42.04,-345,-5546,6164,0,-1,0
178.52,-2.33,-42.04,-334,-5535,6159,-1,-1,0
178.52,-2.33,-42.05,-327,-5557,6140,0,0,-1
178.52,-2.33,-42.05,-330,-5552,6144,-1,-1,0
178.52,-2.33,-42.05,-327,-5562,6154,0,0,-1
178.52,-2.33,-42.05,-341,-5568,6162,0,0,0
178.52,-2.33,-42.05,-340,-5560,6172,0,-1,0
178.51,-2.33,-42.05,-330,-5560,6163,-1,-1,0
178.51,-2.33,-42.05,-325,-5554,6162,-1,-1,0
178.51,-2.33,-42.05,-328,-5549,6154,-1,0,0
178.51,-2.33,-42.05,-319,-5541,6150,0,0,0
178.51,-2.33,-42.05,-320,-5540,6161,-1,0,0
178.51,-2.34,-42.05,-332,-5547,6165,0,0,0
178.50,-2.35,-42.04,-334,-5538,6159,-1,0,0
178.50,-2.35,-42.05,-340,-5548,6154,-1,-1,0
178.50,-2.35,-42.05,-335,-5558,6155,-1,0,0
178.49,-2.35,-42.05,-338,-5564,6147,0,0,-1
178.49,-2.35,-42.04,-337,-5567,6167,0,0,-1
178.50,-2.35,-42.04,-329,-5564,6166,0,-1,0
178.50,-2.35,-42.04,-331,-5561,6164,0,-1,-1
178.50,-2.35,-42.03,-329,-5551,6153,0,-1,-1
178.51,-2.34,-42.03,-322,-5551,6145,0,-1,-1
178.51,-2.34,-42.03,-328,-5551,6151,-1,0,-1
178.51,-2.34,-42.03,-323,-5554,6152,-1,0,-1
178.51,-2.34,-42.03,-320,-5556,6161,0,0,-1
178.51,-2.34,-42.03,-327,-5549,6159,0,0,0
178.51,-2.34,-42.03,-331,-5556,6164,-1,0,0
178.50,-2.34,-42.04,-335,-5560,6168,-1,0,-1
178.51,-2.34,-42.04,-331,-5567,6159,0,-1,-1
178.51,-2.34,-42.04,-324,-5570,6145,0,-1,-1
178.51,-2.33,-42.04,-314,-5556,6150,0,-1,0
178.51,-2.33,-42.04,-314,-5553,6154,-1,0,0
178.51,-2.33,-42.04,-326,-5548,6162,-1,0,0
178.51,-2.34,-42.04,-334,-5549,6163,-1,0,-1
178.51,-2.34,-42.04,-335,-5549,6170,-1,-1,-1
178.51,-2.33,-42.04,-332,-5549,6167,-1,-1,-1
178.51,-2.33,-42.04,-336,-5558,6171,0,-1,-1
178.52,-2.32,-42.03,-331,-5555,6170,0,-1,-1
178.52,-2.32,-42.03,-326,-5551,6166,0,-1,-1
178.52,-2.32,-42.03,-313,-5544,6161,-1,-1,0
178.52,-2.32,-42.03,-319,-5540,6166,-1,-1,0
178.52,-2.32,-42.03,-324,-5540,6171,-1,0,0
178.52,-2.32,-42.03,-333,-5551,6168,-1,0,0
178.52,-2.32,-42.03,-335,-5553,6162,-1,-1,-1
178.52,-2.32,-42.03,-335,-5551,6161,-1,-1,-1
178.52,-2.32,-42.03,-331,-5554,6167,-1,-1,-1
178.52,-2.32,-42.03,-329,-5559,6156,0,0,-1
178.52,-2.32,-42.03,-329,-5561,6164,0,0,-1
178.53,-2.31,-42.02,-324,-5551,6159,0,0,-1
178.53,-2.31,-42.01,-317,-5552,6164,0,-1,-1
178.53,-2.31,-42.01,-317,-5553,6162,0,-1,-1
178.53,-2.30,-42.01,-317,-5549,6166,0,-1,-1
178.53,-2.30,-42.01,-319,-5548,6164,-1,-1,-1
178.53,-2.29,-42.01,-318,-5543,6166,-1,-1,-1
178.53,-2.29,-42.01,-323,-5539,6165,-1,-1,-1
178.53,-2.29,-42.01,-328,-5543,6163,-1,-1,0
178.53,-2.29,-42.01,-332,-5543,6156,0,0,0
178.53,-2.30,-42.01,-332,-5538,6154,0,0,-1
178.53,-2.30,-42.01,-337,-5554,6167,-1,-1,0
178.53,-2.29,-42.01,-335,-5557,6172,0,-1,-1
178.53,-2.29,-42.01,-333,-5556,6168,0,-1,-1
178.53,-2.29,-42.00,-338,-5554,6172,0,-1,-1
178.54,-2.29,-42.00,-327,-5555,6173,0,-1,-1
178.54,-2.29,-41.99,-322,-5557,6172,0,-1,-1
178.55,-2.28,-41.99,-318,-5552,6162,0,-1,-1
178.54,-2.27,-41.99,-316,-5541,6168,-1,-1,0
178.54,-2.27,-41.99,-314,-5540,6169,-1,0,0
178.54,-2.28,-41.99,-322,-5542,6171,-1,-1,0
178.55,-2.27,-41.99,-317,-5549,6158,0,0,-1
178.55,-2.27,-41.99,-320,-5554,6157,0,-1,-1
178.55,-2.27,-41.99,-319,-5549,6154,-1,-1,0
178.55,-2.27,-41.99,-315,-5544,6153,-1,-1,0
178.55,-2.27,-41.99,-315,-5544,6165,0,0,0
178.55,-2.27,-41.99,-320,-5548,6170,0,0,-1
178.55,-2.27,-41.99,-325,-5544,6179,0,0,-1
178.55,-2.27,-41.99,-335,-5547,6168,0,0,-1
178.55,-2.27,-41.99,-329,-5548,6161,-1,-1,-1
178.55,-2.27,-41.99,-329,-5548,6170,0,-1,-1
178.55,-2.27,-41.99,-326,-5552,6164,-1,-1,-1
178.56,-2.26,-41.99,-318,-5544,6166,-1,-1,-1
178.56,-2.26,-41.98,-314,-5543,6167,-1,0,0
178.56,-2.26,-41.98,-316,-5539,6169,-1,0,0
178.56,-2.26,-41.99,-308,-5546,6170,-1,0,-1
178.56,-2.26,-41.99,-313,-5543,6177,-1,0,0
178.56,-2.26,-41.99,-317,-5545,6168,-1,-1,0
178.56,-2.26,-41.99,-313,-5550,6170,-1,-1,-1
178.56,-2.26,-41.99,-321,-5551,6160,0,-1,-1
178.56,-2.26,-41.99,-318,-5562,6157,0,-1,-1
178.56,-2.26,-41.99,-322,-5554,6153,0,-1,0
178.56,-2.26,-41.98,-321,-5546,6161,0,0,0
178.56,-2.26,-41.98,-317,-5547,6156,0,-1,-1
178.57,-2.25,-41.98,-314,-5536,6165,0,0,-1
178.57,-2.25,-41.98,-315,-5540,6174,-1,-1,0
178.57,-2.25,-41.98,-319,-5541,6173,-1,-1,0
178.57,-2.25,-41.98,-320,-5538,6159,-1,0,0
178.56,-2.25,-41.99,-317,-5553,6159,-1,0,0
178.56,-2.26,-41.99,-321,-5559,6158,0,0,0
178.56,-2.26,-41.99,-319,-5556,6146,0,-1,-1
178.56,-2.25,-41.99,-320,-5549,6153,-1,-1,-1
178.56,-2.25,-41.99,-316,-5548,6153,0,-1,-1
178.57,-2.25,-41.98,-315,-5542,6156,0,0,-1
178.57,-2.24,-41.99,-322,-5547,6156,0,0,-1
178.57,-2.25,-41.98,-324,-5542,6178,-1,-1,0
178.57,-2.24,-41.98,-315,-5553,6183,-1,0,-1
178.57,-2.24,-41.98,-317,-5555,6179,-1,0,-1
178.57,-2.24,-41.99,-316,-5549,6177,-1,0,0
178.57,-2.24,-41.98,-310,-5546,6163,0,-1,0
178.57,-2.24,-41.98,-314,-5546,6167,0,-1,0
178.57,-2.24,-41.98,-306,-5551,6174,-1,0,0
178.57,-2.24,-41.98,-307,-5554,6174,-1,0,0
178.57,-2.24,-41.99,-320,-5558,6174,-1,0,-1
178.57,-2.24,-41.99,-320,-5558,6167,0,-1,-1
178.57,-2.24,-41.98,-317,-5554,6158,0,-1,0
178.57,-2.23,-41.98,-310,-5544,6157,0,-1,0
178.57,-2.23,-41.98,-309,-5543,6146,0,0,0
178.57,-2.24,-41.98,-322,-5545,6144,0,0,0
178.57,-2.25,-41.98,-328,-5548,6155,0,0,0
178.57,-2.25,-41.98,-328,-5549,6165,-1,-1,-1
178.57,-2.25,-41.98,-325,-5556,6165,-1,-1,-1
178.57,-2.24,-41.98,-323,-5554,6157,-1,-1,-1
178.57,-2.24,-41.98,-320,-5547,6155,0,0,0
178.57,-2.24,-41.98,-306,-5537,6169,-1,0,0
178.57,-2.24,-41.97,-311,-5538,6174,0,0,0
178.57,-2.25,-41.97,-315,-5542,6172,-1,0,0
178.57,-2.24,-41.97,-310,-5543,6171,-1,-1,0
178.57,-2.24,-41.98,-306,-5545,6168,-1,0,0
178.57,-2.24,-41.98,-314,-5547,6158,0,0,0
178.57,-2.24,-41.98,-315,-5544,6155,-1,-1,0
178.57,-2.24,-41.98,-309,-5550,6157,-1,-1,0
178.57,-2.24,-41.98,-317,-5553,6166,0,0,0
178.57,-2.24,-41.98,-323,-5559,6172,0,-1,0
178.57,-2.24,-41.97,-324,-5551,6161,0,-1,-1
178.57,-2.24,-41.97,-326,-5548,6167,0,-1,-1
178.57,-2.24,-41.97,-322,-5542,6167,0,0,-1
178.57,-2.24,-41.96,-322,-5536,6167,-1,-1,0
178.57,-2.24,-41.97,-319,-5540,6168,-1,0,0
178.57,-2.24,-41.97,-315,-5541,6169,-1,0,0
178.57,-2.24,-41.97,-314,-5541,6170,-1,0,0
178.57,-2.24,-41.97,-307,-5547,6164,-1,0,0
178.57,-2.25,-41.97,-312,-5550,6156,-1,-1,0
178.57,-2.25,-41.97,-315,-5552,6159,0,0,0
178.57,-2.25,-41.97,-314,-5552,6155,0,0,0
178.57,-2.25,-41.97,-313,-5553,6163,0,0,-1
178.57,-2.25,-41.96,-315,-5554,6158,0,0,0
178.57,-2.25,-41.96,-320,-5550,6163,0,0,-1
178.57,-2.25,-41.96,-323,-5544,6168,-1,0,0
178.57,-2.25,-41.96,-312,-5539,6168,-1,0,0
178.57,-2.25,-41.96,-313,-5539,6171,-1,0,-1
178.57,-2.25,-41.96,-320,-5542,6167,-1,0,0
178.57,-2.25,-41.96,-310,-5542,6188,0,0,0
178.57,-2.25,-41.95,-314,-5542,6184,-1,0,0
178.57,-2.25,-41.95,-323,-5542,6170,-1,-1,0
178.56,-2.26,-41.96,-334,-5549,6159,0,-1,0
178.56,-2.26,-41.96,-327,-5542,6158,0,-1,0
178.56,-2.26,-41.95,-321,-5539,6169,0,-1,0
178.56,-2.26,-41.94,-320,-5534,6182,0,-1,0
178.56,-2.26,-41.94,-323,-5535,6176,-1,0,0
178.56,-2.26,-41.94,-327,-5541,6177,0,0,0
178.56,-2.26,-41.94,-322,-5548,6177,0,0,0
178.56,-2.27,-41.93,-324,-5543,6180,0,-1,-1
178.56,-2.26,-41.93,-321,-5540,6176,-1,-1,0
178.56,-2.26,-41.93,-314,-5536,6177,-1,-1,0
178.55,-2.27,-41.93,-320,-5534,6170,-1,0,0
178.55,-2.27,-41.93,-327,-5538,6177,0,0,0
178.55,-2.28,-41.93,-327,-5540,6183,0,0,0
178.55,-2.28,-41.93,-328,-5542,6176,0,-1,-1
178.55,-2.27,-41.93,-325,-5548,6178,0,-1,-1
178.55,-2.27,-41.93,-321,-5547,6164,0,-1,-1
178.55,-2.27,-41.93,-310,-5539,6160,0,-1,-1
178.55,-2.26,-41.92,-310,-5541,6170,0,-1,0
178.55,-2.26,-41.92,-319,-5531,6172,0,-1,0
178.55,-2.26,-41.92,-317,-5523,6180,-1,-1,0
178.55,-2.26,-41.92,-325,-5533,6179,-1,-1,0
178.55,-2.26,-41.92,-322,-5539,6170,-1,-1,-1
178.55,-2.25,-41.93,-315,-5544,6160,-1,-1,0
178.55,-2.25,-41.93,-309,-5546,6159,-1,-1,0
178.55,-2.25,-41.93,-313,-5546,6163,0,0,0
178.55,-2.25,-41.93,-320,-5555,6164,-1,0,0
178.55,-2.25,-41.93,-321,-5549,6166,0,-1,0
178.55,-2.25,-41.93,-331,-5557,6167,0,-1,-1
178.56,-2.24,-41.93,-333,-5547,6166,0,-1,-1
178.56,-2.24,-41.92,-321,-5540,6172,0,-1,0
178.56,-2.24,-41.92,-308,-5537,6178,0,-1,-1
178.56,-2.23,-41.92,-305,-5527,6174,-1,-1,0
178.56,-2.22,-41.92,-300,-5529,6173,-1,0,0
178.56,-2.23,-41.92,-311,-5539,6167,-1,0,0
178.56,-2.23,-41.93,-320,-5544,6182,-1,0,0
178.56,-2.24,-41.94,-320,-5546,6169,-1,0,-1
178.56,-2.24,-41.94,-328,-5545,6167,-1,-1,0
178.56,-2.24,-41.94,-327,-5553,6160,0,-1,0
178.56,-2.23,-41.94,-327,-5551,6160,0,-1,0
178.56,-2.23,-41.93,-323,-5548,6173,0,-1,-1
178.56,-2.23,-41.93,-317,-5539,6188,0,-1,-1
178.56,-2.22,-41.93,-311,-5538,6175,0,-1,-1
178.56,-2.22,-41.92,-310,-5537,6175,-1,-1,-1
178.57,-2.21,-41.93,-311,-5534,6175,-1,-1,-1
178.57,-2.21,-41.93,-310,-5536,6173,-1,0,0
178.57,-2.22,-41.93,-309,-5541,6179,-1,0,0
178.57,-2.22,-41.93,-317,-5541,6177,-1,0,0
178.57,-2.22,-41.94,-318,-5551,6170,-1,-1,0
178.57,-2.22,-41.94,-314,-5554,6171,0,0,-1
178.57,-2.21,-41.94,-312,-5544,6171,-1,-1,0
178.58,-2.22,-41.94,-313,-5540,6167,0,0,-1
178.58,-2.22,-41.94,-311,-5538,6172,-1,0,-1
178.58,-2.21,-41.94,-315,-5546,6180,-1,-1,-1
178.58,-2.21,-41.94,-320,-5550,6167,-1,0,-1
178.58,-2.21,-41.95,-316,-5549,6172,0,-1,-1
178.59,-2.20,-41.94,-311,-5546,6173,0,-1,-1
178.59,-2.20,-41.93,-301,-5536,6176,0,-1,0
178.58,-2.20,-41.93,-300,-5534,6183,-1,-1,0
178.58,-2.20,-41.93,-306,-5539,6173,-1,0,0
178.58,-2.20,-41.93,-310,-5540,6174,-1,0,0
178.58,-2.20,-41.93,-317,-5535,6172,-1,0,0
178.58,-2.20,-41.93,-321,-5538,6163,0,0,-1
178.59,-2.20,-41.93,-324,-5541,6176,-1,-1,-1
178.59,-2.20,-41.93,-313,-5541,6173,-1,-1,-1
178.59,-2.19,-41.93,-305,-5546,6174,0,-1,-1
178.59,-2.19,-41.92,-301,-5539,6181,0,-1,0
178.59,-2.19,-41.92,-302,-5538,6185,0,0,0
178.59,-2.19,-41.92,-308,-5530,6176,-1,-1,0
178.59,-2.19,-41.92,-312,-5535,6179,-1,-1,0
178.59,-2.19,-41.93,-319,-5538,6187,-1,-1,-1
178.59,-2.19,-41.93,-317,-5532,6175,-1,-1,0
178.59,-2.19,-41.93,-316,-5541,6169,-1,-1,0
178.59,-2.19,-41.94,-315,-5548,6165,0,0,0
178.59,-2.19,-41.94,-315,-5555,6165,0,0,0
178.59,-2.20,-41.94,-323,-5549,6176,0,0,-1
178.59,-2.20,-41.94,-324,-5553,6165,0,-1,-1
178.59,-2.20,-41.93,-319,-5550,6167,0,-1,-1
178.59,-2.19,-41.93,-316,-5548,6179,0,-1,-1
178.59,-2.19,-41.92,-313,-5535,6174,0,-1,-1
178.60,-2.18,-41.92,-305,-5528,6184,-1,-1,-1
178.60,-2.18,-41.92,-294,-5523,6175,-1,-1,0
178.60,-2.18,-41.93,-291,-5530,6163,-1,0,0
178.60,-2.18,-41.93,-300,-5532,6166,-1,0,-1
178.60,-2.18,-41.93,-309,-5538,6178,-1,0,-1
178.60,-2.19,-41.94,-326,-5552,6175,-1,-1,-1
178.60,-2.18,-41.94,-320,-5551,6170,-1,-1,0
178.60,-2.18,-41.94,-317,-5549,6156,0,-1,-1
178.60,-2.18,-41.94,-312,-5543,6159,0,-1,-1
178.60,-2.17,-41.93,-315,-5540,6164,0,-1,-1
178.60,-2.17,-41.93,-307,-5537,6173,0,-1,-1
178.61,-2.17,-41.93,-297,-5536,6167,-1,-1,0
178.61,-2.17,-41.93,-303,-5532,6168,-1,0,0
178.61,-2.17,-41.93,-298,-5532,6175,-1,0,-1
178.61,-2.16,-41.93,-298,-5535,6172,-1,-1,0
178.61,-2.16,-41.93,-307,-5531,6172,-1,-1,-1
178.61,-2.16,-41.94,-308,-5542,6176,-1,0,-1
178.61,-2.16,-41.94,-309,-5542,6175,-1,-1,0
178.61,-2.16,-41.94,-306,-5553,6170,0,-1,0
178.61,-2.16,-41.94,-313,-5548,6167,0,-1,0
178.61,-2.16,-41.94,-315,-5546,6176,-1,-1,-1
178.61,-2.16,-41.94,-309,-5547,6178,-1,-1,-1
178.61,-2.16,-41.95,-305,-5554,6175,0,-1,-1
178.62,-2.16,-41.94,-300,-5545,6165,0,-1,-1
178.62,-2.15,-41.94,-293,-5535,6163,0,-1,0
178.62,-2.15,-41.94,-299,-5534,6169,-1,0,0
178.62,-2.16,-41.94,-305,-5543,6164,-1,0,0
178.62,-2.16,-41.94,-309,-5540,6179,0,0,0
178.62,-2.16,-41.94,-307,-5543,6180,-1,0,-1
178.62,-2.15,-41.94,-311,-5546,6184,-1,-1,-1
178.62,-2.15,-41.94,-303,-5553,6185,-1,-1,-1
178.63,-2.15,-41.94,-298,-5542,6179,0,-1,-1
178.63,-2.15,-41.94,-297,-5538,6172,0,-1,0
178.63,-2.15,-41.93,-292,-5533,6175,0,0,0
178.63,-2.14,-41.93,-292,-5541,6179,-1,0,0
178.63,-2.14,-41.93,-299,-5536,6179,-1,-1,0
178.63,-2.14,-41.94,-301,-5543,6171,-1,-1,0
178.63,-2.15,-41.94,-306,-5534,6170,-1,0,0
178.62,-2.15,-41.94,-305,-5541,6172,-1,0,0
178.63,-2.15,-41.94,-296,-5536,6175,0,0,0
178.62,-2.15,-41.94,-304,-5553,6170,-1,-1,0
178.62,-2.15,-41.95,-314,-5559,6176,-1,0,0
178.62,-2.15,-41.95,-319,-5554,6171,0,0,-1
178.62,-2.15,-41.94,-323,-5552,6173,0,-1,-1
178.63,-2.15,-41.94,-319,-5547,6180,0,-1,-1
178.63,-2.15,-41.93,-314,-5539,6181,0,-1,-1
178.63,-2.15,-41.92,-308,-5525,6186,0,-1,0
178.63,-2.15,-41.92,-304,-5523,6189,0,-1,0
178.63,-2.15,-41.92,-306,-5526,6191,-1,0,0
178.63,-2.15,-41.92,-306,-5536,6187,-1,0,0
178.63,-2.15,-41.92,-316,-5537,6173,-1,0,0
178.63,-2.15,-41.93,-311,-5543,6168,-1,0,0
178.63,-2.16,-41.94,-317,-5545,6157,-1,0,0
178.63,-2.16,-41.94,-311,-5544,6163,0,0,0
178.62,-2.16,-41.93,-316,-5545,6170,0,0,0
178.62,-2.16,-41.93,-313,-5543,6179,0,0,0
178.62,-2.16,-41.92,-309,-5541,6180,0,0,0
178.62,-2.16,-41.92,-311,-5543,6183,-1,-1,0
178.62,-2.17,-41.92,-317,-5548,6184,-1,-1,0
178.62,-2.17,-41.92,-316,-5545,6184,0,-1,0
178.62,-2.17,-41.92,-312,-5542,6177,0,0,0
178.62,-2.17,-41.92,-304,-5537,6180,-1,0,0
178.62,-2.17,-41.92,-306,-5538,6174,-1,0,0
178.62,-2.17,-41.93,-307,-5546,6169,-1,0,-1
178.62,-2.18,-41.93,-308,-5560,6173,0,0,-1
178.63,-2.18,-41.93,-308,-5556,6172,0,-1,0
178.63,-2.18,-41.92,-307,-5548,6174,0,-1,0
178.62,-2.18,-41.92,-303,-5542,6171,0,0,0
178.62,-2.18,-41.92,-304,-5532,6172,0,0,0
178.62,-2.18,-41.92,-313,-5539,6185,-1,0,0
178.62,-2.19,-41.92,-316,-5544,6190,-1,0,0
178.62,-2.19,-41.92,-322,-5543,6175,-1,0,-1
178.62,-2.19,-41.92,-322,-5535,6168,-1,-1,-1
178.62,-2.18,-41.92,-315,-5538,6181,0,-1,-1
178.62,-2.18,-41.92,-313,-5538,6186,0,0,-1
178.62,-2.18,-41.91,-305,-5528,6175,0,-1,0
178.62,-2.18,-41.90,-308,-5525,6176,0,0,0
178.62,-2.19,-41.90,-316,-5527,6180,0,0,0
178.61,-2.19,-41.90,-318,-5528,6186,-1,-1,0
178.61,-2.19,-41.90,-315,-5534,6183,0,0,0
178.61,-2.19,-41.90,-318,-5538,6180,-1,-1,0
178.61,-2.20,-41.90,-320,-5533,6172,-1,-1,0
178.61,-2.19,-41.90,-314,-5539,6172,0,-1,0
178.61,-2.20,-41.90,-316,-5543,6176,0,0,0
178.61,-2.20,-41.90,-321,-5537,6174,0,0,0
178.61,-2.20,-41.89,-324,-5540,6166,0,-1,0
178.60,-2.20,-41.89,-328,-5532,6170,0,-1,0
178.60,-2.20,-41.88,-319,-5532,6179,0,-1,-1
178.60,-2.20,-41.88,-309,-5527,6180,-1,-1,-1
178.60,-2.19,-41.88,-302,-5520,6186,0,-1,0
178.61,-2.18,-41.88,-295,-5522,6181,-1,-1,0
178.61,-2.18,-41.89,-291,-5528,6177,-1,0,0
178.61,-2.19,-41.90,-308,-5535,6171,-1,0,0
178.60,-2.20,-41.90,-317,-5548,6168,-1,0,0
178.61,-2.19,-41.90,-323,-5551,6172,0,0,-1
178.61,-2.19,-41.90,-324,-5552,6167,0,0,-1
178.61,-2.19,-41.90,-321,-5555,6172,0,-1,-1
178.61,-2.19,-41.90,-315,-5543,6172,0,-1,0
178.61,-2.19,-41.90,-308,-5539,6179,0,-1,-1
178.61,-2.19,-41.89,-305,-5528,6178,-1,-1,0
178.61,-2.19,-41.89,-306,-5536,6179,0,-1,0
178.61,-2.18,-41.89,-310,-5540,6181,0,-1,-1
178.61,-2.18,-41.89,-312,-5534,6181,-1,-1,0
178.61,-2.18,-41.89,-307,-5543,6183,-1,-1,0
178.61,-2.18,-41.89,-311,-5532,6181,-1,-1,0
178.61,-2.18,-41.89,-316,-5533,6180,0,-1,0
178.61,-2.18,-41.89,-313,-5528,6183,-1,-1,-1
178.61,-2.18,-41.89,-313,-5532,6173,-1,-1,-1
178.62,-2.17,-41.89,-312,-5548,6173,0,-1,-1
178.62,-2.17,-41.89,-304,-5541,6167,0,-1,-1
178.62,-2.17,-41.89,-303,-5526,6171,0,-1,0
178.62,-2.16,-41.89,-304,-5523,6171,-1,-1,0
178.62,-2.16,-41.89,-309,-5533,6172,-1,0,0
178.61,-2.17,-41.89,-312,-5538,6183,-1,0,0
178.61,-2.17,-41.89,-315,-5537,6180,-1,-1,0
178.61,-2.17,-41.89,-321,-5538,6174,-1,-1,-1
178.62,-2.16,-41.89,-313,-5543,6182,-1,-1,-1
178.62,-2.16,-41.89,-309,-5536,6174,0,-1,-1
178.62,-2.16,-41.89,-302,-5535,6173,-1,-1,0
178.62,-2.16,-41.89,-301,-5533,6174,-1,-1,0
178.62,-2.16,-41.90,-297,-5528,6166,-1,0,-1
178.62,-2.16,-41.90,-298,-5526,6172,-1,0,0
178.62,-2.16,-41.90,-303,-5529,6175,-1,0,-1
178.62,-2.16,-41.90,-304,-5538,6170,-1,0,-1
178.63,-2.15,-41.90,-308,-5544,6172,0,-1,-1
178.63,-2.15,-41.90,-310,-5540,6167,0,-1,0
178.63,-2.15,-41.91,-294,-5538,6172,0,0,-1
178.63,-2.15,-41.90,-304,-5537,6173,0,0,-1
178.63,-2.15,-41.90,-311,-5546,6183,-1,-1,0
178.63,-2.15,-41.89,-306,-5540,6189,0,-1,-1
178.64,-2.14,-41.89,-311,-5538,6187,0,-1,-1
178.64,-2.14,-41.89,-314,-5533,6179,0,-1,-1
178.64,-2.14,-41.89,-308,-5526,6181,0,-1,-1
178.64,-2.14,-41.89,-302,-5524,6185,-1,-1,0
178.64,-2.14,-41.89,-298,-5522,6188,-1,-1,0
178.64,-2.14,-41.89,-301,-5530,6183,-1,0,0
178.64,-2.14,-41.89,-304,-5532,6184,-1,0,0
178.64,-2.14,-41.89,-315,-5530,6186,-1,0,0
178.64,-2.14,-41.89,-312,-5538,6179,0,0,-1
178.64,-2.14,-41.89,-307,-5542,6177,-1,-1,0
178.64,-2.14,-41.90,-305,-5540,6173,0,-1,-1
178.64,-2.14,-41.89,-304,-5540,6174,0,-1,-1
178.64,-2.13,-41.89,-304,-5539,6177,0,-1,0
178.64,-2.13,-41.89,-299,-5532,6186,-1,-1,-1
178.64,-2.13,-41.89,-304,-5524,6184,-1,-1,0
178.64,-2.13,-41.89,-301,-5525,6179,-1,-1,0
178.64,-2.13,-41.89,-296,-5530,6172,-1,0,-1
178.64,-2.13,-41.89,-301,-5534,6174,-1,0,-1
178.64,-2.13,-41.89,-305,-5536,6172,-1,-1,-1
178.65,-2.13,-41.89,-302,-5537,6172,0,0,-1
178.65,-2.13,-41.89,-302,-5530,6179,0,-1,0
178.65,-2.13,-41.89,-302,-5528,6174,-1,0,0
178.65,-2.13,-41.89,-305,-5531,6177,-1,0,-1
178.65,-2.13,-41.89,-308,-5536,6188,-1,0,-1
178.65,-2.13,-41.89,-306,-5540,6181,0,-1,-1
178.65,-2.12,-41.89,-300,-5535,6171,0,-1,0
178.65,-2.12,-41.89,-298,-5531,6180,-1,-1,0
178.65,-2.12,-41.89,-299,-5535,6177,-1,-1,0
178.65,-2.12,-41.89,-300,-5536,6181,0,0,0
178.65,-2.12,-41.88,-307,-5533,6176,-1,0,-1
178.65,-2.12,-41.89,-311,-5540,6179,0,-1,-1
178.65,-2.12,-41.89,-311,-5540,6182,-1,-1,0
178.65,-2.12,-41.89,-311,-5533,6172,-1,-1,0
178.65,-2.11,-41.89,-299,-5534,6173,0,-1,0
178.65,-2.11,-41.89,-290,-5534,6182,0,-1,0
178.65,-2.10,-41.89,-281,-5534,6178,0,-1,-1
178.66,-2.10,-41.89,-279,-5530,6188,-1,0,-1
178.66,-2.10,-41.89,-291,-5524,6189,-1,0,0
178.66,-2.10,-41.89,-296,-5518,6184,-1,0,0
178.65,-2.10,-41.89,-302,-5530,6187,-1,0,0
178.65,-2.10,-41.89,-304,-5534,6192,-1,-1,0
178.65,-2.10,-41.89,-309,-5545,6189,-1,0,-1
178.65,-2.10,-41.89,-315,-5555,6178,-1,-1,-1
178.65,-2.11,-41.89,-317,-5547,6176,0,0,0
178.65,-2.11,-41.89,-310,-5542,6181,0,0,0
178.66,-2.11,-41.89,-302,-5544,6191,0,-1,-1
178.66,-2.11,-41.88,-301,-5534,6187,0,-1,-1
178.66,-2.11,-41.88,-305,-5535,6188,0,0,0
178.66,-2.10,-41.87,-297,-5527,6187,0,-1,0
178.66,-2.10,-41.89,-276,-5540,6196,-2,0,-1
178.68,-2.11,-41.90,-295,-5527,6173,-1,1,-1
178.69,-2.12,-41.89,-320,-5507,6179,0,0,0
178.68,-2.12,-41.90,-311,-5519,6169,-1,-1,0
178.68,-2.10,-41.90,-286,-5541,6165,0,0,0
178.68,-2.11,-41.89,-292,-5547,6175,0,0,0
178.68,-2.11,-41.88,-297,-5529,6193,0,0,0
178.68,-2.11,-41.87,-297,-5538,6201,0,0,0
178.68,-2.12,-41.86,-305,-5531,6203,0,0,0
178.67,-2.12,-41.86,-316,-5535,6192,0,-1,-1
178.68,-2.12,-41.86,-306,-5543,6175,0,0,-1
178.68,-2.12,-41.86,-294,-5538,6177,0,0,-1
178.68,-2.12,-41.86,-290,-5534,6186,-1,0,-1
178.68,-2.12,-41.86,-302,-5531,6168,0,0,0
