Yaw,Pitch,Roll,AX,AY,AZ,GX,GY,GZ
-155.52,12.45,-68.64,1798,-7579,2958,-1,-1,0
-155.52,12.45,-68.64,1795,-7577,2955,0,0,0
-155.52,12.45,-68.64,1790,-7572,2953,-1,-1,0
-155.53,12.45,-68.64,1793,-7577,2961,-1,-1,0
-155.54,12.44,-68.64,1791,-7584,2958,-1,-1,0
-155.54,12.44,-68.64,1786,-7579,2960,-1,-1,0
-155.55,12.44,-68.65,1785,-7576,2963,0,-1,-1
-155.55,12.44,-68.65,1793,-7575,2952,-1,-1,0
-155.55,12.44,-68.65,1791,-7579,2945,-1,0,0
-155.56,12.43,-68.65,1786,-7578,2950,-1,-1,0
-155.55,12.43,-68.65,1779,-7574,2958,-1,-1,0
-155.57,12.42,-68.65,1773,-7580,2960,-1,-1,0
-155.57,12.42,-68.66,1777,-7580,2960,-1,-1,0
-155.57,12.42,-68.66,1788,-7585,2948,0,-1,0
-155.58,12.41,-68.66,1800,-7573,2941,0,0,0
-155.58,12.40,-68.65,1790,-7567,2964,-1,0,0
-155.59,12.40,-68.66,1785,-7574,2968,-1,-1,0
-155.60,12.40,-68.67,1779,-7587,2954,-1,-1,0
-155.60,12.39,-68.66,1789,-7595,2961,0,0,0
-155.61,12.38,-68.66,1784,-7584,2944,0,0,0
-155.61,12.38,-68.66,1784,-7582,2945,0,0,0
-155.61,12.38,-68.65,1778,-7568,2956,0,0,0
-155.62,12.37,-68.65,1779,-7562,2970,0,-1,0
-155.62,12.37,-68.65,1774,-7573,2977,-1,-1,0
-155.62,12.36,-68.64,1787,-7581,2973,-1,-1,0
-155.63,12.36,-68.65,1781,-7570,2968,0,-1,0
-155.64,12.35,-68.65,1776,-7571,2964,-1,-1,0
-155.65,12.35,-68.66,1771,-7585,2967,-1,-1,0
-155.66,12.34,-68.67,1779,-7595,2947,0,0,0
-155.67,12.34,-68.67,1769,-7592,2937,0,-1,0
-155.68,12.32,-68.66,1766,-7588,2943,0,0,0
-155.68,12.32,-68.67,1764,-7586,2943,-1,-1,0
-155.69,12.32,-68.67,1773,-7588,2948,0,0,0
-155.69,12.32,-68.67,1771,-7591,2956,0,0,0
-155.69,12.31,-68.67,1764,-7586,2949,0,-1,0
-155.69,12.31,-68.66,1765,-7584,2967,0,-1,0
-155.70,12.31,-68.66,1771,-7583,2972,0,-1,0
-155.70,12.31,-68.66,1775,-7590,2986,-1,0,0
-155.71,12.30,-68.67,1780,-7589,2965,-1,0,0
-155.72,12.29,-68.68,1768,-7589,2959,-1,-1,0
-155.73,12.29,-68.68,1763,-7594,2951,-1,-1,0
-155.73,12.29,-68.68,1766,-7588,2952,0,-1,0
-155.73,12.29,-68.68,1773,-7592,2957,0,0,0
-155.74,12.27,-68.68,1766,-7591,2951,0,0,0
-155.74,12.27,-68.67,1765,-7591,2961,0,-1,0
-155.74,12.27,-68.67,1754,-7583,2960,0,0,-1
-155.74,12.27,-68.67,1765,-7579,2964,-1,-1,0
-155.74,12.27,-68.67,1764,-7585,2957,-1,-1,0
-155.74,12.27,-68.68,1771,-7587,2953,-1,-1,-1
-155.74,12.27,-68.68,1772,-7582,2953,-1,0,0
-155.75,12.27,-68.68,1772,-7585,2955,-1,-1,0
-155.75,12.27,-68.68,1767,-7587,2953,-1,-1,0
-155.76,12.26,-68.68,1764,-7591,2944,0,-1,0
-155.76,12.26,-68.68,1767,-7589,2948,0,-1,0
-155.77,12.25,-68.68,1763,-7579,2956,-1,0,0
-155.77,12.26,-68.69,1760,-7583,2958,-1,0,0
-155.78,12.25,-68.69,1762,-7592,2946,-1,-1,-1
-155.78,12.25,-68.70,1761,-7599,2940,0,0,-1
-155.78,12.25,-68.69,1758,-7583,2956,0,-1,-1
-155.78,12.25,-68.69,1765,-7580,2963,0,-1,0
-155.78,12.25,-68.68,1773,-7584,2976,-1,0,0
-155.79,12.24,-68.70,1773,-7597,2955,-1,0,0
-155.79,12.24,-68.70,1763,-7600,2960,-1,-1,0
-155.79,12.24,-68.70,1765,-7600,2942,0,0,0
-155.80,12.24,-68.70,1756,-7594,2937,0,0,-1
-155.79,12.24,-68.70,1756,-7594,2944,0,0,-1
-155.79,12.24,-68.69,1763,-7585,2951,-1,-1,-1
-155.79,12.24,-68.69,1771,-7582,2967,-1,-1,0
-155.79,12.24,-68.69,1764,-7589,2951,-1,-1,0
-155.80,12.23,-68.70,1766,-7591,2954,-1,-1,0
-155.80,12.23,-68.70,1765,-7589,2958,-1,0,0
-155.80,12.23,-68.71,1767,-7591,2958,-1,0,0
-155.81,12.23,-68.71,1762,-7590,2948,0,-1,0
-155.81,12.23,-68.71,1757,-7600,2953,0,-1,-1
-155.81,12.22,-68.70,1759,-7595,2958,0,-1,-1
-155.81,12.23,-68.70,1756,-7591,2957,-1,-1,-1
-155.81,12.23,-68.70,1755,-7588,2955,0,-1,-1
-155.81,12.23,-68.70,1757,-7590,2963,0,-1,-1
-155.81,12.23,-68.70,1759,-7593,2956,0,-1,-1
-155.80,12.24,-68.70,1762,-7590,2956,0,-1,-1
-155.80,12.24,-68.70,1760,-7593,2954,0,0,-1
-155.79,12.24,-68.69,1751,-7589,2965,0,0,-1
-155.79,12.24,-68.69,1754,-7584,2963,-1,-1,-1
-155.79,12.25,-68.70,1767,-7586,2951,-1,-1,-1
-155.79,12.25,-68.70,1767,-7586,2955,0,0,-1
-155.79,12.25,-68.70,1766,-7582,2964,-1,0,-1
-155.79,12.25,-68.70,1761,-7583,2956,-1,-1,-1
-155.79,12.25,-68.70,1765,-7589,2947,0,0,-1
-155.78,12.26,-68.70,1769,-7602,2951,0,0,-1
-155.77,12.26,-68.69,1765,-7594,2946,0,0,-1
-155.77,12.26,-68.69,1762,-7592,2952,0,-1,-1
-155.77,12.26,-68.68,1758,-7580,2965,-1,-1,-1
-155.76,12.26,-68.68,1759,-7584,2958,-1,0,-1
-155.76,12.26,-68.68,1757,-7588,2967,-1,0,-1
-155.76,12.27,-68.69,1765,-7604,2952,0,0,-1
-155.76,12.27,-68.69,1765,-7596,2950,-1,0,-1
-155.75,12.27,-68.68,1768,-7588,2956,0,0,-1
-155.74,12.28,-68.68,1761,-7576,2962,-1,-1,-1
-155.74,12.28,-68.69,1767,-7584,2958,-1,0,-1
-155.74,12.28,-68.69,1769,-7592,2963,-1,0,-1
-155.74,12.28,-68.68,1763,-7590,2959,0,0,-1
-155.73,12.28,-68.68,1759,-7588,2958,-1,0,-1
-155.73,12.28,-68.68,1763,-7584,2961,-1,0,-1
-155.73,12.28,-68.69,1760,-7601,2955,-1,-1,-1
-155.72,12.29,-68.69,1767,-7604,2948,0,0,-1
-155.72,12.30,-68.68,1772,-7598,2942,0,0,-1
-155.72,12.29,-68.68,1773,-7574,2956,-1,0,0
-155.72,12.30,-68.68,1768,-7579,2960,-1,-1,-1
-155.72,12.30,-68.69,1767,-7597,2957,-1,-1,-1
-155.72,12.30,-68.69,1772,-7602,2948,0,0,-1
-155.72,12.30,-68.69,1767,-7598,2945,0,0,-1
-155.71,12.30,-68.69,1765,-7589,2947,0,0,-1
-155.71,12.30,-68.68,1765,-7586,2969,0,0,-1
-155.70,12.31,-68.67,1767,-7580,2972,0,0,-1
-155.70,12.31,-68.67,1765,-7581,2969,-1,0,-1
-155.69,12.31,-68.67,1774,-7583,2963,-1,-1,-1
-155.69,12.32,-68.67,1773,-7581,2950,-1,0,-1
-155.69,12.32,-68.68,1777,-7579,2956,-1,-1,-1
-155.69,12.32,-68.68,1772,-7582,2953,-1,-1,-1
-155.69,12.32,-68.68,1785,-7592,2953,0,0,-1
-155.68,12.32,-68.68,1778,-7588,2956,0,0,-1
-155.68,12.32,-68.68,1771,-7588,2954,-1,0,-1
-155.68,12.32,-68.68,1773,-7586,2955,0,0,-1
-155.68,12.32,-68.68,1773,-7592,2950,0,-1,-1
-155.67,12.33,-68.68,1777,-7576,2948,0,0,-1
-155.66,12.34,-68.67,1780,-7575,2952,0,0,-1
-155.65,12.34,-68.66,1780,-7574,2970,0,0,-1
-155.64,12.35,-68.66,1781,-7588,2973,-1,0,-1
-155.64,12.35,-68.66,1780,-7580,2962,-1,0,-1
-155.64,12.35,-68.66,1777,-7575,2957,-1,-1,-1
-155.63,12.36,-68.67,1784,-7577,2951,-1,0,-1
-155.63,12.37,-68.67,1783,-7582,2948,-1,0,-1
-155.63,12.37,-68.67,1784,-7583,2951,-1,0,-1
-155.63,12.37,-68.67,1785,-7582,2958,-1,0,-1
-155.62,12.37,-68.67,1785,-7581,2957,-1,0,-1
-155.62,12.37,-68.67,1777,-7579,2952,0,0,-1
-155.61,12.38,-68.66,1778,-7585,2959,0,0,-1
-155.60,12.38,-68.66,1781,-7576,2967,0,0,-1
-155.59,12.39,-68.65,1785,-7576,2973,-1,0,-1
-155.59,12.39,-68.65,1785,-7570,2970,-1,-1,-1
-155.58,12.40,-68.65,1780,-7585,2963,-1,0,-1
-155.58,12.40,-68.65,1781,-7584,2967,0,-1,-1
-155.57,12.41,-68.65,1783,-7585,2973,0,-1,-1
-155.57,12.41,-68.65,1777,-7579,2967,0,0,-1
-155.56,12.41,-68.65,1781,-7580,2964,0,0,-1
-155.56,12.41,-68.65,1779,-7579,2963,-1,0,-1
-155.56,12.41,-68.64,1772,-7583,2965,0,0,-1
-155.56,12.41,-68.65,1777,-7578,2957,0,0,-1
-155.55,12.42,-68.64,1786,-7580,2954,0,0,-1
-155.54,12.42,-68.64,1782,-7579,2955,-1,0,-1
-155.54,12.42,-68.65,1786,-7582,2955,-1,-1,-1
-155.54,12.44,-68.65,1796,-7594,2946,0,-1,-1
-155.52,12.44,-68.64,1802,-7589,2951,0,0,-1
-155.52,12.45,-68.64,1801,-7577,2965,0,0,-1
-155.51,12.46,-68.63,1793,-7568,2969,-1,0,-1
-155.51,12.46,-68.64,1788,-7578,2969,-1,-1,-1
-155.51,12.46,-68.64,1794,-7584,2968,-1,0,-1
-155.50,12.46,-68.64,1789,-7591,2962,-1,0,-1
-155.49,12.47,-68.64,1796,-7577,2957,0,0,-1
-155.48,12.47,-68.63,1782,-7584,2957,0,0,-1
-155.46,12.48,-68.62,1784,-7575,2974,0,0,-1
-155.46,12.48,-68.62,1786,-7565,2970,-1,0,-1
-155.45,12.49,-68.62,1795,-7567,2973,-1,0,-1
-155.44,12.50,-68.62,1806,-7568,2973,-1,0,-1
-155.43,12.50,-68.62,1803,-7572,2969,-1,0,-1
-155.44,12.50,-68.62,1797,-7568,2968,-1,0,-1
-155.44,12.50,-68.63,1798,-7568,2949,-1,0,-1
-155.43,12.50,-68.63,1793,-7573,2959,-1,0,-1
-155.43,12.50,-68.63,1795,-7575,2953,0,0,-1
-155.43,12.51,-68.63,1796,-7568,2960,-1,0,-1
-155.42,12.51,-68.63,1801,-7577,2962,-1,0,-1
-155.42,12.52,-68.63,1811,-7582,2954,-1,0,-1
-155.41,12.52,-68.63,1801,-7586,2951,0,0,-1
-155.40,12.52,-68.62,1800,-7585,2953,0,0,-1
-155.39,12.53,-68.62,1798,-7584,2961,0,0,-1
-155.39,12.53,-68.61,1798,-7577,2970,0,0,-1
-155.39,12.53,-68.62,1804,-7573,2977,-1,0,-1
-155.38,12.54,-68.61,1814,-7569,2973,-1,0,-1
-155.38,12.53,-68.62,1801,-7573,2961,-1,0,-1
-155.39,12.53,-68.63,1796,-7584,2951,-1,-1,-1
-155.39,12.54,-68.63,1797,-7586,2951,-1,0,0
-155.40,12.53,-68.63,1803,-7579,2951,-1,-1,0
-155.40,12.53,-68.64,1798,-7579,2948,-1,0,0
-155.41,12.52,-68.64,1795,-7582,2954,0,0,0
-155.41,12.52,-68.64,1797,-7581,2954,0,0,-1
-155.40,12.52,-68.63,1801,-7575,2961,0,-1,-1
-155.41,12.52,-68.63,1794,-7580,2961,-1,-1,0
-155.41,12.51,-68.63,1806,-7577,2965,0,0,-1
-155.41,12.51,-68.63,1800,-7586,2969,-1,-1,0
-155.41,12.51,-68.64,1799,-7587,2971,-1,0,0
-155.42,12.51,-68.64,1793,-7585,2957,-1,-1,0
-155.42,12.51,-68.64,1801,-7583,2962,0,0,0
-155.43,12.50,-68.64,1796,-7579,2957,0,0,0
-155.43,12.50,-68.64,1795,-7579,2958,-1,-1,0
-155.44,12.49,-68.65,1796,-7586,2955,-1,-1,0
-155.44,12.49,-68.65,1796,-7600,2945,0,-1,-1
-155.44,12.49,-68.64,1800,-7580,2951,0,0,-1
-155.44,12.49,-68.64,1812,-7560,2965,-1,0,0
-155.45,12.48,-68.64,1799,-7557,2980,-1,-1,0
-155.46,12.47,-68.65,1788,-7581,2965,-1,-1,0
-155.47,12.47,-68.66,1797,-7597,2956,-1,-1,0
-155.47,12.47,-68.66,1792,-7595,2946,0,0,0
-155.47,12.47,-68.65,1785,-7582,2952,0,0,-1
-155.47,12.47,-68.64,1792,-7572,2963,0,-1,-1
-155.47,12.47,-68.64,1802,-7564,2971,-1,0,0
-155.47,12.47,-68.64,1798,-7571,2976,-1,-1,0
-155.47,12.46,-68.65,1802,-7571,2968,-1,-1,0
-155.47,12.47,-68.65,1796,-7582,2970,0,0,0
-155.48,12.46,-68.65,1799,-7578,2963,-1,-1,0
-155.48,12.46,-68.65,1796,-7573,2955,-1,-1,0
-155.49,12.45,-68.66,1796,-7573,2955,0,-1,0
-155.50,12.45,-68.66,1797,-7578,2950,-1,-1,0
-155.51,12.44,-68.67,1788,-7593,2950,0,0,0
-155.51,12.44,-68.67,1788,-7594,2954,-1,0,0
-155.52,12.43,-68.67,1791,-7596,2946,0,0,0
-155.53,12.43,-68.67,1779,-7590,2944,-1,0,0
-155.53,12.42,-68.67,1779,-7580,2945,0,0,0
-155.53,12.42,-68.66,1776,-7579,2953,0,-1,-1
-155.53,12.42,-68.66,1779,-7580,2958,0,0,-1
-155.53,12.42,-68.66,1785,-7579,2956,0,-1,0
-155.54,12.42,-68.67,1787,-7579,2959,-1,-1,0
-155.55,12.41,-68.67,1784,-7579,2948,-1,0,0
-155.56,12.40,-68.68,1784,-7580,2953,-1,-1,0
-155.56,12.40,-68.68,1778,-7584,2944,-1,0,0
-155.57,12.40,-68.68,1776,-7584,2942,0,-1,0
-155.57,12.39,-68.68,1778,-7593,2942,-1,-1,0
-155.58,12.38,-68.68,1784,-7596,2955,0,-1,0
-155.58,12.38,-68.68,1783,-7592,2968,0,-1,0
-155.58,12.38,-68.67,1783,-7579,2962,-1,0,0
-155.59,12.37,-68.68,1769,-7579,2966,-1,-1,0
-155.60,12.37,-68.68,1778,-7584,2957,-1,-1,0
-155.60,12.37,-68.68,1778,-7590,2952,-1,-1,0
-155.60,12.37,-68.68,1785,-7592,2954,0,0,0
-155.61,12.36,-68.68,1778,-7579,2963,-1,-1,0
-155.62,12.35,-68.69,1769,-7579,2952,-1,-1,0
-155.63,12.35,-68.70,1775,-7580,2954,-1,-1,0
-155.64,12.34,-68.71,1780,-7597,2940,-1,-1,0
-155.63,12.35,-68.70,1787,-7593,2954,0,0,0
-155.64,12.34,-68.70,1780,-7583,2957,0,0,0
-155.64,12.33,-68.70,1764,-7566,2963,-1,-1,0
-155.65,12.33,-68.70,1769,-7575,2962,-1,-1,0
-155.66,12.32,-68.71,1774,-7587,2963,-1,-1,0
-155.66,12.32,-68.71,1772,-7589,2958,0,0,0
-155.67,12.31,-68.70,1771,-7581,2954,0,0,0
-155.66,12.31,-68.69,1764,-7579,2963,0,-1,0
-155.66,12.31,-68.69,1770,-7575,2962,0,-1,0
-155.66,12.31,-68.68,1768,-7571,2982,-1,-1,0
-155.67,12.31,-68.69,1775,-7582,2966,-1,0,0
-155.67,12.30,-68.69,1775,-7582,2964,-1,-1,0
-155.68,12.30,-68.70,1769,-7582,2953,-1,-1,0
-155.69,12.29,-68.71,1778,-7585,2955,-1,-1,0
-155.70,12.29,-68.70,1771,-7580,2956,0,-1,0
-155.70,12.29,-68.70,1771,-7585,2951,0,-1,0
-155.71,12.28,-68.71,1768,-7590,2956,0,-1,0
-155.71,12.28,-68.71,1767,-7587,2951,-1,-1,0
-155.72,12.27,-68.71,1760,-7583,2949,-1,-1,0
-155.72,12.27,-68.71,1766,-7585,2951,0,0,0
-155.72,12.26,-68.70,1772,-7584,2956,0,0,0
-155.72,12.26,-68.70,1776,-7579,2958,0,-1,0
-155.72,12.26,-68.70,1769,-7569,2960,0,-1,0
-155.72,12.26,-68.70,1764,-7576,2968,-1,-1,0
-155.73,12.26,-68.70,1768,-7572,2961,-1,0,0
-155.73,12.25,-68.71,1768,-7589,2948,-1,-1,0
-155.75,12.25,-68.71,1765,-7594,2953,-1,0,0
-155.75,12.25,-68.72,1762,-7588,2947,-1,-1,0
-155.75,12.24,-68.71,1762,-7584,2952,-1,-1,0
-155.75,12.24,-68.71,1761,-7582,2947,0,-1,0
-155.76,12.24,-68.71,1761,-7586,2949,0,-1,0
-155.76,12.23,-68.71,1767,-7585,2960,0,0,0
-155.77,12.23,-68.71,1769,-7587,2961,-1,-1,0
-155.78,12.22,-68.72,1755,-7583,2959,-1,-1,0
-155.79,12.21,-68.72,1761,-7594,2960,-1,-1,0
-155.80,12.21,-68.72,1762,-7592,2955,-1,-1,0
-155.79,12.20,-68.72,1758,-7583,2948,-1,-1,0
-155.80,12.20,-68.72,1757,-7581,2951,0,-1,0
-155.81,12.20,-68.72,1762,-7585,2956,0,-1,0
-155.81,12.20,-68.72,1757,-7587,2959,0,-1,0
-155.81,12.19,-68.72,1764,-7596,2956,-1,-1,0
-155.82,12.19,-68.72,1761,-7593,2947,0,-1,0
-155.82,12.19,-68.72,1756,-7598,2945,0,-1,0
-155.83,12.19,-68.73,1758,-7601,2936,0,-1,-1
-155.82,12.19,-68.72,1768,-7589,2943,0,0,-1
-155.82,12.19,-68.71,1766,-7580,2957,0,-1,0
-155.82,12.19,-68.71,1759,-7588,2957,-1,-1,0
-155.83,12.19,-68.72,1756,-7594,2943,-1,-1,-1
-155.83,12.19,-68.73,1758,-7602,2943,0,-1,-1
-155.83,12.19,-68.72,1761,-7595,2948,0,0,-1
-155.82,12.19,-68.72,1758,-7598,2941,0,0,-1
-155.82,12.19,-68.71,1749,-7586,2952,0,-1,-1
-155.81,12.20,-68.71,1758,-7591,2955,0,-1,-1
-155.81,12.20,-68.71,1760,-7589,2960,-1,-1,-1
-155.80,12.21,-68.71,1763,-7590,2962,0,0,-1
-155.80,12.21,-68.71,1767,-7581,2955,0,-1,-1
-155.79,12.21,-68.71,1767,-7577,2963,-1,-1,-1
-155.80,12.21,-68.72,1757,-7579,2948,-1,-1,-1
-155.80,12.21,-68.72,1761,-7597,2953,-1,-1,-1
-155.79,12.22,-68.71,1770,-7606,2951,0,0,-1
-155.78,12.23,-68.71,1773,-7592,2939,0,-1,-1
-155.78,12.23,-68.71,1760,-7582,2946,0,-1,-1
-155.78,12.23,-68.71,1759,-7590,2954,-1,-1,-1
-155.77,12.24,-68.71,1762,-7589,2949,0,0,-1
-155.76,12.24,-68.71,1769,-7585,2945,0,0,-1
-155.76,12.24,-68.71,1767,-7584,2948,0,0,-1
-155.75,12.25,-68.70,1760,-7582,2968,0,0,-1
-155.74,12.25,-68.70,1762,-7583,2969,-1,-1,-1
-155.74,12.26,-68.70,1765,-7583,2970,-1,-1,-1
-155.73,12.26,-68.70,1763,-7589,2967,-1,-1,-1
-155.74,12.26,-68.71,1761,-7593,2951,-1,0,-1
-155.74,12.26,-68.71,1762,-7593,2946,-1,0,-1
-155.73,12.27,-68.71,1759,-7598,2946,-1,0,-1
-155.73,12.26,-68.71,1763,-7591,2952,-1,0,-1
-155.73,12.27,-68.71,1766,-7592,2951,0,0,-1
-155.72,12.27,-68.70,1767,-7589,2952,0,0,-1
-155.72,12.27,-68.70,1764,-7592,2952,0,0,-1
-155.71,12.28,-68.70,1765,-7590,2953,0,-1,-1
-155.71,12.27,-68.70,1771,-7586,2958,0,-1,-1
-155.72,12.28,-68.71,1766,-7589,2961,-1,0,-1
-155.71,12.28,-68.70,1775,-7591,2960,-1,0,-1
-155.71,12.29,-68.70,1774,-7592,2948,0,-1,-1
-155.71,12.29,-68.70,1777,-7592,2954,-1,0,-1
-155.70,12.29,-68.70,1774,-7601,2958,-1,0,-1
-155.70,12.29,-68.70,1777,-7602,2957,0,0,-1
-155.69,12.30,-68.70,1767,-7597,2955,0,0,-1
-155.69,12.29,-68.70,1768,-7583,2959,-1,-1,0
-155.70,12.29,-68.69,1769,-7582,2962,0,0,0
-155.69,12.29,-68.70,1769,-7593,2973,-1,0,-1
-155.69,12.30,-68.70,1776,-7607,2957,0,0,-1
-155.68,12.30,-68.69,1775,-7596,2956,0,0,-1
-155.67,12.30,-68.68,1775,-7570,2961,0,0,-1
-155.67,12.30,-68.69,1769,-7562,2967,-1,-1,-1
-155.67,12.30,-68.69,1772,-7576,2960,-1,-1,-1
-155.67,12.31,-68.69,1774,-7590,2954,-1,0,0
-155.67,12.31,-68.69,1765,-7593,2944,0,0,-1
-155.67,12.30,-68.69,1765,-7583,2951,0,-1,-1
-155.66,12.31,-68.68,1761,-7575,2951,0,0,-1
-155.65,12.32,-68.68,1763,-7579,2957,0,0,-1
-155.65,12.32,-68.68,1774,-7571,2967,-1,-1,-1
-155.65,12.32,-68.68,1776,-7581,2961,-1,-1,-1
-155.65,12.32,-68.68,1776,-7584,2963,-1,-1,-1
-155.65,12.32,-68.68,1771,-7578,2955,0,-1,-1
-155.64,12.33,-68.69,1778,-7576,2952,-1,-1,-1
-155.64,12.33,-68.69,1785,-7580,2944,-1,-1,-1
-155.64,12.34,-68.69,1788,-7582,2936,0,-1,-1
-155.63,12.34,-68.69,1782,-7579,2949,0,0,-1
-155.63,12.34,-68.69,1778,-7583,2953,-1,0,-1
-155.63,12.34,-68.69,1780,-7590,2954,-1,-1,-1
-155.62,12.35,-68.68,1784,-7590,2959,0,0,-1
-155.62,12.35,-68.68,1779,-7583,2959,0,0,-1
-155.62,12.35,-68.68,1781,-7579,2951,0,-1,-1
-155.60,12.36,-68.67,1777,-7586,2956,0,0,-1
-155.60,12.36,-68.67,1781,-7583,2962,0,0,-1
-155.60,12.36,-68.67,1785,-7582,2957,-1,0,-1
-155.59,12.38,-68.68,1787,-7583,2948,-1,0,-1
-155.59,12.38,-68.68,1790,-7581,2956,-1,-1,-1
-155.58,12.38,-68.68,1785,-7574,2956,0,-1,-1
-155.58,12.39,-68.68,1788,-7566,2957,-1,-1,-1
-155.57,12.39,-68.68,1786,-7575,2953,0,0,-1
-155.57,12.39,-68.68,1777,-7579,2960,-1,0,-1
-155.56,12.40,-68.67,1782,-7587,2959,0,0,-1
-155.55,12.39,-68.67,1773,-7580,2965,0,0,-1
-155.54,12.40,-68.66,1785,-7577,2965,-1,0,-1
-155.53,12.41,-68.66,1791,-7576,2960,0,0,-1
-155.53,12.42,-68.66,1792,-7579,2956,0,0,-1
-155.52,12.42,-68.66,1794,-7583,2959,0,0,-1
-155.51,12.42,-68.65,1797,-7589,2968,-1,0,-1
-155.51,12.43,-68.66,1788,-7581,2955,0,0,-1
-155.50,12.43,-68.65,1793,-7572,2964,-1,0,-1
-155.49,12.44,-68.65,1794,-7569,2957,0,0,-1
-155.48,12.45,-68.65,1796,-7572,2959,-1,0,-1
-155.48,12.45,-68.65,1794,-7573,2962,0,0,-1
-155.47,12.45,-68.65,1796,-7579,2958,0,0,-1
-155.47,12.45,-68.64,1795,-7574,2963,0,0,-1
-155.46,12.46,-68.64,1790,-7570,2962,-1,0,-1
-155.45,12.46,-68.64,1791,-7573,2960,-1,0,-1
-155.44,12.47,-68.64,1804,-7584,2953,0,0,-1
-155.42,12.48,-68.63,1811,-7579,2963,0,0,-1
-155.42,12.48,-68.62,1810,-7566,2969,0,0,-1
-155.41,12.49,-68.62,1805,-7562,2965,-1,0,-1
-155.41,12.49,-68.63,1802,-7567,2964,-1,0,-1
-155.41,12.49,-68.63,1802,-7578,2954,0,0,-1
-155.40,12.49,-68.63,1804,-7584,2952,0,0,-1
-155.39,12.50,-68.62,1797,-7580,2952,0,0,-1
-155.38,12.50,-68.61,1797,-7573,2954,0,0,-1
-155.36,12.51,-68.60,1804,-7556,2963,0,0,-1
-155.35,12.51,-68.59,1799,-7557,2981,-1,0,-1
-155.34,12.52,-68.59,1808,-7568,2978,0,0,-1
-155.33,12.52,-68.58,1806,-7570,2982,-1,0,-1
-155.33,12.52,-68.58,1810,-7576,2981,0,0,-1
-155.33,12.52,-68.59,1801,-7574,2979,-1,0,-1
-155.33,12.52,-68.59,1804,-7583,2972,0,0,-1
-155.33,12.53,-68.59,1813,-7579,2972,0,0,-1
-155.33,12.52,-68.59,1811,-7575,2968,-1,0,0
-155.33,12.52,-68.59,1807,-7573,2966,-1,-1,0
-155.35,12.52,-68.60,1804,-7587,2955,-1,-1,0
-155.34,12.51,-68.60,1800,-7579,2952,0,0,0
-155.35,12.51,-68.60,1805,-7580,2962,0,0,0
-155.35,12.51,-68.59,1794,-7567,2968,0,0,0
-155.35,12.51,-68.59,1795,-7566,2978,0,-1,0
-155.36,12.50,-68.59,1799,-7570,2989,-1,-1,0
-155.35,12.50,-68.59,1807,-7575,2981,0,-1,0
-155.35,12.50,-68.59,1808,-7576,2976,0,-1,0
-155.36,12.50,-68.59,1801,-7562,2976,-1,-1,0
-155.37,12.49,-68.60,1809,-7554,2965,-1,-1,0
-155.38,12.49,-68.60,1806,-7564,2957,-1,-1,0
-155.39,12.48,-68.61,1802,-7570,2948,-1,-1,0
-155.40,12.48,-68.62,1804,-7577,2945,0,-1,0
-155.40,12.48,-68.61,1802,-7579,2953,0,-1,0
-155.40,12.48,-68.61,1803,-7581,2966,0,-1,0
-155.40,12.47,-68.61,1809,-7572,2971,-1,-1,0
-155.41,12.47,-68.61,1800,-7570,2966,-1,-1,0
-155.42,12.47,-68.62,1798,-7569,2961,-1,-1,0
-155.43,12.46,-68.62,1802,-7571,2957,0,-1,0
-155.43,12.46,-68.61,1804,-7576,2977,-1,0,0
-155.43,12.46,-68.62,1803,-7579,2967,0,-1,0
-155.44,12.45,-68.62,1792,-7568,2975,-1,-1,0
-155.45,12.45,-68.62,1788,-7576,2973,-1,-1,0
-155.46,12.44,-68.63,1797,-7588,2965,-1,-1,0
-155.45,12.44,-68.63,1805,-7588,2958,0,-1,0
-155.45,12.45,-68.62,1813,-7578,2968,0,-1,0
-155.45,12.44,-68.61,1806,-7559,2979,-1,-1,0
-155.46,12.43,-68.62,1797,-7555,2974,-1,-1,0
-155.48,12.42,-68.63,1793,-7576,2963,-1,-1,0
-155.49,12.42,-68.63,1792,-7594,2957,-1,-1,0
-155.49,12.41,-68.63,1793,-7592,2955,0,0,0
-155.49,12.41,-68.63,1791,-7584,2960,0,-1,0
-155.50,12.41,-68.63,1786,-7575,2965,0,-1,0
-155.50,12.41,-68.63,1789,-7570,2969,-1,-1,0
-155.49,12.41,-68.63,1799,-7574,2969,-1,-1,0
-155.51,12.40,-68.63,1804,-7574,2961,-1,-1,0
-155.51,12.40,-68.64,1795,-7572,2966,-1,-1,0
-155.52,12.40,-68.64,1788,-7575,2970,-1,-1,0
-155.52,12.40,-68.64,1792,-7576,2966,-1,-1,0
-155.53,12.39,-68.65,1796,-7575,2960,-1,-1,0
-155.54,12.39,-68.65,1792,-7578,2963,-1,-1,0
-155.55,12.38,-68.65,1794,-7583,2959,-1,-1,0
-155.55,12.38,-68.66,1794,-7584,2963,0,-1,0
-155.56,12.37,-68.65,1787,-7590,2972,-1,0,0
-155.56,12.37,-68.65,1776,-7592,2963,0,0,0
-155.56,12.36,-68.65,1772,-7588,2969,-1,-1,0
-155.56,12.36,-68.64,1771,-7584,2976,0,-1,0
-155.56,12.36,-68.64,1778,-7580,2969,-1,-1,0
-155.56,12.36,-68.64,1789,-7584,2978,-1,-1,0
-155.57,12.36,-68.65,1792,-7577,2971,-1,-1,0
-155.58,12.35,-68.65,1785,-7580,2969,-1,-1,0
-155.59,12.34,-68.66,1787,-7580,2955,-1,-1,0
-155.60,12.34,-68.66,1784,-7582,2964,-1,-1,0
-155.60,12.33,-68.66,1779,-7581,2960,0,-1,0
-155.61,12.33,-68.66,1782,-7578,2969,0,-1,0
-155.61,12.33,-68.66,1780,-7582,2970,0,-1,0
-155.61,12.32,-68.66,1784,-7583,2971,0,-1,0
-155.61,12.32,-68.66,1783,-7576,2972,-1,-1,0
-155.61,12.32,-68.66,1788,-7581,2966,-1,-1,0
-155.62,12.32,-68.66,1781,-7580,2964,0,-1,0
-155.62,12.32,-68.66,1778,-7579,2964,0,-1,0
-155.63,12.32,-68.66,1785,-7574,2957,-1,-1,0
-155.64,12.31,-68.66,1785,-7572,2966,-1,-1,0
-155.64,12.31,-68.67,1782,-7581,2966,-1,-1,0
-155.65,12.31,-68.68,1775,-7594,2951,-1,-1,0
-155.65,12.30,-68.68,1779,-7597,2951,0,-1,0
-155.65,12.30,-68.67,1784,-7576,2965,0,-1,0
-155.65,12.30,-68.66,1786,-7571,2963,-1,-1,0
-155.66,12.29,-68.66,1792,-7571,2976,-1,0,0
-155.66,12.29,-68.67,1786,-7589,2968,-1,0,0
-155.67,12.28,-68.67,1775,-7590,2954,-1,-1,0
-155.67,12.28,-68.67,1770,-7588,2945,0,-1,0
-155.67,12.28,-68.67,1771,-7581,2942,0,-1,0
-155.67,12.28,-68.67,1773,-7578,2940,0,0,-1
-155.67,12.28,-68.66,1779,-7574,2943,0,-1,0
-155.68,12.27,-68.67,1776,-7576,2952,-1,-1,0
-155.68,12.28,-68.68,1769,-7582,2948,-1,-1,0
-155.69,12.27,-68.68,1774,-7590,2956,-1,-1,0
-155.70,12.27,-68.69,1767,-7590,2954,0,-1,0
-155.70,12.27,-68.69,1771,-7587,2953,-1,-1,0
-155.71,12.26,-68.69,1771,-7592,2947,0,-1,0
-155.71,12.26,-68.70,1772,-7593,2952,0,-1,0
-155.71,12.26,-68.69,1774,-7579,2956,-1,-1,0
-155.71,12.26,-68.69,1771,-7576,2965,-1,-1,0
-155.72,12.25,-68.69,1775,-7583,2964,0,-1,0
-155.72,12.25,-68.69,1779,-7584,2957,0,0,0
-155.72,12.25,-68.68,1767,-7587,2960,0,-1,0
-155.73,12.24,-68.69,1762,-7585,2956,0,-1,0
-155.73,12.24,-68.68,1765,-7589,2970,0,-1,0
-155.73,12.24,-68.68,1768,-7589,2962,-1,-1,0
-155.73,12.24,-68.68,1766,-7574,2964,-1,-1,0
-155.74,12.23,-68.69,1774,-7585,2964,-1,-1,0
-155.74,12.24,-68.69,1779,-7585,2963,0,0,0
-155.74,12.23,-68.69,1770,-7593,2955,-1,0,0
-155.75,12.23,-68.69,1767,-7593,2953,0,0,0
-155.75,12.23,-68.69,1759,-7588,2960,0,-1,-1
-155.75,12.23,-68.68,1760,-7590,2955,0,-1,-1
-155.74,12.23,-68.68,1769,-7588,2964,0,-1,-1
-155.74,12.23,-68.67,1768,-7578,2966,0,-1,0
-155.74,12.23,-68.67,1763,-7578,2956,0,-1,0
-155.74,12.23,-68.68,1759,-7585,2971,-1,-1,0
-155.74,12.23,-68.68,1767,-7585,2956,0,0,-1
-155.74,12.23,-68.68,1772,-7597,2948,0,0,-1
-155.74,12.23,-68.68,1769,-7584,2958,0,-1,-1
-155.73,12.24,-68.68,1769,-7583,2958,0,-1,-1
-155.74,12.24,-68.67,1758,-7581,2961,-1,-1,0
-155.74,12.24,-68.68,1765,-7585,2961,-1,-1,-1
-155.74,12.24,-68.68,1768,-7590,2965,-1,-1,-1
-155.73,12.25,-68.67,1766,-7597,2963,0,-1,-1
-155.73,12.25,-68.67,1767,-7585,2964,0,0,-1
-155.71,12.25,-68.66,1768,-7572,2967,0,-1,-1
-155.71,12.25,-68.66,1771,-7573,2960,-1,-1,-1
-155.72,12.25,-68.67,1774,-7590,2949,-1,-1,-1
-155.71,12.26,-68.67,1775,-7594,2944,-1,-1,-1
-155.71,12.26,-68.67,1771,-7590,2945,-1,0,-1
-155.71,12.26,-68.67,1764,-7594,2948,0,0,-1
-155.71,12.26,-68.66,1760,-7594,2953,0,-1,-1
-155.71,12.26,-68.66,1769,-7590,2959,0,-1,-1
-155.70,12.27,-68.66,1781,-7587,2965,-1,-1,-1
-155.69,12.27,-68.66,1781,-7586,2960,-1,0,-1
-155.69,12.27,-68.65,1774,-7587,2966,0,0,-1
-155.69,12.28,-68.65,1777,-7583,2969,0,-1,-1
-155.68,12.28,-68.64,1774,-7569,2964,-1,0,-1
-155.68,12.28,-68.65,1776,-7577,2959,0,0,-1
-155.68,12.28,-68.64,1774,-7589,2958,0,-1,-1
-155.67,12.28,-68.63,1775,-7587,2967,0,0,-1
-155.67,12.28,-68.63,1770,-7568,2974,-1,-1,-1
-155.66,12.29,-68.62,1775,-7565,2964,0,0,-1
-155.65,12.29,-68.62,1782,-7574,2973,-1,0,-1
-155.65,12.30,-68.62,1782,-7580,2972,0,0,-1
-155.65,12.29,-68.63,1770,-7581,2962,-1,0,-1
-155.65,12.29,-68.63,1768,-7584,2961,0,0,-1
-155.64,12.30,-68.61,1766,-7581,2977,0,0,-1
-155.63,12.30,-68.61,1769,-7582,2982,-1,-1,-1
-155.62,12.30,-68.61,1782,-7574,2980,-1,0,-1
-155.63,12.30,-68.62,1775,-7578,2983,-1,-1,-1
-155.63,12.30,-68.62,1764,-7583,2966,-1,-1,-1
-155.63,12.30,-68.62,1763,-7590,2968,-1,-1,-1
-155.63,12.31,-68.63,1777,-7600,2961,0,0,-1
-155.63,12.31,-68.63,1781,-7595,2958,0,0,-1
-155.62,12.31,-68.62,1781,-7581,2970,0,0,-1
-155.61,12.32,-68.61,1774,-7572,2969,0,-1,-1
-155.61,12.32,-68.61,1779,-7574,2974,0,-1,-1
-155.61,12.33,-68.62,1784,-7589,2962,-1,0,-1
-155.60,12.33,-68.61,1787,-7586,2973,0,0,-1
-155.59,12.33,-68.61,1780,-7585,2969,0,0,-1
-155.59,12.33,-68.61,1778,-7585,2976,-1,-1,-1
-155.58,12.34,-68.61,1774,-7585,2960,0,-1,-1
-155.58,12.34,-68.61,1781,-7583,2968,-1,-1,-1
-155.57,12.35,-68.61,1783,-7589,2964,0,0,-1
-155.57,12.35,-68.61,1785,-7586,2969,0,0,-1
-155.56,12.36,-68.60,1782,-7580,2963,0,0,-1
-155.56,12.36,-68.60,1780,-7574,2967,-1,-1,-1
-155.56,12.36,-68.60,1787,-7571,2965,-1,0,-1
-155.56,12.36,-68.61,1774,-7585,2962,-1,0,-1
-155.55,12.37,-68.61,1781,-7589,2964,-1,-1,-1
-155.54,12.38,-68.61,1789,-7591,2961,0,0,-1
-155.52,12.39,-68.60,1787,-7576,2961,0,0,-1
-155.51,12.39,-68.59,1788,-7560,2972,0,-1,-1
-155.51,12.40,-68.60,1794,-7558,2978,-1,-1,-1
-155.51,12.40,-68.60,1802,-7573,2970,-1,0,-1
-155.51,12.41,-68.60,1790,-7589,2962,-1,0,-1
-155.50,12.41,-68.61,1789,-7592,2955,0,0,-1
-155.49,12.42,-68.59,1787,-7586,2959,0,0,-1
-155.48,12.42,-68.58,1781,-7569,2967,0,0,-1
-155.46,12.43,-68.58,1794,-7562,2974,0,0,-1
-155.45,12.44,-68.58,1801,-7565,2977,-1,0,-1
-155.44,12.44,-68.58,1801,-7573,2976,-1,0,-1
-155.44,12.45,-68.58,1799,-7578,2985,-1,0,-1
-155.44,12.45,-68.58,1799,-7570,2969,-1,0,-1
-155.44,12.45,-68.59,1801,-7567,2971,-1,-1,-1
-155.43,12.46,-68.59,1804,-7579,2974,0,0,-1
-155.41,12.47,-68.58,1800,-7574,2972,0,0,-1
-155.41,12.47,-68.58,1801,-7575,2972,-1,0,-1
-155.41,12.47,-68.59,1797,-7574,2949,-1,0,-1
-155.40,12.48,-68.59,1800,-7577,2954,0,0,-1
-155.39,12.49,-68.58,1802,-7579,2963,0,0,-1
-155.38,12.50,-68.58,1797,-7580,2965,0,0,-1
-155.37,12.49,-68.57,1794,-7578,2968,0,0,-1
-155.36,12.50,-68.57,1793,-7574,2978,0,0,-1
-155.36,12.50,-68.57,1791,-7574,2986,-1,0,-1
-155.36,12.51,-68.57,1794,-7575,2987,-1,-1,-1
-155.35,12.51,-68.57,1803,-7577,2973,-1,0,-1
-155.35,12.51,-68.57,1806,-7574,2965,-1,0,-1
-155.34,12.52,-68.57,1811,-7569,2963,-1,0,-1
-155.34,12.52,-68.57,1806,-7571,2966,0,0,-1
-155.34,12.52,-68.57,1803,-7573,2972,0,0,-1
-155.33,12.52,-68.56,1803,-7573,2976,0,0,-1
-155.32,12.53,-68.56,1803,-7573,2974,0,0,-1
-155.31,12.53,-68.55,1802,-7579,2980,0,0,-1
-155.31,12.53,-68.55,1799,-7571,2973,0,0,-1
-155.31,12.53,-68.55,1805,-7566,2979,0,0,-1
-155.30,12.54,-68.55,1804,-7565,2981,-1,-1,-1
-155.30,12.54,-68.55,1812,-7565,2976,0,0,-1
-155.31,12.53,-68.55,1811,-7570,2982,-1,0,0
-155.31,12.53,-68.56,1812,-7577,2969,-1,0,0
-155.31,12.53,-68.55,1807,-7572,2975,-1,-1,0
-155.32,12.52,-68.56,1808,-7568,2971,0,-1,0
-155.33,12.52,-68.56,1807,-7565,2967,-1,-1,0
-155.33,12.52,-68.56,1806,-7562,2970,-1,-1,0
-155.33,12.52,-68.56,1806,-7565,2967,-1,-1,0
-155.34,12.51,-68.57,1805,-7581,2962,-1,-1,0
-155.34,12.51,-68.57,1800,-7585,2954,0,-1,-1
-155.34,12.51,-68.57,1809,-7578,2955,0,-1,0
-155.35,12.51,-68.57,1808,-7559,2968,0,0,0
-155.36,12.50,-68.58,1813,-7561,2958,-1,-1,0
-155.37,12.49,-68.59,1810,-7583,2951,-1,-1,0
-155.39,12.49,-68.61,1795,-7606,2934,0,-1,0
-155.39,12.48,-68.60,1792,-7604,2941,0,-1,0
-155.39,12.48,-68.59,1787,-7579,2957,0,-1,-1
-155.39,12.48,-68.58,1793,-7565,2972,0,-1,0
-155.38,12.48,-68.57,1806,-7557,2983,0,0,0
-155.38,12.48,-68.57,1807,-7561,2988,-1,-1,0
-155.40,12.47,-68.58,1808,-7574,2988,-1,-1,0
-155.40,12.46,-68.57,1805,-7582,2984,0,0,0
-155.41,12.46,-68.58,1795,-7573,2974,-1,-1,0
-155.42,12.45,-68.58,1794,-7565,2960,0,-1,0
-155.43,12.45,-68.59,1801,-7573,2952,-1,-1,0
-155.44,12.45,-68.59,1810,-7578,2949,0,0,0
-155.44,12.44,-68.59,1797,-7571,2972,-1,0,0
-155.46,12.43,-68.60,1795,-7575,2963,-1,-1,0
-155.47,12.42,-68.61,1790,-7577,2963,-1,-1,0
-155.48,12.42,-68.61,1786,-7587,2957,-1,-1,0
-155.49,12.40,-68.61,1793,-7588,2950,0,-1,0
-155.49,12.40,-68.61,1796,-7579,2964,0,0,0
-155.48,12.40,-68.60,1793,-7572,2970,0,-1,0
-155.49,12.39,-68.59,1784,-7566,2979,-1,-1,0
-155.50,12.39,-68.60,1787,-7575,2978,-1,-1,0
-155.51,12.38,-68.60,1789,-7577,2981,-1,-1,0
-155.52,12.38,-68.61,1790,-7586,2970,0,0,0
-155.52,12.37,-68.60,1781,-7583,2970,0,-1,0
-155.53,12.36,-68.60,1780,-7588,2970,0,-1,0
-155.53,12.36,-68.60,1781,-7592,2961,0,-1,0
-155.53,12.36,-68.59,1777,-7577,2972,0,-1,0
-155.53,12.36,-68.58,1787,-7576,2965,0,-1,0
-155.53,12.35,-68.58,1791,-7568,2976,0,-1,0
-155.53,12.35,-68.57,1789,-7562,2974,0,0,0
-155.54,12.34,-68.57,1776,-7557,2996,-1,-1,0
-155.55,12.33,-68.57,1777,-7566,2997,-1,-1,0
-155.56,12.33,-68.58,1787,-7577,2982,-1,-1,0
-155.56,12.34,-68.58,1794,-7574,2964,-1,-1,0
-155.57,12.33,-68.59,1787,-7565,2973,-1,-1,0
-155.58,12.32,-68.60,1782,-7562,2985,-1,0,0
-155.60,12.31,-68.61,1773,-7573,2966,-1,-1,0
-155.61,12.31,-68.63,1764,-7591,2967,-1,-1,0
-155.61,12.31,-68.63,1778,-7599,2953,0,-1,0
-155.61,12.31,-68.63,1783,-7582,2959,0,0,0
-155.61,12.31,-68.62,1785,-7563,2969,-1,-1,0
-155.61,12.30,-68.62,1781,-7559,2974,-1,-1,0
-155.64,12.29,-68.64,1784,-7575,2962,-1,-1,0
-155.64,12.29,-68.65,1779,-7594,2955,-1,-1,0
-155.65,12.29,-68.65,1771,-7597,2955,-1,-1,0
-155.66,12.28,-68.66,1778,-7588,2957,0,0,0
-155.66,12.28,-68.66,1777,-7579,2958,0,-1,0
-155.66,12.28,-68.66,1765,-7567,2968,-1,-1,0
-155.66,12.28,-68.66,1779,-7576,2964,-1,-1,0
-155.66,12.29,-68.66,1783,-7579,2965,-1,-1,0
-155.67,12.28,-68.66,1783,-7581,2965,-1,-1,0
-155.68,12.27,-68.67,1780,-7574,2961,-1,-1,0
-155.69,12.27,-68.67,1777,-7583,2968,-1,-1,0
-155.69,12.27,-68.67,1772,-7577,2964,-1,-1,0
-155.69,12.27,-68.67,1765,-7578,2971,-1,-1,0
-155.70,12.26,-68.67,1763,-7588,2953,-1,-1,0
-155.71,12.26,-68.68,1769,-7587,2962,-1,-1,0
-155.72,12.25,-68.68,1773,-7588,2954,0,-1,0
-155.72,12.25,-68.68,1766,-7583,2966,-1,0,0
-155.72,12.25,-68.68,1772,-7594,2964,0,0,0
-155.72,12.24,-68.67,1769,-7581,2977,-1,-1,0
-155.73,12.24,-68.68,1770,-7580,2968,-1,-1,0
-155.73,12.24,-68.68,1775,-7583,2970,-1,-1,0
-155.73,12.24,-68.68,1778,-7584,2977,-1,-1,0
-155.74,12.24,-68.69,1777,-7588,2962,-1,-1,0
-155.75,12.23,-68.69,1772,-7588,2960,-1,-1,0
-155.75,12.23,-68.70,1764,-7590,2946,-1,-1,0
-155.76,12.22,-68.70,1771,-7594,2947,-1,-1,0
-155.76,12.22,-68.70,1773,-7598,2949,0,0,0
-155.76,12.22,-68.70,1773,-7593,2958,0,-1,0
-155.77,12.22,-68.70,1767,-7582,2961,0,-1,0
-155.77,12.22,-68.70,1763,-7579,2964,-1,-1,0
-155.77,12.21,-68.70,1759,-7582,2959,-1,-1,0
-155.79,12.21,-68.70,1761,-7584,2955,-1,-1,0
-155.78,12.21,-68.70,1770,-7585,2954,0,-1,0
-155.78,12.21,-68.70,1770,-7587,2957,-1,-1,0
-155.79,12.21,-68.71,1769,-7587,2966,-1,-1,0
-155.80,12.21,-68.72,1770,-7593,2957,-1,-1,0
-155.80,12.21,-68.72,1773,-7598,2948,0,-1,-1
-155.79,12.21,-68.72,1775,-7582,2954,0,-1,0
-155.79,12.21,-68.71,1772,-7570,2960,0,0,0
-155.80,12.21,-68.71,1769,-7574,2963,-1,-1,0
-155.80,12.21,-68.71,1772,-7587,2951,0,-1,0
-155.80,12.21,-68.71,1771,-7603,2958,-1,0,0
-155.80,12.21,-68.71,1771,-7609,2951,0,0,-1
-155.80,12.20,-68.70,1758,-7597,2954,0,-1,-1
-155.79,12.21,-68.70,1758,-7585,2956,0,-1,-1
-155.79,12.21,-68.70,1770,-7580,2955,0,-1,-1
-155.78,12.22,-68.70,1778,-7581,2965,0,-1,-1
-155.78,12.22,-68.69,1782,-7581,2971,0,-1,0
-155.78,12.21,-68.69,1777,-7576,2967,-1,-1,0
-155.78,12.22,-68.69,1772,-7575,2966,0,-1,-1
-155.78,12.22,-68.69,1771,-7582,2967,-1,-1,-1
-155.78,12.23,-68.69,1778,-7590,2953,0,-1,-1
-155.77,12.23,-68.69,1784,-7593,2954,0,0,-1
-155.76,12.23,-68.68,1775,-7580,2953,0,0,-1
-155.76,12.23,-68.68,1769,-7589,2960,-1,-1,-1
-155.76,12.23,-68.68,1773,-7593,2962,0,-1,-1
-155.75,12.25,-68.68,1778,-7590,2956,0,0,-1
-155.74,12.25,-68.67,1780,-7583,2958,0,0,-1
-155.74,12.25,-68.67,1779,-7578,2963,0,-1,-1
-155.74,12.26,-68.66,1784,-7572,2968,-1,0,-1
-155.73,12.26,-68.66,1784,-7573,2974,-1,-1,-1
-155.73,12.26,-68.67,1778,-7576,2974,-1,-1,-1
-155.74,12.26,-68.68,1779,-7580,2969,-1,-1,-1
-155.73,12.26,-68.67,1783,-7579,2954,0,0,-1
-155.73,12.26,-68.67,1779,-7576,2956,0,0,-1
-155.73,12.26,-68.67,1773,-7579,2960,0,0,-1
-155.73,12.27,-68.67,1774,-7591,2955,0,-1,-1
-155.72,12.27,-68.68,1778,-7595,2953,0,0,-1
-155.72,12.27,-68.68,1776,-7596,2955,0,0,-1
-155.71,12.28,-68.67,1774,-7582,2960,-1,0,-1
-155.71,12.28,-68.67,1773,-7579,2960,-1,-1,-1
-155.71,12.28,-68.67,1769,-7584,2962,-1,-1,-1
-155.71,12.28,-68.67,1771,-7576,2966,0,-1,-1
-155.71,12.28,-68.67,1783,-7578,2978,-1,-1,0
-155.71,12.28,-68.66,1779,-7577,2973,0,0,0
-155.71,12.28,-68.66,1776,-7583,2979,-1,0,0
-155.71,12.28,-68.67,1776,-7587,2962,-1,0,-1
-155.72,12.28,-68.68,1772,-7596,2953,-1,-1,-1
-155.71,12.29,-68.68,1782,-7600,2953,0,0,-1
-155.69,12.30,-68.67,1794,-7587,2955,0,0,-1
-155.68,12.30,-68.66,1787,-7571,2973,0,0,-1
-155.69,12.30,-68.66,1786,-7572,2964,-1,0,0
-155.69,12.30,-68.67,1782,-7581,2962,-1,-1,-1
-155.69,12.30,-68.67,1779,-7585,2948,-1,0,-1
-155.68,12.30,-68.67,1771,-7589,2950,0,0,-1
-155.68,12.30,-68.67,1778,-7588,2953,0,0,-1
-155.67,12.31,-68.66,1772,-7575,2961,0,0,-1
-155.67,12.31,-68.66,1779,-7575,2971,-1,-1,-1
-155.66,12.32,-68.66,1789,-7577,2977,-1,-1,-1
-155.66,12.32,-68.67,1788,-7585,2968,-1,0,-1
-155.66,12.32,-68.67,1789,-7583,2963,-1,-1,-1
-155.66,12.32,-68.67,1789,-7572,2968,-1,0,-1
-155.66,12.33,-68.67,1791,-7573,2961,-1,0,-1
-155.66,12.33,-68.67,1787,-7581,2958,-1,-1,-1
-155.66,12.33,-68.67,1792,-7584,2958,0,0,-1
-155.66,12.33,-68.67,1791,-7584,2963,0,0,0
-155.65,12.34,-68.67,1788,-7583,2958,0,0,-1
-155.65,12.34,-68.67,1786,-7582,2958,0,-1,-1
-155.64,12.34,-68.66,1792,-7579,2951,0,0,-1
-155.64,12.35,-68.66,1794,-7576,2952,0,0,0
-155.63,12.35,-68.66,1785,-7573,2963,0,0,-1
-155.63,12.35,-68.66,1782,-7582,2964,-1,-1,-1
-155.63,12.35,-68.66,1787,-7586,2975,-1,-1,-1
-155.62,12.36,-68.66,1789,-7580,2966,-1,-1,-1
-155.62,12.36,-68.66,1790,-7572,2960,0,-1,-1
-155.62,12.37,-68.66,1796,-7574,2962,-1,-1,-1
-155.62,12.37,-68.67,1789,-7573,2962,0,0,-1
-155.61,12.37,-68.66,1793,-7573,2969,-1,0,-1
-155.61,12.37,-68.66,1797,-7584,2971,0,0,-1
-155.61,12.37,-68.66,1789,-7578,2965,-1,0,-1
-155.60,12.38,-68.65,1794,-7574,2964,0,0,-1
-155.60,12.38,-68.66,1790,-7574,2964,-1,0,-1
-155.59,12.39,-68.66,1798,-7579,2965,0,0,-1
-155.58,12.39,-68.65,1797,-7575,2966,-1,0,-1
-155.58,12.39,-68.65,1791,-7576,2968,-1,-1,0
-155.58,12.39,-68.65,1781,-7572,2960,-1,0,-1
-155.59,12.39,-68.66,1786,-7579,2962,-1,-1,-1
-155.59,12.40,-68.67,1786,-7588,2946,-1,0,-1
-155.59,12.40,-68.67,1792,-7588,2950,0,-1,-1
-155.57,12.40,-68.66,1794,-7577,2965,0,0,-1
-155.56,12.41,-68.65,1800,-7569,2970,0,0,-1
-155.56,12.41,-68.65,1795,-7568,2978,-1,0,-1
-155.56,12.41,-68.66,1798,-7579,2967,-1,-1,-1
-155.56,12.42,-68.66,1795,-7592,2951,0,0,-1
-155.56,12.42,-68.66,1791,-7587,2948,0,0,-1
-155.55,12.42,-68.65,1792,-7585,2956,0,0,-1
-155.54,12.42,-68.65,1789,-7572,2958,0,0,-1
-155.53,12.43,-68.64,1797,-7569,2979,0,0,-1
-155.52,12.44,-68.63,1806,-7574,2976,-1,0,-1
-155.52,12.44,-68.64,1812,-7573,2973,-1,0,-1
-155.51,12.44,-68.64,1812,-7571,2968,-1,0,-1
-155.51,12.44,-68.64,1806,-7566,2968,-1,0,-1
-155.50,12.45,-68.63,1811,-7570,2961,-1,0,-1
-155.50,12.46,-68.64,1810,-7575,2961,0,0,-1
-155.50,12.46,-68.64,1807,-7577,2966,0,0,-1
-155.50,12.46,-68.63,1799,-7577,2967,0,0,-1
-155.50,12.46,-68.63,1798,-7571,2962,0,0,-1
-155.49,12.46,-68.63,1798,-7571,2959,0,0,-1
-155.48,12.46,-68.63,1799,-7570,2960,0,0,-1
-155.47,12.47,-68.62,1801,-7578,2964,0,0,-1
-155.47,12.47,-68.62,1804,-7572,2967,0,0,-1
-155.46,12.48,-68.61,1808,-7569,2965,0,0,-1
-155.45,12.48,-68.61,1809,-7572,2978,-1,0,-1
-155.45,12.48,-68.61,1817,-7578,2971,-1,0,-1
-155.45,12.48,-68.61,1808,-7578,2969,-1,0,-1
-155.44,12.49,-68.62,1811,-7582,2964,-1,0,-1
-155.45,12.49,-68.62,1805,-7574,2960,-1,-1,0
-155.46,12.48,-68.63,1803,-7571,2951,-1,0,0
-155.46,12.48,-68.63,1802,-7574,2963,-1,-1,0
-155.46,12.48,-68.63,1807,-7581,2959,0,-1,0
-155.46,12.48,-68.63,1807,-7577,2965,0,0,0
-155.46,12.47,-68.62,1808,-7575,2965,0,0,0
-155.46,12.47,-68.62,1806,-7567,2972,-1,-1,0
-155.47,12.47,-68.63,1803,-7560,2965,-1,-1,0
-155.48,12.47,-68.64,1810,-7575,2957,-1,0,0
-155.48,12.47,-68.64,1811,-7573,2960,-1,-1,0
-155.48,12.47,-68.65,1818,-7573,2965,-1,-1,0
-155.49,12.47,-68.65,1811,-7571,2973,-1,-1,0
-155.49,12.47,-68.65,1812,-7581,2970,-1,-1,0
-155.50,12.46,-68.65,1806,-7571,2961,-1,-1,0
-155.50,12.46,-68.66,1810,-7573,2955,-1,-1,0
-155.51,12.46,-68.66,1817,-7575,2960,0,-1,0
-155.50,12.46,-68.65,1810,-7582,2958,0,0,0
-155.51,12.45,-68.65,1804,-7570,2970,-1,-1,0
-155.51,12.45,-68.65,1796,-7571,2969,-1,-1,0
-155.52,12.45,-68.66,1796,-7587,2966,-1,-1,0
-155.53,12.44,-68.66,1799,-7599,2964,0,0,0
-155.53,12.44,-68.65,1806,-7585,2953,0,0,0
-155.52,12.44,-68.64,1809,-7560,2963,0,-1,0
-155.54,12.43,-68.65,1806,-7554,2965,-1,-1,0
-155.55,12.43,-68.66,1810,-7582,2956,-1,-1,0
-155.56,12.42,-68.67,1807,-7587,2944,0,0,0
-155.56,12.42,-68.67,1795,-7592,2943,-1,0,0
-155.56,12.41,-68.67,1801,-7598,2940,0,0,0
-155.57,12.41,-68.67,1793,-7578,2954,0,-1,0
-155.56,12.41,-68.66,1802,-7571,2973,0,-1,0
-155.57,12.41,-68.66,1817,-7569,2973,-1,-1,0
-155.57,12.41,-68.67,1807,-7571,2971,-1,0,0
-155.58,12.41,-68.68,1805,-7577,2959,-1,-1,0
-155.59,12.40,-68.68,1800,-7584,2967,-1,-1,0
-155.60,12.39,-68.68,1796,-7581,2960,-1,-1,0
-155.60,12.39,-68.68,1797,-7575,2960,0,-1,0
-155.60,12.38,-68.68,1795,-7579,2953,-1,0,0
-155.62,12.38,-68.68,1780,-7576,2959,-1,-1,0
-155.63,12.37,-68.69,1779,-7592,2958,-1,-1,0
-155.64,12.37,-68.69,1785,-7590,2955,0,-1,0
-155.64,12.37,-68.69,1800,-7583,2949,0,-1,0
-155.63,12.37,-68.68,1795,-7583,2952,0,-1,0
-155.64,12.36,-68.68,1792,-7574,2962,0,0,0
-155.64,12.36,-68.68,1787,-7577,2963,-1,-1,0
-155.65,12.35,-68.68,1783,-7584,2964,-1,-1,0
-155.66,12.35,-68.69,1788,-7582,2965,0,-1,0
-155.66,12.35,-68.69,1788,-7578,2968,-1,-1,0
-155.67,12.34,-68.70,1787,-7573,2967,-1,-1,0
-155.68,12.33,-68.69,1790,-7580,2968,-1,-1,0
-155.69,12.33,-68.70,1793,-7581,2971,-1,0,0
-155.70,12.32,-68.70,1786,-7591,2958,-1,-1,0
-155.70,12.31,-68.70,1780,-7586,2966,0,0,0
-155.71,12.31,-68.70,1780,-7586,2960,0,-1,0
-155.71,12.30,-68.69,1775,-7581,2959,0,-1,0
-155.71,12.30,-68.69,1782,-7580,2958,0,-1,0
-155.71,12.30,-68.69,1789,-7581,2958,0,-1,0
-155.72,12.30,-68.69,1793,-7584,2961,-1,-1,0
-155.73,12.30,-68.69,1791,-7581,2959,-1,-1,0
-155.73,12.29,-68.69,1788,-7574,2974,-1,-1,0
-155.73,12.29,-68.69,1782,-7574,2977,-1,-1,0
-155.74,12.28,-68.70,1776,-7580,2973,-1,-1,0
-155.75,12.28,-68.70,1774,-7595,2964,-1,-1,0
-155.75,12.28,-68.70,1791,-7594,2955,0,-1,0
-155.75,12.28,-68.69,1788,-7572,2965,0,-1,0
-155.76,12.27,-68.69,1789,-7563,2973,-1,-1,0
-155.76,12.27,-68.69,1787,-7576,2973,-1,-1,0
-155.78,12.26,-68.70,1783,-7595,2963,-1,-1,0
-155.79,12.25,-68.71,1771,-7605,2956,0,-1,0
-155.79,12.25,-68.71,1766,-7600,2957,0,-1,0
-155.80,12.25,-68.71,1765,-7587,2950,0,-1,0
-155.80,12.25,-68.70,1768,-7575,2965,0,-1,0
-155.80,12.25,-68.70,1777,-7569,2966,0,0,0
-155.80,12.25,-68.70,1777,-7584,2979,-1,-1,0
-155.81,12.24,-68.70,1781,-7588,2968,-1,0,0
-155.81,12.24,-68.70,1772,-7583,2968,-1,-1,0
-155.82,12.23,-68.71,1772,-7578,2953,-1,-1,0
-155.83,12.23,-68.71,1777,-7581,2951,-1,-1,0
-155.83,12.23,-68.71,1781,-7584,2946,-1,-1,0
-155.83,12.22,-68.71,1772,-7591,2943,0,-1,0
-155.84,12.22,-68.72,1767,-7584,2946,-1,-1,0
-155.85,12.22,-68.72,1768,-7578,2949,0,-1,0
-155.85,12.22,-68.72,1770,-7585,2946,-1,-1,0
-155.86,12.21,-68.72,1767,-7583,2953,0,0,0
-155.86,12.20,-68.72,1764,-7584,2958,0,-1,0
-155.85,12.20,-68.71,1763,-7583,2970,-1,-1,0
-155.85,12.21,-68.71,1772,-7578,2967,-1,-1,0
-155.86,12.21,-68.71,1772,-7576,2976,-1,-1,0
-155.87,12.20,-68.72,1780,-7581,2977,-1,-1,0
-155.87,12.20,-68.72,1776,-7573,2963,-1,-1,0
-155.88,12.19,-68.72,1766,-7580,2964,-1,-1,0
-155.88,12.20,-68.73,1763,-7590,2947,-1,-1,0
-155.89,12.18,-68.72,1763,-7589,2949,0,-1,0
-155.89,12.19,-68.72,1766,-7593,2941,0,-1,0
-155.89,12.18,-68.72,1763,-7590,2963,0,-1,0
-155.89,12.18,-68.72,1766,-7582,2955,0,0,0
-155.89,12.18,-68.71,1769,-7581,2972,-1,0,0
-155.89,12.18,-68.72,1761,-7586,2956,0,0,0
-155.89,12.18,-68.72,1759,-7586,2951,-1,-1,0
-155.90,12.18,-68.72,1763,-7588,2954,0,-1,-1
-155.90,12.18,-68.71,1767,-7591,2957,0,-1,0
-155.89,12.18,-68.71,1763,-7582,2971,-1,-1,-1
-155.89,12.18,-68.71,1761,-7578,2968,-1,-1,0
-155.89,12.18,-68.71,1759,-7596,2963,0,-1,-1
-155.89,12.19,-68.71,1767,-7590,2952,0,0,-1
-155.88,12.20,-68.70,1771,-7574,2965,0,0,-1
-155.86,12.20,-68.69,1770,-7570,2965,0,-1,-1
-155.86,12.20,-68.69,1772,-7572,2966,-1,-1,0
-155.87,12.21,-68.70,1768,-7582,2959,-1,-1,-1
-155.87,12.21,-68.70,1769,-7591,2951,-1,0,-1
-155.87,12.21,-68.70,1757,-7587,2949,0,0,-1
-155.86,12.21,-68.70,1769,-7583,2946,0,0,-1
-155.85,12.22,-68.69,1767,-7575,2969,0,0,-1
-155.84,12.22,-68.69,1767,-7571,2973,-1,-1,-1
-155.84,12.23,-68.69,1767,-7577,2971,-1,-1,-1
-155.84,12.23,-68.70,1778,-7584,2972,-1,-1,-1
-155.84,12.24,-68.69,1781,-7593,2963,-1,0,-1
-155.83,12.24,-68.69,1782,-7584,2971,-1,0,-1
-155.83,12.24,-68.70,1782,-7582,2969,-1,-1,-1
-155.83,12.24,-68.70,1776,-7587,2957,0,-1,-1
-155.83,12.25,-68.69,1775,-7585,2962,0,0,-1
-155.82,12.25,-68.69,1773,-7586,2965,-1,0,-1
-155.82,12.25,-68.69,1767,-7582,2956,0,-1,-1
-155.82,12.25,-68.70,1775,-7591,2949,0,0,-1
-155.81,12.26,-68.69,1777,-7580,2961,0,0,-1
-155.80,12.26,-68.69,1786,-7579,2971,0,0,-1
-155.80,12.26,-68.68,1786,-7582,2972,0,0,-1
-155.79,12.27,-68.68,1778,-7588,2975,-1,0,-1
-155.79,12.27,-68.68,1777,-7586,2964,-1,0,-1
-155.79,12.27,-68.69,1768,-7579,2965,-1,-1,-1
-155.78,12.28,-68.68,1781,-7572,2968,-1,0,-1
-155.78,12.28,-68.69,1782,-7575,2959,-1,0,-1
-155.77,12.29,-68.69,1781,-7581,2956,-1,0,-1
-155.77,12.29,-68.69,1778,-7587,2967,0,0,-1
-155.77,12.29,-68.69,1779,-7589,2965,0,0,-1
-155.76,12.30,-68.68,1775,-7582,2958,0,-1,-1
-155.76,12.29,-68.68,1783,-7585,2969,-1,-1,-1
-155.75,12.30,-68.67,1789,-7576,2976,0,0,-1
-155.74,12.31,-68.67,1782,-7574,2975,-1,-1,-1
-155.74,12.31,-68.67,1776,-7572,2964,-1,-1,-1
-155.74,12.31,-68.68,1779,-7579,2959,-1,-1,-1
-155.74,12.32,-68.68,1786,-7586,2959,-1,0,-1
-155.73,12.32,-68.67,1781,-7585,2975,0,0,-1
-155.73,12.32,-68.67,1786,-7583,2967,0,0,-1
-155.72,12.33,-68.67,1783,-7573,2965,0,-1,-1
-155.72,12.33,-68.67,1779,-7577,2957,-1,0,-1
-155.72,12.33,-68.67,1779,-7574,2956,-1,0,-1
-155.72,12.33,-68.68,1780,-7579,2955,-1,-1,-1
-155.71,12.34,-68.68,1786,-7584,2957,-1,-1,-1
-155.70,12.35,-68.67,1792,-7586,2958,0,0,-1
-155.70,12.35,-68.67,1803,-7580,2967,0,0,-1
-155.69,12.35,-68.66,1801,-7562,2974,0,-1,-1
-155.69,12.36,-68.66,1795,-7566,2968,-1,-1,-1
-155.69,12.36,-68.66,1797,-7580,2968,-1,-1,-1
-155.68,12.37,-68.66,1801,-7592,2962,0,0,-1
-155.67,12.37,-68.66,1797,-7593,2961,0,0,-1
-155.67,12.37,-68.65,1789,-7585,2965,0,0,-1
-155.66,12.37,-68.64,1785,-7574,2970,0,0,-1
-155.65,12.38,-68.63,1791,-7563,2976,0,0,-1
-155.64,12.39,-68.63,1794,-7569,2983,-1,0,-1
-155.63,12.40,-68.64,1799,-7588,2962,-1,-1,-1
-155.63,12.40,-68.64,1795,-7587,2962,0,0,-1
-155.63,12.40,-68.64,1796,-7571,2954,0,0,0
-155.62,12.41,-68.63,1796,-7564,2974,-1,-1,0
-155.62,12.41,-68.63,1793,-7575,2970,0,0,-1
-155.61,12.41,-68.63,1789,-7578,2971,0,0,-1
-155.61,12.41,-68.63,1794,-7591,2960,0,0,-1
-155.61,12.41,-68.62,1793,-7577,2969,-1,0,-1
-155.61,12.41,-68.62,1796,-7579,2966,0,0,-1
-155.60,12.42,-68.62,1800,-7579,2969,0,0,-1
-155.59,12.42,-68.61,1799,-7574,2971,0,0,-1
-155.58,12.42,-68.61,1797,-7577,2967,0,0,-1
-155.57,12.43,-68.60,1794,-7570,2973,0,0,-1
-155.56,12.43,-68.60,1801,-7566,2974,0,0,-1
-155.56,12.44,-68.60,1800,-7560,2981,-1,0,-1
-155.55,12.44,-68.60,1809,-7569,2985,-1,0,-1
-155.55,12.45,-68.60,1811,-7563,2969,-1,0,-1
-155.55,12.45,-68.60,1810,-7564,2965,-1,0,-1
-155.54,12.45,-68.60,1812,-7575,2970,-1,0,-1
-155.54,12.45,-68.60,1809,-7577,2969,0,0,-1
-155.53,12.46,-68.60,1807,-7582,2971,0,0,-1
-155.52,12.47,-68.59,1811,-7583,2969,0,0,-1
-155.52,12.47,-68.59,1809,-7577,2971,0,0,-1
-155.51,12.47,-68.58,1808,-7580,2969,-1,0,-1
-155.51,12.47,-68.58,1809,-7584,2972,0,0,-1
-155.50,12.48,-68.58,1807,-7583,2969,0,0,-1
-155.50,12.48,-68.58,1808,-7582,2962,0,0,-1
-155.49,12.48,-68.58,1810,-7577,2967,0,0,-1
-155.49,12.48,-68.57,1808,-7575,2976,0,0,-1
-155.48,12.49,-68.57,1806,-7573,2968,0,-1,-1
-155.48,12.49,-68.58,1813,-7573,2959,0,-1,-1
-155.48,12.49,-68.58,1811,-7576,2961,0,0,-1
-155.48,12.49,-68.57,1807,-7568,2973,0,0,0
-155.48,12.49,-68.57,1809,-7562,2984,-1,-1,0
-155.48,12.49,-68.58,1806,-7566,2977,-1,-1,0
-155.49,12.49,-68.59,1809,-7578,2966,0,-1,0
-155.48,12.50,-68.58,1821,-7580,2961,0,-1,0
-155.48,12.49,-68.57,1821,-7562,2986,0,0,0
-155.49,12.49,-68.57,1814,-7555,2990,-1,-1,0
-155.49,12.48,-68.58,1810,-7561,2982,-1,0,0
-155.51,12.48,-68.59,1808,-7582,2958,-1,-1,0
-155.51,12.47,-68.59,1796,-7584,2953,0,-1,0
-155.52,12.47,-68.59,1793,-7581,2945,0,-1,0
-155.52,12.47,-68.58,1788,-7574,2957,0,-1,-1
-155.52,12.47,-68.58,1800,-7568,2972,0,-1,0
-155.52,12.47,-68.57,1809,-7565,2984,-1,-1,0
-155.52,12.46,-68.58,1803,-7570,2977,-1,-1,0
-155.53,12.46,-68.59,1808,-7571,2970,-1,-1,0
-155.54,12.46,-68.59,1806,-7569,2958,-1,-1,0
-155.54,12.46,-68.60,1816,-7575,2970,-1,-1,0
-155.55,12.46,-68.60,1813,-7573,2968,-1,-1,0
-155.56,12.45,-68.60,1810,-7576,2963,-1,-1,0
-155.57,12.44,-68.61,1806,-7574,2960,-1,-1,0
-155.57,12.44,-68.61,1802,-7574,2959,0,-1,0
-155.58,12.44,-68.61,1801,-7579,2962,-1,-1,0
-155.58,12.44,-68.61,1808,-7586,2969,0,-1,0
-155.59,12.43,-68.61,1806,-7584,2971,0,0,0
-155.59,12.43,-68.61,1805,-7582,2974,0,-1,0
-155.59,12.43,-68.61,1799,-7588,2978,0,-1,0
-155.60,12.42,-68.60,1795,-7578,2979,-1,-1,0
-155.60,12.42,-68.61,1805,-7576,2976,-1,-1,0
-155.61,12.41,-68.61,1798,-7569,2975,-1,-1,0
-155.62,12.41,-68.62,1797,-7566,2965,-1,-1,0
-155.63,12.40,-68.62,1799,-7568,2964,-1,-1,0
-155.64,12.39,-68.63,1797,-7570,2960,-1,-1,0
-155.65,12.39,-68.63,1796,-7581,2971,-1,0,0
-155.65,12.38,-68.63,1801,-7584,2970,0,0,0
-155.66,12.38,-68.63,1793,-7568,2969,0,-1,0
-155.66,12.38,-68.63,1792,-7566,2963,0,-1,0
-155.66,12.37,-68.63,1800,-7569,2965,-1,-1,0
-155.67,12.37,-68.63,1807,-7573,2969,-1,-1,0
-155.68,12.37,-68.63,1800,-7575,2967,-1,-1,0
-155.69,12.36,-68.63,1788,-7583,2968,-1,-1,0
-155.69,12.36,-68.63,1789,-7576,2974,-1,-1,0
-155.70,12.35,-68.63,1790,-7572,2974,-1,-1,0
-155.71,12.35,-68.64,1789,-7573,2970,-1,-1,0
-155.71,12.34,-68.64,1781,-7566,2969,-1,-1,0
-155.72,12.34,-68.64,1789,-7569,2966,-1,-1,0
-155.73,12.33,-68.65,1792,-7576,2961,0,-1,0
-155.73,12.33,-68.65,1795,-7580,2972,0,-1,0
-155.73,12.33,-68.64,1785,-7573,2974,0,0,0
-155.75,12.32,-68.65,1787,-7568,2958,-1,-1,0
-155.75,12.32,-68.65,1785,-7579,2961,-1,-1,0
-155.75,12.32,-68.65,1789,-7586,2956,0,-1,0
-155.75,12.32,-68.65,1798,-7580,2958,0,0,0
-155.76,12.31,-68.65,1804,-7567,2976,-1,0,0
-155.77,12.30,-68.66,1787,-7562,2975,-1,-1,0
-155.79,12.30,-68.66,1783,-7580,2967,-1,-1,0
-155.80,12.30,-68.68,1784,-7590,2953,-1,0,0
-155.80,12.29,-68.68,1785,-7592,2960,-1,0,0
-155.81,12.28,-68.67,1776,-7590,2959,0,0,0
-155.81,12.27,-68.67,1769,-7585,2960,0,-1,0
-155.81,12.27,-68.67,1769,-7581,2963,0,-1,0
-155.81,12.27,-68.67,1781,-7572,2972,-1,-1,0
-155.82,12.27,-68.67,1788,-7570,2975,-1,-1,0
-155.83,12.26,-68.67,1784,-7569,2973,-1,-1,0
-155.84,12.26,-68.68,1783,-7569,2975,-1,-1,0
-155.85,12.25,-68.68,1782,-7575,2965,-1,-1,0
-155.85,12.25,-68.68,1781,-7578,2966,-1,-1,0
-155.86,12.24,-68.69,1777,-7583,2965,0,0,0
-155.87,12.24,-68.69,1768,-7577,2963,-1,-1,0
-155.88,12.23,-68.69,1768,-7577,2961,-1,-1,0
-155.89,12.22,-68.70,1768,-7587,2952,0,0,0
-155.89,12.22,-68.70,1772,-7583,2952,0,0,0
-155.89,12.22,-68.69,1767,-7582,2961,0,-1,0
-155.89,12.22,-68.69,1774,-7579,2964,0,-1,0
-155.89,12.22,-68.68,1774,-7574,2973,0,-1,0
-155.90,12.21,-68.68,1783,-7575,2968,-1,-1,0
-155.90,12.21,-68.68,1781,-7578,2976,-1,-1,0
-155.91,12.20,-68.69,1777,-7581,2970,-1,-1,0
-155.91,12.21,-68.70,1781,-7575,2956,-1,-1,0
-155.92,12.20,-68.70,1780,-7582,2964,0,-1,0
-155.93,12.19,-68.70,1780,-7578,2976,-1,0,0
-155.93,12.19,-68.70,1788,-7590,2953,-1,0,0
-155.94,12.19,-68.70,1767,-7585,2959,-1,-1,0
-155.95,12.18,-68.71,1764,-7588,2952,0,-1,0
-155.95,12.18,-68.71,1772,-7584,2947,-1,-1,0
-155.95,12.18,-68.71,1774,-7577,2953,0,-1,0
-155.95,12.18,-68.71,1778,-7578,2960,-1,-1,0
-155.96,12.18,-68.70,1772,-7581,2968,-1,-1,0
-155.96,12.18,-68.71,1775,-7576,2967,-1,-1,0
-155.96,12.17,-68.71,1773,-7590,2973,-1,-1,0
-155.96,12.18,-68.71,1776,-7583,2971,0,-1,0
-155.96,12.17,-68.70,1774,-7580,2967,0,0,0
-155.96,12.17,-68.70,1766,-7577,2975,0,-1,0
-155.97,12.17,-68.70,1758,-7584,2974,-1,-1,0
-155.98,12.17,-68.71,1762,-7594,2955,-1,-1,0
-155.98,12.17,-68.71,1774,-7599,2946,0,-1,-1
-155.97,12.18,-68.70,1773,-7587,2961,0,-1,0
-155.97,12.17,-68.69,1765,-7573,2965,0,-1,0
-155.97,12.17,-68.69,1765,-7575,2968,-1,-1,0
-155.98,12.17,-68.70,1769,-7588,2964,0,-1,0
-155.97,12.18,-68.70,1774,-7596,2963,0,-1,0
-155.97,12.18,-68.70,1775,-7592,2955,0,0,-1
-155.97,12.17,-68.69,1768,-7591,2960,0,0,-1
-155.96,12.18,-68.68,1768,-7585,2975,0,-1,-1
-155.95,12.19,-68.68,1773,-7577,2979,0,-1,-1
-155.95,12.19,-68.68,1781,-7570,2984,-1,-1,-1
-155.95,12.20,-68.67,1779,-7583,2972,0,-1,-1
-155.94,12.20,-68.67,1783,-7579,2985,-1,0,-1
-155.94,12.20,-68.67,1777,-7591,2985,-1,0,-1
-155.93,12.20,-68.67,1768,-7581,2980,-1,-1,-1
-155.94,12.20,-68.68,1765,-7586,2963,0,-1,-1
-155.93,12.21,-68.67,1775,-7586,2960,0,-1,-1
-155.93,12.21,-68.67,1769,-7579,2966,0,0,-1
-155.92,12.22,-68.67,1773,-7574,2967,0,0,-1
-155.92,12.22,-68.67,1771,-7579,2960,-1,0,-1
-155.91,12.22,-68.67,1773,-7578,2954,0,0,-1
-155.91,12.22,-68.66,1780,-7578,2975,-1,0,-1
-155.90,12.23,-68.66,1773,-7578,2976,0,0,-1
-155.89,12.24,-68.66,1769,-7575,2973,0,0,-1
-155.89,12.24,-68.66,1774,-7574,2970,-1,-1,-1
-155.89,12.24,-68.66,1778,-7578,2973,-1,-1,0
-155.89,12.24,-68.67,1783,-7583,2954,0,0,-1
-155.89,12.24,-68.67,1777,-7585,2967,-1,0,-1
-155.89,12.24,-68.66,1775,-7579,2966,0,0,-1
-155.88,12.25,-68.65,1780,-7574,2976,0,0,-1
-155.88,12.25,-68.65,1779,-7588,2971,0,-1,-1
-155.88,12.25,-68.65,1783,-7591,2968,0,-1,-1
-155.87,12.25,-68.65,1779,-7585,2966,-1,0,-1
-155.87,12.25,-68.65,1775,-7580,2969,-1,0,-1
-155.87,12.26,-68.65,1779,-7573,2956,-1,-1,-1
-155.87,12.26,-68.66,1784,-7576,2965,-1,-1,-1
-155.87,12.27,-68.66,1785,-7582,2953,-1,-1,-1
-155.86,12.28,-68.67,1786,-7588,2964,-1,-1,-1
-155.86,12.28,-68.67,1777,-7580,2956,0,0,-1
-155.86,12.28,-68.67,1782,-7579,2960,-1,0,-1
-155.86,12.28,-68.67,1782,-7583,2966,-1,-1,-1
-155.86,12.28,-68.67,1784,-7587,2969,0,0,0
-155.86,12.28,-68.67,1781,-7582,2978,-1,-1,0
-155.86,12.28,-68.67,1778,-7586,2968,-1,0,0
-155.87,12.28,-68.67,1775,-7582,2970,-1,-1,-1
-155.87,12.28,-68.68,1777,-7597,2961,0,0,-1
-155.85,12.29,-68.67,1786,-7579,2961,0,0,-1
-155.85,12.28,-68.66,1788,-7561,2966,0,-1,0
-155.85,12.28,-68.66,1780,-7554,2963,-1,-1,0
-155.86,12.28,-68.67,1782,-7581,2958,-1,-1,0
-155.86,12.28,-68.67,1782,-7591,2964,-1,0,0
-155.86,12.28,-68.67,1787,-7600,2956,0,0,-1
-155.87,12.28,-68.68,1776,-7592,2950,0,0,-1
-155.85,12.29,-68.67,1776,-7580,2958,0,0,-1
-155.85,12.29,-68.66,1785,-7576,2972,0,-1,-1
-155.84,12.29,-68.65,1790,-7574,2982,-1,0,-1
-155.84,12.30,-68.66,1800,-7585,2975,-1,-1,0
-155.84,12.30,-68.66,1802,-7579,2983,-1,-1,0
-155.84,12.30,-68.66,1790,-7580,2972,-1,-1,0
-155.85,12.30,-68.66,1787,-7568,2964,0,-1,0
-155.84,12.30,-68.67,1787,-7588,2963,-1,-1,-1
-155.84,12.31,-68.67,1788,-7580,2958,0,0,-1
-155.84,12.31,-68.66,1791,-7573,2960,0,-1,-1
-155.84,12.31,-68.66,1782,-7569,2965,-1,-1,0
-155.84,12.31,-68.67,1785,-7578,2953,-1,-1,-1
-155.83,12.31,-68.67,1791,-7581,2959,0,0,-1
-155.83,12.32,-68.66,1790,-7576,2953,0,0,-1
-155.82,12.32,-68.66,1786,-7581,2955,0,0,-1
-155.82,12.32,-68.66,1782,-7578,2965,0,0,-1
-155.81,12.33,-68.66,1784,-7579,2970,-1,-1,-1
-155.81,12.33,-68.65,1786,-7571,2973,-1,-1,-1
-155.81,12.33,-68.66,1797,-7571,2972,-1,-1,0
-155.81,12.34,-68.66,1795,-7575,2968,-1,-1,-1
-155.81,12.34,-68.66,1791,-7574,2956,-1,-1,-1
-155.81,12.34,-68.67,1796,-7580,2952,-1,0,-1
-155.81,12.34,-68.67,1798,-7574,2940,0,-1,-1
-155.81,12.34,-68.67,1802,-7572,2959,0,-1,-1
-155.80,12.35,-68.67,1799,-7577,2968,0,0,-1
-155.80,12.35,-68.66,1796,-7570,2966,0,0,-1
-155.79,12.35,-68.66,1799,-7563,2967,-1,0,-1
-155.79,12.36,-68.67,1797,-7567,2967,-1,0,-1
-155.79,12.36,-68.67,1797,-7573,2966,-1,-1,-1
-155.79,12.36,-68.67,1800,-7580,2969,0,-1,-1
-155.79,12.36,-68.67,1798,-7579,2971,-1,0,0
-155.79,12.36,-68.67,1788,-7577,2973,-1,-1,-1
-155.79,12.36,-68.67,1790,-7582,2976,-1,-1,-1
-155.79,12.36,-68.67,1793,-7576,2965,0,-1,-1
-155.79,12.37,-68.67,1799,-7573,2963,-1,-1,0
-155.79,12.37,-68.67,1797,-7571,2964,0,0,0
-155.79,12.37,-68.67,1792,-7576,2971,-1,0,0
-155.79,12.36,-68.68,1792,-7581,2960,-1,0,0
-155.79,12.36,-68.68,1789,-7588,2955,0,-1,-1
-155.78,12.37,-68.67,1801,-7584,2964,0,0,-1
-155.77,12.38,-68.66,1806,-7562,2966,0,0,0
-155.77,12.38,-68.66,1800,-7557,2967,-1,-1,0
-155.78,12.38,-68.67,1798,-7569,2969,-1,-1,0
-155.78,12.37,-68.68,1796,-7582,2957,-1,0,0
-155.78,12.37,-68.68,1797,-7583,2955,0,-1,-1
-155.78,12.38,-68.67,1792,-7578,2953,0,0,-1
-155.77,12.38,-68.67,1799,-7578,2959,0,0,-1
-155.76,12.39,-68.66,1798,-7571,2959,0,0,-1
-155.76,12.39,-68.66,1804,-7560,2974,-1,-1,-1
-155.75,12.40,-68.66,1809,-7563,2972,-1,-1,0
-155.76,12.40,-68.67,1800,-7570,2973,-1,-1,-1
-155.76,12.40,-68.67,1793,-7565,2971,-1,0,-1
-155.76,12.40,-68.67,1796,-7564,2966,-1,0,-1
-155.75,12.40,-68.68,1801,-7564,2951,-1,-1,-1
-155.75,12.40,-68.68,1806,-7573,2948,0,0,-1
-155.75,12.40,-68.68,1800,-7581,2957,0,0,-1
-155.74,12.41,-68.67,1793,-7579,2952,-1,0,-1
-155.74,12.41,-68.67,1791,-7586,2952,0,0,-1
-155.74,12.41,-68.67,1800,-7579,2954,0,0,-1
-155.73,12.41,-68.67,1797,-7573,2955,0,0,-1
-155.72,12.42,-68.66,1799,-7572,2971,0,0,-1
-155.71,12.42,-68.65,1796,-7574,2970,0,0,-1
-155.70,12.43,-68.64,1804,-7563,2973,0,0,-1
-155.69,12.44,-68.64,1803,-7571,2970,-1,-1,-1
-155.69,12.44,-68.64,1804,-7576,2972,-1,-1,-1
-155.69,12.45,-68.65,1809,-7576,2973,-1,-1,-1
-155.69,12.45,-68.65,1805,-7579,2964,-1,-1,0
-155.69,12.45,-68.66,1807,-7579,2966,-1,-1,0
-155.69,12.45,-68.66,1804,-7584,2962,-1,-1,0
-155.69,12.45,-68.66,1805,-7572,2971,0,0,-1
-155.70,12.44,-68.65,1800,-7576,2964,-1,-1,0
-155.70,12.44,-68.65,1796,-7572,2966,0,0,0
-155.70,12.44,-68.65,1796,-7577,2959,0,-1,0
-155.70,12.44,-68.65,1800,-7574,2973,-1,-1,-1
-155.70,12.44,-68.65,1804,-7573,2960,0,-1,-1
-155.69,12.45,-68.65,1809,-7568,2963,-1,-1,0
-155.70,12.44,-68.65,1804,-7570,2969,-1,-1,0
-155.70,12.44,-68.66,1801,-7575,2962,-1,-1,0
-155.70,12.44,-68.66,1797,-7564,2963,-1,-1,0
-155.71,12.43,-68.66,1810,-7567,2958,-1,-1,0
-155.71,12.43,-68.66,1808,-7575,2959,0,-1,0
-155.71,12.43,-68.66,1802,-7570,2954,0,-1,0
-155.72,12.43,-68.67,1800,-7572,2956,-1,-1,0
-155.72,12.43,-68.68,1803,-7587,2955,-1,-1,-1
-155.72,12.44,-68.68,1810,-7584,2950,0,-1,-1
-155.72,12.44,-68.67,1818,-7576,2967,0,0,0
-155.72,12.43,-68.66,1803,-7552,2963,-1,-1,0
-155.73,12.42,-68.67,1799,-7559,2963,-1,-1,0
-155.74,12.42,-68.68,1796,-7578,2959,-1,-1,0
-155.75,12.42,-68.69,1799,-7589,2957,-1,-1,0
-155.75,12.42,-68.69,1799,-7591,2948,0,0,0
-155.75,12.41,-68.68,1794,-7585,2954,0,0,0
-155.75,12.41,-68.68,1791,-7573,2954,0,-1,-1
-155.76,12.41,-68.68,1801,-7566,2962,-1,-1,0
-155.76,12.41,-68.68,1811,-7573,2963,-1,0,0
-155.76,12.41,-68.68,1809,-7576,2968,-1,0,0
-155.77,12.41,-68.69,1805,-7575,2962,-1,-1,0
-155.77,12.40,-68.69,1802,-7572,2964,-1,-1,0
-155.78,12.40,-68.69,1799,-7575,2956,0,-1,0
-155.79,12.39,-68.69,1800,-7575,2967,0,-1,0
-155.78,12.39,-68.69,1800,-7577,2967,0,-1,0
-155.79,12.39,-68.69,1802,-7579,2968,-1,-1,0
-155.80,12.38,-68.69,1798,-7581,2974,-1,-1,0
-155.81,12.38,-68.70,1796,-7579,2964,0,-1,0
-155.81,12.38,-68.70,1790,-7575,2952,0,-1,0
-155.81,12.38,-68.70,1790,-7576,2961,0,0,0
-155.81,12.37,-68.70,1791,-7573,2964,0,-1,0
-155.81,12.37,-68.69,1790,-7577,2970,-1,-1,0
-155.82,12.37,-68.70,1797,-7579,2970,-1,-1,0
-155.83,12.36,-68.70,1796,-7568,2962,-1,-1,0
-155.83,12.36,-68.70,1799,-7571,2963,-1,-1,0
-155.84,12.36,-68.71,1799,-7575,2958,-1,-1,0
-155.85,12.35,-68.72,1797,-7578,2939,-1,-1,0
-155.86,12.35,-68.72,1796,-7583,2947,-1,-1,0
-155.86,12.35,-68.72,1795,-7584,2960,0,0,0
-155.86,12.34,-68.72,1793,-7584,2958,0,-1,0
-155.87,12.34,-68.71,1788,-7575,2962,0,-1,0
-155.87,12.34,-68.71,1789,-7588,2961,0,-1,0
-155.87,12.33,-68.71,1797,-7577,2956,0,0,0
-155.88,12.33,-68.72,1786,-7584,2958,-1,-1,0
-155.88,12.33,-68.72,1780,-7581,2958,-1,0,0
-155.89,12.32,-68.72,1783,-7582,2952,0,0,0
-155.90,12.32,-68.72,1779,-7573,2959,-1,-1,0
-155.90,12.31,-68.72,1785,-7577,2956,-1,-1,0
-155.91,12.32,-68.73,1796,-7584,2953,-1,-1,0
-155.91,12.32,-68.73,1799,-7593,2944,0,-1,0
-155.91,12.31,-68.72,1803,-7576,2954,0,-1,0
-155.91,12.31,-68.72,1793,-7565,2961,-1,-1,0
-155.92,12.31,-68.73,1794,-7572,2965,-1,-1,0
-155.93,12.30,-68.74,1788,-7584,2956,-1,-1,0
-155.95,12.29,-68.75,1780,-7594,2950,-1,-1,0
-155.95,12.29,-68.75,1780,-7592,2946,0,-1,0
-155.95,12.28,-68.74,1786,-7581,2950,0,-1,0
-155.95,12.29,-68.74,1788,-7576,2953,0,-1,0
-155.95,12.28,-68.73,1788,-7578,2967,-1,-1,0
-155.95,12.29,-68.74,1791,-7570,2959,-1,-1,0
-155.96,12.28,-68.74,1789,-7570,2956,-1,-1,0
-155.96,12.28,-68.74,1780,-7572,2962,-1,-1,0
-155.98,12.27,-68.75,1784,-7577,2956,-1,-1,0
-155.98,12.27,-68.76,1782,-7583,2951,-1,-1,0
-155.99,12.27,-68.76,1785,-7587,2943,0,0,0
-155.99,12.26,-68.75,1786,-7583,2956,-1,0,0
-156.00,12.25,-68.76,1780,-7587,2950,0,0,0
-156.00,12.25,-68.76,1774,-7587,2948,-1,-1,0
-156.01,12.25,-68.77,1776,-7595,2951,0,0,0
-156.01,12.25,-68.77,1774,-7595,2956,0,0,0
-156.01,12.24,-68.76,1776,-7589,2964,0,-1,0
-156.01,12.24,-68.75,1781,-7584,2968,0,0,0
-156.01,12.24,-68.75,1780,-7578,2960,-1,-1,0
-156.01,12.24,-68.76,1775,-7575,2958,-1,-1,0
-156.02,12.24,-68.76,1778,-7581,2956,-1,-1,0
-156.04,12.23,-68.78,1784,-7582,2946,-1,-1,0
-156.04,12.23,-68.78,1782,-7579,2952,-1,-1,0
-156.04,12.23,-68.78,1777,-7581,2945,-1,-1,0
-156.05,12.22,-68.78,1781,-7589,2945,0,-1,0
-156.05,12.22,-68.78,1780,-7593,2943,0,-1,0
-156.06,12.22,-68.78,1784,-7590,2942,0,0,0
-156.06,12.22,-68.78,1777,-7586,2946,0,-1,0
-156.05,12.21,-68.77,1775,-7583,2954,0,-1,0
-156.06,12.21,-68.77,1774,-7587,2956,0,-1,0
-156.06,12.22,-68.77,1772,-7595,2954,0,-1,-1
-156.06,12.21,-68.77,1776,-7595,2962,0,-1,0
-156.06,12.21,-68.77,1770,-7577,2961,-1,-1,0
-156.06,12.22,-68.77,1775,-7583,2965,-1,-1,0
-156.06,12.21,-68.77,1773,-7589,2964,-1,0,0
-156.07,12.21,-68.78,1775,-7601,2957,0,0,-1
-156.06,12.22,-68.77,1772,-7592,2956,0,-1,-1
-156.05,12.22,-68.77,1780,-7584,2951,0,-1,0
-156.06,12.22,-68.76,1774,-7576,2952,-1,-1,0
-156.05,12.23,-68.77,1777,-7587,2938,0,-1,-1
-156.04,12.23,-68.76,1781,-7595,2938,0,-1,-1
-156.04,12.23,-68.75,1776,-7592,2949,0,0,-1
-156.04,12.23,-68.75,1764,-7583,2946,0,-1,-1
-156.04,12.23,-68.74,1764,-7579,2965,0,-1,-1
-156.02,12.24,-68.74,1774,-7579,2965,0,0,-1
-156.01,12.25,-68.73,1784,-7572,2975,-1,-1,-1
-156.02,12.25,-68.74,1783,-7575,2972,-1,-1,-1
-156.00,12.26,-68.73,1782,-7573,2971,-1,0,-1
-156.01,12.26,-68.74,1785,-7573,2963,-1,0,-1
-156.01,12.26,-68.74,1788,-7572,2962,-1,-1,-1
-156.00,12.27,-68.75,1792,-7579,2956,-1,-1,-1
-156.00,12.27,-68.74,1788,-7588,2956,0,0,-1
-155.99,12.28,-68.74,1788,-7586,2967,0,0,-1
-155.99,12.28,-68.74,1785,-7582,2964,-1,0,-1
-155.98,12.28,-68.74,1787,-7573,2954,0,0,-1
-155.98,12.29,-68.74,1794,-7584,2945,0,0,-1
-155.97,12.29,-68.74,1789,-7583,2954,0,0,-1
-155.97,12.29,-68.73,1774,-7580,2967,0,0,-1
-155.96,12.29,-68.73,1777,-7585,2974,0,-1,-1
-155.96,12.30,-68.72,1787,-7590,2972,0,-1,-1
-155.96,12.30,-68.72,1792,-7581,2964,-1,-1,-1
-155.96,12.30,-68.73,1790,-7576,2955,-1,0,-1
-155.96,12.30,-68.73,1788,-7580,2954,-1,-1,-1
-155.96,12.30,-68.74,1779,-7580,2951,0,0,-1
-155.95,12.31,-68.73,1781,-7583,2959,0,0,-1
-155.95,12.31,-68.73,1785,-7586,2947,0,0,-1
-155.94,12.32,-68.72,1786,-7587,2951,0,0,-1
-155.93,12.32,-68.71,1786,-7582,2959,0,-1,-1
-155.93,12.32,-68.70,1790,-7575,2968,0,-1,-1
-155.93,12.32,-68.70,1794,-7575,2971,-1,-1,-1
-155.92,12.33,-68.70,1791,-7586,2977,0,-1,-1
-155.91,12.33,-68.70,1788,-7583,2970,-1,-1,-1
-155.91,12.33,-68.70,1779,-7578,2968,0,0,-1
-155.91,12.34,-68.70,1781,-7577,2964,-1,-1,-1
-155.90,12.34,-68.70,1797,-7580,2947,0,0,-1
-155.90,12.34,-68.69,1786,-7585,2962,-1,0,-1
-155.89,12.34,-68.68,1792,-7576,2960,0,0,-1
-155.89,12.34,-68.68,1786,-7569,2973,-1,-1,0
-155.89,12.35,-68.69,1783,-7572,2959,-1,-1,-1
-155.89,12.35,-68.69,1791,-7584,2953,0,0,-1
-155.87,12.36,-68.68,1802,-7579,2959,0,0,-1
-155.87,12.36,-68.67,1811,-7569,2960,0,0,0
-155.87,12.36,-68.67,1799,-7565,2970,-1,-1,0
-155.87,12.36,-68.68,1793,-7570,2964,-1,-1,-1
-155.87,12.36,-68.68,1787,-7576,2968,-1,0,-1
-155.88,12.36,-68.69,1787,-7586,2956,0,0,-1
-155.87,12.36,-68.68,1785,-7582,2960,0,0,-1
-155.86,12.37,-68.67,1788,-7571,2965,0,-1,-1
-155.86,12.37,-68.67,1789,-7571,2972,-1,-1,-1
-155.85,12.38,-68.68,1800,-7567,2970,-1,-1,-1
-155.85,12.38,-68.68,1805,-7570,2959,-1,-1,-1
-155.85,12.39,-68.69,1802,-7573,2961,-1,-1,-1
-155.85,12.40,-68.70,1799,-7567,2944,-1,-1,-1
-155.85,12.40,-68.70,1797,-7566,2961,-1,-1,-1
-155.84,12.41,-68.70,1801,-7574,2972,-1,-1,-1
-155.84,12.42,-68.71,1805,-7584,2969,-1,-1,-1
-155.84,12.43,-68.72,1811,-7583,2957,-1,-1,-1
-155.84,12.43,-68.72,1808,-7588,2952,-1,-1,-1
-155.83,12.44,-68.72,1804,-7585,2955,0,-1,-1
-155.83,12.44,-68.72,1797,-7582,2958,0,-1,-1
-155.83,12.45,-68.72,1795,-7571,2959,-1,-1,-1
-155.81,12.46,-68.72,1804,-7558,2957,-1,-1,-1
-155.80,12.47,-68.72,1808,-7570,2965,-1,-1,-1
-155.79,12.48,-68.72,1824,-7566,2956,-1,0,-1
-155.79,12.49,-68.73,1814,-7576,2965,-1,-1,-1
-155.79,12.49,-68.73,1822,-7578,2962,-1,0,-1
-155.78,12.50,-68.74,1825,-7575,2951,-1,-1,-1
-155.78,12.50,-68.74,1815,-7578,2946,-1,0,-1
-155.78,12.50,-68.74,1813,-7586,2947,-1,0,-1
-155.78,12.50,-68.74,1816,-7583,2943,0,0,-1
-155.78,12.50,-68.74,1813,-7582,2947,0,0,-1
-155.77,12.50,-68.73,1809,-7585,2958,0,0,-1
-155.76,12.51,-68.72,1805,-7579,2958,0,0,-1
-155.76,12.51,-68.72,1816,-7582,2953,-1,-1,-1
-155.76,12.51,-68.72,1816,-7574,2951,0,0,-1
-155.76,12.51,-68.73,1810,-7579,2944,-1,-1,-1
-155.75,12.52,-68.72,1818,-7578,2940,0,-1,-1
-155.75,12.52,-68.72,1817,-7584,2949,0,0,-1
-155.73,12.54,-68.71,1810,-7567,2955,0,0,-1
-155.72,12.54,-68.71,1816,-7563,2961,-1,-1,-1
-155.71,12.55,-68.71,1827,-7557,2963,-1,0,-1
-155.71,12.56,-68.71,1830,-7560,2943,-1,-1,-1
-155.71,12.56,-68.71,1828,-7571,2953,-1,-1,0
-155.71,12.56,-68.72,1825,-7573,2957,-1,-1,0
-155.72,12.56,-68.73,1818,-7592,2944,-1,-1,-1
-155.72,12.56,-68.73,1818,-7591,2946,0,-1,-1
-155.71,12.57,-68.73,1830,-7589,2939,0,0,-1
-155.70,12.57,-68.72,1830,-7571,2959,0,0,0
-155.70,12.57,-68.72,1831,-7556,2955,-1,-1,0
-155.71,12.57,-68.72,1829,-7565,2956,-1,-1,0
-155.70,12.58,-68.72,1837,-7572,2959,-1,0,0
-155.70,12.58,-68.73,1837,-7587,2952,-1,0,0
-155.70,12.57,-68.72,1832,-7588,2955,0,0,-1
-155.69,12.58,-68.71,1827,-7589,2951,0,0,-1
-155.68,12.58,-68.70,1823,-7578,2963,0,0,-1
-155.68,12.58,-68.70,1820,-7562,2970,-1,-1,-1
-155.68,12.58,-68.70,1831,-7566,2969,-1,-1,-1
-155.67,12.59,-68.71,1838,-7576,2961,-1,0,0
-155.67,12.59,-68.70,1834,-7570,2965,0,0,0
-155.67,12.59,-68.70,1828,-7567,2955,-1,0,0
-155.68,12.59,-68.71,1829,-7566,2947,-1,-1,0
-155.68,12.59,-68.71,1829,-7571,2948,0,-1,0
-155.68,12.59,-68.71,1830,-7577,2961,0,-1,0
-155.68,12.58,-68.71,1829,-7575,2956,-1,0,0
-155.68,12.58,-68.71,1830,-7575,2952,-1,-1,0
-155.69,12.58,-68.71,1837,-7578,2950,0,0,0
-155.68,12.58,-68.71,1835,-7579,2945,0,0,0
-155.68,12.58,-68.70,1834,-7578,2961,0,0,0
-155.68,12.58,-68.69,1824,-7571,2964,0,-1,0
-155.69,12.57,-68.70,1828,-7570,2964,0,0,0
-155.69,12.57,-68.70,1830,-7568,2971,-1,-1,0
-155.69,12.57,-68.69,1832,-7565,2967,-1,-1,0
-155.70,12.57,-68.70,1832,-7571,2960,-1,-1,0
-155.70,12.57,-68.70,1828,-7575,2944,-1,-1,0
-155.71,12.56,-68.71,1828,-7588,2949,-1,-1,0
-155.72,12.56,-68.71,1823,-7585,2941,0,0,0
-155.71,12.56,-68.71,1828,-7569,2944,-1,0,0
-155.72,12.55,-68.71,1822,-7562,2949,0,0,0
-155.72,12.55,-68.71,1817,-7561,2950,0,0,0
-155.73,12.54,-68.70,1812,-7570,2953,-1,-1,0
-155.73,12.54,-68.71,1817,-7575,2953,-1,-1,0
-155.73,12.54,-68.70,1824,-7569,2961,0,0,0
-155.74,12.54,-68.70,1826,-7565,2957,-1,0,0
-155.74,12.53,-68.70,1817,-7566,2953,-1,-1,0
-155.75,12.53,-68.71,1816,-7576,2954,-1,-1,0
-155.75,12.53,-68.71,1819,-7577,2946,0,-1,0
-155.75,12.52,-68.71,1823,-7570,2964,0,0,0
-155.76,12.52,-68.70,1834,-7568,2965,-1,0,0
-155.76,12.52,-68.70,1827,-7566,2967,0,0,0
-155.77,12.51,-68.70,1820,-7571,2959,-1,-1,0
-155.78,12.50,-68.71,1809,-7571,2969,-1,-1,0
-155.79,12.49,-68.72,1810,-7589,2949,-1,-1,0
-155.80,12.49,-68.72,1816,-7592,2935,0,-1,0
-155.79,12.49,-68.72,1830,-7580,2939,0,0,0
-155.79,12.49,-68.71,1828,-7550,2955,0,0,0
-155.80,12.48,-68.71,1817,-7557,2961,-1,-1,0
-155.82,12.47,-68.72,1811,-7581,2946,-1,-1,0
-155.83,12.47,-68.73,1817,-7590,2943,-1,0,0
-155.84,12.46,-68.73,1808,-7586,2948,0,0,0
-155.84,12.45,-68.72,1806,-7573,2943,0,0,0
-155.84,12.45,-68.72,1805,-7567,2942,0,-1,0
-155.84,12.45,-68.72,1810,-7569,2954,-1,-1,0
-155.85,12.45,-68.72,1816,-7570,2959,-1,-1,0
-155.85,12.45,-68.72,1824,-7574,2962,-1,0,0
-155.86,12.44,-68.72,1821,-7572,2959,-1,-1,0
-155.87,12.44,-68.73,1817,-7574,2957,-1,0,0
-155.88,12.43,-68.74,1809,-7574,2947,-1,-1,0
-155.89,12.43,-68.74,1811,-7583,2934,-1,-1,0
-155.90,12.42,-68.75,1809,-7588,2933,-1,-1,0
-155.90,12.42,-68.75,1808,-7583,2944,-1,0,0
-155.91,12.41,-68.76,1802,-7586,2939,-1,-1,0
-155.92,12.41,-68.76,1800,-7582,2936,-1,0,0
-155.93,12.40,-68.77,1809,-7585,2930,0,0,0
-155.93,12.39,-68.76,1797,-7586,2940,0,0,0
-155.94,12.39,-68.76,1797,-7593,2946,0,0,0
-155.93,12.39,-68.75,1797,-7584,2963,-1,0,0
-155.94,12.38,-68.75,1798,-7576,2956,0,0,0
-155.95,12.37,-68.76,1799,-7580,2962,-1,-1,0
-155.95,12.37,-68.76,1804,-7578,2956,-1,0,0
-155.96,12.37,-68.76,1802,-7586,2954,-1,0,0
-155.97,12.36,-68.77,1799,-7583,2943,-1,-1,0
-155.98,12.35,-68.77,1792,-7574,2937,-1,-1,0
-155.99,12.35,-68.78,1795,-7584,2939,-1,-1,0
-155.99,12.34,-68.77,1795,-7582,2945,0,0,0
-156.00,12.34,-68.78,1791,-7584,2944,-1,-1,0
-156.00,12.34,-68.78,1781,-7579,2942,-1,-1,0
-156.01,12.33,-68.78,1792,-7586,2947,0,0,0
-156.01,12.33,-68.78,1794,-7584,2944,-1,0,0
-156.01,12.33,-68.78,1805,-7579,2941,-1,-1,0
-156.02,12.33,-68.79,1802,-7575,2946,-1,-1,0
-156.03,12.33,-68.79,1803,-7581,2945,-1,-1,0
-156.03,12.32,-68.79,1798,-7583,2938,-1,0,0
-156.04,12.31,-68.80,1791,-7585,2943,-1,0,0
-156.05,12.30,-68.81,1781,-7592,2932,-1,-1,0
-156.06,12.30,-68.81,1785,-7596,2936,-1,-1,0
-156.06,12.31,-68.81,1799,-7595,2943,0,-1,0
-156.06,12.30,-68.81,1797,-7581,2937,0,0,0
-156.07,12.29,-68.80,1800,-7572,2960,-1,0,0
-156.08,12.29,-68.81,1798,-7585,2945,-1,0,0
-156.08,12.29,-68.82,1788,-7595,2931,-1,0,0
-156.10,12.28,-68.83,1796,-7605,2932,0,0,0
-156.10,12.27,-68.83,1792,-7598,2931,-1,0,0
-156.10,12.27,-68.83,1787,-7598,2929,0,0,0
-156.10,12.27,-68.84,1789,-7600,2934,0,0,0
-156.10,12.26,-68.83,1791,-7593,2940,0,0,0
-156.10,12.26,-68.83,1791,-7577,2932,-1,0,0
-156.10,12.26,-68.83,1790,-7573,2944,-1,-1,0
-156.11,12.26,-68.84,1791,-7577,2938,-1,0,0
-156.12,12.25,-68.85,1786,-7582,2934,-1,-1,0
-156.13,12.25,-68.85,1787,-7590,2931,0,-1,0
-156.12,12.25,-68.84,1797,-7589,2933,0,-1,0
-156.13,12.25,-68.84,1787,-7586,2942,0,-1,0
-156.13,12.25,-68.83,1775,-7590,2942,0,-1,0
-156.14,12.24,-68.83,1782,-7589,2938,0,-1,0
-156.13,12.24,-68.83,1779,-7590,2941,0,0,0
-156.13,12.24,-68.83,1781,-7591,2940,0,0,0
-156.13,12.24,-68.82,1765,-7589,2952,0,0,0
-156.13,12.24,-68.81,1772,-7589,2941,0,0,-1
-156.13,12.24,-68.81,1772,-7580,2956,0,-1,-1
-156.12,12.25,-68.81,1783,-7581,2947,-1,-1,0
-156.11,12.25,-68.80,1782,-7575,2955,0,0,0
-156.12,12.25,-68.81,1783,-7587,2946,-1,-1,0
-156.12,12.25,-68.81,1780,-7591,2942,0,0,0
