Yaw,Pitch,Roll,AX,AY,AZ,GX,GY,GZ
178.68,-2.93,-42.50,-419,-5620,6110,0,0,-1
178.69,-2.92,-42.49,-416,-5616,6106,0,0,-1
178.69,-2.92,-42.49,-417,-5615,6107,0,-1,-1
178.69,-2.92,-42.49,-415,-5616,6116,-1,-1,-1
178.69,-2.92,-42.49,-416,-5611,6115,0,0,-1
178.69,-2.92,-42.49,-416,-5602,6115,-1,0,0
178.69,-2.92,-42.50,-412,-5605,6102,-1,0,0
178.69,-2.92,-42.50,-413,-5614,6102,-1,0,0
178.69,-2.92,-42.50,-421,-5620,6106,0,0,0
178.69,-2.92,-42.50,-419,-5619,6103,0,0,-1
178.69,-2.92,-42.50,-425,-5622,6102,0,-1,-1
178.69,-2.92,-42.50,-422,-5616,6103,0,-1,-1
178.69,-2.91,-42.49,-416,-5614,6106,0,-1,-1
178.69,-2.91,-42.49,-415,-5612,6105,0,-1,-1
178.69,-2.91,-42.49,-411,-5604,6103,0,0,-1
178.70,-2.91,-42.49,-407,-5599,6105,0,0,-1
178.70,-2.91,-42.49,-409,-5599,6108,-1,0,-1
178.71,-2.90,-42.49,-409,-5602,6108,-1,0,-1
178.71,-2.90,-42.49,-411,-5608,6107,-1,-1,-1
178.71,-2.90,-42.49,-410,-5615,6098,0,0,0
178.71,-2.90,-42.49,-407,-5611,6106,0,0,0
178.71,-2.90,-42.49,-411,-5611,6107,0,0,-1
178.72,-2.90,-42.48,-407,-5608,6112,0,0,-1
178.72,-2.89,-42.48,-412,-5608,6111,0,-1,-1
178.72,-2.89,-42.48,-414,-5614,6105,0,-1,-1
178.73,-2.89,-42.47,-420,-5605,6110,0,0,-1
178.72,-2.89,-42.47,-411,-5603,6106,0,0,0
178.73,-2.89,-42.47,-411,-5614,6109,-1,0,-1
178.73,-2.89,-42.48,-416,-5614,6105,0,0,-1
178.73,-2.89,-42.47,-410,-5617,6101,0,-1,0
178.73,-2.89,-42.47,-401,-5607,6104,0,-1,0
178.72,-2.89,-42.47,-396,-5597,6105,-1,0,0
178.72,-2.89,-42.48,-400,-5609,6105,-1,0,0
178.71,-2.90,-42.49,-414,-5607,6114,-1,0,0
178.71,-2.90,-42.50,-415,-5615,6111,-1,0,0
178.70,-2.91,-42.51,-418,-5614,6111,-1,0,0
178.70,-2.91,-42.51,-427,-5622,6105,-1,-1,0
178.70,-2.91,-42.52,-428,-5627,6105,0,-1,0
178.70,-2.91,-42.52,-419,-5626,6105,0,-1,0
178.70,-2.90,-42.52,-411,-5616,6105,0,-1,0
178.70,-2.90,-42.51,-400,-5602,6108,0,-1,0
178.70,-2.89,-42.51,-398,-5600,6103,-1,0,0
178.70,-2.90,-42.52,-402,-5601,6107,-1,0,0
178.69,-2.90,-42.53,-408,-5611,6115,-1,0,0
178.69,-2.90,-42.53,-415,-5619,6102,-1,0,0
178.68,-2.91,-42.53,-424,-5617,6102,0,-1,0
178.68,-2.91,-42.54,-426,-5618,6100,0,-1,0
178.68,-2.91,-42.54,-425,-5629,6099,0,-1,0
178.68,-2.91,-42.53,-419,-5621,6095,0,-1,-1
178.69,-2.91,-42.52,-414,-5620,6105,0,-1,0
178.69,-2.91,-42.51,-409,-5619,6115,0,-1,0
178.69,-2.90,-42.51,-405,-5608,6119,0,-1,0
178.68,-2.90,-42.51,-410,-5600,6125,0,-1,0
178.69,-2.90,-42.51,-396,-5596,6121,0,0,0
178.69,-2.90,-42.51,-403,-5595,6128,-1,0,0
178.68,-2.90,-42.51,-410,-5597,6117,-1,0,0
178.68,-2.91,-42.51,-417,-5603,6112,-1,0,0
178.68,-2.91,-42.52,-416,-5610,6088,-1,-1,0
178.68,-2.91,-42.52,-420,-5615,6084,0,-1,0
178.68,-2.90,-42.52,-416,-5618,6096,0,-1,0
178.68,-2.91,-42.51,-420,-5618,6108,0,-1,0
178.68,-2.91,-42.50,-417,-5613,6121,0,-1,0
178.68,-2.90,-42.49,-410,-5611,6122,0,0,0
178.68,-2.90,-42.49,-408,-5599,6119,0,0,0
178.68,-2.90,-42.49,-406,-5600,6113,0,0,0
178.68,-2.90,-42.49,-401,-5606,6108,-1,0,0
178.68,-2.91,-42.49,-405,-5612,6109,-1,0,0
178.68,-2.91,-42.50,-405,-5622,6112,0,0,0
178.68,-2.91,-42.49,-404,-5618,6102,0,0,0
178.67,-2.91,-42.49,-416,-5610,6101,0,0,0
178.67,-2.91,-42.49,-418,-5604,6111,0,0,0
178.67,-2.91,-42.48,-415,-5596,6116,0,-1,0
178.67,-2.91,-42.48,-412,-5595,6124,0,0,0
178.67,-2.91,-42.48,-408,-5597,6121,-1,0,0
178.67,-2.92,-42.48,-407,-5613,6116,0,0,0
178.67,-2.92,-42.47,-408,-5611,6119,0,0,0
178.67,-2.92,-42.46,-404,-5596,6124,0,-1,0
178.67,-2.92,-42.46,-408,-5586,6117,0,0,0
178.66,-2.93,-42.45,-414,-5590,6107,0,0,0
178.65,-2.94,-42.45,-420,-5590,6103,0,0,0
178.65,-2.94,-42.45,-424,-5598,6118,0,0,0
178.65,-2.94,-42.45,-428,-5595,6117,-1,0,0
178.64,-2.95,-42.45,-429,-5602,6116,0,0,0
178.64,-2.95,-42.45,-427,-5613,6122,0,-1,0
178.65,-2.95,-42.45,-416,-5612,6114,0,-1,0
178.64,-2.95,-42.44,-423,-5610,6123,0,-1,0
178.64,-2.95,-42.43,-418,-5603,6118,0,0,0
178.63,-2.95,-42.43,-409,-5598,6116,0,-1,0
178.63,-2.95,-42.43,-406,-5594,6117,0,0,0
178.62,-2.96,-42.43,-417,-5591,6116,-1,0,0
178.62,-2.96,-42.43,-423,-5591,6122,0,0,0
178.62,-2.96,-42.43,-420,-5591,6115,-1,-1,0
178.61,-2.97,-42.42,-418,-5601,6108,0,-1,0
178.61,-2.97,-42.43,-419,-5607,6103,0,0,0
178.60,-2.97,-42.42,-424,-5610,6113,0,0,0
178.60,-2.97,-42.41,-429,-5606,6124,0,0,0
178.60,-2.98,-42.41,-428,-5601,6126,0,-1,0
178.60,-2.98,-42.40,-421,-5599,6121,0,-1,0
178.59,-2.98,-42.39,-425,-5599,6121,0,-1,0
178.59,-2.98,-42.39,-425,-5590,6119,0,0,0
178.58,-2.98,-42.39,-429,-5582,6119,0,-1,0
178.58,-2.98,-42.39,-424,-5588,6114,0,0,0
178.57,-2.99,-42.39,-427,-5589,6114,0,0,0
178.57,-2.99,-42.39,-426,-5594,6114,0,-1,0
178.57,-2.99,-42.39,-434,-5609,6110,0,-1,0
178.57,-2.99,-42.39,-434,-5604,6118,0,-1,0
178.56,-3.00,-42.39,-442,-5604,6114,0,-1,0
178.56,-3.00,-42.39,-433,-5607,6119,0,-1,0
178.56,-2.99,-42.38,-428,-5603,6120,0,-1,0
178.57,-2.98,-42.38,-428,-5597,6119,0,-1,-1
178.57,-2.98,-42.38,-428,-5594,6117,0,-1,-1
178.57,-2.98,-42.38,-427,-5590,6131,0,-1,0
178.57,-2.98,-42.38,-427,-5591,6122,0,0,0
178.56,-2.98,-42.38,-426,-5589,6131,-1,-1,0
178.56,-2.98,-42.39,-426,-5585,6128,-1,0,-1
178.56,-2.98,-42.39,-427,-5589,6121,-1,-1,0
178.56,-2.97,-42.40,-421,-5595,6118,-1,-1,-1
178.57,-2.97,-42.40,-418,-5595,6113,0,-1,0
178.57,-2.96,-42.39,-412,-5587,6117,0,-1,0
178.57,-2.96,-42.39,-411,-5582,6115,-1,-1,0
178.57,-2.96,-42.40,-413,-5587,6121,-1,0,0
178.57,-2.96,-42.40,-421,-5588,6124,-1,0,0
178.57,-2.96,-42.40,-429,-5591,6115,-1,-1,-1
178.57,-2.96,-42.41,-433,-5602,6125,-1,-1,-1
178.57,-2.96,-42.41,-434,-5610,6123,-1,-1,-1
178.57,-2.95,-42.41,-427,-5612,6125,0,-1,-1
178.58,-2.94,-42.41,-414,-5600,6118,0,-1,-1
178.58,-2.94,-42.41,-406,-5593,6124,0,-1,-1
178.59,-2.93,-42.41,-408,-5590,6122,-1,-1,0
178.59,-2.93,-42.41,-408,-5595,6118,-1,0,0
178.59,-2.93,-42.41,-413,-5593,6125,-1,0,0
178.59,-2.93,-42.42,-417,-5596,6128,-1,0,-1
178.58,-2.93,-42.43,-424,-5603,6125,-1,-1,-1
178.58,-2.93,-42.44,-420,-5603,6114,-1,-1,0
178.58,-2.93,-42.45,-419,-5599,6110,-1,-1,0
178.59,-2.93,-42.45,-418,-5599,6111,-1,0,-1
178.59,-2.93,-42.45,-419,-5602,6126,-1,0,-1
178.59,-2.93,-42.45,-413,-5599,6120,0,-1,-1
178.59,-2.92,-42.45,-416,-5599,6129,-1,-1,-1
178.60,-2.92,-42.45,-412,-5601,6134,-1,-1,-1
178.60,-2.91,-42.45,-417,-5596,6126,-1,-1,-1
178.61,-2.91,-42.45,-406,-5589,6123,-1,0,0
178.61,-2.91,-42.45,-400,-5591,6112,-1,0,0
178.60,-2.91,-42.47,-404,-5604,6105,-1,0,0
178.60,-2.91,-42.47,-410,-5614,6108,-1,0,0
178.60,-2.91,-42.47,-421,-5607,6102,0,0,0
178.60,-2.91,-42.47,-431,-5609,6102,0,-1,0
178.60,-2.91,-42.47,-436,-5601,6108,0,-1,-1
178.60,-2.91,-42.47,-430,-5600,6113,0,-1,-1
178.60,-2.91,-42.46,-425,-5595,6122,0,-1,-1
178.60,-2.91,-42.45,-416,-5592,6125,0,-1,0
178.60,-2.91,-42.45,-408,-5588,6130,-1,0,0
178.60,-2.91,-42.46,-412,-5597,6123,-1,0,0
178.60,-2.91,-42.47,-414,-5599,6125,-1,0,-1
178.60,-2.91,-42.47,-407,-5598,6109,-1,0,-1
178.60,-2.91,-42.48,-414,-5599,6106,-1,-1,0
178.60,-2.91,-42.48,-410,-5601,6101,-1,0,0
178.61,-2.90,-42.49,-418,-5604,6106,-1,0,0
178.61,-2.91,-42.49,-422,-5606,6115,-1,0,0
178.61,-2.91,-42.49,-424,-5609,6107,-1,0,-1
178.61,-2.91,-42.50,-419,-5604,6106,-1,0,0
178.61,-2.91,-42.50,-411,-5603,6105,-1,-1,-1
178.61,-2.91,-42.50,-414,-5611,6110,-1,0,0
178.61,-2.91,-42.51,-414,-5609,6103,-1,-1,-1
178.61,-2.91,-42.51,-407,-5608,6106,-1,-1,0
178.61,-2.91,-42.51,-405,-5602,6108,-1,0,0
178.61,-2.91,-42.51,-412,-5599,6107,0,0,-1
178.61,-2.91,-42.51,-414,-5599,6117,-1,0,0
178.61,-2.91,-42.52,-424,-5605,6117,-1,-1,0
178.61,-2.91,-42.53,-419,-5612,6107,-1,0,0
178.61,-2.91,-42.53,-422,-5617,6101,-1,-1,-1
178.61,-2.91,-42.53,-418,-5617,6096,0,-1,0
178.61,-2.91,-42.53,-415,-5615,6091,0,0,-1
178.61,-2.91,-42.53,-415,-5612,6101,0,0,0
178.61,-2.91,-42.52,-420,-5607,6108,0,-1,-1
178.61,-2.91,-42.52,-419,-5605,6119,0,-1,0
178.61,-2.91,-42.51,-424,-5596,6117,0,0,0
178.61,-2.91,-42.52,-415,-5598,6109,-1,-1,0
178.62,-2.90,-42.52,-417,-5600,6120,-1,-1,-1
178.61,-2.91,-42.52,-420,-5601,6119,-1,0,0
178.61,-2.91,-42.53,-419,-5605,6104,-1,0,0
178.61,-2.91,-42.53,-422,-5607,6099,0,0,0
178.61,-2.91,-42.53,-425,-5610,6100,0,0,0
178.61,-2.91,-42.53,-428,-5607,6106,0,-1,-1
178.61,-2.91,-42.53,-420,-5606,6108,0,-1,0
178.61,-2.91,-42.53,-412,-5610,6109,0,-1,-1
178.61,-2.91,-42.53,-404,-5617,6111,0,-1,-1
178.61,-2.91,-42.52,-405,-5611,6113,0,0,0
178.62,-2.90,-42.52,-401,-5593,6113,-1,-1,0
178.62,-2.90,-42.53,-407,-5590,6106,-1,0,0
178.62,-2.90,-42.53,-413,-5604,6104,-1,0,-1
178.62,-2.90,-42.54,-413,-5611,6105,-1,0,-1
178.62,-2.90,-42.54,-410,-5609,6108,0,-1,-1
178.63,-2.89,-42.53,-404,-5600,6102,0,-1,0
178.63,-2.89,-42.53,-399,-5600,6105,-1,0,0
178.63,-2.89,-42.53,-413,-5602,6103,0,0,0
178.62,-2.90,-42.53,-424,-5608,6105,0,0,-1
178.62,-2.90,-42.53,-425,-5614,6112,0,0,0
178.63,-2.90,-42.53,-418,-5609,6114,0,0,-1
178.63,-2.90,-42.53,-420,-5618,6110,0,-1,-1
178.63,-2.90,-42.53,-418,-5621,6105,0,-1,-1
178.63,-2.90,-42.53,-419,-5612,6113,0,-1,-1
178.63,-2.90,-42.53,-417,-5603,6124,0,-1,-1
178.63,-2.90,-42.52,-422,-5606,6129,0,-1,0
178.63,-2.89,-42.52,-406,-5594,6120,-1,-1,0
178.63,-2.89,-42.53,-406,-5601,6120,-1,0,0
178.63,-2.89,-42.53,-402,-5609,6112,-1,0,0
178.63,-2.90,-42.53,-422,-5629,6114,-1,-1,0
178.63,-2.89,-42.53,-416,-5627,6108,0,-1,0
178.63,-2.89,-42.53,-423,-5621,6101,0,0,-1
178.63,-2.89,-42.53,-421,-5622,6099,0,-1,-1
178.63,-2.89,-42.53,-424,-5614,6101,0,0,0
178.63,-2.89,-42.53,-422,-5612,6105,0,-1,0
178.64,-2.88,-42.52,-412,-5602,6123,0,-1,-1
178.64,-2.88,-42.51,-418,-5613,6136,0,-1,0
178.65,-2.86,-42.47,-412,-5638,6130,1,-1,-1
178.66,-2.85,-42.44,-400,-5578,6129,0,0,-1
178.66,-2.86,-42.45,-399,-5565,6106,-2,0,0
178.65,-2.87,-42.48,-406,-5569,6103,-1,0,0
178.64,-2.87,-42.50,-398,-5591,6101,-1,0,0
178.64,-2.87,-42.51,-394,-5607,6103,-1,-1,0
178.64,-2.87,-42.51,-398,-5618,6096,0,0,-1
178.64,-2.88,-42.50,-414,-5616,6112,0,0,0
178.64,-2.88,-42.50,-422,-5611,6118,0,0,0
178.64,-2.88,-42.50,-425,-5602,6132,-1,-1,0
178.64,-2.88,-42.50,-418,-5593,6133,-1,-1,-1
178.64,-2.88,-42.50,-412,-5592,6118,-1,-1,-1
178.64,-2.87,-42.51,-403,-5602,6107,-1,-1,0
178.65,-2.87,-42.51,-401,-5609,6112,0,0,0
178.65,-2.87,-42.51,-409,-5607,6116,0,0,0
178.64,-2.88,-42.50,-410,-5598,6125,0,0,0
178.64,-2.87,-42.50,-412,-5602,6123,-1,-1,0
178.64,-2.87,-42.51,-414,-5608,6117,0,-1,0
178.64,-2.86,-42.51,-403,-5600,6103,0,-1,0
178.64,-2.86,-42.51,-398,-5600,6108,-1,0,0
178.64,-2.86,-42.51,-413,-5605,6107,-1,0,0
178.64,-2.86,-42.51,-412,-5613,6113,0,-1,0
178.64,-2.86,-42.50,-413,-5615,6115,0,-1,0
178.64,-2.86,-42.50,-403,-5603,6124,0,-1,0
178.65,-2.86,-42.49,-402,-5593,6120,0,-1,0
178.64,-2.87,-42.49,-409,-5601,6116,0,0,0
178.64,-2.87,-42.49,-405,-5609,6115,0,-1,0
178.64,-2.87,-42.49,-412,-5611,6107,-1,0,0
178.63,-2.87,-42.49,-416,-5611,6110,-1,-1,0
178.63,-2.87,-42.50,-416,-5614,6111,0,-1,0
178.62,-2.87,-42.50,-417,-5613,6111,0,-1,0
178.63,-2.86,-42.49,-406,-5603,6112,0,-1,0
178.62,-2.87,-42.49,-397,-5591,6117,-1,-1,0
178.62,-2.87,-42.49,-388,-5589,6130,-1,0,0
178.62,-2.87,-42.49,-400,-5583,6119,-1,0,0
178.61,-2.87,-42.50,-404,-5594,6114,-1,0,0
178.61,-2.87,-42.50,-412,-5599,6114,-1,0,0
178.60,-2.88,-42.50,-412,-5608,6102,-1,0,0
178.60,-2.88,-42.51,-413,-5617,6096,0,-1,0
178.60,-2.88,-42.51,-411,-5618,6104,0,-1,0
178.60,-2.88,-42.50,-420,-5618,6098,0,0,0
178.60,-2.88,-42.50,-415,-5612,6101,0,-1,0
178.60,-2.88,-42.50,-407,-5608,6102,0,0,0
178.60,-2.87,-42.49,-401,-5604,6107,0,0,0
178.60,-2.87,-42.49,-403,-5601,6115,0,-1,0
178.60,-2.87,-42.49,-399,-5599,6125,0,-1,0
178.60,-2.87,-42.49,-403,-5601,6122,0,-1,0
178.60,-2.87,-42.49,-409,-5597,6113,0,0,0
178.59,-2.88,-42.49,-404,-5600,6112,-1,0,0
178.59,-2.88,-42.49,-410,-5603,6107,0,-1,0
178.59,-2.88,-42.49,-418,-5606,6103,0,-1,0
178.59,-2.88,-42.49,-414,-5601,6104,0,0,0
178.59,-2.88,-42.48,-414,-5598,6115,0,-1,0
178.59,-2.88,-42.47,-408,-5596,6111,0,0,0
178.59,-2.88,-42.47,-418,-5598,6124,0,-1,0
178.59,-2.88,-42.46,-429,-5603,6120,0,-1,0
178.58,-2.88,-42.46,-435,-5613,6108,0,-1,0
178.59,-2.87,-42.44,-432,-5611,6112,0,-1,0
178.58,-2.87,-42.43,-424,-5609,6112,0,-1,0
178.58,-2.85,-42.41,-406,-5598,6126,0,-1,0
178.59,-2.84,-42.40,-391,-5592,6133,0,-1,0
178.59,-2.83,-42.38,-393,-5585,6136,0,-1,0
178.58,-2.83,-42.36,-396,-5582,6137,0,-1,0
178.57,-2.83,-42.36,-392,-5584,6132,0,-1,0
178.57,-2.82,-42.35,-391,-5578,6138,0,-1,0
178.57,-2.82,-42.35,-399,-5583,6130,-1,-1,0
178.57,-2.82,-42.35,-397,-5596,6132,0,-1,0
178.57,-2.81,-42.34,-385,-5584,6141,0,-1,0
178.57,-2.80,-42.34,-384,-5582,6141,-1,-1,0
178.57,-2.80,-42.34,-385,-5586,6130,-1,-1,0
178.57,-2.80,-42.35,-384,-5586,6127,0,0,0
178.57,-2.80,-42.35,-381,-5586,6131,-1,0,0
178.57,-2.81,-42.35,-394,-5592,6138,-1,0,0
178.56,-2.82,-42.36,-407,-5601,6131,-1,0,0
178.56,-2.82,-42.36,-403,-5607,6127,-1,0,0
178.56,-2.82,-42.36,-403,-5601,6125,0,0,0
178.56,-2.82,-42.36,-403,-5599,6126,0,0,0
178.55,-2.83,-42.36,-402,-5595,6120,0,-1,0
178.55,-2.83,-42.36,-401,-5601,6131,0,-1,0
178.55,-2.82,-42.35,-401,-5589,6131,0,0,0
178.55,-2.83,-42.35,-408,-5584,6131,0,0,0
178.54,-2.83,-42.35,-408,-5582,6132,0,0,0
178.54,-2.83,-42.35,-414,-5586,6125,0,-1,0
178.54,-2.83,-42.35,-410,-5599,6126,0,-1,0
178.54,-2.83,-42.35,-407,-5597,6127,0,0,0
178.53,-2.84,-42.35,-406,-5595,6120,0,0,0
178.53,-2.84,-42.34,-409,-5593,6118,0,-1,0
178.53,-2.83,-42.34,-400,-5603,6108,0,-1,0
178.53,-2.83,-42.33,-403,-5588,6137,0,-1,0
178.53,-2.82,-42.33,-404,-5578,6136,0,-1,0
178.53,-2.83,-42.33,-399,-5582,6140,0,-1,0
178.53,-2.82,-42.33,-395,-5577,6136,0,-1,0
178.53,-2.82,-42.32,-397,-5576,6138,-1,-1,0
178.53,-2.82,-42.33,-399,-5581,6139,-1,-1,0
178.53,-2.82,-42.33,-400,-5581,6134,0,0,0
178.53,-2.82,-42.33,-404,-5580,6127,-1,0,0
178.53,-2.82,-42.33,-405,-5590,6122,0,-1,0
178.53,-2.82,-42.33,-409,-5596,6125,0,-1,-1
178.53,-2.82,-42.33,-405,-5598,6124,0,-1,0
178.53,-2.81,-42.33,-397,-5582,6124,0,-1,0
178.53,-2.81,-42.33,-392,-5579,6128,0,0,0
178.53,-2.81,-42.33,-397,-5584,6132,-1,0,0
178.53,-2.81,-42.33,-403,-5582,6137,-1,-1,0
178.53,-2.80,-42.33,-409,-5589,6132,-1,-1,-1
178.53,-2.80,-42.33,-403,-5587,6121,0,-1,0
178.53,-2.80,-42.33,-400,-5581,6122,0,-1,0
178.53,-2.81,-42.33,-396,-5589,6130,-1,-1,0
178.53,-2.80,-42.33,-397,-5591,6137,-1,0,0
178.53,-2.80,-42.34,-394,-5591,6139,0,0,0
178.53,-2.80,-42.33,-393,-5596,6134,0,-1,0
178.53,-2.80,-42.33,-398,-5580,6137,0,-1,0
178.53,-2.80,-42.33,-392,-5578,6125,-1,0,0
178.53,-2.80,-42.34,-395,-5576,6118,-1,-1,0
178.53,-2.80,-42.34,-398,-5586,6121,-1,0,0
178.53,-2.80,-42.35,-405,-5593,6124,-1,0,-1
178.53,-2.80,-42.35,-405,-5601,6126,-1,0,-1
178.53,-2.80,-42.36,-405,-5603,6120,0,-1,-1
178.53,-2.80,-42.36,-407,-5596,6116,0,-1,-1
178.53,-2.80,-42.35,-399,-5590,6128,0,-1,0
178.53,-2.80,-42.35,-389,-5585,6131,0,-1,0
178.54,-2.79,-42.35,-384,-5586,6135,-1,0,0
178.54,-2.79,-42.35,-391,-5581,6131,-1,0,0
178.53,-2.80,-42.36,-392,-5584,6132,-1,0,0
178.53,-2.80,-42.36,-394,-5586,6120,-1,0,0
178.53,-2.80,-42.36,-400,-5589,6123,-1,0,0
178.53,-2.80,-42.37,-399,-5594,6120,-1,-1,0
178.53,-2.80,-42.37,-396,-5595,6115,-1,0,0
178.53,-2.80,-42.37,-399,-5598,6119,0,0,0
178.53,-2.80,-42.37,-404,-5600,6137,0,0,-1
178.53,-2.80,-42.37,-402,-5595,6126,0,-1,-1
178.53,-2.80,-42.37,-399,-5591,6121,0,-1,0
178.54,-2.79,-42.37,-394,-5587,6120,0,-1,0
178.54,-2.79,-42.37,-391,-5591,6125,-1,-1,0
178.54,-2.79,-42.37,-391,-5589,6121,-1,0,0
178.54,-2.79,-42.37,-389,-5586,6121,-1,0,0
178.54,-2.79,-42.38,-396,-5588,6125,-1,0,0
178.54,-2.79,-42.38,-398,-5588,6130,-1,0,0
178.54,-2.79,-42.38,-398,-5586,6113,-1,0,0
178.54,-2.79,-42.38,-399,-5590,6114,0,-1,0
178.54,-2.79,-42.38,-396,-5594,6114,0,0,0
178.54,-2.79,-42.38,-402,-5590,6122,0,-1,0
178.53,-2.79,-42.38,-398,-5590,6134,0,0,-1
178.54,-2.79,-42.38,-400,-5594,6125,0,-1,-1
178.54,-2.79,-42.38,-396,-5587,6130,0,-1,-1
178.54,-2.78,-42.38,-386,-5586,6121,-1,0,-1
178.54,-2.78,-42.38,-384,-5576,6115,0,0,0
178.54,-2.78,-42.38,-391,-5582,6125,-1,-1,0
178.54,-2.78,-42.38,-390,-5586,6125,-1,0,0
178.54,-2.78,-42.39,-395,-5602,6108,-1,0,-1
178.54,-2.78,-42.40,-404,-5608,6116,0,-1,-1
178.54,-2.78,-42.39,-396,-5600,6120,0,-1,0
178.54,-2.78,-42.38,-386,-5596,6126,0,-1,0
178.54,-2.77,-42.38,-386,-5595,6132,-1,0,0
178.54,-2.78,-42.38,-395,-5595,6125,-1,0,0
178.54,-2.78,-42.38,-409,-5591,6140,-1,0,0
178.54,-2.78,-42.38,-422,-5593,6143,-1,0,-1
178.54,-2.78,-42.39,-418,-5600,6128,-1,-1,-1
178.54,-2.78,-42.39,-406,-5597,6131,0,-1,-1
178.54,-2.78,-42.39,-393,-5595,6119,0,-1,0
178.54,-2.77,-42.39,-386,-5598,6123,0,-1,0
178.54,-2.77,-42.39,-383,-5595,6132,0,0,0
178.54,-2.78,-42.39,-374,-5584,6134,-1,0,0
178.53,-2.78,-42.39,-393,-5579,6125,-1,0,0
178.52,-2.79,-42.40,-401,-5598,6120,-1,0,0
178.52,-2.79,-42.41,-418,-5608,6127,-1,-1,0
178.52,-2.79,-42.41,-408,-5604,6115,-1,-1,0
178.52,-2.79,-42.42,-405,-5604,6101,-1,-1,0
178.52,-2.79,-42.42,-400,-5599,6106,0,0,0
178.52,-2.79,-42.41,-405,-5598,6114,0,0,0
178.52,-2.79,-42.41,-401,-5593,6112,0,-1,-1
178.52,-2.79,-42.41,-405,-5588,6109,0,-1,-1
178.52,-2.79,-42.41,-400,-5592,6115,0,-1,-1
178.53,-2.78,-42.41,-396,-5591,6120,0,-1,-1
178.53,-2.78,-42.41,-388,-5589,6117,0,0,-1
178.54,-2.77,-42.41,-389,-5582,6116,-1,-1,-1
178.54,-2.77,-42.41,-389,-5579,6117,-1,-1,0
178.54,-2.77,-42.42,-397,-5594,6110,-1,0,0
178.54,-2.77,-42.42,-395,-5592,6113,0,0,0
178.53,-2.78,-42.42,-398,-5602,6116,0,0,0
178.53,-2.78,-42.41,-397,-5601,6120,0,0,-1
178.54,-2.78,-42.41,-400,-5612,6128,0,-1,0
178.54,-2.77,-42.41,-395,-5608,6135,0,-1,-1
178.54,-2.77,-42.41,-404,-5592,6123,0,-1,-1
178.55,-2.76,-42.40,-398,-5582,6127,0,-1,0
178.55,-2.76,-42.40,-393,-5581,6137,-1,0,-1
178.55,-2.76,-42.41,-398,-5595,6133,-1,-1,-1
178.55,-2.76,-42.41,-385,-5593,6137,0,0,-1
178.55,-2.75,-42.40,-383,-5592,6131,0,-1,0
178.55,-2.75,-42.40,-385,-5586,6130,-1,0,0
178.55,-2.75,-42.41,-377,-5589,6130,-1,0,0
178.55,-2.75,-42.41,-391,-5593,6129,0,0,0
178.55,-2.76,-42.41,-399,-5597,6130,0,0,0
178.55,-2.76,-42.41,-401,-5596,6140,-1,0,-1
178.55,-2.76,-42.40,-405,-5591,6139,0,0,-1
178.56,-2.76,-42.40,-399,-5594,6128,0,-1,-1
178.56,-2.75,-42.40,-388,-5594,6117,0,-1,-1
178.56,-2.75,-42.40,-389,-5591,6120,-1,0,-1
178.56,-2.75,-42.40,-388,-5589,6123,-1,0,0
178.56,-2.75,-42.40,-392,-5588,6129,-1,0,0
178.56,-2.76,-42.41,-392,-5587,6130,-1,0,0
178.56,-2.76,-42.41,-392,-5590,6134,-1,0,0
178.56,-2.76,-42.41,-401,-5590,6118,-1,0,0
178.56,-2.76,-42.41,-403,-5595,6117,-1,-1,0
178.55,-2.76,-42.41,-398,-5594,6114,-1,0,0
178.55,-2.77,-42.42,-398,-5599,6120,-1,0,0
178.55,-2.77,-42.43,-399,-5598,6114,-1,0,0
178.54,-2.78,-42.43,-397,-5591,6128,-1,0,0
178.54,-2.78,-42.43,-398,-5588,6130,-1,-1,0
178.54,-2.78,-42.43,-394,-5590,6122,-1,0,0
178.54,-2.78,-42.44,-395,-5590,6113,-1,0,0
178.53,-2.79,-42.44,-396,-5593,6119,-1,0,0
178.53,-2.79,-42.44,-398,-5592,6112,-1,0,0
178.53,-2.79,-42.44,-403,-5596,6119,-1,-1,0
178.53,-2.79,-42.45,-402,-5598,6121,-1,0,0
178.52,-2.79,-42.45,-400,-5606,6118,-1,0,0
178.52,-2.79,-42.45,-404,-5606,6109,0,0,-1
178.52,-2.79,-42.45,-403,-5607,6113,0,0,0
178.52,-2.79,-42.45,-397,-5604,6113,0,-1,0
178.52,-2.79,-42.44,-394,-5603,6112,0,0,-1
178.52,-2.79,-42.44,-387,-5596,6111,0,0,0
178.52,-2.79,-42.43,-390,-5582,6122,0,0,0
178.52,-2.79,-42.43,-392,-5579,6127,-1,0,0
178.52,-2.79,-42.44,-395,-5591,6124,-1,0,-1
178.52,-2.79,-42.44,-406,-5597,6115,-1,-1,0
178.52,-2.80,-42.44,-407,-5596,6115,0,-1,-1
178.52,-2.79,-42.44,-404,-5592,6116,0,-1,0
178.52,-2.79,-42.43,-397,-5584,6120,0,-1,0
178.52,-2.79,-42.43,-394,-5587,6125,0,0,0
178.51,-2.80,-42.43,-392,-5587,6123,0,0,0
178.52,-2.80,-42.42,-403,-5594,6121,0,0,0
178.51,-2.80,-42.42,-405,-5597,6127,0,0,-1
178.52,-2.80,-42.42,-407,-5595,6121,0,-1,-1
178.51,-2.80,-42.41,-412,-5600,6116,0,-1,0
178.51,-2.80,-42.41,-417,-5589,6117,0,-1,-1
178.51,-2.80,-42.41,-407,-5591,6121,0,-1,0
178.51,-2.80,-42.41,-396,-5584,6120,0,0,0
178.51,-2.81,-42.40,-405,-5581,6114,0,0,0
178.51,-2.81,-42.40,-396,-5585,6119,0,0,-1
178.51,-2.81,-42.40,-398,-5599,6123,0,0,0
178.50,-2.81,-42.40,-407,-5592,6125,-1,0,0
178.50,-2.81,-42.40,-404,-5590,6115,0,-1,0
178.50,-2.81,-42.40,-404,-5592,6114,0,-1,0
178.50,-2.82,-42.39,-404,-5592,6118,0,0,0
178.50,-2.82,-42.38,-405,-5592,6127,0,-1,0
178.50,-2.81,-42.38,-401,-5589,6127,0,-1,0
178.50,-2.81,-42.38,-395,-5583,6131,0,0,0
178.50,-2.81,-42.37,-402,-5582,6143,-1,-1,0
178.49,-2.81,-42.37,-392,-5585,6131,0,0,-1
178.49,-2.81,-42.37,-395,-5579,6133,-1,-1,0
178.49,-2.81,-42.38,-398,-5590,6129,-1,-1,0
178.49,-2.81,-42.38,-398,-5593,6129,-1,-1,0
178.49,-2.81,-42.38,-398,-5594,6128,-1,-1,0
178.49,-2.81,-42.38,-398,-5594,6127,0,0,0
178.49,-2.81,-42.38,-402,-5591,6123,0,0,0
178.48,-2.82,-42.38,-404,-5601,6125,0,-1,0
178.48,-2.82,-42.37,-404,-5606,6129,0,-1,0
178.47,-2.82,-42.37,-403,-5602,6128,0,-1,0
178.47,-2.82,-42.36,-399,-5596,6120,0,-1,0
178.47,-2.82,-42.35,-403,-5583,6119,0,-1,0
178.48,-2.81,-42.35,-397,-5573,6122,0,0,0
178.47,-2.82,-42.35,-402,-5570,6124,-1,-1,0
178.47,-2.82,-42.35,-411,-5577,6137,-1,-1,0
178.46,-2.82,-42.35,-409,-5580,6140,-1,-1,0
178.46,-2.81,-42.35,-409,-5593,6128,-1,-1,0
178.45,-2.82,-42.36,-413,-5594,6121,0,-1,0
178.45,-2.82,-42.35,-403,-5583,6123,0,-1,0
178.46,-2.81,-42.35,-404,-5584,6125,-1,-1,0
178.46,-2.81,-42.36,-401,-5599,6128,-1,-1,-1
178.46,-2.80,-42.36,-405,-5607,6119,0,-1,-1
178.46,-2.80,-42.35,-406,-5597,6114,0,-1,-1
178.46,-2.80,-42.35,-400,-5585,6124,0,-1,0
178.46,-2.80,-42.34,-394,-5572,6135,0,0,-1
178.46,-2.80,-42.34,-399,-5580,6141,-1,0,0
178.46,-2.80,-42.34,-392,-5584,6145,-1,0,-1
178.46,-2.80,-42.34,-404,-5580,6137,-1,0,-1
178.46,-2.80,-42.35,-409,-5588,6132,-1,-1,-1
178.46,-2.80,-42.35,-404,-5591,6130,-1,-1,-1
178.46,-2.80,-42.35,-406,-5597,6110,0,-1,-1
178.47,-2.79,-42.36,-397,-5600,6122,-1,-1,0
178.47,-2.79,-42.36,-391,-5586,6127,-1,0,-1
178.47,-2.79,-42.35,-393,-5581,6131,-1,-1,-1
178.47,-2.79,-42.35,-392,-5577,6128,-1,0,-1
178.47,-2.79,-42.36,-389,-5575,6121,-1,0,-1
178.47,-2.79,-42.36,-400,-5577,6133,-1,0,0
178.47,-2.79,-42.37,-400,-5586,6137,-1,-1,-1
178.48,-2.78,-42.37,-393,-5586,6135,-1,0,-1
178.48,-2.78,-42.37,-401,-5595,6130,-1,-1,-1
178.48,-2.79,-42.38,-405,-5598,6133,-1,-1,-1
178.48,-2.79,-42.37,-407,-5593,6139,0,0,-1
178.48,-2.78,-42.37,-403,-5592,6141,-1,-1,-1
178.48,-2.78,-42.37,-404,-5592,6121,-1,-1,-1
178.48,-2.78,-42.38,-400,-5586,6119,-1,0,-1
178.48,-2.78,-42.38,-398,-5587,6122,-1,0,-1
178.48,-2.78,-42.38,-392,-5584,6127,-1,-1,-1
178.48,-2.78,-42.38,-398,-5578,6126,-1,0,0
178.48,-2.78,-42.39,-398,-5596,6115,-1,0,0
178.49,-2.78,-42.40,-394,-5593,6118,-1,0,0
178.49,-2.78,-42.40,-389,-5592,6115,-1,0,-1
178.49,-2.78,-42.40,-394,-5594,6113,-1,0,0
178.49,-2.78,-42.40,-392,-5599,6130,0,0,0
178.49,-2.78,-42.40,-391,-5590,6125,0,-1,-1
178.49,-2.77,-42.40,-392,-5588,6123,-1,0,-1
178.49,-2.77,-42.40,-388,-5584,6124,-1,0,-1
178.50,-2.77,-42.40,-389,-5588,6126,-1,-1,-1
178.50,-2.77,-42.40,-394,-5590,6128,-1,0,-1
178.50,-2.77,-42.40,-391,-5594,6127,-1,0,-1
178.50,-2.77,-42.41,-394,-5590,6120,-1,-1,-1
178.50,-2.77,-42.41,-393,-5595,6126,-1,0,0
178.50,-2.77,-42.41,-402,-5591,6123,-1,0,-1
178.50,-2.77,-42.41,-398,-5589,6120,-1,0,-1
178.50,-2.77,-42.42,-394,-5592,6119,-1,0,-1
178.50,-2.77,-42.42,-398,-5594,6120,-1,0,-1
178.50,-2.77,-42.42,-395,-5587,6130,-1,0,-1
178.50,-2.77,-42.42,-402,-5582,6128,-1,0,-1
178.50,-2.77,-42.43,-404,-5598,6123,-1,0,-1
178.50,-2.78,-42.44,-409,-5601,6123,-1,0,-1
178.50,-2.78,-42.44,-408,-5601,6116,0,-1,-1
178.50,-2.77,-42.44,-399,-5596,6126,0,-1,0
178.50,-2.77,-42.43,-390,-5586,6122,-1,-1,-1
178.51,-2.77,-42.43,-390,-5590,6121,-1,0,0
178.51,-2.77,-42.43,-396,-5590,6123,0,0,-1
178.51,-2.78,-42.43,-410,-5592,6130,-1,0,-1
178.51,-2.78,-42.44,-414,-5589,6138,-1,0,-1
178.51,-2.78,-42.44,-410,-5597,6127,-1,-1,-1
178.51,-2.78,-42.44,-399,-5597,6122,-1,-1,-1
178.52,-2.77,-42.43,-389,-5594,6125,0,0,-1
178.52,-2.77,-42.42,-388,-5592,6142,0,0,-1
178.53,-2.76,-42.41,-386,-5592,6147,0,0,-1
178.53,-2.76,-42.42,-388,-5590,6134,-1,-1,-1
178.53,-2.76,-42.42,-393,-5590,6129,-1,0,-1
178.53,-2.76,-42.42,-388,-5593,6118,-1,0,-1
178.53,-2.76,-42.43,-392,-5600,6116,-1,0,-1
178.53,-2.76,-42.43,-396,-5601,6111,0,-1,-1
178.54,-2.76,-42.43,-395,-5607,6112,0,-1,-1
178.54,-2.76,-42.43,-397,-5599,6120,0,0,-1
178.54,-2.76,-42.42,-399,-5597,6119,0,0,-1
178.54,-2.76,-42.41,-399,-5594,6135,-1,-1,-1
178.54,-2.75,-42.41,-395,-5590,6133,0,-1,-1
178.55,-2.75,-42.41,-396,-5593,6132,-1,-1,-1
178.55,-2.74,-42.41,-386,-5582,6122,-1,0,-1
178.55,-2.74,-42.41,-385,-5588,6129,-1,0,-1
178.55,-2.74,-42.41,-386,-5589,6130,-1,-1,-1
178.56,-2.74,-42.41,-382,-5593,6126,-1,0,-1
178.56,-2.74,-42.42,-388,-5589,6117,-1,0,-1
178.56,-2.75,-42.42,-399,-5589,6113,-1,0,-1
178.56,-2.75,-42.42,-401,-5597,6113,0,0,-1
178.56,-2.75,-42.42,-399,-5596,6121,0,0,-1
178.56,-2.75,-42.42,-397,-5596,6124,0,-1,-1
178.56,-2.75,-42.41,-400,-5594,6132,0,-1,-1
178.56,-2.75,-42.41,-388,-5586,6132,-1,-1,-1
178.56,-2.75,-42.41,-387,-5584,6125,-1,-1,0
178.56,-2.75,-42.41,-379,-5586,6133,-1,0,0
178.56,-2.75,-42.42,-377,-5593,6127,-1,0,0
178.56,-2.75,-42.42,-383,-5592,6128,-1,0,0
178.56,-2.75,-42.43,-378,-5592,6123,-1,0,0
178.55,-2.76,-42.44,-397,-5594,6126,-1,0,0
178.54,-2.76,-42.44,-399,-5592,6130,-1,-1,0
178.54,-2.77,-42.44,-402,-5598,6118,-1,-1,0
178.54,-2.77,-42.44,-392,-5597,6107,-1,0,0
178.53,-2.77,-42.45,-397,-5601,6107,0,-1,0
178.53,-2.77,-42.44,-396,-5593,6119,0,0,0
178.53,-2.77,-42.44,-403,-5601,6139,-1,-1,0
178.53,-2.77,-42.44,-401,-5598,6142,-1,0,-1
178.53,-2.77,-42.44,-396,-5604,6126,-1,0,-1
178.53,-2.77,-42.44,-391,-5597,6120,0,-1,0
178.53,-2.77,-42.44,-388,-5592,6127,0,-1,0
178.53,-2.77,-42.43,-385,-5592,6118,0,0,0
178.53,-2.77,-42.43,-393,-5593,6122,0,0,0
178.52,-2.78,-42.43,-396,-5594,6121,0,0,0
178.52,-2.78,-42.43,-406,-5599,6116,0,0,-1
178.52,-2.78,-42.43,-407,-5606,6120,-1,-1,0
178.52,-2.78,-42.43,-403,-5601,6126,0,-1,-1
178.52,-2.78,-42.42,-398,-5604,6123,0,-1,-1
178.52,-2.78,-42.42,-391,-5601,6115,0,-1,0
178.52,-2.78,-42.41,-385,-5599,6110,0,-1,0
178.52,-2.78,-42.41,-381,-5589,6125,0,0,0
178.52,-2.78,-42.41,-388,-5585,6129,0,0,0
178.52,-2.78,-42.41,-390,-5590,6133,-1,0,0
178.52,-2.78,-42.41,-392,-5601,6129,-1,0,0
178.52,-2.78,-42.41,-399,-5599,6123,-1,0,0
178.51,-2.79,-42.41,-401,-5602,6113,0,-1,0
178.51,-2.79,-42.41,-399,-5605,6109,0,0,0
178.51,-2.79,-42.41,-400,-5599,6107,0,0,0
178.51,-2.79,-42.40,-407,-5600,6108,0,0,0
178.51,-2.80,-42.40,-399,-5593,6121,0,0,0
178.51,-2.79,-42.39,-393,-5589,6127,0,-1,0
178.51,-2.79,-42.38,-396,-5585,6123,0,-1,0
178.51,-2.79,-42.38,-392,-5585,6119,0,0,0
178.51,-2.80,-42.38,-389,-5579,6128,0,0,0
178.51,-2.80,-42.38,-397,-5585,6129,0,-1,0
178.50,-2.80,-42.37,-399,-5583,6130,-1,0,0
178.50,-2.81,-42.37,-400,-5584,6131,-1,0,0
178.50,-2.81,-42.37,-402,-5594,6127,-1,-1,0
178.50,-2.81,-42.37,-399,-5596,6116,0,-1,0
178.49,-2.81,-42.37,-401,-5595,6115,0,-1,0
178.49,-2.81,-42.36,-398,-5593,6120,0,-1,0
178.49,-2.81,-42.35,-405,-5589,6121,0,-1,0
178.48,-2.81,-42.35,-412,-5583,6129,0,0,0
178.48,-2.81,-42.34,-412,-5586,6133,0,0,0
178.48,-2.81,-42.34,-406,-5586,6139,-1,-1,0
178.48,-2.81,-42.34,-400,-5587,6146,-1,0,0
178.48,-2.81,-42.34,-397,-5587,6135,-1,0,0
178.47,-2.82,-42.34,-398,-5583,6131,0,0,0
178.47,-2.82,-42.34,-401,-5586,6137,0,0,0
178.47,-2.82,-42.34,-400,-5579,6126,0,-1,0
178.46,-2.82,-42.34,-399,-5579,6122,-1,0,0
178.46,-2.83,-42.34,-406,-5585,6113,-1,0,0
178.46,-2.83,-42.34,-409,-5597,6121,0,0,0
178.45,-2.83,-42.34,-394,-5589,6127,0,-1,0
178.45,-2.83,-42.33,-392,-5580,6127,0,-1,0
178.45,-2.83,-42.32,-389,-5575,6137,0,0,0
178.44,-2.84,-42.32,-393,-5578,6136,-1,0,0
178.44,-2.84,-42.32,-402,-5578,6137,0,0,0
178.44,-2.85,-42.32,-408,-5590,6145,0,-1,0
178.44,-2.85,-42.32,-413,-5589,6146,-1,-1,0
178.43,-2.85,-42.32,-419,-5599,6149,0,-1,0
178.43,-2.85,-42.32,-410,-5593,6142,0,-1,0
178.43,-2.85,-42.31,-406,-5579,6132,0,-1,0
178.42,-2.86,-42.30,-387,-5580,6144,0,0,0
178.42,-2.86,-42.29,-388,-5581,6142,0,0,0
178.42,-2.86,-42.29,-396,-5578,6141,-1,0,0
178.41,-2.87,-42.29,-405,-5570,6130,0,0,0
178.40,-2.87,-42.29,-403,-5567,6130,-1,0,0
178.40,-2.88,-42.29,-412,-5568,6136,-1,0,0
178.39,-2.89,-42.29,-413,-5578,6141,-1,0,0
178.38,-2.90,-42.29,-415,-5582,6136,-1,0,0
178.38,-2.90,-42.29,-416,-5580,6134,0,0,0
178.37,-2.91,-42.29,-417,-5578,6127,0,0,0
178.37,-2.91,-42.28,-418,-5579,6127,0,0,0
178.36,-2.92,-42.28,-423,-5573,6136,0,0,0
178.36,-2.92,-42.27,-414,-5574,6132,0,0,0
178.35,-2.92,-42.26,-414,-5573,6121,0,0,0
178.34,-2.93,-42.26,-420,-5572,6128,0,0,0
178.34,-2.93,-42.26,-411,-5572,6134,0,0,0
178.34,-2.94,-42.26,-417,-5579,6144,-1,0,0
178.33,-2.95,-42.26,-429,-5577,6134,-1,0,0
178.32,-2.96,-42.26,-433,-5593,6142,0,0,0
178.31,-2.97,-42.25,-436,-5582,6145,0,0,0
178.31,-2.97,-42.26,-441,-5585,6129,-1,-1,0
178.30,-2.97,-42.25,-438,-5582,6129,0,-1,0
178.30,-2.97,-42.25,-439,-5579,6137,0,-1,0
178.30,-2.97,-42.25,-428,-5573,6138,0,-1,0
178.30,-2.97,-42.25,-421,-5565,6137,0,-1,0
178.29,-2.96,-42.24,-424,-5555,6144,-1,-1,0
178.30,-2.96,-42.24,-427,-5560,6150,-1,-1,0
178.29,-2.96,-42.25,-431,-5562,6149,-1,-1,0
178.29,-2.96,-42.25,-433,-5573,6155,-1,0,-1
178.29,-2.95,-42.25,-435,-5575,6158,-1,-1,-1
178.29,-2.95,-42.25,-420,-5570,6148,-1,-1,-1
178.30,-2.94,-42.26,-421,-5569,6137,-1,-1,-1
178.30,-2.93,-42.26,-422,-5580,6134,-1,-1,-1
178.30,-2.93,-42.26,-422,-5581,6132,0,-1,-1
178.30,-2.93,-42.26,-422,-5575,6141,-1,-1,-1
178.31,-2.92,-42.26,-418,-5570,6142,-1,-1,-1
178.31,-2.91,-42.26,-413,-5562,6148,-1,-1,-1
178.32,-2.91,-42.27,-415,-5579,6135,-1,-1,-1
178.32,-2.90,-42.27,-412,-5582,6133,-1,-1,-1
178.33,-2.89,-42.27,-414,-5585,6131,-1,-1,-1
178.33,-2.89,-42.27,-407,-5572,6134,-1,-1,-1
178.33,-2.89,-42.27,-399,-5564,6142,-1,-1,-1
178.34,-2.88,-42.28,-400,-5561,6136,-1,-1,-1
178.34,-2.88,-42.28,-408,-5580,6138,-1,-1,-1
178.34,-2.88,-42.28,-412,-5590,6146,-1,-1,-1
178.35,-2.87,-42.28,-419,-5590,6136,-1,-1,-1
178.35,-2.87,-42.28,-421,-5588,6133,0,-1,-1
178.35,-2.86,-42.28,-413,-5587,6141,-1,-1,-1
178.36,-2.86,-42.28,-416,-5574,6133,-1,-1,-1
178.36,-2.85,-42.28,-414,-5582,6125,0,-1,-1
178.37,-2.85,-42.28,-404,-5589,6144,-1,-1,-1
178.37,-2.85,-42.29,-402,-5581,6139,-1,0,-1
178.37,-2.84,-42.29,-399,-5572,6143,-1,0,-1
178.38,-2.84,-42.29,-398,-5565,6144,-1,-1,-1
178.38,-2.83,-42.30,-401,-5574,6139,-1,0,-1
178.38,-2.83,-42.31,-406,-5576,6138,-1,-1,-1
178.38,-2.83,-42.32,-403,-5581,6131,-1,0,0
178.39,-2.83,-42.33,-405,-5590,6123,-1,0,-1
178.39,-2.83,-42.34,-401,-5592,6121,-1,0,-1
178.39,-2.83,-42.34,-409,-5585,6122,-1,0,-1
178.39,-2.83,-42.34,-403,-5582,6117,-1,0,-1
178.40,-2.83,-42.34,-408,-5585,6118,-1,-1,-1
178.40,-2.83,-42.34,-402,-5581,6130,-1,0,-1
178.40,-2.82,-42.34,-396,-5585,6127,-1,0,-1
178.41,-2.82,-42.34,-400,-5588,6137,-1,0,-1
178.42,-2.81,-42.34,-401,-5584,6142,-1,0,-1
178.42,-2.81,-42.35,-397,-5581,6139,-1,0,-1
178.42,-2.81,-42.35,-398,-5579,6140,-1,0,-1
178.42,-2.81,-42.36,-402,-5576,6138,-1,0,-1
178.42,-2.82,-42.37,-404,-5590,6129,-1,0,-1
178.42,-2.82,-42.37,-410,-5591,6120,-1,0,-1
178.42,-2.82,-42.37,-416,-5589,6122,0,-1,-1
178.43,-2.82,-42.37,-404,-5585,6124,-1,-1,-1
178.43,-2.82,-42.37,-399,-5583,6121,-1,0,-1
178.43,-2.82,-42.38,-406,-5589,6123,-1,0,-1
178.43,-2.82,-42.39,-411,-5594,6128,-1,0,-1
178.43,-2.81,-42.39,-411,-5588,6133,-1,0,-1
178.44,-2.81,-42.40,-413,-5585,6124,-1,-1,-1
178.44,-2.81,-42.40,-401,-5587,6117,-1,-1,-1
178.45,-2.80,-42.40,-394,-5589,6122,0,0,-1
178.45,-2.80,-42.40,-392,-5597,6138,-1,-1,-1
178.46,-2.79,-42.40,-385,-5594,6138,-1,-1,-1
178.46,-2.79,-42.40,-393,-5589,6135,-1,0,-1
178.46,-2.79,-42.41,-407,-5586,6132,-1,-1,-1
178.46,-2.79,-42.41,-402,-5579,6128,-1,0,-1
178.46,-2.80,-42.41,-403,-5587,6122,-1,0,-1
178.46,-2.80,-42.41,-399,-5596,6121,-1,0,-1
178.47,-2.79,-42.42,-400,-5596,6116,-1,0,-1
178.47,-2.79,-42.42,-394,-5600,6128,0,0,-1
178.47,-2.79,-42.41,-399,-5599,6128,0,0,-1
178.47,-2.79,-42.41,-400,-5602,6119,0,0,-1
178.48,-2.78,-42.41,-399,-5596,6121,-1,-1,-1
178.48,-2.78,-42.41,-399,-5596,6125,0,-1,-1
178.49,-2.78,-42.41,-395,-5590,6125,-1,0,-1
178.49,-2.78,-42.40,-398,-5585,6135,-1,0,-1
178.50,-2.78,-42.40,-394,-5582,6129,0,0,-1
178.50,-2.78,-42.40,-395,-5583,6137,-1,0,-1
178.50,-2.78,-42.40,-398,-5584,6130,-1,0,-1
178.50,-2.77,-42.40,-401,-5589,6130,-1,0,-1
178.50,-2.77,-42.40,-404,-5597,6116,0,-1,-1
178.51,-2.77,-42.40,-402,-5595,6120,0,-1,-1
178.51,-2.77,-42.40,-404,-5593,6131,0,-1,-1
178.51,-2.77,-42.40,-404,-5587,6134,0,-1,-1
178.52,-2.76,-42.40,-390,-5586,6127,0,-1,-1
178.52,-2.76,-42.39,-390,-5586,6131,0,-1,-1
178.53,-2.75,-42.39,-381,-5585,6136,-1,0,-1
178.54,-2.75,-42.39,-384,-5589,6131,-1,0,-1
178.54,-2.75,-42.39,-393,-5587,6131,0,0,-1
178.53,-2.75,-42.39,-400,-5587,6128,0,0,-1
178.54,-2.74,-42.38,-394,-5586,6124,0,0,-1
178.54,-2.74,-42.38,-394,-5590,6131,0,0,-1
178.55,-2.75,-42.38,-397,-5598,6131,0,0,-1
178.55,-2.74,-42.38,-393,-5589,6135,-1,0,-1
178.55,-2.75,-42.38,-392,-5589,6125,-1,0,-1
178.55,-2.75,-42.38,-400,-5594,6115,-1,0,-1
178.55,-2.74,-42.38,-393,-5595,6112,0,0,-1
178.55,-2.74,-42.38,-398,-5597,6123,-1,-1,0
178.55,-2.75,-42.39,-388,-5599,6132,-1,-1,0
178.54,-2.76,-42.40,-393,-5603,6136,-1,0,0
178.53,-2.76,-42.40,-397,-5598,6118,-1,0,0
178.52,-2.77,-42.41,-393,-5585,6114,-1,0,0
178.52,-2.78,-42.42,-397,-5584,6115,-1,0,0
178.51,-2.79,-42.43,-400,-5590,6118,-1,0,0
178.51,-2.79,-42.44,-404,-5595,6120,-1,-1,0
178.51,-2.79,-42.44,-397,-5593,6124,0,-1,0
178.51,-2.78,-42.43,-393,-5597,6130,-1,-1,0
178.50,-2.79,-42.43,-390,-5597,6128,0,0,0
178.50,-2.79,-42.42,-398,-5584,6126,-1,-1,0
178.50,-2.79,-42.42,-398,-5583,6118,-1,0,0
178.50,-2.79,-42.43,-395,-5581,6122,-1,0,0
178.49,-2.80,-42.43,-393,-5586,6123,-1,0,0
178.49,-2.80,-42.43,-399,-5593,6117,-1,-1,0
178.49,-2.80,-42.43,-402,-5604,6112,0,0,0
178.49,-2.80,-42.43,-400,-5602,6112,0,0,-1
178.49,-2.80,-42.43,-406,-5600,6119,0,-1,-1
178.49,-2.80,-42.42,-410,-5600,6117,0,0,0
178.49,-2.80,-42.42,-403,-5601,6117,0,0,0
178.49,-2.80,-42.41,-402,-5594,6119,0,0,0
178.48,-2.81,-42.41,-400,-5594,6128,0,0,-1
178.49,-2.81,-42.41,-398,-5588,6118,0,0,0
178.49,-2.81,-42.41,-391,-5576,6124,-1,0,0
178.48,-2.82,-42.41,-393,-5581,6128,-1,0,0
178.48,-2.82,-42.40,-395,-5580,6124,0,0,0
178.48,-2.82,-42.40,-408,-5594,6129,0,-1,0
178.48,-2.82,-42.40,-399,-5595,6126,0,0,0
178.48,-2.82,-42.39,-397,-5594,6121,0,0,0
178.48,-2.82,-42.39,-402,-5597,6113,0,-1,0
178.47,-2.83,-42.38,-409,-5600,6125,0,-1,0
178.47,-2.83,-42.37,-409,-5596,6127,0,-1,0
178.47,-2.82,-42.35,-397,-5579,6132,0,-1,0
178.47,-2.82,-42.35,-392,-5577,6139,0,0,0
178.47,-2.82,-42.34,-399,-5569,6141,0,0,0
178.47,-2.83,-42.34,-398,-5578,6128,-1,0,0
178.46,-2.83,-42.34,-403,-5580,6131,-1,-1,0
178.46,-2.83,-42.34,-406,-5587,6129,-1,-1,0
178.45,-2.83,-42.34,-406,-5584,6129,0,-1,0
178.45,-2.83,-42.34,-398,-5586,6117,0,-1,0
178.45,-2.84,-42.34,-395,-5584,6127,0,-1,0
178.45,-2.84,-42.34,-395,-5575,6122,0,0,0
178.44,-2.84,-42.34,-402,-5577,6124,-1,0,0
178.44,-2.84,-42.34,-404,-5591,6130,-1,0,0
178.44,-2.84,-42.34,-402,-5586,6127,0,-1,0
178.44,-2.84,-42.32,-393,-5579,6132,0,-1,0
178.43,-2.84,-42.32,-394,-5569,6126,-1,0,0
178.43,-2.85,-42.32,-399,-5580,6131,0,0,0
178.42,-2.86,-42.32,-406,-5581,6122,0,0,0
178.42,-2.86,-42.32,-416,-5590,6129,0,0,0
178.42,-2.86,-42.31,-420,-5583,6138,0,0,0
178.41,-2.87,-42.31,-423,-5587,6132,0,-1,0
178.41,-2.87,-42.31,-428,-5593,6122,0,-1,0
178.41,-2.87,-42.31,-413,-5589,6120,0,-1,0
178.41,-2.87,-42.30,-406,-5583,6129,0,-1,0
178.40,-2.87,-42.29,-405,-5575,6132,0,0,0
178.40,-2.87,-42.29,-410,-5573,6139,-1,0,0
178.39,-2.88,-42.28,-414,-5576,6138,-1,0,0
178.38,-2.89,-42.28,-412,-5576,6145,-1,0,0
178.38,-2.90,-42.28,-414,-5572,6144,-1,0,0
178.37,-2.90,-42.29,-423,-5578,6142,-1,0,0
178.37,-2.90,-42.29,-415,-5577,6136,0,0,0
178.36,-2.91,-42.29,-417,-5575,6137,-1,0,0
178.36,-2.91,-42.29,-418,-5583,6139,0,0,0
178.36,-2.91,-42.28,-415,-5584,6132,0,0,0
178.35,-2.92,-42.28,-418,-5580,6134,0,0,0
178.35,-2.92,-42.27,-422,-5584,6143,0,-1,0
178.34,-2.92,-42.27,-419,-5580,6147,0,-1,0
178.34,-2.92,-42.26,-414,-5571,6142,0,0,0
178.34,-2.92,-42.26,-407,-5571,6133,-1,-1,0
178.34,-2.92,-42.26,-404,-5566,6133,-1,0,0
178.33,-2.93,-42.26,-413,-5585,6136,0,0,0
178.32,-2.94,-42.27,-423,-5577,6134,-1,0,0
178.32,-2.94,-42.27,-426,-5577,6120,-1,0,0
178.31,-2.95,-42.27,-436,-5574,6122,0,0,0
178.31,-2.95,-42.27,-438,-5585,6123,0,0,0
178.30,-2.95,-42.26,-438,-5583,6129,0,-1,0
178.30,-2.95,-42.26,-431,-5578,6133,0,-1,0
178.30,-2.96,-42.25,-432,-5574,6129,0,-1,0
178.30,-2.96,-42.25,-435,-5566,6132,-1,-1,0
178.29,-2.96,-42.25,-423,-5572,6133,0,-1,0
178.29,-2.95,-42.25,-427,-5573,6140,-1,-1,0
178.29,-2.95,-42.26,-430,-5564,6132,-1,-1,0
178.29,-2.95,-42.26,-429,-5557,6133,-1,-1,0
178.29,-2.95,-42.27,-428,-5562,6143,-1,-1,-1
178.29,-2.94,-42.28,-425,-5576,6138,-1,-1,-1
178.30,-2.93,-42.28,-422,-5584,6136,-1,-1,-1
178.30,-2.93,-42.28,-422,-5576,6133,-1,-1,-1
178.30,-2.92,-42.28,-413,-5570,6138,-1,-1,-1
178.32,-2.90,-42.29,-402,-5573,6135,-1,-1,-1
178.32,-2.90,-42.30,-413,-5572,6132,-1,-1,-1
178.32,-2.90,-42.30,-422,-5581,6122,-1,0,-1
178.32,-2.90,-42.31,-426,-5590,6130,-1,-1,-1
178.32,-2.89,-42.31,-431,-5586,6146,0,-1,-1
178.33,-2.88,-42.31,-426,-5590,6127,-1,-1,-1
178.34,-2.87,-42.31,-413,-5581,6124,-1,-1,-1
178.35,-2.85,-42.31,-401,-5573,6123,0,-1,-1
178.36,-2.84,-42.30,-387,-5570,6127,0,-1,-1
178.36,-2.83,-42.30,-392,-5568,6144,-1,0,-1
178.36,-2.83,-42.30,-393,-5571,6143,-1,0,-1
178.37,-2.83,-42.31,-401,-5571,6139,-1,0,-1
178.37,-2.83,-42.31,-414,-5581,6138,-1,-1,-1
178.37,-2.83,-42.32,-421,-5588,6136,-1,0,-1
178.38,-2.83,-42.33,-422,-5590,6125,-1,-1,-1
178.38,-2.83,-42.34,-415,-5596,6121,-1,0,-1
178.38,-2.83,-42.34,-419,-5594,6122,-1,0,-1
178.39,-2.82,-42.34,-417,-5585,6131,-1,-1,-1
178.39,-2.82,-42.34,-416,-5584,6140,-1,-1,-1
178.40,-2.81,-42.34,-410,-5579,6147,-1,-1,-1
178.40,-2.80,-42.34,-400,-5569,6143,-1,-1,-1
178.41,-2.80,-42.34,-391,-5568,6146,-1,-1,-1
178.41,-2.79,-42.35,-392,-5568,6138,-1,0,-1
178.41,-2.79,-42.36,-390,-5575,6148,-1,0,-1
178.42,-2.79,-42.36,-399,-5595,6145,-1,0,-1
178.42,-2.79,-42.37,-399,-5602,6135,-1,-1,-1
178.43,-2.79,-42.38,-412,-5593,6120,-1,-1,-1
178.43,-2.78,-42.39,-411,-5593,6114,-1,-1,-1
178.43,-2.78,-42.39,-406,-5590,6118,0,0,-1
178.44,-2.78,-42.39,-397,-5579,6125,0,0,-1
178.44,-2.78,-42.38,-396,-5593,6128,0,0,-1
178.45,-2.77,-42.38,-397,-5585,6131,-1,-1,-1
178.45,-2.77,-42.39,-406,-5585,6125,-1,0,-1
178.45,-2.77,-42.40,-403,-5586,6124,-1,0,-1
178.45,-2.77,-42.40,-402,-5596,6123,-1,0,-1
178.45,-2.77,-42.40,-399,-5596,6114,-1,-1,-1
178.46,-2.76,-42.40,-390,-5595,6120,-1,0,-1
178.46,-2.76,-42.41,-393,-5595,6120,-1,0,-1
178.46,-2.76,-42.41,-396,-5597,6116,-1,0,-1
178.46,-2.77,-42.42,-406,-5604,6116,-1,0,-1
178.46,-2.77,-42.42,-414,-5596,6128,-1,0,-1
178.46,-2.77,-42.43,-419,-5599,6118,-1,0,-1
178.46,-2.77,-42.43,-408,-5600,6119,-1,-1,-1
178.47,-2.76,-42.43,-395,-5597,6119,0,0,-1
178.47,-2.76,-42.43,-394,-5583,6126,-1,-1,-1
178.48,-2.76,-42.43,-389,-5580,6129,-1,0,-1
178.48,-2.75,-42.43,-393,-5585,6130,-1,0,-1
178.48,-2.75,-42.43,-398,-5581,6133,-1,0,0
178.48,-2.76,-42.43,-399,-5585,6129,-1,0,0
178.48,-2.76,-42.44,-400,-5593,6123,-1,0,-1
178.48,-2.77,-42.45,-404,-5593,6122,-1,0,0
178.48,-2.77,-42.45,-409,-5593,6114,-1,0,-1
178.48,-2.77,-42.45,-410,-5600,6116,-1,0,-1
178.48,-2.77,-42.45,-405,-5604,6117,0,0,-1
178.48,-2.77,-42.45,-405,-5601,6118,0,0,-1
178.48,-2.77,-42.45,-401,-5604,6121,0,0,-1
178.48,-2.77,-42.45,-400,-5601,6128,-1,0,-1
178.49,-2.76,-42.44,-402,-5593,6130,-1,0,-1
178.49,-2.76,-42.44,-397,-5588,6136,-1,-1,-1
178.49,-2.76,-42.44,-400,-5584,6127,-1,-1,-1
178.49,-2.76,-42.45,-407,-5588,6122,-1,0,-1
178.49,-2.76,-42.45,-398,-5585,6114,-1,0,0
178.49,-2.76,-42.46,-398,-5589,6121,-1,0,-1
178.49,-2.76,-42.46,-403,-5594,6119,-1,-1,-1
178.50,-2.76,-42.46,-407,-5602,6107,-1,0,-1
178.50,-2.76,-42.46,-409,-5599,6112,-1,-1,-1
178.50,-2.76,-42.46,-401,-5603,6110,0,0,-1
178.50,-2.76,-42.46,-403,-5597,6111,0,0,-1
178.50,-2.76,-42.46,-397,-5600,6121,-1,-1,-1
178.50,-2.75,-42.46,-390,-5598,6134,-1,-1,-1
178.50,-2.75,-42.46,-395,-5597,6129,-1,0,-1
178.50,-2.75,-42.46,-398,-5598,6120,-1,-1,-1
178.50,-2.75,-42.46,-399,-5591,6120,-1,-1,0
178.50,-2.75,-42.46,-401,-5597,6126,-1,0,-1
178.51,-2.75,-42.46,-400,-5598,6114,-1,0,-1
178.51,-2.75,-42.47,-399,-5607,6117,0,0,-1
178.52,-2.75,-42.46,-401,-5604,6126,0,-1,-1
178.52,-2.75,-42.46,-402,-5590,6124,-1,-1,0
178.52,-2.75,-42.46,-405,-5596,6124,-1,0,-1
178.52,-2.75,-42.46,-408,-5600,6129,-1,0,-1
178.52,-2.75,-42.46,-406,-5602,6129,-1,0,-1
178.51,-2.75,-42.46,-406,-5599,6125,0,0,-1
178.52,-2.75,-42.46,-409,-5601,6123,-1,0,-1
178.52,-2.75,-42.46,-403,-5600,6121,0,-1,-1
178.53,-2.74,-42.46,-403,-5602,6111,0,-1,-1
178.53,-2.73,-42.46,-392,-5594,6121,0,-1,-1
178.54,-2.73,-42.46,-379,-5598,6121,-1,-1,-1
178.54,-2.73,-42.46,-383,-5599,6121,-1,0,-1
178.54,-2.73,-42.46,-388,-5589,6119,-1,0,-1
178.55,-2.73,-42.46,-392,-5586,6113,-1,0,-1
178.55,-2.73,-42.47,-399,-5594,6105,-1,0,-1
178.55,-2.73,-42.47,-400,-5599,6108,0,0,-1
178.55,-2.73,-42.46,-398,-5603,6113,0,-1,-1
178.55,-2.73,-42.46,-402,-5608,6114,0,0,-1
178.56,-2.72,-42.46,-400,-5603,6116,0,0,-1
178.56,-2.72,-42.46,-403,-5602,6118,0,-1,-1
178.56,-2.72,-42.46,-397,-5601,6126,0,-1,-1
178.57,-2.72,-42.46,-396,-5597,6128,0,0,-1
178.57,-2.72,-42.46,-393,-5598,6130,-1,-1,-1
178.58,-2.71,-42.46,-392,-5602,6130,-1,-1,-1
178.58,-2.71,-42.46,-392,-5591,6119,-1,0,-1
178.58,-2.71,-42.46,-390,-5589,6125,-1,0,-1
178.58,-2.71,-42.46,-390,-5593,6114,0,0,-1
178.59,-2.71,-42.47,-392,-5599,6121,-1,-1,-1
178.59,-2.71,-42.47,-392,-5602,6116,-1,0,-1
178.59,-2.71,-42.46,-402,-5600,6114,0,0,-1
178.59,-2.71,-42.46,-400,-5597,6115,0,-1,-1
178.59,-2.70,-42.45,-398,-5595,6119,0,-1,-1
178.60,-2.70,-42.44,-389,-5594,6129,0,0,-1
178.60,-2.70,-42.44,-387,-5592,6131,0,0,-1
178.60,-2.70,-42.44,-387,-5587,6130,-1,0,-1
178.61,-2.70,-42.44,-387,-5579,6124,-1,0,-1
178.61,-2.70,-42.44,-391,-5583,6119,-1,0,-1
178.61,-2.70,-42.44,-390,-5582,6130,-1,-1,-1
178.61,-2.70,-42.45,-395,-5596,6118,-1,0,-1
178.61,-2.70,-42.46,-398,-5599,6115,-1,-1,0
178.61,-2.70,-42.46,-389,-5592,6116,-1,-1,0
178.61,-2.70,-42.46,-387,-5592,6122,-1,0,0
178.61,-2.69,-42.47,-386,-5594,6122,-1,-1,0
178.60,-2.70,-42.47,-386,-5596,6114,-1,0,0
178.59,-2.70,-42.47,-391,-5592,6118,-1,0,0
178.59,-2.71,-42.48,-392,-5596,6113,-1,0,0
178.59,-2.72,-42.49,-399,-5605,6116,-1,0,0
178.59,-2.72,-42.50,-401,-5606,6116,-1,0,0
178.59,-2.72,-42.49,-400,-5599,6114,0,-1,0
178.58,-2.72,-42.49,-396,-5588,6112,-1,-1,0
178.58,-2.73,-42.50,-394,-5593,6112,-1,0,0
178.57,-2.74,-42.50,-403,-5603,6105,-1,0,0
178.57,-2.74,-42.50,-408,-5600,6111,0,0,0
178.57,-2.74,-42.50,-407,-5593,6104,-1,-1,-1
178.57,-2.74,-42.50,-399,-5596,6103,-1,0,-1
178.57,-2.74,-42.50,-400,-5592,6110,0,0,-1
178.57,-2.74,-42.49,-400,-5599,6122,0,0,-1
178.57,-2.74,-42.48,-402,-5603,6132,0,-1,-1
178.57,-2.74,-42.48,-405,-5608,6127,0,-1,0
178.57,-2.74,-42.48,-401,-5596,6117,0,-1,0
178.57,-2.74,-42.47,-395,-5595,6121,-1,-1,0
178.57,-2.74,-42.48,-397,-5602,6123,-1,0,0
178.57,-2.74,-42.48,-400,-5604,6117,0,0,0
178.57,-2.74,-42.48,-391,-5599,6120,-1,-1,0
178.57,-2.74,-42.48,-392,-5602,6116,0,0,-1
178.56,-2.75,-42.48,-402,-5606,6118,0,-1,0
178.57,-2.74,-42.47,-404,-5606,6113,0,0,-1
178.57,-2.74,-42.47,-401,-5606,6114,0,-1,0
178.57,-2.74,-42.47,-400,-5604,6119,0,-1,-1
178.57,-2.74,-42.47,-401,-5594,6127,0,0,-1
178.57,-2.74,-42.46,-396,-5593,6132,0,0,-1
178.57,-2.74,-42.45,-389,-5588,6127,0,0,0
178.57,-2.74,-42.45,-390,-5580,6123,-1,0,0
178.57,-2.74,-42.46,-395,-5588,6118,-1,0,0
178.57,-2.74,-42.46,-391,-5589,6113,-1,0,0
178.57,-2.75,-42.47,-402,-5595,6113,-1,0,0
178.56,-2.75,-42.47,-405,-5606,6112,0,0,0
178.56,-2.76,-42.47,-412,-5609,6105,0,-1,-1
178.56,-2.76,-42.46,-403,-5605,6111,0,-1,0
178.56,-2.75,-42.46,-399,-5600,6107,0,-1,0
178.56,-2.75,-42.44,-395,-5595,6114,0,0,-1
178.56,-2.75,-42.44,-401,-5605,6117,0,-1,0
178.56,-2.75,-42.44,-401,-5602,6125,0,0,0
178.56,-2.75,-42.44,-401,-5597,6121,-1,0,0
178.56,-2.76,-42.44,-400,-5590,6130,-1,0,0
178.55,-2.76,-42.44,-405,-5596,6132,-1,0,0
178.55,-2.76,-42.44,-407,-5595,6128,0,0,0
178.55,-2.76,-42.44,-410,-5598,6121,0,-1,0
178.55,-2.76,-42.44,-400,-5595,6122,0,-1,0
178.55,-2.76,-42.43,-395,-5593,6135,0,-1,0
178.55,-2.77,-42.43,-402,-5595,6126,0,0,0
178.55,-2.77,-42.42,-409,-5591,6129,-1,-1,0
178.54,-2.77,-42.42,-408,-5591,6123,-1,0,0
178.54,-2.78,-42.43,-410,-5593,6129,-1,0,0
178.54,-2.78,-42.43,-410,-5603,6122,0,-1,-1
178.54,-2.78,-42.42,-405,-5600,6112,0,-1,0
178.54,-2.78,-42.41,-401,-5588,6112,0,-1,0
178.53,-2.78,-42.41,-401,-5582,6119,0,-1,0
178.53,-2.78,-42.41,-398,-5589,6117,0,0,0
178.53,-2.79,-42.41,-407,-5592,6124,-1,0,0
178.52,-2.79,-42.41,-411,-5594,6125,0,0,0
178.52,-2.79,-42.41,-412,-5592,6128,-1,0,0
178.52,-2.79,-42.41,-410,-5596,6122,0,0,-1
178.52,-2.79,-42.40,-409,-5591,6119,0,-1,-1
178.52,-2.79,-42.40,-411,-5601,6130,0,-1,0
178.52,-2.79,-42.39,-402,-5597,6133,0,-1,0
178.52,-2.79,-42.38,-402,-5590,6121,0,0,0
178.52,-2.79,-42.38,-397,-5583,6123,0,-1,0
178.52,-2.79,-42.38,-397,-5582,6130,-1,0,0
178.52,-2.80,-42.38,-409,-5586,6124,-1,-1,0
178.51,-2.80,-42.38,-409,-5590,6134,-1,0,0
178.51,-2.80,-42.38,-407,-5593,6124,-1,0,0
178.51,-2.80,-42.39,-403,-5593,6115,-1,0,0
178.51,-2.81,-42.39,-414,-5594,6112,-1,0,0
178.50,-2.81,-42.39,-420,-5591,6123,-1,0,0
178.50,-2.82,-42.40,-424,-5593,6125,-1,0,0
178.50,-2.82,-42.40,-421,-5589,6127,-1,0,-1
178.50,-2.82,-42.40,-421,-5593,6129,-1,-1,0
178.50,-2.82,-42.40,-413,-5590,6129,-1,0,-1
178.50,-2.81,-42.41,-411,-5583,6131,-1,-1,-1
178.50,-2.81,-42.41,-410,-5588,6127,-1,-1,0
178.50,-2.81,-42.41,-410,-5589,6108,-1,0,-1
178.50,-2.81,-42.41,-416,-5590,6114,-1,0,-1
178.50,-2.81,-42.42,-418,-5588,6119,-1,-1,-1
178.50,-2.81,-42.43,-413,-5588,6113,-1,-1,-1
178.50,-2.80,-42.43,-414,-5591,6104,-1,-1,-1
178.50,-2.80,-42.44,-412,-5598,6114,-1,-1,0
178.50,-2.80,-42.44,-400,-5599,6126,-1,0,-1
178.51,-2.80,-42.44,-402,-5592,6123,-1,0,-1
178.51,-2.80,-42.44,-404,-5605,6132,0,-1,-1
178.51,-2.80,-42.44,-414,-5601,6135,-1,-1,-1
178.51,-2.79,-42.44,-411,-5599,6130,-1,-1,-1
178.51,-2.79,-42.44,-402,-5595,6127,-1,-1,-1
178.51,-2.79,-42.44,-405,-5596,6114,-1,-1,-1
178.51,-2.79,-42.44,-405,-5596,6117,0,0,0
178.51,-2.79,-42.44,-400,-5593,6124,-1,-1,0
178.51,-2.79,-42.44,-405,-5594,6128,-1,0,-1
178.51,-2.79,-42.45,-416,-5598,6133,-1,0,-1
178.52,-2.78,-42.45,-413,-5600,6117,0,0,-1
178.52,-2.78,-42.45,-404,-5594,6120,-1,-1,-1
178.52,-2.78,-42.45,-391,-5592,6125,-1,-1,0
178.52,-2.78,-42.45,-397,-5598,6123,-1,0,-1
178.53,-2.77,-42.46,-403,-5606,6120,-1,0,-1
178.53,-2.77,-42.46,-412,-5601,6121,-1,0,-1
178.53,-2.78,-42.47,-416,-5602,6119,-1,0,-1
178.53,-2.78,-42.47,-412,-5602,6113,-1,-1,-1
178.53,-2.77,-42.48,-408,-5611,6109,-1,-1,-1
178.54,-2.76,-42.49,-393,-5608,6109,-1,-1,-1
178.55,-2.75,-42.48,-388,-5600,6127,-1,-1,-1
178.55,-2.75,-42.49,-398,-5596,6123,-1,0,0
178.55,-2.75,-42.49,-399,-5597,6123,-1,0,0
178.55,-2.76,-42.50,-400,-5598,6126,-1,0,0
178.55,-2.76,-42.50,-402,-5600,6116,-1,0,-1
178.55,-2.77,-42.50,-410,-5597,6124,-1,0,0
178.55,-2.77,-42.51,-412,-5603,6120,-1,-1,-1
178.55,-2.76,-42.52,-410,-5610,6109,-1,0,-1
178.55,-2.76,-42.52,-404,-5614,6104,-1,0,-1
178.55,-2.76,-42.52,-402,-5610,6102,0,0,-1
178.56,-2.76,-42.52,-402,-5606,6112,-1,-1,-1
178.56,-2.76,-42.52,-409,-5600,6111,-1,-1,-1
178.56,-2.76,-42.52,-406,-5594,6115,-1,-1,-1
178.56,-2.76,-42.52,-400,-5601,6114,-1,-1,-1
178.57,-2.75,-42.53,-397,-5594,6116,-1,0,-1
178.57,-2.75,-42.53,-396,-5591,6112,-1,0,-1
178.57,-2.75,-42.53,-396,-5598,6116,-1,0,-1
178.57,-2.75,-42.54,-400,-5602,6111,-1,0,-1
178.57,-2.75,-42.54,-400,-5600,6114,-1,-1,-1
178.57,-2.75,-42.54,-399,-5603,6114,-1,0,-1
178.57,-2.76,-42.54,-398,-5592,6116,0,0,-1
178.57,-2.76,-42.54,-402,-5605,6109,-1,-1,-1
178.58,-2.75,-42.55,-403,-5607,6114,-1,-1,-1
178.58,-2.75,-42.55,-406,-5611,6108,-1,0,-1
178.58,-2.75,-42.55,-404,-5611,6106,-1,-1,-1
178.58,-2.75,-42.55,-397,-5608,6097,0,0,-1
178.59,-2.75,-42.55,-395,-5602,6105,0,0,-1
178.59,-2.75,-42.55,-391,-5598,6112,-1,0,0
178.59,-2.75,-42.55,-396,-5601,6110,-1,0,0
178.59,-2.75,-42.56,-407,-5605,6109,-1,0,-1
178.59,-2.75,-42.56,-408,-5616,6116,-1,0,-1
178.59,-2.75,-42.56,-407,-5610,6117,0,-1,-1
178.59,-2.75,-42.56,-395,-5607,6112,-1,-1,-1
178.59,-2.75,-42.56,-391,-5611,6109,-1,0,0
178.59,-2.74,-42.56,-394,-5615,6102,-1,0,0
178.59,-2.74,-42.56,-404,-5617,6118,-1,0,0
178.59,-2.74,-42.56,-401,-5611,6119,-1,0,-1
178.59,-2.74,-42.56,-408,-5607,6124,-1,-1,-1
178.60,-2.74,-42.56,-403,-5611,6120,-1,-1,-1
178.60,-2.74,-42.56,-393,-5611,6112,-1,-1,-1
178.60,-2.73,-42.56,-390,-5606,6103,-1,-1,-1
178.60,-2.73,-42.56,-392,-5599,6103,-1,0,-1
178.61,-2.73,-42.56,-392,-5600,6109,-1,0,0
178.61,-2.73,-42.56,-391,-5599,6113,-1,0,-1
178.61,-2.73,-42.57,-394,-5602,6112,-1,0,0
178.61,-2.73,-42.57,-394,-5609,6106,-1,0,-1
178.61,-2.73,-42.57,-391,-5611,6101,-1,0,-1
178.62,-2.73,-42.57,-395,-5614,6095,0,-1,-1
178.62,-2.73,-42.57,-390,-5612,6106,0,0,-1
178.62,-2.73,-42.57,-396,-5612,6103,0,0,-1
178.62,-2.73,-42.57,-405,-5609,6120,0,0,-1
178.62,-2.73,-42.56,-405,-5606,6122,0,0,-1
178.62,-2.73,-42.56,-400,-5605,6119,0,-1,-1
178.63,-2.72,-42.56,-392,-5593,6118,-1,0,-1
178.63,-2.72,-42.56,-392,-5594,6126,-1,-1,-1
178.63,-2.72,-42.56,-390,-5596,6126,-1,0,-1
178.63,-2.72,-42.56,-394,-5599,6114,-1,-1,-1
178.63,-2.72,-42.56,-400,-5611,6113,-1,-1,-1
178.63,-2.72,-42.57,-404,-5608,6109,-1,0,-1
178.63,-2.72,-42.57,-407,-5612,6108,0,0,-1
178.63,-2.72,-42.56,-403,-5614,6114,0,-1,-1
178.63,-2.72,-42.56,-403,-5618,6110,0,-1,-1
178.64,-2.71,-42.56,-401,-5610,6106,0,-1,-1
178.64,-2.71,-42.56,-400,-5608,6115,0,0,-1
178.64,-2.71,-42.55,-401,-5597,6113,0,0,-1
178.64,-2.71,-42.55,-395,-5599,6112,0,0,-1
178.65,-2.71,-42.55,-391,-5599,6124,-1,-1,-1
178.64,-2.71,-42.56,-387,-5600,6109,-1,0,-1
178.64,-2.71,-42.56,-395,-5608,6111,0,0,0
178.64,-2.71,-42.56,-391,-5608,6116,0,0,0
178.65,-2.71,-42.55,-385,-5601,6118,-1,0,-1
178.64,-2.72,-42.55,-390,-5600,6120,-1,0,-1
178.64,-2.72,-42.56,-396,-5613,6115,-1,0,-1
178.65,-2.72,-42.56,-396,-5609,6108,0,-1,-1
178.65,-2.72,-42.56,-395,-5602,6104,0,-1,0
178.65,-2.71,-42.56,-391,-5604,6099,-1,-1,0
178.65,-2.72,-42.56,-394,-5610,6106,0,0,-1
178.65,-2.72,-42.56,-396,-5605,6114,-1,0,0
178.65,-2.72,-42.56,-400,-5609,6128,-1,0,-1
178.65,-2.72,-42.56,-404,-5608,6115,-1,-1,-1
178.66,-2.71,-42.56,-401,-5606,6107,-1,-1,-1
178.66,-2.71,-42.56,-400,-5603,6109,0,-1,-1
178.66,-2.71,-42.55,-395,-5606,6107,0,-1,-1
178.66,-2.71,-42.55,-392,-5604,6115,0,-1,-1
178.66,-2.70,-42.55,-388,-5605,6116,-1,-1,0
178.66,-2.70,-42.55,-385,-5597,6111,-1,0,0
178.66,-2.71,-42.55,-389,-5595,6116,-1,0,-1
178.66,-2.71,-42.55,-384,-5599,6120,-1,0,0
178.66,-2.71,-42.55,-392,-5607,6118,-1,0,0
178.66,-2.71,-42.56,-390,-5608,6112,-1,-1,-1
178.66,-2.71,-42.56,-388,-5611,6100,-1,-1,0
178.66,-2.71,-42.56,-386,-5609,6098,0,-1,0
178.66,-2.70,-42.56,-393,-5610,6101,0,0,0
178.66,-2.71,-42.56,-396,-5610,6110,0,-1,0
178.66,-2.71,-42.56,-397,-5607,6111,-1,0,0
178.65,-2.71,-42.56,-392,-5603,6123,-1,-1,0
178.65,-2.71,-42.56,-392,-5600,6119,-1,0,0
178.64,-2.72,-42.56,-389,-5601,6113,-1,-1,0
178.64,-2.71,-42.57,-390,-5598,6105,-1,0,-1
178.64,-2.71,-42.58,-393,-5607,6093,-1,-1,0
178.64,-2.71,-42.59,-395,-5613,6099,-1,-1,0
178.64,-2.71,-42.59,-400,-5620,6106,0,-1,0
178.64,-2.71,-42.58,-400,-5610,6112,0,-1,0
178.64,-2.71,-42.58,-397,-5606,6108,0,-1,-1
178.64,-2.71,-42.58,-400,-5605,6106,-1,-1,-1
178.64,-2.71,-42.58,-395,-5602,6099,-1,-1,0
178.64,-2.71,-42.58,-388,-5601,6105,-1,-1,0
178.64,-2.71,-42.58,-389,-5600,6114,0,0,0
178.64,-2.71,-42.57,-397,-5606,6127,0,0,0
178.64,-2.71,-42.57,-398,-5604,6124,0,0,0
178.64,-2.71,-42.57,-397,-5610,6110,-1,0,-1
178.64,-2.71,-42.57,-399,-5616,6109,-1,-1,0
178.64,-2.71,-42.57,-394,-5612,6101,0,0,0
178.64,-2.71,-42.57,-396,-5617,6107,0,0,0
178.64,-2.71,-42.56,-396,-5608,6110,0,0,0
178.64,-2.72,-42.56,-398,-5611,6121,0,0,0
178.63,-2.72,-42.56,-396,-5608,6125,-1,0,-1
178.63,-2.72,-42.56,-402,-5614,6112,-1,0,-1
178.64,-2.72,-42.56,-395,-5619,6106,0,-1,-1
178.64,-2.71,-42.55,-387,-5614,6104,0,-1,-1
178.63,-2.71,-42.54,-387,-5607,6106,0,-1,0
178.63,-2.71,-42.54,-382,-5603,6107,-1,0,-1
178.63,-2.71,-42.54,-387,-5603,6111,0,0,0
178.63,-2.72,-42.54,-398,-5603,6109,0,0,0
178.63,-2.72,-42.55,-400,-5609,6105,-1,-1,0
178.63,-2.72,-42.54,-405,-5606,6111,-1,-1,-1
178.63,-2.72,-42.55,-400,-5610,6104,0,-1,-1
178.63,-2.71,-42.55,-397,-5613,6102,0,-1,-1
178.63,-2.71,-42.54,-385,-5607,6108,0,-1,0
178.63,-2.71,-42.54,-379,-5599,6118,0,0,0
178.63,-2.71,-42.54,-386,-5598,6111,0,0,0
178.63,-2.71,-42.54,-388,-5598,6112,-1,0,0
178.63,-2.71,-42.54,-384,-5603,6108,-1,0,0
178.63,-2.72,-42.54,-395,-5608,6107,-1,0,0
178.63,-2.72,-42.54,-398,-5615,6105,0,0,0
178.63,-2.72,-42.54,-393,-5617,6101,0,0,-1
178.63,-2.72,-42.54,-401,-5617,6097,0,0,-1
178.63,-2.72,-42.54,-399,-5613,6101,0,0,0
178.63,-2.72,-42.54,-402,-5606,6106,0,0,0
178.63,-2.72,-42.53,-394,-5604,6111,0,0,-1
178.63,-2.72,-42.52,-392,-5600,6123,0,-1,0
178.63,-2.72,-42.52,-398,-5596,6118,0,0,0
178.63,-2.72,-42.51,-401,-5603,6116,0,-1,0
178.63,-2.72,-42.51,-394,-5604,6117,0,-1,0
178.62,-2.73,-42.51,-395,-5606,6115,-1,-1,0
178.62,-2.73,-42.51,-397,-5607,6119,0,0,0
178.62,-2.73,-42.51,-395,-5606,6121,0,0,0
178.62,-2.73,-42.51,-399,-5606,6121,0,0,0
178.62,-2.74,-42.51,-408,-5606,6117,0,-1,0
178.61,-2.74,-42.50,-407,-5613,6105,0,0,-1
178.61,-2.74,-42.50,-407,-5606,6114,0,-1,0
178.61,-2.74,-42.50,-407,-5611,6113,0,-1,0
178.61,-2.74,-42.50,-400,-5603,6111,0,-1,0
178.61,-2.74,-42.50,-400,-5603,6112,0,0,0
178.61,-2.74,-42.49,-397,-5606,6112,0,0,0
178.61,-2.74,-42.49,-393,-5604,6106,0,0,0
178.60,-2.75,-42.49,-395,-5598,6109,0,0,0
178.60,-2.75,-42.49,-400,-5600,6115,0,0,0
178.60,-2.75,-42.49,-399,-5604,6116,0,0,0
178.59,-2.76,-42.48,-408,-5612,6109,0,0,0
178.59,-2.76,-42.48,-406,-5610,6116,0,-1,0
178.59,-2.76,-42.48,-400,-5599,6123,0,-1,0
178.59,-2.76,-42.47,-392,-5594,6112,-1,0,0
178.59,-2.76,-42.48,-396,-5604,6119,0,0,-1
178.59,-2.76,-42.47,-406,-5607,6112,0,0,-1
178.59,-2.76,-42.46,-413,-5605,6117,0,-1,0
178.59,-2.76,-42.45,-398,-5596,6124,0,-1,0
178.58,-2.77,-42.45,-395,-5591,6121,0,0,0
178.58,-2.77,-42.44,-396,-5594,6114,0,0,0
178.58,-2.77,-42.44,-404,-5602,6119,0,0,0
178.58,-2.77,-42.44,-410,-5603,6113,0,0,-1
178.58,-2.77,-42.44,-411,-5604,6111,0,-1,-1
178.58,-2.77,-42.44,-400,-5597,6113,0,-1,-1
178.58,-2.77,-42.44,-394,-5594,6121,0,-1,0
178.58,-2.77,-42.43,-390,-5593,6121,0,0,0
178.58,-2.77,-42.43,-390,-5583,6131,-1,-1,0
178.58,-2.77,-42.43,-395,-5589,6130,-1,-1,0
178.57,-2.77,-42.43,-394,-5602,6128,-1,0,0
178.57,-2.77,-42.43,-395,-5601,6128,0,0,0
178.56,-2.78,-42.43,-403,-5600,6122,0,0,0
178.56,-2.78,-42.43,-401,-5592,6118,0,0,0
178.56,-2.78,-42.42,-398,-5599,6115,0,-1,0
178.55,-2.78,-42.42,-400,-5604,6116,0,0,0
178.55,-2.78,-42.42,-406,-5603,6122,0,-1,0
178.55,-2.78,-42.42,-409,-5598,6134,0,-1,0
178.56,-2.78,-42.42,-408,-5599,6116,0,-1,-1
178.56,-2.78,-42.42,-404,-5600,6119,0,-1,-1
178.55,-2.77,-42.41,-404,-5593,6121,0,-1,-1
178.56,-2.77,-42.41,-396,-5580,6128,-1,-1,-1
178.56,-2.76,-42.41,-395,-5579,6136,-1,-1,0
178.56,-2.76,-42.41,-391,-5586,6132,-1,-1,0
178.56,-2.76,-42.43,-402,-5594,6129,-1,-1,-1
178.56,-2.76,-42.44,-397,-5594,6115,-1,-1,-1
178.55,-2.76,-42.45,-400,-5597,6109,-1,-1,-1
178.55,-2.75,-42.46,-392,-5606,6109,-1,-1,-1
178.56,-2.75,-42.47,-389,-5608,6099,0,-1,-1
178.56,-2.75,-42.47,-388,-5612,6101,0,-1,-1
178.56,-2.75,-42.46,-396,-5603,6108,0,-1,-1
178.56,-2.75,-42.45,-397,-5596,6122,0,-1,-1
178.56,-2.74,-42.45,-391,-5590,6124,0,0,-1
178.57,-2.73,-42.45,-387,-5587,6116,-1,-1,-1
178.57,-2.73,-42.46,-390,-5588,6117,-1,-1,-1
178.57,-2.73,-42.47,-385,-5600,6113,-1,0,-1
178.57,-2.73,-42.47,-393,-5603,6109,-1,0,-1
178.57,-2.73,-42.48,-395,-5609,6117,-1,0,-1
178.58,-2.73,-42.49,-397,-5612,6114,-1,0,-1
178.58,-2.73,-42.49,-402,-5617,6105,0,0,-1
178.58,-2.73,-42.49,-395,-5602,6103,0,-1,-1
178.58,-2.73,-42.48,-386,-5596,6108,0,-1,-1
178.59,-2.72,-42.49,-380,-5593,6108,-1,0,0
178.58,-2.73,-42.49,-388,-5597,6115,-1,0,0
178.58,-2.73,-42.49,-392,-5605,6117,-1,0,0
178.58,-2.73,-42.50,-401,-5611,6109,-1,0,-1
178.58,-2.73,-42.50,-403,-5611,6110,-1,-1,-1
178.59,-2.73,-42.50,-409,-5613,6113,-1,0,-1
178.59,-2.73,-42.50,-404,-5616,6105,0,-1,-1
178.59,-2.73,-42.50,-392,-5608,6100,0,-1,0
178.60,-2.72,-42.50,-384,-5608,6109,-1,-1,-1
178.60,-2.72,-42.50,-385,-5606,6111,-1,0,-1
178.59,-2.72,-42.51,-381,-5607,6109,-1,0,0
178.60,-2.73,-42.51,-385,-5613,6114,-1,0,0
178.60,-2.73,-42.52,-387,-5615,6112,-1,0,-1
178.60,-2.73,-42.53,-401,-5620,6111,-1,0,-1
178.60,-2.73,-42.53,-402,-5619,6113,-1,0,-1
178.60,-2.73,-42.53,-392,-5617,6112,-1,0,-1
178.60,-2.73,-42.53,-394,-5621,6108,0,0,-1
178.60,-2.72,-42.53,-401,-5618,6105,0,0,-1
178.60,-2.72,-42.53,-395,-5615,6114,0,0,-1
178.60,-2.72,-42.53,-386,-5608,6114,0,0,-1
178.61,-2.72,-42.53,-375,-5604,6109,0,0,-1
178.61,-2.71,-42.53,-383,-5610,6118,-1,-1,0
178.60,-2.72,-42.53,-375,-5610,6115,-1,0,0
178.61,-2.71,-42.53,-388,-5611,6104,-1,0,0
178.60,-2.72,-42.54,-392,-5611,6093,-1,0,0
178.60,-2.72,-42.54,-394,-5617,6108,0,0,0
178.61,-2.72,-42.54,-394,-5618,6109,0,0,-1
178.61,-2.72,-42.54,-391,-5616,6112,0,-1,0
178.61,-2.72,-42.54,-395,-5610,6108,0,-1,-1
178.61,-2.72,-42.54,-395,-5604,6108,0,0,-1
178.61,-2.72,-42.54,-405,-5599,6114,-1,0,-1
178.61,-2.72,-42.53,-396,-5599,6119,0,0,-1
178.61,-2.72,-42.54,-393,-5608,6120,-1,-1,-1
178.61,-2.72,-42.54,-384,-5608,6118,-1,0,0
178.61,-2.72,-42.54,-387,-5609,6113,-1,0,0
178.61,-2.72,-42.54,-391,-5608,6110,-1,0,-1
178.61,-2.72,-42.55,-395,-5622,6100,-1,0,-1
178.61,-2.72,-42.55,-400,-5629,6096,0,-1,-1
178.62,-2.72,-42.54,-394,-5615,6106,0,-1,-1
178.62,-2.72,-42.54,-382,-5610,6110,0,0,0
178.62,-2.72,-42.54,-386,-5610,6106,0,0,0
178.61,-2.72,-42.54,-399,-5609,6106,0,0,0
178.61,-2.72,-42.54,-402,-5611,6110,0,0,0
178.62,-2.73,-42.54,-408,-5612,6115,-1,0,-1
178.62,-2.73,-42.54,-402,-5615,6107,-1,-1,-1
178.63,-2.72,-42.54,-399,-5617,6092,0,-1,-1
178.63,-2.72,-42.54,-391,-5618,6097,0,-1,-1
178.63,-2.72,-42.54,-388,-5611,6101,0,0,-1
178.63,-2.72,-42.54,-384,-5609,6104,0,0,0
178.63,-2.72,-42.54,-385,-5597,6115,0,0,-1
178.63,-2.72,-42.54,-383,-5597,6110,-1,0,-1
178.63,-2.72,-42.54,-388,-5607,6103,-1,0,-1
178.63,-2.72,-42.54,-394,-5616,6103,-1,0,-1
178.63,-2.72,-42.54,-400,-5625,6096,0,-1,-1
178.64,-2.71,-42.54,-392,-5617,6104,0,0,-1
178.64,-2.72,-42.54,-395,-5617,6104,0,0,-1
178.64,-2.72,-42.54,-392,-5603,6105,0,0,-1
178.65,-2.71,-42.53,-393,-5604,6122,0,-1,-1
178.65,-2.71,-42.52,-394,-5608,6129,0,-1,-1
178.65,-2.71,-42.52,-399,-5605,6119,0,0,-1
178.65,-2.71,-42.52,-395,-5608,6122,-1,-1,-1
178.65,-2.71,-42.52,-390,-5605,6120,0,0,-1
178.65,-2.71,-42.52,-388,-5608,6115,0,0,0
178.65,-2.71,-42.53,-385,-5608,6116,-1,0,-1
178.65,-2.71,-42.53,-382,-5608,6113,-1,0,0
178.65,-2.71,-42.53,-389,-5606,6098,-1,0,0
178.65,-2.71,-42.54,-396,-5611,6102,-1,-1,0
178.65,-2.71,-42.54,-394,-5611,6103,-1,0,0
178.65,-2.71,-42.54,-394,-5610,6101,-1,0,0
178.64,-2.72,-42.54,-384,-5599,6099,-1,0,0
178.64,-2.72,-42.54,-383,-5602,6104,-1,0,0
178.64,-2.72,-42.55,-380,-5603,6106,-1,0,0
178.63,-2.72,-42.55,-388,-5603,6108,-1,0,0
178.63,-2.72,-42.55,-384,-5611,6109,-1,0,0
178.63,-2.72,-42.56,-384,-5616,6103,-1,0,0
178.62,-2.73,-42.57,-393,-5623,6086,-1,0,0
178.62,-2.73,-42.57,-404,-5633,6095,0,-1,-1
178.62,-2.73,-42.56,-394,-5619,6094,0,-1,-1
178.62,-2.73,-42.56,-385,-5608,6102,0,-1,0
178.63,-2.72,-42.56,-384,-5604,6097,-1,0,0
178.62,-2.73,-42.56,-388,-5608,6101,-1,0,0
178.62,-2.73,-42.56,-387,-5611,6102,0,0,0
178.62,-2.73,-42.56,-395,-5614,6107,-1,0,0
178.62,-2.73,-42.56,-398,-5620,6109,0,-1,-1
178.62,-2.73,-42.56,-403,-5617,6108,0,-1,-1
178.62,-2.73,-42.56,-394,-5609,6098,0,-1,0
178.62,-2.73,-42.56,-388,-5606,6102,0,-1,-1
178.62,-2.73,-42.55,-378,-5606,6117,0,0,-1
178.62,-2.73,-42.55,-377,-5602,6122,-1,-1,0
178.62,-2.73,-42.55,-380,-5599,6113,-1,0,0
178.62,-2.73,-42.56,-386,-5605,6108,-1,0,0
178.62,-2.73,-42.56,-388,-5615,6101,-1,0,0
178.62,-2.73,-42.56,-395,-5616,6097,0,0,0
178.62,-2.73,-42.56,-392,-5616,6099,0,0,-1
178.62,-2.73,-42.56,-386,-5613,6096,0,0,-1
178.62,-2.73,-42.56,-382,-5613,6099,0,0,0
178.62,-2.73,-42.55,-387,-5616,6096,0,0,0
178.62,-2.73,-42.55,-389,-5614,6102,0,-1,0
178.62,-2.73,-42.54,-389,-5608,6116,0,-1,-1
178.62,-2.73,-42.55,-391,-5608,6117,-1,0,0
178.62,-2.73,-42.55,-390,-5603,6109,-1,0,0
178.62,-2.73,-42.55,-388,-5598,6109,0,0,0
178.61,-2.73,-42.54,-391,-5601,6121,0,0,0
178.61,-2.73,-42.54,-389,-5612,6109,0,0,0
178.61,-2.73,-42.54,-395,-5613,6101,0,0,0
178.61,-2.73,-42.54,-389,-5613,6103,0,0,0
178.61,-2.74,-42.54,-392,-5616,6099,0,0,0
178.61,-2.74,-42.54,-396,-5623,6107,0,-1,0
178.61,-2.74,-42.54,-398,-5625,6107,0,-1,0
178.61,-2.74,-42.53,-400,-5618,6104,0,-1,0
178.61,-2.74,-42.52,-390,-5605,6106,0,0,0
178.61,-2.74,-42.52,-383,-5597,6110,0,0,0
178.61,-2.74,-42.52,-388,-5601,6112,0,0,0
178.61,-2.74,-42.52,-395,-5614,6116,-1,-1,0
178.61,-2.74,-42.52,-383,-5620,6114,0,0,0
178.60,-2.75,-42.52,-398,-5626,6113,0,-1,0
178.60,-2.75,-42.52,-402,-5622,6110,0,-1,0
178.60,-2.75,-42.51,-400,-5620,6105,0,-1,0
178.60,-2.75,-42.50,-400,-5611,6114,0,-1,0
178.59,-2.75,-42.50,-402,-5605,6115,0,-1,0
178.59,-2.75,-42.50,-392,-5608,6117,0,0,0
178.58,-2.76,-42.50,-400,-5607,6121,0,0,0
178.58,-2.76,-42.50,-404,-5619,6110,0,0,-1
178.58,-2.76,-42.49,-406,-5614,6126,0,-1,0
178.58,-2.76,-42.48,-399,-5611,6125,0,-1,0
178.58,-2.76,-42.48,-393,-5609,6121,0,-1,0
178.58,-2.76,-42.48,-395,-5611,6112,0,0,0
178.57,-2.77,-42.48,-402,-5613,6106,0,0,0
178.57,-2.78,-42.48,-409,-5608,6106,0,0,0
178.57,-2.78,-42.48,-412,-5611,6103,0,0,0
178.56,-2.78,-42.48,-410,-5614,6114,0,-1,0
178.56,-2.78,-42.48,-407,-5609,6115,0,-1,0
178.56,-2.78,-42.48,-401,-5607,6109,0,-1,0
178.56,-2.78,-42.47,-396,-5604,6109,0,-1,0
178.55,-2.78,-42.46,-396,-5596,6118,0,0,0
178.55,-2.78,-42.46,-396,-5594,6117,0,0,0
178.54,-2.79,-42.46,-400,-5602,6111,-1,0,0
178.54,-2.79,-42.46,-401,-5606,6121,-1,0,0
178.54,-2.79,-42.47,-407,-5610,6109,-1,0,0
178.54,-2.79,-42.47,-404,-5605,6107,0,0,0
178.54,-2.80,-42.47,-404,-5606,6108,0,0,0
178.53,-2.80,-42.46,-408,-5609,6116,0,0,0
178.53,-2.80,-42.46,-407,-5606,6118,0,0,0
178.52,-2.81,-42.45,-407,-5608,6127,0,-1,0
178.52,-2.81,-42.45,-413,-5605,6124,0,-1,0
178.52,-2.81,-42.44,-409,-5591,6131,0,-1,0
178.52,-2.81,-42.44,-405,-5590,6130,0,0,0
178.52,-2.81,-42.43,-406,-5582,6132,-1,-1,0
178.51,-2.81,-42.43,-401,-5575,6125,-1,-1,0
178.50,-2.82,-42.43,-400,-5588,6116,-1,0,0
178.50,-2.82,-42.44,-406,-5589,6113,0,0,0
178.49,-2.82,-42.44,-404,-5596,6107,0,0,0
178.49,-2.82,-42.44,-411,-5600,6106,0,-1,0
178.49,-2.83,-42.43,-416,-5602,6105,0,-1,0
178.49,-2.82,-42.43,-421,-5601,6117,0,-1,0
178.49,-2.82,-42.42,-415,-5601,6128,0,-1,-1
178.49,-2.82,-42.42,-414,-5598,6117,0,-1,-1
178.49,-2.82,-42.42,-412,-5585,6120,-1,-1,0
178.49,-2.81,-42.42,-411,-5590,6120,0,-1,-1
178.49,-2.81,-42.42,-406,-5581,6124,-1,-1,-1
178.49,-2.80,-42.42,-402,-5600,6132,-1,-1,-1
178.49,-2.80,-42.43,-397,-5590,6138,-1,-1,-1
178.49,-2.79,-42.44,-402,-5597,6126,-1,-1,-1
178.50,-2.79,-42.44,-402,-5595,6117,-1,-1,-1
178.50,-2.79,-42.45,-410,-5611,6109,-1,-1,-1
178.50,-2.79,-42.45,-406,-5619,6116,0,-1,-1
178.51,-2.78,-42.44,-395,-5609,6115,0,-1,-1
178.51,-2.77,-42.44,-388,-5597,6111,0,-1,-1
178.51,-2.77,-42.44,-390,-5588,6106,-1,-1,0
178.51,-2.77,-42.45,-395,-5590,6102,-1,0,-1
178.51,-2.77,-42.45,-402,-5600,6108,-1,0,-1
178.51,-2.77,-42.46,-411,-5607,6108,-1,0,-1
178.51,-2.77,-42.46,-410,-5611,6109,-1,-1,-1
178.52,-2.77,-42.46,-414,-5609,6108,-1,-1,-1
178.52,-2.77,-42.47,-398,-5611,6105,0,-1,-1
178.52,-2.76,-42.46,-391,-5600,6110,0,-1,-1
178.53,-2.75,-42.46,-389,-5596,6111,-1,-1,0
178.53,-2.75,-42.46,-383,-5593,6121,-1,-1,0
178.53,-2.75,-42.47,-387,-5602,6112,-1,0,0
178.53,-2.75,-42.47,-397,-5599,6116,-1,0,-1
178.53,-2.75,-42.48,-392,-5605,6116,-1,0,-1
178.53,-2.75,-42.49,-398,-5599,6109,-1,0,-1
178.53,-2.75,-42.50,-401,-5605,6109,-1,0,-1
178.53,-2.76,-42.50,-404,-5612,6099,-1,-1,-1
178.53,-2.76,-42.50,-407,-5607,6110,0,0,-1
178.54,-2.76,-42.50,-407,-5606,6113,0,0,-1
178.54,-2.75,-42.50,-402,-5604,6115,-1,0,-1
178.54,-2.75,-42.50,-396,-5605,6110,-1,0,-1
178.54,-2.75,-42.51,-386,-5603,6109,-1,0,-1
178.55,-2.74,-42.51,-389,-5600,6109,-1,0,-1
178.55,-2.74,-42.51,-383,-5600,6119,-1,0,-1
178.55,-2.74,-42.52,-385,-5605,6116,-1,0,-1
178.55,-2.74,-42.52,-386,-5599,6114,-1,0,-1
178.56,-2.74,-42.52,-392,-5609,6110,-1,0,-1
178.56,-2.74,-42.52,-395,-5598,6115,-1,0,-1
178.55,-2.75,-42.52,-392,-5606,6109,0,0,-1
178.56,-2.74,-42.53,-391,-5615,6121,-1,0,-1
178.56,-2.74,-42.52,-392,-5622,6120,-1,-1,-1
178.56,-2.74,-42.53,-392,-5617,6110,-1,0,-1
178.56,-2.74,-42.53,-390,-5613,6106,0,0,-1
178.57,-2.74,-42.53,-385,-5612,6104,-1,-1,-1
178.57,-2.74,-42.53,-386,-5611,6108,-1,0,-1
178.57,-2.74,-42.53,-389,-5607,6107,-1,0,-1
178.57,-2.74,-42.55,-385,-5609,6100,-1,0,-1
178.58,-2.73,-42.55,-380,-5618,6092,-1,0,-1
178.58,-2.73,-42.56,-384,-5615,6090,0,-1,-1
178.58,-2.73,-42.55,-381,-5610,6101,-1,-1,-1
178.58,-2.73,-42.55,-388,-5605,6109,-1,0,0
178.58,-2.73,-42.56,-392,-5613,6114,-1,0,-1
178.58,-2.72,-42.56,-389,-5614,6107,0,0,-1
178.58,-2.73,-42.56,-395,-5612,6106,0,0,-1
178.58,-2.73,-42.56,-395,-5612,6098,0,-1,-1
178.59,-2.72,-42.56,-389,-5611,6105,0,-1,-1
178.59,-2.72,-42.56,-384,-5612,6099,-1,-1,-1
178.59,-2.72,-42.56,-385,-5614,6100,0,0,-1
178.59,-2.71,-42.56,-388,-5613,6092,-1,0,-1
178.60,-2.71,-42.56,-389,-5607,6098,-1,0,0
178.60,-2.72,-42.56,-391,-5607,6097,-1,0,0
178.60,-2.72,-42.57,-389,-5611,6101,-1,0,0
178.60,-2.72,-42.57,-388,-5612,6099,-1,0,-1
178.59,-2.73,-42.58,-390,-5610,6097,-1,0,-1
178.59,-2.73,-42.58,-393,-5618,6097,0,0,-1
178.60,-2.72,-42.58,-393,-5623,6095,0,0,-1
178.60,-2.72,-42.58,-401,-5622,6096,0,0,-1
178.60,-2.72,-42.58,-401,-5617,6105,0,0,-1
178.60,-2.72,-42.57,-396,-5617,6115,0,0,-1
178.60,-2.72,-42.57,-399,-5612,6109,0,-1,-1
178.61,-2.72,-42.57,-398,-5610,6111,0,-1,-1
