Yaw,Pitch,Roll,AX,AY,AZ,GX,GY,GZ
-157.69,13.29,-70.78,1915,-7659,2660,0,0,0
-157.70,13.28,-70.78,1912,-7661,2665,0,0,0
-157.69,13.28,-70.77,1915,-7658,2671,0,0,0
-157.70,13.28,-70.78,1919,-7658,2668,0,-1,0
-157.70,13.28,-70.78,1920,-7651,2663,0,-1,0
-157.70,13.28,-70.78,1912,-7648,2661,-1,0,0
-157.71,13.27,-70.78,1909,-7653,2661,-1,-1,0
-157.71,13.27,-70.78,1910,-7665,2659,-1,-1,-1
-157.71,13.27,-70.78,1913,-7669,2667,0,-1,0
-157.71,13.27,-70.78,1917,-7661,2670,0,0,0
-157.71,13.27,-70.78,1917,-7655,2681,-1,-1,0
-157.72,13.26,-70.78,1911,-7657,2682,-1,-1,0
-157.73,13.26,-70.79,1909,-7672,2671,-1,-1,0
-157.73,13.26,-70.80,1905,-7679,2653,0,-1,0
-157.73,13.25,-70.79,1903,-7664,2658,0,0,0
-157.73,13.25,-70.78,1901,-7663,2658,0,0,-1
-157.73,13.25,-70.77,1905,-7666,2682,-1,0,-1
-157.72,13.26,-70.78,1908,-7660,2670,-1,-1,-1
-157.73,13.25,-70.78,1909,-7659,2669,-1,-1,0
-157.74,13.25,-70.79,1908,-7661,2653,0,-1,0
-157.74,13.25,-70.78,1912,-7652,2668,-1,-1,0
-157.75,13.24,-70.78,1906,-7643,2667,-1,-1,0
-157.75,13.24,-70.79,1903,-7648,2662,-1,-1,0
-157.76,13.23,-70.79,1904,-7665,2654,-1,-1,0
-157.76,13.23,-70.80,1901,-7662,2651,0,-1,0
-157.77,13.22,-70.80,1905,-7666,2655,0,-1,0
-157.77,13.22,-70.80,1906,-7659,2659,0,0,0
-157.78,13.22,-70.80,1902,-7657,2653,0,-1,0
-157.78,13.22,-70.79,1907,-7666,2659,0,-1,0
-157.78,13.22,-70.79,1901,-7673,2663,0,0,0
-157.78,13.21,-70.79,1899,-7666,2671,0,-1,0
-157.78,13.21,-70.79,1903,-7658,2670,-1,-1,0
-157.78,13.21,-70.79,1903,-7655,2669,-1,-1,0
-157.79,13.21,-70.80,1912,-7658,2665,-1,-1,0
-157.79,13.21,-70.80,1907,-7661,2671,-1,-1,0
-157.80,13.21,-70.81,1910,-7667,2666,-1,-1,0
-157.81,13.21,-70.82,1907,-7666,2664,-1,-1,0
-157.82,13.20,-70.82,1907,-7665,2667,0,-1,0
-157.82,13.20,-70.82,1913,-7665,2665,-1,-1,0
-157.82,13.20,-70.82,1911,-7665,2655,0,0,0
-157.82,13.19,-70.81,1902,-7666,2669,-1,0,0
-157.82,13.19,-70.81,1902,-7672,2666,0,0,0
-157.82,13.19,-70.81,1898,-7666,2665,-1,-1,0
-157.83,13.18,-70.82,1891,-7667,2657,0,-1,0
-157.83,13.18,-70.82,1897,-7667,2660,0,-1,0
-157.83,13.18,-70.81,1902,-7664,2667,0,0,0
-157.83,13.18,-70.81,1905,-7653,2666,-1,0,0
-157.84,13.17,-70.81,1897,-7651,2674,-1,-1,0
-157.84,13.17,-70.81,1903,-7656,2666,-1,-1,0
-157.84,13.17,-70.81,1909,-7661,2663,-1,-1,0
-157.84,13.17,-70.81,1904,-7661,2662,0,0,0
-157.85,13.17,-70.81,1896,-7655,2674,-1,-1,0
-157.85,13.16,-70.82,1891,-7664,2671,-1,-1,0
-157.86,13.16,-70.82,1894,-7678,2662,-1,-1,-1
-157.86,13.16,-70.82,1898,-7681,2663,0,0,-1
-157.86,13.16,-70.82,1903,-7667,2656,0,0,0
-157.86,13.15,-70.81,1894,-7648,2666,0,-1,0
-157.87,13.15,-70.81,1897,-7651,2669,-1,-1,0
-157.88,13.14,-70.82,1888,-7668,2669,-1,-1,0
-157.89,13.13,-70.82,1890,-7681,2665,-1,0,0
-157.89,13.13,-70.83,1889,-7673,2652,0,0,0
-157.89,13.13,-70.82,1887,-7668,2649,0,-1,0
-157.89,13.13,-70.82,1891,-7661,2656,0,0,-1
-157.89,13.13,-70.82,1892,-7658,2656,0,0,-1
-157.89,13.13,-70.82,1904,-7664,2669,-1,0,0
-157.89,13.13,-70.82,1902,-7666,2671,-1,0,0
-157.90,13.12,-70.82,1895,-7664,2670,-1,-1,0
-157.90,13.12,-70.83,1889,-7666,2663,-1,-1,0
-157.91,13.12,-70.83,1884,-7674,2664,-1,-1,0
-157.91,13.12,-70.83,1888,-7662,2668,0,-1,0
-157.91,13.11,-70.83,1887,-7664,2664,0,-1,0
-157.92,13.10,-70.82,1885,-7668,2670,-1,-1,0
-157.93,13.09,-70.83,1877,-7665,2663,-1,-1,0
-157.94,13.09,-70.83,1881,-7667,2660,-1,-1,0
-157.94,13.09,-70.83,1888,-7666,2658,0,0,0
-157.94,13.09,-70.83,1886,-7663,2667,0,-1,0
-157.93,13.10,-70.83,1892,-7665,2664,0,-1,0
-157.93,13.09,-70.82,1891,-7663,2669,-1,-1,0
-157.94,13.09,-70.82,1886,-7666,2667,0,-1,0
-157.94,13.09,-70.82,1895,-7662,2665,0,-1,0
-157.94,13.09,-70.82,1892,-7663,2665,-1,-1,0
-157.95,13.08,-70.83,1883,-7658,2655,-1,-1,0
-157.96,13.07,-70.83,1877,-7674,2654,-1,-1,0
-157.97,13.07,-70.83,1882,-7683,2643,0,0,0
-157.97,13.07,-70.83,1885,-7682,2655,0,-1,0
-157.97,13.06,-70.82,1879,-7669,2658,0,-1,0
-157.97,13.06,-70.81,1881,-7661,2672,-1,-1,0
-157.98,13.05,-70.81,1878,-7651,2670,0,0,0
-157.98,13.05,-70.82,1882,-7667,2662,0,0,0
-157.97,13.05,-70.81,1870,-7664,2664,0,0,-1
-157.97,13.05,-70.81,1876,-7663,2670,0,0,0
-157.97,13.05,-70.80,1869,-7662,2693,-1,-1,-1
-157.97,13.06,-70.80,1881,-7662,2683,0,-1,-1
-157.97,13.06,-70.80,1881,-7661,2676,0,-1,0
-157.97,13.06,-70.80,1887,-7669,2677,-1,0,0
-157.97,13.06,-70.80,1871,-7664,2657,-1,-1,-1
-157.97,13.06,-70.80,1876,-7669,2664,0,-1,-1
-157.96,13.07,-70.79,1880,-7662,2669,0,0,-1
-157.95,13.07,-70.79,1876,-7649,2672,-1,-1,-1
-157.95,13.08,-70.79,1887,-7659,2672,-1,0,-1
-157.95,13.08,-70.79,1888,-7672,2671,-1,-1,0
-157.95,13.08,-70.79,1884,-7680,2668,0,0,-1
-157.95,13.08,-70.79,1882,-7673,2672,0,0,-1
-157.94,13.08,-70.79,1888,-7666,2663,0,0,-1
-157.93,13.08,-70.78,1882,-7658,2669,0,0,-1
-157.93,13.09,-70.77,1884,-7656,2680,0,0,-1
-157.92,13.09,-70.77,1875,-7655,2684,0,0,-1
-157.92,13.09,-70.77,1878,-7660,2689,-1,-1,-1
-157.92,13.09,-70.78,1877,-7659,2671,-1,0,-1
-157.91,13.10,-70.78,1884,-7666,2670,-1,0,-1
-157.91,13.11,-70.79,1887,-7673,2669,-1,0,-1
-157.91,13.11,-70.79,1885,-7674,2667,-1,-1,-1
-157.91,13.11,-70.79,1880,-7668,2667,0,0,-1
-157.90,13.11,-70.79,1879,-7668,2667,-1,0,-1
-157.91,13.11,-70.80,1872,-7667,2659,0,0,-1
-157.90,13.11,-70.80,1884,-7674,2663,-1,0,-1
-157.89,13.12,-70.80,1882,-7674,2661,0,0,-1
-157.89,13.12,-70.80,1870,-7666,2654,-1,0,-1
-157.89,13.12,-70.80,1882,-7666,2670,-1,0,-1
-157.88,13.13,-70.80,1891,-7666,2672,-1,0,-1
-157.88,13.13,-70.80,1891,-7666,2675,-1,0,-1
-157.88,13.13,-70.81,1889,-7667,2676,-1,0,-1
-157.87,13.14,-70.80,1892,-7671,2684,-1,-1,-1
-157.87,13.14,-70.81,1892,-7671,2671,-1,-1,-1
-157.87,13.14,-70.81,1894,-7671,2669,-1,-1,-1
-157.87,13.14,-70.81,1890,-7672,2663,0,0,-1
-157.87,13.14,-70.81,1887,-7672,2663,-1,0,-1
-157.87,13.14,-70.81,1885,-7669,2667,0,0,-1
-157.86,13.15,-70.81,1888,-7671,2670,0,0,-1
-157.86,13.15,-70.81,1882,-7671,2671,0,0,-1
-157.85,13.15,-70.80,1888,-7673,2668,-1,0,-1
-157.85,13.16,-70.81,1891,-7674,2661,0,-1,-1
-157.85,13.16,-70.81,1897,-7674,2660,-1,0,-1
-157.85,13.16,-70.81,1898,-7661,2648,0,0,-1
-157.84,13.16,-70.81,1897,-7665,2658,-1,0,-1
-157.84,13.16,-70.81,1898,-7669,2663,0,-1,-1
-157.84,13.16,-70.81,1898,-7669,2659,0,0,-1
-157.84,13.17,-70.81,1896,-7666,2667,-1,0,0
-157.84,13.16,-70.81,1890,-7666,2666,0,-1,0
-157.84,13.16,-70.81,1891,-7666,2662,0,-1,-1
-157.84,13.16,-70.81,1882,-7680,2657,0,0,-1
-157.83,13.17,-70.81,1889,-7677,2652,0,-1,-1
-157.83,13.18,-70.80,1891,-7670,2651,0,0,-1
-157.82,13.18,-70.79,1895,-7658,2668,0,-1,0
-157.82,13.18,-70.79,1899,-7662,2660,0,0,-1
-157.82,13.18,-70.79,1898,-7668,2658,-1,0,-1
-157.82,13.18,-70.80,1892,-7672,2663,0,0,-1
-157.82,13.18,-70.79,1889,-7665,2669,-1,0,-1
-157.81,13.18,-70.79,1888,-7668,2667,0,0,-1
-157.81,13.19,-70.79,1897,-7668,2669,0,0,-1
-157.80,13.20,-70.79,1900,-7662,2671,0,-1,-1
-157.79,13.20,-70.78,1900,-7655,2687,-1,0,-1
-157.79,13.20,-70.78,1901,-7658,2671,-1,0,-1
-157.78,13.21,-70.79,1900,-7661,2669,-1,0,-1
-157.78,13.21,-70.79,1902,-7660,2665,-1,0,-1
-157.78,13.21,-70.80,1897,-7654,2663,-1,-1,-1
-157.79,13.21,-70.81,1892,-7667,2656,0,0,-1
-157.78,13.21,-70.80,1893,-7670,2661,0,0,-1
-157.77,13.22,-70.80,1896,-7664,2667,-1,0,-1
-157.77,13.22,-70.80,1895,-7665,2666,-1,0,-1
-157.76,13.22,-70.79,1896,-7668,2661,0,0,-1
-157.76,13.22,-70.79,1894,-7666,2661,0,0,-1
-157.75,13.23,-70.79,1892,-7661,2670,0,0,-1
-157.75,13.23,-70.78,1899,-7666,2677,0,0,-1
-157.74,13.23,-70.78,1895,-7663,2682,-1,0,-1
-157.74,13.23,-70.78,1896,-7666,2679,-1,0,-1
-157.73,13.24,-70.78,1903,-7664,2674,-1,0,-1
-157.73,13.24,-70.79,1904,-7661,2671,-1,0,-1
-157.73,13.24,-70.79,1907,-7662,2668,-1,0,-1
-157.72,13.25,-70.79,1896,-7663,2671,-1,0,-1
-157.72,13.25,-70.79,1895,-7662,2669,-1,0,-1
-157.72,13.25,-70.79,1899,-7666,2664,-1,0,-1
-157.72,13.25,-70.79,1897,-7666,2665,0,0,-1
-157.71,13.26,-70.78,1898,-7662,2665,0,0,-1
-157.71,13.26,-70.78,1896,-7661,2666,-1,0,-1
-157.70,13.27,-70.78,1900,-7669,2663,0,0,-1
-157.70,13.26,-70.78,1896,-7660,2670,-1,0,-1
-157.69,13.26,-70.78,1890,-7652,2679,-1,-1,-1
-157.70,13.27,-70.79,1904,-7666,2664,-1,0,-1
-157.69,13.27,-70.79,1897,-7675,2662,0,0,-1
-157.69,13.27,-70.79,1893,-7668,2658,0,0,-1
-157.68,13.27,-70.78,1900,-7651,2664,-1,0,-1
-157.68,13.27,-70.79,1905,-7661,2664,-1,-1,-1
-157.67,13.28,-70.79,1919,-7654,2670,0,0,-1
-157.67,13.28,-70.79,1907,-7660,2667,-1,0,-1
-157.67,13.28,-70.78,1907,-7656,2683,-1,0,-1
-157.67,13.28,-70.78,1900,-7658,2675,-1,0,-1
-157.67,13.28,-70.79,1902,-7667,2667,-1,0,-1
-157.66,13.29,-70.79,1914,-7676,2652,0,0,-1
-157.65,13.30,-70.79,1922,-7671,2654,0,0,-1
-157.64,13.30,-70.78,1923,-7649,2672,0,0,-1
-157.64,13.30,-70.78,1922,-7642,2675,-1,0,-1
-157.65,13.30,-70.79,1915,-7650,2664,-1,0,-1
-157.64,13.31,-70.80,1923,-7667,2652,-1,0,-1
-157.64,13.31,-70.80,1918,-7659,2646,0,0,-1
-157.63,13.31,-70.80,1905,-7662,2648,0,0,-1
-157.63,13.31,-70.79,1898,-7659,2665,0,0,-1
-157.62,13.32,-70.79,1904,-7661,2684,0,0,-1
-157.61,13.32,-70.78,1914,-7654,2683,-1,0,-1
-157.61,13.33,-70.79,1915,-7655,2677,-1,0,-1
-157.61,13.33,-70.79,1914,-7659,2673,-1,0,-1
-157.60,13.33,-70.78,1912,-7655,2678,-1,0,-1
-157.59,13.33,-70.78,1911,-7648,2683,-1,0,-1
-157.60,13.34,-70.79,1913,-7657,2682,-1,0,-1
-157.59,13.34,-70.79,1921,-7664,2678,-1,0,-1
-157.59,13.34,-70.79,1910,-7664,2681,-1,0,-1
-157.59,13.34,-70.78,1911,-7665,2677,-1,0,-1
-157.58,13.34,-70.79,1914,-7668,2668,-1,0,-1
-157.57,13.35,-70.79,1913,-7673,2652,0,0,-1
-157.57,13.35,-70.79,1914,-7672,2658,0,0,-1
-157.57,13.35,-70.78,1916,-7667,2664,0,0,-1
-157.56,13.36,-70.77,1920,-7660,2680,-1,0,-1
-157.56,13.36,-70.77,1920,-7656,2675,0,0,-1
-157.56,13.36,-70.77,1925,-7657,2681,-1,0,-1
-157.56,13.36,-70.79,1929,-7663,2664,-1,-1,-1
-157.56,13.36,-70.79,1920,-7653,2668,-1,-1,0
-157.57,13.35,-70.79,1914,-7657,2663,0,-1,0
-157.57,13.35,-70.79,1917,-7658,2664,-1,0,0
-157.57,13.35,-70.79,1921,-7667,2657,0,-1,-1
-157.57,13.35,-70.79,1930,-7663,2662,0,-1,0
-157.57,13.35,-70.78,1930,-7668,2667,0,0,0
-157.57,13.34,-70.78,1912,-7652,2663,0,0,0
-157.58,13.34,-70.79,1910,-7655,2664,-1,-1,-1
-157.57,13.35,-70.79,1917,-7666,2664,0,0,-1
-157.57,13.34,-70.78,1920,-7662,2668,0,-1,0
-157.57,13.34,-70.77,1912,-7654,2668,0,-1,0
-157.58,13.34,-70.77,1908,-7657,2667,-1,-1,0
-157.58,13.34,-70.77,1910,-7650,2667,0,0,0
-157.58,13.33,-70.77,1911,-7652,2667,0,-1,0
-157.59,13.33,-70.77,1917,-7653,2673,0,-1,0
-157.59,13.32,-70.76,1911,-7653,2680,0,0,0
-157.60,13.32,-70.76,1903,-7652,2680,0,-1,0
-157.60,13.32,-70.75,1906,-7652,2684,0,-1,0
-157.60,13.31,-70.75,1903,-7664,2679,-1,0,0
-157.60,13.30,-70.74,1901,-7657,2688,0,0,0
-157.61,13.30,-70.75,1891,-7655,2681,-1,-1,0
-157.62,13.29,-70.75,1901,-7653,2674,0,-1,0
-157.61,13.29,-70.74,1906,-7656,2680,0,0,0
-157.61,13.29,-70.73,1910,-7666,2693,0,0,0
-157.61,13.29,-70.73,1915,-7658,2690,0,-1,0
-157.63,13.28,-70.73,1906,-7648,2679,-1,-1,0
-157.64,13.27,-70.73,1909,-7658,2679,0,-1,0
-157.64,13.27,-70.73,1907,-7650,2685,-1,-1,0
-157.65,13.26,-70.73,1895,-7660,2659,0,-1,0
-157.65,13.26,-70.73,1895,-7654,2653,0,-1,0
-157.65,13.26,-70.73,1897,-7657,2656,0,0,0
-157.64,13.26,-70.71,1895,-7641,2687,-1,0,-1
-157.65,13.25,-70.72,1899,-7648,2675,0,-1,0
-157.65,13.25,-70.71,1909,-7640,2703,-1,-1,0
-157.66,13.25,-70.71,1902,-7652,2673,0,0,0
-157.67,13.24,-70.72,1897,-7654,2687,-1,-1,0
-157.68,13.23,-70.73,1893,-7665,2673,0,-1,0
-157.69,13.23,-70.73,1895,-7654,2675,-1,-1,0
-157.69,13.23,-70.73,1893,-7658,2681,0,0,0
-157.69,13.22,-70.73,1891,-7650,2676,-1,0,0
-157.70,13.22,-70.73,1891,-7661,2679,-1,-1,0
-157.71,13.21,-70.74,1887,-7667,2672,0,0,0
-157.71,13.21,-70.74,1892,-7659,2671,-1,0,0
-157.71,13.21,-70.74,1881,-7660,2663,0,0,-1
-157.71,13.21,-70.74,1894,-7660,2679,-1,-1,-1
-157.71,13.21,-70.74,1901,-7652,2677,-1,0,-1
-157.71,13.21,-70.75,1898,-7664,2677,-1,-1,-1
-157.71,13.21,-70.75,1896,-7661,2684,-1,0,0
-157.72,13.20,-70.75,1890,-7662,2680,-1,-1,0
-157.72,13.20,-70.76,1894,-7654,2677,-1,-1,0
-157.73,13.20,-70.76,1892,-7656,2675,0,-1,0
-157.74,13.19,-70.77,1892,-7667,2660,-1,-1,0
-157.74,13.19,-70.77,1895,-7664,2661,-1,0,0
-157.75,13.18,-70.77,1889,-7673,2668,0,0,0
-157.75,13.18,-70.77,1882,-7666,2671,-1,-1,-1
-157.75,13.18,-70.77,1879,-7668,2677,-1,0,-1
-157.75,13.18,-70.78,1887,-7664,2673,-1,-1,0
-157.75,13.18,-70.77,1891,-7663,2677,-1,-1,0
-157.75,13.18,-70.78,1892,-7665,2668,0,0,0
-157.75,13.18,-70.78,1894,-7666,2671,-1,-1,0
-157.76,13.18,-70.78,1897,-7664,2656,-1,-1,0
-157.76,13.18,-70.79,1905,-7668,2672,-1,-1,0
-157.76,13.18,-70.79,1893,-7670,2674,0,0,0
-157.76,13.17,-70.79,1896,-7665,2667,-1,0,0
-157.77,13.17,-70.79,1887,-7661,2663,-1,-1,0
-157.78,13.16,-70.80,1890,-7663,2654,-1,-1,-1
-157.78,13.16,-70.80,1890,-7676,2662,0,-1,-1
-157.78,13.16,-70.79,1900,-7657,2670,0,0,0
-157.78,13.16,-70.79,1904,-7655,2675,-1,0,0
-157.78,13.16,-70.80,1891,-7650,2680,-1,-1,0
-157.79,13.16,-70.80,1884,-7663,2667,-1,-1,0
-157.79,13.15,-70.80,1879,-7678,2666,-1,-1,-1
-157.79,13.15,-70.81,1882,-7681,2659,0,0,-1
-157.79,13.15,-70.80,1882,-7672,2659,0,0,-1
-157.79,13.15,-70.80,1888,-7664,2673,0,0,-1
-157.79,13.15,-70.80,1889,-7657,2671,-1,-1,-1
-157.79,13.15,-70.80,1892,-7658,2686,-1,0,-1
-157.79,13.15,-70.80,1897,-7671,2680,-1,0,-1
-157.79,13.15,-70.80,1896,-7672,2677,-1,-1,0
-157.79,13.15,-70.80,1894,-7664,2677,-1,-1,0
-157.80,13.15,-70.81,1886,-7665,2672,-1,-1,0
-157.80,13.14,-70.81,1890,-7677,2658,0,-1,0
-157.80,13.14,-70.81,1893,-7672,2661,0,-1,0
-157.81,13.14,-70.81,1886,-7662,2659,0,-1,0
-157.81,13.14,-70.81,1890,-7660,2663,-1,-1,0
-157.81,13.14,-70.81,1884,-7663,2652,-1,0,0
-157.81,13.14,-70.81,1887,-7659,2645,0,0,-1
-157.81,13.14,-70.81,1878,-7665,2645,0,-1,-1
-157.82,13.13,-70.82,1878,-7666,2651,0,-1,-1
-157.82,13.13,-70.81,1880,-7666,2668,0,-1,0
-157.82,13.13,-70.81,1882,-7656,2683,0,0,0
-157.82,13.13,-70.81,1893,-7666,2677,-1,-1,0
-157.82,13.12,-70.81,1877,-7666,2669,-1,0,0
-157.83,13.12,-70.82,1877,-7670,2665,-1,-1,0
-157.83,13.12,-70.82,1879,-7669,2654,0,0,0
-157.83,13.12,-70.81,1869,-7663,2671,0,0,0
-157.83,13.11,-70.79,1867,-7654,2683,0,-1,-1
-157.83,13.11,-70.80,1875,-7660,2684,-1,-1,-1
-157.83,13.11,-70.80,1878,-7663,2682,-1,-1,-1
-157.82,13.12,-70.80,1885,-7676,2669,-1,-1,-1
-157.83,13.11,-70.80,1880,-7674,2670,-1,0,-1
-157.82,13.12,-70.80,1877,-7671,2660,0,0,-1
-157.82,13.13,-70.81,1881,-7665,2662,-1,-1,-1
-157.82,13.13,-70.81,1886,-7674,2661,0,-1,-1
-157.82,13.13,-70.81,1887,-7672,2665,-1,-1,-1
-157.81,13.14,-70.81,1889,-7668,2669,-1,-1,-1
-157.81,13.14,-70.81,1882,-7669,2669,-1,-1,-1
-157.81,13.14,-70.82,1885,-7672,2664,-1,-1,-1
-157.80,13.15,-70.82,1894,-7672,2665,0,0,-1
-157.80,13.15,-70.81,1899,-7657,2672,0,0,-1
-157.80,13.15,-70.81,1891,-7651,2675,-1,0,-1
-157.80,13.15,-70.81,1891,-7670,2667,-1,-1,-1
-157.80,13.15,-70.82,1892,-7677,2661,0,0,-1
-157.80,13.15,-70.81,1893,-7677,2672,0,0,-1
-157.79,13.16,-70.81,1890,-7678,2665,0,0,-1
-157.78,13.16,-70.81,1887,-7668,2667,0,0,-1
-157.78,13.16,-70.80,1884,-7662,2666,0,0,-1
-157.77,13.17,-70.80,1886,-7654,2674,-1,-1,-1
-157.77,13.17,-70.81,1894,-7668,2674,-1,0,-1
-157.77,13.17,-70.81,1896,-7670,2675,-1,0,-1
-157.77,13.17,-70.81,1885,-7677,2666,-1,0,-1
-157.76,13.17,-70.81,1886,-7660,2663,-1,0,-1
-157.77,13.18,-70.82,1889,-7665,2660,-1,0,-1
-157.77,13.18,-70.82,1888,-7678,2665,-1,0,-1
-157.76,13.18,-70.82,1892,-7674,2669,0,0,-1
-157.75,13.18,-70.82,1894,-7672,2670,-1,0,-1
-157.75,13.18,-70.82,1894,-7668,2665,-1,0,-1
-157.75,13.19,-70.82,1889,-7672,2667,-1,0,-1
-157.75,13.19,-70.81,1896,-7675,2672,0,0,-1
-157.74,13.19,-70.81,1893,-7667,2674,0,0,-1
-157.73,13.19,-70.80,1889,-7659,2672,-1,0,-1
-157.73,13.19,-70.80,1891,-7655,2675,-1,0,-1
-157.73,13.19,-70.81,1893,-7653,2672,-1,-1,-1
-157.73,13.20,-70.82,1895,-7662,2660,-1,0,-1
-157.73,13.20,-70.82,1896,-7659,2656,-1,0,-1
-157.73,13.20,-70.83,1896,-7658,2657,-1,0,-1
-157.73,13.20,-70.83,1892,-7661,2648,-1,0,-1
-157.73,13.20,-70.83,1887,-7659,2649,0,0,-1
-157.72,13.21,-70.82,1891,-7663,2660,0,0,-1
-157.72,13.21,-70.82,1898,-7666,2671,0,0,-1
-157.72,13.21,-70.82,1899,-7665,2672,0,0,-1
-157.72,13.21,-70.82,1898,-7669,2661,-1,0,-1
-157.72,13.21,-70.82,1890,-7669,2655,-1,0,-1
-157.72,13.21,-70.83,1894,-7664,2651,0,0,-1
-157.72,13.21,-70.83,1892,-7664,2656,-1,0,-1
-157.72,13.21,-70.83,1895,-7672,2671,-1,0,-1
-157.71,13.22,-70.82,1892,-7665,2673,-1,-1,-1
-157.71,13.22,-70.82,1892,-7667,2667,0,-1,-1
-157.71,13.22,-70.82,1897,-7665,2677,-1,-1,-1
-157.71,13.22,-70.82,1898,-7668,2675,-1,0,0
-157.70,13.22,-70.82,1900,-7662,2688,-1,0,-1
-157.71,13.22,-70.83,1894,-7680,2670,0,0,-1
-157.70,13.22,-70.82,1895,-7678,2663,0,0,-1
-157.69,13.23,-70.81,1894,-7659,2658,0,0,-1
-157.69,13.23,-70.81,1897,-7645,2666,-1,-1,0
-157.69,13.23,-70.82,1897,-7657,2665,-1,0,-1
-157.70,13.22,-70.82,1907,-7675,2655,-1,0,-1
-157.70,13.23,-70.83,1891,-7674,2656,0,0,-1
-157.69,13.23,-70.83,1882,-7665,2653,-1,0,-1
-157.69,13.23,-70.82,1879,-7662,2653,0,0,-1
-157.68,13.23,-70.82,1887,-7662,2665,0,0,-1
-157.67,13.23,-70.81,1895,-7659,2678,-1,-1,-1
-157.68,13.24,-70.82,1895,-7666,2676,-1,0,-1
-157.68,13.24,-70.82,1897,-7670,2674,-1,-1,-1
-157.68,13.24,-70.82,1895,-7669,2673,-1,-1,-1
-157.68,13.24,-70.83,1899,-7663,2662,-1,-1,-1
-157.68,13.24,-70.83,1904,-7666,2662,-1,-1,-1
-157.67,13.24,-70.82,1900,-7668,2660,0,0,-1
-157.67,13.24,-70.82,1903,-7666,2656,-1,0,-1
-157.66,13.25,-70.82,1897,-7668,2659,-1,0,-1
-157.66,13.25,-70.82,1902,-7674,2672,-1,0,-1
-157.66,13.25,-70.83,1905,-7677,2668,0,0,-1
-157.66,13.25,-70.83,1903,-7670,2661,0,0,-1
-157.65,13.25,-70.82,1899,-7664,2672,0,0,-1
-157.65,13.26,-70.82,1902,-7666,2668,0,0,-1
-157.64,13.26,-70.82,1906,-7668,2672,0,-1,-1
-157.64,13.26,-70.82,1905,-7665,2671,-1,0,-1
-157.64,13.27,-70.82,1909,-7668,2669,-1,0,-1
-157.63,13.28,-70.82,1909,-7668,2673,-1,0,-1
-157.64,13.27,-70.83,1909,-7664,2669,-1,0,-1
-157.63,13.27,-70.83,1904,-7662,2666,-1,0,-1
-157.63,13.28,-70.83,1904,-7668,2660,-1,0,-1
-157.63,13.28,-70.83,1901,-7672,2654,0,0,-1
-157.63,13.28,-70.83,1903,-7666,2659,0,0,-1
-157.61,13.29,-70.82,1904,-7650,2667,-1,0,-1
-157.61,13.29,-70.82,1898,-7653,2658,0,0,-1
-157.60,13.29,-70.82,1901,-7657,2668,-1,0,-1
-157.60,13.30,-70.83,1912,-7666,2656,0,0,-1
-157.59,13.30,-70.82,1909,-7668,2662,-1,0,-1
-157.58,13.30,-70.82,1913,-7659,2669,0,0,-1
-157.58,13.30,-70.82,1910,-7655,2672,-1,0,-1
-157.58,13.31,-70.82,1908,-7655,2659,0,0,-1
-157.58,13.31,-70.81,1915,-7653,2671,0,0,-1
-157.57,13.31,-70.81,1904,-7657,2670,-1,0,-1
-157.57,13.31,-70.80,1912,-7645,2661,0,0,-1
-157.57,13.31,-70.80,1918,-7659,2658,-1,0,0
-157.57,13.31,-70.80,1918,-7663,2666,0,0,-1
-157.56,13.31,-70.80,1909,-7658,2675,-1,0,-1
-157.56,13.31,-70.80,1903,-7657,2666,0,-1,-1
-157.56,13.32,-70.80,1910,-7648,2672,-1,0,-1
-157.56,13.31,-70.80,1899,-7655,2653,-1,0,-1
-157.55,13.32,-70.80,1906,-7664,2659,0,0,-1
-157.54,13.33,-70.79,1914,-7659,2672,0,0,-1
-157.53,13.33,-70.78,1917,-7648,2676,0,0,-1
-157.53,13.33,-70.78,1922,-7652,2684,-1,0,0
-157.53,13.33,-70.79,1910,-7663,2679,-1,0,-1
-157.54,13.33,-70.80,1910,-7671,2653,-1,0,-1
-157.53,13.33,-70.81,1907,-7684,2653,-1,0,-1
-157.53,13.33,-70.81,1913,-7692,2647,0,0,-1
-157.52,13.34,-70.80,1912,-7672,2657,0,0,-1
-157.51,13.34,-70.79,1907,-7658,2668,0,0,-1
-157.50,13.35,-70.79,1921,-7652,2678,-1,0,-1
-157.50,13.35,-70.79,1916,-7659,2672,-1,-1,-1
-157.50,13.36,-70.80,1921,-7659,2668,-1,-1,-1
-157.51,13.35,-70.80,1913,-7656,2666,0,0,0
-157.51,13.34,-70.80,1909,-7660,2668,-1,0,0
-157.51,13.35,-70.81,1908,-7658,2663,-1,-1,-1
-157.51,13.34,-70.80,1909,-7655,2682,-1,-1,-1
-157.51,13.34,-70.80,1913,-7657,2672,-1,0,-1
-157.51,13.35,-70.81,1915,-7659,2670,-1,0,-1
-157.51,13.34,-70.80,1906,-7668,2665,0,0,-1
-157.51,13.34,-70.80,1913,-7667,2664,0,0,-1
-157.51,13.34,-70.80,1909,-7662,2671,0,-1,0
-157.51,13.34,-70.80,1910,-7652,2669,-1,0,-1
-157.51,13.34,-70.80,1912,-7660,2656,-1,0,-1
-157.51,13.34,-70.80,1911,-7659,2673,-1,-1,-1
-157.51,13.34,-70.81,1911,-7654,2666,-1,-1,0
-157.51,13.34,-70.81,1909,-7654,2664,-1,-1,0
-157.52,13.34,-70.82,1909,-7656,2674,-1,-1,0
-157.53,13.33,-70.82,1908,-7661,2662,-1,-1,0
-157.53,13.33,-70.82,1907,-7671,2658,0,-1,0
-157.53,13.33,-70.82,1910,-7669,2650,0,0,0
-157.53,13.33,-70.82,1914,-7661,2659,0,0,0
-157.54,13.32,-70.81,1914,-7664,2672,0,-1,0
-157.54,13.32,-70.81,1908,-7664,2671,0,0,-1
-157.54,13.32,-70.81,1916,-7669,2670,0,0,0
-157.54,13.32,-70.81,1912,-7673,2669,0,-1,0
-157.54,13.32,-70.81,1914,-7670,2655,0,-1,0
-157.54,13.32,-70.81,1909,-7659,2652,0,-1,0
-157.54,13.32,-70.80,1911,-7655,2660,0,0,0
-157.54,13.32,-70.80,1912,-7656,2674,-1,0,0
-157.55,13.31,-70.80,1911,-7674,2661,0,-1,0
-157.55,13.30,-70.80,1914,-7665,2669,0,-1,0
-157.56,13.30,-70.80,1908,-7664,2663,0,0,0
-157.55,13.30,-70.79,1911,-7657,2685,-1,-1,0
-157.56,13.29,-70.79,1906,-7654,2673,-1,-1,0
-157.56,13.29,-70.79,1912,-7662,2670,0,-1,0
-157.57,13.28,-70.79,1915,-7663,2658,0,0,0
-157.57,13.28,-70.78,1899,-7645,2687,-1,0,0
-157.57,13.28,-70.79,1893,-7662,2691,-1,-1,-1
-157.58,13.28,-70.80,1898,-7655,2683,-1,-1,-1
-157.58,13.28,-70.81,1915,-7651,2659,0,0,-1
-157.58,13.28,-70.80,1916,-7651,2677,-1,-1,0
-157.59,13.27,-70.81,1906,-7653,2666,-1,0,0
-157.60,13.27,-70.81,1901,-7661,2669,-1,-1,0
-157.60,13.26,-70.82,1899,-7661,2667,-1,-1,0
-157.61,13.25,-70.82,1892,-7673,2655,-1,0,0
-157.61,13.25,-70.82,1889,-7671,2653,0,0,-1
-157.60,13.26,-70.81,1896,-7666,2665,0,0,-1
-157.60,13.26,-70.81,1893,-7653,2681,-1,-1,0
-157.61,13.25,-70.81,1907,-7655,2686,-1,-1,0
-157.61,13.25,-70.81,1905,-7668,2682,-1,-1,0
-157.62,13.24,-70.82,1899,-7665,2675,-1,0,0
-157.63,13.23,-70.82,1889,-7667,2660,-1,-1,0
-157.64,13.23,-70.83,1898,-7666,2649,-1,-1,0
-157.65,13.22,-70.82,1895,-7672,2637,0,-1,0
-157.65,13.22,-70.82,1909,-7660,2653,0,0,0
-157.65,13.21,-70.81,1898,-7654,2652,0,-1,0
-157.66,13.21,-70.81,1903,-7661,2647,0,-1,0
-157.66,13.20,-70.80,1889,-7677,2668,-1,-1,0
-157.67,13.19,-70.80,1893,-7669,2639,0,0,0
-157.68,13.19,-70.79,1887,-7665,2653,0,-1,0
-157.67,13.18,-70.78,1894,-7655,2679,0,-1,0
-157.68,13.17,-70.77,1886,-7641,2683,0,-1,0
-157.69,13.17,-70.78,1886,-7652,2682,-1,-1,0
-157.69,13.17,-70.77,1901,-7653,2685,0,0,0
-157.70,13.16,-70.78,1908,-7662,2685,-1,-1,0
-157.70,13.16,-70.78,1899,-7660,2694,-1,-1,0
-157.71,13.15,-70.78,1893,-7659,2679,0,0,0
-157.71,13.15,-70.78,1887,-7657,2673,0,-1,0
-157.72,13.14,-70.79,1886,-7665,2682,-1,0,0
-157.73,13.14,-70.79,1888,-7671,2678,-1,-1,0
-157.74,13.13,-70.79,1881,-7673,2683,-1,-1,0
-157.74,13.13,-70.79,1894,-7661,2657,0,0,-1
-157.74,13.13,-70.79,1887,-7664,2667,-1,0,0
-157.74,13.13,-70.80,1885,-7670,2657,0,0,-1
-157.74,13.13,-70.80,1885,-7668,2668,-1,-1,0
-157.74,13.13,-70.80,1886,-7673,2666,-1,-1,0
-157.75,13.12,-70.80,1886,-7664,2654,0,0,0
-157.75,13.12,-70.80,1889,-7664,2667,-1,0,0
-157.75,13.12,-70.80,1888,-7657,2654,0,0,0
-157.76,13.11,-70.81,1884,-7651,2674,-1,-1,0
-157.77,13.11,-70.81,1873,-7664,2655,0,-1,0
-157.77,13.11,-70.81,1891,-7676,2655,-1,-1,-1
-157.77,13.11,-70.81,1891,-7670,2659,0,-1,0
-157.77,13.10,-70.80,1893,-7651,2684,0,-1,0
-157.78,13.10,-70.80,1880,-7643,2679,-1,-1,0
-157.79,13.08,-70.80,1881,-7654,2685,-1,-1,0
-157.80,13.08,-70.81,1885,-7669,2664,0,-1,0
-157.81,13.07,-70.81,1878,-7685,2661,0,0,0
-157.82,13.07,-70.81,1875,-7678,2648,0,-1,0
-157.82,13.06,-70.80,1868,-7669,2656,0,-1,-1
-157.82,13.07,-70.81,1876,-7674,2656,-1,-1,-1
-157.82,13.06,-70.80,1894,-7659,2676,0,0,0
-157.82,13.06,-70.80,1883,-7662,2663,0,-1,0
-157.82,13.06,-70.80,1885,-7660,2671,-1,-1,0
-157.83,13.06,-70.81,1881,-7664,2667,-1,-1,0
-157.83,13.06,-70.81,1883,-7657,2669,-1,-1,0
-157.84,13.05,-70.82,1872,-7674,2662,-1,-1,-1
-157.84,13.05,-70.82,1879,-7679,2658,-1,0,-1
-157.84,13.05,-70.82,1874,-7678,2656,0,-1,0
-157.85,13.05,-70.81,1866,-7671,2664,0,-1,0
-157.85,13.05,-70.82,1878,-7675,2660,-1,-1,-1
-157.85,13.05,-70.82,1880,-7676,2667,0,0,-1
-157.85,13.05,-70.82,1874,-7677,2652,0,0,-1
-157.84,13.05,-70.81,1862,-7666,2666,0,-1,-1
-157.83,13.05,-70.81,1875,-7667,2676,0,0,-1
-157.83,13.06,-70.81,1875,-7669,2667,-1,-1,-1
-157.83,13.06,-70.81,1888,-7668,2679,-1,-1,-1
-157.83,13.07,-70.81,1890,-7662,2688,-1,0,-1
-157.83,13.07,-70.82,1881,-7666,2679,-1,-1,-1
-157.83,13.07,-70.82,1886,-7669,2678,-1,-1,-1
-157.83,13.07,-70.82,1886,-7662,2663,-1,0,-1
-157.82,13.07,-70.82,1888,-7666,2657,0,-1,-1
-157.82,13.07,-70.82,1886,-7673,2660,0,0,-1
-157.81,13.08,-70.81,1883,-7664,2669,0,-1,-1
-157.81,13.08,-70.81,1883,-7666,2669,0,0,0
-157.81,13.08,-70.81,1878,-7668,2663,-1,0,-1
-157.81,13.08,-70.82,1886,-7669,2666,-1,-1,-1
-157.81,13.08,-70.82,1883,-7671,2658,0,0,-1
-157.80,13.09,-70.81,1889,-7667,2668,-1,-1,-1
-157.80,13.09,-70.82,1884,-7666,2670,-1,0,-1
-157.80,13.09,-70.82,1883,-7674,2674,-1,-1,-1
-157.79,13.10,-70.82,1886,-7673,2668,0,0,-1
-157.79,13.10,-70.81,1880,-7671,2674,0,-1,-1
-157.79,13.10,-70.81,1883,-7661,2675,-1,-1,0
-157.79,13.10,-70.82,1884,-7672,2664,-1,0,0
-157.79,13.10,-70.82,1887,-7680,2660,-1,0,0
-157.80,13.09,-70.82,1885,-7696,2661,0,0,-1
-157.79,13.09,-70.82,1878,-7679,2657,0,0,-1
-157.79,13.09,-70.82,1877,-7668,2665,0,0,-1
-157.78,13.10,-70.81,1883,-7666,2667,-1,-1,-1
-157.77,13.10,-70.81,1881,-7665,2671,0,0,-1
-157.77,13.10,-70.81,1885,-7672,2674,-1,0,-1
-157.77,13.10,-70.81,1884,-7678,2678,0,-1,0
-157.77,13.10,-70.81,1886,-7672,2671,0,-1,-1
-157.77,13.10,-70.81,1891,-7662,2687,-1,-1,0
-157.77,13.10,-70.81,1884,-7664,2666,-1,-1,-1
-157.78,13.10,-70.82,1894,-7669,2651,-1,-1,0
-157.78,13.10,-70.82,1888,-7673,2655,0,0,-1
-157.77,13.10,-70.81,1887,-7674,2667,0,0,0
-157.78,13.10,-70.81,1887,-7667,2665,0,-1,-1
-157.77,13.11,-70.81,1889,-7667,2677,-1,-1,-1
-157.77,13.11,-70.81,1896,-7662,2669,0,0,-1
-157.77,13.11,-70.80,1896,-7663,2668,0,0,0
-157.77,13.11,-70.80,1886,-7664,2666,0,-1,-1
-157.76,13.11,-70.80,1892,-7662,2662,-1,-1,-1
-157.76,13.12,-70.80,1896,-7664,2673,-1,-1,-1
-157.76,13.12,-70.80,1901,-7664,2671,-1,-1,-1
-157.76,13.12,-70.81,1892,-7654,2672,-1,-1,-1
-157.76,13.12,-70.81,1891,-7660,2669,-1,0,-1
-157.76,13.12,-70.81,1888,-7653,2671,-1,-1,-1
-157.75,13.13,-70.81,1887,-7662,2666,0,0,-1
-157.75,13.13,-70.81,1884,-7666,2669,-1,0,-1
-157.74,13.14,-70.80,1891,-7659,2666,0,0,-1
-157.74,13.14,-70.80,1889,-7658,2668,-1,0,-1
-157.73,13.14,-70.80,1884,-7657,2667,0,0,-1
-157.73,13.14,-70.80,1885,-7658,2669,-1,0,-1
-157.73,13.14,-70.80,1892,-7669,2664,0,0,-1
-157.72,13.15,-70.80,1888,-7660,2655,-1,-1,-1
-157.72,13.15,-70.80,1884,-7663,2656,0,0,-1
-157.72,13.15,-70.80,1880,-7657,2667,-1,-1,-1
-157.72,13.15,-70.80,1888,-7658,2666,-1,-1,-1
-157.72,13.15,-70.81,1888,-7664,2665,-1,-1,-1
-157.72,13.16,-70.81,1892,-7674,2654,0,-1,-1
-157.71,13.16,-70.81,1890,-7662,2652,0,0,-1
-157.70,13.16,-70.80,1891,-7657,2672,-1,-1,-1
-157.70,13.16,-70.80,1891,-7659,2677,-1,0,-1
-157.70,13.17,-70.81,1894,-7665,2672,-1,-1,-1
-157.70,13.17,-70.81,1900,-7675,2668,0,0,-1
-157.70,13.17,-70.81,1897,-7678,2659,0,0,-1
-157.69,13.17,-70.81,1895,-7671,2661,0,0,-1
-157.68,13.18,-70.80,1894,-7668,2670,0,0,-1
-157.68,13.18,-70.80,1901,-7667,2681,-1,0,-1
-157.66,13.19,-70.79,1908,-7662,2674,-1,0,-1
-157.67,13.20,-70.80,1900,-7660,2669,-1,-1,-1
-157.66,13.20,-70.80,1907,-7658,2670,-1,0,-1
-157.66,13.20,-70.80,1900,-7663,2674,-1,-1,-1
-157.65,13.20,-70.80,1904,-7655,2670,-1,0,-1
-157.65,13.21,-70.80,1903,-7657,2661,0,0,-1
-157.65,13.21,-70.80,1910,-7671,2662,0,0,-1
-157.64,13.21,-70.79,1906,-7658,2671,0,0,-1
-157.64,13.21,-70.79,1892,-7657,2672,-1,0,-1
-157.64,13.21,-70.79,1894,-7651,2667,-1,-1,-1
-157.63,13.22,-70.79,1903,-7654,2668,-1,0,-1
-157.62,13.23,-70.79,1903,-7657,2670,0,0,-1
-157.62,13.22,-70.78,1902,-7666,2667,0,0,-1
-157.62,13.23,-70.78,1907,-7667,2681,0,0,-1
-157.61,13.23,-70.78,1906,-7666,2682,-1,0,-1
-157.61,13.23,-70.78,1909,-7659,2689,-1,0,-1
-157.61,13.23,-70.79,1916,-7660,2671,-1,0,-1
-157.60,13.24,-70.79,1918,-7664,2673,-1,0,-1
-157.60,13.24,-70.80,1921,-7668,2673,-1,0,-1
-157.60,13.24,-70.80,1917,-7662,2662,-1,0,-1
-157.59,13.25,-70.80,1915,-7668,2662,0,0,-1
-157.58,13.25,-70.79,1912,-7658,2659,0,0,-1
-157.58,13.25,-70.79,1908,-7653,2666,-1,0,-1
-157.58,13.25,-70.79,1913,-7654,2666,0,0,-1
-157.58,13.25,-70.79,1910,-7655,2669,-1,0,-1
-157.57,13.26,-70.79,1913,-7655,2674,-1,0,-1
-157.56,13.26,-70.79,1918,-7662,2679,-1,0,-1
-157.56,13.26,-70.79,1912,-7664,2673,-1,0,-1
-157.56,13.27,-70.79,1914,-7662,2667,-1,0,-1
-157.55,13.27,-70.79,1924,-7654,2667,-1,0,-1
-157.55,13.28,-70.80,1914,-7658,2664,-1,0,-1
-157.55,13.28,-70.80,1913,-7657,2669,-1,0,-1
-157.55,13.28,-70.80,1916,-7667,2669,-1,0,-1
-157.54,13.28,-70.79,1914,-7665,2669,-1,0,-1
-157.54,13.28,-70.79,1910,-7665,2670,-1,0,-1
-157.53,13.29,-70.79,1914,-7661,2663,0,0,-1
-157.54,13.29,-70.80,1916,-7661,2669,0,0,-1
-157.54,13.29,-70.80,1916,-7659,2668,-1,0,-1
-157.54,13.28,-70.80,1915,-7658,2661,-1,0,0
-157.54,13.29,-70.81,1912,-7668,2648,-1,-1,-1
-157.54,13.29,-70.81,1914,-7674,2651,0,-1,-1
-157.53,13.29,-70.80,1927,-7658,2664,0,-1,0
-157.53,13.29,-70.80,1918,-7644,2677,-1,-1,0
-157.54,13.29,-70.80,1909,-7644,2678,-1,-1,0
-157.54,13.29,-70.80,1917,-7656,2674,-1,-1,0
-157.55,13.28,-70.81,1921,-7676,2658,0,-1,0
-157.55,13.28,-70.81,1913,-7670,2665,0,0,0
-157.55,13.27,-70.81,1907,-7672,2662,0,0,-1
-157.54,13.28,-70.79,1909,-7653,2676,0,-1,-1
-157.54,13.28,-70.80,1912,-7651,2675,0,-1,0
-157.54,13.28,-70.80,1917,-7660,2677,-1,-1,0
-157.55,13.27,-70.80,1915,-7663,2673,0,-1,0
-157.55,13.27,-70.80,1922,-7662,2673,0,-1,0
-157.56,13.27,-70.80,1921,-7655,2667,-1,-1,0
-157.57,13.27,-70.81,1911,-7653,2661,0,-1,0
-157.57,13.26,-70.80,1903,-7659,2659,0,-1,0
-157.57,13.26,-70.80,1909,-7666,2659,0,-1,0
-157.58,13.25,-70.79,1915,-7663,2657,0,-1,0
-157.57,13.25,-70.79,1915,-7656,2664,0,-1,0
-157.58,13.25,-70.78,1910,-7662,2662,0,-1,0
-157.58,13.25,-70.77,1904,-7658,2672,0,0,0
-157.58,13.24,-70.77,1899,-7659,2673,0,-1,0
-157.58,13.24,-70.76,1905,-7654,2684,0,-1,0
-157.59,13.23,-70.76,1901,-7648,2682,0,0,0
-157.59,13.23,-70.76,1895,-7647,2692,-1,-1,0
-157.59,13.23,-70.77,1901,-7650,2672,-1,-1,0
-157.60,13.23,-70.77,1907,-7645,2678,-1,-1,0
-157.61,13.22,-70.78,1904,-7657,2673,-1,-1,0
-157.62,13.22,-70.78,1903,-7660,2662,-1,-1,0
-157.63,13.21,-70.78,1901,-7660,2663,-1,-1,-1
-157.63,13.21,-70.78,1907,-7659,2653,0,-1,0
-157.63,13.21,-70.78,1902,-7656,2661,0,0,0
-157.63,13.21,-70.79,1896,-7669,2679,-1,0,0
-157.63,13.21,-70.79,1899,-7671,2669,0,0,0
-157.64,13.20,-70.79,1894,-7662,2670,-1,-1,0
-157.64,13.20,-70.79,1896,-7658,2674,0,-1,0
-157.64,13.20,-70.79,1896,-7660,2676,-1,-1,0
-157.64,13.20,-70.79,1912,-7663,2680,-1,-1,0
-157.64,13.20,-70.79,1904,-7670,2670,-1,-1,0
-157.65,13.19,-70.79,1902,-7666,2666,-1,-1,0
-157.66,13.19,-70.80,1898,-7661,2661,-1,-1,0
-157.66,13.19,-70.80,1902,-7670,2668,-1,-1,0
-157.66,13.19,-70.80,1899,-7668,2667,0,-1,0
-157.67,13.18,-70.80,1905,-7667,2667,0,-1,0
-157.67,13.18,-70.80,1895,-7670,2662,0,-1,0
-157.67,13.17,-70.79,1901,-7667,2676,0,-1,0
-157.68,13.17,-70.78,1907,-7659,2677,0,-1,0
-157.68,13.17,-70.79,1895,-7656,2659,-1,-1,0
-157.69,13.17,-70.79,1903,-7662,2656,-1,-1,0
-157.69,13.16,-70.79,1891,-7674,2649,0,-1,0
-157.69,13.17,-70.78,1909,-7669,2662,0,-1,0
-157.69,13.16,-70.78,1908,-7662,2672,-1,0,0
-157.70,13.15,-70.78,1899,-7664,2665,0,-1,0
-157.71,13.15,-70.78,1898,-7673,2665,-1,-1,0
-157.71,13.14,-70.78,1883,-7681,2651,0,-1,0
-157.71,13.14,-70.77,1887,-7674,2665,0,0,0
-157.72,13.13,-70.76,1895,-7673,2648,0,-1,0
-157.71,13.13,-70.74,1919,-7663,2681,0,0,0
-157.71,13.12,-70.73,1886,-7662,2682,0,0,0
-157.71,13.12,-70.73,1886,-7638,2702,-1,-1,-1
-157.71,13.13,-70.74,1907,-7660,2657,0,0,0
-157.72,13.12,-70.73,1905,-7664,2689,-1,-1,0
-157.73,13.11,-70.74,1896,-7656,2680,0,0,0
-157.74,13.10,-70.74,1877,-7659,2683,-1,-1,0
-157.74,13.10,-70.74,1883,-7671,2689,-1,-1,0
-157.75,13.09,-70.74,1894,-7664,2665,0,-1,0
-157.76,13.09,-70.75,1893,-7668,2673,-1,-1,0
-157.76,13.08,-70.75,1877,-7665,2663,-1,0,0
-157.77,13.08,-70.74,1895,-7658,2683,0,-1,0
-157.78,13.07,-70.75,1870,-7663,2668,0,0,0
-157.78,13.07,-70.75,1882,-7668,2662,0,0,0
-157.78,13.07,-70.74,1892,-7673,2685,0,-1,0
-157.79,13.07,-70.74,1877,-7668,2671,0,0,0
-157.78,13.06,-70.73,1878,-7649,2693,-1,-1,0
-157.79,13.06,-70.74,1875,-7658,2680,-1,-1,0
-157.80,13.06,-70.74,1885,-7655,2677,-1,-1,0
-157.80,13.05,-70.76,1894,-7672,2671,-1,-1,0
-157.81,13.05,-70.76,1873,-7666,2670,-1,-1,-1
-157.81,13.05,-70.76,1886,-7656,2657,0,0,-1
-157.81,13.05,-70.76,1883,-7672,2667,-1,0,0
-157.81,13.05,-70.76,1881,-7666,2673,-1,0,-1
-157.81,13.05,-70.76,1877,-7659,2674,-1,0,0
-157.82,13.05,-70.77,1875,-7661,2663,-1,0,-1
-157.82,13.05,-70.77,1874,-7668,2667,-1,0,-1
-157.81,13.05,-70.78,1886,-7674,2663,-1,0,-1
-157.81,13.05,-70.78,1895,-7674,2670,-1,-1,0
-157.82,13.04,-70.78,1889,-7663,2672,0,-1,0
-157.82,13.04,-70.78,1888,-7654,2682,-1,-1,0
-157.83,13.04,-70.79,1886,-7663,2680,-1,0,0
-157.83,13.04,-70.79,1881,-7661,2677,-1,-1,0
-157.84,13.04,-70.79,1873,-7656,2672,0,-1,0
-157.84,13.03,-70.79,1870,-7662,2678,-1,-1,0
-157.84,13.03,-70.80,1865,-7661,2678,-1,-1,-1
-157.84,13.04,-70.81,1874,-7667,2667,-1,-1,-1
-157.84,13.04,-70.81,1889,-7668,2669,-1,-1,-1
-157.84,13.04,-70.81,1892,-7663,2675,-1,0,0
-157.84,13.04,-70.81,1887,-7667,2679,-1,-1,0
-157.85,13.04,-70.82,1884,-7678,2667,-1,-1,0
-157.85,13.04,-70.82,1883,-7687,2663,0,-1,-1
-157.85,13.04,-70.82,1883,-7687,2666,0,-1,-1
-157.85,13.04,-70.81,1888,-7675,2664,0,0,-1
-157.84,13.04,-70.81,1879,-7679,2672,0,-1,-1
-157.84,13.04,-70.81,1874,-7672,2675,-1,0,-1
-157.84,13.04,-70.81,1873,-7669,2667,0,-1,-1
-157.84,13.04,-70.81,1875,-7673,2676,-1,-1,-1
-157.83,13.05,-70.81,1875,-7672,2669,0,-1,-1
-157.83,13.05,-70.81,1893,-7669,2669,-1,0,-1
-157.84,13.05,-70.82,1889,-7667,2662,0,-1,0
-157.84,13.05,-70.82,1878,-7667,2663,0,-1,-1
-157.83,13.05,-70.81,1879,-7667,2671,-1,-1,-1
-157.84,13.05,-70.82,1879,-7668,2672,0,0,-1
-157.84,13.05,-70.82,1873,-7661,2676,-1,-1,-1
-157.83,13.06,-70.83,1882,-7677,2660,-1,0,-1
-157.83,13.07,-70.84,1887,-7685,2643,-1,-1,-1
-157.82,13.07,-70.84,1896,-7687,2651,0,0,-1
-157.82,13.07,-70.82,1884,-7681,2657,0,0,-1
-157.81,13.07,-70.81,1884,-7664,2678,0,0,-1
-157.80,13.08,-70.80,1888,-7649,2686,-1,-1,-1
-157.80,13.08,-70.80,1888,-7648,2674,-1,0,0
-157.80,13.08,-70.81,1890,-7668,2678,-1,-1,-1
-157.80,13.08,-70.80,1886,-7676,2671,0,0,-1
-157.80,13.08,-70.80,1883,-7682,2663,0,0,-1
-157.80,13.08,-70.80,1884,-7677,2660,0,-1,-1
-157.80,13.08,-70.80,1883,-7673,2665,0,-1,-1
-157.80,13.08,-70.79,1883,-7664,2670,0,-1,-1
-157.80,13.08,-70.80,1893,-7672,2672,-1,-1,0
-157.79,13.08,-70.79,1888,-7674,2677,0,0,-1
-157.79,13.08,-70.80,1879,-7678,2671,-1,0,-1
-157.79,13.09,-70.80,1879,-7663,2665,-1,0,-1
-157.79,13.09,-70.80,1879,-7662,2662,-1,-1,-1
-157.79,13.09,-70.81,1885,-7666,2663,-1,0,-1
-157.79,13.09,-70.81,1884,-7670,2658,0,0,-1
-157.78,13.09,-70.80,1891,-7666,2671,0,0,-1
-157.78,13.10,-70.80,1887,-7660,2684,-1,0,-1
-157.78,13.10,-70.81,1879,-7651,2677,-1,-1,0
-157.78,13.09,-70.81,1880,-7651,2683,-1,-1,0
-157.79,13.10,-70.82,1903,-7686,2650,-1,-1,-1
-157.78,13.10,-70.82,1902,-7681,2644,0,0,-1
-157.77,13.10,-70.81,1889,-7662,2673,0,0,0
-157.77,13.10,-70.80,1887,-7646,2693,-1,-1,0
-157.78,13.10,-70.81,1881,-7662,2677,-1,-1,-1
-157.78,13.10,-70.82,1889,-7683,2664,0,0,-1
-157.78,13.10,-70.82,1896,-7680,2656,0,0,-1
-157.77,13.10,-70.81,1879,-7672,2666,0,-1,-1
-157.77,13.10,-70.80,1880,-7667,2685,0,0,-1
-157.76,13.11,-70.80,1883,-7663,2681,-1,-1,-1
-157.76,13.11,-70.80,1894,-7663,2688,-1,0,-1
-157.76,13.11,-70.80,1896,-7671,2670,-1,0,-1
-157.76,13.11,-70.80,1890,-7667,2670,-1,-1,-1
-157.76,13.11,-70.80,1880,-7663,2670,-1,-1,0
-157.77,13.11,-70.81,1888,-7656,2662,-1,0,0
-157.77,13.11,-70.81,1895,-7665,2659,-1,0,-1
-157.77,13.11,-70.81,1890,-7675,2668,0,0,-1
-157.77,13.11,-70.81,1894,-7669,2677,-1,-1,0
-157.76,13.11,-70.81,1894,-7663,2669,-1,-1,-1
-157.77,13.11,-70.81,1892,-7664,2651,0,0,-1
-157.76,13.11,-70.81,1900,-7667,2664,-1,0,-1
-157.75,13.12,-70.81,1902,-7679,2657,0,0,-1
-157.75,13.12,-70.80,1887,-7669,2671,-1,-1,-1
-157.75,13.11,-70.81,1877,-7671,2666,0,0,-1
-157.74,13.12,-70.80,1889,-7669,2674,-1,-1,-1
-157.75,13.12,-70.81,1898,-7667,2664,-1,0,-1
-157.75,13.12,-70.81,1904,-7664,2665,0,-1,0
-157.75,13.12,-70.81,1902,-7669,2664,-1,-1,0
-157.75,13.12,-70.81,1895,-7663,2658,0,-1,-1
-157.75,13.12,-70.81,1898,-7670,2660,-1,-1,-1
-157.74,13.13,-70.80,1899,-7673,2657,0,0,-1
-157.74,13.13,-70.80,1896,-7666,2660,0,-1,-1
-157.73,13.14,-70.80,1894,-7664,2669,0,-1,-1
-157.72,13.14,-70.79,1898,-7669,2678,-1,0,-1
-157.72,13.14,-70.79,1891,-7677,2678,-1,-1,-1
-157.72,13.15,-70.79,1896,-7677,2675,0,0,-1
-157.72,13.15,-70.79,1897,-7673,2676,-1,-1,-1
-157.72,13.15,-70.80,1893,-7668,2658,0,-1,-1
-157.71,13.15,-70.80,1895,-7667,2663,0,-1,-1
-157.71,13.16,-70.80,1901,-7662,2668,-1,-1,-1
-157.71,13.16,-70.80,1899,-7667,2663,0,-1,-1
-157.70,13.16,-70.79,1904,-7664,2676,0,0,-1
-157.70,13.17,-70.79,1899,-7652,2674,-1,0,-1
-157.70,13.16,-70.80,1896,-7652,2675,-1,-1,-1
-157.70,13.17,-70.80,1903,-7669,2661,-1,0,-1
-157.69,13.18,-70.80,1907,-7676,2660,0,0,-1
-157.68,13.18,-70.80,1906,-7658,2672,0,0,-1
-157.67,13.18,-70.79,1905,-7645,2681,-1,-1,0
-157.68,13.18,-70.80,1905,-7653,2672,-1,0,-1
-157.68,13.18,-70.80,1892,-7676,2672,-1,0,-1
-157.68,13.18,-70.81,1897,-7677,2661,0,0,-1
-157.67,13.18,-70.80,1885,-7679,2652,0,0,-1
-157.67,13.18,-70.80,1881,-7673,2664,0,0,-1
-157.66,13.19,-70.79,1885,-7664,2670,0,0,-1
-157.65,13.20,-70.80,1896,-7659,2679,-1,0,-1
-157.64,13.20,-70.79,1901,-7668,2675,-1,0,-1
-157.64,13.21,-70.80,1903,-7671,2669,-1,-1,-1
-157.64,13.20,-70.80,1898,-7663,2675,-1,0,-1
-157.64,13.20,-70.80,1901,-7665,2675,-1,0,-1
-157.63,13.22,-70.80,1901,-7661,2668,-1,-1,-1
-157.63,13.22,-70.80,1907,-7667,2667,0,0,-1
-157.62,13.22,-70.80,1906,-7669,2670,0,0,-1
-157.62,13.22,-70.79,1908,-7667,2670,0,0,-1
-157.62,13.22,-70.80,1901,-7665,2662,-1,0,-1
-157.61,13.23,-70.80,1904,-7665,2659,-1,0,-1
-157.61,13.23,-70.80,1908,-7665,2656,0,0,-1
-157.61,13.23,-70.80,1906,-7666,2656,0,0,-1
-157.60,13.24,-70.79,1908,-7666,2668,0,0,-1
-157.60,13.24,-70.79,1904,-7665,2674,-1,0,-1
-157.59,13.25,-70.79,1902,-7660,2674,-1,-1,-1
-157.58,13.25,-70.79,1906,-7658,2674,-1,0,-1
-157.58,13.24,-70.79,1905,-7661,2675,-1,0,-1
-157.59,13.25,-70.79,1914,-7661,2672,-1,0,-1
-157.58,13.25,-70.80,1915,-7664,2663,-1,0,-1
-157.58,13.25,-70.80,1905,-7663,2662,-1,0,-1
-157.58,13.25,-70.80,1908,-7658,2655,0,-1,-1
-157.57,13.26,-70.80,1916,-7651,2654,0,0,-1
-157.56,13.26,-70.80,1910,-7659,2651,-1,0,-1
-157.56,13.26,-70.79,1917,-7658,2668,0,0,-1
-157.55,13.27,-70.79,1909,-7662,2666,-1,0,-1
-157.55,13.27,-70.79,1914,-7661,2677,-1,0,-1
-157.56,13.27,-70.80,1910,-7661,2658,-1,-1,-1
-157.56,13.27,-70.80,1911,-7663,2663,-1,0,-1
-157.56,13.26,-70.80,1913,-7668,2658,-1,0,-1
-157.55,13.27,-70.80,1915,-7658,2663,-1,0,0
-157.56,13.26,-70.80,1916,-7661,2656,0,-1,0
-157.56,13.26,-70.80,1916,-7660,2660,0,0,0
-157.56,13.26,-70.81,1916,-7660,2660,0,0,0
-157.57,13.26,-70.80,1916,-7660,2662,0,0,0
-157.56,13.26,-70.80,1911,-7653,2669,0,-1,0
-157.57,13.25,-70.80,1900,-7648,2676,-1,-1,0
-157.58,13.25,-70.81,1906,-7662,2669,-1,-1,0
-157.58,13.25,-70.81,1912,-7675,2663,0,-1,-1
-157.58,13.25,-70.80,1924,-7670,2667,0,-1,0
-157.58,13.24,-70.80,1919,-7651,2664,0,-1,0
-157.58,13.24,-70.80,1917,-7645,2672,-1,-1,0
-157.60,13.24,-70.81,1914,-7654,2670,-1,-1,0
-157.61,13.23,-70.81,1917,-7673,2657,-1,-1,0
-157.61,13.23,-70.82,1915,-7672,2647,0,-1,0
-157.62,13.22,-70.81,1910,-7666,2658,0,0,0
-157.61,13.23,-70.81,1906,-7660,2658,0,-1,-1
-157.61,13.23,-70.80,1906,-7656,2681,0,-1,-1
-157.61,13.23,-70.80,1918,-7652,2677,-1,-1,0
-157.61,13.23,-70.80,1924,-7657,2678,-1,-1,0
-157.62,13.22,-70.80,1917,-7669,2685,-1,-1,0
-157.62,13.22,-70.80,1921,-7665,2689,0,0,0
-157.62,13.22,-70.81,1917,-7663,2670,-1,-1,0
-157.63,13.22,-70.81,1919,-7656,2661,-1,-1,0
-157.64,13.21,-70.81,1909,-7665,2659,0,-1,0
-157.64,13.21,-70.81,1904,-7672,2672,0,-1,0
-157.65,13.20,-70.81,1904,-7666,2670,0,-1,0
-157.65,13.20,-70.81,1901,-7662,2666,0,-1,0
-157.66,13.19,-70.81,1914,-7666,2663,0,-1,0
-157.66,13.19,-70.81,1915,-7662,2668,0,0,0
-157.66,13.19,-70.80,1908,-7662,2663,0,-1,0
-157.66,13.19,-70.79,1907,-7668,2674,0,-1,0
-157.66,13.19,-70.79,1909,-7656,2668,0,-1,0
-157.66,13.19,-70.80,1906,-7649,2674,-1,-1,0
-157.67,13.18,-70.80,1908,-7651,2673,-1,-1,0
-157.67,13.18,-70.80,1915,-7655,2669,-1,-1,0
-157.68,13.18,-70.81,1907,-7658,2664,-1,-1,0
-157.68,13.18,-70.81,1903,-7664,2672,-1,-1,0
-157.70,13.17,-70.82,1904,-7666,2662,0,-1,0
-157.70,13.17,-70.82,1903,-7663,2660,0,-1,0
-157.70,13.16,-70.82,1900,-7666,2663,0,0,0
-157.70,13.16,-70.81,1900,-7662,2674,0,-1,0
-157.71,13.16,-70.81,1906,-7660,2672,0,-1,0
-157.71,13.16,-70.81,1899,-7663,2663,-1,-1,0
-157.71,13.15,-70.81,1908,-7662,2666,0,-1,0
-157.71,13.15,-70.81,1902,-7662,2673,-1,-1,0
-157.72,13.14,-70.81,1901,-7655,2673,0,0,0
-157.73,13.14,-70.81,1898,-7662,2664,-1,-1,0
-157.74,13.14,-70.81,1893,-7659,2667,-1,-1,0
-157.74,13.14,-70.82,1898,-7665,2666,0,-1,0
-157.74,13.13,-70.81,1897,-7661,2673,0,-1,0
-157.74,13.13,-70.81,1900,-7660,2664,0,-1,0
-157.75,13.13,-70.81,1897,-7660,2668,0,-1,0
-157.76,13.12,-70.82,1890,-7655,2661,-1,-1,0
-157.77,13.11,-70.82,1890,-7659,2665,-1,-1,0
-157.78,13.11,-70.83,1890,-7663,2660,-1,-1,0
-157.77,13.11,-70.82,1895,-7670,2658,0,-1,0
-157.78,13.11,-70.82,1896,-7653,2657,0,-1,0
-157.78,13.10,-70.81,1899,-7643,2679,0,-1,0
-157.78,13.10,-70.81,1895,-7648,2673,-1,-1,0
-157.80,13.09,-70.82,1899,-7669,2661,-1,-1,0
-157.81,13.08,-70.83,1903,-7685,2652,0,-1,0
-157.81,13.08,-70.83,1896,-7681,2653,0,0,0
-157.81,13.08,-70.83,1889,-7670,2651,0,-1,0
-157.81,13.08,-70.83,1888,-7664,2646,0,-1,-1
-157.81,13.08,-70.82,1891,-7654,2656,-1,-1,0
-157.81,13.08,-70.82,1902,-7657,2660,0,-1,0
-157.82,13.07,-70.83,1899,-7667,2669,-1,-1,0
-157.82,13.07,-70.83,1899,-7669,2664,0,0,0
-157.83,13.06,-70.83,1888,-7663,2671,-1,-1,0
-157.84,13.06,-70.83,1890,-7674,2667,-1,-1,0
-157.85,13.06,-70.84,1893,-7680,2665,0,-1,0
-157.85,13.05,-70.83,1899,-7671,2667,0,-1,0
-157.86,13.05,-70.83,1895,-7671,2662,0,-1,0
-157.86,13.04,-70.83,1889,-7669,2663,-1,-1,0
-157.87,13.04,-70.83,1889,-7677,2652,0,-1,0
-157.87,13.04,-70.83,1891,-7683,2656,0,0,0
-157.87,13.04,-70.82,1884,-7671,2653,0,-1,0
-157.87,13.03,-70.82,1890,-7663,2656,0,-1,0
-157.87,13.04,-70.81,1891,-7663,2673,0,-1,0
-157.87,13.04,-70.81,1893,-7663,2669,0,-1,0
-157.87,13.03,-70.81,1897,-7661,2674,-1,-1,0
-157.88,13.03,-70.81,1895,-7659,2675,0,-1,0
-157.89,13.02,-70.81,1884,-7663,2673,0,-1,0
-157.89,13.02,-70.82,1885,-7657,2669,0,-1,0
-157.89,13.02,-70.82,1881,-7659,2669,-1,-1,0
-157.90,13.01,-70.81,1884,-7662,2662,0,-1,0
-157.91,13.00,-70.82,1878,-7667,2658,0,0,0
-157.91,13.00,-70.82,1883,-7661,2659,0,0,0
-157.91,13.00,-70.82,1885,-7670,2673,-1,-1,0
-157.91,13.00,-70.82,1883,-7675,2668,0,0,0
-157.92,13.00,-70.82,1886,-7677,2663,0,-1,0
-157.92,12.99,-70.81,1886,-7667,2678,0,-1,0
-157.92,13.00,-70.81,1889,-7671,2677,-1,-1,0
-157.92,13.00,-70.82,1889,-7668,2674,0,-1,0
-157.92,13.00,-70.82,1893,-7673,2678,0,0,0
-157.92,12.99,-70.81,1882,-7663,2680,-1,-1,0
-157.93,12.99,-70.81,1878,-7668,2682,-1,-1,0
-157.94,12.98,-70.83,1873,-7681,2666,-1,-1,-1
-157.94,12.99,-70.82,1888,-7681,2659,0,-1,-1
-157.94,12.99,-70.82,1891,-7677,2662,0,0,0
-157.93,12.99,-70.81,1889,-7661,2674,0,-1,0
-157.94,12.98,-70.82,1888,-7652,2673,-1,-1,0
-157.95,12.98,-70.82,1877,-7664,2665,-1,-1,0
-157.96,12.98,-70.83,1875,-7677,2659,0,-1,0
-157.96,12.97,-70.83,1874,-7678,2654,0,-1,0
-157.96,12.97,-70.82,1874,-7675,2666,0,-1,0
-157.96,12.97,-70.82,1871,-7667,2660,0,-1,-1
-157.96,12.98,-70.82,1880,-7665,2664,0,-1,-1
-157.96,12.98,-70.82,1884,-7667,2672,-1,-1,0
-157.96,12.98,-70.83,1883,-7662,2662,-1,-1,0
-157.96,12.98,-70.83,1887,-7673,2663,-1,-1,0
-157.96,12.98,-70.83,1886,-7656,2672,0,0,0
-157.96,12.98,-70.83,1883,-7675,2666,-1,-1,0
-157.96,12.98,-70.83,1888,-7672,2664,0,0,0
-157.96,12.98,-70.83,1884,-7669,2660,0,-1,0
-157.96,12.98,-70.83,1882,-7665,2670,-1,-1,-1
-157.96,12.98,-70.83,1882,-7665,2663,0,0,-1
-157.96,12.99,-70.84,1879,-7669,2652,0,0,-1
-157.96,12.99,-70.84,1880,-7674,2651,0,0,-1
-157.95,12.99,-70.83,1880,-7676,2647,0,-1,-1
-157.95,13.00,-70.83,1874,-7671,2662,0,-1,-1
-157.94,13.00,-70.82,1887,-7669,2674,0,-1,-1
-157.94,13.00,-70.82,1889,-7662,2666,-1,-1,-1
-157.94,13.01,-70.83,1885,-7655,2662,-1,0,0
-157.94,13.01,-70.83,1879,-7659,2661,-1,-1,-1
-157.94,13.01,-70.84,1883,-7669,2650,0,-1,-1
-157.94,13.01,-70.83,1891,-7671,2650,0,0,-1
-157.94,13.01,-70.83,1889,-7670,2659,0,-1,-1
-157.94,13.01,-70.83,1884,-7669,2650,0,-1,0
-157.94,13.01,-70.83,1881,-7671,2660,0,0,-1
-157.94,13.01,-70.83,1884,-7678,2664,0,0,-1
-157.94,13.01,-70.83,1882,-7678,2662,0,0,-1
-157.92,13.02,-70.83,1890,-7672,2665,0,0,-1
-157.92,13.02,-70.83,1890,-7665,2678,0,0,-1
-157.92,13.02,-70.83,1893,-7659,2677,-1,-1,0
-157.92,13.02,-70.83,1891,-7672,2673,-1,-1,-1
-157.93,13.02,-70.84,1894,-7678,2664,-1,-1,-1
-157.92,13.03,-70.84,1900,-7676,2659,0,0,-1
-157.91,13.04,-70.82,1891,-7663,2672,0,0,-1
-157.91,13.04,-70.82,1891,-7651,2675,-1,-1,0
-157.92,13.03,-70.83,1885,-7658,2668,-1,-1,0
-157.92,13.04,-70.83,1890,-7675,2658,-1,-1,-1
-157.92,13.03,-70.84,1879,-7684,2651,0,0,-1
-157.92,13.03,-70.83,1880,-7675,2658,0,0,-1
-157.92,13.03,-70.82,1884,-7662,2655,0,0,-1
-157.91,13.04,-70.82,1886,-7663,2671,0,0,-1
-157.90,13.04,-70.81,1901,-7663,2681,0,0,-1
-157.90,13.04,-70.81,1902,-7664,2679,-1,-1,0
-157.90,13.05,-70.82,1899,-7657,2680,-1,0,0
-157.90,13.05,-70.82,1892,-7664,2674,0,-1,-1
-157.89,13.05,-70.81,1897,-7665,2687,-1,0,0
-157.90,13.05,-70.82,1904,-7682,2665,-1,0,-1
-157.89,13.05,-70.83,1898,-7673,2664,-1,-1,0
-157.89,13.06,-70.83,1896,-7670,2660,0,0,-1
-157.89,13.06,-70.83,1893,-7667,2655,-1,0,-1
-157.88,13.06,-70.83,1898,-7671,2658,0,0,-1
-157.89,13.06,-70.83,1895,-7678,2649,0,0,-1
-157.88,13.06,-70.82,1899,-7671,2659,0,0,0
-157.88,13.07,-70.82,1890,-7664,2662,0,0,-1
-157.88,13.07,-70.81,1890,-7663,2673,0,0,-1
-157.87,13.07,-70.82,1900,-7670,2666,-1,0,-1
-157.87,13.07,-70.82,1904,-7665,2674,-1,-1,-1
-157.87,13.08,-70.82,1897,-7666,2668,-1,-1,-1
-157.87,13.08,-70.83,1897,-7666,2655,-1,-1,-1
-157.87,13.08,-70.84,1896,-7677,2645,-1,0,-1
-157.87,13.08,-70.84,1896,-7680,2650,0,-1,-1
-157.87,13.08,-70.84,1896,-7673,2652,0,-1,-1
-157.86,13.09,-70.83,1900,-7667,2648,0,0,-1
-157.86,13.09,-70.83,1894,-7667,2657,0,0,-1
-157.86,13.09,-70.83,1892,-7666,2666,0,0,-1
-157.86,13.09,-70.82,1893,-7666,2668,0,0,-1
-157.86,13.09,-70.82,1899,-7663,2668,-1,-1,-1
-157.86,13.09,-70.82,1896,-7666,2664,0,0,-1
-157.84,13.10,-70.82,1901,-7662,2673,0,0,-1
-157.84,13.10,-70.81,1897,-7660,2680,-1,0,0
-157.84,13.10,-70.82,1891,-7667,2680,-1,-1,0
-157.84,13.10,-70.83,1896,-7671,2668,-1,-1,-1
-157.85,13.10,-70.83,1897,-7677,2657,0,0,-1
-157.84,13.10,-70.83,1898,-7671,2654,0,0,-1
-157.83,13.11,-70.82,1905,-7652,2659,0,0,-1
-157.83,13.11,-70.82,1900,-7648,2666,-1,-1,0
-157.84,13.11,-70.83,1908,-7658,2656,0,0,-1
-157.84,13.11,-70.83,1899,-7677,2673,-1,0,-1
-157.83,13.11,-70.83,1900,-7681,2654,0,0,-1
-157.83,13.11,-70.82,1891,-7677,2653,0,0,-1
-157.82,13.12,-70.81,1890,-7663,2666,0,0,-1
-157.81,13.12,-70.81,1897,-7661,2668,-1,0,-1
-157.81,13.13,-70.82,1902,-7658,2670,-1,0,-1
-157.81,13.13,-70.82,1898,-7668,2663,-1,0,-1
-157.81,13.13,-70.83,1901,-7662,2651,-1,0,-1
-157.80,13.14,-70.82,1906,-7651,2663,-1,-1,-1
-157.80,13.14,-70.83,1900,-7657,2664,-1,-1,-1
-157.80,13.14,-70.83,1900,-7664,2649,0,0,-1
-157.79,13.15,-70.83,1907,-7668,2653,0,0,-1
-157.79,13.15,-70.83,1911,-7661,2666,0,0,-1
-157.79,13.15,-70.83,1903,-7663,2663,-1,0,-1
-157.79,13.16,-70.83,1906,-7671,2654,0,0,-1
-157.79,13.16,-70.83,1908,-7672,2651,0,0,-1
-157.78,13.16,-70.83,1912,-7655,2646,0,0,-1
-157.77,13.16,-70.82,1904,-7654,2659,0,0,-1
-157.77,13.16,-70.82,1902,-7656,2673,0,0,-1
-157.76,13.17,-70.82,1905,-7659,2682,-1,0,-1
-157.76,13.17,-70.82,1905,-7659,2681,-1,-1,-1
-157.76,13.17,-70.82,1906,-7663,2665,-1,-1,-1
-157.76,13.18,-70.83,1912,-7665,2658,-1,0,-1
-157.76,13.18,-70.83,1907,-7672,2662,-1,0,0
-157.76,13.18,-70.83,1909,-7672,2665,-1,0,-1
-157.76,13.18,-70.83,1909,-7669,2663,0,0,-1
-157.75,13.18,-70.83,1908,-7671,2672,0,0,-1
-157.75,13.18,-70.82,1907,-7669,2673,0,0,-1
-157.74,13.19,-70.82,1912,-7668,2672,0,0,-1
-157.74,13.19,-70.81,1901,-7664,2681,-1,0,-1
-157.73,13.19,-70.81,1910,-7665,2671,0,0,-1
-157.74,13.19,-70.82,1911,-7652,2658,-1,-1,-1
-157.74,13.19,-70.82,1904,-7654,2668,-1,0,-1
-157.74,13.19,-70.82,1907,-7659,2662,-1,0,-1
-157.73,13.20,-70.82,1909,-7660,2661,0,0,-1
-157.73,13.20,-70.83,1912,-7657,2660,-1,0,0
-157.73,13.20,-70.83,1910,-7665,2665,-1,-1,0
-157.74,13.19,-70.83,1904,-7671,2656,-1,-1,0
-157.74,13.19,-70.83,1913,-7670,2649,0,0,0
-157.74,13.19,-70.83,1912,-7668,2651,0,-1,0
-157.74,13.19,-70.83,1920,-7663,2649,0,-1,0
-157.74,13.19,-70.83,1920,-7667,2658,0,-1,0
-157.75,13.19,-70.82,1919,-7670,2667,0,-1,0
-157.75,13.18,-70.81,1920,-7663,2673,0,-1,0
-157.75,13.18,-70.81,1909,-7661,2680,-1,-1,0
-157.75,13.18,-70.81,1899,-7666,2653,0,0,0
-157.75,13.17,-70.80,1921,-7669,2673,0,0,0
-157.75,13.17,-70.79,1909,-7660,2664,0,0,0
-157.75,13.17,-70.78,1911,-7634,2684,0,0,0
-157.77,13.15,-70.78,1894,-7636,2678,-1,-1,0
-157.77,13.16,-70.79,1903,-7655,2677,-1,-1,0
-157.77,13.16,-70.80,1906,-7671,2660,-1,-1,0
-157.78,13.15,-70.80,1905,-7675,2642,0,0,0
-157.78,13.15,-70.80,1897,-7674,2643,0,0,0
-157.78,13.15,-70.79,1900,-7658,2660,0,-1,-1
-157.78,13.15,-70.79,1914,-7654,2674,-1,-1,0
-157.78,13.15,-70.80,1924,-7661,2677,-1,-1,0
-157.78,13.15,-70.80,1917,-7669,2677,-1,-1,0
-157.79,13.15,-70.80,1916,-7667,2670,0,0,0
-157.80,13.14,-70.80,1912,-7650,2669,-1,-1,0
-157.80,13.14,-70.81,1905,-7653,2666,-1,-1,0
-157.81,13.14,-70.81,1911,-7666,2657,0,-1,0
-157.81,13.14,-70.81,1915,-7671,2657,0,0,0
-157.81,13.14,-70.80,1904,-7658,2665,0,-1,0
-157.82,13.13,-70.81,1908,-7654,2665,0,-1,0
-157.82,13.13,-70.81,1903,-7668,2661,0,-1,0
-157.83,13.12,-70.81,1915,-7677,2660,0,-1,0
-157.83,13.12,-70.80,1903,-7673,2665,0,-1,0
-157.83,13.11,-70.79,1903,-7668,2671,0,-1,0
-157.84,13.11,-70.78,1893,-7664,2675,0,-1,0
-157.84,13.11,-70.78,1897,-7654,2685,-1,-1,0
-157.85,13.11,-70.79,1897,-7658,2666,-1,-1,0
-157.86,13.10,-70.80,1906,-7660,2667,-1,-1,0
-157.86,13.10,-70.80,1900,-7656,2660,-1,-1,0
-157.87,13.10,-70.81,1901,-7662,2671,-1,-1,0
-157.87,13.10,-70.81,1898,-7662,2671,0,0,0
-157.87,13.09,-70.81,1899,-7660,2668,-1,-1,0
-157.87,13.09,-70.81,1900,-7661,2661,0,-1,0
-157.88,13.09,-70.82,1902,-7661,2659,0,-1,0
-157.88,13.09,-70.82,1900,-7652,2661,0,-1,0
-157.88,13.09,-70.82,1902,-7659,2652,0,0,0
-157.89,13.09,-70.81,1896,-7667,2668,-1,0,0
-157.89,13.09,-70.82,1904,-7671,2663,0,0,0
-157.89,13.08,-70.82,1894,-7669,2669,-1,-1,0
-157.89,13.08,-70.83,1901,-7660,2658,0,-1,0
-157.90,13.08,-70.83,1899,-7657,2653,-1,-1,0
-157.91,13.08,-70.83,1896,-7663,2655,0,-1,0
-157.91,13.08,-70.83,1899,-7656,2657,0,-1,0
-157.92,13.07,-70.83,1891,-7664,2661,0,-1,0
-157.93,13.06,-70.83,1888,-7669,2658,-1,-1,0
-157.93,13.06,-70.84,1894,-7678,2654,0,-1,0
-157.93,13.06,-70.84,1901,-7668,2658,0,-1,0
-157.93,13.06,-70.83,1900,-7665,2665,0,-1,0
-157.94,13.05,-70.83,1893,-7666,2669,0,-1,0
-157.95,13.05,-70.84,1895,-7671,2674,-1,-1,0
-157.95,13.05,-70.84,1895,-7676,2667,0,-1,0
-157.95,13.05,-70.84,1905,-7678,2663,0,-1,0
-157.95,13.05,-70.83,1900,-7665,2663,0,-1,0
-157.95,13.05,-70.83,1900,-7654,2672,-1,-1,0
-157.96,13.04,-70.84,1888,-7663,2664,-1,-1,0
-157.97,13.04,-70.85,1881,-7679,2649,-1,-1,0
-157.98,13.03,-70.85,1884,-7689,2651,0,-1,0
-157.99,13.02,-70.85,1879,-7686,2653,0,0,0
-157.99,13.02,-70.84,1885,-7672,2652,0,-1,0
-157.98,13.02,-70.83,1879,-7667,2676,-1,-1,0
-157.99,13.02,-70.84,1882,-7659,2665,0,0,0
-157.99,13.02,-70.84,1892,-7664,2665,-1,-1,0
-157.99,13.02,-70.85,1894,-7661,2669,0,-1,0
-157.99,13.02,-70.85,1894,-7657,2665,0,-1,0
-158.00,13.01,-70.84,1887,-7659,2671,-1,-1,0
-158.01,13.01,-70.86,1882,-7668,2658,0,-1,0
-158.01,13.00,-70.85,1882,-7671,2655,0,-1,0
-158.02,13.00,-70.85,1883,-7670,2659,0,-1,0
-158.03,12.99,-70.85,1881,-7679,2658,0,-1,0
-158.03,12.99,-70.85,1893,-7680,2662,0,-1,0
-158.04,12.99,-70.85,1890,-7681,2656,0,0,0
-158.03,12.98,-70.84,1887,-7673,2663,0,-1,0
-158.04,12.98,-70.83,1886,-7666,2654,0,-1,0
-158.04,12.97,-70.82,1888,-7662,2677,0,0,0
-158.04,12.97,-70.82,1880,-7668,2676,0,-1,0
-158.04,12.97,-70.81,1877,-7659,2681,-1,-1,0
-158.04,12.97,-70.82,1884,-7666,2670,-1,-1,0
-158.05,12.97,-70.83,1882,-7673,2671,0,-1,0
-158.06,12.96,-70.83,1887,-7681,2662,0,-1,0
-158.06,12.96,-70.83,1885,-7667,2656,-1,-1,0
-158.07,12.96,-70.84,1883,-7666,2645,-1,-1,0
-158.07,12.96,-70.85,1886,-7674,2651,-1,0,0
-158.07,12.96,-70.85,1884,-7688,2659,0,0,0
-158.08,12.95,-70.84,1874,-7680,2657,0,0,0
-158.08,12.95,-70.84,1870,-7675,2663,0,0,0
-158.08,12.95,-70.84,1879,-7670,2654,-1,-1,0
-158.08,12.95,-70.85,1882,-7673,2663,0,0,0
-158.09,12.95,-70.85,1885,-7683,2659,0,-1,0
-158.09,12.95,-70.85,1880,-7676,2668,-1,-1,0
-158.09,12.95,-70.85,1870,-7671,2657,0,-1,0
-158.10,12.94,-70.85,1877,-7677,2663,-1,-1,0
-158.10,12.94,-70.86,1876,-7680,2658,0,-1,0
-158.10,12.94,-70.86,1879,-7677,2654,0,-1,0
-158.10,12.94,-70.85,1885,-7670,2656,0,-1,0
-158.11,12.94,-70.85,1871,-7666,2658,0,-1,0
-158.11,12.94,-70.85,1870,-7664,2669,-1,-1,0
-158.11,12.94,-70.85,1873,-7667,2664,0,-1,-1
-158.10,12.95,-70.84,1879,-7670,2669,0,-1,-1
-158.09,12.95,-70.83,1883,-7658,2669,0,0,-1
-158.09,12.95,-70.82,1886,-7645,2673,-1,-1,0
-158.09,12.95,-70.83,1877,-7647,2666,-1,-1,0
-158.10,12.95,-70.84,1878,-7662,2657,-1,-1,0
-158.10,12.95,-70.85,1882,-7685,2650,0,0,-1
-158.10,12.95,-70.84,1880,-7688,2652,0,-1,-1
-158.09,12.95,-70.84,1869,-7668,2663,0,0,-1
-158.08,12.96,-70.83,1880,-7662,2677,0,0,-1
-158.08,12.97,-70.83,1886,-7661,2676,0,0,-1
-158.07,12.97,-70.83,1895,-7667,2676,-1,0,0
-158.08,12.97,-70.84,1890,-7680,2678,-1,0,0
-158.08,12.97,-70.83,1875,-7673,2673,-1,-1,-1
-158.08,12.97,-70.84,1875,-7670,2662,0,-1,-1
-158.08,12.97,-70.84,1882,-7673,2649,-1,-1,-1
-158.08,12.97,-70.84,1886,-7670,2668,0,-1,0
-158.08,12.97,-70.84,1893,-7670,2665,0,0,0
-158.08,12.97,-70.84,1885,-7672,2678,-1,0,0
-158.08,12.97,-70.84,1875,-7674,2667,0,0,-1
-158.07,12.98,-70.84,1881,-7685,2652,-1,-1,-1
-158.07,12.99,-70.84,1888,-7674,2653,0,0,-1
-158.06,12.99,-70.84,1889,-7669,2653,0,0,-1
-158.05,12.99,-70.83,1889,-7664,2670,0,-1,-1
-158.05,12.99,-70.83,1887,-7666,2664,0,-1,-1
-158.05,13.00,-70.83,1891,-7660,2672,-1,-1,0
-158.05,13.00,-70.83,1895,-7662,2676,0,-1,-1
-158.05,13.00,-70.83,1893,-7658,2665,-1,-1,0
-158.05,13.00,-70.83,1889,-7661,2667,-1,-1,0
-158.05,13.00,-70.84,1887,-7665,2655,-1,-1,0
-158.06,13.00,-70.84,1891,-7674,2649,0,-1,0
-158.06,13.00,-70.84,1890,-7688,2644,0,-1,0
-158.06,13.00,-70.83,1879,-7679,2660,0,0,-1
-158.05,13.00,-70.82,1873,-7663,2670,0,0,-1
-158.05,13.00,-70.82,1882,-7660,2676,0,-1,-1
-158.05,13.00,-70.82,1885,-7665,2670,-1,-1,0
-158.04,13.01,-70.82,1888,-7677,2658,0,0,-1
-158.04,13.01,-70.81,1900,-7663,2667,0,0,-1
-158.03,13.01,-70.80,1881,-7653,2680,0,-1,-1
-158.03,13.01,-70.80,1881,-7646,2684,-1,-1,0
-158.04,13.01,-70.81,1883,-7671,2672,-1,-1,-1
-158.03,13.02,-70.81,1887,-7674,2667,0,0,-1
-158.03,13.01,-70.80,1888,-7673,2676,0,0,-1
-158.02,13.02,-70.79,1886,-7652,2687,0,-1,0
-158.03,13.01,-70.79,1887,-7659,2699,-1,-1,0
-158.03,13.01,-70.80,1887,-7665,2682,-1,-1,0
-158.03,13.01,-70.80,1895,-7672,2664,0,0,-1
-158.02,13.02,-70.80,1896,-7674,2668,-1,0,0
-158.02,13.02,-70.80,1894,-7672,2664,0,0,-1
-158.02,13.02,-70.79,1876,-7668,2663,0,-1,-1
-158.01,13.02,-70.79,1884,-7664,2674,0,0,-1
-158.01,13.03,-70.79,1889,-7668,2657,0,0,-1
-158.01,13.03,-70.79,1897,-7673,2660,-1,-1,0
-158.01,13.03,-70.79,1902,-7674,2670,0,0,0
-158.00,13.04,-70.79,1894,-7665,2672,-1,0,0
-158.01,13.03,-70.80,1889,-7660,2660,0,-1,-1
-158.00,13.04,-70.79,1891,-7663,2661,-1,0,-1
-158.00,13.04,-70.79,1894,-7670,2661,0,0,-1
-157.99,13.05,-70.79,1890,-7663,2666,0,0,-1
-157.98,13.05,-70.78,1888,-7663,2674,0,0,-1
-157.98,13.05,-70.78,1888,-7665,2661,-1,0,-1
-157.97,13.06,-70.78,1892,-7662,2662,0,0,-1
-157.97,13.06,-70.78,1891,-7667,2655,0,0,-1
-157.97,13.06,-70.78,1896,-7662,2673,0,0,-1
-157.96,13.07,-70.77,1890,-7659,2672,-1,-1,-1
-157.95,13.08,-70.78,1892,-7654,2665,0,0,-1
-157.95,13.08,-70.78,1895,-7657,2674,-1,0,-1
-157.94,13.09,-70.78,1892,-7662,2683,-1,-1,-1
-157.94,13.09,-70.79,1900,-7661,2662,-1,0,-1
-157.94,13.09,-70.79,1895,-7655,2662,-1,0,-1
-157.94,13.09,-70.79,1889,-7661,2664,-1,0,-1
-157.93,13.10,-70.79,1899,-7662,2659,0,0,-1
-157.92,13.10,-70.78,1892,-7660,2669,0,0,-1
-157.91,13.11,-70.79,1895,-7661,2671,-1,0,-1
-157.91,13.12,-70.78,1896,-7663,2673,-1,0,-1
-157.91,13.12,-70.78,1896,-7658,2677,0,0,-1
-157.90,13.12,-70.78,1894,-7657,2688,-1,0,-1
-157.89,13.12,-70.77,1896,-7663,2677,0,0,-1
-157.89,13.13,-70.77,1890,-7670,2687,-1,0,-1
-157.88,13.13,-70.78,1893,-7674,2663,0,0,-1
-157.88,13.13,-70.78,1897,-7669,2667,-1,-1,-1
-157.88,13.14,-70.79,1901,-7667,2661,-1,0,-1
-157.88,13.14,-70.80,1904,-7672,2652,-1,0,-1
-157.87,13.15,-70.80,1916,-7671,2652,0,0,-1
-157.86,13.15,-70.79,1911,-7664,2668,0,0,-1
-157.85,13.16,-70.78,1912,-7645,2685,-1,0,0
-157.85,13.16,-70.78,1908,-7645,2677,-1,0,-1
-157.86,13.16,-70.79,1905,-7665,2660,-1,0,-1
-157.85,13.16,-70.79,1898,-7674,2663,-1,0,-1
-157.84,13.17,-70.80,1897,-7673,2659,0,0,-1
-157.84,13.17,-70.79,1893,-7669,2660,0,0,-1
-157.83,13.17,-70.78,1896,-7660,2672,0,0,-1
-157.82,13.18,-70.78,1899,-7656,2690,-1,0,-1
-157.82,13.18,-70.79,1905,-7660,2679,-1,0,-1
-157.81,13.19,-70.79,1904,-7662,2677,-1,0,-1
-157.81,13.19,-70.79,1907,-7659,2671,-1,0,-1
-157.82,13.19,-70.80,1915,-7658,2660,-1,0,0
-157.82,13.19,-70.80,1909,-7658,2665,-1,0,0
-157.82,13.19,-70.80,1907,-7664,2672,-1,0,-1
-157.81,13.20,-70.80,1903,-7659,2667,0,0,-1
-157.81,13.20,-70.80,1906,-7659,2668,-1,0,0
-157.81,13.20,-70.80,1909,-7661,2662,-1,0,-1
-157.80,13.20,-70.79,1908,-7661,2670,-1,0,-1
-157.80,13.20,-70.79,1911,-7660,2673,0,0,-1
-157.80,13.20,-70.79,1901,-7657,2671,0,0,-1
-157.79,13.21,-70.78,1899,-7662,2674,-1,0,-1
-157.79,13.21,-70.79,1902,-7663,2669,0,0,-1
-157.78,13.21,-70.79,1905,-7659,2659,0,0,-1
-157.78,13.22,-70.79,1915,-7658,2671,-1,0,-1
-157.78,13.22,-70.79,1911,-7666,2671,-1,0,-1
-157.78,13.21,-70.80,1911,-7658,2663,-1,-1,0
-157.79,13.21,-70.80,1917,-7675,2646,0,0,0
-157.79,13.21,-70.81,1913,-7673,2646,-1,-1,0
-157.79,13.21,-70.80,1913,-7673,2650,0,0,0
-157.79,13.21,-70.80,1915,-7667,2661,0,0,0
-157.79,13.21,-70.79,1910,-7660,2672,0,0,0
-157.80,13.20,-70.80,1897,-7657,2683,-1,-1,0
-157.80,13.20,-70.80,1903,-7664,2678,0,0,0
-157.80,13.20,-70.80,1903,-7662,2682,-1,-1,0
-157.80,13.19,-70.79,1898,-7653,2674,0,-1,0
-157.80,13.19,-70.79,1906,-7648,2675,-1,-1,0
-157.81,13.19,-70.80,1912,-7653,2671,-1,-1,0
-157.81,13.19,-70.81,1909,-7657,2674,-1,-1,0
-157.81,13.19,-70.81,1916,-7658,2661,-1,-1,0
-157.82,13.19,-70.81,1907,-7656,2668,-1,-1,0
-157.82,13.19,-70.81,1906,-7658,2655,-1,-1,0
-157.82,13.19,-70.81,1913,-7664,2661,0,-1,0
-157.82,13.19,-70.81,1911,-7666,2664,0,0,0
-157.82,13.19,-70.81,1910,-7659,2675,-1,-1,0
-157.83,13.18,-70.82,1900,-7665,2677,-1,-1,0
-157.84,13.18,-70.82,1895,-7668,2665,-1,-1,0
-157.84,13.18,-70.82,1905,-7666,2660,0,-1,-1
-157.84,13.18,-70.81,1912,-7653,2667,0,0,0
-157.84,13.18,-70.81,1914,-7655,2666,-1,-1,0
-157.84,13.18,-70.81,1910,-7660,2670,0,0,0
-157.85,13.17,-70.82,1911,-7671,2660,0,0,0
-157.84,13.17,-70.81,1900,-7666,2671,0,-1,0
-157.85,13.16,-70.81,1896,-7666,2665,0,-1,0
-157.85,13.16,-70.81,1895,-7659,2659,-1,-1,0
-157.85,13.16,-70.80,1900,-7656,2655,0,0,-1
-157.85,13.16,-70.80,1912,-7655,2666,0,0,0
-157.85,13.16,-70.80,1903,-7657,2683,-1,-1,0
-157.86,13.16,-70.80,1906,-7658,2683,-1,-1,0
-157.86,13.16,-70.81,1909,-7663,2675,-1,-1,0
-157.87,13.15,-70.81,1902,-7655,2675,-1,-1,0
-157.88,13.14,-70.82,1895,-7655,2666,-1,-1,0
-157.88,13.15,-70.83,1897,-7664,2654,-1,-1,0
-157.89,13.14,-70.83,1905,-7669,2658,0,-1,0
-157.89,13.14,-70.82,1897,-7667,2662,0,0,0
-157.89,13.14,-70.82,1894,-7663,2667,-1,-1,0
-157.89,13.14,-70.83,1899,-7665,2672,-1,-1,0
-157.89,13.14,-70.83,1904,-7666,2669,0,0,0
-157.90,13.13,-70.83,1898,-7667,2677,0,0,0
-157.90,13.13,-70.82,1892,-7660,2682,0,0,0
-157.90,13.13,-70.82,1879,-7658,2680,-1,-1,0
-157.91,13.12,-70.82,1886,-7658,2681,-1,-1,0
-157.91,13.12,-70.82,1892,-7660,2676,-1,-1,0
-157.92,13.12,-70.83,1901,-7666,2662,-1,-1,0
-157.92,13.11,-70.83,1892,-7671,2669,-1,-1,0
-157.93,13.11,-70.84,1894,-7673,2669,0,0,0
-157.93,13.11,-70.84,1890,-7661,2662,-1,-1,0
-157.94,13.11,-70.84,1893,-7665,2656,0,0,0
-157.94,13.10,-70.84,1895,-7670,2648,0,0,0
-157.94,13.10,-70.84,1896,-7666,2655,0,0,0
-157.94,13.10,-70.83,1899,-7668,2663,0,-1,0
-157.94,13.10,-70.83,1901,-7662,2673,0,0,0
-157.94,13.09,-70.83,1894,-7659,2675,-1,-1,0
-157.94,13.10,-70.83,1895,-7667,2677,-1,-1,0
-157.94,13.10,-70.83,1891,-7668,2672,-1,-1,0
-157.95,13.09,-70.83,1891,-7671,2660,-1,-1,0
-157.95,13.09,-70.83,1895,-7667,2665,-1,-1,0
-157.96,13.09,-70.84,1887,-7661,2664,-1,-1,0
-157.96,13.09,-70.84,1889,-7660,2671,-1,-1,0
-157.97,13.08,-70.84,1891,-7667,2664,-1,-1,0
-157.97,13.08,-70.84,1900,-7672,2654,-1,-1,0
-157.98,13.08,-70.84,1898,-7673,2652,0,0,0
-157.98,13.08,-70.84,1892,-7666,2659,0,-1,0
-157.99,13.07,-70.85,1887,-7669,2668,-1,0,0
-157.99,13.06,-70.86,1878,-7679,2664,-1,-1,0
-157.99,13.06,-70.86,1889,-7674,2665,0,-1,-1
-157.99,13.07,-70.84,1895,-7665,2670,0,-1,0
-157.99,13.06,-70.83,1889,-7647,2679,0,0,0
-158.00,13.06,-70.84,1897,-7662,2687,-1,-1,0
-158.01,13.05,-70.84,1890,-7677,2673,0,0,0
-158.02,13.04,-70.85,1885,-7685,2648,-1,-1,0
-158.02,13.04,-70.84,1881,-7681,2663,0,0,0
-158.02,13.03,-70.84,1885,-7670,2651,0,0,0
-158.02,13.03,-70.83,1863,-7658,2675,0,-1,-1
-158.01,13.03,-70.81,1887,-7656,2685,0,0,0
-158.01,13.03,-70.81,1887,-7657,2677,-1,-1,0
-158.03,13.02,-70.82,1881,-7667,2674,-1,-1,0
-158.03,13.02,-70.82,1887,-7660,2681,-1,-1,0
-158.04,13.01,-70.83,1880,-7657,2676,-1,-1,0
-158.04,13.01,-70.83,1883,-7662,2670,-1,0,0
-158.05,13.01,-70.84,1875,-7667,2644,0,-1,0
-158.05,13.01,-70.84,1885,-7664,2655,-1,-1,0
-158.06,13.01,-70.85,1880,-7661,2658,-1,-1,0
-158.06,13.01,-70.85,1881,-7662,2669,-1,0,0
-158.07,13.00,-70.85,1875,-7670,2657,-1,-1,0
-158.07,13.00,-70.85,1883,-7672,2653,0,0,0
-158.07,13.00,-70.85,1874,-7671,2652,0,0,0
-158.07,12.99,-70.84,1871,-7670,2663,0,-1,-1
-158.07,12.99,-70.84,1879,-7664,2673,-1,-1,0
-158.07,12.99,-70.85,1874,-7665,2677,0,0,0
-158.07,12.99,-70.85,1879,-7671,2681,-1,0,0
-158.08,12.99,-70.86,1881,-7676,2678,-1,0,0
-158.09,12.98,-70.86,1873,-7673,2668,-1,-1,0
-158.09,12.98,-70.87,1864,-7677,2655,-1,-1,0
-158.10,12.98,-70.87,1869,-7674,2661,0,-1,-1
-158.09,12.98,-70.87,1875,-7669,2661,0,0,0
-158.09,12.98,-70.87,1870,-7669,2669,-1,0,0
-158.10,12.98,-70.87,1873,-7681,2671,0,-1,0
-158.10,12.97,-70.86,1876,-7674,2662,0,0,-1
-158.09,12.98,-70.86,1877,-7667,2678,0,0,-1
-158.09,12.98,-70.85,1875,-7667,2676,0,0,-1
-158.09,12.98,-70.85,1878,-7663,2681,0,-1,0
-158.09,12.98,-70.85,1872,-7668,2670,0,0,-1
-158.08,12.98,-70.85,1871,-7676,2671,-1,-1,-1
-158.08,12.99,-70.85,1868,-7674,2669,-1,-1,-1
-158.08,12.99,-70.85,1874,-7677,2659,0,-1,-1
-158.08,12.99,-70.84,1876,-7665,2665,0,0,-1
-158.08,12.99,-70.84,1871,-7663,2665,0,-1,0
-158.08,12.99,-70.84,1874,-7659,2670,-1,-1,-1
-158.08,12.99,-70.85,1871,-7681,2658,-1,-1,-1
-158.07,13.00,-70.85,1884,-7683,2669,0,-1,-1
-158.06,13.00,-70.83,1883,-7665,2669,0,0,-1
-158.06,13.00,-70.83,1880,-7648,2670,-1,0,0
-158.06,13.01,-70.84,1874,-7663,2658,-1,-1,-1
-158.06,13.01,-70.85,1872,-7680,2647,-1,-1,-1
-158.07,13.01,-70.85,1873,-7688,2655,0,0,-1
-158.07,13.01,-70.85,1875,-7686,2641,0,0,-1
-158.05,13.01,-70.84,1881,-7670,2655,0,0,-1
-158.05,13.01,-70.84,1874,-7673,2665,0,0,-1
-158.04,13.02,-70.83,1876,-7668,2675,-1,-1,-1
-158.03,13.03,-70.84,1892,-7672,2667,0,0,-1
-158.03,13.03,-70.84,1895,-7675,2671,0,0,-1
-158.02,13.04,-70.83,1892,-7662,2681,0,0,-1
-158.02,13.04,-70.83,1883,-7661,2680,-1,0,-1
-158.03,13.03,-70.83,1875,-7669,2677,-1,-1,0
-158.03,13.03,-70.84,1882,-7670,2663,0,-1,-1
-158.02,13.04,-70.84,1879,-7672,2659,0,0,-1
-158.02,13.04,-70.83,1880,-7673,2663,0,0,-1
-158.02,13.04,-70.84,1880,-7668,2662,-1,0,-1
-158.01,13.05,-70.84,1892,-7666,2665,0,0,-1
-158.01,13.05,-70.84,1878,-7670,2665,-1,0,-1
-158.00,13.05,-70.83,1883,-7668,2665,0,0,-1
-158.00,13.05,-70.83,1883,-7670,2659,0,0,-1
-158.00,13.05,-70.83,1885,-7665,2674,-1,0,-1
-157.99,13.07,-70.83,1893,-7660,2676,-1,0,-1
-157.99,13.07,-70.84,1890,-7658,2669,-1,-1,-1
-157.99,13.07,-70.84,1893,-7657,2671,-1,0,-1
-157.99,13.07,-70.85,1887,-7668,2667,-1,0,-1
-157.99,13.07,-70.85,1888,-7677,2662,0,0,-1
-157.98,13.07,-70.84,1894,-7672,2662,-1,0,-1
-157.98,13.07,-70.84,1892,-7671,2666,0,0,-1
-157.97,13.08,-70.84,1895,-7669,2675,0,0,-1
-157.97,13.08,-70.84,1888,-7674,2674,-1,-1,-1
-157.97,13.08,-70.84,1892,-7664,2675,-1,0,-1
-157.97,13.09,-70.84,1896,-7670,2667,-1,0,-1
-157.96,13.09,-70.83,1898,-7668,2666,0,0,-1
-157.96,13.09,-70.83,1896,-7674,2686,-1,0,-1
-157.95,13.10,-70.82,1895,-7670,2680,0,0,-1
-157.96,13.09,-70.83,1881,-7665,2675,-1,-1,0
-157.96,13.09,-70.84,1883,-7664,2666,-1,0,-1
-157.95,13.09,-70.84,1891,-7670,2655,0,0,-1
-157.94,13.10,-70.84,1893,-7672,2656,0,0,-1
-157.94,13.11,-70.83,1898,-7658,2662,0,0,0
-157.94,13.11,-70.83,1889,-7652,2671,-1,0,0
-157.94,13.10,-70.83,1892,-7666,2666,-1,0,-1
-157.94,13.10,-70.84,1894,-7676,2667,-1,0,-1
-157.94,13.11,-70.83,1896,-7671,2659,0,0,-1
-157.94,13.11,-70.83,1887,-7664,2659,0,0,-1
-157.94,13.11,-70.83,1891,-7662,2662,0,0,-1
-157.92,13.11,-70.82,1891,-7664,2677,0,0,-1
-157.92,13.12,-70.82,1888,-7663,2674,0,0,-1
-157.92,13.12,-70.82,1894,-7666,2676,-1,0,-1
-157.90,13.13,-70.82,1895,-7668,2683,-1,0,-1
-157.91,13.13,-70.82,1896,-7663,2672,0,0,-1
-157.91,13.13,-70.82,1896,-7658,2666,-1,0,-1
-157.91,13.13,-70.83,1894,-7656,2659,-1,0,-1
-157.91,13.13,-70.83,1894,-7669,2663,-1,0,-1
-157.90,13.14,-70.83,1894,-7670,2659,0,0,-1
-157.89,13.14,-70.83,1902,-7670,2652,-1,0,-1
-157.89,13.15,-70.83,1893,-7669,2655,0,0,-1
-157.89,13.15,-70.83,1897,-7668,2662,0,0,-1
-157.89,13.15,-70.83,1898,-7673,2660,-1,0,-1
-157.88,13.15,-70.83,1897,-7674,2661,0,0,-1
-157.87,13.16,-70.82,1902,-7661,2668,-1,0,-1
-157.86,13.17,-70.82,1907,-7654,2677,-1,0,-1
-157.86,13.17,-70.83,1904,-7661,2669,-1,0,-1
-157.86,13.17,-70.82,1907,-7662,2677,-1,0,-1
-157.86,13.17,-70.83,1894,-7673,2666,-1,0,-1
-157.86,13.17,-70.83,1890,-7669,2670,-1,0,-1
-157.86,13.17,-70.83,1894,-7672,2659,-1,0,-1
-157.85,13.18,-70.83,1897,-7670,2664,0,0,-1
-157.84,13.18,-70.83,1899,-7673,2656,0,0,-1
-157.84,13.18,-70.83,1906,-7665,2664,0,0,-1
-157.83,13.18,-70.82,1902,-7666,2678,0,0,-1
-157.83,13.19,-70.82,1897,-7657,2672,-1,0,-1
-157.83,13.19,-70.82,1896,-7663,2660,-1,0,-1
-157.82,13.19,-70.83,1902,-7667,2660,-1,0,-1
-157.82,13.20,-70.83,1903,-7663,2663,-1,0,-1
-157.81,13.20,-70.82,1905,-7658,2668,0,0,-1
-157.81,13.20,-70.82,1900,-7660,2679,-1,0,-1
-157.80,13.20,-70.82,1901,-7662,2679,-1,0,-1
-157.79,13.22,-70.83,1909,-7667,2668,-1,0,-1
-157.80,13.21,-70.84,1906,-7671,2658,-1,0,-1
-157.79,13.22,-70.84,1907,-7672,2654,0,0,-1
-157.78,13.23,-70.83,1915,-7658,2666,0,0,-1
-157.78,13.23,-70.83,1912,-7652,2672,-1,0,0
-157.78,13.23,-70.83,1908,-7654,2672,-1,0,-1
-157.78,13.23,-70.84,1905,-7669,2662,-1,0,-1
-157.78,13.23,-70.84,1909,-7671,2648,-1,0,-1
-157.78,13.23,-70.84,1907,-7670,2644,0,0,-1
-157.78,13.23,-70.84,1902,-7665,2658,0,0,-1
-157.77,13.23,-70.83,1900,-7666,2661,0,0,-1
-157.76,13.24,-70.82,1913,-7654,2678,-1,0,-1
