Yaw,Pitch,Roll,AX,AY,AZ,GX,GY,GZ
-157.85,13.18,-70.87,1910,-7661,2662,-1,0,-1
-157.85,13.18,-70.88,1915,-7666,2656,0,-1,0
-157.85,13.18,-70.87,1911,-7664,2671,-1,0,0
-157.85,13.18,-70.88,1901,-7669,2665,-1,0,-1
-157.85,13.18,-70.88,1901,-7671,2673,-1,0,-1
-157.84,13.19,-70.88,1906,-7670,2661,-1,0,-1
-157.84,13.19,-70.88,1912,-7672,2657,0,0,-1
-157.83,13.19,-70.88,1903,-7663,2667,0,0,-1
-157.83,13.19,-70.87,1898,-7667,2675,-1,0,-1
-157.83,13.19,-70.88,1905,-7683,2669,-1,0,-1
-157.82,13.20,-70.88,1906,-7693,2662,-1,0,-1
-157.81,13.21,-70.88,1914,-7668,2657,0,0,-1
-157.81,13.21,-70.88,1910,-7645,2659,-1,-1,0
-157.81,13.21,-70.88,1904,-7645,2658,-1,0,0
-157.81,13.21,-70.89,1909,-7671,2653,-1,0,-1
-157.81,13.22,-70.89,1913,-7684,2650,-1,0,-1
-157.80,13.22,-70.89,1909,-7686,2651,0,0,-1
-157.80,13.22,-70.89,1903,-7673,2655,0,0,-1
-157.78,13.23,-70.88,1904,-7657,2662,0,0,-1
-157.77,13.23,-70.87,1913,-7655,2666,-1,0,-1
-157.77,13.24,-70.88,1916,-7655,2672,-1,-1,-1
-157.76,13.24,-70.88,1924,-7664,2672,-1,0,-1
-157.76,13.25,-70.88,1922,-7673,2659,-1,0,-1
-157.76,13.25,-70.88,1917,-7667,2655,-1,0,-1
-157.76,13.25,-70.89,1918,-7662,2648,-1,-1,-1
-157.76,13.25,-70.89,1921,-7664,2652,-1,0,-1
-157.76,13.25,-70.90,1910,-7666,2643,-1,0,-1
-157.75,13.26,-70.90,1915,-7666,2658,-1,0,-1
-157.75,13.26,-70.90,1916,-7666,2658,-1,0,-1
-157.75,13.26,-70.90,1913,-7669,2662,-1,0,-1
-157.75,13.26,-70.90,1911,-7672,2659,-1,0,-1
-157.74,13.27,-70.90,1914,-7667,2654,0,0,-1
-157.73,13.27,-70.89,1917,-7662,2658,0,0,-1
-157.73,13.27,-70.89,1916,-7661,2662,-1,0,-1
-157.73,13.27,-70.89,1917,-7656,2658,-1,0,0
-157.73,13.28,-70.90,1923,-7655,2661,-1,-1,-1
-157.73,13.28,-70.90,1927,-7659,2661,-1,-1,0
-157.74,13.27,-70.91,1920,-7663,2649,-1,-1,0
-157.74,13.27,-70.91,1926,-7662,2657,0,0,0
-157.74,13.27,-70.91,1920,-7670,2647,-1,-1,0
-157.74,13.27,-70.91,1920,-7666,2656,-1,0,0
-157.75,13.26,-70.91,1924,-7662,2660,0,-1,0
-157.75,13.26,-70.91,1916,-7666,2656,0,0,0
-157.75,13.26,-70.91,1917,-7665,2650,0,-1,0
-157.75,13.26,-70.91,1921,-7661,2646,0,-1,0
-157.75,13.26,-70.91,1919,-7671,2643,-1,-1,0
-157.75,13.26,-70.91,1921,-7676,2642,0,-1,0
-157.76,13.25,-70.91,1912,-7666,2650,0,-1,0
-157.76,13.25,-70.90,1912,-7662,2660,-1,-1,0
-157.78,13.24,-70.91,1911,-7673,2639,-1,-1,0
-157.78,13.24,-70.91,1909,-7673,2644,0,-1,0
-157.78,13.24,-70.90,1918,-7673,2643,0,-1,0
-157.78,13.23,-70.89,1915,-7661,2656,0,-1,0
-157.78,13.23,-70.89,1914,-7651,2656,-1,-1,0
-157.79,13.22,-70.89,1911,-7659,2647,-1,-1,0
-157.80,13.22,-70.90,1913,-7670,2643,0,-1,0
-157.80,13.22,-70.90,1915,-7667,2649,0,0,0
-157.81,13.20,-70.90,1898,-7677,2646,-1,-1,0
-157.81,13.20,-70.89,1903,-7668,2661,0,0,0
-157.81,13.21,-70.88,1921,-7673,2672,0,-1,0
-157.80,13.20,-70.87,1921,-7664,2679,0,-1,0
-157.81,13.20,-70.87,1915,-7659,2679,-1,-1,0
-157.82,13.20,-70.88,1914,-7671,2671,-1,-1,0
-157.83,13.19,-70.88,1920,-7670,2674,-1,0,0
-157.84,13.19,-70.89,1906,-7666,2649,0,-1,0
-157.84,13.18,-70.89,1908,-7669,2656,-1,-1,0
-157.85,13.18,-70.89,1907,-7674,2648,0,0,0
-157.85,13.17,-70.89,1901,-7660,2671,-1,-1,0
-157.86,13.17,-70.89,1889,-7660,2660,0,-1,0
-157.87,13.16,-70.90,1899,-7668,2657,-1,-1,0
-157.86,13.17,-70.90,1910,-7679,2660,0,-1,0
-157.86,13.17,-70.89,1913,-7665,2670,0,0,0
-157.86,13.16,-70.89,1909,-7665,2667,-1,0,0
-157.86,13.16,-70.89,1906,-7668,2682,-1,-1,0
-157.87,13.16,-70.89,1898,-7669,2666,-1,-1,0
-157.88,13.16,-70.90,1906,-7671,2661,-1,-1,0
-157.89,13.15,-70.91,1905,-7675,2654,-1,-1,0
-157.89,13.15,-70.91,1906,-7669,2648,-1,-1,0
-157.89,13.15,-70.91,1899,-7663,2648,-1,-1,0
-157.90,13.14,-70.92,1900,-7671,2647,-1,-1,0
-157.90,13.14,-70.92,1899,-7667,2638,0,-1,0
-157.90,13.14,-70.92,1898,-7670,2651,0,0,0
-157.91,13.14,-70.92,1904,-7661,2662,0,-1,0
-157.91,13.13,-70.91,1903,-7655,2668,0,-1,0
-157.91,13.13,-70.91,1895,-7657,2660,-1,-1,0
-157.91,13.13,-70.91,1892,-7661,2653,-1,-1,0
-157.93,13.12,-70.92,1896,-7680,2661,-1,-1,0
-157.93,13.12,-70.92,1899,-7680,2661,-1,0,0
-157.93,13.12,-70.92,1893,-7675,2648,-1,-1,0
-157.93,13.12,-70.92,1900,-7668,2662,-1,-1,0
-157.95,13.11,-70.94,1901,-7674,2650,-1,-1,0
-157.95,13.11,-70.94,1898,-7677,2652,-1,-1,0
-157.95,13.11,-70.94,1902,-7688,2643,0,-1,0
-157.95,13.11,-70.94,1907,-7677,2645,0,-1,0
-157.95,13.11,-70.94,1899,-7657,2660,0,-1,0
-157.95,13.11,-70.94,1904,-7662,2666,-1,-1,0
-157.96,13.10,-70.95,1897,-7673,2647,-1,-1,0
-157.97,13.10,-70.95,1892,-7681,2644,0,-1,0
-157.98,13.09,-70.95,1887,-7680,2642,0,0,0
-157.98,13.08,-70.95,1885,-7682,2653,0,0,0
-157.98,13.08,-70.94,1881,-7677,2644,0,-1,-1
-157.98,13.09,-70.94,1887,-7674,2653,-1,-1,0
-157.98,13.08,-70.94,1894,-7676,2659,-1,0,0
-157.99,13.08,-70.94,1888,-7672,2655,-1,-1,0
-157.99,13.08,-70.95,1887,-7673,2644,-1,-1,0
-158.00,13.07,-70.95,1887,-7673,2645,-1,-1,0
-158.01,13.06,-70.96,1890,-7676,2637,0,-1,0
-158.01,13.06,-70.96,1888,-7676,2644,0,-1,0
-158.02,13.06,-70.95,1890,-7671,2657,0,0,0
-158.02,13.05,-70.95,1875,-7678,2650,-1,-1,0
-158.03,13.04,-70.96,1876,-7673,2656,-1,-1,0
-158.03,13.05,-70.96,1889,-7679,2639,0,0,0
-158.03,13.05,-70.96,1886,-7681,2642,0,-1,0
-158.03,13.05,-70.95,1884,-7676,2657,0,-1,0
-158.03,13.05,-70.95,1893,-7665,2661,-1,0,0
-158.03,13.05,-70.95,1890,-7676,2669,-1,-1,0
-158.03,13.05,-70.96,1885,-7670,2660,-1,-1,0
-158.03,13.05,-70.96,1890,-7673,2651,-1,-1,0
-158.04,13.05,-70.97,1892,-7671,2650,-1,0,0
-158.05,13.04,-70.97,1892,-7671,2652,-1,-1,0
-158.05,13.04,-70.97,1891,-7667,2642,-1,-1,0
-158.05,13.04,-70.98,1887,-7672,2645,-1,-1,0
-158.05,13.04,-70.98,1892,-7673,2634,0,-1,0
-158.05,13.04,-70.98,1894,-7671,2646,0,-1,0
-158.05,13.03,-70.97,1891,-7673,2648,0,-1,0
-158.06,13.03,-70.97,1890,-7672,2654,0,0,0
-158.06,13.03,-70.97,1889,-7677,2660,-1,-1,0
-158.06,13.03,-70.97,1888,-7673,2657,-1,-1,0
-158.06,13.03,-70.98,1891,-7679,2647,-1,-1,0
-158.06,13.03,-70.98,1888,-7668,2642,0,-1,0
-158.06,13.03,-70.98,1896,-7672,2641,-1,-1,0
-158.06,13.03,-70.98,1895,-7668,2640,0,-1,-1
-158.06,13.03,-70.98,1889,-7678,2661,-1,-1,0
-158.06,13.03,-70.97,1886,-7676,2667,0,0,0
-158.06,13.03,-70.97,1875,-7672,2669,-1,-1,0
-158.06,13.03,-70.97,1877,-7667,2665,0,-1,0
-158.06,13.03,-70.97,1887,-7671,2655,0,0,0
-158.06,13.04,-70.96,1887,-7668,2653,0,-1,0
-158.06,13.04,-70.96,1884,-7674,2651,0,-1,0
-158.06,13.02,-70.96,1876,-7675,2655,-1,-1,0
-158.06,13.03,-70.96,1876,-7684,2655,0,-1,-1
-158.05,13.04,-70.95,1882,-7676,2657,0,-1,-1
-158.05,13.04,-70.94,1889,-7663,2665,0,-1,0
-158.04,13.04,-70.94,1890,-7659,2654,-1,-1,0
-158.04,13.04,-70.95,1887,-7668,2655,-1,-1,0
-158.05,13.04,-70.95,1885,-7683,2650,0,0,-1
-158.05,13.04,-70.95,1882,-7685,2639,0,-1,0
-158.04,13.04,-70.95,1883,-7681,2640,0,0,-1
-158.04,13.04,-70.94,1875,-7672,2642,0,-1,-1
-158.03,13.05,-70.93,1881,-7661,2653,0,0,-1
-158.03,13.05,-70.92,1890,-7663,2668,-1,-1,-1
-158.02,13.06,-70.93,1897,-7672,2673,-1,0,-1
-158.02,13.06,-70.93,1897,-7670,2663,-1,-1,0
-158.02,13.06,-70.93,1894,-7676,2648,0,-1,-1
-158.03,13.06,-70.93,1894,-7672,2639,0,-1,0
-158.03,13.06,-70.93,1892,-7672,2648,0,-1,-1
-158.02,13.06,-70.93,1879,-7666,2655,0,-1,-1
-158.02,13.06,-70.93,1882,-7665,2651,-1,-1,-1
-158.02,13.06,-70.93,1883,-7676,2643,-1,-1,-1
-158.02,13.06,-70.93,1881,-7675,2639,0,-1,-1
-158.01,13.07,-70.93,1886,-7682,2637,0,0,-1
-158.01,13.07,-70.93,1888,-7674,2655,0,0,-1
-158.00,13.08,-70.92,1892,-7679,2659,0,0,-1
-157.99,13.08,-70.92,1886,-7682,2657,-1,0,-1
-157.99,13.09,-70.92,1884,-7676,2658,0,-1,-1
-157.99,13.09,-70.92,1896,-7671,2672,-1,-1,-1
-157.99,13.09,-70.92,1894,-7675,2647,0,0,-1
-157.98,13.09,-70.92,1898,-7671,2664,-1,0,-1
-157.98,13.09,-70.93,1889,-7682,2652,0,0,-1
-157.98,13.10,-70.92,1893,-7668,2654,-1,-1,0
-157.98,13.10,-70.92,1882,-7678,2646,0,0,-1
-157.98,13.10,-70.92,1888,-7677,2644,0,0,-1
-157.97,13.10,-70.92,1890,-7672,2647,0,0,-1
-157.97,13.10,-70.92,1894,-7668,2649,0,0,-1
-157.97,13.10,-70.91,1893,-7671,2657,-1,-1,0
-157.96,13.10,-70.90,1887,-7664,2663,0,0,-1
-157.95,13.11,-70.90,1899,-7666,2669,-1,0,0
-157.95,13.11,-70.90,1892,-7680,2639,0,0,-1
-157.94,13.12,-70.88,1909,-7660,2659,-1,0,0
-157.94,13.11,-70.89,1881,-7666,2643,0,0,-1
-157.94,13.11,-70.88,1889,-7677,2655,0,0,-1
-157.94,13.11,-70.88,1896,-7677,2676,-1,-1,0
-157.93,13.12,-70.88,1896,-7668,2657,0,0,-1
-157.93,13.12,-70.87,1894,-7660,2680,-1,-1,0
-157.93,13.11,-70.86,1879,-7661,2674,0,0,-1
-157.93,13.12,-70.87,1896,-7672,2672,-1,-1,0
-157.91,13.12,-70.86,1888,-7663,2682,-1,0,-1
-157.92,13.12,-70.87,1895,-7680,2655,0,0,-1
-157.90,13.13,-70.86,1909,-7668,2685,-1,0,-1
-157.90,13.14,-70.86,1904,-7664,2653,0,0,-1
-157.89,13.15,-70.85,1916,-7644,2680,-1,0,0
-157.90,13.14,-70.87,1897,-7664,2653,-1,0,-1
-157.89,13.14,-70.87,1899,-7676,2660,-1,0,-1
-157.90,13.15,-70.88,1895,-7683,2651,0,0,-1
-157.90,13.15,-70.88,1891,-7675,2649,-1,-1,-1
-157.89,13.15,-70.87,1888,-7675,2647,0,0,-1
-157.87,13.16,-70.87,1902,-7672,2661,0,0,-1
-157.87,13.17,-70.87,1904,-7666,2662,-1,0,-1
-157.86,13.17,-70.87,1909,-7666,2672,-1,-1,-1
-157.86,13.17,-70.87,1903,-7682,2669,0,-1,-1
-157.86,13.18,-70.87,1911,-7668,2665,-1,0,0
-157.86,13.18,-70.87,1908,-7671,2659,0,0,-1
-157.85,13.18,-70.87,1908,-7677,2664,-1,0,0
-157.85,13.18,-70.86,1911,-7677,2654,0,0,-1
-157.84,13.18,-70.85,1897,-7654,2667,-1,-1,0
-157.84,13.18,-70.85,1896,-7661,2664,0,0,-1
-157.84,13.19,-70.86,1901,-7667,2654,-1,-1,-1
-157.84,13.19,-70.86,1908,-7667,2651,0,0,-1
-157.83,13.19,-70.85,1912,-7659,2668,0,0,-1
-157.82,13.20,-70.85,1909,-7664,2669,0,0,-1
-157.81,13.20,-70.85,1904,-7665,2669,-1,0,-1
-157.80,13.21,-70.85,1913,-7672,2665,-1,0,-1
-157.81,13.21,-70.86,1910,-7673,2658,0,0,-1
-157.80,13.21,-70.86,1910,-7668,2663,-1,0,-1
-157.80,13.21,-70.86,1907,-7662,2667,-1,0,-1
-157.80,13.22,-70.86,1907,-7667,2671,-1,0,-1
-157.79,13.22,-70.86,1905,-7670,2657,0,0,-1
-157.79,13.22,-70.86,1909,-7667,2652,-1,0,-1
-157.79,13.23,-70.86,1911,-7667,2665,0,0,-1
-157.79,13.22,-70.86,1899,-7660,2667,0,0,-1
-157.78,13.23,-70.86,1901,-7659,2667,-1,-1,-1
-157.78,13.23,-70.85,1905,-7669,2657,0,0,-1
-157.78,13.23,-70.85,1909,-7668,2659,-1,0,-1
-157.77,13.24,-70.85,1908,-7669,2653,0,0,-1
-157.76,13.24,-70.85,1913,-7657,2658,-1,0,-1
-157.76,13.24,-70.85,1921,-7658,2649,-1,0,-1
-157.76,13.25,-70.86,1919,-7663,2644,-1,0,-1
-157.76,13.25,-70.86,1918,-7659,2645,0,0,-1
-157.76,13.25,-70.86,1913,-7665,2653,-1,0,-1
-157.76,13.26,-70.87,1907,-7671,2655,-1,-1,-1
-157.75,13.26,-70.87,1912,-7681,2655,0,0,-1
-157.74,13.26,-70.86,1923,-7668,2669,0,0,-1
-157.74,13.26,-70.86,1913,-7659,2671,0,-1,0
-157.74,13.26,-70.85,1913,-7646,2677,-1,0,0
-157.75,13.26,-70.86,1901,-7668,2660,-1,-1,0
-157.75,13.26,-70.86,1905,-7678,2657,-1,0,-1
-157.74,13.26,-70.86,1902,-7669,2654,-1,0,-1
-157.74,13.26,-70.86,1892,-7661,2653,0,0,-1
-157.74,13.26,-70.85,1905,-7665,2663,0,0,-1
-157.73,13.27,-70.85,1905,-7666,2679,-1,0,-1
-157.72,13.27,-70.85,1917,-7664,2677,-1,0,-1
-157.72,13.27,-70.85,1919,-7657,2679,-1,-1,-1
-157.72,13.27,-70.86,1918,-7659,2659,-1,0,-1
-157.72,13.27,-70.86,1914,-7667,2664,-1,0,0
-157.72,13.27,-70.86,1909,-7660,2667,-1,0,-1
-157.71,13.28,-70.86,1912,-7659,2656,-1,0,-1
-157.71,13.28,-70.86,1911,-7670,2659,-1,-1,-1
-157.71,13.28,-70.86,1913,-7671,2662,0,0,-1
-157.71,13.28,-70.86,1912,-7674,2660,-1,0,-1
-157.70,13.29,-70.86,1905,-7672,2656,-1,-1,-1
-157.70,13.29,-70.87,1920,-7668,2647,0,0,-1
-157.69,13.29,-70.86,1911,-7665,2658,0,0,-1
-157.69,13.29,-70.86,1906,-7664,2661,0,0,-1
-157.69,13.29,-70.85,1917,-7658,2676,-1,0,-1
-157.68,13.30,-70.85,1922,-7652,2677,-1,0,-1
-157.68,13.30,-70.86,1918,-7658,2670,-1,-1,-1
-157.69,13.30,-70.87,1918,-7661,2647,0,0,0
-157.69,13.30,-70.87,1918,-7667,2658,-1,-1,0
-157.70,13.29,-70.87,1908,-7671,2649,0,-1,0
-157.69,13.29,-70.87,1908,-7660,2651,0,-1,-1
-157.69,13.29,-70.87,1913,-7659,2656,-1,-1,0
-157.69,13.29,-70.87,1916,-7657,2659,0,0,0
-157.70,13.29,-70.86,1913,-7665,2668,-1,0,-1
-157.69,13.29,-70.86,1917,-7666,2667,0,0,-1
-157.69,13.29,-70.86,1923,-7658,2664,-1,-1,0
-157.69,13.29,-70.87,1918,-7665,2655,0,-1,0
-157.69,13.29,-70.87,1918,-7656,2646,-1,-1,-1
-157.69,13.29,-70.87,1915,-7662,2655,0,0,0
-157.70,13.28,-70.87,1918,-7668,2653,0,-1,0
-157.71,13.28,-70.86,1927,-7664,2659,0,-1,0
-157.71,13.28,-70.86,1917,-7652,2668,-1,-1,0
-157.72,13.27,-70.87,1911,-7656,2663,-1,-1,0
-157.72,13.27,-70.87,1907,-7673,2654,-1,-1,0
-157.71,13.27,-70.86,1912,-7675,2653,0,0,-1
-157.71,13.27,-70.85,1923,-7663,2654,0,-1,0
-157.71,13.27,-70.84,1916,-7645,2671,0,0,0
-157.71,13.27,-70.84,1917,-7653,2668,-1,-1,0
-157.73,13.26,-70.85,1917,-7662,2662,-1,-1,0
-157.73,13.26,-70.86,1912,-7670,2642,-1,0,0
-157.74,13.25,-70.86,1909,-7671,2649,0,-1,0
-157.73,13.25,-70.85,1898,-7665,2650,0,0,0
-157.73,13.25,-70.85,1908,-7662,2669,0,0,-1
-157.73,13.25,-70.85,1900,-7661,2672,-1,-1,0
-157.74,13.25,-70.87,1911,-7665,2669,-1,-1,-1
-157.74,13.25,-70.86,1912,-7661,2669,-1,-1,0
-157.74,13.25,-70.87,1910,-7659,2669,-1,-1,0
-157.75,13.25,-70.87,1905,-7656,2657,-1,-1,0
-157.75,13.25,-70.88,1904,-7664,2653,-1,-1,0
-157.76,13.24,-70.88,1904,-7680,2657,0,0,0
-157.76,13.24,-70.88,1907,-7673,2657,-1,-1,0
-157.76,13.24,-70.89,1910,-7659,2654,0,-1,0
-157.76,13.24,-70.89,1902,-7661,2659,-1,-1,0
-157.76,13.24,-70.89,1904,-7670,2641,0,-1,0
-157.77,13.24,-70.89,1910,-7670,2651,0,-1,0
-157.77,13.23,-70.88,1904,-7665,2656,0,0,0
-157.78,13.22,-70.88,1895,-7661,2663,0,-1,0
-157.78,13.22,-70.88,1901,-7660,2662,-1,-1,0
-157.78,13.22,-70.88,1895,-7665,2655,-1,-1,0
-157.79,13.22,-70.89,1906,-7661,2651,-1,-1,0
-157.79,13.22,-70.89,1902,-7667,2645,0,-1,0
-157.80,13.21,-70.89,1906,-7664,2644,0,0,0
-157.80,13.21,-70.89,1898,-7660,2648,-1,-1,0
-157.80,13.20,-70.88,1911,-7660,2651,0,-1,0
-157.81,13.20,-70.88,1906,-7660,2654,-1,-1,0
-157.81,13.20,-70.88,1897,-7668,2659,0,-1,0
-157.82,13.19,-70.88,1902,-7672,2654,0,0,0
-157.82,13.19,-70.87,1899,-7661,2675,-1,0,0
-157.82,13.19,-70.87,1900,-7659,2669,-1,-1,0
-157.82,13.18,-70.87,1895,-7661,2671,-1,-1,0
-157.83,13.17,-70.88,1892,-7662,2658,-1,-1,0
-157.83,13.17,-70.88,1893,-7659,2659,-1,-1,0
-157.84,13.17,-70.88,1896,-7671,2646,-1,-1,0
-157.84,13.17,-70.88,1902,-7672,2651,0,0,0
-157.84,13.17,-70.88,1890,-7674,2649,-1,-1,0
-157.84,13.17,-70.89,1894,-7657,2657,-1,0,0
-157.85,13.17,-70.90,1898,-7664,2648,-1,-1,0
-157.85,13.17,-70.90,1900,-7669,2654,0,0,0
-157.84,13.17,-70.89,1904,-7668,2661,0,-1,0
-157.85,13.16,-70.89,1898,-7669,2667,-1,-1,0
-157.86,13.15,-70.89,1894,-7682,2666,-1,-1,0
-157.87,13.15,-70.89,1888,-7679,2653,0,0,0
-157.86,13.15,-70.88,1901,-7675,2667,0,-1,0
-157.86,13.15,-70.88,1904,-7663,2667,0,0,0
-157.87,13.14,-70.88,1890,-7658,2655,-1,-1,0
-157.88,13.14,-70.89,1892,-7669,2648,-1,-1,0
-157.89,13.13,-70.90,1895,-7689,2641,0,-1,0
-157.89,13.13,-70.89,1886,-7686,2645,0,0,0
-157.89,13.13,-70.89,1874,-7669,2641,0,0,0
-157.89,13.13,-70.88,1883,-7658,2653,0,0,0
-157.89,13.12,-70.88,1878,-7660,2662,-1,0,-1
-157.89,13.13,-70.88,1893,-7668,2669,-1,-1,0
-157.89,13.13,-70.89,1901,-7678,2663,-1,-1,0
-157.90,13.13,-70.89,1900,-7673,2661,-1,-1,0
-157.90,13.13,-70.89,1895,-7668,2662,-1,0,0
-157.91,13.12,-70.90,1894,-7665,2656,-1,-1,0
-157.91,13.12,-70.90,1899,-7676,2668,-1,0,0
-157.91,13.12,-70.91,1896,-7691,2656,0,0,-1
-157.91,13.11,-70.91,1890,-7680,2656,-1,-1,-1
-157.91,13.11,-70.91,1888,-7676,2647,-1,0,-1
-157.92,13.12,-70.91,1886,-7674,2645,-1,-1,-1
-157.91,13.12,-70.91,1891,-7679,2647,0,0,-1
-157.91,13.12,-70.91,1892,-7678,2645,0,0,0
-157.91,13.12,-70.91,1894,-7677,2645,-1,0,0
-157.91,13.12,-70.91,1888,-7670,2644,0,-1,0
-157.91,13.12,-70.91,1890,-7680,2654,-1,-1,0
-157.91,13.12,-70.92,1892,-7673,2650,-1,0,0
-157.91,13.12,-70.92,1895,-7672,2649,-1,-1,0
-157.92,13.12,-70.93,1893,-7663,2647,-1,-1,0
-157.92,13.12,-70.93,1893,-7671,2645,-1,-1,0
-157.93,13.11,-70.93,1885,-7671,2646,-1,-1,0
-157.93,13.12,-70.93,1893,-7675,2639,0,-1,0
-157.92,13.11,-70.93,1891,-7671,2641,0,-1,0
-157.92,13.11,-70.93,1886,-7668,2641,0,-1,0
-157.92,13.11,-70.92,1887,-7666,2651,0,0,0
-157.92,13.11,-70.92,1880,-7664,2648,0,0,-1
-157.92,13.11,-70.92,1883,-7665,2641,0,-1,-1
-157.92,13.11,-70.92,1886,-7665,2643,-1,0,-1
-157.92,13.12,-70.92,1889,-7671,2645,0,0,-1
-157.92,13.12,-70.92,1883,-7668,2649,0,0,-1
-157.92,13.12,-70.92,1890,-7667,2648,0,-1,-1
-157.91,13.12,-70.91,1885,-7656,2655,0,-1,-1
-157.91,13.12,-70.92,1894,-7672,2645,0,-1,-1
-157.90,13.13,-70.91,1899,-7666,2658,0,0,-1
-157.90,13.13,-70.91,1884,-7674,2650,-1,0,-1
-157.90,13.13,-70.91,1889,-7667,2651,0,0,-1
-157.90,13.13,-70.91,1882,-7674,2651,-1,0,-1
-157.89,13.13,-70.91,1885,-7675,2661,0,0,-1
-157.89,13.13,-70.91,1886,-7675,2657,0,0,-1
-157.89,13.14,-70.91,1894,-7680,2656,-1,-1,-1
-157.88,13.14,-70.91,1895,-7682,2654,0,-1,-1
-157.88,13.15,-70.90,1897,-7676,2656,0,0,-1
-157.87,13.15,-70.89,1900,-7652,2665,0,0,-1
-157.87,13.16,-70.90,1898,-7658,2666,-1,-1,0
-157.88,13.15,-70.90,1896,-7669,2662,-1,0,0
-157.88,13.15,-70.91,1890,-7687,2650,-1,0,-1
-157.88,13.15,-70.91,1892,-7688,2644,0,0,-1
-157.87,13.14,-70.90,1887,-7680,2649,0,0,-1
-157.86,13.15,-70.89,1887,-7670,2653,0,0,-1
-157.85,13.15,-70.88,1887,-7665,2661,0,0,-1
-157.85,13.16,-70.88,1899,-7663,2660,-1,-1,-1
-157.85,13.16,-70.89,1904,-7674,2670,-1,0,0
-157.85,13.16,-70.89,1896,-7673,2665,-1,-1,-1
-157.86,13.16,-70.89,1894,-7674,2656,-1,-1,0
-157.86,13.16,-70.90,1895,-7673,2652,-1,0,-1
-157.86,13.16,-70.90,1897,-7678,2647,0,-1,-1
-157.86,13.16,-70.90,1893,-7682,2647,0,0,-1
-157.86,13.16,-70.90,1885,-7674,2645,-1,0,-1
-157.85,13.16,-70.90,1887,-7666,2645,-1,0,-1
-157.85,13.16,-70.90,1894,-7666,2656,0,0,-1
-157.85,13.16,-70.90,1894,-7668,2652,0,0,-1
-157.84,13.17,-70.89,1891,-7671,2650,0,0,-1
-157.84,13.17,-70.89,1892,-7680,2654,0,0,-1
-157.84,13.17,-70.89,1896,-7667,2658,0,0,-1
-157.83,13.18,-70.89,1899,-7673,2659,-1,-1,-1
-157.83,13.18,-70.88,1899,-7665,2662,0,0,-1
-157.83,13.17,-70.89,1891,-7671,2666,-1,-1,-1
-157.83,13.17,-70.89,1894,-7672,2658,-1,0,-1
-157.83,13.18,-70.90,1894,-7667,2656,-1,-1,-1
-157.83,13.18,-70.90,1896,-7672,2653,-1,-1,-1
-157.82,13.18,-70.89,1899,-7673,2641,0,0,-1
-157.82,13.18,-70.89,1898,-7661,2646,0,0,-1
-157.82,13.18,-70.89,1896,-7664,2649,0,0,-1
-157.82,13.18,-70.89,1896,-7670,2661,0,0,-1
-157.82,13.18,-70.89,1893,-7672,2653,0,0,-1
-157.81,13.19,-70.88,1896,-7670,2654,-1,-1,-1
-157.81,13.19,-70.88,1896,-7666,2661,0,0,-1
-157.81,13.19,-70.89,1897,-7666,2653,-1,0,-1
-157.81,13.19,-70.89,1902,-7662,2669,-1,0,-1
-157.80,13.20,-70.88,1901,-7665,2665,-1,0,-1
-157.80,13.20,-70.88,1900,-7666,2657,-1,-1,-1
-157.79,13.20,-70.88,1900,-7670,2646,0,0,-1
-157.79,13.20,-70.88,1904,-7668,2654,0,0,-1
-157.79,13.20,-70.88,1902,-7661,2663,-1,0,-1
-157.79,13.21,-70.89,1903,-7668,2658,-1,-1,-1
-157.78,13.21,-70.89,1904,-7681,2656,0,0,-1
-157.78,13.21,-70.88,1907,-7676,2656,0,0,-1
-157.77,13.22,-70.88,1909,-7658,2659,0,0,-1
-157.77,13.22,-70.88,1906,-7655,2652,-1,0,0
-157.77,13.22,-70.89,1908,-7660,2648,-1,0,0
-157.77,13.22,-70.89,1898,-7676,2650,-1,0,-1
-157.77,13.22,-70.89,1892,-7679,2647,0,0,-1
-157.76,13.23,-70.89,1899,-7668,2645,0,0,-1
-157.75,13.23,-70.89,1904,-7660,2649,0,0,-1
-157.74,13.24,-70.88,1910,-7653,2671,-1,0,-1
-157.73,13.24,-70.88,1914,-7655,2669,-1,0,-1
-157.73,13.24,-70.88,1915,-7660,2661,-1,0,-1
-157.73,13.25,-70.89,1915,-7666,2661,-1,-1,-1
-157.73,13.25,-70.89,1916,-7660,2654,0,0,-1
-157.73,13.25,-70.89,1905,-7669,2651,-1,-1,-1
-157.73,13.25,-70.89,1913,-7667,2650,0,0,-1
-157.72,13.26,-70.89,1912,-7676,2650,-1,0,-1
-157.72,13.26,-70.88,1911,-7673,2660,-1,0,-1
-157.72,13.26,-70.88,1903,-7674,2659,-1,-1,-1
-157.72,13.26,-70.88,1904,-7673,2655,0,0,-1
-157.71,13.26,-70.88,1904,-7663,2643,0,0,-1
-157.69,13.28,-70.87,1911,-7653,2648,0,0,-1
-157.69,13.28,-70.87,1903,-7652,2649,-1,0,-1
-157.69,13.28,-70.87,1908,-7653,2662,-1,0,-1
-157.69,13.28,-70.87,1917,-7655,2652,-1,0,-1
-157.68,13.29,-70.88,1921,-7668,2656,-1,0,-1
-157.68,13.29,-70.89,1918,-7671,2652,-1,0,-1
-157.68,13.29,-70.89,1913,-7666,2652,-1,0,-1
-157.68,13.29,-70.89,1909,-7664,2657,-1,0,-1
-157.68,13.29,-70.89,1918,-7667,2656,-1,0,-1
-157.66,13.30,-70.88,1922,-7665,2654,-1,0,-1
-157.66,13.30,-70.88,1915,-7666,2658,0,0,-1
-157.66,13.30,-70.88,1915,-7656,2662,-1,0,-1
-157.65,13.31,-70.88,1921,-7658,2662,-1,0,-1
-157.65,13.31,-70.88,1924,-7651,2660,-1,0,-1
-157.64,13.31,-70.88,1922,-7659,2665,-1,0,-1
-157.64,13.32,-70.88,1922,-7664,2661,-1,0,-1
-157.64,13.32,-70.88,1918,-7670,2651,-1,0,-1
-157.63,13.32,-70.88,1920,-7662,2653,0,0,-1
-157.63,13.32,-70.88,1918,-7665,2657,-1,0,-1
-157.64,13.32,-70.89,1914,-7672,2656,-1,0,-1
-157.63,13.32,-70.89,1914,-7679,2657,-1,0,-1
-157.63,13.32,-70.90,1906,-7686,2642,0,0,-1
-157.62,13.33,-70.89,1908,-7671,2652,0,0,-1
-157.62,13.33,-70.88,1915,-7650,2662,0,0,-1
-157.62,13.33,-70.88,1913,-7657,2650,-1,0,0
-157.62,13.33,-70.89,1921,-7660,2658,-1,0,-1
-157.62,13.33,-70.90,1912,-7679,2647,-1,0,-1
-157.62,13.33,-70.89,1914,-7675,2651,0,0,-1
-157.62,13.33,-70.89,1915,-7675,2649,0,0,0
-157.62,13.33,-70.89,1917,-7667,2660,0,-1,-1
-157.61,13.33,-70.88,1919,-7667,2660,-1,0,-1
-157.60,13.34,-70.89,1925,-7665,2663,-1,0,0
-157.61,13.33,-70.89,1928,-7664,2658,-1,-1,0
-157.62,13.33,-70.89,1921,-7665,2655,-1,-1,0
-157.62,13.33,-70.90,1911,-7658,2651,-1,-1,0
-157.62,13.33,-70.90,1915,-7663,2655,-1,-1,0
-157.63,13.32,-70.91,1917,-7665,2642,0,0,0
-157.63,13.32,-70.90,1917,-7667,2640,0,0,-1
-157.63,13.32,-70.90,1908,-7669,2650,0,0,0
-157.63,13.32,-70.90,1908,-7673,2644,0,0,-1
-157.63,13.32,-70.90,1913,-7667,2648,-1,-1,0
-157.63,13.32,-70.90,1917,-7667,2635,0,-1,0
-157.63,13.32,-70.89,1921,-7669,2642,0,0,0
-157.63,13.31,-70.88,1916,-7665,2657,0,-1,0
-157.63,13.31,-70.87,1916,-7658,2661,0,-1,0
-157.62,13.32,-70.87,1924,-7657,2664,-1,-1,0
-157.64,13.31,-70.88,1915,-7654,2651,0,-1,0
-157.65,13.30,-70.88,1917,-7661,2657,-1,-1,0
-157.65,13.30,-70.87,1925,-7671,2655,0,-1,0
-157.65,13.29,-70.88,1914,-7667,2659,0,-1,0
-157.66,13.29,-70.87,1908,-7666,2658,-1,-1,0
-157.67,13.29,-70.88,1910,-7668,2651,0,-1,0
-157.67,13.27,-70.87,1915,-7670,2653,0,0,0
-157.67,13.27,-70.86,1915,-7665,2651,0,0,0
-157.68,13.26,-70.86,1907,-7662,2658,0,-1,0
-157.68,13.26,-70.86,1909,-7658,2658,0,-1,0
-157.69,13.26,-70.86,1902,-7660,2654,0,-1,0
-157.69,13.25,-70.86,1906,-7665,2660,-1,-1,0
-157.69,13.25,-70.86,1912,-7656,2659,0,0,0
-157.70,13.25,-70.85,1909,-7659,2670,0,-1,0
-157.71,13.24,-70.86,1915,-7665,2678,-1,-1,0
-157.72,13.23,-70.86,1894,-7673,2652,-1,-1,0
-157.72,13.23,-70.85,1910,-7656,2667,0,-1,0
-157.72,13.23,-70.85,1904,-7670,2663,0,0,0
-157.72,13.22,-70.84,1900,-7653,2678,0,-1,0
-157.73,13.21,-70.84,1901,-7649,2674,-1,-1,0
-157.74,13.21,-70.85,1908,-7661,2653,0,0,0
-157.74,13.21,-70.85,1901,-7675,2659,-1,0,0
-157.74,13.21,-70.85,1903,-7675,2649,0,0,-1
-157.74,13.21,-70.84,1903,-7654,2657,-1,-1,0
-157.74,13.20,-70.84,1899,-7645,2667,0,-1,0
-157.75,13.20,-70.85,1898,-7661,2660,-1,-1,0
-157.76,13.19,-70.85,1902,-7680,2669,-1,0,0
-157.77,13.19,-70.86,1906,-7680,2665,-1,-1,0
-157.77,13.18,-70.85,1900,-7677,2659,0,-1,0
-157.78,13.18,-70.85,1893,-7672,2654,0,0,0
-157.77,13.18,-70.84,1898,-7661,2673,0,0,-1
-157.77,13.18,-70.84,1904,-7666,2685,-1,-1,0
-157.77,13.18,-70.85,1900,-7658,2661,-1,0,0
-157.78,13.17,-70.85,1900,-7674,2657,0,-1,0
-157.79,13.17,-70.86,1893,-7672,2662,-1,-1,0
-157.79,13.17,-70.86,1897,-7671,2660,-1,-1,0
-157.79,13.17,-70.86,1913,-7669,2660,0,-1,0
-157.79,13.17,-70.86,1908,-7676,2662,-1,-1,0
-157.80,13.16,-70.86,1900,-7667,2668,0,0,0
-157.81,13.15,-70.86,1892,-7663,2657,-1,-1,0
-157.81,13.15,-70.86,1897,-7671,2656,-1,0,0
-157.81,13.15,-70.86,1886,-7672,2643,0,0,-1
-157.81,13.15,-70.86,1903,-7685,2644,0,-1,0
-157.81,13.14,-70.85,1908,-7680,2643,0,0,0
-157.81,13.15,-70.84,1888,-7661,2665,0,-1,0
-157.81,13.14,-70.84,1887,-7662,2669,0,-1,0
-157.81,13.14,-70.84,1898,-7655,2683,-1,-1,0
-157.83,13.14,-70.85,1900,-7658,2653,-1,-1,0
-157.83,13.14,-70.86,1901,-7664,2660,-1,-1,0
-157.84,13.13,-70.87,1889,-7671,2661,-1,0,0
-157.84,13.13,-70.87,1892,-7681,2658,-1,0,0
-157.84,13.12,-70.87,1889,-7688,2652,-1,-1,0
-157.84,13.12,-70.87,1895,-7686,2650,0,0,-1
-157.85,13.12,-70.87,1888,-7675,2655,-1,-1,-1
-157.85,13.12,-70.87,1891,-7659,2669,-1,-1,0
-157.85,13.11,-70.87,1879,-7665,2663,-1,0,0
-157.86,13.11,-70.88,1880,-7667,2661,0,0,0
-157.86,13.10,-70.88,1878,-7668,2653,-1,0,0
-157.86,13.10,-70.87,1884,-7672,2669,0,0,-1
-157.85,13.11,-70.87,1898,-7674,2665,-1,-1,0
-157.85,13.11,-70.87,1893,-7670,2671,-1,-1,-1
-157.86,13.11,-70.88,1894,-7668,2674,-1,-1,0
-157.86,13.11,-70.88,1894,-7669,2675,-1,0,-1
-157.86,13.11,-70.89,1886,-7673,2665,-1,-1,0
-157.86,13.11,-70.89,1881,-7675,2660,0,0,-1
-157.86,13.11,-70.89,1877,-7681,2660,-1,-1,-1
-157.86,13.11,-70.89,1878,-7676,2662,0,0,-1
-157.87,13.11,-70.89,1876,-7674,2647,-1,-1,0
-157.87,13.11,-70.89,1880,-7671,2652,-1,-1,0
-157.87,13.11,-70.90,1875,-7676,2647,-1,0,-1
-157.87,13.11,-70.90,1878,-7676,2649,0,0,-1
-157.87,13.11,-70.90,1881,-7671,2653,0,0,-1
-157.87,13.10,-70.90,1881,-7661,2658,-1,-1,0
-157.87,13.11,-70.90,1883,-7671,2642,-1,-1,0
-157.88,13.10,-70.91,1884,-7681,2651,-1,-1,0
-157.88,13.10,-70.91,1889,-7680,2642,0,0,0
-157.88,13.10,-70.91,1889,-7684,2652,-1,0,0
-157.88,13.10,-70.91,1877,-7691,2646,0,0,-1
-157.88,13.10,-70.91,1882,-7682,2656,0,-1,-1
-157.87,13.11,-70.90,1888,-7677,2659,0,0,-1
-157.87,13.11,-70.90,1892,-7673,2650,-1,-1,-1
-157.87,13.11,-70.89,1901,-7673,2657,0,-1,-1
-157.86,13.11,-70.89,1900,-7671,2664,0,-1,0
-157.87,13.11,-70.89,1891,-7663,2669,-1,-1,0
-157.88,13.11,-70.90,1874,-7662,2643,-1,-1,-1
-157.88,13.11,-70.90,1884,-7676,2642,-1,-1,-1
-157.88,13.11,-70.90,1890,-7687,2641,0,0,-1
-157.88,13.11,-70.90,1880,-7678,2648,0,0,-1
-157.87,13.11,-70.89,1884,-7668,2656,-1,-1,-1
-157.87,13.12,-70.89,1890,-7675,2647,-1,0,-1
-157.86,13.12,-70.89,1895,-7679,2647,0,0,-1
-157.86,13.12,-70.89,1895,-7683,2652,0,0,-1
-157.85,13.13,-70.88,1890,-7678,2666,0,0,-1
-157.84,13.13,-70.87,1894,-7664,2671,-1,0,-1
-157.84,13.13,-70.88,1894,-7665,2663,-1,-1,-1
-157.83,13.14,-70.88,1896,-7670,2655,-1,0,-1
-157.84,13.14,-70.89,1888,-7675,2646,-1,0,-1
-157.84,13.14,-70.89,1889,-7669,2645,-1,0,-1
-157.84,13.14,-70.90,1887,-7667,2642,-1,0,-1
-157.84,13.14,-70.90,1888,-7676,2639,-1,0,-1
-157.84,13.14,-70.91,1886,-7676,2643,-1,-1,-1
-157.83,13.15,-70.90,1890,-7679,2643,0,0,-1
-157.83,13.15,-70.90,1893,-7677,2647,0,0,-1
-157.82,13.15,-70.89,1890,-7657,2659,0,0,-1
-157.81,13.16,-70.89,1889,-7668,2665,-1,0,-1
-157.82,13.15,-70.90,1894,-7675,2648,-1,0,-1
-157.82,13.15,-70.90,1892,-7677,2641,-1,0,-1
-157.81,13.16,-70.90,1892,-7673,2649,0,0,-1
-157.81,13.17,-70.90,1899,-7666,2637,-1,0,-1
-157.80,13.17,-70.90,1900,-7665,2652,-1,-1,-1
-157.80,13.17,-70.90,1908,-7661,2651,-1,0,-1
-157.80,13.18,-70.91,1908,-7665,2664,-1,0,-1
-157.80,13.18,-70.91,1898,-7667,2654,0,0,-1
-157.80,13.18,-70.91,1891,-7671,2651,-1,0,-1
-157.80,13.18,-70.91,1885,-7663,2662,-1,0,-1
-157.80,13.18,-70.91,1885,-7664,2649,-1,-1,-1
-157.80,13.18,-70.91,1894,-7673,2651,-1,-1,-1
-157.79,13.19,-70.91,1902,-7685,2652,0,0,-1
-157.78,13.19,-70.90,1898,-7666,2663,0,0,-1
-157.78,13.19,-70.90,1897,-7653,2660,-1,0,0
-157.78,13.19,-70.90,1897,-7660,2654,-1,-1,0
-157.78,13.19,-70.91,1898,-7678,2654,-1,0,-1
-157.78,13.19,-70.91,1890,-7694,2646,0,0,-1
-157.78,13.19,-70.91,1889,-7680,2646,0,0,-1
-157.77,13.19,-70.90,1892,-7672,2648,0,0,-1
-157.76,13.20,-70.90,1893,-7657,2656,0,0,-1
-157.76,13.20,-70.89,1899,-7651,2664,-1,0,-1
-157.76,13.20,-70.89,1909,-7658,2662,-1,-1,-1
-157.75,13.21,-70.89,1915,-7675,2663,-1,-1,-1
-157.75,13.21,-70.90,1903,-7671,2655,0,0,-1
-157.76,13.20,-70.89,1902,-7670,2650,-1,0,-1
-157.75,13.21,-70.89,1896,-7671,2656,0,-1,-1
-157.75,13.21,-70.89,1893,-7678,2659,-1,-1,-1
-157.75,13.21,-70.90,1899,-7675,2653,0,0,-1
-157.75,13.21,-70.89,1895,-7671,2656,0,0,-1
-157.75,13.21,-70.89,1898,-7672,2660,-1,0,-1
-157.75,13.22,-70.90,1900,-7671,2652,-1,0,-1
-157.74,13.22,-70.89,1901,-7674,2643,0,0,-1
-157.74,13.22,-70.89,1896,-7671,2647,0,0,-1
-157.73,13.22,-70.89,1895,-7667,2659,0,0,-1
-157.72,13.23,-70.88,1894,-7662,2671,-1,0,-1
-157.72,13.23,-70.88,1901,-7665,2664,0,0,-1
-157.72,13.23,-70.88,1905,-7662,2673,-1,0,-1
-157.72,13.23,-70.89,1909,-7678,2662,-1,0,-1
-157.71,13.24,-70.89,1896,-7673,2658,-1,-1,-1
-157.72,13.24,-70.89,1902,-7677,2642,0,0,-1
-157.72,13.24,-70.89,1912,-7678,2640,0,0,-1
-157.71,13.24,-70.89,1902,-7677,2643,0,0,-1
-157.71,13.24,-70.89,1898,-7679,2655,0,0,0
-157.71,13.24,-70.89,1898,-7680,2645,0,0,-1
-157.71,13.24,-70.89,1902,-7677,2639,0,0,-1
-157.70,13.24,-70.88,1899,-7672,2659,-1,0,-1
-157.70,13.24,-70.88,1899,-7676,2659,0,0,-1
-157.69,13.25,-70.88,1901,-7673,2660,0,0,-1
-157.68,13.26,-70.88,1904,-7660,2656,0,0,-1
-157.68,13.26,-70.86,1907,-7656,2668,0,0,-1
-157.68,13.26,-70.86,1898,-7654,2665,-1,0,-1
-157.68,13.26,-70.87,1899,-7655,2664,-1,0,-1
-157.67,13.26,-70.87,1908,-7670,2667,-1,0,-1
-157.67,13.27,-70.87,1906,-7674,2658,0,0,-1
-157.66,13.27,-70.86,1919,-7658,2661,0,0,-1
-157.65,13.27,-70.86,1914,-7642,2669,-1,0,0
-157.66,13.27,-70.86,1904,-7653,2662,-1,-1,-1
-157.66,13.27,-70.87,1909,-7675,2650,-1,0,-1
-157.65,13.28,-70.88,1910,-7687,2634,-1,0,-1
-157.65,13.28,-70.88,1905,-7680,2632,0,0,-1
-157.65,13.28,-70.88,1902,-7666,2643,0,0,-1
-157.63,13.30,-70.87,1909,-7664,2659,-1,0,-1
-157.62,13.30,-70.87,1917,-7661,2665,-1,0,-1
-157.62,13.30,-70.87,1917,-7662,2674,-1,-1,-1
-157.62,13.31,-70.87,1919,-7662,2680,-1,0,-1
-157.62,13.31,-70.88,1909,-7664,2666,-1,-1,-1
-157.61,13.31,-70.88,1923,-7661,2667,-1,0,-1
-157.61,13.32,-70.88,1917,-7665,2651,-1,0,-1
-157.60,13.32,-70.89,1920,-7663,2649,-1,0,-1
-157.60,13.32,-70.89,1917,-7668,2643,-1,0,-1
-157.60,13.32,-70.90,1915,-7671,2631,-1,0,-1
-157.60,13.33,-70.89,1920,-7673,2649,0,0,-1
-157.59,13.33,-70.89,1922,-7676,2653,0,0,-1
-157.59,13.33,-70.89,1917,-7668,2648,0,0,-1
-157.58,13.34,-70.89,1910,-7663,2645,0,0,-1
-157.58,13.34,-70.88,1910,-7662,2664,0,0,-1
-157.58,13.34,-70.88,1918,-7667,2666,-1,0,-1
-157.58,13.34,-70.88,1917,-7660,2669,-1,-1,0
-157.58,13.34,-70.88,1926,-7662,2649,0,0,-1
-157.58,13.34,-70.89,1922,-7673,2656,-1,-1,-1
-157.57,13.34,-70.89,1918,-7668,2663,-1,0,-1
-157.56,13.35,-70.89,1917,-7661,2653,-1,0,-1
-157.57,13.35,-70.89,1915,-7667,2646,0,0,-1
-157.56,13.35,-70.89,1915,-7668,2653,0,0,-1
-157.55,13.36,-70.88,1927,-7659,2656,0,0,-1
-157.54,13.37,-70.88,1927,-7656,2664,-1,0,-1
-157.54,13.37,-70.88,1924,-7658,2661,-1,0,-1
-157.54,13.36,-70.88,1917,-7665,2656,0,0,-1
-157.54,13.36,-70.88,1920,-7663,2664,-1,0,-1
-157.54,13.37,-70.89,1919,-7661,2658,-1,0,-1
-157.54,13.37,-70.89,1917,-7658,2655,-1,-1,-1
-157.54,13.37,-70.89,1918,-7669,2641,0,0,-1
-157.53,13.38,-70.88,1912,-7669,2656,0,0,-1
-157.53,13.37,-70.87,1930,-7650,2656,0,-1,-1
-157.52,13.38,-70.88,1931,-7651,2650,-1,-1,0
-157.53,13.37,-70.87,1917,-7672,2647,0,0,0
-157.53,13.37,-70.87,1927,-7673,2651,0,0,0
-157.53,13.36,-70.86,1911,-7674,2650,0,0,-1
-157.53,13.36,-70.86,1916,-7673,2651,0,0,-1
-157.53,13.36,-70.85,1917,-7662,2652,0,-1,0
-157.52,13.36,-70.85,1918,-7655,2665,0,0,0
-157.52,13.36,-70.84,1931,-7658,2678,-1,-1,0
-157.53,13.36,-70.85,1929,-7666,2659,0,-1,0
-157.53,13.36,-70.85,1933,-7653,2668,-1,-1,0
-157.54,13.35,-70.85,1913,-7652,2666,0,-1,0
-157.54,13.35,-70.85,1921,-7645,2670,-1,0,0
-157.55,13.34,-70.86,1919,-7662,2665,-1,0,0
-157.55,13.34,-70.85,1910,-7678,2658,0,-1,-1
-157.56,13.34,-70.85,1916,-7668,2667,-1,-1,0
-157.56,13.34,-70.86,1903,-7669,2648,0,-1,0
-157.56,13.34,-70.86,1915,-7662,2647,-1,0,-1
-157.55,13.34,-70.85,1914,-7668,2652,0,0,-1
-157.55,13.34,-70.85,1913,-7661,2668,0,0,0
-157.56,13.33,-70.85,1909,-7657,2675,-1,-1,0
-157.56,13.33,-70.85,1905,-7655,2671,0,-1,-1
-157.56,13.33,-70.84,1907,-7663,2673,-1,-1,0
-157.57,13.32,-70.85,1912,-7661,2663,-1,-1,0
-157.57,13.32,-70.85,1914,-7662,2658,-1,-1,0
-157.58,13.32,-70.86,1908,-7661,2651,-1,-1,0
-157.59,13.32,-70.86,1903,-7661,2660,-1,0,0
-157.59,13.31,-70.87,1908,-7667,2655,-1,0,0
-157.59,13.31,-70.86,1914,-7658,2660,-1,0,0
-157.59,13.31,-70.86,1909,-7669,2658,0,0,-1
-157.59,13.31,-70.86,1906,-7666,2659,0,0,-1
-157.59,13.31,-70.86,1905,-7655,2655,0,0,-1
-157.59,13.31,-70.86,1914,-7652,2661,-1,-1,-1
-157.59,13.31,-70.86,1916,-7654,2659,-1,0,0
-157.60,13.31,-70.87,1911,-7666,2658,-1,-1,0
-157.61,13.30,-70.88,1911,-7672,2648,-1,-1,0
-157.61,13.30,-70.88,1909,-7667,2651,-1,0,0
-157.61,13.30,-70.88,1918,-7666,2644,0,-1,0
-157.61,13.30,-70.88,1908,-7664,2641,-1,-1,0
-157.63,13.29,-70.89,1908,-7662,2645,-1,-1,0
-157.63,13.29,-70.90,1907,-7677,2641,-1,-1,-1
-157.62,13.29,-70.89,1912,-7670,2648,0,0,0
-157.62,13.29,-70.88,1915,-7664,2659,0,0,0
-157.63,13.29,-70.88,1907,-7657,2666,-1,-1,0
-157.63,13.28,-70.89,1905,-7662,2665,-1,-1,0
-157.64,13.28,-70.88,1910,-7681,2664,0,-1,0
-157.65,13.27,-70.88,1904,-7680,2649,0,0,0
-157.65,13.26,-70.87,1899,-7669,2650,0,0,0
-157.65,13.26,-70.87,1889,-7665,2651,0,-1,-1
-157.65,13.26,-70.86,1896,-7672,2648,0,-1,-1
-157.66,13.25,-70.86,1903,-7671,2643,0,-1,-1
-157.65,13.26,-70.85,1918,-7670,2660,0,-1,0
-157.64,13.26,-70.83,1924,-7644,2669,0,0,0
-157.65,13.25,-70.83,1907,-7647,2671,-1,-1,0
-157.66,13.24,-70.83,1909,-7631,2689,-1,0,0
-157.68,13.23,-70.85,1904,-7655,2644,0,-1,0
-157.67,13.23,-70.84,1897,-7664,2672,-1,-1,0
-157.68,13.23,-70.84,1898,-7663,2652,0,0,-1
-157.68,13.22,-70.83,1888,-7655,2671,-1,-1,0
-157.68,13.22,-70.83,1890,-7650,2662,0,0,0
-157.69,13.22,-70.84,1899,-7666,2664,-1,-1,0
-157.69,13.21,-70.84,1899,-7667,2658,-1,0,0
-157.70,13.21,-70.85,1884,-7677,2645,0,-1,0
-157.70,13.21,-70.85,1893,-7679,2645,-1,-1,-1
-157.70,13.21,-70.85,1898,-7682,2654,0,-1,0
-157.70,13.21,-70.85,1900,-7669,2678,-1,-1,0
-157.71,13.20,-70.85,1895,-7662,2670,-1,-1,0
-157.71,13.21,-70.86,1904,-7669,2655,-1,0,0
-157.72,13.20,-70.87,1894,-7673,2649,-1,-1,0
-157.72,13.20,-70.87,1889,-7679,2650,0,0,-1
-157.72,13.20,-70.87,1889,-7679,2654,-1,0,-1
-157.72,13.20,-70.86,1891,-7669,2662,0,0,-1
-157.72,13.20,-70.86,1888,-7665,2649,-1,-1,0
-157.72,13.19,-70.86,1893,-7661,2647,0,0,0
-157.73,13.19,-70.87,1893,-7669,2632,-1,0,0
-157.74,13.18,-70.87,1890,-7682,2661,-1,0,0
-157.74,13.18,-70.87,1888,-7681,2662,0,0,-1
-157.74,13.18,-70.88,1891,-7674,2663,-1,-1,-1
-157.74,13.18,-70.88,1892,-7665,2661,-1,0,-1
-157.74,13.18,-70.88,1898,-7660,2659,-1,0,-1
-157.74,13.18,-70.89,1897,-7668,2654,-1,0,-1
-157.74,13.18,-70.89,1898,-7672,2652,-1,-1,0
-157.74,13.18,-70.89,1890,-7668,2650,-1,0,0
-157.75,13.18,-70.90,1890,-7673,2655,-1,-1,-1
-157.76,13.18,-70.91,1892,-7676,2655,-1,-1,-1
-157.76,13.18,-70.91,1886,-7676,2644,-1,0,-1
-157.76,13.18,-70.91,1887,-7672,2650,-1,0,0
-157.76,13.17,-70.91,1884,-7674,2649,-1,-1,0
-157.77,13.17,-70.92,1881,-7678,2649,-1,-1,-1
-157.77,13.17,-70.92,1891,-7684,2642,0,-1,-1
-157.76,13.18,-70.92,1895,-7674,2639,0,-1,-1
-157.76,13.18,-70.91,1899,-7659,2650,0,0,0
-157.76,13.17,-70.91,1900,-7656,2647,-1,-1,0
-157.77,13.17,-70.92,1895,-7669,2642,-1,-1,0
-157.77,13.17,-70.93,1889,-7686,2647,-1,-1,0
-157.77,13.17,-70.93,1887,-7686,2639,-1,0,-1
-157.78,13.17,-70.93,1879,-7678,2632,0,0,-1
-157.77,13.17,-70.92,1881,-7672,2647,0,0,-1
-157.76,13.17,-70.92,1889,-7670,2646,0,-1,-1
-157.76,13.18,-70.92,1895,-7666,2655,-1,-1,-1
-157.76,13.18,-70.92,1899,-7674,2660,-1,-1,-1
-157.76,13.19,-70.92,1904,-7670,2660,0,0,-1
-157.76,13.18,-70.92,1898,-7672,2659,-1,0,-1
-157.76,13.18,-70.92,1887,-7660,2663,-1,0,0
-157.76,13.18,-70.93,1887,-7669,2641,-1,-1,-1
-157.76,13.19,-70.93,1889,-7674,2638,0,-1,-1
-157.76,13.19,-70.93,1896,-7674,2637,0,0,-1
-157.75,13.19,-70.92,1886,-7668,2653,-1,0,-1
-157.75,13.19,-70.92,1885,-7673,2651,0,-1,-1
-157.75,13.19,-70.92,1882,-7677,2643,-1,0,-1
-157.75,13.19,-70.92,1888,-7670,2652,0,0,-1
-157.74,13.19,-70.91,1894,-7670,2655,0,0,-1
-157.73,13.19,-70.91,1894,-7666,2653,0,0,-1
-157.74,13.20,-70.91,1891,-7667,2660,0,0,-1
-157.74,13.20,-70.91,1887,-7668,2665,-1,-1,-1
-157.73,13.20,-70.91,1892,-7674,2659,-1,0,-1
-157.73,13.20,-70.92,1900,-7674,2654,-1,-1,-1
-157.73,13.20,-70.92,1899,-7676,2646,-1,0,-1
-157.73,13.20,-70.92,1897,-7669,2643,-1,-1,-1
-157.73,13.20,-70.92,1899,-7668,2643,0,0,-1
-157.73,13.20,-70.93,1894,-7674,2638,0,0,-1
-157.73,13.21,-70.92,1898,-7676,2658,0,0,-1
-157.72,13.21,-70.92,1899,-7674,2666,0,0,-1
-157.71,13.22,-70.91,1899,-7666,2664,0,0,-1
-157.71,13.22,-70.91,1896,-7671,2661,-1,0,-1
-157.71,13.22,-70.91,1895,-7672,2660,-1,0,-1
-157.71,13.22,-70.91,1898,-7669,2659,-1,0,-1
-157.71,13.22,-70.91,1893,-7662,2652,-1,0,-1
-157.71,13.22,-70.91,1890,-7669,2650,-1,-1,-1
-157.71,13.22,-70.91,1894,-7665,2655,-1,-1,-1
-157.71,13.22,-70.91,1895,-7668,2653,-1,0,-1
-157.71,13.22,-70.91,1898,-7666,2655,-1,0,-1
-157.71,13.22,-70.92,1898,-7667,2654,0,0,-1
-157.70,13.22,-70.91,1902,-7670,2655,0,0,-1
-157.70,13.23,-70.90,1904,-7667,2661,0,0,-1
-157.70,13.23,-70.90,1904,-7664,2655,0,0,0
-157.70,13.22,-70.90,1906,-7667,2664,-1,0,0
-157.70,13.22,-70.91,1898,-7685,2643,-1,-1,-1
-157.70,13.23,-70.91,1902,-7686,2638,0,-1,-1
-157.70,13.23,-70.90,1905,-7672,2647,0,0,-1
-157.68,13.23,-70.89,1904,-7655,2645,0,0,-1
-157.69,13.23,-70.89,1900,-7651,2666,-1,0,0
-157.69,13.23,-70.90,1893,-7678,2648,-1,-1,-1
-157.69,13.23,-70.90,1891,-7683,2642,0,0,0
-157.70,13.22,-70.90,1892,-7690,2636,0,0,-1
-157.69,13.22,-70.89,1891,-7679,2645,0,0,-1
-157.68,13.23,-70.88,1886,-7677,2662,0,0,-1
-157.67,13.23,-70.87,1900,-7663,2670,-1,0,-1
-157.66,13.24,-70.87,1908,-7664,2660,0,0,-1
-157.66,13.24,-70.87,1919,-7670,2664,-1,0,0
-157.66,13.24,-70.87,1899,-7673,2662,0,0,-1
-157.66,13.24,-70.86,1901,-7665,2666,0,0,-1
-157.65,13.24,-70.86,1901,-7657,2673,-1,-1,-1
-157.65,13.25,-70.87,1906,-7655,2656,-1,-1,-1
-157.65,13.25,-70.87,1909,-7666,2656,-1,0,-1
-157.65,13.25,-70.87,1898,-7672,2661,0,0,-1
-157.64,13.25,-70.86,1906,-7662,2654,-1,0,-1
-157.64,13.26,-70.87,1905,-7674,2651,-1,0,-1
-157.64,13.26,-70.87,1908,-7677,2653,-1,0,-1
-157.64,13.26,-70.87,1903,-7671,2653,0,0,-1
-157.62,13.27,-70.86,1908,-7672,2654,0,0,-1
-157.62,13.27,-70.86,1909,-7671,2664,-1,0,-1
-157.61,13.28,-70.86,1911,-7672,2672,-1,0,-1
-157.61,13.28,-70.86,1909,-7668,2677,-1,-1,-1
-157.60,13.29,-70.86,1913,-7671,2676,-1,0,-1
-157.61,13.28,-70.87,1910,-7669,2661,-1,-1,-1
-157.61,13.28,-70.88,1910,-7672,2653,0,0,-1
-157.61,13.28,-70.87,1904,-7674,2655,-1,0,-1
-157.60,13.29,-70.87,1908,-7670,2659,0,-1,-1
-157.60,13.29,-70.87,1915,-7664,2666,0,0,-1
-157.59,13.30,-70.86,1917,-7673,2652,0,0,-1
-157.58,13.30,-70.85,1916,-7666,2656,0,0,-1
-157.58,13.30,-70.85,1908,-7667,2661,0,0,-1
-157.57,13.30,-70.84,1913,-7658,2676,-1,0,-1
-157.57,13.31,-70.85,1918,-7659,2659,0,0,-1
-157.57,13.30,-70.85,1904,-7662,2663,-1,-1,-1
-157.57,13.30,-70.85,1905,-7670,2651,0,0,-1
-157.56,13.31,-70.85,1913,-7658,2662,-1,0,-1
-157.56,13.31,-70.85,1913,-7650,2665,-1,0,-1
-157.55,13.31,-70.85,1906,-7642,2663,-1,-1,-1
-157.56,13.32,-70.86,1906,-7647,2655,-1,0,-1
-157.56,13.32,-70.87,1907,-7652,2644,-1,0,-1
-157.55,13.32,-70.87,1900,-7653,2645,-1,0,-1
-157.55,13.33,-70.88,1898,-7667,2656,-1,0,-1
-157.54,13.33,-70.87,1909,-7673,2650,0,0,-1
-157.53,13.34,-70.87,1919,-7661,2647,0,0,-1
-157.52,13.35,-70.87,1921,-7643,2651,-1,0,-1
-157.53,13.34,-70.88,1910,-7644,2657,-1,0,0
-157.54,13.34,-70.89,1907,-7661,2654,-1,0,-1
-157.53,13.34,-70.89,1910,-7682,2658,-1,0,-1
-157.53,13.34,-70.89,1907,-7684,2660,0,0,-1
-157.53,13.34,-70.88,1908,-7671,2658,0,0,-1
-157.52,13.35,-70.88,1910,-7663,2652,0,0,-1
-157.50,13.36,-70.87,1921,-7651,2658,-1,0,-1
-157.50,13.36,-70.88,1921,-7654,2664,-1,0,-1
-157.50,13.36,-70.88,1919,-7660,2658,-1,-1,-1
-157.50,13.37,-70.88,1922,-7661,2668,-1,0,-1
-157.50,13.37,-70.89,1917,-7666,2649,0,0,-1
-157.49,13.36,-70.88,1929,-7663,2667,-1,0,-1
-157.50,13.37,-70.89,1921,-7662,2657,-1,0,-1
-157.49,13.37,-70.89,1916,-7658,2663,-1,0,-1
-157.49,13.37,-70.89,1913,-7666,2656,-1,0,-1
-157.50,13.37,-70.90,1909,-7672,2651,-1,0,-1
-157.49,13.37,-70.90,1917,-7665,2643,0,0,-1
-157.49,13.37,-70.89,1913,-7667,2650,0,0,-1
-157.48,13.37,-70.89,1916,-7665,2662,0,0,-1
-157.47,13.38,-70.88,1921,-7661,2673,-1,0,-1
-157.47,13.38,-70.88,1926,-7663,2670,-1,0,-1
-157.47,13.38,-70.89,1928,-7668,2667,-1,0,-1
-157.47,13.38,-70.89,1929,-7665,2660,-1,-1,-1
-157.48,13.38,-70.89,1924,-7673,2664,-1,-1,-1
-157.48,13.38,-70.90,1922,-7674,2655,-1,-1,-1
-157.48,13.38,-70.90,1916,-7674,2653,-1,0,0
-157.48,13.38,-70.90,1914,-7671,2656,0,-1,0
-157.48,13.37,-70.89,1920,-7669,2657,0,0,0
-157.49,13.37,-70.90,1920,-7671,2646,0,0,0
-157.49,13.37,-70.89,1928,-7666,2668,-1,-1,0
-157.50,13.36,-70.90,1912,-7676,2663,0,-1,0
-157.49,13.36,-70.89,1911,-7665,2661,0,-1,0
-157.49,13.36,-70.89,1916,-7667,2648,0,0,0
-157.50,13.35,-70.88,1910,-7657,2649,0,-1,0
-157.50,13.35,-70.87,1918,-7653,2658,-1,-1,0
-157.50,13.34,-70.88,1910,-7662,2658,-1,-1,0
-157.51,13.34,-70.89,1913,-7669,2646,0,-1,-1
-157.51,13.34,-70.89,1913,-7673,2642,0,-1,-1
-157.51,13.35,-70.88,1924,-7670,2649,0,0,0
-157.52,13.34,-70.88,1919,-7655,2647,0,0,0
-157.52,13.33,-70.87,1914,-7657,2670,-1,0,0
-157.53,13.33,-70.88,1917,-7667,2653,-1,-1,0
-157.53,13.32,-70.88,1912,-7676,2654,-1,-1,0
-157.54,13.32,-70.88,1898,-7677,2645,0,0,-1
-157.53,13.32,-70.87,1907,-7674,2653,0,0,-1
-157.53,13.31,-70.85,1907,-7662,2665,0,-1,-1
-157.52,13.32,-70.85,1917,-7657,2669,0,0,0
-157.53,13.31,-70.85,1915,-7662,2680,-1,0,0
-157.54,13.30,-70.85,1916,-7662,2670,0,0,0
-157.54,13.30,-70.84,1916,-7658,2681,-1,-1,0
-157.56,13.29,-70.86,1898,-7667,2650,-1,-1,0
-157.56,13.29,-70.86,1912,-7668,2644,0,-1,0
-157.56,13.29,-70.86,1909,-7673,2635,0,0,0
-157.57,13.28,-70.85,1894,-7671,2662,-1,0,0
-157.58,13.27,-70.86,1893,-7671,2658,-1,-1,0
-157.58,13.27,-70.86,1905,-7667,2663,-1,0,0
-157.58,13.27,-70.86,1910,-7665,2663,0,0,0
-157.59,13.26,-70.85,1898,-7660,2669,-1,0,0
-157.59,13.26,-70.86,1901,-7666,2663,-1,-1,-1
-157.59,13.26,-70.86,1900,-7667,2664,0,0,-1
-157.59,13.26,-70.86,1911,-7662,2664,-1,-1,-1
-157.59,13.26,-70.86,1912,-7659,2672,-1,-1,0
-157.60,13.26,-70.87,1915,-7670,2656,-1,-1,0
-157.60,13.26,-70.88,1916,-7662,2655,-1,0,0
-157.62,13.25,-70.89,1900,-7675,2642,-1,-1,0
-157.63,13.24,-70.89,1895,-7675,2653,-1,-1,0
-157.63,13.24,-70.89,1900,-7673,2636,0,0,0
-157.63,13.24,-70.90,1899,-7672,2643,0,-1,-1
-157.63,13.24,-70.89,1906,-7668,2641,0,0,0
-157.63,13.24,-70.89,1908,-7666,2655,0,-1,0
-157.63,13.24,-70.89,1903,-7671,2651,-1,-1,0
-157.64,13.23,-70.89,1897,-7667,2653,-1,-1,0
-157.64,13.23,-70.89,1906,-7668,2650,-1,-1,0
-157.64,13.23,-70.90,1903,-7672,2656,-1,-1,0
-157.65,13.22,-70.90,1903,-7662,2660,-1,-1,0
-157.66,13.22,-70.90,1895,-7664,2667,-1,-1,0
-157.67,13.22,-70.91,1897,-7671,2651,-1,-1,0
-157.67,13.22,-70.92,1903,-7672,2638,-1,-1,0
-157.67,13.22,-70.91,1896,-7669,2652,0,-1,0
-157.66,13.22,-70.91,1900,-7653,2671,-1,-1,0
-157.68,13.21,-70.91,1901,-7656,2662,-1,0,0
-157.69,13.20,-70.92,1897,-7662,2660,-1,-1,0
-157.69,13.20,-70.92,1895,-7672,2649,-1,0,0
-157.69,13.20,-70.92,1895,-7677,2651,0,0,0
-157.70,13.19,-70.92,1890,-7676,2648,0,-1,0
-157.70,13.19,-70.91,1897,-7672,2658,0,-1,0
-157.70,13.19,-70.91,1904,-7669,2653,0,-1,0
-157.70,13.19,-70.91,1906,-7675,2646,0,-1,0
-157.70,13.19,-70.91,1905,-7664,2670,0,0,0
-157.71,13.18,-70.91,1903,-7669,2644,-1,-1,0
-157.72,13.17,-70.92,1895,-7671,2646,-1,-1,0
-157.72,13.17,-70.92,1897,-7678,2651,0,-1,0
-157.72,13.16,-70.91,1899,-7683,2656,0,-1,0
-157.73,13.16,-70.90,1896,-7683,2650,0,0,0
-157.72,13.16,-70.89,1903,-7669,2659,0,0,0
-157.73,13.15,-70.89,1890,-7668,2662,-1,-1,0
-157.74,13.15,-70.89,1906,-7678,2629,0,0,0
-157.74,13.14,-70.88,1899,-7661,2659,0,0,0
-157.74,13.14,-70.87,1896,-7661,2665,-1,0,0
-157.75,13.13,-70.87,1883,-7663,2662,0,0,0
-157.75,13.12,-70.86,1904,-7657,2670,-1,0,0
-157.75,13.12,-70.87,1880,-7660,2670,0,0,0
-157.75,13.12,-70.86,1894,-7657,2680,-1,-1,0
-157.76,13.12,-70.87,1905,-7661,2649,0,0,0
-157.77,13.11,-70.87,1895,-7662,2666,-1,-1,0
-157.78,13.10,-70.87,1881,-7671,2653,0,-1,0
-157.78,13.10,-70.87,1890,-7662,2661,-1,-1,0
-157.78,13.10,-70.88,1898,-7665,2656,0,0,0
-157.79,13.09,-70.87,1878,-7670,2662,0,-1,0
-157.80,13.09,-70.88,1877,-7670,2666,-1,-1,0
-157.79,13.09,-70.87,1877,-7674,2664,-1,-1,-1
-157.79,13.09,-70.87,1885,-7669,2668,-1,-1,0
-157.80,13.09,-70.88,1884,-7676,2656,0,0,0
-157.80,13.09,-70.88,1881,-7676,2656,-1,-1,0
-157.80,13.09,-70.89,1877,-7683,2650,-1,-1,-1
-157.80,13.09,-70.89,1877,-7675,2645,-1,-1,-1
-157.80,13.09,-70.89,1889,-7679,2652,0,-1,-1
-157.80,13.10,-70.89,1891,-7675,2647,-1,-1,0
-157.80,13.10,-70.89,1889,-7681,2651,0,-1,0
-157.81,13.09,-70.89,1885,-7670,2643,0,-1,0
-157.81,13.09,-70.89,1882,-7669,2662,-1,-1,0
-157.81,13.09,-70.90,1874,-7669,2659,-1,-1,0
-157.81,13.09,-70.91,1879,-7683,2649,-1,-1,-1
-157.81,13.09,-70.90,1878,-7686,2651,0,-1,-1
-157.80,13.10,-70.90,1884,-7670,2655,0,0,-1
-157.80,13.10,-70.89,1881,-7648,2663,-1,-1,-1
-157.80,13.10,-70.90,1877,-7651,2668,-1,-1,0
-157.80,13.10,-70.91,1882,-7679,2663,-1,-1,-1
-157.81,13.10,-70.92,1882,-7686,2648,-1,-1,0
-157.81,13.10,-70.92,1871,-7687,2648,0,0,-1
-157.81,13.10,-70.91,1873,-7685,2639,0,-1,-1
-157.80,13.10,-70.90,1879,-7671,2652,0,0,-1
-157.79,13.11,-70.90,1883,-7663,2659,-1,-1,-1
-157.79,13.12,-70.90,1897,-7670,2665,-1,-1,-1
-157.79,13.12,-70.91,1892,-7675,2664,-1,-1,-1
-157.79,13.12,-70.91,1889,-7678,2668,0,-1,-1
-157.79,13.12,-70.91,1885,-7671,2669,-1,-1,-1
-157.78,13.12,-70.91,1890,-7667,2668,-1,-1,-1
-157.78,13.12,-70.91,1893,-7684,2664,-1,0,-1
-157.78,13.12,-70.91,1885,-7684,2659,0,0,-1
-157.78,13.12,-70.91,1881,-7678,2660,0,-1,-1
-157.78,13.12,-70.91,1883,-7673,2664,-1,-1,-1
-157.77,13.13,-70.90,1891,-7676,2651,0,0,-1
-157.77,13.13,-70.89,1898,-7676,2663,-1,0,-1
-157.77,13.13,-70.89,1896,-7678,2661,0,0,-1
-157.76,13.13,-70.89,1893,-7670,2669,-1,-1,-1
-157.75,13.14,-70.88,1894,-7669,2669,0,0,-1
-157.75,13.14,-70.88,1898,-7662,2674,-1,-1,-1
-157.74,13.15,-70.87,1900,-7662,2669,0,0,-1
-157.75,13.14,-70.87,1902,-7666,2671,0,-1,0
-157.75,13.14,-70.87,1900,-7674,2664,0,0,0
-157.74,13.14,-70.86,1899,-7666,2670,-1,-1,0
-157.74,13.14,-70.87,1906,-7680,2645,0,0,0
-157.74,13.13,-70.85,1891,-7686,2651,0,0,-1
-157.72,13.14,-70.83,1898,-7681,2658,0,0,-1
-157.72,13.13,-70.82,1894,-7658,2677,0,-1,-1
-157.72,13.13,-70.82,1877,-7651,2662,0,0,-1
-157.71,13.14,-70.81,1897,-7669,2677,-1,-1,-1
-157.71,13.14,-70.81,1885,-7676,2670,0,-1,-1
-157.71,13.14,-70.81,1908,-7667,2672,0,0,-1
-157.71,13.13,-70.80,1888,-7660,2687,0,0,0
-157.72,13.13,-70.82,1879,-7664,2666,0,-1,-1
-157.71,13.14,-70.81,1896,-7677,2662,-1,-1,-1
-157.71,13.14,-70.81,1898,-7671,2658,0,0,-1
-157.71,13.14,-70.81,1891,-7669,2659,-1,-1,-1
-157.71,13.14,-70.81,1900,-7669,2658,0,0,0
-157.71,13.14,-70.81,1893,-7658,2680,-1,0,0
-157.71,13.14,-70.81,1893,-7665,2669,-1,0,-1
-157.71,13.15,-70.82,1899,-7669,2657,-1,-1,0
-157.71,13.15,-70.82,1894,-7670,2660,0,-1,-1
-157.71,13.15,-70.82,1887,-7678,2666,-1,0,-1
-157.71,13.15,-70.82,1890,-7679,2669,-1,-1,-1
-157.70,13.16,-70.82,1910,-7662,2663,0,-1,-1
-157.70,13.16,-70.82,1910,-7656,2654,0,-1,-1
-157.68,13.17,-70.81,1902,-7653,2670,0,0,-1
-157.69,13.16,-70.81,1896,-7663,2677,-1,-1,-1
-157.69,13.17,-70.82,1895,-7666,2663,-1,0,0
-157.69,13.16,-70.83,1895,-7678,2653,-1,0,0
-157.69,13.16,-70.83,1888,-7675,2640,0,0,-1
-157.69,13.17,-70.83,1888,-7668,2641,0,0,-1
-157.67,13.18,-70.82,1902,-7662,2660,0,0,-1
-157.66,13.18,-70.82,1903,-7660,2669,-1,0,-1
-157.67,13.18,-70.83,1900,-7661,2669,-1,-1,-1
-157.66,13.19,-70.83,1903,-7660,2667,-1,0,-1
-157.66,13.19,-70.84,1908,-7668,2672,-1,-1,-1
-157.66,13.19,-70.84,1902,-7672,2645,0,-1,0
-157.67,13.19,-70.84,1896,-7672,2657,0,-1,-1
-157.66,13.19,-70.84,1898,-7682,2645,0,0,-1
-157.66,13.20,-70.83,1888,-7672,2657,-1,-1,-1
-157.66,13.20,-70.83,1898,-7667,2651,0,0,-1
-157.65,13.20,-70.82,1908,-7658,2675,-1,-1,0
-157.65,13.20,-70.82,1901,-7659,2660,0,0,-1
-157.64,13.20,-70.83,1893,-7671,2657,-1,0,-1
-157.64,13.20,-70.82,1907,-7666,2663,0,0,-1
-157.63,13.21,-70.81,1900,-7653,2675,0,-1,-1
-157.62,13.21,-70.81,1892,-7659,2684,-1,-1,-1
-157.62,13.21,-70.81,1901,-7659,2667,-1,0,-1
-157.63,13.22,-70.82,1903,-7661,2676,-1,0,-1
-157.62,13.22,-70.80,1898,-7661,2683,0,0,-1
-157.62,13.22,-70.81,1897,-7665,2668,-1,0,-1
-157.62,13.22,-70.81,1898,-7663,2665,0,-1,-1
-157.62,13.22,-70.81,1906,-7665,2660,-1,0,0
-157.61,13.22,-70.81,1899,-7671,2670,0,0,-1
-157.61,13.22,-70.81,1907,-7670,2672,0,0,-1
-157.60,13.23,-70.80,1892,-7664,2670,-1,-1,-1
-157.60,13.23,-70.80,1904,-7665,2674,0,0,-1
-157.60,13.23,-70.80,1903,-7669,2659,-1,-1,-1
-157.59,13.23,-70.79,1902,-7674,2674,0,0,-1
-157.58,13.23,-70.79,1909,-7671,2661,-1,0,-1
-157.57,13.24,-70.78,1914,-7659,2694,-1,-1,-1
-157.58,13.24,-70.79,1909,-7659,2662,0,0,-1
-157.57,13.24,-70.78,1897,-7648,2681,-1,-1,-1
-157.58,13.24,-70.79,1910,-7651,2668,0,0,-1
-157.57,13.24,-70.78,1903,-7647,2674,-1,-1,-1
-157.57,13.24,-70.78,1903,-7661,2667,0,0,-1
-157.57,13.24,-70.78,1901,-7669,2678,0,0,0
-157.57,13.24,-70.78,1887,-7657,2671,-1,-1,-1
-157.57,13.24,-70.79,1893,-7656,2688,-1,-1,-1
-157.57,13.25,-70.80,1901,-7675,2652,0,0,-1
-157.56,13.25,-70.79,1905,-7666,2665,0,0,-1
-157.56,13.25,-70.79,1906,-7657,2656,0,0,-1
-157.56,13.25,-70.79,1910,-7652,2655,-1,0,0
-157.56,13.26,-70.80,1910,-7663,2664,-1,-1,-1
-157.56,13.26,-70.81,1916,-7677,2637,-1,-1,-1
-157.57,13.25,-70.81,1907,-7673,2652,0,-1,-1
-157.56,13.26,-70.81,1911,-7668,2654,0,0,-1
-157.55,13.26,-70.80,1901,-7658,2673,0,0,-1
-157.54,13.26,-70.79,1905,-7661,2675,0,-1,-1
-157.53,13.27,-70.79,1909,-7657,2677,-1,0,-1
-157.54,13.27,-70.80,1912,-7669,2661,-1,0,-1
-157.53,13.27,-70.79,1916,-7657,2682,-1,0,-1
-157.53,13.27,-70.80,1913,-7655,2671,-1,0,-1
-157.53,13.28,-70.80,1918,-7650,2663,-1,-1,-1
-157.53,13.29,-70.81,1929,-7650,2662,-1,0,-1
-157.52,13.28,-70.82,1921,-7655,2655,-1,-1,-1
-157.52,13.29,-70.82,1919,-7657,2658,-1,0,-1
-157.52,13.29,-70.83,1912,-7669,2653,-1,-1,-1
-157.53,13.29,-70.84,1910,-7670,2659,-1,0,-1
-157.52,13.30,-70.85,1913,-7665,2643,-1,-1,-1
-157.51,13.30,-70.84,1914,-7664,2647,0,0,-1
-157.50,13.31,-70.84,1918,-7666,2654,0,0,-1
-157.50,13.31,-70.84,1926,-7670,2655,0,0,-1
-157.50,13.31,-70.84,1926,-7667,2654,-1,-1,-1
-157.50,13.31,-70.84,1923,-7661,2668,-1,-1,-1
-157.50,13.31,-70.84,1922,-7664,2667,-1,-1,-1
-157.50,13.31,-70.84,1930,-7662,2662,-1,0,0
-157.50,13.32,-70.85,1932,-7654,2646,-1,-1,0
-157.50,13.32,-70.86,1932,-7652,2642,-1,-1,0
-157.51,13.31,-70.86,1926,-7670,2647,-1,-1,0
-157.51,13.31,-70.86,1927,-7672,2648,0,0,0
-157.51,13.31,-70.86,1924,-7667,2655,-1,-1,0
-157.51,13.31,-70.87,1924,-7664,2647,0,-1,0
-157.51,13.31,-70.87,1919,-7661,2648,-1,-1,0
-157.51,13.31,-70.87,1915,-7663,2655,-1,-1,0
-157.52,13.31,-70.86,1920,-7663,2654,-1,-1,0
-157.52,13.31,-70.87,1923,-7669,2647,-1,-1,0
-157.52,13.31,-70.87,1922,-7671,2646,0,-1,0
-157.53,13.30,-70.87,1921,-7671,2659,-1,-1,0
-157.53,13.30,-70.87,1908,-7668,2661,-1,-1,0
-157.53,13.30,-70.88,1904,-7673,2653,-1,-1,0
-157.54,13.30,-70.88,1909,-7683,2648,0,-1,0
-157.54,13.30,-70.88,1925,-7663,2648,0,-1,0
-157.54,13.29,-70.87,1917,-7646,2657,0,-1,0
-157.55,13.29,-70.87,1918,-7647,2667,-1,-1,0
-157.56,13.28,-70.88,1910,-7667,2661,-1,-1,0
-157.56,13.28,-70.89,1914,-7673,2659,-1,0,0
-157.57,13.27,-70.89,1911,-7679,2653,-1,-1,0
-157.57,13.27,-70.89,1913,-7672,2658,0,0,0
-157.57,13.27,-70.88,1910,-7665,2656,0,-1,-1
-157.57,13.27,-70.88,1916,-7663,2664,0,-1,0
-157.57,13.27,-70.88,1917,-7665,2675,-1,-1,0
-157.57,13.27,-70.88,1920,-7663,2663,-1,-1,0
-157.58,13.27,-70.89,1913,-7664,2655,-1,-1,0
-157.58,13.27,-70.89,1912,-7671,2660,-1,-1,0
-157.59,13.26,-70.89,1903,-7661,2658,-1,-1,0
-157.60,13.26,-70.90,1904,-7659,2652,-1,-1,0
-157.60,13.25,-70.90,1904,-7671,2644,0,-1,0
-157.60,13.25,-70.90,1910,-7674,2647,0,-1,0
-157.61,13.25,-70.91,1911,-7672,2644,-1,-1,0
-157.61,13.25,-70.91,1907,-7662,2639,-1,-1,0
-157.61,13.25,-70.91,1910,-7662,2649,-1,-1,0
-157.62,13.24,-70.90,1909,-7665,2649,0,-1,0
-157.62,13.24,-70.90,1906,-7667,2655,0,-1,0
-157.62,13.24,-70.90,1909,-7667,2662,0,-1,0
-157.62,13.25,-70.90,1916,-7661,2671,-1,-1,0
-157.63,13.24,-70.91,1907,-7665,2662,-1,-1,0
-157.63,13.23,-70.91,1910,-7671,2656,-1,-1,0
-157.63,13.23,-70.91,1908,-7674,2645,-1,-1,0
-157.64,13.23,-70.92,1914,-7669,2644,0,-1,0
-157.65,13.23,-70.92,1920,-7669,2639,0,-1,0
-157.65,13.23,-70.92,1923,-7662,2647,0,0,0
-157.65,13.22,-70.92,1918,-7676,2644,0,-1,0
-157.65,13.22,-70.91,1907,-7663,2664,-1,-1,0
-157.66,13.22,-70.92,1907,-7659,2648,0,-1,0
-157.66,13.22,-70.92,1904,-7660,2657,-1,-1,0
-157.66,13.22,-70.92,1916,-7667,2655,-1,-1,0
-157.66,13.21,-70.91,1913,-7662,2650,0,-1,0
-157.66,13.21,-70.91,1907,-7668,2666,-1,-1,0
-157.67,13.20,-70.91,1901,-7666,2667,-1,-1,0
-157.68,13.20,-70.92,1902,-7672,2645,-1,-1,0
-157.68,13.20,-70.92,1908,-7683,2655,0,-1,-1
-157.67,13.20,-70.91,1909,-7670,2660,0,0,0
-157.67,13.20,-70.90,1909,-7652,2662,0,-1,0
-157.69,13.19,-70.91,1896,-7651,2652,-1,-1,0
-157.69,13.18,-70.91,1893,-7664,2660,-1,-1,0
-157.70,13.18,-70.91,1891,-7673,2648,0,-1,0
-157.71,13.17,-70.91,1892,-7672,2644,0,-1,0
-157.70,13.17,-70.90,1892,-7665,2649,0,0,0
-157.70,13.17,-70.90,1893,-7654,2656,0,-1,0
-157.71,13.16,-70.90,1896,-7662,2653,0,-1,0
-157.71,13.16,-70.90,1895,-7667,2659,-1,-1,0
-157.72,13.16,-70.90,1891,-7673,2662,-1,-1,0
-157.72,13.16,-70.90,1898,-7670,2670,-1,-1,0
-157.72,13.16,-70.90,1901,-7665,2659,0,0,0
-157.73,13.15,-70.90,1896,-7664,2668,-1,-1,0
-157.74,13.14,-70.91,1894,-7678,2651,0,0,0
-157.75,13.13,-70.91,1885,-7683,2646,-1,-1,0
-157.75,13.13,-70.91,1894,-7679,2651,0,-1,0
-157.76,13.13,-70.91,1895,-7670,2646,0,-1,0
-157.75,13.13,-70.90,1895,-7670,2647,0,0,0
-157.76,13.12,-70.90,1899,-7675,2662,0,-1,0
-157.77,13.12,-70.89,1901,-7679,2653,0,-1,0
-157.76,13.11,-70.88,1887,-7661,2662,0,0,0
-157.77,13.10,-70.89,1875,-7674,2659,-1,-1,0
-157.78,13.10,-70.88,1881,-7680,2658,0,-1,0
-157.78,13.10,-70.88,1886,-7669,2664,0,0,0
-157.79,13.09,-70.89,1890,-7669,2663,0,-1,0
-157.79,13.09,-70.88,1895,-7670,2669,-1,-1,0
-157.80,13.08,-70.89,1888,-7674,2658,-1,-1,0
-157.81,13.08,-70.89,1900,-7682,2662,0,0,0
-157.81,13.07,-70.88,1887,-7675,2667,-1,-1,0
-157.81,13.07,-70.88,1878,-7670,2666,0,-1,0
-157.81,13.07,-70.89,1875,-7670,2653,-1,-1,0
-157.82,13.07,-70.89,1881,-7671,2655,0,-1,-1
-157.82,13.07,-70.88,1877,-7671,2655,0,-1,-1
-157.81,13.07,-70.88,1892,-7671,2661,0,-1,0
-157.82,13.07,-70.88,1893,-7674,2671,0,-1,0
-157.83,13.06,-70.88,1884,-7671,2669,-1,-1,0
-157.83,13.06,-70.89,1885,-7680,2662,-1,0,0
-157.84,13.05,-70.89,1884,-7685,2653,0,0,-1
-157.83,13.06,-70.88,1880,-7679,2666,0,-1,-1
-157.83,13.06,-70.88,1877,-7674,2664,0,-1,-1
-157.83,13.06,-70.88,1882,-7658,2666,-1,-1,-1
-157.83,13.06,-70.89,1888,-7661,2652,-1,0,-1
-157.83,13.06,-70.89,1882,-7665,2646,-1,-1,-1
-157.83,13.06,-70.89,1890,-7678,2651,0,-1,-1
-157.83,13.06,-70.89,1890,-7672,2648,0,-1,-1
-157.82,13.07,-70.89,1888,-7658,2665,-1,-1,0
-157.82,13.07,-70.89,1889,-7662,2656,-1,-1,-1
-157.83,13.07,-70.90,1889,-7672,2652,-1,-1,-1
-157.83,13.07,-70.90,1882,-7680,2647,-1,-1,-1
-157.83,13.07,-70.91,1887,-7693,2638,-1,-1,-1
-157.82,13.08,-70.91,1891,-7692,2642,0,0,-1
-157.82,13.08,-70.90,1888,-7687,2647,0,-1,-1
-157.80,13.09,-70.89,1890,-7678,2664,0,-1,-1
-157.80,13.10,-70.89,1899,-7666,2650,0,-1,-1
-157.79,13.10,-70.89,1902,-7671,2655,0,-1,0
-157.80,13.10,-70.89,1898,-7674,2655,0,-1,0
-157.79,13.10,-70.88,1901,-7673,2659,0,-1,-1
-157.79,13.10,-70.88,1901,-7655,2666,-1,0,-1
-157.79,13.10,-70.88,1887,-7664,2650,0,0,-1
-157.79,13.10,-70.88,1888,-7671,2661,0,-1,-1
-157.79,13.11,-70.88,1899,-7666,2653,0,0,-1
-157.78,13.11,-70.88,1900,-7668,2659,-1,-1,-1
-157.78,13.11,-70.88,1888,-7667,2658,0,0,-1
-157.77,13.12,-70.88,1890,-7667,2657,-1,0,-1
-157.76,13.12,-70.88,1897,-7676,2652,-1,0,-1
-157.77,13.12,-70.89,1890,-7673,2653,-1,-1,-1
-157.77,13.12,-70.89,1891,-7670,2660,-1,0,-1
-157.76,13.13,-70.89,1893,-7667,2655,-1,-1,-1
-157.75,13.14,-70.89,1893,-7664,2662,-1,0,-1
-157.75,13.13,-70.90,1890,-7662,2669,-1,0,-1
-157.76,13.14,-70.91,1889,-7671,2670,-1,-1,0
-157.76,13.14,-70.91,1892,-7667,2653,-1,-1,-1
-157.76,13.14,-70.91,1893,-7675,2655,-1,-1,-1
-157.76,13.14,-70.91,1891,-7669,2646,0,0,-1
-157.75,13.14,-70.91,1890,-7668,2646,0,-1,-1
-157.75,13.14,-70.91,1890,-7674,2648,-1,0,-1
-157.75,13.14,-70.91,1891,-7685,2644,0,0,-1
-157.75,13.14,-70.91,1890,-7677,2655,0,0,-1
-157.74,13.15,-70.91,1894,-7670,2658,-1,0,-1
-157.74,13.15,-70.91,1894,-7670,2657,-1,-1,-1
-157.74,13.15,-70.91,1893,-7668,2657,0,-1,-1
-157.74,13.15,-70.91,1896,-7673,2651,-1,-1,-1
-157.74,13.15,-70.91,1901,-7680,2660,-1,-1,-1
-157.74,13.16,-70.91,1902,-7676,2653,-1,-1,-1
-157.74,13.16,-70.91,1901,-7667,2656,0,-1,-1
-157.74,13.16,-70.91,1894,-7671,2650,0,-1,-1
-157.74,13.16,-70.91,1896,-7677,2646,0,-1,-1
-157.74,13.16,-70.91,1901,-7674,2653,0,0,0
-157.74,13.16,-70.91,1901,-7677,2641,0,-1,0
-157.74,13.15,-70.89,1891,-7668,2656,0,0,-1
-157.73,13.16,-70.88,1903,-7652,2668,0,0,-1
-157.72,13.16,-70.88,1901,-7652,2668,-1,-1,-1
-157.72,13.17,-70.88,1910,-7670,2667,0,-1,-1
-157.71,13.17,-70.87,1913,-7661,2675,0,0,0
-157.71,13.16,-70.87,1910,-7649,2669,-1,0,0
-157.71,13.16,-70.87,1897,-7660,2676,-1,-1,0
-157.72,13.16,-70.89,1889,-7682,2657,-1,0,-1
-157.72,13.16,-70.88,1881,-7692,2662,0,0,-1
-157.71,13.17,-70.88,1891,-7685,2655,0,-1,-1
-157.70,13.17,-70.88,1900,-7667,2657,0,0,-1
-157.69,13.18,-70.87,1904,-7662,2655,0,0,-1
-157.68,13.19,-70.87,1905,-7670,2676,-1,0,-1
-157.68,13.19,-70.88,1899,-7676,2661,-1,0,-1
-157.69,13.19,-70.89,1905,-7677,2651,-1,-1,-1
-157.69,13.19,-70.89,1904,-7670,2656,0,0,-1
-157.68,13.19,-70.89,1909,-7665,2648,-1,-1,-1
-157.68,13.20,-70.89,1907,-7665,2650,-1,0,-1
-157.68,13.20,-70.89,1911,-7672,2651,0,-1,-1
-157.68,13.20,-70.89,1911,-7670,2655,-1,-1,0
-157.68,13.20,-70.90,1895,-7672,2651,0,0,-1
-157.68,13.19,-70.89,1897,-7678,2648,0,0,-1
-157.68,13.20,-70.90,1904,-7692,2642,0,0,-1
-157.67,13.20,-70.89,1906,-7684,2648,0,0,-1
-157.66,13.21,-70.88,1902,-7673,2642,0,0,-1
-157.65,13.21,-70.87,1907,-7659,2668,0,-1,-1
-157.64,13.22,-70.86,1907,-7660,2666,0,-1,-1
-157.64,13.22,-70.86,1917,-7667,2650,0,0,-1
-157.63,13.22,-70.85,1912,-7659,2661,0,0,0
-157.63,13.22,-70.85,1912,-7659,2666,0,0,-1
-157.64,13.22,-70.85,1902,-7669,2669,-1,-1,0
-157.64,13.22,-70.85,1901,-7662,2644,0,0,-1
-157.63,13.22,-70.85,1909,-7653,2663,-1,0,0
-157.64,13.22,-70.85,1901,-7671,2651,0,0,-1
-157.63,13.22,-70.84,1905,-7670,2679,0,0,-1
-157.62,13.22,-70.83,1909,-7657,2676,0,0,-1
-157.62,13.23,-70.84,1900,-7659,2673,-1,-1,-1
-157.62,13.23,-70.84,1909,-7662,2659,0,0,-1
-157.61,13.23,-70.84,1907,-7661,2662,-1,0,-1
-157.60,13.24,-70.83,1906,-7647,2681,0,0,-1
-157.60,13.24,-70.84,1911,-7672,2668,-1,0,-1
-157.60,13.24,-70.84,1914,-7672,2675,-1,0,-1
-157.59,13.25,-70.84,1911,-7660,2661,-1,0,-1
-157.59,13.25,-70.84,1911,-7651,2684,-1,0,0
-157.60,13.24,-70.84,1893,-7652,2674,-1,-1,-1
-157.59,13.25,-70.86,1900,-7671,2658,-1,-1,-1
-157.60,13.25,-70.87,1903,-7682,2646,0,0,-1
-157.58,13.26,-70.85,1917,-7675,2662,0,0,-1
-157.57,13.27,-70.84,-258,-258,-258,0,0,-2
-157.57,13.26,-70.85,1914,-7642,2677,-1,0,0
-157.58,13.26,-70.85,1911,-7656,2676,-1,-1,-1
-157.58,13.27,-70.86,1918,-7676,2655,-1,0,-1
-157.58,13.26,-70.87,1910,-7678,2646,0,0,-1
-157.57,13.26,-70.86,1902,-7665,2656,0,0,-1
-157.56,13.27,-70.86,1904,-7666,2672,0,0,-1
-157.56,13.28,-70.85,1914,-7665,2659,0,0,-1
-157.56,13.28,-70.86,1920,-7670,2651,-1,-1,-1
-157.55,13.28,-70.86,1923,-7658,2656,-1,0,-1
-157.55,13.28,-70.86,1923,-7658,2664,-1,0,-1
-157.55,13.28,-70.86,1916,-7653,2654,-1,0,-1
-157.55,13.29,-70.87,1915,-7655,2658,-1,-1,-1
-157.55,13.29,-70.87,1913,-7660,2657,0,0,-1
-157.55,13.29,-70.87,1918,-7666,2655,0,0,-1
-157.55,13.29,-70.87,1930,-7671,2645,0,0,-1
-157.55,13.29,-70.87,1921,-7663,2643,-1,0,-1
-157.55,13.29,-70.88,1912,-7661,2647,-1,-1,-1
-157.55,13.29,-70.88,1912,-7663,2650,0,0,-1
-157.54,13.30,-70.87,1921,-7661,2654,0,0,-1
-157.54,13.30,-70.87,1917,-7668,2646,0,-1,-1
-157.54,13.30,-70.86,1921,-7661,2670,0,0,-1
-157.53,13.30,-70.87,1915,-7664,2666,-1,-1,-1
-157.53,13.30,-70.87,1914,-7659,2667,-1,0,0
-157.54,13.29,-70.87,1913,-7664,2660,-1,-1,0
-157.54,13.29,-70.87,1922,-7666,2654,-1,-1,0
-157.55,13.29,-70.87,1921,-7663,2656,0,0,0
-157.55,13.29,-70.87,1924,-7663,2648,0,-1,0
-157.55,13.29,-70.87,1926,-7668,2663,0,-1,0
-157.55,13.29,-70.87,1918,-7666,2659,0,0,0
-157.56,13.28,-70.86,1909,-7659,2668,0,-1,0
-157.56,13.27,-70.86,1912,-7658,2668,-1,0,0
-157.56,13.28,-70.86,1919,-7664,2649,-1,-1,0
-157.57,13.28,-70.86,1919,-7672,2651,0,0,0
-157.57,13.27,-70.86,1918,-7676,2661,0,0,0
-157.57,13.27,-70.85,1917,-7670,2669,0,-1,0
-157.57,13.26,-70.85,1917,-7659,2675,-1,-1,0
-157.59,13.25,-70.86,1909,-7658,2665,-1,-1,0
-157.59,13.26,-70.86,1915,-7662,2655,-1,-1,0
-157.59,13.25,-70.86,1925,-7673,2650,0,-1,0
-157.59,13.25,-70.86,1918,-7664,2660,0,-1,0
-157.59,13.25,-70.85,1917,-7648,2676,-1,-1,0
-157.60,13.25,-70.86,1909,-7658,2667,-1,-1,0
-157.61,13.24,-70.87,1905,-7671,2651,-1,-1,0
-157.62,13.24,-70.88,1916,-7684,2645,0,0,0
-157.63,13.23,-70.88,1911,-7683,2640,0,-1,0
-157.62,13.23,-70.87,1906,-7669,2665,0,0,0
-157.62,13.23,-70.87,1914,-7666,2671,-1,-1,0
-157.62,13.23,-70.87,1916,-7660,2684,-1,-1,0
-157.62,13.23,-70.87,1911,-7664,2672,0,-1,0
-157.63,13.22,-70.87,1911,-7678,2670,-1,-1,0
-157.64,13.21,-70.87,1907,-7668,2656,0,-1,0
-157.65,13.21,-70.87,1911,-7658,2661,-1,-1,0
-157.65,13.21,-70.87,1917,-7654,2658,-1,-1,0
-157.66,13.20,-70.87,1900,-7665,2659,0,-1,0
-157.66,13.20,-70.87,1909,-7681,2656,0,-1,0
-157.66,13.19,-70.86,1907,-7668,2660,0,-1,0
-157.66,13.19,-70.85,1906,-7663,2655,-1,0,0
-157.68,13.18,-70.86,1900,-7667,2643,0,-1,0
-157.67,13.19,-70.85,1915,-7669,2665,0,0,0
-157.68,13.18,-70.86,1906,-7662,2665,-1,-1,0
-157.68,13.17,-70.86,1907,-7655,2670,-1,-1,0
-157.69,13.17,-70.87,1907,-7666,2655,-1,-1,0
-157.69,13.17,-70.87,1907,-7669,2651,-1,-1,0
-157.69,13.17,-70.87,1897,-7676,2655,-1,0,0
-157.70,13.17,-70.88,1900,-7676,2658,-1,-1,0
-157.71,13.17,-70.89,1904,-7674,2652,-1,-1,0
-157.72,13.16,-70.89,1894,-7669,2646,-1,-1,0
-157.73,13.15,-70.89,1894,-7661,2648,0,0,0
-157.73,13.15,-70.89,1887,-7673,2659,-1,-1,0
-157.73,13.15,-70.89,1896,-7673,2651,0,0,0
-157.74,13.15,-70.89,1896,-7672,2654,-1,-1,0
-157.73,13.14,-70.88,1898,-7670,2661,0,-1,0
-157.73,13.14,-70.88,1903,-7662,2658,-1,0,0
-157.74,13.14,-70.89,1903,-7662,2656,-1,-1,0
-157.74,13.14,-70.89,1910,-7669,2658,-1,-1,0
-157.75,13.13,-70.89,1904,-7672,2641,-1,-1,0
-157.75,13.13,-70.89,1898,-7676,2647,0,-1,0
-157.75,13.13,-70.89,1904,-7674,2647,0,-1,0
-157.76,13.13,-70.89,1893,-7664,2653,-1,-1,0
-157.76,13.12,-70.89,1891,-7659,2651,-1,-1,0
-157.78,13.12,-70.91,1893,-7668,2644,-1,-1,0
-157.78,13.11,-70.90,1889,-7682,2655,0,0,0
-157.77,13.11,-70.89,1899,-7669,2662,0,-1,0
-157.78,13.11,-70.89,1900,-7652,2670,0,-1,0
-157.78,13.11,-70.89,1897,-7657,2670,-1,-1,0
-157.79,13.11,-70.90,1901,-7663,2660,-1,-1,0
-157.80,13.10,-70.91,1899,-7677,2654,-1,-1,0
-157.80,13.11,-70.92,1894,-7681,2649,-1,0,0
-157.80,13.10,-70.92,1895,-7683,2640,0,0,0
-157.80,13.10,-70.91,1898,-7675,2649,0,-1,0
-157.80,13.10,-70.90,1904,-7664,2658,0,-1,0
-157.80,13.10,-70.90,1904,-7657,2672,-1,-1,0
-157.81,13.10,-70.91,1903,-7662,2653,-1,-1,0
-157.81,13.10,-70.91,1896,-7664,2655,-1,0,0
-157.82,13.09,-70.92,1896,-7671,2643,0,0,0
-157.83,13.08,-70.92,1891,-7670,2648,-1,-1,0
-157.82,13.09,-70.92,1898,-7684,2633,0,-1,0
-157.83,13.08,-70.91,1900,-7677,2652,0,0,0
-157.83,13.08,-70.91,1891,-7677,2650,0,-1,0
-157.84,13.07,-70.91,1898,-7678,2661,0,-1,0
-157.84,13.07,-70.91,1901,-7676,2653,-1,-1,0
-157.84,13.07,-70.90,1899,-7666,2651,0,-1,0
-157.85,13.06,-70.90,1890,-7663,2663,-1,-1,0
-157.85,13.06,-70.90,1889,-7674,2645,0,0,-1
-157.85,13.06,-70.89,1890,-7661,2672,-1,-1,0
-157.85,13.06,-70.90,1887,-7666,2663,-1,-1,0
-157.87,13.05,-70.91,1885,-7666,2664,-1,-1,0
-157.87,13.04,-70.91,1884,-7670,2651,0,0,0
-157.88,13.04,-70.91,1882,-7673,2656,-1,-1,0
-157.88,13.04,-70.93,1900,-7666,2638,-1,-1,0
-157.88,13.04,-70.93,1892,-7669,2634,0,0,0
-157.88,13.04,-70.93,1891,-7666,2651,-1,-1,0
-157.89,13.04,-70.93,1885,-7665,2655,-1,-1,0
-157.90,13.04,-70.93,1884,-7672,2657,-1,-1,0
-157.90,13.04,-70.93,1884,-7676,2653,-1,-1,0
-157.90,13.04,-70.93,1882,-7662,2649,0,0,0
-157.90,13.04,-70.93,1882,-7668,2656,-1,-1,0
-157.89,13.04,-70.93,1885,-7665,2649,0,0,0
-157.89,13.04,-70.93,1886,-7676,2663,-1,0,0
-157.89,13.04,-70.93,1889,-7673,2666,0,0,0
-157.90,13.04,-70.93,1883,-7670,2673,-1,-1,0
-157.90,13.03,-70.94,1871,-7669,2657,0,0,-1
-157.90,13.03,-70.94,1876,-7666,2655,0,-1,-1
-157.90,13.04,-70.92,1886,-7669,2649,0,-1,-1
-157.89,13.04,-70.92,1892,-7670,2650,0,0,0
-157.89,13.04,-70.91,1879,-7668,2667,0,-1,0
-157.89,13.04,-70.90,1881,-7668,2655,0,-1,-1
-157.89,13.04,-70.91,1897,-7678,2658,-1,-1,0
-157.89,13.04,-70.91,1895,-7684,2648,0,-1,-1
-157.88,13.04,-70.90,1891,-7688,2656,0,-1,-1
-157.86,13.05,-70.88,1905,-7655,2672,0,0,-1
-157.87,13.05,-70.89,1882,-7657,2673,-1,-1,0
-157.87,13.05,-70.88,1880,-7655,2679,0,0,-1
-157.88,13.05,-70.90,1903,-7681,2657,-1,0,0
-157.87,13.05,-70.89,1889,-7678,2666,-1,0,0
-157.87,13.05,-70.90,1889,-7682,2646,0,0,-1
-157.87,13.05,-70.89,1882,-7672,2656,-1,-1,-1
-157.86,13.06,-70.88,1878,-7675,2657,0,-1,-1
-157.85,13.06,-70.88,1889,-7661,2671,-1,0,-1
-157.85,13.06,-70.88,1897,-7664,2663,-1,-1,-1
-157.85,13.07,-70.88,1896,-7668,2666,-1,-1,0
-157.86,13.06,-70.89,1886,-7665,2660,-1,0,0
-157.86,13.06,-70.89,1876,-7654,2653,-1,-1,-1
-157.86,13.06,-70.90,1887,-7665,2650,-1,0,0
-157.86,13.06,-70.89,1893,-7673,2650,0,-1,0
-157.86,13.06,-70.89,1884,-7673,2660,0,0,-1
-157.86,13.06,-70.89,1882,-7665,2665,-1,-1,-1
-157.85,13.07,-70.89,1885,-7666,2656,-1,0,-1
-157.85,13.07,-70.89,1890,-7677,2655,-1,-1,-1
-157.86,13.06,-70.89,1885,-7667,2655,0,0,-1
-157.85,13.07,-70.89,1885,-7676,2659,0,0,-1
-157.84,13.08,-70.88,1882,-7678,2668,0,-1,-1
-157.84,13.08,-70.89,1890,-7669,2667,-1,-1,-1
-157.84,13.08,-70.89,1901,-7664,2668,-1,-1,-1
-157.83,13.09,-70.89,1901,-7664,2675,-1,0,0
-157.83,13.09,-70.90,1902,-7672,2673,-1,0,-1
-157.84,13.09,-70.90,1893,-7667,2670,-1,-1,0
-157.84,13.09,-70.92,1893,-7675,2651,-1,-1,0
-157.84,13.09,-70.92,1900,-7679,2645,-1,0,-1
-157.83,13.09,-70.92,1905,-7678,2656,0,0,-1
-157.83,13.10,-70.91,1904,-7667,2664,0,0,-1
-157.83,13.10,-70.91,1900,-7668,2652,0,0,-1
-157.82,13.10,-70.91,1901,-7669,2652,-1,-1,-1
-157.82,13.10,-70.91,1904,-7670,2651,0,0,-1
-157.82,13.10,-70.91,1903,-7680,2651,-1,0,0
-157.81,13.11,-70.91,1901,-7667,2652,0,0,0
-157.81,13.11,-70.91,1898,-7663,2657,0,0,0
-157.82,13.10,-70.91,1888,-7667,2668,-1,-1,-1
-157.82,13.11,-70.91,1895,-7670,2656,0,-1,-1
-157.81,13.11,-70.90,1901,-7674,2648,0,-1,0
-157.81,13.11,-70.90,1898,-7662,2647,0,-1,0
-157.81,13.11,-70.90,1898,-7664,2639,0,0,0
-157.81,13.11,-70.90,1901,-7658,2653,-1,-1,0
-157.82,13.11,-70.91,1897,-7673,2653,-1,-1,-1
-157.82,13.11,-70.92,1894,-7685,2653,-1,-1,-1
-157.81,13.12,-70.92,1901,-7689,2648,0,-1,-1
-157.80,13.12,-70.91,1910,-7668,2664,0,0,-1
-157.80,13.13,-70.90,1906,-7648,2677,0,-1,0
-157.80,13.12,-70.90,1902,-7655,2662,-1,-1,0
-157.81,13.12,-70.92,1903,-7675,2655,-1,-1,0
-157.81,13.12,-70.92,1900,-7688,2650,0,0,-1
-157.81,13.12,-70.92,1891,-7677,2658,0,0,-1
-157.80,13.13,-70.91,1898,-7666,2653,0,0,-1
-157.79,13.13,-70.91,1899,-7659,2658,-1,0,-1
-157.79,13.14,-70.91,1903,-7662,2667,0,0,-1
-157.78,13.14,-70.90,1902,-7666,2662,-1,-1,-1
-157.78,13.14,-70.91,1905,-7666,2658,0,-1,-1
-157.78,13.14,-70.91,1907,-7674,2657,-1,-1,0
-157.78,13.15,-70.90,1909,-7666,2645,0,0,-1
-157.78,13.15,-70.90,1903,-7673,2655,-1,-1,-1
-157.78,13.15,-70.90,1901,-7674,2654,0,0,-1
-157.78,13.15,-70.90,1903,-7666,2654,0,0,0
-157.77,13.15,-70.90,1893,-7667,2667,-1,-1,-1
