Yaw,Pitch,Roll,AX,AY,AZ,GX,GY,GZ
-167.64,151.17,-116.57,4041,-6567,-3281,-1,-1,-1
-167.64,151.17,-116.57,4042,-6571,-3281,0,0,-1
-167.64,151.16,-116.57,4041,-6561,-3277,-1,0,-1
-167.63,151.16,-116.57,4040,-6560,-3280,-1,0,-1
-167.64,151.16,-116.57,4040,-6561,-3281,0,0,-1
-167.64,151.16,-116.57,4033,-6562,-3287,0,0,0
-167.64,151.17,-116.57,4027,-6565,-3288,0,-1,0
-167.65,151.17,-116.57,4027,-6564,-3285,-1,-1,0
-167.65,151.17,-116.57,4034,-6564,-3292,0,0,-1
-167.64,151.17,-116.57,4040,-6566,-3292,0,-1,-1
-167.64,151.17,-116.57,4034,-6569,-3280,-1,-1,0
-167.65,151.17,-116.57,4033,-6565,-3287,0,0,-1
-167.65,151.18,-116.57,4035,-6567,-3264,0,-1,0
-167.65,151.18,-116.57,4034,-6560,-3264,-1,-1,-1
-167.66,151.18,-116.58,4038,-6571,-3268,-1,-1,-1
-167.66,151.18,-116.58,4040,-6576,-3282,0,0,-1
-167.65,151.17,-116.57,4040,-6568,-3290,0,0,0
-167.65,151.18,-116.57,4036,-6559,-3268,-1,-1,0
-167.66,151.18,-116.58,4041,-6564,-3270,-1,-1,0
-167.67,151.19,-116.58,4039,-6567,-3285,0,-1,0
-167.67,151.19,-116.58,4030,-6560,-3284,0,0,0
-167.66,151.19,-116.58,4032,-6557,-3275,-1,-1,-1
-167.66,151.18,-116.58,4038,-6562,-3288,-1,-1,-1
-167.67,151.19,-116.59,4038,-6563,-3285,0,-1,0
-167.67,151.20,-116.58,4035,-6565,-3278,0,-1,0
-167.67,151.20,-116.58,4027,-6561,-3273,-1,-1,0
-167.68,151.20,-116.59,4028,-6567,-3285,-1,0,-1
-167.67,151.19,-116.59,4038,-6567,-3294,0,0,-1
-167.67,151.19,-116.58,4039,-6564,-3290,0,0,0
-167.67,151.19,-116.58,4039,-6559,-3283,0,-1,0
-167.67,151.20,-116.58,4031,-6564,-3279,-1,-1,0
-167.68,151.20,-116.58,4037,-6570,-3279,-1,-1,0
-167.69,151.20,-116.59,4035,-6568,-3286,-1,0,-1
-167.67,151.19,-116.59,4039,-6558,-3277,0,-1,-1
-167.67,151.19,-116.59,4029,-6557,-3276,-1,-1,0
-167.68,151.20,-116.60,4029,-6550,-3291,0,-1,0
-167.69,151.20,-116.59,4030,-6562,-3273,-1,-1,0
-167.69,151.21,-116.59,4036,-6561,-3278,-1,-1,0
-167.70,151.21,-116.61,4036,-6563,-3291,-1,-1,0
-167.70,151.21,-116.61,4036,-6573,-3313,0,0,-1
-167.70,151.21,-116.61,4038,-6567,-3310,0,0,-1
-167.69,151.21,-116.59,4032,-6559,-3290,0,0,0
-167.69,151.21,-116.59,4027,-6561,-3278,-1,0,-1
-167.69,151.20,-116.59,4032,-6565,-3284,-1,-1,0
-167.69,151.20,-116.59,4035,-6571,-3286,0,0,-1
-167.69,151.20,-116.59,4031,-6570,-3288,-1,0,-1
-167.69,151.20,-116.59,4034,-6566,-3297,0,0,-1
-167.68,151.20,-116.59,4031,-6555,-3293,0,0,-1
-167.68,151.20,-116.58,4029,-6553,-3292,-1,0,-1
-167.68,151.19,-116.60,4039,-6556,-3295,-1,0,-1
-167.67,151.19,-116.59,4043,-6557,-3288,0,0,-1
-167.66,151.18,-116.58,4038,-6562,-3273,0,0,-1
-167.65,151.17,-116.57,4038,-6561,-3279,0,0,-1
-167.65,151.17,-116.57,4042,-6566,-3283,0,0,-1
-167.64,151.16,-116.56,4038,-6565,-3276,0,0,-1
-167.63,151.16,-116.55,4031,-6564,-3272,0,0,-1
-167.61,151.15,-116.53,4039,-6563,-3261,0,0,-1
-167.61,151.15,-116.53,4037,-6557,-3265,-1,-1,0
-167.61,151.15,-116.53,4037,-6565,-3286,0,0,-1
-167.60,151.14,-116.52,4042,-6571,-3274,0,0,0
-167.60,151.14,-116.51,4031,-6560,-3270,0,0,-1
-167.59,151.14,-116.51,4039,-6554,-3273,-1,-1,-1
-167.60,151.14,-116.52,4039,-6562,-3282,-1,-1,-1
-167.60,151.14,-116.52,4045,-6565,-3295,0,0,-1
-167.59,151.14,-116.51,4041,-6564,-3291,0,0,0
-167.59,151.14,-116.50,4039,-6552,-3272,-1,-1,-1
-167.60,151.14,-116.52,4047,-6556,-3270,-1,-1,0
-167.60,151.14,-116.53,4047,-6563,-3286,-1,-1,0
-167.61,151.15,-116.53,4048,-6565,-3287,0,0,0
-167.60,151.14,-116.52,4039,-6564,-3275,0,0,-1
-167.60,151.14,-116.52,4039,-6563,-3262,-1,0,-1
-167.60,151.14,-116.52,4042,-6567,-3274,-1,-1,-1
-167.60,151.14,-116.52,4047,-6564,-3286,0,0,-1
-167.60,151.14,-116.52,4050,-6565,-3285,0,0,0
-167.60,151.14,-116.52,4045,-6563,-3272,0,0,-1
-167.59,151.14,-116.51,4041,-6561,-3280,0,-1,-1
-167.60,151.14,-116.52,4045,-6563,-3280,-1,-1,0
-167.59,151.13,-116.52,4049,-6558,-3280,-1,-1,-1
-167.60,151.14,-116.53,4051,-6563,-3287,-1,-1,0
-167.61,151.14,-116.53,4041,-6564,-3289,0,0,-1
-167.60,151.14,-116.52,4045,-6561,-3272,0,-1,0
-167.60,151.14,-116.53,4034,-6562,-3263,-1,-1,0
-167.61,151.15,-116.54,4046,-6560,-3277,0,-1,-1
-167.61,151.15,-116.54,4044,-6563,-3293,0,-1,0
-167.61,151.15,-116.53,4039,-6559,-3283,0,0,-1
-167.61,151.15,-116.53,4043,-6556,-3276,-1,-1,0
-167.61,151.15,-116.53,4039,-6566,-3286,0,0,-1
-167.61,151.15,-116.53,4036,-6567,-3277,0,0,-1
-167.60,151.14,-116.52,4043,-6563,-3273,0,0,0
-167.60,151.14,-116.52,4044,-6562,-3270,-1,-1,-1
-167.61,151.15,-116.53,4043,-6560,-3294,-1,-1,0
-167.61,151.15,-116.53,4046,-6558,-3284,0,-1,-1
-167.61,151.15,-116.53,4042,-6562,-3283,-1,-1,-1
-167.61,151.15,-116.53,4042,-6559,-3287,0,-1,0
-167.61,151.15,-116.53,4043,-6567,-3290,0,0,-1
-167.60,151.15,-116.52,4041,-6563,-3283,0,-1,0
-167.60,151.15,-116.52,4042,-6573,-3286,-1,-1,-1
-167.61,151.15,-116.53,4045,-6566,-3289,0,0,-1
-167.60,151.15,-116.52,4040,-6566,-3280,0,0,-1
-167.60,151.15,-116.52,4037,-6558,-3273,-1,-1,-1
-167.61,151.15,-116.53,4048,-6565,-3289,-1,-1,0
-167.61,151.15,-116.53,4043,-6565,-3290,0,-1,0
-167.61,151.16,-116.53,4030,-6570,-3272,-1,-1,-1
-167.61,151.15,-116.53,4031,-6564,-3282,-1,0,-1
-167.61,151.15,-116.53,4044,-6566,-3283,0,-1,0
-167.61,151.15,-116.53,4039,-6563,-3277,-1,0,0
-167.60,151.15,-116.52,4040,-6564,-3270,0,0,-1
-167.60,151.15,-116.51,4043,-6560,-3260,-1,-1,0
-167.61,151.16,-116.53,4044,-6561,-3263,-1,-1,0
-167.62,151.16,-116.54,4046,-6566,-3282,-1,-1,0
-167.64,151.17,-116.55,4045,-6572,-3310,0,0,-1
-167.62,151.16,-116.54,4039,-6566,-3308,0,0,-1
-167.62,151.16,-116.53,4035,-6560,-3276,0,0,-1
-167.62,151.16,-116.54,4040,-6557,-3269,-1,-1,0
-167.63,151.17,-116.55,4046,-6561,-3279,-1,-1,0
-167.64,151.17,-116.54,4046,-6561,-3282,0,-1,0
-167.64,151.17,-116.54,4041,-6567,-3282,-1,0,-1
-167.63,151.17,-116.55,4040,-6563,-3283,0,-1,-1
-167.63,151.17,-116.55,4041,-6559,-3278,-1,-1,-1
-167.63,151.16,-116.55,4042,-6562,-3269,-1,-1,0
-167.64,151.17,-116.55,4043,-6565,-3268,-1,-1,0
-167.64,151.18,-116.56,4032,-6563,-3277,-1,-1,0
-167.64,151.18,-116.56,4032,-6555,-3283,-1,-1,-1
-167.65,151.18,-116.57,4043,-6553,-3276,-1,-1,0
-167.65,151.18,-116.56,4033,-6558,-3285,0,-1,0
-167.66,151.19,-116.57,4031,-6556,-3290,-1,-1,0
-167.67,151.20,-116.58,4026,-6562,-3300,-1,-1,0
-167.66,151.19,-116.58,4032,-6562,-3296,0,0,-1
-167.66,151.19,-116.57,4032,-6560,-3288,0,-1,0
-167.67,151.20,-116.58,4034,-6566,-3283,-1,-1,-1
-167.68,151.20,-116.58,4039,-6563,-3293,0,0,0
-167.68,151.20,-116.58,4030,-6557,-3284,0,-1,0
-167.68,151.20,-116.59,4031,-6552,-3274,-1,-1,0
-167.69,151.21,-116.61,4027,-6560,-3284,-1,-1,0
-167.69,151.21,-116.61,4035,-6562,-3294,0,0,-1
-167.69,151.20,-116.61,4035,-6562,-3288,0,0,-1
-167.68,151.21,-116.60,4029,-6557,-3277,-1,-1,-1
-167.69,151.21,-116.61,4025,-6555,-3289,-1,-1,0
-167.69,151.21,-116.61,4026,-6548,-3288,-1,-1,0
-167.70,151.21,-116.62,4030,-6555,-3285,-1,-1,0
-167.71,151.22,-116.62,4026,-6564,-3295,-1,0,-1
-167.71,151.22,-116.62,4034,-6560,-3297,0,0,0
-167.71,151.22,-116.61,4022,-6554,-3282,0,0,-1
-167.71,151.22,-116.62,4025,-6562,-3283,-1,-1,-1
-167.72,151.22,-116.63,4026,-6567,-3294,-1,-1,0
-167.71,151.22,-116.63,4028,-6568,-3298,0,0,-1
-167.71,151.22,-116.62,4023,-6553,-3290,-1,-1,-1
-167.72,151.23,-116.63,4026,-6559,-3279,-1,-1,-1
-167.73,151.23,-116.64,4031,-6570,-3294,-1,-1,0
-167.73,151.24,-116.65,4030,-6568,-3291,0,-1,0
-167.74,151.24,-116.65,4033,-6566,-3286,-1,-1,0
-167.74,151.24,-116.65,4028,-6566,-3293,-1,0,-1
-167.74,151.24,-116.65,4028,-6559,-3295,0,0,-1
-167.73,151.23,-116.64,4033,-6556,-3286,-1,-1,0
-167.74,151.24,-116.65,4033,-6560,-3289,-1,0,-1
-167.74,151.24,-116.65,4036,-6568,-3292,0,-1,0
-167.74,151.25,-116.64,4026,-6564,-3286,0,-1,0
-167.74,151.25,-116.65,4024,-6560,-3288,-1,-1,-1
-167.75,151.24,-116.66,4035,-6566,-3315,-1,-1,-1
-167.75,151.24,-116.66,4037,-6571,-3331,0,0,-1
-167.74,151.24,-116.66,4026,-6569,-3313,0,0,-1
-167.74,151.24,-116.65,4026,-6559,-3296,-1,0,-1
-167.74,151.24,-116.65,4024,-6556,-3297,-1,0,-1
-167.74,151.23,-116.65,4032,-6556,-3304,0,0,-1
-167.74,151.23,-116.65,4035,-6564,-3299,0,0,-1
-167.73,151.22,-116.65,4024,-6558,-3309,0,0,-1
-167.72,151.22,-116.63,4021,-6558,-3303,0,0,-1
-167.71,151.21,-116.62,4029,-6559,-3297,0,0,-1
-167.70,151.20,-116.62,4034,-6552,-3291,0,0,-1
-167.69,151.20,-116.62,4032,-6556,-3292,0,0,-1
-167.69,151.19,-116.62,4033,-6564,-3300,0,0,-1
-167.69,151.19,-116.62,4027,-6560,-3304,0,0,-1
-167.69,151.19,-116.62,4028,-6556,-3295,0,0,-1
-167.68,151.19,-116.61,4035,-6556,-3293,0,0,-1
-167.67,151.18,-116.61,4045,-6557,-3297,0,0,-1
-167.66,151.18,-116.60,4041,-6555,-3291,0,0,-1
-167.66,151.17,-116.59,4036,-6554,-3274,0,0,-1
-167.64,151.16,-116.58,4031,-6551,-3270,0,0,-1
-167.64,151.16,-116.58,4044,-6553,-3266,-1,0,0
-167.64,151.16,-116.57,4041,-6559,-3284,0,0,-1
-167.63,151.15,-116.56,4041,-6566,-3287,0,0,-1
-167.62,151.15,-116.55,4031,-6567,-3273,0,0,-1
-167.62,151.15,-116.55,4041,-6562,-3262,-1,-1,-1
-167.62,151.15,-116.56,4039,-6558,-3275,-1,-1,0
-167.63,151.15,-116.56,4035,-6559,-3290,0,-1,0
-167.63,151.15,-116.56,4038,-6557,-3290,0,0,0
-167.63,151.15,-116.56,4042,-6561,-3285,-1,0,-1
-167.63,151.15,-116.57,4051,-6564,-3296,-1,0,-1
-167.63,151.15,-116.57,4051,-6560,-3292,0,0,0
-167.62,151.15,-116.56,4039,-6553,-3275,0,0,-1
-167.62,151.15,-116.56,4045,-6550,-3272,-1,-1,0
-167.63,151.15,-116.57,4046,-6556,-3283,-1,-1,0
-167.64,151.16,-116.58,4043,-6566,-3293,0,0,0
-167.63,151.16,-116.57,4032,-6568,-3295,0,0,-1
-167.63,151.15,-116.56,4024,-6559,-3287,0,0,-1
-167.63,151.15,-116.56,4032,-6559,-3290,-1,-1,-1
-167.63,151.15,-116.56,4041,-6563,-3289,0,0,-1
-167.62,151.15,-116.56,4043,-6564,-3281,0,0,0
-167.63,151.16,-116.56,4044,-6565,-3270,-1,-1,0
-167.63,151.15,-116.56,4053,-6566,-3282,-1,-1,0
-167.63,151.15,-116.56,4049,-6571,-3287,0,-1,-1
-167.63,151.15,-116.56,4036,-6568,-3278,-1,-1,-1
-167.63,151.15,-116.56,4037,-6561,-3280,-1,0,-1
-167.62,151.15,-116.56,4037,-6558,-3292,0,-1,0
-167.63,151.15,-116.57,4043,-6559,-3285,-1,-1,0
-167.64,151.16,-116.58,4040,-6561,-3296,-1,-1,-1
-167.63,151.15,-116.58,4049,-6566,-3293,0,0,0
-167.63,151.16,-116.57,4039,-6569,-3288,0,-1,0
-167.64,151.16,-116.57,4045,-6566,-3283,-1,-1,0
-167.65,151.17,-116.57,4032,-6568,-3286,-1,-1,0
-167.66,151.18,-116.58,4032,-6574,-3292,0,0,0
-167.65,151.17,-116.57,4035,-6573,-3284,0,0,0
-167.65,151.18,-116.57,4038,-6563,-3276,-1,-1,0
-167.67,151.19,-116.58,4037,-6553,-3279,-1,-1,0
-167.67,151.19,-116.60,4043,-6555,-3279,-1,-1,0
-167.69,151.20,-116.61,4038,-6561,-3287,-1,-1,0
-167.69,151.20,-116.61,4044,-6565,-3286,0,-1,-1
-167.69,151.20,-116.61,4040,-6565,-3296,-1,-1,0
-167.70,151.21,-116.62,4038,-6563,-3290,-1,-1,0
-167.71,151.22,-116.62,4036,-6564,-3286,-1,-1,0
-167.72,151.22,-116.63,4032,-6561,-3298,-1,-1,-1
-167.72,151.22,-116.63,4032,-6554,-3294,0,0,-1
-167.70,151.21,-116.63,4036,-6552,-3293,0,0,-1
-167.70,151.21,-116.63,4039,-6554,-3295,0,-1,0
-167.71,151.21,-116.63,4025,-6556,-3291,0,-1,0
-167.71,151.21,-116.63,4030,-6558,-3294,-1,0,0
-167.71,151.21,-116.63,4033,-6566,-3304,-1,0,-1
-167.71,151.21,-116.63,4031,-6562,-3300,0,0,-1
-167.70,151.20,-116.62,4029,-6561,-3288,0,0,0
-167.71,151.21,-116.62,4025,-6556,-3284,-1,-1,0
-167.71,151.21,-116.64,4031,-6566,-3303,-1,-1,-1
-167.71,151.21,-116.64,4032,-6568,-3304,0,0,0
-167.71,151.21,-116.63,4024,-6567,-3292,0,0,-1
-167.71,151.21,-116.63,4023,-6562,-3285,-1,-1,-1
-167.72,151.22,-116.64,4025,-6559,-3294,-1,0,0
-167.71,151.21,-116.64,4033,-6561,-3292,0,0,-1
-167.71,151.21,-116.63,4034,-6559,-3288,0,0,0
-167.71,151.21,-116.63,4030,-6561,-3284,-1,0,-1
-167.71,151.21,-116.63,4039,-6558,-3290,-1,0,-1
-167.71,151.21,-116.63,4035,-6554,-3292,0,0,-1
-167.70,151.20,-116.62,4040,-6562,-3294,0,0,-1
-167.70,151.20,-116.62,4033,-6562,-3287,0,0,-1
-167.69,151.19,-116.62,4038,-6562,-3285,0,0,-1
-167.69,151.19,-116.62,4032,-6558,-3284,0,0,-1
-167.69,151.19,-116.62,4034,-6562,-3285,-1,0,0
-167.69,151.19,-116.62,4033,-6566,-3293,-1,0,-1
-167.69,151.19,-116.62,4037,-6567,-3296,-1,0,-1
-167.68,151.18,-116.61,4034,-6568,-3294,0,0,-1
-167.67,151.18,-116.60,4035,-6564,-3291,0,0,-1
-167.67,151.18,-116.59,4033,-6556,-3269,-1,-1,-1
-167.66,151.18,-116.60,4038,-6557,-3272,-1,-1,-1
-167.67,151.17,-116.60,4039,-6565,-3293,-1,0,-1
-167.67,151.17,-116.60,4032,-6572,-3305,0,0,-1
-167.65,151.17,-116.58,4032,-6560,-3284,0,0,-1
-167.65,151.17,-116.58,4034,-6551,-3270,-1,0,-1
-167.66,151.17,-116.59,4044,-6556,-3278,-1,-1,0
-167.66,151.18,-116.60,4035,-6556,-3277,-1,-1,0
-167.68,151.19,-116.61,4029,-6563,-3281,-1,-1,0
-167.69,151.19,-116.63,4037,-6566,-3286,-1,-1,0
-167.70,151.20,-116.63,4021,-6563,-3298,-1,-1,-1
-167.71,151.21,-116.63,4027,-6556,-3291,0,-1,-1
-167.71,151.20,-116.64,4029,-6555,-3283,-1,-1,-1
-167.72,151.21,-116.64,4028,-6567,-3303,0,-1,0
-167.71,151.21,-116.63,4019,-6558,-3280,0,0,-1
-167.71,151.21,-116.63,4025,-6563,-3276,-1,-1,0
-167.71,151.21,-116.64,4016,-6560,-3297,0,0,-1
-167.70,151.20,-116.63,4035,-6562,-3284,-1,0,-1
-167.71,151.21,-116.63,4035,-6554,-3292,0,0,0
-167.70,151.20,-116.62,4037,-6563,-3287,-1,0,-1
-167.71,151.21,-116.63,4037,-6563,-3299,-1,-1,0
-167.71,151.21,-116.63,4023,-6557,-3304,0,0,-1
-167.70,151.21,-116.62,4033,-6564,-3288,-1,0,0
-167.70,151.21,-116.61,4026,-6571,-3288,0,0,-1
-167.69,151.20,-116.61,4051,-6569,-3282,-1,-1,0
-167.70,151.20,-116.62,4036,-6563,-3309,0,0,-1
-167.69,151.20,-116.62,4040,-6556,-3295,0,0,0
-167.70,151.21,-116.62,4033,-6563,-3310,0,0,-1
-167.69,151.20,-116.61,4039,-6558,-3290,0,-1,-1
-167.69,151.20,-116.62,4034,-6558,-3301,-1,0,-1
-167.68,151.19,-116.62,4050,-6562,-3307,0,0,-1
-167.67,151.19,-116.60,4033,-6564,-3289,0,0,-1
-167.65,151.18,-116.58,4036,-6553,-3241,-1,-1,-1
-167.68,151.19,-116.61,4038,-6564,-3291,-1,-1,0
-167.69,151.19,-116.62,4042,-6573,-3325,0,0,0
-167.68,151.19,-116.60,4021,-6565,-3300,0,0,-1
-167.65,151.17,-116.58,4040,-6570,-3291,0,0,-1
-167.64,151.16,-116.57,4037,-6563,-3282,0,0,0
-167.63,151.16,-116.56,4022,-6548,-3265,0,0,-1
-167.64,151.17,-116.56,4024,-6549,-3255,-1,-1,0
-167.65,151.17,-116.58,4028,-6558,-3280,-1,-1,-1
-167.65,151.17,-116.58,4030,-6571,-3306,0,0,-1
-167.62,151.14,-116.56,4047,-6569,-3323,0,1,-1
-167.58,151.11,-116.52,4075,-6562,-3299,0,1,-1
-167.58,151.14,-116.47,4010,-6544,-3212,0,-3,1
-167.61,151.15,-116.52,3974,-6528,-3205,-3,-1,-2
-167.62,151.12,-116.59,4077,-6566,-3280,-2,-1,-1
-167.65,151.15,-116.61,4063,-6588,-3357,0,-1,0
-167.62,151.15,-116.55,4033,-6566,-3302,1,0,-1
-167.61,151.15,-116.54,4053,-6553,-3223,-2,-1,0
-167.66,151.16,-116.60,4050,-6551,-3278,-2,-1,0
-167.68,151.18,-116.62,4029,-6561,-3324,0,-1,0
-167.67,151.19,-116.60,4031,-6559,-3280,0,-1,-1
-167.66,151.18,-116.59,4027,-6575,-3278,0,-1,-1
-167.67,151.18,-116.60,4058,-6573,-3274,-2,0,0
-167.67,151.20,-116.61,4037,-6584,-3239,0,-3,-1
-167.70,151.18,-116.68,4100,-6541,-3295,-4,0,1
-167.75,151.23,-116.69,3995,-6535,-3390,2,0,-2
-167.67,151.19,-116.61,4061,-6572,-3283,0,0,0
-167.68,151.20,-116.61,4016,-6561,-3294,0,0,-1
-167.66,151.18,-116.60,4042,-6576,-3281,-1,0,-1
-167.67,151.19,-116.61,4040,-6567,-3283,-1,-1,0
-167.68,151.19,-116.62,4010,-6551,-3274,-1,-1,-1
-167.69,151.20,-116.63,4010,-6534,-3248,-1,-1,-1
-167.70,151.19,-116.66,4044,-6547,-3279,-2,-1,0
-167.72,151.20,-116.68,4051,-6555,-3355,0,0,0
-167.71,151.21,-116.64,4036,-6571,-3310,1,0,0
-167.70,151.21,-116.63,4028,-6569,-3267,-1,0,-1
-167.70,151.20,-116.65,4032,-6575,-3294,-1,0,-1
-167.70,151.18,-116.66,4049,-6568,-3326,0,0,0
-167.68,151.18,-116.63,4038,-6552,-3308,1,0,-1
-167.66,151.18,-116.61,4036,-6551,-3255,-1,-1,0
-167.69,151.19,-116.64,4038,-6556,-3290,-1,-1,-1
-167.69,151.18,-116.66,4049,-6574,-3332,0,0,-1
-167.67,151.17,-116.63,4039,-6575,-3302,0,0,0
-167.67,151.18,-116.61,4016,-6554,-3268,-1,0,-1
-167.67,151.18,-116.64,4021,-6549,-3273,-1,-1,-1
-167.68,151.17,-116.65,4044,-6549,-3301,-1,-1,-1
-167.69,151.18,-116.66,4044,-6551,-3331,0,0,0
-167.67,151.17,-116.63,4040,-6555,-3312,0,0,0
-167.67,151.18,-116.61,4027,-6552,-3282,0,0,0
-167.66,151.18,-116.61,4028,-6561,-3269,-1,-1,-1
-167.67,151.17,-116.64,4040,-6568,-3294,-1,-1,-1
-167.67,151.17,-116.64,4053,-6569,-3314,0,0,-1
-167.67,151.17,-116.63,4042,-6552,-3290,0,0,0
-167.67,151.17,-116.63,4032,-6543,-3278,-1,-1,0
-167.68,151.18,-116.64,4039,-6549,-3296,-1,-1,0
-167.68,151.18,-116.65,4043,-6565,-3313,0,0,0
-167.67,151.18,-116.64,4040,-6569,-3297,0,0,-1
-167.67,151.18,-116.64,4036,-6562,-3287,-1,-1,-1
-167.68,151.18,-116.64,4033,-6560,-3293,-1,-1,-1
-167.68,151.18,-116.64,4039,-6554,-3295,0,-1,0
-167.68,151.18,-116.64,4038,-6552,-3292,0,-1,0
-167.68,151.18,-116.64,4040,-6553,-3297,0,-1,-1
-167.68,151.18,-116.65,4035,-6559,-3309,-1,-1,-1
-167.68,151.18,-116.65,4037,-6557,-3303,-1,0,-1
-167.68,151.18,-116.65,4042,-6553,-3301,0,0,-1
-167.68,151.18,-116.65,4034,-6551,-3291,-1,0,-1
-167.68,151.18,-116.65,4042,-6561,-3290,0,0,-1
-167.68,151.18,-116.64,4041,-6562,-3285,0,0,0
-167.68,151.18,-116.64,4030,-6561,-3293,0,0,-1
-167.67,151.18,-116.64,4031,-6557,-3279,-1,-1,0
-167.68,151.18,-116.64,4038,-6559,-3279,-1,-1,-1
-167.68,151.18,-116.65,4034,-6567,-3293,0,-1,0
-167.69,151.19,-116.65,4023,-6561,-3281,-1,-1,-1
-167.68,151.17,-116.67,4056,-6559,-3294,-1,0,-1
-167.68,151.18,-116.66,4040,-6553,-3320,0,0,-1
-167.66,151.17,-116.63,4063,-6557,-3266,0,-1,0
-167.70,151.20,-116.65,4009,-6544,-3274,-1,-1,0
-167.70,151.20,-116.67,4028,-6558,-3308,-1,0,-1
-167.69,151.18,-116.67,4053,-6565,-3322,0,0,0
-167.68,151.18,-116.65,4043,-6561,-3308,0,0,-1
-167.66,151.18,-116.63,4037,-6552,-3271,0,0,0
-167.67,151.18,-116.64,4028,-6551,-3274,-1,-1,-1
-167.69,151.18,-116.66,4042,-6557,-3293,-1,-1,-1
-167.69,151.18,-116.66,4036,-6558,-3312,0,0,0
-167.68,151.18,-116.65,4034,-6554,-3313,0,0,-1
-167.69,151.19,-116.65,4033,-6556,-3300,-1,-1,0
-167.69,151.18,-116.66,4036,-6558,-3307,-1,0,-1
-167.69,151.18,-116.66,4039,-6558,-3294,0,-1,-1
-167.68,151.18,-116.66,4038,-6549,-3284,-1,-1,0
-167.69,151.18,-116.67,4035,-6552,-3298,-1,-1,-1
-167.69,151.18,-116.67,4043,-6556,-3296,-1,-1,0
-167.69,151.18,-116.67,4035,-6553,-3303,0,-1,0
-167.70,151.19,-116.67,4028,-6556,-3294,-1,-1,-1
-167.70,151.19,-116.67,4043,-6562,-3300,-1,-1,-1
-167.70,151.19,-116.67,4038,-6570,-3313,0,0,0
-167.70,151.19,-116.67,4031,-6559,-3290,0,0,-1
-167.70,151.19,-116.67,4023,-6558,-3280,-1,-1,-1
-167.70,151.19,-116.67,4034,-6559,-3299,0,-1,0
-167.71,151.20,-116.67,4033,-6558,-3287,0,0,0
-167.70,151.19,-116.67,4034,-6549,-3272,-1,-1,-1
-167.71,151.20,-116.68,4028,-6555,-3290,-1,-1,-1
-167.71,151.20,-116.68,4035,-6559,-3305,0,-1,-1
-167.71,151.20,-116.69,4042,-6560,-3303,-1,-1,-1
-167.72,151.20,-116.69,4039,-6553,-3307,-1,0,0
-167.72,151.20,-116.69,4023,-6553,-3292,0,0,-1
-167.72,151.20,-116.70,4036,-6551,-3297,-1,-1,0
-167.72,151.21,-116.70,4023,-6554,-3292,0,-1,-1
-167.73,151.20,-116.73,4048,-6563,-3304,-2,-1,0
-167.75,151.21,-116.73,4029,-6564,-3353,0,0,-1
-167.72,151.20,-116.70,4031,-6557,-3303,0,0,0
-167.72,151.21,-116.69,4032,-6552,-3270,-1,-1,-1
-167.74,151.22,-116.72,4034,-6558,-3308,-1,-1,0
-167.74,151.21,-116.72,4040,-6569,-3324,0,0,-1
-167.73,151.21,-116.71,4038,-6560,-3291,-1,-1,-1
-167.73,151.21,-116.72,4036,-6546,-3297,-1,-1,0
-167.73,151.21,-116.71,4033,-6555,-3309,0,0,-1
-167.73,151.21,-116.71,4032,-6562,-3306,0,0,0
-167.72,151.21,-116.70,4043,-6560,-3297,0,0,-1
-167.72,151.21,-116.70,4040,-6563,-3296,-1,-1,0
-167.73,151.21,-116.71,4036,-6556,-3311,-1,0,-1
-167.73,151.21,-116.71,4024,-6557,-3314,0,0,-1
-167.73,151.21,-116.71,4038,-6550,-3306,0,0,0
-167.73,151.21,-116.71,4033,-6547,-3315,0,0,0
-167.72,151.20,-116.70,4034,-6555,-3310,0,0,-1
-167.72,151.20,-116.70,4036,-6564,-3306,0,0,-1
-167.72,151.20,-116.70,4031,-6561,-3305,0,-1,-1
-167.72,151.20,-116.70,4036,-6555,-3300,-1,-1,-1
-167.73,151.20,-116.71,4034,-6551,-3303,-1,-1,0
-167.73,151.21,-116.71,4036,-6548,-3312,0,-1,0
-167.73,151.21,-116.71,4014,-6546,-3302,0,-1,0
-167.74,151.21,-116.72,4024,-6559,-3299,-1,-1,0
-167.74,151.22,-116.72,4028,-6565,-3317,0,0,-1
-167.73,151.21,-116.71,4035,-6562,-3297,0,0,-1
-167.72,151.20,-116.71,4038,-6550,-3278,-1,0,-1
-167.74,151.21,-116.71,4031,-6549,-3298,-1,0,-1
-167.73,151.21,-116.71,4026,-6556,-3305,0,0,0
-167.72,151.20,-116.71,4028,-6558,-3295,0,0,-1
-167.72,151.20,-116.70,4040,-6558,-3285,-1,0,-1
-167.72,151.20,-116.71,4042,-6557,-3309,0,-1,0
-167.72,151.21,-116.70,4027,-6558,-3282,-1,-1,-1
-167.75,151.21,-116.73,4028,-6558,-3310,-1,-1,0
-167.73,151.20,-116.73,4035,-6552,-3331,1,0,0
-167.71,151.20,-116.70,4034,-6559,-3295,0,0,-1
-167.72,151.20,-116.71,4034,-6547,-3291,-1,-1,0
-167.73,151.20,-116.71,4036,-6559,-3309,-1,0,-1
-167.73,151.21,-116.71,4030,-6562,-3313,0,0,0
-167.72,151.21,-116.70,4010,-6560,-3297,0,0,-1
-167.73,151.21,-116.71,4023,-6555,-3294,-1,0,-1
-167.73,151.21,-116.71,4030,-6565,-3308,0,-1,0
-167.73,151.21,-116.70,4029,-6565,-3297,0,0,-1
-167.73,151.21,-116.70,4028,-6557,-3289,-1,-1,0
-167.74,151.22,-116.71,4026,-6557,-3299,-1,-1,-1
-167.73,151.21,-116.71,4031,-6562,-3302,-1,0,-1
-167.73,151.21,-116.71,4038,-6558,-3324,0,0,0
-167.73,151.21,-116.70,4028,-6552,-3307,0,0,0
-167.73,151.21,-116.70,4034,-6552,-3296,-1,-1,-1
-167.74,151.22,-116.72,4030,-6555,-3324,-1,0,-1
-167.74,151.21,-116.71,4032,-6561,-3322,0,0,-1
-167.72,151.20,-116.70,4042,-6553,-3314,-1,0,0
-167.73,151.20,-116.70,4030,-6546,-3315,0,0,-1
-167.71,151.20,-116.69,4031,-6554,-3293,0,0,-1
-167.70,151.19,-116.67,4032,-6550,-3284,-1,-1,0
-167.70,151.19,-116.68,4028,-6556,-3279,-1,-1,-1
-167.71,151.18,-116.69,4041,-6554,-3296,-1,-1,0
-167.70,151.19,-116.68,4031,-6555,-3297,0,0,-1
-167.69,151.18,-116.67,4024,-6553,-3292,0,0,0
-167.70,151.18,-116.68,4032,-6547,-3295,-1,0,-1
-167.70,151.19,-116.68,4036,-6562,-3309,0,0,-1
-167.70,151.19,-116.67,4044,-6565,-3297,0,0,0
-167.70,151.19,-116.67,4032,-6562,-3286,-1,0,-1
-167.70,151.19,-116.68,4043,-6558,-3301,-1,0,-1
-167.70,151.19,-116.67,4039,-6555,-3302,0,-1,0
-167.70,151.19,-116.67,4033,-6544,-3291,0,0,0
-167.70,151.19,-116.67,4026,-6553,-3296,-1,-1,-1
-167.70,151.19,-116.68,4042,-6564,-3311,-1,0,-1
-167.70,151.19,-116.67,4034,-6567,-3314,0,0,-1
-167.69,151.18,-116.66,4028,-6549,-3283,0,0,-1
-167.69,151.19,-116.66,4030,-6544,-3274,-1,-1,-1
-167.71,151.18,-116.69,4049,-6548,-3301,-1,-1,0
-167.72,151.20,-116.70,4039,-6565,-3328,0,-1,0
-167.72,151.19,-116.70,4035,-6571,-3325,0,0,-1
-167.71,151.19,-116.69,4035,-6553,-3315,0,0,0
-167.71,151.19,-116.68,4031,-6559,-3301,-1,0,-1
-167.71,151.18,-116.69,4047,-6566,-3312,-1,0,-1
-167.69,151.17,-116.69,4051,-6552,-3320,1,0,0
-167.68,151.17,-116.66,4016,-6552,-3268,0,0,-1
-167.68,151.17,-116.67,4041,-6540,-3266,-2,-1,0
-167.72,151.18,-116.71,4029,-6556,-3311,-1,-1,0
-167.71,151.19,-116.69,4032,-6561,-3317,0,0,-1
-167.70,151.18,-116.68,4028,-6558,-3286,-1,0,-1
-167.70,151.18,-116.69,4036,-6555,-3300,-1,0,-1
-167.70,151.18,-116.70,4037,-6549,-3315,0,-1,0
-167.70,151.18,-116.68,4028,-6544,-3288,0,0,0
-167.70,151.19,-116.68,4037,-6545,-3278,-1,-1,0
-167.72,151.19,-116.70,4038,-6551,-3305,-1,-1,-1
-167.72,151.19,-116.70,4039,-6560,-3310,-1,0,0
-167.72,151.19,-116.70,4031,-6556,-3311,0,0,-1
-167.71,151.19,-116.69,4030,-6562,-3293,-1,0,-1
-167.71,151.19,-116.69,4025,-6561,-3298,-1,0,-1
-167.71,151.19,-116.69,4030,-6564,-3299,0,0,-1
-167.71,151.19,-116.68,4030,-6563,-3290,0,0,0
-167.71,151.19,-116.69,4036,-6549,-3286,-1,-1,0
-167.72,151.19,-116.70,4034,-6557,-3293,-1,-1,-1
-167.72,151.19,-116.70,4036,-6559,-3302,0,-1,0
-167.72,151.19,-116.70,4028,-6556,-3302,0,0,-1
-167.71,151.19,-116.68,4031,-6550,-3292,0,0,-1
-167.72,151.19,-116.70,4027,-6546,-3295,-1,-1,-1
-167.72,151.19,-116.70,4033,-6544,-3314,0,0,-1
-167.71,151.19,-116.70,4036,-6550,-3295,0,-1,0
-167.72,151.19,-116.70,4037,-6556,-3299,-1,0,0
-167.72,151.19,-116.70,4036,-6563,-3314,0,0,-1
-167.71,151.19,-116.68,4033,-6564,-3309,0,0,-1
-167.71,151.19,-116.67,4028,-6563,-3294,0,0,-1
-167.71,151.19,-116.68,4033,-6559,-3292,-1,-1,0
-167.71,151.20,-116.69,4032,-6566,-3311,-1,-1,-1
-167.71,151.20,-116.69,4029,-6574,-3310,0,0,0
-167.71,151.20,-116.69,4030,-6566,-3303,0,0,-1
-167.71,151.20,-116.69,4029,-6558,-3299,-1,-1,-1
-167.71,151.20,-116.69,4034,-6556,-3297,-1,-1,-1
-167.72,151.19,-116.70,4034,-6554,-3304,-1,-1,-1
-167.72,151.20,-116.70,4034,-6555,-3310,-1,-1,-1
-167.72,151.20,-116.70,4038,-6555,-3305,-1,0,0
-167.72,151.20,-116.70,4037,-6553,-3305,0,0,0
-167.72,151.20,-116.70,4035,-6556,-3307,-1,-1,0
-167.73,151.21,-116.71,4032,-6561,-3313,-1,-1,-1
-167.73,151.20,-116.71,4039,-6559,-3316,0,0,-1
-167.72,151.20,-116.70,4033,-6559,-3295,0,0,0
-167.72,151.20,-116.69,4029,-6547,-3284,0,-1,-1
-167.72,151.20,-116.69,4029,-6546,-3281,-1,-1,0
-167.73,151.21,-116.71,4038,-6552,-3303,-1,-1,0
-167.74,151.21,-116.71,4040,-6564,-3319,0,0,0
-167.73,151.21,-116.71,4029,-6560,-3317,0,0,-1
-167.73,151.21,-116.70,4029,-6552,-3303,0,0,-1
-167.73,151.21,-116.70,4033,-6555,-3293,-1,0,-1
-167.73,151.21,-116.71,4029,-6549,-3302,-1,-1,0
-167.73,151.21,-116.71,4032,-6559,-3310,-1,-1,0
-167.74,151.22,-116.71,4036,-6557,-3303,-1,-1,0
-167.74,151.21,-116.71,4032,-6557,-3302,-1,0,-1
-167.73,151.20,-116.71,4038,-6554,-3298,0,0,-1
-167.73,151.20,-116.71,4039,-6545,-3305,-1,-1,-1
-167.73,151.20,-116.72,4038,-6544,-3307,-1,-1,0
-167.74,151.20,-116.72,4034,-6549,-3300,-1,-1,-1
-167.74,151.20,-116.72,4034,-6555,-3301,0,-1,0
-167.74,151.21,-116.72,4030,-6554,-3304,0,-1,-1
-167.74,151.21,-116.72,4034,-6552,-3308,-1,-1,-1
-167.74,151.21,-116.72,4036,-6552,-3314,-1,0,0
-167.74,151.21,-116.72,4035,-6547,-3319,0,0,-1
-167.74,151.20,-116.72,4034,-6557,-3312,0,0,-1
-167.73,151.20,-116.71,4029,-6555,-3311,0,0,-1
-167.73,151.20,-116.71,4027,-6556,-3307,0,0,-1
-167.73,151.20,-116.71,4030,-6554,-3293,0,0,-1
-167.73,151.20,-116.71,4030,-6555,-3289,-1,-1,0
-167.73,151.20,-116.71,4029,-6554,-3297,-1,-1,0
-167.73,151.20,-116.71,4034,-6549,-3302,0,-1,-1
-167.73,151.20,-116.72,4035,-6552,-3296,-1,-1,-1
-167.74,151.20,-116.72,4036,-6555,-3310,-1,0,-1
-167.73,151.20,-116.72,4036,-6548,-3305,0,-1,0
-167.73,151.20,-116.73,4026,-6545,-3292,-1,-1,0
-167.75,151.21,-116.74,4027,-6550,-3320,-1,-1,0
-167.74,151.21,-116.74,4039,-6559,-3316,0,0,0
-167.74,151.21,-116.72,4029,-6557,-3313,0,0,-1
-167.74,151.21,-116.72,4032,-6551,-3288,-1,-1,0
-167.74,151.21,-116.72,4030,-6554,-3297,-1,-1,0
-167.74,151.21,-116.72,4036,-6564,-3299,0,0,-1
-167.74,151.21,-116.72,4044,-6562,-3291,0,0,0
-167.74,151.21,-116.72,4039,-6559,-3284,-1,-1,-1
-167.74,151.21,-116.72,4031,-6558,-3291,-1,-1,-1
-167.75,151.21,-116.73,4033,-6549,-3306,0,-1,0
-167.75,151.21,-116.73,4027,-6548,-3305,-1,-1,0
-167.75,151.21,-116.73,4032,-6549,-3301,-1,-1,-1
-167.75,151.21,-116.73,4036,-6558,-3292,-1,-1,0
-167.76,151.22,-116.73,4033,-6565,-3306,0,0,-1
-167.75,151.22,-116.73,4037,-6568,-3314,0,0,-1
-167.76,151.22,-116.73,4034,-6555,-3304,0,-1,0
-167.76,151.22,-116.73,4033,-6555,-3296,-1,-1,-1
-167.76,151.23,-116.74,4035,-6559,-3294,-1,-1,0
-167.77,151.23,-116.75,4034,-6554,-3307,-1,-1,0
-167.77,151.23,-116.76,4033,-6553,-3312,-1,-1,0
-167.78,151.24,-116.76,4030,-6557,-3325,0,0,-1
-167.77,151.23,-116.75,4028,-6548,-3309,0,0,-1
-167.77,151.23,-116.76,4030,-6554,-3305,-1,-1,0
-167.78,151.24,-116.76,4033,-6557,-3317,-1,-1,0
-167.79,151.24,-116.77,4033,-6563,-3312,-1,-1,0
-167.79,151.24,-116.76,4033,-6564,-3308,0,0,0
-167.79,151.24,-116.76,4029,-6560,-3311,0,0,-1
-167.79,151.24,-116.77,4028,-6553,-3315,-1,-1,-1
-167.79,151.24,-116.78,4028,-6557,-3318,-1,-1,-1
-167.79,151.24,-116.78,4032,-6555,-3307,-1,-1,0
-167.80,151.25,-116.79,4026,-6554,-3304,-1,-1,-1
-167.80,151.25,-116.79,4027,-6552,-3316,0,-1,0
-167.80,151.25,-116.78,4026,-6556,-3306,0,0,-1
-167.80,151.25,-116.78,4027,-6554,-3299,-1,-1,-1
-167.81,151.25,-116.79,4030,-6550,-3311,-1,-1,0
-167.81,151.25,-116.80,4031,-6549,-3326,0,0,0
-167.81,151.25,-116.79,4027,-6551,-3318,0,0,0
-167.81,151.25,-116.79,4022,-6554,-3319,0,0,0
-167.81,151.25,-116.79,4020,-6550,-3314,-1,-1,-1
-167.81,151.26,-116.80,4023,-6554,-3314,-1,-1,-1
-167.81,151.26,-116.80,4023,-6556,-3312,0,-1,-1
-167.83,151.26,-116.81,4022,-6553,-3313,-1,-1,0
-167.83,151.26,-116.82,4022,-6547,-3322,-1,-1,-1
-167.84,151.27,-116.82,4021,-6554,-3321,0,-1,0
-167.84,151.27,-116.82,4020,-6553,-3323,0,0,0
-167.84,151.27,-116.82,4027,-6553,-3315,-1,-1,-1
-167.84,151.27,-116.82,4029,-6559,-3306,-1,-1,-1
-167.83,151.26,-116.82,4025,-6562,-3312,0,-1,-1
-167.84,151.27,-116.82,4027,-6566,-3311,0,-1,0
-167.84,151.27,-116.82,4030,-6560,-3313,-1,0,0
-167.84,151.27,-116.83,4031,-6556,-3320,-1,-1,0
-167.84,151.27,-116.83,4027,-6558,-3321,0,-1,0
-167.84,151.27,-116.83,4026,-6549,-3323,-1,-1,-1
-167.85,151.28,-116.83,4026,-6553,-3315,-1,-1,-1
-167.84,151.27,-116.83,4029,-6544,-3317,-1,-1,-1
-167.85,151.28,-116.83,4025,-6543,-3311,-1,-1,-1
-167.85,151.28,-116.84,4031,-6536,-3312,-1,0,-1
-167.86,151.28,-116.84,4022,-6549,-3323,-1,0,-1
-167.85,151.28,-116.84,4028,-6553,-3326,0,0,0
-167.86,151.28,-116.84,4022,-6546,-3328,-1,-1,0
-167.86,151.28,-116.84,4017,-6547,-3321,0,-1,0
-167.86,151.28,-116.85,4023,-6554,-3315,-1,-1,0
-167.87,151.28,-116.85,4019,-6557,-3318,0,0,-1
-167.86,151.28,-116.85,4018,-6550,-3322,0,0,0
-167.86,151.28,-116.84,4016,-6542,-3315,-1,-1,-1
-167.86,151.28,-116.85,4030,-6547,-3312,-1,-1,0
-167.87,151.28,-116.86,4027,-6553,-3323,-1,-1,0
-167.87,151.29,-116.85,4020,-6558,-3324,0,-1,0
-167.87,151.29,-116.85,4015,-6553,-3324,0,0,-1
-167.87,151.29,-116.85,4014,-6555,-3317,0,0,-1
-167.88,151.29,-116.86,4013,-6552,-3318,-1,-1,0
-167.88,151.29,-116.87,4014,-6554,-3324,0,0,0
-167.88,151.29,-116.87,4018,-6553,-3323,0,-1,0
-167.88,151.30,-116.86,4018,-6553,-3310,0,-1,-1
-167.88,151.30,-116.86,4020,-6555,-3317,-1,-1,-1
-167.88,151.29,-116.87,4023,-6552,-3319,-1,-1,-1
-167.88,151.29,-116.87,4027,-6554,-3317,0,0,-1
-167.88,151.29,-116.87,4026,-6550,-3317,-1,-1,-1
-167.88,151.29,-116.87,4028,-6543,-3321,-1,-1,0
-167.89,151.30,-116.88,4020,-6542,-3326,-1,-1,0
-167.89,151.30,-116.88,4017,-6547,-3325,0,-1,0
-167.89,151.30,-116.88,4016,-6551,-3330,-1,-1,-1
-167.89,151.30,-116.88,4022,-6551,-3332,-1,-1,0
-167.91,151.31,-116.88,4019,-6555,-3330,0,-1,0
-167.91,151.31,-116.88,4013,-6554,-3332,-1,0,0
-167.91,151.31,-116.89,4015,-6554,-3339,0,0,-1
-167.90,151.32,-116.88,4017,-6552,-3327,0,0,0
-167.90,151.32,-116.88,4011,-6548,-3316,-1,-1,0
-167.91,151.31,-116.88,4015,-6546,-3311,-1,-1,0
-167.92,151.32,-116.90,4019,-6553,-3321,-1,-1,0
-167.92,151.32,-116.90,4017,-6558,-3324,-1,-1,0
-167.92,151.32,-116.90,4018,-6555,-3320,0,0,0
-167.92,151.32,-116.90,4018,-6555,-3318,-1,-1,0
-167.93,151.33,-116.90,4022,-6555,-3327,-1,-1,-1
-167.93,151.33,-116.90,4021,-6552,-3325,-1,-1,0
-167.93,151.33,-116.91,4014,-6554,-3327,-1,-1,0
-167.94,151.33,-116.91,4012,-6550,-3332,-1,-1,0
-167.94,151.34,-116.92,4014,-6549,-3337,0,-1,0
-167.94,151.34,-116.92,4013,-6553,-3332,0,-1,-1
-167.94,151.34,-116.91,4018,-6551,-3326,-1,-1,-1
-167.94,151.34,-116.92,4017,-6551,-3337,-1,-1,0
-167.95,151.34,-116.92,4014,-6548,-3335,-1,-1,0
-167.95,151.34,-116.92,4013,-6552,-3339,-1,-1,0
-167.95,151.34,-116.93,4018,-6545,-3337,-1,-1,-1
-167.96,151.35,-116.93,4018,-6548,-3341,-1,-1,0
-167.96,151.35,-116.93,4017,-6554,-3337,0,-1,-1
-167.96,151.35,-116.93,4012,-6553,-3343,0,0,-1
-167.96,151.35,-116.93,4011,-6555,-3332,0,-1,-1
-167.96,151.35,-116.93,4011,-6551,-3326,-1,0,0
-167.96,151.35,-116.93,4012,-6544,-3337,0,0,0
-167.96,151.35,-116.93,4020,-6552,-3338,-1,0,0
-167.96,151.35,-116.94,4017,-6548,-3343,-1,0,-1
-167.96,151.35,-116.94,4017,-6551,-3342,0,0,-1
-167.96,151.34,-116.94,4016,-6544,-3337,0,0,-1
-167.95,151.34,-116.94,4016,-6540,-3329,0,0,-1
-167.95,151.33,-116.94,4019,-6546,-3334,-1,0,-1
-167.94,151.33,-116.93,4022,-6552,-3334,0,0,-1
-167.93,151.32,-116.92,4021,-6539,-3329,0,0,-1
-167.92,151.31,-116.91,4013,-6535,-3315,0,0,-1
-167.92,151.31,-116.91,4023,-6547,-3310,-1,-1,-1
-167.92,151.31,-116.91,4019,-6553,-3325,0,0,-1
-167.91,151.31,-116.91,4012,-6557,-3327,0,0,0
-167.91,151.31,-116.89,4006,-6549,-3310,0,0,-1
-167.91,151.30,-116.90,4010,-6553,-3328,-1,0,-1
-167.91,151.30,-116.90,4021,-6557,-3347,0,0,-1
-167.89,151.29,-116.89,4027,-6557,-3341,0,0,-1
-167.88,151.28,-116.88,4023,-6543,-3316,0,0,0
-167.88,151.29,-116.87,4013,-6545,-3306,-1,-1,0
-167.89,151.29,-116.88,4014,-6559,-3312,-1,-1,-1
-167.90,151.29,-116.89,4022,-6564,-3331,-1,0,-1
-167.88,151.28,-116.88,4026,-6566,-3327,0,0,-1
-167.88,151.28,-116.87,4022,-6557,-3324,-1,0,-1
-167.88,151.28,-116.87,4019,-6551,-3330,0,0,-1
-167.87,151.28,-116.86,4020,-6554,-3313,0,-1,0
-167.87,151.28,-116.86,4024,-6551,-3312,0,-1,-1
-167.87,151.28,-116.86,4030,-6554,-3320,-1,-1,0
-167.87,151.28,-116.86,4032,-6557,-3329,-1,0,-1
-167.87,151.28,-116.86,4026,-6555,-3330,0,0,-1
-167.87,151.28,-116.85,4022,-6545,-3322,0,0,-1
-167.86,151.27,-116.85,4022,-6547,-3318,-1,-1,-1
-167.87,151.28,-116.86,4020,-6548,-3319,-1,-1,0
-167.87,151.28,-116.86,4019,-6555,-3330,-1,-1,0
-167.87,151.28,-116.86,4023,-6556,-3326,-1,-1,0
-167.88,151.29,-116.87,4030,-6556,-3331,-1,-1,0
-167.88,151.29,-116.87,4027,-6554,-3322,-1,-1,0
-167.88,151.29,-116.87,4027,-6551,-3317,-1,-1,0
-167.89,151.29,-116.88,4030,-6551,-3315,-1,-1,0
-167.88,151.29,-116.87,4029,-6560,-3310,0,-1,0
-167.88,151.29,-116.87,4025,-6558,-3316,0,-1,-1
-167.88,151.29,-116.87,4027,-6552,-3326,0,0,-1
-167.88,151.29,-116.87,4023,-6555,-3330,-1,-1,0
-167.88,151.29,-116.87,4017,-6551,-3334,0,0,-1
-167.88,151.29,-116.87,4017,-6555,-3331,0,-1,0
-167.89,151.30,-116.87,4013,-6560,-3339,-1,0,-1
-167.88,151.29,-116.87,4016,-6559,-3332,0,0,-1
-167.88,151.29,-116.86,4018,-6555,-3324,0,0,-1
-167.87,151.28,-116.86,4016,-6549,-3327,0,0,-1
-167.87,151.28,-116.86,4020,-6551,-3331,-1,-1,0
-167.87,151.28,-116.87,4021,-6555,-3334,0,0,-1
-167.87,151.28,-116.86,4028,-6550,-3338,0,0,0
-167.86,151.28,-116.86,4030,-6555,-3323,0,0,-1
-167.86,151.27,-116.86,4027,-6552,-3323,-1,0,0
-167.87,151.28,-116.85,4030,-6550,-3319,0,0,-1
-167.87,151.28,-116.85,4027,-6552,-3311,-1,-1,0
-167.87,151.28,-116.86,4028,-6547,-3307,0,-1,0
-167.86,151.27,-116.86,4027,-6547,-3313,0,-1,-1
-167.86,151.28,-116.85,4024,-6541,-3311,0,-1,0
-167.86,151.28,-116.86,4023,-6543,-3324,-1,-1,-1
-167.86,151.28,-116.86,4020,-6550,-3333,-1,-1,-1
-167.86,151.28,-116.86,4025,-6551,-3328,-1,0,-1
-167.86,151.27,-116.86,4022,-6551,-3328,0,0,-1
-167.85,151.27,-116.84,4023,-6546,-3318,0,0,-1
-167.86,151.28,-116.84,4018,-6542,-3312,-1,-1,-1
-167.86,151.28,-116.86,4019,-6552,-3315,-1,-1,0
-167.87,151.28,-116.87,4019,-6556,-3344,-1,-1,-1
-167.87,151.28,-116.87,4017,-6558,-3336,0,0,-1
-167.86,151.28,-116.86,4016,-6550,-3310,-1,-1,0
-167.86,151.28,-116.86,4020,-6545,-3316,0,0,-1
-167.86,151.28,-116.86,4032,-6554,-3326,-1,0,0
-167.86,151.27,-116.86,4029,-6548,-3320,0,0,-1
-167.86,151.28,-116.84,4022,-6544,-3313,-1,-1,0
-167.86,151.27,-116.86,4021,-6548,-3311,-1,-1,-1
-167.87,151.28,-116.85,4020,-6554,-3325,0,0,-1
-167.86,151.28,-116.84,4029,-6556,-3321,0,0,-1
-167.86,151.28,-116.84,4028,-6549,-3312,-1,-1,-1
-167.86,151.27,-116.86,4026,-6552,-3314,-1,-1,0
-167.86,151.27,-116.86,4021,-6552,-3313,0,-1,-1
-167.86,151.27,-116.85,4020,-6552,-3320,0,0,-1
-167.86,151.27,-116.85,4023,-6541,-3316,0,0,0
-167.86,151.27,-116.85,4029,-6546,-3314,-1,-1,0
-167.86,151.28,-116.85,4031,-6553,-3315,-1,-1,0
-167.87,151.28,-116.86,4031,-6559,-3335,-1,-1,0
-167.87,151.28,-116.86,4027,-6562,-3338,0,0,0
-167.87,151.28,-116.86,4021,-6555,-3324,0,-1,0
-167.87,151.28,-116.86,4019,-6552,-3320,-1,-1,0
-167.88,151.29,-116.86,4025,-6554,-3320,-1,-1,0
-167.88,151.29,-116.86,4024,-6560,-3325,-1,-1,0
-167.88,151.29,-116.86,4026,-6556,-3317,-1,-1,-1
-167.88,151.29,-116.87,4020,-6551,-3312,-1,-1,-1
-167.88,151.29,-116.87,4026,-6543,-3307,0,-1,-1
-167.88,151.29,-116.87,4020,-6546,-3316,-1,-1,0
-167.89,151.30,-116.88,4011,-6554,-3331,0,-1,-1
-167.88,151.29,-116.87,4026,-6554,-3324,0,0,0
-167.88,151.29,-116.87,4014,-6552,-3312,0,0,-1
-167.88,151.29,-116.87,4020,-6552,-3315,-1,-1,0
-167.90,151.30,-116.88,4016,-6555,-3328,-1,-1,0
-167.90,151.30,-116.88,4022,-6555,-3335,0,0,0
-167.90,151.30,-116.87,4018,-6549,-3326,0,0,0
-167.90,151.31,-116.88,4012,-6544,-3322,-1,-1,0
-167.90,151.31,-116.89,4019,-6544,-3321,-1,-1,0
-167.91,151.31,-116.89,4016,-6550,-3327,0,0,-1
-167.90,151.31,-116.89,4017,-6550,-3322,0,0,-1
-167.90,151.31,-116.89,4021,-6547,-3318,-1,-1,0
-167.91,151.31,-116.89,4022,-6544,-3324,-1,-1,0
-167.91,151.31,-116.90,4019,-6545,-3329,-1,-1,0
-167.91,151.31,-116.90,4013,-6543,-3334,0,0,0
-167.92,151.31,-116.89,4016,-6550,-3329,-1,-1,-1
-167.92,151.31,-116.90,4016,-6562,-3322,-1,-1,-1
-167.92,151.31,-116.90,4024,-6558,-3336,0,0,-1
-167.92,151.31,-116.89,4027,-6555,-3325,0,0,0
-167.92,151.31,-116.89,4019,-6548,-3319,-1,-1,-1
-167.91,151.31,-116.90,4030,-6545,-3316,-1,-1,-1
-167.93,151.32,-116.92,4030,-6559,-3333,-1,-1,0
-167.93,151.32,-116.92,4021,-6559,-3359,0,0,-1
-167.93,151.32,-116.91,4021,-6561,-3351,0,0,0
-167.93,151.32,-116.91,4005,-6553,-3331,0,0,-1
-167.93,151.32,-116.91,4008,-6551,-3326,-1,-1,0
-167.94,151.33,-116.92,4012,-6554,-3336,-1,-1,-1
-167.94,151.33,-116.92,4024,-6558,-3337,0,0,0
-167.94,151.33,-116.92,4020,-6551,-3329,-1,0,0
-167.94,151.33,-116.92,4019,-6553,-3322,-1,-1,-1
-167.94,151.33,-116.92,4016,-6553,-3337,-1,-1,0
-167.94,151.33,-116.92,4015,-6554,-3342,-1,0,-1
-167.94,151.32,-116.93,4021,-6557,-3335,-1,-1,0
-167.95,151.33,-116.93,4015,-6554,-3336,0,0,-1
-167.95,151.33,-116.93,4014,-6544,-3335,0,-1,0
-167.95,151.33,-116.93,4014,-6555,-3323,-1,-1,0
-167.95,151.33,-116.92,4019,-6553,-3324,0,0,-1
-167.95,151.34,-116.92,4019,-6560,-3335,0,0,0
-167.95,151.34,-116.92,4015,-6555,-3337,0,0,-1
-167.95,151.34,-116.92,4018,-6553,-3331,0,0,0
-167.95,151.34,-116.91,4012,-6559,-3324,0,0,-1
-167.94,151.33,-116.91,4009,-6553,-3324,0,0,-1
-167.93,151.33,-116.90,4019,-6556,-3310,-1,-1,0
-167.94,151.33,-116.91,4014,-6551,-3319,-1,0,-1
-167.94,151.33,-116.91,4016,-6563,-3327,-1,-1,-1
-167.94,151.33,-116.91,4013,-6560,-3328,0,-1,-1
-167.95,151.34,-116.91,4019,-6553,-3321,-1,-1,0
-167.95,151.34,-116.92,4015,-6553,-3321,-1,-1,0
-167.95,151.34,-116.92,4019,-6552,-3330,0,0,-1
-167.95,151.34,-116.92,4011,-6544,-3332,0,0,0
-167.95,151.34,-116.91,4016,-6546,-3311,-1,-1,-1
-167.95,151.34,-116.92,4012,-6555,-3330,-1,-1,0
-167.96,151.34,-116.92,4015,-6558,-3333,0,0,-1
-167.96,151.34,-116.92,4019,-6558,-3337,-1,-1,0
-167.96,151.34,-116.92,4015,-6551,-3332,0,0,-1
-167.96,151.34,-116.92,4020,-6549,-3333,-1,-1,-1
-167.97,151.34,-116.93,4009,-6549,-3339,-1,-1,-1
-167.97,151.35,-116.94,4013,-6552,-3337,-1,-1,-1
-167.97,151.35,-116.94,4009,-6547,-3343,-1,-1,-1
-167.97,151.35,-116.94,4008,-6546,-3346,-1,-1,0
-167.97,151.35,-116.94,4004,-6545,-3343,-1,0,-1
-167.98,151.35,-116.95,4010,-6540,-3341,-1,0,-1
-167.98,151.35,-116.95,4017,-6543,-3337,0,-1,-1
-167.98,151.35,-116.95,4020,-6555,-3345,-1,0,0
-167.97,151.34,-116.94,4015,-6554,-3341,0,0,-1
-167.96,151.34,-116.92,4022,-6550,-3320,0,0,0
-167.95,151.33,-116.92,4015,-6545,-3312,-1,-1,-1
-167.96,151.34,-116.93,4026,-6548,-3325,-1,-1,0
-167.97,151.33,-116.94,4018,-6551,-3350,-1,0,-1
-167.97,151.33,-116.94,4018,-6559,-3358,0,0,-1
-167.95,151.33,-116.93,4018,-6547,-3335,0,0,-1
-167.94,151.32,-116.92,4010,-6546,-3323,-1,0,-1
-167.94,151.32,-116.92,4019,-6549,-3333,0,0,-1
-167.94,151.32,-116.92,4027,-6554,-3340,0,0,-1
-167.93,151.31,-116.90,4022,-6551,-3322,0,0,-1
-167.93,151.31,-116.90,4017,-6543,-3318,0,0,-1
-167.92,151.30,-116.90,4024,-6544,-3323,-1,0,-1
-167.91,151.30,-116.90,4028,-6545,-3319,-1,-1,-1
-167.92,151.30,-116.90,4020,-6545,-3325,0,0,-1
-167.91,151.30,-116.90,4016,-6548,-3327,0,0,-1
-167.91,151.30,-116.89,4016,-6549,-3327,0,0,-1
-167.91,151.29,-116.89,4019,-6553,-3332,0,0,-1
-167.91,151.29,-116.89,4028,-6550,-3321,0,-1,-1
-167.91,151.30,-116.89,4024,-6546,-3326,-1,-1,0
-167.91,151.30,-116.89,4030,-6551,-3338,0,0,-1
-167.91,151.30,-116.89,4024,-6557,-3340,0,0,0
-167.91,151.29,-116.88,4023,-6545,-3333,0,0,-1
-167.90,151.29,-116.88,4020,-6550,-3321,-1,-1,-1
-167.90,151.29,-116.88,4019,-6545,-3319,-1,-1,-1
-167.91,151.29,-116.88,4024,-6549,-3324,0,-1,0
-167.91,151.29,-116.88,4023,-6551,-3327,0,-1,-1
-167.91,151.29,-116.89,4021,-6548,-3325,-1,-1,-1
-167.91,151.29,-116.89,4020,-6549,-3335,-1,-1,-1
-167.91,151.29,-116.89,4031,-6555,-3326,-1,0,-1
-167.91,151.29,-116.89,4029,-6552,-3337,0,0,-1
-167.90,151.28,-116.89,4032,-6552,-3323,-1,-1,-1
-167.90,151.28,-116.90,4028,-6554,-3329,-1,-1,-1
-167.90,151.28,-116.90,4036,-6560,-3341,0,0,-1
-167.90,151.28,-116.90,4027,-6550,-3335,0,0,0
-167.89,151.28,-116.89,4019,-6549,-3320,0,0,-1
-167.89,151.28,-116.89,4024,-6544,-3320,-1,-1,0
-167.89,151.28,-116.89,4019,-6546,-3329,0,0,-1
-167.90,151.28,-116.89,4024,-6543,-3326,-1,-1,0
-167.90,151.29,-116.89,4012,-6549,-3339,0,0,-1
-167.89,151.28,-116.89,4030,-6558,-3336,-1,-1,0
-167.90,151.28,-116.89,4016,-6551,-3336,0,0,-1
-167.89,151.28,-116.88,4018,-6543,-3320,0,0,-1
-167.89,151.28,-116.88,4022,-6547,-3319,-1,-1,-1
-167.89,151.28,-116.89,4034,-6553,-3335,0,0,-1
-167.89,151.28,-116.88,4034,-6553,-3329,0,0,0
-167.89,151.27,-116.88,4027,-6551,-3323,-1,0,-1
-167.89,151.28,-116.88,4021,-6546,-3325,-1,-1,0
-167.89,151.28,-116.88,4025,-6549,-3331,-1,0,-1
-167.90,151.28,-116.89,4023,-6555,-3329,-1,-1,0
-167.91,151.28,-116.89,4027,-6556,-3333,-1,-1,-1
-167.90,151.29,-116.89,4027,-6551,-3325,0,0,0
-167.90,151.28,-116.88,4023,-6548,-3322,0,-1,-1
-167.90,151.28,-116.89,4026,-6549,-3319,-1,-1,-1
-167.90,151.28,-116.89,4030,-6548,-3320,-1,-1,0
-167.90,151.28,-116.90,4031,-6550,-3323,-1,-1,-1
-167.91,151.28,-116.89,4015,-6551,-3330,0,0,0
-167.90,151.28,-116.89,4013,-6550,-3328,0,-1,-1
-167.90,151.28,-116.89,4023,-6539,-3314,-1,-1,0
-167.91,151.29,-116.90,4022,-6553,-3343,0,0,-1
-167.90,151.29,-116.89,4035,-6556,-3334,0,0,0
-167.90,151.29,-116.89,4022,-6558,-3331,0,0,-1
-167.90,151.29,-116.89,4021,-6548,-3313,-1,-1,0
-167.91,151.29,-116.89,4020,-6555,-3325,-1,-1,-1
-167.91,151.29,-116.90,4029,-6553,-3333,0,0,0
-167.91,151.29,-116.89,4024,-6551,-3334,0,0,-1
-167.91,151.29,-116.89,4025,-6548,-3329,-1,-1,-1
-167.91,151.29,-116.90,4024,-6544,-3327,-1,-1,0
-167.91,151.29,-116.90,4020,-6548,-3321,0,-1,0
-167.91,151.29,-116.89,4020,-6548,-3325,0,0,-1
-167.91,151.29,-116.89,4019,-6546,-3325,0,-1,0
-167.91,151.29,-116.90,4023,-6547,-3333,-1,-1,0
-167.92,151.30,-116.90,4021,-6549,-3337,-1,0,0
-167.91,151.29,-116.90,4021,-6551,-3336,0,0,-1
-167.91,151.29,-116.89,4017,-6553,-3323,0,0,-1
-167.91,151.29,-116.89,4016,-6552,-3326,0,-1,-1
-167.91,151.29,-116.89,4017,-6552,-3336,-1,-1,0
-167.92,151.30,-116.90,4015,-6554,-3331,-1,-1,-1
-167.91,151.30,-116.90,4009,-6544,-3331,0,-1,-1
-167.92,151.30,-116.90,4014,-6542,-3325,-1,-1,0
-167.93,151.30,-116.92,4005,-6548,-3344,0,0,-1
-167.92,151.30,-116.90,4018,-6545,-3336,0,0,0
-167.91,151.29,-116.90,4010,-6544,-3320,0,0,-1
-167.91,151.29,-116.90,4016,-6538,-3314,-1,-1,0
-167.92,151.29,-116.91,4029,-6540,-3340,-1,-1,0
-167.92,151.29,-116.91,4025,-6544,-3343,0,0,0
-167.92,151.30,-116.90,4015,-6548,-3333,0,0,0
-167.91,151.29,-116.90,4016,-6546,-3317,-1,0,-1
-167.91,151.29,-116.90,4023,-6554,-3326,-1,-1,0
-167.92,151.30,-116.90,4021,-6562,-3332,0,0,-1
-167.91,151.29,-116.90,4026,-6554,-3326,0,0,0
-167.91,151.29,-116.90,4021,-6554,-3324,-1,-1,0
-167.92,151.30,-116.90,4020,-6553,-3328,-1,-1,0
-167.92,151.30,-116.90,4017,-6555,-3326,-1,-1,-1
-167.92,151.30,-116.90,4020,-6555,-3334,-1,0,-1
-167.92,151.30,-116.90,4021,-6551,-3332,-1,-1,-1
-167.92,151.30,-116.90,4018,-6550,-3329,0,0,-1
-167.92,151.30,-116.90,4014,-6552,-3319,-1,-1,0
-167.93,151.30,-116.91,4015,-6545,-3317,-1,0,-1
-167.92,151.30,-116.91,4020,-6547,-3316,-1,-1,-1
-167.93,151.31,-116.91,4017,-6553,-3330,-1,0,0
-167.92,151.30,-116.90,4014,-6550,-3328,0,0,-1
-167.92,151.30,-116.89,4012,-6547,-3310,0,-1,-1
-167.91,151.30,-116.89,4022,-6546,-3298,-1,-1,-1
-167.93,151.31,-116.91,4027,-6556,-3326,-1,-1,0
-167.94,151.31,-116.92,4020,-6563,-3349,0,0,0
-167.93,151.31,-116.90,4011,-6556,-3334,0,0,-1
-167.93,151.31,-116.90,4008,-6543,-3326,0,0,-1
-167.93,151.30,-116.91,4023,-6544,-3332,-1,-1,-1
-167.93,151.30,-116.91,4020,-6551,-3331,0,0,0
-167.93,151.30,-116.91,4021,-6549,-3327,-1,-1,0
-167.93,151.31,-116.91,4026,-6547,-3321,-1,-1,-1
-167.93,151.31,-116.91,4021,-6549,-3327,0,0,-1
-167.93,151.30,-116.91,4021,-6545,-3325,0,-1,-1
-167.93,151.31,-116.91,4025,-6546,-3327,-1,-1,-1
-167.94,151.31,-116.92,4018,-6552,-3324,-1,-1,0
-167.94,151.31,-116.92,4016,-6551,-3327,-1,-1,-1
-167.94,151.31,-116.93,4011,-6544,-3328,0,-1,0
-167.94,151.31,-116.93,4017,-6543,-3331,-1,-1,0
-167.94,151.31,-116.93,4012,-6546,-3330,-1,0,-1
-167.94,151.31,-116.93,4014,-6548,-3324,0,-1,0
-167.96,151.32,-116.93,4012,-6549,-3321,-1,-1,0
-167.96,151.32,-116.93,4016,-6560,-3351,0,0,-1
-167.96,151.32,-116.93,4019,-6566,-3345,0,0,0
-167.95,151.32,-116.91,4016,-6557,-3320,0,0,-1
-167.95,151.32,-116.91,4023,-6558,-3318,-1,-1,0
-167.96,151.32,-116.93,4021,-6559,-3339,-1,-1,-1
-167.96,151.32,-116.93,4016,-6550,-3344,0,-1,0
-167.96,151.32,-116.93,4015,-6546,-3334,-1,-1,0
-167.96,151.33,-116.94,4020,-6550,-3338,-1,-1,-1
-167.97,151.33,-116.95,4020,-6545,-3343,0,0,-1
-167.97,151.33,-116.95,4019,-6540,-3338,0,0,0
-167.97,151.33,-116.95,4016,-6550,-3337,-1,-1,0
-167.97,151.33,-116.95,4020,-6550,-3335,-1,-1,0
-167.98,151.33,-116.95,4012,-6557,-3335,0,-1,0
-167.98,151.33,-116.95,4014,-6559,-3333,-1,0,-1
-167.98,151.33,-116.95,4015,-6559,-3350,0,0,0
-167.98,151.33,-116.95,4013,-6551,-3349,0,0,-1
-167.98,151.33,-116.95,4011,-6552,-3338,0,0,-1
-167.99,151.34,-116.95,4011,-6561,-3328,-1,-1,0
-167.99,151.34,-116.96,4010,-6559,-3339,0,0,-1
-167.99,151.34,-116.95,4014,-6551,-3345,0,0,-1
-167.99,151.35,-116.95,4014,-6547,-3338,-1,-1,0
-167.99,151.34,-116.96,4014,-6553,-3353,0,0,-1
-167.99,151.34,-116.95,4023,-6561,-3348,-1,0,0
-167.99,151.34,-116.95,4011,-6551,-3340,0,0,-1
-167.98,151.33,-116.94,4010,-6543,-3322,0,0,-1
-167.99,151.34,-116.95,4016,-6540,-3332,-1,-1,0
-167.99,151.34,-116.95,4019,-6547,-3338,-1,-1,0
-167.99,151.34,-116.96,4020,-6557,-3335,-1,-1,0
-167.99,151.34,-116.97,4020,-6556,-3343,-1,0,-1
-167.99,151.34,-116.96,4005,-6552,-3335,0,0,-1
-167.99,151.35,-116.95,4011,-6553,-3325,0,0,-1
-167.99,151.34,-116.95,4015,-6556,-3331,-1,-1,-1
-167.99,151.34,-116.96,4020,-6557,-3341,-1,0,0
-167.99,151.34,-116.96,4019,-6552,-3338,0,0,-1
-167.99,151.34,-116.96,4019,-6558,-3342,-1,0,-1
-167.99,151.34,-116.95,4011,-6553,-3337,0,0,-1
-167.99,151.34,-116.95,4015,-6547,-3327,0,0,-1
-167.98,151.33,-116.95,4009,-6550,-3326,-1,0,0
-167.98,151.33,-116.95,4020,-6548,-3330,0,-1,-1
-167.98,151.33,-116.95,4024,-6552,-3337,-1,-1,0
-167.98,151.33,-116.96,4015,-6547,-3344,0,0,-1
-167.98,151.33,-116.95,4017,-6544,-3330,0,0,-1
-167.98,151.33,-116.95,4029,-6551,-3325,-1,-1,0
-167.99,151.34,-116.96,4027,-6555,-3344,0,0,0
-167.99,151.34,-116.95,4022,-6556,-3342,0,0,0
-167.98,151.33,-116.94,4018,-6542,-3332,0,0,-1
-167.98,151.33,-116.95,4015,-6542,-3329,-1,-1,-1
-167.98,151.33,-116.95,4019,-6558,-3348,0,0,-1
-167.97,151.33,-116.94,4019,-6558,-3340,0,0,0
-167.97,151.33,-116.93,4013,-6554,-3327,-1,-1,-1
-167.98,151.33,-116.95,4020,-6551,-3330,-1,-1,-1
-167.98,151.33,-116.96,4016,-6553,-3346,-1,-1,-1
-167.98,151.33,-116.95,4015,-6560,-3334,0,0,-1
-167.98,151.33,-116.95,4016,-6559,-3332,0,0,-1
-167.98,151.33,-116.95,4008,-6558,-3331,-1,-1,-1
-167.98,151.33,-116.95,4017,-6562,-3329,-1,-1,0
-167.98,151.33,-116.95,4015,-6562,-3334,-1,-1,-1
-167.98,151.33,-116.95,4020,-6559,-3331,0,-1,0
-167.98,151.33,-116.95,4016,-6558,-3334,0,0,0
-167.98,151.34,-116.94,4014,-6554,-3326,0,0,0
-167.98,151.34,-116.94,4017,-6553,-3322,0,0,-1
-167.98,151.33,-116.94,4020,-6556,-3318,-1,-1,-1
-167.98,151.33,-116.94,4019,-6560,-3333,-1,-1,-1
-167.98,151.34,-116.94,4022,-6565,-3341,0,0,0
-167.98,151.34,-116.94,4015,-6557,-3338,0,0,-1
-167.99,151.34,-116.95,4014,-6549,-3337,-1,-1,-1
-167.99,151.34,-116.95,4015,-6549,-3346,-1,0,-1
-167.99,151.34,-116.95,4012,-6549,-3349,0,0,0
-167.98,151.34,-116.94,4016,-6548,-3336,0,-1,0
-167.98,151.34,-116.94,4010,-6548,-3343,0,-1,-1
-167.98,151.33,-116.95,4023,-6557,-3341,-1,-1,0
-167.99,151.34,-116.95,4014,-6553,-3343,-1,-1,-1
-167.99,151.34,-116.95,4013,-6553,-3347,-1,-1,0
-167.99,151.34,-116.95,4013,-6548,-3346,0,0,-1
-167.99,151.34,-116.95,4018,-6552,-3338,0,0,-1
-167.99,151.34,-116.95,4018,-6550,-3333,0,0,-1
-167.99,151.34,-116.95,4016,-6548,-3332,-1,-1,-1
-167.99,151.34,-116.95,4014,-6543,-3336,0,-1,0
-167.99,151.34,-116.95,4020,-6543,-3324,0,0,-1
-167.99,151.34,-116.95,4018,-6549,-3326,-1,0,-1
-167.98,151.33,-116.94,4016,-6556,-3338,0,0,-1
-167.98,151.33,-116.94,4018,-6554,-3331,0,0,-1
-167.98,151.33,-116.94,4017,-6554,-3326,-1,-1,-1
-167.98,151.33,-116.94,4012,-6550,-3323,-1,-1,-1
-167.98,151.33,-116.94,4015,-6554,-3325,0,0,-1
-167.98,151.33,-116.93,4013,-6557,-3330,0,0,-1
-167.98,151.33,-116.93,4023,-6555,-3331,0,-1,-1
-167.98,151.33,-116.93,4023,-6542,-3338,-1,-1,0
-167.98,151.33,-116.94,4025,-6546,-3341,0,0,0
-167.98,151.33,-116.93,4022,-6550,-3330,0,0,0
-167.97,151.33,-116.93,4017,-6556,-3324,0,0,-1
-167.97,151.33,-116.93,4020,-6551,-3334,0,0,-1
-167.97,151.33,-116.93,4015,-6547,-3323,0,0,-1
-167.97,151.33,-116.93,4019,-6549,-3336,-1,-1,0
-167.97,151.33,-116.93,4015,-6546,-3342,0,0,-1
-167.97,151.33,-116.93,4018,-6542,-3326,0,-1,0
-167.98,151.33,-116.94,4022,-6548,-3329,-1,-1,0
-167.98,151.33,-116.94,4021,-6559,-3344,0,0,-1
-167.97,151.32,-116.93,4023,-6557,-3329,0,0,0
-167.96,151.32,-116.92,4016,-6536,-3311,-1,-1,-1
-167.97,151.32,-116.93,4015,-6543,-3313,-1,-1,0
-167.98,151.33,-116.94,4015,-6554,-3332,0,-1,-1
-167.97,151.33,-116.93,4022,-6553,-3335,0,0,0
-167.97,151.32,-116.92,4016,-6547,-3327,0,0,-1
-167.97,151.32,-116.92,4019,-6552,-3323,-1,-1,-1
-167.97,151.33,-116.93,4023,-6554,-3338,0,0,-1
-167.97,151.32,-116.93,4020,-6557,-3329,0,0,-1
-167.97,151.32,-116.93,4016,-6556,-3327,-1,0,-1
-167.97,151.32,-116.93,4015,-6555,-3326,0,0,0
-167.97,151.33,-116.92,4019,-6556,-3336,0,0,0
-167.97,151.33,-116.92,4018,-6549,-3335,0,-1,-1
-167.97,151.33,-116.93,4020,-6555,-3335,-1,-1,-1
-167.97,151.33,-116.93,4021,-6561,-3337,-1,0,-1
-167.97,151.33,-116.93,4021,-6556,-3346,0,0,0
-167.97,151.32,-116.92,4016,-6551,-3323,0,0,0
-167.96,151.32,-116.91,4014,-6544,-3308,-1,-1,-1
-167.97,151.32,-116.93,4020,-6544,-3329,-1,-1,0
-167.98,151.33,-116.93,4018,-6551,-3345,-1,-1,-1
-167.98,151.33,-116.93,4014,-6555,-3345,0,0,-1
-167.97,151.33,-116.92,4001,-6556,-3340,0,0,-1
-167.97,151.33,-116.92,4004,-6550,-3329,-1,0,-1
-167.97,151.33,-116.93,4015,-6547,-3344,-1,0,-1
-167.97,151.33,-116.93,4018,-6540,-3336,0,-1,0
-167.98,151.33,-116.93,4022,-6544,-3334,-1,-1,0
-167.98,151.33,-116.94,4019,-6559,-3344,0,0,-1
-167.97,151.33,-116.93,4016,-6558,-3341,0,0,-1
-167.97,151.33,-116.93,4016,-6544,-3339,0,0,-1
-167.98,151.33,-116.94,4023,-6545,-3327,-1,-1,-1
-167.98,151.33,-116.94,4019,-6554,-3339,-1,-1,0
-167.98,151.33,-116.94,4015,-6557,-3333,0,0,0
-167.98,151.33,-116.93,4017,-6549,-3332,0,0,0
-167.98,151.33,-116.94,4021,-6550,-3340,-1,-1,-1
-167.98,151.33,-116.94,4020,-6550,-3349,0,-1,0
-167.99,151.34,-116.95,4018,-6553,-3336,0,-1,0
-167.99,151.34,-116.94,4018,-6556,-3338,-1,-1,0
-167.99,151.34,-116.94,4021,-6553,-3337,0,0,-1
-167.99,151.34,-116.94,4019,-6554,-3333,0,0,-1
-167.99,151.34,-116.93,4024,-6556,-3321,0,0,-1
-167.99,151.34,-116.93,4027,-6556,-3325,-1,-1,-1
-167.99,151.34,-116.94,4014,-6557,-3334,-1,-1,-1
-167.99,151.34,-116.94,4016,-6550,-3335,-1,-1,-1
-167.99,151.34,-116.94,4023,-6544,-3338,-1,-1,-1
-168.00,151.34,-116.95,4022,-6547,-3337,-1,-1,-1
-167.99,151.34,-116.95,4020,-6550,-3331,0,0,-1
-167.99,151.34,-116.95,4021,-6549,-3323,0,0,-1
-167.99,151.34,-116.95,4012,-6552,-3325,-1,-1,-1
-167.99,151.33,-116.96,4018,-6550,-3329,-1,-1,0
-168.00,151.34,-116.96,4019,-6547,-3331,-1,-1,0
-168.00,151.34,-116.96,4014,-6544,-3336,0,0,0
-168.00,151.34,-116.96,4016,-6545,-3334,-1,-1,-1
-168.00,151.34,-116.96,4010,-6542,-3337,0,-1,-1
-167.99,151.34,-116.95,4016,-6542,-3334,0,-1,-1
-168.00,151.35,-116.96,4021,-6548,-3338,-1,-1,0
-168.01,151.35,-116.96,4015,-6555,-3349,0,0,-1
-168.00,151.34,-116.96,4020,-6551,-3345,0,0,0
-168.00,151.34,-116.96,4017,-6547,-3334,-1,-1,-1
-168.00,151.35,-116.97,4018,-6551,-3332,-1,-1,0
-168.00,151.34,-116.97,4019,-6555,-3345,0,0,-1
-168.00,151.35,-116.97,4014,-6549,-3336,0,0,0
-168.00,151.35,-116.97,4011,-6542,-3326,-1,-1,0
-168.01,151.35,-116.97,4013,-6548,-3324,-1,-1,-1
-168.02,151.35,-116.98,4013,-6560,-3351,0,0,0
-168.01,151.35,-116.96,4016,-6554,-3338,0,0,-1
-168.01,151.35,-116.96,4012,-6544,-3323,0,-1,-1
-168.01,151.35,-116.97,4008,-6541,-3321,-1,-1,-1
-168.02,151.36,-116.98,4015,-6546,-3338,-1,-1,0
-168.03,151.36,-116.99,4020,-6556,-3357,-1,-1,0
-168.03,151.36,-116.99,4012,-6558,-3364,0,0,-1
-168.03,151.36,-116.99,4009,-6553,-3355,0,0,-1
-168.02,151.36,-116.99,4011,-6551,-3342,-1,0,-1
-168.02,151.36,-116.99,4007,-6546,-3331,-1,-1,0
-168.02,151.36,-116.99,4012,-6546,-3341,-1,-1,0
-168.03,151.36,-116.99,4013,-6556,-3341,-1,-1,0
-168.03,151.36,-116.99,4011,-6561,-3347,0,0,-1
-168.03,151.36,-116.99,4014,-6556,-3331,0,0,-1
-168.02,151.36,-116.99,4019,-6554,-3336,-1,0,-1
-168.02,151.36,-116.99,4023,-6557,-3332,-1,-1,0
-168.03,151.36,-117.00,4015,-6558,-3335,-1,-1,0
-168.03,151.36,-116.99,4017,-6555,-3342,0,0,-1
-168.03,151.36,-116.99,4009,-6545,-3330,0,0,-1
-168.02,151.36,-116.99,4014,-6542,-3328,-1,-1,-1
-168.04,151.37,-117.01,4014,-6542,-3350,-1,-1,0
-168.04,151.37,-117.01,4019,-6547,-3353,0,0,-1
-168.04,151.37,-117.01,4019,-6551,-3350,0,0,-1
-168.04,151.37,-117.00,4017,-6549,-3339,0,0,-1
-168.04,151.37,-117.00,4018,-6556,-3345,-1,0,-1
-168.04,151.37,-117.00,4017,-6551,-3348,0,0,-1
-168.04,151.37,-117.00,4006,-6549,-3347,-1,-1,-1
-168.04,151.37,-117.01,4006,-6547,-3336,-1,-1,-1
-168.05,151.37,-117.01,4012,-6546,-3352,-1,-1,0
-168.05,151.38,-117.02,4007,-6545,-3357,-1,-1,-1
-168.06,151.37,-117.03,4011,-6548,-3359,0,0,-1
-168.05,151.38,-117.02,4008,-6549,-3353,0,0,-1
-168.05,151.37,-117.02,4009,-6545,-3346,-1,-1,-1
-168.06,151.37,-117.03,4008,-6547,-3342,-1,-1,0
-168.06,151.38,-117.03,4011,-6547,-3345,-1,-1,0
-168.06,151.38,-117.03,4011,-6553,-3357,0,-1,0
-168.06,151.38,-117.03,4010,-6556,-3355,0,0,0
-168.06,151.38,-117.03,4010,-6557,-3359,-1,0,-1
-168.06,151.38,-117.04,4012,-6552,-3362,0,0,-1
-168.06,151.38,-117.03,4017,-6548,-3346,-1,-1,0
-168.07,151.38,-117.04,4010,-6547,-3352,0,0,-1
-168.06,151.38,-117.04,4017,-6553,-3348,0,0,-1
-168.06,151.38,-117.04,4023,-6546,-3354,-1,0,-1
-168.06,151.38,-117.04,4022,-6540,-3349,0,-1,0
-168.06,151.38,-117.04,4012,-6543,-3345,-1,-1,-1
-168.07,151.38,-117.05,4009,-6548,-3349,-1,-1,0
-168.07,151.38,-117.05,4012,-6547,-3354,0,0,-1
-168.07,151.38,-117.04,4011,-6545,-3352,0,0,0
-168.07,151.38,-117.04,4004,-6538,-3340,0,-1,-1
-168.06,151.38,-117.04,4017,-6538,-3332,-1,-1,0
-168.08,151.38,-117.06,4017,-6548,-3345,-1,-1,0
-168.08,151.38,-117.06,4017,-6553,-3359,0,0,0
-168.08,151.38,-117.05,4009,-6550,-3361,0,0,-1
-168.07,151.38,-117.05,4006,-6547,-3346,0,0,-1
-168.07,151.38,-117.05,4010,-6542,-3339,-1,-1,-1
-168.08,151.38,-117.06,4015,-6537,-3344,-1,-1,-1
-168.08,151.38,-117.06,4013,-6539,-3348,0,-1,-1
-168.08,151.38,-117.06,4007,-6547,-3347,0,0,-1
-168.08,151.38,-117.05,4008,-6548,-3336,-1,0,-1
-168.08,151.38,-117.06,4006,-6550,-3337,-1,-1,-1
-168.08,151.38,-117.06,4006,-6549,-3350,-1,-1,-1
-168.09,151.38,-117.07,4013,-6541,-3359,-1,0,-1
-168.09,151.38,-117.07,4010,-6540,-3350,-1,-1,0
-168.09,151.39,-117.07,4008,-6542,-3348,-1,-1,0
-168.08,151.38,-117.07,4008,-6547,-3347,0,-1,0
-168.09,151.39,-117.07,4008,-6547,-3349,-1,-1,0
-168.09,151.39,-117.07,4011,-6543,-3348,-1,-1,0
-168.10,151.40,-117.08,4009,-6546,-3357,-1,-1,0
-168.10,151.39,-117.08,4016,-6557,-3363,0,0,-1
-168.10,151.39,-117.08,4014,-6552,-3352,0,0,0
-168.09,151.39,-117.07,4012,-6548,-3327,0,0,-1
-168.09,151.39,-117.08,4014,-6546,-3334,-1,-1,0
-168.10,151.39,-117.08,4010,-6544,-3348,0,-1,-1
-168.10,151.39,-117.08,4005,-6550,-3346,-1,-1,0
-168.10,151.40,-117.08,4007,-6550,-3349,-1,-1,-1
-168.10,151.40,-117.09,4006,-6550,-3356,-1,-1,0
-168.10,151.40,-117.09,4003,-6551,-3355,0,0,-1
-168.10,151.40,-117.09,4000,-6547,-3351,0,0,0
-168.10,151.40,-117.09,4001,-6546,-3355,-1,-1,-1
-168.10,151.40,-117.09,4007,-6543,-3355,-1,-1,-1
-168.10,151.40,-117.09,4006,-6552,-3362,0,0,-1
-168.10,151.40,-117.09,4003,-6546,-3359,0,0,0
-168.10,151.39,-117.08,4005,-6548,-3355,0,0,-1
-168.10,151.39,-117.08,4006,-6549,-3346,0,0,-1
-168.09,151.39,-117.08,4005,-6549,-3347,0,0,-1
-168.09,151.39,-117.07,4008,-6552,-3343,0,0,-1
-168.09,151.38,-117.07,4008,-6553,-3347,-1,0,-1
-168.08,151.38,-117.06,4001,-6545,-3343,0,0,-1
-168.07,151.37,-117.05,4007,-6549,-3343,0,0,-1
-168.06,151.37,-117.05,4006,-6544,-3345,0,0,-1
-168.06,151.36,-117.04,4013,-6543,-3342,-1,0,-1
-168.05,151.36,-117.04,4014,-6547,-3346,0,0,-1
-168.05,151.35,-117.03,4011,-6544,-3339,0,0,-1
-168.04,151.35,-117.02,4017,-6551,-3338,0,0,-1
-168.04,151.35,-117.02,4015,-6546,-3346,0,0,-1
-168.03,151.34,-117.02,4006,-6545,-3337,0,0,0
-168.03,151.35,-117.01,4005,-6544,-3327,-1,-1,-1
-168.04,151.35,-117.02,4017,-6546,-3331,-1,-1,-1
-168.04,151.35,-117.02,4027,-6548,-3344,-1,-1,0
-168.04,151.35,-117.03,4022,-6553,-3353,0,0,0
-168.04,151.35,-117.02,4009,-6550,-3348,0,0,-1
-168.03,151.35,-117.01,4009,-6544,-3339,0,0,-1
-168.03,151.35,-117.01,4014,-6552,-3338,0,0,-1
-168.03,151.35,-117.01,4025,-6545,-3344,0,0,-1
-168.03,151.34,-117.02,4027,-6542,-3341,-1,0,0
-168.03,151.34,-117.02,4019,-6545,-3340,0,-1,0
-168.03,151.35,-117.01,4011,-6548,-3337,0,-1,0
-168.03,151.34,-117.02,4012,-6540,-3350,-1,-1,0
-168.04,151.35,-117.02,4021,-6541,-3355,-1,-1,-1
-168.03,151.34,-117.03,4026,-6543,-3354,-1,-1,-1
-168.03,151.34,-117.03,4022,-6543,-3349,0,-1,0
-168.03,151.34,-117.03,4021,-6537,-3345,0,0,0
-168.04,151.35,-117.03,4018,-6537,-3349,-1,-1,0
-168.03,151.34,-117.03,4021,-6535,-3354,0,-1,-1
-168.04,151.35,-117.04,4017,-6541,-3363,-1,-1,0
-168.05,151.35,-117.04,4011,-6545,-3361,0,0,0
-168.05,151.35,-117.04,4016,-6552,-3367,0,0,0
-168.05,151.35,-117.04,4013,-6556,-3360,0,0,-1
-168.04,151.35,-117.03,4018,-6548,-3352,0,0,-1
-168.04,151.35,-117.03,4008,-6549,-3342,0,-1,0
-168.04,151.35,-117.03,4010,-6552,-3343,-1,-1,0
-168.05,151.35,-117.03,4010,-6557,-3343,-1,-1,-1
-168.04,151.34,-117.04,4013,-6549,-3347,0,0,-1
-168.04,151.34,-117.04,4008,-6548,-3346,0,0,-1
-168.04,151.34,-117.03,4009,-6541,-3347,0,0,-1
-168.04,151.34,-117.03,4014,-6540,-3336,-1,-1,-1
-168.03,151.34,-117.03,4014,-6542,-3343,-1,-1,-1
-168.04,151.34,-117.03,4012,-6551,-3338,-1,-1,-1
-168.03,151.34,-117.03,4019,-6548,-3346,0,0,-1
-168.02,151.33,-117.02,4018,-6548,-3338,0,0,0
-168.02,151.33,-117.02,4018,-6539,-3336,0,0,-1
-168.02,151.33,-117.01,4021,-6533,-3339,0,0,0
-168.02,151.33,-117.01,4024,-6539,-3330,-1,-1,0
-168.03,151.34,-117.02,4021,-6548,-3346,-1,0,-1
-168.01,151.33,-117.01,4020,-6550,-3346,0,0,-1
-168.01,151.33,-117.00,4015,-6548,-3331,0,0,-1
-168.01,151.32,-116.99,4020,-6535,-3311,-1,-1,0
-168.01,151.32,-117.01,4012,-6542,-3314,-1,-1,-1
-168.01,151.32,-117.02,4030,-6548,-3334,-1,-1,-1
-168.01,151.32,-117.01,4026,-6551,-3345,0,0,0
-168.01,151.32,-117.01,4030,-6544,-3339,0,0,-1
-168.01,151.32,-117.01,4020,-6545,-3331,-1,-1,0
-168.01,151.32,-117.01,4018,-6546,-3337,-1,-1,0
-168.01,151.32,-117.01,4014,-6544,-3337,0,-1,0
-168.01,151.33,-117.01,4014,-6550,-3337,-1,-1,-1
-168.02,151.33,-117.02,4022,-6557,-3352,-1,0,-1
-168.02,151.33,-117.02,4025,-6548,-3358,0,0,0
-168.01,151.33,-117.00,4015,-6538,-3338,0,0,-1
-168.01,151.33,-117.00,4014,-6539,-3328,-1,-1,-1
-168.02,151.33,-117.01,4011,-6549,-3337,-1,-1,0
-168.02,151.33,-117.02,4013,-6562,-3353,0,0,0
-168.03,151.34,-117.01,4009,-6559,-3345,0,0,-1
-168.02,151.34,-117.00,4008,-6551,-3332,0,0,-1
-168.02,151.33,-117.01,4013,-6546,-3322,-1,-1,0
-168.03,151.34,-117.01,4018,-6544,-3335,0,0,0
-168.02,151.33,-117.01,4024,-6550,-3341,0,0,0
-168.02,151.33,-117.00,4016,-6549,-3334,0,-1,0
-168.02,151.33,-117.01,4014,-6544,-3335,-1,0,-1
-168.02,151.33,-117.01,4022,-6543,-3345,0,-1,-1
-168.03,151.34,-117.01,4025,-6545,-3332,-1,-1,0
-168.03,151.34,-117.02,4022,-6547,-3341,-1,-1,-1
-168.02,151.33,-117.02,4022,-6551,-3343,0,0,0
-168.02,151.33,-117.01,4010,-6549,-3340,0,0,-1
-168.02,151.33,-117.01,4013,-6545,-3335,-1,-1,0
-168.02,151.33,-117.01,4013,-6547,-3344,-1,-1,-1
-168.02,151.33,-117.02,4019,-6546,-3347,0,0,-1
-168.02,151.33,-117.01,4017,-6545,-3337,0,0,0
-168.03,151.34,-117.01,4013,-6546,-3340,-1,0,-1
-168.03,151.34,-117.01,4012,-6547,-3339,-1,0,0
-168.03,151.34,-117.01,4011,-6548,-3337,0,0,-1
-168.03,151.34,-117.01,4019,-6554,-3329,-1,-1,0
-168.03,151.34,-117.01,4011,-6548,-3326,-1,-1,-1
-168.03,151.34,-117.01,4006,-6543,-3329,-1,-1,0
-168.03,151.34,-117.02,4007,-6541,-3333,-1,-1,0
-168.03,151.34,-117.02,4011,-6551,-3334,-1,-1,-1
-168.03,151.34,-117.02,4014,-6554,-3340,-1,-1,-1
-168.04,151.34,-117.03,4018,-6551,-3352,0,0,-1
-168.04,151.34,-117.03,4013,-6553,-3353,0,0,0
-168.04,151.35,-117.03,4016,-6552,-3350,-1,-1,-1
-168.05,151.35,-117.03,4011,-6551,-3354,-1,-1,0
-168.05,151.35,-117.03,4008,-6548,-3356,0,0,0
-168.05,151.35,-117.03,4008,-6542,-3346,0,0,-1
-168.05,151.35,-117.03,4006,-6541,-3345,0,0,-1
-168.05,151.35,-117.03,4013,-6547,-3339,-1,0,-1
-168.05,151.35,-117.03,4010,-6549,-3340,-1,-1,0
-168.05,151.36,-117.03,4013,-6547,-3343,-1,-1,-1
-168.05,151.36,-117.03,4013,-6545,-3348,-1,-1,-1
-168.05,151.36,-117.03,4019,-6545,-3340,-1,0,-1
-168.05,151.36,-117.03,4014,-6551,-3337,-1,0,-1
-168.05,151.36,-117.03,4016,-6550,-3332,-1,-1,-1
-168.05,151.36,-117.03,4012,-6549,-3335,-1,-1,0
-168.05,151.36,-117.04,4008,-6545,-3346,-1,-1,0
-168.06,151.36,-117.04,4007,-6543,-3347,0,0,0
-168.06,151.36,-117.04,4009,-6546,-3347,-1,-1,0
-168.07,151.36,-117.04,4011,-6548,-3346,-1,-1,0
-168.07,151.36,-117.04,4007,-6556,-3349,0,0,-1
-168.06,151.37,-117.03,4010,-6551,-3341,0,0,0
-168.06,151.36,-117.03,4004,-6540,-3328,-1,-1,-1
-168.07,151.37,-117.04,4020,-6547,-3326,-1,-1,0
-168.09,151.38,-117.06,4018,-6556,-3369,-1,-1,0
-168.09,151.38,-117.05,4014,-6559,-3376,0,0,-1
-168.08,151.38,-117.04,4000,-6552,-3357,0,0,-1
-168.07,151.37,-117.04,3994,-6541,-3352,-1,-1,-1
-168.09,151.38,-117.06,3998,-6543,-3350,-1,-1,0
-168.09,151.38,-117.06,4009,-6547,-3354,0,0,0
-168.09,151.38,-117.05,4013,-6548,-3339,0,0,0
-168.09,151.38,-117.05,4011,-6544,-3343,-1,0,-1
-168.09,151.38,-117.06,4014,-6548,-3348,-1,-1,0
-168.09,151.38,-117.06,4013,-6549,-3350,-1,-1,-1
-168.09,151.38,-117.07,4009,-6546,-3345,-1,-1,0
-168.10,151.38,-117.07,4015,-6541,-3343,-1,-1,0
-168.10,151.38,-117.08,4019,-6541,-3361,-1,-1,-1
-168.11,151.38,-117.09,4012,-6545,-3364,0,0,0
-168.10,151.38,-117.08,4014,-6542,-3346,0,-1,-1
-168.10,151.39,-117.08,4017,-6544,-3336,-1,-1,0
-168.11,151.38,-117.09,4012,-6538,-3347,-1,-1,0
-168.12,151.39,-117.09,4011,-6551,-3362,0,0,0
-168.12,151.39,-117.09,4007,-6546,-3363,0,0,-1
-168.12,151.39,-117.09,4007,-6546,-3360,0,0,-1
-168.11,151.39,-117.08,4010,-6548,-3355,-1,0,-1
-168.11,151.39,-117.08,4011,-6546,-3358,-1,-1,-1
-168.12,151.39,-117.09,4016,-6544,-3350,-1,-1,-1
-168.12,151.39,-117.10,4014,-6547,-3350,-1,-1,-1
-168.12,151.39,-117.10,4015,-6541,-3355,-1,-1,-1
-168.12,151.39,-117.10,4019,-6549,-3353,0,0,-1
-168.12,151.39,-117.10,4015,-6550,-3353,-1,0,-1
-168.12,151.39,-117.10,4013,-6549,-3358,-1,-1,0
-168.13,151.40,-117.11,4013,-6552,-3366,-1,-1,-1
-168.13,151.40,-117.11,4019,-6544,-3368,0,0,-1
-168.13,151.40,-117.11,4010,-6545,-3350,0,0,0
-168.13,151.40,-117.11,4009,-6542,-3347,-1,-1,-1
-168.13,151.40,-117.11,4010,-6543,-3361,-1,-1,0
-168.13,151.40,-117.11,4007,-6552,-3354,0,0,-1
-168.12,151.39,-117.10,4018,-6560,-3345,0,0,-1
-168.12,151.39,-117.10,4013,-6554,-3348,-1,0,-1
-168.12,151.39,-117.10,4013,-6549,-3348,-1,-1,-1
-168.12,151.39,-117.11,4010,-6544,-3355,-1,-1,0
-168.13,151.40,-117.11,4007,-6549,-3352,0,0,-1
-168.13,151.40,-117.11,4009,-6546,-3352,-1,-1,0
-168.14,151.40,-117.11,4005,-6547,-3357,-1,-1,0
-168.14,151.40,-117.12,4008,-6537,-3358,-1,-1,0
-168.14,151.40,-117.12,4005,-6546,-3364,0,0,-1
-168.13,151.39,-117.11,4009,-6552,-3359,0,0,-1
-168.12,151.40,-117.09,4000,-6539,-3335,0,0,0
-168.12,151.39,-117.09,3998,-6526,-3324,-1,-1,0
-168.14,151.40,-117.12,4014,-6532,-3352,-1,-1,0
-168.16,151.41,-117.15,4019,-6555,-3389,-1,-1,0
-168.16,151.41,-117.15,4008,-6555,-3398,0,0,0
-168.15,151.41,-117.13,3995,-6544,-3378,0,0,-1
-168.14,151.40,-117.11,3999,-6546,-3348,0,0,-1
-168.14,151.40,-117.11,4002,-6546,-3335,0,0,0
-168.13,151.40,-117.10,4001,-6533,-3339,0,-1,0
-168.14,151.40,-117.11,4006,-6526,-3343,-1,-1,0
-168.16,151.41,-117.14,4011,-6538,-3368,-1,-1,0
-168.16,151.42,-117.14,4022,-6558,-3384,0,0,0
-168.15,151.41,-117.11,4008,-6554,-3379,1,0,-1
-168.12,151.40,-117.07,4003,-6538,-3329,0,0,-1
-168.11,151.40,-117.07,4003,-6535,-3305,-1,-1,-1
-168.12,151.40,-117.09,4020,-6540,-3326,-1,-1,0
-168.14,151.41,-117.11,4022,-6553,-3359,-1,-1,0
-168.14,151.41,-117.12,4013,-6558,-3367,0,0,0
-168.14,151.42,-117.10,4006,-6554,-3358,0,0,0
-168.13,151.41,-117.09,4004,-6547,-3351,0,0,-1
-168.13,151.41,-117.09,4009,-6541,-3353,0,0,-1
-168.12,151.41,-117.08,4010,-6556,-3354,0,0,-1
-168.12,151.41,-117.06,4015,-6561,-3351,0,0,0
-168.11,151.41,-117.06,4004,-6547,-3349,0,0,0
-168.11,151.42,-117.05,3998,-6542,-3346,0,-1,0
-168.12,151.43,-117.06,4002,-6548,-3354,0,-1,-1
-168.12,151.43,-117.06,4010,-6571,-3356,0,-1,0
-168.11,151.43,-117.04,4007,-6572,-3348,0,0,0
-168.11,151.44,-117.03,3994,-6569,-3332,0,-1,0
-168.11,151.44,-117.03,3992,-6557,-3322,-1,-1,-1
-168.12,151.45,-117.04,4001,-6558,-3327,-1,-1,0
-168.12,151.45,-117.04,4001,-6559,-3342,-1,-1,0
-168.13,151.47,-117.05,3999,-6554,-3344,-1,-1,0
-168.15,151.47,-117.07,4002,-6555,-3361,-1,-1,0
-168.15,151.47,-117.07,4001,-6563,-3369,0,0,0
-168.14,151.47,-117.06,4001,-6555,-3357,0,0,-1
-168.13,151.47,-117.04,4007,-6541,-3338,0,-1,0
-168.14,151.48,-117.05,4001,-6534,-3330,-1,-1,0
-168.15,151.49,-117.06,4009,-6544,-3350,0,-1,0
-168.17,151.50,-117.07,4012,-6550,-3355,-1,-1,0
-168.18,151.51,-117.08,4004,-6560,-3366,0,0,0
-168.17,151.51,-117.06,3998,-6555,-3360,0,0,0
-168.17,151.51,-117.05,3991,-6547,-3359,0,0,-1
-168.16,151.51,-117.04,3997,-6549,-3341,0,-1,0
-168.17,151.53,-117.05,3987,-6553,-3348,-1,-1,0
-168.19,151.53,-117.05,3991,-6559,-3355,-1,-1,0
-168.20,151.55,-117.06,3989,-6565,-3353,-1,-1,0
-168.20,151.54,-117.07,3995,-6567,-3367,0,0,-1
-168.19,151.54,-117.07,3990,-6570,-3354,-1,0,-1
-168.19,151.54,-117.06,3980,-6558,-3350,0,0,-1
-168.19,151.53,-117.06,3983,-6561,-3340,0,0,-1
-168.18,151.54,-117.06,3985,-6545,-3337,0,-1,-1
-168.19,151.54,-117.07,3987,-6537,-3343,-1,-1,0
-168.22,151.56,-117.09,3994,-6544,-3349,-1,-1,0
-168.24,151.57,-117.11,4003,-6558,-3371,-1,-1,0
-168.25,151.58,-117.12,3993,-6568,-3392,0,0,0
-168.24,151.57,-117.10,3977,-6568,-3379,0,0,-1
-168.22,151.56,-117.08,3969,-6578,-3333,0,0,-1
-168.21,151.56,-117.06,3969,-6560,-3314,0,0,-1
-168.21,151.56,-117.07,3992,-6532,-3321,-1,-1,0
-168.23,151.57,-117.11,4000,-6525,-3357,-1,-1,0
-168.25,151.57,-117.13,4016,-6567,-3381,-1,-1,0
-168.26,151.59,-117.11,4009,-6576,-3406,0,0,0
-168.23,151.59,-117.06,3986,-6544,-3365,1,0,0
-168.22,151.58,-117.04,3976,-6545,-3325,-1,-1,-1
-168.22,151.58,-117.05,3999,-6561,-3346,-1,-1,0
-168.23,151.59,-117.04,3993,-6568,-3374,0,-1,0
-168.23,151.61,-117.02,3973,-6560,-3348,0,-1,0
-168.26,151.63,-117.02,3964,-6574,-3336,-1,-1,0
-168.26,151.64,-117.02,3969,-6593,-3340,-1,-1,-1
-168.25,151.62,-117.03,3969,-6609,-3344,0,0,-1
-168.23,151.61,-117.02,3961,-6599,-3331,-1,0,-1
-168.23,151.60,-117.04,3961,-6571,-3310,-1,-1,-1
-168.26,151.60,-117.08,3958,-6554,-3315,-2,-1,-1
-168.28,151.61,-117.13,3967,-6545,-3353,-1,-1,-1
-168.29,151.60,-117.15,3994,-6543,-3370,-1,-1,-1
-168.28,151.60,-117.16,4022,-6545,-3394,-1,-1,0
-168.28,151.60,-117.16,4026,-6544,-3406,0,0,0
-168.28,151.60,-117.15,4023,-6544,-3384,0,0,0
-168.28,151.61,-117.13,3998,-6548,-3359,0,-1,0
-168.29,151.62,-117.13,3973,-6570,-3350,-1,-1,0
-168.30,151.63,-117.13,3954,-6575,-3361,0,0,-1
-168.29,151.63,-117.11,3957,-6568,-3361,0,0,-1
-168.28,151.62,-117.12,3970,-6568,-3361,-1,0,-1
-168.28,151.61,-117.14,3991,-6558,-3361,-1,-1,-1
-168.28,151.61,-117.14,3995,-6558,-3370,-1,-1,0
-168.29,151.61,-117.14,3976,-6556,-3370,0,0,0
-168.29,151.62,-117.12,3962,-6553,-3360,0,0,0
-168.29,151.63,-117.11,3953,-6558,-3336,-1,-1,-1
-168.30,151.62,-117.13,3966,-6562,-3343,-1,-1,-1
-168.31,151.62,-117.15,3982,-6571,-3369,-1,-1,-1
-168.30,151.61,-117.16,3995,-6569,-3384,-1,-1,-1
-168.30,151.60,-117.18,3994,-6556,-3367,-1,-1,-1
-168.30,151.60,-117.19,4000,-6555,-3365,-1,-1,-1
-168.30,151.60,-117.19,3989,-6547,-3360,-1,-1,0
-168.30,151.61,-117.19,3976,-6538,-3363,0,-1,0
-168.31,151.61,-117.19,3981,-6548,-3375,-1,-1,0
-168.33,151.62,-117.21,3992,-6544,-3387,-1,-1,0
-168.33,151.63,-117.22,3986,-6566,-3393,-1,-1,0
-168.34,151.64,-117.22,3975,-6581,-3400,0,0,-1
-168.33,151.63,-117.20,3964,-6570,-3389,0,0,-1
-168.31,151.62,-117.19,3968,-6542,-3351,-1,0,-1
-168.32,151.62,-117.22,3984,-6534,-3359,-1,-1,-1
-168.33,151.62,-117.24,3999,-6553,-3395,-1,-1,0
-168.34,151.63,-117.23,3985,-6562,-3406,0,0,0
-168.32,151.62,-117.20,3968,-6555,-3373,0,0,-1
-168.31,151.62,-117.19,3962,-6549,-3342,0,0,-1
-168.31,151.61,-117.19,3980,-6551,-3342,-1,-1,0
-168.32,151.62,-117.21,3987,-6556,-3365,-1,-1,0
-168.34,151.63,-117.22,3967,-6566,-3385,0,-1,0
-168.33,151.63,-117.21,3961,-6578,-3374,0,0,-1
-168.32,151.61,-117.21,3962,-6580,-3357,-1,0,-1
-168.32,151.60,-117.22,3972,-6552,-3356,-1,-1,-1
-168.32,151.59,-117.26,3995,-6522,-3369,-1,-1,-1
-168.33,151.59,-117.29,4017,-6517,-3390,-1,-1,-1
-168.34,151.59,-117.31,4013,-6538,-3418,-1,-1,0
-168.35,151.59,-117.30,3991,-6561,-3432,0,0,0
-168.34,151.59,-117.27,3969,-6558,-3414,1,1,-1
-168.31,151.57,-117.23,3958,-6547,-3369,0,0,-1
-168.28,151.55,-117.21,3976,-6537,-3340,0,0,-1
-168.28,151.55,-117.20,3988,-6527,-3353,0,0,0
-168.29,151.56,-117.19,3991,-6522,-3358,-1,-1,0
-168.31,151.57,-117.21,3996,-6521,-3365,-1,-1,0
-168.34,151.59,-117.23,3987,-6563,-3391,-1,0,-1
-168.32,151.57,-117.24,4003,-6593,-3426,0,0,-1
-168.28,151.53,-117.22,4013,-6556,-3418,0,0,-1
-168.25,151.51,-117.21,4013,-6534,-3381,0,0,-1
-168.25,151.51,-117.20,3992,-6559,-3372,0,0,-1
-168.23,151.50,-117.16,3972,-6579,-3339,1,0,-1
-168.20,151.49,-117.12,3952,-6566,-3292,0,0,-1
-168.19,151.48,-117.13,3949,-6535,-3265,-2,-1,-1
-168.22,151.49,-117.20,3988,-6541,-3287,-3,-2,-1
-168.29,151.51,-117.30,4021,-6570,-3378,-3,-2,0
-168.32,151.52,-117.35,4013,-6562,-3458,0,0,-1
-168.28,151.50,-117.31,4005,-6529,-3428,1,0,-1
-168.25,151.48,-117.29,4006,-6491,-3359,-1,0,-1
-168.26,151.47,-117.32,4023,-6503,-3367,-2,-1,0
-168.30,151.49,-117.34,4018,-6549,-3431,0,0,0
-168.28,151.49,-117.28,3987,-6575,-3426,2,1,0
-168.24,151.49,-117.21,3955,-6536,-3346,1,0,0
-168.23,151.49,-117.19,3941,-6504,-3282,-1,-1,-1
-168.25,151.50,-117.23,3987,-6517,-3306,-2,-2,-1
-168.29,151.51,-117.29,4023,-6563,-3400,-1,-1,0
-168.29,151.51,-117.28,4015,-6577,-3441,0,0,0
-168.27,151.51,-117.24,3998,-6551,-3411,1,0,0
-168.24,151.50,-117.22,3974,-6522,-3351,0,0,-1
-168.25,151.50,-117.22,3989,-6541,-3345,-1,-1,-1
-168.26,151.51,-117.23,3999,-6575,-3380,-1,-1,0
-168.26,151.51,-117.23,4004,-6577,-3378,0,0,0
-168.26,151.50,-117.23,3993,-6547,-3347,-1,-1,-1
-168.26,151.50,-117.25,3996,-6538,-3350,-1,-1,-1
-168.28,151.50,-117.29,4012,-6527,-3381,-1,-1,0
-168.30,151.51,-117.30,4017,-6532,-3406,-1,-1,0
-168.30,151.52,-117.30,4003,-6537,-3409,0,0,0
-168.30,151.52,-117.30,4001,-6547,-3397,0,0,-1
-168.29,151.50,-117.29,4006,-6553,-3376,-1,0,-1
-168.29,151.50,-117.31,3995,-6548,-3375,-1,0,-1
-168.29,151.50,-117.31,3988,-6543,-3366,-1,-1,-1
-168.31,151.51,-117.33,3982,-6536,-3365,-1,-1,0
-168.32,151.51,-117.34,3988,-6535,-3396,-1,-1,0
-168.33,151.52,-117.34,3999,-6542,-3402,0,0,0
-168.32,151.52,-117.32,3999,-6546,-3401,0,0,0
-168.31,151.52,-117.30,3986,-6551,-3385,0,0,0
-168.30,151.52,-117.29,3980,-6540,-3375,0,0,0
-168.31,151.52,-117.29,3985,-6532,-3372,-1,-1,0
-168.32,151.52,-117.30,3992,-6540,-3381,-1,-1,0
-168.32,151.52,-117.30,4001,-6549,-3398,0,0,-1
-168.30,151.52,-117.28,4001,-6553,-3389,0,0,0
-168.29,151.51,-117.26,3982,-6548,-3365,0,0,0
-168.29,151.52,-117.25,3976,-6540,-3343,-1,-1,-1
