Yaw,Pitch,Roll,AX,AY,AZ,GX,GY,GZ
-168.45,150.53,-118.55,4118,-6408,-3482,0,0,0
-168.45,150.53,-118.55,4114,-6402,-3488,0,-1,0
-168.46,150.54,-118.55,4114,-6401,-3484,0,-1,0
-168.46,150.54,-118.56,4120,-6402,-3491,-1,-1,0
-168.46,150.54,-118.56,4113,-6400,-3493,0,-1,-1
-168.45,150.53,-118.56,4122,-6403,-3483,0,-1,-1
-168.46,150.54,-118.56,4116,-6399,-3486,-1,-1,0
-168.46,150.54,-118.57,4121,-6403,-3501,0,0,-1
-168.45,150.53,-118.56,4112,-6400,-3496,0,0,0
-168.45,150.54,-118.55,4116,-6396,-3472,-1,-1,-1
-168.45,150.53,-118.56,4115,-6396,-3480,-1,-1,0
-168.46,150.54,-118.56,4119,-6405,-3504,0,0,0
-168.46,150.54,-118.56,4124,-6405,-3510,0,0,0
-168.45,150.54,-118.55,4120,-6403,-3487,-1,0,0
-168.46,150.54,-118.56,4120,-6404,-3490,-1,0,0
-168.46,150.54,-118.56,4120,-6407,-3491,0,0,0
-168.45,150.53,-118.54,4119,-6405,-3480,0,0,-1
-168.45,150.53,-118.54,4117,-6403,-3479,-1,-1,0
-168.46,150.54,-118.56,4118,-6394,-3485,-1,-1,0
-168.46,150.54,-118.56,4118,-6401,-3487,-1,-1,0
-168.47,150.54,-118.57,4118,-6408,-3496,-1,-1,0
-168.47,150.54,-118.57,4120,-6406,-3502,0,0,0
-168.47,150.54,-118.57,4125,-6401,-3494,0,-1,0
-168.47,150.54,-118.57,4123,-6400,-3498,-1,-1,0
-168.47,150.54,-118.57,4122,-6401,-3488,-1,-1,0
-168.47,150.54,-118.58,4125,-6399,-3492,-1,-1,0
-168.47,150.54,-118.58,4115,-6402,-3491,0,0,-1
-168.47,150.55,-118.57,4113,-6406,-3487,-1,-1,0
-168.48,150.55,-118.57,4117,-6407,-3497,0,0,-1
-168.48,150.55,-118.57,4122,-6403,-3490,0,0,0
-168.46,150.54,-118.56,4115,-6409,-3483,0,-1,-1
-168.47,150.55,-118.57,4113,-6400,-3487,-1,-1,0
-168.49,150.55,-118.58,4121,-6406,-3494,-1,-1,0
-168.49,150.55,-118.58,4117,-6410,-3501,0,0,0
-168.47,150.55,-118.57,4122,-6407,-3490,0,0,-1
-168.47,150.54,-118.58,4117,-6405,-3479,-1,-1,-1
-168.48,150.55,-118.58,4118,-6398,-3480,-1,-1,0
-168.48,150.55,-118.58,4121,-6397,-3484,-1,-1,0
-168.49,150.55,-118.59,4122,-6397,-3490,-1,-1,0
-168.48,150.55,-118.58,4121,-6394,-3491,0,-1,0
-168.48,150.55,-118.59,4125,-6396,-3491,-1,-1,0
-168.49,150.55,-118.60,4121,-6401,-3508,-1,0,-1
-168.49,150.55,-118.59,4119,-6395,-3511,0,0,-1
-168.48,150.55,-118.58,4118,-6396,-3478,0,0,-1
-168.48,150.55,-118.58,4126,-6396,-3469,-1,-1,0
-168.49,150.55,-118.60,4132,-6402,-3491,-1,-1,0
-168.51,150.56,-118.62,4122,-6407,-3507,0,0,0
-168.49,150.55,-118.61,4125,-6402,-3514,0,0,-1
-168.49,150.55,-118.60,4118,-6400,-3492,0,0,0
-168.50,150.56,-118.60,4114,-6396,-3503,-1,0,-1
-168.50,150.56,-118.60,4121,-6404,-3493,0,0,0
-168.50,150.56,-118.60,4111,-6390,-3492,0,0,-1
-168.50,150.56,-118.61,4109,-6391,-3490,-1,-1,0
-168.51,150.56,-118.62,4108,-6403,-3492,-1,-1,-1
-168.51,150.56,-118.62,4115,-6400,-3492,0,0,0
-168.50,150.56,-118.61,4120,-6398,-3486,0,0,-1
-168.51,150.56,-118.62,4121,-6401,-3488,-1,-1,0
-168.51,150.56,-118.63,4119,-6399,-3495,-1,-1,0
-168.51,150.56,-118.62,4117,-6398,-3486,0,0,-1
-168.51,150.56,-118.62,4116,-6394,-3484,-1,-1,0
-168.51,150.57,-118.62,4124,-6397,-3489,-1,-1,0
-168.51,150.57,-118.62,4118,-6402,-3500,0,-1,0
-168.51,150.57,-118.62,4117,-6407,-3502,0,0,0
-168.51,150.57,-118.62,4117,-6406,-3504,0,0,0
-168.51,150.57,-118.62,4119,-6404,-3498,0,0,-1
-168.51,150.56,-118.62,4117,-6403,-3493,0,0,-1
-168.51,150.56,-118.62,4115,-6405,-3499,0,0,-1
-168.51,150.56,-118.62,4115,-6404,-3494,0,0,-1
-168.51,150.56,-118.62,4106,-6405,-3492,-1,-1,-1
-168.51,150.56,-118.62,4113,-6405,-3495,-1,0,-1
-168.51,150.56,-118.62,4116,-6409,-3486,0,-1,-1
-168.51,150.56,-118.62,4125,-6406,-3488,-1,0,-1
-168.50,150.55,-118.61,4124,-6404,-3495,0,0,-1
-168.50,150.56,-118.60,4113,-6406,-3487,0,0,-1
-168.49,150.55,-118.60,4120,-6400,-3489,0,0,-1
-168.50,150.56,-118.60,4113,-6395,-3497,-1,0,-1
-168.50,150.55,-118.61,4115,-6400,-3510,0,0,-1
-168.48,150.54,-118.60,4118,-6403,-3505,0,0,-1
-168.48,150.54,-118.59,4119,-6396,-3482,0,0,-1
-168.48,150.54,-118.59,4122,-6392,-3481,-1,-1,0
-168.48,150.54,-118.59,4122,-6401,-3502,0,0,-1
-168.48,150.54,-118.59,4119,-6411,-3498,0,0,-1
-168.47,150.54,-118.58,4120,-6405,-3494,0,0,-1
-168.47,150.54,-118.58,4122,-6405,-3485,-1,0,-1
-168.47,150.54,-118.58,4119,-6404,-3485,0,-1,0
-168.47,150.54,-118.58,4121,-6400,-3492,0,0,0
-168.47,150.54,-118.58,4121,-6402,-3493,-1,-1,0
-168.48,150.54,-118.59,4118,-6409,-3496,-1,0,-1
-168.47,150.53,-118.58,4118,-6407,-3500,0,0,-1
-168.46,150.53,-118.57,4119,-6397,-3485,0,0,-1
-168.45,150.52,-118.57,4122,-6386,-3475,-1,-1,0
-168.48,150.54,-118.59,4130,-6400,-3493,-1,-1,0
-168.48,150.53,-118.60,4131,-6407,-3509,0,-1,0
-168.48,150.54,-118.59,4122,-6406,-3498,0,0,-1
-168.47,150.53,-118.58,4112,-6393,-3483,0,0,-1
-168.47,150.53,-118.58,4117,-6394,-3476,-1,-1,-1
-168.47,150.53,-118.59,4123,-6401,-3484,-1,0,0
-168.47,150.53,-118.59,4121,-6400,-3495,0,-1,0
-168.47,150.53,-118.58,4120,-6400,-3494,0,0,0
-168.47,150.53,-118.59,4117,-6403,-3499,0,0,-1
-168.47,150.53,-118.58,4115,-6408,-3494,0,-1,-1
-168.47,150.53,-118.59,4117,-6402,-3500,0,-1,-1
-168.47,150.53,-118.59,4116,-6408,-3496,-1,-1,-1
-168.47,150.53,-118.59,4123,-6405,-3500,-1,-1,-1
-168.46,150.53,-118.59,4125,-6404,-3499,0,-1,-1
-168.46,150.53,-118.59,4132,-6403,-3499,0,0,-1
-168.46,150.53,-118.59,4132,-6398,-3490,0,-1,0
-168.46,150.53,-118.59,4127,-6391,-3490,0,-1,0
-168.46,150.53,-118.59,4125,-6399,-3491,-1,-1,0
-168.46,150.53,-118.59,4121,-6400,-3486,0,0,-1
-168.46,150.52,-118.58,4120,-6404,-3485,0,0,-1
-168.46,150.52,-118.58,4118,-6399,-3481,-1,0,-1
-168.46,150.52,-118.58,4122,-6409,-3503,0,0,-1
-168.46,150.52,-118.58,4119,-6403,-3499,0,0,-1
-168.44,150.51,-118.56,4122,-6400,-3472,0,-1,-1
-168.45,150.52,-118.57,4113,-6402,-3477,-1,-1,-1
-168.46,150.52,-118.58,4120,-6405,-3491,-1,0,-1
-168.45,150.52,-118.57,4117,-6403,-3502,0,0,-1
-168.45,150.52,-118.57,4114,-6398,-3490,0,0,-1
-168.45,150.52,-118.57,4117,-6396,-3489,-1,-1,-1
-168.45,150.51,-118.58,4118,-6394,-3498,-1,-1,0
-168.46,150.52,-118.58,4115,-6394,-3494,0,0,-1
-168.46,150.52,-118.58,4118,-6399,-3489,-1,-1,0
-168.45,150.52,-118.57,4121,-6395,-3493,0,0,-1
-168.46,150.52,-118.58,4114,-6404,-3491,0,0,0
-168.45,150.52,-118.56,4114,-6407,-3478,-1,-1,0
-168.45,150.52,-118.57,4117,-6404,-3486,-1,-1,0
-168.46,150.52,-118.58,4122,-6405,-3492,-1,0,-1
-168.45,150.52,-118.57,4126,-6405,-3494,0,0,-1
-168.45,150.52,-118.57,4121,-6397,-3480,0,-1,-1
-168.45,150.52,-118.57,4118,-6402,-3482,-1,0,-1
-168.45,150.52,-118.57,4121,-6401,-3505,0,0,0
-168.45,150.52,-118.57,4118,-6395,-3499,0,-1,-1
-168.46,150.52,-118.58,4120,-6403,-3492,-1,-1,0
-168.46,150.52,-118.58,4115,-6411,-3504,0,0,-1
-168.45,150.52,-118.57,4124,-6411,-3496,0,0,-1
-168.44,150.51,-118.55,4118,-6396,-3471,0,0,-1
-168.44,150.51,-118.56,4118,-6397,-3474,-1,-1,0
-168.46,150.52,-118.58,4119,-6408,-3498,-1,-1,0
-168.46,150.52,-118.58,4116,-6419,-3507,0,0,0
-168.45,150.52,-118.57,4114,-6410,-3503,0,0,-1
-168.45,150.52,-118.56,4112,-6408,-3482,0,0,-1
-168.45,150.52,-118.56,4117,-6405,-3477,0,-1,0
-168.45,150.52,-118.56,4116,-6409,-3488,-1,0,0
-168.45,150.52,-118.56,4132,-6414,-3487,0,0,-1
-168.44,150.51,-118.55,4127,-6410,-3484,0,0,-1
-168.43,150.51,-118.55,4127,-6397,-3482,-1,-1,-1
-168.43,150.51,-118.55,4119,-6402,-3488,-1,-1,-1
-168.44,150.51,-118.55,4129,-6408,-3501,0,0,-1
-168.43,150.51,-118.55,4127,-6410,-3500,0,0,-1
-168.43,150.51,-118.55,4122,-6408,-3477,-1,0,-1
-168.43,150.50,-118.54,4120,-6401,-3485,0,0,-1
-168.43,150.50,-118.54,4116,-6394,-3489,0,0,0
-168.43,150.51,-118.55,4114,-6396,-3485,0,-1,-1
-168.43,150.51,-118.55,4119,-6401,-3484,-1,-1,0
-168.44,150.51,-118.56,4120,-6404,-3497,0,-1,0
-168.44,150.51,-118.55,4118,-6404,-3482,0,0,0
-168.43,150.51,-118.54,4118,-6399,-3477,-1,0,-1
-168.43,150.51,-118.55,4118,-6406,-3480,-1,0,-1
-168.43,150.51,-118.55,4120,-6411,-3489,0,0,-1
-168.43,150.51,-118.55,4123,-6405,-3488,0,0,-1
-168.43,150.51,-118.55,4126,-6408,-3488,-1,-1,0
-168.43,150.51,-118.55,4126,-6408,-3486,-1,-1,-1
-168.45,150.52,-118.55,4123,-6411,-3497,-1,-1,0
-168.45,150.52,-118.56,4119,-6410,-3498,0,0,-1
-168.45,150.52,-118.55,4122,-6410,-3492,0,0,-1
-168.44,150.51,-118.55,4124,-6408,-3494,0,-1,-1
-168.45,150.52,-118.55,4116,-6406,-3488,-1,-1,-1
-168.45,150.52,-118.55,4124,-6408,-3488,0,-1,0
-168.45,150.52,-118.55,4119,-6406,-3486,-1,-1,0
-168.45,150.52,-118.55,4119,-6411,-3498,0,0,-1
-168.44,150.52,-118.54,4117,-6404,-3490,0,0,-1
-168.43,150.51,-118.54,4125,-6395,-3478,0,-1,-1
-168.43,150.51,-118.55,4122,-6405,-3484,-1,-1,0
-168.45,150.52,-118.55,4130,-6406,-3500,-1,-1,0
-168.45,150.52,-118.55,4124,-6408,-3512,0,0,-1
-168.43,150.51,-118.55,4121,-6403,-3493,0,0,-1
-168.43,150.51,-118.55,4122,-6404,-3480,-1,-1,-1
-168.44,150.51,-118.55,4122,-6404,-3490,0,-1,0
-168.44,150.51,-118.55,4125,-6404,-3493,0,-1,-1
-168.44,150.51,-118.55,4118,-6399,-3491,-1,-1,0
-168.44,150.51,-118.55,4124,-6395,-3496,0,-1,-1
-168.44,150.51,-118.56,4125,-6397,-3491,-1,-1,0
-168.45,150.52,-118.56,4124,-6410,-3496,-1,0,-1
-168.44,150.51,-118.55,4122,-6415,-3501,0,0,-1
-168.43,150.51,-118.54,4123,-6401,-3491,0,0,-1
-168.43,150.51,-118.55,4124,-6388,-3471,-1,-1,0
-168.44,150.51,-118.56,4122,-6400,-3486,-1,-1,0
-168.45,150.52,-118.56,4118,-6413,-3506,0,0,-1
-168.45,150.52,-118.56,4116,-6410,-3498,0,0,-1
-168.44,150.52,-118.55,4110,-6403,-3482,0,0,-1
-168.44,150.52,-118.55,4116,-6403,-3487,-1,-1,-1
-168.44,150.51,-118.56,4127,-6403,-3495,0,0,-1
-168.44,150.51,-118.56,4123,-6399,-3496,0,0,0
-168.44,150.51,-118.56,4123,-6395,-3493,0,0,-1
-168.44,150.51,-118.56,4115,-6401,-3489,-1,-1,0
-168.45,150.52,-118.56,4116,-6407,-3501,0,0,-1
-168.45,150.52,-118.56,4127,-6409,-3490,0,0,-1
-168.44,150.51,-118.55,4125,-6405,-3480,0,0,-1
-168.44,150.51,-118.56,4131,-6400,-3490,-1,-1,0
-168.45,150.51,-118.57,4132,-6402,-3496,0,0,-1
-168.44,150.51,-118.56,4125,-6403,-3496,0,0,-1
-168.44,150.51,-118.55,4126,-6406,-3488,0,0,-1
-168.43,150.50,-118.55,4127,-6408,-3494,0,0,-1
-168.43,150.50,-118.55,4128,-6401,-3489,0,0,0
-168.43,150.50,-118.54,4121,-6401,-3491,0,0,-1
-168.43,150.50,-118.54,4125,-6403,-3497,0,0,-1
-168.42,150.49,-118.53,4122,-6402,-3504,0,0,-1
-168.39,150.47,-118.51,4127,-6399,-3504,0,0,-1
-168.38,150.46,-118.50,4127,-6410,-3501,0,0,-1
-168.36,150.45,-118.48,4132,-6411,-3487,0,0,-1
-168.35,150.45,-118.46,4122,-6399,-3468,0,0,-1
-168.35,150.45,-118.46,4124,-6398,-3461,-1,-1,-1
-168.35,150.45,-118.47,4132,-6401,-3475,-1,-1,-1
-168.35,150.45,-118.47,4137,-6404,-3481,0,0,-1
-168.35,150.45,-118.47,4134,-6395,-3486,0,0,0
-168.35,150.45,-118.47,4127,-6399,-3480,0,0,-1
-168.35,150.45,-118.47,4124,-6398,-3477,0,0,-1
-168.35,150.45,-118.46,4127,-6401,-3471,-1,-1,0
-168.35,150.45,-118.47,4132,-6407,-3478,-1,0,-1
-168.34,150.44,-118.46,4137,-6410,-3481,0,0,-1
-168.34,150.44,-118.46,4129,-6408,-3472,0,0,-1
-168.34,150.44,-118.46,4127,-6401,-3457,-1,-1,0
-168.35,150.45,-118.47,4123,-6402,-3487,-1,-1,0
-168.36,150.45,-118.48,4127,-6407,-3494,0,0,-1
-168.36,150.45,-118.47,4121,-6409,-3474,0,0,-1
-168.36,150.45,-118.47,4126,-6401,-3468,-1,-1,0
-168.37,150.45,-118.48,4131,-6408,-3475,-1,-1,-1
-168.37,150.45,-118.48,4139,-6410,-3482,0,-1,0
-168.36,150.45,-118.48,4136,-6410,-3470,-1,-1,0
-168.37,150.45,-118.48,4127,-6408,-3472,-1,-1,0
-168.37,150.46,-118.48,4131,-6405,-3482,0,-1,0
-168.37,150.46,-118.48,4125,-6409,-3482,-1,-1,0
-168.38,150.46,-118.49,4126,-6410,-3494,-1,-1,-1
-168.38,150.46,-118.49,4126,-6411,-3501,0,0,-1
-168.37,150.46,-118.47,4124,-6404,-3473,0,0,-1
-168.37,150.46,-118.47,4118,-6397,-3457,-1,-1,0
-168.38,150.47,-118.49,4121,-6402,-3460,-1,-1,0
-168.40,150.48,-118.51,4126,-6417,-3496,-1,-1,0
-168.40,150.48,-118.51,4119,-6418,-3507,0,0,-1
-168.40,150.48,-118.51,4110,-6410,-3492,-1,-1,0
-168.40,150.48,-118.51,4116,-6403,-3488,-1,0,-1
-168.40,150.48,-118.51,4125,-6410,-3490,-1,0,0
-168.40,150.48,-118.51,4128,-6404,-3477,0,-1,-1
-168.41,150.49,-118.51,4130,-6404,-3478,-1,-1,0
-168.42,150.49,-118.53,4124,-6408,-3491,-1,-1,-1
-168.42,150.49,-118.53,4126,-6411,-3487,0,0,0
-168.42,150.49,-118.52,4121,-6404,-3482,-1,-1,-1
-168.43,150.50,-118.53,4125,-6406,-3481,-1,-1,-1
-168.43,150.49,-118.54,4123,-6403,-3494,-1,-1,-1
-168.43,150.49,-118.54,4124,-6398,-3494,0,0,0
-168.43,150.49,-118.54,4121,-6397,-3492,0,-1,0
-168.43,150.50,-118.54,4120,-6392,-3485,-1,-1,0
-168.43,150.50,-118.55,4115,-6395,-3491,-1,-1,0
-168.44,150.51,-118.55,4117,-6399,-3492,-1,-1,0
-168.44,150.51,-118.55,4112,-6406,-3502,0,0,-1
-168.44,150.51,-118.55,4116,-6404,-3489,0,0,-1
-168.44,150.51,-118.55,4117,-6413,-3487,-1,0,0
-168.44,150.51,-118.55,4110,-6412,-3494,0,-1,-1
-168.45,150.51,-118.55,4112,-6413,-3497,-1,-1,0
-168.45,150.51,-118.55,4112,-6413,-3491,-1,0,-1
-168.44,150.51,-118.55,4118,-6405,-3486,-1,-1,-1
-168.45,150.51,-118.56,4116,-6402,-3498,-1,-1,-1
-168.46,150.52,-118.57,4123,-6402,-3501,0,-1,-1
-168.46,150.52,-118.57,4115,-6401,-3497,-1,-1,-1
-168.46,150.52,-118.57,4118,-6396,-3490,-1,-1,0
-168.47,150.52,-118.58,4120,-6402,-3498,-1,-1,-1
-168.47,150.52,-118.58,4122,-6409,-3512,0,0,-1
-168.47,150.52,-118.58,4116,-6411,-3505,0,0,-1
-168.46,150.52,-118.57,4117,-6405,-3484,0,-1,0
-168.47,150.52,-118.57,4120,-6401,-3484,-1,-1,0
-168.47,150.53,-118.58,4121,-6399,-3499,-1,-1,0
-168.47,150.53,-118.59,4117,-6408,-3501,0,-1,-1
-168.47,150.53,-118.59,4117,-6404,-3506,0,0,-1
-168.47,150.53,-118.59,4118,-6402,-3496,-1,0,-1
-168.48,150.53,-118.59,4120,-6401,-3498,-1,-1,-1
-168.48,150.53,-118.59,4127,-6402,-3493,-1,-1,-1
-168.48,150.53,-118.59,4123,-6403,-3494,0,0,-1
-168.48,150.53,-118.59,4118,-6403,-3500,0,0,-1
-168.48,150.53,-118.59,4121,-6401,-3495,-1,0,0
-168.48,150.52,-118.60,4125,-6411,-3503,0,0,-1
-168.47,150.52,-118.59,4121,-6414,-3496,0,0,-1
-168.47,150.52,-118.58,4118,-6400,-3478,0,0,-1
-168.46,150.52,-118.58,4115,-6391,-3468,-1,-1,-1
-168.47,150.52,-118.59,4123,-6389,-3488,-1,-1,0
-168.48,150.52,-118.60,4126,-6403,-3502,-1,-1,-1
-168.48,150.52,-118.60,4125,-6402,-3520,0,0,-1
-168.47,150.52,-118.58,4116,-6409,-3497,0,0,-1
-168.46,150.51,-118.57,4113,-6405,-3475,0,0,-1
-168.46,150.52,-118.57,4111,-6402,-3472,-1,-1,0
-168.46,150.52,-118.58,4113,-6403,-3485,-1,0,-1
-168.46,150.52,-118.57,4123,-6401,-3494,0,0,-1
-168.45,150.51,-118.56,4121,-6401,-3483,0,0,-1
-168.45,150.51,-118.56,4119,-6398,-3470,-1,-1,-1
-168.45,150.50,-118.57,4122,-6393,-3486,-1,-1,-1
-168.45,150.51,-118.57,4125,-6401,-3489,-1,-1,-1
-168.45,150.50,-118.57,4125,-6406,-3492,0,0,-1
-168.44,150.50,-118.56,4125,-6405,-3484,0,0,0
-168.44,150.50,-118.56,4121,-6399,-3482,0,-1,-1
-168.45,150.51,-118.57,4126,-6398,-3488,-1,-1,0
-168.45,150.51,-118.57,4128,-6400,-3494,0,-1,-1
-168.45,150.51,-118.57,4123,-6398,-3500,0,0,0
-168.45,150.51,-118.56,4116,-6397,-3496,0,0,-1
-168.45,150.51,-118.56,4120,-6399,-3493,0,0,0
-168.44,150.50,-118.56,4117,-6399,-3490,-1,0,-1
-168.45,150.51,-118.56,4116,-6406,-3490,0,0,-1
-168.45,150.51,-118.56,4117,-6403,-3493,-1,0,-1
-168.45,150.51,-118.56,4114,-6402,-3486,-1,-1,-1
-168.45,150.51,-118.57,4120,-6394,-3481,-1,-1,-1
-168.45,150.51,-118.57,4118,-6392,-3484,-1,-1,-1
-168.45,150.51,-118.57,4124,-6394,-3493,0,0,-1
-168.45,150.51,-118.57,4119,-6397,-3502,0,0,-1
-168.45,150.51,-118.57,4122,-6403,-3501,0,-1,-1
-168.45,150.51,-118.57,4119,-6400,-3493,-1,-1,0
-168.45,150.51,-118.57,4122,-6405,-3500,0,0,-1
-168.45,150.51,-118.57,4118,-6401,-3494,0,0,0
-168.45,150.51,-118.57,4116,-6404,-3498,0,0,-1
-168.45,150.51,-118.57,4109,-6393,-3494,0,0,-1
-168.45,150.51,-118.57,4113,-6396,-3485,-1,-1,0
-168.46,150.52,-118.57,4121,-6405,-3494,0,0,-1
-168.45,150.51,-118.56,4112,-6412,-3492,0,0,0
-168.45,150.51,-118.56,4110,-6405,-3487,0,-1,-1
-168.46,150.52,-118.57,4109,-6403,-3497,-1,-1,0
-168.47,150.51,-118.58,4123,-6400,-3508,-1,0,-1
-168.47,150.51,-118.58,4124,-6403,-3513,0,0,-1
-168.46,150.51,-118.57,4128,-6410,-3495,0,0,-1
-168.46,150.51,-118.57,4121,-6400,-3487,0,0,-1
-168.45,150.51,-118.57,4122,-6394,-3478,-1,-1,0
-168.45,150.51,-118.57,4128,-6395,-3476,-1,-1,0
-168.47,150.52,-118.58,4121,-6405,-3495,-1,-1,0
-168.47,150.52,-118.58,4123,-6402,-3501,0,0,0
-168.46,150.52,-118.58,4116,-6401,-3494,0,0,-1
-168.46,150.51,-118.57,4122,-6397,-3486,-1,-1,-1
-168.46,150.52,-118.58,4125,-6405,-3482,-1,-1,0
-168.46,150.51,-118.58,4127,-6402,-3489,0,0,-1
-168.45,150.51,-118.57,4125,-6402,-3484,0,0,-1
-168.45,150.51,-118.56,4122,-6397,-3464,-1,-1,0
-168.46,150.51,-118.57,4122,-6398,-3469,-1,-1,-1
-168.45,150.51,-118.56,4125,-6410,-3485,0,-1,-1
-168.45,150.51,-118.57,4121,-6409,-3491,-1,-1,-1
-168.45,150.51,-118.57,4124,-6408,-3491,-1,-1,-1
-168.45,150.51,-118.57,4127,-6401,-3491,0,0,-1
-168.45,150.51,-118.57,4131,-6400,-3494,0,0,0
-168.45,150.50,-118.57,4127,-6398,-3484,0,0,0
-168.44,150.50,-118.56,4126,-6403,-3480,-1,0,-1
-168.44,150.50,-118.56,4121,-6407,-3475,-1,0,-1
-168.44,150.50,-118.56,4123,-6403,-3489,0,0,0
-168.44,150.50,-118.56,4123,-6404,-3486,-1,-1,0
-168.45,150.51,-118.56,4120,-6402,-3496,-1,0,-1
-168.45,150.51,-118.56,4120,-6405,-3501,0,0,-1
-168.43,150.50,-118.55,4120,-6403,-3491,0,0,-1
-168.43,150.50,-118.54,4127,-6400,-3479,-1,-1,0
-168.44,150.50,-118.55,4128,-6403,-3485,-1,-1,-1
-168.44,150.50,-118.55,4129,-6408,-3496,0,0,0
-168.44,150.50,-118.55,4124,-6400,-3490,0,0,-1
-168.44,150.50,-118.55,4114,-6401,-3497,0,0,-1
-168.44,150.50,-118.55,4118,-6401,-3491,-1,0,0
-168.44,150.50,-118.55,4113,-6398,-3493,0,0,-1
-168.44,150.50,-118.55,4121,-6402,-3490,-1,-1,-1
-168.44,150.50,-118.55,4125,-6396,-3505,-1,-1,-1
-168.44,150.50,-118.55,4122,-6395,-3494,0,0,0
-168.44,150.50,-118.55,4119,-6402,-3483,0,0,-1
-168.44,150.50,-118.56,4113,-6406,-3486,-1,-1,0
-168.44,150.50,-118.56,4121,-6407,-3496,0,0,-1
-168.44,150.50,-118.55,4124,-6404,-3490,0,0,-1
-168.44,150.50,-118.55,4128,-6408,-3486,-1,0,0
-168.44,150.50,-118.55,4121,-6397,-3481,0,-1,0
-168.44,150.50,-118.55,4117,-6407,-3488,0,0,-1
-168.45,150.51,-118.56,4121,-6410,-3487,-1,-1,-1
-168.45,150.51,-118.56,4122,-6411,-3496,-1,0,-1
-168.44,150.50,-118.55,4123,-6412,-3492,0,0,-1
-168.44,150.50,-118.55,4119,-6402,-3481,0,-1,0
-168.45,150.51,-118.56,4118,-6401,-3479,-1,-1,0
-168.45,150.50,-118.56,4122,-6404,-3493,-1,0,0
-168.44,150.50,-118.55,4123,-6403,-3494,0,0,-1
-168.43,150.50,-118.53,4120,-6389,-3465,0,0,-1
-168.43,150.50,-118.54,4132,-6391,-3456,-1,-1,0
-168.45,150.50,-118.57,4128,-6404,-3498,-1,-1,0
-168.45,150.51,-118.56,4127,-6410,-3513,0,0,0
-168.45,150.51,-118.55,4116,-6406,-3491,0,0,-1
-168.43,150.50,-118.55,4114,-6391,-3488,-1,-1,-1
-168.45,150.51,-118.56,4121,-6397,-3493,-1,-1,-1
-168.45,150.50,-118.56,4124,-6404,-3510,0,0,0
-168.45,150.51,-118.56,4122,-6403,-3501,0,0,-1
-168.44,150.50,-118.55,4128,-6401,-3484,-1,-1,-1
-168.45,150.50,-118.56,4115,-6403,-3494,-1,-1,0
-168.45,150.51,-118.56,4115,-6398,-3486,0,0,-1
-168.44,150.50,-118.55,4124,-6400,-3488,-1,-1,0
-168.45,150.50,-118.57,4126,-6400,-3491,-1,-1,-1
-168.45,150.50,-118.57,4126,-6399,-3503,-1,-1,-1
-168.45,150.50,-118.57,4116,-6398,-3492,0,0,-1
-168.45,150.50,-118.57,4121,-6400,-3493,0,0,-1
-168.45,150.50,-118.57,4118,-6403,-3494,0,-1,-1
-168.45,150.50,-118.57,4126,-6407,-3495,0,-1,-1
-168.45,150.50,-118.57,4126,-6403,-3495,-1,-1,0
-168.46,150.51,-118.57,4121,-6402,-3497,-1,0,0
-168.46,150.51,-118.57,4119,-6408,-3503,0,0,-1
-168.46,150.51,-118.57,4119,-6405,-3498,0,0,0
-168.45,150.50,-118.57,4124,-6408,-3491,0,0,-1
-168.45,150.50,-118.57,4122,-6409,-3494,0,0,-1
-168.45,150.50,-118.57,4119,-6402,-3482,-1,-1,0
-168.46,150.51,-118.57,4115,-6403,-3478,-1,-1,-1
-168.46,150.51,-118.57,4115,-6401,-3488,-1,-1,0
-168.47,150.51,-118.57,4118,-6398,-3493,0,0,-1
-168.46,150.51,-118.57,4126,-6403,-3484,0,-1,0
-168.46,150.51,-118.57,4119,-6404,-3481,-1,-1,-1
-168.47,150.51,-118.57,4123,-6408,-3498,0,0,-1
-168.46,150.51,-118.57,4115,-6410,-3497,0,0,-1
-168.46,150.51,-118.55,4118,-6403,-3486,-1,-1,0
-168.46,150.51,-118.57,4113,-6401,-3496,-1,-1,0
-168.47,150.52,-118.57,4117,-6411,-3505,0,0,0
-168.46,150.51,-118.57,4122,-6407,-3500,0,0,-1
-168.46,150.51,-118.57,4129,-6400,-3487,-1,-1,-1
-168.46,150.51,-118.57,4127,-6402,-3492,-1,0,-1
-168.46,150.51,-118.57,4123,-6404,-3488,0,-1,-1
-168.46,150.51,-118.57,4123,-6404,-3488,-1,-1,-1
-168.47,150.52,-118.57,4115,-6407,-3496,-1,-1,-1
-168.47,150.52,-118.57,4113,-6407,-3500,0,0,-1
-168.47,150.52,-118.57,4112,-6405,-3497,-1,-1,0
-168.48,150.52,-118.58,4118,-6408,-3504,-1,-1,0
-168.48,150.52,-118.58,4112,-6401,-3509,0,-1,0
-168.48,150.52,-118.58,4119,-6397,-3508,0,0,-1
-168.49,150.52,-118.59,4123,-6399,-3500,-1,-1,0
-168.49,150.53,-118.59,4122,-6404,-3501,-1,0,0
-168.48,150.52,-118.58,4129,-6405,-3503,0,0,-1
-168.48,150.52,-118.57,4124,-6404,-3492,0,0,-1
-168.48,150.52,-118.58,4122,-6400,-3477,-1,-1,-1
-168.49,150.53,-118.59,4126,-6405,-3492,-1,-1,0
-168.49,150.53,-118.59,4121,-6411,-3511,0,0,0
-168.49,150.53,-118.58,4119,-6408,-3503,0,0,-1
-168.49,150.53,-118.58,4120,-6396,-3495,-1,-1,0
-168.49,150.53,-118.59,4120,-6405,-3498,-1,0,0
-168.50,150.53,-118.59,4118,-6412,-3502,0,0,0
-168.48,150.52,-118.58,4114,-6412,-3486,0,0,-1
-168.48,150.52,-118.58,4114,-6404,-3480,-1,-1,0
-168.49,150.53,-118.58,4112,-6404,-3489,-1,0,-1
-168.49,150.53,-118.58,4118,-6407,-3495,0,0,-1
-168.48,150.53,-118.57,4122,-6405,-3483,-1,0,-1
-168.49,150.53,-118.58,4126,-6405,-3477,-1,-1,-1
-168.50,150.53,-118.59,4121,-6407,-3495,-1,-1,-1
-168.49,150.53,-118.58,4115,-6402,-3498,0,0,-1
-168.49,150.53,-118.58,4115,-6402,-3492,0,0,-1
-168.49,150.53,-118.58,4113,-6401,-3495,0,0,-1
-168.49,150.53,-118.58,4114,-6397,-3493,0,-1,0
-168.49,150.53,-118.58,4117,-6404,-3501,-1,-1,0
-168.50,150.54,-118.59,4113,-6408,-3499,-1,-1,0
-168.49,150.53,-118.58,4121,-6407,-3494,0,0,-1
-168.49,150.53,-118.58,4120,-6410,-3499,0,0,-1
-168.49,150.53,-118.58,4121,-6409,-3486,0,0,0
-168.49,150.53,-118.58,4122,-6410,-3495,-1,-1,0
-168.49,150.53,-118.58,4111,-6405,-3495,-1,-1,0
-168.50,150.54,-118.59,4113,-6402,-3495,-1,-1,-1
-168.50,150.54,-118.59,4118,-6398,-3494,0,-1,0
-168.51,150.54,-118.60,4112,-6402,-3500,-1,-1,-1
-168.51,150.54,-118.60,4119,-6402,-3500,0,0,0
-168.50,150.54,-118.59,4112,-6404,-3493,0,0,-1
-168.50,150.54,-118.59,4122,-6396,-3482,-1,-1,-1
-168.51,150.54,-118.60,4114,-6396,-3498,-1,-1,-1
-168.51,150.54,-118.60,4121,-6402,-3508,0,0,0
-168.50,150.54,-118.59,4116,-6408,-3491,0,0,-1
-168.50,150.54,-118.59,4120,-6403,-3484,-1,-1,-1
-168.50,150.53,-118.60,4123,-6401,-3488,-1,-1,-1
-168.51,150.54,-118.60,4120,-6399,-3496,0,-1,0
-168.51,150.54,-118.60,4118,-6398,-3491,0,-1,-1
-168.51,150.54,-118.60,4118,-6399,-3493,-1,-1,-1
-168.51,150.54,-118.61,4120,-6400,-3498,0,0,-1
-168.51,150.54,-118.61,4114,-6400,-3497,-1,-1,0
-168.52,150.54,-118.61,4116,-6398,-3504,-1,-1,-1
-168.52,150.54,-118.61,4116,-6402,-3506,0,0,-1
-168.52,150.54,-118.61,4114,-6393,-3494,0,0,0
-168.52,150.54,-118.61,4117,-6392,-3488,-1,-1,0
-168.52,150.55,-118.62,4116,-6397,-3492,-1,0,0
-168.52,150.54,-118.61,4117,-6403,-3494,0,0,-1
-168.50,150.53,-118.60,4123,-6396,-3472,0,0,-1
-168.50,150.53,-118.60,4125,-6397,-3453,-1,-1,0
-168.52,150.54,-118.61,4128,-6403,-3487,-1,-1,-1
-168.52,150.55,-118.62,4122,-6411,-3505,0,0,0
-168.51,150.54,-118.61,4119,-6407,-3501,0,0,-1
-168.51,150.54,-118.61,4113,-6402,-3493,-1,-1,-1
-168.52,150.54,-118.62,4114,-6399,-3502,-1,0,-1
-168.52,150.55,-118.62,4113,-6408,-3505,0,0,0
-168.52,150.54,-118.61,4119,-6406,-3491,0,0,-1
-168.52,150.55,-118.62,4125,-6408,-3491,-1,-1,0
-168.53,150.54,-118.63,4116,-6416,-3503,-1,-1,0
-168.52,150.55,-118.62,4111,-6409,-3504,0,0,-1
-168.52,150.55,-118.62,4115,-6406,-3502,-1,-1,-1
-168.53,150.54,-118.63,4119,-6409,-3504,-1,0,-1
-168.53,150.54,-118.63,4115,-6413,-3501,0,0,-1
-168.52,150.55,-118.62,4117,-6403,-3496,0,0,-1
-168.53,150.55,-118.63,4113,-6401,-3502,-1,-1,0
-168.53,150.55,-118.63,4120,-6400,-3504,-1,-1,0
-168.54,150.56,-118.64,4118,-6402,-3509,0,-1,0
-168.54,150.56,-118.64,4114,-6406,-3502,0,0,0
-168.54,150.56,-118.63,4109,-6406,-3499,0,0,-1
-168.53,150.56,-118.63,4112,-6400,-3502,0,0,0
-168.53,150.56,-118.63,4118,-6405,-3503,-1,0,0
-168.53,150.56,-118.63,4118,-6405,-3503,-1,0,0
-168.54,150.56,-118.62,4108,-6415,-3494,-1,-1,-1
-168.53,150.56,-118.63,4116,-6411,-3500,-1,-1,-1
-168.54,150.56,-118.63,4119,-6404,-3496,-1,0,-1
-168.54,150.56,-118.64,4116,-6402,-3500,-1,-1,-1
-168.54,150.56,-118.64,4118,-6403,-3498,0,0,-1
-168.54,150.56,-118.64,4112,-6404,-3492,-1,-1,0
-168.54,150.55,-118.65,4121,-6405,-3500,-1,-1,0
-168.55,150.56,-118.65,4110,-6401,-3505,0,0,-1
-168.54,150.56,-118.64,4118,-6408,-3500,0,0,-1
-168.54,150.56,-118.64,4117,-6404,-3507,0,0,-1
-168.54,150.56,-118.64,4119,-6404,-3506,0,0,0
-168.54,150.56,-118.64,4117,-6403,-3504,0,0,0
-168.54,150.56,-118.64,4123,-6406,-3512,0,-1,-1
-168.54,150.55,-118.64,4124,-6408,-3517,0,0,-1
-168.54,150.55,-118.64,4120,-6400,-3518,0,0,-1
-168.53,150.55,-118.63,4111,-6401,-3501,0,0,-1
-168.53,150.55,-118.63,4111,-6396,-3492,-1,-1,-1
-168.54,150.55,-118.64,4113,-6403,-3499,-1,0,-1
-168.53,150.55,-118.63,4120,-6413,-3500,0,0,-1
-168.52,150.55,-118.62,4123,-6409,-3504,0,0,-1
-168.51,150.54,-118.61,4115,-6401,-3486,0,-1,0
-168.52,150.54,-118.61,4114,-6396,-3489,-1,-1,-1
-168.53,150.55,-118.63,4119,-6395,-3509,-1,-1,0
-168.54,150.55,-118.64,4112,-6403,-3518,0,0,-1
-168.53,150.55,-118.63,4112,-6401,-3513,0,0,-1
-168.52,150.55,-118.62,4106,-6402,-3494,0,0,-1
-168.53,150.54,-118.63,4112,-6400,-3492,-1,-1,0
-168.53,150.54,-118.63,4119,-6408,-3499,-1,-1,-1
-168.53,150.55,-118.63,4120,-6412,-3498,0,-1,0
-168.53,150.54,-118.63,4122,-6408,-3494,0,0,-1
-168.53,150.54,-118.63,4121,-6399,-3492,0,0,0
-168.53,150.54,-118.63,4119,-6396,-3491,0,0,-1
-168.53,150.54,-118.63,4120,-6395,-3497,-1,-1,-1
-168.53,150.54,-118.64,4120,-6404,-3502,-1,-1,-1
-168.53,150.54,-118.64,4120,-6405,-3499,0,0,-1
-168.53,150.54,-118.64,4119,-6406,-3500,0,0,-1
-168.53,150.54,-118.63,4109,-6408,-3499,0,-1,0
-168.53,150.54,-118.63,4117,-6401,-3492,0,-1,0
-168.53,150.54,-118.63,4120,-6402,-3499,0,0,0
-168.53,150.55,-118.63,4125,-6406,-3499,0,0,0
-168.53,150.55,-118.63,4121,-6406,-3500,0,-1,-1
-168.53,150.54,-118.63,4126,-6405,-3496,0,0,-1
-168.53,150.54,-118.63,4122,-6401,-3499,-1,0,-1
-168.53,150.54,-118.63,4111,-6394,-3504,0,0,-1
-168.52,150.54,-118.63,4111,-6393,-3486,0,-1,-1
-168.54,150.55,-118.64,4114,-6402,-3496,-1,-1,0
-168.54,150.55,-118.65,4116,-6400,-3525,0,0,-1
-168.54,150.55,-118.64,4117,-6414,-3518,0,0,-1
-168.53,150.55,-118.63,4118,-6400,-3498,0,0,-1
-168.54,150.55,-118.64,4115,-6393,-3500,-1,-1,-1
-168.54,150.55,-118.65,4123,-6407,-3514,-1,-1,0
-168.54,150.55,-118.65,4123,-6401,-3527,0,0,-1
-168.54,150.55,-118.64,4123,-6408,-3497,0,0,-1
-168.54,150.55,-118.64,4122,-6407,-3496,-1,-1,-1
-168.54,150.55,-118.64,4124,-6405,-3502,0,-1,-1
-168.54,150.55,-118.64,4117,-6400,-3494,0,0,0
-168.54,150.55,-118.64,4119,-6397,-3497,0,-1,-1
-168.54,150.55,-118.64,4115,-6401,-3486,-1,-1,0
-168.54,150.55,-118.65,4109,-6404,-3503,-1,-1,-1
-168.54,150.55,-118.65,4116,-6399,-3501,0,0,-1
-168.53,150.55,-118.63,4123,-6398,-3485,0,0,-1
-168.52,150.54,-118.63,4121,-6392,-3476,-1,-1,-1
-168.54,150.55,-118.64,4125,-6396,-3487,-1,-1,0
-168.54,150.55,-118.65,4128,-6402,-3505,-1,-1,0
-168.54,150.55,-118.65,4119,-6404,-3504,0,0,-1
-168.53,150.55,-118.63,4115,-6399,-3492,0,0,-1
-168.53,150.55,-118.63,4118,-6395,-3483,-1,0,-1
-168.54,150.55,-118.64,4122,-6397,-3493,-1,-1,-1
-168.54,150.55,-118.64,4123,-6403,-3500,0,0,0
-168.54,150.55,-118.64,4122,-6402,-3499,-1,0,0
-168.53,150.54,-118.64,4125,-6396,-3494,-1,0,-1
-168.53,150.54,-118.64,4118,-6396,-3493,0,0,0
-168.52,150.54,-118.63,4124,-6392,-3482,-1,-1,0
-168.54,150.55,-118.64,4123,-6399,-3505,-1,-1,-1
-168.52,150.54,-118.64,4132,-6408,-3514,0,0,0
-168.52,150.54,-118.64,4117,-6406,-3508,0,0,-1
-168.52,150.54,-118.64,4115,-6393,-3486,-1,-1,0
-168.52,150.54,-118.64,4114,-6395,-3486,-1,-1,-1
-168.52,150.54,-118.64,4121,-6403,-3496,0,0,0
-168.52,150.54,-118.63,4121,-6409,-3495,0,0,-1
-168.52,150.54,-118.63,4112,-6407,-3478,-1,-1,0
-168.52,150.54,-118.63,4112,-6404,-3495,-1,0,-1
-168.53,150.54,-118.63,4105,-6406,-3503,0,0,-1
-168.52,150.54,-118.63,4111,-6403,-3498,-1,0,-1
-168.52,150.54,-118.63,4114,-6400,-3500,0,-1,-1
-168.53,150.54,-118.63,4117,-6398,-3494,0,-1,0
-168.53,150.54,-118.63,4114,-6395,-3482,-1,-1,-1
-168.53,150.55,-118.63,4115,-6401,-3494,-1,-1,-1
-168.52,150.54,-118.63,4124,-6405,-3501,0,0,-1
-168.52,150.54,-118.63,4120,-6399,-3491,0,0,-1
-168.52,150.54,-118.63,4119,-6394,-3489,-1,0,0
-168.52,150.54,-118.63,4120,-6396,-3483,0,0,0
-168.52,150.54,-118.63,4124,-6401,-3480,-1,-1,-1
-168.52,150.53,-118.63,4118,-6400,-3480,0,0,0
-168.51,150.54,-118.62,4120,-6406,-3490,0,0,0
-168.51,150.54,-118.62,4117,-6405,-3490,0,-1,-1
-168.52,150.54,-118.62,4118,-6408,-3488,-1,0,0
-168.52,150.54,-118.62,4117,-6399,-3490,0,-1,-1
-168.52,150.54,-118.62,4118,-6402,-3482,-1,-1,-1
-168.52,150.54,-118.62,4112,-6408,-3494,-1,-1,-1
-168.53,150.54,-118.63,4107,-6411,-3521,0,0,-1
-168.52,150.54,-118.62,4112,-6403,-3509,0,0,-1
-168.51,150.54,-118.61,4111,-6393,-3483,0,0,-1
-168.52,150.54,-118.62,4124,-6400,-3482,-1,-1,0
-168.53,150.55,-118.63,4129,-6408,-3500,-1,-1,0
-168.54,150.55,-118.64,4130,-6414,-3520,0,0,-1
-168.52,150.55,-118.62,4115,-6412,-3502,0,0,-1
-168.51,150.54,-118.61,4112,-6403,-3484,0,0,-1
-168.52,150.54,-118.62,4118,-6399,-3484,-1,-1,0
-168.53,150.54,-118.63,4120,-6395,-3497,-1,0,0
-168.52,150.55,-118.62,4121,-6399,-3501,0,0,0
-168.51,150.54,-118.61,4119,-6399,-3491,0,0,-1
-168.52,150.54,-118.61,4114,-6396,-3485,-1,-1,-1
-168.52,150.55,-118.62,4112,-6399,-3489,-1,-1,-1
-168.52,150.54,-118.62,4114,-6394,-3489,-1,-1,-1
-168.52,150.54,-118.63,4114,-6403,-3497,-1,-1,-1
-168.52,150.54,-118.63,4117,-6404,-3504,0,0,-1
-168.52,150.54,-118.63,4115,-6398,-3499,0,-1,0
-168.52,150.54,-118.63,4115,-6396,-3495,0,-1,-1
-168.53,150.55,-118.63,4111,-6395,-3498,-1,-1,-1
-168.53,150.55,-118.63,4117,-6400,-3502,-1,-1,0
-168.53,150.55,-118.63,4114,-6406,-3506,0,0,0
-168.53,150.55,-118.63,4116,-6404,-3499,0,0,-1
-168.52,150.55,-118.62,4111,-6404,-3487,0,0,-1
-168.52,150.55,-118.62,4116,-6405,-3487,-1,0,-1
-168.53,150.55,-118.62,4113,-6415,-3494,0,0,-1
-168.53,150.55,-118.62,4113,-6412,-3490,0,0,0
-168.53,150.55,-118.62,4110,-6408,-3496,-1,-1,0
-168.53,150.55,-118.63,4113,-6406,-3494,-1,-1,-1
-168.53,150.55,-118.63,4109,-6404,-3489,0,0,-1
-168.53,150.55,-118.62,4112,-6397,-3494,0,0,-1
-168.53,150.55,-118.62,4114,-6391,-3494,-1,-1,0
-168.54,150.56,-118.64,4116,-6404,-3511,-1,0,-1
-168.54,150.56,-118.64,4121,-6403,-3509,0,0,-1
-168.53,150.55,-118.62,4115,-6397,-3492,0,0,-1
-168.53,150.55,-118.62,4124,-6396,-3483,-1,-1,0
-168.53,150.55,-118.62,4116,-6401,-3484,-1,-1,0
-168.54,150.56,-118.63,4114,-6400,-3500,0,0,0
-168.53,150.55,-118.62,4114,-6398,-3498,0,0,-1
-168.53,150.55,-118.62,4118,-6398,-3488,-1,-1,-1
-168.53,150.55,-118.63,4120,-6397,-3498,-1,-1,-1
-168.53,150.55,-118.63,4117,-6399,-3491,0,0,-1
-168.53,150.55,-118.62,4105,-6405,-3491,-1,-1,-1
-168.54,150.56,-118.64,4111,-6401,-3502,0,0,-1
-168.54,150.56,-118.64,4115,-6400,-3502,0,0,0
-168.53,150.56,-118.63,4109,-6400,-3500,0,0,-1
-168.54,150.56,-118.63,4119,-6396,-3493,-1,-1,0
-168.54,150.56,-118.64,4122,-6399,-3500,-1,-1,-1
-168.54,150.56,-118.64,4126,-6410,-3504,0,0,-1
-168.53,150.55,-118.62,4115,-6398,-3488,0,0,-1
-168.51,150.54,-118.61,4121,-6394,-3470,-1,-1,0
-168.53,150.56,-118.63,4122,-6399,-3477,-1,-1,0
-168.54,150.56,-118.64,4127,-6408,-3507,-1,-1,0
-168.54,150.56,-118.64,4120,-6410,-3513,0,0,-1
-168.53,150.56,-118.63,4110,-6395,-3492,0,0,-1
-168.54,150.56,-118.63,4115,-6392,-3493,-1,-1,-1
-168.54,150.56,-118.64,4121,-6404,-3497,0,-1,0
-168.54,150.56,-118.64,4122,-6402,-3496,-1,-1,0
-168.54,150.56,-118.64,4121,-6406,-3508,0,0,-1
-168.54,150.56,-118.64,4119,-6407,-3509,0,0,-1
-168.53,150.55,-118.62,4126,-6406,-3495,0,0,-1
-168.53,150.55,-118.62,4121,-6400,-3487,-1,-1,-1
-168.54,150.56,-118.64,4116,-6404,-3491,-1,-1,-1
-168.54,150.55,-118.64,4126,-6408,-3502,0,-1,0
-168.54,150.56,-118.64,4119,-6405,-3502,0,0,-1
-168.54,150.56,-118.64,4117,-6404,-3491,0,0,-1
-168.54,150.56,-118.64,4114,-6398,-3496,0,0,0
-168.54,150.56,-118.64,4114,-6401,-3495,0,0,-1
-168.54,150.56,-118.63,4117,-6406,-3490,-1,-1,0
-168.54,150.56,-118.63,4115,-6407,-3495,0,-1,0
-168.54,150.56,-118.63,4112,-6403,-3506,0,-1,0
-168.54,150.56,-118.64,4110,-6404,-3501,-1,0,-1
-168.54,150.56,-118.64,4115,-6406,-3496,0,0,-1
-168.54,150.56,-118.63,4121,-6402,-3494,0,0,-1
-168.54,150.56,-118.63,4122,-6402,-3494,0,0,-1
-168.54,150.56,-118.64,4121,-6402,-3492,-1,-1,-1
-168.54,150.56,-118.64,4121,-6401,-3504,-1,-1,0
-168.55,150.56,-118.65,4117,-6412,-3506,-1,-1,-1
-168.55,150.56,-118.65,4114,-6411,-3508,-1,0,-1
-168.55,150.56,-118.65,4111,-6408,-3510,0,0,-1
-168.54,150.56,-118.64,4111,-6403,-3491,0,-1,-1
-168.55,150.57,-118.65,4110,-6400,-3479,-1,-1,0
-168.55,150.56,-118.65,4117,-6401,-3492,0,0,0
-168.54,150.56,-118.63,4116,-6407,-3488,0,0,0
-168.54,150.56,-118.63,4116,-6401,-3486,0,0,-1
-168.54,150.56,-118.63,4109,-6398,-3486,-1,-1,-1
-168.54,150.56,-118.64,4115,-6403,-3499,-1,-1,0
-168.54,150.56,-118.64,4119,-6400,-3510,0,0,-1
-168.54,150.56,-118.63,4118,-6408,-3497,-1,-1,-1
-168.54,150.56,-118.63,4123,-6411,-3491,-1,-1,-1
-168.54,150.56,-118.64,4117,-6407,-3497,0,0,-1
-168.54,150.56,-118.64,4122,-6404,-3494,0,0,-1
-168.54,150.56,-118.64,4116,-6405,-3495,-1,-1,-1
-168.54,150.56,-118.64,4119,-6400,-3503,0,-1,0
-168.54,150.56,-118.64,4119,-6397,-3493,0,-1,0
-168.55,150.57,-118.65,4119,-6396,-3498,-1,-1,-1
-168.55,150.56,-118.65,4119,-6405,-3499,-1,0,0
-168.55,150.56,-118.65,4123,-6404,-3502,0,0,-1
-168.54,150.56,-118.64,4116,-6399,-3489,0,0,-1
-168.53,150.55,-118.63,4115,-6390,-3473,0,-1,-1
-168.54,150.56,-118.64,4119,-6393,-3477,-1,-1,0
-168.55,150.56,-118.66,4122,-6406,-3501,-1,-1,0
-168.56,150.57,-118.67,4115,-6406,-3521,0,0,-1
-168.55,150.56,-118.65,4103,-6407,-3515,0,0,-1
-168.54,150.56,-118.64,4109,-6401,-3496,-1,0,-1
-168.54,150.56,-118.64,4112,-6400,-3496,-1,0,-1
-168.55,150.57,-118.65,4117,-6405,-3505,0,-1,0
-168.55,150.57,-118.65,4119,-6412,-3502,0,0,-1
-168.55,150.56,-118.65,4120,-6404,-3497,-1,-1,0
-168.55,150.56,-118.65,4117,-6397,-3501,-1,0,-1
-168.55,150.56,-118.65,4118,-6397,-3511,0,0,-1
-168.55,150.56,-118.65,4117,-6392,-3501,-1,-1,-1
-168.55,150.56,-118.66,4119,-6395,-3500,-1,-1,-1
-168.56,150.57,-118.67,4117,-6404,-3513,-1,-1,-1
-168.56,150.57,-118.67,4110,-6394,-3502,0,-1,-1
-168.56,150.57,-118.67,4108,-6397,-3490,-1,-1,-1
-168.57,150.57,-118.67,4104,-6394,-3495,-1,-1,-1
-168.57,150.57,-118.67,4100,-6398,-3501,0,0,0
-168.56,150.58,-118.66,4105,-6403,-3499,0,0,-1
-168.57,150.57,-118.67,4114,-6402,-3511,-1,-1,-1
-168.57,150.57,-118.67,4113,-6405,-3510,0,0,-1
-168.57,150.57,-118.67,4112,-6400,-3506,0,0,-1
-168.57,150.57,-118.67,4116,-6402,-3500,0,-1,-1
-168.57,150.58,-118.68,4112,-6406,-3501,-1,-1,0
-168.57,150.58,-118.68,4111,-6405,-3498,0,-1,-1
-168.57,150.58,-118.68,4117,-6404,-3496,-1,-1,-1
-168.57,150.58,-118.69,4121,-6406,-3504,-1,0,-1
-168.57,150.58,-118.69,4121,-6401,-3502,0,0,-1
-168.57,150.57,-118.69,4126,-6398,-3503,-1,-1,0
-168.58,150.58,-118.69,4122,-6397,-3515,0,0,-1
-168.57,150.58,-118.69,4119,-6398,-3509,0,0,0
-168.56,150.58,-118.68,4116,-6395,-3492,0,0,-1
-168.57,150.58,-118.68,4113,-6396,-3494,-1,-1,0
-168.57,150.58,-118.69,4116,-6399,-3513,-1,0,-1
-168.57,150.58,-118.69,4109,-6399,-3516,0,0,-1
-168.57,150.58,-118.68,4119,-6398,-3500,0,0,-1
-168.57,150.57,-118.68,4123,-6399,-3490,-1,-1,-1
-168.58,150.58,-118.69,4113,-6399,-3499,-1,-1,0
-168.57,150.58,-118.68,4117,-6402,-3496,0,0,-1
-168.57,150.58,-118.68,4114,-6400,-3498,0,-1,0
-168.57,150.58,-118.69,4109,-6389,-3498,-1,-1,0
-168.58,150.58,-118.69,4106,-6397,-3508,-1,-1,0
-168.58,150.58,-118.69,4112,-6402,-3512,0,0,-1
-168.57,150.57,-118.67,4113,-6402,-3496,0,0,-1
-168.56,150.57,-118.67,4110,-6393,-3490,-1,-1,-1
-168.56,150.57,-118.68,4118,-6391,-3484,-1,-1,0
-168.58,150.58,-118.69,4117,-6405,-3504,-1,-1,0
-168.58,150.58,-118.69,4118,-6404,-3521,0,0,-1
-168.57,150.58,-118.69,4107,-6398,-3508,0,0,-1
-168.57,150.57,-118.68,4103,-6395,-3498,-1,0,-1
-168.57,150.57,-118.68,4099,-6400,-3489,0,0,-1
-168.56,150.57,-118.67,4109,-6398,-3497,0,0,-1
-168.55,150.56,-118.67,4123,-6401,-3487,-1,-1,0
-168.56,150.57,-118.68,4122,-6407,-3511,0,0,-1
-168.55,150.56,-118.67,4116,-6410,-3496,0,0,-1
-168.54,150.56,-118.65,4102,-6399,-3482,0,0,-1
-168.55,150.56,-118.66,4111,-6397,-3489,-1,-1,-1
-168.55,150.56,-118.67,4115,-6400,-3499,-1,0,-1
-168.55,150.55,-118.67,4121,-6396,-3508,0,0,-1
-168.53,150.55,-118.65,4125,-6397,-3489,0,0,-1
-168.53,150.54,-118.65,4119,-6391,-3491,-1,-1,-1
-168.54,150.55,-118.66,4120,-6391,-3495,-1,-1,0
-168.54,150.55,-118.66,4111,-6397,-3504,0,-1,0
-168.54,150.55,-118.66,4112,-6402,-3510,0,0,-1
-168.54,150.55,-118.66,4114,-6397,-3513,0,0,0
-168.54,150.55,-118.66,4107,-6394,-3519,0,0,-1
-168.54,150.56,-118.65,4108,-6399,-3502,0,0,0
-168.54,150.56,-118.65,4107,-6404,-3496,-1,-1,-1
-168.54,150.55,-118.66,4115,-6406,-3497,-1,-1,0
-168.54,150.55,-118.66,4109,-6398,-3501,-1,0,-1
-168.54,150.55,-118.66,4116,-6395,-3493,0,0,-1
-168.54,150.56,-118.65,4114,-6400,-3489,0,-1,0
-168.54,150.55,-118.66,4114,-6403,-3499,-1,-1,0
-168.54,150.55,-118.66,4119,-6402,-3500,-1,-1,-1
-168.55,150.56,-118.66,4114,-6401,-3495,-1,-1,0
-168.55,150.56,-118.66,4116,-6403,-3492,0,-1,0
-168.54,150.56,-118.66,4112,-6404,-3498,0,0,-1
-168.54,150.56,-118.65,4114,-6400,-3494,0,0,-1
-168.54,150.56,-118.65,4113,-6398,-3494,0,0,0
-168.54,150.56,-118.65,4119,-6402,-3496,-1,-1,-1
-168.54,150.56,-118.65,4125,-6399,-3505,-1,-1,0
-168.54,150.56,-118.65,4119,-6403,-3514,0,-1,-1
-168.54,150.56,-118.65,4115,-6403,-3512,0,0,-1
-168.54,150.56,-118.65,4113,-6400,-3500,-1,-1,-1
-168.55,150.56,-118.66,4117,-6403,-3507,-1,-1,-1
-168.55,150.56,-118.66,4113,-6404,-3514,0,0,-1
-168.54,150.56,-118.66,4107,-6405,-3502,0,0,0
-168.54,150.56,-118.65,4108,-6403,-3496,0,0,-1
-168.54,150.56,-118.64,4111,-6399,-3493,-1,-1,0
-168.54,150.56,-118.65,4118,-6398,-3507,-1,-1,-1
-168.55,150.56,-118.67,4114,-6402,-3516,-1,-1,0
-168.55,150.56,-118.67,4114,-6404,-3532,0,0,-1
-168.55,150.57,-118.66,4111,-6406,-3524,0,0,-1
-168.54,150.56,-118.65,4114,-6404,-3501,0,0,-1
-168.54,150.56,-118.66,4117,-6406,-3500,-1,-1,0
-168.54,150.56,-118.66,4119,-6403,-3501,-1,0,0
-168.55,150.57,-118.66,4116,-6398,-3504,0,-1,-1
-168.54,150.56,-118.65,4116,-6398,-3500,-1,0,-1
-168.54,150.56,-118.66,4119,-6400,-3504,0,0,-1
-168.54,150.56,-118.65,4120,-6402,-3495,0,0,-1
-168.54,150.56,-118.65,4125,-6400,-3485,-1,-1,-1
-168.55,150.56,-118.66,4123,-6394,-3497,-1,-1,-1
-168.55,150.56,-118.66,4121,-6403,-3506,0,0,-1
-168.54,150.56,-118.65,4120,-6404,-3501,0,0,-1
-168.53,150.55,-118.65,4116,-6395,-3497,0,0,-1
-168.54,150.56,-118.66,4115,-6395,-3493,-1,-1,0
-168.54,150.56,-118.66,4116,-6407,-3504,-1,-1,0
-168.54,150.56,-118.66,4117,-6411,-3515,0,0,0
-168.54,150.56,-118.65,4114,-6408,-3512,0,0,-1
-168.54,150.56,-118.64,4123,-6400,-3500,0,0,-1
-168.54,150.56,-118.64,4120,-6407,-3486,0,-1,0
-168.54,150.56,-118.64,4118,-6407,-3499,-1,-1,0
-168.54,150.56,-118.64,4115,-6399,-3492,0,-1,0
-168.54,150.56,-118.65,4118,-6404,-3500,-1,-1,-1
-168.54,150.56,-118.65,4123,-6398,-3503,-1,0,-1
-168.54,150.56,-118.65,4119,-6401,-3502,0,0,-1
-168.54,150.56,-118.65,4118,-6406,-3501,0,0,-1
-168.54,150.56,-118.65,4109,-6406,-3499,0,0,-1
-168.54,150.56,-118.65,4114,-6403,-3504,0,-1,-1
-168.54,150.56,-118.65,4113,-6396,-3495,-1,-1,0
-168.55,150.56,-118.66,4106,-6405,-3515,-1,0,0
-168.54,150.56,-118.65,4110,-6410,-3516,0,0,0
-168.54,150.56,-118.64,4109,-6402,-3497,0,0,-1
-168.54,150.56,-118.64,4112,-6392,-3491,-1,-1,0
-168.54,150.56,-118.65,4109,-6396,-3512,-1,-1,0
-168.54,150.56,-118.66,4113,-6396,-3521,0,0,0
-168.54,150.56,-118.65,4110,-6386,-3502,0,0,-1
-168.54,150.56,-118.65,4112,-6387,-3490,-1,-1,-1
-168.55,150.56,-118.66,4114,-6400,-3507,-1,-1,-1
-168.55,150.56,-118.66,4120,-6402,-3517,0,0,-1
-168.54,150.56,-118.65,4119,-6397,-3504,0,0,-1
-168.52,150.55,-118.64,4120,-6386,-3487,-1,-1,-1
-168.54,150.56,-118.65,4120,-6395,-3488,-1,-1,0
-168.55,150.56,-118.66,4117,-6408,-3512,-1,-1,0
-168.55,150.56,-118.66,4114,-6411,-3520,0,0,-1
-168.54,150.56,-118.66,4109,-6409,-3509,0,0,-1
-168.54,150.56,-118.65,4103,-6399,-3496,0,0,-1
-168.54,150.56,-118.66,4113,-6405,-3508,-1,0,0
-168.54,150.56,-118.66,4119,-6405,-3505,-1,0,0
-168.54,150.56,-118.66,4119,-6400,-3502,0,-1,0
-168.54,150.56,-118.65,4114,-6405,-3495,-1,0,0
-168.54,150.56,-118.66,4110,-6404,-3502,0,0,0
-168.54,150.56,-118.65,4113,-6407,-3499,0,0,-1
-168.54,150.56,-118.66,4118,-6402,-3490,-1,-1,-1
-168.55,150.56,-118.66,4117,-6399,-3493,-1,-1,0
-168.55,150.56,-118.66,4116,-6392,-3496,0,0,0
-168.54,150.56,-118.66,4115,-6393,-3486,0,0,-1
-168.54,150.56,-118.65,4116,-6389,-3477,-1,-1,0
-168.54,150.56,-118.66,4118,-6389,-3496,-1,-1,0
-168.54,150.56,-118.66,4124,-6398,-3504,0,0,0
-168.54,150.56,-118.65,4105,-6394,-3496,0,0,-1
-168.54,150.56,-118.65,4110,-6400,-3484,-1,-1,0
-168.54,150.56,-118.65,4116,-6402,-3490,-1,-1,0
-168.54,150.56,-118.65,4124,-6404,-3507,0,0,0
-168.53,150.56,-118.63,4121,-6406,-3496,0,0,-1
-168.53,150.56,-118.63,4113,-6410,-3488,-1,-1,0
-168.53,150.56,-118.63,4114,-6410,-3502,-1,-1,0
-168.54,150.56,-118.65,4108,-6402,-3505,-1,-1,-1
-168.54,150.56,-118.65,4113,-6402,-3499,-1,0,-1
-168.54,150.56,-118.65,4115,-6408,-3504,0,0,0
-168.54,150.56,-118.65,4115,-6402,-3502,0,0,0
-168.54,150.56,-118.64,4118,-6400,-3488,-1,-1,0
-168.54,150.56,-118.64,4121,-6401,-3496,-1,-1,0
-168.54,150.56,-118.65,4116,-6413,-3506,0,0,-1
-168.54,150.56,-118.64,4113,-6406,-3500,0,0,-1
-168.53,150.56,-118.63,4113,-6399,-3500,-1,-1,0
-168.53,150.56,-118.63,4113,-6399,-3500,-1,-1,0
-168.55,150.57,-118.65,4116,-6399,-3505,-1,-1,0
-168.55,150.57,-118.65,4116,-6395,-3496,-1,0,0
-168.55,150.57,-118.65,4118,-6396,-3496,-1,0,-1
-168.55,150.57,-118.65,4114,-6400,-3492,0,0,0
-168.54,150.56,-118.65,4120,-6392,-3502,-1,0,-1
-168.54,150.56,-118.65,4122,-6394,-3502,-1,0,0
-168.54,150.56,-118.64,4119,-6394,-3492,-1,-1,0
-168.55,150.56,-118.65,4114,-6396,-3500,-1,-1,0
-168.55,150.56,-118.66,4114,-6403,-3505,-1,-1,0
-168.56,150.57,-118.66,4110,-6405,-3514,0,0,-1
-168.55,150.56,-118.65,4117,-6405,-3508,0,0,0
-168.55,150.57,-118.65,4113,-6394,-3502,0,0,-1
-168.54,150.56,-118.65,4118,-6388,-3496,-1,-1,0
-168.55,150.57,-118.66,4118,-6390,-3505,-1,-1,0
-168.57,150.57,-118.67,4115,-6398,-3513,-1,-1,0
-168.57,150.57,-118.67,4104,-6403,-3509,0,0,-1
-168.56,150.58,-118.66,4110,-6399,-3503,0,0,-1
-168.56,150.58,-118.66,4112,-6396,-3494,-1,-1,0
-168.56,150.57,-118.67,4116,-6397,-3504,-1,0,0
-168.56,150.57,-118.67,4117,-6398,-3508,0,0,0
-168.56,150.58,-118.66,4114,-6397,-3499,-1,-1,0
-168.57,150.58,-118.67,4113,-6399,-3507,-1,-1,0
-168.58,150.58,-118.67,4113,-6404,-3510,0,0,-1
-168.57,150.57,-118.67,4121,-6398,-3489,0,0,-1
-168.57,150.57,-118.67,4117,-6395,-3494,-1,-1,0
-168.57,150.57,-118.68,4116,-6392,-3497,-1,-1,0
-168.57,150.58,-118.68,4110,-6407,-3504,0,-1,0
-168.57,150.58,-118.68,4111,-6400,-3495,0,-1,0
-168.57,150.58,-118.68,4114,-6395,-3497,-1,-1,-1
-168.57,150.58,-118.68,4120,-6396,-3497,0,-1,0
-168.58,150.59,-118.68,4109,-6401,-3501,-1,-1,0
-168.59,150.59,-118.69,4105,-6399,-3513,0,0,0
-168.58,150.58,-118.67,4103,-6399,-3502,0,0,-1
-168.57,150.58,-118.67,4107,-6397,-3494,-1,0,-1
-168.58,150.58,-118.67,4109,-6400,-3500,-1,-1,0
-168.58,150.58,-118.67,4116,-6410,-3507,0,-1,0
-168.58,150.58,-118.67,4108,-6410,-3495,0,0,0
-168.57,150.59,-118.67,4107,-6403,-3491,-1,-1,-1
-168.58,150.59,-118.68,4112,-6405,-3496,-1,-1,-1
-168.59,150.59,-118.69,4114,-6400,-3500,0,-1,0
-168.59,150.59,-118.69,4116,-6398,-3502,0,0,-1
-168.59,150.59,-118.69,4115,-6402,-3504,-1,-1,0
-168.59,150.59,-118.69,4115,-6398,-3499,-1,-1,0
-168.59,150.59,-118.69,4110,-6398,-3500,0,0,0
-168.59,150.59,-118.69,4119,-6397,-3497,-1,0,0
-168.59,150.59,-118.69,4117,-6394,-3505,-1,0,0
-168.59,150.59,-118.69,4116,-6399,-3500,0,0,0
-168.59,150.59,-118.69,4115,-6399,-3502,-1,-1,0
-168.59,150.59,-118.69,4113,-6394,-3499,-1,-1,0
-168.59,150.59,-118.69,4119,-6393,-3502,-1,-1,0
-168.59,150.59,-118.69,4118,-6399,-3499,-1,0,0
-168.59,150.59,-118.69,4114,-6401,-3502,-1,-1,-1
-168.59,150.58,-118.69,4114,-6394,-3501,-1,0,-1
-168.58,150.58,-118.70,4113,-6397,-3499,0,-1,0
-168.59,150.59,-118.70,4114,-6401,-3501,-1,-1,0
-168.59,150.58,-118.70,4121,-6396,-3514,0,0,0
-168.59,150.59,-118.70,4120,-6397,-3510,-1,-1,0
-168.60,150.59,-118.71,4120,-6401,-3510,-1,-1,0
-168.60,150.59,-118.71,4116,-6407,-3520,-1,0,-1
-168.60,150.59,-118.71,4118,-6405,-3523,0,0,-1
-168.59,150.58,-118.69,4112,-6402,-3502,0,0,-1
-168.58,150.58,-118.69,4119,-6387,-3486,-1,-1,0
-168.61,150.59,-118.72,4111,-6390,-3507,-1,-1,0
-168.61,150.60,-118.73,4119,-6396,-3530,-1,-1,0
-168.61,150.60,-118.72,4107,-6401,-3527,0,0,-1
-168.60,150.59,-118.71,4108,-6400,-3506,-1,0,-1
-168.61,150.59,-118.72,4110,-6396,-3505,0,0,0
-168.60,150.59,-118.71,4109,-6396,-3490,0,-1,0
-168.60,150.59,-118.71,4112,-6397,-3495,-1,-1,0
-168.61,150.59,-118.72,4110,-6409,-3510,-1,-1,0
-168.61,150.60,-118.73,4109,-6410,-3512,-1,0,-1
-168.61,150.60,-118.73,4113,-6411,-3513,-1,0,-1
-168.61,150.59,-118.73,4117,-6403,-3511,-1,0,-1
-168.61,150.60,-118.73,4109,-6399,-3510,-1,-1,0
-168.61,150.60,-118.73,4102,-6399,-3511,-1,0,0
-168.61,150.60,-118.73,4107,-6400,-3505,0,-1,0
-168.61,150.60,-118.73,4104,-6402,-3500,-1,-1,0
-168.63,150.61,-118.73,4103,-6403,-3512,0,-1,0
-168.62,150.61,-118.73,4103,-6405,-3515,0,0,0
-168.62,150.61,-118.72,4098,-6399,-3503,0,0,0
-168.62,150.61,-118.72,4101,-6394,-3494,-1,-1,0
-168.62,150.61,-118.73,4103,-6402,-3510,-1,0,-1
-168.62,150.61,-118.73,4108,-6407,-3514,0,0,-1
-168.61,150.60,-118.72,4109,-6404,-3487,0,0,-1
-168.61,150.60,-118.72,4112,-6398,-3482,-1,-1,-1
-168.61,150.60,-118.72,4113,-6403,-3493,-1,-1,0
-168.62,150.61,-118.73,4113,-6405,-3502,-1,-1,0
-168.63,150.61,-118.73,4113,-6406,-3512,-1,-1,0
-168.63,150.61,-118.73,4111,-6397,-3520,-1,-1,0
-168.63,150.61,-118.73,4110,-6389,-3512,0,0,-1
-168.63,150.61,-118.73,4110,-6388,-3511,-1,-1,0
-168.63,150.61,-118.73,4113,-6388,-3504,0,-1,0
-168.63,150.61,-118.73,4114,-6391,-3509,-1,-1,0
-168.63,150.61,-118.73,4114,-6397,-3518,0,0,0
-168.62,150.61,-118.73,4118,-6399,-3510,0,0,0
-168.62,150.61,-118.73,4114,-6401,-3509,-1,0,-1
-168.63,150.61,-118.73,4119,-6396,-3515,-1,-1,0
-168.63,150.61,-118.73,4119,-6398,-3508,-1,-1,0
-168.62,150.60,-118.73,4113,-6401,-3502,0,0,-1
-168.62,150.60,-118.73,4109,-6402,-3503,0,0,-1
-168.62,150.60,-118.72,4109,-6397,-3497,0,0,-1
-168.62,150.60,-118.73,4114,-6400,-3502,-1,-1,0
-168.61,150.60,-118.72,4107,-6396,-3513,0,0,-1
-168.61,150.60,-118.72,4102,-6401,-3497,-1,0,0
-168.61,150.60,-118.72,4111,-6401,-3510,-1,0,-1
-168.61,150.60,-118.72,4110,-6406,-3519,0,0,-1
-168.60,150.59,-118.71,4110,-6398,-3504,0,0,-1
-168.59,150.59,-118.70,4114,-6382,-3488,-1,-1,0
-168.60,150.59,-118.71,4118,-6388,-3492,-1,-1,0
-168.61,150.60,-118.72,4117,-6406,-3518,-1,-1,0
-168.61,150.60,-118.72,4119,-6400,-3519,0,0,0
-168.60,150.59,-118.71,4109,-6395,-3502,0,0,-1
-168.61,150.59,-118.71,4113,-6397,-3501,-1,0,-1
-168.60,150.59,-118.71,4119,-6404,-3502,0,0,0
-168.60,150.59,-118.70,4119,-6400,-3504,0,0,-1
-168.60,150.59,-118.70,4113,-6405,-3500,-1,-1,0
-168.60,150.59,-118.70,4112,-6400,-3501,-1,0,0
-168.60,150.58,-118.71,4114,-6403,-3509,0,0,0
-168.60,150.58,-118.71,4116,-6398,-3509,0,-1,-1
-168.60,150.58,-118.71,4114,-6394,-3507,-1,-1,0
-168.61,150.59,-118.72,4111,-6404,-3508,-1,-1,0
-168.61,150.59,-118.72,4115,-6407,-3511,0,0,0
-168.61,150.59,-118.71,4112,-6397,-3505,0,-1,0
-168.60,150.59,-118.71,4108,-6397,-3501,0,0,0
-168.60,150.59,-118.71,4111,-6400,-3498,-1,-1,0
-168.60,150.59,-118.71,4113,-6396,-3503,-1,-1,0
-168.60,150.59,-118.71,4113,-6398,-3496,-1,-1,0
-168.60,150.59,-118.71,4110,-6401,-3503,0,0,-1
-168.60,150.59,-118.71,4110,-6395,-3505,0,0,0
-168.60,150.59,-118.70,4116,-6400,-3491,-1,-1,0
-168.60,150.59,-118.71,4116,-6407,-3501,-1,-1,0
-168.60,150.59,-118.70,4120,-6410,-3498,0,0,-1
-168.59,150.59,-118.69,4102,-6405,-3490,0,0,-1
-168.59,150.59,-118.69,4110,-6396,-3481,-1,-1,0
-168.60,150.59,-118.70,4105,-6400,-3485,-1,-1,-1
-168.60,150.59,-118.70,4118,-6406,-3503,0,-1,0
-168.60,150.59,-118.69,4111,-6405,-3494,0,0,-1
-168.59,150.59,-118.69,4103,-6400,-3498,-1,-1,-1
-168.60,150.59,-118.69,4115,-6400,-3493,-1,-1,0
-168.60,150.59,-118.69,4112,-6394,-3500,0,0,0
-168.60,150.59,-118.69,4117,-6391,-3509,0,0,0
-168.60,150.59,-118.69,4113,-6391,-3513,-1,0,0
-168.60,150.59,-118.69,4113,-6393,-3507,0,0,0
-168.60,150.59,-118.69,4112,-6390,-3505,-1,0,0
-168.60,150.59,-118.69,4119,-6395,-3504,-1,-1,0
-168.60,150.59,-118.69,4122,-6398,-3506,-1,0,0
-168.60,150.59,-118.69,4122,-6398,-3510,0,0,-1
-168.58,150.58,-118.69,4120,-6396,-3503,0,0,-1
-168.58,150.58,-118.69,4123,-6399,-3504,-1,-1,-1
-168.59,150.58,-118.70,4125,-6396,-3510,-1,0,0
-168.59,150.58,-118.70,4118,-6395,-3510,0,0,0
-168.59,150.58,-118.70,4109,-6400,-3505,-1,0,0
-168.59,150.58,-118.70,4107,-6397,-3504,0,0,0
-168.59,150.58,-118.69,4110,-6395,-3507,0,-1,0
-168.59,150.58,-118.69,4108,-6399,-3504,0,0,0
-168.60,150.59,-118.69,4113,-6399,-3509,-1,-1,0
-168.59,150.58,-118.70,4117,-6396,-3513,0,0,-1
-168.58,150.58,-118.69,4116,-6388,-3507,0,0,0
-168.58,150.58,-118.69,4113,-6397,-3491,-1,-1,0
-168.60,150.59,-118.70,4108,-6405,-3515,-1,0,0
-168.59,150.58,-118.70,4117,-6409,-3525,0,0,-1
-168.57,150.58,-118.67,4107,-6403,-3501,0,0,-1
-168.58,150.58,-118.68,4109,-6386,-3487,-1,-1,0
-168.60,150.59,-118.70,4109,-6401,-3495,-1,-1,0
-168.59,150.58,-118.70,4121,-6402,-3527,0,0,0
-168.58,150.58,-118.69,4117,-6402,-3516,0,0,-1
-168.58,150.58,-118.68,4111,-6396,-3496,-1,-1,-1
-168.58,150.58,-118.69,4119,-6399,-3502,-1,-1,0
-168.59,150.58,-118.70,4120,-6399,-3517,0,0,0
-168.58,150.58,-118.69,4122,-6398,-3500,-1,0,0
-168.58,150.58,-118.69,4116,-6397,-3510,-1,0,0
-168.58,150.58,-118.69,4115,-6400,-3508,0,0,0
-168.58,150.57,-118.69,4115,-6396,-3502,0,0,-1
-168.58,150.57,-118.69,4116,-6399,-3503,-1,-1,0
-168.58,150.58,-118.69,4123,-6403,-3506,-1,-1,-1
-168.59,150.58,-118.70,4125,-6402,-3508,-1,-1,-1
-168.58,150.58,-118.69,4122,-6402,-3508,0,0,0
-168.58,150.57,-118.69,4115,-6399,-3494,0,0,0
-168.58,150.57,-118.68,4121,-6405,-3498,-1,-1,0
-168.58,150.57,-118.69,4119,-6408,-3504,-1,-1,0
-168.58,150.58,-118.69,4115,-6406,-3507,-1,-1,0
-168.58,150.58,-118.69,4117,-6398,-3503,0,0,0
-168.58,150.58,-118.68,4116,-6400,-3499,0,0,0
-168.58,150.58,-118.68,4113,-6400,-3507,0,0,-1
-168.58,150.58,-118.68,4123,-6398,-3500,-1,-1,0
-168.58,150.58,-118.68,4121,-6402,-3502,-1,-1,0
-168.58,150.58,-118.68,4116,-6404,-3505,-1,-1,0
-168.58,150.58,-118.69,4115,-6403,-3501,-1,-1,0
-168.58,150.58,-118.69,4120,-6399,-3512,-1,0,-1
-168.58,150.58,-118.69,4128,-6402,-3502,-1,-1,0
-168.59,150.58,-118.70,4119,-6401,-3509,-1,0,0
-168.58,150.58,-118.69,4115,-6406,-3514,0,0,-1
-168.57,150.57,-118.68,4111,-6406,-3511,0,0,-1
-168.57,150.57,-118.69,4116,-6400,-3494,-1,-1,0
-168.58,150.58,-118.69,4117,-6400,-3510,-1,0,0
-168.58,150.58,-118.69,4122,-6407,-3510,0,0,0
-168.57,150.57,-118.68,4118,-6411,-3495,0,0,-1
-168.58,150.58,-118.68,4112,-6408,-3487,-1,-1,0
-168.58,150.58,-118.68,4116,-6402,-3491,-1,-1,0
-168.58,150.58,-118.68,4113,-6401,-3493,0,0,0
-168.57,150.58,-118.69,4120,-6399,-3495,-1,-1,0
-168.58,150.58,-118.69,4116,-6397,-3510,-1,0,-1
-168.58,150.58,-118.69,4113,-6397,-3503,0,0,0
-168.58,150.58,-118.69,4104,-6402,-3499,-1,-1,0
-168.59,150.58,-118.69,4107,-6409,-3502,-1,-1,0
-168.59,150.58,-118.69,4111,-6407,-3502,0,0,0
-168.59,150.59,-118.69,4107,-6399,-3496,0,0,-1
-168.59,150.59,-118.69,4106,-6394,-3488,0,-1,0
-168.59,150.59,-118.69,4101,-6397,-3501,-1,-1,0
-168.59,150.59,-118.69,4101,-6401,-3512,-1,0,0
-168.59,150.59,-118.69,4106,-6403,-3507,0,0,0
-168.59,150.59,-118.69,4111,-6397,-3497,0,0,0
-168.59,150.59,-118.69,4111,-6399,-3510,-1,-1,0
-168.59,150.59,-118.70,4113,-6404,-3522,-1,0,-1
-168.58,150.58,-118.69,4120,-6400,-3526,0,0,-1
-168.57,150.57,-118.67,4117,-6392,-3498,0,0,-1
-168.57,150.57,-118.68,4118,-6382,-3484,-1,-1,0
-168.58,150.58,-118.69,4125,-6393,-3492,-1,-1,0
-168.59,150.59,-118.70,4125,-6407,-3508,-1,-1,0
-168.59,150.59,-118.70,4114,-6415,-3519,0,0,-1
-168.58,150.58,-118.68,4104,-6408,-3505,0,0,-1
-168.58,150.58,-118.68,4104,-6402,-3496,-1,0,-1
-168.59,150.59,-118.69,4111,-6402,-3496,-1,-1,0
-168.59,150.58,-118.69,4120,-6403,-3507,-1,-1,0
-168.59,150.58,-118.69,4114,-6403,-3520,0,0,0
-168.59,150.59,-118.69,4114,-6398,-3506,0,0,0
-168.59,150.59,-118.69,4118,-6400,-3500,-1,0,-1
-168.59,150.59,-118.69,4122,-6396,-3500,0,-1,0
-168.58,150.58,-118.69,4119,-6394,-3496,-1,-1,-1
-168.59,150.59,-118.70,4115,-6405,-3503,-1,-1,0
-168.59,150.59,-118.70,4113,-6406,-3507,0,0,0
-168.59,150.59,-118.69,4104,-6408,-3510,0,0,0
-168.59,150.59,-118.69,4108,-6409,-3501,-1,-1,0
-168.59,150.59,-118.70,4114,-6413,-3505,-1,-1,0
-168.59,150.59,-118.69,4117,-6408,-3509,0,0,-1
-168.59,150.59,-118.69,4120,-6397,-3501,-1,-1,0
-168.59,150.59,-118.70,4118,-6397,-3501,-1,-1,0
-168.59,150.59,-118.70,4111,-6404,-3495,-1,0,0
-168.59,150.59,-118.69,4114,-6405,-3491,0,0,0
-168.59,150.59,-118.69,4118,-6405,-3499,-1,0,0
-168.59,150.59,-118.69,4117,-6405,-3497,-1,-1,0
-168.59,150.59,-118.69,4111,-6399,-3501,-1,-1,0
-168.60,150.60,-118.70,4114,-6392,-3499,-1,-1,0
-168.60,150.60,-118.70,4110,-6398,-3504,-1,-1,0
-168.60,150.60,-118.70,4114,-6398,-3521,0,0,0
-168.60,150.60,-118.70,4107,-6403,-3513,0,0,-1
-168.59,150.59,-118.69,4109,-6392,-3492,-1,-1,0
-168.60,150.60,-118.70,4113,-6392,-3502,-1,-1,0
-168.60,150.59,-118.71,4117,-6399,-3520,-1,0,0
-168.60,150.60,-118.70,4114,-6403,-3519,0,0,0
-168.60,150.60,-118.70,4119,-6396,-3499,0,0,0
-168.60,150.60,-118.70,4114,-6399,-3500,-1,-1,-1
-168.60,150.60,-118.70,4113,-6396,-3505,-1,-1,0
-168.60,150.60,-118.70,4115,-6401,-3499,-1,-1,0
-168.60,150.60,-118.70,4111,-6399,-3500,-1,-1,0
-168.60,150.60,-118.70,4109,-6393,-3505,0,0,0
-168.61,150.60,-118.70,4105,-6401,-3508,-1,0,0
-168.61,150.60,-118.70,4101,-6402,-3505,0,0,0
-168.61,150.60,-118.70,4103,-6399,-3495,-1,-1,0
-168.61,150.61,-118.71,4105,-6403,-3499,-1,-1,0
-168.61,150.61,-118.71,4108,-6403,-3505,0,-1,0
-168.61,150.61,-118.71,4113,-6400,-3504,0,0,0
-168.60,150.60,-118.70,4113,-6399,-3496,0,0,0
-168.60,150.60,-118.70,4108,-6393,-3498,-1,-1,0
-168.61,150.60,-118.70,4114,-6393,-3505,-1,0,0
-168.61,150.60,-118.70,4120,-6400,-3503,0,0,0
-168.60,150.60,-118.69,4111,-6409,-3501,0,0,-1
-168.59,150.59,-118.68,4111,-6408,-3488,0,0,0
-168.59,150.59,-118.67,4103,-6399,-3476,-1,-1,-1
-168.60,150.60,-118.69,4112,-6406,-3487,-1,-1,0
-168.61,150.61,-118.71,4124,-6411,-3517,-1,-1,0
-168.61,150.61,-118.71,4118,-6405,-3517,0,0,0
-168.60,150.60,-118.69,4114,-6397,-3499,0,0,-1
-168.60,150.60,-118.69,4120,-6396,-3489,-1,-1,0
-168.61,150.60,-118.70,4118,-6397,-3507,-1,-1,0
-168.61,150.60,-118.71,4112,-6398,-3513,-1,-1,0
-168.61,150.60,-118.71,4110,-6394,-3504,-1,-1,0
-168.61,150.60,-118.72,4109,-6395,-3508,-1,0,-1
-168.61,150.60,-118.71,4111,-6399,-3492,0,-1,-1
-168.61,150.60,-118.71,4107,-6395,-3483,-1,-1,-1
-168.62,150.60,-118.72,4112,-6397,-3494,-1,-1,0
-168.62,150.60,-118.73,4110,-6400,-3510,0,0,-1
-168.62,150.60,-118.73,4110,-6399,-3515,0,0,0
-168.62,150.60,-118.73,4107,-6387,-3507,-1,-1,0
-168.62,150.61,-118.73,4105,-6395,-3504,-1,-1,0
-168.63,150.61,-118.73,4102,-6394,-3521,-1,0,0
-168.63,150.61,-118.73,4112,-6390,-3514,0,-1,0
-168.63,150.62,-118.73,4101,-6399,-3513,-1,0,0
-168.63,150.62,-118.73,4107,-6400,-3514,0,0,0
-168.63,150.61,-118.73,4104,-6403,-3508,-1,0,0
-168.63,150.61,-118.73,4105,-6399,-3500,-1,0,0
-168.63,150.62,-118.73,4105,-6406,-3498,-1,-1,0
-168.63,150.62,-118.73,4111,-6409,-3506,-1,-1,0
-168.63,150.62,-118.73,4109,-6395,-3500,-1,0,0
-168.64,150.62,-118.74,4117,-6397,-3498,-1,-1,0
-168.64,150.62,-118.74,4117,-6399,-3510,-1,-1,0
-168.64,150.61,-118.75,4116,-6393,-3522,0,0,0
-168.64,150.61,-118.75,4121,-6388,-3514,-1,0,0
-168.64,150.61,-118.75,4122,-6391,-3509,-1,0,0
-168.64,150.61,-118.75,4118,-6400,-3519,-1,0,0
-168.64,150.61,-118.75,4117,-6400,-3522,0,0,0
-168.64,150.61,-118.75,4111,-6404,-3518,-1,0,0
-168.64,150.61,-118.75,4107,-6404,-3508,-1,-1,0
-168.65,150.62,-118.75,4106,-6405,-3514,-1,-1,0
-168.65,150.62,-118.75,4113,-6402,-3521,-1,0,0
-168.65,150.62,-118.75,4112,-6407,-3511,0,0,-1
-168.65,150.62,-118.75,4112,-6397,-3508,-1,-1,-1
-168.65,150.62,-118.76,4111,-6400,-3516,-1,0,-1
-168.65,150.62,-118.75,4103,-6395,-3517,0,0,0
-168.64,150.61,-118.75,4107,-6392,-3504,-1,0,0
-168.64,150.61,-118.76,4113,-6398,-3525,-1,0,0
-168.64,150.61,-118.76,4108,-6402,-3534,0,0,-1
-168.64,150.61,-118.74,4113,-6398,-3524,0,0,-1
-168.63,150.61,-118.73,4106,-6394,-3504,-1,0,0
-168.64,150.61,-118.74,4112,-6393,-3502,-1,-1,0
-168.64,150.61,-118.76,4116,-6394,-3525,-1,-1,0
-168.64,150.61,-118.75,4105,-6404,-3524,0,0,0
-168.64,150.61,-118.75,4103,-6402,-3518,0,0,-1
-168.64,150.61,-118.75,4099,-6395,-3515,0,0,-1
-168.64,150.61,-118.74,4100,-6394,-3509,0,0,-1
-168.64,150.61,-118.74,4106,-6399,-3513,0,0,-1
-168.63,150.61,-118.74,4109,-6402,-3508,0,0,0
-168.64,150.61,-118.74,4111,-6408,-3511,-1,0,0
-168.63,150.61,-118.74,4109,-6407,-3520,0,0,0
-168.63,150.61,-118.73,4110,-6407,-3520,0,0,-1
-168.63,150.60,-118.73,4111,-6399,-3512,-1,-1,0
-168.63,150.60,-118.74,4117,-6395,-3498,-1,-1,-1
-168.64,150.61,-118.74,4115,-6393,-3506,-1,-1,0
-168.64,150.61,-118.74,4111,-6397,-3522,0,0,-1
-168.63,150.60,-118.75,4106,-6392,-3514,0,0,0
-168.63,150.60,-118.75,4109,-6394,-3519,-1,-1,0
-168.64,150.61,-118.74,4110,-6401,-3509,-1,-1,0
-168.64,150.61,-118.74,4113,-6403,-3512,-1,-1,0
-168.63,150.61,-118.74,4109,-6395,-3502,0,0,0
-168.63,150.61,-118.73,4096,-6393,-3495,0,0,-1
-168.63,150.61,-118.73,4108,-6401,-3489,-1,-1,0
-168.63,150.61,-118.73,4112,-6403,-3512,0,0,-1
-168.63,150.61,-118.73,4116,-6409,-3514,0,0,0
-168.62,150.61,-118.72,4111,-6406,-3503,-1,0,-1
-168.63,150.61,-118.73,4114,-6404,-3501,-1,-1,0
-168.64,150.61,-118.74,4117,-6405,-3514,-1,-1,-1
-168.63,150.60,-118.74,4128,-6400,-3521,0,0,-1
-168.62,150.60,-118.73,4122,-6399,-3508,0,0,0
-168.63,150.60,-118.73,4116,-6397,-3499,-1,-1,0
-168.64,150.61,-118.74,4119,-6396,-3514,-1,-1,0
-168.64,150.61,-118.74,4115,-6394,-3516,0,0,0
-168.64,150.61,-118.74,4119,-6394,-3502,0,0,-1
-168.63,150.60,-118.73,4114,-6397,-3494,0,0,0
-168.63,150.60,-118.73,4111,-6394,-3500,0,0,-1
-168.63,150.60,-118.73,4114,-6392,-3502,-1,-1,0
-168.63,150.60,-118.73,4110,-6391,-3503,-1,-1,-1
-168.63,150.60,-118.74,4112,-6400,-3508,-1,-1,-1
-168.63,150.60,-118.73,4112,-6403,-3499,0,0,-1
-168.62,150.60,-118.73,4107,-6401,-3513,0,0,-1
-168.62,150.60,-118.73,4109,-6400,-3503,0,-1,0
-168.63,150.60,-118.73,4114,-6406,-3505,-1,-1,0
-168.63,150.60,-118.74,4112,-6413,-3523,0,0,0
-168.63,150.60,-118.73,4110,-6410,-3519,0,0,-1
-168.61,150.60,-118.72,4112,-6400,-3499,0,0,-1
-168.62,150.60,-118.72,4113,-6396,-3493,-1,-1,0
-168.63,150.60,-118.73,4118,-6398,-3505,-1,-1,0
-168.63,150.60,-118.74,4117,-6402,-3520,0,0,0
-168.63,150.60,-118.73,4112,-6400,-3511,0,0,0
-168.63,150.60,-118.73,4101,-6401,-3506,-1,0,-1
-168.63,150.60,-118.73,4104,-6398,-3515,-1,0,-1
-168.62,150.60,-118.73,4113,-6396,-3510,0,0,0
-168.62,150.60,-118.72,4109,-6396,-3503,-1,-1,0
-168.63,150.60,-118.73,4106,-6398,-3507,-1,0,0
-168.62,150.60,-118.72,4119,-6406,-3511,0,0,0
-168.61,150.59,-118.72,4108,-6403,-3500,0,0,-1
-168.61,150.59,-118.72,4115,-6395,-3490,-1,-1,0
-168.62,150.60,-118.72,4115,-6404,-3502,-1,-1,-1
-168.63,150.60,-118.74,4115,-6403,-3526,0,0,0
-168.62,150.60,-118.72,4113,-6402,-3526,0,0,-1
-168.61,150.59,-118.72,4109,-6396,-3500,-1,0,-1
-168.61,150.59,-118.72,4113,-6397,-3498,-1,-1,0
-168.62,150.60,-118.72,4120,-6390,-3506,0,0,0
-168.61,150.59,-118.72,4123,-6398,-3503,-1,-1,0
-168.62,150.60,-118.72,4119,-6397,-3512,0,0,-1
-168.61,150.59,-118.72,4115,-6400,-3506,0,0,-1
-168.61,150.59,-118.71,4113,-6399,-3504,0,0,-1
-168.61,150.59,-118.71,4113,-6401,-3499,-1,0,0
-168.61,150.59,-118.71,4112,-6402,-3510,0,0,-1
-168.61,150.59,-118.71,4111,-6396,-3517,0,0,0
-168.61,150.59,-118.72,4107,-6397,-3503,-1,-1,0
-168.62,150.59,-118.72,4109,-6402,-3507,-1,-1,0
-168.62,150.59,-118.72,4112,-6401,-3508,0,0,0
-168.61,150.59,-118.72,4109,-6399,-3506,0,0,-1
-168.61,150.59,-118.71,4107,-6400,-3496,0,0,-1
-168.61,150.59,-118.71,4109,-6400,-3491,0,0,0
-168.61,150.59,-118.71,4117,-6397,-3500,0,0,0
-168.61,150.59,-118.71,4122,-6399,-3499,0,-1,0
-168.61,150.59,-118.71,4118,-6398,-3503,0,-1,0
-168.61,150.59,-118.70,4115,-6397,-3502,0,0,0
-168.61,150.59,-118.70,4108,-6401,-3502,0,-1,0
-168.61,150.59,-118.70,4106,-6403,-3500,0,-1,-1
-168.61,150.59,-118.70,4107,-6402,-3504,-1,0,-1
-168.61,150.59,-118.70,4115,-6398,-3504,0,-1,0
-168.61,150.59,-118.70,4115,-6404,-3499,-1,-1,0
-168.62,150.60,-118.71,4109,-6409,-3517,-1,0,0
-168.62,150.60,-118.70,4112,-6410,-3520,0,0,0
-168.60,150.59,-118.69,4106,-6397,-3502,0,0,-1
-168.61,150.59,-118.70,4113,-6390,-3492,-1,-1,0
-168.62,150.60,-118.71,4113,-6403,-3511,-1,0,-1
-168.61,150.59,-118.70,4113,-6412,-3521,0,0,0
-168.59,150.59,-118.68,4108,-6400,-3490,0,0,-1
-168.59,150.59,-118.68,4112,-6389,-3469,-1,-1,0
-168.61,150.59,-118.70,4123,-6392,-3502,-1,-1,0
-168.62,150.60,-118.70,4122,-6401,-3523,0,0,0
-168.60,150.59,-118.69,4116,-6398,-3507,0,0,-1
-168.60,150.59,-118.69,4113,-6395,-3500,0,0,-1
-168.60,150.59,-118.69,4115,-6391,-3495,-1,-1,0
-168.61,150.60,-118.69,4111,-6401,-3507,-1,0,0
-168.61,150.59,-118.70,4110,-6401,-3511,0,0,0
-168.61,150.59,-118.70,4115,-6398,-3513,0,0,-1
-168.61,150.59,-118.70,4118,-6396,-3504,0,0,-1
-168.61,150.59,-118.70,4120,-6389,-3507,-1,0,0
-168.61,150.59,-118.70,4120,-6394,-3504,-1,-1,0
-168.61,150.59,-118.71,4119,-6393,-3500,-1,-1,0
-168.61,150.59,-118.71,4119,-6400,-3516,-1,0,0
-168.61,150.59,-118.71,4119,-6396,-3516,0,0,0
-168.61,150.59,-118.71,4116,-6394,-3513,0,0,0
-168.61,150.59,-118.71,4120,-6390,-3504,0,-1,0
-168.61,150.59,-118.71,4122,-6393,-3505,-1,-1,0
-168.61,150.59,-118.71,4118,-6394,-3513,0,0,0
-168.61,150.59,-118.71,4115,-6403,-3509,0,0,0
-168.61,150.59,-118.70,4114,-6400,-3499,0,-1,0
-168.61,150.59,-118.70,4114,-6401,-3501,-1,-1,0
-168.61,150.59,-118.71,4117,-6409,-3517,0,0,-1
-168.60,150.59,-118.70,4114,-6404,-3515,0,0,-1
-168.59,150.58,-118.69,4107,-6395,-3494,0,-1,-1
-168.60,150.59,-118.70,4104,-6400,-3494,-1,-1,0
-168.61,150.59,-118.71,4108,-6407,-3511,-1,-1,0
-168.61,150.60,-118.71,4109,-6409,-3510,0,0,-1
-168.61,150.59,-118.70,4118,-6402,-3506,0,0,-1
-168.61,150.59,-118.70,4122,-6399,-3504,-1,0,-1
-168.61,150.59,-118.71,4125,-6399,-3511,0,0,0
-168.60,150.59,-118.70,4118,-6403,-3505,0,0,0
-168.60,150.58,-118.70,4117,-6410,-3504,0,0,0
-168.60,150.58,-118.70,4111,-6412,-3503,0,0,-1
-168.59,150.58,-118.69,4116,-6400,-3504,0,0,-1
-168.59,150.58,-118.68,4112,-6408,-3492,-1,0,-1
-168.59,150.58,-118.68,4115,-6409,-3500,0,0,-1
-168.59,150.58,-118.68,4120,-6399,-3500,0,0,0
-168.57,150.57,-118.67,4112,-6397,-3495,0,0,-1
-168.58,150.57,-118.67,4112,-6391,-3506,0,0,0
-168.58,150.57,-118.67,4110,-6397,-3506,0,0,0
-168.58,150.57,-118.67,4119,-6397,-3495,-1,0,0
-168.58,150.57,-118.68,4114,-6400,-3508,-1,0,-1
-168.58,150.57,-118.68,4115,-6400,-3506,0,0,-1
-168.58,150.57,-118.67,4110,-6392,-3494,0,-1,0
-168.58,150.57,-118.68,4117,-6389,-3493,-1,-1,0
-168.59,150.58,-118.68,4118,-6399,-3503,-1,-1,0
-168.60,150.58,-118.69,4115,-6411,-3525,-1,0,0
-168.59,150.57,-118.69,4121,-6405,-3521,0,0,-1
-168.57,150.57,-118.67,4113,-6390,-3500,0,0,-1
-168.58,150.57,-118.68,4117,-6387,-3484,-1,-1,0
-168.60,150.58,-118.69,4110,-6398,-3502,-1,-1,0
-168.61,150.59,-118.71,4113,-6407,-3527,-1,-1,0
-168.61,150.59,-118.71,4106,-6410,-3532,0,0,-1
-168.60,150.58,-118.70,4107,-6398,-3509,0,0,-1
-168.60,150.58,-118.69,4111,-6394,-3495,-1,-1,0
-168.60,150.58,-118.71,4114,-6393,-3511,-1,-1,0
-168.60,150.58,-118.71,4119,-6401,-3515,0,-1,0
-168.62,150.59,-118.71,4116,-6402,-3513,-1,-1,0
-168.61,150.59,-118.71,4116,-6401,-3508,0,0,-1
-168.62,150.59,-118.71,4113,-6405,-3507,0,-1,0
-168.61,150.59,-118.71,4120,-6403,-3500,-1,-1,-1
-168.61,150.59,-118.72,4113,-6404,-3507,-1,-1,0
-168.62,150.60,-118.72,4101,-6402,-3515,0,-1,0
-168.61,150.59,-118.72,4104,-6400,-3505,0,0,0
-168.62,150.60,-118.71,4105,-6404,-3502,0,0,0
-168.61,150.59,-118.71,4120,-6405,-3506,-1,-1,0
-168.62,150.60,-118.72,4119,-6402,-3518,-1,-1,0
-168.62,150.60,-118.72,4119,-6400,-3514,-1,0,0
-168.62,150.60,-118.72,4115,-6394,-3507,0,0,0
-168.63,150.60,-118.72,4100,-6393,-3517,-1,0,-1
-168.62,150.60,-118.72,4110,-6393,-3511,0,0,0
-168.61,150.59,-118.70,4103,-6404,-3490,0,0,-1
-168.61,150.59,-118.70,4111,-6401,-3481,-1,-1,0
-168.62,150.60,-118.72,4103,-6399,-3496,-1,-1,-1
-168.62,150.60,-118.72,4109,-6397,-3513,-1,-1,0
-168.63,150.60,-118.72,4110,-6398,-3518,0,0,-1
-168.62,150.60,-118.72,4112,-6393,-3505,-1,0,0
-168.62,150.60,-118.72,4116,-6396,-3507,-1,0,0
-168.62,150.60,-118.72,4113,-6389,-3505,0,-1,0
-168.62,150.60,-118.72,4112,-6390,-3496,-1,-1,0
-168.62,150.60,-118.72,4109,-6402,-3506,0,0,0
-168.62,150.60,-118.72,4111,-6393,-3508,0,0,0
-168.62,150.60,-118.72,4115,-6393,-3501,0,-1,0
-168.62,150.60,-118.72,4116,-6399,-3507,-1,-1,0
-168.63,150.60,-118.72,4107,-6398,-3514,0,-1,0
-168.63,150.60,-118.72,4108,-6400,-3509,-1,-1,-1
-168.63,150.60,-118.72,4118,-6398,-3510,-1,-1,0
-168.63,150.60,-118.72,4120,-6397,-3507,0,0,0
-168.63,150.60,-118.73,4120,-6402,-3504,-1,-1,0
-168.63,150.60,-118.73,4117,-6400,-3513,-1,0,-1
-168.63,150.60,-118.73,4116,-6401,-3510,0,-1,0
-168.64,150.61,-118.74,4113,-6400,-3514,-1,-1,0
-168.64,150.61,-118.74,4119,-6404,-3524,0,-1,0
-168.64,150.61,-118.74,4115,-6409,-3518,0,0,-1
-168.63,150.60,-118.73,4112,-6395,-3502,0,0,0
-168.62,150.60,-118.73,4107,-6386,-3488,-1,-1,0
-168.63,150.60,-118.73,4112,-6391,-3489,-1,-1,0
-168.64,150.61,-118.74,4108,-6398,-3505,-1,-1,0
-168.65,150.61,-118.75,4113,-6403,-3520,0,0,0
-168.64,150.61,-118.74,4110,-6399,-3530,0,0,-1
-168.64,150.61,-118.74,4108,-6388,-3514,0,0,-1
-168.63,150.60,-118.74,4114,-6394,-3504,-1,-1,0
-168.64,150.61,-118.74,4110,-6394,-3514,-1,-1,0
-168.65,150.61,-118.75,4115,-6402,-3521,0,-1,0
-168.65,150.61,-118.75,4119,-6405,-3522,0,0,0
-168.64,150.60,-118.75,4121,-6401,-3515,0,0,-1
-168.63,150.60,-118.75,4119,-6396,-3510,0,0,-1
-168.63,150.60,-118.75,4115,-6388,-3506,-1,-1,0
-168.64,150.60,-118.76,4117,-6392,-3525,-1,-1,0
-168.64,150.60,-118.76,4111,-6394,-3529,0,0,0
-168.64,150.60,-118.76,4107,-6400,-3519,-1,-1,-1
-168.64,150.60,-118.76,4104,-6398,-3512,-1,-1,0
-168.64,150.61,-118.76,4109,-6402,-3505,0,-1,0
-168.65,150.61,-118.76,4110,-6403,-3512,-1,0,0
-168.65,150.61,-118.75,4108,-6402,-3513,0,0,0
-168.65,150.62,-118.75,4099,-6403,-3508,0,0,-1
-168.64,150.61,-118.74,4105,-6399,-3506,-1,0,0
-168.64,150.61,-118.74,4105,-6404,-3504,-1,0,-1
-168.65,150.61,-118.75,4108,-6403,-3516,0,0,0
-168.65,150.61,-118.74,4109,-6405,-3510,0,0,0
-168.65,150.61,-118.75,4107,-6399,-3509,-1,-1,-1
-168.65,150.61,-118.75,4114,-6403,-3509,-1,-1,0
-168.66,150.62,-118.76,4112,-6401,-3507,0,-1,0
-168.66,150.62,-118.76,4108,-6408,-3509,-1,0,0
-168.66,150.62,-118.76,4114,-6400,-3522,0,0,-1
-168.66,150.62,-118.76,4109,-6398,-3521,0,-1,0
-168.66,150.62,-118.76,4108,-6399,-3513,-1,-1,0
-168.66,150.62,-118.76,4114,-6395,-3516,-1,-1,0
-168.66,150.62,-118.76,4115,-6402,-3517,0,0,0
-168.66,150.62,-118.76,4109,-6401,-3519,0,0,-1
-168.66,150.62,-118.76,4110,-6401,-3505,-1,0,0
-168.65,150.61,-118.76,4112,-6392,-3502,0,-1,-1
-168.65,150.61,-118.76,4110,-6402,-3503,-1,-1,0
-168.65,150.61,-118.76,4108,-6398,-3499,-1,0,-1
-168.65,150.61,-118.75,4104,-6397,-3510,0,0,-1
-168.65,150.61,-118.75,4107,-6393,-3499,-1,-1,0
-168.66,150.61,-118.76,4116,-6399,-3516,0,0,0
-168.66,150.61,-118.76,4116,-6406,-3511,0,0,-1
-168.64,150.60,-118.75,4117,-6397,-3506,0,0,-1
-168.63,150.60,-118.73,4114,-6386,-3494,0,0,-1
-168.63,150.59,-118.74,4119,-6383,-3494,-1,-1,0
-168.64,150.60,-118.75,4116,-6396,-3496,-1,-1,0
-168.64,150.60,-118.75,4123,-6406,-3511,0,0,0
-168.63,150.60,-118.73,4115,-6406,-3511,0,0,-1
-168.63,150.59,-118.73,4108,-6400,-3506,0,0,-1
-168.62,150.59,-118.73,4108,-6396,-3505,0,0,-1
-168.62,150.58,-118.73,4112,-6393,-3507,0,0,0
-168.62,150.58,-118.73,4113,-6390,-3504,0,-1,0
-168.62,150.58,-118.73,4114,-6389,-3499,-1,-1,0
-168.62,150.59,-118.73,4114,-6395,-3512,-1,0,-1
-168.62,150.58,-118.74,4116,-6397,-3524,0,0,-1
-168.61,150.58,-118.72,4121,-6389,-3503,0,0,-1
-168.60,150.58,-118.72,4118,-6381,-3492,-1,-1,-1
-168.61,150.58,-118.73,4119,-6389,-3503,-1,-1,0
-168.62,150.58,-118.74,4116,-6394,-3505,0,-1,0
-168.62,150.58,-118.74,4116,-6394,-3503,0,0,0
-168.61,150.58,-118.72,4116,-6400,-3496,0,0,0
-168.61,150.58,-118.72,4114,-6397,-3495,0,-1,0
-168.62,150.58,-118.73,4113,-6397,-3491,-1,-1,0
-168.62,150.58,-118.73,4110,-6393,-3504,-1,-1,0
-168.62,150.59,-118.72,4111,-6394,-3509,0,0,0
-168.61,150.59,-118.72,4109,-6391,-3493,0,0,-1
-168.62,150.59,-118.72,4111,-6403,-3502,-1,0,0
-168.61,150.59,-118.72,4119,-6397,-3513,0,0,0
-168.62,150.59,-118.71,4107,-6394,-3500,0,-1,0
-168.62,150.59,-118.72,4109,-6393,-3495,-1,-1,0
-168.63,150.59,-118.73,4103,-6405,-3517,-1,-1,0
-168.63,150.59,-118.73,4112,-6409,-3522,0,0,-1
-168.62,150.60,-118.72,4110,-6404,-3516,0,0,-1
-168.62,150.59,-118.72,4105,-6400,-3502,-1,-1,0
-168.62,150.60,-118.72,4107,-6400,-3501,-1,-1,0
-168.62,150.60,-118.72,4111,-6402,-3504,0,-1,0
-168.62,150.60,-118.72,4108,-6402,-3507,0,0,0
-168.62,150.60,-118.72,4106,-6397,-3511,0,-1,0
-168.62,150.60,-118.72,4101,-6395,-3510,0,0,0
-168.62,150.60,-118.72,4105,-6400,-3507,-1,0,0
-168.64,150.60,-118.72,4112,-6402,-3510,-1,-1,0
-168.63,150.60,-118.72,4115,-6396,-3514,0,0,-1
-168.63,150.60,-118.72,4111,-6396,-3515,0,0,0
-168.64,150.60,-118.72,4105,-6395,-3506,0,0,0
-168.64,150.60,-118.73,4111,-6393,-3513,-1,0,0
-168.64,150.60,-118.73,4106,-6396,-3510,0,0,-1
-168.64,150.60,-118.72,4106,-6396,-3509,0,0,0
-168.63,150.60,-118.72,4107,-6400,-3499,0,0,0
-168.63,150.60,-118.72,4111,-6405,-3500,0,0,0
-168.63,150.60,-118.72,4113,-6398,-3499,-1,0,0
-168.63,150.60,-118.72,4114,-6400,-3509,0,-1,0
-168.64,150.60,-118.72,4110,-6399,-3502,0,-1,0
-168.64,150.60,-118.72,4105,-6404,-3511,-1,-1,0
-168.64,150.60,-118.72,4106,-6410,-3519,0,0,-1
-168.63,150.60,-118.71,4109,-6402,-3510,0,0,-1
-168.62,150.60,-118.70,4106,-6390,-3482,-1,-1,-1
-168.63,150.60,-118.71,4109,-6384,-3494,-1,-1,0
-168.64,150.60,-118.72,4113,-6396,-3507,-1,-1,0
-168.64,150.61,-118.73,4120,-6409,-3529,0,0,0
-168.63,150.61,-118.72,4115,-6413,-3523,0,0,-1
-168.63,150.60,-118.70,4103,-6401,-3513,0,0,-1
-168.63,150.60,-118.71,4108,-6395,-3507,-1,-1,0
-168.63,150.60,-118.72,4112,-6399,-3525,-1,0,0
-168.63,150.60,-118.72,4118,-6403,-3525,0,0,0
-168.63,150.60,-118.71,4112,-6402,-3508,0,0,0
-168.63,150.60,-118.71,4120,-6408,-3503,-1,0,0
-168.63,150.60,-118.71,4115,-6401,-3500,-1,0,0
-168.63,150.60,-118.71,4108,-6397,-3488,0,-1,-1
-168.63,150.60,-118.71,4111,-6403,-3487,-1,-1,0
-168.63,150.60,-118.71,4115,-6399,-3505,0,0,-1
-168.63,150.60,-118.71,4112,-6395,-3498,0,0,0
-168.62,150.60,-118.70,4111,-6394,-3488,0,0,0
-168.62,150.60,-118.70,4112,-6400,-3504,-1,-1,0
-168.62,150.60,-118.70,4115,-6398,-3501,0,0,0
-168.62,150.60,-118.70,4111,-6396,-3502,0,0,0
-168.62,150.60,-118.70,4111,-6392,-3514,0,0,0
-168.62,150.60,-118.70,4107,-6395,-3509,0,0,0
-168.62,150.60,-118.70,4115,-6396,-3512,0,0,-1
-168.62,150.60,-118.70,4113,-6391,-3508,0,0,0
-168.62,150.60,-118.70,4108,-6395,-3503,-1,-1,-1
-168.62,150.60,-118.70,4111,-6398,-3506,-1,-1,0
-168.62,150.60,-118.71,4115,-6398,-3506,-1,-1,0
-168.63,150.60,-118.71,4114,-6398,-3517,-1,-1,0
-168.63,150.60,-118.71,4120,-6401,-3518,0,-1,0
-168.63,150.60,-118.71,4113,-6402,-3511,0,0,-1
-168.63,150.60,-118.71,4112,-6398,-3510,0,0,-1
-168.63,150.60,-118.71,4117,-6396,-3502,0,0,-1
-168.62,150.59,-118.71,4118,-6392,-3509,0,0,-1
-168.62,150.60,-118.71,4117,-6395,-3502,-1,-1,0
-168.63,150.60,-118.72,4114,-6399,-3514,0,0,-1
-168.62,150.60,-118.71,4113,-6407,-3503,0,0,0
-168.61,150.59,-118.70,4115,-6402,-3495,0,0,-1
-168.61,150.59,-118.70,-258,-258,-258,-1,-1,-258
