Yaw,Pitch,Roll,AX,AY,AZ,GX,GY,GZ
-168.46,149.24,-118.08,4284,-6346,-3381,0,0,0
-168.46,149.24,-118.06,4273,-6338,-3368,0,-1,0
-168.47,149.25,-118.07,4284,-6343,-3370,-1,-1,0
-168.48,149.25,-118.08,4288,-6358,-3395,-1,-1,0
-168.48,149.25,-118.08,4289,-6352,-3400,0,0,-1
-168.46,149.24,-118.06,4284,-6340,-3379,0,0,0
-168.46,149.24,-118.06,4283,-6327,-3380,-1,-1,0
-168.47,149.24,-118.06,4279,-6339,-3383,0,0,0
-168.46,149.25,-118.05,4281,-6348,-3373,0,0,-1
-168.46,149.25,-118.05,4280,-6351,-3368,-1,-1,0
-168.47,149.24,-118.06,4288,-6356,-3390,-1,0,-1
-168.47,149.24,-118.06,4279,-6350,-3397,0,0,-1
-168.46,149.24,-118.06,4279,-6349,-3377,-1,-1,-1
-168.47,149.24,-118.06,4275,-6351,-3371,-1,-1,-1
-168.47,149.24,-118.07,4282,-6353,-3386,-1,0,0
-168.46,149.24,-118.07,4279,-6352,-3381,0,0,-1
-168.46,149.24,-118.07,4276,-6347,-3377,-1,-1,-1
-168.46,149.24,-118.08,4278,-6341,-3380,0,-1,-1
-168.46,149.24,-118.08,4278,-6335,-3384,0,-1,0
-168.47,149.24,-118.08,4285,-6338,-3391,-1,-1,0
-168.48,149.25,-118.09,4285,-6347,-3402,-1,-1,0
-168.48,149.25,-118.08,4284,-6347,-3401,0,0,0
-168.47,149.25,-118.07,4275,-6352,-3387,0,0,-1
-168.47,149.25,-118.07,4270,-6351,-3382,-1,0,0
-168.47,149.25,-118.07,4272,-6353,-3387,-1,0,0
-168.47,149.25,-118.07,4266,-6352,-3389,0,0,-1
-168.47,149.25,-118.07,4275,-6345,-3378,-1,-1,0
-168.48,149.25,-118.08,4273,-6346,-3388,-1,0,-1
-168.48,149.25,-118.08,4279,-6350,-3391,0,0,0
-168.47,149.25,-118.07,4278,-6346,-3387,0,0,-1
-168.47,149.25,-118.07,4274,-6337,-3378,-1,-1,0
-168.48,149.25,-118.08,4283,-6341,-3378,-1,-1,0
-168.48,149.25,-118.08,4279,-6342,-3382,0,0,0
-168.47,149.25,-118.07,4283,-6346,-3389,0,0,0
-168.47,149.25,-118.07,4282,-6349,-3392,0,0,-1
-168.47,149.25,-118.07,4288,-6346,-3389,-1,0,0
-168.47,149.25,-118.07,4282,-6337,-3388,0,0,0
-168.47,149.25,-118.07,4275,-6335,-3377,-1,-1,0
-168.48,149.25,-118.07,4275,-6345,-3377,-1,-1,0
-168.48,149.25,-118.07,4278,-6352,-3389,0,0,0
-168.47,149.25,-118.07,4280,-6347,-3386,0,0,0
-168.47,149.25,-118.06,4277,-6349,-3382,0,0,-1
-168.47,149.25,-118.06,4278,-6347,-3375,-1,-1,-1
-168.47,149.25,-118.07,4278,-6350,-3384,-1,0,0
-168.47,149.25,-118.07,4279,-6352,-3392,0,-1,-1
-168.47,149.25,-118.07,4276,-6355,-3397,-1,0,0
-168.47,149.25,-118.07,4269,-6356,-3394,0,0,-1
-168.46,149.25,-118.06,4278,-6342,-3387,0,0,-1
-168.46,149.24,-118.06,4283,-6334,-3385,-1,-1,-1
-168.47,149.24,-118.07,4290,-6344,-3395,0,0,0
-168.45,149.24,-118.05,4288,-6345,-3391,0,0,0
-168.44,149.23,-118.04,4277,-6339,-3370,0,0,-1
-168.44,149.23,-118.04,4272,-6340,-3367,-1,-1,0
-168.46,149.24,-118.05,4288,-6347,-3380,-1,-1,0
-168.46,149.24,-118.05,4282,-6348,-3388,0,0,-1
-168.44,149.23,-118.04,4281,-6342,-3381,0,0,0
-168.44,149.23,-118.04,4279,-6347,-3379,-1,0,-1
-168.45,149.24,-118.04,4279,-6348,-3386,0,0,0
-168.44,149.23,-118.04,4286,-6355,-3374,0,0,-1
-168.44,149.23,-118.03,4286,-6354,-3374,-1,0,-1
-168.44,149.23,-118.03,4286,-6353,-3372,-1,0,-1
-168.44,149.22,-118.04,4277,-6348,-3366,-1,-1,0
-168.44,149.22,-118.04,4277,-6345,-3370,-1,-1,0
-168.45,149.23,-118.05,4285,-6347,-3378,-1,-1,0
-168.45,149.23,-118.05,4289,-6348,-3387,-1,0,-1
-168.45,149.23,-118.05,4284,-6349,-3387,0,0,-1
-168.44,149.22,-118.05,4289,-6349,-3381,0,0,-1
-168.44,149.22,-118.05,4284,-6339,-3368,-1,-1,0
-168.45,149.23,-118.05,4278,-6342,-3362,-1,-1,0
-168.46,149.23,-118.06,4280,-6342,-3388,-1,-1,0
-168.46,149.23,-118.06,4288,-6352,-3397,0,0,0
-168.45,149.24,-118.05,4286,-6337,-3394,0,0,0
-168.45,149.23,-118.05,4283,-6341,-3381,-1,-1,0
-168.46,149.24,-118.06,4272,-6343,-3396,0,0,0
-168.46,149.24,-118.05,4280,-6352,-3391,0,0,0
-168.46,149.24,-118.05,4274,-6358,-3388,0,0,-1
-168.45,149.23,-118.05,4285,-6355,-3376,-1,-1,0
-168.45,149.23,-118.06,4288,-6352,-3382,-1,-1,-1
-168.46,149.23,-118.06,4294,-6344,-3395,0,-1,0
-168.46,149.23,-118.06,4288,-6343,-3393,0,0,0
-168.46,149.23,-118.07,4290,-6340,-3382,-1,-1,0
-168.46,149.23,-118.07,4289,-6340,-3388,-1,-1,0
-168.46,149.23,-118.07,4283,-6343,-3385,0,-1,0
-168.46,149.23,-118.07,4278,-6341,-3390,-1,0,0
-168.46,149.24,-118.08,4278,-6338,-3389,-1,-1,0
-168.46,149.24,-118.08,4277,-6342,-3381,0,-1,0
-168.46,149.24,-118.08,4272,-6340,-3382,0,-1,0
-168.46,149.24,-118.08,4276,-6351,-3391,0,0,0
-168.46,149.24,-118.08,4282,-6355,-3392,0,0,0
-168.46,149.24,-118.07,4287,-6348,-3382,0,0,0
-168.46,149.24,-118.06,4285,-6353,-3385,-1,-1,-1
-168.46,149.24,-118.07,4283,-6350,-3395,-1,-1,0
-168.46,149.24,-118.08,4277,-6353,-3393,-1,0,0
-168.46,149.24,-118.08,4275,-6349,-3390,0,0,-1
-168.46,149.24,-118.08,4281,-6344,-3391,-1,-1,-1
-168.47,149.24,-118.08,4280,-6350,-3386,-1,-1,0
-168.46,149.24,-118.08,4282,-6350,-3391,0,0,0
-168.46,149.24,-118.08,4281,-6345,-3378,0,-1,-1
-168.47,149.24,-118.08,4291,-6345,-3376,-1,-1,-1
-168.47,149.23,-118.09,4301,-6349,-3395,-1,0,0
-168.47,149.24,-118.08,4286,-6351,-3407,0,0,0
-168.46,149.23,-118.07,4280,-6350,-3391,0,0,0
-168.46,149.24,-118.06,4267,-6347,-3368,-1,-1,0
-168.47,149.24,-118.08,4274,-6355,-3378,-1,-1,0
-168.49,149.25,-118.09,4273,-6357,-3406,0,0,-1
-168.47,149.24,-118.08,4281,-6339,-3398,0,0,0
-168.48,149.25,-118.08,4281,-6337,-3392,-1,0,0
-168.48,149.25,-118.08,4282,-6345,-3391,0,0,0
-168.48,149.25,-118.08,4278,-6345,-3393,0,0,-1
-168.46,149.24,-118.06,4280,-6350,-3381,-1,-1,0
-168.47,149.24,-118.07,4274,-6348,-3390,-1,-1,-1
-168.47,149.24,-118.08,4280,-6348,-3400,0,0,0
-168.47,149.24,-118.07,4281,-6345,-3396,0,0,0
-168.47,149.24,-118.07,4285,-6346,-3384,-1,-1,0
-168.47,149.24,-118.08,4282,-6348,-3392,-1,-1,-1
-168.48,149.24,-118.09,4282,-6349,-3404,0,0,-1
-168.47,149.24,-118.08,4279,-6344,-3399,0,0,-1
-168.47,149.24,-118.08,4276,-6341,-3396,-1,0,-1
-168.48,149.24,-118.09,4275,-6339,-3398,0,-1,0
-168.48,149.24,-118.09,4277,-6335,-3393,0,-1,0
-168.49,149.25,-118.09,4276,-6341,-3397,-1,-1,0
-168.49,149.25,-118.10,4275,-6347,-3405,0,0,0
-168.48,149.25,-118.09,4276,-6345,-3412,0,0,0
-168.48,149.24,-118.08,4272,-6343,-3408,0,0,0
-168.48,149.25,-118.08,4273,-6348,-3390,0,0,0
-168.48,149.24,-118.08,4278,-6348,-3386,-1,-1,0
-168.48,149.24,-118.08,4277,-6349,-3391,-1,0,-1
-168.48,149.24,-118.08,4282,-6355,-3393,0,0,-1
-168.47,149.24,-118.08,4281,-6350,-3391,-1,0,-1
-168.47,149.24,-118.08,4280,-6345,-3388,-1,-1,-1
-168.47,149.24,-118.08,4283,-6348,-3387,0,-1,0
-168.47,149.24,-118.08,4284,-6348,-3380,0,-1,0
-168.47,149.24,-118.08,4284,-6343,-3375,-1,0,0
-168.47,149.24,-118.08,4281,-6346,-3370,-1,-1,-1
-168.47,149.24,-118.08,4280,-6349,-3380,0,0,-1
-168.47,149.24,-118.08,4282,-6344,-3384,0,-1,0
-168.47,149.24,-118.08,4283,-6342,-3383,-1,-1,0
-168.47,149.24,-118.08,4288,-6340,-3393,0,0,0
-168.47,149.24,-118.08,4284,-6348,-3397,0,0,0
-168.46,149.23,-118.07,4290,-6341,-3384,0,0,-1
-168.47,149.24,-118.07,4282,-6336,-3375,-1,-1,0
-168.47,149.24,-118.08,4285,-6347,-3383,-1,-1,0
-168.47,149.24,-118.08,4281,-6351,-3400,0,0,-1
-168.47,149.24,-118.07,4280,-6338,-3381,0,0,-1
-168.47,149.24,-118.07,4282,-6343,-3372,-1,-1,-1
-168.48,149.24,-118.09,4281,-6346,-3392,-1,-1,0
-168.48,149.24,-118.09,4286,-6354,-3404,0,0,-1
-168.46,149.23,-118.08,4280,-6346,-3393,0,0,-1
-168.46,149.23,-118.07,4283,-6341,-3384,-1,-1,0
-168.47,149.24,-118.08,4281,-6342,-3385,-1,-1,0
-168.47,149.23,-118.09,4290,-6344,-3400,-1,-1,0
-168.49,149.24,-118.10,4295,-6342,-3411,0,0,0
-168.47,149.23,-118.09,4287,-6341,-3400,0,0,0
-168.46,149.23,-118.08,4280,-6334,-3386,0,0,0
-168.46,149.23,-118.08,4281,-6340,-3381,-1,-1,0
-168.47,149.23,-118.08,4285,-6349,-3385,0,-1,0
-168.47,149.23,-118.08,4288,-6353,-3381,0,0,0
-168.47,149.23,-118.08,4285,-6354,-3383,0,0,0
-168.47,149.23,-118.08,4287,-6347,-3386,-1,-1,0
-168.47,149.23,-118.08,4283,-6349,-3392,0,-1,0
-168.47,149.24,-118.08,4282,-6349,-3400,-1,-1,-1
-168.48,149.24,-118.09,4286,-6348,-3398,-1,-1,0
-168.47,149.23,-118.09,4285,-6344,-3390,0,-1,-1
-168.47,149.24,-118.08,4277,-6344,-3386,0,-1,-1
-168.47,149.24,-118.08,4280,-6349,-3392,0,0,0
-168.47,149.24,-118.08,4276,-6347,-3386,0,0,0
-168.46,149.23,-118.07,4289,-6348,-3374,0,-1,0
-168.47,149.24,-118.07,4279,-6348,-3382,-1,0,0
-168.47,149.24,-118.07,4273,-6350,-3395,0,0,0
-168.47,149.24,-118.07,4273,-6354,-3393,0,0,-1
-168.46,149.24,-118.06,4282,-6350,-3385,0,0,0
-168.46,149.24,-118.06,4286,-6347,-3381,-1,-1,-1
-168.47,149.24,-118.07,4285,-6346,-3384,0,-1,0
-168.46,149.24,-118.06,4284,-6350,-3387,0,-1,0
-168.47,149.24,-118.07,4277,-6351,-3378,-1,-1,0
-168.47,149.24,-118.07,4278,-6343,-3379,0,0,0
-168.47,149.24,-118.06,4278,-6340,-3380,-1,-1,0
-168.47,149.24,-118.07,4281,-6333,-3389,-1,-1,-1
-168.47,149.24,-118.08,4288,-6333,-3391,0,0,0
-168.47,149.24,-118.07,4292,-6337,-3391,0,0,-1
-168.46,149.23,-118.07,4288,-6336,-3386,0,-1,0
-168.46,149.23,-118.07,4291,-6341,-3374,0,-1,0
-168.46,149.23,-118.07,4288,-6338,-3371,0,-1,0
-168.46,149.24,-118.07,4287,-6343,-3389,-1,-1,0
-168.47,149.24,-118.07,4276,-6351,-3385,0,0,0
-168.47,149.24,-118.06,4279,-6352,-3381,0,0,0
-168.46,149.24,-118.06,4280,-6340,-3383,0,0,-1
-168.46,149.23,-118.07,4284,-6336,-3389,-1,-1,0
-168.47,149.24,-118.07,4277,-6338,-3395,0,0,-1
-168.46,149.23,-118.07,4278,-6343,-3386,0,0,-1
-168.46,149.23,-118.07,4277,-6345,-3387,-1,0,-1
-168.46,149.24,-118.08,4280,-6347,-3388,-1,-1,0
-168.47,149.24,-118.08,4284,-6348,-3397,-1,0,-1
-168.46,149.23,-118.07,4282,-6348,-3388,0,0,0
-168.45,149.23,-118.05,4274,-6340,-3365,0,0,-1
-168.45,149.23,-118.05,4279,-6340,-3354,-1,-1,0
-168.46,149.23,-118.07,4285,-6352,-3372,-1,-1,0
-168.47,149.24,-118.07,4284,-6360,-3398,0,0,0
-168.46,149.23,-118.06,4286,-6356,-3386,0,0,-1
-168.45,149.23,-118.05,4283,-6341,-3372,-1,-1,0
-168.46,149.24,-118.06,4285,-6343,-3370,-1,-1,0
-168.46,149.24,-118.05,4280,-6348,-3383,0,-1,0
-168.46,149.24,-118.05,4285,-6349,-3383,-1,-1,0
-168.47,149.24,-118.06,4278,-6355,-3388,-1,-1,0
-168.47,149.24,-118.06,4281,-6343,-3387,0,0,-1
-168.46,149.24,-118.06,4281,-6347,-3379,0,-1,-1
-168.47,149.24,-118.06,4284,-6350,-3383,-1,-1,0
-168.47,149.24,-118.07,4289,-6350,-3392,-1,-1,0
-168.47,149.24,-118.07,4284,-6354,-3394,0,0,-1
-168.47,149.24,-118.07,4279,-6351,-3390,0,0,0
-168.47,149.24,-118.07,4283,-6350,-3389,0,0,-1
-168.46,149.24,-118.08,4291,-6347,-3387,-1,-1,0
-168.47,149.24,-118.07,4291,-6353,-3399,0,-1,0
-168.48,149.25,-118.08,4285,-6352,-3393,0,-1,0
-168.48,149.25,-118.08,4284,-6352,-3385,-1,-1,0
-168.48,149.25,-118.08,4292,-6352,-3386,-1,-1,0
-168.48,149.25,-118.08,4286,-6355,-3400,-1,0,-1
-168.48,149.25,-118.08,4286,-6357,-3406,0,0,0
-168.47,149.25,-118.07,4275,-6355,-3401,0,0,-1
-168.47,149.24,-118.06,4283,-6348,-3378,-1,-1,0
-168.47,149.24,-118.07,4282,-6342,-3383,-1,-1,-1
-168.48,149.25,-118.08,4283,-6342,-3393,-1,-1,0
-168.47,149.24,-118.07,4276,-6342,-3389,0,0,-1
-168.47,149.24,-118.07,4278,-6343,-3388,0,0,0
-168.47,149.24,-118.07,4277,-6341,-3392,-1,0,-1
-168.47,149.24,-118.07,4281,-6335,-3396,0,0,0
-168.47,149.24,-118.07,4288,-6333,-3382,0,0,0
-168.46,149.23,-118.07,4291,-6329,-3388,-1,-1,0
-168.46,149.23,-118.07,4283,-6334,-3390,0,-1,0
-168.47,149.24,-118.07,4279,-6339,-3395,-1,-1,0
-168.47,149.24,-118.07,4284,-6345,-3398,0,0,-1
-168.47,149.24,-118.07,4285,-6346,-3394,0,0,0
-168.46,149.24,-118.06,4286,-6344,-3371,0,-1,0
-168.47,149.24,-118.07,4279,-6343,-3377,-1,-1,0
-168.47,149.24,-118.07,4279,-6353,-3384,-1,-1,0
-168.47,149.24,-118.07,4276,-6350,-3389,0,0,-1
-168.48,149.24,-118.08,4284,-6344,-3391,-1,-1,0
-168.47,149.24,-118.08,4290,-6339,-3389,0,-1,-1
-168.48,149.24,-118.08,4284,-6342,-3387,-1,-1,0
-168.48,149.25,-118.09,4286,-6351,-3386,0,0,-1
-168.48,149.24,-118.08,4284,-6348,-3383,-1,-1,0
-168.48,149.25,-118.09,4283,-6345,-3383,-1,0,-1
-168.48,149.24,-118.09,4282,-6346,-3394,0,0,0
-168.47,149.24,-118.08,4284,-6343,-3389,0,0,0
-168.47,149.24,-118.08,4282,-6344,-3387,0,-1,0
-168.48,149.24,-118.08,4291,-6345,-3373,-1,-1,0
-168.49,149.25,-118.10,4285,-6352,-3390,-1,-1,0
-168.49,149.25,-118.10,4285,-6353,-3404,0,-1,0
-168.49,149.25,-118.09,4279,-6346,-3391,0,0,0
-168.49,149.25,-118.09,4284,-6353,-3381,-1,-1,0
-168.50,149.26,-118.09,4277,-6358,-3405,0,-1,0
-168.50,149.26,-118.09,4282,-6352,-3399,0,0,0
-168.49,149.26,-118.09,4281,-6346,-3392,-1,0,-1
-168.50,149.26,-118.10,4276,-6352,-3384,-1,-1,-1
-168.50,149.26,-118.10,4275,-6352,-3380,0,0,-1
-168.49,149.25,-118.10,4273,-6346,-3382,0,-1,0
-168.50,149.26,-118.10,4278,-6339,-3387,-1,-1,0
-168.51,149.26,-118.11,4277,-6346,-3392,-1,-1,0
-168.51,149.26,-118.11,4273,-6356,-3392,0,0,0
-168.50,149.26,-118.10,4267,-6355,-3386,0,0,-1
-168.49,149.25,-118.10,4282,-6344,-3375,0,0,-1
-168.49,149.25,-118.10,4279,-6339,-3379,-1,-1,0
-168.51,149.26,-118.11,4286,-6342,-3400,-1,-1,0
-168.51,149.26,-118.11,4289,-6348,-3402,0,0,0
-168.50,149.27,-118.10,4288,-6351,-3397,0,0,-1
-168.50,149.27,-118.10,4286,-6349,-3394,-1,0,0
-168.50,149.26,-118.10,4295,-6347,-3402,-1,0,-1
-168.50,149.26,-118.10,4285,-6350,-3401,0,0,-1
-168.49,149.25,-118.09,4287,-6351,-3395,0,0,0
-168.49,149.25,-118.09,4284,-6356,-3380,-1,-1,-1
-168.50,149.26,-118.10,4282,-6356,-3387,-1,-1,0
-168.50,149.26,-118.10,4281,-6352,-3397,0,-1,-1
-168.50,149.26,-118.10,4283,-6346,-3401,-1,0,0
-168.50,149.26,-118.10,4282,-6346,-3400,0,0,-1
-168.50,149.26,-118.11,4286,-6349,-3402,0,0,0
-168.49,149.25,-118.10,4279,-6350,-3385,0,-1,0
-168.50,149.26,-118.10,4288,-6347,-3377,-1,-1,0
-168.50,149.26,-118.10,4284,-6346,-3388,-1,-1,0
-168.50,149.26,-118.10,4280,-6346,-3392,0,-1,0
-168.51,149.26,-118.11,4280,-6343,-3406,0,-1,0
-168.51,149.26,-118.11,4278,-6339,-3405,-1,-1,0
-168.52,149.27,-118.12,4276,-6341,-3403,-1,-1,0
-168.52,149.27,-118.12,4277,-6342,-3404,-1,-1,-1
-168.52,149.26,-118.13,4279,-6343,-3401,-1,0,-1
-168.51,149.26,-118.12,4269,-6341,-3394,0,0,-1
-168.51,149.26,-118.12,4273,-6345,-3389,-1,0,-1
-168.51,149.26,-118.12,4276,-6348,-3389,0,0,0
-168.52,149.27,-118.12,4278,-6353,-3398,0,0,-1
-168.51,149.26,-118.12,4282,-6349,-3401,0,-1,0
-168.51,149.26,-118.12,4281,-6345,-3406,0,0,-1
-168.51,149.26,-118.12,4286,-6345,-3395,-1,0,0
-168.51,149.26,-118.12,4287,-6350,-3398,0,0,-1
-168.50,149.25,-118.12,4283,-6353,-3409,0,0,-1
-168.49,149.25,-118.11,4277,-6348,-3399,0,0,-1
-168.49,149.25,-118.10,4266,-6340,-3385,0,0,-1
-168.49,149.25,-118.10,4275,-6344,-3376,-1,-1,0
-168.50,149.25,-118.11,4281,-6357,-3393,-1,-1,-1
-168.49,149.25,-118.11,4276,-6358,-3405,0,0,0
-168.48,149.25,-118.09,4274,-6344,-3384,0,0,-1
-168.48,149.24,-118.08,4269,-6343,-3382,0,0,0
-168.47,149.24,-118.08,4272,-6350,-3381,0,0,0
-168.47,149.24,-118.08,4273,-6351,-3381,0,0,-1
-168.47,149.24,-118.08,4270,-6353,-3387,0,0,-1
-168.47,149.24,-118.07,4275,-6344,-3373,0,0,-1
-168.47,149.23,-118.07,4280,-6351,-3376,-1,-1,-1
-168.47,149.23,-118.08,4284,-6343,-3375,-1,-1,0
-168.47,149.23,-118.08,4290,-6347,-3382,-1,-1,0
-168.47,149.23,-118.08,4286,-6350,-3386,-1,-1,-1
-168.48,149.24,-118.09,4284,-6350,-3391,-1,-1,0
-168.48,149.23,-118.10,4279,-6345,-3392,0,0,-1
-168.47,149.23,-118.08,4282,-6334,-3376,0,-1,0
-168.48,149.24,-118.09,4281,-6341,-3363,-1,-1,0
-168.49,149.24,-118.10,4281,-6343,-3393,-1,-1,0
-168.48,149.24,-118.09,4292,-6348,-3397,0,0,0
-168.47,149.24,-118.08,4282,-6338,-3382,0,0,-1
-168.48,149.24,-118.09,4277,-6342,-3384,-1,-1,0
-168.49,149.25,-118.09,4282,-6351,-3399,-1,0,0
-168.49,149.24,-118.09,4281,-6355,-3398,0,0,-1
-168.47,149.24,-118.08,4283,-6351,-3381,0,0,0
-168.48,149.24,-118.09,4287,-6349,-3394,-1,-1,-1
-168.49,149.24,-118.10,4282,-6347,-3391,-1,-1,0
-168.49,149.24,-118.10,4280,-6349,-3381,-1,-1,0
-168.49,149.24,-118.10,4283,-6347,-3391,-1,-1,0
-168.49,149.24,-118.10,4284,-6350,-3392,0,-1,0
-168.49,149.24,-118.10,4283,-6346,-3395,0,0,-1
-168.50,149.24,-118.11,4288,-6343,-3397,0,-1,0
-168.50,149.25,-118.11,4287,-6343,-3403,-1,-1,0
-168.50,149.25,-118.11,4289,-6345,-3394,0,0,0
-168.50,149.24,-118.11,4284,-6340,-3388,0,0,0
-168.50,149.25,-118.11,4282,-6343,-3385,0,0,0
-168.50,149.25,-118.11,4290,-6354,-3393,-1,-1,0
-168.50,149.25,-118.11,4288,-6360,-3398,0,-1,0
-168.50,149.25,-118.11,4289,-6354,-3391,0,-1,0
-168.50,149.25,-118.11,4286,-6347,-3388,-1,0,0
-168.50,149.25,-118.11,4284,-6345,-3389,-1,-1,0
-168.50,149.25,-118.11,4275,-6347,-3385,-1,0,0
-168.50,149.25,-118.11,4284,-6348,-3384,-1,-1,0
-168.50,149.25,-118.11,4282,-6340,-3388,-1,-1,0
-168.50,149.25,-118.11,4282,-6344,-3402,-1,0,0
-168.50,149.25,-118.11,4283,-6350,-3403,0,0,0
-168.50,149.25,-118.11,4279,-6349,-3387,-1,-1,-1
-168.51,149.25,-118.12,4287,-6351,-3380,-1,-1,-1
-168.51,149.25,-118.12,4286,-6350,-3404,0,0,-1
-168.50,149.24,-118.11,4284,-6334,-3394,0,0,0
-168.49,149.24,-118.10,4280,-6332,-3373,-1,-1,0
-168.50,149.25,-118.11,4272,-6340,-3389,-1,-1,0
-168.50,149.25,-118.11,4276,-6347,-3402,-1,-1,0
-168.51,149.25,-118.12,4280,-6349,-3406,0,0,-1
-168.50,149.25,-118.11,4279,-6340,-3393,0,0,-1
-168.50,149.25,-118.11,4278,-6342,-3388,0,0,0
-168.50,149.25,-118.10,4275,-6336,-3394,0,0,0
-168.50,149.25,-118.10,4274,-6343,-3400,0,0,0
-168.50,149.25,-118.10,4274,-6346,-3394,0,0,-1
-168.50,149.25,-118.10,4273,-6339,-3394,-1,0,0
-168.49,149.24,-118.10,4274,-6338,-3397,0,0,-1
-168.49,149.24,-118.10,4280,-6343,-3389,-1,-1,0
-168.50,149.24,-118.11,4282,-6347,-3397,0,-1,0
-168.50,149.24,-118.11,4285,-6347,-3407,0,0,0
-168.50,149.24,-118.11,4290,-6351,-3405,0,0,-1
-168.50,149.24,-118.11,4289,-6347,-3393,0,-1,0
-168.50,149.24,-118.11,4282,-6347,-3384,-1,-1,0
-168.50,149.24,-118.11,4280,-6350,-3392,-1,-1,0
-168.50,149.25,-118.11,4286,-6349,-3394,0,-1,0
-168.51,149.25,-118.11,4281,-6348,-3395,0,-1,0
-168.51,149.25,-118.11,4283,-6353,-3396,0,0,0
-168.51,149.25,-118.11,4285,-6353,-3404,0,0,0
-168.51,149.25,-118.11,4284,-6348,-3396,0,0,-1
-168.51,149.25,-118.10,4280,-6352,-3391,0,0,0
-168.50,149.25,-118.10,4282,-6347,-3392,0,0,0
-168.50,149.25,-118.10,4282,-6344,-3382,0,0,0
-168.50,149.25,-118.10,4287,-6346,-3386,-1,-1,0
-168.50,149.25,-118.10,4286,-6343,-3393,-1,-1,-1
-168.50,149.25,-118.11,4282,-6344,-3391,-1,0,0
-168.49,149.24,-118.10,4283,-6342,-3390,0,0,-1
-168.49,149.24,-118.10,4287,-6338,-3388,0,-1,0
-168.50,149.25,-118.11,4279,-6339,-3391,-1,-1,0
-168.50,149.25,-118.11,4283,-6347,-3397,0,0,0
-168.49,149.24,-118.10,4283,-6349,-3392,0,0,-1
-168.49,149.25,-118.09,4284,-6341,-3381,0,-1,0
-168.49,149.25,-118.09,4279,-6337,-3382,-1,-1,0
-168.50,149.25,-118.10,4285,-6343,-3405,-1,-1,0
-168.49,149.24,-118.10,4290,-6347,-3412,0,0,-1
-168.49,149.25,-118.09,4289,-6356,-3400,0,0,0
-168.49,149.25,-118.09,4287,-6361,-3390,-1,-1,-1
-168.49,149.25,-118.09,4285,-6352,-3396,0,0,0
-168.49,149.25,-118.09,4280,-6354,-3381,0,0,0
-168.49,149.25,-118.09,4277,-6355,-3379,0,0,-1
-168.49,149.25,-118.09,4279,-6353,-3383,-1,-1,0
-168.49,149.25,-118.09,4282,-6354,-3393,-1,-1,-1
-168.49,149.25,-118.09,4290,-6355,-3387,0,0,0
-168.49,149.25,-118.09,4277,-6351,-3391,0,0,-1
-168.47,149.24,-118.07,4278,-6339,-3378,0,0,0
-168.48,149.25,-118.08,4283,-6345,-3378,-1,-1,0
-168.49,149.25,-118.09,4281,-6352,-3381,-1,-1,0
-168.49,149.25,-118.09,4279,-6352,-3392,0,0,0
-168.49,149.26,-118.08,4278,-6347,-3395,0,0,0
-168.49,149.26,-118.08,4284,-6340,-3397,0,0,0
-168.49,149.26,-118.07,4280,-6347,-3388,-1,-1,0
-168.49,149.26,-118.08,4285,-6353,-3393,0,-1,0
-168.49,149.26,-118.08,4283,-6352,-3393,0,-1,0
-168.49,149.26,-118.08,4284,-6353,-3383,-1,-1,0
-168.49,149.26,-118.08,4280,-6354,-3383,-1,0,-1
-168.49,149.26,-118.08,4281,-6358,-3386,0,0,0
-168.49,149.26,-118.07,4284,-6351,-3389,0,-1,-1
-168.49,149.26,-118.08,4280,-6350,-3383,-1,-1,0
-168.49,149.26,-118.09,4288,-6361,-3403,0,0,-1
-168.49,149.26,-118.07,4276,-6359,-3402,0,0,-1
-168.47,149.25,-118.07,4283,-6354,-3396,0,0,-1
-168.47,149.25,-118.07,4285,-6348,-3396,-1,-1,0
-168.49,149.26,-118.07,4280,-6352,-3401,-1,-1,0
-168.49,149.26,-118.07,4279,-6354,-3395,0,0,0
-168.49,149.26,-118.07,4282,-6352,-3390,0,0,-1
-168.48,149.25,-118.07,4281,-6352,-3390,0,0,-1
-168.48,149.25,-118.07,4274,-6347,-3378,0,-1,0
-168.48,149.25,-118.07,4276,-6347,-3373,-1,-1,0
-168.49,149.26,-118.07,4271,-6347,-3380,-1,-1,0
-168.49,149.26,-118.08,4279,-6351,-3391,0,-1,-1
-168.49,149.26,-118.08,4279,-6351,-3389,0,-1,0
-168.49,149.26,-118.08,4287,-6346,-3398,-1,0,-1
-168.49,149.25,-118.09,4280,-6349,-3392,-1,0,-1
-168.49,149.25,-118.09,4284,-6344,-3392,0,-1,0
-168.49,149.25,-118.09,4276,-6348,-3388,-1,-1,0
-168.50,149.26,-118.09,4282,-6341,-3387,-1,-1,0
-168.50,149.26,-118.10,4279,-6341,-3395,0,-1,0
-168.50,149.26,-118.09,4279,-6347,-3391,0,0,0
-168.50,149.26,-118.09,4269,-6346,-3390,0,-1,0
-168.50,149.26,-118.09,4274,-6345,-3385,-1,-1,0
-168.51,149.27,-118.09,4276,-6353,-3391,0,-1,0
-168.51,149.27,-118.09,4271,-6350,-3392,0,-1,0
-168.51,149.27,-118.09,4279,-6348,-3393,0,-1,-1
-168.51,149.27,-118.09,4279,-6350,-3392,-1,-1,0
-168.51,149.27,-118.09,4287,-6348,-3393,0,0,-1
-168.50,149.27,-118.09,4284,-6346,-3394,0,0,-1
-168.49,149.26,-118.08,4285,-6347,-3391,0,0,0
-168.50,149.27,-118.09,4280,-6349,-3386,-1,0,-1
-168.49,149.26,-118.08,4285,-6350,-3392,0,0,-1
-168.49,149.25,-118.09,4286,-6354,-3397,0,0,-1
-168.49,149.25,-118.08,4293,-6351,-3391,0,0,-1
-168.49,149.25,-118.08,4283,-6349,-3390,0,0,-1
-168.48,149.25,-118.08,4279,-6344,-3382,0,0,0
-168.48,149.25,-118.07,4277,-6343,-3375,-1,-1,0
-168.49,149.26,-118.08,4278,-6355,-3388,-1,-1,0
-168.50,149.26,-118.09,4275,-6355,-3417,0,0,-1
-168.49,149.26,-118.08,4275,-6343,-3412,0,0,0
-168.49,149.26,-118.08,4272,-6340,-3398,-1,-1,0
-168.50,149.26,-118.08,4276,-6340,-3398,-1,-1,0
-168.50,149.26,-118.08,4277,-6350,-3394,0,0,0
-168.50,149.26,-118.08,4282,-6348,-3386,0,0,0
-168.49,149.25,-118.08,4280,-6346,-3375,-1,-1,-1
-168.50,149.26,-118.08,4279,-6343,-3390,-1,0,-1
-168.49,149.25,-118.08,4278,-6343,-3384,0,0,-1
-168.50,149.26,-118.08,4276,-6347,-3388,-1,-1,-1
-168.49,149.25,-118.09,4282,-6344,-3380,-1,-1,0
-168.50,149.26,-118.09,4279,-6349,-3384,-1,0,-1
-168.49,149.25,-118.09,4285,-6352,-3406,0,0,-1
-168.49,149.25,-118.08,4283,-6349,-3393,0,0,-1
-168.49,149.25,-118.08,4287,-6339,-3374,-1,-1,0
-168.49,149.25,-118.09,4280,-6345,-3381,-1,-1,0
-168.50,149.26,-118.10,4286,-6349,-3403,0,-1,0
-168.50,149.26,-118.09,4283,-6351,-3402,0,0,0
-168.49,149.26,-118.09,4284,-6353,-3393,-1,0,0
-168.50,149.26,-118.09,4282,-6351,-3393,-1,-1,0
-168.50,149.26,-118.09,4277,-6351,-3383,0,-1,0
-168.50,149.27,-118.09,4274,-6352,-3377,-1,-1,-1
-168.50,149.26,-118.09,4280,-6349,-3383,-1,-1,0
-168.51,149.26,-118.10,4285,-6338,-3389,0,-1,-1
-168.50,149.26,-118.10,4281,-6345,-3381,-1,-1,-1
-168.52,149.26,-118.11,4281,-6353,-3387,-1,-1,0
-168.52,149.26,-118.12,4282,-6352,-3396,-1,-1,0
-168.52,149.26,-118.12,4282,-6343,-3391,-1,-1,-1
-168.52,149.26,-118.12,4287,-6335,-3394,-1,-1,-1
-168.53,149.27,-118.13,4282,-6337,-3401,-1,-1,0
-168.53,149.27,-118.13,4282,-6335,-3397,0,-1,0
-168.53,149.27,-118.13,4281,-6341,-3398,-1,-1,0
-168.53,149.27,-118.13,4282,-6345,-3396,0,0,0
-168.53,149.27,-118.13,4281,-6343,-3393,0,-1,0
-168.53,149.27,-118.13,4285,-6347,-3404,0,0,0
-168.53,149.27,-118.13,4281,-6353,-3400,0,0,-1
-168.53,149.27,-118.13,4277,-6354,-3406,0,0,-1
-168.53,149.27,-118.13,4274,-6347,-3388,-1,-1,-1
-168.53,149.27,-118.13,4276,-6349,-3393,-1,-1,-1
-168.54,149.27,-118.14,4280,-6348,-3403,0,-1,0
-168.53,149.27,-118.13,4284,-6351,-3400,0,0,-1
-168.54,149.27,-118.14,4276,-6347,-3403,-1,-1,-1
-168.54,149.27,-118.14,4286,-6345,-3406,-1,-1,0
-168.54,149.28,-118.15,4284,-6345,-3411,0,-1,0
-168.54,149.28,-118.15,4281,-6350,-3409,-1,-1,0
-168.54,149.28,-118.15,4278,-6346,-3400,0,-1,0
-168.54,149.28,-118.15,4284,-6347,-3398,-1,-1,-1
-168.54,149.27,-118.15,4284,-6350,-3393,-1,-1,-1
-168.55,149.28,-118.16,4287,-6353,-3406,0,0,-1
-168.54,149.28,-118.15,4280,-6346,-3413,0,0,-1
-168.54,149.28,-118.15,4276,-6336,-3396,0,-1,0
-168.55,149.28,-118.15,4272,-6339,-3389,-1,-1,0
-168.56,149.29,-118.16,4276,-6350,-3400,-1,-1,0
-168.56,149.29,-118.16,4277,-6355,-3412,0,0,-1
-168.56,149.29,-118.16,4273,-6357,-3402,0,0,-1
-168.55,149.29,-118.16,4267,-6353,-3400,0,0,-1
-168.55,149.28,-118.15,4265,-6341,-3395,0,0,-1
-168.55,149.29,-118.15,4272,-6348,-3398,-1,0,0
-168.55,149.29,-118.15,4274,-6357,-3399,0,0,-1
-168.55,149.29,-118.14,4268,-6362,-3396,0,0,-1
-168.55,149.29,-118.14,4262,-6350,-3401,0,0,-1
-168.55,149.29,-118.15,4263,-6347,-3398,-1,-1,-1
-168.55,149.29,-118.15,4267,-6342,-3404,-1,-1,0
-168.55,149.29,-118.15,4268,-6341,-3397,0,0,-1
-168.55,149.29,-118.15,4272,-6344,-3401,0,0,-1
-168.55,149.28,-118.15,4278,-6347,-3397,0,0,-1
-168.55,149.28,-118.15,4273,-6342,-3396,0,-1,-1
-168.55,149.28,-118.15,4275,-6339,-3398,-1,-1,0
-168.55,149.28,-118.15,4281,-6346,-3417,0,-1,0
-168.55,149.28,-118.15,4279,-6347,-3415,0,0,-1
-168.54,149.29,-118.14,4280,-6347,-3406,0,0,0
-168.54,149.28,-118.14,4278,-6346,-3396,0,0,-1
-168.53,149.28,-118.13,4274,-6343,-3396,0,0,-1
-168.53,149.28,-118.12,4276,-6347,-3385,0,0,-1
-168.52,149.27,-118.12,4272,-6348,-3380,0,0,-1
-168.52,149.27,-118.11,4272,-6349,-3373,-1,-1,-1
-168.52,149.27,-118.12,4275,-6345,-3382,-1,-1,-1
-168.52,149.27,-118.12,4281,-6347,-3391,-1,-1,-1
-168.52,149.27,-118.12,4269,-6349,-3390,-1,-1,-1
-168.53,149.27,-118.13,4269,-6345,-3392,-1,-1,-1
-168.52,149.27,-118.13,4274,-6336,-3398,-1,-1,-1
-168.52,149.27,-118.13,4281,-6341,-3398,-1,-1,0
-168.53,149.27,-118.13,4286,-6351,-3400,0,0,0
-168.52,149.27,-118.13,4283,-6344,-3399,0,0,-1
-168.52,149.27,-118.13,4285,-6340,-3401,0,0,-1
-168.53,149.27,-118.13,4284,-6341,-3405,0,0,0
-168.53,149.27,-118.13,4279,-6340,-3404,0,0,0
-168.52,149.27,-118.13,4275,-6343,-3401,0,0,-1
-168.52,149.27,-118.12,4275,-6348,-3394,0,0,-1
-168.52,149.27,-118.13,4280,-6348,-3396,-1,-1,0
-168.53,149.27,-118.13,4283,-6352,-3397,-1,-1,-1
-168.53,149.27,-118.13,4282,-6349,-3398,-1,0,-1
-168.52,149.26,-118.13,4279,-6344,-3404,0,0,-1
-168.52,149.26,-118.13,4282,-6341,-3391,-1,-1,0
-168.53,149.27,-118.14,4289,-6336,-3398,-1,-1,0
-168.52,149.26,-118.14,4293,-6339,-3397,0,0,0
-168.52,149.26,-118.13,4291,-6336,-3394,0,0,-1
-168.52,149.26,-118.13,4285,-6340,-3389,-1,-1,0
-168.52,149.26,-118.14,4276,-6343,-3402,-1,0,-1
-168.52,149.26,-118.14,4279,-6348,-3395,0,0,-1
-168.52,149.26,-118.13,4280,-6347,-3383,-1,-1,-1
-168.52,149.26,-118.14,4284,-6337,-3393,-1,-1,-1
-168.52,149.26,-118.14,4281,-6340,-3404,0,0,-1
-168.51,149.26,-118.12,4276,-6330,-3391,0,0,-1
-168.51,149.26,-118.12,4279,-6332,-3373,-1,-1,0
-168.52,149.26,-118.14,4284,-6341,-3389,-1,-1,0
-168.53,149.27,-118.15,4286,-6352,-3408,0,0,0
-168.53,149.27,-118.14,4282,-6345,-3404,0,0,-1
-168.52,149.26,-118.13,4279,-6346,-3391,0,0,0
-168.52,149.26,-118.13,4278,-6345,-3385,-1,-1,-1
-168.52,149.26,-118.13,4275,-6355,-3398,0,0,-1
-168.52,149.26,-118.13,4281,-6358,-3401,0,0,-1
-168.51,149.26,-118.12,4275,-6348,-3394,-1,0,-1
-168.51,149.26,-118.12,4274,-6350,-3401,-1,-1,-1
-168.51,149.26,-118.12,4277,-6351,-3399,0,-1,-1
-168.51,149.26,-118.12,4283,-6340,-3390,-1,-1,-1
-168.52,149.26,-118.13,4279,-6348,-3394,-1,-1,-1
-168.52,149.26,-118.14,4277,-6349,-3389,-1,-1,-1
-168.51,149.26,-118.12,4282,-6353,-3389,0,0,-1
-168.51,149.26,-118.12,4281,-6350,-3393,0,-1,-1
-168.51,149.25,-118.13,4290,-6345,-3393,-1,-1,-1
-168.51,149.25,-118.13,4288,-6343,-3398,-1,-1,0
-168.52,149.26,-118.14,4289,-6343,-3405,0,-1,0
-168.52,149.26,-118.14,4286,-6345,-3406,0,0,0
-168.51,149.26,-118.12,4287,-6348,-3403,0,0,-1
-168.51,149.26,-118.12,4287,-6345,-3399,0,0,0
-168.50,149.25,-118.11,4282,-6345,-3387,0,0,-1
-168.50,149.26,-118.11,4275,-6355,-3384,0,0,-1
-168.49,149.25,-118.11,4279,-6357,-3381,0,0,-1
-168.49,149.25,-118.10,4282,-6354,-3375,-1,-1,0
-168.50,149.26,-118.11,4286,-6352,-3390,-1,-1,-1
-168.50,149.25,-118.12,4289,-6355,-3401,0,0,-1
-168.49,149.25,-118.11,4288,-6352,-3392,0,0,-1
-168.48,149.23,-118.11,4292,-6343,-3383,-1,-1,-1
-168.50,149.24,-118.11,4283,-6348,-3381,-1,-1,0
-168.50,149.24,-118.11,4286,-6344,-3394,0,0,0
-168.50,149.24,-118.11,4280,-6349,-3398,0,0,0
-168.50,149.24,-118.11,4278,-6349,-3397,0,0,0
-168.49,149.25,-118.11,4279,-6346,-3400,0,0,0
-168.49,149.25,-118.11,4273,-6345,-3389,0,0,0
-168.49,149.25,-118.11,4271,-6344,-3379,-1,-1,-1
-168.50,149.25,-118.11,4279,-6356,-3398,-1,-1,-1
-168.50,149.25,-118.11,4282,-6350,-3406,0,0,-1
-168.49,149.25,-118.11,4276,-6346,-3396,0,0,-1
-168.50,149.25,-118.11,4272,-6347,-3389,-1,-1,-1
-168.50,149.26,-118.11,4275,-6350,-3393,-1,-1,-1
-168.51,149.25,-118.12,4272,-6354,-3403,0,0,0
-168.50,149.26,-118.11,4272,-6356,-3399,0,0,-1
-168.50,149.26,-118.11,4274,-6346,-3384,0,-1,-1
-168.51,149.25,-118.12,4279,-6343,-3379,-1,-1,-1
-168.51,149.25,-118.13,4290,-6345,-3388,-1,0,-1
-168.50,149.25,-118.12,4287,-6350,-3395,0,0,-1
-168.49,149.24,-118.10,4285,-6351,-3385,0,0,-1
-168.49,149.25,-118.10,4277,-6342,-3380,-1,-1,0
-168.51,149.25,-118.12,4278,-6341,-3390,-1,-1,0
-168.51,149.26,-118.12,4281,-6350,-3393,-1,-1,0
-168.51,149.26,-118.12,4283,-6349,-3409,0,0,-1
-168.50,149.25,-118.11,4280,-6341,-3398,0,0,-1
-168.50,149.26,-118.11,4264,-6338,-3391,-1,-1,0
-168.51,149.25,-118.12,4280,-6345,-3408,0,0,0
-168.50,149.26,-118.11,4283,-6353,-3399,0,0,-1
-168.50,149.25,-118.11,4286,-6347,-3390,0,0,-1
-168.50,149.25,-118.11,4281,-6341,-3383,-1,-1,-1
-168.50,149.25,-118.11,4276,-6344,-3385,-1,-1,-1
-168.50,149.25,-118.11,4281,-6348,-3390,0,0,-1
-168.50,149.24,-118.11,4280,-6347,-3392,-1,0,-1
-168.50,149.24,-118.11,4279,-6351,-3390,-1,-1,-1
-168.50,149.24,-118.11,4284,-6352,-3390,0,-1,0
-168.50,149.24,-118.11,4279,-6352,-3387,0,-1,-1
-168.50,149.25,-118.12,4278,-6347,-3386,-1,-1,0
-168.51,149.26,-118.12,4279,-6344,-3392,-1,-1,0
-168.51,149.26,-118.12,4279,-6342,-3397,0,0,0
-168.51,149.26,-118.11,4279,-6346,-3380,0,-1,0
-168.51,149.26,-118.11,4282,-6347,-3389,0,0,0
-168.51,149.26,-118.11,4277,-6347,-3396,0,0,-1
-168.50,149.26,-118.10,4275,-6344,-3395,0,0,-1
-168.50,149.26,-118.09,4276,-6351,-3384,-1,-1,0
-168.50,149.27,-118.10,4278,-6355,-3396,0,0,-1
-168.50,149.27,-118.10,4278,-6354,-3398,-1,0,-1
-168.51,149.26,-118.11,4285,-6351,-3398,-1,-1,-1
-168.50,149.26,-118.10,4288,-6352,-3395,-1,0,-1
-168.51,149.26,-118.11,4282,-6348,-3406,-1,-1,-1
-168.51,149.26,-118.11,4286,-6348,-3409,0,0,-1
-168.51,149.26,-118.11,4276,-6346,-3408,0,0,-1
-168.50,149.25,-118.11,4283,-6347,-3401,0,-1,-1
-168.51,149.26,-118.12,4283,-6347,-3399,-1,-1,0
-168.51,149.26,-118.12,4285,-6350,-3409,0,0,-1
-168.51,149.26,-118.12,4283,-6342,-3403,0,0,0
-168.50,149.26,-118.11,4289,-6340,-3392,0,0,-1
-168.51,149.26,-118.11,4278,-6343,-3384,-1,-1,0
-168.51,149.26,-118.11,4281,-6345,-3395,0,-1,-1
-168.51,149.26,-118.12,4279,-6342,-3407,0,0,-1
-168.51,149.26,-118.12,4277,-6344,-3403,-1,0,-1
-168.51,149.26,-118.12,4283,-6346,-3404,0,0,-1
-168.51,149.26,-118.11,4275,-6342,-3402,0,0,0
-168.49,149.25,-118.10,4271,-6337,-3384,0,-1,0
-168.51,149.26,-118.12,4280,-6341,-3388,-1,-1,0
-168.52,149.26,-118.13,4277,-6350,-3406,-1,-1,-1
-168.52,149.26,-118.13,4275,-6343,-3410,0,0,-1
-168.52,149.27,-118.12,4271,-6337,-3391,0,0,-1
-168.51,149.26,-118.11,4272,-6348,-3381,-1,-1,0
-168.52,149.27,-118.12,4268,-6341,-3388,-1,-1,0
-168.52,149.27,-118.12,4270,-6341,-3385,0,0,0
-168.52,149.27,-118.11,4273,-6344,-3385,-1,-1,0
-168.53,149.28,-118.12,4274,-6344,-3391,-1,0,-1
-168.52,149.27,-118.12,4279,-6343,-3385,0,0,-1
-168.52,149.27,-118.12,4276,-6338,-3379,-1,-1,0
-168.52,149.27,-118.12,4273,-6343,-3382,-1,-1,-1
-168.52,149.27,-118.12,4278,-6348,-3390,-1,-1,-1
-168.54,149.28,-118.14,4273,-6348,-3398,-1,-1,0
-168.53,149.27,-118.13,4281,-6346,-3410,0,0,-1
-168.52,149.27,-118.12,4275,-6351,-3390,0,0,-1
-168.52,149.27,-118.12,4275,-6336,-3387,-1,-1,-1
-168.53,149.27,-118.13,4276,-6334,-3396,-1,-1,0
-168.54,149.28,-118.14,4273,-6338,-3403,0,0,0
-168.53,149.28,-118.13,4280,-6345,-3407,0,0,0
-168.53,149.28,-118.12,4282,-6341,-3388,-1,0,0
-168.53,149.28,-118.12,4281,-6350,-3395,-1,0,-1
-168.53,149.27,-118.13,4282,-6353,-3405,0,0,0
-168.53,149.28,-118.12,4279,-6353,-3404,0,0,-1
-168.53,149.28,-118.13,4273,-6351,-3390,-1,-1,-1
-168.53,149.27,-118.13,4274,-6351,-3391,-1,-1,-1
-168.53,149.27,-118.13,4278,-6349,-3387,-1,-1,0
-168.53,149.27,-118.13,4282,-6353,-3390,-1,-1,-1
-168.54,149.28,-118.14,4278,-6357,-3398,-1,0,-1
-168.54,149.28,-118.14,4273,-6348,-3391,-1,-1,-1
-168.54,149.28,-118.14,4278,-6348,-3398,-1,0,-1
-168.54,149.28,-118.15,4282,-6349,-3406,0,-1,0
-168.54,149.28,-118.15,4280,-6346,-3410,0,-1,0
-168.55,149.28,-118.15,4278,-6349,-3404,0,-1,0
-168.55,149.29,-118.14,4280,-6355,-3402,0,-1,0
-168.55,149.29,-118.14,4269,-6350,-3398,0,-1,-1
-168.55,149.29,-118.15,4271,-6349,-3400,-1,-1,-1
-168.56,149.29,-118.15,4268,-6352,-3403,-1,0,-1
-168.55,149.29,-118.15,4275,-6349,-3412,0,0,-1
-168.55,149.29,-118.13,4261,-6346,-3400,0,-1,0
-168.55,149.29,-118.13,4265,-6341,-3384,-1,-1,-1
-168.56,149.30,-118.16,4267,-6352,-3407,-1,-1,0
-168.57,149.30,-118.16,4281,-6353,-3415,0,-1,-1
-168.56,149.30,-118.16,4285,-6347,-3404,0,0,-1
-168.56,149.29,-118.14,4278,-6342,-3398,0,0,0
-168.56,149.30,-118.15,4273,-6343,-3392,-1,-1,0
-168.56,149.30,-118.16,4270,-6353,-3406,-1,-1,0
-168.58,149.31,-118.16,4267,-6358,-3407,0,0,-1
-168.58,149.31,-118.16,4264,-6358,-3402,-1,-1,-1
-168.58,149.31,-118.16,4267,-6345,-3406,0,0,-1
-168.57,149.30,-118.16,4268,-6337,-3399,0,-1,-1
-168.58,149.31,-118.16,4267,-6347,-3390,-1,-1,0
-168.59,149.31,-118.17,4273,-6346,-3402,-1,-1,-1
-168.59,149.31,-118.17,4279,-6348,-3405,0,0,-1
-168.58,149.31,-118.17,4270,-6352,-3403,0,0,-1
-168.57,149.30,-118.16,4273,-6343,-3394,0,-1,-1
-168.57,149.30,-118.17,4272,-6339,-3404,-1,-1,0
-168.59,149.31,-118.18,4272,-6339,-3416,-1,-1,0
-168.59,149.31,-118.19,4278,-6344,-3426,0,0,0
-168.59,149.31,-118.18,4274,-6343,-3423,0,0,-1
-168.59,149.31,-118.17,4268,-6344,-3400,0,0,0
-168.59,149.31,-118.17,4272,-6342,-3403,-1,0,-1
-168.58,149.31,-118.17,4268,-6343,-3408,0,0,-1
-168.58,149.31,-118.17,4269,-6344,-3407,0,0,-1
-168.57,149.30,-118.16,4270,-6345,-3391,0,0,-1
-168.58,149.30,-118.17,4275,-6347,-3397,-1,-1,-1
-168.57,149.30,-118.16,4277,-6350,-3402,0,0,-1
-168.57,149.30,-118.16,4268,-6355,-3399,0,0,-1
-168.57,149.30,-118.16,4272,-6349,-3404,-1,0,-1
-168.56,149.29,-118.16,4279,-6346,-3397,0,0,-1
-168.56,149.29,-118.16,4281,-6347,-3403,0,0,-1
-168.55,149.29,-118.15,4280,-6340,-3387,0,0,-1
-168.55,149.28,-118.14,4279,-6337,-3385,0,-1,0
-168.55,149.29,-118.15,4272,-6342,-3391,-1,-1,0
-168.55,149.29,-118.15,4273,-6343,-3406,0,0,0
-168.55,149.29,-118.15,4277,-6343,-3405,0,0,0
-168.55,149.29,-118.15,4270,-6345,-3401,0,0,-1
-168.55,149.29,-118.15,4273,-6347,-3396,0,0,0
-168.55,149.29,-118.15,4275,-6351,-3397,-1,-1,-1
-168.55,149.29,-118.15,4280,-6354,-3398,-1,-1,-1
-168.55,149.29,-118.15,4279,-6354,-3397,-1,-1,-1
-168.55,149.29,-118.15,4275,-6356,-3399,0,0,-1
-168.55,149.29,-118.15,4272,-6344,-3394,0,-1,0
-168.55,149.29,-118.15,4271,-6343,-3386,-1,-1,0
-168.56,149.29,-118.15,4269,-6348,-3392,-1,-1,0
-168.57,149.29,-118.16,4276,-6342,-3398,0,-1,0
-168.57,149.29,-118.16,4277,-6340,-3402,0,0,0
-168.56,149.29,-118.15,4282,-6347,-3386,-1,0,0
-168.56,149.29,-118.15,4277,-6353,-3382,0,0,-1
-168.56,149.29,-118.14,4273,-6344,-3376,-1,-1,0
-168.56,149.29,-118.15,4279,-6342,-3388,-1,-1,0
-168.57,149.29,-118.16,4279,-6350,-3408,0,0,-1
-168.56,149.29,-118.15,4279,-6344,-3405,0,0,-1
-168.56,149.29,-118.14,4272,-6337,-3388,0,0,-1
-168.56,149.29,-118.14,4279,-6340,-3388,-1,-1,0
-168.57,149.30,-118.15,4285,-6350,-3406,-1,-1,0
-168.57,149.30,-118.16,4278,-6355,-3423,0,0,0
-168.57,149.30,-118.16,4267,-6351,-3424,0,0,-1
-168.57,149.31,-118.15,4262,-6350,-3414,-1,0,0
-168.58,149.31,-118.16,4275,-6350,-3411,-1,0,0
-168.57,149.31,-118.15,4277,-6350,-3406,0,0,0
-168.57,149.30,-118.14,4279,-6343,-3396,0,0,-1
-168.57,149.30,-118.14,4277,-6341,-3391,-1,0,-1
-168.57,149.30,-118.15,4272,-6344,-3399,-1,0,-1
-168.57,149.30,-118.15,4272,-6342,-3392,0,0,-1
-168.57,149.30,-118.15,4271,-6333,-3384,0,-1,-1
-168.57,149.30,-118.15,4276,-6335,-3386,-1,-1,0
-168.58,149.30,-118.16,4279,-6343,-3418,0,0,-1
-168.57,149.29,-118.16,4279,-6348,-3411,0,0,-1
-168.56,149.29,-118.15,4281,-6344,-3392,0,-1,-1
-168.57,149.30,-118.15,4269,-6339,-3391,-1,-1,0
-168.57,149.30,-118.16,4272,-6335,-3404,-1,-1,0
-168.57,149.30,-118.16,4269,-6339,-3415,0,0,-1
-168.57,149.30,-118.15,4271,-6341,-3405,0,0,0
-168.57,149.30,-118.15,4271,-6346,-3407,0,0,-1
-168.57,149.30,-118.14,4268,-6355,-3406,0,0,0
-168.56,149.30,-118.14,4268,-6357,-3400,0,0,0
-168.56,149.30,-118.13,4271,-6358,-3387,-1,-1,-1
-168.56,149.30,-118.14,4275,-6354,-3395,-1,-1,-1
-168.56,149.30,-118.14,4279,-6355,-3397,0,0,-1
-168.56,149.29,-118.15,4285,-6350,-3405,-1,0,-1
-168.56,149.29,-118.15,4284,-6351,-3397,-1,-1,-1
-168.56,149.29,-118.15,4282,-6346,-3398,-1,0,-1
-168.56,149.29,-118.15,4279,-6347,-3402,0,0,-1
-168.56,149.29,-118.15,4283,-6344,-3406,-1,0,-1
-168.56,149.28,-118.15,4286,-6342,-3398,0,0,0
-168.56,149.28,-118.15,4279,-6339,-3399,0,-1,0
-168.56,149.29,-118.15,4274,-6339,-3407,0,0,0
-168.56,149.29,-118.15,4279,-6343,-3406,0,0,0
-168.56,149.28,-118.15,4282,-6347,-3395,0,0,-1
-168.56,149.28,-118.14,4276,-6344,-3391,0,0,0
-168.56,149.28,-118.14,4279,-6343,-3396,0,0,-1
-168.55,149.28,-118.14,4284,-6343,-3390,0,0,-1
-168.55,149.28,-118.14,4281,-6337,-3389,0,0,-1
-168.55,149.28,-118.14,4275,-6345,-3384,-1,-1,-1
-168.55,149.28,-118.14,4279,-6345,-3395,-1,0,-1
-168.55,149.28,-118.14,4275,-6342,-3394,0,0,-1
-168.54,149.27,-118.13,4283,-6345,-3390,0,-1,0
-168.54,149.27,-118.13,4281,-6349,-3379,-1,0,-1
-168.54,149.27,-118.13,4285,-6352,-3401,0,0,0
-168.54,149.27,-118.12,4282,-6357,-3400,0,0,-1
-168.52,149.26,-118.11,4283,-6351,-3389,0,0,-1
-168.52,149.26,-118.11,4274,-6343,-3376,-1,-1,-1
-168.52,149.26,-118.12,4288,-6343,-3391,-1,-1,-1
-168.53,149.26,-118.12,4284,-6345,-3405,0,0,-1
-168.51,149.26,-118.11,4278,-6345,-3397,0,0,-1
-168.51,149.26,-118.10,4272,-6339,-3380,0,-1,0
-168.52,149.26,-118.11,4268,-6343,-3376,-1,-1,0
-168.53,149.27,-118.12,4282,-6350,-3394,-1,-1,0
-168.54,149.27,-118.13,4284,-6357,-3418,0,0,-1
-168.53,149.27,-118.12,4277,-6349,-3419,0,0,-1
-168.52,149.27,-118.11,4270,-6341,-3399,0,0,-1
-168.52,149.27,-118.11,4265,-6338,-3392,-1,-1,0
-168.54,149.27,-118.12,4276,-6349,-3395,-1,0,0
-168.54,149.27,-118.12,4275,-6355,-3403,0,0,-1
-168.54,149.27,-118.12,4277,-6351,-3402,0,0,-1
-168.52,149.26,-118.12,4282,-6340,-3390,-1,-1,-1
-168.54,149.27,-118.12,4281,-6344,-3390,-1,-1,0
-168.54,149.27,-118.13,4276,-6347,-3387,-1,-1,0
-168.54,149.27,-118.13,4279,-6349,-3401,-1,-1,-1
-168.54,149.27,-118.13,4277,-6350,-3406,0,0,-1
-168.53,149.26,-118.13,4280,-6346,-3401,0,0,-1
-168.53,149.26,-118.13,4277,-6337,-3391,-1,-1,-1
-168.54,149.27,-118.13,4282,-6343,-3387,-1,-1,0
-168.55,149.28,-118.14,4278,-6343,-3399,-1,-1,0
-168.55,149.28,-118.15,4284,-6346,-3414,0,-1,0
-168.55,149.28,-118.14,4280,-6352,-3411,0,0,-1
-168.54,149.28,-118.12,4274,-6344,-3393,0,0,-1
-168.54,149.28,-118.12,4269,-6344,-3394,-1,0,0
-168.54,149.28,-118.12,4271,-6347,-3391,0,0,0
-168.54,149.28,-118.12,4274,-6344,-3392,0,0,-1
-168.54,149.28,-118.12,4268,-6346,-3392,0,-1,-1
-168.54,149.28,-118.12,4273,-6349,-3389,-1,-1,-1
-168.55,149.28,-118.14,4271,-6347,-3395,-1,-1,0
-168.55,149.28,-118.14,4274,-6344,-3395,-1,-1,-1
-168.55,149.28,-118.14,4276,-6349,-3387,-1,-1,-1
-168.55,149.28,-118.14,4281,-6346,-3396,0,0,-1
-168.55,149.28,-118.14,4279,-6351,-3394,0,-1,-1
-168.55,149.28,-118.14,4275,-6352,-3399,-1,-1,-1
-168.56,149.28,-118.15,4278,-6350,-3398,-1,-1,0
-168.55,149.28,-118.15,4274,-6344,-3396,0,0,-1
-168.56,149.28,-118.15,4277,-6345,-3399,-1,-1,0
-168.56,149.28,-118.15,4281,-6351,-3402,-1,-1,0
-168.56,149.28,-118.15,4275,-6351,-3396,0,0,0
-168.56,149.28,-118.14,4273,-6349,-3395,0,-1,-1
-168.57,149.29,-118.15,4275,-6351,-3402,-1,0,-1
-168.56,149.28,-118.15,4282,-6352,-3411,0,0,-1
-168.55,149.27,-118.13,4271,-6353,-3414,0,0,-1
-168.52,149.25,-118.11,4273,-6349,-3405,0,0,-1
-168.51,149.24,-118.09,4274,-6348,-3389,0,0,-1
-168.48,149.22,-118.08,4294,-6342,-3379,0,0,-1
-168.48,149.23,-118.07,4285,-6341,-3363,-1,0,-1
-168.48,149.23,-118.06,4283,-6348,-3369,0,0,-1
-168.47,149.23,-118.06,4274,-6350,-3374,0,-1,0
-168.47,149.23,-118.06,4282,-6345,-3364,-1,-1,0
-168.49,149.24,-118.07,4290,-6348,-3381,-1,-1,0
-168.50,149.24,-118.09,4286,-6359,-3407,-1,0,0
-168.49,149.24,-118.08,4287,-6354,-3412,0,0,0
-168.49,149.24,-118.07,4281,-6350,-3394,0,0,0
-168.49,149.24,-118.07,4288,-6349,-3376,-1,-1,0
-168.50,149.25,-118.08,4289,-6352,-3396,-1,-1,0
-168.51,149.25,-118.08,4287,-6352,-3397,-1,-1,-1
-168.51,149.25,-118.09,4277,-6348,-3391,-1,-1,-1
-168.51,149.25,-118.09,4277,-6340,-3383,0,-1,-1
-168.52,149.26,-118.10,4277,-6334,-3373,-1,-1,0
-168.52,149.25,-118.11,4278,-6338,-3391,-1,-1,-1
-168.52,149.25,-118.11,4283,-6350,-3399,-1,-1,-1
-168.52,149.25,-118.11,4280,-6355,-3406,0,0,-1
-168.52,149.25,-118.11,4283,-6348,-3410,0,0,-1
-168.52,149.25,-118.11,4286,-6343,-3397,-1,-1,0
-168.53,149.26,-118.12,4280,-6338,-3409,-1,-1,0
-168.54,149.26,-118.13,4277,-6342,-3415,0,-1,0
-168.53,149.26,-118.12,4285,-6351,-3410,0,0,0
-168.53,149.26,-118.12,4278,-6354,-3410,0,0,-1
-168.52,149.26,-118.11,4273,-6349,-3398,0,0,0
-168.52,149.26,-118.11,4272,-6344,-3393,-1,-1,-1
-168.52,149.26,-118.11,4280,-6348,-3398,0,0,-1
-168.52,149.26,-118.11,4276,-6351,-3395,0,0,-1
-168.52,149.26,-118.11,4280,-6349,-3390,-1,-1,-1
-168.52,149.26,-118.11,4274,-6351,-3405,-1,-1,-1
-168.53,149.26,-118.12,4275,-6351,-3399,-1,0,-1
-168.53,149.26,-118.12,4271,-6350,-3396,0,0,-1
-168.52,149.26,-118.11,4281,-6348,-3390,0,0,-1
-168.53,149.26,-118.12,4285,-6343,-3393,-1,0,-1
-168.53,149.26,-118.12,4286,-6345,-3393,-1,-1,0
-168.52,149.26,-118.11,4282,-6344,-3382,0,0,-1
-168.52,149.26,-118.11,4272,-6344,-3383,-1,-1,0
-168.52,149.26,-118.11,4265,-6346,-3396,0,0,-1
-168.52,149.26,-118.10,4267,-6343,-3392,0,0,-1
-168.52,149.26,-118.10,4262,-6346,-3388,-1,0,-1
-168.52,149.26,-118.10,4265,-6349,-3388,0,0,-1
-168.52,149.26,-118.10,4270,-6344,-3377,-1,-1,-1
-168.52,149.26,-118.10,4273,-6346,-3379,-1,-1,-1
-168.53,149.26,-118.12,4285,-6354,-3393,-1,-1,-1
-168.53,149.26,-118.12,4286,-6345,-3400,0,0,0
-168.53,149.26,-118.11,4279,-6342,-3398,0,0,-1
-168.52,149.26,-118.11,4279,-6341,-3385,-1,-1,-1
-168.54,149.26,-118.13,4282,-6341,-3394,-1,-1,0
-168.55,149.27,-118.15,4284,-6344,-3407,-1,-1,0
-168.55,149.27,-118.15,4287,-6349,-3418,0,0,0
-168.55,149.27,-118.14,4277,-6349,-3402,0,0,0
-168.55,149.27,-118.14,4274,-6347,-3388,-1,-1,-1
-168.56,149.28,-118.15,4282,-6352,-3396,-1,-1,0
-168.56,149.28,-118.15,4282,-6358,-3407,-1,-1,0
-168.57,149.28,-118.16,4276,-6348,-3399,0,0,-1
-168.56,149.28,-118.15,4282,-6353,-3389,-1,-1,-1
-168.57,149.28,-118.16,4285,-6353,-3387,-1,-1,0
-168.57,149.28,-118.17,4280,-6348,-3385,-1,-1,-1
-168.58,149.29,-118.17,4277,-6341,-3383,-1,-1,-1
-168.58,149.29,-118.18,4286,-6348,-3387,-1,-1,-1
-168.58,149.29,-118.18,4283,-6344,-3400,0,0,-1
-168.58,149.29,-118.18,4274,-6338,-3399,0,0,-1
-168.58,149.29,-118.18,4275,-6335,-3382,-1,-1,0
-168.59,149.28,-118.19,4274,-6338,-3393,-1,-1,0
-168.59,149.29,-118.19,4273,-6336,-3406,0,0,0
-168.59,149.29,-118.18,4276,-6339,-3398,0,0,0
-168.58,149.29,-118.18,4279,-6338,-3392,-1,-1,0
-168.59,149.29,-118.18,4276,-6343,-3397,-1,-1,0
-168.58,149.29,-118.18,4271,-6350,-3386,0,0,0
-168.59,149.30,-118.18,4276,-6345,-3389,-1,-1,-1
-168.59,149.29,-118.18,4279,-6346,-3395,-1,0,-1
-168.58,149.29,-118.18,4276,-6338,-3390,-1,0,-1
-168.59,149.29,-118.18,4272,-6341,-3379,-1,-1,0
-168.60,149.30,-118.19,4273,-6348,-3388,-1,-1,0
-168.60,149.30,-118.20,4271,-6351,-3398,0,0,-1
-168.60,149.30,-118.19,4276,-6349,-3391,-1,0,-1
-168.59,149.29,-118.19,4278,-6342,-3395,-1,-1,-1
-168.60,149.30,-118.20,4270,-6342,-3402,-1,-1,0
-168.61,149.30,-118.20,4274,-6343,-3409,0,0,-1
-168.60,149.30,-118.20,4280,-6341,-3402,0,0,-1
-168.60,149.30,-118.19,4274,-6345,-3395,-1,-1,0
-168.61,149.30,-118.20,4270,-6354,-3400,-1,-1,0
-168.61,149.30,-118.20,4274,-6349,-3411,0,0,-1
-168.60,149.30,-118.19,4276,-6352,-3396,0,0,-1
-168.60,149.30,-118.19,4270,-6345,-3400,-1,0,-1
-168.61,149.31,-118.19,4264,-6349,-3401,-1,-1,0
-168.62,149.31,-118.20,4269,-6343,-3409,0,0,-1
-168.61,149.31,-118.19,4270,-6344,-3394,-1,-1,-1
-168.60,149.30,-118.20,4275,-6345,-3398,-1,-1,-1
-168.61,149.30,-118.21,4278,-6347,-3414,-1,0,-1
-168.61,149.30,-118.20,4281,-6352,-3412,0,0,-1
-168.60,149.30,-118.19,4273,-6343,-3393,0,0,0
-168.60,149.30,-118.19,4273,-6337,-3385,-1,-1,0
-168.61,149.30,-118.20,4278,-6345,-3403,-1,-1,0
-168.61,149.30,-118.21,4277,-6350,-3421,0,0,0
-168.61,149.30,-118.20,4270,-6341,-3413,0,0,-1
-168.60,149.30,-118.19,4269,-6335,-3401,0,0,-1
-168.61,149.31,-118.19,4268,-6336,-3403,-1,0,0
-168.60,149.30,-118.19,4273,-6352,-3405,0,0,-1
-168.60,149.30,-118.18,4266,-6353,-3401,0,0,-1
-168.59,149.30,-118.18,4279,-6354,-3386,-1,0,-1
-168.59,149.29,-118.18,4278,-6352,-3403,-1,0,-1
-168.59,149.29,-118.17,4281,-6349,-3406,0,0,0
-168.59,149.29,-118.17,4274,-6349,-3400,0,0,-1
-168.58,149.29,-118.18,4279,-6345,-3401,-1,-1,-1
-168.59,149.29,-118.19,4279,-6349,-3404,-1,0,-1
-168.58,149.28,-118.18,4284,-6347,-3424,0,0,-1
-168.57,149.27,-118.17,4274,-6343,-3403,0,0,-1
-168.57,149.27,-118.17,4274,-6337,-3393,-1,-1,0
-168.58,149.28,-118.18,4280,-6339,-3401,-1,-1,0
-168.59,149.29,-118.18,4273,-6342,-3400,0,-1,0
-168.59,149.29,-118.17,4270,-6351,-3401,0,0,0
-168.59,149.29,-118.17,4273,-6349,-3402,0,0,-1
-168.59,149.29,-118.17,4268,-6347,-3395,0,0,-1
-168.59,149.29,-118.17,4268,-6350,-3390,-1,0,-1
-168.59,149.29,-118.17,4273,-6348,-3391,-1,-1,-1
-168.59,149.29,-118.17,4274,-6342,-3392,-1,-1,-1
-168.59,149.29,-118.18,4275,-6339,-3397,-1,-1,-1
-168.59,149.29,-118.18,4277,-6345,-3396,-1,0,-1
-168.59,149.29,-118.18,4284,-6345,-3386,-1,-1,-1
-168.59,149.29,-118.19,4284,-6345,-3393,-1,-1,-1
-168.59,149.29,-118.18,4280,-6342,-3386,0,-1,-1
-168.59,149.29,-118.18,4276,-6340,-3386,-1,0,0
-168.59,149.29,-118.18,4273,-6340,-3399,-1,-1,0
-168.59,149.29,-118.18,4271,-6338,-3402,0,-1,0
-168.59,149.29,-118.18,4277,-6334,-3400,0,-1,0
-168.59,149.29,-118.18,4275,-6338,-3400,0,0,0
-168.59,149.29,-118.18,4279,-6338,-3396,-1,0,-1
-168.59,149.29,-118.18,4276,-6335,-3401,0,0,-1
-168.59,149.29,-118.18,4271,-6341,-3401,0,0,-1
-168.59,149.29,-118.18,4274,-6354,-3397,-1,0,-1
-168.59,149.29,-118.18,4268,-6348,-3401,-1,-1,0
-168.59,149.29,-118.18,4274,-6350,-3408,-1,0,-1
-168.59,149.29,-118.18,4278,-6347,-3407,-1,0,-1
-168.59,149.29,-118.19,4276,-6346,-3403,-1,-1,-1
-168.59,149.29,-118.19,4280,-6350,-3395,-1,0,-1
-168.59,149.29,-118.19,4281,-6349,-3403,0,0,-1
-168.59,149.29,-118.18,4281,-6350,-3402,-1,-1,0
-168.59,149.29,-118.19,4282,-6353,-3410,0,0,0
-168.59,149.29,-118.18,4283,-6355,-3406,0,0,0
-168.58,149.29,-118.17,4287,-6352,-3389,0,0,-1
-168.58,149.28,-118.17,4282,-6344,-3381,-1,-1,-1
-168.59,149.29,-118.19,4287,-6340,-3396,-1,-1,-1
-168.59,149.29,-118.19,4279,-6350,-3414,0,0,-1
-168.58,149.28,-118.17,4277,-6345,-3401,0,0,0
-168.58,149.28,-118.16,4272,-6332,-3385,-1,-1,-1
-168.58,149.28,-118.17,4267,-6342,-3379,-1,-1,0
-168.60,149.29,-118.18,4273,-6348,-3401,-1,-1,0
-168.60,149.30,-118.19,4271,-6346,-3412,0,0,-1
-168.60,149.29,-118.18,4268,-6344,-3402,0,0,-1
-168.60,149.29,-118.17,4265,-6345,-3392,0,0,0
-168.60,149.29,-118.17,4264,-6352,-3401,-1,0,0
-168.60,149.30,-118.17,4270,-6354,-3399,0,0,0
-168.60,149.30,-118.17,4271,-6343,-3397,-1,0,-1
-168.59,149.29,-118.17,4271,-6343,-3391,-1,0,-1
-168.59,149.29,-118.16,4276,-6349,-3393,0,0,-1
-168.59,149.29,-118.16,4274,-6341,-3381,-1,-1,-1
-168.59,149.29,-118.17,4274,-6340,-3382,-1,-1,0
-168.59,149.29,-118.17,4278,-6345,-3391,-1,-1,-1
-168.59,149.29,-118.18,4271,-6348,-3396,0,0,-1
-168.59,149.29,-118.17,4278,-6346,-3396,0,0,-1
-168.59,149.29,-118.17,4273,-6340,-3393,0,-1,0
-168.59,149.29,-118.17,4279,-6338,-3400,-1,-1,0
-168.60,149.29,-118.18,4282,-6339,-3416,-1,-1,0
-168.60,149.30,-118.19,4281,-6348,-3416,0,0,0
-168.60,149.29,-118.18,4278,-6349,-3419,0,0,-1
-168.60,149.29,-118.17,4279,-6347,-3404,0,0,-1
-168.59,149.29,-118.16,4279,-6343,-3391,0,0,-1
-168.59,149.29,-118.16,4278,-6342,-3391,0,0,-1
-168.59,149.29,-118.16,4279,-6345,-3383,-1,-1,0
-168.59,149.29,-118.17,4281,-6352,-3400,-1,-1,-1
-168.59,149.29,-118.17,4280,-6351,-3410,0,0,-1
-168.58,149.28,-118.16,4277,-6346,-3392,0,0,-1
-168.58,149.28,-118.17,4275,-6337,-3380,-1,-1,0
-168.59,149.28,-118.18,4283,-6341,-3394,-1,-1,0
-168.59,149.28,-118.18,4284,-6349,-3397,0,-1,-1
-168.58,149.28,-118.17,4276,-6347,-3392,0,0,-1
-168.58,149.28,-118.17,4272,-6342,-3394,-1,-1,-1
-168.58,149.28,-118.18,4276,-6342,-3398,-1,-1,-1
-168.58,149.28,-118.18,4270,-6337,-3404,0,0,0
-168.58,149.28,-118.17,4282,-6339,-3395,-1,0,0
-168.58,149.28,-118.17,4275,-6342,-3396,-1,0,0
-168.59,149.29,-118.17,4272,-6350,-3400,0,0,-1
-168.58,149.29,-118.17,4275,-6345,-3394,0,0,-1
-168.58,149.28,-118.17,4280,-6346,-3397,-1,-1,-1
-168.59,149.29,-118.17,4277,-6349,-3408,-1,-1,-1
-168.58,149.28,-118.17,4279,-6346,-3400,0,0,-1
-168.58,149.28,-118.17,4275,-6341,-3395,-1,-1,-1
-168.58,149.28,-118.18,4273,-6341,-3396,-1,-1,0
-168.58,149.28,-118.18,4279,-6342,-3399,-1,-1,-1
-168.60,149.29,-118.18,4274,-6347,-3402,0,0,0
-168.59,149.29,-118.17,4274,-6349,-3389,0,0,-1
-168.59,149.29,-118.17,4276,-6347,-3381,-1,-1,-1
-168.59,149.29,-118.17,4279,-6345,-3390,-1,-1,0
-168.59,149.29,-118.18,4275,-6346,-3399,0,0,-1
-168.59,149.29,-118.17,4282,-6346,-3407,0,0,-1
-168.57,149.28,-118.16,4274,-6343,-3389,0,-1,-1
-168.58,149.29,-118.16,4281,-6342,-3375,-1,-1,0
-168.60,149.30,-118.18,4277,-6347,-3397,-1,-1,0
-168.61,149.31,-118.19,4282,-6356,-3420,0,0,0
-168.60,149.31,-118.16,4273,-6356,-3405,0,0,-1
-168.59,149.30,-118.15,4270,-6340,-3391,0,0,-1
-168.59,149.30,-118.16,4274,-6340,-3390,-1,0,0
-168.60,149.30,-118.16,4270,-6341,-3405,0,0,-1
-168.59,149.30,-118.15,4272,-6338,-3402,0,0,-1
-168.59,149.30,-118.14,4269,-6341,-3390,-1,0,-1
-168.57,149.29,-118.14,4276,-6348,-3394,0,0,-1
-168.57,149.28,-118.14,4276,-6345,-3395,0,0,-1
-168.57,149.28,-118.13,4274,-6345,-3388,0,0,-1
-168.57,149.28,-118.14,4271,-6351,-3378,-1,-1,-1
-168.57,149.28,-118.14,4266,-6346,-3399,0,0,-1
-168.57,149.28,-118.14,4276,-6344,-3386,0,0,0
-168.56,149.28,-118.14,4276,-6336,-3381,-1,-1,-1
-168.58,149.29,-118.15,4282,-6344,-3396,-1,-1,0
-168.58,149.28,-118.16,4276,-6347,-3405,-1,-1,0
-168.58,149.29,-118.15,4274,-6348,-3394,0,-1,0
-168.58,149.29,-118.15,4279,-6346,-3387,-1,-1,0
-168.59,149.29,-118.16,4274,-6352,-3395,-1,-1,0
-168.60,149.30,-118.17,4273,-6351,-3398,0,0,0
-168.59,149.30,-118.15,4269,-6354,-3387,0,0,-1
-168.59,149.30,-118.15,4275,-6356,-3379,-1,-1,-1
-168.59,149.29,-118.16,4277,-6347,-3391,-1,0,-1
-168.59,149.29,-118.16,4283,-6347,-3385,-1,-1,0
-168.60,149.30,-118.17,4279,-6350,-3399,-1,-1,-1
-168.60,149.30,-118.18,4281,-6350,-3408,0,-1,0
-168.60,149.29,-118.18,4275,-6349,-3410,-1,0,-1
-168.60,149.29,-118.18,4279,-6342,-3396,-1,-1,-1
-168.60,149.29,-118.18,4276,-6342,-3395,-1,-1,-1
-168.60,149.29,-118.18,4277,-6348,-3409,0,0,-1
-168.60,149.29,-118.18,4276,-6336,-3409,0,0,-1
-168.61,149.30,-118.19,4276,-6341,-3395,-1,-1,0
-168.61,149.30,-118.19,4282,-6339,-3399,-1,-1,0
-168.61,149.30,-118.19,4286,-6342,-3407,0,0,0
-168.60,149.29,-118.18,4283,-6347,-3397,0,0,0
-168.61,149.29,-118.18,4282,-6345,-3392,-1,0,0
-168.60,149.30,-118.18,4272,-6347,-3401,0,-1,-1
-168.60,149.30,-118.17,4267,-6342,-3379,-1,-1,-1
-168.61,149.30,-118.18,4274,-6346,-3377,-1,-1,-1
-168.61,149.30,-118.19,4276,-6360,-3401,-1,0,-1
-168.61,149.30,-118.18,4272,-6363,-3407,0,0,-1
-168.60,149.30,-118.17,4271,-6355,-3391,0,0,-1
-168.60,149.30,-118.17,4273,-6351,-3375,-1,-1,0
-168.61,149.31,-118.18,4267,-6359,-3391,-1,-1,0
-168.63,149.31,-118.20,4278,-6369,-3409,-1,-1,0
-168.62,149.31,-118.20,4273,-6358,-3422,0,0,-1
-168.61,149.31,-118.18,4280,-6347,-3409,0,0,0
-168.62,149.31,-118.18,4269,-6347,-3399,-1,0,0
-168.62,149.31,-118.18,4282,-6351,-3407,0,0,0
-168.62,149.31,-118.18,4280,-6351,-3403,0,0,-1
-168.62,149.31,-118.18,4279,-6354,-3394,-1,-1,0
-168.63,149.32,-118.19,4273,-6350,-3408,-1,-1,-1
-168.63,149.31,-118.20,4269,-6348,-3410,0,0,-1
-168.63,149.32,-118.19,4270,-6343,-3404,0,0,-1
-168.63,149.32,-118.19,4270,-6348,-3387,-1,-1,0
-168.63,149.31,-118.20,4274,-6349,-3387,-1,-1,-1
-168.63,149.31,-118.20,4280,-6353,-3392,0,-1,-1
-168.62,149.31,-118.19,4278,-6348,-3393,0,-1,-1
-168.63,149.31,-118.20,4278,-6344,-3394,-1,-1,-1
-168.64,149.32,-118.20,4280,-6345,-3407,-1,-1,0
-168.64,149.32,-118.20,4276,-6344,-3417,0,0,0
-168.64,149.32,-118.20,4276,-6348,-3409,-1,-1,0
-168.64,149.33,-118.21,4276,-6350,-3410,0,0,0
-168.64,149.33,-118.21,4274,-6348,-3412,0,0,-1
-168.64,149.33,-118.21,4274,-6346,-3403,-1,-1,-1
-168.64,149.33,-118.21,4269,-6345,-3397,-1,-1,0
-168.64,149.33,-118.21,4270,-6344,-3406,-1,-1,0
-168.65,149.33,-118.21,4270,-6351,-3406,-1,-1,0
-168.65,149.33,-118.22,4272,-6350,-3403,-1,0,-1
-168.65,149.33,-118.22,4270,-6349,-3400,-1,-1,-1
-168.66,149.33,-118.22,4268,-6351,-3406,-1,0,-1
-168.66,149.33,-118.22,4268,-6350,-3410,0,0,0
-168.66,149.33,-118.22,4267,-6344,-3414,0,0,-1
-168.64,149.32,-118.22,4274,-6340,-3408,0,0,0
-168.65,149.33,-118.21,4275,-6341,-3404,0,0,-1
-168.65,149.33,-118.21,4271,-6342,-3400,0,0,0
-168.65,149.33,-118.21,4268,-6336,-3395,0,0,-1
-168.65,149.33,-118.21,4264,-6339,-3397,-1,-1,0
-168.65,149.34,-118.21,4271,-6349,-3410,0,-1,0
-168.65,149.34,-118.21,4263,-6352,-3403,0,0,0
-168.65,149.34,-118.20,4267,-6344,-3400,-1,-1,-1
-168.66,149.34,-118.22,4265,-6346,-3404,-1,-1,-1
-168.66,149.34,-118.22,4268,-6344,-3416,-1,-1,-1
-168.66,149.34,-118.23,4268,-6347,-3422,0,0,-1
-168.66,149.33,-118.22,4270,-6345,-3408,0,0,-1
-168.65,149.34,-118.21,4267,-6341,-3392,-1,-1,-1
-168.66,149.34,-118.22,4276,-6343,-3393,-1,-1,0
-168.67,149.34,-118.24,4283,-6339,-3419,-1,-1,0
-168.68,149.34,-118.25,4276,-6340,-3423,0,0,-1
-168.67,149.34,-118.23,4275,-6340,-3408,0,0,-1
-168.67,149.34,-118.23,4269,-6331,-3412,-1,-1,0
-168.68,149.34,-118.25,4275,-6340,-3423,-1,0,0
-168.67,149.34,-118.23,4270,-6339,-3410,0,0,-1
-168.67,149.34,-118.23,4265,-6340,-3403,-1,-1,0
-168.68,149.35,-118.23,4272,-6351,-3410,0,-1,0
-168.68,149.35,-118.23,4272,-6344,-3407,0,0,-1
-168.67,149.34,-118.23,4275,-6340,-3406,-1,-1,0
-168.68,149.35,-118.25,4273,-6343,-3419,-1,-1,-1
-168.68,149.34,-118.26,4278,-6342,-3431,-1,0,-1
-168.68,149.34,-118.25,4276,-6352,-3420,0,0,-1
-168.67,149.33,-118.24,4268,-6347,-3401,0,0,-1
-168.67,149.33,-118.24,4263,-6342,-3389,-1,-1,-1
-168.68,149.34,-118.25,4262,-6336,-3395,-1,-1,0
-168.68,149.34,-118.25,4268,-6335,-3405,-1,-1,0
-168.68,149.34,-118.25,4266,-6339,-3411,0,0,-1
-168.67,149.34,-118.23,4267,-6343,-3403,0,0,-1
-168.67,149.34,-118.23,4264,-6343,-3401,0,0,0
-168.66,149.34,-118.22,4270,-6342,-3402,0,0,-1
-168.67,149.34,-118.23,4270,-6339,-3404,-1,-1,0
-168.67,149.34,-118.23,4272,-6337,-3407,-1,0,-1
-168.67,149.34,-118.23,4278,-6350,-3418,-1,0,-1
-168.67,149.33,-118.24,4270,-6347,-3419,0,0,-1
-168.67,149.33,-118.24,4271,-6344,-3410,-1,0,-1
-168.67,149.33,-118.24,4269,-6337,-3405,-1,0,-1
-168.66,149.33,-118.24,4265,-6343,-3406,-1,0,-1
-168.66,149.33,-118.24,4266,-6338,-3407,-1,0,-1
-168.66,149.33,-118.24,4266,-6341,-3402,-1,0,0
-168.66,149.33,-118.24,4269,-6340,-3401,0,0,0
-168.66,149.33,-118.23,4267,-6341,-3398,0,0,-1
-168.66,149.33,-118.23,4265,-6345,-3405,-1,-1,0
-168.66,149.33,-118.23,4265,-6348,-3411,0,0,-1
-168.66,149.33,-118.22,4266,-6341,-3408,0,0,0
-168.66,149.33,-118.22,4275,-6343,-3396,-1,-1,0
-168.66,149.33,-118.22,4269,-6351,-3411,0,0,-1
-168.65,149.33,-118.22,4272,-6354,-3407,0,0,-1
-168.65,149.33,-118.21,4266,-6342,-3398,0,0,-1
-168.66,149.33,-118.22,4272,-6343,-3401,-1,-1,0
-168.66,149.33,-118.22,4272,-6350,-3404,-1,0,-1
-168.64,149.32,-118.21,4273,-6346,-3397,0,0,-1
-168.64,149.32,-118.22,4276,-6342,-3395,-1,-1,-1
-168.66,149.33,-118.22,4278,-6346,-3406,-1,-1,-1
-168.65,149.32,-118.22,4276,-6350,-3414,0,0,0
-168.64,149.32,-118.21,4266,-6340,-3395,0,0,-1
-168.64,149.32,-118.20,4270,-6341,-3380,-1,-1,0
-168.66,149.33,-118.22,4275,-6344,-3403,-1,-1,0
-168.66,149.33,-118.22,4280,-6352,-3416,0,-1,0
-168.65,149.33,-118.22,4275,-6341,-3409,0,0,-1
-168.65,149.33,-118.21,4270,-6339,-3393,-1,-1,0
-168.65,149.33,-118.22,4269,-6343,-3398,-1,-1,0
-168.65,149.33,-118.22,4269,-6347,-3413,0,0,-1
-168.65,149.33,-118.21,4268,-6351,-3403,0,0,-1
-168.65,149.33,-118.21,4270,-6351,-3400,-1,-1,-1
-168.65,149.33,-118.22,4269,-6349,-3413,-1,-1,-1
-168.65,149.33,-118.22,4266,-6348,-3394,0,0,-1
-168.65,149.33,-118.22,4267,-6346,-3394,-1,-1,-1
-168.66,149.33,-118.22,4270,-6343,-3401,-1,-1,-1
-168.66,149.33,-118.22,4270,-6347,-3401,-1,0,-1
-168.66,149.33,-118.22,4269,-6351,-3401,0,0,-1
-168.65,149.32,-118.21,4269,-6349,-3397,0,0,-1
-168.65,149.33,-118.21,4271,-6338,-3391,-1,-1,0
-168.66,149.33,-118.22,4270,-6341,-3407,-1,-1,0
-168.66,149.33,-118.22,4270,-6342,-3410,0,-1,0
-168.66,149.33,-118.22,4267,-6340,-3406,0,0,0
-168.65,149.34,-118.21,4271,-6342,-3404,0,0,0
-168.65,149.33,-118.21,4271,-6342,-3398,-1,0,-1
-168.65,149.33,-118.21,4270,-6343,-3400,0,0,-1
-168.64,149.32,-118.20,4271,-6339,-3399,0,0,-1
-168.64,149.33,-118.19,4275,-6339,-3382,-1,-1,0
-168.64,149.32,-118.20,4273,-6346,-3396,-1,-1,-1
-168.64,149.32,-118.20,4280,-6356,-3402,0,0,0
-168.64,149.32,-118.20,4277,-6353,-3406,0,0,-1
-168.63,149.32,-118.20,4278,-6339,-3399,-1,-1,0
-168.65,149.32,-118.21,4269,-6344,-3403,-1,-1,-1
-168.65,149.32,-118.21,4276,-6343,-3410,0,0,0
-168.64,149.32,-118.20,4279,-6343,-3392,0,0,0
-168.64,149.32,-118.20,4276,-6348,-3390,-1,-1,0
-168.64,149.32,-118.20,4273,-6347,-3410,-1,-1,0
-168.64,149.32,-118.20,4277,-6348,-3407,0,-1,0
-168.64,149.32,-118.20,4273,-6347,-3400,0,0,-1
-168.64,149.32,-118.20,4273,-6352,-3410,-1,0,0
-168.64,149.32,-118.20,4276,-6346,-3410,0,0,-1
-168.64,149.32,-118.20,4269,-6344,-3400,0,0,-1
-168.64,149.32,-118.20,4274,-6348,-3396,-1,-1,-1
-168.64,149.32,-118.20,4278,-6349,-3406,-1,0,-1
-168.63,149.31,-118.20,4280,-6347,-3406,0,0,-1
-168.63,149.31,-118.20,4278,-6346,-3400,-1,0,-1
-168.63,149.31,-118.20,4281,-6344,-3402,-1,-1,0
-168.63,149.31,-118.20,4277,-6353,-3394,-1,0,0
-168.63,149.31,-118.20,4271,-6350,-3400,0,0,-1
-168.63,149.31,-118.20,4273,-6342,-3390,-1,-1,-1
-168.63,149.31,-118.19,4275,-6344,-3388,-1,-1,-1
-168.63,149.31,-118.19,4278,-6344,-3393,0,0,0
-168.62,149.31,-118.18,4266,-6341,-3396,0,0,-1
-168.62,149.31,-118.18,4266,-6339,-3381,-1,-1,0
-168.63,149.32,-118.19,4263,-6347,-3394,-1,-1,0
-168.64,149.32,-118.20,4271,-6352,-3414,-1,-1,-1
-168.64,149.32,-118.20,4271,-6355,-3419,0,0,-1
-168.63,149.32,-118.19,4270,-6344,-3411,0,0,-1
-168.63,149.32,-118.19,4274,-6341,-3401,-1,-1,0
-168.63,149.32,-118.19,4271,-6349,-3402,-1,-1,0
-168.64,149.32,-118.20,4275,-6357,-3408,0,0,-1
-168.63,149.32,-118.19,4275,-6352,-3398,0,0,-1
-168.62,149.31,-118.18,4280,-6344,-3384,-1,0,-1
-168.62,149.31,-118.18,4279,-6344,-3384,-1,-1,-1
-168.62,149.31,-118.18,4277,-6346,-3382,-1,-1,0
-168.62,149.30,-118.19,4277,-6347,-3390,-1,0,-1
-168.62,149.30,-118.19,4283,-6349,-3397,-1,0,-1
-168.62,149.30,-118.19,4284,-6350,-3405,-1,0,-1
-168.62,149.30,-118.19,4283,-6348,-3408,0,0,0
-168.61,149.30,-118.19,4276,-6339,-3400,0,-1,-1
-168.62,149.31,-118.19,4282,-6343,-3398,-1,-1,0
-168.63,149.31,-118.21,4286,-6344,-3417,-1,-1,0
-168.63,149.31,-118.20,4281,-6342,-3415,0,0,0
-168.63,149.31,-118.20,4280,-6345,-3412,0,0,-1
-168.63,149.31,-118.19,4279,-6349,-3409,-1,0,-1
-168.63,149.31,-118.19,4274,-6346,-3415,0,0,-1
-168.62,149.31,-118.19,4279,-6344,-3403,0,0,-1
-168.61,149.30,-118.19,4280,-6342,-3398,-1,-1,-1
-168.61,149.30,-118.19,4281,-6339,-3391,-1,-1,0
-168.61,149.30,-118.19,4283,-6340,-3387,-1,-1,-1
-168.62,149.31,-118.19,4282,-6348,-3393,-1,-1,-1
-168.62,149.30,-118.20,4276,-6346,-3400,-1,-1,-1
-168.62,149.30,-118.20,4279,-6344,-3395,-1,-1,0
-168.62,149.30,-118.20,4278,-6341,-3398,-1,-1,0
-168.62,149.30,-118.20,4284,-6338,-3400,-1,-1,0
-168.62,149.30,-118.20,4278,-6344,-3398,0,-1,0
-168.62,149.30,-118.20,4278,-6344,-3388,0,-1,0
-168.63,149.31,-118.21,4273,-6340,-3403,0,0,0
-168.63,149.31,-118.20,4278,-6346,-3410,0,-1,0
-168.62,149.31,-118.20,4278,-6348,-3405,-1,-1,0
-168.63,149.31,-118.21,4281,-6345,-3415,0,0,0
-168.62,149.31,-118.20,4279,-6349,-3414,0,0,0
-168.62,149.31,-118.19,4278,-6348,-3397,0,0,-1
-168.61,149.31,-118.19,4271,-6345,-3388,-1,-1,0
-168.62,149.31,-118.19,4271,-6346,-3397,-1,-1,0
-168.62,149.31,-118.19,4274,-6347,-3402,0,0,0
-168.62,149.31,-118.19,4276,-6348,-3399,-1,0,0
-168.62,149.31,-118.19,4266,-6344,-3405,0,0,-1
-168.62,149.31,-118.19,4270,-6341,-3399,-1,-1,-1
-168.63,149.31,-118.21,4273,-6337,-3402,-1,-1,-1
-168.63,149.31,-118.21,4278,-6350,-3413,-1,0,0
-168.62,149.31,-118.19,4269,-6350,-3405,0,0,-1
-168.61,149.31,-118.18,4265,-6339,-3385,0,0,0
-168.61,149.31,-118.18,4276,-6339,-3378,-1,-1,0
-168.62,149.31,-118.20,4275,-6343,-3405,-1,-1,0
-168.64,149.32,-118.20,4276,-6347,-3426,0,0,0
-168.62,149.31,-118.19,4283,-6343,-3413,0,0,-1
-168.61,149.31,-118.18,4270,-6335,-3389,0,0,0
-168.61,149.31,-118.18,4275,-6339,-3399,-1,-1,0
-168.61,149.31,-118.18,4270,-6346,-3403,0,0,-1
-168.61,149.31,-118.17,4272,-6350,-3393,0,0,0
-168.60,149.31,-118.16,4272,-6348,-3385,-1,0,-1
-168.61,149.30,-118.17,4272,-6346,-3388,-1,0,-1
-168.61,149.30,-118.17,4279,-6344,-3392,0,0,-1
-168.60,149.29,-118.18,4274,-6342,-3398,-1,0,-1
-168.60,149.30,-118.18,4274,-6338,-3395,-1,-1,0
-168.61,149.30,-118.19,4274,-6345,-3396,-1,-1,0
-168.61,149.30,-118.19,4272,-6346,-3397,0,-1,0
-168.60,149.30,-118.18,4271,-6340,-3387,0,0,-1
-168.61,149.30,-118.19,4274,-6338,-3386,-1,-1,0
-168.62,149.31,-118.19,4273,-6337,-3403,-1,-1,0
-168.62,149.31,-118.20,4273,-6338,-3400,0,0,0
-168.62,149.31,-118.20,4274,-6346,-3403,-1,-1,0
-168.62,149.31,-118.20,4272,-6358,-3408,-1,0,0
-168.62,149.31,-118.20,4275,-6351,-3411,0,0,0
-168.62,149.31,-118.20,4267,-6346,-3397,0,0,-1
-168.62,149.31,-118.20,4270,-6343,-3394,-1,-1,-1
-168.63,149.32,-118.20,4268,-6346,-3394,-1,-1,-1
-168.62,149.31,-118.20,4270,-6348,-3393,0,0,0
-168.63,149.32,-118.20,4271,-6347,-3389,-1,-1,-1
-168.63,149.31,-118.21,4279,-6343,-3395,-1,-1,0
-168.63,149.31,-118.21,4276,-6346,-3403,0,0,-1
-168.63,149.31,-118.21,4278,-6347,-3399,0,0,-1
-168.63,149.31,-118.21,4274,-6349,-3402,-1,-1,0
-168.63,149.31,-118.21,4276,-6351,-3401,0,-1,0
-168.64,149.32,-118.21,4273,-6348,-3404,-1,-1,0
-168.64,149.32,-118.22,4269,-6342,-3408,-1,-1,0
-168.64,149.32,-118.22,4274,-6351,-3407,0,0,0
-168.64,149.32,-118.21,4272,-6347,-3412,0,0,-1
-168.63,149.32,-118.21,4267,-6344,-3405,-1,-1,0
-168.64,149.32,-118.22,4276,-6343,-3411,0,0,0
-168.64,149.33,-118.21,4266,-6348,-3403,0,0,0
-168.63,149.32,-118.20,4268,-6343,-3387,0,-1,-1
-168.64,149.33,-118.21,4269,-6343,-3382,-1,-1,-1
-168.65,149.32,-118.23,4275,-6350,-3403,-1,0,0
-168.64,149.33,-118.22,4272,-6350,-3420,0,0,-1
-168.63,149.32,-118.20,4266,-6345,-3398,0,0,0
-168.63,149.32,-118.20,4262,-6345,-3383,-1,-1,0
-168.65,149.33,-118.21,4272,-6344,-3399,-1,-1,0
-168.66,149.33,-118.22,4272,-6350,-3416,-1,-1,0
-168.66,149.33,-118.22,4269,-6347,-3415,0,0,0
-168.65,149.34,-118.22,4271,-6334,-3415,0,0,0
-168.65,149.34,-118.22,4269,-6335,-3411,0,-1,0
-168.65,149.34,-118.22,4267,-6343,-3401,-1,-1,0
-168.65,149.34,-118.22,4268,-6351,-3407,0,0,0
-168.65,149.34,-118.22,4271,-6351,-3407,0,0,-1
-168.65,149.34,-118.22,4270,-6346,-3402,0,-1,-1
-168.65,149.34,-118.22,4272,-6341,-3398,-1,-1,0
-168.67,149.34,-118.22,4266,-6342,-3404,-1,-1,0
-168.67,149.34,-118.23,4272,-6342,-3409,-1,-1,0
-168.68,149.35,-118.24,4269,-6346,-3416,-1,0,-1
-168.67,149.34,-118.23,4267,-6348,-3424,0,0,-1
-168.66,149.34,-118.24,4270,-6337,-3418,0,0,-1
-168.66,149.34,-118.24,4270,-6330,-3404,-1,-1,0
-168.68,149.35,-118.25,4264,-6328,-3416,-1,-1,0
-168.68,149.35,-118.24,4268,-6336,-3427,0,-1,0
-168.68,149.35,-118.24,4259,-6339,-3417,0,0,0
-168.68,149.36,-118.24,4264,-6348,-3412,-1,-1,0
-168.69,149.36,-118.24,4263,-6350,-3410,-1,0,-1
-168.68,149.35,-118.23,4266,-6352,-3403,0,0,-1
-168.67,149.35,-118.23,4275,-6352,-3395,0,0,-1
-168.68,149.35,-118.23,4267,-6351,-3395,-1,-1,0
-168.68,149.35,-118.23,4269,-6354,-3407,-1,0,0
-168.67,149.35,-118.23,4269,-6350,-3407,0,0,-1
-168.67,149.34,-118.23,4276,-6352,-3404,0,0,0
-168.67,149.34,-118.23,4274,-6345,-3398,-1,0,-1
-168.67,149.34,-118.23,4279,-6345,-3405,0,-1,0
-168.67,149.34,-118.23,4269,-6344,-3400,0,-1,0
-168.67,149.34,-118.23,4266,-6345,-3400,-1,-1,0
-168.67,149.34,-118.23,4267,-6347,-3403,0,0,-1
-168.66,149.34,-118.22,4265,-6351,-3400,0,0,-1
-168.66,149.34,-118.22,4259,-6347,-3397,0,0,-1
-168.66,149.34,-118.20,4265,-6340,-3385,0,0,0
-168.66,149.34,-118.20,4265,-6348,-3393,-1,-1,0
-168.67,149.35,-118.21,4261,-6350,-3411,0,0,0
-168.66,149.35,-118.21,4268,-6357,-3407,-1,0,-1
-168.65,149.35,-118.20,4261,-6360,-3402,0,0,-1
-168.65,149.34,-118.19,4260,-6345,-3405,0,0,0
-168.65,149.34,-118.19,4267,-6350,-3398,-1,-1,0
-168.66,149.35,-118.20,4268,-6357,-3408,0,0,-1
-168.65,149.34,-118.19,4271,-6360,-3410,0,0,-1
-168.64,149.34,-118.18,4275,-6351,-3394,0,0,-1
-168.63,149.33,-118.17,4266,-6344,-3378,0,-1,-1
-168.63,149.33,-118.18,4268,-6345,-3384,-1,-1,0
-168.64,149.33,-118.18,4287,-6356,-3418,0,0,0
-168.62,149.32,-118.16,4285,-6358,-3409,0,0,-1
-168.61,149.32,-118.15,4271,-6349,-3391,0,0,0
-168.61,149.32,-118.15,4269,-6351,-3391,-1,0,0
-168.61,149.32,-118.15,4274,-6350,-3401,0,0,0
-168.61,149.32,-118.15,4275,-6350,-3409,0,0,-1
-168.60,149.31,-118.14,4268,-6353,-3408,0,0,-1
-168.59,149.31,-118.13,4265,-6355,-3390,-1,0,-1
-168.60,149.31,-118.14,4277,-6350,-3391,-1,-1,0
-168.60,149.31,-118.15,4277,-6345,-3397,-1,-1,-1
-168.61,149.31,-118.16,4282,-6348,-3399,-1,0,-1
-168.60,149.30,-118.16,4285,-6337,-3396,0,0,-1
-168.60,149.30,-118.17,4277,-6336,-3403,-1,0,0
-168.60,149.30,-118.17,4279,-6336,-3398,0,-1,0
-168.60,149.30,-118.17,4278,-6342,-3389,-1,-1,0
-168.61,149.30,-118.17,4280,-6346,-3390,-1,-1,0
-168.62,149.31,-118.18,4269,-6348,-3404,0,-1,0
-168.62,149.31,-118.18,4271,-6351,-3408,0,0,0
-168.61,149.32,-118.17,4265,-6347,-3407,0,0,-1
-168.61,149.32,-118.17,4268,-6339,-3405,0,0,0
-168.61,149.32,-118.17,4266,-6340,-3399,0,-1,0
-168.63,149.33,-118.17,4263,-6349,-3404,-1,-1,0
-168.62,149.32,-118.18,4272,-6350,-3403,0,-1,-1
-168.62,149.32,-118.18,4267,-6348,-3400,-1,-1,-1
-168.62,149.32,-118.18,4272,-6352,-3394,-1,-1,-1
-168.63,149.32,-118.19,4274,-6354,-3400,-1,-1,0
-168.63,149.32,-118.19,4281,-6349,-3403,-1,-1,0
-168.63,149.32,-118.19,4277,-6350,-3401,0,-1,0
-168.63,149.32,-118.19,4274,-6349,-3400,-1,-1,0
-168.63,149.32,-118.19,4269,-6350,-3401,-1,-1,0
-168.64,149.33,-118.19,4264,-6344,-3404,0,-1,0
-168.64,149.33,-118.19,4267,-6342,-3399,-1,0,0
-168.64,149.33,-118.19,4266,-6345,-3408,0,-1,0
-168.64,149.33,-118.19,4270,-6346,-3406,0,-1,0
-168.65,149.33,-118.20,4270,-6343,-3412,0,0,0
-168.65,149.33,-118.20,4261,-6348,-3413,0,0,-1
-168.65,149.34,-118.20,4265,-6354,-3425,0,0,-1
-168.65,149.33,-118.20,4266,-6355,-3417,0,0,-1
-168.65,149.34,-118.20,4267,-6349,-3413,0,0,0
-168.65,149.34,-118.20,4268,-6345,-3408,-1,-1,0
-168.65,149.34,-118.20,4268,-6352,-3401,-1,-1,0
-168.65,149.34,-118.21,4274,-6346,-3413,-1,0,0
-168.65,149.34,-118.21,4273,-6346,-3421,0,0,0
-168.65,149.33,-118.21,4274,-6340,-3409,0,0,0
-168.65,149.33,-118.21,4269,-6339,-3399,-1,-1,0
-168.65,149.34,-118.21,4269,-6347,-3408,0,0,0
-168.65,149.34,-118.21,4263,-6340,-3404,0,0,0
-168.65,149.34,-118.21,4266,-6339,-3399,-1,-1,-1
-168.66,149.34,-118.22,4271,-6343,-3406,-1,-1,0
-168.66,149.34,-118.21,4269,-6343,-3409,0,0,0
-168.65,149.34,-118.20,4265,-6344,-3395,0,0,0
-168.65,149.34,-118.19,4266,-6338,-3377,-1,-1,0
-168.66,149.35,-118.20,4267,-6345,-3374,-1,-1,0
-168.67,149.34,-118.21,4277,-6350,-3408,-1,-1,0
-168.67,149.34,-118.21,4273,-6334,-3422,0,0,-1
-168.65,149.34,-118.20,4274,-6335,-3411,0,0,0
-168.65,149.34,-118.21,4270,-6328,-3408,-1,0,0
-168.66,149.34,-118.21,4274,-6342,-3406,-1,0,0
-168.66,149.34,-118.20,4272,-6347,-3414,0,0,-1
-168.65,149.34,-118.20,4274,-6340,-3409,0,0,-1
-168.66,149.33,-118.20,4271,-6345,-3403,-1,0,0
-168.66,149.33,-118.20,4273,-6346,-3406,0,0,-1
-168.65,149.33,-118.19,4267,-6357,-3396,0,0,0
-168.65,149.33,-118.19,4269,-6352,-3398,-1,-1,-1
-168.66,149.33,-118.20,4277,-6350,-3397,-1,-1,-1
-168.65,149.33,-118.20,4275,-6354,-3403,0,0,-1
-168.64,149.33,-118.19,4269,-6341,-3394,0,0,-1
-168.63,149.32,-118.19,4263,-6340,-3387,-1,-1,0
-168.64,149.33,-118.19,4265,-6341,-3395,-1,-1,0
-168.65,149.33,-118.19,4269,-6347,-3418,0,0,0
-168.65,149.33,-118.19,4274,-6342,-3424,0,0,0
-168.64,149.33,-118.18,4272,-6345,-3400,0,0,0
-168.64,149.33,-118.18,4264,-6341,-3407,0,0,-1
-168.64,149.33,-118.18,4264,-6342,-3401,0,0,-1
-168.63,149.32,-118.18,4265,-6340,-3388,-1,-1,0
-168.63,149.32,-118.18,4273,-6347,-3395,-1,-1,-1
-168.63,149.31,-118.18,4272,-6341,-3393,-1,0,-1
-168.63,149.31,-118.18,4277,-6339,-3392,0,0,-1
-168.63,149.31,-118.18,4279,-6338,-3398,-1,-1,-1
-168.63,149.31,-118.19,4277,-6346,-3398,-1,-1,-1
-168.63,149.31,-118.19,4274,-6340,-3406,0,-1,0
-168.63,149.31,-118.19,4280,-6343,-3407,0,0,-1
-168.63,149.31,-118.19,4276,-6341,-3407,0,0,0
-168.63,149.31,-118.19,4277,-6343,-3404,0,-1,0
-168.63,149.31,-118.19,4273,-6341,-3400,0,-1,0
-168.64,149.32,-118.20,4271,-6337,-3401,0,-1,0
-168.64,149.32,-118.20,4273,-6346,-3409,0,0,0
-168.64,149.32,-118.20,4271,-6346,-3405,-1,0,0
-168.64,149.32,-118.20,4266,-6346,-3398,0,0,-1
-168.63,149.32,-118.19,4263,-6345,-3387,-1,-1,0
-168.64,149.32,-118.20,4270,-6348,-3400,-1,0,0
-168.63,149.31,-118.18,4270,-6347,-3400,0,0,0
-168.63,149.31,-118.18,4271,-6345,-3388,0,0,-1
-168.62,149.31,-118.18,4276,-6343,-3385,-1,-1,0
-168.63,149.31,-118.19,4277,-6345,-3394,-1,0,-1
-168.63,149.31,-118.19,4280,-6350,-3411,0,0,-1
-168.62,149.31,-118.18,4279,-6350,-3398,0,0,0
-168.62,149.31,-118.18,4280,-6350,-3400,-1,0,0
-168.62,149.31,-118.18,4279,-6346,-3405,0,0,0
-168.62,149.31,-118.18,4273,-6342,-3394,0,-1,-1
-168.63,149.31,-118.19,4273,-6347,-3394,-1,-1,0
-168.64,149.31,-118.20,4277,-6354,-3420,0,0,-1
-168.63,149.31,-118.19,4274,-6348,-3410,0,0,-1
-168.61,149.31,-118.17,4262,-6341,-3387,0,-1,0
-168.63,149.31,-118.18,4267,-6345,-3388,-1,-1,0
-168.64,149.32,-118.20,4275,-6350,-3414,-1,-1,0
-168.65,149.32,-118.21,4276,-6347,-3432,0,0,0
-168.65,149.32,-118.21,4274,-6340,-3420,0,0,0
-168.64,149.32,-118.20,4269,-6341,-3402,0,0,0
-168.64,149.32,-118.20,4268,-6340,-3395,-1,0,0
-168.64,149.32,-118.20,4269,-6345,-3403,0,0,0
-168.64,149.32,-118.20,4271,-6341,-3398,0,0,0
-168.64,149.32,-118.20,4268,-6340,-3392,-1,-1,0
-168.64,149.32,-118.20,4273,-6343,-3396,-1,-1,0
-168.64,149.32,-118.21,4271,-6343,-3398,-1,-1,0
-168.65,149.33,-118.21,4263,-6335,-3397,-1,-1,0
-168.65,149.32,-118.21,4271,-6342,-3404,-1,-1,-1
-168.65,149.32,-118.21,4273,-6343,-3401,-1,-1,0
-168.65,149.32,-118.22,4267,-6350,-3408,-1,0,-1
-168.65,149.32,-118.21,4270,-6346,-3418,0,0,0
-168.65,149.32,-118.21,4267,-6340,-3407,0,0,-1
-168.65,149.32,-118.22,4272,-6336,-3403,-1,-1,0
-168.66,149.33,-118.22,4279,-6348,-3411,-1,0,0
-168.66,149.33,-118.21,4275,-6345,-3403,0,0,0
-168.64,149.32,-118.20,4274,-6343,-3403,0,0,0
-168.64,149.32,-118.19,4270,-6336,-3407,0,0,-1
-168.64,149.32,-118.20,4266,-6335,-3398,0,0,0
-168.64,149.32,-118.20,4269,-6343,-3399,0,-1,0
-168.64,149.32,-118.20,4274,-6344,-3384,-1,-1,0
-168.65,149.32,-118.20,4268,-6347,-3394,-1,-1,0
-168.65,149.32,-118.21,4270,-6343,-3401,-1,-1,0
-168.66,149.32,-118.21,4274,-6346,-3398,-1,-1,0
-168.66,149.33,-118.22,4266,-6356,-3406,-1,-1,0
-168.66,149.33,-118.22,4267,-6344,-3409,0,0,-1
-168.65,149.32,-118.22,4273,-6341,-3402,-1,-1,0
-168.66,149.33,-118.22,4270,-6339,-3402,-1,-1,0
-168.66,149.33,-118.22,4277,-6342,-3403,0,-1,0
-168.66,149.33,-118.22,4276,-6347,-3410,-1,-1,0
-168.67,149.33,-118.22,4275,-6344,-3406,-1,-1,0
-168.67,149.33,-118.22,4267,-6350,-3399,0,0,0
-168.66,149.34,-118.22,4264,-6351,-3401,0,0,0
-168.66,149.34,-118.22,4269,-6349,-3389,-1,0,0
-168.66,149.34,-118.22,4265,-6345,-3399,-1,0,-1
-168.66,149.34,-118.22,4273,-6347,-3400,-1,-1,0
-168.67,149.33,-118.22,4268,-6345,-3408,-1,-1,-1
-168.67,149.33,-118.22,4270,-6354,-3423,0,0,0
-168.66,149.34,-118.22,4263,-6342,-3405,0,0,-1
-168.66,149.33,-118.22,4272,-6336,-3383,-1,-1,0
-168.67,149.33,-118.23,4280,-6342,-3403,-1,-1,0
