Yaw,Pitch,Roll,AX,AY,AZ,GX,GY,GZ
-159.42,12.09,-71.44,1732,-7718,2592,-1,-1,0
-159.44,12.08,-71.45,1730,-7722,2591,-1,-1,0
-159.45,12.08,-71.45,1727,-7733,2576,-1,-1,0
-159.46,12.07,-71.46,1724,-7724,2586,0,-1,0
-159.46,12.08,-71.46,1734,-7744,2586,-1,-1,0
-159.47,12.07,-71.46,1718,-7747,2582,-1,-1,0
-159.48,12.06,-71.46,1726,-7740,2588,0,-1,0
-159.49,12.06,-71.47,1738,-7758,2583,0,-1,0
-159.49,12.05,-71.45,1722,-7715,2606,0,-1,0
-159.50,12.05,-71.45,1738,-7725,2574,0,0,0
-159.50,12.04,-71.44,1726,-7727,2584,0,-1,0
-159.48,12.05,-71.43,1754,-7716,2595,0,-1,0
-159.49,12.04,-71.42,1744,-7713,2585,0,-1,0
-159.50,12.03,-71.40,1723,-7704,2615,0,-1,0
-159.51,12.02,-71.40,1723,-7728,2608,0,-1,0
-159.51,12.02,-71.39,1732,-7720,2610,0,-1,0
-159.51,12.02,-71.40,1727,-7743,2621,-1,-1,0
-159.53,12.01,-71.40,1726,-7730,2599,-1,-1,0
-159.54,12.00,-71.41,1709,-7747,2587,-1,-1,0
-159.55,12.00,-71.42,1723,-7748,2601,0,-1,-1
-159.55,12.00,-71.42,1733,-7749,2588,0,-1,-1
-159.54,12.00,-71.40,1729,-7728,2603,0,0,-1
-159.54,12.01,-71.39,1736,-7729,2608,0,-1,0
-159.54,12.00,-71.38,1730,-7727,2619,-1,-1,0
-159.56,11.99,-71.39,1749,-7720,2632,-1,-1,0
-159.58,11.98,-71.40,1732,-7739,2619,0,-1,0
-159.59,11.97,-71.40,1713,-7739,2602,-1,0,0
-159.60,11.96,-71.40,1725,-7732,2599,0,-1,0
-159.60,11.96,-71.39,1724,-7730,2595,0,0,0
-159.61,11.95,-71.39,1704,-7731,2591,0,-1,0
-159.60,11.96,-71.39,1723,-7741,2576,0,-1,0
-159.60,11.96,-71.38,1730,-7733,2585,0,0,0
-159.61,11.95,-71.36,1732,-7737,2609,0,0,0
-159.61,11.95,-71.35,1712,-7727,2624,0,-1,0
-159.62,11.94,-71.34,1700,-7722,2640,0,-1,0
-159.63,11.93,-71.35,1739,-7696,2647,-1,-1,0
-159.64,11.93,-71.35,1726,-7702,2628,-1,0,0
-159.67,11.91,-71.38,1716,-7739,2600,-1,-1,0
-159.68,11.89,-71.39,1693,-7756,2607,0,-1,0
-159.69,11.89,-71.38,1684,-7734,2615,0,-1,0
-159.70,11.88,-71.38,1680,-7728,2621,0,-1,0
-159.70,11.89,-71.40,1724,-7736,2612,-1,-1,-1
-159.70,11.90,-71.41,1743,-7749,2584,-1,0,-1
-159.70,11.90,-71.41,1746,-7722,2561,0,0,-1
-159.68,11.91,-71.39,1733,-7715,2587,0,-1,-1
-159.67,11.91,-71.37,1732,-7711,2583,0,0,-1
-159.65,11.92,-71.35,1740,-7703,2588,0,0,-1
-159.64,11.92,-71.32,1761,-7700,2625,0,0,0
-159.64,11.91,-71.31,1738,-7717,2609,0,0,0
-159.65,11.89,-71.30,1694,-7700,2642,0,-1,0
-159.67,11.88,-71.31,1690,-7726,2631,-1,0,0
-159.69,11.87,-71.33,1674,-7742,2595,-1,-1,0
-159.69,11.87,-71.33,1704,-7752,2589,-1,0,0
-159.70,11.87,-71.34,1685,-7797,2563,0,-1,-1
-159.69,11.87,-71.33,1678,-7756,2592,0,0,-1
-159.68,11.88,-71.32,1686,-7753,2606,0,0,-1
-159.65,11.90,-71.32,1681,-7748,2600,-1,-1,-1
-159.62,11.93,-71.32,1712,-7760,2623,0,-1,-2
-159.59,11.96,-71.31,1716,-7751,2629,0,0,-1
-159.56,11.98,-71.29,1724,-7738,2637,0,-1,-1
-159.53,12.00,-71.27,1723,-7705,2661,0,0,-1
-159.52,12.01,-71.25,1709,-7692,2662,0,-1,-1
-159.50,12.02,-71.24,1759,-7658,2671,-1,0,-1
-159.50,12.02,-71.25,1773,-7672,2654,-1,0,0
-159.52,12.01,-71.25,1749,-7715,2630,0,0,0
-159.51,12.01,-71.24,1733,-7718,2633,0,-1,-1
-159.51,12.00,-71.22,1733,-7688,2667,0,-1,0
-159.53,11.99,-71.23,1710,-7694,2641,-1,-1,0
-159.53,12.00,-71.24,1756,-7693,2630,-1,-1,0
-159.53,12.00,-71.25,1743,-7714,2627,0,-1,-1
-159.54,12.00,-71.25,1762,-7723,2620,0,0,0
-159.55,11.99,-71.25,1728,-7718,2613,0,0,0
-159.57,11.97,-71.25,1726,-7715,2607,0,0,0
-159.56,11.97,-71.25,1737,-7727,2610,-1,0,-1
-159.56,11.97,-71.26,1717,-7755,2622,-1,-1,-1
-159.55,11.99,-71.26,1759,-7742,2637,-1,0,-1
-159.55,12.00,-71.28,1738,-7760,2581,0,-1,-1
-159.53,12.01,-71.27,1768,-7747,2621,0,0,-1
-159.51,12.02,-71.25,1720,-7745,2645,0,0,-1
-159.50,12.02,-71.24,1733,-7715,2682,-1,0,-1
-159.49,12.03,-71.25,1726,-7696,2691,-2,-1,-1
-159.50,12.05,-71.29,1739,-7711,2662,-2,-1,-1
-159.51,12.06,-71.32,1767,-7724,2619,-1,-1,-1
-159.51,12.06,-71.34,1772,-7705,2597,-1,0,0
-159.52,12.05,-71.35,1744,-7679,2609,-1,0,0
-159.53,12.05,-71.36,1725,-7680,2623,-1,-1,0
-159.54,12.05,-71.40,1742,-7730,2603,-1,-1,0
-159.55,12.05,-71.42,1764,-7760,2580,-1,0,0
-159.57,12.04,-71.43,1760,-7749,2571,-1,0,0
-159.58,12.03,-71.44,1734,-7725,2561,0,0,0
-159.58,12.02,-71.43,1728,-7734,2558,0,0,-1
-159.57,12.02,-71.41,1721,-7745,2564,0,0,-1
-159.54,12.03,-71.38,1719,-7745,2586,1,0,-1
-159.52,12.04,-71.35,1729,-7745,2606,0,0,-1
-159.50,12.05,-71.32,1731,-7732,2640,0,0,-1
-159.48,12.06,-71.30,1745,-7728,2666,0,0,-1
-159.46,12.06,-71.29,1756,-7714,2666,0,0,-1
-159.46,12.06,-71.29,1748,-7689,2662,-1,-1,0
-159.48,12.06,-71.31,1759,-7677,2646,-1,-1,0
-159.50,12.05,-71.34,1752,-7698,2628,-2,-1,0
-159.52,12.04,-71.37,1758,-7725,2597,-1,-1,0
-159.53,12.04,-71.38,1748,-7750,2580,-1,0,0
-159.53,12.04,-71.39,1736,-7755,2566,0,0,-1
-159.52,12.04,-71.38,1737,-7733,2570,0,0,-1
-159.51,12.04,-71.37,1742,-7725,2592,0,0,-1
-159.50,12.05,-71.36,1738,-7706,2614,0,0,-1
-159.50,12.05,-71.35,1736,-7711,2627,-1,-1,-1
-159.50,12.05,-71.36,1730,-7718,2620,-1,-1,-1
-159.50,12.06,-71.37,1744,-7744,2588,0,-1,-1
-159.48,12.07,-71.36,1757,-7742,2581,0,0,-1
-159.46,12.08,-71.33,1758,-7721,2589,1,0,-1
-159.45,12.08,-71.31,1747,-7697,2620,0,0,-1
-159.44,12.08,-71.29,1738,-7710,2662,-1,0,0
-159.45,12.07,-71.29,1735,-7732,2688,-1,-1,-1
-159.46,12.07,-71.32,1741,-7746,2661,-1,-1,-1
-159.46,12.08,-71.34,1754,-7745,2600,-1,-1,0
-159.46,12.09,-71.36,1770,-7726,2565,0,-1,-1
-159.45,12.10,-71.35,1767,-7713,2571,0,0,-1
-159.44,12.10,-71.32,1760,-7699,2615,0,0,-1
-159.44,12.09,-71.31,1743,-7697,2651,-1,0,-1
-159.44,12.09,-71.31,1745,-7727,2665,-1,-1,0
-159.45,12.09,-71.33,1753,-7741,2646,-1,-1,0
-159.47,12.09,-71.36,1746,-7733,2600,-1,-1,0
-159.48,12.08,-71.37,1741,-7709,2581,-1,0,0
-159.50,12.06,-71.38,1725,-7706,2582,-1,0,0
-159.51,12.05,-71.38,1725,-7715,2584,-1,0,0
-159.51,12.05,-71.38,1726,-7751,2575,0,0,-1
-159.50,12.05,-71.37,1758,-7769,2582,0,0,-1
-159.47,12.07,-71.34,1767,-7765,2594,1,0,-1
-159.46,12.07,-71.31,1756,-7721,2612,0,0,-1
-159.44,12.07,-71.29,1751,-7682,2632,0,0,-1
-159.43,12.07,-71.28,1762,-7671,2641,-1,0,0
-159.43,12.07,-71.28,1765,-7700,2627,0,0,0
-159.42,12.08,-71.27,1759,-7712,2625,0,0,0
-159.42,12.07,-71.25,1753,-7724,2644,0,0,-1
-159.41,12.08,-71.25,1738,-7729,2662,-1,-1,-1
-159.41,12.08,-71.26,1739,-7728,2663,-1,-1,-1
-159.42,12.09,-71.28,1748,-7731,2644,-1,-1,-1
-159.42,12.09,-71.30,1745,-7714,2626,-1,-1,-1
-159.43,12.10,-71.32,1753,-7703,2616,-2,-1,0
-159.45,12.09,-71.36,1751,-7739,2592,-2,-1,-1
-159.45,12.10,-71.38,1749,-7768,2581,-1,0,-1
-159.44,12.11,-71.39,1749,-7766,2588,0,0,-1
-159.43,12.11,-71.39,1742,-7732,2608,-1,0,-1
-159.44,12.11,-71.39,1735,-7705,2619,-1,0,-1
-159.43,12.12,-71.40,1746,-7705,2592,-1,-1,-1
-159.41,12.14,-71.41,1773,-7730,2583,0,0,-1
-159.40,12.15,-71.39,1783,-7731,2587,0,0,-1
-159.38,12.15,-71.37,1776,-7718,2605,0,0,-1
-159.38,12.15,-71.35,1756,-7709,2630,0,0,-1
-159.35,12.16,-71.33,1758,-7706,2646,0,0,-1
-159.34,12.16,-71.31,1775,-7709,2664,0,-1,-1
-159.34,12.16,-71.31,1794,-7695,2675,-1,-1,0
-159.35,12.15,-71.32,1777,-7693,2672,-1,-1,0
-159.38,12.14,-71.34,1765,-7689,2636,-1,-1,0
-159.41,12.12,-71.37,1746,-7699,2607,-1,-1,0
-159.43,12.11,-71.39,1745,-7730,2588,-1,-1,0
-159.44,12.11,-71.41,1754,-7754,2573,-1,-1,0
-159.44,12.11,-71.41,1750,-7765,2570,0,0,-1
-159.44,12.11,-71.41,1745,-7751,2580,0,0,-1
-159.43,12.11,-71.40,1747,-7736,2586,0,0,-1
-159.42,12.12,-71.40,1749,-7726,2590,0,0,-1
-159.41,12.13,-71.39,1759,-7720,2590,0,0,-1
-159.39,12.14,-71.37,1755,-7708,2611,0,0,-1
-159.39,12.14,-71.37,1764,-7706,2609,0,0,-1
-159.38,12.15,-71.36,1764,-7725,2627,-1,0,-1
-159.37,12.16,-71.37,1767,-7737,2629,0,0,-1
-159.36,12.17,-71.36,1769,-7732,2626,-1,0,-1
-159.34,12.18,-71.36,1761,-7726,2631,-1,0,-1
-159.34,12.18,-71.36,1762,-7715,2628,-1,0,-1
-159.33,12.19,-71.36,1765,-7699,2638,-1,0,-1
-159.33,12.19,-71.36,1765,-7693,2630,-1,-1,-1
-159.34,12.19,-71.37,1771,-7700,2640,-1,-1,0
-159.35,12.18,-71.38,1771,-7713,2619,-1,0,0
-159.35,12.18,-71.40,1767,-7723,2597,-1,0,0
-159.37,12.17,-71.40,1756,-7726,2597,-1,0,0
-159.37,12.17,-71.41,1762,-7726,2596,-1,0,0
-159.37,12.17,-71.40,1774,-7736,2600,0,0,0
-159.37,12.16,-71.40,1772,-7731,2598,0,0,0
-159.36,12.17,-71.39,1770,-7717,2596,0,0,0
-159.36,12.17,-71.38,1764,-7710,2598,0,0,0
-159.36,12.17,-71.38,1767,-7721,2603,0,0,-1
-159.36,12.16,-71.38,1760,-7735,2609,-1,0,-1
-159.35,12.17,-71.37,1762,-7740,2612,0,0,-1
-159.34,12.17,-71.37,1754,-7728,2609,0,0,-1
-159.33,12.18,-71.36,1765,-7709,2623,-1,0,-1
-159.33,12.18,-71.36,1770,-7717,2623,-1,-1,-1
-159.33,12.18,-71.37,1774,-7714,2628,-1,0,-1
-159.33,12.18,-71.37,1768,-7722,2623,-1,0,-1
-159.33,12.19,-71.38,1768,-7714,2621,-1,-1,-1
-159.32,12.19,-71.38,1775,-7718,2620,-1,-1,-1
-159.32,12.20,-71.39,1782,-7722,2613,-1,0,0
-159.32,12.20,-71.39,1776,-7723,2610,0,-1,0
-159.32,12.20,-71.39,1772,-7721,2608,0,0,0
-159.32,12.19,-71.39,1771,-7726,2601,0,0,0
-159.32,12.20,-71.38,1770,-7721,2605,0,0,-1
-159.32,12.19,-71.37,1770,-7718,2614,0,0,0
-159.32,12.19,-71.36,1770,-7711,2608,0,-1,0
-159.31,12.20,-71.36,1764,-7707,2615,0,-1,0
-159.32,12.19,-71.35,1764,-7707,2627,-1,-1,0
-159.32,12.19,-71.35,1773,-7714,2626,-1,-1,0
-159.31,12.19,-71.35,1767,-7714,2623,0,-1,0
-159.32,12.19,-71.35,1763,-7721,2620,-1,-1,0
-159.32,12.19,-71.36,1767,-7718,2616,-1,-1,0
-159.32,12.19,-71.36,1766,-7720,2616,-1,-1,0
-159.32,12.19,-71.35,1768,-7720,2608,-1,0,0
-159.33,12.18,-71.36,1754,-7718,2606,0,0,0
-159.33,12.18,-71.36,1766,-7721,2614,-1,0,0
-159.33,12.18,-71.36,1774,-7730,2599,0,-1,-1
-159.33,12.18,-71.36,1773,-7720,2608,0,0,0
-159.33,12.18,-71.35,1769,-7703,2619,0,0,0
-159.33,12.18,-71.35,1768,-7699,2625,-1,-1,0
-159.33,12.18,-71.35,1767,-7701,2631,-1,-1,0
-159.34,12.17,-71.36,1761,-7720,2609,-1,-1,0
-159.35,12.17,-71.37,1765,-7729,2595,-1,-1,0
-159.36,12.16,-71.38,1752,-7730,2604,-1,0,0
-159.36,12.16,-71.37,1760,-7724,2610,0,0,0
-159.36,12.16,-71.37,1762,-7720,2616,-1,-1,0
-159.35,12.17,-71.37,1776,-7713,2611,-1,-1,0
-159.35,12.17,-71.37,1775,-7723,2598,0,0,0
-159.35,12.17,-71.37,1768,-7722,2612,0,0,0
-159.36,12.16,-71.37,1761,-7726,2611,-1,0,0
-159.36,12.16,-71.37,1764,-7721,2608,-1,-1,0
-159.36,12.16,-71.37,1767,-7722,2608,0,-1,0
-159.36,12.16,-71.37,1775,-7727,2613,0,0,0
-159.37,12.15,-71.37,1774,-7721,2617,0,-1,0
-159.37,12.15,-71.37,1762,-7722,2619,-1,-1,0
-159.37,12.15,-71.37,1755,-7720,2627,-1,-1,0
-159.38,12.15,-71.37,1755,-7723,2625,-1,-1,0
-159.39,12.14,-71.38,1788,-7723,2618,0,-1,0
-159.40,12.13,-71.38,1766,-7734,2624,-1,0,0
-159.42,12.12,-71.38,1756,-7737,2611,0,0,0
-159.41,12.12,-71.37,1758,-7720,2611,0,-1,0
-159.41,12.12,-71.37,1757,-7716,2609,0,0,0
-159.42,12.11,-71.37,1759,-7716,2613,-1,-1,0
-159.42,12.11,-71.37,1755,-7727,2616,-1,0,0
-159.42,12.11,-71.37,1765,-7732,2605,0,-1,0
-159.42,12.11,-71.36,1766,-7731,2604,0,0,0
-159.42,12.11,-71.35,1757,-7720,2607,0,-1,0
-159.42,12.10,-71.34,1757,-7720,2620,0,-1,0
-159.43,12.10,-71.34,1748,-7723,2625,-1,-1,0
-159.43,12.10,-71.33,1755,-7728,2617,0,-1,0
-159.43,12.09,-71.33,1765,-7738,2619,0,-1,0
-159.43,12.09,-71.32,1757,-7728,2608,0,-1,0
-159.43,12.09,-71.30,1762,-7705,2629,0,-1,0
-159.44,12.08,-71.30,1763,-7718,2612,0,-1,0
-159.46,12.07,-71.29,1760,-7707,2627,0,-1,0
-159.47,12.06,-71.29,1743,-7718,2599,0,-1,0
-159.48,12.05,-71.28,1760,-7728,2615,0,-1,0
-159.49,12.04,-71.27,1737,-7727,2616,0,0,0
-159.49,12.04,-71.25,1765,-7712,2642,0,-1,0
-159.49,12.03,-71.25,1755,-7730,2632,0,-1,0
-159.51,12.01,-71.23,1735,-7719,2635,0,-1,0
-159.52,12.00,-71.23,1741,-7722,2635,0,-1,0
-159.53,11.99,-71.22,1734,-7715,2652,0,-1,0
-159.54,11.98,-71.22,1737,-7704,2631,0,-1,0
-159.56,11.97,-71.23,1739,-7731,2617,0,-1,0
-159.57,11.96,-71.22,1747,-7728,2655,0,-1,0
-159.58,11.96,-71.22,1746,-7723,2625,0,0,0
-159.59,11.94,-71.21,1729,-7702,2651,0,-1,0
-159.61,11.93,-71.22,1742,-7732,2623,-1,-1,0
-159.62,11.92,-71.21,1713,-7700,2629,0,0,0
-159.64,11.91,-71.22,1723,-7738,2624,-1,-1,0
-159.64,11.91,-71.22,1729,-7729,2638,0,-1,0
-159.64,11.90,-71.22,1742,-7719,2644,-1,0,0
-159.66,11.89,-71.22,1719,-7719,2651,0,-1,0
-159.67,11.89,-71.22,1737,-7710,2657,-1,-1,0
-159.68,11.88,-71.23,1723,-7728,2629,-1,-1,0
-159.69,11.88,-71.23,1729,-7711,2628,-1,-1,0
-159.70,11.87,-71.24,1727,-7743,2611,-1,-1,0
-159.70,11.87,-71.23,1753,-7723,2645,0,0,0
-159.71,11.86,-71.23,1719,-7738,2620,0,0,0
-159.72,11.85,-71.22,1715,-7720,2649,-1,-1,0
-159.72,11.84,-71.23,1706,-7727,2625,-1,-1,0
-159.74,11.83,-71.23,1720,-7730,2617,0,-1,0
-159.74,11.83,-71.23,1718,-7728,2612,0,-1,0
-159.74,11.83,-71.22,1735,-7723,2633,0,-1,0
-159.75,11.82,-71.21,1700,-7733,2631,0,-1,0
-159.76,11.81,-71.21,1716,-7718,2633,0,-1,0
-159.76,11.81,-71.20,1733,-7691,2648,-1,-1,0
-159.77,11.80,-71.21,1683,-7697,2651,0,-1,0
-159.78,11.80,-71.22,1716,-7720,2637,-1,-1,0
-159.78,11.80,-71.22,1715,-7735,2629,-1,0,0
-159.78,11.80,-71.22,1697,-7728,2631,0,-1,-1
-159.77,11.81,-71.21,1716,-7711,2633,0,0,-1
-159.76,11.81,-71.21,1709,-7706,2643,-1,0,-1
-159.76,11.81,-71.22,1707,-7705,2649,-1,0,-1
-159.75,11.83,-71.23,1712,-7709,2635,-1,-1,-1
-159.75,11.84,-71.25,1716,-7717,2613,-1,0,-1
-159.74,11.84,-71.25,1736,-7725,2632,-1,0,-1
-159.73,11.85,-71.25,1724,-7736,2656,-1,0,-1
-159.72,11.85,-71.25,1724,-7725,2653,-1,0,-1
-159.72,11.86,-71.26,1716,-7720,2635,-1,0,-1
-159.71,11.87,-71.26,1727,-7721,2616,-1,0,-1
-159.70,11.87,-71.26,1733,-7719,2618,0,0,-1
-159.70,11.88,-71.26,1734,-7715,2625,0,0,-1
-159.69,11.89,-71.26,1737,-7723,2631,-1,0,-1
-159.68,11.89,-71.26,1728,-7718,2631,0,0,-1
-159.67,11.90,-71.26,1726,-7722,2633,-1,0,-1
-159.66,11.91,-71.26,1729,-7717,2629,-1,0,-1
-159.66,11.91,-71.27,1730,-7719,2629,-1,0,-1
-159.66,11.91,-71.28,1738,-7723,2625,-1,0,-1
-159.66,11.92,-71.29,1735,-7723,2618,-1,0,-1
-159.66,11.92,-71.28,1734,-7725,2619,-1,0,-1
-159.66,11.92,-71.28,1731,-7723,2615,-1,0,-1
-159.66,11.92,-71.28,1730,-7724,2620,0,0,-1
-159.65,11.93,-71.28,1738,-7722,2616,0,0,-1
-159.64,11.93,-71.28,1730,-7720,2633,-1,0,-1
-159.64,11.93,-71.28,1727,-7721,2624,0,0,-1
-159.64,11.94,-71.28,1733,-7713,2618,0,0,-1
-159.64,11.94,-71.28,1731,-7712,2618,0,0,-1
-159.63,11.94,-71.28,1733,-7726,2630,-1,0,-1
-159.63,11.95,-71.29,1730,-7737,2626,-1,0,-1
-159.62,11.95,-71.28,1729,-7721,2623,-1,-1,-1
-159.62,11.95,-71.28,1731,-7717,2617,-1,0,-1
-159.62,11.95,-71.28,1731,-7717,2629,-1,0,-1
-159.62,11.95,-71.29,1737,-7721,2631,-1,0,-1
-159.61,11.96,-71.29,1748,-7728,2631,-1,0,0
-159.61,11.96,-71.29,1745,-7724,2631,-1,0,0
-159.61,11.96,-71.29,1736,-7719,2628,-1,0,-1
-159.61,11.96,-71.31,1738,-7734,2612,-1,-1,-1
-159.62,11.96,-71.31,1745,-7733,2611,-1,0,-1
-159.61,11.97,-71.31,1742,-7728,2606,0,0,-1
-159.61,11.97,-71.31,1740,-7720,2616,0,0,-1
-159.60,11.98,-71.31,1741,-7714,2625,-1,-1,-1
-159.60,11.98,-71.31,1739,-7719,2620,-1,0,0
-159.60,11.98,-71.31,1743,-7731,2605,-1,0,-1
-159.60,11.98,-71.31,1736,-7736,2611,0,0,-1
-159.60,11.98,-71.31,1741,-7727,2626,0,0,-1
-159.59,11.98,-71.30,1738,-7710,2629,-1,0,-1
-159.59,11.98,-71.30,1741,-7715,2632,-1,0,-1
-159.58,11.99,-71.30,1744,-7723,2630,-1,-1,-1
-159.58,11.99,-71.31,1751,-7722,2619,-1,-1,-1
-159.58,11.99,-71.31,1743,-7720,2628,-1,0,0
-159.59,11.99,-71.31,1742,-7715,2609,-1,0,-1
-159.59,12.00,-71.32,1746,-7725,2616,-1,0,0
-159.59,12.00,-71.33,1748,-7729,2611,-1,0,-1
-159.59,11.99,-71.33,1735,-7727,2603,-1,-1,-1
-159.59,12.00,-71.33,1737,-7725,2609,0,0,-1
-159.58,12.00,-71.33,1740,-7719,2601,-1,0,-1
-159.58,12.00,-71.33,1737,-7715,2613,0,0,-1
-159.58,12.00,-71.32,1740,-7714,2623,0,0,-1
-159.57,12.00,-71.32,1734,-7722,2622,0,0,-1
-159.57,12.00,-71.32,1731,-7720,2625,0,0,-1
-159.57,12.00,-71.32,1736,-7727,2621,0,-1,-1
-159.57,12.01,-71.32,1742,-7721,2624,-1,0,-1
-159.56,12.01,-71.32,1747,-7717,2613,-1,-1,0
-159.56,12.01,-71.32,1750,-7718,2617,-1,-1,0
-159.57,12.02,-71.33,1746,-7726,2619,-1,0,-1
-159.57,12.02,-71.33,1742,-7724,2619,-1,-1,-1
-159.57,12.02,-71.33,1743,-7722,2622,-1,0,-1
-159.56,12.02,-71.33,1742,-7718,2616,0,0,-1
-159.56,12.03,-71.33,1745,-7713,2611,0,0,-1
-159.56,12.03,-71.33,1749,-7712,2620,0,0,-1
-159.55,12.03,-71.32,1747,-7717,2619,-1,0,-1
-159.55,12.03,-71.32,1750,-7721,2612,-1,0,-1
-159.55,12.03,-71.33,1750,-7721,2624,-1,0,-1
-159.54,12.03,-71.33,1741,-7725,2614,-1,0,-1
-159.54,12.04,-71.33,1749,-7722,2611,0,-1,-1
-159.54,12.04,-71.33,1756,-7718,2613,-1,0,-1
-159.53,12.04,-71.32,1750,-7717,2615,0,0,-1
-159.52,12.05,-71.32,1757,-7718,2636,-1,0,-1
-159.53,12.05,-71.32,1750,-7727,2629,-1,0,-1
-159.53,12.05,-71.32,1738,-7719,2629,-1,0,-1
-159.53,12.05,-71.33,1744,-7724,2613,-1,-1,-1
-159.52,12.06,-71.33,1751,-7730,2606,0,0,-1
-159.51,12.06,-71.32,1748,-7725,2622,0,0,-1
-159.50,12.07,-71.31,1745,-7719,2626,0,0,-1
-159.50,12.06,-71.31,1746,-7709,2635,-1,0,0
-159.50,12.07,-71.31,1738,-7701,2618,-1,0,-1
-159.50,12.07,-71.32,1744,-7718,2613,-1,-1,-1
-159.51,12.07,-71.32,1751,-7725,2605,0,0,-1
-159.50,12.07,-71.32,1740,-7722,2607,0,0,-1
-159.49,12.07,-71.32,1739,-7718,2621,0,0,-1
-159.49,12.08,-71.32,1747,-7716,2621,-1,0,-1
-159.48,12.08,-71.32,1759,-7717,2632,-1,0,-1
-159.48,12.08,-71.32,1759,-7719,2639,-1,0,-1
-159.47,12.09,-71.32,1765,-7717,2630,-1,0,-1
-159.47,12.09,-71.32,1759,-7714,2626,-1,-1,-1
-159.47,12.10,-71.32,1761,-7720,2622,-1,0,-1
-159.47,12.10,-71.32,1765,-7720,2614,-1,0,-1
-159.46,12.10,-71.32,1766,-7728,2616,0,0,-1
-159.46,12.10,-71.32,1765,-7725,2612,0,0,-1
-159.45,12.11,-71.31,1774,-7723,2613,-1,0,-1
-159.45,12.11,-71.31,1765,-7722,2614,0,0,-1
-159.44,12.11,-71.31,1754,-7718,2621,0,0,-1
-159.44,12.12,-71.31,1756,-7713,2612,0,0,-1
-159.43,12.12,-71.30,1762,-7707,2622,-1,0,-1
-159.43,12.12,-71.30,1772,-7708,2623,0,0,-1
-159.41,12.13,-71.29,1765,-7711,2636,-1,0,-1
-159.41,12.13,-71.30,1764,-7716,2636,-1,0,-1
-159.41,12.13,-71.30,1756,-7711,2634,-1,0,-1
-159.41,12.13,-71.30,1765,-7714,2620,0,0,-1
-159.41,12.13,-71.30,1766,-7716,2620,0,0,0
-159.40,12.13,-71.29,1757,-7715,2614,0,0,-1
-159.40,12.13,-71.28,1759,-7708,2619,0,0,-1
-159.40,12.13,-71.28,1760,-7709,2617,0,0,-1
-159.39,12.14,-71.28,1756,-7710,2618,0,0,-1
-159.39,12.14,-71.28,1759,-7721,2607,-1,0,-1
-159.38,12.14,-71.28,1757,-7720,2614,0,0,-1
-159.38,12.14,-71.27,1758,-7715,2620,0,0,-1
-159.37,12.14,-71.26,1765,-7718,2623,0,0,0
-159.37,12.15,-71.26,1763,-7712,2631,0,0,-1
-159.37,12.15,-71.26,1755,-7718,2630,-1,0,-1
-159.37,12.15,-71.26,1764,-7724,2626,-1,0,-1
-159.36,12.15,-71.26,1770,-7726,2616,0,0,-1
-159.35,12.15,-71.25,1768,-7717,2613,0,0,-1
-159.34,12.16,-71.25,1758,-7708,2620,0,0,-1
-159.35,12.15,-71.25,1760,-7707,2621,-1,0,-1
-159.34,12.15,-71.25,1773,-7715,2620,-1,0,0
-159.35,12.15,-71.25,1764,-7730,2613,-1,0,0
-159.35,12.15,-71.25,1759,-7736,2615,0,0,-1
-159.34,12.15,-71.25,1752,-7732,2618,0,0,-1
-159.33,12.16,-71.24,1760,-7719,2613,0,0,-1
-159.32,12.16,-71.23,1764,-7717,2619,-1,0,-1
-159.33,12.16,-71.24,1767,-7715,2623,0,0,-1
-159.33,12.16,-71.24,1768,-7716,2630,-1,-1,0
-159.33,12.16,-71.24,1758,-7721,2640,-1,-1,0
-159.33,12.16,-71.25,1759,-7723,2626,0,-1,-1
-159.33,12.16,-71.24,1768,-7719,2624,0,-1,0
-159.33,12.16,-71.24,1765,-7718,2628,0,-1,0
-159.33,12.16,-71.24,1763,-7705,2627,0,-1,0
-159.33,12.16,-71.24,1769,-7709,2636,-1,-1,0
-159.33,12.15,-71.23,1766,-7715,2628,-1,0,0
-159.33,12.16,-71.24,1762,-7712,2624,0,-1,0
-159.34,12.15,-71.23,1753,-7728,2616,0,-1,0
-159.34,12.15,-71.23,1760,-7729,2613,0,-1,-1
-159.33,12.15,-71.22,1764,-7710,2613,0,-1,-1
-159.33,12.15,-71.22,1764,-7704,2626,0,-1,0
-159.33,12.16,-71.22,1764,-7700,2638,-1,-1,0
-159.34,12.15,-71.23,1760,-7708,2639,-1,-1,0
-159.35,12.15,-71.23,1762,-7709,2639,-1,-1,0
-159.35,12.15,-71.23,1756,-7720,2635,-1,-1,0
-159.35,12.14,-71.22,1764,-7721,2635,-1,-1,0
-159.35,12.14,-71.22,1762,-7715,2628,0,-1,0
-159.35,12.15,-71.22,1773,-7720,2634,0,0,0
-159.36,12.14,-71.22,1768,-7714,2636,0,0,0
-159.35,12.14,-71.22,1764,-7711,2643,-1,0,0
-159.36,12.13,-71.22,1762,-7714,2629,0,-1,0
-159.36,12.13,-71.22,1754,-7713,2628,0,-1,-1
-159.36,12.13,-71.22,1755,-7711,2636,0,0,0
-159.36,12.13,-71.22,1760,-7713,2637,-1,0,0
-159.36,12.13,-71.22,1761,-7717,2631,-1,-1,0
-159.37,12.13,-71.23,1762,-7725,2624,-1,-1,0
-159.37,12.13,-71.24,1766,-7725,2617,0,-1,0
-159.37,12.13,-71.23,1760,-7712,2617,0,-1,0
-159.38,12.12,-71.23,1763,-7705,2623,0,-1,0
-159.38,12.12,-71.23,1759,-7703,2624,-1,-1,0
-159.38,12.12,-71.23,1766,-7700,2612,-1,-1,0
-159.39,12.12,-71.24,1761,-7722,2615,-1,0,0
-159.39,12.12,-71.24,1757,-7722,2610,0,0,0
-159.39,12.12,-71.24,1758,-7720,2625,0,0,0
-159.39,12.11,-71.23,1762,-7709,2632,0,-1,0
-159.38,12.12,-71.23,1767,-7708,2627,-1,-1,0
-159.38,12.12,-71.23,1768,-7711,2632,-1,-1,0
-159.38,12.12,-71.23,1772,-7716,2638,-1,-1,0
-159.39,12.12,-71.23,1759,-7714,2628,-1,-1,0
-159.40,12.12,-71.24,1761,-7717,2626,-1,-1,0
-159.40,12.12,-71.24,1762,-7717,2620,0,-1,0
-159.40,12.11,-71.23,1766,-7716,2622,0,0,0
-159.41,12.11,-71.24,1762,-7718,2617,-1,-1,0
-159.41,12.10,-71.24,1755,-7715,2620,-1,-1,0
-159.42,12.10,-71.25,1763,-7719,2608,-1,-1,0
-159.42,12.10,-71.25,1758,-7724,2597,0,-1,0
-159.42,12.10,-71.25,1760,-7723,2607,0,-1,0
-159.43,12.09,-71.24,1753,-7723,2615,0,-1,0
-159.43,12.09,-71.23,1749,-7723,2627,0,-1,0
-159.43,12.08,-71.22,1747,-7714,2640,0,0,0
-159.43,12.08,-71.22,1754,-7713,2641,0,-1,0
-159.44,12.07,-71.21,1756,-7720,2645,-1,-1,0
-159.46,12.07,-71.22,1755,-7719,2629,0,-1,0
-159.47,12.06,-71.22,1741,-7721,2620,0,-1,0
-159.47,12.06,-71.22,1747,-7718,2613,0,-1,0
-159.47,12.06,-71.21,1760,-7714,2615,0,-1,0
-159.47,12.05,-71.21,1762,-7713,2627,0,-1,0
-159.49,12.04,-71.21,1756,-7715,2624,-1,0,0
-159.50,12.03,-71.22,1748,-7715,2621,-1,0,0
-159.50,12.03,-71.22,1747,-7713,2619,-1,-1,0
-159.50,12.03,-71.22,1749,-7718,2631,-1,-1,0
-159.50,12.03,-71.22,1755,-7721,2616,0,-1,0
-159.51,12.03,-71.22,1757,-7721,2627,0,-1,0
-159.51,12.02,-71.21,1761,-7718,2647,-1,0,0
-159.52,12.02,-71.22,1741,-7712,2637,-1,-1,0
-159.53,12.01,-71.23,1733,-7709,2633,-1,-1,0
-159.53,12.01,-71.24,1745,-7723,2629,-1,-1,0
-159.54,12.01,-71.24,1747,-7728,2617,0,-1,0
-159.54,12.00,-71.23,1745,-7724,2612,0,0,0
-159.54,12.00,-71.22,1739,-7703,2627,0,-1,0
-159.54,12.00,-71.22,1740,-7701,2634,-1,-1,0
-159.56,11.99,-71.23,1748,-7709,2625,-1,-1,0
-159.56,11.99,-71.24,1749,-7730,2624,-1,-1,0
-159.57,11.98,-71.24,1744,-7736,2626,0,0,0
-159.58,11.97,-71.23,1736,-7720,2624,0,-1,0
-159.58,11.97,-71.23,1740,-7719,2627,0,-1,0
-159.57,11.98,-71.24,1745,-7719,2625,-1,-1,0
-159.58,11.97,-71.24,1745,-7723,2621,-1,0,0
-159.59,11.96,-71.24,1741,-7726,2621,-1,-1,0
-159.59,11.96,-71.24,1742,-7718,2624,-1,-1,0
-159.60,11.96,-71.25,1739,-7716,2621,-1,-1,0
-159.61,11.96,-71.26,1744,-7724,2619,-1,-1,0
-159.62,11.95,-71.26,1746,-7729,2621,0,-1,0
-159.62,11.95,-71.26,1739,-7724,2623,0,0,0
-159.62,11.95,-71.26,1750,-7716,2614,0,0,0
-159.63,11.94,-71.26,1742,-7721,2626,-1,-1,0
-159.63,11.93,-71.26,1734,-7723,2627,0,0,0
-159.64,11.93,-71.27,1727,-7725,2621,-1,-1,0
-159.64,11.93,-71.27,1732,-7725,2621,0,-1,0
-159.64,11.93,-71.26,1734,-7722,2616,0,0,0
-159.65,11.92,-71.26,1734,-7718,2620,0,-1,0
-159.65,11.92,-71.26,1732,-7715,2625,-1,-1,0
-159.67,11.90,-71.27,1722,-7719,2618,-1,-1,0
-159.67,11.90,-71.28,1727,-7718,2619,-1,-1,0
-159.68,11.90,-71.28,1725,-7729,2614,0,-1,0
-159.68,11.90,-71.28,1731,-7728,2601,0,-1,0
-159.69,11.89,-71.28,1728,-7720,2613,0,-1,0
-159.70,11.89,-71.28,1727,-7721,2616,0,-1,0
-159.69,11.89,-71.27,1721,-7729,2615,0,-1,0
-159.70,11.89,-71.27,1727,-7725,2616,0,-1,0
-159.69,11.89,-71.26,1728,-7724,2621,0,-1,0
-159.70,11.89,-71.26,1728,-7723,2626,0,-1,0
-159.70,11.89,-71.26,1718,-7726,2610,0,-1,0
-159.70,11.88,-71.25,1720,-7728,2614,0,-1,0
-159.69,11.89,-71.25,1728,-7734,2619,0,0,0
-159.70,11.89,-71.25,1717,-7724,2626,0,-1,-1
-159.69,11.89,-71.24,1729,-7716,2631,-1,0,0
-159.69,11.89,-71.25,1739,-7710,2640,-1,-1,-1
-159.69,11.89,-71.26,1729,-7720,2620,-1,0,0
-159.69,11.89,-71.26,1723,-7732,2611,0,0,-1
-159.69,11.90,-71.27,1724,-7743,2603,0,0,-1
-159.68,11.90,-71.25,1730,-7723,2614,0,0,-1
-159.67,11.91,-71.25,1730,-7715,2622,0,0,-1
-159.67,11.91,-71.25,1726,-7716,2620,-1,0,-1
-159.66,11.92,-71.25,1733,-7724,2618,-1,0,-1
-159.66,11.92,-71.25,1728,-7727,2610,-1,0,-1
-159.66,11.92,-71.25,1725,-7729,2622,0,0,-1
-159.65,11.93,-71.25,1728,-7728,2615,0,0,-1
-159.64,11.94,-71.24,1738,-7725,2629,0,0,-1
-159.63,11.95,-71.24,1740,-7721,2640,0,-1,-1
-159.63,11.95,-71.24,1737,-7716,2637,-1,-1,-1
-159.62,11.95,-71.24,1738,-7721,2625,0,0,-1
-159.62,11.95,-71.25,1741,-7717,2622,-1,0,-1
-159.62,11.96,-71.25,1737,-7723,2615,-1,-1,-1
-159.62,11.96,-71.26,1741,-7728,2608,0,-1,-1
-159.62,11.96,-71.26,1741,-7734,2602,0,0,-1
-159.61,11.97,-71.25,1742,-7726,2608,0,0,-1
-159.61,11.97,-71.25,1745,-7720,2612,0,0,-1
-159.60,11.97,-71.25,1746,-7714,2618,0,0,-1
-159.60,11.97,-71.25,1746,-7720,2615,0,0,-1
-159.60,11.98,-71.25,1740,-7725,2619,0,0,-1
-159.59,11.98,-71.25,1740,-7720,2622,0,0,-1
-159.59,11.98,-71.25,1740,-7733,2627,-1,0,-1
-159.59,11.99,-71.24,1734,-7733,2627,-1,0,-1
-159.59,11.99,-71.25,1738,-7727,2620,-1,-1,-1
-159.59,11.99,-71.25,1742,-7716,2626,-1,0,0
-159.59,11.99,-71.25,1748,-7720,2611,0,-1,0
-159.58,12.00,-71.25,1752,-7727,2627,-1,0,0
-159.58,12.00,-71.25,1749,-7740,2626,0,0,-1
-159.58,11.99,-71.25,1742,-7726,2623,0,0,-1
-159.57,12.00,-71.25,1739,-7721,2623,0,0,-1
-159.57,12.00,-71.25,1742,-7718,2616,0,0,-1
-159.57,12.00,-71.24,1742,-7721,2621,0,0,-1
-159.57,12.00,-71.24,1747,-7716,2623,0,0,-1
-159.57,12.00,-71.24,1743,-7729,2616,0,0,0
-159.57,12.01,-71.25,1733,-7717,2606,0,0,-1
-159.56,12.02,-71.25,1741,-7728,2622,-1,0,-1
-159.56,12.02,-71.25,1745,-7731,2625,0,0,-1
-159.55,12.02,-71.25,1749,-7729,2621,0,0,-1
-159.54,12.03,-71.24,1752,-7723,2630,0,0,-1
-159.54,12.03,-71.24,1752,-7717,2635,-1,0,0
-159.54,12.03,-71.25,1749,-7721,2615,-1,0,-1
-159.54,12.03,-71.25,1752,-7721,2624,-1,-1,-1
-159.53,12.04,-71.25,1753,-7727,2618,0,0,-1
-159.53,12.04,-71.25,1752,-7725,2607,0,0,-1
-159.52,12.04,-71.24,1749,-7714,2614,0,0,-1
-159.52,12.05,-71.23,1754,-7705,2631,0,0,-1
-159.52,12.05,-71.24,1755,-7714,2629,-1,0,0
-159.52,12.04,-71.24,1746,-7726,2612,-1,0,0
-159.53,12.05,-71.25,1744,-7731,2603,0,0,-1
-159.52,12.05,-71.24,1748,-7724,2604,0,0,-1
-159.51,12.05,-71.24,1745,-7706,2611,0,0,-1
-159.50,12.06,-71.24,1753,-7713,2620,-1,0,-1
-159.50,12.06,-71.24,1753,-7705,2623,-1,0,-1
-159.49,12.07,-71.24,1757,-7712,2618,-1,0,0
-159.50,12.06,-71.25,1746,-7720,2621,-1,-1,0
-159.50,12.06,-71.25,1754,-7718,2625,-1,0,-1
-159.49,12.07,-71.25,1751,-7727,2619,-1,-1,-1
-159.49,12.07,-71.25,1757,-7727,2623,0,0,-1
-159.49,12.07,-71.24,1746,-7715,2616,0,0,-1
-159.49,12.07,-71.25,1755,-7716,2615,0,0,-1
-159.48,12.08,-71.25,1755,-7723,2614,0,0,-1
-159.48,12.08,-71.25,1752,-7726,2614,0,0,-1
-159.48,12.08,-71.25,1750,-7718,2621,-1,0,0
-159.48,12.08,-71.25,1748,-7717,2615,0,0,-1
-159.47,12.08,-71.24,1749,-7718,2629,0,0,-1
-159.47,12.09,-71.25,1749,-7724,2626,0,0,-1
-159.46,12.09,-71.24,1751,-7725,2630,-1,0,-1
-159.46,12.09,-71.24,1758,-7723,2633,-1,-1,-1
-159.46,12.10,-71.25,1761,-7726,2628,-1,0,-1
-159.45,12.10,-71.25,1753,-7721,2623,-1,-1,-1
-159.45,12.11,-71.25,1750,-7720,2619,-1,0,-1
-159.45,12.11,-71.25,1752,-7721,2609,0,0,-1
-159.44,12.11,-71.25,1762,-7718,2600,0,0,-1
-159.44,12.11,-71.25,1767,-7714,2604,0,0,-1
-159.43,12.12,-71.25,1765,-7720,2618,0,0,-1
-159.43,12.12,-71.25,1761,-7713,2624,-1,0,-1
-159.43,12.12,-71.25,1760,-7726,2625,-1,0,-1
-159.43,12.12,-71.25,1763,-7725,2622,0,0,-1
-159.43,12.12,-71.25,1755,-7724,2613,0,0,-1
-159.42,12.13,-71.25,1749,-7725,2606,0,0,-1
-159.42,12.13,-71.25,1754,-7723,2608,0,0,-1
-159.41,12.13,-71.25,1758,-7723,2620,0,-1,-1
-159.41,12.13,-71.25,1758,-7717,2621,-1,0,0
-159.41,12.14,-71.24,1766,-7715,2618,0,0,-1
-159.40,12.14,-71.24,1763,-7717,2622,-1,0,-1
-159.40,12.14,-71.25,1769,-7717,2628,-1,0,-1
-159.40,12.15,-71.25,1766,-7722,2618,-1,0,-1
-159.40,12.15,-71.25,1769,-7728,2618,0,0,-1
-159.39,12.15,-71.25,1767,-7715,2616,0,0,-1
-159.37,12.16,-71.23,1762,-7703,2630,0,0,-1
-159.37,12.16,-71.23,1760,-7703,2628,-1,-1,0
-159.38,12.16,-71.23,1765,-7710,2619,-1,0,0
-159.38,12.16,-71.24,1765,-7723,2601,-1,0,0
-159.38,12.15,-71.24,1760,-7733,2606,0,0,-1
-159.37,12.16,-71.24,1754,-7723,2609,0,0,-1
-159.36,12.16,-71.24,1759,-7714,2624,0,0,-1
-159.36,12.16,-71.24,1771,-7714,2630,0,0,-1
-159.36,12.16,-71.23,1774,-7716,2631,-1,0,0
-159.36,12.17,-71.23,1772,-7717,2630,-1,0,0
-159.36,12.17,-71.23,1769,-7717,2620,0,0,0
-159.36,12.16,-71.23,1769,-7716,2620,0,0,0
-159.36,12.16,-71.23,1765,-7711,2614,0,0,0
-159.36,12.16,-71.23,1760,-7710,2613,-1,0,0
-159.36,12.16,-71.22,1763,-7716,2623,0,0,0
-159.36,12.16,-71.22,1765,-7725,2626,0,-1,0
-159.36,12.15,-71.22,1763,-7726,2633,0,0,0
-159.37,12.14,-71.21,1768,-7725,2626,0,0,0
-159.38,12.14,-71.21,1751,-7712,2631,0,-1,0
-159.37,12.14,-71.20,1756,-7719,2623,0,-1,0
-159.37,12.15,-71.19,1768,-7711,2632,0,0,-1
-159.36,12.14,-71.18,1761,-7715,2630,0,0,0
-159.36,12.14,-71.18,1766,-7708,2644,0,0,0
-159.37,12.14,-71.19,1758,-7709,2642,-1,-1,0
-159.37,12.14,-71.19,1757,-7704,2624,-1,-1,0
-159.37,12.14,-71.20,1762,-7714,2612,0,0,-1
-159.37,12.15,-71.19,1761,-7724,2619,0,0,-1
-159.36,12.15,-71.18,1764,-7715,2626,0,0,-1
-159.36,12.16,-71.19,1769,-7709,2627,-1,-1,-1
-159.35,12.16,-71.19,1769,-7706,2632,-1,-1,-1
-159.35,12.16,-71.20,1777,-7721,2622,-1,0,-1
-159.35,12.16,-71.20,1772,-7719,2622,-1,-1,0
-159.35,12.16,-71.21,1771,-7715,2618,-1,-1,0
-159.35,12.16,-71.21,1768,-7714,2622,0,-1,-1
-159.35,12.17,-71.20,1769,-7717,2624,0,-1,-1
-159.35,12.17,-71.20,1772,-7712,2622,0,-1,0
-159.35,12.17,-71.20,1768,-7710,2630,0,-1,0
-159.35,12.17,-71.20,1770,-7713,2619,-1,-1,0
-159.35,12.17,-71.20,1767,-7714,2618,0,-1,0
-159.35,12.17,-71.20,1771,-7708,2626,0,0,0
-159.36,12.16,-71.21,1758,-7715,2625,-1,-1,0
-159.37,12.16,-71.21,1758,-7713,2619,-1,-1,0
-159.37,12.16,-71.21,1765,-7717,2612,0,-1,-1
-159.37,12.16,-71.21,1782,-7714,2621,0,0,0
-159.36,12.16,-71.20,1774,-7700,2624,0,0,0
-159.36,12.16,-71.19,1761,-7698,2641,-1,-1,0
-159.37,12.16,-71.20,1767,-7711,2629,-1,0,0
-159.38,12.15,-71.21,1760,-7714,2625,-1,-1,0
-159.39,12.14,-71.21,1763,-7727,2617,0,-1,0
-159.39,12.14,-71.21,1752,-7728,2609,0,-1,0
-159.39,12.14,-71.20,1749,-7717,2618,0,-1,0
-159.39,12.14,-71.19,1759,-7707,2629,0,-1,0
-159.39,12.14,-71.19,1762,-7703,2636,0,-1,0
-159.40,12.13,-71.19,1760,-7707,2634,-1,-1,0
-159.41,12.13,-71.19,1762,-7715,2637,-1,-1,0
-159.41,12.12,-71.19,1758,-7722,2630,-1,-1,0
-159.42,12.12,-71.19,1756,-7719,2625,0,-1,0
-159.41,12.12,-71.19,1763,-7721,2629,0,-1,0
-159.41,12.12,-71.19,1768,-7721,2628,0,-1,0
-159.42,12.12,-71.19,1767,-7721,2629,-1,0,0
-159.43,12.11,-71.19,1764,-7711,2621,-1,-1,0
-159.44,12.11,-71.20,1757,-7714,2618,-1,0,0
-159.44,12.11,-71.20,1758,-7725,2618,0,-1,0
-159.44,12.11,-71.20,1757,-7739,2621,0,0,0
-159.44,12.10,-71.19,1755,-7729,2624,0,-1,0
-159.44,12.10,-71.19,1762,-7716,2635,0,-1,0
-159.44,12.10,-71.19,1761,-7709,2637,-1,-1,0
-159.44,12.10,-71.18,1764,-7709,2642,-1,0,0
-159.45,12.10,-71.20,1764,-7720,2633,-1,-1,0
-159.45,12.09,-71.19,1758,-7710,2636,-1,0,0
-159.46,12.09,-71.19,1750,-7718,2626,0,-1,0
-159.46,12.08,-71.20,1752,-7715,2625,0,-1,0
-159.46,12.08,-71.20,1753,-7716,2629,0,0,0
-159.46,12.08,-71.20,1753,-7712,2628,0,-1,0
-159.47,12.07,-71.19,1753,-7722,2628,-1,0,0
-159.47,12.07,-71.19,1754,-7719,2623,0,0,0
-159.48,12.07,-71.20,1757,-7722,2627,-1,0,0
-159.48,12.07,-71.20,1758,-7727,2633,0,0,0
-159.49,12.07,-71.20,1751,-7716,2619,0,-1,0
-159.49,12.07,-71.20,1756,-7715,2625,-1,-1,0
-159.49,12.06,-71.21,1759,-7715,2625,0,-1,0
-159.49,12.06,-71.21,1757,-7715,2625,-1,-1,0
-159.50,12.06,-71.21,1755,-7713,2635,-1,-1,0
-159.51,12.05,-71.22,1757,-7716,2626,-1,-1,0
-159.51,12.05,-71.22,1757,-7718,2620,0,0,0
-159.52,12.05,-71.22,1751,-7720,2622,0,0,0
-159.51,12.05,-71.21,1750,-7710,2626,0,-1,0
-159.52,12.05,-71.21,1747,-7700,2629,-1,-1,0
-159.53,12.04,-71.22,1749,-7710,2630,-1,-1,0
-159.53,12.04,-71.22,1762,-7717,2629,0,0,0
-159.54,12.03,-71.23,1749,-7734,2620,-1,0,0
-159.54,12.03,-71.23,1742,-7723,2616,0,0,0
-159.54,12.03,-71.22,1746,-7719,2620,0,-1,0
-159.54,12.03,-71.22,1755,-7715,2623,-1,-1,0
-159.54,12.03,-71.23,1755,-7728,2615,0,-1,0
-159.55,12.03,-71.23,1757,-7727,2624,0,-1,0
-159.55,12.03,-71.22,1752,-7724,2628,0,-1,0
-159.57,12.01,-71.22,1749,-7717,2620,0,-1,0
-159.57,12.01,-71.22,1744,-7717,2625,0,-1,0
-159.58,12.00,-71.22,1745,-7720,2616,0,-1,0
-159.58,12.00,-71.21,1747,-7726,2614,0,-1,0
-159.59,12.00,-71.21,1746,-7718,2615,0,-1,0
-159.60,11.99,-71.20,1742,-7716,2625,0,-1,0
-159.61,11.98,-71.20,1752,-7719,2626,0,-1,0
-159.62,11.97,-71.20,1733,-7713,2622,0,-1,0
-159.62,11.97,-71.19,1721,-7709,2627,0,-1,0
-159.62,11.96,-71.19,1726,-7708,2632,0,0,0
-159.63,11.96,-71.19,1730,-7701,2640,-1,-1,0
-159.64,11.95,-71.19,1734,-7708,2635,-1,-1,0
-159.64,11.95,-71.19,1740,-7715,2643,-1,0,0
-159.64,11.95,-71.20,1733,-7717,2637,-1,0,0
-159.65,11.94,-71.20,1732,-7712,2625,-1,-1,0
-159.65,11.95,-71.21,1727,-7720,2618,-1,0,0
-159.64,11.95,-71.20,1738,-7719,2623,0,0,0
-159.64,11.95,-71.21,1739,-7730,2617,0,0,0
-159.65,11.94,-71.20,1729,-7728,2630,0,0,0
-159.65,11.94,-71.20,1729,-7725,2636,0,-1,0
-159.65,11.94,-71.20,1734,-7721,2627,-1,-1,0
-159.65,11.95,-71.21,1742,-7719,2620,-1,0,0
-159.65,11.95,-71.21,1740,-7714,2619,0,0,0
-159.64,11.95,-71.21,1746,-7724,2612,0,0,0
-159.64,11.95,-71.21,1736,-7721,2600,0,-1,-1
-159.64,11.95,-71.21,1741,-7723,2619,-1,0,0
-159.64,11.95,-71.20,1742,-7718,2630,-1,0,0
-159.64,11.95,-71.21,1730,-7716,2623,-1,-1,0
-159.65,11.95,-71.22,1733,-7713,2628,-1,-1,0
-159.65,11.95,-71.22,1728,-7721,2611,-1,0,-1
-159.65,11.95,-71.22,1733,-7730,2613,0,0,-1
-159.64,11.96,-71.22,1740,-7723,2612,0,0,-1
-159.63,11.96,-71.20,1741,-7709,2629,0,0,-1
-159.63,11.96,-71.20,1740,-7710,2633,-1,-1,0
-159.64,11.96,-71.22,1737,-7728,2632,-1,0,0
-159.64,11.96,-71.22,1737,-7742,2629,-1,0,0
-159.64,11.96,-71.22,1730,-7738,2624,0,0,-1
-159.63,11.97,-71.20,1722,-7726,2628,0,0,-1
-159.63,11.97,-71.20,1731,-7720,2624,0,-1,-1
-159.63,11.97,-71.20,1741,-7714,2636,-1,0,-1
-159.62,11.98,-71.20,1738,-7716,2635,-1,-1,0
-159.63,11.97,-71.21,1737,-7729,2624,-1,-1,-1
-159.62,11.98,-71.20,1741,-7717,2620,0,-1,-1
-159.62,11.98,-71.21,1745,-7713,2622,0,-1,-1
-159.61,11.99,-71.20,1751,-7713,2632,-1,0,-1
-159.61,11.99,-71.21,1753,-7719,2630,-1,0,-1
-159.60,12.00,-71.21,1748,-7722,2627,-1,0,-1
-159.60,12.00,-71.21,1742,-7726,2624,0,0,-1
-159.60,12.00,-71.21,1745,-7722,2619,-1,0,-1
-159.59,12.00,-71.21,1745,-7721,2614,0,0,-1
-159.58,12.01,-71.20,1743,-7717,2619,0,0,-1
-159.58,12.01,-71.20,1740,-7711,2635,0,0,-1
-159.58,12.01,-71.20,1738,-7719,2634,-1,0,-1
-159.58,12.01,-71.20,1743,-7721,2639,0,0,-1
-159.57,12.03,-71.20,1753,-7722,2630,0,-1,-1
-159.56,12.04,-71.20,1754,-7716,2629,-1,0,-1
-159.56,12.04,-71.20,1747,-7715,2634,-1,-1,-1
-159.56,12.04,-71.20,1741,-7710,2638,-1,0,-1
-159.55,12.04,-71.20,1741,-7714,2633,-1,0,-1
-159.55,12.04,-71.20,1739,-7723,2631,0,0,-1
-159.55,12.04,-71.20,1745,-7721,2627,0,0,-1
-159.54,12.05,-71.20,1750,-7714,2635,0,0,-1
-159.54,12.05,-71.20,1750,-7720,2632,0,0,-1
-159.53,12.06,-71.19,1756,-7715,2630,0,0,-1
-159.53,12.06,-71.19,1748,-7712,2628,-1,0,-1
-159.52,12.06,-71.19,1750,-7711,2633,-1,0,-1
-159.52,12.06,-71.19,1759,-7721,2623,-1,0,-1
-159.51,12.07,-71.19,1750,-7718,2620,-1,0,-1
-159.51,12.07,-71.19,1749,-7719,2628,-1,0,-1
-159.51,12.08,-71.19,1748,-7715,2628,-1,0,-1
-159.50,12.08,-71.19,1754,-7711,2638,0,0,-1
-159.50,12.08,-71.19,1752,-7711,2630,0,0,-1
-159.49,12.09,-71.19,1748,-7711,2631,-1,-1,-1
-159.49,12.09,-71.20,1748,-7724,2621,-1,-1,-1
-159.49,12.10,-71.20,1756,-7726,2627,-1,0,-1
-159.49,12.10,-71.21,1754,-7729,2610,0,-1,-1
-159.47,12.11,-71.20,1768,-7722,2620,0,0,-1
-159.47,12.11,-71.19,1752,-7715,2635,0,0,-1
-159.46,12.11,-71.18,1747,-7707,2632,-1,0,-1
-159.46,12.11,-71.19,1745,-7718,2630,-1,0,-1
-159.46,12.11,-71.20,1745,-7725,2621,-1,0,-1
-159.46,12.12,-71.20,1749,-7730,2614,0,0,-1
-159.46,12.12,-71.20,1749,-7725,2607,0,0,-1
-159.45,12.12,-71.19,1753,-7721,2619,0,0,-1
-159.44,12.13,-71.19,1753,-7706,2632,-1,0,-1
-159.44,12.13,-71.19,1761,-7710,2641,-1,0,-1
-159.43,12.14,-71.19,1767,-7720,2628,-1,0,-1
-159.43,12.14,-71.20,1757,-7714,2618,-1,0,-1
-159.43,12.14,-71.20,1749,-7708,2623,-1,-1,-1
-159.43,12.14,-71.21,1749,-7712,2612,-1,-1,-1
-159.43,12.14,-71.21,1754,-7720,2618,0,0,-1
-159.43,12.14,-71.21,1748,-7722,2621,0,-1,-1
-159.42,12.15,-71.20,1758,-7717,2625,-1,0,-1
-159.42,12.15,-71.20,1753,-7714,2622,-1,0,-1
-159.41,12.16,-71.21,1757,-7715,2623,-1,0,-1
-159.41,12.16,-71.21,1758,-7716,2625,0,0,-1
-159.41,12.16,-71.20,1753,-7726,2631,0,0,-1
-159.40,12.17,-71.20,1753,-7722,2629,0,0,-1
-159.40,12.17,-71.20,1759,-7719,2635,0,0,-1
-159.39,12.17,-71.20,1768,-7715,2636,-1,0,-1
-159.38,12.18,-71.19,1765,-7709,2622,-1,-1,-1
-159.37,12.19,-71.20,1765,-7706,2622,-1,0,-1
-159.37,12.19,-71.20,1769,-7716,2619,-1,0,-1
-159.37,12.19,-71.19,1769,-7710,2626,-1,0,-1
-159.37,12.19,-71.20,1765,-7723,2628,0,0,-1
-159.36,12.20,-71.20,1766,-7719,2621,-1,0,-1
-159.36,12.20,-71.20,1761,-7709,2618,-1,0,-1
-159.35,12.20,-71.19,1767,-7710,2624,-1,0,-1
-159.34,12.21,-71.19,1768,-7709,2632,0,0,-1
-159.35,12.20,-71.19,1763,-7720,2633,0,0,-1
-159.34,12.21,-71.19,1763,-7718,2637,-1,0,-1
-159.34,12.21,-71.19,1767,-7713,2629,0,0,0
-159.33,12.21,-71.18,1764,-7711,2631,-1,0,0
-159.33,12.21,-71.18,1764,-7716,2619,0,0,-1
-159.32,12.22,-71.18,1766,-7717,2614,0,0,-1
-159.33,12.22,-71.19,1764,-7718,2620,-1,0,-1
-159.33,12.22,-71.19,1765,-7716,2625,0,0,-1
-159.31,12.22,-71.17,1769,-7710,2632,0,0,-1
-159.31,12.22,-71.17,1759,-7701,2642,-1,0,-1
-159.31,12.22,-71.18,1767,-7706,2635,-1,0,-1
-159.31,12.22,-71.19,1768,-7717,2628,-1,0,-1
-159.31,12.23,-71.19,1764,-7729,2613,0,0,-1
-159.30,12.23,-71.18,1771,-7725,2614,0,0,-1
-159.29,12.24,-71.17,1775,-7704,2631,0,0,-1
-159.28,12.24,-71.16,1775,-7703,2643,-1,0,-1
-159.28,12.24,-71.17,1779,-7710,2636,-1,0,-1
-159.29,12.24,-71.19,1776,-7717,2621,-1,0,0
-159.28,12.24,-71.19,1776,-7727,2614,0,0,-1
-159.28,12.24,-71.19,1759,-7719,2607,0,0,-1
-159.27,12.24,-71.17,1759,-7703,2629,0,0,-1
-159.27,12.24,-71.17,1760,-7697,2634,-1,0,-1
-159.26,12.24,-71.17,1781,-7706,2635,0,0,-1
-159.26,12.24,-71.17,1771,-7713,2629,-1,0,-1
-159.26,12.24,-71.17,1768,-7703,2635,0,0,0
-159.26,12.23,-71.17,1764,-7705,2638,-1,0,0
-159.26,12.24,-71.16,1761,-7708,2638,-1,0,-1
-159.25,12.24,-71.17,1765,-7718,2625,-1,0,-1
-159.25,12.24,-71.17,1767,-7726,2633,-1,0,-1
-159.25,12.24,-71.17,1763,-7727,2634,0,0,0
-159.25,12.24,-71.17,1771,-7714,2626,0,-1,0
-159.25,12.24,-71.17,1760,-7713,2614,-1,0,0
-159.26,12.23,-71.17,1754,-7715,2616,0,0,-1
-159.25,12.24,-71.17,1759,-7710,2621,0,-1,-1
-159.24,12.25,-71.17,1767,-7715,2625,0,-1,-1
-159.24,12.25,-71.16,1769,-7715,2630,0,-1,-1
-159.24,12.25,-71.15,1775,-7702,2646,-1,-1,-1
-159.23,12.25,-71.15,1774,-7697,2648,-1,-1,-1
-159.24,12.26,-71.16,1775,-7706,2635,-1,-1,-1
-159.24,12.26,-71.17,1774,-7707,2638,-1,-1,-1
-159.24,12.26,-71.17,1777,-7704,2626,-1,-1,0
-159.23,12.26,-71.17,1778,-7710,2623,0,0,0
-159.24,12.26,-71.17,1769,-7705,2630,0,-1,0
-159.24,12.26,-71.17,1766,-7707,2628,0,-1,0
-159.23,12.26,-71.17,1768,-7703,2617,-1,-1,-1
-159.23,12.26,-71.17,1780,-7708,2626,-1,-1,0
-159.24,12.26,-71.17,1779,-7712,2627,0,0,0
-159.23,12.26,-71.16,1775,-7712,2641,0,0,0
-159.24,12.26,-71.16,1772,-7721,2637,-1,-1,0
-159.24,12.26,-71.16,1774,-7716,2638,-1,-1,0
-159.23,12.26,-71.16,1776,-7714,2630,0,-1,0
-159.24,12.26,-71.16,1772,-7713,2625,-1,-1,0
-159.24,12.26,-71.16,1776,-7718,2627,0,-1,0
-159.24,12.26,-71.16,1771,-7714,2626,0,-1,-1
-159.24,12.26,-71.16,1776,-7713,2634,-1,-1,0
-159.24,12.26,-71.16,1766,-7713,2642,-1,-1,0
-159.25,12.25,-71.16,1770,-7713,2637,-1,-1,0
-159.25,12.25,-71.17,1765,-7714,2639,-1,-1,0
-159.25,12.26,-71.17,1772,-7715,2631,-1,-1,-1
-159.25,12.26,-71.17,1778,-7717,2622,0,-1,0
-159.24,12.26,-71.17,1784,-7704,2620,0,0,0
-159.24,12.26,-71.16,1772,-7695,2635,0,-1,0
-159.25,12.25,-71.16,1770,-7691,2644,-1,-1,0
-159.26,12.25,-71.16,1769,-7707,2635,-1,-1,0
-159.27,12.25,-71.18,1764,-7717,2630,-1,-1,0
-159.27,12.24,-71.18,1764,-7727,2622,0,0,0
-159.27,12.24,-71.17,1760,-7727,2623,0,0,0
-159.27,12.24,-71.17,1757,-7720,2627,0,-1,0
-159.28,12.23,-71.17,1767,-7713,2628,0,-1,0
-159.27,12.24,-71.17,1773,-7708,2626,-1,-1,0
-159.28,12.23,-71.17,1770,-7713,2629,0,-1,0
-159.28,12.23,-71.16,1772,-7703,2630,0,0,0
-159.29,12.22,-71.17,1761,-7707,2618,0,-1,0
-159.30,12.21,-71.16,1764,-7703,2630,-1,-1,0
-159.31,12.20,-71.17,1759,-7710,2614,0,-1,0
-159.32,12.20,-71.16,1758,-7710,2619,-1,-1,0
-159.32,12.20,-71.16,1766,-7712,2622,0,-1,0
-159.32,12.20,-71.16,1772,-7710,2622,0,-1,0
-159.34,12.18,-71.16,1761,-7717,2629,0,-1,0
-159.35,12.17,-71.16,1758,-7710,2624,0,-1,0
-159.36,12.16,-71.15,1749,-7708,2632,-1,-1,0
-159.37,12.15,-71.15,1732,-7717,2624,0,-1,0
-159.37,12.15,-71.14,1764,-7704,2639,-1,0,0
-159.38,12.15,-71.14,1758,-7713,2620,0,-1,0
-159.38,12.14,-71.14,1755,-7702,2634,0,-1,0
-159.38,12.14,-71.14,1763,-7700,2640,-1,0,0
-159.39,12.14,-71.14,1752,-7700,2629,-1,-1,0
-159.40,12.13,-71.15,1766,-7706,2636,0,-1,0
-159.41,12.12,-71.15,1760,-7705,2629,-1,0,0
-159.42,12.11,-71.15,1731,-7703,2635,0,0,0
-159.42,12.11,-71.15,1745,-7703,2639,-1,-1,-1
-159.42,12.11,-71.16,1744,-7706,2628,0,0,0
-159.42,12.11,-71.16,1749,-7712,2626,-1,0,0
-159.42,12.11,-71.16,1747,-7716,2643,-1,-1,-1
-159.42,12.11,-71.16,1752,-7716,2649,-1,0,0
-159.42,12.11,-71.17,1752,-7721,2635,-1,0,-1
-159.42,12.11,-71.18,1749,-7711,2634,-1,-1,-1
-159.43,12.11,-71.19,1760,-7716,2626,-1,-1,0
-159.43,12.11,-71.19,1758,-7720,2621,-1,0,0
-159.43,12.12,-71.19,1756,-7721,2620,0,0,-1
-159.43,12.12,-71.19,1762,-7724,2619,-1,0,0
-159.43,12.12,-71.19,1759,-7722,2629,-1,0,0
-159.44,12.11,-71.19,1745,-7717,2623,-1,-1,0
-159.44,12.11,-71.20,1739,-7716,2632,-1,-1,0
-159.45,12.10,-71.20,1739,-7723,2624,-1,-1,0
-159.45,12.10,-71.21,1748,-7724,2623,-1,-1,0
-159.45,12.10,-71.21,1750,-7728,2617,0,0,0
-159.45,12.10,-71.20,1750,-7715,2628,0,-1,0
-159.45,12.10,-71.20,1742,-7700,2631,-1,-1,0
-159.45,12.09,-71.20,1748,-7709,2631,-1,-1,0
-159.46,12.09,-71.21,1744,-7722,2611,-1,-1,0
-159.48,12.07,-71.21,1731,-7731,2608,0,-1,0
-159.48,12.07,-71.21,1738,-7731,2608,0,0,0
-159.49,12.07,-71.21,1740,-7720,2613,0,-1,0
-159.48,12.06,-71.20,1745,-7709,2635,0,-1,0
-159.49,12.06,-71.20,1735,-7696,2628,-1,-1,0
-159.50,12.06,-71.20,1740,-7707,2624,-1,-1,0
-159.50,12.06,-71.20,1747,-7706,2621,0,0,0
-159.51,12.04,-71.20,1729,-7719,2628,-1,-1,0
-159.52,12.04,-71.21,1730,-7722,2635,-1,0,0
-159.52,12.04,-71.21,1725,-7722,2631,-1,-1,0
-159.52,12.04,-71.21,1731,-7712,2625,-1,-1,0
-159.52,12.04,-71.21,1746,-7716,2623,-1,-1,0
-159.52,12.04,-71.21,1740,-7727,2625,-1,-1,0
-159.53,12.03,-71.22,1742,-7728,2620,-1,0,0
-159.53,12.03,-71.22,1735,-7730,2626,-1,-1,0
-159.54,12.03,-71.22,1729,-7721,2627,0,-1,0
-159.54,12.03,-71.22,1731,-7724,2628,0,-1,-1
-159.54,12.03,-71.22,1738,-7722,2621,-1,-1,-1
-159.54,12.03,-71.22,1736,-7712,2631,-1,-1,0
-159.54,12.03,-71.22,1730,-7705,2635,-1,-1,0
-159.54,12.03,-71.23,1732,-7708,2632,-1,-1,0
-159.54,12.03,-71.23,1733,-7717,2631,-1,-1,0
-159.54,12.03,-71.23,1739,-7729,2622,0,-1,0
-159.54,12.03,-71.23,1737,-7722,2612,0,-1,0
-159.55,12.02,-71.23,1735,-7726,2617,0,-1,0
-159.54,12.03,-71.22,1728,-7721,2615,0,-1,-1
-159.54,12.03,-71.22,1735,-7722,2620,0,-1,0
-159.54,12.03,-71.22,1736,-7717,2622,0,-1,0
-159.54,12.03,-71.22,1730,-7720,2622,0,-1,-1
-159.54,12.03,-71.21,1728,-7722,2622,0,-1,-1
-159.54,12.03,-71.21,1726,-7711,2613,0,-1,-1
-159.54,12.03,-71.21,1733,-7722,2611,0,-1,-1
-159.53,12.04,-71.19,1735,-7712,2621,0,-1,-1
-159.52,12.04,-71.19,1735,-7715,2643,0,0,-1
-159.52,12.04,-71.18,1725,-7708,2644,-1,0,-1
-159.52,12.04,-71.19,1735,-7718,2633,-1,-1,-1
-159.52,12.05,-71.20,1728,-7726,2621,-1,0,-1
-159.51,12.06,-71.21,1744,-7729,2608,0,0,-1
-159.50,12.06,-71.19,1745,-7714,2626,0,0,-1
-159.49,12.06,-71.18,1743,-7702,2651,0,0,-1
-159.49,12.06,-71.18,1740,-7710,2651,-1,0,-1
-159.49,12.07,-71.19,1736,-7719,2647,-1,0,-1
-159.49,12.07,-71.20,1739,-7742,2622,-1,0,-1
-159.48,12.08,-71.20,1745,-7733,2616,0,0,-1
-159.47,12.08,-71.19,1742,-7715,2625,0,0,-1
-159.46,12.09,-71.19,1731,-7703,2633,-1,0,-1
-159.46,12.09,-71.19,1741,-7707,2625,-1,0,-1
-159.46,12.10,-71.19,1751,-7717,2619,-1,0,-1
-159.45,12.10,-71.19,1749,-7719,2622,-1,0,-1
-159.45,12.11,-71.20,1750,-7717,2614,-1,0,-1
-159.45,12.11,-71.20,1754,-7712,2620,-1,0,-1
-159.44,12.11,-71.20,1753,-7709,2617,-1,0,-1
-159.44,12.12,-71.20,1753,-7713,2623,-1,0,-1
-159.43,12.12,-71.20,1750,-7718,2622,0,0,-1
-159.43,12.12,-71.20,1753,-7719,2624,0,0,-1
-159.43,12.12,-71.20,1753,-7717,2618,-1,0,-1
-159.43,12.13,-71.21,1751,-7719,2625,-1,0,-1
-159.42,12.13,-71.20,1745,-7725,2627,0,0,-1
-159.42,12.13,-71.20,1744,-7724,2630,0,0,-1
-159.41,12.13,-71.20,1742,-7715,2627,-1,0,-1
-159.41,12.14,-71.20,1748,-7708,2625,0,0,-1
-159.40,12.14,-71.20,1752,-7713,2641,-1,0,-1
-159.40,12.14,-71.20,1755,-7717,2635,-1,0,-1
-159.39,12.15,-71.20,1760,-7722,2632,-1,0,-1
-159.40,12.14,-71.21,1756,-7730,2626,-1,0,-1
-159.39,12.15,-71.20,1752,-7720,2617,0,0,-1
-159.39,12.15,-71.20,1755,-7719,2626,0,0,-1
-159.38,12.16,-71.20,1762,-7716,2629,0,0,-1
-159.38,12.16,-71.19,1764,-7716,2627,0,0,-1
-159.37,12.16,-71.19,1752,-7713,2627,0,0,-1
-159.37,12.16,-71.19,1752,-7717,2626,-1,-1,-1
-159.37,12.16,-71.20,1753,-7712,2616,-1,0,-1
-159.36,12.17,-71.20,1750,-7712,2627,-1,-1,-1
-159.36,12.17,-71.20,1757,-7715,2621,-1,0,-1
-159.36,12.17,-71.20,1753,-7710,2622,-1,0,-1
-159.36,12.17,-71.20,1753,-7709,2628,-1,0,-1
-159.35,12.18,-71.19,1760,-7718,2632,-1,0,-1
-159.35,12.18,-71.20,1757,-7719,2625,-1,0,-1
-159.34,12.19,-71.19,1758,-7713,2631,-1,-1,-1
-159.35,12.18,-71.19,1751,-7719,2638,-1,0,-1
-159.35,12.18,-71.20,1748,-7721,2628,-1,-1,-1
-159.35,12.18,-71.20,1750,-7729,2620,0,0,-1
-159.34,12.19,-71.20,1751,-7726,2621,0,0,-1
-159.33,12.19,-71.19,1753,-7719,2626,0,0,-1
-159.33,12.19,-71.19,1758,-7703,2643,-1,-1,-1
-159.33,12.19,-71.19,1761,-7710,2636,-1,-1,-1
-159.33,12.19,-71.19,1760,-7715,2632,-1,0,-1
-159.33,12.19,-71.20,1755,-7724,2612,0,0,-1
-159.33,12.19,-71.19,1744,-7716,2623,0,0,-1
-159.32,12.20,-71.19,1750,-7708,2625,0,-1,-1
-159.31,12.20,-71.19,1761,-7702,2625,-1,0,-1
-159.31,12.21,-71.19,1761,-7710,2622,-1,-1,-1
-159.31,12.21,-71.19,1770,-7705,2631,-1,0,-1
-159.30,12.21,-71.19,1758,-7717,2625,-1,0,-1
-159.31,12.21,-71.20,1760,-7710,2623,-1,0,-1
-159.31,12.21,-71.20,1758,-7711,2612,-1,-1,-1
-159.30,12.21,-71.20,1758,-7718,2624,-1,0,-1
-159.30,12.22,-71.20,1762,-7725,2622,0,0,-1
-159.29,12.22,-71.20,1769,-7718,2629,0,0,-1
-159.28,12.23,-71.20,1767,-7713,2641,0,0,-1
-159.28,12.23,-71.20,1757,-7713,2635,-1,0,-1
-159.28,12.23,-71.20,1760,-7710,2626,-1,0,-1
-159.27,12.24,-71.20,1768,-7714,2619,0,0,-1
-159.27,12.24,-71.20,1765,-7711,2621,0,0,-1
-159.27,12.24,-71.20,1763,-7714,2621,-1,0,-1
-159.26,12.24,-71.20,1758,-7718,2633,-1,-1,-1
-159.26,12.24,-71.20,1762,-7714,2634,-1,0,-1
-159.25,12.25,-71.20,1767,-7713,2619,-1,0,-1
-159.24,12.26,-71.20,1769,-7709,2621,-1,0,-1
-159.24,12.26,-71.20,1769,-7707,2625,-1,0,-1
-159.24,12.26,-71.21,1767,-7714,2630,-1,0,-1
-159.24,12.26,-71.20,1768,-7712,2630,-1,0,-1
-159.23,12.27,-71.21,1769,-7717,2625,0,0,-1
-159.22,12.27,-71.20,1769,-7719,2626,0,0,-1
-159.22,12.27,-71.20,1766,-7713,2631,0,0,-1
-159.22,12.27,-71.20,1771,-7707,2634,-1,0,-1
-159.21,12.28,-71.20,1770,-7707,2629,-1,0,-1
-159.21,12.28,-71.20,1772,-7711,2632,-1,0,-1
-159.20,12.28,-71.20,1770,-7714,2623,-1,0,-1
-159.20,12.29,-71.20,1769,-7716,2625,0,0,-1
-159.19,12.30,-71.20,1779,-7712,2626,-1,0,-1
-159.18,12.30,-71.20,1777,-7713,2623,-1,0,-1
-159.18,12.30,-71.19,1788,-7708,2635,0,0,-1
-159.17,12.30,-71.19,1779,-7708,2632,-1,0,-1
-159.17,12.31,-71.20,1781,-7703,2639,-1,0,-1
-159.16,12.31,-71.19,1772,-7704,2634,-1,0,-1
-159.16,12.31,-71.19,1764,-7717,2628,-1,0,-1
-159.16,12.31,-71.20,1772,-7724,2630,0,0,-1
-159.15,12.31,-71.20,1780,-7723,2621,0,0,-1
-159.14,12.32,-71.18,1779,-7714,2629,0,0,-1
-159.14,12.31,-71.18,1776,-7703,2639,0,0,-1
-159.13,12.32,-71.18,1778,-7704,2635,-1,-1,-1
-159.14,12.32,-71.19,1778,-7714,2625,-1,0,0
-159.14,12.32,-71.19,1779,-7724,2620,-1,0,-1
-159.14,12.32,-71.19,1771,-7724,2610,0,0,-1
-159.13,12.32,-71.19,1774,-7719,2621,0,0,-1
-159.13,12.32,-71.18,1784,-7711,2641,0,-1,-1
-159.12,12.33,-71.17,1787,-7708,2639,0,-1,0
-159.12,12.33,-71.17,1780,-7708,2632,-1,-1,0
-159.13,12.32,-71.18,1781,-7699,2630,-1,0,0
-159.13,12.32,-71.18,1775,-7704,2628,-1,-1,0
-159.13,12.32,-71.18,1777,-7705,2627,0,-1,0
-159.13,12.32,-71.18,1782,-7712,2621,0,-1,0
-159.13,12.32,-71.17,1781,-7713,2626,0,-1,0
-159.13,12.32,-71.17,1776,-7709,2638,-1,-1,0
-159.15,12.31,-71.17,1774,-7715,2629,-1,-1,0
-159.15,12.31,-71.17,1772,-7719,2626,0,-1,0
-159.15,12.31,-71.17,1781,-7724,2622,0,-1,0
-159.15,12.30,-71.16,1776,-7712,2628,0,0,0
-159.15,12.30,-71.16,1775,-7707,2628,0,0,0
-159.15,12.30,-71.16,1777,-7714,2643,-1,0,0
-159.15,12.30,-71.16,1782,-7709,2636,-1,0,-1
-159.15,12.30,-71.17,1780,-7704,2631,-1,-1,0
-159.16,12.30,-71.17,1787,-7706,2643,0,-1,0
-159.16,12.30,-71.17,1783,-7712,2634,-1,-1,0
-159.16,12.30,-71.17,1779,-7708,2632,-1,0,0
-159.16,12.30,-71.17,1778,-7716,2634,-1,-1,0
-159.16,12.30,-71.17,1771,-7713,2630,-1,-1,0
-159.17,12.29,-71.17,1773,-7709,2622,-1,-1,0
-159.17,12.29,-71.17,1775,-7713,2633,0,0,0
-159.17,12.29,-71.17,1768,-7709,2638,0,-1,0
-159.17,12.28,-71.17,1773,-7708,2628,-1,-1,0
-159.18,12.28,-71.17,1777,-7713,2629,-1,-1,0
-159.18,12.28,-71.17,1773,-7720,2629,-1,-1,0
-159.18,12.28,-71.17,1775,-7719,2631,-1,-1,0
-159.18,12.28,-71.17,1773,-7717,2629,-1,-1,-1
-159.18,12.28,-71.18,1773,-7716,2625,-1,-1,0
-159.18,12.28,-71.18,1766,-7713,2631,0,0,0
-159.19,12.28,-71.17,1769,-7711,2629,-1,0,0
-159.19,12.27,-71.17,1768,-7709,2633,0,-1,0
-159.19,12.27,-71.17,1769,-7709,2628,-1,-1,0
-159.20,12.27,-71.18,1764,-7711,2623,-1,-1,0
-159.20,12.26,-71.18,1770,-7720,2621,-1,-1,0
-159.20,12.27,-71.19,1771,-7725,2608,0,0,0
-159.20,12.27,-71.18,1777,-7721,2614,0,0,0
-159.20,12.27,-71.17,1780,-7704,2631,0,0,0
-159.20,12.26,-71.17,1765,-7692,2630,-1,-1,0
-159.22,12.25,-71.18,1755,-7707,2637,-1,-1,0
-159.23,12.25,-71.19,1762,-7724,2618,-1,-1,0
-159.24,12.24,-71.18,1756,-7729,2623,0,-1,0
-159.23,12.23,-71.17,1761,-7720,2628,0,-1,0
-159.24,12.23,-71.16,1757,-7706,2631,0,-1,0
-159.24,12.23,-71.16,1764,-7701,2637,-1,-1,0
-159.24,12.23,-71.16,1775,-7706,2637,-1,-1,0
-159.25,12.22,-71.17,1772,-7715,2626,0,-1,0
-159.25,12.22,-71.16,1773,-7714,2630,0,-1,0
-159.26,12.21,-71.16,1762,-7707,2638,0,-1,0
-159.26,12.21,-71.16,1761,-7705,2641,0,-1,0
-159.27,12.21,-71.16,1759,-7711,2637,-1,-1,0
-159.27,12.21,-71.16,1764,-7715,2638,0,-1,0
-159.28,12.19,-71.15,1761,-7708,2637,0,-1,0
-159.29,12.18,-71.16,1749,-7712,2643,-1,-1,0
-159.30,12.18,-71.16,1752,-7719,2633,-1,-1,0
-159.30,12.18,-71.17,1745,-7719,2626,0,-1,0
-159.30,12.18,-71.17,1753,-7720,2613,0,0,0
-159.31,12.17,-71.16,1752,-7713,2621,0,-1,0
-159.31,12.16,-71.15,1749,-7710,2643,-1,0,0
-159.32,12.15,-71.16,1760,-7724,2635,-1,0,0
-159.32,12.15,-71.16,1762,-7718,2643,-1,-1,0
-159.33,12.15,-71.16,1762,-7715,2645,-1,-1,0
-159.34,12.15,-71.16,1747,-7720,2633,-1,-1,0
-159.34,12.14,-71.16,1762,-7722,2623,0,-1,0
-159.35,12.14,-71.16,1761,-7719,2625,0,0,0
-159.36,12.13,-71.16,1750,-7719,2625,0,0,0
-159.36,12.12,-71.15,1748,-7711,2625,0,-1,0
-159.37,12.12,-71.15,1753,-7714,2636,-1,-1,0
-159.38,12.11,-71.16,1740,-7721,2616,0,-1,0
-159.39,12.11,-71.16,1757,-7716,2622,0,-1,0
-159.40,12.10,-71.16,1757,-7718,2624,-1,-1,0
-159.41,12.09,-71.16,1751,-7702,2625,0,-1,0
-159.41,12.09,-71.15,1742,-7696,2643,-1,-1,0
-159.42,12.08,-71.16,1738,-7710,2641,-1,-1,0
-159.43,12.07,-71.16,1756,-7715,2633,-1,-1,0
-159.44,12.06,-71.16,1737,-7719,2629,0,0,0
-159.45,12.06,-71.16,1739,-7716,2633,0,-1,0
-159.45,12.06,-71.16,1739,-7707,2629,-1,-1,0
-159.46,12.05,-71.16,1733,-7711,2643,-1,-1,0
-159.47,12.04,-71.16,1736,-7711,2636,0,0,0
-159.47,12.03,-71.15,1741,-7710,2651,-1,0,0
-159.48,12.03,-71.16,1718,-7717,2634,0,-1,0
-159.48,12.03,-71.17,1733,-7727,2638,-1,-1,0
-159.48,12.03,-71.17,1732,-7726,2617,0,-1,0
-159.48,12.02,-71.15,1743,-7709,2628,0,0,0
-159.49,12.02,-71.15,1723,-7697,2641,-1,-1,0
-159.49,12.01,-71.15,1726,-7699,2647,-1,-1,0
-159.50,12.01,-71.17,1729,-7717,2628,-1,-1,0
-159.50,12.01,-71.17,1730,-7726,2628,-1,0,0
-159.51,12.01,-71.18,1731,-7732,2619,0,0,-1
-159.50,12.01,-71.17,1728,-7724,2632,0,-1,0
-159.50,12.01,-71.17,1716,-7712,2626,0,0,-1
-159.50,12.02,-71.17,1727,-7711,2632,-1,-1,-1
-159.50,12.02,-71.17,1732,-7708,2644,-1,-1,-1
-159.50,12.02,-71.17,1732,-7711,2636,-1,-1,-1
-159.50,12.02,-71.18,1737,-7711,2639,-1,-1,0
-159.50,12.02,-71.18,1735,-7712,2637,-1,-1,-1
-159.50,12.02,-71.19,1718,-7725,2629,-1,-1,-1
-159.49,12.03,-71.19,1723,-7726,2629,-1,-1,-1
-159.49,12.03,-71.19,1735,-7723,2634,0,0,-1
-159.48,12.04,-71.18,1737,-7712,2635,-1,0,-1
-159.48,12.04,-71.19,1737,-7717,2631,0,0,-1
-159.47,12.05,-71.19,1742,-7730,2634,-1,0,-1
-159.46,12.05,-71.19,1733,-7733,2639,0,0,-1
-159.46,12.05,-71.18,1728,-7724,2635,0,0,-1
-159.45,12.06,-71.18,1731,-7723,2636,0,-1,-1
-159.44,12.07,-71.18,1733,-7720,2636,0,0,-1
-159.43,12.08,-71.17,1740,-7717,2642,-1,0,-1
-159.42,12.08,-71.18,1739,-7717,2644,-1,0,-1
-159.42,12.08,-71.18,1738,-7719,2646,-1,0,-1
-159.42,12.09,-71.18,1741,-7718,2636,-1,0,-1
-159.41,12.09,-71.18,1741,-7729,2638,-1,0,-1
-159.40,12.10,-71.18,1743,-7724,2628,0,0,-1
-159.40,12.11,-71.18,1744,-7723,2625,0,0,-1
-159.39,12.11,-71.18,1751,-7711,2640,-1,0,-1
-159.38,12.11,-71.18,1743,-7716,2630,-1,0,-1
-159.38,12.12,-71.18,1743,-7717,2640,-1,0,-1
-159.37,12.13,-71.18,1744,-7719,2636,-1,0,-1
-159.37,12.13,-71.18,1740,-7720,2639,-1,0,-1
-159.36,12.13,-71.18,1744,-7719,2645,-1,0,-1
-159.36,12.14,-71.18,1749,-7707,2639,-1,0,-1
-159.35,12.14,-71.18,1748,-7708,2640,-1,-1,-1
-159.35,12.14,-71.18,1749,-7711,2634,0,0,-1
-159.35,12.14,-71.18,1746,-7710,2632,-1,0,-1
-159.34,12.15,-71.18,1748,-7714,2638,-1,0,-1
-159.34,12.15,-71.19,1757,-7723,2629,-1,-1,-1
-159.34,12.15,-71.19,1755,-7730,2634,0,0,-1
-159.33,12.16,-71.19,1748,-7726,2637,0,-1,-1
-159.32,12.16,-71.18,1755,-7707,2643,0,0,-1
-159.31,12.17,-71.18,1761,-7715,2632,-1,0,-1
-159.31,12.17,-71.18,1760,-7713,2629,-1,0,-1
-159.31,12.17,-71.18,1750,-7727,2628,-1,0,-1
-159.31,12.17,-71.19,1741,-7729,2619,-1,0,-1
-159.31,12.17,-71.19,1741,-7719,2617,0,-1,-1
-159.30,12.17,-71.18,1745,-7710,2629,0,0,-1
-159.29,12.18,-71.17,1750,-7698,2629,0,0,-1
-159.29,12.18,-71.17,1752,-7690,2634,-1,0,-1
-159.29,12.19,-71.17,1752,-7702,2636,-1,0,-1
-159.29,12.18,-71.18,1751,-7708,2640,-1,0,0
-159.29,12.18,-71.19,1746,-7710,2619,-1,0,-1
-159.29,12.19,-71.19,1751,-7722,2620,-1,0,-1
-159.29,12.19,-71.19,1752,-7715,2616,-1,0,-1
-159.29,12.19,-71.20,1747,-7711,2622,-1,-1,-1
-159.28,12.20,-71.20,1756,-7717,2623,-1,0,-1
-159.28,12.20,-71.21,1755,-7719,2621,-1,0,-1
-159.27,12.20,-71.21,1753,-7721,2623,-1,0,-1
-159.27,12.21,-71.21,1742,-7716,2622,0,0,-1
-159.27,12.21,-71.20,1746,-7716,2624,0,0,-1
-159.25,12.22,-71.20,1752,-7709,2630,0,0,-1
-159.24,12.22,-71.19,1758,-7707,2636,-1,-1,-1
-159.24,12.22,-71.19,1761,-7709,2628,0,0,-1
-159.24,12.23,-71.19,1763,-7705,2641,-1,-1,-1
-159.23,12.23,-71.19,1762,-7705,2636,0,0,-1
-159.23,12.23,-71.18,1749,-7712,2624,0,0,-1
-159.22,12.23,-71.18,1759,-7708,2639,0,-1,-1
-159.22,12.23,-71.17,1756,-7702,2619,0,-1,-1
-159.22,12.24,-71.17,1748,-7703,2633,0,-1,-1
-159.22,12.24,-71.16,1746,-7708,2632,0,0,-1
-159.21,12.24,-71.16,1762,-7702,2637,0,0,-1
-159.21,12.24,-71.16,1758,-7709,2638,-1,0,-1
-159.21,12.24,-71.16,1753,-7714,2635,-1,0,0
-159.21,12.24,-71.17,1761,-7715,2631,-1,0,-1
-159.21,12.24,-71.16,1752,-7716,2634,-1,0,-1
-159.20,12.24,-71.16,1751,-7709,2633,-1,0,-1
-159.19,12.25,-71.16,1749,-7707,2629,-1,0,-1
-159.19,12.25,-71.17,1758,-7709,2629,-1,0,-1
-159.19,12.25,-71.17,1755,-7706,2627,-1,0,-1
-159.19,12.25,-71.18,1758,-7709,2637,-1,0,-1
-159.19,12.26,-71.19,1758,-7715,2622,-1,0,-1
-159.19,12.26,-71.19,1765,-7719,2614,0,0,-1
-159.18,12.27,-71.19,1761,-7708,2630,0,0,-1
-159.17,12.27,-71.19,1761,-7704,2628,-1,0,-1
-159.16,12.27,-71.18,1770,-7709,2630,-1,0,-1
-159.17,12.28,-71.19,1771,-7720,2620,-1,0,-1
-159.16,12.28,-71.20,1765,-7721,2618,-1,0,-1
-159.17,12.28,-71.20,1753,-7713,2625,0,0,-1
-159.16,12.28,-71.20,1751,-7709,2622,0,0,-1
-159.15,12.29,-71.19,1756,-7707,2625,-1,0,-1
-159.14,12.29,-71.20,1761,-7712,2628,-1,0,-1
-159.14,12.30,-71.20,1768,-7717,2621,-1,0,-1
-159.14,12.30,-71.20,1774,-7717,2630,-1,0,-1
-159.13,12.30,-71.20,1772,-7711,2626,-1,0,-1
-159.13,12.31,-71.21,1769,-7704,2627,-1,0,-1
-159.13,12.31,-71.21,1763,-7716,2636,-1,0,-1
-159.13,12.31,-71.21,1761,-7717,2633,-1,0,-1
-159.12,12.31,-71.21,1757,-7716,2629,0,0,-1
-159.12,12.31,-71.21,1763,-7704,2633,-1,0,-1
-159.12,12.31,-71.21,1766,-7707,2623,0,0,-1
-159.11,12.32,-71.21,1769,-7706,2633,-1,0,-1
-159.10,12.32,-71.21,1769,-7724,2633,-1,0,-1
-159.10,12.32,-71.21,1760,-7717,2632,-1,0,-1
-159.10,12.32,-71.21,1764,-7706,2632,-1,0,-1
-159.09,12.33,-71.21,1765,-7702,2629,-1,0,-1
-159.09,12.33,-71.21,1766,-7708,2625,-1,0,-1
-159.08,12.34,-71.21,1771,-7709,2624,-1,0,-1
-159.07,12.34,-71.21,1772,-7706,2628,-1,0,-1
-159.08,12.34,-71.22,1768,-7704,2623,-1,0,-1
-159.07,12.34,-71.22,1775,-7719,2621,-1,0,-1
-159.07,12.35,-71.22,1779,-7720,2619,-1,0,-1
-159.06,12.35,-71.22,1778,-7703,2615,0,0,-1
-159.05,12.36,-71.22,1774,-7712,2616,0,0,-1
-159.05,12.36,-71.22,1777,-7711,2618,0,0,-1
-159.05,12.36,-71.21,1775,-7702,2630,0,0,-1
-159.04,12.36,-71.22,1768,-7702,2619,-1,0,-1
-159.04,12.36,-71.22,1777,-7706,2607,0,-1,-1
-159.04,12.36,-71.21,1789,-7707,2619,0,0,0
-159.03,12.37,-71.20,1776,-7703,2622,0,0,-1
-159.03,12.37,-71.20,1766,-7711,2632,0,0,-1
-159.03,12.37,-71.20,1778,-7706,2636,0,-1,0
-159.04,12.36,-71.20,1776,-7710,2622,-1,-1,0
-159.04,12.36,-71.20,1773,-7709,2627,-1,0,-1
-159.04,12.36,-71.21,1771,-7726,2609,0,0,-1
-159.03,12.36,-71.19,1787,-7725,2626,0,0,0
-159.03,12.36,-71.18,1771,-7713,2612,0,0,-1
-159.01,12.36,-71.16,1778,-7691,2654,0,0,-1
-159.01,12.36,-71.17,1779,-7692,2642,-1,0,0
-159.02,12.35,-71.17,1776,-7712,2629,-1,0,0
-159.02,12.35,-71.17,1766,-7722,2629,-1,0,-1
-159.01,12.35,-71.16,1774,-7719,2626,0,0,-1
-159.00,12.35,-71.15,1759,-7700,2656,-1,-1,-1
-159.00,12.35,-71.15,1768,-7699,2643,0,0,-1
-159.01,12.35,-71.16,1770,-7700,2642,-1,0,-1
-159.00,12.36,-71.17,1779,-7710,2638,-1,0,-1
-159.00,12.35,-71.17,1769,-7716,2635,-1,0,-1
-159.00,12.35,-71.17,1774,-7717,2637,0,-1,-1
-159.00,12.36,-71.17,1764,-7713,2631,-1,-1,-1
-159.00,12.36,-71.18,1765,-7723,2624,0,0,-1
-158.99,12.36,-71.17,1774,-7727,2629,-1,0,-1
-158.98,12.37,-71.17,1771,-7719,2633,0,0,-1
-158.98,12.36,-71.16,1783,-7709,2640,0,0,-1
-158.98,12.36,-71.16,1777,-7715,2626,0,-1,-1
-158.98,12.37,-71.15,1781,-7713,2632,0,0,0
-158.98,12.36,-71.15,1765,-7709,2625,0,-1,0
-158.98,12.37,-71.14,1773,-7702,2639,0,-1,0
-158.98,12.36,-71.14,1769,-7703,2637,-1,-1,0
-158.99,12.36,-71.14,1777,-7697,2640,-1,-1,0
-158.99,12.36,-71.14,1771,-7701,2639,-1,-1,0
-158.99,12.36,-71.15,1787,-7704,2648,-1,-1,0
-158.99,12.36,-71.15,1770,-7701,2632,-1,-1,-1
-158.98,12.36,-71.15,1785,-7697,2637,-1,-1,-1
-158.98,12.36,-71.15,1778,-7701,2630,0,-1,0
-158.99,12.36,-71.15,1778,-7694,2640,0,0,-1
-158.99,12.36,-71.15,1767,-7705,2647,-1,-1,-1
-158.98,12.36,-71.15,1770,-7711,2640,-1,-1,-1
-158.98,12.36,-71.16,1768,-7713,2634,-1,-1,-1
-158.99,12.36,-71.16,1773,-7709,2642,-1,0,-1
-158.99,12.36,-71.16,1769,-7713,2640,0,0,-1
-158.99,12.36,-71.16,1773,-7713,2641,-1,0,-1
-158.99,12.35,-71.16,1771,-7714,2637,-1,-1,0
-158.99,12.35,-71.16,1780,-7709,2633,-1,0,0
-158.99,12.35,-71.16,1774,-7712,2638,0,-1,0
-158.99,12.35,-71.16,1771,-7714,2652,-1,-1,0
-159.00,12.35,-71.17,1764,-7711,2645,-1,-1,0
-159.00,12.35,-71.17,1776,-7711,2630,-1,-1,-1
-159.00,12.35,-71.18,1779,-7720,2628,0,-1,-1
-159.00,12.35,-71.17,1778,-7719,2630,0,0,0
-159.00,12.35,-71.16,1769,-7703,2639,0,-1,0
-159.00,12.35,-71.16,1771,-7698,2647,-1,-1,0
-159.01,12.34,-71.17,1771,-7708,2638,-1,-1,0
-159.02,12.34,-71.17,1772,-7716,2625,-1,0,0
-159.02,12.33,-71.17,1765,-7718,2615,0,-1,0
-159.02,12.33,-71.17,1759,-7712,2621,0,-1,-1
-159.02,12.34,-71.17,1771,-7706,2623,-1,0,-1
-159.02,12.34,-71.17,1766,-7706,2615,-1,-1,0
-159.02,12.34,-71.18,1779,-7704,2633,-1,0,-1
-159.02,12.33,-71.18,1776,-7711,2646,-1,-1,0
-159.02,12.33,-71.18,1770,-7704,2650,-1,0,0
-159.02,12.33,-71.18,1767,-7704,2638,-1,-1,0
-159.03,12.33,-71.19,1766,-7707,2635,-1,-1,0
-159.03,12.33,-71.19,1770,-7713,2627,0,-1,-1
-159.03,12.33,-71.19,1768,-7718,2626,0,0,0
-159.03,12.33,-71.19,1769,-7716,2628,-1,-1,0
-159.03,12.33,-71.19,1769,-7715,2643,-1,0,0
-159.04,12.32,-71.20,1761,-7713,2632,-1,-1,0
-159.04,12.32,-71.20,1755,-7718,2627,0,0,0
-159.05,12.31,-71.20,1758,-7715,2620,0,0,-1
-159.05,12.31,-71.19,1754,-7709,2625,0,-1,0
-159.05,12.31,-71.19,1763,-7702,2638,-1,-1,0
-159.05,12.31,-71.19,1764,-7710,2639,-1,-1,0
-159.05,12.31,-71.19,1768,-7715,2637,-1,-1,0
-159.06,12.30,-71.20,1766,-7710,2625,-1,-1,0
-159.07,12.30,-71.21,1766,-7714,2623,-1,-1,0
-159.07,12.30,-71.21,1757,-7714,2620,-1,-1,0
-159.08,12.29,-71.21,1754,-7718,2612,0,-1,0
-159.08,12.28,-71.20,1766,-7713,2621,0,0,0
-159.08,12.28,-71.20,1767,-7715,2637,0,-1,0
-159.08,12.28,-71.19,1768,-7717,2642,-1,0,0
-159.08,12.28,-71.19,1776,-7723,2642,0,0,0
-159.08,12.28,-71.19,1769,-7716,2636,-1,0,0
-159.08,12.28,-71.20,1755,-7708,2628,-1,0,0
-159.09,12.27,-71.20,1753,-7710,2625,-1,0,-1
-159.09,12.27,-71.20,1760,-7714,2619,-1,0,-1
-159.09,12.27,-71.20,1770,-7719,2622,-1,0,0
-159.09,12.27,-71.20,1772,-7723,2636,-1,0,0
-159.10,12.26,-71.21,1761,-7708,2639,-1,0,0
-159.10,12.26,-71.21,1762,-7712,2637,-1,-1,0
-159.11,12.26,-71.22,1759,-7719,2627,-1,-1,-1
-159.11,12.26,-71.22,1763,-7720,2612,0,-1,-1
-159.10,12.27,-71.21,1764,-7712,2611,0,0,0
-159.11,12.25,-71.21,1760,-7701,2624,0,-1,0
-159.11,12.25,-71.21,1752,-7700,2630,-1,-1,0
-159.12,12.25,-71.22,1757,-7712,2626,-1,-1,0
-159.13,12.24,-71.23,1765,-7724,2614,-1,0,0
-159.13,12.24,-71.23,1753,-7726,2612,-1,-1,0
-159.13,12.24,-71.22,1753,-7713,2619,0,0,-1
-159.13,12.24,-71.22,1744,-7702,2629,0,-1,-1
-159.13,12.24,-71.22,1755,-7698,2640,-1,-1,0
-159.13,12.24,-71.22,1765,-7710,2630,-1,-1,-1
-159.13,12.24,-71.22,1769,-7713,2637,-1,0,0
-159.14,12.23,-71.22,1761,-7712,2639,0,0,0
-159.14,12.23,-71.22,1750,-7703,2639,-1,-1,0
-159.15,12.22,-71.23,1745,-7715,2626,-1,-1,0
-159.15,12.22,-71.23,1751,-7721,2624,0,0,0
-159.15,12.22,-71.23,1756,-7723,2629,0,-1,0
-159.16,12.21,-71.23,1762,-7717,2626,-1,0,0
-159.16,12.21,-71.22,1757,-7714,2637,-1,-1,0
-159.16,12.21,-71.23,1748,-7710,2623,0,-1,0
-159.17,12.20,-71.24,1749,-7724,2612,-1,-1,0
-159.17,12.20,-71.24,1747,-7729,2615,0,-1,0
-159.17,12.20,-71.24,1748,-7723,2611,0,-1,-1
-159.17,12.20,-71.23,1749,-7712,2634,-1,-1,-1
-159.17,12.20,-71.23,1749,-7718,2629,0,-1,0
-159.17,12.20,-71.23,1756,-7714,2622,-1,-1,0
-159.18,12.20,-71.24,1761,-7721,2622,-1,-1,0
-159.18,12.20,-71.24,1756,-7714,2620,-1,-1,0
-159.19,12.19,-71.24,1750,-7710,2622,0,-1,0
-159.19,12.19,-71.24,1750,-7710,2619,0,-1,0
-159.20,12.18,-71.24,1743,-7721,2609,0,-1,0
-159.20,12.18,-71.24,1744,-7726,2622,0,-1,-1
-159.19,12.18,-71.23,1735,-7719,2629,0,-1,-1
-159.19,12.18,-71.23,1737,-7713,2631,0,-1,-1
-159.19,12.18,-71.23,1739,-7712,2623,0,-1,-1
-159.19,12.18,-71.22,1743,-7714,2631,-1,0,-1
-159.19,12.18,-71.22,1744,-7724,2622,0,0,-1
-159.19,12.18,-71.22,1741,-7719,2617,0,-1,-1
-159.18,12.18,-71.21,1739,-7720,2621,0,-1,-1
-159.18,12.19,-71.21,1743,-7712,2623,-1,-1,-1
-159.18,12.19,-71.22,1748,-7719,2630,-1,-1,-1
-159.17,12.20,-71.21,1760,-7730,2629,0,-1,-1
-159.16,12.20,-71.21,1764,-7727,2621,0,0,-1
-159.15,12.21,-71.20,1753,-7701,2629,0,0,-1
-159.15,12.21,-71.20,1745,-7700,2630,0,0,-1
-159.14,12.21,-71.19,1745,-7704,2634,-1,0,-1
-159.15,12.21,-71.20,1742,-7719,2638,-1,0,-1
-159.15,12.21,-71.21,1739,-7734,2615,-1,0,-1
-159.14,12.21,-71.21,1738,-7730,2606,0,0,-1
-159.14,12.21,-71.21,1736,-7714,2611,0,0,-1
-159.13,12.22,-71.20,1742,-7706,2616,-1,-1,-1
-159.12,12.23,-71.21,1756,-7711,2620,-1,0,-1
-159.12,12.23,-71.21,1770,-7716,2628,-1,0,-1
-159.12,12.23,-71.21,1764,-7716,2622,-1,0,-1
-159.12,12.23,-71.21,1752,-7716,2624,-1,0,-1
-159.12,12.24,-71.22,1755,-7719,2623,-1,-1,-1
-159.11,12.24,-71.22,1760,-7724,2620,-1,0,-1
-159.11,12.24,-71.22,1762,-7722,2625,0,0,-1
-159.10,12.25,-71.21,1756,-7715,2631,0,0,-1
-159.10,12.25,-71.21,1747,-7721,2638,-1,-1,-1
-159.10,12.25,-71.21,1756,-7713,2633,-1,-1,-1
-159.09,12.25,-71.22,1762,-7723,2625,0,0,-1
-159.08,12.25,-71.21,1757,-7721,2631,0,0,-1
-159.09,12.25,-71.21,1752,-7725,2630,0,0,-1
-159.08,12.25,-71.20,1753,-7714,2636,-1,0,-1
-159.08,12.26,-71.21,1755,-7714,2625,-1,-1,-1
-159.08,12.26,-71.21,1761,-7717,2625,-1,0,-1
-159.07,12.26,-71.21,1765,-7714,2627,-1,0,-1
-159.07,12.26,-71.21,1763,-7711,2621,-1,0,-1
-159.06,12.27,-71.21,1764,-7719,2625,-1,0,-1
-159.06,12.27,-71.21,1759,-7717,2614,-1,0,-1
-159.06,12.27,-71.21,1760,-7715,2625,-1,0,-1
-159.06,12.27,-71.21,1753,-7719,2636,0,0,-1
-159.05,12.27,-71.21,1752,-7719,2631,0,0,-1
-159.05,12.27,-71.20,1761,-7716,2633,0,0,-1
-159.05,12.27,-71.20,1755,-7714,2629,-1,0,-1
-159.04,12.28,-71.20,1757,-7707,2633,-1,0,-1
-159.04,12.28,-71.20,1756,-7709,2634,-1,-1,-1
-159.04,12.28,-71.20,1756,-7712,2626,0,0,-1
-159.03,12.29,-71.20,1763,-7707,2632,-1,0,-1
-159.03,12.29,-71.20,1764,-7702,2628,-1,-1,-1
-159.03,12.29,-71.20,1762,-7705,2637,-1,-1,-1
-159.02,12.30,-71.21,1765,-7717,2631,-1,0,-1
-159.01,12.30,-71.21,1772,-7717,2628,0,0,-1
-159.01,12.30,-71.20,1767,-7708,2623,0,0,-1
-159.00,12.30,-71.19,1766,-7696,2637,0,0,-1
-159.00,12.31,-71.19,1769,-7701,2643,-1,0,-1
-159.00,12.31,-71.20,1770,-7711,2629,-1,0,-1
-158.99,12.31,-71.20,1768,-7708,2620,0,0,-1
-158.99,12.31,-71.19,1761,-7711,2625,0,0,-1
-158.99,12.31,-71.19,1760,-7704,2630,0,0,-1
-158.98,12.32,-71.18,1767,-7706,2637,-1,0,-1
-158.97,12.33,-71.18,1772,-7707,2642,-1,0,-1
-158.97,12.32,-71.19,1768,-7706,2634,-1,0,-1
-158.97,12.33,-71.19,1761,-7707,2632,-1,0,-1
-158.97,12.33,-71.19,1759,-7711,2626,-1,0,-1
-158.96,12.33,-71.20,1766,-7711,2627,-1,0,-1
-158.96,12.33,-71.20,1766,-7722,2631,-1,0,-1
-158.96,12.33,-71.20,1764,-7726,2622,0,0,-1
-158.95,12.34,-71.20,1763,-7721,2629,0,0,-1
-158.95,12.34,-71.20,1769,-7722,2625,0,0,-1
-158.95,12.34,-71.20,1763,-7719,2625,-1,0,-1
-158.94,12.34,-71.20,1771,-7714,2625,-1,0,-1
-158.94,12.34,-71.20,1774,-7725,2629,-1,0,-1
-158.94,12.34,-71.19,1765,-7722,2634,0,0,-1
-158.93,12.34,-71.18,1762,-7712,2635,0,0,-1
-158.93,12.34,-71.18,1764,-7707,2642,-1,0,-1
-158.93,12.34,-71.18,1768,-7704,2642,-1,0,-1
-158.92,12.35,-71.18,1768,-7704,2632,-1,0,-1
-158.92,12.35,-71.19,1767,-7710,2627,-1,0,-1
-158.92,12.35,-71.19,1772,-7708,2616,-1,0,-1
-158.91,12.35,-71.19,1767,-7708,2629,-1,0,-1
-158.92,12.35,-71.19,1766,-7710,2616,0,0,-1
-158.91,12.36,-71.19,1773,-7709,2622,0,0,-1
-158.90,12.36,-71.18,1775,-7712,2626,0,0,-1
-158.89,12.36,-71.18,1771,-7708,2631,-1,0,-1
-158.89,12.36,-71.18,1774,-7704,2627,-1,0,-1
-158.88,12.37,-71.18,1771,-7706,2636,-1,0,-1
-158.88,12.37,-71.18,1774,-7708,2627,-1,0,-1
-158.87,12.38,-71.18,1769,-7704,2617,-1,0,-1
-158.87,12.38,-71.18,1784,-7708,2613,0,0,-1
-158.87,12.38,-71.18,1779,-7710,2625,-1,0,-1
-158.86,12.38,-71.18,1781,-7705,2629,-1,0,-1
-158.85,12.39,-71.18,1771,-7704,2626,-1,0,-1
-158.85,12.39,-71.18,1773,-7707,2620,-1,0,-1
-158.85,12.39,-71.18,1781,-7703,2624,0,0,-1
-158.84,12.39,-71.18,1783,-7708,2632,-1,0,-1
-158.84,12.40,-71.19,1782,-7714,2632,-1,0,-1
-158.84,12.40,-71.19,1779,-7714,2623,-1,0,-1
-158.84,12.40,-71.19,1778,-7711,2618,0,0,-1
