Yaw,Pitch,Roll,AX,AY,AZ,GX,GY,GZ
-176.22,152.90,-124.29,3823,-6162,-4204,-1,0,0
-176.21,152.90,-124.29,3818,-6163,-4205,0,0,0
-176.21,152.90,-124.29,3814,-6161,-4205,0,0,0
-176.21,152.90,-124.28,3828,-6166,-4199,-1,-1,0
-176.23,152.91,-124.29,3820,-6172,-4220,0,0,-1
-176.21,152.90,-124.28,3816,-6176,-4220,0,0,-1
-176.21,152.89,-124.28,3818,-6170,-4202,0,0,-1
-176.21,152.89,-124.28,3818,-6166,-4197,-1,-1,0
-176.21,152.90,-124.29,3822,-6173,-4205,-1,-1,0
-176.21,152.89,-124.28,3820,-6176,-4217,0,0,-1
-176.20,152.89,-124.27,3818,-6176,-4205,0,0,-1
-176.21,152.89,-124.28,3821,-6168,-4208,-1,-1,-1
-176.21,152.89,-124.28,3825,-6160,-4208,-1,-1,-1
-176.21,152.89,-124.28,3829,-6161,-4207,0,0,-1
-176.20,152.89,-124.27,3823,-6161,-4198,0,0,-1
-176.19,152.88,-124.26,3825,-6153,-4183,0,-1,0
-176.19,152.88,-124.27,3829,-6161,-4189,-1,-1,0
-176.21,152.89,-124.28,3833,-6169,-4207,-1,-1,0
-176.21,152.89,-124.28,3831,-6168,-4220,0,0,-1
-176.21,152.89,-124.28,3822,-6162,-4222,0,0,-1
-176.20,152.88,-124.28,3819,-6162,-4207,0,0,-1
-176.20,152.89,-124.27,3818,-6169,-4208,0,0,0
-176.20,152.89,-124.27,3823,-6175,-4211,0,0,-1
-176.20,152.88,-124.27,3827,-6174,-4216,-1,0,-1
-176.19,152.87,-124.27,3822,-6169,-4222,-1,0,-1
-176.19,152.86,-124.27,3819,-6168,-4219,0,0,-1
-176.18,152.86,-124.26,3828,-6165,-4206,0,0,-1
-176.16,152.85,-124.25,3830,-6166,-4198,0,0,-1
-176.15,152.84,-124.24,3831,-6178,-4205,0,0,-1
-176.13,152.82,-124.21,3829,-6171,-4221,1,1,-1
-176.09,152.80,-124.16,3812,-6168,-4183,1,1,-1
-176.06,152.77,-124.12,3821,-6164,-4174,0,0,-1
-176.03,152.75,-124.11,3844,-6178,-4210,0,1,-1
-175.98,152.70,-124.06,3857,-6189,-4246,1,2,-1
-175.90,152.63,-123.98,3853,-6206,-4289,2,4,-2
-175.72,152.48,-123.81,3866,-6233,-4322,5,7,-4
-175.46,152.25,-123.56,3870,-6271,-4330,7,10,-5
-175.07,151.94,-123.21,3882,-6261,-4251,9,12,-7
-174.65,151.61,-122.83,3926,-6214,-4083,9,11,-6
-174.28,151.32,-122.52,3919,-6200,-3952,6,10,-6
-173.95,151.05,-122.28,3959,-6174,-3898,5,8,-6
-173.65,150.81,-122.06,4030,-6162,-3865,5,7,-5
-173.38,150.62,-121.86,4066,-6150,-3811,4,5,-4
-173.20,150.47,-121.72,4089,-6157,-3768,2,4,-3
-173.07,150.37,-121.63,4131,-6155,-3746,1,2,-2
-172.99,150.30,-121.58,4163,-6148,-3728,0,1,-1
-172.97,150.29,-121.55,4151,-6150,-3736,0,-1,0
-172.98,150.32,-121.56,4136,-6154,-3721,-1,-2,0
-173.03,150.36,-121.60,4146,-6164,-3733,-2,-3,1
-173.12,150.43,-121.67,4130,-6180,-3777,-2,-3,1
-173.19,150.49,-121.73,4138,-6199,-3815,-2,-3,1
-173.25,150.54,-121.79,4136,-6216,-3880,-1,-2,0
-173.26,150.56,-121.79,4118,-6225,-3894,0,-1,0
-173.26,150.56,-121.78,4109,-6212,-3880,0,0,-1
-173.23,150.53,-121.76,4124,-6218,-3911,1,1,-1
-173.17,150.49,-121.69,4097,-6227,-3930,2,3,-1
-173.03,150.39,-121.56,4116,-6246,-3913,3,4,-3
-172.86,150.25,-121.42,4128,-6264,-3927,3,6,-4
-172.62,150.05,-121.22,4119,-6302,-3892,4,8,-5
-172.33,149.77,-121.03,4075,-6339,-3875,3,11,-8
-171.93,149.39,-120.80,4076,-6352,-3907,6,13,-11
-171.36,148.92,-120.45,4152,-6297,-3854,11,14,-11
-170.78,148.56,-120.03,4209,-6128,-3687,10,9,-8
-170.25,148.12,-119.77,4172,-6005,-3279,2,8,-13
-170.00,147.86,-119.84,4416,-6008,-3239,-3,-2,-7
-169.97,147.77,-120.01,4464,-6092,-3400,-5,-2,-5
-169.91,147.64,-120.12,4404,-6133,-3513,-1,1,-7
-169.75,147.44,-120.19,4439,-6126,-3520,-3,2,-8
-169.60,147.24,-120.27,4516,-6084,-3532,-2,2,-7
-169.48,147.08,-120.34,4639,-6037,-3522,-1,0,-4
-169.43,146.98,-120.43,4689,-6042,-3560,-3,0,-3
-169.44,146.91,-120.50,4588,-6041,-3536,-3,0,-3
-169.51,146.83,-120.64,4560,-6026,-3546,-5,1,-2
-169.55,146.78,-120.74,4546,-6060,-3552,-5,2,-3
-169.63,146.69,-120.89,4737,-5989,-3582,-4,-1,-3
-169.61,146.62,-120.98,4717,-5988,-3643,-2,0,-2
-169.61,146.57,-121.01,4648,-5965,-3596,-1,1,-1
-169.62,146.57,-121.01,4602,-5984,-3574,-1,0,-1
-169.74,146.56,-121.10,4307,-6007,-3485,0,-3,-3
-169.73,146.58,-121.18,4748,-5910,-3558,-1,-7,3
-169.83,146.70,-121.24,4697,-5974,-3637,-1,-4,1
-169.88,146.77,-121.26,4488,-6026,-3676,-1,-1,-1
-169.95,146.75,-121.32,4393,-5965,-3416,-8,0,-1
-170.16,146.91,-121.62,4682,-5948,-3421,-11,-12,2
-170.53,147.17,-122.01,4690,-5931,-3802,-2,-13,4
-170.65,147.25,-122.10,4641,-5979,-3921,-2,2,0
-170.67,147.26,-122.07,4575,-5959,-3755,0,-2,1
-170.71,147.34,-122.08,4551,-5966,-3764,0,-3,1
-170.75,147.39,-122.10,4530,-5979,-3772,0,-2,0
-170.78,147.43,-122.12,4524,-5976,-3784,-1,-2,0
-170.81,147.46,-122.13,4514,-5967,-3771,-1,-1,1
-170.87,147.51,-122.14,4508,-5979,-3769,-1,-1,1
-170.91,147.54,-122.14,4499,-5973,-3746,-1,-2,1
-170.97,147.60,-122.17,4503,-5994,-3790,-1,-1,1
-171.01,147.61,-122.17,4494,-6002,-3766,-1,0,0
-171.02,147.63,-122.16,4477,-5986,-3759,-1,-1,0
-171.06,147.65,-122.19,4477,-5983,-3788,-1,0,1
-171.11,147.66,-122.19,4471,-5988,-3771,-2,0,0
-171.13,147.67,-122.20,4476,-5997,-3770,-1,0,0
-171.15,147.65,-122.20,4479,-6000,-3780,-1,1,-1
-171.18,147.64,-122.20,4476,-5980,-3810,-2,2,0
-171.31,147.57,-122.25,4386,-5992,-3634,-13,6,0
-171.46,147.64,-122.39,4457,-5990,-3554,-8,-3,2
-171.96,147.84,-122.77,4430,-5887,-3527,-17,-11,7
-172.67,148.26,-123.33,4464,-5893,-3521,-28,-10,9
-173.55,148.84,-124.03,4459,-5850,-3599,-24,-21,11
-174.54,149.50,-124.85,4334,-5791,-3773,-24,-23,13
-175.53,150.18,-125.67,4324,-5855,-4038,-22,-24,13
-176.43,150.82,-126.44,4200,-5928,-4325,-21,-20,11
-177.11,151.26,-127.06,4109,-5987,-4638,-15,-12,6
-177.47,151.51,-127.37,4018,-5993,-4846,-6,-4,1
-177.49,151.52,-127.41,4021,-5973,-4831,2,2,-1
-177.36,151.44,-127.29,4006,-5909,-4619,3,2,-2
-177.29,151.38,-127.23,4019,-5832,-4402,-1,-1,-1
-177.37,151.42,-127.30,4031,-5809,-4347,-4,-3,1
-177.50,151.50,-127.43,4016,-5823,-4431,-4,-3,1
-177.59,151.57,-127.47,4000,-5854,-4505,-1,-2,1
-177.60,151.60,-127.46,3995,-5870,-4502,0,-1,0
-177.61,151.62,-127.46,3990,-5866,-4462,-1,-1,0
-177.64,151.64,-127.49,3981,-5867,-4458,-2,-1,0
-177.69,151.66,-127.53,3979,-5863,-4489,-2,-1,0
-177.71,151.67,-127.55,3980,-5858,-4493,-1,-1,0
-177.71,151.67,-127.56,3981,-5845,-4486,-1,-1,0
-177.73,151.68,-127.57,3982,-5845,-4477,-1,-1,0
-177.75,151.69,-127.58,3981,-5852,-4480,-1,-1,0
-177.77,151.71,-127.60,3980,-5863,-4478,-1,-1,0
-177.82,151.79,-127.60,3951,-5871,-4464,0,-4,2
-177.88,151.83,-127.66,3992,-5843,-4456,-3,-3,1
-177.98,151.90,-127.73,3959,-5844,-4502,-2,-3,1
-178.04,151.96,-127.78,3966,-5845,-4521,-2,-2,0
-178.08,151.99,-127.82,3957,-5853,-4538,-1,-2,0
-178.12,152.04,-127.84,3946,-5848,-4524,-1,-2,0
-178.16,152.07,-127.87,3943,-5851,-4522,-2,-2,0
-178.21,152.11,-127.90,3935,-5851,-4536,-2,-2,0
-178.25,152.14,-127.94,3922,-5856,-4546,-1,-1,0
-178.27,152.16,-127.96,3923,-5853,-4547,-1,-1,0
-178.29,152.18,-127.98,3922,-5854,-4551,-1,-1,0
-178.32,152.20,-128.00,3913,-5849,-4554,-1,-1,0
-178.34,152.23,-128.02,3913,-5849,-4553,-1,-1,0
-178.37,152.26,-128.04,3908,-5850,-4550,-1,-2,0
-178.41,152.33,-128.04,3895,-5836,-4534,0,-3,1
-178.47,152.39,-128.08,3903,-5830,-4542,-2,-3,1
-178.54,152.45,-128.15,3894,-5832,-4578,-2,-2,1
-178.59,152.49,-128.19,3882,-5840,-4603,-1,-2,0
-178.62,152.53,-128.20,3879,-5845,-4601,-1,-2,0
-178.66,152.57,-128.23,3867,-5850,-4592,-1,-2,0
-178.70,152.61,-128.26,3860,-5853,-4588,-1,-2,0
-178.75,152.66,-128.30,3860,-5852,-4600,-2,-2,0
-178.80,152.70,-128.35,3852,-5854,-4628,-2,-2,0
-178.84,152.73,-128.37,3845,-5854,-4645,-1,-1,0
-178.85,152.74,-128.39,3851,-5843,-4641,-1,-1,0
-178.88,152.76,-128.41,3844,-5843,-4624,-1,-1,0
-178.90,152.79,-128.43,3836,-5844,-4620,-1,-1,0
-178.93,152.81,-128.46,3838,-5847,-4634,-1,-1,0
-178.95,152.82,-128.48,3840,-5843,-4642,-1,-1,0
-178.97,152.84,-128.50,3840,-5835,-4644,-1,-1,0
-178.98,152.85,-128.52,3844,-5838,-4635,-1,-1,0
-179.00,152.87,-128.53,3837,-5845,-4636,-1,-1,0
-179.03,152.90,-128.56,3832,-5842,-4640,-1,-1,0
-179.06,152.92,-128.58,3831,-5839,-4636,-1,-2,0
-179.10,152.95,-128.61,3822,-5841,-4647,-1,-2,0
-179.12,152.99,-128.64,3823,-5836,-4652,-1,-2,0
-179.15,153.02,-128.66,3815,-5836,-4646,-1,-2,0
-179.19,153.06,-128.68,3809,-5839,-4648,-1,-2,0
-179.23,153.12,-128.72,3807,-5830,-4641,-1,-3,1
-179.29,153.19,-128.75,3799,-5835,-4657,-1,-3,1
-179.35,153.26,-128.79,3794,-5835,-4668,-2,-3,1
-179.42,153.31,-128.85,3786,-5841,-4706,-2,-2,0
-179.46,153.35,-128.89,3782,-5842,-4732,-1,-1,0
-179.46,153.35,-128.90,3773,-5849,-4732,0,-1,-1
-179.47,153.36,-128.90,3772,-5830,-4700,-1,-1,0
-179.48,153.36,-128.91,3770,-5827,-4704,-1,-1,0
-179.48,153.35,-128.92,3768,-5835,-4707,-1,0,-1
-179.48,153.35,-128.92,3772,-5838,-4707,-1,-1,0
-179.49,153.36,-128.93,3774,-5838,-4702,-1,-1,0
-179.49,153.36,-128.94,3768,-5830,-4708,-1,-1,0
-179.51,153.38,-128.95,3771,-5831,-4701,-1,-1,0
-179.52,153.39,-128.95,3769,-5835,-4698,-1,-1,0
-179.55,153.43,-128.96,3751,-5849,-4695,-1,-2,1
-179.59,153.52,-128.96,3742,-5829,-4646,-1,-4,2
-179.68,153.61,-129.05,3759,-5810,-4671,-4,-4,1
-179.78,153.68,-129.15,3745,-5834,-4775,-2,-2,0
-179.81,153.72,-129.18,3726,-5858,-4811,0,-1,0
-179.81,153.75,-129.16,3723,-5840,-4763,0,-1,0
-179.83,153.76,-129.18,3730,-5838,-4737,-2,-1,0
-179.86,153.79,-129.21,3722,-5844,-4754,-1,-1,0
-179.88,153.81,-129.22,3710,-5846,-4765,0,-1,0
-179.89,153.86,-129.22,3694,-5836,-4731,0,-3,1
-179.93,153.91,-129.25,3699,-5841,-4714,-2,-3,1
180.00,154.04,-129.31,3684,-5819,-4721,-2,-4,1
179.93,154.12,-129.39,3729,-5822,-4755,-3,-3,0
179.86,154.16,-129.47,3686,-5836,-4835,-2,-2,0
179.85,154.20,-129.47,3645,-5863,-4821,0,-3,0
179.86,154.28,-129.45,3652,-5827,-4756,0,-4,-1
179.81,154.31,-129.53,3693,-5819,-4763,-4,-3,1
179.74,154.36,-129.62,3660,-5832,-4847,-2,-2,0
179.72,154.38,-129.63,3642,-5836,-4887,0,0,0
179.75,154.37,-129.61,3644,-5827,-4835,0,0,-1
179.75,154.38,-129.60,3638,-5829,-4797,-1,-1,0
179.72,154.39,-129.64,3635,-5829,-4817,-1,-1,0
179.69,154.41,-129.66,3634,-5839,-4840,-1,-1,0
179.69,154.42,-129.67,3640,-5835,-4834,-1,-1,0
179.68,154.43,-129.67,3643,-5831,-4822,-1,-1,0
179.67,154.44,-129.69,3637,-5828,-4821,-1,-1,0
179.66,154.45,-129.70,3632,-5834,-4833,-1,-1,0
179.65,154.46,-129.72,3625,-5832,-4830,-1,-1,0
179.64,154.47,-129.72,3624,-5827,-4827,-1,-1,0
179.62,154.49,-129.73,3620,-5829,-4832,-1,-1,0
179.61,154.50,-129.75,3606,-5837,-4828,-1,-1,0
179.61,154.54,-129.75,3584,-5836,-4806,0,-2,0
179.60,154.61,-129.79,3554,-5807,-4786,0,-5,-1
179.59,154.64,-129.87,3668,-5817,-4806,-3,-3,0
179.51,154.69,-129.96,3612,-5825,-4896,-2,-2,0
179.50,154.70,-129.97,3615,-5830,-4925,0,-1,0
179.52,154.71,-129.95,3599,-5821,-4881,0,-1,-1
179.52,154.71,-129.95,3604,-5814,-4838,-1,-1,0
179.49,154.73,-129.98,3599,-5813,-4851,-2,-1,0
179.47,154.74,-130.01,3595,-5814,-4883,-1,-1,0
179.47,154.75,-130.01,3594,-5816,-4894,0,-1,0
179.47,154.75,-130.02,3599,-5814,-4891,-1,-1,0
179.46,154.76,-130.02,3594,-5808,-4870,-1,-1,0
179.45,154.77,-130.03,3589,-5814,-4872,-1,-1,0
179.44,154.77,-130.04,3584,-5812,-4884,-1,-1,0
179.44,154.78,-130.05,3580,-5813,-4884,-1,-1,0
179.43,154.78,-130.06,3574,-5809,-4883,-1,-1,0
179.42,154.78,-130.06,3587,-5814,-4886,-1,-1,0
179.42,154.79,-130.07,3590,-5817,-4878,-1,-1,0
179.42,154.79,-130.07,3587,-5811,-4883,-1,-1,0
179.41,154.79,-130.08,3580,-5811,-4884,-1,-1,0
179.41,154.80,-130.09,3580,-5809,-4880,-1,-1,0
179.40,154.80,-130.10,3577,-5807,-4876,-1,-1,0
179.40,154.80,-130.10,3575,-5801,-4884,-1,-1,0
179.39,154.81,-130.10,3573,-5801,-4892,-1,-1,0
179.39,154.81,-130.10,3574,-5807,-4884,0,-1,0
179.39,154.81,-130.10,3576,-5817,-4877,-1,-1,0
179.38,154.81,-130.10,3576,-5815,-4878,-1,0,0
179.38,154.82,-130.09,3575,-5818,-4884,-1,0,0
179.38,154.81,-130.10,3573,-5820,-4887,-1,-1,-1
179.38,154.81,-130.11,3574,-5815,-4888,-1,-1,-1
179.38,154.81,-130.11,3575,-5808,-4900,-1,0,0
179.38,154.81,-130.12,3573,-5804,-4903,0,0,-1
179.38,154.81,-130.12,3571,-5809,-4895,0,-1,0
179.37,154.82,-130.12,3580,-5806,-4897,-1,-1,0
179.37,154.82,-130.13,3572,-5796,-4900,-1,-1,0
179.36,154.83,-130.14,3574,-5799,-4897,-1,-1,0
179.36,154.83,-130.14,3580,-5796,-4894,-1,-1,0
179.35,154.84,-130.15,3574,-5799,-4894,-1,-1,0
179.34,154.85,-130.15,3577,-5797,-4903,-1,-1,0
179.34,154.85,-130.15,3572,-5805,-4901,0,-1,0
179.34,154.86,-130.16,3570,-5805,-4908,-1,-1,0
179.32,154.87,-130.17,3572,-5802,-4899,-1,-1,0
179.32,154.87,-130.17,3573,-5807,-4908,-1,-1,0
179.31,154.88,-130.18,3571,-5806,-4903,-1,-1,0
179.30,154.89,-130.18,3571,-5809,-4894,-1,-1,0
179.30,154.89,-130.19,3578,-5806,-4904,-1,-1,0
179.29,154.90,-130.19,3570,-5806,-4908,-1,-1,0
179.28,154.90,-130.20,3565,-5808,-4912,-1,-1,0
179.28,154.91,-130.19,3571,-5809,-4899,-1,-1,0
179.28,154.91,-130.20,3557,-5807,-4894,-1,-1,0
179.28,154.91,-130.20,3556,-5812,-4898,-1,-1,0
179.28,154.92,-130.20,3560,-5808,-4904,-1,-1,0
179.27,154.92,-130.21,3562,-5808,-4899,-1,-1,0
179.26,154.93,-130.21,3556,-5796,-4909,-1,-1,0
179.26,154.93,-130.22,3555,-5795,-4915,-1,-1,0
179.25,154.94,-130.21,3557,-5805,-4915,0,-1,0
179.26,154.94,-130.20,3562,-5815,-4899,-1,-1,0
179.26,154.94,-130.20,3558,-5812,-4900,-1,-1,0
179.25,154.94,-130.22,3564,-5806,-4898,-1,-1,0
179.25,154.94,-130.22,3564,-5808,-4902,-1,-1,0
179.25,154.95,-130.22,3564,-5800,-4905,-1,-1,0
179.24,154.95,-130.22,3559,-5796,-4903,-1,-1,0
179.23,154.96,-130.22,3554,-5799,-4902,-1,-1,0
179.23,154.96,-130.23,3558,-5807,-4898,-1,-1,0
179.23,154.97,-130.23,3558,-5807,-4901,-1,-1,0
179.22,154.97,-130.23,3554,-5812,-4896,0,-1,0
179.22,154.98,-130.23,3557,-5807,-4904,-1,-1,0
179.21,154.99,-130.23,3552,-5810,-4906,-1,-1,0
179.21,155.00,-130.24,3551,-5801,-4915,-1,-1,0
179.21,155.00,-130.23,3557,-5803,-4911,0,-1,0
179.20,155.00,-130.24,3554,-5800,-4907,-1,-1,0
179.20,155.00,-130.25,3558,-5812,-4907,-1,-1,0
179.21,155.00,-130.24,3546,-5815,-4898,0,0,-1
179.21,155.00,-130.24,3544,-5809,-4901,-1,-1,0
179.20,155.01,-130.25,3552,-5801,-4907,-1,-1,0
179.19,155.01,-130.25,3554,-5811,-4916,0,-1,0
179.19,155.01,-130.25,3550,-5812,-4914,0,-1,0
179.19,155.02,-130.25,3550,-5801,-4903,-1,-1,0
179.18,155.02,-130.26,3558,-5803,-4921,-1,-1,0
179.18,155.03,-130.26,3550,-5798,-4917,0,-1,0
179.18,155.03,-130.26,3555,-5797,-4918,0,-1,0
179.18,155.03,-130.26,3557,-5800,-4911,-1,-1,0
179.17,155.04,-130.27,3552,-5806,-4909,0,-1,0
179.17,155.04,-130.27,3548,-5805,-4910,-1,-1,0
179.16,155.05,-130.27,3549,-5805,-4917,-1,-1,0
179.16,155.06,-130.28,3547,-5801,-4917,-1,-1,0
179.14,155.07,-130.28,3536,-5802,-4921,-1,-1,0
179.14,155.08,-130.28,3535,-5805,-4919,0,-1,0
179.13,155.09,-130.29,3532,-5809,-4910,-1,-1,0
179.12,155.10,-130.30,3537,-5806,-4923,-1,-1,0
179.11,155.12,-130.31,3536,-5806,-4934,-1,-1,0
179.09,155.14,-130.32,3532,-5800,-4943,-1,-1,0
179.08,155.15,-130.33,3537,-5811,-4942,-1,-1,0
179.08,155.16,-130.33,3543,-5817,-4930,0,-1,0
179.07,155.16,-130.33,3529,-5807,-4929,-1,-1,0
179.07,155.17,-130.34,3531,-5804,-4922,-1,-1,0
179.06,155.18,-130.34,3531,-5809,-4924,-1,-1,0
179.06,155.19,-130.35,3528,-5809,-4927,0,-1,0
179.05,155.20,-130.35,3533,-5817,-4927,-1,-1,0
179.05,155.20,-130.35,3526,-5810,-4922,-1,-1,0
179.03,155.22,-130.36,3523,-5808,-4924,-1,-1,0
179.03,155.22,-130.36,3520,-5810,-4921,-1,-1,0
179.02,155.23,-130.37,3522,-5816,-4938,-1,-1,0
179.02,155.24,-130.37,3527,-5813,-4940,-1,-1,0
179.01,155.24,-130.38,3529,-5807,-4941,-1,-1,0
179.01,155.24,-130.38,3527,-5809,-4945,-1,-1,0
179.00,155.24,-130.39,3522,-5810,-4946,-1,-1,-1
179.00,155.24,-130.39,3522,-5806,-4945,-1,-1,0
179.00,155.25,-130.39,3518,-5804,-4941,-1,-1,0
179.00,155.25,-130.39,3514,-5804,-4942,-1,-1,0
179.00,155.25,-130.40,3517,-5810,-4941,0,-1,0
178.99,155.26,-130.40,3520,-5801,-4937,-1,-1,0
178.98,155.27,-130.41,3520,-5799,-4951,-1,-1,0
178.97,155.28,-130.42,3519,-5804,-4950,-1,-1,0
178.98,155.28,-130.41,3515,-5800,-4942,0,-1,0
178.97,155.29,-130.41,3512,-5800,-4933,-1,-1,0
178.97,155.28,-130.42,3515,-5803,-4934,-1,-1,0
178.97,155.29,-130.42,3511,-5801,-4945,0,0,0
178.97,155.29,-130.42,3506,-5803,-4942,-1,-1,-1
178.97,155.29,-130.42,3508,-5802,-4945,-1,-1,-1
178.96,155.29,-130.43,3503,-5802,-4948,-1,0,-1
178.96,155.29,-130.43,3500,-5799,-4946,-1,0,-1
178.96,155.29,-130.44,3510,-5797,-4942,-1,-1,0
178.96,155.29,-130.44,3504,-5799,-4938,-1,-1,0
178.95,155.30,-130.44,3503,-5803,-4943,-1,-1,0
178.95,155.30,-130.44,3506,-5806,-4940,-1,-1,0
178.94,155.31,-130.45,3504,-5807,-4952,-1,-1,0
178.94,155.31,-130.45,3504,-5806,-4944,-1,-1,0
178.94,155.31,-130.45,3505,-5800,-4946,-1,-1,0
178.94,155.31,-130.45,3504,-5802,-4943,-1,-1,0
178.93,155.32,-130.46,3500,-5804,-4954,-1,-1,0
178.94,155.32,-130.45,3505,-5806,-4950,-1,-1,0
178.92,155.33,-130.47,3511,-5809,-4955,-1,-1,0
178.92,155.33,-130.47,3508,-5813,-4957,-1,-1,0
178.92,155.33,-130.47,3510,-5807,-4950,-1,-1,-1
178.92,155.33,-130.47,3509,-5799,-4955,-1,-1,0
178.91,155.34,-130.49,3508,-5799,-4956,-1,-1,0
178.91,155.34,-130.49,3505,-5800,-4958,0,0,0
178.91,155.34,-130.49,3504,-5806,-4953,0,-1,0
178.91,155.34,-130.49,3506,-5802,-4947,-1,-1,0
178.90,155.35,-130.49,3503,-5805,-4943,-1,-1,0
178.90,155.35,-130.49,3504,-5805,-4942,-1,-1,0
178.89,155.36,-130.50,3508,-5806,-4945,-1,-1,0
178.89,155.36,-130.50,3504,-5807,-4952,-1,-1,0
178.89,155.36,-130.50,3498,-5802,-4955,0,-1,0
178.89,155.37,-130.51,3499,-5800,-4959,0,-1,0
178.88,155.37,-130.51,3501,-5805,-4954,-1,-1,0
178.87,155.38,-130.51,3505,-5806,-4953,-1,-1,0
178.86,155.39,-130.53,3505,-5805,-4954,-1,-1,0
178.86,155.39,-130.54,3495,-5795,-4964,-1,-1,0
178.86,155.39,-130.54,3498,-5790,-4966,-1,-1,0
178.85,155.40,-130.53,3496,-5800,-4958,-1,-1,0
178.84,155.41,-130.54,3490,-5805,-4961,-1,-1,0
178.84,155.41,-130.54,3495,-5812,-4966,-1,-1,0
178.84,155.41,-130.54,3497,-5810,-4959,-1,-1,-1
178.84,155.41,-130.55,3498,-5801,-4953,-1,-1,0
178.83,155.41,-130.56,3503,-5796,-4954,-1,-1,0
178.83,155.41,-130.57,3503,-5796,-4961,-1,-1,0
178.83,155.42,-130.57,3501,-5801,-4953,-1,-1,0
178.83,155.42,-130.57,3502,-5802,-4950,-1,-1,0
178.83,155.42,-130.58,3502,-5802,-4957,-1,-1,0
178.82,155.43,-130.58,3495,-5803,-4963,-1,-1,0
178.81,155.44,-130.59,3494,-5798,-4971,-1,-1,0
178.80,155.45,-130.60,3496,-5799,-4987,-1,-1,0
178.80,155.45,-130.60,3498,-5800,-4978,0,-1,0
178.80,155.45,-130.60,3497,-5796,-4964,-1,-1,0
178.79,155.46,-130.60,3484,-5801,-4965,-1,-1,0
178.78,155.47,-130.61,3484,-5808,-4964,-1,-1,0
178.78,155.47,-130.61,3490,-5814,-4962,-1,-1,0
178.78,155.47,-130.62,3491,-5807,-4966,-1,-1,0
178.77,155.47,-130.62,3488,-5802,-4972,-1,0,-1
178.78,155.47,-130.63,3492,-5797,-4964,-1,-1,0
178.77,155.47,-130.63,3500,-5795,-4967,-1,-1,0
178.77,155.48,-130.64,3497,-5796,-4972,-1,-1,0
178.75,155.49,-130.65,3489,-5798,-4972,-1,-1,0
178.75,155.49,-130.65,3484,-5800,-4974,-1,-1,0
178.74,155.50,-130.67,3492,-5793,-4980,-1,-1,0
178.74,155.51,-130.67,3490,-5800,-4979,-1,-1,0
178.74,155.51,-130.66,3484,-5799,-4973,-1,-1,0
178.73,155.52,-130.67,3477,-5804,-4967,-1,-1,0
178.72,155.52,-130.68,3475,-5803,-4973,-1,-1,0
178.72,155.52,-130.68,3477,-5797,-4980,-1,-1,0
178.72,155.53,-130.69,3482,-5801,-4988,-1,-1,0
178.71,155.53,-130.70,3481,-5799,-4987,-1,-1,0
178.71,155.53,-130.70,3480,-5800,-4990,-1,0,-1
178.72,155.52,-130.69,3481,-5797,-4983,-1,0,-1
178.72,155.52,-130.69,3479,-5791,-4981,-1,0,-1
178.72,155.51,-130.69,3478,-5789,-4976,-1,0,0
178.72,155.51,-130.69,3482,-5792,-4978,-1,0,0
178.72,155.51,-130.69,3480,-5793,-4984,-1,0,-1
178.71,155.51,-130.69,3482,-5790,-4983,0,0,-1
178.72,155.50,-130.69,3479,-5792,-4983,-1,0,0
178.72,155.50,-130.69,3486,-5790,-4985,0,0,-1
178.72,155.49,-130.69,3481,-5795,-4978,-1,0,-1
178.73,155.47,-130.68,3488,-5791,-4983,0,0,-1
178.74,155.46,-130.68,3491,-5789,-4983,0,0,-1
178.74,155.46,-130.67,3496,-5787,-4972,0,0,-1
178.75,155.44,-130.67,3494,-5790,-4972,0,0,-1
178.76,155.44,-130.66,3496,-5789,-4978,0,0,-1
178.76,155.43,-130.66,3491,-5783,-4976,0,0,0
178.76,155.43,-130.66,3493,-5785,-4977,0,0,0
178.76,155.43,-130.65,3491,-5789,-4976,0,0,0
178.76,155.43,-130.65,3489,-5792,-4963,-1,0,0
178.76,155.43,-130.65,3492,-5796,-4970,-1,-1,0
178.76,155.43,-130.66,3496,-5794,-4970,-1,-1,0
178.76,155.43,-130.66,3496,-5798,-4973,-1,0,-1
178.76,155.43,-130.66,3496,-5796,-4966,-1,-1,0
178.76,155.43,-130.66,3497,-5788,-4968,-1,-1,0
178.75,155.44,-130.67,3497,-5784,-4968,-1,-1,0
178.74,155.45,-130.68,3492,-5785,-4968,-1,-1,0
178.74,155.45,-130.67,3493,-5787,-4964,0,-1,0
178.74,155.46,-130.67,3491,-5785,-4955,-1,-1,0
178.73,155.47,-130.68,3488,-5791,-4962,-1,-1,0
178.72,155.48,-130.68,3483,-5795,-4982,-1,-1,0
178.72,155.49,-130.68,3484,-5791,-4982,0,-1,0
178.73,155.49,-130.68,3490,-5786,-4970,-1,-1,0
178.72,155.49,-130.68,3487,-5792,-4973,-1,-1,0
178.71,155.50,-130.68,3488,-5791,-4983,-1,-1,0
178.71,155.51,-130.68,3483,-5792,-4973,-1,-1,0
178.70,155.52,-130.69,3484,-5791,-4974,-1,-1,0
178.69,155.52,-130.69,3484,-5783,-4977,-1,-1,0
178.69,155.53,-130.70,3482,-5785,-4974,-1,-1,0
178.68,155.54,-130.71,3477,-5796,-4981,-1,-1,0
178.68,155.54,-130.70,3474,-5793,-4980,0,-1,0
178.67,155.55,-130.70,3473,-5786,-4976,0,-1,0
178.67,155.56,-130.71,3472,-5787,-4979,-1,-1,0
178.67,155.56,-130.71,3476,-5785,-4975,-1,-1,0
178.66,155.57,-130.71,3479,-5788,-4986,-1,-1,0
178.66,155.57,-130.71,3470,-5782,-4981,-1,-1,0
178.66,155.57,-130.72,3472,-5788,-4989,-1,-1,0
178.65,155.58,-130.72,3474,-5786,-4988,-1,0,0
178.66,155.58,-130.71,3479,-5790,-4985,0,-1,0
178.65,155.58,-130.72,3472,-5794,-4990,-1,-1,0
178.65,155.58,-130.72,3471,-5794,-4992,0,-1,0
178.65,155.59,-130.72,3466,-5794,-4993,0,0,-1
178.65,155.59,-130.72,3466,-5794,-4989,-1,-1,-1
178.65,155.59,-130.72,3468,-5794,-4987,-1,-1,0
178.65,155.59,-130.72,3466,-5797,-4984,0,-1,0
178.64,155.60,-130.73,3470,-5793,-4986,0,-1,0
178.65,155.60,-130.72,3478,-5794,-4985,-1,-1,0
178.64,155.60,-130.73,3477,-5787,-4984,0,-1,0
178.64,155.60,-130.72,3477,-5787,-4978,-1,-1,0
178.64,155.60,-130.72,3479,-5787,-4981,-1,-1,0
178.64,155.61,-130.73,3484,-5789,-4982,-1,-1,0
178.64,155.61,-130.73,3479,-5788,-4987,-1,-1,0
178.63,155.62,-130.73,3475,-5789,-4986,-1,-1,0
178.63,155.62,-130.73,3473,-5793,-4996,0,-1,0
178.63,155.62,-130.73,3471,-5795,-4997,-1,-1,0
178.62,155.63,-130.73,3465,-5789,-4998,-1,-1,-1
178.62,155.63,-130.73,3471,-5799,-4993,-1,0,-1
178.62,155.62,-130.74,3472,-5788,-4987,-1,0,-1
178.62,155.63,-130.74,3466,-5797,-4988,-1,-1,-1
178.62,155.63,-130.75,3471,-5792,-4998,-1,-1,-1
178.62,155.63,-130.75,3470,-5792,-4996,0,-1,0
178.62,155.63,-130.74,3474,-5795,-4974,-1,-1,0
178.61,155.64,-130.75,3472,-5801,-4989,0,-1,0
178.61,155.64,-130.75,3468,-5807,-4988,0,-1,0
178.61,155.64,-130.75,3465,-5804,-4983,-1,-1,-1
178.61,155.65,-130.75,3465,-5799,-4985,-1,-1,0
178.60,155.66,-130.76,3468,-5793,-5003,-1,-1,0
178.60,155.66,-130.76,3469,-5790,-4994,0,-1,0
178.60,155.66,-130.75,3474,-5795,-4987,0,-1,0
178.60,155.66,-130.76,3472,-5805,-4985,-1,-1,0
178.60,155.66,-130.76,3469,-5798,-4997,-1,-1,0
178.60,155.66,-130.76,3467,-5797,-4992,-1,0,0
178.59,155.67,-130.76,3464,-5796,-4991,-1,-1,0
178.59,155.67,-130.77,3463,-5795,-4996,-1,-1,-1
178.59,155.67,-130.77,3467,-5789,-4996,-1,0,0
178.59,155.67,-130.77,3468,-5785,-4998,-1,-1,0
178.59,155.67,-130.77,3462,-5784,-4993,-1,-1,0
178.58,155.67,-130.78,3459,-5787,-4997,-1,-1,0
178.58,155.67,-130.78,3458,-5787,-4993,-1,-1,0
178.57,155.68,-130.78,3466,-5786,-4992,-1,-1,0
178.57,155.68,-130.78,3459,-5792,-4994,-1,-1,0
178.57,155.69,-130.78,3458,-5794,-5000,0,-1,0
178.57,155.69,-130.78,3460,-5798,-4993,-1,-1,0
178.56,155.70,-130.79,3461,-5798,-4996,-1,-1,0
178.57,155.70,-130.79,3463,-5792,-5004,0,0,-1
178.57,155.70,-130.79,3461,-5793,-5004,-1,-1,0
178.55,155.71,-130.79,3456,-5795,-5015,0,-1,0
178.56,155.70,-130.80,3460,-5795,-5009,-1,0,-1
178.56,155.70,-130.80,3454,-5793,-5003,-1,0,-1
178.56,155.70,-130.81,3454,-5786,-5004,-1,-1,0
178.55,155.71,-130.81,3456,-5782,-5000,-1,-1,0
178.55,155.70,-130.81,3464,-5786,-5005,0,0,0
178.56,155.70,-130.81,3459,-5791,-4998,0,0,0
178.55,155.70,-130.81,3452,-5791,-4988,-1,-1,0
178.55,155.71,-130.81,3447,-5790,-4988,-1,-1,-1
178.55,155.71,-130.81,3444,-5793,-4993,-1,-1,0
178.54,155.72,-130.81,3448,-5791,-4996,-1,-1,0
178.54,155.72,-130.82,3449,-5791,-4998,-1,-1,0
178.54,155.72,-130.81,3446,-5790,-5002,0,-1,0
178.54,155.72,-130.81,3450,-5790,-4995,0,-1,0
178.53,155.73,-130.82,3451,-5793,-5006,-1,-1,0
178.53,155.73,-130.82,3447,-5792,-5007,-1,0,-1
178.53,155.73,-130.82,3455,-5798,-5005,-1,0,-1
178.53,155.73,-130.82,3460,-5796,-5006,-1,0,-1
178.53,155.73,-130.82,3453,-5794,-4997,-1,-1,0
178.52,155.73,-130.83,3455,-5792,-5003,-1,-1,0
178.52,155.74,-130.84,3454,-5787,-5012,-1,-1,0
178.52,155.73,-130.83,3461,-5790,-5002,-1,-1,0
178.52,155.74,-130.84,3458,-5792,-5009,-1,-1,0
178.52,155.74,-130.84,3454,-5795,-5005,0,-1,0
178.52,155.74,-130.84,3448,-5793,-5002,-1,-1,-1
178.52,155.74,-130.84,3451,-5784,-5001,-1,-1,0
178.51,155.75,-130.85,3453,-5787,-5009,-1,-1,0
178.51,155.75,-130.85,3452,-5787,-5004,0,-1,0
178.51,155.75,-130.84,3448,-5791,-4996,-1,-1,0
178.51,155.75,-130.85,3450,-5795,-4989,-1,-1,0
178.51,155.75,-130.85,3454,-5801,-4997,0,-1,-1
178.51,155.75,-130.85,3451,-5797,-4997,-1,-1,0
178.51,155.76,-130.85,3449,-5790,-4990,-1,-1,0
178.51,155.76,-130.85,3454,-5788,-5002,-1,0,-1
178.51,155.76,-130.85,3456,-5790,-5008,0,0,0
178.51,155.75,-130.85,3457,-5792,-4998,-1,-1,0
178.50,155.76,-130.86,3453,-5793,-5005,-1,-1,0
178.50,155.76,-130.86,3452,-5794,-5012,-1,-1,-1
178.50,155.76,-130.86,3451,-5789,-5009,-1,-1,0
178.50,155.76,-130.87,3456,-5786,-4995,-1,-1,0
178.49,155.77,-130.88,3458,-5788,-4993,-1,-1,0
178.49,155.77,-130.88,3452,-5794,-5007,-1,-1,0
178.49,155.77,-130.88,3455,-5791,-4996,-1,-1,0
178.49,155.77,-130.88,3450,-5790,-4990,-1,-1,0
178.48,155.78,-130.88,3456,-5793,-5007,-1,-1,0
178.48,155.78,-130.88,3454,-5794,-5000,0,-1,0
178.48,155.78,-130.88,3448,-5795,-4999,-1,-1,0
178.47,155.79,-130.89,3445,-5787,-5010,-1,-1,0
178.47,155.79,-130.89,3444,-5789,-5011,-1,0,-1
178.47,155.79,-130.89,3444,-5786,-5017,-1,0,-1
178.47,155.78,-130.90,3449,-5781,-5010,-1,-1,0
178.47,155.78,-130.90,3459,-5785,-4998,-1,-1,0
178.47,155.78,-130.91,3452,-5794,-5012,0,-1,-1
178.47,155.78,-130.91,3449,-5784,-5011,-1,-1,-1
178.47,155.79,-130.91,3449,-5781,-5005,-1,-1,0
178.46,155.79,-130.92,3441,-5785,-5019,-1,-1,0
178.45,155.80,-130.93,3444,-5786,-5020,0,-1,0
178.45,155.80,-130.93,3443,-5782,-5015,-1,-1,0
178.45,155.81,-130.93,3439,-5785,-5023,-1,-1,0
178.45,155.82,-130.94,3436,-5784,-5018,-1,-1,0
178.43,155.83,-130.94,3436,-5784,-5021,0,0,0
178.44,155.82,-130.94,3439,-5789,-5016,-1,0,0
178.44,155.82,-130.94,3441,-5791,-5027,-1,0,-1
178.43,155.82,-130.95,3441,-5791,-5022,0,0,-1
178.43,155.82,-130.95,3439,-5788,-5022,-1,0,-1
178.44,155.81,-130.95,3439,-5781,-5015,0,0,-1
178.43,155.81,-130.95,3437,-5782,-5019,-1,0,0
178.43,155.81,-130.96,3443,-5785,-5036,-1,0,-1
178.44,155.81,-130.96,3443,-5786,-5027,0,0,-1
178.44,155.80,-130.96,3439,-5787,-5027,0,0,-1
178.44,155.80,-130.95,3441,-5788,-5032,-1,0,0
178.44,155.80,-130.95,3445,-5786,-5031,0,0,-1
178.45,155.79,-130.95,3449,-5783,-5032,0,0,-1
178.45,155.79,-130.95,3448,-5780,-5029,0,0,0
178.44,155.80,-130.94,3442,-5783,-5027,0,0,0
178.44,155.79,-130.94,3445,-5784,-5024,0,0,0
178.45,155.79,-130.93,3447,-5791,-5010,0,0,-1
178.45,155.79,-130.93,3450,-5790,-5005,0,0,-1
178.45,155.78,-130.93,3446,-5793,-5017,-1,0,-1
178.45,155.78,-130.93,3448,-5789,-5019,-1,0,-1
178.45,155.78,-130.93,3448,-5784,-5013,0,0,0
178.46,155.78,-130.92,3450,-5783,-5009,0,0,0
178.45,155.77,-130.93,3452,-5777,-5017,-1,0,0
178.45,155.77,-130.93,3452,-5780,-5016,0,0,0
178.46,155.78,-130.92,3447,-5786,-5021,0,0,0
178.46,155.78,-130.92,3438,-5783,-5014,0,-1,0
178.46,155.78,-130.92,3446,-5781,-5015,0,0,0
178.46,155.78,-130.92,3448,-5791,-5014,0,-1,0
178.46,155.78,-130.92,3452,-5790,-5020,-1,-1,-1
178.46,155.78,-130.92,3444,-5790,-5029,-1,0,-1
178.46,155.78,-130.92,3437,-5784,-5025,0,0,0
178.46,155.77,-130.91,3444,-5787,-5010,0,0,0
178.46,155.77,-130.91,3444,-5779,-5014,0,-1,0
178.45,155.78,-130.91,3442,-5783,-5014,-1,0,0
178.45,155.78,-130.91,3448,-5783,-5017,0,0,0
178.45,155.77,-130.91,3448,-5783,-5012,-1,-1,0
178.45,155.78,-130.92,3450,-5784,-5015,-1,-1,0
178.45,155.77,-130.92,3451,-5786,-5019,-1,0,-1
178.46,155.77,-130.91,3457,-5788,-5011,0,0,-1
178.47,155.77,-130.91,3456,-5789,-5001,0,0,0
178.46,155.77,-130.91,3458,-5791,-5007,-1,-1,0
178.46,155.77,-130.91,3452,-5791,-5007,-1,-1,0
178.46,155.78,-130.90,3445,-5792,-5005,-1,-1,0
178.46,155.78,-130.90,3451,-5780,-5012,-1,-1,0
178.46,155.78,-130.90,3446,-5781,-5013,-1,-1,0
178.46,155.78,-130.90,3447,-5785,-5017,0,0,0
178.46,155.78,-130.90,3451,-5782,-5017,0,0,0
178.46,155.78,-130.90,3446,-5787,-5012,-1,-1,0
178.45,155.79,-130.90,3443,-5789,-5021,-1,0,0
178.45,155.79,-130.90,3446,-5792,-5023,-1,0,-1
178.46,155.77,-130.91,3445,-5785,-5020,-1,0,-1
178.46,155.77,-130.91,3443,-5788,-5024,-1,0,-1
178.46,155.77,-130.91,3443,-5782,-5025,0,0,0
178.46,155.77,-130.91,3446,-5785,-5015,0,0,0
178.46,155.77,-130.90,3443,-5791,-5011,-1,-1,-1
178.46,155.77,-130.90,3443,-5790,-5011,-1,0,-1
178.46,155.77,-130.90,3447,-5787,-5006,0,0,-1
178.46,155.77,-130.90,3436,-5783,-5010,0,-1,0
178.46,155.77,-130.90,3447,-5776,-5012,0,0,0
178.46,155.77,-130.89,3440,-5783,-5023,0,0,0
178.47,155.77,-130.88,3440,-5784,-5020,0,-1,0
178.46,155.78,-130.88,3440,-5788,-5019,-1,-1,0
178.46,155.78,-130.88,3439,-5795,-5027,-1,0,-1
178.46,155.78,-130.88,3442,-5787,-5015,0,0,-1
178.47,155.77,-130.88,3439,-5783,-5007,0,0,-1
178.47,155.76,-130.88,3444,-5788,-5011,0,0,-1
178.47,155.76,-130.88,3447,-5788,-5011,0,0,-1
178.47,155.75,-130.88,3453,-5782,-5012,0,0,-1
178.47,155.75,-130.88,3456,-5782,-5019,0,0,-1
178.47,155.75,-130.88,3457,-5785,-5014,0,-1,0
178.47,155.76,-130.88,3445,-5788,-5010,-1,-1,0
178.47,155.76,-130.87,3446,-5795,-5014,0,0,0
178.48,155.76,-130.87,3443,-5792,-5006,0,0,-1
178.48,155.76,-130.87,3445,-5789,-5004,-1,-1,-1
178.48,155.76,-130.87,3439,-5788,-5008,0,0,0
178.48,155.76,-130.87,3438,-5790,-5017,0,0,0
178.48,155.76,-130.86,3443,-5788,-5009,0,0,0
178.48,155.76,-130.86,3444,-5789,-4998,-1,-1,0
178.48,155.76,-130.86,3441,-5791,-5007,0,0,-1
178.48,155.76,-130.86,3439,-5787,-5020,0,0,0
178.48,155.76,-130.86,3445,-5782,-5012,0,0,-1
178.48,155.76,-130.86,3444,-5786,-5016,0,0,-1
178.48,155.76,-130.86,3443,-5789,-5015,0,0,0
178.49,155.75,-130.85,3447,-5791,-5011,0,0,0
178.49,155.75,-130.85,3444,-5793,-5006,-1,-1,-1
178.49,155.75,-130.85,3442,-5790,-5009,0,0,-1
178.49,155.75,-130.85,3437,-5797,-5012,0,0,-1
178.49,155.75,-130.85,3440,-5785,-5009,0,0,-1
178.49,155.75,-130.85,3442,-5787,-5009,0,-1,0
178.49,155.75,-130.84,3444,-5791,-5012,0,-1,0
178.49,155.75,-130.84,3444,-5797,-5000,0,-1,0
178.49,155.76,-130.84,3439,-5797,-4997,-1,-1,0
178.48,155.76,-130.84,3441,-5791,-5013,0,0,-1
178.49,155.75,-130.84,3441,-5789,-5007,0,-1,0
178.48,155.76,-130.85,3442,-5796,-5022,-1,-1,0
178.48,155.76,-130.84,3437,-5799,-5017,0,0,-1
178.49,155.76,-130.84,3437,-5795,-5018,0,0,-1
178.49,155.76,-130.84,3436,-5791,-5009,-1,-1,0
178.48,155.76,-130.85,3436,-5790,-5015,-1,-1,0
178.48,155.76,-130.84,3447,-5785,-5021,0,0,-1
178.49,155.76,-130.84,3447,-5781,-5014,0,0,0
178.48,155.76,-130.84,3443,-5796,-5009,-1,-1,0
178.48,155.77,-130.84,3446,-5798,-5013,0,-1,0
178.49,155.76,-130.83,3445,-5792,-5013,0,0,-1
178.49,155.76,-130.83,3438,-5796,-5011,-1,0,-1
178.48,155.76,-130.84,3433,-5797,-5012,-1,0,-1
178.48,155.76,-130.84,3435,-5794,-5016,0,0,-1
178.49,155.76,-130.83,3435,-5790,-5014,0,0,-1
178.48,155.76,-130.84,3433,-5788,-5020,-1,-1,-1
178.48,155.77,-130.84,3436,-5789,-5019,-1,-1,-1
178.48,155.77,-130.84,3442,-5792,-5023,0,0,-1
178.48,155.77,-130.84,3437,-5793,-5019,0,0,-1
178.48,155.76,-130.84,3433,-5796,-5004,0,0,-1
178.49,155.76,-130.84,3435,-5789,-5007,0,0,-1
178.49,155.76,-130.83,3436,-5787,-5011,0,-1,0
178.49,155.76,-130.83,3440,-5781,-5023,0,0,0
178.49,155.76,-130.83,3438,-5784,-5026,0,0,-1
178.49,155.77,-130.82,3440,-5793,-5014,-1,-1,0
178.48,155.77,-130.83,3433,-5791,-5023,0,-1,0
178.48,155.77,-130.83,3437,-5798,-5017,0,0,-1
178.49,155.76,-130.83,3446,-5791,-5013,-1,0,-1
178.49,155.76,-130.84,3447,-5791,-5008,-1,-1,-1
178.49,155.76,-130.84,3443,-5786,-5025,-1,0,-1
178.48,155.76,-130.84,3443,-5786,-5024,0,0,0
178.48,155.76,-130.84,3440,-5785,-5027,-1,0,-1
178.48,155.76,-130.84,3439,-5781,-5026,-1,0,-1
178.48,155.76,-130.84,3441,-5788,-5033,0,0,-1
178.48,155.76,-130.84,3437,-5793,-5026,-1,0,-1
178.48,155.76,-130.84,3430,-5789,-5010,-1,-1,0
178.48,155.76,-130.85,3429,-5783,-5017,0,-1,-1
178.48,155.76,-130.85,3431,-5782,-5022,0,0,-1
178.48,155.76,-130.84,3433,-5783,-5017,0,0,0
178.48,155.76,-130.85,3435,-5786,-5010,-1,-1,0
178.48,155.76,-130.85,3432,-5789,-5016,0,0,-1
178.48,155.76,-130.85,3429,-5781,-5012,0,-1,-1
178.48,155.76,-130.85,3431,-5782,-5019,-1,0,-1
178.48,155.76,-130.85,3428,-5782,-5022,0,0,-1
178.48,155.76,-130.86,3431,-5786,-5023,0,0,-1
178.48,155.76,-130.85,3439,-5787,-5010,0,-1,0
178.48,155.76,-130.86,3432,-5791,-5018,-1,-1,0
178.48,155.76,-130.86,3434,-5796,-5023,0,0,-1
178.48,155.76,-130.86,3437,-5801,-5022,0,0,-1
178.48,155.76,-130.86,3441,-5795,-5020,-1,-1,-1
178.48,155.76,-130.86,3439,-5787,-5027,-1,0,0
178.48,155.76,-130.86,3438,-5795,-5022,0,0,0
178.47,155.77,-130.85,3436,-5791,-5011,-1,-1,0
178.47,155.77,-130.86,3442,-5792,-5012,-1,-1,0
178.47,155.77,-130.87,3444,-5794,-5022,0,-1,-1
178.47,155.77,-130.86,3438,-5796,-5017,0,0,-1
178.47,155.77,-130.86,3444,-5796,-5006,0,0,-1
178.47,155.77,-130.86,3440,-5792,-5022,-1,-1,0
178.47,155.77,-130.86,3432,-5785,-5025,0,-1,0
178.47,155.77,-130.86,3435,-5783,-5024,0,-1,0
178.47,155.77,-130.86,3439,-5784,-5018,-1,-1,0
178.46,155.78,-130.87,3431,-5780,-5023,-1,-1,-1
178.46,155.78,-130.87,3436,-5783,-5026,0,0,-1
178.47,155.77,-130.86,3439,-5783,-5019,0,0,0
178.47,155.77,-130.86,3440,-5792,-5019,-1,0,0
178.46,155.78,-130.87,3434,-5796,-5020,-1,0,-1
178.47,155.77,-130.87,3431,-5783,-5028,0,0,-1
178.47,155.77,-130.87,3438,-5787,-5012,-1,-1,0
178.46,155.77,-130.88,3435,-5787,-5020,-1,-1,0
178.46,155.78,-130.88,3440,-5793,-5025,0,-1,-1
178.46,155.78,-130.88,3446,-5792,-5029,-1,-1,-1
178.46,155.78,-130.88,3443,-5783,-5020,-1,-1,0
178.45,155.78,-130.89,3435,-5781,-5029,-1,-1,-1
178.45,155.78,-130.89,3434,-5783,-5034,0,0,-1
178.45,155.78,-130.89,3434,-5788,-5026,0,-1,-1
178.45,155.78,-130.89,3429,-5785,-5026,-1,-1,0
178.45,155.78,-130.89,3437,-5785,-5025,0,-1,-1
178.45,155.79,-130.89,3435,-5785,-5027,0,-1,0
178.45,155.80,-130.89,3434,-5787,-5028,-1,-1,0
178.44,155.80,-130.90,3435,-5786,-5026,-1,0,0
178.45,155.79,-130.90,3429,-5784,-5029,0,0,-1
178.45,155.79,-130.90,3428,-5788,-5025,-1,0,-1
178.45,155.79,-130.90,3428,-5785,-5024,-1,0,-1
178.44,155.79,-130.90,3432,-5781,-5032,-1,0,-1
178.44,155.79,-130.91,3431,-5778,-5035,0,0,-1
178.44,155.79,-130.91,3435,-5779,-5027,-1,-1,-1
178.44,155.79,-130.91,3437,-5779,-5025,-1,0,0
178.44,155.79,-130.92,3430,-5777,-5030,0,0,-1
178.44,155.78,-130.91,3430,-5783,-5019,0,0,0
178.44,155.79,-130.91,3422,-5784,-5027,-1,0,-1
178.44,155.79,-130.91,3426,-5786,-5024,0,-1,0
178.44,155.79,-130.91,3433,-5789,-5039,0,0,-1
178.44,155.79,-130.91,3431,-5791,-5038,0,0,-1
178.44,155.79,-130.91,3427,-5786,-5036,0,0,-1
178.44,155.79,-130.91,3435,-5788,-5035,0,0,-1
178.45,155.78,-130.91,3433,-5787,-5038,0,0,-1
178.45,155.78,-130.91,3435,-5783,-5026,-1,0,-1
178.45,155.78,-130.91,3435,-5778,-5032,0,0,-1
178.45,155.78,-130.91,3433,-5779,-5030,0,0,-1
178.45,155.78,-130.91,3426,-5783,-5034,0,0,-1
178.45,155.78,-130.91,3430,-5783,-5035,0,0,0
178.45,155.77,-130.91,3432,-5780,-5030,-1,0,0
178.45,155.77,-130.91,3426,-5785,-5031,0,0,-1
178.45,155.76,-130.91,3427,-5782,-5027,0,0,-1
178.46,155.76,-130.90,3432,-5786,-5028,0,0,-1
178.46,155.76,-130.90,3428,-5778,-5025,0,0,0
178.46,155.76,-130.90,3429,-5775,-5024,0,0,0
178.46,155.76,-130.90,3438,-5777,-5029,0,-1,0
178.45,155.77,-130.90,3431,-5786,-5029,-1,-1,0
178.44,155.77,-130.90,3428,-5788,-5045,0,0,-1
178.45,155.77,-130.90,3423,-5783,-5056,0,0,0
178.45,155.77,-130.89,3422,-5783,-5031,0,0,0
178.44,155.77,-130.89,3419,-5783,-5034,0,0,0
178.44,155.77,-130.89,3423,-5788,-5031,-1,0,-1
178.44,155.77,-130.89,3434,-5789,-5028,-1,0,-1
178.44,155.77,-130.90,3430,-5782,-5035,-1,0,-1
178.44,155.77,-130.90,3425,-5784,-5040,0,0,-1
178.44,155.77,-130.90,3436,-5784,-5037,0,0,0
178.44,155.77,-130.90,3442,-5782,-5031,0,0,0
178.44,155.77,-130.90,3444,-5789,-5021,0,0,-1
178.46,155.76,-130.88,3443,-5789,-5015,0,0,-1
178.46,155.76,-130.88,3436,-5786,-5012,0,-1,-1
178.46,155.76,-130.88,3431,-5785,-5012,0,-1,0
178.45,155.76,-130.88,3439,-5785,-5025,0,-1,0
178.45,155.76,-130.88,3434,-5782,-5031,0,0,0
178.45,155.76,-130.88,3432,-5780,-5032,0,0,0
178.45,155.76,-130.88,3432,-5782,-5025,-1,0,0
178.45,155.76,-130.88,3438,-5784,-5038,0,0,-1
178.45,155.76,-130.88,3431,-5782,-5038,0,0,-1
178.45,155.76,-130.88,3426,-5788,-5032,0,0,-1
178.45,155.76,-130.88,3425,-5784,-5027,0,0,-1
178.45,155.76,-130.88,3425,-5782,-5021,0,0,-1
178.45,155.76,-130.88,3425,-5785,-5021,-1,0,-1
178.45,155.76,-130.88,3427,-5784,-5028,-1,0,-1
178.45,155.76,-130.87,3432,-5785,-5025,0,0,-1
178.46,155.76,-130.87,3437,-5780,-5021,0,-1,0
178.44,155.77,-130.88,3436,-5785,-5022,-1,-1,0
178.44,155.77,-130.87,3430,-5788,-5026,0,0,0
178.45,155.76,-130.87,3429,-5788,-5021,0,0,-1
178.45,155.76,-130.87,3434,-5788,-5026,-1,-1,-1
178.44,155.77,-130.88,3434,-5782,-5034,0,0,0
178.44,155.77,-130.87,3438,-5781,-5037,0,0,0
178.45,155.76,-130.86,3439,-5783,-5031,0,0,0
178.45,155.76,-130.86,3438,-5789,-5039,-1,0,-1
178.45,155.77,-130.87,3429,-5789,-5033,0,0,-1
178.45,155.76,-130.86,3425,-5789,-5026,0,0,-1
178.45,155.77,-130.87,3423,-5785,-5010,-1,0,-1
178.44,155.77,-130.88,3424,-5781,-5029,-1,-1,-1
178.45,155.77,-130.87,3427,-5784,-5037,0,0,-1
178.45,155.77,-130.87,3429,-5785,-5024,0,0,-1
178.45,155.76,-130.86,3435,-5790,-5025,0,0,-1
178.45,155.76,-130.86,3436,-5787,-5021,0,0,-1
178.45,155.76,-130.86,3436,-5791,-5028,0,0,-1
178.45,155.77,-130.87,3436,-5786,-5023,0,-1,0
178.45,155.77,-130.87,3426,-5779,-5031,0,-1,0
178.45,155.77,-130.87,3432,-5782,-5026,0,0,0
178.44,155.78,-130.86,3427,-5788,-5022,0,0,0
178.44,155.77,-130.86,3432,-5784,-5029,0,0,-1
178.44,155.77,-130.86,3435,-5779,-5024,-1,0,-1
178.44,155.78,-130.87,3428,-5778,-5023,-1,0,-1
178.44,155.77,-130.87,3436,-5788,-5026,0,0,-1
178.44,155.77,-130.87,3425,-5784,-5019,0,0,-1
178.44,155.76,-130.86,3434,-5778,-5015,-1,-1,0
178.44,155.77,-130.87,3434,-5776,-5021,0,0,0
178.44,155.77,-130.87,3433,-5784,-5022,0,0,-1
178.44,155.76,-130.86,3438,-5786,-5011,0,0,-1
178.44,155.76,-130.86,3438,-5787,-5007,-1,0,-1
178.44,155.76,-130.86,3433,-5786,-5015,0,0,0
178.44,155.77,-130.86,3426,-5784,-5020,0,0,0
178.44,155.77,-130.86,3430,-5779,-5012,0,-1,0
178.45,155.77,-130.85,3434,-5783,-5027,0,-1,0
178.45,155.78,-130.84,3430,-5794,-5032,0,0,0
178.44,155.78,-130.84,3427,-5800,-5031,0,0,-1
178.45,155.78,-130.84,3425,-5800,-5041,0,0,-1
178.45,155.76,-130.84,3425,-5797,-5037,0,0,-1
178.47,155.74,-130.84,3426,-5791,-5028,0,0,-1
178.48,155.72,-130.83,3436,-5802,-5033,0,0,-1
178.51,155.69,-130.81,3438,-5794,-5017,0,1,-1
178.52,155.66,-130.80,3443,-5786,-5009,0,0,-1
178.54,155.64,-130.79,3444,-5794,-5022,0,0,-1
178.56,155.62,-130.77,3444,-5789,-5022,0,0,-1
178.58,155.59,-130.76,3449,-5792,-5031,0,1,-1
178.60,155.55,-130.74,3453,-5798,-5039,0,1,-1
178.65,155.50,-130.71,3450,-5798,-5025,0,1,-1
178.68,155.44,-130.68,3454,-5806,-5037,0,2,-2
178.74,155.36,-130.65,3482,-5812,-5012,0,2,-2
178.79,155.29,-130.62,3467,-5787,-4978,0,2,-2
178.82,155.23,-130.61,3495,-5773,-4976,0,1,-1
178.85,155.18,-130.59,3501,-5766,-4976,1,1,-1
178.88,155.15,-130.55,3507,-5749,-4954,1,0,0
178.89,155.14,-130.53,3512,-5769,-4953,0,0,0
178.90,155.14,-130.52,3512,-5791,-4969,0,0,-1
178.91,155.13,-130.50,3512,-5797,-4963,0,0,-1
178.90,155.11,-130.51,3501,-5798,-4971,-1,0,-1
178.91,155.08,-130.50,3518,-5808,-5003,0,1,-1
178.95,155.03,-130.46,3513,-5798,-4978,1,1,-1
178.98,154.99,-130.44,3523,-5779,-4941,-1,1,-1
179.00,154.95,-130.44,3520,-5779,-4958,0,1,-1
179.02,154.92,-130.42,3537,-5780,-4954,0,1,-1
179.05,154.90,-130.38,3532,-5774,-4918,0,0,-1
179.05,154.89,-130.38,3552,-5765,-4916,-1,0,0
179.04,154.88,-130.38,3543,-5774,-4941,0,0,0
179.05,154.87,-130.37,3547,-5785,-4950,0,0,-1
179.06,154.85,-130.35,3540,-5786,-4943,-1,1,-1
179.07,154.82,-130.35,3552,-5793,-4926,-1,0,-1
179.07,154.80,-130.36,3545,-5790,-4944,-1,1,-1
179.09,154.76,-130.33,3560,-5787,-4947,1,1,-1
179.12,154.72,-130.29,3560,-5795,-4927,0,1,-1
179.15,154.69,-130.28,3571,-5784,-4916,0,0,-1
179.15,154.67,-130.28,3570,-5774,-4912,-1,0,-1
179.15,154.66,-130.28,3574,-5787,-4925,-1,0,-1
179.17,154.62,-130.26,3571,-5780,-4936,0,1,-1
179.20,154.61,-130.21,3557,-5784,-4898,1,0,-1
179.21,154.57,-130.22,3597,-5783,-4897,-2,0,-1
179.21,154.55,-130.23,3610,-5786,-4900,-1,0,-1
179.20,154.54,-130.25,3598,-5769,-4900,-1,0,-1
179.18,154.53,-130.27,3589,-5768,-4921,-1,0,-1
179.18,154.51,-130.25,3574,-5778,-4944,0,0,-1
179.19,154.48,-130.23,3582,-5796,-4921,-1,1,-1
179.18,154.46,-130.24,3561,-5803,-4935,-1,0,-1
179.21,154.41,-130.24,3611,-5803,-4928,-1,1,-1
179.22,154.36,-130.24,3609,-5780,-4936,0,2,-2
179.24,154.29,-130.24,3608,-5779,-4919,-1,2,-2
179.27,154.21,-130.24,3607,-5790,-4926,-1,2,-2
179.32,154.13,-130.21,3617,-5750,-4923,1,3,-2
179.38,154.06,-130.16,3616,-5779,-4883,1,1,-2
179.42,153.99,-130.14,3665,-5766,-4854,-1,2,-2
179.45,153.93,-130.14,3660,-5764,-4833,-1,1,-2
179.46,153.89,-130.16,3676,-5735,-4838,-1,0,-2
179.47,153.86,-130.18,3695,-5733,-4870,-1,0,-1
179.46,153.84,-130.18,3659,-5741,-4887,0,0,0
179.48,153.84,-130.16,3662,-5752,-4871,-1,1,-1
179.48,153.82,-130.15,3607,-5786,-4907,0,0,-1
179.56,153.75,-130.12,3685,-5801,-4876,-1,2,-3
179.63,153.66,-130.12,3757,-5725,-4881,0,2,-2
179.66,153.63,-130.10,3732,-5703,-4810,-1,0,-1
179.64,153.61,-130.12,3715,-5741,-4844,-1,0,-1
179.65,153.58,-130.13,3710,-5760,-4890,-1,1,-2
179.68,153.53,-130.10,3696,-5757,-4873,0,2,-2
179.72,153.47,-130.09,3728,-5756,-4866,0,1,-2
179.75,153.40,-130.08,3687,-5769,-4864,0,2,-2
179.80,153.33,-130.05,3689,-5762,-4864,1,2,-2
179.90,153.25,-130.00,3779,-5705,-4824,2,1,-1
179.94,153.21,-129.97,3755,-5703,-4802,0,1,-2
179.95,153.19,-129.97,3802,-5701,-4791,-1,0,-1
179.93,153.19,-130.00,3787,-5703,-4814,-1,0,-1
179.93,153.18,-130.02,3766,-5746,-4807,-3,0,-1
179.90,153.16,-130.10,3750,-5757,-4861,-2,0,-2
179.92,153.12,-130.12,3762,-5764,-4876,-2,1,-2
179.95,153.09,-130.12,3715,-5739,-4863,0,1,-3
179.99,153.01,-130.13,3741,-5755,-4867,0,1,-3
-179.92,152.94,-130.10,3770,-5704,-4835,1,2,-2
-179.87,152.86,-130.10,3834,-5719,-4808,-2,1,-2
-179.83,152.81,-130.11,3841,-5681,-4828,0,1,-2
-179.81,152.78,-130.09,3822,-5689,-4805,0,0,-1
-179.78,152.75,-130.08,3829,-5675,-4802,0,0,-1
-179.79,152.76,-130.10,3846,-5693,-4804,-2,-1,-1
-179.82,152.77,-130.13,3819,-5692,-4821,-2,-1,-1
-179.83,152.77,-130.15,3823,-5716,-4844,-2,0,-1
-179.82,152.75,-130.15,3812,-5708,-4842,-1,1,-2
-179.79,152.71,-130.14,3803,-5723,-4822,-1,1,-2
-179.77,152.68,-130.15,3808,-5707,-4802,-1,0,-1
-179.75,152.66,-130.14,3805,-5690,-4804,0,0,-1
-179.74,152.64,-130.13,3792,-5728,-4788,-1,0,-1
-179.72,152.63,-130.14,3826,-5649,-4757,1,-2,0
-179.74,152.68,-130.15,3846,-5663,-4777,-1,-2,1
-179.78,152.73,-130.18,3862,-5664,-4822,0,-2,0
-179.83,152.76,-130.22,3833,-5696,-4866,0,-1,0
-179.81,152.75,-130.21,3829,-5693,-4851,0,0,-1
-179.82,152.73,-130.23,3826,-5698,-4859,-1,0,-1
-179.80,152.71,-130.24,3844,-5682,-4851,0,0,-1
-179.80,152.68,-130.24,3823,-5693,-4828,-1,1,-2
-179.79,152.66,-130.24,3834,-5675,-4842,-1,0,-1
-179.77,152.65,-130.20,3846,-5681,-4800,0,0,0
-179.80,152.65,-130.24,3842,-5716,-4801,-3,-1,-1
-179.82,152.64,-130.28,3822,-5681,-4830,-1,0,-1
-179.83,152.62,-130.33,3836,-5683,-4838,-3,0,-1
-179.85,152.60,-130.38,3845,-5665,-4844,-2,0,-1
-179.85,152.59,-130.40,3846,-5662,-4850,-1,0,-1
-179.85,152.56,-130.43,3850,-5649,-4844,-1,0,-1
-179.86,152.59,-130.39,3829,-5622,-4888,2,0,1
-179.80,152.57,-130.30,3850,-5682,-4863,2,1,-1
-179.78,152.55,-130.27,3854,-5685,-4781,-2,-1,-1
-179.82,152.56,-130.35,3845,-5678,-4837,-3,-1,-1
-179.85,152.55,-130.40,3845,-5656,-4863,-1,0,-1
-179.85,152.52,-130.40,3821,-5667,-4894,0,1,-1
-179.81,152.46,-130.36,3830,-5674,-4880,1,2,-2
-179.75,152.40,-130.30,3879,-5681,-4789,0,0,-1
-179.76,152.39,-130.33,3874,-5697,-4802,-3,0,-1
-179.79,152.35,-130.41,3875,-5694,-4803,-4,0,-2
-179.81,152.30,-130.50,3865,-5662,-4845,-4,2,-2
-179.82,152.22,-130.56,3873,-5634,-4849,-2,2,-2
-179.82,152.16,-130.59,3894,-5625,-4826,-2,1,-1
-179.83,152.14,-130.61,3894,-5626,-4835,-1,1,-1
-179.83,152.10,-130.63,3883,-5632,-4838,-1,1,-1
-179.83,152.04,-130.65,3880,-5638,-4832,-2,2,-2
-179.82,151.95,-130.70,3883,-5649,-4849,-3,3,-3
-179.83,151.82,-130.80,3898,-5625,-4848,-4,3,-4
-179.82,151.69,-130.89,3919,-5604,-4862,-4,3,-3
-179.82,151.58,-130.97,3948,-5572,-4858,-4,3,-3
-179.78,151.48,-131.00,3961,-5564,-4864,-1,2,-3
-179.76,151.39,-131.01,4008,-5539,-4801,-1,1,-1
-179.75,151.35,-131.02,3938,-5584,-4860,-2,2,-3
-179.73,151.22,-131.07,3985,-5570,-4816,-3,3,-3
-179.71,151.13,-131.12,4034,-5564,-4815,-4,2,-3
-179.74,151.07,-131.22,4010,-5532,-4884,-2,1,-2
-179.72,150.96,-131.27,4016,-5523,-4885,-3,4,-3
-179.70,150.84,-131.31,4065,-5512,-4841,-3,2,-2
-179.75,150.76,-131.40,4058,-5516,-4836,-4,1,-3
-179.74,150.66,-131.51,4043,-5507,-4913,-4,3,-4
-179.70,150.43,-131.62,3998,-5549,-4861,-9,9,-7
-179.59,150.11,-131.76,4171,-5448,-4883,-5,7,-7
-179.61,149.84,-131.92,4066,-5475,-4765,-13,9,-7
-179.66,149.56,-132.21,4249,-5366,-4844,-7,4,-6
-179.80,149.30,-132.52,4304,-5320,-4875,-11,7,-8
-179.80,149.10,-132.68,4306,-5284,-4938,-6,6,-4
-179.83,148.88,-132.78,4316,-5269,-4906,-6,7,-4
-179.85,148.72,-132.86,4239,-5261,-4864,-4,4,-3
-179.83,148.56,-132.91,4355,-5226,-4858,-3,5,-3
-179.84,148.48,-132.93,4365,-5236,-4848,-2,1,-1
-179.87,148.41,-132.98,4366,-5240,-4893,-3,3,-2
-179.88,148.31,-133.03,4366,-5236,-4879,-3,3,-3
-179.90,148.22,-133.10,4373,-5221,-4887,-3,2,-3
-179.91,148.12,-133.15,4377,-5204,-4886,-3,3,-2
-179.93,148.03,-133.20,4393,-5199,-4881,-3,3,-2
-179.95,147.92,-133.25,4409,-5194,-4886,-3,3,-3
-179.96,147.79,-133.31,4430,-5188,-4888,-4,4,-3
-179.97,147.65,-133.38,4442,-5180,-4879,-4,4,-3
-180.00,147.50,-133.46,4096,-5389,-4657,-7,6,-5
179.82,147.32,-133.85,4502,-5147,-4766,-8,-5,-7
179.65,147.17,-134.25,4543,-5046,-5051,-11,5,-5
179.52,146.99,-134.51,4605,-4989,-4989,-8,2,-4
179.45,146.85,-134.63,4599,-4980,-5057,-6,8,-2
179.39,146.70,-134.68,4572,-4983,-4954,-4,4,-2
179.32,146.60,-134.71,4564,-4981,-4946,-4,4,-1
179.25,146.51,-134.74,4575,-4976,-4955,-3,4,-1
179.16,146.41,-134.76,4582,-4976,-4927,-3,4,-1
179.09,146.32,-134.79,4605,-4973,-4949,-4,5,-1
179.03,146.16,-134.83,4618,-4970,-4931,-4,6,-3
178.98,146.00,-134.88,4626,-4947,-4921,-4,5,-2
178.93,145.86,-134.92,4636,-4931,-4904,-4,5,-2
178.84,145.74,-134.95,4659,-4934,-4919,-5,6,-1
178.74,145.58,-134.97,4672,-4916,-4897,-5,7,-1
178.63,145.43,-135.01,4695,-4906,-4908,-5,6,-1
178.52,145.25,-135.05,4718,-4907,-4927,-6,9,-3
178.41,145.04,-135.11,4703,-4890,-4892,-6,8,-2
178.34,144.80,-135.18,4738,-4897,-4882,-6,9,-5
178.27,144.53,-135.31,4824,-4851,-4869,-8,8,-6
178.21,144.28,-135.43,4842,-4807,-4878,-6,8,-4
178.13,144.06,-135.51,4857,-4790,-4840,-5,7,-3
178.07,143.85,-135.58,4871,-4778,-4830,-6,7,-4
178.01,143.64,-135.64,4889,-4739,-4795,-5,7,-3
177.97,143.54,-135.66,4896,-4722,-4766,-2,2,-1
177.92,143.50,-135.67,4921,-4712,-4787,-1,1,0
177.89,143.48,-135.66,4926,-4729,-4794,-1,1,0
177.88,143.43,-135.70,4892,-4787,-4780,-3,2,-4
177.73,143.26,-136.02,4557,-4738,-4693,-11,-1,-13
177.93,143.01,-136.28,5181,-4529,-4962,-4,4,-3
177.97,143.01,-136.28,5100,-4577,-4837,2,-4,-1
177.99,143.04,-136.28,5055,-4604,-4880,-1,0,-1
178.00,143.04,-136.29,5042,-4623,-4870,0,-1,-1
177.99,143.01,-136.33,5020,-4630,-4893,-2,2,-2
177.94,142.92,-136.36,5026,-4620,-4872,-3,3,-1
177.88,142.83,-136.40,5023,-4606,-4854,-3,3,-1
177.82,142.78,-136.40,5020,-4602,-4832,-2,1,0
177.76,142.74,-136.41,5037,-4612,-4874,-3,3,-1
177.65,142.64,-136.45,5045,-4591,-4885,-4,5,0
177.51,142.53,-136.46,5045,-4600,-4798,-4,4,0
177.45,142.46,-136.48,5078,-4619,-4866,-4,4,-2
177.31,142.22,-136.61,5083,-4582,-4887,-8,10,-4
177.16,141.97,-136.68,5097,-4559,-4823,-7,9,-3
176.99,141.73,-136.77,5127,-4562,-4833,-8,10,-4
176.86,141.41,-136.88,5163,-4541,-4831,-9,12,-6
176.73,141.10,-136.97,5153,-4466,-4716,-6,9,-3
176.63,141.00,-136.97,5181,-4461,-4719,-3,3,-1
176.50,140.83,-137.05,5222,-4453,-4792,-7,8,-3
176.31,140.62,-137.12,5245,-4430,-4776,-7,8,-2
176.08,140.40,-137.18,5249,-4394,-4754,-7,10,0
175.89,140.26,-137.18,5268,-4407,-4668,-5,5,0
175.77,140.15,-137.21,5296,-4402,-4703,-4,5,-1
175.63,140.02,-137.26,5325,-4398,-4745,-6,6,-2
175.47,139.79,-137.36,5363,-4394,-4750,-7,8,-4
175.30,139.47,-137.56,5408,-4384,-4785,-12,11,-8
175.08,139.03,-137.82,5412,-4327,-4719,-11,14,-8
174.86,138.65,-137.98,5418,-4254,-4668,-10,12,-6
174.53,138.34,-138.14,4822,-4569,-4266,-18,13,-5
174.20,138.15,-138.71,5237,-4407,-4222,-23,-8,-13
173.69,137.90,-139.52,5711,-4069,-4940,-18,11,-6
173.29,137.58,-139.73,5779,-3939,-4869,-9,11,-1
172.92,137.36,-139.81,5472,-4126,-4613,-16,10,-4
172.74,137.14,-140.14,5771,-3917,-4872,-7,6,-4
172.52,136.95,-140.17,5715,-3942,-4646,-3,2,-1
172.39,136.84,-140.25,5708,-3936,-4738,-6,6,-2
172.20,136.65,-140.34,5698,-3922,-4707,-6,6,-3
171.94,136.47,-140.43,5695,-3905,-4711,-8,8,-2
171.70,136.27,-140.52,5569,-3932,-4644,-7,7,-3
171.35,136.07,-140.63,5799,-3953,-4294,-22,4,-3
171.16,135.97,-140.93,5851,-3787,-4785,-10,12,0
170.83,135.76,-140.94,5821,-3799,-4656,-6,7,-1
170.52,135.59,-140.98,5811,-3789,-4691,-8,10,0
170.18,135.39,-141.01,5809,-3786,-4615,-7,8,-1
169.98,135.23,-141.05,5830,-3785,-4609,-5,5,-2
169.74,135.07,-141.12,5848,-3751,-4644,-6,7,-1
169.37,134.82,-141.20,5873,-3734,-4693,-10,12,-2
168.84,134.47,-141.31,5897,-3714,-4715,-14,17,-3
168.03,133.95,-141.52,5962,-3717,-4761,-22,25,-6
167.02,133.19,-141.82,5969,-3691,-4562,-26,28,-10
166.11,132.44,-142.17,5981,-3624,-4518,-22,29,-8
165.03,131.88,-142.76,5462,-4119,-3574,-28,-5,-25
164.46,131.67,-144.16,6419,-3199,-4846,-19,5,-9
163.19,131.13,-144.55,6303,-3234,-4583,-22,19,-2
162.28,130.74,-144.96,6323,-3165,-4580,-16,9,-6
161.23,130.33,-145.34,6237,-3160,-4375,-25,14,-6
160.43,129.93,-145.70,6361,-2969,-4660,-18,22,-1
159.16,129.35,-145.80,6403,-3027,-4595,-23,27,-2
157.67,128.47,-146.08,6494,-3043,-4575,-29,38,-11
156.03,127.29,-146.46,6530,-3001,-4429,-30,42,-16
154.41,126.11,-146.79,6514,-2973,-4090,-26,36,-14
152.73,125.38,-147.44,6395,-2827,-3814,-36,13,-16
151.58,124.69,-148.28,6775,-2500,-4275,-24,33,-9
150.15,123.83,-148.52,6826,-2536,-4095,-20,29,-11
148.73,122.94,-148.82,6711,-2702,-3710,-26,31,-11
147.26,122.39,-149.48,6775,-2435,-3747,-27,12,-12
146.04,121.94,-150.19,6881,-2279,-3844,-26,15,-9
144.95,121.40,-150.81,7119,-2120,-4019,-17,22,-9
143.93,120.79,-151.03,7079,-2119,-3816,-13,16,-7
143.28,120.42,-151.18,7063,-2103,-3628,-6,7,-4
143.16,120.33,-151.24,7058,-2082,-3558,0,-2,-1
143.13,120.40,-151.17,6865,-2358,-3259,-4,-5,1
143.52,120.69,-151.50,7027,-2200,-3436,-2,-13,-1
144.29,121.15,-151.76,7208,-1921,-3865,8,-17,1
144.60,121.32,-151.75,7182,-1996,-3928,1,-2,0
144.69,121.35,-151.77,7122,-2047,-3829,1,-3,-1
144.92,121.41,-151.80,7091,-2068,-3837,1,-3,-2
145.14,121.47,-151.82,7074,-2092,-3799,3,-4,-2
145.41,121.54,-151.87,7062,-2094,-3813,2,-3,-2
145.79,121.64,-151.92,7051,-2093,-3814,4,-7,-3
145.98,121.70,-152.03,7051,-2087,-3875,-2,0,-2
146.10,121.69,-152.24,7061,-2092,-3890,-3,-2,-6
146.01,121.57,-152.55,7069,-2082,-3898,-6,2,-7
145.83,121.34,-153.12,7111,-2063,-3918,-10,4,-13
145.45,121.06,-153.81,7781,-1796,-4062,-15,6,-5
145.35,120.58,-154.11,7787,-1432,-4594,6,20,-14
145.64,120.08,-154.28,7210,-1680,-4215,9,10,-16
146.66,119.60,-154.74,6767,-1848,-3933,13,11,-26
147.46,119.10,-155.27,6755,-2010,-3528,5,5,-22
148.04,118.78,-155.66,6899,-1903,-3479,6,4,-14
148.48,118.63,-155.85,7095,-1883,-3463,4,-1,-7
148.72,118.56,-155.81,7098,-1849,-3464,5,1,-3
148.84,118.48,-155.72,7135,-1853,-3412,1,2,-2
148.85,118.44,-155.56,7179,-1787,-3461,1,1,0
148.84,118.39,-155.46,7216,-1746,-3509,1,1,-1
148.86,118.37,-155.44,7231,-1706,-3544,0,0,-1
148.90,118.37,-155.37,7245,-1684,-3546,2,0,0
149.03,118.38,-155.30,7263,-1588,-3666,3,0,0
149.25,118.36,-155.34,7274,-1613,-3679,4,-1,-4
149.56,118.30,-155.61,7303,-1676,-3591,-2,0,-6
149.84,118.11,-155.79,7414,-1520,-3778,1,4,-8
150.44,117.93,-156.12,7342,-1525,-3904,9,1,-15
151.05,117.73,-156.40,7340,-1652,-3663,7,4,-11
151.52,117.40,-156.70,7375,-1646,-3598,9,9,-16
152.03,116.99,-157.22,7564,-1464,-3592,6,7,-16
152.59,116.62,-157.85,7631,-1386,-3734,8,8,-20
152.93,116.09,-158.11,7643,-1484,-3420,5,14,-12
153.04,115.59,-158.03,7481,-1509,-3362,6,17,-10
153.09,115.09,-157.90,7454,-1394,-3268,6,12,-8
153.17,114.77,-157.80,7446,-1410,-3192,5,9,-2
153.03,114.51,-157.40,7301,-1451,-3051,3,9,1
153.07,114.34,-157.05,7282,-1358,-3105,5,4,0
153.21,114.36,-156.89,7170,-1484,-3005,2,-1,2
153.39,114.26,-156.69,7197,-1469,-2988,3,3,-2
153.53,114.22,-156.75,7476,-1328,-3138,2,0,-3
153.78,114.24,-157.02,7624,-1315,-3166,2,-3,-2
154.09,114.17,-156.85,7404,-1404,-3065,7,2,-4
154.50,114.16,-156.91,7509,-1344,-3053,5,-2,-3
154.87,114.29,-157.00,7677,-1305,-3154,4,-6,0
155.11,114.30,-156.84,7849,-1317,-3225,5,4,2
155.43,114.25,-156.55,7788,-1212,-3301,6,1,-1
155.71,114.14,-156.18,7585,-1316,-3221,6,6,0
156.00,114.01,-155.90,7575,-1332,-3167,5,4,-3
156.12,113.88,-155.59,7787,-1344,-3291,3,6,1
156.18,113.60,-155.25,7962,-1446,-3656,5,15,-5
156.16,112.90,-154.96,8129,-1389,-3420,7,28,-12
155.89,111.98,-154.51,8289,-1346,-3209,7,31,-8
155.60,111.18,-153.46,8178,-1228,-2822,8,28,3
154.85,110.64,-151.44,7628,-1362,-2379,6,24,16
153.78,110.42,-149.15,7074,-1469,-2365,2,17,18
153.06,110.33,-147.46,6926,-1522,-2483,5,14,13
152.63,110.28,-146.11,6782,-1701,-2320,1,10,8
152.40,110.17,-145.18,7048,-1717,-2209,1,6,4
152.17,110.12,-144.66,7367,-1697,-2265,1,5,4
152.06,110.05,-144.21,7560,-1755,-2241,1,3,0
152.20,110.00,-144.18,7656,-1757,-2204,1,-1,-3
152.61,109.96,-144.57,7883,-1708,-2286,1,-5,-9
153.37,109.97,-145.62,8285,-1518,-2664,4,-6,-9
154.12,109.89,-145.56,8437,-1572,-2465,7,3,4
154.29,110.01,-144.57,8529,-1570,-2686,8,0,15
154.48,110.31,-142.44,8485,-1797,-2877,20,12,29
155.19,110.98,-139.55,8567,-2076,-3258,24,-6,48
158.48,112.78,-136.17,8289,-2585,-4345,64,-32,71
166.61,116.24,-133.42,7542,-2602,-5611,104,-81,95
178.23,119.96,-129.26,6697,-2403,-6049,194,-74,87
-167.90,122.75,-124.51,5882,-2168,-5278,244,-82,44
-154.96,123.54,-120.42,5961,-448,-3857,255,-6,-77
-141.52,121.26,-113.53,5603,-1115,-1962,229,66,-62
-129.88,118.82,-105.06,5462,-1834,122,186,52,-62
-122.15,117.14,-97.60,6918,-1952,1800,99,131,-4
-118.78,117.07,-92.62,6978,-2881,2740,33,28,0
-117.96,117.01,-91.44,7199,-3238,2639,-10,-17,0
-119.37,117.10,-93.48,7284,-3547,1254,-22,-32,1
-120.32,117.10,-94.98,7319,-3617,-35,-5,-7,-2
-120.28,117.07,-94.98,7336,-3624,-344,4,3,0
-120.12,117.09,-94.68,7281,-3643,-420,4,2,2
-120.07,117.17,-94.49,7388,-3675,-418,8,5,2
-119.79,117.22,-93.96,7359,-3712,-281,5,4,2
-119.70,117.29,-93.74,7354,-3736,-212,2,0,2
-119.74,117.34,-93.72,7357,-3771,-273,1,-1,1
-119.78,117.37,-93.73,7359,-3779,-283,1,-1,0
-119.83,117.40,-93.78,7355,-3789,-316,0,-2,0
-119.85,117.41,-93.81,7342,-3782,-326,1,-2,0
-119.86,117.41,-93.82,7348,-3747,-361,4,-2,0
-119.91,117.46,-93.83,7353,-3725,-354,6,-5,3
-120.28,117.54,-94.34,7430,-3817,-330,1,-10,1
-120.35,117.54,-94.47,7395,-3827,-309,-7,-4,-2
-120.46,117.48,-94.75,7339,-3867,-442,-1,-5,-5
-121.47,117.51,-96.49,7476,-3791,-816,1,-43,0
-122.09,117.56,-97.62,7704,-3787,-721,16,-16,-3
-122.86,117.66,-99.05,7422,-3789,-880,9,-40,-1
-123.67,117.69,-100.89,7519,-3797,-967,17,-32,-8
-123.78,117.51,-102.04,7620,-3832,-943,22,-33,-16
-123.77,117.38,-102.89,7275,-3744,-915,27,-26,-10
-123.30,117.15,-102.80,6974,-3553,-723,16,-20,-13
-123.61,117.08,-104.23,7307,-3554,-847,15,-30,-6
-123.85,117.13,-105.22,7289,-3533,-914,18,-27,-6
-124.21,117.21,-106.56,7623,-3593,-939,14,-28,-3
-124.40,117.25,-107.57,7598,-3618,-932,12,-25,-8
-124.26,117.11,-108.07,7230,-3495,-1048,9,-15,-14
-124.12,116.91,-108.83,7336,-3439,-1118,7,-14,-13
-123.94,116.70,-109.42,7314,-3355,-1162,6,-10,-11
-123.83,116.52,-110.05,7426,-3397,-1163,1,-11,-9
-123.75,116.38,-110.49,7448,-3389,-1219,-1,-4,-7
-123.52,116.14,-110.80,7499,-3395,-1243,-2,-2,-9
-123.29,115.92,-110.99,7521,-3414,-1244,-3,1,-8
-123.08,115.67,-111.20,7509,-3414,-1292,-7,2,-10
-122.82,115.38,-111.40,7502,-3453,-1421,-6,6,-11
-122.48,115.08,-111.36,7615,-3357,-1525,-1,6,-8
-122.28,114.97,-111.10,7714,-3220,-1579,6,5,2
-122.25,115.14,-110.47,7571,-3019,-1588,15,3,13
-122.33,115.46,-109.76,7046,-3143,-1282,20,-6,7
-122.34,115.50,-110.17,6758,-3372,-908,3,-19,-15
-122.08,115.00,-111.73,7063,-3334,-1033,-11,-15,-33
-121.45,114.17,-113.59,7788,-3189,-1256,-8,-14,-35
-121.02,113.57,-115.10,8211,-3262,-1547,-8,-3,-23
-120.35,112.97,-115.48,8448,-3197,-1759,-1,10,-20
-119.69,112.42,-115.57,8586,-3116,-1713,-5,4,-17
-119.22,111.83,-116.77,8721,-3176,-1869,-16,-1,-32
-118.37,110.91,-118.13,8932,-3332,-2094,-17,11,-36
-117.24,109.86,-118.63,9223,-3311,-2442,-17,27,-32
-115.79,108.91,-116.84,9331,-3373,-2921,11,52,-12
-114.30,108.49,-112.04,9085,-3253,-2941,42,55,11
-113.10,108.60,-106.52,8656,-3025,-2686,61,46,23
-112.20,109.13,-100.96,8113,-2706,-2377,77,42,30
-111.28,109.70,-95.61,7616,-2591,-1750,96,31,21
-110.69,110.33,-91.29,7335,-2401,-927,92,14,27
-110.32,69.12,-87.95,7247,-2033,-512,87,12,17
-109.54,69.02,-84.56,7283,-2108,-65,94,9,1
-108.90,68.86,-81.14,7672,-1767,292,96,11,17
-108.85,67.90,-77.25,7464,-1496,673,92,30,48
-108.98,66.43,-72.80,6675,-1608,1263,77,38,35
-108.36,65.90,-68.78,6617,-1823,1678,66,26,-4
-107.34,65.89,-64.84,6794,-2469,2154,61,26,-16
-106.45,65.59,-60.93,6897,-2967,2447,50,37,-9
-105.39,65.40,-57.00,7226,-2923,2523,44,33,-22
-104.49,65.23,-53.71,7629,-3205,2514,42,31,-10
-103.85,64.82,-50.91,7873,-4623,2969,28,24,-22
-103.52,64.58,-49.26,8390,-5584,2613,40,26,-1
-103.78,62.73,-46.80,8859,-3676,1239,62,93,48
-104.28,60.09,-43.73,7653,-2580,1013,75,78,57
-104.92,57.72,-41.16,6318,-2395,1329,73,71,44
-105.15,55.67,-38.12,4853,-3301,2327,86,53,14
-105.25,54.61,-35.64,5057,-2583,2856,62,24,20
-105.23,54.07,-33.29,4330,-2299,3266,86,-1,0
-105.60,54.60,-31.72,5260,-873,3816,87,-49,30
-105.87,56.01,-31.12,5303,-822,4626,51,-74,-2
-105.89,57.33,-31.22,6370,-1276,5345,18,-50,1
-105.84,57.88,-31.50,6900,-1469,5250,-8,-11,-4
-105.57,58.00,-31.50,6928,-1939,4859,-20,-1,-10
-105.52,57.98,-31.91,6955,-2047,3911,-16,7,0
-105.51,58.16,-32.32,6728,-1983,3096,-8,-15,-1
-105.64,59.08,-33.30,6622,-2081,2539,12,-45,2
-105.82,60.45,-34.38,7008,-2054,2469,25,-62,1
-105.90,61.99,-35.50,7421,-2367,2663,32,-61,-1
-105.95,62.88,-35.90,7679,-2471,2766,30,-24,-3
-105.76,63.36,-35.32,7670,-2435,2821,26,-15,-11
-105.42,64.14,-35.02,7917,-2479,2664,20,-30,-14
-105.16,65.13,-35.04,8121,-2262,2191,32,-31,-9
-104.74,66.01,-34.37,8161,-2222,1858,41,-18,-15
-104.42,66.38,-32.58,8073,-1930,1917,54,3,-12
-104.01,66.57,-30.22,7899,-1611,2221,51,0,-14
-103.66,66.79,-28.07,7640,-1324,2686,47,-3,-12
-103.29,67.02,-26.19,7512,-1015,3082,32,-6,-12
-102.91,67.30,-24.91,7539,-1049,3509,10,-11,-13
-102.63,67.42,-24.11,7583,-1004,3393,6,5,-9
-102.30,67.27,-22.91,7712,-894,3418,-6,6,-11
-102.18,67.26,-22.78,7763,-1339,3223,-6,4,-2
-102.25,67.08,-22.99,7562,-1754,2917,-6,6,-3
-102.33,66.92,-22.86,7570,-1594,2506,10,8,0
-102.33,67.15,-23.01,7977,-1806,2406,6,-17,2
-102.79,67.55,-24.30,8187,-1744,2047,30,-12,22
-103.15,67.27,-23.66,7717,-1220,2197,42,20,6
-103.42,66.52,-22.21,7366,-1151,2989,27,24,4
-103.64,65.81,-21.18,7361,-1311,3454,21,21,-1
-103.76,65.60,-20.99,7391,-1183,3599,0,-4,3
-103.62,65.51,-20.36,7190,-1084,3505,0,9,-13
-103.52,65.26,-19.68,7306,-1232,3493,10,12,-2
-103.60,64.86,-19.25,7124,-1032,3564,-7,10,-1
-103.53,65.05,-19.91,7721,-1075,3282,-18,-15,2
-103.50,65.31,-20.35,7429,-1215,3211,-7,-2,-1
-103.63,65.16,-21.10,7042,-2246,3518,-22,-5,-2
-103.98,65.37,-22.78,7983,-2377,2952,-4,-13,19
-104.42,65.77,-24.48,8225,-2109,1973,12,-16,14
-104.84,65.56,-23.91,7799,-1420,1912,46,26,13
-105.27,64.55,-22.28,7094,-1420,3075,30,25,4
-105.63,64.56,-22.95,7357,-1633,3845,-8,-32,16
-105.87,64.91,-24.18,7248,-1696,2952,13,4,6
-106.30,63.90,-23.04,6575,-1183,3132,14,42,5
-106.45,63.50,-22.93,7460,-1336,3446,-5,-10,6
-106.69,64.07,-24.27,7693,-1109,3187,3,-30,20
-106.81,64.46,-24.67,6392,-1568,3271,21,-11,-8
-106.85,64.17,-23.92,7029,-1489,3557,6,15,7
-107.12,63.97,-24.44,7987,-707,3456,-12,-6,12
-107.02,64.38,-25.16,7178,-1083,3395,-11,-17,-3
-106.85,64.52,-25.44,6542,-2242,3551,-14,-7,-12
-106.92,64.69,-26.27,7906,-1724,3135,-16,-9,12
-107.11,65.12,-27.89,8035,-1325,2482,-4,-20,13
-107.07,65.54,-28.11,7025,-2255,2678,23,-14,-13
-107.19,65.48,-27.88,7429,-2525,2775,18,7,9
-107.67,65.43,-28.76,8368,-1423,2445,2,-15,26
-108.14,65.91,-30.81,8169,-1757,2281,19,-33,25
-108.87,65.97,-31.86,7078,-2457,2738,45,-8,16
-109.77,65.22,-31.89,7590,-2031,2965,19,20,33
-110.74,64.61,-32.93,8323,-1391,2800,6,-4,35
-111.59,64.51,-34.72,7674,-1790,2627,29,-18,33
-112.31,64.21,-34.76,6850,-1888,2856,35,2,11
-112.98,63.76,-34.68,7458,-1705,3110,19,6,28
-113.87,63.30,-35.94,7608,-1578,2882,5,-5,33
-114.49,63.16,-36.90,7318,-1715,2719,22,-13,21
-115.04,63.14,-37.32,7047,-1729,2874,31,-12,16
-115.72,62.76,-37.52,7399,-1708,3258,14,1,30
-116.56,62.39,-38.88,7787,-1470,3371,-1,-15,33
-117.19,62.20,-40.56,7792,-1704,3235,-1,-8,30
-118.07,61.46,-41.00,7165,-1685,3297,4,18,25
-119.02,60.53,-41.72,7200,-1933,3743,-24,7,34
-119.98,59.90,-44.79,7815,-2607,3763,-45,-27,53
-121.11,59.38,-49.07,7744,-2936,3193,-37,-34,56
-122.13,58.69,-51.43,7189,-2983,2513,-6,6,35
-122.96,57.74,-51.21,6914,-2981,2825,-7,30,19
-123.74,56.73,-51.50,6844,-3089,3133,-31,22,27
-124.26,55.91,-52.23,6244,-3428,2944,-37,22,8
-124.41,55.33,-52.44,5948,-3670,2507,-31,32,-3
-124.27,55.00,-52.06,5905,-3696,2151,-19,27,-11
-124.15,54.89,-52.12,5821,-3741,2238,-19,1,-5
-123.94,55.10,-52.73,5813,-4098,2469,-15,-10,-10
-123.64,55.32,-52.93,5928,-4339,2580,-11,3,-16
-123.22,55.50,-52.52,5964,-4436,2515,-7,12,-22
-122.74,55.76,-51.95,6210,-4347,2425,-3,3,-20
-122.27,56.29,-52.05,6772,-3848,2258,0,-17,-10
-121.89,56.86,-52.46,7071,-3383,2162,0,-15,-7
-121.62,57.26,-52.82,7186,-3276,2330,-4,-13,-3
-121.45,57.48,-53.12,7104,-3312,2465,-4,-5,-5
-121.18,57.73,-53.19,7328,-3307,2661,-8,-6,-8
-120.88,58.01,-53.39,7653,-3559,2787,-11,-2,-8
-120.79,57.94,-53.41,7728,-3788,2657,-14,16,-1
-120.83,57.63,-53.05,7552,-3873,2441,-10,21,-1
-120.95,57.34,-52.86,7312,-3912,2315,-4,10,1
-121.15,57.21,-53.26,7196,-3858,2281,-2,-5,11
-121.40,57.05,-53.45,6964,-3648,2345,6,0,4
-121.57,56.92,-53.51,7049,-3799,2624,3,-1,8
-121.86,56.61,-53.46,6808,-3919,2685,2,10,5
-122.07,56.29,-53.16,6735,-3860,2673,1,8,4
-122.24,56.09,-53.12,6819,-3901,2545,1,6,4
-122.45,55.90,-53.06,6682,-3881,2488,9,1,4
-122.61,55.84,-53.03,6915,-3917,2630,7,-4,7
-122.98,55.49,-52.95,6905,-4215,2720,7,9,10
-123.47,54.93,-52.62,6674,-4052,2471,12,19,13
-123.83,54.50,-51.76,6628,-3604,2443,23,10,6
-124.02,54.43,-51.27,6791,-3661,2781,20,-7,6
-124.27,54.39,-51.30,6838,-3736,3083,12,-11,11
-124.64,54.17,-51.41,6783,-3589,3063,8,3,13
-124.99,53.82,-51.21,6726,-3479,3074,4,7,9
-125.27,53.56,-51.18,6696,-3374,3159,2,1,10
-125.45,53.42,-51.20,6788,-3355,3319,0,-1,6
-125.65,53.18,-51.25,6929,-3465,3613,-8,8,10
-126.00,52.65,-51.48,6871,-3462,3800,-24,14,13
-126.27,52.10,-51.90,6625,-3458,3646,-31,20,8
-126.40,51.58,-52.11,6503,-3394,3427,-31,25,4
-126.49,51.15,-52.51,6374,-3568,3366,-34,16,5
-126.62,50.76,-53.17,6290,-4013,3379,-35,12,3
-126.73,50.38,-53.77,6262,-4375,3205,-29,18,3
-126.88,49.84,-53.80,6121,-3999,2912,-22,32,5
-126.84,49.42,-53.53,5762,-3769,2928,-18,22,-5
-126.67,49.44,-53.84,5438,-3862,3192,-28,-4,-8
-126.22,49.74,-54.26,5612,-3864,3159,-28,5,-18
-125.78,49.98,-54.71,5900,-3755,3040,-35,6,-12
-125.37,50.19,-55.29,6080,-4091,3047,-39,4,-15
-125.08,50.40,-56.16,6340,-4447,2833,-38,2,-10
-124.84,50.53,-56.86,6498,-4342,2397,-29,11,-6
-124.58,50.65,-57.32,6541,-4613,2278,-23,4,-12
-124.41,50.87,-57.93,6858,-4791,2212,-17,-6,-3
-124.47,50.97,-58.61,6966,-4883,2185,-7,-8,3
-124.63,50.95,-59.04,7078,-4887,2291,-1,-4,7
-124.79,50.77,-59.05,7007,-4787,2513,0,6,5
-124.95,50.47,-58.84,6691,-4675,2602,-2,15,5
-125.03,50.11,-58.44,6297,-4532,2585,-6,19,1
-125.07,49.88,-58.23,6067,-4411,2567,-4,8,1
-125.11,49.86,-58.38,5944,-4340,2661,-3,-7,0
-125.06,49.95,-58.45,5652,-4086,2925,-5,-2,-5
-124.68,50.21,-58.44,5587,-4223,3478,-24,-3,-19
-124.29,50.54,-59.11,5534,-4773,3731,-44,-5,-20
-123.87,50.90,-60.05,5555,-4974,3158,-44,4,-24
-123.13,51.49,-60.44,5407,-4875,2394,-29,8,-36
-122.12,52.36,-60.33,5101,-4668,1882,-17,-2,-45
-120.84,53.80,-60.39,4975,-4408,1589,-4,-31,-54
-119.42,55.79,-61.04,5107,-4306,1339,3,-52,-61
-117.87,58.03,-61.85,5638,-4262,1172,12,-62,-62
-116.35,60.41,-63.36,6229,-4533,839,17,-73,-60
-114.88,62.63,-64.59,6819,-4791,188,42,-56,-61
-113.53,64.74,-66.15,8422,-4803,-93,52,-79,-39
-112.98,66.13,-68.97,9500,-5240,-396,78,-71,-11
-113.17,66.49,-70.27,10320,-5292,-527,102,-40,12
-113.97,66.05,-68.70,9996,-4560,-509,129,4,30
-115.16,65.15,-64.16,8955,-2901,101,152,31,28
-116.03,64.54,-58.51,8040,-1836,1728,128,21,9
-116.68,64.14,-54.32,7732,-1139,3164,85,15,9
-117.04,63.86,-51.75,7364,-1026,3754,29,5,1
-117.12,63.75,-50.62,7274,-1564,3248,14,11,-3
-117.37,63.41,-49.42,7262,-2430,2410,16,27,1
-117.92,62.75,-47.39,7229,-2480,1591,43,35,2
-118.40,62.44,-45.86,7539,-2596,1412,48,8,10
-119.33,61.87,-45.07,7778,-2854,1639,45,16,26
-120.71,60.93,-44.47,7845,-2577,2153,47,15,41
-122.22,59.78,-43.71,7505,-2030,2669,36,29,34
-123.54,58.43,-42.02,6590,-2210,3238,30,47,13
-124.26,57.53,-40.27,6365,-2045,3791,16,19,2
-124.33,57.46,-39.92,6958,-2261,4128,-2,-7,2
-124.47,57.44,-40.58,7783,-2760,3932,-5,-2,14
-124.91,57.08,-40.72,7848,-2908,3230,10,16,11
-125.56,56.51,-39.80,7569,-3094,2902,38,26,7
-126.32,55.88,-38.08,7233,-3071,3234,46,23,2
-126.99,55.42,-36.55,7391,-2649,3486,39,12,8
-127.49,55.22,-35.43,7548,-2696,3521,41,10,5
-128.19,54.73,-33.98,7149,-3063,3414,46,26,-3
-128.81,54.22,-31.91,7115,-2995,3425,52,24,-5
-129.57,53.53,-29.73,6756,-2709,3348,55,44,-5
-130.65,52.17,-26.83,6057,-1906,3643,53,63,-8
-131.55,50.62,-24.19,5552,-1200,4410,32,62,-7
-132.24,49.04,-22.54,4920,-970,5287,0,48,-6
-132.46,48.04,-22.25,4647,-1023,5596,-20,24,-2
-132.39,47.45,-22.68,4955,-1028,5753,-42,17,1
-132.16,46.89,-23.84,5103,-1480,5558,-56,16,0
-132.00,46.48,-25.39,5503,-2061,5192,-50,11,8
-132.02,46.26,-27.01,6257,-2425,4967,-46,3,16
-132.30,45.80,-28.38,6073,-3233,4753,-24,19,10
-132.66,45.04,-28.69,6149,-3333,4854,-9,28,7
-133.14,44.11,-28.46,6022,-2799,4807,3,39,7
-133.50,43.11,-27.82,5729,-2244,5063,1,39,2
-133.74,42.05,-27.20,5217,-2097,5585,-6,39,-5
-133.58,41.30,-26.94,5105,-2297,6049,-25,23,-13
-133.33,40.95,-27.49,5592,-2745,5845,-32,15,-1
-133.46,40.51,-28.24,5691,-2955,5240,-20,19,9
-133.75,39.83,-28.38,5440,-3122,5254,-3,27,4
-134.01,39.16,-28.19,5138,-3074,5655,0,18,2
-134.06,38.83,-28.15,5030,-2980,6086,-10,4,-2
-134.04,38.88,-28.52,5422,-3056,6193,-12,-9,5
-134.15,39.03,-29.04,5640,-3334,6105,-7,-7,7
-134.30,38.97,-29.20,5506,-3345,5968,3,3,3
-134.31,38.86,-28.98,5231,-3129,5928,2,3,-4
-134.17,38.99,-28.84,5001,-2843,5917,-2,-11,-5
-133.84,39.59,-29.11,5016,-2757,5905,-15,-31,-8
-133.36,40.65,-30.10,5565,-3038,5617,-25,-40,-2
-133.08,41.44,-31.15,5773,-3136,4976,-17,-22,0
-132.94,41.80,-31.65,5687,-3160,4684,-7,-7,-1
-132.89,41.94,-31.90,5656,-2959,4797,-6,-6,3
-132.85,42.16,-32.38,5520,-2815,5228,-18,-16,4
-132.76,42.40,-33.26,5337,-2975,5516,-30,-15,2
-132.59,42.71,-34.60,5466,-3339,5399,-43,-19,3
-132.52,43.02,-36.36,5591,-3737,4937,-43,-16,9
-132.58,43.19,-38.10,5521,-3980,4466,-41,-19,10
-132.69,43.55,-40.06,5836,-4307,3980,-36,-28,14
-132.93,43.79,-41.66,6038,-4337,3388,-16,-14,16
-133.23,43.66,-42.25,5960,-4230,3147,0,5,11
-133.54,43.42,-42.28,5904,-4215,3483,5,0,8
-133.73,43.53,-42.80,6417,-4642,3982,-5,-18,11
-134.07,43.48,-43.45,6763,-4789,3999,-1,2,15
-134.53,42.87,-43.25,6371,-4738,3813,11,31,8
-134.81,41.98,-42.20,5868,-4899,3782,19,47,-6
-135.05,41.07,-40.69,5776,-4516,3736,32,47,1
-135.62,39.89,-39.04,5417,-4085,3768,46,54,12
-136.47,38.42,-37.04,5097,-3417,4304,50,51,18
-137.18,36.96,-34.96,3730,-3087,5089,54,60,-2
-137.23,35.42,-32.76,3493,-2979,6487,17,51,-15
-137.12,35.04,-32.52,3912,-3058,6948,-20,-1,-4
-136.98,35.11,-33.06,4343,-3317,6726,-22,-4,-2
-136.81,35.13,-33.53,4716,-3664,6343,-18,4,-4
-136.76,34.89,-33.74,4750,-3932,5871,-7,16,-3
-136.78,34.59,-33.55,4418,-3845,5721,5,9,-3
-136.74,34.49,-33.29,4293,-3664,6064,0,-2,-3
-136.67,34.61,-33.45,4433,-3750,6244,-11,-10,-2
-136.67,34.89,-33.99,4696,-3835,5835,-11,-13,5
-136.73,35.08,-34.29,4698,-3768,5290,1,-8,2
-136.81,35.30,-34.32,4735,-3785,5391,6,-14,4
-136.92,35.58,-34.49,4806,-3859,5715,0,-18,5
-137.03,35.85,-34.80,4837,-4045,5792,-2,-18,4
-137.10,36.17,-35.12,5132,-4083,5531,1,-14,5
-137.25,36.29,-35.18,5192,-3902,5322,8,-5,7
-137.43,36.35,-35.05,5063,-3846,5502,9,-9,4
-137.57,36.49,-35.09,5108,-3945,5693,4,-12,6
-137.74,36.63,-35.22,5051,-4073,5473,7,-10,5
-137.96,36.67,-35.07,4858,-4082,5219,18,-5,4
-138.07,36.76,-34.55,4785,-3991,5318,22,-7,-2
-138.10,37.04,-34.05,5006,-3937,5490,21,-15,0
-138.17,37.38,-33.63,5115,-3897,5372,24,-12,1
-138.38,37.55,-32.97,5199,-3845,5298,35,-8,4
-138.62,37.74,-32.12,5287,-3887,5463,38,-10,1
-138.98,37.82,-31.34,5393,-3817,5489,33,-3,9
-139.51,37.60,-30.71,5128,-3603,5313,30,4,12
-140.09,37.41,-30.07,4931,-3451,5326,34,-4,13
-140.68,37.32,-29.49,4807,-3175,5433,27,-4,14
-141.19,37.08,-28.96,4466,-2314,5121,20,6,10
-141.29,37.08,-28.29,4310,-1845,5449,11,-7,-2
-141.19,37.39,-28.44,4474,-1905,6031,-17,-21,2
-140.89,37.92,-29.20,4768,-2402,5989,-25,-22,0
-140.76,38.26,-30.11,4841,-3075,5559,-16,-14,5
-140.77,38.51,-30.67,5141,-3030,5045,-5,-9,6
-140.95,38.53,-30.86,5164,-2790,4953,3,0,10
-141.22,38.46,-30.91,5046,-2750,5439,-1,-7,8
-141.33,38.59,-31.39,5252,-2991,5568,-12,-14,10
-141.46,38.71,-31.89,5235,-3028,5222,-4,-4,7
-141.58,38.62,-31.92,5167,-3126,5232,2,4,4
-141.75,38.53,-32.00,5130,-3589,5632,-1,-7,2
-141.79,38.72,-32.33,5510,-3910,5598,-3,-11,7
-142.09,38.69,-32.55,5480,-3922,5358,8,1,10
-142.47,38.41,-32.40,5325,-3879,5359,11,7,7
-142.78,38.17,-32.21,5223,-3881,5514,9,3,5
-142.97,38.13,-32.16,5101,-3783,5554,5,-4,4
-143.10,38.14,-32.10,4976,-3674,5493,5,-4,1
-143.13,38.22,-32.08,4958,-3698,5434,4,-5,-1
-143.08,38.43,-32.09,4984,-3758,5397,3,-11,-3
-143.01,38.68,-32.06,5089,-3807,5292,6,-7,-3
-143.05,38.77,-31.84,5109,-3705,5249,11,-2,0
-143.12,38.82,-31.64,5030,-3607,5282,8,-3,-1
-143.17,38.88,-31.47,5032,-3580,5332,7,-4,-1
-143.23,38.99,-31.40,5075,-3540,5379,6,-8,1
-143.25,39.14,-31.36,5107,-3473,5357,4,-6,-1
-143.23,39.30,-31.35,5176,-3403,5303,3,-7,0
-143.26,39.43,-31.34,5217,-3348,5321,4,-6,2
-143.33,39.54,-31.37,5255,-3355,5361,3,-6,2
-143.40,39.64,-31.36,5268,-3319,5352,5,-6,2
-143.46,39.78,-31.30,5336,-3262,5364,5,-7,2
