Yaw,Pitch,Roll,AX,AY,AZ,GX,GY,GZ
-156.20,11.86,-68.73,1746,-7609,2983,0,0,0
-156.21,11.85,-68.73,1708,-7590,2970,0,0,0
-156.22,11.84,-68.73,1700,-7593,2966,0,-1,0
-156.23,11.84,-68.72,1715,-7595,2967,-1,-1,0
-156.24,11.83,-68.72,1705,-7594,2967,0,-1,-1
-156.23,11.83,-68.72,1710,-7601,2977,-1,-1,0
-156.24,11.83,-68.72,1709,-7609,2974,0,-1,0
-156.23,11.83,-68.71,1707,-7583,2965,0,-1,0
-156.23,11.83,-68.70,1702,-7559,2979,-1,0,0
-156.23,11.83,-68.70,1699,-7587,2987,-1,-1,-1
-156.24,11.83,-68.71,1710,-7600,2965,-1,-1,0
-156.24,11.83,-68.71,1710,-7599,2961,0,0,-1
-156.23,11.83,-68.71,1710,-7601,2965,0,0,-1
-156.22,11.83,-68.70,1696,-7592,2988,-1,0,-1
-156.21,11.84,-68.70,1700,-7585,2995,-1,-1,-1
-156.20,11.85,-68.70,1708,-7583,2983,-1,-1,-1
-156.21,11.86,-68.71,1713,-7583,2977,-1,0,-1
-156.20,11.86,-68.71,1722,-7592,2973,-1,0,-1
-156.19,11.87,-68.72,1720,-7590,2971,-1,0,-1
-156.20,11.87,-68.73,1710,-7593,2967,-1,0,-1
-156.20,11.87,-68.74,1710,-7595,2967,-1,-1,-1
-156.19,11.88,-68.74,1718,-7606,2960,-1,0,-1
-156.19,11.89,-68.74,1723,-7595,2956,0,0,-1
-156.18,11.89,-68.75,1716,-7608,2955,-1,0,-1
-156.18,11.89,-68.75,1716,-7598,2967,-1,0,-1
-156.17,11.90,-68.75,1710,-7592,2958,-1,0,-1
-156.16,11.90,-68.75,1720,-7596,2962,-1,0,-1
-156.16,11.91,-68.76,1719,-7603,2951,-1,0,-1
-156.16,11.91,-68.76,1723,-7601,2957,-1,0,-1
-156.15,11.92,-68.76,1728,-7596,2960,-1,0,-1
-156.15,11.92,-68.76,1732,-7587,2970,-1,0,-1
-156.15,11.93,-68.78,1727,-7592,2950,-1,0,-1
-156.14,11.94,-68.79,1725,-7604,2950,-1,0,-1
-156.15,11.94,-68.80,1726,-7607,2942,-1,0,-1
-156.15,11.94,-68.81,1724,-7610,2944,-1,0,-1
-156.14,11.95,-68.80,1720,-7610,2942,0,0,-1
-156.14,11.95,-68.81,1724,-7604,2941,0,0,-1
-156.13,11.95,-68.81,1732,-7603,2950,0,0,-1
-156.13,11.95,-68.81,1722,-7595,2953,-1,0,-1
-156.12,11.96,-68.80,1720,-7595,2962,-1,-1,-1
-156.12,11.96,-68.81,1723,-7597,2947,-1,0,-1
-156.12,11.96,-68.81,1724,-7595,2959,-1,0,-1
-156.11,11.97,-68.81,1728,-7603,2962,-1,-1,-1
-156.11,11.98,-68.81,1731,-7603,2951,0,0,-1
-156.11,11.98,-68.81,1735,-7599,2953,0,0,-1
-156.10,11.98,-68.81,1738,-7588,2953,0,0,-1
-156.10,11.98,-68.81,1740,-7592,2958,-1,0,-1
-156.10,11.99,-68.82,1732,-7598,2944,-1,0,-1
-156.10,11.99,-68.83,1729,-7604,2924,-1,0,-1
-156.10,11.99,-68.82,1729,-7606,2937,0,0,-1
-156.08,12.00,-68.81,1733,-7591,2950,0,0,-1
-156.07,12.00,-68.81,1732,-7587,2956,-1,0,0
-156.08,12.01,-68.82,1728,-7595,2951,-1,-1,-1
-156.08,12.01,-68.82,1729,-7610,2941,-1,0,-1
-156.08,12.00,-68.82,1728,-7619,2935,-1,0,-1
-156.08,12.00,-68.83,1727,-7613,2938,0,0,-1
-156.08,12.01,-68.82,1730,-7603,2947,0,0,-1
-156.06,12.01,-68.81,1730,-7600,2953,0,0,-1
-156.06,12.01,-68.81,1729,-7599,2955,0,-1,-1
-156.06,12.02,-68.81,1732,-7596,2962,-1,-1,0
-156.05,12.02,-68.81,1738,-7598,2956,0,0,-1
-156.06,12.02,-68.81,1730,-7600,2956,-1,0,-1
-156.06,12.02,-68.82,1729,-7604,2946,-1,0,-1
-156.06,12.02,-68.82,1722,-7609,2932,-1,-1,-1
-156.06,12.02,-68.82,1726,-7618,2937,0,0,-1
-156.06,12.02,-68.83,1735,-7609,2932,0,0,-1
-156.05,12.02,-68.82,1733,-7600,2948,-1,0,-1
-156.04,12.03,-68.82,1741,-7601,2944,0,0,-1
-156.04,12.03,-68.82,1740,-7604,2935,-1,0,-1
-156.04,12.03,-68.82,1731,-7602,2952,0,0,-1
-156.03,12.04,-68.82,1741,-7609,2943,0,0,-1
-156.03,12.04,-68.82,1739,-7604,2949,0,0,-1
-156.02,12.05,-68.82,1742,-7589,2955,0,0,-1
-156.02,12.05,-68.82,1743,-7580,2953,-1,-1,-1
-156.02,12.05,-68.82,1742,-7585,2946,-1,-1,-1
-156.01,12.06,-68.83,1742,-7597,2936,-1,-1,-1
-156.01,12.06,-68.83,1741,-7597,2949,-1,-1,-1
-156.01,12.06,-68.82,1739,-7597,2951,0,0,-1
-156.00,12.07,-68.82,1741,-7598,2947,-1,0,-1
-156.00,12.07,-68.82,1743,-7598,2955,0,0,-1
-155.99,12.07,-68.82,1742,-7602,2953,0,0,-1
-155.99,12.07,-68.82,1736,-7598,2959,-1,0,-1
-155.98,12.07,-68.81,1740,-7602,2956,-1,0,-1
-155.98,12.08,-68.81,1739,-7596,2959,0,0,-1
-155.98,12.08,-68.81,1744,-7597,2958,-1,0,-1
-155.97,12.09,-68.81,1738,-7597,2957,-1,0,-1
-155.97,12.09,-68.82,1749,-7597,2952,-1,0,-1
-155.96,12.09,-68.82,1748,-7592,2958,-1,0,-1
-155.96,12.09,-68.81,1742,-7593,2953,-1,0,-1
-155.96,12.10,-68.81,1742,-7594,2957,-1,0,-1
-155.96,12.10,-68.82,1742,-7599,2948,-1,0,-1
-155.95,12.11,-68.81,1751,-7593,2948,0,-1,-1
-155.94,12.11,-68.82,1754,-7600,2954,0,0,-1
-155.93,12.11,-68.81,1756,-7587,2960,-1,0,-1
-155.94,12.11,-68.82,1738,-7602,2954,-1,0,-1
-155.93,12.12,-68.82,1744,-7602,2953,-1,0,-1
-155.92,12.12,-68.82,1749,-7603,2947,0,0,-1
-155.91,12.13,-68.81,1755,-7587,2951,0,0,-1
-155.91,12.13,-68.81,1756,-7579,2961,-1,0,-1
-155.91,12.13,-68.81,1753,-7584,2954,-1,0,-1
-155.90,12.14,-68.81,1757,-7597,2953,-1,0,-1
-155.91,12.13,-68.82,1748,-7606,2944,0,0,-1
-155.90,12.14,-68.81,1750,-7604,2947,0,0,-1
-155.89,12.14,-68.81,1740,-7602,2941,0,0,-1
-155.88,12.14,-68.80,1742,-7592,2944,0,0,-1
-155.88,12.15,-68.80,1743,-7589,2954,0,0,-1
-155.87,12.15,-68.80,1750,-7592,2954,-1,0,-1
-155.86,12.16,-68.80,1756,-7597,2960,-1,0,-1
-155.86,12.16,-68.80,1762,-7592,2953,-1,0,-1
-155.85,12.16,-68.80,1760,-7583,2952,-1,0,-1
-155.85,12.16,-68.80,1756,-7584,2943,0,0,-1
-155.84,12.17,-68.80,1758,-7595,2946,0,0,-1
-155.84,12.17,-68.79,1758,-7594,2944,0,0,-1
-155.84,12.17,-68.79,1750,-7596,2947,0,0,-1
-155.83,12.18,-68.80,1750,-7600,2945,0,0,-1
-155.82,12.18,-68.79,1763,-7601,2943,0,0,-1
-155.81,12.18,-68.78,1765,-7602,2947,0,0,-1
-155.81,12.18,-68.77,1769,-7596,2945,0,0,-1
-155.80,12.18,-68.76,1760,-7595,2958,0,0,-1
-155.79,12.18,-68.75,1757,-7587,2956,0,0,-1
-155.78,12.19,-68.75,1769,-7583,2965,0,-1,-1
-155.77,12.20,-68.75,1766,-7591,2965,-1,-1,-1
-155.77,12.20,-68.74,1778,-7582,2970,0,0,-1
-155.77,12.20,-68.74,1765,-7594,2969,-1,0,-1
-155.76,12.20,-68.74,1761,-7591,2954,0,0,-1
-155.76,12.20,-68.75,1760,-7598,2954,-1,0,-1
-155.76,12.21,-68.75,1759,-7594,2954,0,0,-1
-155.75,12.21,-68.75,1760,-7596,2947,0,0,-1
-155.74,12.22,-68.74,1765,-7590,2949,0,0,-1
-155.72,12.22,-68.73,1761,-7583,2946,0,0,-1
-155.72,12.23,-68.73,1761,-7580,2958,0,0,-1
-155.71,12.23,-68.73,1760,-7578,2966,-1,0,-1
-155.70,12.24,-68.73,1768,-7592,2956,-1,0,-1
-155.70,12.23,-68.73,1765,-7597,2948,-1,0,-1
-155.70,12.24,-68.74,1767,-7600,2944,-1,0,-1
-155.69,12.25,-68.73,1777,-7597,2956,0,0,-1
-155.68,12.25,-68.73,1770,-7597,2950,0,0,-1
-155.68,12.25,-68.73,1768,-7593,2957,-1,-1,0
-155.68,12.25,-68.73,1764,-7589,2958,0,0,0
-155.68,12.25,-68.73,1770,-7586,2961,0,0,0
-155.69,12.25,-68.73,1767,-7585,2972,-1,0,0
-155.69,12.24,-68.73,1764,-7595,2973,-1,0,0
-155.69,12.24,-68.73,1760,-7594,2964,-1,-1,0
-155.70,12.24,-68.74,1761,-7602,2960,0,-1,-1
-155.69,12.24,-68.72,1769,-7596,2960,0,0,-1
-155.69,12.24,-68.72,1772,-7575,2974,0,0,0
-155.69,12.24,-68.72,1770,-7568,2975,-1,-1,0
-155.71,12.23,-68.73,1764,-7587,2959,-1,-1,0
-155.72,12.23,-68.74,1769,-7602,2953,0,-1,0
-155.72,12.23,-68.74,1775,-7599,2945,0,-1,0
-155.72,12.22,-68.73,1774,-7589,2957,0,0,0
-155.72,12.22,-68.72,1757,-7584,2961,0,-1,0
-155.72,12.22,-68.71,1755,-7579,2978,0,0,0
-155.72,12.22,-68.71,1761,-7589,2979,-1,-1,0
-155.73,12.22,-68.72,1764,-7587,2979,-1,-1,0
-155.73,12.21,-68.72,1772,-7591,2974,-1,-1,0
-155.74,12.21,-68.73,1767,-7581,2966,-1,-1,0
-155.74,12.20,-68.73,1763,-7584,2960,-1,-1,0
-155.75,12.20,-68.73,1767,-7594,2942,-1,-1,0
-155.76,12.20,-68.74,1770,-7588,2944,-1,-1,0
-155.76,12.20,-68.74,1767,-7589,2942,-1,0,0
-155.77,12.19,-68.75,1768,-7587,2952,-1,-1,0
-155.78,12.19,-68.75,1761,-7591,2953,-1,-1,0
-155.79,12.18,-68.75,1756,-7589,2947,-1,-1,0
-155.79,12.17,-68.75,1754,-7599,2949,0,-1,0
-155.79,12.17,-68.75,1758,-7598,2962,0,-1,0
-155.79,12.17,-68.74,1768,-7587,2967,0,-1,0
-155.79,12.17,-68.74,1771,-7585,2971,-1,-1,0
-155.80,12.17,-68.74,1770,-7581,2978,-1,-1,0
-155.80,12.17,-68.75,1769,-7581,2972,-1,-1,0
-155.81,12.16,-68.75,1767,-7583,2968,-1,-1,0
-155.82,12.16,-68.76,1762,-7594,2960,-1,-1,0
-155.83,12.15,-68.76,1759,-7596,2956,-1,-1,0
-155.84,12.15,-68.77,1757,-7594,2938,0,-1,0
-155.84,12.14,-68.76,1762,-7583,2948,0,0,0
-155.85,12.14,-68.77,1760,-7582,2941,0,0,0
-155.85,12.14,-68.76,1761,-7591,2958,-1,0,0
-155.85,12.14,-68.77,1760,-7597,2945,0,0,0
-155.86,12.13,-68.77,1750,-7593,2936,-1,-1,0
-155.86,12.13,-68.77,1754,-7591,2945,0,0,0
-155.87,12.12,-68.77,1755,-7586,2944,-1,-1,0
-155.87,12.12,-68.77,1763,-7588,2944,0,-1,0
-155.87,12.12,-68.77,1763,-7588,2944,0,-1,0
-155.90,12.10,-68.78,1752,-7588,2953,-1,-1,0
-155.91,12.10,-68.78,1756,-7603,2959,-1,-1,0
-155.91,12.10,-68.78,1760,-7601,2959,0,-1,0
-155.92,12.09,-68.78,1765,-7587,2970,0,-1,0
-155.91,12.09,-68.77,1762,-7572,2974,-1,-1,0
-155.92,12.09,-68.78,1752,-7573,2972,-1,-1,0
-155.93,12.09,-68.78,1757,-7592,2959,-1,-1,0
-155.94,12.08,-68.79,1759,-7608,2953,0,-1,0
-155.95,12.07,-68.79,1747,-7599,2945,-1,0,0
-155.95,12.07,-68.78,1739,-7594,2951,0,0,0
-155.96,12.06,-68.78,1742,-7595,2954,0,-1,0
-155.96,12.06,-68.79,1738,-7595,2953,0,-1,0
-155.95,12.07,-68.79,1751,-7588,2955,-1,-1,0
-155.96,12.06,-68.79,1763,-7590,2952,-1,-1,0
-155.97,12.05,-68.79,1750,-7593,2966,-1,0,0
-155.98,12.05,-68.80,1748,-7597,2952,-1,0,0
-155.99,12.04,-68.80,1737,-7610,2943,-1,-1,0
-156.00,12.03,-68.81,1745,-7608,2943,0,-1,0
-156.01,12.03,-68.81,1750,-7602,2941,-1,0,0
-156.01,12.02,-68.81,1745,-7595,2949,-1,-1,0
-156.02,12.02,-68.81,1748,-7599,2951,-1,-1,0
-156.03,12.01,-68.81,1743,-7596,2950,0,-1,0
-156.04,12.01,-68.82,1737,-7600,2950,-1,-1,0
-156.04,12.01,-68.82,1744,-7611,2951,0,0,0
-156.03,12.01,-68.81,1738,-7607,2947,0,-1,0
-156.04,12.00,-68.81,1745,-7594,2952,-1,-1,0
-156.04,12.00,-68.81,1746,-7587,2961,-1,-1,0
-156.05,12.00,-68.82,1751,-7587,2957,-1,-1,0
-156.05,12.00,-68.82,1751,-7591,2953,-1,-1,0
-156.06,11.99,-68.82,1745,-7594,2948,-1,-1,0
-156.07,11.99,-68.83,1743,-7587,2938,0,-1,0
-156.07,11.98,-68.83,1748,-7588,2941,-1,0,0
-156.08,11.98,-68.83,1745,-7593,2947,0,-1,0
-156.08,11.98,-68.82,1749,-7590,2939,0,-1,0
-156.09,11.97,-68.83,1741,-7592,2946,0,-1,0
-156.09,11.97,-68.82,1737,-7588,2956,-1,-1,0
-156.09,11.97,-68.83,1739,-7594,2951,0,-1,0
-156.10,11.96,-68.83,1740,-7606,2961,-1,0,0
-156.10,11.96,-68.83,1744,-7604,2955,0,0,0
-156.11,11.95,-68.83,1731,-7604,2955,0,-1,0
-156.12,11.94,-68.82,1729,-7597,2956,0,-1,0
-156.13,11.94,-68.83,1732,-7587,2954,-1,-1,0
-156.13,11.94,-68.82,1729,-7599,2950,-1,-1,0
-156.14,11.93,-68.83,1743,-7607,2936,0,-1,0
-156.15,11.93,-68.83,1743,-7608,2941,0,-1,0
-156.14,11.93,-68.82,1738,-7588,2952,0,-1,0
-156.15,11.92,-68.82,1733,-7591,2958,-1,-1,0
-156.17,11.91,-68.83,1727,-7598,2958,-1,-1,0
-156.18,11.90,-68.83,1723,-7609,2950,-1,-1,0
-156.19,11.90,-68.84,1720,-7620,2938,0,-1,0
-156.19,11.90,-68.84,1724,-7615,2935,0,0,0
-156.18,11.89,-68.83,1722,-7599,2944,0,-1,0
-156.19,11.89,-68.82,1719,-7592,2952,0,-1,0
-156.19,11.89,-68.82,1720,-7587,2962,-1,-1,0
-156.19,11.89,-68.82,1724,-7597,2969,-1,-1,0
-156.19,11.89,-68.82,1723,-7594,2959,0,-1,0
-156.20,11.89,-68.82,1737,-7595,2959,-1,-1,0
-156.20,11.89,-68.82,1724,-7590,2954,0,-1,0
-156.20,11.89,-68.83,1737,-7598,2950,-1,-1,0
-156.20,11.89,-68.82,1737,-7600,2941,0,0,0
-156.20,11.89,-68.82,1731,-7609,2941,0,0,0
-156.20,11.89,-68.81,1730,-7602,2940,0,0,0
-156.20,11.89,-68.81,1715,-7600,2942,0,-1,-1
-156.19,11.89,-68.81,1728,-7603,2948,0,-1,-1
-156.18,11.90,-68.80,1728,-7599,2948,0,0,-1
-156.18,11.89,-68.79,1720,-7594,2952,0,0,-1
-156.18,11.90,-68.79,1721,-7592,2957,0,-1,-1
-156.18,11.90,-68.79,1723,-7586,2956,0,-1,-1
-156.17,11.91,-68.80,1725,-7594,2959,-1,-1,-1
-156.18,11.91,-68.80,1728,-7600,2939,-1,-1,-1
-156.18,11.91,-68.81,1732,-7607,2933,0,-1,0
-156.18,11.92,-68.81,1733,-7614,2932,0,-1,0
-156.17,11.91,-68.80,1734,-7599,2937,0,0,0
-156.17,11.92,-68.79,1726,-7592,2947,0,0,-1
-156.16,11.92,-68.78,1724,-7588,2954,0,0,-1
-156.16,11.93,-68.79,1728,-7589,2947,0,-1,-1
-156.15,11.93,-68.79,1735,-7588,2954,-1,0,-1
-156.15,11.93,-68.78,1733,-7596,2967,0,0,0
-156.14,11.93,-68.78,1736,-7594,2960,-1,-1,-1
-156.14,11.94,-68.79,1736,-7598,2952,-1,0,-1
-156.14,11.94,-68.79,1735,-7593,2948,-1,-1,-1
-156.14,11.94,-68.79,1743,-7589,2944,-1,-1,-1
-156.14,11.94,-68.80,1743,-7602,2950,-1,0,-1
-156.14,11.95,-68.79,1738,-7606,2965,-1,0,0
-156.14,11.95,-68.79,1732,-7602,2957,-1,-1,0
-156.14,11.95,-68.79,1731,-7589,2955,-1,-1,0
-156.15,11.95,-68.81,1742,-7603,2946,-1,-1,0
-156.14,11.96,-68.80,1748,-7603,2948,0,0,-1
-156.13,11.96,-68.79,1747,-7596,2956,0,0,-1
-156.12,11.96,-68.79,1742,-7576,2959,-1,0,0
-156.13,11.96,-68.79,1732,-7580,2953,-1,-1,0
-156.13,11.96,-68.81,1734,-7597,2945,-1,-1,0
-156.13,11.96,-68.81,1735,-7605,2934,0,0,0
-156.13,11.96,-68.81,1734,-7597,2937,0,0,-1
-156.12,11.97,-68.80,1731,-7591,2952,0,-1,-1
-156.12,11.96,-68.79,1726,-7585,2950,0,-1,-1
-156.11,11.97,-68.79,1736,-7581,2967,-1,-1,-1
-156.11,11.97,-68.79,1741,-7590,2962,-1,-1,-1
-156.11,11.98,-68.80,1748,-7595,2956,-1,-1,0
-156.11,11.98,-68.80,1749,-7592,2956,0,-1,0
-156.11,11.98,-68.80,1741,-7595,2951,-1,-1,0
-156.11,11.98,-68.80,1744,-7597,2950,-1,-1,-1
-156.11,11.99,-68.80,1748,-7600,2949,0,-1,0
-156.10,11.99,-68.80,1745,-7605,2950,0,0,0
-156.10,11.99,-68.80,1741,-7589,2949,0,0,0
-156.11,11.99,-68.80,1742,-7596,2936,-1,-1,0
-156.10,11.99,-68.80,1742,-7597,2942,0,0,0
-156.10,11.99,-68.80,1743,-7601,2946,0,0,-1
-156.09,11.99,-68.79,1743,-7593,2954,0,0,-1
-156.09,12.00,-68.79,1741,-7590,2952,0,0,-1
-156.09,12.00,-68.79,1750,-7585,2968,-1,-1,-1
-156.08,12.01,-68.78,1750,-7588,2965,-1,-1,-1
-156.08,12.01,-68.79,1756,-7592,2961,-1,-1,-1
-156.08,12.01,-68.79,1757,-7593,2959,-1,-1,0
-156.08,12.01,-68.80,1749,-7592,2948,-1,-1,0
-156.08,12.01,-68.80,1738,-7587,2944,-1,0,0
-156.08,12.01,-68.80,1739,-7588,2940,-1,-1,0
-156.08,12.01,-68.80,1747,-7592,2953,0,0,0
-156.08,12.02,-68.80,1751,-7594,2943,0,-1,-1
-156.08,12.02,-68.80,1750,-7590,2943,0,-1,-1
-156.07,12.02,-68.79,1746,-7587,2952,-1,-1,0
-156.07,12.03,-68.79,1755,-7590,2950,0,0,-1
-156.07,12.03,-68.79,1754,-7602,2949,-1,0,-1
-156.06,12.03,-68.79,1748,-7594,2942,0,0,-1
-156.06,12.03,-68.79,1745,-7592,2938,0,-1,0
-156.06,12.03,-68.80,1751,-7585,2945,-1,-1,-1
-156.05,12.04,-68.79,1747,-7584,2954,0,0,-1
-156.05,12.05,-68.79,1762,-7583,2957,0,0,-1
-156.04,12.05,-68.78,1753,-7588,2954,-1,0,-1
-156.04,12.05,-68.78,1742,-7591,2956,0,-1,-1
-156.04,12.05,-68.78,1747,-7589,2958,0,-1,-1
-156.04,12.05,-68.78,1757,-7597,2957,0,0,0
-156.03,12.05,-68.78,1751,-7591,2959,-1,-1,0
-156.04,12.05,-68.78,1748,-7594,2953,-1,-1,-1
-156.04,12.06,-68.79,1752,-7597,2936,-1,-1,-1
-156.03,12.07,-68.79,1757,-7607,2946,0,0,-1
-156.01,12.07,-68.78,1762,-7589,2954,0,0,-1
-156.01,12.08,-68.77,1761,-7577,2959,-1,0,0
-156.01,12.08,-68.78,1756,-7582,2950,-1,-1,0
-156.01,12.08,-68.78,1753,-7595,2945,-1,0,-1
-156.01,12.08,-68.78,1746,-7599,2938,-1,0,-1
-156.01,12.08,-68.78,-258,-258,-258,-258,-258,-258
-156.00,12.08,-68.78,1747,-7603,2936,0,0,-1
-155.99,12.09,-68.77,1740,-7596,2950,0,0,-1
-155.98,12.09,-68.77,1748,-7586,2961,0,0,-1
-155.98,12.10,-68.77,1761,-7585,2954,-1,0,-1
-155.97,12.10,-68.77,1772,-7585,2950,-1,0,-1
-155.97,12.11,-68.77,1769,-7588,2949,-1,0,-1
-155.97,12.11,-68.77,1762,-7584,2950,-1,-1,0
-155.97,12.11,-68.77,1764,-7574,2951,0,0,0
-155.97,12.11,-68.77,1750,-7591,2953,-1,-1,0
-155.96,12.11,-68.76,1761,-7589,2959,0,0,-1
-155.96,12.11,-68.76,1755,-7596,2963,-1,0,-1
-155.95,12.12,-68.76,1762,-7598,2963,0,0,-1
-155.96,12.11,-68.75,1755,-7593,2952,0,0,-1
-155.95,12.12,-68.75,1759,-7595,2948,0,0,-1
-155.94,12.12,-68.75,1760,-7596,2942,0,0,-1
-155.93,12.12,-68.74,1764,-7597,2962,0,0,-1
-155.92,12.13,-68.73,1765,-7594,2968,0,0,-1
-155.92,12.13,-68.73,1775,-7579,2987,0,0,-1
-155.91,12.14,-68.73,1770,-7583,2983,-1,0,-1
-155.91,12.14,-68.74,1768,-7595,2973,-1,0,-1
-155.91,12.14,-68.74,1767,-7591,2958,-1,0,-1
-155.91,12.15,-68.75,1767,-7583,2958,-1,0,-1
-155.91,12.15,-68.75,1773,-7589,2947,-1,0,-1
-155.90,12.15,-68.75,1774,-7585,2947,0,0,-1
-155.89,12.16,-68.74,1777,-7593,2962,0,0,-1
-155.89,12.16,-68.74,1774,-7596,2966,0,0,-1
-155.88,12.16,-68.74,1768,-7592,2966,0,0,-1
-155.88,12.16,-68.73,1769,-7586,2970,-1,0,-1
-155.87,12.17,-68.73,1766,-7590,2960,0,0,-1
-155.87,12.17,-68.73,1761,-7596,2957,0,0,-1
-155.86,12.17,-68.73,1760,-7588,2957,0,0,-1
-155.86,12.17,-68.73,1762,-7582,2953,-1,0,-1
-155.86,12.18,-68.73,1759,-7588,2962,-1,0,-1
-155.86,12.18,-68.73,1762,-7595,2975,-1,0,-1
-155.86,12.18,-68.73,1762,-7596,2963,0,0,-1
-155.85,12.18,-68.73,1769,-7592,2955,0,0,-1
-155.84,12.18,-68.72,1766,-7584,2952,0,0,-1
-155.84,12.18,-68.73,1772,-7585,2948,-1,0,-1
-155.83,12.19,-68.72,1776,-7588,2967,0,0,0
-155.84,12.18,-68.72,1764,-7592,2965,-1,0,0
-155.84,12.18,-68.72,1766,-7589,2963,-1,0,0
-155.84,12.18,-68.72,1768,-7593,2963,0,-1,0
-155.83,12.18,-68.71,1780,-7583,2965,0,0,0
-155.82,12.19,-68.70,1777,-7570,2971,0,0,0
-155.83,12.18,-68.70,1778,-7575,2965,-1,-1,0
-155.84,12.17,-68.71,1770,-7588,2961,-1,-1,0
-155.86,12.16,-68.72,1765,-7596,2948,0,0,0
-155.87,12.16,-68.72,1751,-7598,2949,0,-1,0
-155.87,12.16,-68.72,1759,-7600,2945,0,0,0
-155.87,12.15,-68.71,1761,-7581,2950,0,-1,0
-155.86,12.15,-68.69,1764,-7573,2961,0,-1,0
-155.86,12.15,-68.69,1772,-7562,2971,0,-1,0
-155.87,12.15,-68.69,1772,-7569,2979,-1,-1,0
-155.88,12.14,-68.69,1765,-7580,2966,-1,-1,0
-155.88,12.14,-68.69,1783,-7585,2958,0,-1,0
-155.90,12.13,-68.69,1756,-7584,2959,0,-1,0
-155.90,12.13,-68.69,1761,-7574,2963,-1,-1,0
-155.90,12.12,-68.69,1756,-7581,2967,-1,-1,0
-155.91,12.12,-68.69,1754,-7578,2958,-1,-1,0
-155.92,12.12,-68.69,1768,-7585,2954,0,-1,0
-155.93,12.11,-68.69,1754,-7580,2950,0,0,0
-155.93,12.11,-68.69,1759,-7574,2961,0,0,0
-155.93,12.11,-68.69,1764,-7576,2955,0,0,0
-155.93,12.10,-68.68,1760,-7590,2973,-1,0,0
-155.93,12.11,-68.69,1765,-7587,2975,0,0,0
-155.93,12.10,-68.68,1756,-7583,2977,-1,-1,0
-155.93,12.11,-68.69,1760,-7584,2969,-1,-1,0
-155.93,12.11,-68.69,1767,-7581,2967,-1,-1,0
-155.94,12.10,-68.70,1769,-7582,2959,-1,-1,0
-155.95,12.10,-68.71,1766,-7585,2953,-1,-1,0
-155.96,12.10,-68.72,1766,-7587,2945,-1,-1,0
-155.97,12.09,-68.72,1763,-7591,2949,-1,-1,0
-155.97,12.09,-68.72,1762,-7596,2946,0,0,0
-155.98,12.08,-68.72,1756,-7590,2954,0,-1,0
-155.98,12.08,-68.72,1758,-7584,2958,-1,-1,0
-155.98,12.09,-68.72,1761,-7584,2964,0,-1,0
-155.98,12.08,-68.72,1764,-7584,2961,-1,-1,0
-155.99,12.08,-68.72,1765,-7586,2964,-1,-1,0
-155.99,12.08,-68.72,1761,-7591,2957,-1,-1,0
-155.99,12.08,-68.72,1758,-7587,2960,-1,-1,0
-156.00,12.07,-68.73,1762,-7588,2953,-1,-1,0
-156.01,12.07,-68.73,1762,-7588,2954,0,-1,0
-156.01,12.07,-68.73,1761,-7588,2963,-1,-1,0
-156.01,12.07,-68.73,1763,-7586,2960,-1,-1,0
-156.03,12.06,-68.74,1752,-7594,2951,-1,-1,0
-156.03,12.05,-68.74,1763,-7599,2965,0,0,0
-156.03,12.05,-68.73,1764,-7605,2959,0,-1,0
-156.03,12.05,-68.73,1755,-7590,2957,0,0,0
-156.04,12.05,-68.73,1747,-7574,2959,-1,-1,0
-156.06,12.03,-68.74,1742,-7578,2958,-1,-1,0
-156.06,12.03,-68.74,1744,-7597,2957,-1,-1,0
-156.06,12.03,-68.74,1754,-7609,2959,0,-1,0
-156.07,12.03,-68.74,1756,-7609,2954,0,-1,0
-156.07,12.02,-68.73,1748,-7592,2958,0,0,0
-156.07,12.02,-68.73,1751,-7589,2970,0,-1,0
-156.07,12.02,-68.73,1748,-7586,2968,-1,-1,0
-156.08,12.02,-68.73,1745,-7583,2975,-1,-1,0
-156.09,12.01,-68.74,1755,-7596,2965,-1,-1,0
-156.10,12.00,-68.74,1744,-7595,2955,-1,-1,0
-156.11,12.00,-68.74,1744,-7594,2964,-1,-1,0
-156.11,12.00,-68.75,1745,-7584,2962,-1,-1,0
-156.11,12.00,-68.75,1750,-7586,2952,-1,0,0
-156.12,11.99,-68.75,1746,-7585,2946,-1,0,0
-156.13,11.99,-68.76,1747,-7588,2955,-1,-1,0
-156.13,11.99,-68.76,1740,-7595,2949,-1,-1,0
-156.13,11.99,-68.76,1744,-7589,2955,-1,-1,0
-156.14,11.98,-68.76,1746,-7593,2945,0,0,0
-156.13,11.98,-68.76,1747,-7592,2965,-1,0,0
-156.14,11.97,-68.75,1746,-7598,2963,0,0,0
-156.14,11.97,-68.75,1740,-7592,2951,-1,-1,0
-156.15,11.97,-68.76,1745,-7587,2955,-1,-1,0
-156.17,11.96,-68.76,1738,-7597,2956,0,-1,0
-156.17,11.96,-68.76,1740,-7589,2963,0,-1,0
-156.17,11.95,-68.76,1744,-7588,2963,0,-1,0
-156.18,11.95,-68.76,1735,-7587,2963,-1,-1,0
-156.19,11.94,-68.77,1732,-7588,2954,0,-1,0
-156.20,11.94,-68.77,1737,-7604,2949,0,-1,0
-156.20,11.94,-68.76,1743,-7608,2945,0,-1,0
-156.21,11.93,-68.77,1733,-7600,2942,0,-1,0
-156.21,11.93,-68.77,1739,-7599,2949,-1,-1,0
-156.21,11.93,-68.77,1736,-7599,2960,0,-1,0
-156.21,11.93,-68.76,1731,-7590,2957,-1,-1,0
-156.22,11.93,-68.77,1739,-7595,2950,-1,-1,0
-156.22,11.93,-68.77,1739,-7592,2947,-1,-1,0
-156.23,11.92,-68.77,1738,-7597,2957,-1,-1,0
-156.24,11.91,-68.77,1735,-7588,2966,-1,-1,0
-156.24,11.91,-68.78,1736,-7590,2965,-1,-1,0
-156.25,11.91,-68.78,1735,-7591,2955,-1,-1,0
-156.25,11.91,-68.79,1732,-7614,2946,-1,-1,0
-156.25,11.91,-68.78,1743,-7609,2960,0,0,0
-156.25,11.91,-68.78,1750,-7599,2950,0,0,0
-156.25,11.90,-68.78,1735,-7587,2959,-1,-1,0
-156.26,11.90,-68.78,1732,-7592,2949,-1,-1,0
-156.26,11.90,-68.79,1734,-7595,2944,-1,-1,0
-156.26,11.90,-68.79,1740,-7601,2942,-1,0,0
-156.26,11.90,-68.79,1736,-7604,2940,0,-1,0
-156.26,11.90,-68.79,1741,-7599,2944,0,0,0
-156.27,11.89,-68.79,1729,-7590,2959,0,-1,0
-156.27,11.89,-68.79,1734,-7589,2967,-1,-1,0
-156.27,11.90,-68.78,1736,-7591,2967,-1,-1,0
-156.27,11.89,-68.79,1738,-7591,2962,-1,-1,0
-156.27,11.90,-68.79,1732,-7588,2955,0,-1,0
-156.28,11.89,-68.79,-258,-258,-258,-258,-258,-258
-156.28,11.90,-68.80,1735,-7596,2946,-1,-1,0
-156.28,11.90,-68.80,1733,-7607,2948,-1,-1,0
-156.29,11.90,-68.80,1731,-7605,2945,0,-1,0
-156.28,11.90,-68.80,1730,-7601,2943,0,-1,0
-156.28,11.90,-68.80,1732,-7606,2946,0,-1,-1
-156.28,11.90,-68.80,1724,-7599,2940,0,-1,0
-156.28,11.91,-68.80,1731,-7600,2944,0,-1,0
-156.28,11.91,-68.80,1734,-7600,2949,-1,-1,-1
-156.27,11.91,-68.80,1735,-7597,2954,0,0,-1
-156.27,11.91,-68.79,1737,-7596,2958,0,-1,-1
-156.26,11.92,-68.79,1737,-7586,2950,0,-1,-1
-156.27,11.92,-68.80,1734,-7588,2947,-1,-1,0
-156.27,11.92,-68.80,1739,-7599,2948,-1,-1,0
-156.26,11.93,-68.80,1741,-7593,2955,-1,0,-1
-156.26,11.93,-68.80,1738,-7597,2952,-1,0,-1
-156.26,11.93,-68.80,1732,-7595,2949,-1,0,-1
-156.25,11.93,-68.79,1734,-7593,2945,0,-1,-1
-156.25,11.94,-68.79,1738,-7594,2949,0,-1,-1
-156.24,11.94,-68.79,1740,-7591,2954,0,0,-1
-156.24,11.94,-68.78,1740,-7591,2958,0,0,0
-156.24,11.94,-68.78,1740,-7600,2955,0,-1,0
-156.24,11.94,-68.79,1740,-7596,2953,0,-1,-1
-156.23,11.96,-68.79,1740,-7601,2958,-1,-1,-1
-156.23,11.96,-68.79,1739,-7600,2954,0,0,-1
-156.23,11.96,-68.79,1739,-7595,2949,0,0,-1
-156.23,11.96,-68.79,1744,-7596,2960,-1,0,0
-156.22,11.96,-68.79,1746,-7597,2960,-1,-1,-1
-156.22,11.96,-68.79,1748,-7595,2957,0,0,-1
-156.21,11.97,-68.78,1751,-7590,2956,0,0,-1
-156.21,11.97,-68.78,1746,-7587,2953,-1,-1,0
-156.21,11.97,-68.78,1752,-7591,2952,-1,-1,0
-156.21,11.98,-68.79,1748,-7602,2938,-1,-1,-1
-156.21,11.98,-68.79,1752,-7602,2940,0,0,-1
-156.19,11.99,-68.78,1755,-7593,2945,0,0,-1
-156.19,11.99,-68.78,1745,-7578,2952,-1,0,0
-156.19,11.99,-68.78,1739,-7581,2955,-1,-1,0
-156.20,11.99,-68.79,1744,-7598,2941,-1,-1,0
-156.20,11.99,-68.80,1746,-7610,2941,-1,0,0
-156.20,11.99,-68.80,1739,-7604,2931,0,0,-1
-156.19,11.99,-68.79,1748,-7605,2928,0,-1,-1
-156.19,12.00,-68.79,1740,-7593,2939,0,0,-1
-156.18,12.00,-68.78,1742,-7589,2949,0,-1,-1
-156.18,12.01,-68.78,1748,-7585,2959,-1,-1,-1
-156.18,12.01,-68.78,1754,-7595,2951,-1,-1,0
-156.18,12.01,-68.78,1753,-7594,2946,-1,-1,0
-156.18,12.01,-68.78,1745,-7588,2952,-1,-1,0
-156.18,12.01,-68.78,1736,-7579,2948,-1,-1,0
-156.18,12.01,-68.78,1744,-7583,2946,-1,-1,0
-156.17,12.02,-68.78,1758,-7592,2953,0,0,-1
-156.17,12.02,-68.79,1745,-7601,2951,0,0,-1
-156.17,12.02,-68.79,1742,-7588,2956,-1,0,-1
-156.16,12.03,-68.78,1745,-7591,2948,0,-1,-1
-156.16,12.03,-68.78,1753,-7595,2948,0,0,-1
-156.15,12.03,-68.77,1754,-7597,2940,0,0,-1
-156.15,12.03,-68.77,1757,-7599,2947,0,0,-1
-156.14,12.04,-68.76,1755,-7597,2961,0,0,-1
-156.14,12.04,-68.76,1752,-7584,2974,-1,-1,-1
-156.13,12.04,-68.76,1751,-7581,2983,-1,-1,-1
-156.13,12.05,-68.77,1754,-7591,2972,-1,0,-1
-156.13,12.05,-68.77,1760,-7591,2958,-1,0,0
-156.13,12.05,-68.78,1758,-7586,2947,-1,-1,0
-156.13,12.06,-68.78,1754,-7588,2948,-1,-1,0
-156.13,12.06,-68.78,1755,-7596,2950,-1,0,-1
-156.12,12.06,-68.78,1758,-7596,2952,0,-1,-1
-156.12,12.06,-68.78,1754,-7597,2951,0,0,-1
-156.11,12.06,-68.77,1757,-7589,2958,0,0,-1
-156.11,12.07,-68.77,1752,-7589,2951,-1,-1,-1
-156.11,12.07,-68.77,1751,-7587,2958,0,-1,-1
-156.10,12.07,-68.76,1754,-7592,2955,-1,-1,-1
-156.10,12.08,-68.77,1760,-7593,2952,-1,-1,-1
-156.09,12.08,-68.77,1766,-7593,2942,0,0,-1
-156.09,12.08,-68.77,1758,-7592,2950,0,-1,-1
-156.08,12.09,-68.76,1760,-7595,2955,-1,-1,-1
-156.08,12.09,-68.76,1757,-7590,2943,0,-1,-1
-156.08,12.10,-68.76,1771,-7593,2954,0,-1,0
-156.08,12.10,-68.76,1772,-7595,2956,0,-1,0
-156.07,12.10,-68.75,1773,-7585,2962,0,0,0
-156.08,12.09,-68.75,1751,-7589,2959,-1,0,0
-156.08,12.09,-68.75,1756,-7599,2957,-1,-1,-1
-156.07,12.10,-68.75,1765,-7600,2949,0,-1,-1
-156.06,12.11,-68.74,1772,-7599,2951,0,0,-1
-156.04,12.11,-68.72,1769,-7574,2959,0,0,0
-156.03,12.11,-68.71,1756,-7564,2987,-1,0,-1
-156.04,12.11,-68.72,1761,-7592,2973,-1,-1,0
-156.05,12.11,-68.73,1754,-7601,2954,-1,-1,-1
-156.04,12.11,-68.73,1760,-7597,2944,0,0,-1
-156.04,12.11,-68.73,1749,-7593,2940,0,0,-1
-156.02,12.12,-68.72,1751,-7583,2951,0,0,-1
-156.01,12.13,-68.71,1752,-7583,2960,0,0,-1
-156.00,12.14,-68.71,1769,-7578,2967,-1,0,-1
-155.99,12.15,-68.71,1774,-7575,2962,-1,0,-1
-155.98,12.15,-68.71,1775,-7580,2965,-1,0,-1
-155.98,12.16,-68.72,1780,-7587,2964,-1,0,-1
-155.98,12.16,-68.72,1766,-7584,2957,-1,-1,0
-155.98,12.16,-68.73,1760,-7589,2950,-1,-1,-1
-155.98,12.17,-68.72,1769,-7586,2950,0,-1,-1
-155.97,12.17,-68.72,1773,-7582,2960,0,0,0
-155.97,12.17,-68.72,1767,-7590,2937,0,0,-1
-155.97,12.18,-68.72,1772,-7593,2942,0,0,-1
-155.96,12.17,-68.71,1771,-7589,2949,0,0,-1
-155.95,12.18,-68.70,1776,-7581,2955,0,0,-1
-155.95,12.18,-68.70,1773,-7584,2957,0,0,0
173.90,126.08,-169.13,-1,-1,-1,-1,-1,-1
-155.93,12.19,-68.69,1783,-7581,2963,-1,0,-1
-155.93,12.19,-68.69,1777,-7583,2964,0,-1,-1
-155.93,12.20,-68.69,1781,-7585,2959,-1,-1,-1
-155.92,12.20,-68.69,1776,-7584,2962,0,0,-1
-155.91,12.21,-68.69,1765,-7581,2958,-1,-1,-1
-155.91,12.21,-68.70,1770,-7585,2958,-1,-1,-1
-155.92,12.21,-68.70,1772,-7593,2939,0,0,-1
-155.90,12.22,-68.70,1773,-7588,2948,0,0,-1
-155.89,12.22,-68.69,1775,-7585,2954,0,0,-1
-155.88,12.23,-68.68,1766,-7584,2968,-1,0,-1
-155.87,12.23,-68.68,1772,-7592,2949,0,0,-1
-155.87,12.23,-68.68,1770,-7587,2956,-1,0,-1
-155.86,12.23,-68.68,1771,-7580,2959,0,0,-1
-155.86,12.24,-68.68,1765,-7582,2955,0,0,-1
-155.85,12.24,-68.68,1771,-7584,2962,0,0,-1
-155.85,12.24,-68.67,1778,-7586,2967,-1,0,-1
-155.85,12.24,-68.67,1777,-7594,2966,0,-1,0
-155.85,12.24,-68.67,1770,-7595,2967,-1,-1,0
-155.85,12.24,-68.67,1782,-7589,2968,-1,-1,0
-155.85,12.24,-68.67,1784,-7584,2962,0,-1,0
-155.84,12.24,-68.67,1781,-7582,2968,0,-1,0
-155.85,12.23,-68.66,1770,-7572,2966,0,-1,0
-155.86,12.23,-68.67,1767,-7573,2976,-1,-1,0
-155.87,12.23,-68.67,1764,-7588,2963,-1,-1,-1
-155.86,12.24,-68.67,1788,-7593,2960,0,0,-1
-155.86,12.23,-68.66,1791,-7571,2962,0,0,0
-155.86,12.23,-68.65,1770,-7550,2967,-1,-1,0
-155.87,12.22,-68.66,1767,-7561,2973,-1,-1,0
-155.88,12.22,-68.67,1771,-7589,2968,-1,-1,0
-155.88,12.22,-68.68,1775,-7601,2950,0,0,0
-155.88,12.22,-68.67,1767,-7600,2955,0,-1,0
-155.88,12.21,-68.66,1762,-7588,2963,0,0,0
-155.88,12.21,-68.66,1754,-7581,2969,0,-1,-1
-155.88,12.22,-68.66,1768,-7567,2976,-1,-1,0
-155.88,12.22,-68.66,1781,-7580,2980,-1,-1,0
-155.88,12.22,-68.66,1785,-7585,2987,-1,0,0
-155.89,12.21,-68.66,1777,-7588,2980,-1,-1,0
-155.89,12.21,-68.67,1766,-7581,2984,-1,-1,0
-155.91,12.20,-68.67,1763,-7586,2964,-1,-1,0
-155.91,12.20,-68.68,1758,-7583,2952,-1,-1,0
-155.91,12.20,-68.68,1769,-7586,2953,0,-1,0
-155.91,12.20,-68.68,1765,-7581,2951,-1,-1,0
-155.92,12.19,-68.68,1768,-7583,2954,-1,-1,0
-155.93,12.19,-68.69,1773,-7588,2956,0,-1,0
-155.93,12.18,-68.69,1765,-7589,2953,0,-1,0
-155.93,12.18,-68.68,1765,-7585,2956,0,0,0
-155.93,12.18,-68.68,1763,-7585,2958,0,-1,0
-155.93,12.19,-68.68,1760,-7583,2968,-1,-1,0
-155.93,12.18,-68.68,1759,-7582,2967,-1,-1,0
-155.93,12.18,-68.68,1761,-7582,2969,-1,-1,0
-155.94,12.18,-68.69,1767,-7574,2957,-1,-1,0
-155.95,12.17,-68.69,1762,-7575,2948,-1,-1,0
-155.95,12.17,-68.70,1760,-7577,2951,-1,-1,0
-155.96,12.17,-68.70,1761,-7579,2951,-1,-1,0
-155.96,12.17,-68.70,1760,-7588,2949,-1,-1,0
-155.97,12.17,-68.70,1767,-7586,2953,0,-1,0
-155.97,12.17,-68.70,1764,-7585,2953,-1,-1,0
-155.97,12.17,-68.70,1763,-7587,2956,0,-1,0
-155.97,12.16,-68.70,1765,-7588,2969,-1,0,0
-155.98,12.16,-68.70,1763,-7592,2966,0,0,0
-155.98,12.15,-68.70,1760,-7587,2959,-1,-1,0
-155.99,12.15,-68.71,1762,-7589,2938,-1,-1,0
-156.00,12.14,-68.71,1755,-7595,2939,0,-1,0
-156.00,12.14,-68.71,1763,-7593,2952,0,-1,0
-156.00,12.14,-68.71,1760,-7582,2954,0,-1,0
-156.02,12.13,-68.71,1756,-7589,2949,-1,-1,0
-156.02,12.13,-68.71,1764,-7591,2951,0,0,0
-156.02,12.12,-68.70,1767,-7595,2961,0,-1,0
-156.02,12.12,-68.69,1764,-7581,2972,0,-1,0
-156.03,12.11,-68.69,1758,-7566,2978,-1,-1,0
-156.05,12.10,-68.70,1757,-7589,2964,-1,-1,0
-156.06,12.10,-68.70,1764,-7595,2960,0,0,0
-156.05,12.09,-68.70,1750,-7587,2957,0,0,0
-156.06,12.08,-68.69,1742,-7590,2959,0,-1,0
-156.06,12.09,-68.69,1740,-7588,2955,0,-1,0
-156.06,12.09,-68.69,1752,-7584,2962,0,-1,0
-156.06,12.09,-68.68,1754,-7569,2971,-1,-1,0
-156.06,12.08,-68.69,1755,-7567,2969,-1,-1,0
-156.07,12.08,-68.69,1763,-7579,2963,-1,-1,0
-156.08,12.08,-68.69,1758,-7589,2961,-1,-1,0
-156.08,12.08,-68.69,1757,-7588,2968,-1,0,0
-156.09,12.07,-68.69,1761,-7586,2957,0,0,0
-156.09,12.07,-68.69,1750,-7575,2965,-1,-1,0
-156.10,12.06,-68.70,1746,-7587,2968,-1,-1,0
-156.10,12.06,-68.70,1754,-7595,2954,-1,-1,0
-156.10,12.07,-68.71,1758,-7602,2946,0,0,0
-156.10,12.06,-68.71,1755,-7604,2951,0,0,0
-156.10,12.06,-68.71,1749,-7601,2951,0,-1,0
-156.11,12.05,-68.70,1739,-7587,2949,0,-1,0
-156.11,12.05,-68.70,1742,-7594,2962,-1,-1,0
-156.11,12.05,-68.70,1739,-7588,2958,-1,0,0
-156.12,12.05,-68.71,1748,-7584,2959,-1,-1,0
-156.12,12.05,-68.71,1745,-7581,2956,-1,-1,0
-156.12,12.05,-68.72,1750,-7585,2959,-1,-1,0
-156.13,12.05,-68.72,1752,-7588,2953,-1,-1,0
-156.13,12.05,-68.72,1752,-7595,2958,-1,0,0
-156.13,12.04,-68.72,1753,-7596,2960,0,0,0
-156.13,12.04,-68.71,1746,-7591,2968,0,0,0
-156.13,12.04,-68.71,1745,-7590,2962,-1,0,0
-156.13,12.04,-68.71,1748,-7592,2966,0,0,0
-156.13,12.04,-68.71,1741,-7592,2962,0,0,0
-156.12,12.04,-68.70,1742,-7587,2962,0,-1,-1
-156.12,12.05,-68.71,1752,-7588,2952,-1,-1,0
-156.12,12.04,-68.70,1752,-7586,2961,0,0,0
-156.12,12.04,-68.70,1747,-7590,2965,-1,-1,0
-156.13,12.03,-68.71,1739,-7589,2966,-1,-1,0
-156.14,12.03,-68.71,1740,-7587,2959,-1,-1,0
-156.15,12.03,-68.72,1739,-7592,2951,-1,-1,-1
-156.15,12.03,-68.72,1749,-7596,2943,0,-1,-1
-156.14,12.03,-68.71,1749,-7581,2962,0,0,0
-156.15,12.02,-68.71,1744,-7577,2979,-1,-1,0
-156.16,12.01,-68.71,1731,-7583,2961,-1,-1,0
-156.17,12.01,-68.72,1736,-7604,2964,-1,-1,0
-156.17,12.01,-68.72,1737,-7614,2955,0,0,0
-156.17,12.01,-68.72,1728,-7610,2946,0,0,0
-156.16,12.01,-68.71,1728,-7600,2948,0,-1,0
-156.16,12.01,-68.71,1736,-7591,2959,0,-1,0
-156.16,12.01,-68.70,1739,-7583,2966,-1,-1,0
-156.17,12.01,-68.71,1743,-7588,2974,-1,-1,0
-156.17,12.01,-68.71,1759,-7596,2962,-1,-1,0
-156.17,12.01,-68.71,1755,-7589,2958,0,-1,0
-156.17,12.01,-68.70,1743,-7583,2964,-1,-1,0
-156.18,12.01,-68.71,1739,-7586,2958,-1,-1,0
-156.17,12.01,-68.71,1743,-7595,2958,0,-1,0
-156.17,12.01,-68.71,1743,-7599,2956,0,-1,0
-156.17,12.01,-68.71,1741,-7597,2960,0,-1,-1
-156.16,12.02,-68.70,1737,-7594,2960,-1,-1,-1
-156.16,12.02,-68.70,1735,-7592,2957,0,-1,-1
-156.16,12.03,-68.70,1746,-7594,2959,0,-1,-1
-156.15,12.03,-68.69,1743,-7592,2948,0,0,-1
-156.14,12.03,-68.69,1745,-7603,2972,-1,0,-1
-156.13,12.04,-68.68,1757,-7599,2976,0,0,-1
-156.12,12.05,-68.69,1748,-7583,2976,-1,-1,-1
-156.13,12.05,-68.70,1741,-7588,2970,-1,-1,-1
-156.13,12.05,-68.71,1750,-7595,2948,-1,-1,-1
-156.13,12.06,-68.70,1757,-7605,2954,0,0,-1
-156.12,12.06,-68.71,1758,-7599,2950,0,0,-1
-156.12,12.06,-68.70,1746,-7595,2959,-1,0,0
-156.11,12.07,-68.70,1747,-7590,2956,0,0,-1
-156.11,12.07,-68.70,1747,-7592,2943,0,0,-1
-156.10,12.08,-68.70,1743,-7593,2949,0,0,-1
-156.10,12.08,-68.70,1752,-7591,2959,-1,0,-1
-156.10,12.08,-68.70,1752,-7589,2964,-1,-1,0
-156.10,12.08,-68.70,1757,-7587,2968,-1,-1,-1
-156.10,12.08,-68.70,1747,-7588,2968,-1,-1,0
-156.10,12.08,-68.70,1757,-7593,2963,-1,0,0
-156.10,12.08,-68.70,1747,-7591,2960,0,-1,-1
-156.09,12.08,-68.70,1750,-7593,2959,0,0,-1
-156.09,12.08,-68.70,1750,-7592,2965,0,-1,-1
-156.08,12.09,-68.70,1749,-7587,2967,-1,0,-1
-156.08,12.10,-68.70,1755,-7587,2965,-1,-1,-1
-156.08,12.10,-68.71,1763,-7595,2956,-1,-1,-1
-156.09,12.10,-68.71,1769,-7597,2948,0,0,-1
-156.07,12.10,-68.70,1766,-7589,2950,0,0,-1
-156.07,12.11,-68.70,1762,-7576,2958,-1,-1,0
-156.08,12.11,-68.71,1755,-7583,2960,-1,-1,0
-156.08,12.11,-68.72,1756,-7596,2945,-1,-1,-1
-156.08,12.11,-68.72,1758,-7604,2937,0,0,-1
-156.07,12.11,-68.72,1745,-7594,2947,-1,-1,-1
-156.07,12.11,-68.71,1742,-7595,2945,0,0,-1
-156.06,12.12,-68.71,1747,-7588,2964,-1,0,-1
-156.06,12.12,-68.71,1757,-7592,2961,-1,0,-1
-156.05,12.13,-68.71,1753,-7588,2960,-1,-1,-1
-156.05,12.13,-68.72,1755,-7591,2949,-1,0,-1
-156.05,12.13,-68.72,1757,-7581,2950,-1,-1,-1
-156.05,12.13,-68.72,1753,-7585,2957,-1,-1,-1
-156.05,12.13,-68.72,1764,-7593,2953,-1,-1,-1
-156.05,12.13,-68.72,1764,-7590,2952,-1,-1,-1
-156.05,12.13,-68.72,1755,-7584,2946,0,0,-1
-156.04,12.14,-68.72,1755,-7583,2955,-1,-1,-1
-156.04,12.15,-68.73,1754,-7600,2946,0,-1,-1
-156.04,12.15,-68.73,1759,-7596,2948,0,-1,-1
-156.04,12.14,-68.72,1755,-7587,2950,0,-1,-1
-156.03,12.15,-68.72,1755,-7585,2946,-1,0,0
-156.03,12.15,-68.72,1750,-7588,2955,0,0,-1
-156.02,12.15,-68.71,1748,-7586,2955,0,-1,-1
-156.02,12.15,-68.71,1747,-7586,2956,0,-1,-1
-156.01,12.16,-68.70,1763,-7589,2950,-1,0,-1
-156.01,12.16,-68.70,1764,-7584,2953,-1,-1,-1
-156.01,12.16,-68.71,1763,-7575,2949,-1,-1,0
-156.01,12.17,-68.71,1761,-7580,2942,-1,0,-1
-156.01,12.17,-68.72,1762,-7588,2947,-1,0,-1
-156.00,12.17,-68.71,1765,-7591,2940,0,0,-1
-156.00,12.18,-68.71,1760,-7590,2952,0,0,-1
-155.99,12.18,-68.70,1755,-7581,2960,0,0,-1
-155.98,12.18,-68.70,1757,-7581,2958,-1,-1,-1
-155.98,12.18,-68.70,1761,-7582,2966,-1,-1,-1
-155.98,12.19,-68.70,1765,-7586,2963,0,0,-1
-155.98,12.19,-68.70,1761,-7588,2960,0,0,-1
-155.97,12.19,-68.70,1762,-7589,2962,-1,-1,-1
-155.97,12.20,-68.70,1766,-7587,2974,-1,-1,-1
-155.96,12.20,-68.70,1764,-7584,2961,0,0,-1
-155.96,12.21,-68.70,1765,-7584,2958,-1,-1,-1
-155.96,12.20,-68.71,1766,-7590,2951,-1,0,-1
-155.95,12.20,-68.70,1775,-7584,2942,0,0,-1
-155.95,12.21,-68.70,1768,-7587,2963,-1,0,0
-155.94,12.21,-68.69,1771,-7591,2962,0,0,-1
-155.94,12.21,-68.70,1758,-7587,2965,-1,-1,-1
-155.94,12.21,-68.70,1756,-7596,2955,-1,0,-1
-155.94,12.22,-68.70,1769,-7601,2950,0,0,-1
-155.91,12.23,-68.69,1770,-7587,2959,0,0,-1
-155.92,12.22,-68.68,1770,-7579,2970,-1,0,0
-155.92,12.22,-68.69,1766,-7583,2972,-1,-1,0
-155.92,12.22,-68.69,1763,-7592,2957,-1,0,-1
-155.91,12.23,-68.70,1773,-7600,2952,-1,-1,-1
-155.92,12.23,-68.70,1768,-7590,2941,0,0,-1
-155.90,12.23,-68.69,1762,-7581,2943,0,0,-1
-155.90,12.24,-68.69,1765,-7584,2963,0,-1,-1
-155.89,12.24,-68.68,1777,-7579,2964,0,0,-1
-155.88,12.25,-68.68,1782,-7579,2967,-1,0,-1
-155.88,12.26,-68.68,1786,-7588,2960,0,0,0
-155.88,12.25,-68.68,1773,-7580,2967,-1,0,0
-155.88,12.25,-68.69,1769,-7581,2957,-1,0,0
-155.88,12.25,-68.69,1775,-7588,2948,0,-1,0
-155.88,12.25,-68.68,1773,-7588,2956,0,0,0
-155.88,12.25,-68.68,1773,-7589,2967,0,0,0
-155.88,12.25,-68.68,1758,-7578,2960,-1,-1,0
-155.88,12.25,-68.68,1768,-7580,2954,0,-1,-1
-155.88,12.25,-68.68,1779,-7587,2939,0,0,-1
-155.87,12.26,-68.67,1773,-7587,2945,0,0,-1
-155.86,12.26,-68.67,1776,-7580,2953,0,0,-1
-155.85,12.26,-68.66,1765,-7575,2978,-1,0,-1
-155.85,12.26,-68.66,1767,-7582,2972,-1,-1,-1
-155.85,12.27,-68.66,1784,-7580,2967,-1,-1,0
-155.85,12.27,-68.67,1775,-7583,2946,0,-1,0
-155.85,12.26,-68.67,1782,-7577,2950,0,0,0
-155.85,12.26,-68.67,1770,-7583,2967,-1,-1,0
-155.86,12.26,-68.67,1778,-7583,2970,-1,-1,0
-155.87,12.26,-68.68,1764,-7587,2956,-1,-1,0
-155.87,12.26,-68.68,1767,-7594,2962,0,-1,0
-155.87,12.25,-68.68,1764,-7586,2951,0,0,0
-155.87,12.26,-68.68,1770,-7580,2959,-1,0,0
-155.87,12.26,-68.68,1774,-7580,2962,0,-1,0
-155.87,12.25,-68.68,1774,-7583,2961,-1,-1,0
-155.87,12.25,-68.68,1775,-7585,2957,-1,-1,0
-155.87,12.25,-68.68,1784,-7592,2956,-1,-1,0
-155.87,12.25,-68.68,1777,-7583,2958,-1,-1,0
-155.88,12.25,-68.69,1772,-7584,2962,-1,-1,0
-155.89,12.25,-68.69,1774,-7586,2959,-1,-1,0
-155.89,12.25,-68.69,1780,-7593,2958,-1,-1,0
-155.89,12.25,-68.69,1774,-7586,2964,-1,-1,0
-155.90,12.24,-68.69,1778,-7581,2960,0,-1,0
-155.90,12.24,-68.69,1778,-7570,2962,0,0,0
-155.90,12.23,-68.69,1773,-7579,2966,-1,-1,0
-155.91,12.23,-68.70,1766,-7581,2961,-1,-1,0
-155.92,12.23,-68.70,1766,-7594,2949,0,-1,0
-155.92,12.23,-68.70,1768,-7592,2951,0,-1,0
-155.91,12.23,-68.69,1770,-7576,2962,0,-1,0
-155.91,12.23,-68.69,1774,-7562,2976,-1,-1,0
-155.92,12.23,-68.70,1766,-7581,2978,-1,-1,0
-155.93,12.22,-68.71,1767,-7592,2952,-1,0,0
-155.94,12.21,-68.71,1760,-7602,2944,-1,0,0
-155.94,12.21,-68.71,1753,-7598,2937,0,0,0
-155.94,12.21,-68.70,1749,-7588,2951,0,-1,-1
-155.94,12.21,-68.70,1761,-7584,2967,-1,-1,0
-155.94,12.20,-68.69,1768,-7585,2970,-1,-1,0
-155.94,12.21,-68.70,1778,-7592,2968,-1,-1,0
-155.94,12.21,-68.70,1778,-7593,2975,-1,-1,0
-155.95,12.20,-68.70,1775,-7586,2970,-1,-1,0
-155.96,12.20,-68.71,1769,-7583,2966,-1,-1,0
-155.97,12.19,-68.71,1772,-7592,2960,0,0,0
-155.97,12.19,-68.71,1768,-7584,2960,0,-1,0
-155.97,12.19,-68.71,1765,-7590,2950,0,-1,0
-155.98,12.18,-68.71,1765,-7595,2962,0,-1,0
-155.98,12.18,-68.71,1764,-7590,2953,0,-1,0
-155.99,12.18,-68.71,1766,-7589,2952,-1,-1,0
-155.99,12.18,-68.71,1761,-7587,2945,0,0,0
-155.99,12.17,-68.71,1760,-7588,2945,0,-1,0
-155.99,12.16,-68.70,1767,-7589,2959,0,-1,0
-155.99,12.17,-68.71,1763,-7588,2962,-1,-1,0
-155.99,12.16,-68.70,1765,-7594,2962,-1,-1,0
-156.00,12.16,-68.71,1772,-7592,2953,-1,-1,0
-156.01,12.16,-68.71,1768,-7586,2955,-1,-1,0
-156.01,12.15,-68.71,1772,-7582,2965,-1,-1,0
-156.03,12.14,-68.71,1769,-7581,2948,0,0,0
-156.03,12.13,-68.71,1753,-7584,2958,-1,-1,0
-156.04,12.13,-68.71,1757,-7590,2954,0,-1,0
-156.05,12.12,-68.71,1755,-7605,2941,0,-1,0
-156.05,12.11,-68.70,1744,-7592,2951,0,0,0
-156.05,12.12,-68.70,1754,-7591,2958,-1,-1,0
-156.05,12.12,-68.69,1759,-7582,2962,0,0,0
-156.06,12.11,-68.69,1761,-7585,2974,-1,-1,0
-156.07,12.10,-68.70,1759,-7591,2963,0,-1,0
-156.07,12.10,-68.69,1758,-7579,2968,0,-1,0
-156.07,12.10,-68.69,1753,-7590,2971,0,0,0
-156.08,12.09,-68.69,1759,-7594,2968,-1,-1,0
-156.08,12.09,-68.69,1744,-7585,2951,0,0,0
-156.08,12.09,-68.69,1760,-7607,2956,-1,-1,0
-156.09,12.08,-68.69,1756,-7603,2953,0,0,0
-156.10,12.08,-68.69,1752,-7590,2966,-1,-1,0
-156.11,12.07,-68.68,1750,-7592,2958,0,0,0
-156.11,12.06,-68.69,1736,-7587,2958,-1,-1,0
-156.11,12.07,-68.69,1755,-7597,2963,0,-1,0
-156.12,12.06,-68.69,1759,-7593,2940,0,-1,0
-156.12,12.06,-68.68,1754,-7572,2960,0,-1,0
-156.13,12.05,-68.68,1751,-7579,2953,-1,-1,0
-156.14,12.04,-68.68,1756,-7578,2981,-1,-1,0
-156.15,12.04,-68.69,1737,-7606,2940,0,0,0
-156.15,12.04,-68.69,1752,-7595,2950,-1,0,0
-156.16,12.03,-68.69,1736,-7598,2940,0,-1,0
-156.16,12.02,-68.68,1734,-7582,2966,0,0,0
-156.15,12.02,-68.67,1735,-7584,2972,0,0,0
-156.16,12.02,-68.67,1751,-7588,2976,-1,-1,0
-156.17,12.02,-68.68,1753,-7598,2970,-1,-1,0
-156.17,12.01,-68.67,1745,-7579,2958,0,0,0
-156.19,12.00,-68.68,1749,-7592,2963,-1,0,0
-156.19,12.00,-68.69,1738,-7588,2968,-1,-1,0
-156.19,12.00,-68.69,1736,-7588,2956,0,0,0
-156.20,11.99,-68.69,1736,-7585,2956,-1,0,0
-156.20,11.99,-68.69,1734,-7590,2970,-1,-1,0
-156.21,11.98,-68.70,1734,-7594,2959,-1,0,0
-156.21,11.98,-68.70,1751,-7598,2962,-1,-1,0
-156.21,11.99,-68.70,1743,-7594,2964,-1,0,0
-156.21,11.99,-68.70,1739,-7591,2958,-1,0,0
-156.22,11.98,-68.70,1728,-7595,2960,-1,-1,0
-156.21,11.99,-68.70,1738,-7583,2966,0,-1,-1
-156.21,11.99,-68.70,1739,-7590,2986,-1,-1,0
-156.21,11.99,-68.70,1734,-7586,2986,-1,0,0
-156.21,11.99,-68.70,1726,-7602,2972,-1,-1,0
-156.21,11.99,-68.70,1728,-7598,2967,-1,-1,0
-156.22,11.98,-68.72,1731,-7604,2954,0,-1,0
-156.22,11.98,-68.72,1733,-7601,2949,-1,-1,0
-156.22,11.98,-68.72,1739,-7607,2954,0,-1,0
-156.22,11.98,-68.71,1746,-7604,2949,0,-1,0
-156.23,11.98,-68.71,1742,-7601,2948,-1,-1,0
-156.23,11.98,-68.71,1730,-7600,2948,0,-1,-1
-156.23,11.98,-68.71,1728,-7599,2945,0,-1,-1
-156.21,11.99,-68.70,1728,-7596,2964,0,-1,-1
-156.21,11.98,-68.70,1739,-7595,2969,0,-1,-1
-156.21,11.99,-68.69,1739,-7586,2966,0,-1,0
-156.21,11.99,-68.69,1736,-7592,2971,0,-1,0
-156.21,11.99,-68.69,1730,-7598,2976,-1,-1,-1
-156.20,11.99,-68.69,1732,-7594,2975,-1,-1,-1
-156.20,12.00,-68.69,1736,-7598,2955,-1,-1,-1
-156.20,12.00,-68.70,1739,-7599,2950,0,0,-1
-156.19,12.01,-68.69,1741,-7592,2950,0,0,-1
-156.18,12.01,-68.68,1741,-7574,2964,-1,-1,0
-156.19,12.02,-68.69,1740,-7574,2967,-1,-1,0
-156.20,12.01,-68.70,1738,-7594,2953,-1,-1,-1
-156.19,12.02,-68.70,1744,-7610,2944,-1,0,-1
-156.19,12.02,-68.70,1739,-7606,2946,0,0,-1
-156.18,12.02,-68.70,1731,-7596,2956,0,0,-1
-156.17,12.03,-68.69,1733,-7587,2956,0,0,-1
-156.16,12.04,-68.68,1737,-7577,2977,-1,-1,-1
-156.16,12.04,-68.69,1740,-7582,2972,-1,0,-1
-156.15,12.04,-68.69,1746,-7587,2965,-1,0,-1
-156.15,12.05,-68.69,1748,-7594,2960,0,0,-1
-156.15,12.04,-68.69,1732,-7582,2967,-1,0,-1
-156.15,12.04,-68.69,1730,-7583,2960,-1,-1,-1
-156.15,12.05,-68.70,1748,-7594,2950,-1,-1,-1
-156.14,12.06,-68.70,1742,-7595,2947,0,0,-1
-156.14,12.06,-68.70,1740,-7591,2948,0,0,-1
-156.14,12.06,-68.70,1739,-7589,2946,-1,0,-1
-156.13,12.07,-68.70,1735,-7589,2953,0,0,-1
-156.13,12.07,-68.70,1741,-7597,2956,-1,0,-1
-156.12,12.07,-68.70,1741,-7600,2959,0,0,-1
-156.12,12.07,-68.70,1738,-7602,2963,0,0,-1
-156.12,12.07,-68.70,1746,-7588,2977,-1,0,-1
-156.11,12.08,-68.70,1750,-7588,2969,-1,0,-1
-156.11,12.09,-68.71,1745,-7587,2959,-1,-1,-1
-156.11,12.09,-68.71,1751,-7590,2949,-1,-1,-1
-156.11,12.09,-68.72,1754,-7595,2951,-1,0,-1
-156.11,12.09,-68.72,1752,-7593,2949,0,-1,-1
-156.10,12.09,-68.71,1753,-7590,2945,0,0,-1
-156.10,12.10,-68.71,1751,-7597,2956,0,-1,-1
-156.10,12.10,-68.71,1754,-7599,2956,0,0,-1
-156.09,12.10,-68.71,1749,-7600,2953,0,0,-1
-156.09,12.10,-68.71,1751,-7603,2959,0,0,-1
-156.08,12.11,-68.71,1750,-7587,2943,0,0,-1
-156.08,12.11,-68.71,1747,-7588,2950,-1,-1,-1
-156.08,12.11,-68.71,1751,-7590,2953,0,0,-1
-156.08,12.12,-68.71,1752,-7593,2962,-1,0,-1
-156.07,12.12,-68.71,1750,-7596,2963,-1,-1,-1
-156.07,12.12,-68.72,1753,-7592,2957,-1,-1,0
-156.08,12.13,-68.72,1754,-7590,2952,-1,0,-1
-156.07,12.13,-68.72,1757,-7600,2955,0,0,-1
-156.06,12.14,-68.71,1753,-7591,2956,0,0,-1
-156.05,12.15,-68.71,1756,-7575,2960,0,-1,-1
-156.05,12.15,-68.71,1753,-7578,2967,-1,-1,0
-156.04,12.15,-68.70,1757,-7587,2964,0,0,-1
-156.04,12.14,-68.70,1753,-7599,2966,-1,0,-1
-156.04,12.15,-68.71,1750,-7602,2958,0,0,-1
-156.03,12.15,-68.70,1740,-7597,2953,0,-1,-1
-156.02,12.16,-68.70,1752,-7590,2960,0,0,-1
-156.01,12.16,-68.69,1760,-7587,2970,-1,0,-1
-156.00,12.17,-68.69,1761,-7589,2965,-1,0,-1
-156.00,12.18,-68.70,1769,-7590,2973,-1,0,-1
-156.00,12.17,-68.70,1768,-7591,2962,-1,0,-1
-155.99,12.18,-68.70,1759,-7581,2960,-1,-1,-1
-156.00,12.18,-68.70,1760,-7585,2955,-1,-1,-1
-155.99,12.19,-68.71,1768,-7596,2949,0,0,-1
-155.99,12.19,-68.71,1759,-7591,2951,0,0,-1
-155.98,12.20,-68.71,1761,-7586,2946,0,0,-1
-155.97,12.20,-68.71,1751,-7586,2952,-1,-1,-1
-155.97,12.20,-68.71,1752,-7588,2956,-1,0,-1
-155.96,12.21,-68.70,1763,-7594,2959,0,0,-1
-155.95,12.21,-68.70,1758,-7590,2961,0,0,-1
-155.95,12.22,-68.69,1759,-7590,2965,-1,0,-1
-155.94,12.22,-68.70,1752,-7590,2970,-1,0,-1
-155.93,12.23,-68.69,1760,-7587,2966,-1,-1,-1
-155.94,12.23,-68.70,1765,-7596,2958,-1,0,-1
-155.93,12.24,-68.71,1771,-7593,2948,-1,0,-1
-155.93,12.24,-68.71,1771,-7588,2951,-1,0,-1
-155.92,12.24,-68.71,1763,-7586,2962,0,0,-1
-155.91,12.25,-68.71,1770,-7583,2958,-1,0,-1
-155.91,12.25,-68.71,1766,-7584,2949,0,0,-1
-155.91,12.25,-68.71,1763,-7587,2949,0,0,-1
-155.90,12.26,-68.70,1763,-7584,2963,-1,0,-1
-155.89,12.26,-68.70,1764,-7587,2964,0,0,-1
-155.89,12.26,-68.70,1766,-7585,2964,-1,0,-1
-155.89,12.27,-68.70,1765,-7582,2955,-1,-1,-1
-155.88,12.27,-68.70,1767,-7588,2955,-1,0,-1
-155.88,12.28,-68.71,1772,-7587,2948,-1,0,-1
-155.87,12.28,-68.70,1776,-7584,2965,0,0,-1
-155.87,12.28,-68.70,1771,-7583,2963,-1,0,-1
-155.86,12.29,-68.70,1774,-7580,2965,-1,0,-1
-155.85,12.29,-68.70,1767,-7581,2958,-1,0,-1
-155.86,12.29,-68.70,1765,-7582,2966,-1,0,-1
-155.85,12.30,-68.71,1778,-7587,2959,-1,0,-1
-155.84,12.30,-68.71,1782,-7595,2957,0,0,-1
-155.83,12.31,-68.70,1785,-7594,2957,0,0,-1
-155.83,12.31,-68.69,1784,-7574,2962,0,0,-1
-155.82,12.31,-68.69,1772,-7575,2972,-1,-1,-1
-155.82,12.32,-68.70,1772,-7594,2952,-1,0,-1
-155.83,12.31,-68.71,1775,-7602,2953,-1,0,-1
-155.82,12.31,-68.70,1774,-7592,2953,0,0,-1
-155.82,12.31,-68.70,1767,-7596,2947,0,0,-1
-155.81,12.32,-68.69,1763,-7589,2959,0,0,-1
-155.80,12.32,-68.69,1761,-7581,2964,0,0,-1
-155.80,12.32,-68.69,1770,-7574,2965,-1,-1,-1
-155.79,12.33,-68.69,1777,-7578,2966,-1,0,-1
-155.79,12.33,-68.68,1780,-7575,2963,-1,0,0
-155.80,12.32,-68.69,1772,-7573,2963,-1,0,-1
-155.79,12.33,-68.69,1779,-7576,2960,-1,0,-1
-155.79,12.33,-68.69,1772,-7585,2952,-1,0,-1
-155.79,12.33,-68.69,1772,-7584,2955,0,0,-1
-155.78,12.33,-68.68,1776,-7580,2968,0,0,-1
-155.78,12.33,-68.68,1779,-7582,2969,-1,0,-1
-155.77,12.34,-68.68,1779,-7581,2961,-1,0,-1
-155.77,12.34,-68.69,1782,-7588,2951,0,0,-1
-155.77,12.34,-68.68,1775,-7590,2956,0,0,-1
-155.76,12.35,-68.68,1775,-7581,2962,0,-1,-1
-155.76,12.35,-68.68,1774,-7579,2973,-1,0,-1
-155.75,12.36,-68.68,1784,-7575,2970,-1,0,-1
-155.75,12.36,-68.68,1788,-7578,2973,-1,0,0
-155.75,12.36,-68.68,1786,-7586,2963,-1,0,0
-155.76,12.36,-68.69,1775,-7582,2960,-1,-1,0
-155.76,12.36,-68.70,1783,-7583,2957,-1,0,0
-155.76,12.35,-68.70,1784,-7578,2940,-1,-1,0
-155.76,12.35,-68.70,1786,-7579,2943,-1,0,0
-155.76,12.35,-68.70,1786,-7581,2948,0,0,0
-155.77,12.35,-68.70,1773,-7580,2945,-1,0,0
-155.77,12.34,-68.70,1775,-7581,2958,-1,-1,0
-155.77,12.34,-68.70,1783,-7587,2960,-1,0,0
-155.77,12.34,-68.71,1780,-7592,2960,0,0,0
-155.78,12.34,-68.70,1779,-7585,2967,0,-1,0
-155.78,12.34,-68.70,1774,-7591,2966,-1,-1,0
-155.78,12.34,-68.70,1778,-7590,2964,-1,0,0
-155.79,12.33,-68.70,1779,-7586,2966,-1,-1,0
-155.79,12.33,-68.71,1771,-7588,2962,-1,-1,0
-155.79,12.33,-68.70,1775,-7585,2963,-1,0,0
-155.80,12.33,-68.71,1770,-7578,2954,-1,0,0
-155.80,12.32,-68.71,1769,-7581,2954,-1,-1,0
-155.81,12.32,-68.72,1768,-7589,2953,-1,-1,0
-155.81,12.31,-68.72,1768,-7595,2936,-1,-1,0
-155.81,12.31,-68.72,1776,-7602,2941,0,0,-1
-155.81,12.32,-68.71,1779,-7587,2950,0,0,0
-155.81,12.32,-68.71,1773,-7575,2957,-1,-1,0
-155.81,12.31,-68.71,1774,-7572,2950,-1,-1,0
-155.83,12.31,-68.73,1774,-7590,2933,-1,-1,0
-155.84,12.30,-68.73,1777,-7599,2932,0,0,0
-155.84,12.30,-68.73,1770,-7608,2939,0,0,0
-155.84,12.29,-68.72,1774,-7600,2941,0,0,-1
-155.83,12.29,-68.71,1774,-7583,2945,0,0,0
-155.83,12.29,-68.70,1772,-7581,2953,0,0,0
-155.83,12.28,-68.69,1769,-7571,2975,-1,-1,0
-155.82,12.29,-68.69,1788,-7589,2969,-1,-1,0
-155.83,12.29,-68.70,1789,-7596,2950,0,-1,0
-155.84,12.28,-68.69,1785,-7582,2944,0,0,0
-155.85,12.27,-68.69,1751,-7580,2953,-1,-1,0
-155.86,12.27,-68.70,1768,-7587,2953,0,-1,0
-155.86,12.27,-68.70,1764,-7596,2953,-1,-1,0
-155.87,12.26,-68.71,1776,-7592,2952,0,0,0
-155.88,12.25,-68.70,1769,-7593,2948,-1,-1,0
-155.88,12.25,-68.70,1766,-7590,2949,0,-1,0
-155.88,12.25,-68.70,1768,-7582,2945,0,0,0
-155.88,12.25,-68.70,1766,-7577,2951,0,0,0
-155.88,12.25,-68.70,1765,-7581,2959,-1,0,0
-155.89,12.25,-68.70,1760,-7586,2966,-1,-1,0
-155.89,12.24,-68.71,1763,-7592,2969,-1,0,0
-155.89,12.24,-68.71,1767,-7598,2963,-1,-1,0
-155.90,12.24,-68.71,1772,-7589,2957,-1,-1,0
-155.90,12.24,-68.72,1768,-7588,2940,-1,-1,0
-155.91,12.23,-68.73,1766,-7587,2946,0,0,0
-155.91,12.23,-68.73,1756,-7596,2940,-1,-1,0
-155.92,12.22,-68.73,1761,-7585,2944,-1,0,0
-155.93,12.22,-68.73,1755,-7592,2949,0,0,0
-155.93,12.22,-68.73,1756,-7591,2957,0,-1,0
-155.92,12.22,-68.73,1764,-7592,2957,0,0,0
-155.92,12.22,-68.73,1765,-7585,2956,-1,0,0
-155.93,12.21,-68.73,1762,-7583,2962,-1,-1,0
-155.93,12.21,-68.73,1764,-7581,2962,-1,0,0
-155.94,12.20,-68.73,1761,-7576,2953,-1,-1,0
-155.95,12.20,-68.74,1758,-7582,2953,-1,0,0
-155.95,12.20,-68.74,1755,-7585,2950,-1,-1,0
-155.96,12.20,-68.74,1759,-7588,2950,-1,-1,0
-155.96,12.20,-68.75,1769,-7594,2953,0,0,0
-155.96,12.20,-68.74,1764,-7589,2962,0,0,0
-155.97,12.19,-68.75,1751,-7583,2958,-1,-1,0
-155.97,12.19,-68.75,1758,-7591,2951,-1,0,0
-155.98,12.18,-68.76,1756,-7605,2940,-1,0,0
-155.98,12.18,-68.76,1758,-7606,2943,0,0,-1
-155.98,12.18,-68.75,1763,-7584,2953,0,0,0
-155.98,12.17,-68.75,1753,-7570,2961,-1,-1,0
-155.99,12.17,-68.75,1754,-7573,2968,-1,-1,0
-155.99,12.16,-68.75,1749,-7591,2964,-1,0,0
-156.00,12.16,-68.76,1751,-7605,2951,0,0,0
-156.00,12.15,-68.75,1743,-7600,2948,0,0,0
-156.01,12.15,-68.75,1743,-7606,2942,0,0,-1
-155.99,12.16,-68.74,1747,-7590,2944,0,0,-1
-155.99,12.15,-68.73,1752,-7585,2967,-1,-1,0
-155.99,12.15,-68.73,1758,-7582,2978,-1,-1,0
-156.00,12.15,-68.74,1755,-7585,2963,-1,-1,0
-156.00,12.15,-68.74,1754,-7587,2952,0,0,0
-156.01,12.15,-68.75,1750,-7592,2951,-1,-1,0
-156.01,12.15,-68.75,1747,-7588,2953,-1,-1,0
-156.02,12.14,-68.76,1743,-7588,2949,0,0,0
-156.02,12.13,-68.75,1747,-7591,2954,-1,0,0
-156.02,12.13,-68.75,1751,-7590,2960,-1,0,0
-156.02,12.13,-68.75,1752,-7595,2951,-1,-1,0
-156.02,12.13,-68.75,1759,-7590,2945,0,0,0
-156.02,12.13,-68.75,1755,-7589,2938,0,0,0
-156.02,12.13,-68.75,1744,-7588,2948,0,0,-1
-156.02,12.13,-68.75,1739,-7584,2953,0,0,0
-156.02,12.13,-68.75,1739,-7575,2958,-1,-1,0
-156.02,12.13,-68.75,1744,-7581,2959,-1,-1,0
-156.02,12.13,-68.74,1746,-7588,2971,-1,0,0
-156.03,12.13,-68.75,1753,-7605,2954,-1,0,0
-156.04,12.12,-68.75,1735,-7597,2951,-1,-1,0
-156.04,12.11,-68.76,1736,-7596,2946,-1,-1,0
-156.04,12.11,-68.76,1746,-7591,2949,-1,0,0
-156.04,12.11,-68.75,1747,-7591,2952,0,0,0
-156.04,12.11,-68.74,1749,-7584,2963,0,0,0
-156.04,12.11,-68.75,1741,-7591,2962,-1,0,0
-156.04,12.11,-68.75,1744,-7587,2952,0,-1,0
-156.04,12.11,-68.75,1744,-7589,2946,-1,-1,0
-156.04,12.11,-68.75,1742,-7592,2954,0,-1,-1
-156.04,12.11,-68.75,1739,-7589,2956,-1,-1,-1
-156.04,12.11,-68.75,1738,-7581,2955,-1,-1,0
-156.04,12.11,-68.75,1738,-7587,2954,0,-1,-1
-156.05,12.11,-68.75,1742,-7595,2950,-1,-1,-1
-156.05,12.11,-68.75,1741,-7599,2959,0,-1,-1
-156.05,12.11,-68.75,1735,-7600,2955,0,0,0
-156.05,12.11,-68.75,1739,-7596,2957,0,0,0
-156.05,12.11,-68.75,1734,-7594,2965,-1,-1,0
-156.05,12.10,-68.75,1736,-7602,2957,-1,-1,-1
-156.05,12.11,-68.75,1743,-7607,2959,0,-1,-1
-156.04,12.12,-68.74,1750,-7598,2964,0,0,-1
-156.03,12.11,-68.73,1751,-7576,2978,-1,-1,0
-156.04,12.12,-68.74,1742,-7584,2958,-1,-1,0
-156.04,12.12,-68.74,1747,-7595,2954,-1,0,0
-156.04,12.11,-68.75,1745,-7621,2940,0,0,-1
-156.04,12.11,-68.74,1737,-7609,2944,0,-1,-1
-156.03,12.11,-68.73,1737,-7601,2946,0,0,-1
-156.02,12.12,-68.72,1738,-7584,2960,0,0,-1
-156.01,12.12,-68.71,1741,-7584,2963,0,0,-1
-156.01,12.12,-68.71,1752,-7580,2963,-1,-1,-1
-156.01,12.13,-68.71,1752,-7588,2976,-1,0,-1
-156.01,12.13,-68.71,1745,-7593,2966,0,0,-1
-156.01,12.13,-68.71,1751,-7594,2962,0,0,-1
-155.99,12.14,-68.71,1752,-7586,2960,0,0,-1
-155.99,12.14,-68.71,1747,-7583,2961,0,0,-1
-155.99,12.13,-68.70,1747,-7580,2960,-1,0,-1
-156.00,12.14,-68.71,1753,-7591,2960,-1,0,-1
-156.00,12.14,-68.71,1743,-7592,2960,-1,-1,-1
-156.00,12.14,-68.72,1747,-7605,2952,-1,-1,-1
-155.99,12.14,-68.71,1747,-7597,2957,0,0,-1
-155.98,12.14,-68.70,1742,-7583,2958,0,0,-1
-155.97,12.15,-68.70,1740,-7578,2959,0,0,-1
-155.97,12.15,-68.70,1749,-7585,2965,-1,0,-1
-155.97,12.15,-68.70,1755,-7589,2967,-1,-1,-1
-155.97,12.16,-68.71,1754,-7588,2960,-1,0,-1
-155.97,12.16,-68.71,1750,-7580,2967,-1,0,-1
-155.97,12.15,-68.71,1747,-7585,2961,-1,-1,-1
-155.97,12.15,-68.71,1751,-7592,2957,-1,0,-1
-155.97,12.16,-68.72,1754,-7592,2944,-1,0,-1
-155.97,12.16,-68.72,1755,-7588,2944,0,0,-1
-155.97,12.16,-68.71,1756,-7587,2957,0,-1,-1
-155.96,12.16,-68.71,1754,-7589,2957,0,0,-1
-155.95,12.17,-68.70,1756,-7591,2967,-1,0,-1
-155.96,12.16,-68.71,1753,-7601,2949,0,0,-1
-155.96,12.16,-68.71,1748,-7580,2954,-1,-1,-1
-155.95,12.17,-68.71,1750,-7584,2957,0,0,-1
-155.95,12.17,-68.71,1755,-7590,2956,0,0,-1
-155.95,12.17,-68.70,1755,-7585,2959,0,0,-1
-155.94,12.17,-68.69,1753,-7583,2972,0,0,-1
-155.94,12.17,-68.69,1758,-7589,2973,-1,0,0
-155.94,12.17,-68.70,1744,-7596,2954,-1,-1,-1
-155.94,12.18,-68.70,1756,-7610,2961,0,-1,-1
-155.92,12.19,-68.69,1760,-7596,2960,0,0,-1
-155.92,12.19,-68.69,1757,-7583,2959,0,0,-1
-155.92,12.19,-68.69,1753,-7571,2973,-1,-1,0
-155.93,12.18,-68.70,1753,-7589,2967,-1,-1,-1
-155.92,12.19,-68.70,1754,-7602,2957,-1,0,-1
-155.92,12.19,-68.70,1745,-7599,2947,0,0,-1
-155.91,12.19,-68.70,1753,-7592,2947,0,0,-1
-155.90,12.20,-68.69,1748,-7587,2957,0,0,-1
-155.90,12.20,-68.69,1755,-7578,2971,-1,0,-1
-155.90,12.20,-68.69,1763,-7580,2966,-1,-1,-1
-155.88,12.21,-68.68,1762,-7581,2968,-1,0,-1
-155.88,12.21,-68.68,1758,-7588,2973,0,0,-1
-155.89,12.21,-68.69,1756,-7578,2971,-1,-1,-1
-155.89,12.21,-68.69,1756,-7579,2967,-1,-1,-1
-155.89,12.21,-68.69,1759,-7582,2963,-1,0,-1
-155.88,12.21,-68.69,1764,-7587,2957,0,0,-1
-155.88,12.21,-68.69,1761,-7590,2963,0,0,0
-155.88,12.21,-68.69,1750,-7594,2956,-1,-1,-1
-155.88,12.21,-68.69,1753,-7600,2950,0,-1,-1
-155.87,12.22,-68.68,1752,-7590,2961,0,0,-1
-155.87,12.22,-68.68,1755,-7589,2952,0,0,-1
-155.86,12.22,-68.67,1761,-7583,2970,0,0,-1
-155.86,12.23,-68.67,1759,-7589,2967,0,0,-1
-155.85,12.23,-68.67,1755,-7572,2971,-1,0,-1
-155.86,12.23,-68.68,1757,-7578,2959,-1,-1,-1
-155.85,12.23,-68.68,1756,-7578,2970,-1,-1,-1
-155.85,12.23,-68.68,1765,-7585,2948,0,0,-1
-155.85,12.24,-68.68,1763,-7577,2955,0,0,-1
-155.85,12.24,-68.68,1755,-7585,2949,-1,0,-1
-155.84,12.24,-68.69,1756,-7585,2947,0,0,-1
-155.83,12.25,-68.68,1763,-7591,2952,0,0,-1
-155.83,12.25,-68.68,1771,-7585,2947,0,0,-1
-155.82,12.26,-68.68,1762,-7578,2960,-1,0,-1
-155.82,12.26,-68.68,1759,-7576,2965,-1,-1,-1
-155.82,12.26,-68.68,1758,-7584,2959,-1,0,-1
-155.81,12.26,-68.68,1772,-7587,2969,0,0,-1
-155.80,12.28,-68.68,1775,-7584,2954,0,0,-1
-155.80,12.28,-68.68,1772,-7571,2964,-1,0,-1
-155.80,12.28,-68.68,1767,-7575,2969,-1,0,-1
-155.79,12.28,-68.68,1771,-7589,2959,-1,-1,-1
-155.79,12.28,-68.68,1774,-7600,2947,0,0,-1
-155.78,12.29,-68.68,1779,-7587,2956,0,0,-1
-155.77,12.29,-68.67,1774,-7572,2966,0,0,0
-155.77,12.29,-68.67,1771,-7568,2971,-1,0,-1
-155.77,12.29,-68.67,1770,-7585,2981,-1,0,-1
-155.78,12.29,-68.67,1768,-7596,2967,-1,0,-1
-155.77,12.29,-68.67,1767,-7593,2951,0,0,-1
-155.77,12.29,-68.67,1759,-7583,2956,0,0,-1
-155.76,12.29,-68.67,1759,-7576,2963,0,0,-1
-155.76,12.29,-68.67,1758,-7578,2959,-1,-1,-1
-155.75,12.30,-68.66,1781,-7581,2966,0,0,-1
-155.75,12.30,-68.66,1775,-7593,2961,-1,0,-1
-155.75,12.30,-68.67,1771,-7583,2957,-1,0,-1
-155.74,12.31,-68.67,1765,-7576,2950,-1,0,-1
-155.75,12.31,-68.67,1767,-7574,2949,-1,0,-1
-155.75,12.31,-68.68,1770,-7586,2946,0,0,-1
-155.74,12.31,-68.67,1777,-7587,2954,0,0,-1
-155.73,12.32,-68.67,1783,-7582,2955,0,0,-1
-155.72,12.32,-68.66,1771,-7576,2962,0,0,-1
-155.72,12.32,-68.66,1769,-7581,2954,0,0,-1
-155.72,12.33,-68.67,1784,-7580,2948,0,0,-1
-155.71,12.33,-68.66,1776,-7575,2958,-1,0,-1
-155.70,12.33,-68.66,1772,-7575,2959,0,0,-1
-155.70,12.33,-68.66,1780,-7586,2967,-1,0,-1
-155.69,12.34,-68.66,1779,-7582,2974,0,0,-1
-155.69,12.35,-68.66,1779,-7579,2974,-1,0,-1
-155.69,12.35,-68.66,1776,-7575,2966,-1,0,-1
-155.69,12.34,-68.67,1773,-7582,2942,-1,0,-1
-155.69,12.34,-68.67,1776,-7581,2951,-1,0,-1
-155.69,12.35,-68.67,1776,-7584,2946,0,0,-1
-155.69,12.35,-68.67,1777,-7592,2945,0,0,-1
-155.68,12.35,-68.67,1775,-7581,2953,0,0,-1
-155.68,12.35,-68.66,1774,-7580,2960,0,0,-1
-155.67,12.35,-68.66,1770,-7579,2966,-1,0,-1
-155.67,12.35,-68.66,1773,-7578,2967,-1,0,-1
-155.67,12.35,-68.66,1774,-7579,2959,-1,0,-1
-155.67,12.35,-68.66,1778,-7577,2961,-1,-1,-1
-155.67,12.36,-68.67,1775,-7588,2969,0,0,-1
-155.66,12.36,-68.66,1780,-7585,2972,0,0,-1
-155.67,12.35,-68.66,1782,-7587,2972,0,0,0
-155.67,12.35,-68.65,1779,-7570,2974,-1,0,0
-155.67,12.35,-68.66,1774,-7571,2980,-1,-1,0
-155.67,12.35,-68.66,1778,-7578,2970,-1,-1,0
-155.68,12.35,-68.67,1787,-7598,2954,0,0,-1
-155.67,12.35,-68.66,1785,-7599,2952,0,0,0
-155.67,12.34,-68.65,1783,-7579,2980,-1,-1,0
-155.68,12.34,-68.65,1784,-7569,2976,-1,-1,0
-155.69,12.34,-68.66,1781,-7582,2965,-1,-1,0
-155.70,12.34,-68.68,1783,-7596,2958,-1,0,0
-155.70,12.34,-68.68,1780,-7593,2953,0,-1,0
-155.69,12.34,-68.68,1775,-7595,2954,0,-1,-1
-155.69,12.34,-68.67,1776,-7589,2962,0,0,-1
-155.69,12.34,-68.67,1776,-7580,2969,-1,-1,-1
-155.68,12.34,-68.67,1786,-7582,2980,-1,-1,-1
-155.69,12.34,-68.68,1783,-7589,2974,-1,-1,0
-155.69,12.34,-68.68,1780,-7585,2961,-1,0,0
-155.70,12.34,-68.68,1783,-7588,2963,-1,-1,0
-155.71,12.34,-68.69,1776,-7584,2955,-1,-1,0
-155.71,12.34,-68.70,1781,-7584,2955,-1,-1,0
-155.71,12.34,-68.70,1781,-7587,2954,0,-1,0
-155.71,12.33,-68.69,1781,-7585,2961,-1,-1,0
-155.72,12.33,-68.69,1777,-7574,2960,0,0,0
-155.72,12.33,-68.69,1773,-7582,2971,-1,0,0
-155.72,12.33,-68.69,1777,-7588,2964,0,0,0
-155.72,12.32,-68.69,1768,-7587,2957,0,-1,0
-155.72,12.32,-68.69,1773,-7586,2959,0,0,0
-155.72,12.32,-68.69,1768,-7581,2958,0,-1,-1
-155.72,12.32,-68.69,1771,-7582,2969,-1,0,0
-155.72,12.32,-68.69,1782,-7582,2965,-1,-1,0
-155.73,12.32,-68.69,1777,-7583,2955,-1,-1,0
-155.73,12.32,-68.70,1775,-7579,2956,-1,-1,0
-155.74,12.31,-68.70,1778,-7586,2957,-1,0,0
-155.74,12.31,-68.70,1773,-7584,2957,-1,-1,0
-155.74,12.31,-68.70,1774,-7583,2940,0,-1,0
-155.75,12.31,-68.71,1777,-7588,2939,0,0,0
-155.74,12.31,-68.70,1774,-7591,2954,0,0,0
-155.74,12.31,-68.70,1769,-7586,2958,0,-1,0
-155.75,12.30,-68.70,1762,-7585,2954,-1,-1,0
-155.75,12.30,-68.70,1767,-7593,2952,-1,-1,0
-155.75,12.30,-68.71,1772,-7591,2949,-1,0,0
-155.76,12.29,-68.71,1762,-7591,2958,-1,0,0
-155.76,12.29,-68.71,1762,-7593,2964,0,0,0
-155.76,12.29,-68.71,1759,-7588,2954,-1,-1,0
-155.77,12.29,-68.71,1770,-7586,2963,-1,-1,0
-155.77,12.29,-68.71,1768,-7591,2951,0,-1,0
-155.77,12.28,-68.71,1785,-7584,2951,0,0,0
-155.77,12.28,-68.71,1777,-7584,2954,-1,0,0
-155.78,12.28,-68.71,1767,-7585,2967,-1,0,0
-155.79,12.27,-68.72,1759,-7588,2963,-1,-1,0
-155.79,12.27,-68.72,1762,-7598,2949,-1,-1,0
-155.79,12.27,-68.72,1769,-7604,2945,0,0,-1
-155.78,12.27,-68.71,1771,-7586,2949,0,-1,0
-155.79,12.26,-68.70,1770,-7571,2970,-1,-1,0
-155.80,12.25,-68.71,1757,-7579,2968,-1,-1,0
-155.82,12.25,-68.72,1756,-7597,2959,-1,-1,0
-155.82,12.25,-68.72,1773,-7613,2939,0,0,0
-155.82,12.24,-68.73,1761,-7598,2940,0,-1,0
-155.83,12.24,-68.72,1752,-7584,2947,0,-1,-1
-155.82,12.23,-68.71,1755,-7584,2966,0,-1,0
-155.81,12.24,-68.71,1766,-7578,2972,-1,-1,0
-155.82,12.24,-68.71,1772,-7584,2969,-1,-1,0
-155.83,12.23,-68.71,1763,-7588,2969,-1,-1,0
-155.84,12.23,-68.71,1765,-7588,2967,-1,-1,0
-155.84,12.22,-68.71,1757,-7583,2965,-1,-1,0
-155.85,12.22,-68.72,1755,-7585,2961,-1,-1,0
-155.86,12.21,-68.72,1757,-7591,2954,0,-1,0
-155.87,12.20,-68.72,1759,-7593,2948,0,-1,0
-155.87,12.20,-68.72,1753,-7588,2958,-1,-1,0
-155.87,12.20,-68.72,1756,-7587,2952,0,0,0
-155.87,12.20,-68.71,1759,-7590,2957,-1,0,0
-155.87,12.19,-68.72,1763,-7605,2953,0,0,0
-155.88,12.19,-68.71,1750,-7591,2961,0,-1,0
-155.88,12.18,-68.71,1752,-7592,2964,0,0,0
-155.88,12.18,-68.71,1747,-7585,2963,0,-1,0
-155.88,12.18,-68.70,1753,-7586,2974,-1,-1,0
-155.89,12.17,-68.71,1757,-7585,2968,-1,-1,0
-155.90,12.17,-68.71,1754,-7596,2960,-1,-1,0
-155.91,12.16,-68.72,1751,-7593,2960,-1,-1,0
-155.91,12.16,-68.72,1750,-7597,2949,-1,-1,0
-155.92,12.15,-68.72,1749,-7594,2950,-1,-1,0
-155.92,12.15,-68.72,1756,-7594,2945,0,-1,0
-155.92,12.15,-68.72,1754,-7596,2938,0,-1,0
-155.92,12.15,-68.72,1745,-7586,2942,0,0,0
-155.92,12.15,-68.72,1742,-7584,2955,0,-1,0
-155.92,12.15,-68.72,1748,-7589,2961,-1,-1,0
-155.94,12.14,-68.73,1742,-7587,2954,-1,-1,0
-155.94,12.14,-68.73,1747,-7592,2954,-1,-1,0
-155.94,12.14,-68.73,1752,-7593,2956,-1,-1,0
-155.94,12.14,-68.73,1755,-7600,2948,-1,-1,0
-155.94,12.14,-68.73,1757,-7606,2951,-1,-1,0
-155.94,12.14,-68.73,1761,-7595,2956,-1,-1,0
-155.94,12.14,-68.73,1764,-7600,2948,-1,-1,0
-155.95,12.13,-68.74,1760,-7593,2949,0,0,0
-155.95,12.13,-68.74,1754,-7594,2954,-1,0,0
-155.96,12.12,-68.75,1742,-7605,2955,-1,0,0
-155.96,12.12,-68.75,1739,-7608,2956,-1,-1,-1
-155.96,12.12,-68.74,1739,-7601,2949,0,0,-1
-155.95,12.12,-68.73,1752,-7584,2958,0,0,-1
-155.95,12.12,-68.72,1746,-7570,2962,-1,-1,0
-155.96,12.11,-68.73,1744,-7583,2962,-1,-1,0
-155.97,12.10,-68.73,1744,-7594,2955,-1,-1,0
-155.98,12.10,-68.74,1743,-7607,2947,-1,-1,0
-155.98,12.10,-68.74,1741,-7613,2940,0,0,0
-155.98,12.10,-68.73,1740,-7602,2948,0,0,-1
-155.97,12.10,-68.72,1745,-7590,2958,0,-1,-1
-155.96,12.10,-68.71,1743,-7581,2971,-1,-1,-1
-155.97,12.10,-68.72,1753,-7589,2961,0,-1,0
-155.97,12.11,-68.72,1755,-7590,2962,-1,-1,0
-155.97,12.11,-68.72,1759,-7588,2961,-1,-1,0
-155.97,12.11,-68.72,1762,-7586,2957,-1,-1,0
-155.98,12.11,-68.72,1750,-7589,2947,-1,-1,0
-155.97,12.11,-68.72,1749,-7589,2953,0,-1,-1
-155.97,12.11,-68.72,1754,-7592,2947,0,-1,0
-155.97,12.11,-68.72,1745,-7590,2953,-1,-1,-1
-155.98,12.10,-68.73,1745,-7598,2950,-1,-1,-1
-155.97,12.11,-68.73,1747,-7599,2945,0,0,-1
-155.97,12.11,-68.73,1750,-7601,2942,0,0,-1
-155.97,12.11,-68.72,1742,-7590,2951,0,0,-1
-155.96,12.12,-68.71,1744,-7586,2964,0,-1,-1
-155.96,12.12,-68.71,1742,-7577,2968,0,0,-1
-155.95,12.12,-68.71,1740,-7589,2976,-1,-1,-1
-155.95,12.12,-68.71,1741,-7595,2973,-1,-1,-1
-155.95,12.12,-68.72,1740,-7591,2963,-1,-1,-1
-155.95,12.13,-68.71,1741,-7581,2955,-1,-1,-1
-155.95,12.13,-68.72,1746,-7578,2956,0,-1,-1
-155.94,12.14,-68.71,1753,-7582,2954,-1,-1,-1
-155.94,12.14,-68.71,1761,-7592,2951,-1,0,-1
-155.93,12.14,-68.71,1752,-7604,2957,-1,0,-1
-155.93,12.14,-68.71,1748,-7593,2967,0,0,-1
-155.92,12.14,-68.70,1748,-7595,2964,0,0,-1
-155.92,12.15,-68.70,1752,-7589,2960,-1,0,-1
-155.91,12.16,-68.70,1751,-7591,2968,-1,-1,-1
-155.91,12.16,-68.70,1748,-7588,2964,-1,-1,-1
-155.91,12.16,-68.70,1749,-7591,2964,-1,-1,-1
-155.91,12.16,-68.70,1755,-7593,2968,-1,-1,-1
-155.90,12.17,-68.71,1762,-7594,2958,-1,-1,-1
-155.89,12.18,-68.71,1769,-7589,2953,-1,0,-1
-155.89,12.18,-68.71,1756,-7588,2957,-1,-1,-1
-155.89,12.18,-68.71,1752,-7582,2963,-1,-1,-1
-155.89,12.18,-68.71,1751,-7596,2957,-1,-1,-1
-155.89,12.18,-68.71,1758,-7602,2954,0,-1,-1
-155.88,12.19,-68.71,1763,-7589,2961,0,0,-1
-155.87,12.19,-68.70,1766,-7566,2970,-1,0,0
-155.88,12.18,-68.70,1759,-7571,2963,-1,-1,0
-155.88,12.19,-68.71,1758,-7588,2967,-1,-1,-1
-155.88,12.19,-68.71,1762,-7603,2955,-1,0,-1
-155.88,12.19,-68.71,1755,-7601,2948,0,0,-1
-155.88,12.19,-68.71,1750,-7593,2954,0,0,-1
-155.87,12.19,-68.70,1751,-7586,2961,0,0,-1
-155.86,12.20,-68.69,1760,-7583,2968,-1,-1,-1
-155.86,12.20,-68.70,1764,-7590,2961,-1,-1,-1
-155.86,12.20,-68.70,1771,-7599,2955,-1,-1,-1
-155.85,12.21,-68.70,1768,-7589,2959,-1,-1,-1
-155.86,12.20,-68.70,1764,-7591,2948,-1,-1,0
-155.85,12.21,-68.70,1774,-7590,2958,0,0,-1
-155.86,12.21,-68.70,1765,-7597,2954,0,0,-1
-155.86,12.20,-68.71,1755,-7593,2952,-1,0,-1
-155.86,12.20,-68.71,1744,-7597,2955,-1,-1,-1
-155.86,12.20,-68.71,1751,-7593,2958,-1,-1,-1
-155.85,12.21,-68.70,1758,-7592,2955,0,0,-1
-155.84,12.22,-68.70,1761,-7589,2950,0,0,-1
-155.84,12.22,-68.69,1755,-7586,2955,0,0,-1
-155.83,12.22,-68.68,1751,-7586,2970,0,0,-1
-155.83,12.22,-68.68,1749,-7583,2975,-1,-1,-1
-155.82,12.23,-68.68,1762,-7584,2970,0,0,-1
-155.82,12.23,-68.68,1757,-7578,2968,-1,-1,-1
-155.82,12.23,-68.68,1759,-7582,2968,-1,-1,-1
-155.82,12.23,-68.68,1763,-7580,2966,-1,-1,-1
-155.82,12.23,-68.69,1766,-7595,2963,0,0,-1
-155.81,12.23,-68.68,1768,-7595,2957,0,0,-1
-155.81,12.23,-68.67,1768,-7595,2961,0,0,-1
-155.80,12.24,-68.67,1768,-7588,2966,0,0,-1
-155.79,12.24,-68.66,1763,-7586,2965,-1,0,-1
-155.79,12.24,-68.66,1761,-7585,2971,-1,-1,-1
-155.79,12.24,-68.66,1765,-7589,2964,0,0,-1
-155.79,12.24,-68.66,1760,-7588,2958,0,-1,-1
-155.78,12.25,-68.66,1760,-7589,2949,0,0,-1
-155.78,12.25,-68.66,1762,-7581,2955,0,-1,-1
-155.77,12.26,-68.66,1767,-7579,2955,0,0,-1
-155.77,12.26,-68.66,1763,-7576,2966,-1,0,-1
-155.76,12.26,-68.67,1763,-7579,2962,-1,-1,-1
-155.77,12.27,-68.68,1768,-7594,2947,-1,0,-1
-155.75,12.28,-68.67,1774,-7591,2949,0,0,-1
-155.74,12.28,-68.66,1781,-7573,2955,0,0,-1
-155.75,12.28,-68.67,1777,-7573,2955,-1,-1,0
-155.75,12.28,-68.68,1776,-7582,2949,-1,0,-1
-155.75,12.28,-68.67,1770,-7604,2952,-1,0,-1
-155.74,12.28,-68.68,1777,-7603,2946,0,0,-1
-155.74,12.28,-68.68,1762,-7595,2945,0,0,-1
-155.73,12.29,-68.67,1768,-7579,2951,0,0,-1
-155.72,12.30,-68.67,1771,-7575,2950,0,0,-1
-155.72,12.30,-68.66,1782,-7582,2956,-1,0,-1
-155.72,12.30,-68.67,1779,-7587,2956,-1,-1,-1
-155.72,12.30,-68.67,1782,-7587,2949,0,-1,-1
-155.72,12.30,-68.67,1766,-7580,2953,-1,-1,-1
-155.72,12.30,-68.68,1771,-7587,2957,-1,-1,-1
-155.71,12.31,-68.68,1773,-7580,2941,-1,-1,-1
-155.71,12.31,-68.68,1773,-7582,2943,0,-1,-1
-155.71,12.31,-68.68,1769,-7587,2938,0,-1,-1
-155.71,12.31,-68.68,1774,-7589,2944,-1,0,-1
-155.70,12.32,-68.68,1777,-7590,2950,-1,0,-1
-155.70,12.32,-68.68,1784,-7593,2949,0,0,-1
-155.69,12.33,-68.68,1788,-7587,2948,0,0,-1
-155.68,12.33,-68.68,1784,-7583,2953,0,0,-1
-155.67,12.34,-68.67,1782,-7585,2964,-1,0,-1
-155.66,12.34,-68.67,1781,-7578,2973,-1,-1,-1
-155.66,12.34,-68.67,1785,-7581,2964,-1,-1,-1
-155.66,12.35,-68.67,1784,-7582,2969,-1,-1,-1
-155.66,12.35,-68.67,1781,-7579,2964,-1,0,-1
-155.66,12.35,-68.68,1783,-7585,2956,0,0,-1
-155.65,12.35,-68.68,1776,-7584,2951,-1,0,-1
-155.65,12.35,-68.68,1768,-7585,2945,0,0,-1
-155.64,12.35,-68.67,1786,-7586,2958,0,0,-1
-155.63,12.36,-68.66,1786,-7578,2957,0,0,-1
-155.62,12.36,-68.65,1790,-7576,2963,0,0,-1
-155.62,12.36,-68.65,1780,-7584,2966,-1,0,-1
-155.61,12.36,-68.64,1779,-7582,2971,0,0,-1
-155.61,12.36,-68.64,1781,-7583,2957,-1,0,-1
-155.60,12.36,-68.64,1782,-7584,2956,-1,0,-1
-155.60,12.37,-68.64,1789,-7593,2961,0,0,-1
-155.59,12.37,-68.64,1790,-7581,2960,0,0,-1
-155.59,12.37,-68.64,1792,-7578,2974,-1,0,0
-155.60,12.37,-68.65,1779,-7579,2960,-1,-1,0
-155.61,12.36,-68.65,1776,-7587,2959,-1,-1,-1
-155.59,12.37,-68.65,1793,-7588,2956,0,0,-1
-155.59,12.37,-68.64,1790,-7577,2959,0,0,0
-155.60,12.36,-68.63,1785,-7556,2979,-1,-1,0
-155.60,12.36,-68.64,1782,-7563,2979,-1,-1,0
-155.61,12.36,-68.65,1786,-7579,2961,-1,-1,0
-155.61,12.36,-68.65,1787,-7591,2956,-1,-1,0
-155.63,12.35,-68.65,1780,-7595,2947,0,0,0
-155.62,12.35,-68.65,1777,-7581,2950,0,0,0
-155.63,12.34,-68.65,1770,-7574,2959,0,-1,0
-155.63,12.34,-68.65,1776,-7572,2970,-1,-1,0
-155.64,12.34,-68.65,1788,-7577,2968,-1,-1,0
-155.65,12.34,-68.65,1788,-7579,2953,-1,-1,0
-155.66,12.33,-68.66,1783,-7582,2945,0,-1,0
-155.67,12.32,-68.66,1781,-7573,2956,-1,-1,0
-155.68,12.32,-68.67,1773,-7578,2945,-1,-1,0
-155.69,12.31,-68.67,1782,-7583,2943,0,0,0
-155.70,12.31,-68.68,1783,-7597,2946,0,-1,0
-155.69,12.30,-68.67,1772,-7581,2955,0,-1,0
-155.70,12.30,-68.67,1771,-7581,2951,-1,-1,0
-155.70,12.30,-68.68,1771,-7588,2946,-1,-1,0
-155.71,12.29,-68.68,1776,-7588,2940,0,-1,0
-155.71,12.29,-68.67,1780,-7577,2956,0,-1,0
-155.71,12.29,-68.67,1773,-7583,2971,-1,-1,0
-155.72,12.28,-68.66,1767,-7581,2981,0,-1,0
-155.72,12.29,-68.67,1771,-7579,2974,-1,-1,0
-155.72,12.28,-68.67,1777,-7578,2963,-1,-1,0
