Yaw,Pitch,Roll,AX,AY,AZ,GX,GY,GZ
-155.72,12.28,-68.68,1773,-7581,2959,-1,-1,0
-155.73,12.28,-68.68,1777,-7579,2954,-1,-1,0
-155.74,12.28,-68.69,1771,-7585,2948,-1,-1,0
-155.74,12.27,-68.69,1770,-7587,2948,0,-1,0
-155.75,12.27,-68.69,1763,-7595,2955,0,-1,0
-155.75,12.27,-68.69,1766,-7595,2958,0,0,0
-155.75,12.26,-68.69,1771,-7597,2960,-1,0,0
-155.76,12.26,-68.69,1765,-7591,2955,-1,-1,0
-155.76,12.26,-68.69,1769,-7593,2952,-1,-1,0
-155.77,12.26,-68.69,1777,-7597,2955,0,-1,0
-155.77,12.26,-68.69,1775,-7597,2963,-1,-1,0
-155.77,12.26,-68.70,1780,-7585,2954,0,0,0
-155.78,12.25,-68.70,1770,-7591,2958,-1,-1,0
-155.78,12.25,-68.70,1774,-7588,2957,-1,0,0
-155.78,12.25,-68.70,1764,-7588,2949,-1,-1,0
-155.79,12.24,-68.70,1766,-7586,2954,-1,-1,0
-155.79,12.24,-68.71,1770,-7583,2956,-1,-1,0
-155.80,12.24,-68.71,1765,-7588,2955,-1,-1,0
-155.81,12.23,-68.72,1770,-7601,2950,-1,-1,0
-155.80,12.23,-68.71,1773,-7592,2955,0,-1,0
-155.80,12.23,-68.71,1769,-7578,2953,0,-1,0
-155.81,12.23,-68.71,1775,-7578,2961,-1,-1,0
-155.81,12.23,-68.71,1776,-7586,2958,-1,-1,0
-155.82,12.22,-68.72,1768,-7599,2952,-1,-1,0
-155.83,12.22,-68.72,1768,-7597,2948,0,-1,0
-155.83,12.22,-68.72,1755,-7593,2942,0,0,0
-155.84,12.20,-68.72,1754,-7589,2950,0,-1,0
-155.83,12.21,-68.71,1762,-7583,2955,0,-1,-1
-155.83,12.21,-68.71,1771,-7578,2962,-1,-1,0
-155.84,12.21,-68.72,1777,-7584,2965,-1,-1,0
-155.85,12.20,-68.72,1773,-7584,2951,-1,-1,0
-155.85,12.20,-68.73,1770,-7582,2955,-1,-1,0
-155.85,12.20,-68.73,1766,-7588,2950,-1,-1,0
-155.86,12.20,-68.73,1768,-7589,2937,-1,-1,0
-155.86,12.20,-68.73,1770,-7598,2943,0,0,0
-155.85,12.20,-68.73,1770,-7586,2952,0,0,0
-155.86,12.19,-68.73,1760,-7599,2944,-1,0,0
-155.86,12.19,-68.73,1759,-7599,2947,-1,0,-1
-155.85,12.19,-68.73,1760,-7592,2952,0,0,-1
-155.85,12.19,-68.72,1765,-7588,2945,0,0,0
-155.85,12.19,-68.72,1764,-7590,2947,0,0,0
-155.85,12.18,-68.71,1760,-7584,2952,0,0,0
-155.85,12.18,-68.71,1760,-7585,2961,0,-1,0
-155.85,12.18,-68.70,1762,-7580,2964,-1,-1,0
-155.85,12.18,-68.70,1769,-7578,2968,-1,-1,0
-155.86,12.18,-68.71,1766,-7589,2965,-1,-1,0
-155.87,12.17,-68.72,1765,-7585,2950,-1,-1,0
-155.88,12.16,-68.72,1751,-7587,2939,0,-1,0
-155.89,12.16,-68.72,1754,-7593,2942,-1,-1,0
-155.89,12.15,-68.72,1752,-7591,2958,0,-1,0
-155.89,12.16,-68.72,1756,-7592,2956,0,-1,0
-155.89,12.16,-68.72,1757,-7589,2955,-1,-1,0
-155.90,12.15,-68.72,1748,-7587,2960,-1,-1,0
-155.91,12.15,-68.72,1748,-7589,2971,-1,-1,0
-155.91,12.15,-68.72,1755,-7590,2963,-1,-1,0
-155.91,12.15,-68.72,1754,-7591,2960,-1,-1,0
-155.91,12.14,-68.72,1751,-7595,2959,0,-1,0
-155.91,12.14,-68.72,1751,-7592,2963,-1,-1,0
-155.92,12.14,-68.72,1755,-7593,2951,0,0,0
-155.92,12.14,-68.72,1753,-7594,2962,-1,0,0
-155.93,12.13,-68.72,1753,-7601,2964,0,0,0
-155.94,12.12,-68.72,1746,-7592,2965,-1,-1,0
-155.94,12.13,-68.73,1747,-7592,2966,-1,-1,0
-155.94,12.12,-68.73,1756,-7602,2947,-1,-1,0
-155.94,12.12,-68.73,1755,-7601,2946,0,-1,-1
-155.93,12.13,-68.72,1760,-7592,2963,0,-1,0
-155.94,12.12,-68.71,1749,-7578,2976,-1,-1,0
-155.95,12.11,-68.72,1738,-7580,2965,-1,-1,0
-155.96,12.11,-68.73,1746,-7602,2963,-1,-1,0
-155.96,12.11,-68.73,1753,-7601,2957,0,-1,0
-155.96,12.11,-68.73,1746,-7598,2939,0,-1,0
-155.96,12.11,-68.73,1735,-7586,2936,0,-1,-1
-155.95,12.11,-68.72,1741,-7591,2955,0,-1,-1
-155.95,12.11,-68.72,1750,-7590,2968,-1,-1,-1
-155.95,12.11,-68.72,1756,-7590,2975,-1,-1,-1
-155.95,12.11,-68.72,1756,-7595,2973,0,-1,-1
-155.95,12.11,-68.72,1749,-7592,2967,-1,-1,0
-155.95,12.12,-68.72,1744,-7597,2966,-1,-1,0
-155.96,12.11,-68.73,1746,-7602,2957,-1,-1,0
-155.96,12.11,-68.72,1747,-7606,2956,0,-1,-1
-155.96,12.11,-68.72,1742,-7602,2955,0,0,-1
-155.96,12.11,-68.72,1742,-7594,2954,-1,-1,-1
-155.96,12.11,-68.73,1743,-7595,2949,-1,-1,-1
-155.96,12.11,-68.73,1751,-7591,2942,0,0,-1
-155.95,12.12,-68.72,1744,-7585,2946,0,-1,-1
-155.95,12.12,-68.73,1749,-7599,2949,0,0,0
-155.95,12.12,-68.72,1745,-7588,2948,0,0,-1
-155.95,12.12,-68.72,1742,-7594,2956,-1,0,-1
-155.94,12.12,-68.72,1749,-7591,2965,-1,0,-1
-155.94,12.12,-68.72,1752,-7588,2965,-1,-1,-1
-155.94,12.13,-68.72,1757,-7588,2956,-1,-1,0
-155.94,12.13,-68.73,1757,-7599,2954,-1,0,0
-155.94,12.13,-68.73,1760,-7600,2942,-1,0,-1
-155.95,12.13,-68.74,1749,-7601,2936,-1,-1,-1
-155.95,12.13,-68.74,1743,-7603,2933,-1,-1,-1
-155.95,12.13,-68.74,1753,-7600,2948,0,0,-1
-155.94,12.13,-68.74,1753,-7598,2945,0,0,-1
-155.94,12.13,-68.73,1749,-7593,2950,-1,0,-1
-155.93,12.14,-68.73,1753,-7592,2950,0,-1,-1
-155.93,12.14,-68.73,1755,-7595,2950,-1,-1,-1
-155.93,12.14,-68.73,1760,-7595,2950,0,0,-1
-155.92,12.15,-68.73,1758,-7594,2960,0,-1,-1
-155.92,12.15,-68.73,1752,-7594,2963,0,-1,-1
-155.92,12.15,-68.73,1748,-7589,2965,-1,-1,-1
-155.91,12.16,-68.72,1762,-7589,2959,-1,-1,-1
-155.91,12.16,-68.72,1748,-7590,2954,0,-1,-1
-155.92,12.15,-68.72,1746,-7591,2959,-1,0,0
-155.92,12.15,-68.73,1746,-7593,2960,-1,-1,-1
-155.91,12.16,-68.73,1747,-7595,2951,-1,-1,-1
-155.91,12.16,-68.73,1756,-7598,2947,0,-1,-1
-155.89,12.17,-68.72,1761,-7579,2958,0,0,-1
-155.89,12.17,-68.71,1762,-7568,2952,0,-1,0
-155.89,12.17,-68.72,1759,-7580,2958,-1,-1,0
-155.90,12.17,-68.73,1755,-7600,2951,-1,-1,-1
-155.90,12.17,-68.73,1758,-7612,2942,0,0,-1
-155.90,12.17,-68.73,1753,-7609,2941,0,0,-1
-155.89,12.18,-68.72,1752,-7593,2945,0,0,-1
-155.88,12.18,-68.71,1755,-7588,2962,0,0,-1
-155.88,12.18,-68.71,1761,-7579,2967,-1,0,-1
-155.87,12.19,-68.71,1763,-7586,2969,-1,-1,-1
-155.87,12.19,-68.71,1766,-7593,2962,-1,0,-1
-155.87,12.20,-68.72,1761,-7588,2949,-1,-1,-1
-155.87,12.20,-68.72,1756,-7581,2945,0,-1,-1
-155.87,12.20,-68.72,1754,-7583,2942,-1,-1,-1
-155.86,12.21,-68.72,1768,-7589,2940,0,0,-1
-155.86,12.20,-68.72,1764,-7598,2950,-1,0,-1
-155.86,12.20,-68.72,1763,-7590,2960,-1,0,0
-155.87,12.20,-68.73,1752,-7593,2942,-1,-1,0
-155.87,12.20,-68.73,1752,-7591,2945,0,0,-1
-155.86,12.21,-68.72,1763,-7596,2947,0,0,-1
-155.85,12.21,-68.72,1765,-7591,2956,0,0,-1
-155.84,12.21,-68.70,1764,-7590,2955,0,0,-1
-155.84,12.21,-68.70,1760,-7589,2964,-1,-1,-1
-155.84,12.21,-68.70,1763,-7584,2963,-1,-1,-1
-155.82,12.22,-68.70,1765,-7589,2968,-1,-1,-1
-155.83,12.22,-68.70,1755,-7587,2968,-1,-1,-1
-155.83,12.23,-68.70,1763,-7587,2960,-1,-1,-1
-155.83,12.23,-68.71,1768,-7583,2954,0,-1,-1
-155.83,12.23,-68.71,1764,-7590,2941,0,-1,-1
-155.82,12.23,-68.70,1764,-7592,2948,0,0,-1
-155.81,12.24,-68.70,1773,-7594,2952,0,0,-1
-155.81,12.24,-68.70,1769,-7590,2956,0,-1,-1
-155.80,12.24,-68.70,1764,-7589,2956,0,0,-1
-155.80,12.25,-68.69,1766,-7584,2962,0,0,-1
-155.79,12.25,-68.69,1764,-7584,2956,0,0,-1
-155.78,12.26,-68.69,1771,-7587,2952,-1,0,-1
-155.78,12.26,-68.69,1774,-7584,2950,0,-1,-1
-155.77,12.26,-68.69,1774,-7583,2953,0,0,-1
-155.77,12.26,-68.69,1768,-7584,2957,-1,0,-1
-155.77,12.27,-68.69,1765,-7588,2957,-1,-1,-1
-155.77,12.27,-68.69,1763,-7596,2946,0,-1,-1
-155.76,12.27,-68.68,1772,-7581,2955,0,0,-1
-155.75,12.28,-68.68,1779,-7574,2957,0,0,0
-155.75,12.27,-68.67,1781,-7573,2963,-1,0,0
-155.76,12.27,-68.68,1774,-7591,2956,-1,0,-1
-155.76,12.26,-68.68,1766,-7604,2958,-1,-1,-1
-155.75,12.27,-68.68,1771,-7606,2952,0,0,-1
-155.74,12.28,-68.67,1767,-7585,2951,0,0,-1
-155.73,12.28,-68.66,1769,-7577,2958,0,0,-1
-155.72,12.28,-68.65,1768,-7580,2971,-1,0,-1
-155.71,12.30,-68.65,1778,-7585,2979,-1,-1,-1
-155.71,12.30,-68.65,1779,-7579,2968,-1,-1,-1
-155.71,12.30,-68.66,1776,-7583,2968,-1,0,-1
-155.71,12.30,-68.66,1768,-7585,2961,-1,0,-1
-155.71,12.30,-68.66,1775,-7583,2958,-1,-1,-1
-155.70,12.31,-68.66,1772,-7583,2964,-1,0,-1
-155.70,12.31,-68.66,1774,-7588,2965,-1,-1,-1
-155.70,12.31,-68.67,1775,-7592,2953,-1,0,-1
-155.69,12.32,-68.67,1782,-7592,2955,0,0,-1
-155.69,12.32,-68.67,1784,-7589,2957,0,0,-1
-155.68,12.32,-68.66,1776,-7585,2961,0,0,-1
-155.68,12.32,-68.66,1771,-7588,2963,0,0,-1
-155.67,12.33,-68.65,1773,-7583,2967,0,0,-1
-155.66,12.33,-68.65,1779,-7579,2967,0,0,-1
-155.66,12.33,-68.65,1780,-7577,2956,-1,-1,-1
-155.66,12.33,-68.66,1777,-7578,2953,-1,-1,-1
-155.67,12.34,-68.67,1788,-7585,2957,-1,0,-1
-155.66,12.34,-68.67,1778,-7583,2958,-1,-1,-1
-155.66,12.34,-68.67,1781,-7577,2945,0,0,-1
-155.66,12.34,-68.67,1781,-7581,2946,0,-1,-1
-155.65,12.35,-68.67,1779,-7584,2957,0,0,-1
-155.65,12.35,-68.66,1793,-7584,2952,0,0,-1
-155.64,12.35,-68.66,1786,-7586,2967,-1,0,-1
-155.63,12.36,-68.65,1789,-7582,2965,0,0,-1
-155.63,12.36,-68.65,1779,-7572,2964,-1,-1,-1
-155.63,12.36,-68.65,1787,-7576,2966,0,0,-1
-155.62,12.36,-68.65,1783,-7579,2958,-1,0,-1
-155.62,12.36,-68.65,1786,-7569,2970,-1,0,0
-155.62,12.36,-68.65,1781,-7575,2975,-1,-1,0
-155.63,12.36,-68.66,1786,-7581,2961,-1,-1,-1
-155.62,12.37,-68.66,1787,-7587,2951,0,0,-1
-155.62,12.36,-68.65,1794,-7576,2964,0,0,-1
-155.61,12.37,-68.65,1790,-7564,2971,-1,0,0
-155.62,12.36,-68.65,1781,-7568,2967,-1,-1,0
-155.63,12.36,-68.66,1778,-7593,2952,-1,-1,-1
-155.63,12.36,-68.66,1780,-7601,2946,0,0,-1
-155.62,12.36,-68.66,1781,-7597,2954,0,0,-1
-155.62,12.36,-68.65,1778,-7586,2964,0,0,-1
-155.62,12.36,-68.65,1783,-7575,2975,0,0,-1
-155.62,12.36,-68.65,1789,-7571,2980,-1,-1,0
-155.62,12.36,-68.65,1788,-7572,2986,-1,-1,0
-155.62,12.36,-68.65,1787,-7579,2978,-1,-1,0
-155.63,12.35,-68.65,1777,-7578,2968,-1,-1,0
-155.64,12.35,-68.66,1782,-7576,2957,-1,-1,0
-155.65,12.34,-68.67,1786,-7575,2950,-1,-1,0
-155.65,12.34,-68.67,1785,-7586,2945,0,0,0
-155.66,12.34,-68.67,1778,-7582,2954,0,-1,0
-155.66,12.33,-68.67,1777,-7582,2957,0,-1,0
-155.66,12.33,-68.66,1783,-7581,2959,-1,-1,0
-155.67,12.33,-68.66,1784,-7588,2957,0,0,0
-155.67,12.32,-68.66,1782,-7583,2953,-1,0,0
-155.67,12.32,-68.66,1790,-7583,2964,0,0,0
-155.67,12.32,-68.65,1780,-7572,2975,-1,-1,0
-155.68,12.32,-68.65,1781,-7571,2971,-1,-1,0
-155.68,12.31,-68.66,1788,-7568,2972,-1,-1,0
-155.69,12.31,-68.67,1784,-7566,2961,-1,-1,0
-155.70,12.31,-68.67,1785,-7578,2956,-1,-1,0
-155.71,12.31,-68.68,1784,-7582,2970,-1,-1,0
-155.71,12.30,-68.68,1782,-7583,2962,0,0,0
-155.72,12.30,-68.67,1784,-7590,2961,0,-1,0
-155.72,12.30,-68.67,1785,-7589,2969,0,0,0
-155.72,12.29,-68.67,1778,-7578,2965,-1,-1,0
-155.72,12.29,-68.67,1782,-7577,2973,-1,-1,0
-155.73,12.29,-68.67,1788,-7579,2961,0,-1,0
-155.73,12.29,-68.67,1789,-7579,2965,-1,-1,0
-155.74,12.28,-68.68,1784,-7581,2957,-1,-1,0
-155.75,12.28,-68.68,1790,-7577,2951,-1,-1,0
-155.75,12.28,-68.68,1790,-7575,2949,0,-1,0
-155.75,12.28,-68.68,1792,-7576,2959,-1,-1,0
-155.76,12.27,-68.69,1779,-7578,2966,-1,-1,0
-155.77,12.27,-68.70,1775,-7586,2953,-1,-1,0
-155.78,12.26,-68.70,1771,-7589,2949,-1,-1,0
-155.78,12.26,-68.70,1780,-7586,2953,0,-1,0
-155.77,12.26,-68.69,1779,-7575,2963,0,0,0
-155.78,12.26,-68.69,1779,-7559,2960,0,0,0
-155.79,12.25,-68.69,1774,-7571,2970,-1,-1,0
-155.80,12.25,-68.70,1778,-7589,2954,-1,-1,0
-155.81,12.24,-68.71,1772,-7592,2957,0,-1,0
-155.81,12.23,-68.70,1778,-7583,2952,0,0,0
-155.81,12.23,-68.70,1768,-7584,2943,0,-1,0
-155.82,12.23,-68.70,1768,-7587,2952,0,-1,0
-155.82,12.23,-68.70,1771,-7585,2957,0,-1,0
-155.83,12.23,-68.70,1778,-7590,2965,-1,-1,0
-155.83,12.23,-68.70,1776,-7580,2967,-1,-1,0
-155.84,12.21,-68.70,1774,-7581,2958,-1,-1,0
-155.84,12.21,-68.71,1772,-7582,2956,-1,-1,0
-155.85,12.21,-68.72,1768,-7584,2948,-1,-1,0
-155.86,12.21,-68.72,1775,-7595,2949,0,-1,0
-155.86,12.21,-68.72,1781,-7593,2953,0,-1,0
-155.87,12.20,-68.72,1778,-7584,2957,0,0,0
-155.88,12.19,-68.72,1763,-7586,2954,-1,-1,0
-155.87,12.19,-68.72,1768,-7586,2965,0,-1,0
-155.88,12.19,-68.72,1777,-7591,2955,0,-1,0
-155.88,12.19,-68.72,1774,-7592,2947,-1,-1,0
-155.89,12.18,-68.72,1773,-7596,2964,0,-1,0
-155.89,12.18,-68.72,1761,-7589,2950,0,-1,0
-155.89,12.18,-68.72,1758,-7592,2952,-1,-1,0
-155.90,12.17,-68.72,1758,-7591,2956,0,-1,0
-155.91,12.17,-68.73,1766,-7594,2951,0,0,0
-155.91,12.16,-68.72,1763,-7587,2968,-1,0,0
-155.93,12.15,-68.73,1766,-7597,2963,-1,0,0
-155.94,12.14,-68.73,1761,-7590,2954,-1,-1,0
-155.95,12.14,-68.73,1763,-7596,2944,0,-1,0
-155.96,12.13,-68.73,1758,-7594,2950,0,-1,0
-155.95,12.13,-68.72,1770,-7596,2949,0,-1,0
-155.96,12.12,-68.72,1771,-7589,2948,0,0,0
-155.97,12.11,-68.72,1746,-7593,2945,0,0,0
-155.97,12.12,-68.72,1763,-7596,2957,0,-1,0
-155.97,12.10,-68.71,1754,-7583,2955,0,0,0
-155.98,12.10,-68.71,1756,-7576,2965,0,0,0
-155.99,12.09,-68.72,1743,-7585,2959,-1,-1,0
-155.99,12.09,-68.71,1753,-7571,2963,-1,-1,0
-156.00,12.09,-68.71,1758,-7581,2958,0,0,0
-156.00,12.08,-68.71,1747,-7575,2976,-1,-1,0
-156.01,12.08,-68.72,1759,-7586,2958,-1,-1,0
-156.01,12.08,-68.72,1758,-7599,2948,-1,-1,0
-156.01,12.08,-68.72,1775,-7596,2937,0,0,0
-156.02,12.07,-68.72,1765,-7579,2948,-1,-1,0
-156.03,12.07,-68.72,1750,-7574,2955,-1,-1,0
-156.03,12.07,-68.72,1744,-7576,2955,-1,-1,0
-156.04,12.06,-68.73,1739,-7583,2949,-1,-1,0
-156.05,12.05,-68.73,1747,-7593,2950,0,-1,0
-156.05,12.05,-68.73,1740,-7586,2942,0,0,0
-156.05,12.05,-68.72,1739,-7592,2962,-1,0,0
-156.04,12.05,-68.72,1743,-7599,2971,0,0,0
-156.05,12.05,-68.72,1744,-7592,2969,-1,-1,0
-156.05,12.05,-68.73,1750,-7585,2963,-1,-1,0
-156.06,12.04,-68.73,1750,-7589,2956,-1,-1,0
-156.06,12.04,-68.73,1758,-7585,2967,-1,-1,0
-156.07,12.04,-68.73,1757,-7585,2966,-1,-1,0
-156.08,12.03,-68.74,1747,-7597,2954,-1,-1,0
-156.09,12.03,-68.74,1749,-7597,2952,0,-1,0
-156.09,12.02,-68.73,1748,-7597,2951,-1,-1,0
-156.09,12.02,-68.73,1747,-7599,2962,-1,-1,0
-156.09,12.02,-68.73,1742,-7588,2956,-1,-1,0
-156.10,12.02,-68.74,1753,-7595,2937,0,-1,0
-156.10,12.01,-68.74,1746,-7598,2939,0,-1,0
-156.10,12.01,-68.72,1742,-7593,2961,0,0,0
-156.10,12.02,-68.72,1744,-7592,2972,0,-1,0
-156.10,12.01,-68.71,1739,-7586,2962,0,-1,0
-156.10,12.02,-68.72,1752,-7578,2956,-1,-1,-1
-156.10,12.02,-68.72,1752,-7588,2948,-1,-1,0
-156.10,12.02,-68.73,1755,-7588,2958,-1,-1,0
-156.11,12.01,-68.73,1742,-7590,2947,-1,-1,0
-156.11,12.02,-68.74,1739,-7596,2946,-1,-1,0
-156.11,12.02,-68.74,1744,-7607,2944,0,-1,-1
-156.11,12.02,-68.74,1743,-7597,2950,0,-1,-1
-156.11,12.02,-68.73,1746,-7599,2955,0,-1,-1
-156.09,12.03,-68.73,1746,-7588,2967,0,-1,-1
-156.09,12.03,-68.73,1754,-7593,2963,0,-1,-1
-156.09,12.03,-68.72,1748,-7583,2967,0,-1,-1
-156.09,12.04,-68.72,1744,-7603,2957,-1,-1,-1
-156.08,12.04,-68.72,1743,-7601,2958,0,0,-1
-156.08,12.04,-68.72,1746,-7599,2950,0,-1,-1
-156.08,12.04,-68.71,1752,-7589,2960,0,-1,0
-156.07,12.05,-68.71,1751,-7590,2965,-1,-1,-1
-156.07,12.05,-68.70,1757,-7593,2965,0,0,-1
-156.06,12.05,-68.70,1760,-7590,2963,0,0,-1
-156.06,12.05,-68.70,1746,-7575,2971,-1,0,-1
-156.06,12.06,-68.70,1750,-7577,2951,0,-1,-1
-156.06,12.06,-68.71,1761,-7593,2940,-1,0,-1
-156.05,12.07,-68.70,1754,-7595,2963,0,-1,-1
-156.03,12.08,-68.69,1757,-7579,2951,0,0,-1
-156.03,12.08,-68.69,1760,-7568,2969,-1,-1,-1
-156.04,12.08,-68.70,1755,-7579,2955,-1,-1,0
-156.04,12.08,-68.71,1753,-7597,2942,0,-1,0
-156.04,12.08,-68.70,1759,-7603,2948,0,0,-1
-156.03,12.08,-68.69,1749,-7596,2962,0,0,-1
-156.03,12.08,-68.68,1734,-7581,2966,0,0,-1
-156.01,12.09,-68.67,1736,-7575,2976,-1,-1,-1
-156.01,12.09,-68.68,1748,-7572,2978,-1,-1,-1
-156.01,12.10,-68.68,1759,-7589,2972,-1,0,-1
-156.01,12.10,-68.68,1760,-7584,2965,-1,-1,-1
-156.00,12.10,-68.68,1759,-7585,2973,-1,0,-1
-156.00,12.10,-68.69,1756,-7582,2964,-1,-1,-1
-156.00,12.11,-68.69,1759,-7584,2952,-1,-1,-1
-156.00,12.11,-68.70,1761,-7588,2953,-1,0,-1
-156.00,12.11,-68.70,1765,-7596,2955,-1,0,0
-156.00,12.11,-68.70,1761,-7586,2951,-1,0,0
-156.00,12.11,-68.70,1750,-7587,2944,-1,-1,-1
-156.00,12.12,-68.71,1755,-7590,2956,-1,-1,-1
-156.00,12.12,-68.71,1758,-7594,2949,0,0,-1
-155.99,12.12,-68.70,1759,-7595,2957,0,0,-1
-155.99,12.12,-68.70,1763,-7601,2971,0,0,-1
-155.98,12.13,-68.70,1755,-7595,2974,-1,0,-1
-155.98,12.13,-68.70,1757,-7592,2975,-1,-1,-1
-155.98,12.13,-68.70,1755,-7589,2973,-1,-1,-1
-155.97,12.14,-68.70,1756,-7587,2975,-1,0,-1
-155.97,12.14,-68.70,1759,-7587,2965,-1,-1,-1
-155.97,12.14,-68.71,1758,-7586,2957,-1,-1,0
-155.97,12.14,-68.71,1760,-7584,2951,-1,-1,-1
-155.97,12.14,-68.71,1762,-7580,2951,-1,-1,-1
-155.97,12.15,-68.71,1771,-7590,2949,0,0,-1
-155.96,12.15,-68.70,1769,-7580,2956,0,0,-1
-155.96,12.15,-68.70,1764,-7583,2960,0,-1,-1
-155.95,12.16,-68.70,1766,-7587,2968,0,0,-1
-155.95,12.16,-68.69,1771,-7586,2976,0,-1,-1
-155.95,12.16,-68.69,1769,-7578,2975,-1,-1,-1
-155.94,12.17,-68.69,1776,-7577,2959,-1,-1,-1
-155.94,12.17,-68.69,1773,-7577,2968,0,0,0
-155.94,12.17,-68.69,1763,-7577,2968,-1,0,-1
-155.94,12.17,-68.69,1766,-7586,2968,-1,-1,-1
-155.94,12.17,-68.70,1767,-7599,2949,-1,-1,-1
-155.93,12.18,-68.70,1774,-7603,2950,0,-1,-1
-155.92,12.19,-68.69,1783,-7590,2959,0,-1,-1
-155.92,12.18,-68.68,1787,-7569,2976,0,0,0
-155.92,12.18,-68.68,1770,-7572,2977,-1,0,0
-155.93,12.18,-68.69,1757,-7593,2967,-1,-1,-1
-155.93,12.18,-68.69,1770,-7609,2968,0,0,-1
-155.92,12.19,-68.68,1770,-7602,2948,0,0,-1
-155.91,12.19,-68.68,1777,-7585,2954,0,0,-1
-155.91,12.19,-68.67,1762,-7574,2966,0,0,-1
-155.89,12.20,-68.66,1758,-7564,2984,-1,-1,-1
-155.89,12.21,-68.67,1779,-7567,2980,-1,-1,-1
-155.88,12.21,-68.66,1781,-7575,2971,-1,0,-1
-155.88,12.22,-68.67,1784,-7577,2964,0,0,-1
-155.88,12.21,-68.67,1775,-7574,2979,-1,0,-1
-155.87,12.22,-68.67,1778,-7585,2964,0,0,-1
-155.87,12.22,-68.67,1772,-7583,2962,-1,-1,-1
-155.87,12.23,-68.67,1775,-7581,2956,-1,0,-1
-155.87,12.22,-68.67,1775,-7587,2960,-1,0,0
-155.87,12.22,-68.67,1774,-7590,2948,-1,0,-1
-155.86,12.23,-68.68,1779,-7587,2941,0,0,-1
-155.85,12.23,-68.67,1779,-7593,2952,0,0,-1
-155.85,12.23,-68.67,1778,-7587,2965,0,0,-1
-155.84,12.25,-68.66,1777,-7572,2988,0,0,-1
-155.83,12.25,-68.66,1778,-7577,2976,-1,0,-1
-155.83,12.25,-68.65,1777,-7573,2975,-1,-1,-1
-155.83,12.26,-68.66,1778,-7584,2971,-1,-1,-1
-155.83,12.26,-68.66,1776,-7592,2966,-1,-1,-1
-155.83,12.26,-68.67,1779,-7588,2963,-1,0,-1
-155.82,12.27,-68.67,1783,-7588,2967,0,-1,-1
-155.82,12.27,-68.67,1778,-7592,2957,0,0,-1
-155.82,12.27,-68.67,1779,-7587,2953,0,0,-1
-155.81,12.27,-68.66,1780,-7584,2954,0,0,-1
-155.81,12.27,-68.66,1783,-7590,2948,0,0,-1
-155.80,12.28,-68.67,1779,-7584,2948,-1,0,-1
-155.80,12.29,-68.66,1784,-7584,2963,0,0,-1
-155.80,12.29,-68.66,1780,-7582,2966,0,0,-1
-155.78,12.30,-68.66,1786,-7574,2974,-1,0,-1
-155.78,12.30,-68.66,1785,-7574,2969,-1,0,-1
-155.78,12.30,-68.66,1780,-7571,2971,-1,0,-1
-155.78,12.29,-68.66,1780,-7570,2967,-1,-1,-1
-155.78,12.30,-68.67,1787,-7584,2943,-1,0,-1
-155.78,12.31,-68.68,1785,-7595,2934,0,0,-1
-155.77,12.31,-68.66,1791,-7578,2952,0,0,-1
-155.76,12.31,-68.66,1791,-7569,2959,0,0,-1
-155.75,12.32,-68.65,1786,-7562,2967,-1,0,0
-155.76,12.31,-68.66,1786,-7586,2958,-1,0,-1
-155.75,12.32,-68.66,1785,-7592,2962,-1,0,-1
-155.75,12.32,-68.66,1788,-7583,2952,0,0,-1
-155.74,12.32,-68.66,1790,-7580,2948,0,0,-1
-155.74,12.32,-68.65,1790,-7582,2960,0,0,-1
-155.73,12.33,-68.65,1791,-7580,2971,0,0,-1
-155.73,12.33,-68.64,1794,-7584,2973,-1,-1,0
-155.74,12.32,-68.65,1799,-7584,2972,-1,0,0
-155.74,12.32,-68.65,1787,-7589,2961,-1,-1,0
-155.74,12.32,-68.65,1792,-7581,2958,-1,-1,0
-155.76,12.31,-68.66,1782,-7572,2961,-1,-1,0
-155.76,12.31,-68.66,1793,-7574,2962,-1,-1,0
-155.76,12.31,-68.66,1784,-7580,2959,0,-1,0
-155.76,12.31,-68.66,1802,-7586,2962,0,-1,0
-155.76,12.31,-68.66,1796,-7583,2953,0,-1,0
-155.77,12.30,-68.65,1779,-7570,2958,0,-1,0
-155.78,12.29,-68.65,1785,-7571,2956,-1,-1,0
-155.78,12.30,-68.66,1786,-7578,2959,-1,-1,0
-155.78,12.30,-68.66,1784,-7581,2960,0,-1,0
-155.78,12.30,-68.66,1789,-7576,2966,0,-1,0
-155.78,12.30,-68.65,1787,-7575,2983,-1,-1,0
-155.79,12.30,-68.66,1783,-7573,2977,-1,-1,0
-155.80,12.30,-68.67,1785,-7579,2965,-1,-1,0
-155.80,12.29,-68.67,1790,-7589,2945,-1,-1,0
-155.81,12.29,-68.68,1789,-7585,2940,-1,-1,0
-155.82,12.28,-68.68,1790,-7574,2940,0,0,0
-155.82,12.28,-68.68,1784,-7586,2954,-1,0,0
-155.82,12.28,-68.68,1783,-7583,2959,0,0,0
-155.83,12.27,-68.68,1785,-7581,2952,0,-1,0
-155.83,12.27,-68.68,1779,-7573,2964,0,-1,0
-155.84,12.26,-68.67,1775,-7573,2957,0,-1,0
-155.84,12.26,-68.67,1784,-7567,2961,-1,-1,0
-155.84,12.26,-68.67,1791,-7568,2966,-1,-1,0
-155.85,12.26,-68.68,1788,-7572,2967,0,-1,0
-155.86,12.25,-68.68,1786,-7576,2959,0,-1,0
-155.86,12.25,-68.67,1787,-7584,2963,-1,-1,0
-155.87,12.24,-68.68,1771,-7580,2948,-1,-1,0
-155.88,12.23,-68.68,1770,-7579,2961,0,-1,0
-155.88,12.23,-68.68,1780,-7582,2956,0,-1,0
-155.89,12.23,-68.68,1775,-7586,2965,-1,0,0
-155.90,12.22,-68.69,1768,-7588,2953,0,-1,0
-155.91,12.22,-68.69,1771,-7596,2963,-1,-1,0
-155.91,12.21,-68.70,1776,-7604,2950,0,-1,0
-155.91,12.21,-68.69,1787,-7588,2959,0,0,0
-155.92,12.21,-68.69,1780,-7572,2963,-1,-1,0
-155.92,12.20,-68.69,1778,-7575,2968,-1,-1,0
-155.93,12.20,-68.69,1775,-7588,2968,-1,-1,0
-155.93,12.20,-68.69,1774,-7591,2956,0,-1,0
-155.94,12.19,-68.70,1770,-7582,2954,0,0,0
-155.94,12.19,-68.69,1764,-7587,2964,-1,0,0
-155.94,12.19,-68.69,1766,-7587,2969,0,0,0
-155.94,12.19,-68.69,1766,-7585,2983,-1,-1,0
-155.94,12.19,-68.69,1768,-7590,2975,-1,-1,0
-155.95,12.19,-68.70,1771,-7594,2964,-1,-1,0
-155.95,12.18,-68.70,1771,-7591,2972,-1,-1,0
-155.96,12.18,-68.70,1769,-7584,2973,-1,-1,0
-155.97,12.18,-68.71,1777,-7587,2962,-1,-1,0
-155.98,12.17,-68.71,1771,-7588,2957,-1,-1,0
-155.98,12.17,-68.71,1777,-7593,2957,-1,-1,0
-155.99,12.16,-68.71,1767,-7592,2964,-1,-1,0
-155.99,12.16,-68.71,1767,-7585,2955,-1,-1,0
-155.99,12.16,-68.72,1771,-7592,2947,0,-1,0
-155.99,12.16,-68.72,1776,-7592,2944,0,0,0
-156.00,12.15,-68.71,1776,-7586,2954,0,-1,0
-156.00,12.15,-68.71,1770,-7581,2957,0,0,0
-156.00,12.15,-68.71,1765,-7581,2958,0,-1,0
-156.00,12.15,-68.71,1766,-7578,2966,-1,-1,0
-156.01,12.15,-68.71,1767,-7579,2957,-1,-1,0
-156.02,12.14,-68.72,1763,-7589,2958,-1,-1,0
-156.03,12.14,-68.72,1764,-7590,2960,-1,-1,0
-156.03,12.14,-68.72,1764,-7587,2963,-1,-1,0
-156.04,12.13,-68.73,1763,-7581,2952,0,0,0
-156.04,12.13,-68.73,1761,-7592,2954,-1,-1,0
-156.05,12.12,-68.73,1758,-7598,2946,0,0,0
-156.05,12.12,-68.73,1762,-7593,2949,0,0,0
-156.05,12.12,-68.73,1761,-7583,2948,0,0,0
-156.06,12.12,-68.74,1760,-7582,2953,0,-1,0
-156.06,12.12,-68.74,1771,-7582,2956,0,-1,0
-156.06,12.12,-68.73,1764,-7577,2953,-1,0,0
-156.07,12.11,-68.74,1760,-7578,2950,-1,-1,0
-156.07,12.10,-68.74,1756,-7581,2958,-1,-1,0
-156.07,12.11,-68.74,1761,-7596,2953,0,0,0
-156.08,12.10,-68.74,1757,-7589,2956,-1,-1,0
-156.09,12.10,-68.74,1757,-7585,2956,0,-1,0
-156.09,12.10,-68.74,1762,-7584,2954,-1,-1,0
-156.09,12.09,-68.74,1760,-7581,2953,0,-1,0
-156.09,12.09,-68.74,1753,-7589,2949,-1,-1,0
-156.10,12.09,-68.74,1762,-7592,2964,-1,-1,0
-156.11,12.08,-68.74,1753,-7592,2959,-1,-1,0
-156.11,12.08,-68.75,1750,-7599,2960,-1,-1,0
-156.12,12.08,-68.76,1751,-7600,2948,-1,-1,0
-156.12,12.08,-68.75,1756,-7603,2950,0,-1,0
-156.11,12.08,-68.75,1760,-7573,2957,0,-1,0
-156.12,12.08,-68.75,1759,-7577,2957,-1,-1,0
-156.13,12.07,-68.75,1756,-7589,2973,-1,0,0
-156.14,12.07,-68.76,1760,-7608,2947,-1,0,0
-156.14,12.06,-68.76,1749,-7603,2940,0,0,0
-156.15,12.06,-68.76,1749,-7604,2938,0,0,0
-156.14,12.06,-68.76,1745,-7596,2937,0,0,-1
-156.14,12.06,-68.75,1745,-7593,2948,0,0,-1
-156.14,12.06,-68.75,1753,-7586,2954,-1,-1,0
-156.15,12.05,-68.75,1754,-7586,2952,-1,-1,0
-156.15,12.05,-68.76,1751,-7586,2943,-1,-1,0
-156.15,12.05,-68.76,1755,-7585,2952,-1,-1,0
-156.15,12.06,-68.76,1752,-7588,2953,-1,-1,0
-156.16,12.05,-68.77,1757,-7591,2936,-1,-1,0
-156.16,12.05,-68.77,1758,-7595,2941,0,-1,0
-156.17,12.05,-68.77,1753,-7597,2947,0,-1,0
-156.16,12.05,-68.76,1747,-7593,2953,0,-1,0
-156.16,12.05,-68.76,1751,-7592,2952,0,-1,-1
-156.16,12.05,-68.76,1756,-7600,2956,0,-1,0
-156.16,12.05,-68.75,1750,-7593,2960,0,0,0
-156.15,12.06,-68.75,1754,-7590,2951,0,-1,-1
-156.16,12.05,-68.75,1748,-7588,2955,0,-1,-1
-156.15,12.05,-68.74,1745,-7583,2966,0,-1,-1
-156.15,12.06,-68.74,1751,-7584,2964,-1,-1,-1
-156.15,12.07,-68.74,1761,-7589,2973,-1,-1,-1
-156.15,12.07,-68.75,1756,-7585,2960,-1,-1,0
-156.15,12.07,-68.75,1755,-7586,2958,-1,0,0
-156.15,12.07,-68.75,1760,-7588,2949,-1,-1,-1
-156.15,12.07,-68.75,1756,-7591,2951,0,0,-1
-156.14,12.08,-68.74,1760,-7596,2967,0,0,-1
-156.13,12.08,-68.74,1753,-7606,2957,0,0,-1
-156.13,12.08,-68.74,1748,-7587,2963,0,0,-1
-156.12,12.08,-68.73,1749,-7576,2970,0,0,-1
-156.12,12.09,-68.72,1751,-7579,2951,0,0,-1
-156.11,12.09,-68.72,1757,-7581,2950,0,-1,-1
-156.11,12.10,-68.72,1770,-7586,2961,-1,0,-1
-156.10,12.10,-68.72,1762,-7592,2958,0,0,-1
-156.10,12.10,-68.72,1759,-7589,2961,0,-1,-1
-156.10,12.11,-68.72,1759,-7586,2970,-1,-1,-1
-156.10,12.10,-68.71,1762,-7584,2968,0,0,-1
-156.10,12.11,-68.72,1754,-7591,2956,-1,-1,-1
-156.10,12.11,-68.72,1754,-7591,2960,0,-1,-1
-156.09,12.11,-68.72,1756,-7589,2961,0,-1,0
-156.09,12.11,-68.71,1765,-7590,2967,0,0,-1
-156.08,12.12,-68.70,1763,-7581,2969,0,0,-1
-156.08,12.12,-68.70,1762,-7577,2970,0,0,0
-156.08,12.12,-68.70,1750,-7580,2974,0,-1,0
-156.08,12.12,-68.70,1748,-7586,2971,-1,-1,-1
-156.08,12.12,-68.70,1760,-7589,2972,0,-1,-1
-156.07,12.13,-68.69,1772,-7586,2960,0,0,-1
-156.06,12.13,-68.68,1767,-7569,2969,0,-1,0
-156.07,12.12,-68.68,1763,-7575,2968,-1,-1,0
-156.07,12.12,-68.68,1765,-7580,2963,-1,-1,0
-156.07,12.12,-68.69,1764,-7591,2953,-1,0,0
-156.07,12.12,-68.69,1750,-7594,2950,0,0,-1
-156.07,12.12,-68.68,1754,-7586,2959,0,0,-1
-156.06,12.12,-68.67,1734,-7576,2957,0,0,-1
-156.06,12.12,-68.67,1746,-7568,2963,-1,-1,-1
-156.05,12.13,-68.67,1759,-7577,2975,0,0,-1
-156.04,12.14,-68.67,1778,-7578,2979,-1,0,-1
-156.04,12.14,-68.67,1778,-7585,2974,-1,0,-1
-156.04,12.14,-68.67,1759,-7573,2978,-1,-1,-1
-156.04,12.14,-68.68,1758,-7578,2964,-1,-1,-1
-156.04,12.15,-68.69,1764,-7583,2954,0,-1,-1
-156.03,12.15,-68.68,1765,-7584,2952,-1,0,-1
-156.03,12.16,-68.68,1771,-7577,2963,-1,0,-1
-156.02,12.16,-68.68,1764,-7573,2963,-1,-1,-1
-156.03,12.16,-68.69,1763,-7578,2954,-1,0,-1
-156.02,12.16,-68.69,1770,-7583,2955,-1,0,-1
-156.02,12.17,-68.69,1775,-7593,2941,0,0,-1
-156.01,12.17,-68.68,1774,-7585,2956,0,0,-1
-156.00,12.18,-68.68,1766,-7579,2966,0,-1,-1
-156.00,12.18,-68.68,1769,-7589,2974,-1,-1,-1
-156.00,12.18,-68.68,1771,-7586,2982,-1,-1,-1
-155.99,12.19,-68.68,1770,-7584,2982,-1,-1,-1
-155.99,12.19,-68.68,1764,-7585,2978,-1,-1,-1
-155.99,12.20,-68.68,1766,-7580,2969,-1,-1,-1
-155.98,12.20,-68.68,1768,-7581,2964,-1,0,-1
-155.98,12.20,-68.68,1769,-7577,2966,0,-1,-1
-155.98,12.20,-68.67,1771,-7585,2962,0,0,-1
-155.96,12.21,-68.67,1779,-7586,2962,0,0,-1
-155.96,12.21,-68.67,1783,-7587,2970,0,0,-1
-155.95,12.22,-68.67,1777,-7587,2965,0,-1,-1
-155.95,12.22,-68.67,1775,-7584,2970,0,0,-1
-155.95,12.23,-68.66,1771,-7577,2971,-1,0,-1
-155.94,12.23,-68.66,1776,-7569,2977,-1,-1,-1
-155.93,12.23,-68.66,1775,-7574,2969,-1,0,-1
-155.93,12.24,-68.66,1774,-7579,2961,-1,-1,-1
-155.93,12.25,-68.66,1774,-7574,2970,0,-1,-1
-155.92,12.25,-68.66,1782,-7579,2970,-1,-1,-1
-155.92,12.26,-68.66,1784,-7581,2962,-1,0,-1
-155.91,12.26,-68.66,1783,-7599,2958,-1,-1,-1
-155.90,12.27,-68.66,1796,-7589,2961,0,0,-1
-155.88,12.28,-68.65,1796,-7575,2971,0,0,-1
-155.88,12.28,-68.65,1792,-7566,2977,-1,0,-1
-155.89,12.28,-68.66,1782,-7581,2963,-1,-1,-1
-155.88,12.28,-68.66,1783,-7589,2962,-1,0,-1
-155.87,12.29,-68.66,1788,-7590,2956,0,0,-1
-155.87,12.29,-68.66,1781,-7586,2959,0,0,-1
-155.86,12.30,-68.66,1774,-7577,2961,0,0,-1
-155.85,12.31,-68.66,1779,-7580,2974,-1,0,-1
-155.84,12.31,-68.65,1778,-7586,2974,-1,0,-1
-155.83,12.32,-68.65,1781,-7590,2966,-1,-1,-1
-155.83,12.32,-68.66,1786,-7582,2969,-1,0,-1
-155.83,12.32,-68.65,1784,-7580,2963,0,0,-1
-155.83,12.33,-68.66,1779,-7579,2960,-1,-1,-1
-155.83,12.33,-68.66,1782,-7579,2947,-1,-1,-1
-155.82,12.34,-68.66,1788,-7577,2949,0,0,-1
-155.82,12.34,-68.66,1792,-7573,2953,-1,0,-1
-155.81,12.34,-68.66,1788,-7566,2962,-1,-1,-1
-155.81,12.34,-68.67,1786,-7581,2952,-1,0,-1
-155.80,12.35,-68.67,1792,-7575,2954,0,0,-1
-155.80,12.36,-68.66,1788,-7575,2949,0,0,-1
-155.79,12.36,-68.66,1792,-7577,2957,0,0,-1
-155.78,12.37,-68.65,1794,-7576,2971,0,0,-1
-155.77,12.37,-68.65,1797,-7571,2972,-1,0,-1
-155.77,12.37,-68.66,1798,-7574,2966,-1,0,-1
-155.77,12.38,-68.66,1796,-7580,2966,-1,0,-1
-155.77,12.38,-68.66,1789,-7592,2958,-1,0,-1
-155.77,12.38,-68.66,1799,-7586,2957,0,0,0
-155.77,12.38,-68.66,1797,-7581,2947,-1,0,0
-155.77,12.38,-68.66,1791,-7580,2958,-1,-1,0
-155.77,12.38,-68.66,1793,-7582,2956,0,0,-1
-155.76,12.38,-68.66,1788,-7595,2962,-1,0,-1
-155.75,12.38,-68.65,1796,-7598,2956,0,0,-1
-155.76,12.38,-68.65,1784,-7580,2960,-1,-1,-1
-155.75,12.38,-68.65,1791,-7575,2967,-1,-1,-1
-155.75,12.39,-68.66,1793,-7584,2959,-1,-1,-1
-155.75,12.39,-68.66,1801,-7588,2954,0,0,-1
-155.75,12.39,-68.66,1797,-7592,2957,0,0,0
-155.75,12.39,-68.66,1784,-7582,2965,-1,-1,0
-155.75,12.38,-68.65,1794,-7563,2974,-1,-1,0
-155.77,12.38,-68.67,1792,-7570,2961,-1,-1,0
-155.78,12.38,-68.68,1791,-7581,2944,0,-1,0
-155.77,12.38,-68.67,1789,-7580,2937,0,-1,-1
-155.77,12.38,-68.66,1787,-7569,2951,0,-1,0
-155.77,12.38,-68.66,1783,-7559,2963,-1,-1,0
-155.78,12.38,-68.67,1789,-7562,2960,-1,-1,0
-155.79,12.37,-68.68,1788,-7573,2956,-1,-1,0
-155.79,12.37,-68.67,1789,-7577,2952,0,-1,0
-155.80,12.36,-68.68,1780,-7581,2940,0,0,0
-155.80,12.36,-68.68,1777,-7580,2949,0,-1,0
-155.80,12.35,-68.67,1784,-7571,2956,0,-1,-1
-155.80,12.36,-68.67,1787,-7571,2967,-1,-1,-1
-155.80,12.36,-68.68,1798,-7576,2956,-1,-1,0
-155.81,12.36,-68.68,1797,-7578,2960,-1,-1,0
-155.82,12.35,-68.69,1789,-7578,2949,0,-1,0
-155.81,12.35,-68.68,1786,-7576,2956,-1,-1,0
-155.82,12.34,-68.69,1777,-7583,2958,-1,-1,0
-155.84,12.34,-68.69,1778,-7586,2955,-1,0,0
-155.84,12.34,-68.69,1788,-7589,2948,0,-1,0
-155.84,12.33,-68.70,1784,-7576,2956,-1,-1,0
-155.85,12.32,-68.70,1777,-7578,2952,-1,-1,0
-155.85,12.32,-68.70,1779,-7586,2956,0,-1,0
-155.85,12.32,-68.70,1790,-7585,2952,0,0,0
-155.85,12.32,-68.70,1787,-7579,2957,0,-1,0
-155.86,12.32,-68.69,1776,-7583,2963,-1,-1,0
-155.87,12.31,-68.69,1771,-7576,2966,0,-1,0
-155.88,12.30,-68.69,1775,-7575,2969,-1,-1,0
-155.88,12.30,-68.70,1778,-7584,2968,-1,0,0
-155.89,12.30,-68.71,1774,-7579,2965,-1,-1,0
-155.89,12.29,-68.70,1776,-7596,2963,-1,-1,0
-155.90,12.29,-68.71,1776,-7591,2961,-1,-1,0
-155.91,12.28,-68.71,1771,-7589,2954,0,-1,0
-155.91,12.28,-68.71,1771,-7586,2957,0,-1,0
-155.91,12.28,-68.70,1774,-7579,2953,0,-1,0
-155.92,12.27,-68.71,1770,-7585,2959,-1,0,0
-155.93,12.26,-68.71,1766,-7585,2966,-1,-1,0
-155.93,12.26,-68.71,1765,-7587,2959,-1,-1,0
-155.94,12.26,-68.71,1772,-7586,2961,-1,-1,0
-155.94,12.26,-68.71,1771,-7584,2958,0,-1,0
-155.94,12.25,-68.71,1771,-7584,2964,-1,-1,0
-155.94,12.25,-68.71,1778,-7576,2961,0,0,0
-155.94,12.25,-68.71,1773,-7589,2956,-1,-1,0
-155.95,12.24,-68.71,1764,-7579,2956,-1,-1,0
-155.96,12.24,-68.72,1772,-7591,2949,-1,-1,0
-155.96,12.24,-68.72,1780,-7592,2958,-1,-1,0
-155.97,12.23,-68.72,1774,-7594,2955,-1,-1,0
-155.97,12.23,-68.73,1774,-7595,2954,0,-1,0
-155.98,12.23,-68.72,1773,-7594,2949,0,-1,0
-155.98,12.23,-68.72,1769,-7577,2953,0,-1,0
-155.98,12.22,-68.72,1764,-7570,2955,-1,-1,0
-156.00,12.22,-68.73,1767,-7584,2945,-1,-1,0
-156.00,12.21,-68.73,1770,-7591,2950,-1,-1,0
-156.01,12.21,-68.73,1766,-7596,2954,0,-1,0
-156.01,12.21,-68.73,1766,-7598,2947,0,-1,0
-156.01,12.20,-68.73,1762,-7592,2956,0,-1,0
-156.01,12.20,-68.72,1768,-7582,2962,0,-1,0
-156.01,12.21,-68.72,1771,-7576,2961,-1,-1,0
-156.01,12.20,-68.72,1770,-7581,2964,-1,-1,0
-156.02,12.20,-68.72,1776,-7582,2966,-1,-1,0
-156.02,12.20,-68.72,1771,-7580,2961,-1,-1,0
-156.03,12.19,-68.73,1762,-7583,2953,-1,-1,0
-156.04,12.19,-68.73,1770,-7590,2952,-1,-1,0
-156.04,12.19,-68.73,1771,-7590,2956,0,0,0
-156.04,12.19,-68.74,1768,-7593,2946,-1,-1,0
-156.04,12.19,-68.74,1757,-7592,2956,-1,0,0
-156.05,12.18,-68.74,1756,-7590,2949,-1,-1,0
-156.05,12.18,-68.74,1768,-7592,2956,-1,0,0
-156.05,12.18,-68.74,1767,-7589,2948,0,0,0
-156.05,12.18,-68.73,1766,-7585,2955,0,0,0
-156.05,12.18,-68.73,1761,-7590,2957,0,0,0
-156.05,12.17,-68.73,1750,-7596,2960,0,-1,0
-156.05,12.17,-68.73,1760,-7589,2962,-1,-1,0
-156.06,12.17,-68.74,1766,-7590,2956,0,-1,0
-156.06,12.17,-68.74,1761,-7588,2957,-1,-1,0
-156.08,12.16,-68.75,1763,-7585,2947,-1,-1,0
-156.08,12.16,-68.75,1764,-7587,2944,-1,-1,0
-156.08,12.16,-68.75,1756,-7588,2944,0,-1,0
-156.08,12.16,-68.75,1760,-7590,2936,0,-1,0
-156.09,12.15,-68.75,1754,-7593,2934,0,0,0
-156.09,12.15,-68.74,1752,-7595,2949,0,0,0
-156.09,12.15,-68.74,1747,-7592,2957,0,-1,0
-156.09,12.15,-68.74,1748,-7589,2953,0,-1,0
-156.09,12.15,-68.74,1755,-7586,2950,0,-1,0
-156.09,12.15,-68.74,1760,-7588,2958,-1,-1,0
-156.09,12.14,-68.73,1757,-7583,2977,0,0,0
-156.10,12.14,-68.74,1758,-7590,2964,-1,-1,-1
-156.09,12.14,-68.73,1755,-7591,2951,0,-1,-1
-156.09,12.14,-68.73,1761,-7584,2960,0,-1,0
-156.09,12.14,-68.73,1763,-7585,2952,0,0,0
-156.09,12.14,-68.73,1761,-7587,2964,-1,0,0
-156.09,12.14,-68.73,1763,-7596,2950,0,0,-1
-156.09,12.14,-68.73,1748,-7587,2952,-1,-1,-1
-156.10,12.14,-68.74,1744,-7592,2953,-1,-1,-1
-156.09,12.14,-68.73,1752,-7598,2946,-1,-1,-1
-156.08,12.15,-68.73,1762,-7597,2957,0,0,-1
-156.07,12.15,-68.72,1772,-7583,2954,0,0,0
-156.07,12.15,-68.71,1754,-7574,2959,-1,-1,0
-156.08,12.15,-68.72,1750,-7576,2958,-1,-1,-1
-156.08,12.16,-68.72,1759,-7590,2956,-1,-1,-1
-156.08,12.16,-68.73,1767,-7596,2943,0,0,-1
-156.08,12.16,-68.73,1765,-7596,2933,0,0,-1
-156.07,12.16,-68.72,1761,-7592,2941,0,0,-1
-156.06,12.17,-68.72,1754,-7588,2956,0,-1,-1
-156.06,12.17,-68.71,1754,-7589,2964,0,0,-1
-156.05,12.18,-68.71,1758,-7584,2965,-1,-1,-1
-156.05,12.18,-68.71,1766,-7588,2967,0,-1,-1
-156.05,12.18,-68.71,1767,-7581,2969,0,0,-1
-156.05,12.18,-68.71,1757,-7581,2964,-1,-1,0
-156.05,12.19,-68.71,1758,-7582,2948,-1,-1,-1
-156.05,12.19,-68.72,1760,-7590,2942,0,-1,-1
-156.05,12.19,-68.72,1762,-7595,2946,0,0,0
-156.05,12.19,-68.71,1759,-7586,2954,0,0,-1
-156.05,12.19,-68.71,1757,-7587,2946,-1,-1,0
-156.05,12.19,-68.71,1759,-7588,2952,0,0,-1
-156.04,12.19,-68.71,1761,-7592,2949,0,0,-1
-156.03,12.19,-68.70,1760,-7585,2951,0,0,-1
-156.02,12.19,-68.69,1760,-7583,2958,0,-1,-1
-156.02,12.19,-68.68,1761,-7579,2971,0,0,-1
-156.01,12.19,-68.68,1760,-7585,2984,-1,0,-1
-156.01,12.20,-68.68,1777,-7593,2958,0,0,-1
-156.01,12.21,-68.68,1776,-7575,2966,-1,0,0
-156.01,12.20,-68.68,1757,-7582,2965,0,-1,0
-156.02,12.20,-68.69,1763,-7581,2952,-1,-1,-1
-156.01,12.21,-68.68,1772,-7580,2945,0,-1,-1
-156.01,12.21,-68.68,1782,-7590,2948,0,0,0
-156.00,12.20,-68.67,1776,-7584,2966,0,0,-1
-156.00,12.21,-68.67,1760,-7572,2969,0,-1,-1
-155.99,12.21,-68.67,1762,-7582,2971,-1,-1,-1
-155.98,12.21,-68.66,1763,-7586,2972,-1,0,-1
-155.98,12.21,-68.66,1773,-7600,2959,0,0,-1
-155.98,12.22,-68.66,1768,-7581,2962,0,-1,-1
-155.97,12.22,-68.66,1758,-7581,2983,-1,-1,-1
-155.97,12.22,-68.66,1759,-7582,2975,-1,-1,-1
-155.97,12.22,-68.66,1767,-7590,2965,-1,-1,-1
-155.96,12.23,-68.65,1762,-7594,2958,0,-1,-1
-155.97,12.24,-68.66,1771,-7591,2949,0,-1,-1
-155.96,12.24,-68.66,1775,-7588,2952,-1,-1,-1
-155.95,12.24,-68.66,1780,-7589,2949,0,-1,-1
-155.95,12.25,-68.66,1775,-7586,2960,0,-1,-1
-155.95,12.25,-68.66,1774,-7584,2968,-1,0,-1
-155.95,12.25,-68.66,1766,-7585,2964,-1,-1,-1
-155.94,12.26,-68.66,1770,-7592,2957,0,0,-1
-155.93,12.26,-68.66,1778,-7589,2962,0,0,-1
-155.93,12.26,-68.65,1766,-7575,2980,-1,0,-1
-155.93,12.26,-68.65,1763,-7570,2978,-1,-1,-1
-155.93,12.27,-68.66,1769,-7585,2968,-1,-1,-1
-155.93,12.27,-68.66,1778,-7604,2955,0,0,-1
-155.91,12.28,-68.66,1780,-7600,2965,0,0,-1
-155.91,12.28,-68.65,1771,-7596,2954,0,0,-1
-155.90,12.28,-68.65,1768,-7580,2962,0,0,-1
-155.89,12.29,-68.64,1772,-7569,2962,0,0,-1
-155.88,12.30,-68.64,1791,-7568,2966,-1,0,-1
-155.87,12.31,-68.65,1791,-7580,2959,-1,0,-1
-155.87,12.31,-68.65,1794,-7580,2960,-1,0,-1
-155.88,12.31,-68.66,1786,-7575,2954,-1,-1,-1
-155.88,12.31,-68.66,1778,-7584,2958,-1,-1,-1
-155.88,12.31,-68.66,1790,-7587,2961,0,-1,-1
-155.86,12.32,-68.65,1796,-7588,2967,0,0,-1
-155.86,12.32,-68.65,1783,-7580,2972,-1,0,-1
-155.86,12.32,-68.65,1785,-7580,2972,0,-1,-1
-155.86,12.32,-68.65,1783,-7592,2954,-1,-1,-1
-155.86,12.32,-68.65,1777,-7593,2943,0,0,-1
-155.85,12.33,-68.65,1783,-7588,2954,0,0,-1
-155.84,12.34,-68.65,1774,-7582,2947,0,-1,-1
-155.83,12.34,-68.63,1782,-7578,2966,0,0,-1
-155.83,12.34,-68.63,1781,-7576,2970,0,0,-1
-155.83,12.34,-68.63,1781,-7571,2972,-1,-1,-1
-155.83,12.34,-68.64,1788,-7574,2966,-1,-1,-1
-155.83,12.34,-68.64,1787,-7578,2962,-1,0,-1
-155.83,12.34,-68.64,1778,-7579,2959,0,-1,-1
-155.83,12.34,-68.64,1783,-7580,2965,-1,0,-1
-155.83,12.34,-68.64,1785,-7582,2960,0,0,-1
-155.83,12.34,-68.64,1782,-7580,2962,0,0,-1
-155.82,12.35,-68.63,1779,-7580,2970,0,0,-1
-155.82,12.35,-68.63,1782,-7578,2967,0,0,-1
-155.81,12.35,-68.63,1780,-7582,2972,-1,0,-1
-155.81,12.36,-68.63,1785,-7573,2965,0,-1,-1
-155.80,12.36,-68.62,1789,-7564,2966,-1,0,-1
-155.80,12.36,-68.63,1784,-7575,2959,0,0,-1
-155.79,12.36,-68.63,1784,-7578,2972,0,0,-1
-155.80,12.36,-68.63,1778,-7585,2966,-1,0,-1
-155.79,12.36,-68.63,1779,-7577,2969,-1,0,-1
-155.79,12.36,-68.63,1779,-7581,2967,-1,-1,-1
-155.79,12.36,-68.63,1781,-7585,2964,0,-1,-1
-155.78,12.37,-68.63,1793,-7573,2964,0,0,-1
-155.77,12.37,-68.62,1794,-7559,2970,0,0,0
-155.77,12.37,-68.62,1786,-7560,2978,-1,0,0
-155.78,12.37,-68.63,1781,-7577,2967,-1,-1,-1
-155.78,12.37,-68.63,1782,-7591,2963,-1,0,-1
-155.77,12.38,-68.63,1777,-7598,2956,0,0,-1
-155.77,12.38,-68.63,1770,-7586,2966,0,0,-1
-155.76,12.38,-68.62,1774,-7573,2972,0,0,-1
-155.75,12.39,-68.62,1788,-7570,2977,-1,-1,-1
-155.74,12.40,-68.62,1797,-7569,2969,-1,-1,-1
-155.74,12.41,-68.63,1800,-7576,2971,-1,0,-1
-155.73,12.41,-68.63,1800,-7578,2970,-1,0,-1
-155.74,12.40,-68.64,1794,-7572,2964,-1,0,-1
-155.74,12.41,-68.64,1791,-7574,2962,-1,0,-1
-155.73,12.41,-68.64,1788,-7575,2966,-1,-1,-1
-155.73,12.41,-68.64,1784,-7584,2966,-1,-1,-1
-155.73,12.41,-68.64,1785,-7580,2963,-1,0,0
-155.74,12.41,-68.65,1784,-7580,2964,-1,-1,-1
-155.74,12.41,-68.65,1797,-7581,2953,-1,0,-1
-155.73,12.41,-68.65,1796,-7582,2950,0,0,0
-155.73,12.41,-68.65,1798,-7583,2960,0,0,-1
-155.73,12.41,-68.65,1795,-7582,2961,0,0,-1
-155.72,12.41,-68.64,1789,-7578,2968,-1,0,-1
-155.72,12.42,-68.64,1796,-7573,2971,-1,0,-1
-155.71,12.42,-68.63,1797,-7575,2969,0,0,0
-155.71,12.41,-68.63,1799,-7570,2975,-1,0,0
-155.71,12.41,-68.63,1798,-7572,2961,-1,0,-1
-155.71,12.41,-68.63,1792,-7567,2970,-1,0,0
-155.71,12.41,-68.63,1785,-7578,2961,0,0,0
-155.71,12.41,-68.63,1791,-7583,2967,0,-1,0
-155.71,12.40,-68.62,1797,-7586,2966,0,-1,0
-155.71,12.40,-68.62,1794,-7578,2974,0,-1,0
-155.72,12.40,-68.62,1783,-7569,2976,-1,-1,0
-155.72,12.40,-68.62,1786,-7567,2970,-1,-1,0
-155.73,12.40,-68.63,1793,-7572,2962,-1,-1,0
-155.74,12.39,-68.64,1796,-7572,2970,-1,-1,0
-155.75,12.39,-68.64,1791,-7576,2964,-1,-1,0
-155.76,12.38,-68.64,1787,-7567,2967,-1,-1,0
-155.77,12.38,-68.65,1790,-7577,2968,-1,-1,0
-155.78,12.38,-68.66,1796,-7577,2956,-1,-1,0
-155.78,12.38,-68.66,1793,-7582,2949,0,-1,0
-155.78,12.38,-68.66,1785,-7576,2947,0,-1,0
-155.78,12.38,-68.65,1790,-7562,2962,-1,-1,0
-155.79,12.37,-68.66,1786,-7573,2966,-1,-1,0
-155.80,12.37,-68.66,1790,-7590,2966,-1,-1,0
-155.81,12.36,-68.67,1789,-7595,2959,0,-1,0
-155.82,12.35,-68.66,1781,-7585,2951,0,-1,0
-155.82,12.35,-68.66,1776,-7584,2941,0,-1,0
-155.81,12.35,-68.65,1783,-7573,2962,0,-1,0
-155.82,12.35,-68.66,1791,-7567,2976,-1,-1,0
-155.81,12.35,-68.65,1794,-7572,2981,-1,-1,0
-155.83,12.34,-68.66,1789,-7586,2959,-1,-1,0
-155.83,12.34,-68.66,1782,-7578,2961,-1,-1,0
-155.84,12.33,-68.66,1785,-7579,2958,0,-1,0
-155.84,12.33,-68.65,1786,-7570,2973,-1,-1,0
-155.85,12.33,-68.66,1778,-7572,2966,0,-1,0
-155.86,12.32,-68.65,1777,-7574,2973,-1,-1,0
-155.86,12.31,-68.66,1777,-7582,2965,-1,-1,0
-155.86,12.31,-68.65,1778,-7584,2966,0,-1,0
-155.87,12.30,-68.66,1769,-7576,2956,0,-1,0
-155.87,12.30,-68.66,1768,-7582,2952,0,0,0
-155.88,12.30,-68.66,1764,-7576,2956,-1,-1,0
-155.88,12.30,-68.65,1765,-7579,2964,-1,-1,0
-155.89,12.29,-68.65,1777,-7582,2971,0,-1,0
-155.89,12.29,-68.65,1777,-7584,2977,-1,-1,0
-155.89,12.29,-68.66,1775,-7588,2974,-1,-1,0
-155.90,12.29,-68.66,1778,-7584,2960,-1,-1,0
-155.90,12.28,-68.67,1788,-7573,2948,-1,-1,0
-155.91,12.28,-68.67,1780,-7566,2946,-1,-1,0
-155.92,12.27,-68.68,1773,-7576,2944,0,-1,0
-155.92,12.27,-68.68,1773,-7576,2955,0,-1,0
-155.93,12.27,-68.68,1772,-7577,2958,0,-1,0
-155.93,12.27,-68.68,1776,-7584,2957,0,-1,0
-155.93,12.26,-68.67,1785,-7583,2965,0,0,0
-155.94,12.26,-68.68,1783,-7590,2962,-1,0,0
-155.94,12.25,-68.68,1783,-7575,2975,-1,-1,0
-155.95,12.25,-68.68,1780,-7578,2960,-1,-1,0
-155.95,12.25,-68.69,1777,-7581,2957,-1,-1,0
-155.95,12.25,-68.69,1778,-7588,2953,0,-1,0
-155.95,12.25,-68.69,1775,-7586,2956,0,0,0
-155.97,12.24,-68.69,1767,-7581,2957,-1,-1,0
-155.98,12.24,-68.70,1756,-7584,2953,-1,-1,0
-155.99,12.23,-68.71,1759,-7591,2950,-1,-1,0
-155.98,12.24,-68.71,1761,-7599,2944,0,0,-1
-155.98,12.23,-68.70,1765,-7576,2952,0,-1,0
-155.99,12.23,-68.70,1766,-7561,2956,-1,-1,0
-156.00,12.22,-68.70,1762,-7578,2954,-1,-1,0
-156.00,12.22,-68.71,1759,-7590,2952,-1,-1,0
-156.01,12.21,-68.71,1761,-7597,2943,-1,-1,0
-156.01,12.21,-68.71,1761,-7594,2953,0,0,0
-156.01,12.21,-68.70,1757,-7587,2960,0,0,0
-156.02,12.21,-68.70,1754,-7581,2970,-1,-1,0
-156.02,12.21,-68.71,1766,-7577,2964,-1,-1,0
-156.02,12.20,-68.72,1770,-7587,2965,-1,-1,0
-156.02,12.21,-68.71,1773,-7590,2971,-1,-1,0
-156.03,12.20,-68.71,1763,-7580,2959,0,-1,0
-156.03,12.20,-68.72,1767,-7590,2958,-1,-1,0
-156.04,12.19,-68.73,1773,-7584,2946,0,0,0
-156.05,12.19,-68.73,1773,-7600,2937,-1,0,0
-156.05,12.19,-68.73,1766,-7599,2944,0,0,0
-156.06,12.18,-68.73,1763,-7590,2954,-1,-1,0
-156.06,12.18,-68.73,1764,-7588,2956,-1,-1,0
-156.05,12.18,-68.73,1774,-7591,2950,0,0,0
-156.06,12.17,-68.73,1769,-7592,2945,0,0,0
-156.06,12.17,-68.73,1761,-7589,2948,-1,-1,0
-156.07,12.17,-68.73,1753,-7597,2956,0,-1,0
-156.07,12.16,-68.73,1750,-7589,2960,0,-1,0
-156.08,12.16,-68.73,1759,-7590,2963,-1,-1,0
-156.08,12.16,-68.73,1763,-7585,2966,-1,0,0
-156.09,12.16,-68.73,1766,-7589,2961,-1,-1,0
-156.10,12.15,-68.73,1763,-7588,2955,-1,-1,0
-156.11,12.14,-68.74,1759,-7588,2944,0,-1,0
-156.10,12.14,-68.73,1752,-7589,2946,0,-1,0
-156.11,12.14,-68.74,1754,-7601,2945,0,-1,0
-156.11,12.14,-68.73,1747,-7597,2943,0,0,0
-156.11,12.14,-68.73,1759,-7591,2952,0,0,0
-156.11,12.14,-68.73,1756,-7590,2965,-1,-1,0
-156.11,12.14,-68.73,1758,-7592,2968,-1,-1,0
-156.12,12.13,-68.73,1754,-7595,2955,0,-1,-1
-156.12,12.13,-68.73,1756,-7592,2951,0,-1,0
-156.11,12.14,-68.73,1757,-7588,2941,0,0,-1
-156.11,12.14,-68.73,1759,-7588,2956,-1,0,0
-156.11,12.14,-68.73,1757,-7592,2959,0,0,-1
-156.12,12.13,-68.73,1753,-7586,2958,-1,-1,0
-156.12,12.13,-68.73,1749,-7580,2956,-1,-1,-1
-156.11,12.14,-68.74,1749,-7587,2948,-1,-1,-1
-156.11,12.14,-68.74,1754,-7599,2957,-1,-1,-1
-156.11,12.14,-68.74,1757,-7604,2949,0,-1,-1
-156.10,12.15,-68.73,1758,-7589,2948,0,0,-1
-156.10,12.15,-68.73,1749,-7569,2959,0,-1,0
-156.11,12.14,-68.73,1751,-7571,2970,-1,-1,0
-156.11,12.15,-68.74,1753,-7592,2959,-1,-1,-1
-156.11,12.15,-68.75,1761,-7608,2941,-1,-1,-1
-156.11,12.15,-68.74,1755,-7604,2939,0,-1,-1
-156.10,12.15,-68.74,1745,-7601,2945,0,0,-1
-156.10,12.16,-68.74,1744,-7594,2950,0,-1,-1
-156.09,12.16,-68.73,1751,-7592,2956,0,-1,-1
-156.09,12.16,-68.73,1762,-7587,2961,-1,-1,-1
-156.08,12.17,-68.73,1759,-7586,2952,-1,0,-1
-156.08,12.17,-68.73,1761,-7584,2953,-1,-1,-1
-156.08,12.17,-68.73,1765,-7579,2956,-1,-1,-1
-156.08,12.18,-68.73,1766,-7575,2951,-1,-1,-1
-156.07,12.19,-68.74,1770,-7588,2946,-1,-1,-1
-156.07,12.19,-68.73,1765,-7593,2951,0,0,-1
-156.06,12.19,-68.73,1761,-7589,2957,0,0,-1
-156.06,12.19,-68.73,1761,-7586,2943,-1,0,-1
-156.06,12.20,-68.74,1766,-7596,2948,0,-1,-1
-156.05,12.20,-68.74,1763,-7598,2944,0,0,-1
-156.05,12.21,-68.73,1763,-7594,2955,0,0,-1
-156.04,12.21,-68.72,1760,-7598,2967,0,0,-1
-156.03,12.21,-68.72,1760,-7592,2961,0,0,-1
-156.03,12.22,-68.71,1760,-7591,2972,0,-1,-1
-156.03,12.22,-68.71,1762,-7589,2963,-1,-1,-1
-156.02,12.22,-68.72,1767,-7587,2966,-1,0,-1
-156.02,12.22,-68.72,1764,-7592,2961,-1,0,-1
-156.02,12.22,-68.72,1761,-7595,2957,-1,-1,-1
-156.02,12.23,-68.72,1767,-7588,2947,0,0,-1
-156.01,12.23,-68.72,1766,-7581,2939,-1,-1,-1
-156.01,12.23,-68.72,1769,-7583,2941,0,-1,-1
-156.01,12.24,-68.72,1773,-7584,2955,-1,0,-1
-156.00,12.24,-68.71,1770,-7593,2953,0,0,-1
-155.99,12.24,-68.71,1765,-7584,2956,-1,0,-1
-155.99,12.24,-68.71,1762,-7580,2959,0,0,-1
-155.99,12.25,-68.71,1763,-7578,2962,-1,0,-1
-155.98,12.25,-68.70,1771,-7580,2964,0,0,-1
-155.97,12.25,-68.70,1770,-7578,2965,-1,0,-1
-155.97,12.25,-68.70,1770,-7577,2964,-1,0,-1
-155.97,12.26,-68.70,1765,-7579,2962,0,0,-1
-155.97,12.26,-68.70,1759,-7574,2964,0,0,-1
-155.97,12.26,-68.70,1764,-7580,2955,-1,0,-1
-155.96,12.26,-68.70,1762,-7582,2950,-1,-1,-1
-155.96,12.27,-68.71,1764,-7593,2945,0,-1,-1
-155.95,12.28,-68.71,1772,-7595,2950,0,0,-1
-155.94,12.28,-68.70,1774,-7582,2950,0,0,-1
-155.93,12.28,-68.69,1778,-7568,2962,-1,-1,-1
-155.93,12.29,-68.70,1777,-7574,2966,-1,0,-1
-155.94,12.29,-68.70,1772,-7585,2952,-1,0,-1
-155.94,12.29,-68.70,1773,-7599,2955,0,0,-1
-155.93,12.29,-68.70,1766,-7598,2954,0,0,-1
-155.93,12.29,-68.70,1764,-7594,2964,0,0,-1
-155.92,12.30,-68.69,1755,-7586,2964,0,0,-1
-155.91,12.30,-68.68,1765,-7579,2968,0,0,-1
-155.90,12.31,-68.68,1778,-7575,2971,-1,0,-1
-155.90,12.31,-68.68,1780,-7579,2966,-1,0,-1
-155.89,12.31,-68.68,1774,-7582,2956,0,0,-1
-155.89,12.32,-68.68,1767,-7576,2962,-1,0,-1
-155.89,12.32,-68.68,1770,-7582,2954,0,-1,-1
-155.88,12.33,-68.68,1780,-7580,2964,0,-1,-1
-155.87,12.33,-68.67,1782,-7585,2957,0,0,-1
-155.87,12.33,-68.67,1782,-7587,2968,-1,0,-1
-155.87,12.33,-68.68,1785,-7597,2952,0,0,-1
-155.86,12.34,-68.67,1777,-7594,2957,0,0,-1
-155.85,12.34,-68.67,1774,-7595,2949,0,0,-1
-155.84,12.35,-68.67,1775,-7583,2953,0,0,-1
-155.83,12.35,-68.66,1776,-7585,2967,0,0,-1
-155.82,12.36,-68.65,1781,-7580,2974,0,0,-1
-155.82,12.36,-68.65,1781,-7571,2979,-1,0,-1
-155.81,12.37,-68.65,1773,-7565,2960,-1,0,-1
-155.81,12.37,-68.65,1778,-7569,2973,-1,0,-1
-155.80,12.37,-68.66,1781,-7580,2961,0,0,-1
-155.80,12.37,-68.66,1786,-7575,2956,-1,0,-1
-155.80,12.38,-68.65,1783,-7580,2948,0,0,-1
-155.79,12.38,-68.66,1781,-7585,2957,0,0,-1
-155.78,12.39,-68.65,1788,-7582,2953,0,0,-1
-155.77,12.39,-68.65,1785,-7579,2958,0,0,-1
-155.77,12.40,-68.64,1782,-7573,2963,-1,0,-1
-155.77,12.40,-68.64,1786,-7573,2961,-1,0,-1
-155.75,12.41,-68.64,1792,-7576,2964,-1,0,-1
-155.75,12.41,-68.64,1794,-7577,2961,-1,0,-1
-155.74,12.42,-68.64,1795,-7580,2965,0,0,-1
-155.73,12.42,-68.63,1799,-7573,2958,0,0,-1
-155.73,12.42,-68.63,1795,-7571,2966,-1,0,-1
-155.73,12.42,-68.64,1792,-7578,2964,-1,0,-1
-155.73,12.43,-68.65,1793,-7591,2949,0,0,-1
-155.72,12.43,-68.64,1805,-7614,2940,0,0,-1
-155.70,12.44,-68.61,1793,-7584,2964,0,0,-1
-155.68,12.44,-68.59,1781,-7548,2976,0,0,-1
-155.68,12.44,-68.59,1770,-7551,2987,-1,-1,-1
-155.70,12.43,-68.61,1781,-7582,2972,-1,-1,-1
-155.69,12.44,-68.61,1793,-7592,2969,-1,0,-1
-155.69,12.44,-68.61,1798,-7592,2954,0,0,-1
-155.67,12.44,-68.60,1783,-7571,2966,0,0,-1
-155.67,12.44,-68.60,1781,-7560,2970,0,0,-1
-155.66,12.46,-68.60,1788,-7559,2967,-1,0,-1
-155.65,12.46,-68.60,1807,-7578,2977,-1,0,-1
-155.65,12.46,-68.60,1811,-7584,2980,0,0,-1
-155.65,12.46,-68.60,1802,-7582,2973,0,0,0
-155.65,12.46,-68.60,1792,-7571,2972,-1,0,-1
-155.66,12.46,-68.60,1782,-7572,2967,-1,0,-1
-155.65,12.46,-68.60,1795,-7579,2961,-1,0,-1
-155.65,12.46,-68.60,1795,-7578,2963,-1,0,-1
-155.65,12.46,-68.61,1797,-7573,2958,-1,0,-1
-155.65,12.46,-68.61,1794,-7575,2957,0,0,-1
-155.64,12.46,-68.60,1788,-7580,2962,0,0,-1
-155.64,12.46,-68.60,1787,-7583,2964,0,0,-1
-155.63,12.47,-68.60,1793,-7584,2959,0,0,-1
-155.63,12.47,-68.60,1797,-7581,2959,0,0,-1
-155.63,12.47,-68.60,1792,-7572,2972,-1,0,-1
-155.63,12.47,-68.60,1793,-7573,2973,-1,-1,-1
-155.63,12.47,-68.61,1800,-7580,2966,-1,-1,0
-155.64,12.47,-68.61,1797,-7581,2959,-1,-1,0
-155.64,12.47,-68.62,1798,-7577,2963,-1,0,0
-155.65,12.46,-68.63,1793,-7586,2956,-1,0,0
-155.65,12.46,-68.63,1791,-7587,2958,-1,0,0
-155.65,12.46,-68.63,1794,-7586,2959,0,-1,0
-155.65,12.46,-68.62,1795,-7584,2965,0,-1,0
-155.66,12.46,-68.62,1791,-7588,2965,0,-1,0
-155.66,12.45,-68.62,1799,-7584,2974,0,0,0
-155.66,12.45,-68.62,1789,-7580,2965,-1,-1,0
-155.66,12.44,-68.62,1788,-7573,2972,0,0,0
-155.67,12.44,-68.62,1791,-7571,2969,-1,-1,0
-155.68,12.44,-68.63,1790,-7574,2970,-1,-1,0
-155.69,12.43,-68.63,1787,-7582,2965,-1,-1,0
-155.69,12.43,-68.64,1790,-7586,2962,-1,-1,0
-155.70,12.42,-68.63,1790,-7590,2966,0,0,0
-155.70,12.42,-68.63,1799,-7571,2966,0,-1,0
-155.70,12.42,-68.62,1786,-7563,2962,-1,-1,0
-155.71,12.41,-68.63,1786,-7575,2955,-1,-1,0
-155.73,12.40,-68.64,1784,-7591,2959,0,0,0
-155.73,12.40,-68.64,1789,-7586,2952,0,0,0
-155.73,12.39,-68.63,1782,-7592,2960,0,-1,0
-155.73,12.39,-68.63,1778,-7583,2968,0,0,0
-155.72,12.39,-68.62,1770,-7576,2972,0,-1,-1
-155.73,12.39,-68.62,1783,-7576,2969,-1,-1,0
-155.73,12.39,-68.62,1789,-7575,2966,-1,-1,0
-155.74,12.38,-68.63,1789,-7577,2973,-1,-1,0
-155.75,12.38,-68.64,1795,-7582,2968,-1,-1,0
-155.75,12.37,-68.64,1791,-7584,2959,-1,-1,0
-155.76,12.37,-68.65,1787,-7584,2965,-1,-1,0
-155.77,12.37,-68.65,1788,-7587,2961,0,-1,0
-155.77,12.37,-68.65,1784,-7582,2954,0,-1,0
-155.78,12.36,-68.65,1784,-7584,2970,-1,-1,0
-155.78,12.35,-68.65,1787,-7583,2961,0,0,0
-155.78,12.35,-68.65,1785,-7589,2964,-1,0,0
-155.79,12.35,-68.65,1784,-7586,2954,0,0,0
-155.79,12.35,-68.65,1771,-7579,2960,-1,-1,0
-155.80,12.34,-68.64,1770,-7583,2965,-1,-1,0
-155.80,12.34,-68.64,1778,-7584,2969,-1,-1,0
-155.80,12.33,-68.65,1785,-7581,2969,-1,-1,0
-155.80,12.33,-68.65,1784,-7577,2972,-1,-1,0
-155.81,12.33,-68.65,1779,-7577,2963,-1,-1,0
-155.82,12.32,-68.66,1775,-7576,2959,-1,-1,0
-155.83,12.32,-68.66,1777,-7582,2954,-1,-1,0
-155.83,12.31,-68.67,1770,-7580,2952,-1,-1,0
-155.83,12.31,-68.67,1778,-7574,2955,0,-1,0
-155.84,12.31,-68.67,1777,-7582,2957,0,-1,0
-155.84,12.31,-68.66,1770,-7578,2962,0,0,0
-155.84,12.31,-68.66,1770,-7574,2979,-1,-1,0
-155.85,12.30,-68.66,1776,-7575,2965,-1,-1,0
-155.85,12.30,-68.66,1777,-7574,2959,-1,0,0
-155.86,12.30,-68.67,1779,-7583,2950,-1,-1,0
-155.86,12.30,-68.68,1778,-7585,2953,-1,-1,0
-155.86,12.30,-68.68,1776,-7593,2965,-1,0,0
-155.86,12.30,-68.68,1773,-7587,2962,-1,-1,-1
-155.86,12.30,-68.68,1770,-7578,2964,-1,-1,0
-155.87,12.29,-68.69,1769,-7576,2962,-1,-1,0
-155.88,12.29,-68.70,1773,-7589,2952,-1,0,0
-155.87,12.29,-68.70,1775,-7601,2962,-1,0,-1
-155.88,12.29,-68.69,1775,-7597,2961,0,0,0
-155.87,12.28,-68.68,1769,-7578,2966,-1,0,0
-155.89,12.28,-68.69,1766,-7577,2965,-1,-1,0
-155.89,12.28,-68.70,1768,-7587,2958,-1,-1,0
-155.90,12.28,-68.70,1769,-7600,2954,-1,0,0
-155.90,12.27,-68.70,1765,-7588,2949,0,0,0
-155.90,12.27,-68.70,1757,-7582,2950,0,-1,0
-155.90,12.27,-68.70,1757,-7582,2948,0,-1,-1
-155.90,12.27,-68.70,1759,-7576,2949,-1,-1,-1
-155.90,12.27,-68.70,1771,-7584,2955,-1,0,0
-155.90,12.27,-68.71,1771,-7588,2950,-1,0,0
-155.91,12.27,-68.72,1770,-7595,2949,-1,-1,0
-155.91,12.26,-68.72,1773,-7594,2945,-1,-1,0
-155.92,12.26,-68.72,1766,-7592,2951,-1,-1,0
-155.92,12.26,-68.73,1770,-7597,2947,-1,-1,0
-155.93,12.26,-68.73,1776,-7597,2959,0,0,0
-155.93,12.25,-68.72,1765,-7586,2953,-1,0,0
-155.93,12.25,-68.72,1762,-7593,2956,-1,-1,0
-155.94,12.25,-68.72,1770,-7595,2952,-1,-1,0
-155.94,12.25,-68.73,1772,-7597,2946,0,0,0
-155.94,12.25,-68.72,1765,-7593,2963,-1,-1,0
-155.94,12.25,-68.72,1759,-7590,2964,0,-1,0
-155.93,12.24,-68.72,1753,-7578,2962,0,-1,-1
-155.93,12.24,-68.72,1760,-7582,2972,-1,-1,0
-155.93,12.24,-68.72,1764,-7574,2971,-1,0,0
-155.94,12.23,-68.72,1770,-7592,2973,-1,0,0
-155.95,12.23,-68.73,1758,-7596,2963,-1,0,0
-155.95,12.23,-68.73,1754,-7590,2952,-1,-1,0
-155.96,12.22,-68.73,1756,-7591,2949,0,0,0
-155.96,12.22,-68.73,1761,-7587,2938,0,0,0
-155.96,12.22,-68.73,1760,-7594,2946,0,0,0
-155.97,12.21,-68.73,1763,-7597,2954,0,0,0
-155.97,12.21,-68.72,1765,-7602,2942,0,0,0
-155.97,12.20,-68.71,1753,-7587,2943,0,0,0
-155.97,12.20,-68.71,1749,-7583,2954,-1,-1,-1
-155.97,12.20,-68.71,1756,-7579,2960,-1,-1,0
-155.97,12.20,-68.71,1762,-7574,2953,-1,-1,0
-155.97,12.20,-68.71,1756,-7586,2947,-1,-1,0
-155.98,12.20,-68.72,1749,-7597,2943,0,-1,0
-155.98,12.20,-68.71,1754,-7591,2951,0,0,-1
-155.98,12.20,-68.71,1750,-7579,2963,0,0,0
-155.98,12.19,-68.71,1742,-7581,2952,-1,-1,0
-155.99,12.19,-68.71,1749,-7592,2941,-1,-1,-1
-155.99,12.19,-68.71,1753,-7606,2941,0,0,-1
-155.98,12.20,-68.71,1756,-7595,2949,0,0,-1
-155.97,12.20,-68.70,1759,-7576,2968,0,0,0
-155.97,12.20,-68.70,1755,-7564,2968,-1,-1,0
-155.98,12.20,-68.71,1758,-7581,2960,-1,-1,-1
-155.98,12.20,-68.71,1754,-7585,2959,-1,-1,-1
-155.97,12.20,-68.71,1756,-7591,2950,0,0,-1
-155.97,12.20,-68.71,1749,-7586,2947,0,0,-1
-155.97,12.20,-68.70,1754,-7599,2961,0,0,-1
-155.94,12.21,-68.68,1753,-7582,2973,0,0,-1
-155.94,12.21,-68.68,1749,-7578,2984,-1,-1,-1
-155.94,12.22,-68.68,1764,-7578,2977,-1,-1,-1
-155.94,12.22,-68.68,1763,-7589,2968,-1,0,-1
-155.94,12.22,-68.68,1763,-7592,2970,-1,-1,-1
-155.94,12.22,-68.68,1763,-7591,2961,-1,-1,-1
-155.94,12.23,-68.69,1766,-7602,2957,-1,0,-1
-155.93,12.24,-68.69,1770,-7596,2964,0,0,-1
-155.93,12.23,-68.68,1758,-7589,2965,0,0,-1
-155.92,12.24,-68.68,1758,-7583,2956,-1,0,-1
-155.91,12.24,-68.68,1767,-7591,2958,-1,0,-1
-155.91,12.24,-68.68,1768,-7596,2955,0,0,-1
-155.90,12.25,-68.68,1770,-7596,2951,0,0,-1
-155.89,12.25,-68.67,1767,-7592,2948,0,0,-1
-155.89,12.25,-68.67,1763,-7586,2950,0,0,-1
-155.88,12.26,-68.67,1763,-7582,2967,0,-1,-1
-155.88,12.27,-68.67,1762,-7573,2962,-1,0,-1
-155.88,12.27,-68.67,1757,-7581,2959,-1,0,-1
-155.88,12.27,-68.68,1763,-7582,2956,-1,-1,-1
-155.88,12.27,-68.68,1760,-7583,2952,-1,0,-1
-155.87,12.27,-68.68,1760,-7587,2947,0,0,-1
-155.87,12.27,-68.68,1769,-7585,2949,-1,0,-1
-155.87,12.28,-68.68,1769,-7585,2954,0,0,-1
-155.87,12.28,-68.68,1762,-7586,2952,0,0,-1
-155.86,12.28,-68.67,1764,-7589,2971,-1,0,-1
-155.85,12.28,-68.67,1755,-7582,2972,-1,0,-1
-155.85,12.29,-68.67,1769,-7581,2973,-1,0,-1
-155.84,12.30,-68.67,1765,-7578,2964,-1,0,-1
-155.85,12.29,-68.67,1767,-7589,2974,-1,0,-1
-155.84,12.29,-68.67,1763,-7593,2968,-1,0,-1
-155.83,12.30,-68.67,1770,-7586,2959,0,0,-1
-155.83,12.30,-68.66,1770,-7587,2962,-1,-1,-1
-155.83,12.30,-68.66,1774,-7577,2969,0,0,-1
-155.82,12.30,-68.66,1762,-7575,2971,-1,0,-1
-155.82,12.30,-68.67,1762,-7591,2961,-1,0,-1
-155.81,12.31,-68.67,1759,-7596,2952,0,-1,-1
-155.81,12.31,-68.66,1769,-7593,2953,0,0,-1
-155.80,12.32,-68.66,1779,-7571,2954,0,0,-1
-155.80,12.32,-68.65,1777,-7568,2960,-1,0,-1
-155.80,12.33,-68.66,1768,-7584,2961,-1,0,-1
-155.80,12.32,-68.67,1770,-7596,2960,-1,0,-1
-155.80,12.32,-68.67,1758,-7601,2950,-1,0,-1
-155.80,12.33,-68.67,1758,-7594,2955,-1,0,-1
-155.79,12.33,-68.66,1751,-7585,2957,0,0,-1
-155.78,12.34,-68.65,1760,-7566,2960,0,0,-1
-155.77,12.34,-68.65,1769,-7559,2965,-1,-1,-1
-155.77,12.35,-68.66,1778,-7571,2963,-1,0,-1
-155.76,12.35,-68.66,1776,-7580,2970,-1,0,-1
-155.76,12.35,-68.66,1779,-7581,2961,-1,0,-1
-155.76,12.35,-68.66,1776,-7581,2953,-1,-1,-1
-155.75,12.36,-68.66,1780,-7578,2957,0,0,-1
-155.75,12.36,-68.66,1775,-7571,2960,0,0,-1
-155.74,12.37,-68.66,1776,-7574,2964,-1,0,-1
-155.74,12.37,-68.66,1773,-7582,2966,-1,0,-1
-155.74,12.37,-68.66,1771,-7587,2957,-1,0,-1
-155.74,12.37,-68.66,1781,-7590,2953,0,0,-1
-155.72,12.38,-68.64,1781,-7584,2953,0,0,-1
-155.71,12.38,-68.64,1781,-7580,2953,0,0,-1
-155.71,12.38,-68.64,1777,-7581,2962,0,0,-1
-155.70,12.39,-68.64,1781,-7584,2966,0,0,-1
-155.70,12.39,-68.64,1773,-7584,2963,0,0,-1
-155.70,12.39,-68.64,1774,-7585,2960,0,0,-1
-155.69,12.40,-68.63,1775,-7576,2961,-1,0,-1
-155.69,12.40,-68.63,1782,-7569,2960,-1,0,-1
-155.69,12.40,-68.64,1792,-7573,2949,-1,0,-1
-155.68,12.41,-68.64,1786,-7577,2956,-1,-1,-1
-155.68,12.41,-68.64,1786,-7582,2952,0,0,-1
-155.67,12.41,-68.63,1781,-7586,2956,0,0,-1
-155.67,12.41,-68.63,1784,-7578,2967,0,0,-1
-155.66,12.42,-68.62,1776,-7578,2978,-1,0,-1
-155.65,12.42,-68.62,1781,-7582,2967,0,0,-1
-155.65,12.42,-68.63,1784,-7575,2967,-1,0,-1
-155.65,12.43,-68.63,1787,-7573,2956,-1,0,-1
-155.64,12.43,-68.63,1787,-7569,2963,-1,0,-1
-155.64,12.43,-68.63,1781,-7578,2958,-1,0,-1
-155.64,12.44,-68.64,1791,-7582,2956,-1,0,-1
-155.62,12.45,-68.64,1792,-7593,2961,0,0,-1
-155.62,12.45,-68.63,1793,-7580,2971,0,0,-1
-155.61,12.45,-68.62,1798,-7567,2975,0,0,-1
-155.61,12.45,-68.63,1799,-7565,2977,-1,0,-1
-155.61,12.45,-68.64,1789,-7575,2962,-1,0,-1
-155.61,12.46,-68.64,1786,-7594,2955,-1,0,-1
-155.60,12.46,-68.64,1791,-7597,2951,0,0,-1
-155.60,12.46,-68.64,1790,-7588,2948,0,0,-1
-155.58,12.47,-68.64,1790,-7580,2956,0,0,-1
-155.57,12.48,-68.63,1794,-7568,2971,0,0,-1
-155.56,12.49,-68.62,1800,-7558,2974,-1,0,-1
-155.55,12.49,-68.62,1812,-7568,2978,-1,0,-1
-155.55,12.50,-68.62,1803,-7579,2976,-1,0,-1
-155.55,12.50,-68.62,1796,-7578,2970,-1,0,-1
-155.54,12.50,-68.63,1796,-7581,2956,-1,0,-1
-155.54,12.50,-68.63,1798,-7583,2947,0,0,-1
-155.54,12.51,-68.63,1801,-7576,2956,0,0,-1
-155.53,12.51,-68.63,1800,-7574,2951,-1,0,-1
-155.53,12.51,-68.63,1802,-7575,2952,0,0,-1
-155.52,12.51,-68.62,1793,-7577,2951,0,0,-1
-155.51,12.52,-68.62,1795,-7579,2954,0,0,-1
-155.50,12.52,-68.61,1798,-7577,2958,0,0,-1
-155.50,12.52,-68.61,1797,-7585,2960,0,0,-1
-155.49,12.53,-68.61,1805,-7578,2976,0,0,-1
-155.49,12.53,-68.61,1803,-7577,2968,-1,0,-1
-155.49,12.52,-68.62,1799,-7568,2968,-1,-1,0
-155.49,12.52,-68.62,1794,-7575,2967,-1,-1,0
-155.50,12.52,-68.63,1803,-7580,2961,-1,-1,0
-155.51,12.52,-68.64,1798,-7588,2955,-1,-1,0
-155.52,12.52,-68.64,1804,-7580,2959,0,0,0
-155.52,12.51,-68.64,1800,-7576,2970,-1,-1,0
-155.52,12.51,-68.63,1802,-7575,2972,0,0,0
-155.52,12.50,-68.63,1797,-7572,2972,-1,-1,0
-155.52,12.50,-68.63,1798,-7587,2976,-1,0,0
-155.53,12.50,-68.64,1796,-7579,2975,-1,-1,0
-155.53,12.50,-68.64,1798,-7579,2966,-1,-1,0
-155.54,12.50,-68.64,1803,-7579,2959,0,-1,0
-155.54,12.50,-68.64,1807,-7578,2967,-1,-1,0
-155.55,12.49,-68.65,1802,-7574,2971,-1,0,0
-155.55,12.49,-68.65,1796,-7583,2964,-1,-1,0
-155.56,12.49,-68.65,1791,-7583,2945,-1,-1,0
-155.57,12.48,-68.66,1796,-7591,2943,0,0,-1
-155.57,12.48,-68.66,1797,-7582,2953,0,0,0
-155.56,12.48,-68.65,1800,-7562,2968,0,0,0
-155.57,12.47,-68.65,1791,-7560,2972,-1,-1,0
-155.57,12.47,-68.65,1787,-7578,2973,-1,-1,0
-155.58,12.47,-68.66,1793,-7587,2959,-1,0,0
-155.59,12.46,-68.66,1789,-7588,2952,0,0,0
-155.59,12.45,-68.65,1793,-7582,2958,0,0,0
-155.59,12.45,-68.65,1792,-7590,2957,0,0,-1
-155.59,12.45,-68.65,1789,-7577,2972,-1,-1,0
-155.59,12.45,-68.64,1786,-7577,2975,-1,-1,0
-155.60,12.44,-68.65,1791,-7579,2979,-1,-1,0
-155.61,12.44,-68.65,1791,-7584,2971,-1,-1,0
-155.61,12.44,-68.65,1789,-7581,2961,-1,-1,0
-155.62,12.43,-68.67,1795,-7578,2954,-1,-1,0
-155.63,12.43,-68.66,1795,-7577,2966,0,-1,0
-155.64,12.42,-68.67,1790,-7585,2961,0,-1,0
-155.64,12.42,-68.67,1783,-7587,2963,0,0,0
-155.65,12.41,-68.67,1778,-7571,2966,-1,-1,0
-155.65,12.41,-68.67,1784,-7584,2953,-1,-1,0
-155.65,12.41,-68.67,1789,-7587,2954,0,-1,0
-155.65,12.41,-68.67,1791,-7587,2952,0,0,0
-155.65,12.41,-68.67,1783,-7582,2956,-1,-1,0
-155.66,12.40,-68.67,1784,-7586,2959,-1,-1,0
-155.66,12.40,-68.67,1784,-7585,2964,-1,-1,0
-155.67,12.39,-68.68,1782,-7588,2949,-1,-1,0
-155.68,12.39,-68.69,1780,-7589,2945,-1,-1,0
-155.69,12.39,-68.70,1787,-7589,2941,-1,-1,0
-155.69,12.39,-68.70,1779,-7587,2946,-1,-1,0
-155.70,12.38,-68.70,1775,-7575,2943,0,0,0
-155.70,12.38,-68.70,1772,-7585,2949,-1,0,0
-155.71,12.37,-68.70,1772,-7586,2936,0,0,0
-155.71,12.37,-68.70,1780,-7588,2946,0,0,0
-155.71,12.36,-68.69,1782,-7581,2960,0,-1,0
-155.71,12.36,-68.69,1776,-7577,2961,-1,0,0
-155.72,12.36,-68.70,1770,-7583,2969,-1,0,0
-155.72,12.35,-68.70,1769,-7587,2973,-1,-1,0
-155.73,12.35,-68.70,1777,-7588,2972,-1,0,0
-155.73,12.35,-68.70,1779,-7588,2958,-1,0,0
-155.74,12.34,-68.70,1775,-7590,2954,-1,-1,0
-155.74,12.34,-68.70,1768,-7585,2958,0,-1,0
-155.74,12.34,-68.70,1767,-7582,2951,-1,-1,0
-155.75,12.33,-68.70,1777,-7587,2952,0,0,0
-155.75,12.33,-68.70,1780,-7583,2970,0,0,0
-155.76,12.33,-68.70,1770,-7586,2963,-1,-1,0
-155.76,12.32,-68.71,1766,-7590,2950,-1,-1,0
-155.77,12.32,-68.71,1765,-7600,2945,0,-1,-1
-155.77,12.32,-68.71,1777,-7598,2949,0,0,0
-155.77,12.32,-68.70,1772,-7578,2958,0,0,0
-155.77,12.32,-68.70,1768,-7564,2965,-1,-1,0
-155.78,12.31,-68.71,1772,-7581,2958,-1,-1,0
-155.79,12.31,-68.71,1772,-7588,2953,-1,-1,0
-155.79,12.31,-68.71,1767,-7588,2932,0,0,0
-155.80,12.30,-68.72,1767,-7582,2939,0,-1,0
-155.80,12.29,-68.71,1767,-7580,2944,0,0,-1
-155.79,12.30,-68.70,1768,-7585,2965,-1,0,-1
-155.79,12.30,-68.71,1770,-7592,2954,0,0,0
-155.79,12.29,-68.71,1770,-7588,2953,-1,-1,0
-155.80,12.29,-68.71,1770,-7590,2952,-1,-1,0
-155.80,12.29,-68.72,1767,-7578,2947,-1,0,0
-155.81,12.28,-68.72,1775,-7583,2942,-1,-1,0
-155.81,12.28,-68.72,1777,-7591,2950,-1,-1,0
-155.82,12.28,-68.73,1772,-7604,2955,-1,-1,0
-155.82,12.27,-68.73,1757,-7598,2951,0,0,0
-155.82,12.27,-68.72,1764,-7592,2956,-1,-1,0
-155.83,12.27,-68.73,1765,-7593,2951,0,0,-1
-155.83,12.27,-68.73,1776,-7587,2949,0,0,0
-155.83,12.27,-68.72,1771,-7582,2949,0,-1,0
-155.83,12.26,-68.72,1765,-7587,2953,0,0,0
-155.83,12.25,-68.72,1762,-7585,2959,0,0,0
-155.83,12.26,-68.71,1758,-7582,2958,0,-1,-1
-155.83,12.26,-68.71,1766,-7582,2968,-1,-1,0
-155.84,12.25,-68.71,1765,-7580,2967,-1,-1,0
-155.84,12.25,-68.71,1764,-7583,2969,-1,-1,0
-155.85,12.25,-68.72,1770,-7591,2964,-1,0,0
-155.85,12.25,-68.73,1763,-7596,2957,-1,-1,0
-155.86,12.24,-68.72,1763,-7599,2950,0,-1,0
-155.86,12.24,-68.72,1758,-7585,2946,0,-1,-1
-155.86,12.24,-68.72,1769,-7587,2949,0,0,0
-155.85,12.24,-68.72,1767,-7577,2955,0,0,0
-155.86,12.23,-68.72,1769,-7590,2951,0,0,0
-155.86,12.23,-68.71,1755,-7586,2964,-1,-1,0
-155.86,12.23,-68.71,1751,-7586,2959,0,0,-1
-155.86,12.23,-68.71,1758,-7583,2952,-1,-1,-1
-155.85,12.24,-68.71,1763,-7578,2953,0,-1,-1
-155.85,12.24,-68.71,1766,-7583,2954,0,0,-1
-155.85,12.24,-68.71,1759,-7585,2960,-1,0,-1
-155.85,12.24,-68.71,1753,-7588,2959,-1,-1,-1
-155.85,12.24,-68.71,1760,-7597,2961,-1,-1,-1
-155.85,12.25,-68.72,1771,-7597,2941,0,0,-1
-155.85,12.24,-68.71,1771,-7593,2942,0,0,-1
-155.84,12.24,-68.71,1764,-7582,2951,-1,0,-1
-155.85,12.24,-68.71,1759,-7593,2957,-1,-1,-1
-155.85,12.25,-68.72,1754,-7598,2957,-1,-1,-1
-155.84,12.25,-68.71,1762,-7606,2951,0,-1,-1
-155.84,12.25,-68.71,1762,-7602,2941,0,0,-1
-155.83,12.26,-68.71,1762,-7582,2956,0,0,-1
-155.83,12.26,-68.70,1754,-7575,2956,-1,-1,-1
-155.83,12.26,-68.71,1752,-7589,2957,-1,-1,-1
-155.83,12.26,-68.71,1761,-7598,2950,-1,0,-1
-155.84,12.25,-68.71,1759,-7599,2941,0,0,-1
-155.84,12.25,-68.71,1756,-7598,2941,0,0,-1
-155.83,12.26,-68.70,1760,-7586,2948,0,0,-1
-155.81,12.27,-68.69,1764,-7581,2966,0,0,-1
-155.81,12.27,-68.69,1780,-7583,2968,-1,0,-1
-155.80,12.28,-68.69,1777,-7584,2968,-1,-1,-1
-155.80,12.29,-68.69,1774,-7583,2964,-1,0,-1
-155.80,12.29,-68.70,1769,-7585,2958,-1,0,-1
-155.80,12.28,-68.71,1765,-7589,2953,-1,0,-1
-155.80,12.28,-68.71,1767,-7593,2942,0,0,-1
-155.79,12.29,-68.71,1774,-7592,2941,0,0,-1
-155.80,12.29,-68.71,1775,-7588,2947,-1,0,-1
-155.80,12.29,-68.71,1768,-7587,2945,-1,0,-1
-155.80,12.29,-68.72,1769,-7588,2946,-1,0,-1
-155.79,12.29,-68.71,1767,-7591,2940,0,0,-1
-155.78,12.30,-68.71,1767,-7588,2935,0,0,-1
-155.78,12.30,-68.71,1759,-7578,2949,0,-1,-1
-155.77,12.30,-68.70,1772,-7579,2959,0,0,-1
-155.77,12.30,-68.70,1778,-7585,2963,-1,0,-1
-155.77,12.31,-68.70,1777,-7587,2960,-1,0,-1
-155.77,12.31,-68.71,1775,-7590,2949,-1,-1,-1
-155.77,12.31,-68.71,1774,-7587,2948,-1,0,-1
-155.77,12.31,-68.71,1771,-7583,2952,-1,0,-1
-155.77,12.31,-68.71,1768,-7578,2948,0,0,-1
-155.77,12.31,-68.71,1775,-7583,2939,0,-1,-1
-155.76,12.32,-68.71,1767,-7590,2935,0,0,-1
-155.76,12.31,-68.71,1760,-7585,2946,0,0,-1
-155.75,12.32,-68.70,1766,-7577,2957,-1,0,-1
-155.75,12.32,-68.70,1770,-7588,2954,0,0,-1
-155.74,12.33,-68.70,1773,-7590,2957,0,0,-1
-155.74,12.33,-68.70,1772,-7586,2957,0,0,-1
-155.74,12.33,-68.70,1771,-7582,2959,0,-1,-1
-155.73,12.33,-68.69,1767,-7582,2965,-1,0,-1
-155.73,12.34,-68.69,1771,-7591,2961,0,0,-1
-155.73,12.34,-68.70,1769,-7583,2951,-1,0,-1
-155.73,12.34,-68.69,1769,-7586,2957,0,0,-1
-155.73,12.34,-68.69,1771,-7586,2950,-1,-1,-1
-155.73,12.34,-68.69,1772,-7584,2962,0,0,-1
-155.71,12.35,-68.68,1770,-7584,2965,0,0,-1
-155.71,12.35,-68.68,1773,-7572,2964,-1,0,-1
-155.70,12.35,-68.68,1774,-7574,2968,-1,0,-1
-155.71,12.35,-68.68,1775,-7588,2957,-1,-1,-1
-155.70,12.36,-68.68,1779,-7596,2957,0,0,-1
-155.68,12.37,-68.67,1785,-7586,2965,0,0,-1
-155.68,12.37,-68.67,1786,-7569,2963,0,0,-1
-155.68,12.37,-68.67,1782,-7566,2966,-1,-1,-1
-155.68,12.37,-68.68,1780,-7580,2959,-1,0,-1
-155.68,12.37,-68.68,1770,-7597,2943,-1,0,-1
-155.68,12.38,-68.68,1776,-7593,2939,0,0,-1
-155.67,12.38,-68.68,1774,-7584,2941,0,0,-1
-155.66,12.38,-68.67,1775,-7577,2954,0,0,-1
-155.65,12.39,-68.66,1776,-7569,2967,0,0,-1
-155.64,12.39,-68.66,1787,-7587,2973,-1,0,-1
-155.63,12.39,-68.65,1784,-7583,2973,-1,0,-1
-155.63,12.39,-68.65,1784,-7585,2974,0,0,-1
-155.62,12.40,-68.65,1781,-7577,2977,-1,-1,-1
-155.63,12.41,-68.66,1781,-7575,2970,-1,0,-1
-155.62,12.41,-68.66,1789,-7577,2957,0,0,-1
-155.62,12.41,-68.66,1786,-7582,2959,-1,0,-1
-155.61,12.41,-68.65,1776,-7584,2954,0,0,-1
-155.61,12.41,-68.66,1774,-7583,2953,-1,0,-1
-155.61,12.42,-68.66,1783,-7588,2945,-1,0,-1
-155.60,12.42,-68.66,1780,-7586,2948,-1,0,-1
-155.59,12.43,-68.66,1778,-7581,2943,0,0,-1
-155.58,12.44,-68.65,1779,-7584,2958,0,0,-1
-155.57,12.44,-68.65,1776,-7586,2962,0,0,-1
-155.57,12.44,-68.64,1774,-7583,2972,0,0,-1
-155.56,12.45,-68.64,1787,-7578,2984,-1,0,-1
-155.56,12.45,-68.64,1796,-7578,2978,-1,0,-1
-155.55,12.45,-68.64,1791,-7578,2974,-1,0,-1
-155.55,12.45,-68.64,1790,-7577,2958,-1,0,-1
-155.55,12.46,-68.65,1789,-7582,2958,-1,0,-1
-155.55,12.46,-68.65,1800,-7583,2955,0,0,-1
-155.54,12.47,-68.64,1799,-7582,2961,0,0,-1
-155.53,12.47,-68.64,1800,-7574,2965,0,0,-1
-155.52,12.47,-68.63,1800,-7573,2966,0,0,-1
-155.51,12.47,-68.62,1802,-7576,2971,0,0,-1
-155.50,12.48,-68.62,1796,-7574,2966,0,0,-1
-155.49,12.48,-68.62,1791,-7572,2962,-1,0,-1
-155.49,12.49,-68.62,1792,-7580,2967,-1,0,-1
-155.48,12.49,-68.61,1801,-7576,2973,0,0,-1
-155.47,12.50,-68.61,1792,-7585,2972,-1,0,-1
-155.48,12.49,-68.61,1791,-7574,2973,-1,0,-1
-155.47,12.49,-68.61,1793,-7579,2970,0,0,-1
-155.46,12.50,-68.60,1794,-7581,2971,0,0,-1
-155.46,12.50,-68.60,1789,-7573,2970,0,0,-1
-155.46,12.50,-68.60,1788,-7574,2959,-1,0,-1
-155.45,12.50,-68.61,1784,-7586,2957,-1,0,-1
-155.45,12.50,-68.61,1781,-7588,2949,0,0,-1
-155.44,12.50,-68.60,1791,-7577,2953,0,0,-1
-155.44,12.51,-68.59,1801,-7563,2969,-1,0,0
-155.44,12.51,-68.60,1798,-7567,2968,-1,-1,-1
-155.45,12.51,-68.61,1790,-7575,2958,-1,0,-1
-155.44,12.51,-68.61,1794,-7592,2958,-1,0,-1
-155.44,12.51,-68.61,1794,-7589,2959,0,0,-1
-155.44,12.51,-68.61,1786,-7585,2958,0,0,-1
-155.43,12.51,-68.60,1790,-7573,2963,-1,-1,-1
-155.43,12.51,-68.60,1807,-7570,2974,-1,-1,0
-155.44,12.51,-68.61,1817,-7573,2976,-1,-1,0
-155.44,12.51,-68.61,1816,-7580,2964,-1,0,0
-155.45,12.51,-68.62,1803,-7580,2955,-1,-1,0
-155.45,12.50,-68.62,1794,-7581,2955,-1,-1,-1
-155.46,12.50,-68.62,1798,-7585,2963,-1,-1,0
-155.46,12.50,-68.62,1803,-7581,2965,0,0,0
-155.46,12.50,-68.62,1798,-7577,2964,-1,-1,0
-155.47,12.50,-68.63,1806,-7575,2961,-1,-1,0
-155.48,12.49,-68.63,1804,-7574,2961,-1,-1,0
-155.49,12.48,-68.64,1806,-7587,2939,0,0,0
-155.49,12.48,-68.64,1796,-7592,2949,-1,0,0
-155.49,12.48,-68.63,1788,-7597,2954,0,0,0
-155.49,12.48,-68.63,1787,-7586,2963,-1,-1,0
-155.49,12.48,-68.63,1795,-7581,2961,-1,-1,0
-155.50,12.47,-68.63,1800,-7576,2967,-1,0,0
-155.50,12.47,-68.63,1800,-7577,2965,-1,0,0
-155.50,12.46,-68.63,1801,-7576,2964,-1,-1,0
-155.51,12.46,-68.64,1790,-7580,2963,-1,-1,0
-155.51,12.46,-68.64,1792,-7572,2960,-1,-1,0
