Yaw,Pitch,Roll,AX,AY,AZ,GX,GY,GZ
162.84,-176.78,-112.07,-466,-7791,-3155,0,0,0
162.84,-176.78,-112.07,-471,-7793,-3155,-1,0,-1
162.84,-176.78,-112.07,-477,-7797,-3163,0,-1,0
162.84,-176.78,-112.07,-471,-7798,-3166,0,-1,0
162.84,-176.78,-112.06,-451,-7789,-3192,1,-1,0
162.84,-176.75,-112.02,-480,-7772,-3154,1,-1,0
162.85,-176.75,-112.00,-497,-7801,-3146,0,0,-1
162.86,-176.76,-111.99,-485,-7820,-3157,0,0,-1
162.87,-176.76,-111.99,-465,-7812,-3162,0,-1,0
162.87,-176.76,-111.98,-473,-7788,-3142,0,-1,0
162.87,-176.75,-111.98,-470,-7788,-3135,0,0,-1
162.87,-176.76,-111.99,-475,-7804,-3145,-1,0,-1
162.87,-176.76,-111.99,-478,-7804,-3142,-1,0,-1
162.87,-176.77,-112.00,-480,-7806,-3153,-1,0,-1
162.87,-176.77,-112.00,-474,-7799,-3161,0,0,0
162.87,-176.77,-112.00,-473,-7799,-3157,-1,0,0
162.87,-176.77,-112.00,-477,-7796,-3147,-1,0,-1
162.87,-176.77,-112.00,-473,-7801,-3148,-1,0,-1
162.87,-176.77,-112.01,-468,-7804,-3157,-1,0,0
162.86,-176.77,-112.02,-469,-7803,-3151,-1,0,0
162.85,-176.76,-112.02,-479,-7806,-3156,-1,0,0
162.84,-176.76,-112.02,-482,-7799,-3163,-1,-1,0
162.84,-176.76,-112.03,-477,-7792,-3167,0,0,0
162.84,-176.75,-112.02,-476,-7798,-3182,0,-1,0
162.84,-176.75,-112.01,-474,-7803,-3179,0,-1,0
162.85,-176.75,-112.00,-478,-7800,-3153,0,0,0
162.85,-176.75,-112.00,-476,-7803,-3157,0,-1,0
162.85,-176.75,-112.00,-481,-7797,-3145,0,-1,-1
162.85,-176.74,-111.99,-458,-7786,-3151,0,-1,0
162.84,-176.73,-111.98,-474,-7778,-3146,0,-1,0
162.85,-176.73,-111.97,-481,-7803,-3149,0,0,-1
162.86,-176.74,-111.96,-480,-7819,-3161,0,-1,-1
162.86,-176.74,-111.96,-471,-7815,-3166,0,-1,0
162.86,-176.73,-111.95,-474,-7796,-3146,0,-1,0
162.87,-176.74,-111.96,-477,-7801,-3145,-1,-1,0
162.86,-176.73,-111.97,-483,-7806,-3147,-1,-1,0
162.86,-176.73,-111.97,-485,-7809,-3152,-1,-1,0
162.86,-176.73,-111.97,-480,-7807,-3161,0,-1,0
162.86,-176.73,-111.97,-484,-7804,-3152,-1,-1,-1
162.85,-176.73,-111.98,-476,-7797,-3164,0,-1,0
162.85,-176.72,-111.97,-472,-7795,-3146,0,-1,0
162.85,-176.72,-111.96,-472,-7796,-3144,0,0,0
162.86,-176.73,-111.96,-477,-7800,-3151,-1,0,-1
162.85,-176.72,-111.97,-486,-7800,-3155,-1,-1,-1
162.85,-176.72,-111.97,-485,-7796,-3163,0,-1,0
162.86,-176.73,-111.97,-480,-7795,-3160,0,-1,-1
162.86,-176.73,-111.97,-473,-7794,-3147,0,-1,-1
162.86,-176.73,-111.97,-474,-7794,-3154,0,-1,0
162.86,-176.73,-111.97,-470,-7794,-3157,-1,-1,0
162.85,-176.72,-111.97,-478,-7799,-3157,-1,-1,0
162.85,-176.72,-111.97,-478,-7817,-3160,-1,-1,-1
162.85,-176.73,-111.98,-483,-7807,-3162,0,0,-1
162.85,-176.73,-111.98,-479,-7801,-3151,0,-1,0
162.85,-176.73,-111.98,-471,-7795,-3145,-1,0,0
162.86,-176.73,-111.98,-470,-7806,-3147,0,-1,0
162.85,-176.72,-111.98,-465,-7809,-3144,-1,-1,0
162.85,-176.72,-111.98,-472,-7813,-3150,-1,0,0
162.85,-176.72,-111.98,-469,-7813,-3165,0,0,-1
162.85,-176.73,-111.98,-470,-7813,-3160,0,-1,-1
162.86,-176.73,-111.97,-476,-7807,-3153,0,-1,0
162.85,-176.72,-111.97,-478,-7798,-3153,0,-1,-1
162.86,-176.73,-111.97,-479,-7807,-3145,-1,0,-1
162.86,-176.73,-111.97,-472,-7809,-3141,-1,-1,0
162.85,-176.72,-111.97,-470,-7805,-3156,0,-1,-1
162.86,-176.73,-111.97,-472,-7798,-3161,0,-1,0
162.86,-176.72,-111.96,-477,-7800,-3149,0,-1,-1
162.87,-176.73,-111.96,-471,-7799,-3150,0,-1,-1
162.87,-176.73,-111.96,-472,-7804,-3142,-1,-1,0
162.86,-176.73,-111.96,-483,-7797,-3149,-1,-1,0
162.86,-176.72,-111.97,-486,-7804,-3143,-1,-1,0
162.86,-176.72,-111.97,-488,-7804,-3163,-1,-1,-1
162.86,-176.72,-111.98,-484,-7803,-3164,-1,-1,-1
162.86,-176.72,-111.97,-479,-7803,-3153,0,-1,-1
162.86,-176.72,-111.97,-475,-7798,-3152,0,0,0
162.87,-176.72,-111.96,-483,-7801,-3136,-1,-1,-1
162.87,-176.72,-111.96,-485,-7810,-3137,0,0,-1
162.87,-176.72,-111.96,-488,-7813,-3146,0,-1,-1
162.87,-176.73,-111.96,-478,-7815,-3157,0,-1,-1
162.87,-176.73,-111.96,-471,-7801,-3153,0,-1,0
162.87,-176.73,-111.96,-467,-7797,-3157,0,-1,0
162.87,-176.72,-111.96,-482,-7806,-3145,0,-1,0
162.88,-176.73,-111.96,-481,-7812,-3166,0,-1,-1
162.88,-176.73,-111.96,-478,-7810,-3144,-1,0,-1
162.89,-176.74,-111.95,-477,-7811,-3145,0,-1,-1
162.89,-176.74,-111.95,-477,-7800,-3137,-1,-1,-1
162.89,-176.74,-111.95,-472,-7795,-3135,-1,0,0
162.89,-176.74,-111.96,-473,-7797,-3154,-1,0,-1
162.89,-176.75,-111.97,-467,-7807,-3159,-1,0,0
162.89,-176.75,-111.97,-474,-7807,-3164,0,-1,-1
162.89,-176.75,-111.97,-470,-7805,-3150,0,-1,-1
162.89,-176.75,-111.96,-471,-7803,-3149,0,0,0
162.89,-176.75,-111.96,-473,-7795,-3147,-1,0,-1
162.89,-176.76,-111.96,-478,-7805,-3160,0,0,-1
162.89,-176.76,-111.97,-473,-7803,-3164,-1,0,-1
162.89,-176.76,-111.97,-464,-7808,-3161,-1,-1,0
162.89,-176.76,-111.97,-464,-7807,-3149,0,0,-1
162.89,-176.76,-111.97,-464,-7806,-3142,-1,0,-1
162.89,-176.76,-111.97,-471,-7813,-3141,-1,0,-1
162.89,-176.77,-111.97,-479,-7811,-3154,-1,0,-1
162.90,-176.77,-111.97,-479,-7812,-3146,0,0,-1
162.90,-176.77,-111.97,-478,-7809,-3152,0,0,-1
162.90,-176.77,-111.97,-475,-7808,-3158,0,-1,0
162.89,-176.77,-111.97,-486,-7805,-3155,-1,0,-1
162.89,-176.77,-111.98,-472,-7806,-3159,0,-1,-1
162.89,-176.77,-111.98,-469,-7796,-3145,-1,-1,0
162.90,-176.77,-111.97,-476,-7798,-3145,-1,0,-1
162.89,-176.77,-111.98,-470,-7808,-3146,-1,0,-1
162.90,-176.78,-111.98,-476,-7816,-3161,-1,0,-1
162.90,-176.78,-111.98,-472,-7808,-3159,0,-1,0
162.89,-176.77,-111.98,-472,-7798,-3151,0,-1,0
162.90,-176.78,-111.98,-477,-7802,-3145,-1,0,-1
162.90,-176.79,-111.98,-468,-7797,-3145,-1,0,-1
162.90,-176.79,-111.98,-476,-7802,-3148,0,0,0
162.90,-176.78,-111.98,-473,-7806,-3152,-1,0,0
162.90,-176.78,-111.98,-476,-7809,-3150,-1,-1,0
162.89,-176.78,-111.98,-473,-7806,-3150,-1,-1,0
162.90,-176.78,-111.99,-473,-7803,-3147,0,0,-1
162.90,-176.78,-111.99,-470,-7792,-3148,0,0,0
162.89,-176.78,-111.99,-475,-7794,-3159,0,-1,-1
162.89,-176.78,-111.99,-476,-7797,-3158,0,0,-1
162.90,-176.79,-111.98,-472,-7797,-3149,0,0,-1
162.89,-176.78,-111.98,-474,-7806,-3143,-1,0,0
162.89,-176.78,-111.98,-468,-7800,-3143,-1,0,0
162.89,-176.78,-111.99,-476,-7795,-3141,-1,0,0
162.89,-176.78,-111.99,-477,-7798,-3151,-1,0,0
162.89,-176.79,-112.00,-467,-7800,-3153,-1,0,-1
162.88,-176.78,-112.00,-470,-7798,-3158,-1,0,-1
162.88,-176.78,-112.00,-470,-7797,-3154,0,-1,0
162.88,-176.78,-112.00,-474,-7795,-3152,0,0,0
162.88,-176.78,-111.99,-471,-7798,-3139,0,-1,0
162.88,-176.78,-111.99,-473,-7801,-3141,-1,-1,0
162.88,-176.78,-111.99,-476,-7802,-3158,0,0,-1
162.88,-176.78,-112.00,-471,-7800,-3156,-1,0,-1
162.88,-176.78,-112.00,-472,-7801,-3156,0,0,-1
162.88,-176.78,-111.99,-471,-7797,-3155,0,-1,-1
162.89,-176.79,-111.99,-468,-7798,-3150,0,0,-1
162.89,-176.79,-111.99,-471,-7801,-3160,-1,-1,-1
162.89,-176.79,-111.99,-463,-7802,-3160,0,-1,-1
162.89,-176.79,-112.00,-458,-7798,-3159,-1,-1,-1
162.89,-176.79,-112.00,-458,-7796,-3150,0,-1,-1
162.90,-176.80,-112.00,-458,-7802,-3146,-1,-1,0
162.90,-176.80,-112.00,-458,-7802,-3147,0,-1,-1
162.90,-176.80,-112.00,-466,-7804,-3148,-1,-1,-1
162.90,-176.80,-111.99,-473,-7803,-3148,0,-1,0
162.90,-176.80,-112.00,-473,-7796,-3157,-1,-1,-1
162.90,-176.80,-112.00,-473,-7801,-3165,0,-1,-1
162.90,-176.80,-112.00,-472,-7809,-3158,-1,-1,0
162.90,-176.80,-111.99,-475,-7807,-3150,0,-1,0
162.90,-176.80,-111.99,-478,-7802,-3157,-1,0,-1
162.90,-176.80,-112.00,-474,-7800,-3160,0,-1,-1
162.90,-176.80,-111.99,-471,-7794,-3150,0,-1,0
162.90,-176.79,-111.99,-471,-7795,-3158,0,-1,0
162.90,-176.79,-111.99,-475,-7798,-3156,0,0,-1
162.90,-176.80,-111.99,-464,-7801,-3153,-1,0,-1
162.90,-176.80,-111.99,-467,-7795,-3150,-1,-1,0
162.89,-176.79,-112.00,-473,-7802,-3153,-1,-1,0
162.89,-176.79,-112.00,-479,-7797,-3157,-1,0,0
162.89,-176.79,-112.00,-472,-7795,-3148,-1,0,-1
162.89,-176.79,-112.00,-467,-7805,-3167,0,-1,0
162.89,-176.79,-112.00,-463,-7791,-3160,0,-1,0
162.89,-176.79,-112.00,-474,-7797,-3158,0,0,-1
162.89,-176.78,-111.99,-473,-7807,-3159,0,0,-1
162.90,-176.79,-111.98,-463,-7806,-3164,0,-1,0
162.89,-176.78,-111.98,-458,-7794,-3156,0,-1,0
162.89,-176.76,-111.96,-483,-7789,-3146,0,-1,0
162.90,-176.77,-111.96,-487,-7810,-3147,0,0,-1
162.91,-176.78,-111.96,-477,-7827,-3161,0,0,-1
162.91,-176.78,-111.95,-465,-7815,-3164,0,-1,0
162.92,-176.78,-111.94,-471,-7790,-3143,0,-1,0
162.92,-176.77,-111.93,-476,-7799,-3135,0,0,0
162.92,-176.77,-111.93,-482,-7822,-3145,0,0,-1
162.92,-176.77,-111.93,-474,-7816,-3142,0,-1,0
162.92,-176.77,-111.92,-473,-7803,-3138,-1,-1,-1
162.92,-176.77,-111.93,-475,-7792,-3145,-1,-1,-1
162.92,-176.77,-111.94,-471,-7796,-3144,-1,0,0
162.92,-176.77,-111.94,-474,-7794,-3148,0,-1,0
162.92,-176.77,-111.94,-472,-7794,-3145,0,-1,0
162.91,-176.77,-111.94,-472,-7801,-3132,-1,-1,0
162.91,-176.77,-111.94,-471,-7808,-3133,-1,-1,0
162.91,-176.77,-111.94,-475,-7806,-3135,-1,-1,0
162.91,-176.77,-111.94,-476,-7801,-3135,0,-1,0
162.91,-176.76,-111.94,-482,-7799,-3132,0,-1,-1
162.91,-176.76,-111.94,-474,-7801,-3128,-1,0,-1
162.91,-176.76,-111.94,-474,-7802,-3134,0,0,-1
162.92,-176.77,-111.93,-475,-7804,-3138,0,0,-1
162.92,-176.77,-111.93,-468,-7802,-3149,0,-1,0
162.92,-176.77,-111.93,-472,-7806,-3146,0,-1,0
162.92,-176.77,-111.93,-477,-7807,-3139,0,-1,-1
162.93,-176.77,-111.92,-476,-7805,-3139,0,0,-1
162.93,-176.77,-111.92,-476,-7806,-3146,0,-1,0
162.94,-176.76,-111.91,-467,-7803,-3141,0,-1,0
162.94,-176.76,-111.90,-471,-7806,-3137,0,-1,0
162.95,-176.77,-111.90,-470,-7815,-3139,0,-1,-1
162.95,-176.77,-111.89,-467,-7805,-3132,-1,-1,0
162.95,-176.76,-111.89,-470,-7798,-3130,-1,-1,0
162.94,-176.77,-111.90,-473,-7804,-3135,-1,-1,0
162.94,-176.76,-111.91,-471,-7802,-3145,-1,-1,0
162.94,-176.76,-111.91,-477,-7799,-3160,0,-1,0
162.94,-176.76,-111.91,-485,-7801,-3157,0,-1,0
162.94,-176.76,-111.91,-474,-7803,-3149,0,-1,0
162.95,-176.76,-111.90,-473,-7809,-3145,0,-1,-1
162.95,-176.75,-111.89,-475,-7811,-3139,0,-1,-1
162.96,-176.76,-111.88,-476,-7808,-3135,0,-1,0
162.96,-176.76,-111.88,-479,-7809,-3136,-1,-1,-1
162.96,-176.76,-111.88,-472,-7806,-3137,-1,-1,-1
162.96,-176.76,-111.88,-471,-7814,-3132,0,-1,-1
162.96,-176.75,-111.88,-473,-7812,-3131,0,-1,0
162.96,-176.75,-111.88,-476,-7811,-3139,0,-1,-1
162.96,-176.75,-111.88,-476,-7809,-3145,0,-1,-1
162.97,-176.75,-111.88,-477,-7812,-3148,0,-1,0
162.97,-176.75,-111.88,-481,-7810,-3140,-1,-1,0
162.97,-176.75,-111.88,-481,-7808,-3140,0,-1,-1
162.97,-176.75,-111.88,-478,-7807,-3145,0,-1,-1
162.97,-176.76,-111.88,-480,-7805,-3148,0,-1,-1
162.97,-176.75,-111.88,-475,-7810,-3139,0,0,0
162.97,-176.75,-111.88,-473,-7803,-3135,0,-1,0
162.97,-176.75,-111.88,-474,-7800,-3139,-1,-1,0
162.97,-176.76,-111.89,-475,-7809,-3141,-1,0,-1
162.96,-176.75,-111.89,-480,-7806,-3140,-1,-1,-1
162.96,-176.76,-111.90,-477,-7805,-3148,-1,-1,0
162.96,-176.75,-111.90,-479,-7803,-3142,-1,-1,-1
162.96,-176.75,-111.90,-480,-7803,-3138,0,-1,0
162.96,-176.75,-111.90,-476,-7799,-3128,-1,-1,0
162.96,-176.75,-111.90,-473,-7796,-3124,-1,-1,0
162.96,-176.75,-111.90,-473,-7808,-3135,-1,-1,0
162.96,-176.74,-111.90,-480,-7813,-3146,0,-1,0
162.96,-176.74,-111.90,-481,-7807,-3144,0,-1,0
162.95,-176.74,-111.90,-483,-7806,-3136,0,-1,0
162.95,-176.74,-111.90,-481,-7806,-3144,0,-1,-1
162.96,-176.74,-111.89,-475,-7808,-3142,-1,-1,-1
162.96,-176.74,-111.89,-475,-7805,-3138,0,-1,-1
162.96,-176.74,-111.89,-474,-7813,-3136,-1,-1,0
162.96,-176.73,-111.89,-480,-7815,-3136,0,-1,0
162.96,-176.73,-111.89,-484,-7811,-3142,0,-1,0
162.96,-176.73,-111.89,-480,-7809,-3141,0,-1,-1
162.97,-176.73,-111.88,-480,-7816,-3127,0,-1,-1
162.97,-176.73,-111.87,-480,-7816,-3125,0,-1,0
162.96,-176.73,-111.88,-484,-7813,-3136,-1,-1,0
162.96,-176.72,-111.88,-488,-7813,-3151,-1,-1,0
162.95,-176.73,-111.89,-491,-7800,-3149,0,-1,-1
162.97,-176.73,-111.88,-489,-7802,-3149,0,-1,-1
162.97,-176.73,-111.88,-489,-7795,-3142,0,0,-1
162.97,-176.73,-111.88,-479,-7801,-3139,0,0,-1
162.97,-176.73,-111.87,-476,-7807,-3123,0,0,-1
162.98,-176.74,-111.87,-473,-7815,-3125,0,0,-1
162.98,-176.74,-111.87,-475,-7812,-3135,-1,0,-1
162.98,-176.75,-111.87,-472,-7810,-3125,-1,0,-1
162.98,-176.75,-111.88,-476,-7808,-3135,-1,0,0
162.98,-176.75,-111.88,-479,-7810,-3143,-1,0,-1
162.98,-176.75,-111.88,-479,-7816,-3143,0,0,-1
162.99,-176.75,-111.87,-473,-7819,-3150,-1,0,-1
162.99,-176.75,-111.87,-478,-7819,-3139,0,-1,-1
162.99,-176.75,-111.87,-479,-7813,-3127,-1,0,0
162.98,-176.75,-111.88,-486,-7815,-3125,-1,0,0
162.98,-176.75,-111.88,-487,-7813,-3130,-1,0,-1
162.97,-176.75,-111.88,-483,-7815,-3133,-1,0,0
162.97,-176.75,-111.88,-487,-7812,-3145,0,0,-1
162.97,-176.75,-111.88,-486,-7807,-3140,0,0,0
162.97,-176.75,-111.88,-479,-7805,-3141,-1,0,-1
162.97,-176.75,-111.88,-478,-7811,-3128,-1,0,-1
162.98,-176.76,-111.88,-485,-7810,-3120,-1,0,0
162.97,-176.76,-111.88,-482,-7816,-3131,-1,0,0
162.97,-176.76,-111.89,-478,-7815,-3141,-1,0,-1
162.97,-176.76,-111.89,-474,-7810,-3142,0,0,-1
162.98,-176.77,-111.88,-471,-7807,-3143,0,0,-1
162.97,-176.76,-111.89,-473,-7808,-3143,0,0,0
162.98,-176.77,-111.89,-469,-7804,-3141,0,0,0
162.98,-176.77,-111.89,-474,-7806,-3142,-1,0,-1
162.98,-176.77,-111.89,-475,-7813,-3143,0,0,-1
162.98,-176.78,-111.89,-473,-7817,-3142,-1,0,0
162.98,-176.78,-111.89,-478,-7808,-3135,-1,0,-1
162.98,-176.78,-111.89,-481,-7809,-3133,-1,0,-1
162.98,-176.78,-111.89,-482,-7812,-3141,-1,0,-1
162.97,-176.78,-111.90,-473,-7811,-3145,-1,0,0
162.97,-176.79,-111.90,-467,-7810,-3136,-1,0,-1
162.97,-176.79,-111.90,-471,-7806,-3131,0,0,-1
162.97,-176.79,-111.90,-470,-7802,-3137,-1,0,-1
162.98,-176.80,-111.90,-467,-7812,-3135,-1,0,-1
162.98,-176.80,-111.90,-468,-7817,-3124,-1,0,0
162.97,-176.79,-111.90,-476,-7814,-3122,-1,0,0
162.97,-176.79,-111.90,-475,-7814,-3124,-1,0,0
162.96,-176.79,-111.92,-477,-7804,-3134,-1,0,0
162.96,-176.79,-111.92,-472,-7805,-3143,-1,0,0
162.96,-176.79,-111.92,-476,-7805,-3145,-1,0,-1
162.95,-176.79,-111.92,-472,-7811,-3152,0,0,-1
162.96,-176.80,-111.92,-468,-7812,-3146,0,0,-1
162.96,-176.80,-111.92,-464,-7815,-3141,0,0,-1
162.97,-176.81,-111.92,-461,-7812,-3128,-1,0,-1
162.96,-176.81,-111.92,-469,-7813,-3133,-1,0,-1
162.96,-176.81,-111.93,-474,-7808,-3135,-1,0,0
162.95,-176.80,-111.93,-475,-7803,-3134,-1,0,-1
162.96,-176.81,-111.93,-474,-7805,-3131,-1,0,-1
162.96,-176.82,-111.94,-470,-7808,-3140,-1,0,-1
162.95,-176.81,-111.94,-471,-7807,-3146,-1,0,0
162.95,-176.81,-111.94,-468,-7809,-3143,0,0,0
162.95,-176.81,-111.94,-470,-7804,-3136,-1,0,0
162.94,-176.81,-111.94,-468,-7811,-3144,-1,0,-1
162.94,-176.81,-111.95,-474,-7808,-3155,-1,0,-1
162.94,-176.81,-111.95,-474,-7800,-3157,-1,0,0
162.94,-176.81,-111.95,-471,-7798,-3160,0,0,-1
162.95,-176.82,-111.95,-471,-7799,-3152,0,0,0
162.95,-176.82,-111.95,-468,-7808,-3148,0,0,-1
162.95,-176.82,-111.95,-469,-7817,-3154,0,0,-1
162.95,-176.82,-111.95,-477,-7813,-3154,-1,0,-1
162.95,-176.82,-111.95,-471,-7813,-3156,0,0,-1
162.95,-176.82,-111.95,-464,-7818,-3154,0,0,-1
162.96,-176.83,-111.95,-473,-7809,-3154,0,0,-1
162.96,-176.83,-111.94,-464,-7812,-3153,-1,0,-1
162.96,-176.84,-111.95,-462,-7807,-3156,0,0,-1
162.96,-176.84,-111.95,-455,-7808,-3152,-1,0,-1
162.96,-176.85,-111.95,-455,-7809,-3148,0,0,0
162.96,-176.85,-111.95,-465,-7813,-3139,0,-1,-1
162.96,-176.84,-111.95,-471,-7811,-3140,-1,0,0
162.96,-176.84,-111.95,-474,-7807,-3144,-1,0,0
162.96,-176.84,-111.95,-467,-7811,-3155,0,0,0
162.96,-176.84,-111.95,-459,-7811,-3152,0,-1,0
162.96,-176.84,-111.95,-469,-7806,-3144,0,-1,0
162.96,-176.84,-111.95,-469,-7811,-3148,0,0,0
162.96,-176.84,-111.94,-469,-7810,-3141,-1,0,-1
162.96,-176.84,-111.95,-452,-7812,-3144,-1,-1,-1
162.96,-176.84,-111.95,-466,-7810,-3136,-1,0,0
162.96,-176.84,-111.95,-468,-7806,-3131,-1,0,0
162.95,-176.83,-111.95,-477,-7798,-3137,-1,0,0
162.95,-176.84,-111.96,-471,-7800,-3142,-1,0,-1
162.95,-176.84,-111.96,-464,-7806,-3150,0,0,-1
162.96,-176.85,-111.96,-468,-7800,-3157,0,0,-1
162.96,-176.85,-111.95,-462,-7813,-3146,0,0,-1
162.96,-176.85,-111.95,-464,-7820,-3162,0,-1,-1
162.96,-176.85,-111.95,-463,-7823,-3164,0,-1,-1
162.98,-176.85,-111.93,-457,-7818,-3146,0,-1,-1
162.98,-176.85,-111.93,-455,-7808,-3132,0,-1,-1
162.98,-176.85,-111.93,-453,-7802,-3120,-1,0,0
162.97,-176.84,-111.94,-458,-7800,-3131,-1,0,0
162.97,-176.84,-111.94,-458,-7806,-3140,-1,0,0
162.97,-176.84,-111.94,-456,-7816,-3153,0,-1,0
162.97,-176.84,-111.94,-465,-7814,-3131,0,-1,0
162.97,-176.84,-111.94,-468,-7809,-3127,-1,-1,0
162.96,-176.83,-111.94,-472,-7802,-3124,-1,-1,0
162.96,-176.82,-111.93,-465,-7812,-3125,-1,0,0
162.96,-176.83,-111.94,-464,-7805,-3139,-1,-1,0
162.96,-176.83,-111.94,-461,-7807,-3144,0,-1,0
162.96,-176.82,-111.94,-469,-7810,-3138,0,-1,0
162.95,-176.81,-111.93,-471,-7804,-3136,0,-1,0
162.95,-176.81,-111.94,-470,-7808,-3136,-1,-1,0
162.94,-176.80,-111.94,-471,-7813,-3138,-1,-1,0
162.93,-176.80,-111.94,-470,-7817,-3141,-1,0,0
162.93,-176.80,-111.95,-472,-7822,-3148,-1,-1,0
162.93,-176.79,-111.94,-468,-7816,-3137,0,-1,0
162.93,-176.79,-111.94,-476,-7809,-3142,-1,-1,0
162.93,-176.79,-111.94,-472,-7810,-3147,-1,-1,0
162.93,-176.80,-111.95,-466,-7811,-3142,-1,-1,0
162.93,-176.79,-111.95,-466,-7813,-3149,-1,-1,0
162.93,-176.79,-111.94,-474,-7804,-3149,0,-1,0
162.92,-176.78,-111.95,-477,-7805,-3147,-1,-1,0
162.92,-176.78,-111.95,-480,-7805,-3141,-1,-1,0
162.91,-176.77,-111.95,-483,-7806,-3149,-1,0,0
162.91,-176.77,-111.95,-476,-7811,-3149,-1,-1,0
162.91,-176.78,-111.96,-476,-7810,-3155,-1,-1,0
162.90,-176.77,-111.96,-476,-7804,-3155,0,-1,0
162.91,-176.77,-111.96,-474,-7801,-3147,0,-1,0
162.90,-176.77,-111.95,-478,-7802,-3154,0,-1,0
162.90,-176.77,-111.95,-469,-7812,-3153,-1,0,0
162.90,-176.77,-111.96,-469,-7821,-3152,-1,-1,0
162.90,-176.76,-111.96,-476,-7813,-3151,-1,-1,0
162.90,-176.76,-111.96,-479,-7808,-3146,-1,-1,0
162.89,-176.76,-111.96,-478,-7806,-3145,-1,-1,0
162.88,-176.75,-111.97,-479,-7804,-3144,-1,0,0
162.88,-176.75,-111.97,-480,-7811,-3159,-1,-1,0
162.88,-176.75,-111.97,-485,-7810,-3148,0,-1,0
162.88,-176.74,-111.97,-478,-7807,-3143,0,-1,0
162.88,-176.74,-111.96,-473,-7807,-3134,0,-1,0
162.88,-176.74,-111.96,-479,-7813,-3136,-1,-1,0
162.88,-176.74,-111.96,-478,-7816,-3130,-1,-1,0
162.88,-176.74,-111.96,-478,-7812,-3129,-1,-1,0
162.88,-176.73,-111.96,-484,-7807,-3132,0,-1,0
162.88,-176.73,-111.96,-482,-7808,-3126,0,-1,0
162.87,-176.73,-111.96,-483,-7810,-3135,-1,0,-1
162.88,-176.73,-111.96,-482,-7809,-3131,0,-1,-1
162.88,-176.73,-111.96,-477,-7811,-3143,0,-1,-1
162.88,-176.73,-111.95,-476,-7806,-3137,0,-1,0
162.88,-176.73,-111.95,-481,-7808,-3133,0,-1,0
162.88,-176.73,-111.95,-480,-7804,-3130,-1,-1,-1
162.89,-176.73,-111.95,-486,-7799,-3140,-1,-1,-1
162.89,-176.73,-111.95,-483,-7799,-3153,0,-1,-1
162.89,-176.73,-111.95,-482,-7800,-3141,0,-1,-1
162.89,-176.74,-111.94,-486,-7793,-3146,0,0,-1
162.89,-176.74,-111.94,-486,-7803,-3144,0,0,-1
162.91,-176.74,-111.93,-478,-7810,-3135,0,0,-1
162.90,-176.75,-111.94,-480,-7815,-3151,0,-1,-1
162.91,-176.74,-111.93,-484,-7810,-3142,0,0,0
162.90,-176.74,-111.93,-487,-7803,-3136,-1,0,-1
162.90,-176.74,-111.93,-489,-7803,-3144,-1,0,-1
162.90,-176.74,-111.93,-484,-7812,-3139,0,0,-1
162.90,-176.75,-111.93,-480,-7815,-3138,0,-1,-1
162.91,-176.75,-111.93,-476,-7808,-3139,0,0,-1
162.91,-176.75,-111.93,-474,-7802,-3137,0,0,-1
162.91,-176.76,-111.93,-480,-7798,-3135,-1,0,0
162.90,-176.75,-111.93,-488,-7805,-3144,-1,0,-1
162.91,-176.75,-111.93,-490,-7805,-3146,0,0,-1
162.91,-176.75,-111.93,-490,-7810,-3140,0,0,-1
162.91,-176.76,-111.93,-482,-7806,-3133,-1,0,-1
162.92,-176.76,-111.93,-475,-7804,-3135,-1,0,-1
162.91,-176.76,-111.93,-478,-7805,-3134,0,0,-1
162.91,-176.76,-111.93,-477,-7812,-3140,0,0,-1
162.91,-176.76,-111.92,-472,-7817,-3135,0,0,-1
162.93,-176.77,-111.91,-472,-7825,-3130,0,0,-1
162.93,-176.78,-111.91,-471,-7827,-3129,-1,0,-1
162.93,-176.78,-111.92,-471,-7816,-3129,-1,0,-1
162.93,-176.78,-111.92,-476,-7813,-3145,-1,-1,0
162.92,-176.77,-111.92,-477,-7813,-3136,-1,0,0
162.92,-176.77,-111.93,-479,-7809,-3141,-1,0,-1
162.92,-176.78,-111.93,-483,-7810,-3148,-1,0,-1
162.92,-176.78,-111.93,-479,-7816,-3150,0,0,-1
162.93,-176.78,-111.92,-476,-7806,-3142,0,-1,0
162.94,-176.79,-111.92,-478,-7810,-3125,0,0,-1
162.94,-176.79,-111.92,-473,-7808,-3118,0,0,-1
162.94,-176.79,-111.91,-474,-7814,-3126,-1,0,-1
162.93,-176.79,-111.92,-471,-7814,-3131,-1,0,-1
162.93,-176.80,-111.92,-467,-7811,-3132,-1,0,-1
162.93,-176.80,-111.92,-465,-7805,-3137,0,0,-1
162.94,-176.80,-111.92,-473,-7802,-3135,-1,0,-1
162.94,-176.80,-111.92,-470,-7810,-3137,-1,0,-1
162.95,-176.81,-111.92,-464,-7811,-3147,-1,0,-1
162.94,-176.81,-111.92,-471,-7805,-3139,0,0,0
162.94,-176.81,-111.92,-472,-7808,-3135,-1,0,0
162.94,-176.81,-111.93,-470,-7810,-3132,-1,0,-1
162.93,-176.82,-111.94,-472,-7811,-3141,-1,0,-1
162.93,-176.82,-111.94,-474,-7808,-3141,-1,0,-1
162.93,-176.82,-111.94,-478,-7809,-3141,0,0,-1
162.94,-176.82,-111.93,-479,-7807,-3138,-1,0,-1
162.93,-176.82,-111.94,-475,-7813,-3138,-1,0,-1
162.94,-176.83,-111.94,-471,-7811,-3134,-1,0,0
162.93,-176.83,-111.95,-463,-7807,-3147,-1,0,-1
162.93,-176.83,-111.95,-464,-7802,-3140,-1,0,0
162.92,-176.83,-111.96,-473,-7807,-3139,-1,0,-1
162.92,-176.83,-111.96,-475,-7816,-3156,-1,0,-1
162.92,-176.83,-111.96,-474,-7814,-3151,-1,0,0
162.92,-176.83,-111.96,-471,-7808,-3146,-1,0,0
162.91,-176.83,-111.97,-476,-7802,-3147,-1,0,-1
162.91,-176.83,-111.97,-464,-7795,-3150,0,0,0
162.91,-176.83,-111.97,-467,-7796,-3142,-1,0,0
162.91,-176.83,-111.97,-472,-7809,-3148,0,0,-1
162.91,-176.83,-111.97,-465,-7809,-3131,-1,0,0
162.90,-176.83,-111.97,-476,-7811,-3151,-1,0,-1
162.90,-176.83,-111.98,-472,-7801,-3160,-1,0,-1
162.90,-176.83,-111.98,-468,-7805,-3157,0,0,-1
162.90,-176.83,-111.98,-467,-7797,-3144,-1,0,-1
162.91,-176.84,-111.97,-453,-7805,-3143,0,0,-1
162.92,-176.85,-111.97,-452,-7811,-3143,-1,0,-1
162.92,-176.85,-111.97,-450,-7809,-3142,-1,-1,-1
162.92,-176.85,-111.97,-446,-7801,-3131,-1,0,0
162.92,-176.85,-111.98,-453,-7808,-3130,-1,0,-1
162.92,-176.86,-111.99,-465,-7812,-3145,-1,0,-1
162.92,-176.86,-111.99,-460,-7805,-3151,-1,0,0
162.91,-176.85,-111.99,-470,-7802,-3165,0,0,-1
162.91,-176.85,-111.99,-476,-7808,-3155,0,0,-1
162.91,-176.86,-111.99,-472,-7808,-3151,0,0,-1
162.92,-176.86,-111.98,-464,-7800,-3143,0,-1,-1
162.92,-176.86,-111.98,-466,-7802,-3152,0,0,-1
162.92,-176.86,-111.98,-458,-7806,-3150,-1,-1,-1
162.92,-176.86,-111.98,-453,-7799,-3148,-1,-1,0
162.92,-176.86,-111.98,-463,-7797,-3150,-1,0,0
162.92,-176.86,-111.98,-467,-7799,-3154,0,0,-1
162.92,-176.86,-111.98,-456,-7808,-3153,-1,-1,-1
162.92,-176.86,-111.99,-454,-7811,-3172,0,-1,0
162.92,-176.86,-111.99,-459,-7810,-3152,-1,-1,0
162.92,-176.86,-111.98,-469,-7814,-3144,-1,-1,0
162.92,-176.86,-111.98,-470,-7813,-3134,-1,0,-1
162.92,-176.86,-111.98,-470,-7813,-3133,-1,0,0
162.92,-176.86,-111.99,-471,-7818,-3147,0,0,0
162.91,-176.85,-111.98,-472,-7805,-3147,0,0,0
162.91,-176.86,-111.98,-467,-7806,-3150,-1,0,-1
162.91,-176.85,-111.99,-473,-7813,-3163,-1,0,0
162.91,-176.85,-111.99,-472,-7805,-3158,0,0,0
162.91,-176.85,-111.99,-464,-7803,-3158,-1,0,0
162.90,-176.85,-111.99,-468,-7803,-3145,-1,0,0
162.90,-176.85,-111.99,-467,-7802,-3141,-1,0,-1
162.91,-176.85,-111.99,-467,-7804,-3150,-1,0,0
162.90,-176.85,-111.99,-467,-7803,-3153,-1,0,0
162.90,-176.85,-111.99,-470,-7803,-3149,0,0,0
162.90,-176.85,-111.99,-468,-7800,-3146,-1,0,0
162.90,-176.85,-111.99,-473,-7802,-3141,-1,-1,0
162.89,-176.84,-111.99,-474,-7806,-3146,0,-1,0
162.89,-176.84,-111.99,-474,-7804,-3136,-1,-1,0
162.89,-176.84,-111.98,-467,-7808,-3135,-1,-1,0
162.89,-176.84,-111.98,-462,-7811,-3138,-1,0,0
162.90,-176.84,-111.98,-460,-7812,-3155,0,-1,0
162.89,-176.84,-111.99,-462,-7809,-3161,0,-1,0
162.89,-176.84,-111.98,-466,-7808,-3148,0,0,-1
162.90,-176.84,-111.98,-460,-7806,-3151,-1,0,0
162.90,-176.84,-111.98,-458,-7816,-3150,-1,-1,0
162.90,-176.84,-111.98,-461,-7821,-3129,-1,-1,0
162.89,-176.84,-111.98,-463,-7803,-3140,-1,-1,0
162.89,-176.84,-111.98,-463,-7797,-3140,-1,-1,0
162.89,-176.83,-111.99,-472,-7803,-3148,0,0,0
162.88,-176.83,-111.99,-466,-7798,-3152,-1,0,0
162.88,-176.83,-111.99,-475,-7800,-3158,0,0,0
162.88,-176.83,-111.98,-469,-7800,-3154,0,-1,0
162.88,-176.83,-111.98,-474,-7801,-3145,0,0,0
162.88,-176.83,-111.98,-470,-7809,-3144,-1,0,0
162.88,-176.83,-111.98,-462,-7810,-3143,-1,0,0
162.88,-176.83,-111.98,-457,-7810,-3140,-1,-1,0
162.88,-176.83,-111.98,-465,-7808,-3147,-1,-1,0
162.88,-176.83,-111.98,-468,-7803,-3139,-1,0,0
162.88,-176.83,-111.98,-463,-7809,-3139,-1,0,0
162.88,-176.83,-111.98,-470,-7813,-3143,-1,0,-1
162.88,-176.83,-111.98,-463,-7812,-3144,-1,-1,0
162.88,-176.83,-111.98,-469,-7808,-3142,0,-1,0
162.87,-176.82,-111.99,-477,-7810,-3139,0,-1,0
162.87,-176.82,-111.99,-477,-7813,-3142,-1,0,0
162.87,-176.82,-111.99,-473,-7811,-3144,-1,-1,0
162.87,-176.82,-111.98,-474,-7807,-3139,0,-1,0
162.87,-176.81,-111.98,-475,-7808,-3145,0,-1,0
162.87,-176.81,-111.98,-475,-7810,-3145,-1,-1,0
162.87,-176.81,-111.98,-470,-7820,-3141,-1,-1,0
162.87,-176.81,-111.98,-472,-7814,-3146,-1,-1,-1
162.87,-176.81,-111.98,-467,-7815,-3149,-1,0,0
162.87,-176.80,-111.98,-465,-7808,-3142,0,-1,0
162.86,-176.80,-111.99,-465,-7800,-3138,-1,0,0
162.86,-176.80,-111.99,-464,-7805,-3139,-1,-1,0
162.86,-176.80,-111.99,-466,-7807,-3139,0,-1,0
162.86,-176.80,-111.98,-469,-7807,-3148,0,-1,0
162.86,-176.80,-111.98,-476,-7811,-3154,-1,-1,0
162.86,-176.79,-111.98,-475,-7811,-3151,-1,-1,0
162.86,-176.79,-111.98,-476,-7809,-3147,0,-1,0
162.86,-176.79,-111.98,-475,-7810,-3145,0,-1,0
162.86,-176.79,-111.98,-474,-7812,-3150,0,-1,0
162.86,-176.79,-111.98,-473,-7808,-3146,0,-1,0
162.86,-176.79,-111.98,-479,-7800,-3143,-1,0,-1
162.86,-176.79,-111.98,-477,-7796,-3146,-1,0,-1
162.86,-176.79,-111.98,-475,-7793,-3147,0,-1,-1
162.87,-176.80,-111.98,-475,-7797,-3146,0,-1,-1
162.87,-176.79,-111.97,-474,-7813,-3141,0,-1,-1
162.88,-176.80,-111.96,-481,-7816,-3140,0,-1,-1
162.88,-176.80,-111.96,-475,-7811,-3141,0,-1,-1
162.88,-176.80,-111.96,-465,-7802,-3137,0,-1,0
162.88,-176.79,-111.96,-471,-7800,-3130,-1,0,0
162.88,-176.79,-111.96,-477,-7800,-3139,-1,0,-1
162.89,-176.80,-111.95,-478,-7811,-3142,0,0,0
162.89,-176.80,-111.95,-478,-7812,-3144,0,-1,-1
162.89,-176.79,-111.94,-477,-7806,-3135,0,0,-1
162.90,-176.80,-111.93,-481,-7808,-3132,0,0,-1
162.90,-176.80,-111.93,-476,-7814,-3133,0,0,-1
162.91,-176.81,-111.93,-472,-7811,-3134,-1,0,-1
162.91,-176.81,-111.93,-472,-7808,-3136,-1,0,-1
162.91,-176.81,-111.93,-469,-7806,-3130,-1,0,-1
162.90,-176.81,-111.94,-469,-7802,-3141,0,0,-1
162.91,-176.81,-111.94,-468,-7809,-3146,-1,0,-1
162.91,-176.81,-111.94,-463,-7808,-3149,0,0,-1
162.91,-176.82,-111.94,-466,-7806,-3138,0,-1,-1
162.91,-176.82,-111.93,-471,-7800,-3139,0,0,0
162.91,-176.82,-111.93,-472,-7809,-3141,-1,0,-1
162.91,-176.82,-111.93,-473,-7809,-3142,-1,0,-1
162.91,-176.82,-111.94,-469,-7810,-3138,-1,0,-1
162.91,-176.82,-111.94,-467,-7814,-3141,-1,0,-1
162.91,-176.82,-111.94,-470,-7811,-3146,-1,0,0
162.91,-176.83,-111.94,-467,-7814,-3134,0,0,-1
162.91,-176.83,-111.94,-472,-7803,-3133,-1,0,-1
162.90,-176.83,-111.95,-468,-7810,-3140,-1,0,0
162.91,-176.84,-111.95,-461,-7819,-3147,-1,0,-1
162.91,-176.84,-111.95,-458,-7816,-3143,-1,0,-1
162.90,-176.84,-111.95,-462,-7810,-3156,-1,0,-1
162.91,-176.85,-111.95,-455,-7806,-3153,0,0,-1
162.90,-176.84,-111.96,-462,-7809,-3158,-1,0,0
162.91,-176.85,-111.95,-461,-7809,-3148,0,0,0
162.91,-176.85,-111.95,-468,-7808,-3139,-1,0,0
162.91,-176.85,-111.95,-466,-7815,-3139,-1,0,-1
162.91,-176.85,-111.95,-468,-7810,-3139,-1,0,-1
162.91,-176.85,-111.95,-468,-7813,-3139,0,0,-1
162.91,-176.85,-111.95,-465,-7802,-3147,-1,0,-1
162.91,-176.85,-111.95,-469,-7805,-3147,0,0,-1
162.91,-176.86,-111.95,-466,-7804,-3140,-1,0,-1
162.91,-176.86,-111.95,-466,-7809,-3145,-1,0,-1
162.91,-176.86,-111.95,-463,-7811,-3150,0,0,0
162.91,-176.86,-111.95,-466,-7805,-3147,0,0,0
162.91,-176.86,-111.95,-469,-7811,-3137,0,0,-1
162.92,-176.86,-111.94,-466,-7817,-3131,0,0,-1
162.92,-176.86,-111.94,-463,-7813,-3133,-1,0,-1
162.92,-176.86,-111.94,-462,-7809,-3140,-1,0,0
162.91,-176.86,-111.95,-465,-7805,-3145,-1,0,0
162.91,-176.86,-111.95,-466,-7804,-3150,-1,0,0
162.91,-176.86,-111.96,-469,-7801,-3149,-1,0,-1
162.91,-176.86,-111.96,-467,-7806,-3148,0,0,-1
162.91,-176.86,-111.95,-464,-7806,-3140,0,-1,0
162.91,-176.86,-111.95,-471,-7803,-3134,-1,0,0
162.91,-176.86,-111.95,-466,-7809,-3138,0,0,-1
162.91,-176.86,-111.95,-466,-7815,-3135,-1,0,-1
162.92,-176.87,-111.94,-459,-7813,-3144,-1,-1,-1
162.91,-176.86,-111.95,-458,-7808,-3137,-1,-1,0
162.91,-176.86,-111.95,-465,-7800,-3134,0,0,0
162.90,-176.86,-111.95,-470,-7802,-3137,-1,0,-1
162.91,-176.86,-111.95,-470,-7821,-3150,-1,0,-1
162.90,-176.87,-111.96,-464,-7818,-3149,0,-1,-1
162.91,-176.86,-111.95,-461,-7808,-3132,0,-1,0
162.90,-176.86,-111.95,-460,-7797,-3137,-1,0,0
162.90,-176.86,-111.96,-454,-7800,-3143,-1,0,0
162.90,-176.87,-111.96,-455,-7804,-3143,-1,0,-1
162.90,-176.87,-111.97,-460,-7809,-3153,0,-1,-1
162.90,-176.87,-111.97,-462,-7807,-3149,0,-1,-1
162.91,-176.87,-111.96,-456,-7806,-3134,0,-1,-1
162.91,-176.87,-111.95,-460,-7810,-3125,-1,0,-1
162.91,-176.87,-111.96,-467,-7811,-3128,-1,0,-1
162.90,-176.87,-111.96,-470,-7819,-3143,-1,0,-1
162.90,-176.87,-111.96,-466,-7820,-3148,0,-1,-1
162.90,-176.86,-111.96,-463,-7814,-3155,-1,-1,0
162.90,-176.86,-111.96,-458,-7804,-3148,-1,-1,-1
162.91,-176.87,-111.96,-460,-7809,-3141,0,0,-1
162.91,-176.87,-111.96,-455,-7807,-3133,-1,-1,-1
162.91,-176.87,-111.96,-459,-7808,-3138,-1,-1,0
162.91,-176.87,-111.96,-461,-7816,-3143,-1,-1,0
162.91,-176.87,-111.96,-465,-7814,-3143,-1,-1,0
162.91,-176.87,-111.96,-467,-7813,-3133,-1,0,-1
162.91,-176.87,-111.96,-467,-7807,-3138,-1,0,-1
162.90,-176.87,-111.97,-463,-7809,-3143,-1,-1,-1
162.91,-176.87,-111.96,-455,-7804,-3147,0,-1,0
162.90,-176.87,-111.97,-461,-7803,-3135,0,0,0
162.90,-176.87,-111.97,-462,-7800,-3145,-1,0,-1
162.90,-176.87,-111.97,-459,-7803,-3140,-1,0,0
162.90,-176.87,-111.97,-455,-7809,-3150,-1,-1,0
162.90,-176.87,-111.97,-453,-7804,-3146,0,-1,0
162.91,-176.87,-111.96,-452,-7804,-3134,0,-1,0
162.91,-176.87,-111.96,-455,-7807,-3134,-1,-1,0
162.91,-176.87,-111.96,-457,-7810,-3132,-1,-1,0
162.90,-176.86,-111.96,-461,-7812,-3131,-1,-1,0
162.89,-176.85,-111.97,-463,-7807,-3137,-1,-1,0
162.89,-176.85,-111.97,-466,-7804,-3149,-1,-1,0
162.89,-176.85,-111.98,-464,-7797,-3155,-1,-1,0
162.89,-176.85,-111.98,-467,-7801,-3167,0,-1,0
162.89,-176.85,-111.97,-466,-7803,-3156,0,-1,0
162.88,-176.84,-111.97,-472,-7806,-3156,0,-1,0
162.88,-176.84,-111.97,-467,-7810,-3151,-1,-1,0
162.88,-176.84,-111.97,-475,-7809,-3155,-1,-1,0
162.87,-176.83,-111.98,-469,-7800,-3159,-1,-1,0
162.87,-176.83,-111.98,-463,-7794,-3151,-1,-1,0
162.87,-176.83,-111.98,-463,-7800,-3138,-1,-1,0
162.87,-176.83,-111.98,-461,-7798,-3143,-1,-1,0
162.87,-176.83,-111.98,-461,-7813,-3151,-1,-1,-1
162.87,-176.83,-111.99,-461,-7809,-3156,-1,-1,-1
162.87,-176.83,-111.99,-461,-7802,-3151,-1,-1,0
162.86,-176.82,-111.99,-462,-7807,-3148,-1,-1,0
162.86,-176.82,-111.99,-460,-7808,-3147,-1,-1,0
162.86,-176.82,-111.99,-465,-7809,-3152,-1,0,0
162.86,-176.82,-111.99,-457,-7806,-3147,-1,-1,0
162.86,-176.82,-111.99,-457,-7797,-3143,-1,-1,0
162.85,-176.81,-112.00,-466,-7806,-3148,-1,0,0
162.85,-176.81,-112.00,-472,-7811,-3163,0,-1,-1
162.85,-176.81,-112.00,-473,-7806,-3166,0,-1,0
162.84,-176.80,-112.00,-471,-7795,-3147,0,-1,0
162.84,-176.80,-112.00,-467,-7790,-3150,0,0,0
162.84,-176.80,-112.00,-471,-7794,-3148,-1,0,0
162.84,-176.80,-111.99,-466,-7796,-3139,0,-1,0
162.85,-176.80,-111.99,-465,-7795,-3139,-1,-1,-1
162.85,-176.80,-111.99,-466,-7791,-3153,-1,-1,-1
162.85,-176.80,-111.99,-466,-7793,-3157,0,0,-1
162.85,-176.80,-111.99,-470,-7799,-3163,0,-1,-1
162.85,-176.80,-111.99,-474,-7803,-3168,0,-1,-1
162.85,-176.80,-111.98,-469,-7811,-3173,0,-1,-1
162.85,-176.80,-111.98,-465,-7807,-3165,0,-1,-1
162.85,-176.80,-111.98,-472,-7800,-3155,-1,-1,-1
162.86,-176.80,-111.98,-471,-7794,-3156,0,-1,-1
162.86,-176.80,-111.98,-474,-7787,-3154,0,0,-1
162.86,-176.81,-111.98,-470,-7794,-3155,0,0,-1
162.87,-176.81,-111.97,-464,-7801,-3138,-1,0,-1
162.87,-176.81,-111.97,-467,-7805,-3137,0,-1,0
162.87,-176.81,-111.98,-473,-7796,-3142,-1,0,0
162.86,-176.81,-111.98,-468,-7802,-3143,-1,0,0
162.86,-176.81,-111.99,-474,-7807,-3148,-1,0,0
162.85,-176.80,-111.99,-473,-7796,-3157,-1,0,-1
162.86,-176.81,-111.98,-475,-7798,-3157,0,0,-1
162.86,-176.81,-111.98,-474,-7807,-3153,0,0,-1
162.86,-176.81,-111.97,-487,-7812,-3145,0,-1,-1
162.87,-176.81,-111.97,-476,-7816,-3141,-1,0,-1
162.87,-176.82,-111.97,-466,-7816,-3151,-1,0,-1
162.87,-176.82,-111.97,-463,-7808,-3141,-1,0,0
162.87,-176.82,-111.97,-463,-7804,-3144,-1,0,-1
162.86,-176.82,-111.98,-468,-7807,-3145,-1,0,-1
162.87,-176.83,-111.98,-463,-7807,-3153,-1,0,-1
162.87,-176.83,-111.98,-458,-7800,-3148,0,0,-1
162.87,-176.83,-111.98,-457,-7807,-3154,-1,0,-1
162.87,-176.83,-111.98,-462,-7806,-3162,-1,0,-1
162.87,-176.83,-111.98,-466,-7797,-3151,-1,0,-1
162.87,-176.83,-111.98,-467,-7803,-3158,-1,0,0
162.87,-176.83,-111.99,-466,-7813,-3157,-1,0,-1
162.87,-176.83,-111.99,-465,-7815,-3167,-1,-1,-1
162.87,-176.83,-111.99,-462,-7812,-3163,0,-1,-1
162.87,-176.83,-111.98,-466,-7806,-3143,-1,-1,0
162.86,-176.83,-111.98,-471,-7812,-3152,-1,0,0
162.86,-176.83,-111.98,-475,-7819,-3161,-1,-1,-1
162.86,-176.82,-111.98,-472,-7813,-3165,-1,-1,0
162.86,-176.83,-111.99,-472,-7805,-3163,-1,-1,0
162.85,-176.82,-112.00,-459,-7797,-3164,-1,-1,0
162.85,-176.82,-112.00,-455,-7794,-3153,-1,-1,0
162.85,-176.82,-112.00,-467,-7800,-3149,-1,-1,0
162.85,-176.82,-112.00,-468,-7802,-3167,0,-1,0
162.84,-176.81,-111.99,-467,-7802,-3163,0,-1,0
162.85,-176.81,-111.99,-459,-7795,-3153,-1,-1,0
162.84,-176.81,-112.00,-460,-7791,-3155,-1,-1,0
162.84,-176.81,-112.00,-463,-7797,-3162,-1,-1,0
162.84,-176.81,-112.00,-462,-7799,-3162,0,-1,0
162.84,-176.80,-111.99,-465,-7805,-3157,0,0,-1
162.85,-176.81,-111.99,-463,-7816,-3159,0,-1,-1
162.85,-176.81,-111.98,-460,-7816,-3157,-1,-1,-1
162.85,-176.81,-111.99,-463,-7810,-3158,-1,-1,0
162.84,-176.80,-112.00,-462,-7805,-3153,-1,-1,0
162.84,-176.80,-112.00,-467,-7799,-3158,-1,-1,0
162.83,-176.80,-112.01,-467,-7798,-3161,-1,-1,-1
162.84,-176.81,-112.00,-462,-7798,-3161,0,-1,-1
162.84,-176.81,-112.00,-459,-7797,-3153,0,-1,-1
162.84,-176.80,-112.00,-460,-7803,-3146,0,-1,0
162.84,-176.80,-112.00,-467,-7803,-3143,0,-1,0
162.84,-176.79,-111.99,-464,-7806,-3139,0,-1,0
162.84,-176.79,-111.99,-472,-7804,-3141,0,-1,-1
162.84,-176.79,-111.98,-468,-7801,-3134,-1,-1,0
162.84,-176.79,-111.98,-467,-7801,-3143,-1,-1,0
162.84,-176.79,-111.98,-470,-7806,-3152,-1,-1,0
162.84,-176.79,-111.98,-472,-7803,-3159,-1,-1,-1
162.84,-176.79,-111.98,-473,-7799,-3160,0,-1,-1
162.85,-176.79,-111.98,-477,-7808,-3162,0,-1,-1
162.85,-176.79,-111.98,-481,-7813,-3158,0,-1,-1
162.85,-176.79,-111.97,-483,-7805,-3154,0,-1,-1
162.85,-176.79,-111.97,-475,-7803,-3160,-1,0,-1
162.85,-176.79,-111.98,-465,-7795,-3160,-1,0,-1
162.85,-176.79,-111.97,-468,-7804,-3161,0,0,0
162.86,-176.79,-111.97,-469,-7804,-3158,0,-1,-1
162.86,-176.79,-111.97,-470,-7802,-3157,0,0,-1
162.86,-176.79,-111.97,-471,-7804,-3142,-1,0,-1
162.86,-176.80,-111.96,-475,-7803,-3136,-1,0,0
162.86,-176.79,-111.97,-469,-7799,-3143,-1,0,0
162.86,-176.80,-111.97,-460,-7805,-3150,-1,-1,-1
162.86,-176.80,-111.98,-466,-7805,-3164,-1,0,-1
162.86,-176.80,-111.97,-474,-7804,-3157,0,0,-1
162.85,-176.80,-111.98,-474,-7810,-3154,-1,0,-1
162.85,-176.80,-111.98,-465,-7808,-3146,-1,0,-1
162.85,-176.80,-111.98,-468,-7806,-3152,-1,-1,0
162.86,-176.81,-111.98,-466,-7805,-3147,0,0,-1
162.85,-176.81,-111.98,-463,-7799,-3158,-1,0,0
162.85,-176.81,-111.98,-464,-7804,-3152,-1,0,-1
162.85,-176.81,-111.99,-468,-7807,-3156,-1,0,0
162.85,-176.81,-111.99,-463,-7806,-3157,-1,0,-1
162.85,-176.82,-111.99,-461,-7807,-3152,-1,0,-1
162.85,-176.82,-111.99,-468,-7810,-3159,0,0,-1
162.86,-176.83,-111.99,-464,-7804,-3163,-1,0,-1
162.85,-176.83,-112.00,-449,-7798,-3150,-1,0,0
162.85,-176.83,-112.01,-453,-7793,-3149,-1,0,0
162.85,-176.83,-112.01,-462,-7794,-3147,-1,0,-1
162.85,-176.84,-112.02,-461,-7797,-3162,-1,0,-1
162.85,-176.84,-112.02,-461,-7810,-3166,0,0,-1
162.85,-176.84,-112.02,-461,-7806,-3165,0,-1,-1
162.85,-176.84,-112.02,-464,-7806,-3160,0,-1,-1
162.85,-176.84,-112.01,-458,-7806,-3140,-1,0,-1
162.85,-176.84,-112.02,-461,-7807,-3153,-1,0,-1
162.85,-176.84,-112.02,-457,-7815,-3155,-1,0,-1
162.85,-176.84,-112.02,-463,-7808,-3152,-1,0,0
162.85,-176.85,-112.02,-459,-7801,-3151,-1,0,0
162.85,-176.85,-112.02,-460,-7802,-3152,-1,0,-1
162.85,-176.85,-112.02,-454,-7802,-3161,-1,0,-1
162.85,-176.86,-112.02,-453,-7810,-3158,-1,0,0
162.85,-176.85,-112.02,-465,-7805,-3155,-1,-1,0
162.85,-176.85,-112.02,-466,-7801,-3143,-1,0,0
162.85,-176.85,-112.03,-465,-7798,-3149,-1,0,-1
162.85,-176.85,-112.03,-458,-7796,-3158,-1,0,0
162.85,-176.85,-112.03,-461,-7797,-3159,0,0,0
162.85,-176.85,-112.03,-465,-7798,-3161,0,0,0
162.85,-176.85,-112.03,-460,-7790,-3158,-1,0,-1
162.85,-176.86,-112.03,-457,-7803,-3169,-1,0,-1
162.85,-176.86,-112.03,-455,-7803,-3168,-1,0,-1
162.85,-176.86,-112.03,-456,-7797,-3163,-1,0,-1
162.85,-176.86,-112.03,-455,-7799,-3149,-1,-1,-1
162.85,-176.86,-112.03,-465,-7801,-3156,0,0,-1
162.85,-176.86,-112.03,-458,-7796,-3162,-1,-1,-1
162.85,-176.86,-112.03,-454,-7798,-3163,0,-1,-1
162.85,-176.86,-112.04,-451,-7805,-3160,-1,0,0
162.85,-176.87,-112.04,-453,-7801,-3151,-1,-1,-1
162.85,-176.86,-112.04,-456,-7787,-3147,-1,0,-1
162.85,-176.86,-112.04,-458,-7785,-3153,-1,0,0
162.85,-176.86,-112.04,-463,-7791,-3156,-1,0,-1
162.85,-176.87,-112.04,-456,-7795,-3155,-1,0,0
162.85,-176.87,-112.03,-449,-7798,-3150,-1,-1,-1
162.85,-176.87,-112.03,-461,-7799,-3152,-1,-1,-1
162.85,-176.86,-112.03,-461,-7793,-3139,-1,0,0
162.85,-176.87,-112.03,-462,-7795,-3158,0,-1,-1
162.85,-176.86,-112.03,-455,-7797,-3166,0,-1,0
162.85,-176.86,-112.03,-452,-7798,-3154,0,-1,0
162.85,-176.86,-112.03,-455,-7801,-3155,0,0,-1
162.85,-176.86,-112.02,-449,-7807,-3156,-1,-1,-1
162.85,-176.86,-112.02,-451,-7804,-3161,-1,-1,-1
162.85,-176.86,-112.03,-451,-7805,-3157,-1,-1,0
162.85,-176.86,-112.03,-457,-7800,-3156,-1,-1,0
162.85,-176.86,-112.03,-462,-7803,-3160,-1,-1,-1
162.85,-176.87,-112.04,-456,-7806,-3163,-1,0,0
162.85,-176.87,-112.03,-460,-7804,-3166,0,-1,-1
162.85,-176.86,-112.03,-457,-7802,-3161,0,-1,0
162.85,-176.86,-112.02,-459,-7800,-3150,0,-1,-1
162.85,-176.86,-112.02,-460,-7796,-3158,0,-1,-1
162.85,-176.86,-112.02,-461,-7801,-3158,-1,0,-1
162.85,-176.86,-112.02,-456,-7807,-3159,-1,-1,-1
162.85,-176.86,-112.02,-452,-7803,-3165,-1,-1,0
162.85,-176.86,-112.02,-455,-7805,-3170,0,-1,0
162.85,-176.86,-112.02,-456,-7807,-3167,-1,-1,0
162.86,-176.86,-112.02,-456,-7808,-3161,0,-1,-1
162.85,-176.86,-112.02,-462,-7800,-3162,0,-1,0
162.85,-176.86,-112.02,-461,-7806,-3165,0,-1,0
162.85,-176.85,-112.02,-461,-7802,-3162,-1,-1,0
162.84,-176.84,-112.02,-471,-7801,-3157,-1,-1,0
162.84,-176.84,-112.03,-471,-7803,-3164,-1,0,0
162.84,-176.84,-112.03,-459,-7801,-3158,-1,-1,0
162.83,-176.84,-112.03,-466,-7800,-3161,-1,-1,0
162.83,-176.83,-112.03,-454,-7793,-3158,0,0,0
162.82,-176.83,-112.03,-465,-7800,-3147,-1,0,0
162.82,-176.83,-112.04,-463,-7808,-3161,-1,0,-1
162.82,-176.83,-112.04,-457,-7803,-3175,0,-1,0
162.82,-176.83,-112.03,-458,-7801,-3152,0,-1,0
162.82,-176.83,-112.03,-459,-7797,-3148,0,0,0
162.81,-176.82,-112.04,-463,-7805,-3156,-1,0,0
162.81,-176.83,-112.04,-465,-7815,-3168,0,0,-1
162.81,-176.82,-112.03,-459,-7807,-3167,0,-1,0
162.81,-176.82,-112.04,-462,-7805,-3165,0,-1,0
162.81,-176.82,-112.03,-468,-7795,-3159,0,-1,0
162.81,-176.81,-112.02,-470,-7794,-3158,0,0,-1
162.82,-176.82,-112.03,-470,-7803,-3168,-1,-1,-1
162.82,-176.82,-112.02,-469,-7793,-3165,0,-1,-1
162.82,-176.82,-112.02,-458,-7794,-3159,0,-1,0
162.83,-176.82,-112.01,-458,-7801,-3152,0,-1,0
162.83,-176.82,-112.01,-458,-7796,-3162,-1,-1,0
162.83,-176.81,-112.01,-460,-7802,-3161,-1,-1,0
162.83,-176.81,-112.01,-461,-7801,-3158,0,-1,0
162.83,-176.81,-112.01,-465,-7795,-3145,0,-1,0
162.84,-176.81,-112.00,-458,-7801,-3145,0,-1,-1
162.84,-176.82,-111.99,-457,-7804,-3144,-1,-1,-1
162.84,-176.82,-112.00,-455,-7810,-3150,-1,-1,-1
162.84,-176.81,-112.00,-461,-7801,-3152,-1,-1,0
162.84,-176.81,-112.00,-468,-7804,-3149,-1,-1,0
162.83,-176.81,-112.01,-473,-7803,-3160,-1,-1,-1
162.84,-176.81,-112.00,-471,-7797,-3155,0,-1,-1
162.84,-176.81,-112.00,-474,-7797,-3152,0,-1,-1
162.85,-176.82,-112.00,-464,-7795,-3160,0,-1,-1
162.85,-176.82,-111.99,-467,-7802,-3148,0,0,-1
162.85,-176.82,-111.99,-470,-7801,-3154,0,0,-1
162.86,-176.82,-111.98,-469,-7803,-3140,0,-1,-1
162.86,-176.82,-111.98,-462,-7812,-3141,0,-1,0
162.86,-176.82,-111.98,-465,-7807,-3140,-1,0,-1
162.87,-176.83,-111.97,-466,-7806,-3145,-1,0,0
162.86,-176.83,-111.98,-468,-7809,-3148,-1,0,-1
162.86,-176.83,-111.98,-470,-7813,-3152,-1,-1,-1
162.86,-176.83,-111.98,-469,-7814,-3145,-1,-1,-1
162.86,-176.83,-111.98,-465,-7807,-3141,-1,0,-1
162.86,-176.83,-111.98,-461,-7808,-3142,-1,0,0
162.86,-176.83,-111.98,-462,-7809,-3146,-1,-1,0
162.86,-176.83,-111.98,-461,-7806,-3141,-1,0,0
162.86,-176.83,-111.98,-466,-7802,-3156,0,0,-1
162.86,-176.83,-111.98,-467,-7803,-3152,-1,0,0
162.86,-176.83,-111.98,-473,-7799,-3153,0,0,-1
162.86,-176.83,-111.98,-465,-7799,-3150,0,0,0
162.86,-176.83,-111.98,-470,-7802,-3146,-1,0,0
162.86,-176.83,-111.98,-463,-7801,-3155,-1,0,0
162.86,-176.84,-111.99,-462,-7798,-3152,-1,0,-1
162.86,-176.84,-111.99,-460,-7801,-3141,-1,0,-1
162.87,-176.84,-111.99,-454,-7801,-3139,-1,0,-1
162.86,-176.85,-111.99,-454,-7794,-3157,-1,0,0
162.86,-176.84,-112.00,-458,-7799,-3153,-1,0,0
162.85,-176.84,-112.00,-465,-7797,-3156,-1,0,-1
162.85,-176.84,-112.00,-468,-7803,-3167,0,0,-1
162.85,-176.84,-112.00,-463,-7805,-3163,0,0,-1
162.85,-176.84,-112.00,-457,-7802,-3162,0,0,-1
162.85,-176.84,-112.00,-463,-7801,-3157,-1,0,0
162.86,-176.85,-112.00,-464,-7804,-3155,0,0,-1
162.86,-176.85,-112.00,-462,-7806,-3160,0,-1,-1
162.86,-176.85,-112.00,-455,-7802,-3147,0,-1,-1
162.86,-176.85,-111.99,-448,-7800,-3132,-1,0,-1
162.86,-176.86,-112.00,-447,-7802,-3136,-1,0,-1
162.86,-176.86,-112.00,-448,-7810,-3144,-1,0,0
162.86,-176.86,-112.00,-450,-7808,-3152,-1,-1,0
162.86,-176.86,-112.00,-449,-7801,-3149,0,-1,0
162.86,-176.86,-112.00,-446,-7787,-3154,-1,-1,-1
162.86,-176.86,-112.00,-452,-7797,-3164,0,0,-1
162.86,-176.86,-112.00,-449,-7797,-3176,0,0,0
162.86,-176.86,-112.00,-453,-7801,-3171,0,-1,-1
162.86,-176.86,-112.00,-456,-7789,-3153,-1,0,0
162.87,-176.87,-112.01,-460,-7805,-3156,-1,0,-1
162.87,-176.87,-112.01,-441,-7811,-3160,-1,-1,0
162.85,-176.86,-112.01,-444,-7795,-3147,-1,0,0
162.84,-176.85,-112.01,-460,-7802,-3149,-1,0,0
162.84,-176.85,-112.01,-469,-7819,-3154,-1,0,-1
162.85,-176.86,-112.01,-466,-7822,-3168,0,-1,-1
162.85,-176.86,-112.00,-457,-7814,-3154,0,-1,0
162.86,-176.86,-112.00,-457,-7802,-3148,0,-1,-1
162.86,-176.86,-112.00,-463,-7800,-3157,-1,-1,-1
162.85,-176.85,-112.01,-456,-7801,-3157,0,-1,0
162.85,-176.85,-112.01,-461,-7804,-3154,-1,-1,-1
162.85,-176.85,-112.01,-459,-7802,-3162,0,-1,-1
162.86,-176.86,-112.00,-458,-7804,-3177,-1,-1,0
162.86,-176.86,-112.00,-454,-7799,-3164,0,-1,0
162.86,-176.86,-112.00,-463,-7796,-3153,0,-1,-1
162.86,-176.86,-112.00,-461,-7811,-3150,-1,-1,-1
162.86,-176.85,-112.00,-464,-7807,-3155,-1,-1,0
162.86,-176.85,-112.01,-464,-7800,-3160,-1,-1,0
162.85,-176.85,-112.01,-464,-7804,-3163,-1,-1,0
162.85,-176.85,-112.01,-454,-7800,-3156,-1,-1,0
162.85,-176.85,-112.01,-460,-7808,-3153,-1,-1,0
162.85,-176.85,-112.01,-459,-7808,-3162,-1,-1,0
162.85,-176.84,-112.00,-457,-7804,-3152,-1,-1,0
162.85,-176.84,-112.00,-464,-7801,-3150,0,-1,0
162.85,-176.84,-112.00,-458,-7798,-3147,-1,-1,0
162.85,-176.84,-112.01,-458,-7801,-3168,-1,0,0
162.84,-176.84,-112.01,-462,-7801,-3162,0,-1,0
162.85,-176.83,-112.00,-464,-7801,-3157,0,-1,0
162.85,-176.83,-112.00,-465,-7799,-3154,-1,0,0
162.85,-176.83,-112.00,-462,-7802,-3160,-1,0,-1
162.84,-176.83,-112.02,-463,-7808,-3162,-1,0,-1
162.84,-176.83,-112.02,-457,-7802,-3156,-1,-1,0
162.83,-176.83,-112.02,-464,-7799,-3156,-1,-1,0
162.83,-176.83,-112.03,-469,-7802,-3153,-1,-1,0
162.83,-176.83,-112.03,-457,-7796,-3149,-1,-1,0
162.83,-176.83,-112.03,-459,-7794,-3163,-1,0,-1
162.82,-176.82,-112.03,-455,-7792,-3168,0,-1,0
162.81,-176.82,-112.04,-457,-7780,-3157,-1,-1,0
162.80,-176.81,-112.03,-471,-7792,-3155,-1,0,0
162.80,-176.81,-112.03,-476,-7805,-3163,-1,0,-1
162.80,-176.81,-112.03,-472,-7808,-3163,0,-1,0
162.80,-176.81,-112.03,-461,-7797,-3156,-1,-1,0
162.79,-176.80,-112.03,-473,-7794,-3146,-1,0,0
162.79,-176.80,-112.03,-476,-7808,-3155,-1,0,-1
162.79,-176.80,-112.04,-471,-7811,-3162,0,-1,0
162.79,-176.80,-112.03,-459,-7803,-3147,0,-1,0
162.80,-176.80,-112.03,-463,-7797,-3150,0,-1,-1
162.80,-176.79,-112.03,-464,-7798,-3150,0,-1,0
162.80,-176.79,-112.03,-463,-7801,-3142,-1,-1,0
162.80,-176.79,-112.03,-467,-7800,-3143,-1,0,0
162.78,-176.79,-112.04,-469,-7801,-3158,-1,0,0
162.78,-176.79,-112.04,-472,-7801,-3167,0,-1,0
162.79,-176.79,-112.03,-471,-7792,-3159,0,-1,0
162.80,-176.79,-112.02,-464,-7792,-3154,0,-1,0
162.80,-176.79,-112.02,-471,-7798,-3146,-1,0,0
162.79,-176.78,-112.02,-475,-7805,-3150,-1,-1,0
162.79,-176.78,-112.02,-468,-7805,-3158,0,-1,0
162.79,-176.78,-112.02,-474,-7794,-3151,-1,-1,0
162.78,-176.77,-112.02,-477,-7797,-3156,0,-1,0
162.78,-176.77,-112.02,-477,-7803,-3150,-1,-1,0
162.78,-176.77,-112.03,-474,-7803,-3157,-1,-1,0
162.78,-176.77,-112.03,-475,-7803,-3158,0,-1,0
162.78,-176.76,-112.02,-476,-7809,-3165,0,-1,0
162.78,-176.75,-112.01,-480,-7806,-3151,0,-1,0
162.77,-176.75,-112.02,-481,-7805,-3162,-1,-1,0
162.77,-176.75,-112.02,-474,-7794,-3160,-1,-1,-1
162.77,-176.75,-112.02,-469,-7794,-3175,0,-1,0
162.77,-176.75,-112.02,-471,-7789,-3166,0,-1,-1
162.78,-176.75,-112.01,-482,-7801,-3154,0,-1,-1
162.78,-176.75,-112.01,-478,-7808,-3156,0,-1,-1
162.80,-176.76,-112.00,-471,-7805,-3148,0,-1,-1
162.79,-176.75,-112.00,-470,-7799,-3142,-1,-1,0
162.79,-176.75,-112.00,-468,-7799,-3140,-1,-1,0
162.79,-176.76,-112.01,-474,-7798,-3150,-1,0,0
162.78,-176.75,-112.01,-480,-7797,-3159,-1,0,-1
162.78,-176.75,-112.01,-483,-7807,-3168,-1,0,-1
162.79,-176.76,-112.01,-483,-7809,-3162,0,-1,-1
162.80,-176.76,-112.00,-477,-7799,-3155,0,-1,-1
162.81,-176.77,-112.00,-468,-7801,-3145,0,-1,0
162.81,-176.77,-112.00,-470,-7805,-3140,-1,0,-1
162.81,-176.78,-112.00,-462,-7810,-3145,-1,0,-1
162.81,-176.78,-112.01,-469,-7813,-3152,-1,0,-1
162.80,-176.78,-112.02,-469,-7805,-3149,-1,0,0
162.79,-176.78,-112.03,-464,-7797,-3153,-1,0,0
162.79,-176.78,-112.03,-465,-7801,-3157,-1,0,0
162.78,-176.78,-112.04,-468,-7803,-3166,-1,0,-1
162.77,-176.78,-112.05,-470,-7801,-3166,-1,0,0
162.77,-176.78,-112.05,-473,-7799,-3161,-1,-1,0
162.76,-176.77,-112.06,-478,-7795,-3164,-1,0,0
162.76,-176.77,-112.06,-472,-7796,-3167,-1,-1,0
162.76,-176.77,-112.07,-471,-7788,-3166,-1,0,0
162.76,-176.77,-112.06,-472,-7802,-3159,0,-1,0
162.76,-176.77,-112.06,-477,-7803,-3163,0,-1,0
162.76,-176.77,-112.05,-480,-7801,-3155,0,-1,0
162.77,-176.77,-112.06,-468,-7796,-3161,-1,-1,0
162.76,-176.76,-112.06,-470,-7796,-3159,-1,-1,0
162.76,-176.77,-112.06,-475,-7798,-3172,-1,-1,-1
162.76,-176.77,-112.06,-471,-7793,-3171,-1,-1,-1
162.76,-176.76,-112.06,-482,-7793,-3165,0,-1,-1
162.76,-176.76,-112.06,-473,-7793,-3169,-1,-1,-1
162.76,-176.77,-112.07,-466,-7800,-3171,-1,-1,0
162.76,-176.77,-112.07,-471,-7796,-3169,-1,-1,0
162.76,-176.77,-112.07,-472,-7799,-3166,0,-1,-1
162.76,-176.77,-112.07,-468,-7801,-3163,-1,-1,-1
162.76,-176.76,-112.06,-468,-7797,-3170,0,-1,-1
162.76,-176.76,-112.06,-471,-7797,-3165,0,0,-1
162.77,-176.77,-112.05,-475,-7797,-3156,0,0,-1
162.77,-176.77,-112.05,-472,-7796,-3157,0,0,-1
162.78,-176.78,-112.05,-462,-7799,-3152,0,0,-1
162.78,-176.78,-112.05,-462,-7801,-3152,0,0,-1
162.79,-176.78,-112.04,-469,-7796,-3152,0,0,0
162.78,-176.78,-112.04,-474,-7799,-3160,0,0,-1
162.79,-176.79,-112.04,-476,-7804,-3167,0,0,-1
162.80,-176.79,-112.04,-465,-7805,-3162,0,0,-1
162.80,-176.80,-112.04,-470,-7808,-3154,-1,0,-1
162.80,-176.80,-112.04,-471,-7806,-3169,0,0,-1
162.80,-176.81,-112.04,-462,-7793,-3152,-1,0,0
162.79,-176.81,-112.05,-469,-7796,-3164,-1,0,-1
162.80,-176.81,-112.05,-473,-7804,-3167,-1,0,-1
162.80,-176.81,-112.05,-477,-7804,-3174,0,0,-1
162.80,-176.82,-112.06,-466,-7808,-3181,0,0,-1
162.80,-176.82,-112.06,-476,-7800,-3177,0,0,-1
162.80,-176.83,-112.06,-467,-7797,-3161,-1,0,-1
162.80,-176.83,-112.05,-465,-7803,-3162,-1,0,-1
162.81,-176.84,-112.06,-459,-7808,-3164,-1,0,-1
162.81,-176.84,-112.06,-454,-7805,-3159,-1,0,0
162.80,-176.84,-112.07,-462,-7795,-3153,-1,0,0
162.80,-176.84,-112.07,-466,-7800,-3166,-1,0,-1
162.80,-176.84,-112.07,-470,-7806,-3165,0,0,-1
162.80,-176.85,-112.07,-457,-7809,-3156,-1,-1,0
162.80,-176.85,-112.07,-465,-7801,-3164,-1,0,0
162.80,-176.85,-112.07,-472,-7805,-3168,-1,0,-1
162.80,-176.85,-112.07,-472,-7799,-3166,-1,0,0
162.79,-176.85,-112.08,-462,-7794,-3172,0,0,0
162.78,-176.85,-112.08,-473,-7800,-3176,-1,0,-1
162.78,-176.85,-112.08,-471,-7802,-3174,0,0,-1
162.79,-176.85,-112.08,-464,-7793,-3150,-1,0,0
162.80,-176.85,-112.07,-466,-7794,-3155,0,0,-1
162.80,-176.86,-112.07,-460,-7798,-3154,0,0,-1
162.80,-176.86,-112.07,-464,-7796,-3156,0,0,-1
162.80,-176.86,-112.07,-466,-7799,-3161,0,0,-1
162.81,-176.86,-112.06,-460,-7803,-3173,0,-1,-1
162.81,-176.86,-112.06,-462,-7795,-3166,0,-1,0
162.81,-176.86,-112.06,-455,-7797,-3163,0,-1,0
162.81,-176.86,-112.06,-466,-7799,-3176,0,-1,-1
162.81,-176.86,-112.06,-468,-7797,-3172,0,-1,0
162.81,-176.85,-112.06,-474,-7795,-3167,0,-1,0
162.81,-176.85,-112.05,-472,-7789,-3162,0,-1,0
162.80,-176.85,-112.06,-470,-7795,-3170,-1,0,0
162.80,-176.85,-112.06,-473,-7799,-3175,-1,0,0
162.80,-176.85,-112.06,-470,-7804,-3162,0,-1,0
162.80,-176.85,-112.06,-471,-7804,-3162,0,-1,0
162.80,-176.84,-112.06,-467,-7801,-3157,0,-1,0
162.80,-176.84,-112.06,-463,-7794,-3148,-1,0,0
162.80,-176.84,-112.06,-462,-7796,-3153,-1,0,-1
162.80,-176.85,-112.06,-458,-7799,-3169,0,-1,0
162.79,-176.84,-112.07,-459,-7791,-3168,-1,-1,0
162.80,-176.84,-112.06,-459,-7794,-3172,0,-1,-1
162.81,-176.85,-112.06,-463,-7803,-3156,-1,0,-1
162.81,-176.85,-112.06,-459,-7803,-3167,0,-1,0
162.80,-176.84,-112.06,-459,-7805,-3154,-1,0,0
162.80,-176.84,-112.07,-468,-7805,-3153,-1,-1,0
162.80,-176.84,-112.07,-469,-7802,-3161,-1,-1,0
162.79,-176.84,-112.08,-473,-7803,-3173,-1,0,0
162.78,-176.83,-112.08,-480,-7794,-3179,-1,0,-1
162.79,-176.84,-112.08,-471,-7793,-3181,0,0,-1
162.78,-176.83,-112.08,-470,-7798,-3172,-1,0,0
162.78,-176.83,-112.08,-474,-7801,-3162,0,-1,0
162.78,-176.83,-112.08,-470,-7798,-3168,-1,-1,0
162.78,-176.83,-112.08,-462,-7793,-3156,0,-1,0
162.78,-176.83,-112.08,-466,-7796,-3164,-1,0,0
162.78,-176.83,-112.08,-462,-7796,-3166,0,-1,0
162.78,-176.83,-112.08,-462,-7800,-3176,0,-1,0
162.78,-176.82,-112.08,-460,-7799,-3166,0,-1,0
162.78,-176.82,-112.08,-460,-7802,-3161,0,-1,0
162.78,-176.81,-112.08,-470,-7798,-3166,0,-1,0
162.78,-176.81,-112.08,-468,-7799,-3158,0,-1,0
162.77,-176.81,-112.08,-464,-7792,-3165,-1,-1,0
162.77,-176.81,-112.08,-472,-7789,-3168,0,0,0
162.76,-176.80,-112.08,-476,-7794,-3182,-1,0,-1
162.77,-176.81,-112.08,-470,-7794,-3174,0,-1,0
162.77,-176.81,-112.08,-472,-7799,-3176,0,-1,0
162.77,-176.81,-112.07,-466,-7800,-3166,0,-1,0
162.77,-176.81,-112.07,-474,-7803,-3168,-1,0,-1
162.77,-176.81,-112.07,-470,-7797,-3171,0,-1,0
162.77,-176.81,-112.07,-467,-7789,-3168,0,0,0
162.78,-176.81,-112.07,-467,-7785,-3168,0,-1,-1
162.78,-176.81,-112.07,-469,-7788,-3156,0,0,-1
162.79,-176.82,-112.07,-467,-7792,-3162,0,-1,-1
162.79,-176.82,-112.07,-461,-7788,-3166,0,-1,-1
162.79,-176.82,-112.06,-468,-7790,-3176,0,-1,-1
162.80,-176.82,-112.06,-467,-7796,-3178,0,-1,-1
162.80,-176.82,-112.06,-464,-7797,-3165,0,0,-1
162.80,-176.82,-112.05,-468,-7796,-3157,0,0,0
162.80,-176.82,-112.05,-469,-7795,-3161,-1,0,-1
162.80,-176.83,-112.06,-467,-7798,-3167,-1,0,-1
162.80,-176.83,-112.06,-474,-7815,-3174,0,0,-1
162.80,-176.83,-112.06,-480,-7807,-3173,0,0,-1
162.81,-176.83,-112.05,-471,-7799,-3173,0,0,-1
162.81,-176.83,-112.05,-473,-7793,-3164,0,0,-1
162.81,-176.83,-112.05,-474,-7802,-3158,-1,0,-1
162.81,-176.84,-112.05,-478,-7803,-3160,-1,0,-1
162.80,-176.83,-112.05,-468,-7798,-3165,-1,0,0
162.80,-176.83,-112.06,-470,-7795,-3164,0,0,0
162.79,-176.83,-112.07,-480,-7802,-3169,-1,0,0
162.79,-176.83,-112.07,-482,-7801,-3165,-1,0,0
162.78,-176.82,-112.07,-479,-7800,-3165,-1,0,0
162.78,-176.83,-112.08,-480,-7799,-3162,-1,0,0
162.78,-176.83,-112.08,-477,-7801,-3166,-1,0,-1
162.78,-176.83,-112.08,-471,-7797,-3163,-1,0,-1
162.78,-176.83,-112.08,-468,-7795,-3167,-1,0,-1
162.77,-176.83,-112.09,-469,-7790,-3167,-1,0,0
162.76,-176.83,-112.10,-469,-7792,-3175,-1,0,0
162.76,-176.83,-112.11,-466,-7787,-3177,-1,0,0
162.75,-176.82,-112.11,-471,-7789,-3168,0,0,-1
162.76,-176.83,-112.11,-467,-7795,-3171,-1,0,-1
162.75,-176.82,-112.11,-467,-7795,-3176,-1,-1,0
162.75,-176.82,-112.11,-470,-7791,-3174,0,-1,0
162.75,-176.82,-112.11,-471,-7785,-3171,0,-1,0
162.75,-176.82,-112.11,-469,-7789,-3172,-1,0,0
162.75,-176.82,-112.12,-464,-7797,-3169,-1,-1,0
162.74,-176.82,-112.13,-465,-7791,-3176,-1,-1,0
162.74,-176.82,-112.13,-467,-7784,-3186,0,-1,0
162.73,-176.81,-112.13,-465,-7793,-3177,-1,0,0
162.73,-176.81,-112.13,-474,-7796,-3171,-1,0,-1
162.73,-176.81,-112.14,-472,-7796,-3177,-1,-1,-1
162.73,-176.81,-112.14,-468,-7790,-3172,-1,-1,0
162.71,-176.80,-112.15,-475,-7803,-3178,-1,-1,0
162.72,-176.81,-112.15,-466,-7797,-3184,0,-1,0
162.72,-176.81,-112.15,-466,-7794,-3178,-1,-1,0
162.71,-176.80,-112.16,-472,-7791,-3179,-1,-1,0
162.71,-176.80,-112.16,-472,-7797,-3174,-1,-1,0
162.71,-176.80,-112.16,-468,-7797,-3174,-1,-1,-1
162.71,-176.80,-112.16,-475,-7802,-3176,0,-1,0
162.72,-176.80,-112.15,-479,-7799,-3165,-1,-1,-1
162.71,-176.80,-112.16,-478,-7791,-3169,-1,-1,-1
162.72,-176.80,-112.15,-462,-7780,-3163,0,-1,0
162.71,-176.80,-112.16,-468,-7788,-3178,0,-1,0
162.71,-176.79,-112.16,-472,-7803,-3181,0,-1,-1
162.71,-176.79,-112.16,-471,-7800,-3185,0,-1,0
162.71,-176.79,-112.16,-472,-7792,-3184,0,-1,0
162.72,-176.79,-112.15,-472,-7790,-3181,0,-1,-1
162.72,-176.79,-112.14,-474,-7789,-3176,0,-1,-1
162.73,-176.79,-112.13,-473,-7786,-3175,0,-1,-1
162.74,-176.79,-112.13,-476,-7798,-3166,0,-1,-1
162.75,-176.80,-112.13,-475,-7798,-3169,-1,-1,-1
162.74,-176.80,-112.14,-473,-7794,-3184,-1,-1,-1
162.75,-176.80,-112.14,-471,-7788,-3178,0,-1,-1
162.75,-176.80,-112.14,-473,-7788,-3177,-1,-1,-1
162.76,-176.81,-112.14,-471,-7778,-3178,0,-1,-1
162.76,-176.81,-112.14,-474,-7778,-3177,-1,0,-1
162.75,-176.81,-112.15,-476,-7792,-3181,-1,0,-1
162.75,-176.81,-112.15,-476,-7794,-3182,0,0,-1
162.76,-176.82,-112.15,-475,-7798,-3182,0,0,-1
162.77,-176.83,-112.14,-465,-7794,-3173,0,0,-1
162.77,-176.83,-112.14,-465,-7794,-3165,0,0,-1
162.77,-176.83,-112.14,-465,-7796,-3163,0,0,-1
162.77,-176.83,-112.14,-467,-7785,-3167,-1,0,0
162.77,-176.83,-112.14,-462,-7783,-3177,0,0,-1
162.77,-176.83,-112.15,-463,-7787,-3189,0,0,-1
162.77,-176.83,-112.15,-467,-7795,-3182,0,0,-1
162.77,-176.84,-112.15,-468,-7791,-3167,0,0,-1
162.78,-176.84,-112.14,-470,-7788,-3172,0,0,-1
162.78,-176.84,-112.14,-469,-7792,-3172,-1,0,0
162.77,-176.84,-112.15,-475,-7796,-3181,0,0,-1
162.77,-176.84,-112.15,-473,-7796,-3185,0,0,-1
162.77,-176.84,-112.15,-471,-7796,-3186,0,0,-1
162.79,-176.85,-112.14,-465,-7790,-3177,0,0,-1
162.78,-176.84,-112.14,-467,-7789,-3164,0,0,0
162.78,-176.85,-112.14,-472,-7795,-3168,-1,0,-1
162.78,-176.85,-112.14,-475,-7797,-3174,-1,0,-1
162.78,-176.85,-112.14,-472,-7798,-3180,0,0,-1
162.78,-176.85,-112.14,-474,-7801,-3169,0,0,-1
162.78,-176.85,-112.14,-471,-7798,-3168,0,0,-1
162.79,-176.85,-112.13,-466,-7789,-3159,0,0,0
162.79,-176.85,-112.13,-467,-7792,-3167,0,0,-1
162.79,-176.85,-112.13,-470,-7794,-3177,0,0,-1
162.79,-176.85,-112.13,-472,-7792,-3179,0,0,-1
162.79,-176.85,-112.13,-469,-7795,-3177,0,0,0
162.79,-176.86,-112.13,-463,-7796,-3175,0,0,-1
162.79,-176.86,-112.13,-468,-7798,-3176,0,0,-1
162.79,-176.86,-112.14,-463,-7800,-3179,0,0,-1
162.79,-176.87,-112.14,-467,-7791,-3178,-1,0,-1
162.79,-176.87,-112.13,-465,-7797,-3175,0,0,-1
162.79,-176.87,-112.13,-466,-7794,-3169,0,0,-1
162.80,-176.87,-112.14,-462,-7797,-3172,-1,0,-1
162.80,-176.87,-112.14,-462,-7793,-3177,0,0,0
162.79,-176.87,-112.13,-466,-7791,-3181,0,0,0
162.79,-176.87,-112.13,-471,-7791,-3176,0,0,-1
162.80,-176.88,-112.13,-467,-7801,-3170,0,0,-1
162.80,-176.88,-112.13,-468,-7801,-3168,0,0,-1
162.80,-176.88,-112.13,-468,-7794,-3166,-1,0,0
162.80,-176.88,-112.13,-462,-7792,-3171,-1,0,0
162.79,-176.88,-112.14,-470,-7793,-3175,-1,0,-1
162.79,-176.88,-112.15,-465,-7796,-3188,-1,0,-1
162.79,-176.88,-112.15,-465,-7795,-3189,0,0,-1
162.79,-176.88,-112.15,-475,-7787,-3194,0,0,-1
162.79,-176.88,-112.15,-470,-7786,-3180,0,0,-1
162.79,-176.88,-112.14,-463,-7787,-3178,0,0,-1
162.79,-176.88,-112.14,-465,-7785,-3174,0,0,-1
162.79,-176.88,-112.14,-461,-7790,-3167,-1,0,-1
162.80,-176.89,-112.14,-454,-7788,-3174,-1,0,0
162.80,-176.89,-112.14,-458,-7790,-3172,-1,0,0
162.79,-176.88,-112.14,-458,-7791,-3168,0,0,0
162.79,-176.89,-112.15,-462,-7788,-3176,-1,0,-1
162.80,-176.89,-112.15,-461,-7786,-3185,0,0,-1
162.79,-176.89,-112.15,-466,-7786,-3179,0,0,0
162.79,-176.88,-112.14,-467,-7784,-3177,0,-1,0
162.79,-176.88,-112.14,-467,-7785,-3161,-1,0,0
162.78,-176.88,-112.15,-460,-7791,-3179,-1,0,-1
162.78,-176.89,-112.16,-463,-7797,-3183,-1,0,-1
162.78,-176.89,-112.16,-465,-7791,-3181,0,0,-1
162.79,-176.89,-112.15,-464,-7786,-3168,0,0,-1
162.80,-176.90,-112.15,-465,-7795,-3175,0,0,-1
162.79,-176.90,-112.15,-461,-7798,-3182,0,0,-1
162.79,-176.90,-112.15,-457,-7794,-3185,0,0,0
162.80,-176.90,-112.15,-457,-7794,-3179,0,-1,0
162.79,-176.90,-112.15,-466,-7789,-3182,0,0,-1
162.79,-176.90,-112.15,-467,-7790,-3180,0,0,0
162.78,-176.90,-112.16,-461,-7790,-3179,-1,0,0
162.78,-176.90,-112.16,-460,-7790,-3184,0,-1,0
162.78,-176.90,-112.16,-455,-7791,-3185,-1,-1,0
162.79,-176.90,-112.16,-457,-7794,-3183,0,-1,-1
162.79,-176.90,-112.16,-458,-7793,-3181,0,-1,0
162.79,-176.90,-112.16,-456,-7792,-3185,0,-1,0
162.79,-176.90,-112.16,-460,-7798,-3185,0,0,0
162.79,-176.90,-112.16,-456,-7798,-3183,0,0,-1
162.78,-176.90,-112.16,-459,-7798,-3179,0,0,0
162.79,-176.90,-112.16,-456,-7791,-3175,-1,0,-1
162.79,-176.90,-112.16,-451,-7794,-3172,-1,0,0
162.78,-176.90,-112.16,-460,-7785,-3173,0,0,0
162.79,-176.90,-112.15,-461,-7789,-3176,0,-1,0
162.79,-176.89,-112.15,-460,-7792,-3172,0,-1,-1
162.79,-176.89,-112.15,-456,-7794,-3176,0,0,-1
162.79,-176.90,-112.15,-458,-7805,-3187,-1,-1,0
162.79,-176.89,-112.16,-453,-7796,-3191,-1,-1,0
162.78,-176.89,-112.16,-455,-7791,-3186,-1,0,0
162.78,-176.89,-112.16,-459,-7788,-3180,-1,-1,0
162.77,-176.88,-112.17,-467,-7791,-3182,-1,0,-1
162.77,-176.88,-112.17,-466,-7794,-3186,0,0,-1
162.77,-176.88,-112.17,-466,-7795,-3195,0,-1,0
162.78,-176.89,-112.16,-467,-7794,-3190,0,0,0
162.77,-176.88,-112.16,-466,-7795,-3184,0,0,0
162.77,-176.88,-112.16,-458,-7798,-3183,0,0,0
162.77,-176.88,-112.16,-462,-7794,-3180,0,0,0
162.77,-176.88,-112.16,-455,-7786,-3180,0,-1,-1
162.77,-176.88,-112.16,-457,-7784,-3186,-1,-1,0
162.77,-176.88,-112.16,-461,-7788,-3176,0,-1,0
162.77,-176.88,-112.16,-459,-7792,-3173,-1,0,0
162.77,-176.88,-112.16,-466,-7795,-3182,0,0,0
162.77,-176.88,-112.16,-467,-7793,-3182,0,-1,0
162.77,-176.88,-112.16,-464,-7794,-3180,-1,-1,0
162.76,-176.87,-112.17,-473,-7794,-3182,-1,-1,0
162.76,-176.87,-112.17,-466,-7790,-3175,-1,-1,0
162.76,-176.87,-112.17,-463,-7785,-3188,0,0,0
162.76,-176.87,-112.17,-461,-7784,-3191,0,0,0
162.76,-176.87,-112.17,-463,-7783,-3191,0,0,0
162.76,-176.87,-112.16,-460,-7787,-3179,0,0,0
162.76,-176.87,-112.16,-461,-7792,-3178,0,-1,-1
162.77,-176.87,-112.16,-460,-7798,-3187,0,-1,0
162.77,-176.87,-112.16,-462,-7800,-3180,0,-1,0
162.75,-176.86,-112.16,-465,-7793,-3185,-1,-1,0
162.75,-176.86,-112.16,-464,-7787,-3181,0,-1,0
162.75,-176.86,-112.17,-470,-7790,-3181,-1,0,0
162.75,-176.86,-112.17,-467,-7795,-3179,-1,-1,0
162.75,-176.86,-112.16,-470,-7799,-3182,0,-1,0
162.75,-176.85,-112.17,-468,-7796,-3180,0,0,0
162.75,-176.85,-112.17,-471,-7787,-3180,0,-1,-1
162.75,-176.85,-112.16,-471,-7784,-3174,0,-1,-1
162.75,-176.85,-112.17,-469,-7783,-3184,-1,-1,0
162.75,-176.85,-112.17,-463,-7785,-3186,0,-1,0
162.74,-176.85,-112.17,-467,-7786,-3187,0,-1,0
162.75,-176.85,-112.16,-466,-7790,-3177,0,-1,0
162.75,-176.85,-112.16,-477,-7796,-3172,0,-1,-1
162.75,-176.85,-112.16,-477,-7800,-3177,0,-1,-1
162.75,-176.84,-112.16,-472,-7792,-3182,-1,-1,0
162.75,-176.84,-112.16,-470,-7787,-3180,-1,-1,0
162.74,-176.83,-112.16,-478,-7785,-3177,-1,-1,0
162.73,-176.83,-112.17,-474,-7788,-3170,-1,0,0
162.73,-176.83,-112.17,-474,-7792,-3184,0,-1,0
162.73,-176.83,-112.16,-474,-7794,-3175,0,-1,0
162.73,-176.83,-112.16,-474,-7798,-3175,0,0,0
162.74,-176.82,-112.15,-473,-7792,-3175,0,-1,-1
162.74,-176.83,-112.15,-465,-7791,-3168,-1,-1,0
162.74,-176.82,-112.15,-466,-7800,-3171,0,-1,0
162.74,-176.82,-112.15,-468,-7796,-3163,-1,0,0
162.74,-176.82,-112.15,-471,-7797,-3171,-1,-1,0
162.73,-176.82,-112.16,-476,-7796,-3173,0,-1,0
162.73,-176.82,-112.16,-473,-7801,-3173,0,-1,0
162.73,-176.82,-112.16,-476,-7797,-3181,0,-1,-1
162.73,-176.82,-112.15,-474,-7795,-3179,0,-1,0
162.74,-176.82,-112.15,-475,-7794,-3184,0,-1,0
162.74,-176.82,-112.15,-476,-7792,-3190,0,-1,-1
162.74,-176.82,-112.15,-469,-7785,-3175,0,0,-1
162.74,-176.82,-112.15,-465,-7790,-3184,0,0,-1
162.74,-176.82,-112.15,-470,-7789,-3184,0,0,-1
162.74,-176.82,-112.14,-472,-7797,-3188,0,-1,-1
162.74,-176.82,-112.14,-476,-7793,-3178,0,0,-1
162.75,-176.82,-112.14,-477,-7793,-3180,0,0,-1
162.75,-176.82,-112.14,-475,-7793,-3189,-1,0,-1
162.75,-176.82,-112.14,-480,-7793,-3183,0,0,-1
162.75,-176.82,-112.14,-470,-7788,-3178,0,-1,-1
162.75,-176.82,-112.14,-469,-7787,-3168,0,0,-1
162.75,-176.83,-112.14,-472,-7787,-3177,0,0,-1
162.75,-176.83,-112.14,-472,-7790,-3182,0,0,-1
162.75,-176.83,-112.14,-469,-7792,-3179,0,0,-1
162.76,-176.83,-112.13,-464,-7792,-3173,-1,0,-1
162.76,-176.83,-112.13,-466,-7789,-3178,0,-1,0
162.76,-176.83,-112.13,-474,-7783,-3177,-1,0,-1
162.76,-176.83,-112.14,-476,-7795,-3178,-1,0,0
162.75,-176.83,-112.14,-475,-7802,-3184,0,0,-1
162.76,-176.83,-112.13,-475,-7794,-3187,0,0,-1
162.76,-176.84,-112.13,-471,-7802,-3184,0,0,-1
162.76,-176.84,-112.13,-471,-7804,-3186,0,0,-1
162.77,-176.84,-112.13,-464,-7800,-3177,-1,-1,-1
162.77,-176.84,-112.13,-467,-7800,-3172,-1,-1,-1
162.77,-176.84,-112.14,-466,-7791,-3177,-1,0,0
162.76,-176.84,-112.14,-467,-7785,-3175,-1,0,0
162.76,-176.84,-112.14,-468,-7795,-3178,0,0,-1
162.76,-176.84,-112.14,-478,-7799,-3181,0,0,-1
162.76,-176.84,-112.14,-474,-7791,-3179,0,0,0
162.76,-176.84,-112.14,-469,-7787,-3183,0,0,-1
162.76,-176.84,-112.14,-468,-7797,-3171,0,0,-1
162.77,-176.85,-112.14,-464,-7798,-3171,0,0,-1
162.77,-176.85,-112.14,-465,-7793,-3174,0,0,-1
162.77,-176.85,-112.14,-465,-7786,-3170,-1,0,0
162.76,-176.85,-112.14,-466,-7788,-3174,-1,0,-1
162.76,-176.85,-112.14,-471,-7795,-3176,-1,0,-1
162.76,-176.85,-112.14,-471,-7797,-3177,0,0,-1
162.77,-176.86,-112.14,-469,-7793,-3172,0,0,0
162.77,-176.85,-112.13,-474,-7792,-3174,0,0,0
162.77,-176.85,-112.13,-463,-7782,-3174,-1,0,0
162.76,-176.85,-112.14,-471,-7788,-3170,-1,0,0
162.76,-176.86,-112.15,-470,-7793,-3186,-1,0,0
162.75,-176.85,-112.16,-466,-7788,-3192,-1,0,-1
162.75,-176.86,-112.15,-461,-7782,-3176,0,0,0
162.75,-176.86,-112.15,-460,-7785,-3177,0,0,-1
162.76,-176.86,-112.15,-459,-7792,-3177,0,0,-1
162.76,-176.86,-112.15,-465,-7798,-3178,-1,0,-1
162.76,-176.86,-112.15,-468,-7797,-3170,-1,0,0
162.76,-176.86,-112.15,-464,-7796,-3185,0,0,0
162.76,-176.87,-112.16,-468,-7793,-3178,-1,0,-1
162.75,-176.87,-112.16,-464,-7789,-3179,-1,0,-1
162.76,-176.87,-112.16,-462,-7790,-3179,0,0,-1
162.75,-176.87,-112.16,-465,-7787,-3180,0,0,-1
162.75,-176.87,-112.16,-462,-7787,-3191,-1,0,0
162.75,-176.87,-112.16,-469,-7794,-3187,-1,0,0
162.75,-176.87,-112.17,-470,-7790,-3195,-1,0,-1
162.75,-176.87,-112.17,-461,-7786,-3190,-1,0,0
162.74,-176.87,-112.17,-466,-7785,-3182,-1,0,0
162.74,-176.87,-112.17,-460,-7790,-3179,-1,0,-1
162.74,-176.87,-112.17,-463,-7791,-3184,-1,0,-1
162.74,-176.87,-112.17,-464,-7794,-3184,0,0,0
162.74,-176.87,-112.17,-459,-7786,-3175,0,0,0
162.75,-176.87,-112.17,-466,-7796,-3182,0,0,0
162.74,-176.87,-112.17,-472,-7806,-3182,0,0,-1
162.74,-176.87,-112.16,-469,-7799,-3175,-1,0,-1
162.74,-176.88,-112.17,-460,-7790,-3173,-1,0,0
162.74,-176.87,-112.17,-466,-7786,-3185,0,0,0
162.74,-176.87,-112.18,-470,-7777,-3181,-1,0,-1
162.74,-176.87,-112.18,-467,-7788,-3182,-1,0,-1
162.74,-176.88,-112.18,-461,-7793,-3187,0,0,-1
162.74,-176.88,-112.18,-466,-7795,-3188,0,-1,-1
162.74,-176.88,-112.17,-463,-7798,-3176,0,-1,0
162.74,-176.88,-112.17,-464,-7800,-3178,-1,0,-1
162.75,-176.88,-112.17,-458,-7804,-3166,-1,0,-1
162.75,-176.89,-112.17,-462,-7802,-3176,0,0,-1
162.75,-176.89,-112.18,-456,-7795,-3186,0,-1,0
162.74,-176.88,-112.17,-463,-7793,-3180,0,0,0
162.74,-176.88,-112.17,-462,-7793,-3183,0,0,-1
162.74,-176.88,-112.18,-459,-7790,-3191,0,0,-1
162.74,-176.88,-112.18,-462,-7791,-3191,0,-1,0
162.75,-176.89,-112.17,-470,-7788,-3178,0,-1,0
162.74,-176.88,-112.17,-468,-7787,-3174,-1,0,0
162.74,-176.88,-112.18,-463,-7791,-3185,-1,0,0
162.74,-176.88,-112.18,-452,-7788,-3194,0,0,0
162.73,-176.87,-112.18,-464,-7792,-3200,0,0,0
162.73,-176.87,-112.18,-463,-7792,-3195,0,-1,-1
162.73,-176.87,-112.17,-464,-7792,-3185,0,0,0
162.73,-176.87,-112.17,-463,-7793,-3185,-1,0,-1
162.74,-176.88,-112.18,-460,-7790,-3193,-1,0,-1
162.74,-176.88,-112.18,-459,-7788,-3192,-1,0,0
162.74,-176.88,-112.18,-464,-7797,-3190,0,-1,0
162.74,-176.88,-112.18,-465,-7787,-3176,0,0,-1
162.74,-176.88,-112.18,-463,-7785,-3181,0,0,-1
162.74,-176.88,-112.18,-460,-7789,-3183,-1,0,-1
162.74,-176.88,-112.18,-461,-7791,-3181,0,-1,0
162.74,-176.88,-112.18,-463,-7790,-3186,0,-1,-1
162.74,-176.88,-112.18,-460,-7785,-3189,0,0,0
162.74,-176.88,-112.18,-458,-7785,-3188,0,-1,-1
162.74,-176.88,-112.18,-460,-7788,-3190,0,-1,-1
162.74,-176.88,-112.18,-459,-7793,-3187,0,-1,-1
162.74,-176.88,-112.18,-458,-7787,-3186,0,-1,0
162.74,-176.88,-112.18,-456,-7793,-3176,-1,-1,-1
162.74,-176.88,-112.18,-462,-7801,-3181,-1,-1,-1
162.74,-176.88,-112.18,-460,-7792,-3178,0,-1,0
162.74,-176.88,-112.17,-459,-7792,-3177,0,-1,-1
162.74,-176.88,-112.17,-460,-7797,-3178,0,-1,-1
162.75,-176.88,-112.17,-462,-7803,-3172,0,-1,-1
162.75,-176.88,-112.17,-463,-7796,-3176,-1,-1,0
162.74,-176.88,-112.17,-460,-7790,-3171,-1,-1,0
162.74,-176.87,-112.17,-460,-7795,-3180,-1,-1,0
162.74,-176.87,-112.18,-462,-7791,-3184,-1,-1,0
162.74,-176.87,-112.18,-465,-7790,-3182,0,0,-1
162.74,-176.87,-112.17,-462,-7795,-3180,0,-1,0
162.74,-176.87,-112.17,-462,-7795,-3176,0,-1,-1
162.74,-176.87,-112.17,-461,-7796,-3177,0,0,0
162.74,-176.87,-112.17,-460,-7801,-3174,0,-1,-1
162.74,-176.87,-112.17,-461,-7800,-3174,-1,0,-1
162.74,-176.87,-112.17,-455,-7790,-3175,0,-1,0
162.74,-176.87,-112.17,-462,-7790,-3171,-1,0,0
162.74,-176.87,-112.17,-466,-7795,-3180,0,-1,-1
162.74,-176.87,-112.17,-459,-7793,-3172,0,0,-1
162.74,-176.87,-112.17,-464,-7791,-3178,-1,0,-1
162.74,-176.87,-112.17,-468,-7792,-3181,0,-1,0
162.74,-176.87,-112.17,-468,-7788,-3168,0,-1,0
162.74,-176.87,-112.17,-465,-7795,-3169,-1,0,0
162.74,-176.87,-112.17,-469,-7799,-3177,-1,-1,-1
162.73,-176.87,-112.18,-464,-7797,-3191,0,-1,-1
162.74,-176.86,-112.17,-465,-7797,-3184,0,-1,0
162.74,-176.86,-112.17,-463,-7789,-3178,0,0,0
162.73,-176.86,-112.17,-464,-7787,-3190,0,0,0
162.73,-176.87,-112.17,-467,-7795,-3187,-1,0,-1
162.73,-176.87,-112.18,-465,-7794,-3189,-1,0,-1
162.73,-176.87,-112.18,-464,-7787,-3180,0,-1,0
162.73,-176.87,-112.18,-463,-7781,-3175,0,-1,0
162.73,-176.87,-112.18,-461,-7789,-3175,-1,0,0
162.73,-176.87,-112.18,-460,-7791,-3173,-1,-1,0
162.72,-176.86,-112.18,-463,-7793,-3181,-1,0,0
162.72,-176.87,-112.18,-458,-7801,-3176,0,0,-1
162.72,-176.87,-112.18,-457,-7805,-3175,-1,0,0
162.72,-176.87,-112.18,-463,-7795,-3173,-1,0,0
162.72,-176.87,-112.18,-464,-7793,-3178,0,-1,0
162.72,-176.87,-112.18,-468,-7796,-3182,0,0,0
162.72,-176.87,-112.18,-464,-7792,-3181,-1,0,-1
162.71,-176.86,-112.18,-466,-7784,-3181,-1,0,-1
162.71,-176.86,-112.18,-466,-7787,-3179,0,0,-1
162.72,-176.87,-112.19,-454,-7789,-3180,-1,0,0
162.72,-176.87,-112.19,-461,-7793,-3187,0,0,0
162.71,-176.86,-112.19,-468,-7790,-3188,0,-1,0
162.72,-176.87,-112.19,-463,-7791,-3181,0,0,-1
162.72,-176.87,-112.19,-468,-7802,-3179,0,-1,-1
162.72,-176.87,-112.18,-463,-7798,-3172,0,-1,-1
162.72,-176.87,-112.19,-463,-7798,-3179,-1,-1,0
162.72,-176.87,-112.19,-463,-7793,-3181,-1,0,0
162.70,-176.86,-112.20,-463,-7796,-3191,-1,0,0
162.70,-176.86,-112.20,-466,-7790,-3188,-1,-1,0
162.70,-176.86,-112.20,-470,-7782,-3191,0,0,-1
162.70,-176.86,-112.20,-470,-7782,-3193,0,0,0
162.71,-176.87,-112.19,-460,-7791,-3200,0,0,-1
162.71,-176.87,-112.20,-463,-7792,-3195,0,0,-1
162.71,-176.87,-112.19,-462,-7789,-3185,0,0,-1
162.71,-176.87,-112.19,-463,-7790,-3185,0,0,-1
162.71,-176.87,-112.20,-456,-7788,-3182,-1,-1,0
162.71,-176.87,-112.20,-459,-7786,-3181,0,-1,0
162.71,-176.87,-112.20,-465,-7793,-3188,-1,0,-1
162.71,-176.87,-112.20,-465,-7784,-3187,0,0,-1
162.71,-176.87,-112.20,-462,-7785,-3185,0,-1,-1
162.71,-176.87,-112.20,-462,-7791,-3184,0,-1,0
162.71,-176.87,-112.20,-465,-7791,-3192,0,-1,0
162.71,-176.87,-112.20,-464,-7785,-3191,-1,-1,0
162.71,-176.87,-112.20,-458,-7785,-3181,-1,0,-1
162.71,-176.87,-112.20,-460,-7784,-3183,-1,-1,-1
162.71,-176.87,-112.21,-464,-7792,-3194,0,-1,-1
162.71,-176.87,-112.20,-463,-7789,-3194,0,-1,-1
162.72,-176.87,-112.20,-454,-7789,-3185,-1,-1,0
162.72,-176.87,-112.20,-461,-7788,-3173,-1,0,-1
162.71,-176.87,-112.20,-463,-7785,-3172,-1,0,0
162.71,-176.87,-112.21,-459,-7789,-3179,-1,-1,0
162.70,-176.86,-112.21,-464,-7789,-3185,-1,-1,0
162.70,-176.86,-112.21,-465,-7791,-3193,-1,-1,-1
162.70,-176.86,-112.21,-460,-7792,-3192,0,-1,-1
162.70,-176.86,-112.21,-460,-7787,-3189,0,-1,-1
162.70,-176.86,-112.21,-461,-7788,-3182,0,-1,-1
162.71,-176.87,-112.21,-461,-7790,-3182,0,-1,0
162.70,-176.86,-112.21,-458,-7788,-3172,-1,-1,0
162.70,-176.86,-112.20,-462,-7795,-3169,0,-1,0
162.70,-176.86,-112.21,-465,-7792,-3178,-1,-1,0
162.70,-176.86,-112.21,-468,-7793,-3183,-1,-1,0
162.70,-176.86,-112.21,-468,-7787,-3196,0,-1,-1
162.70,-176.86,-112.21,-466,-7785,-3182,-1,-1,-1
162.70,-176.86,-112.21,-463,-7789,-3179,0,-1,0
162.70,-176.85,-112.21,-466,-7787,-3188,-1,-1,0
162.70,-176.85,-112.21,-463,-7786,-3186,-1,-1,-1
162.70,-176.85,-112.21,-464,-7786,-3196,0,-1,0
162.69,-176.85,-112.21,-465,-7790,-3189,0,-1,0
162.69,-176.85,-112.21,-466,-7785,-3183,0,-1,0
162.69,-176.85,-112.21,-462,-7791,-3182,0,-1,-1
162.69,-176.85,-112.21,-464,-7790,-3186,-1,-1,-1
162.69,-176.84,-112.22,-464,-7788,-3194,0,-1,0
162.69,-176.84,-112.22,-466,-7783,-3188,-1,-1,0
162.68,-176.83,-112.22,-476,-7782,-3187,-1,0,0
162.68,-176.83,-112.22,-474,-7784,-3187,-1,0,0
162.67,-176.83,-112.23,-469,-7799,-3198,-1,-1,0
162.67,-176.83,-112.23,-471,-7798,-3203,0,-1,-1
162.67,-176.83,-112.22,-466,-7789,-3190,0,-1,0
162.68,-176.83,-112.22,-458,-7794,-3183,0,-1,0
162.68,-176.84,-112.22,-461,-7787,-3185,-1,-1,-1
162.68,-176.84,-112.22,-458,-7789,-3187,0,-1,0
162.68,-176.83,-112.22,-457,-7784,-3189,-1,-1,0
162.68,-176.83,-112.23,-455,-7784,-3185,-1,-1,0
162.67,-176.83,-112.22,-461,-7785,-3180,0,-1,0
162.67,-176.83,-112.22,-463,-7789,-3184,0,-1,0
162.67,-176.82,-112.23,-465,-7789,-3194,0,-1,0
162.67,-176.82,-112.23,-462,-7791,-3194,0,-1,0
162.67,-176.82,-112.23,-460,-7785,-3195,0,-1,0
162.67,-176.82,-112.23,-465,-7784,-3191,0,-1,0
162.67,-176.82,-112.23,-465,-7787,-3190,-1,-1,0
162.66,-176.82,-112.23,-469,-7792,-3195,-1,-1,0
162.66,-176.81,-112.23,-469,-7795,-3193,0,-1,0
162.66,-176.81,-112.23,-460,-7785,-3192,0,-1,0
162.66,-176.81,-112.23,-462,-7790,-3192,0,-1,0
162.66,-176.81,-112.23,-463,-7790,-3185,0,-1,0
162.66,-176.81,-112.23,-466,-7791,-3181,-1,-1,0
162.66,-176.81,-112.23,-474,-7793,-3189,-1,-1,0
162.65,-176.80,-112.23,-470,-7788,-3193,-1,-1,0
162.65,-176.80,-112.23,-473,-7789,-3196,0,-1,0
162.65,-176.80,-112.23,-475,-7788,-3195,0,-1,0
162.65,-176.80,-112.23,-472,-7786,-3186,0,-1,-1
162.65,-176.80,-112.23,-470,-7785,-3188,0,-1,0
162.65,-176.80,-112.23,-472,-7785,-3190,0,-1,-1
162.65,-176.79,-112.23,-470,-7782,-3192,0,-1,0
