Yaw,Pitch,Roll,AX,AY,AZ,GX,GY,GZ
-175.23,152.62,-123.83,3861,-6180,-4146,-1,-1,0
-175.24,152.62,-123.83,3859,-6189,-4152,-1,-1,0
-175.24,152.62,-123.83,3851,-6188,-4153,0,0,-1
-175.23,152.62,-123.83,3851,-6180,-4139,0,0,-1
-175.24,152.62,-123.83,3853,-6180,-4139,-1,-1,0
-175.24,152.62,-123.84,3856,-6187,-4156,0,0,-1
-175.24,152.62,-123.83,3854,-6185,-4162,0,0,-1
-175.23,152.62,-123.82,3857,-6182,-4137,0,0,0
-175.23,152.63,-123.83,3857,-6176,-4129,-1,-1,0
-175.24,152.63,-123.84,3864,-6184,-4142,-1,-1,0
-175.25,152.63,-123.85,3857,-6181,-4169,0,0,-1
-175.24,152.63,-123.85,3852,-6170,-4160,0,0,-1
-175.24,152.63,-123.84,3851,-6171,-4141,-1,-1,0
-175.24,152.63,-123.84,3854,-6190,-4150,-1,-1,0
-175.25,152.63,-123.84,3853,-6197,-4161,0,0,0
-175.24,152.63,-123.83,3860,-6203,-4148,-1,0,-1
-175.22,152.61,-123.82,3848,-6195,-4170,0,0,-1
-175.19,152.60,-123.79,3848,-6167,-4102,0,0,-1
-175.22,152.61,-123.82,3854,-6178,-4109,-2,-1,0
-175.24,152.62,-123.85,3868,-6195,-4161,-1,-1,-1
-175.25,152.63,-123.85,3864,-6193,-4177,0,0,-1
-175.23,152.62,-123.83,3863,-6187,-4142,0,0,-1
-175.23,152.62,-123.84,3859,-6181,-4127,-1,-1,0
-175.24,152.63,-123.85,3853,-6184,-4136,-1,-1,0
-175.24,152.63,-123.85,3854,-6187,-4145,0,-1,-1
-175.24,152.63,-123.85,3857,-6187,-4151,-1,-1,0
-175.24,152.63,-123.85,3855,-6186,-4146,0,-1,0
-175.24,152.63,-123.84,3850,-6193,-4147,0,0,0
-175.25,152.63,-123.84,3849,-6193,-4138,-1,0,0
-175.25,152.63,-123.84,3846,-6194,-4150,0,0,-1
-175.24,152.63,-123.84,3849,-6189,-4157,0,0,-1
-175.25,152.63,-123.84,3845,-6190,-4149,-1,-1,-1
-175.25,152.63,-123.84,3859,-6192,-4144,-1,-1,-1
-175.25,152.63,-123.84,3859,-6188,-4143,0,-1,0
-175.25,152.63,-123.85,3859,-6199,-4182,-1,0,0
-175.24,152.62,-123.82,3847,-6205,-4199,1,0,-1
-175.20,152.61,-123.79,3850,-6180,-4114,-1,0,-1
-175.22,152.60,-123.82,3839,-6154,-4112,-2,-1,0
-175.24,152.62,-123.84,3844,-6171,-4143,-1,-1,0
-175.24,152.63,-123.85,3867,-6182,-4169,0,-1,0
-175.24,152.63,-123.83,3861,-6192,-4143,-1,-1,-1
-175.25,152.63,-123.85,3851,-6195,-4168,-1,-1,0
-175.25,152.63,-123.84,3838,-6189,-4153,0,0,-1
-175.24,152.63,-123.84,3833,-6177,-4138,-1,-1,-1
-175.26,152.63,-123.85,3853,-6178,-4149,-1,-1,0
-175.26,152.64,-123.86,3859,-6191,-4165,0,-1,0
-175.26,152.64,-123.85,3857,-6194,-4163,0,0,0
-175.26,152.64,-123.85,3851,-6196,-4150,-1,0,-1
-175.26,152.63,-123.85,3846,-6187,-4155,-1,0,-1
-175.26,152.64,-123.86,3850,-6174,-4147,-1,-1,-1
-175.26,152.63,-123.87,3860,-6173,-4156,-1,-1,0
-175.26,152.63,-123.87,3865,-6192,-4191,0,0,0
-175.23,152.62,-123.83,3856,-6199,-4166,1,0,-1
-175.21,152.61,-123.81,3852,-6175,-4115,0,0,-1
-175.22,152.61,-123.82,3854,-6166,-4112,-1,-1,0
-175.25,152.63,-123.85,3856,-6172,-4146,-1,-1,0
-175.26,152.64,-123.86,3867,-6179,-4170,-1,-1,0
-175.26,152.64,-123.85,3845,-6188,-4165,0,0,-1
-175.25,152.63,-123.84,3852,-6186,-4142,-1,0,0
-175.25,152.63,-123.84,3851,-6188,-4147,-1,0,-1
-175.25,152.63,-123.85,3853,-6184,-4138,-1,-1,0
-175.25,152.63,-123.85,3858,-6189,-4134,-1,-1,-1
-175.25,152.63,-123.85,3855,-6193,-4142,-1,-1,0
-175.26,152.64,-123.85,3850,-6194,-4141,-1,-1,0
-175.26,152.63,-123.85,3847,-6193,-4141,-1,0,-1
-175.26,152.63,-123.85,3848,-6188,-4140,0,-1,-1
-175.26,152.64,-123.86,3851,-6192,-4137,-1,-1,0
-175.26,152.63,-123.87,3850,-6190,-4151,0,0,-1
-175.26,152.64,-123.85,3851,-6186,-4130,0,0,0
-175.26,152.64,-123.85,3850,-6181,-4136,-1,-1,0
-175.27,152.65,-123.85,3860,-6177,-4141,-1,-1,0
-175.27,152.65,-123.85,3861,-6178,-4163,0,0,0
-175.25,152.65,-123.82,3852,-6203,-4174,1,0,-1
-175.23,152.64,-123.79,3846,-6200,-4142,0,0,-1
-175.23,152.63,-123.80,3834,-6174,-4108,-1,-1,-1
-175.24,152.63,-123.82,3839,-6170,-4109,-1,-1,0
-175.26,152.65,-123.84,3851,-6181,-4144,-1,-1,0
-175.28,152.66,-123.85,3846,-6198,-4164,0,-1,0
-175.28,152.66,-123.85,3851,-6203,-4164,-1,0,-1
-175.28,152.66,-123.86,3843,-6198,-4160,-1,0,-1
-175.27,152.65,-123.86,3846,-6179,-4152,-1,0,-1
-175.28,152.65,-123.87,3842,-6172,-4147,-1,-1,0
-175.29,152.66,-123.88,3849,-6175,-4149,-1,-1,0
-175.30,152.67,-123.88,3849,-6187,-4162,-1,-1,0
-175.31,152.68,-123.89,3842,-6190,-4168,0,-1,-1
-175.30,152.67,-123.89,3837,-6190,-4154,0,0,-1
-175.30,152.67,-123.89,3840,-6186,-4145,-1,-1,-1
-175.30,152.67,-123.89,3843,-6173,-4142,-1,-1,0
-175.31,152.68,-123.89,3846,-6174,-4147,-1,-1,0
-175.31,152.68,-123.89,3843,-6186,-4144,-1,-1,0
-175.31,152.69,-123.88,3838,-6194,-4145,0,-1,-1
-175.31,152.69,-123.88,3838,-6193,-4148,-1,0,-1
-175.31,152.68,-123.89,3843,-6186,-4168,-1,-1,-1
-175.32,152.68,-123.89,3848,-6184,-4164,-1,0,-1
-175.32,152.68,-123.90,3847,-6178,-4165,-1,-1,-1
-175.32,152.68,-123.90,3845,-6173,-4155,0,0,-1
-175.32,152.68,-123.90,3849,-6176,-4145,-1,-1,0
-175.32,152.68,-123.90,3850,-6176,-4143,-1,-1,0
-175.32,152.69,-123.91,3850,-6179,-4163,-1,-1,-1
-175.33,152.69,-123.91,3844,-6179,-4174,0,0,0
-175.32,152.69,-123.90,3840,-6174,-4160,0,0,0
-175.32,152.69,-123.90,3845,-6174,-4152,0,-1,0
-175.32,152.69,-123.90,3847,-6183,-4153,0,0,0
-175.32,152.69,-123.89,3846,-6181,-4154,0,-1,-1
-175.32,152.69,-123.89,3845,-6183,-4143,-1,-1,-1
-175.32,152.69,-123.90,3847,-6179,-4146,-1,0,-1
-175.32,152.69,-123.90,3845,-6178,-4150,0,-1,-1
-175.32,152.69,-123.90,3845,-6178,-4149,-1,-1,-1
-175.33,152.69,-123.91,3838,-6183,-4149,-1,-1,-1
-175.33,152.69,-123.91,3844,-6186,-4163,-1,0,-1
-175.33,152.69,-123.91,3844,-6191,-4169,0,0,-1
-175.32,152.68,-123.91,3846,-6184,-4163,0,0,-1
-175.32,152.68,-123.91,3849,-6178,-4162,-1,-1,0
-175.33,152.68,-123.92,3844,-6178,-4160,-1,-1,-1
-175.32,152.68,-123.92,3847,-6177,-4165,0,0,0
-175.32,152.68,-123.90,3850,-6181,-4154,0,0,0
-175.32,152.67,-123.90,3849,-6181,-4159,0,0,-1
-175.31,152.67,-123.89,3852,-6190,-4163,0,0,-1
-175.30,152.67,-123.88,3848,-6189,-4156,0,0,-1
-175.30,152.66,-123.87,3851,-6187,-4147,-1,0,-1
-175.30,152.66,-123.87,3846,-6186,-4149,-1,0,-1
-175.30,152.66,-123.88,3848,-6183,-4160,0,0,-1
-175.29,152.65,-123.87,3848,-6188,-4158,0,0,-1
-175.28,152.64,-123.88,3852,-6183,-4152,-1,0,-1
-175.28,152.64,-123.88,3849,-6182,-4156,-1,0,-1
-175.28,152.64,-123.88,3849,-6174,-4161,0,0,-1
-175.28,152.64,-123.87,3849,-6179,-4160,0,0,0
-175.28,152.64,-123.87,3857,-6186,-4156,0,0,-1
-175.28,152.64,-123.87,3859,-6190,-4153,0,0,-1
-175.28,152.63,-123.87,3853,-6183,-4151,0,0,-1
-175.28,152.63,-123.87,3851,-6179,-4158,0,0,0
-175.28,152.63,-123.87,3858,-6179,-4149,0,0,-1
-175.27,152.63,-123.85,3859,-6181,-4153,0,0,-1
-175.26,152.62,-123.86,3855,-6174,-4143,0,0,-1
-175.25,152.62,-123.85,3850,-6176,-4134,0,0,-1
-175.26,152.62,-123.84,3845,-6182,-4139,0,0,0
-175.26,152.62,-123.84,3846,-6183,-4141,-1,0,-1
-175.26,152.62,-123.85,3855,-6180,-4139,-1,-1,0
-175.27,152.62,-123.86,3859,-6182,-4156,-1,0,-1
-175.27,152.62,-123.86,3853,-6193,-4158,0,0,-1
-175.25,152.61,-123.85,3853,-6187,-4146,0,0,-1
-175.25,152.61,-123.84,3850,-6174,-4135,-1,-1,0
-175.26,152.62,-123.85,3857,-6182,-4137,-1,-1,0
-175.27,152.63,-123.86,3859,-6193,-4158,-1,-1,-1
-175.27,152.63,-123.85,3863,-6190,-4165,0,0,-1
-175.26,152.62,-123.84,3852,-6183,-4144,0,0,-1
-175.26,152.62,-123.84,3847,-6177,-4142,-1,-1,0
-175.27,152.63,-123.85,3841,-6180,-4153,-1,-1,0
-175.27,152.63,-123.85,3848,-6189,-4156,0,0,-1
-175.26,152.62,-123.84,3849,-6190,-4143,-1,0,-1
-175.26,152.62,-123.85,3853,-6191,-4145,-1,0,-1
-175.26,152.62,-123.85,3849,-6187,-4142,-1,0,-1
-175.26,152.62,-123.85,3846,-6180,-4137,-1,-1,0
-175.28,152.63,-123.85,3848,-6179,-4147,-1,-1,0
-175.28,152.63,-123.86,3849,-6186,-4161,-1,0,-1
-175.27,152.62,-123.86,3846,-6186,-4164,0,0,-1
-175.26,152.62,-123.85,3849,-6184,-4146,0,0,-1
-175.26,152.62,-123.85,3853,-6178,-4147,-1,-1,0
-175.28,152.63,-123.86,3858,-6180,-4158,-1,-1,0
-175.28,152.64,-123.87,3854,-6190,-4174,0,0,0
-175.28,152.64,-123.86,3850,-6184,-4164,0,0,0
-175.28,152.64,-123.86,3850,-6188,-4156,0,0,-1
-175.28,152.64,-123.86,3854,-6184,-4159,0,-1,-1
-175.28,152.64,-123.86,3851,-6182,-4163,-1,0,-1
-175.28,152.63,-123.86,3854,-6181,-4153,-1,-1,-1
-175.28,152.63,-123.86,3861,-6186,-4139,-1,0,-1
-175.28,152.63,-123.86,3855,-6188,-4130,0,0,-1
-175.28,152.63,-123.86,3858,-6183,-4140,-1,-1,-1
-175.28,152.63,-123.87,3857,-6178,-4154,-1,0,-1
-175.27,152.62,-123.87,3860,-6178,-4148,0,0,-1
-175.27,152.62,-123.86,3866,-6184,-4137,-1,-1,0
-175.28,152.63,-123.87,3860,-6186,-4158,-1,0,0
-175.28,152.63,-123.87,3854,-6183,-4155,0,0,-1
-175.27,152.62,-123.86,3850,-6182,-4137,0,0,-1
-175.27,152.62,-123.86,3854,-6180,-4126,-1,-1,0
-175.28,152.63,-123.86,3855,-6190,-4133,-1,-1,0
-175.28,152.63,-123.85,3858,-12290,-258,0,0,0
-175.27,152.63,-123.85,3855,-6188,-4140,0,-1,-1
-175.27,152.63,-123.85,3851,-6188,-4145,-1,-1,-1
-175.28,152.63,-123.85,3855,-6183,-4150,-1,-1,-1
-175.28,152.63,-123.85,3852,-6179,-4152,-1,0,-1
-175.28,152.63,-123.86,3853,-6179,-4156,-1,-1,-1
-175.28,152.63,-123.87,3851,-6186,-4168,0,0,-1
-175.28,152.63,-123.86,3848,-6183,-4151,0,0,-1
-175.28,152.63,-123.86,3855,-6180,-4149,-1,0,0
-175.28,152.63,-123.86,3850,-6184,-4150,-1,-1,0
-175.28,152.63,-123.86,3850,-6188,-4145,-1,-1,-1
-175.28,152.63,-123.87,3859,-6179,-4151,-1,-1,-1
-175.29,152.63,-123.88,3856,-6185,-4149,-1,0,-1
-175.28,152.63,-123.87,3850,-6186,-4159,0,0,-1
-175.28,152.63,-123.86,3845,-6184,-4146,0,-1,-1
-175.28,152.63,-123.86,3850,-6180,-4129,-1,-1,0
-175.29,152.63,-123.87,3851,-6186,-4144,-1,-1,0
-175.30,152.64,-123.88,3846,-6190,-4164,0,-1,0
-175.29,152.64,-123.87,3850,-6183,-4152,0,0,-1
-175.29,152.64,-123.87,3847,-6176,-4147,0,0,0
-175.29,152.64,-123.87,3854,-6181,-4148,0,0,0
-175.29,152.64,-123.87,3847,-6183,-4146,-1,0,0
-175.29,152.64,-123.86,3847,-6188,-4145,-1,0,-1
-175.29,152.63,-123.86,3853,-6189,-4148,0,0,-1
-175.28,152.63,-123.85,3851,-6188,-4140,-1,-1,-1
-175.29,152.63,-123.86,3846,-6192,-4152,-1,-1,0
-175.29,152.63,-123.87,3844,-6189,-4157,0,0,-1
-175.29,152.63,-123.86,3847,-6191,-4147,0,0,-1
-175.28,152.63,-123.86,3856,-6188,-4141,-1,-1,-1
-175.29,152.63,-123.86,3844,-6183,-4141,-1,-1,-1
-175.29,152.63,-123.86,3845,-6182,-4145,0,-1,-1
-175.29,152.63,-123.86,3848,-6184,-4143,-1,-1,0
-175.29,152.64,-123.86,3850,-6184,-4152,-1,-1,0
-175.29,152.64,-123.87,3852,-6188,-4163,0,-1,0
-175.29,152.64,-123.86,3855,-6194,-4156,0,0,0
-175.29,152.64,-123.86,3856,-6191,-4148,-1,0,-1
-175.29,152.64,-123.86,3847,-6194,-4150,0,0,-1
-175.29,152.64,-123.86,3846,-6189,-4147,0,0,-1
-175.29,152.64,-123.85,3851,-6191,-4133,-1,0,0
-175.29,152.64,-123.86,3853,-6194,-4137,-1,-1,-1
-175.29,152.64,-123.86,3855,-6192,-4153,-1,-1,-1
-175.29,152.64,-123.86,3850,-6185,-4158,-1,0,-1
-175.29,152.64,-123.86,3847,-6179,-4153,-1,-1,-1
-175.30,152.64,-123.87,3852,-6178,-4147,-1,-1,0
-175.30,152.64,-123.87,3856,-6177,-4152,0,-1,0
-175.30,152.64,-123.87,3854,-6184,-4147,-1,-1,0
-175.30,152.65,-123.87,3850,-6183,-4149,-1,-1,-1
-175.30,152.65,-123.87,3852,-6179,-4157,0,0,0
-175.30,152.65,-123.87,3842,-6180,-4161,0,-1,0
-175.31,152.65,-123.87,3847,-6188,-4164,-1,-1,0
-175.31,152.65,-123.87,3846,-6193,-4165,-1,0,-1
-175.31,152.66,-123.87,3839,-6191,-4175,0,0,-1
-175.31,152.66,-123.87,3846,-6186,-4151,-1,-1,0
-175.32,152.66,-123.88,3846,-6184,-4158,-1,0,-1
-175.32,152.66,-123.88,3846,-6185,-4157,0,0,-1
-175.31,152.65,-123.87,3849,-6183,-4144,0,0,-1
-175.31,152.65,-123.88,3852,-6183,-4146,-1,-1,0
-175.32,152.66,-123.88,3851,-6195,-4148,-1,0,-1
-175.31,152.66,-123.87,3845,-6197,-4149,0,0,-1
-175.30,152.65,-123.87,3852,-6185,-4134,-1,-1,-1
-175.32,152.65,-123.88,3849,-6184,-4132,-1,-1,-1
-175.32,152.66,-123.88,3848,-6192,-4155,-1,0,0
-175.31,152.66,-123.87,3843,-6184,-4151,0,0,-1
-175.31,152.66,-123.86,3841,-6179,-4131,-1,-1,0
-175.32,152.66,-123.87,3839,-6174,-4136,-1,-1,0
-175.33,152.67,-123.89,3844,-6187,-4156,-1,-1,0
-175.33,152.67,-123.89,3850,-6186,-4158,0,-1,0
-175.33,152.67,-123.89,3851,-6186,-4155,0,0,-1
-175.32,152.67,-123.88,3845,-6186,-4156,0,0,-1
-175.32,152.67,-123.88,3851,-6182,-4158,-1,0,-1
-175.33,152.67,-123.89,3850,-6182,-4159,-1,-1,-1
-175.33,152.67,-123.89,3853,-6185,-4149,-1,-1,0
-175.33,152.67,-123.89,3854,-6183,-4164,-1,0,-1
-175.33,152.67,-123.89,3854,-6187,-4157,-1,0,-1
-175.33,152.67,-123.89,3856,-6187,-4153,-1,-1,-1
-175.33,152.67,-123.89,3854,-6191,-4147,-1,-1,0
-175.33,152.66,-123.90,3855,-6192,-4151,-1,-1,-1
-175.33,152.66,-123.90,3847,-6195,-4158,0,0,-1
-175.33,152.67,-123.89,3847,-6192,-4145,0,-1,0
-175.33,152.67,-123.89,3842,-6190,-4152,-1,-1,-1
-175.34,152.68,-123.89,3850,-6191,-4162,0,-1,0
-175.33,152.68,-123.88,3851,-6184,-4151,0,0,-1
-175.33,152.68,-123.88,3853,-6183,-4155,-1,-1,-1
-175.33,152.68,-123.88,3848,-6181,-4153,0,0,-1
-175.33,152.68,-123.88,3851,-6186,-4165,0,0,-1
-175.33,152.67,-123.87,3845,-6182,-4143,0,0,-1
-175.33,152.67,-123.87,3842,-6188,-4145,-1,-1,-1
-175.33,152.68,-123.88,3848,-6197,-4158,-1,0,-1
-175.33,152.68,-123.88,3850,-6193,-4149,0,-1,-1
-175.33,152.67,-123.88,3845,-6176,-4139,-1,-1,0
-175.34,152.68,-123.89,3853,-6182,-4150,-1,-1,-1
-175.34,152.68,-123.89,3858,-6185,-4153,0,-1,0
-175.34,152.68,-123.89,3853,-6184,-4145,-1,0,-1
-175.34,152.68,-123.89,3850,-6176,-4139,-1,-1,-1
-175.34,152.68,-123.89,3849,-6180,-4140,0,-1,0
-175.33,152.67,-123.88,3848,-6182,-4142,0,-1,0
-175.34,152.68,-123.89,3841,-6174,-4152,0,-1,0
-175.33,152.68,-123.88,3840,-6177,-4154,-1,-1,0
-175.33,152.68,-123.88,3846,-6175,-4168,0,0,-1
-175.33,152.68,-123.88,3844,-6180,-4160,0,0,0
-175.34,152.68,-123.89,3851,-6180,-4163,-1,0,-1
-175.33,152.68,-123.88,3851,-6183,-4154,0,0,-1
-175.34,152.68,-123.89,3845,-6181,-4163,0,0,-1
-175.33,152.67,-123.88,3851,-6175,-4164,0,0,-1
-175.33,152.66,-123.88,3853,-6178,-4159,0,0,-1
-175.33,152.66,-123.89,3854,-6182,-4157,-1,0,-1
-175.33,152.66,-123.89,3857,-6184,-4168,0,0,-1
-175.31,152.65,-123.87,3850,-6186,-4154,0,0,-1
-175.31,152.65,-123.86,3842,-6184,-4133,0,0,-1
-175.31,152.65,-123.87,3847,-6182,-4134,-1,-1,0
-175.32,152.66,-123.88,3850,-6185,-4158,-1,-1,0
-175.32,152.65,-123.87,3856,-6188,-4163,0,0,-1
-175.30,152.65,-123.85,3852,-6180,-4152,0,0,-1
-175.30,152.65,-123.85,3855,-6177,-4144,0,0,-1
-175.31,152.65,-123.85,3854,-6182,-4156,0,0,0
-175.30,152.64,-123.85,3850,-6179,-4148,0,0,-1
-175.30,152.64,-123.85,3843,-6184,-4139,-1,0,-1
-175.31,152.65,-123.85,3849,-6182,-4153,-1,0,-1
-175.31,152.65,-123.85,3847,-6183,-4153,0,0,-1
-175.30,152.63,-123.86,3846,-6180,-4148,-1,-1,-1
-175.30,152.63,-123.86,3852,-6183,-4145,-1,-1,-1
-175.31,152.64,-123.86,3851,-6181,-4153,-1,0,-1
-175.30,152.64,-123.86,3850,-6184,-4156,0,0,-1
-175.30,152.63,-123.86,3853,-6173,-4144,0,0,-1
-175.30,152.63,-123.86,3852,-6172,-4139,-1,-1,0
-175.30,152.63,-123.86,3847,-6176,-4142,-1,-1,0
-175.31,152.64,-123.86,3851,-6179,-4146,0,-1,0
-175.31,152.64,-123.86,3855,-6183,-4159,0,0,0
-175.31,152.65,-123.85,3851,-6183,-4166,0,0,0
-175.30,152.64,-123.85,3848,-6184,-4148,0,0,0
-175.30,152.64,-123.84,3845,-6185,-4146,0,0,0
-175.30,152.64,-123.84,3849,-6184,-4146,-1,0,0
-175.30,152.64,-123.84,3849,-6190,-4155,-1,0,-1
-175.30,152.64,-123.85,3852,-6185,-4159,0,0,-1
-175.30,152.64,-123.85,3860,-6183,-4145,-1,-1,0
-175.30,152.64,-123.86,3858,-6186,-4144,-1,-1,0
-175.31,152.64,-123.86,3860,-6189,-4165,0,0,-1
-175.30,152.63,-123.85,3854,-6183,-4153,0,0,-1
-175.29,152.63,-123.85,3861,-6175,-4136,-1,-1,0
-175.30,152.63,-123.86,3861,-6169,-4149,-1,-1,0
-175.30,152.64,-123.86,3851,-6179,-4156,0,-1,0
-175.30,152.64,-123.86,3859,-6171,-4155,0,0,0
-175.30,152.64,-123.86,3856,-6179,-4153,-1,-1,0
-175.30,152.64,-123.86,3858,-6181,-4149,0,-1,0
-175.30,152.64,-123.85,3857,-6178,-4151,0,0,0
-175.30,152.64,-123.85,3852,-6184,-4152,-1,-1,0
-175.30,152.64,-123.86,3845,-6191,-4160,-1,0,-1
-175.30,152.64,-123.86,3850,-6188,-4158,-1,0,0
-175.30,152.64,-123.86,3847,-6187,-4149,-1,0,-1
-175.31,152.64,-123.86,3845,-6180,-4145,-1,0,-1
-175.31,152.64,-123.86,3848,-6184,-4157,-1,-1,0
-175.32,152.64,-123.86,3852,-6192,-4151,-1,0,0
-175.32,152.64,-123.86,3855,-6181,-4150,0,0,0
-175.32,152.64,-123.86,3852,-6183,-4149,-1,-1,0
-175.32,152.64,-123.87,3858,-6182,-4160,-1,-1,0
-175.32,152.64,-123.87,3858,-6187,-4167,0,0,0
-175.32,152.64,-123.86,3851,-6185,-4150,0,0,-1
-175.31,152.64,-123.85,3856,-6181,-4129,-1,-1,0
-175.32,152.64,-123.86,3860,-6189,-4146,-1,-1,0
-175.32,152.65,-123.87,3853,-6190,-4161,-1,-1,0
-175.32,152.65,-123.87,3852,-6182,-4167,0,0,0
-175.32,152.65,-123.87,3843,-6177,-4161,0,0,0
-175.33,152.66,-123.86,3849,-6185,-4151,0,0,0
-175.33,152.66,-123.86,3850,-6189,-4144,-1,0,0
-175.33,152.66,-123.86,3852,-6188,-4141,-1,0,-1
-175.33,152.65,-123.87,3857,-6189,-4152,-1,0,0
-175.33,152.65,-123.87,3851,-6187,-4161,-1,0,-1
-175.33,152.65,-123.87,3847,-6185,-4156,0,-1,0
-175.34,152.66,-123.88,3844,-6181,-4151,-1,-1,0
-175.35,152.66,-123.88,3848,-6186,-4164,0,0,0
-175.34,152.66,-123.88,3854,-6193,-4160,0,0,-1
-175.33,152.65,-123.87,3849,-6187,-4146,0,0,-1
-175.33,152.65,-123.87,3844,-6180,-4133,-1,-1,0
-175.34,152.66,-123.87,3845,-6178,-4137,-1,-1,0
-175.34,152.67,-123.87,3848,-6179,-4153,-1,-1,0
-175.35,152.67,-123.87,3852,-6183,-4164,0,-1,0
-175.35,152.67,-123.87,3859,-6187,-4163,0,0,0
-175.34,152.67,-123.87,3854,-6191,-4166,0,0,0
-175.34,152.66,-123.86,3855,-6187,-4148,0,0,-1
-175.34,152.67,-123.86,3846,-6188,-4159,-1,0,0
-175.34,152.66,-123.86,3850,-6191,-4143,0,0,-1
-175.34,152.66,-123.86,3853,-6190,-4143,-1,0,-1
-175.34,152.66,-123.86,3850,-6186,-4145,-1,-1,-1
-175.34,152.66,-123.87,3848,-6191,-4158,-1,0,0
-175.35,152.66,-123.88,3852,-6191,-4156,-1,0,-1
-175.34,152.66,-123.88,3855,-6187,-4156,-1,-1,-1
-175.34,152.66,-123.88,3852,-6185,-4147,-1,-1,0
-175.34,152.66,-123.88,3857,-6181,-4139,-1,-1,0
-175.34,152.66,-123.88,3851,-6179,-4159,-1,-1,0
-175.35,152.67,-123.88,3849,-6181,-4160,-1,-1,0
-175.35,152.67,-123.89,3842,-6179,-4165,0,-1,0
-175.35,152.67,-123.89,3844,-6182,-4160,0,0,0
-175.35,152.67,-123.88,3850,-6184,-4143,-1,-1,0
-175.35,152.67,-123.88,3845,-6187,-4146,-1,-1,0
-175.35,152.67,-123.88,3844,-6194,-4150,-1,-1,-1
-175.35,152.67,-123.88,3843,-6200,-4148,-1,-1,-1
-175.35,152.67,-123.88,3844,-6190,-4152,-1,-1,-1
-175.36,152.68,-123.88,3841,-6191,-4156,-1,-1,0
-175.36,152.68,-123.88,3842,-6191,-4149,0,0,-1
-175.36,152.68,-123.88,3845,-6188,-4141,0,-1,0
-175.36,152.68,-123.88,3846,-6185,-4135,-1,-1,0
-175.37,152.69,-123.90,3852,-6189,-4157,-1,-1,0
-175.37,152.68,-123.89,3850,-6189,-4160,0,0,-1
-175.35,152.67,-123.88,3847,-6176,-4146,0,0,-1
-175.35,152.68,-123.87,3842,-6177,-4129,-1,-1,0
-175.37,152.69,-123.88,3846,-6185,-4155,-1,-1,0
-175.37,152.69,-123.90,3849,-6187,-4166,0,-1,0
-175.37,152.70,-123.89,3841,-6187,-4158,0,0,-1
-175.37,152.70,-123.89,3841,-6184,-4156,0,0,0
-175.37,152.69,-123.88,3850,-6176,-4150,-1,0,0
-175.37,152.69,-123.88,3840,-6178,-4146,0,0,0
-175.37,152.70,-123.89,3837,-6184,-4142,-1,0,0
-175.37,152.69,-123.88,3850,-6187,-4152,-1,0,-1
-175.37,152.69,-123.88,3849,-6182,-4146,0,0,-1
-175.37,152.69,-123.89,3845,-6187,-4148,-1,-1,0
-175.37,152.69,-123.89,3848,-6188,-4160,-1,-1,0
-175.38,152.69,-123.90,3846,-6193,-4164,-1,0,-1
-175.38,152.69,-123.90,3849,-6193,-4172,0,0,-1
-175.37,152.69,-123.90,3847,-6190,-4154,0,0,-1
-175.37,152.69,-123.90,3842,-6175,-4144,0,-1,0
-175.38,152.69,-123.90,3842,-6175,-4145,-1,-1,0
-175.38,152.70,-123.91,3845,-6185,-4155,-1,-1,0
-175.39,152.71,-123.91,3845,-6188,-4160,0,-1,0
-175.39,152.71,-123.91,3850,-6182,-4154,0,-1,0
-175.39,152.71,-123.91,3851,-6178,-4152,0,0,-1
-175.39,152.70,-123.90,3847,-6174,-4143,0,0,0
-175.39,152.71,-123.90,3846,-6177,-4140,-1,-1,0
-175.39,152.71,-123.91,3853,-6188,-4151,-1,-1,-1
-175.39,152.71,-123.91,3855,-6191,-4160,0,0,-1
-175.38,152.70,-123.91,3848,-6191,-4154,-1,-1,-1
-175.39,152.70,-123.92,3852,-6181,-4145,-1,-1,0
-175.40,152.70,-123.93,3854,-6181,-4161,-1,-1,0
-175.39,152.70,-123.93,3854,-6175,-4174,0,0,0
-175.39,152.69,-123.93,3857,-6173,-4162,0,0,0
-175.39,152.70,-123.93,3854,-6173,-4160,-1,-1,0
-175.39,152.70,-123.93,3852,-6179,-4146,-1,-1,0
-175.39,152.70,-123.92,3853,-6182,-4142,0,-1,0
-175.39,152.70,-123.92,3858,-6184,-4146,-1,-1,0
-175.39,152.70,-123.92,3854,-6185,-4149,-1,-1,0
-175.40,152.71,-123.92,3851,-6185,-4147,-1,-1,0
-175.40,152.71,-123.92,3848,-6187,-4151,-1,-1,0
-175.40,152.71,-123.92,3844,-6187,-4164,-1,0,0
-175.40,152.71,-123.92,3848,-6191,-4169,-1,0,-1
-175.40,152.71,-123.92,3850,-6186,-4163,-1,-1,0
-175.40,152.71,-123.93,3848,-6177,-4156,-1,-1,-1
-175.40,152.71,-123.94,3855,-6175,-4161,-1,-1,0
-175.41,152.71,-123.94,3852,-6183,-4168,-1,-1,-1
-175.41,152.71,-123.95,3846,-6182,-4171,0,0,-1
-175.40,152.70,-123.94,3849,-6185,-4159,0,0,-1
-175.40,152.70,-123.93,3851,-6178,-4145,-1,-1,0
-175.40,152.71,-123.94,3852,-6180,-4148,-1,-1,0
-175.40,152.71,-123.94,3849,-6183,-4162,-1,-1,0
-175.42,152.72,-123.95,3847,-6183,-4181,0,0,0
-175.40,152.71,-123.94,3845,-6186,-4167,0,0,-1
-175.40,152.71,-123.93,3839,-6177,-4153,-1,0,0
-175.41,152.71,-123.94,3831,-6182,-4160,-1,-1,0
-175.41,152.71,-123.94,3843,-6183,-4162,-1,0,-1
-175.41,152.71,-123.93,3841,-6186,-4162,0,0,-1
-175.40,152.71,-123.93,3848,-6181,-4160,-1,0,-1
-175.40,152.71,-123.94,3845,-6180,-4157,-1,-1,-1
-175.41,152.71,-123.94,3839,-6179,-4152,-1,-1,-1
-175.41,152.71,-123.94,3838,-6180,-4161,-1,0,-1
-175.41,152.71,-123.94,3843,-6184,-4166,-1,0,-1
-175.40,152.70,-123.94,3850,-6184,-4173,0,0,-1
-175.39,152.69,-123.93,3843,-6178,-4154,0,0,-1
-175.39,152.69,-123.93,3852,-6179,-4142,-1,0,0
-175.39,152.69,-123.93,3844,-6176,-4154,-1,-1,0
-175.39,152.69,-123.93,3848,-6180,-4171,0,0,0
-175.39,152.69,-123.92,3854,-6181,-4177,0,0,-1
-175.38,152.69,-123.91,3858,-6182,-4172,0,0,0
-175.37,152.69,-123.90,3853,-6188,-4166,0,0,-1
-175.36,152.68,-123.90,3849,-6181,-4159,0,0,-1
-175.36,152.68,-123.90,3848,-6182,-4152,-1,0,0
-175.36,152.68,-123.90,3846,-6181,-4153,-1,0,-1
-175.36,152.67,-123.90,3851,-6179,-4161,0,0,-1
-175.36,152.67,-123.89,3853,-6181,-4147,-1,-1,0
-175.36,152.67,-123.90,3854,-6181,-4157,-1,0,-1
-175.36,152.66,-123.90,3857,-6182,-4161,0,0,-1
-175.35,152.66,-123.89,3855,-6180,-4149,0,0,-1
-175.36,152.66,-123.90,3852,-6177,-4148,-1,-1,0
-175.36,152.66,-123.90,3853,-6183,-4159,-1,-1,0
-175.36,152.66,-123.90,3854,-6183,-4164,0,0,0
-175.35,152.66,-123.89,3857,-6193,-4161,0,0,0
-175.35,152.66,-123.89,3853,-6195,-4149,-1,-1,0
-175.36,152.67,-123.89,3852,-6193,-4151,-1,-1,0
-175.36,152.67,-123.88,3843,-6192,-4148,0,0,0
-175.36,152.68,-123.89,3847,-6189,-4147,-1,0,0
-175.36,152.67,-123.88,3851,-6185,-4149,-1,0,-1
-175.36,152.67,-123.88,3848,-6184,-4138,0,0,0
-175.36,152.68,-123.89,3845,-6183,-4150,-1,-1,-1
-175.36,152.68,-123.89,3845,-6178,-4153,0,0,0
-175.36,152.67,-123.88,3853,-6179,-4144,-1,0,-1
-175.36,152.67,-123.89,3856,-6184,-4160,-1,0,-1
-175.36,152.67,-123.90,3855,-6180,-4167,0,0,-1
-175.36,152.66,-123.88,3851,-6179,-4147,0,0,0
-175.35,152.66,-123.88,3850,-6176,-4142,0,-1,0
-175.35,152.66,-123.88,3855,-6183,-4140,-1,-1,0
-175.36,152.67,-123.89,3860,-6184,-4156,-1,-1,0
-175.36,152.67,-123.89,3856,-6174,-4170,0,0,0
-175.36,152.67,-123.89,3852,-6167,-4164,0,0,0
-175.36,152.67,-123.89,3855,-6170,-4162,-1,-1,0
-175.36,152.67,-123.88,3850,-6178,-4156,0,0,0
-175.36,152.67,-123.88,3852,-6182,-4148,-1,0,-1
-175.36,152.66,-123.88,3852,-6178,-4154,-1,0,-1
-175.36,152.66,-123.88,3847,-6183,-4151,0,0,-1
-175.35,152.66,-123.88,3852,-6182,-4146,-1,-1,-1
-175.36,152.66,-123.89,3852,-6180,-4159,-1,-1,0
-175.36,152.66,-123.89,3855,-6185,-4169,0,0,-1
-175.36,152.66,-123.89,3843,-6180,-4165,0,0,-1
-175.35,152.65,-123.89,3845,-6178,-4155,-1,0,-1
-175.35,152.65,-123.89,3845,-6183,-4152,0,0,-1
-175.34,152.65,-123.88,3850,-6181,-4151,0,-1,0
-175.35,152.65,-123.88,3857,-6176,-4148,0,-1,0
-175.35,152.66,-123.89,3861,-6181,-4159,-1,-1,0
-175.36,152.66,-123.89,3854,-6182,-4171,0,0,0
-175.36,152.66,-123.89,3851,-6180,-4170,0,0,0
-175.35,152.66,-123.88,3847,-6183,-4149,0,0,-1
-175.35,152.66,-123.88,3846,-6194,-4145,-1,0,0
-175.35,152.66,-123.88,3846,-6189,-4144,-1,-1,0
-175.35,152.66,-123.88,3849,-6189,-4145,-1,0,0
-175.35,152.66,-123.88,3848,-6188,-4151,-1,0,0
-175.36,152.66,-123.88,3847,-6196,-4150,-1,-1,0
-175.36,152.66,-123.89,3851,-6195,-4146,-1,0,-1
-175.36,152.66,-123.89,3858,-6193,-4148,-1,0,-1
-175.35,152.66,-123.89,3860,-6183,-4162,0,-1,0
-175.35,152.66,-123.89,3857,-6184,-4156,-1,-1,0
-175.36,152.66,-123.89,3850,-6184,-4158,-1,-1,0
-175.36,152.67,-123.89,3854,-6186,-4161,-1,-1,0
-175.36,152.67,-123.89,3852,-6195,-4172,0,0,0
-175.36,152.67,-123.89,3852,-6188,-4162,0,0,0
-175.36,152.67,-123.89,3849,-6187,-4168,0,-1,0
-175.36,152.67,-123.89,3846,-6185,-4160,0,0,0
-175.37,152.68,-123.89,3854,-6187,-4156,-1,0,0
-175.37,152.68,-123.89,3855,-6198,-4154,-1,0,-1
-175.37,152.67,-123.89,3854,-6198,-4148,-1,0,-1
-175.37,152.67,-123.88,3846,-6189,-4138,0,-1,0
-175.37,152.67,-123.89,3849,-6188,-4133,-1,-1,0
-175.37,152.68,-123.89,3853,-6194,-4161,0,0,0
-175.36,152.67,-123.88,3853,-6198,-4146,0,0,-1
-175.36,152.67,-123.87,3847,-6198,-4137,0,0,-1
-175.36,152.67,-123.88,3850,-6188,-4139,-1,-1,0
-175.37,152.68,-123.89,3852,-6189,-4154,-1,-1,0
-175.37,152.67,-123.89,3857,-6198,-4169,0,0,-1
-175.36,152.67,-123.88,3854,-6194,-4155,0,0,0
-175.35,152.67,-123.87,3848,-6183,-4139,-1,-1,0
-175.36,152.68,-123.87,3852,-6189,-4138,-1,-1,0
-175.37,152.68,-123.88,3854,-6187,-4148,-1,-1,0
-175.37,152.69,-123.89,3851,-6187,-4158,0,0,0
-175.37,152.68,-123.87,3849,-6179,-4156,0,0,-1
-175.37,152.68,-123.87,3848,-6179,-4141,0,0,0
-175.37,152.68,-123.87,3852,-6181,-4148,-1,-1,0
-175.37,152.68,-123.87,3849,-6182,-4153,-1,0,0
-175.37,152.68,-123.88,3854,-6188,-4150,-1,0,-1
-175.36,152.67,-123.88,3850,-6184,-4146,-1,0,-1
-175.36,152.67,-123.88,3846,-6178,-4138,0,0,0
-175.36,152.67,-123.88,3854,-6177,-4138,-1,-1,0
-175.37,152.67,-123.88,3854,-6178,-4151,-1,-1,0
-175.37,152.67,-123.89,3853,-6192,-4155,-1,0,-1
-175.36,152.67,-123.88,3858,-6195,-4149,0,0,-1
-175.35,152.66,-123.88,3845,-6185,-4134,0,0,-1
-175.36,152.67,-123.88,3844,-6174,-4129,-1,-1,0
-175.37,152.67,-123.88,3839,-6172,-4147,-1,-1,0
-175.37,152.68,-123.88,3847,-6187,-4157,-1,-1,0
-175.37,152.68,-123.88,3847,-6186,-4157,0,0,0
-175.37,152.68,-123.88,3853,-6186,-4154,0,0,0
-175.37,152.68,-123.87,3849,-6188,-4153,-1,0,-1
-175.37,152.68,-123.87,3851,-6185,-4154,0,-1,0
-175.37,152.68,-123.88,3848,-6186,-4151,-1,-1,0
-175.38,152.69,-123.89,3849,-6189,-4162,-1,-1,0
-175.37,152.68,-123.89,3846,-6188,-4170,0,0,-1
-175.37,152.68,-123.88,3845,-6187,-4145,-1,-1,-1
-175.37,152.68,-123.89,3847,-6184,-4138,-1,-1,0
-175.39,152.68,-123.90,3853,-6190,-4150,-1,-1,0
-175.39,152.69,-123.91,3851,-6187,-4144,0,-1,0
-175.39,152.69,-123.91,3848,-6188,-4144,-1,-1,-1
-175.39,152.69,-123.91,3847,-6191,-4149,-1,-1,0
-175.39,152.69,-123.91,3854,-6188,-4159,0,-1,0
-175.38,152.69,-123.90,3856,-6184,-4148,-1,-1,0
-175.40,152.70,-123.91,3852,-6183,-4154,-1,-1,0
-175.39,152.70,-123.90,3844,-6193,-4158,0,0,0
-175.39,152.70,-123.90,3847,-6190,-4159,0,0,-1
-175.39,152.69,-123.90,3847,-6189,-4149,-1,0,-1
-175.38,152.69,-123.90,3847,-6192,-4160,-1,0,-1
-175.38,152.69,-123.91,3850,-6189,-4162,-1,0,-1
-175.38,152.69,-123.90,3848,-6184,-4154,-1,0,0
-175.38,152.69,-123.91,3845,-6191,-4151,-1,-1,-1
-175.38,152.69,-123.91,3837,-6192,-4150,0,0,-1
-175.38,152.68,-123.90,3845,-6183,-4149,0,0,0
-175.38,152.68,-123.90,3844,-6181,-4142,-1,-1,0
-175.38,152.69,-123.90,3844,-6190,-4158,-1,-1,0
-175.38,152.69,-123.90,3838,-6185,-4162,-1,-1,0
-175.40,152.70,-123.91,3842,-6190,-4163,-1,-1,-1
-175.40,152.69,-123.92,3850,-6189,-4168,-1,-1,-1
-175.39,152.69,-123.91,3848,-6183,-4159,0,0,0
-175.39,152.69,-123.90,3837,-6178,-4142,-1,-1,0
-175.40,152.70,-123.91,3844,-6181,-4159,-1,-1,0
-175.41,152.71,-123.92,3836,-6182,-4156,-1,-1,0
-175.41,152.71,-123.93,3842,-6187,-4162,-1,-1,-1
-175.41,152.71,-123.93,3838,-6184,-4156,-1,-1,0
-175.41,152.71,-123.93,3842,-6179,-4165,0,0,0
-175.41,152.71,-123.92,3839,-6178,-4157,0,-1,0
-175.42,152.72,-123.93,3837,-6179,-4166,-1,-1,0
-175.42,152.72,-123.93,3847,-6184,-4157,-1,0,-1
-175.41,152.71,-123.93,3852,-6181,-4155,-1,-1,-1
-175.42,152.72,-123.93,3842,-6176,-4148,-1,-1,0
-175.42,152.72,-123.94,3842,-6177,-4147,-1,-1,0
-175.43,152.72,-123.94,3841,-6184,-4161,-1,-1,0
-175.44,152.73,-123.95,3842,-6188,-4166,-1,-1,0
-175.44,152.73,-123.96,3838,-6188,-4171,-1,-1,0
-175.44,152.73,-123.96,3836,-6188,-4162,0,-1,-1
-175.43,152.73,-123.95,3839,-6184,-4152,-1,-1,0
-175.43,152.73,-123.96,3848,-6177,-4160,-1,-1,0
-175.44,152.73,-123.96,3844,-6175,-4156,0,-1,0
-175.44,152.73,-123.96,3847,-6180,-4170,0,0,0
-175.43,152.73,-123.95,3847,-6183,-4175,0,0,-1
-175.42,152.72,-123.95,3845,-6186,-4166,0,0,-1
-175.42,152.72,-123.95,3845,-6192,-4163,0,0,-1
-175.42,152.72,-123.94,3846,-6182,-4154,0,0,-1
-175.42,152.71,-123.94,3844,-6178,-4159,0,0,-1
-175.42,152.71,-123.94,3850,-6180,-4159,-1,0,-1
-175.41,152.70,-123.93,3840,-6181,-4157,-1,0,-1
-175.40,152.70,-123.93,3846,-6180,-4165,0,0,-1
-175.40,152.69,-123.93,3841,-6177,-4154,0,0,-1
-175.40,152.69,-123.93,3849,-6174,-4158,-1,0,0
-175.40,152.69,-123.93,3849,-6177,-4162,0,0,-1
-175.39,152.69,-123.93,3850,-6173,-4168,0,0,0
-175.39,152.68,-123.92,3852,-6173,-4156,-1,0,-1
-175.39,152.69,-123.93,3856,-6179,-4155,-1,-1,0
-175.39,152.68,-123.92,3857,-6181,-4162,0,0,0
-175.39,152.69,-123.92,3851,-6181,-4154,0,0,0
-175.39,152.69,-123.92,3847,-6189,-4152,-1,-1,0
-175.39,152.69,-123.92,3847,-6184,-4153,-1,-1,0
-175.39,152.69,-123.92,3847,-6191,-4156,0,0,0
-175.39,152.69,-123.92,3851,-6190,-4151,-1,-1,0
-175.39,152.69,-123.92,3855,-6186,-4156,-1,-1,-1
-175.39,152.69,-123.92,3851,-6190,-4164,0,0,0
-175.39,152.69,-123.92,3851,-6184,-4154,-1,-1,-1
-175.39,152.68,-123.92,3852,-6182,-4156,-1,-1,0
-175.40,152.69,-123.94,3854,-6185,-4175,-1,0,0
-175.39,152.68,-123.93,3851,-6185,-4169,0,0,-1
-175.38,152.68,-123.91,3845,-6183,-4146,0,0,0
-175.38,152.69,-123.91,3843,-6183,-4137,-1,-1,0
-175.39,152.69,-123.92,3852,-6184,-4156,-1,-1,0
-175.39,152.69,-123.93,3859,-6189,-4176,0,0,0
-175.39,152.69,-123.92,3854,-6180,-4170,0,0,0
-175.39,152.69,-123.92,3849,-6173,-4166,0,0,-1
-175.38,152.69,-123.91,3851,-6170,-4161,0,0,0
-175.38,152.68,-123.90,3850,-6182,-4153,0,0,0
-175.38,152.69,-123.91,3849,-6188,-4152,-1,0,0
-175.38,152.68,-123.90,3860,-6190,-4164,0,0,-1
-175.38,152.68,-123.90,3855,-6176,-4151,0,0,-1
-175.36,152.67,-123.90,3853,-6169,-4133,-1,-1,0
-175.38,152.67,-123.91,3844,-6170,-4149,-1,-1,0
-175.38,152.67,-123.91,3847,-6182,-4157,-1,0,-1
-175.38,152.67,-123.91,3849,-6186,-4156,0,0,-1
-175.38,152.67,-123.91,3847,-6185,-4140,-1,0,-1
-175.36,152.67,-123.90,3844,-6180,-4135,-1,-1,0
-175.36,152.67,-123.90,3844,-6175,-4147,-1,-1,0
-175.38,152.68,-123.90,3849,-6178,-4152,-1,-1,0
-175.38,152.68,-123.90,3849,-6181,-4158,0,0,0
-175.38,152.67,-123.90,3851,-6182,-4158,0,0,0
-175.37,152.68,-123.89,3848,-6182,-4158,0,0,-1
-175.37,152.68,-123.89,3845,-6178,-4154,-1,-1,0
-175.37,152.68,-123.89,3848,-6185,-4156,-1,-1,0
-175.37,152.68,-123.89,3845,-6186,-4160,-1,0,-1
-175.38,152.67,-123.90,3849,-6187,-4152,-1,0,-1
-175.38,152.67,-123.90,3854,-6181,-4154,-1,-1,0
-175.38,152.67,-123.91,3853,-6180,-4160,-1,0,-1
-175.38,152.67,-123.91,3849,-6182,-4158,-1,0,-1
-175.38,152.67,-123.91,3849,-6182,-4156,-1,0,0
-175.38,152.67,-123.91,3855,-6184,-4151,0,0,-1
-175.38,152.68,-123.90,3853,-6190,-4154,0,-1,0
-175.38,152.68,-123.90,3853,-6185,-4153,0,0,0
-175.38,152.68,-123.90,3853,-6187,-4155,-1,-1,0
-175.39,152.68,-123.90,3852,-6185,-4158,0,0,0
-175.39,152.68,-123.90,3847,-6185,-4163,-1,0,0
-175.39,152.68,-123.90,3846,-6191,-4164,0,0,-1
-175.39,152.68,-123.90,3846,-6183,-4167,0,0,-1
-175.39,152.68,-123.90,3854,-6185,-4153,-1,-1,0
-175.39,152.68,-123.90,3846,-6187,-4156,-1,-1,0
-175.39,152.68,-123.90,3855,-6185,-4155,0,0,-1
-175.38,152.68,-123.90,3856,-6187,-4159,-1,0,-1
-175.39,152.68,-123.91,3856,-6187,-4158,-1,0,0
-175.39,152.68,-123.91,3850,-6185,-4157,0,0,-1
-175.38,152.67,-123.89,3848,-6182,-4144,0,0,-1
-175.38,152.68,-123.89,3848,-6181,-4134,-1,-1,0
-175.38,152.68,-123.90,3848,-6179,-4146,-1,-1,0
-175.39,152.68,-123.90,3849,-6181,-4170,0,0,0
-175.38,152.68,-123.90,3846,-6177,-4160,0,0,-1
-175.38,152.68,-123.90,3847,-6176,-4152,-1,-1,0
-175.39,152.69,-123.90,3850,-6183,-4158,-1,0,0
-175.39,152.69,-123.90,3850,-6184,-4159,0,0,0
-175.39,152.68,-123.89,3852,-6184,-4152,-1,-1,-1
-175.39,152.68,-123.90,3860,-6188,-4151,-1,-1,0
-175.39,152.68,-123.91,3856,-6179,-4163,-1,0,-1
-175.39,152.68,-123.91,3853,-6175,-4160,-1,-1,-1
-175.39,152.68,-123.91,3857,-6177,-4153,-1,-1,0
-175.39,152.68,-123.92,3857,-6174,-4148,-1,-1,0
-175.39,152.68,-123.92,3855,-6184,-4155,-1,0,-1
-175.39,152.67,-123.91,3846,-6186,-4154,0,0,-1
-175.38,152.67,-123.91,3843,-6181,-4146,-1,0,-1
-175.39,152.67,-123.91,3844,-6181,-4157,-1,0,-1
-175.39,152.67,-123.92,3855,-6182,-4160,-1,0,0
-175.38,152.66,-123.92,3858,-6182,-4164,-1,0,-1
-175.38,152.66,-123.92,3855,-6181,-4163,-1,0,-1
-175.38,152.66,-123.93,3852,-6175,-4169,-1,0,-1
-175.38,152.65,-123.93,3852,-6177,-4158,-1,0,-1
-175.39,152.65,-123.94,3853,-6184,-4156,-1,-1,-1
-175.39,152.64,-123.95,3859,-6190,-4158,0,0,-1
-175.38,152.64,-123.94,3851,-6185,-4154,0,0,-1
-175.36,152.62,-123.92,3864,-6180,-4142,0,0,-1
-175.35,152.61,-123.92,3855,-6177,-4142,0,0,-1
-175.35,152.61,-123.92,3858,-6171,-4142,-1,0,-1
-175.34,152.60,-123.92,3866,-6171,-4145,-1,-1,0
-175.35,152.61,-123.92,3864,-6179,-4153,0,-1,0
-175.35,152.61,-123.92,3861,-6180,-4168,0,-1,0
-175.35,152.61,-123.92,3862,-6179,-4152,0,-1,0
-175.35,152.62,-123.91,3860,-6179,-4148,-1,-1,0
-175.36,152.62,-123.92,3860,-6179,-4157,-1,-1,0
-175.36,152.63,-123.92,3866,-6175,-4149,0,-1,0
-175.36,152.63,-123.91,3862,-6180,-4150,0,-1,0
-175.36,152.64,-123.91,3858,-6174,-4146,-1,-1,0
-175.36,152.64,-123.92,3862,-6182,-4156,-1,-1,0
-175.37,152.64,-123.92,3858,-6177,-4168,0,-1,0
-175.36,152.64,-123.92,3860,-6179,-4164,0,-1,0
-175.37,152.65,-123.92,3851,-6183,-4158,-1,-1,0
-175.38,152.66,-123.92,3856,-6182,-4154,-1,-1,0
-175.38,152.66,-123.93,3858,-6177,-4156,-1,-1,0
-175.39,152.66,-123.93,3853,-6182,-4160,-1,-1,0
-175.38,152.66,-123.93,3849,-6188,-4153,0,0,-1
-175.38,152.66,-123.92,3846,-6180,-4155,0,0,-1
-175.38,152.66,-123.92,3851,-6181,-4145,-1,-1,0
-175.39,152.67,-123.92,3860,-6183,-4147,-1,-1,0
-175.40,152.68,-123.94,3853,-6189,-4165,-1,-1,0
-175.41,152.69,-123.94,3845,-6187,-4192,0,0,0
-175.40,152.69,-123.92,3843,-6186,-4175,0,0,-1
-175.39,152.68,-123.92,3847,-6177,-4157,-1,-1,0
-175.40,152.69,-123.92,3846,-6177,-4158,-1,-1,0
-175.41,152.69,-123.92,3848,-6190,-4162,0,-1,0
-175.41,152.69,-123.92,3850,-6190,-4153,0,0,-1
-175.40,152.69,-123.92,3857,-6193,-4146,-1,-1,-1
-175.40,152.69,-123.92,3857,-6193,-4132,-1,-1,-1
-175.40,152.69,-123.92,3855,-6182,-4136,0,-1,0
-175.40,152.69,-123.92,3849,-6183,-4143,-1,-1,0
-175.41,152.69,-123.92,3852,-6193,-4154,-1,-1,0
-175.40,152.69,-123.92,3852,-6190,-4155,0,0,-1
-175.40,152.69,-123.92,3852,-6178,-4142,0,-1,-1
-175.40,152.69,-123.92,3849,-6174,-4146,-1,-1,0
-175.40,152.69,-123.92,3858,-6173,-4166,-1,-1,0
-175.41,152.70,-123.93,3852,-6178,-4167,0,-1,0
-175.40,152.70,-123.92,3847,-6173,-4164,0,0,0
-175.41,152.70,-123.92,3846,-6170,-4157,0,-1,0
-175.41,152.71,-123.91,3846,-6177,-4158,0,0,0
-175.41,152.70,-123.92,3841,-6180,-4162,-1,-1,-1
-175.40,152.70,-123.92,3844,-6184,-4158,-1,0,-1
-175.41,152.71,-123.92,3845,-6187,-4158,-1,0,-1
-175.41,152.71,-123.93,3843,-6185,-4155,-1,-1,-1
-175.41,152.71,-123.93,3848,-6182,-4152,-1,-1,0
-175.41,152.70,-123.93,3843,-6183,-4156,-1,-1,-1
-175.41,152.70,-123.94,3855,-6180,-4163,0,0,0
-175.41,152.70,-123.93,3855,-6182,-4160,0,0,-1
-175.41,152.70,-123.93,3851,-6172,-4155,-1,-1,0
-175.41,152.70,-123.94,3851,-6175,-4151,-1,-1,0
-175.42,152.71,-123.94,3849,-6182,-4160,0,-1,0
-175.41,152.71,-123.93,3853,-6180,-4154,0,0,0
-175.41,152.71,-123.93,3846,-6182,-4161,0,-1,0
-175.41,152.71,-123.93,3850,-6181,-4157,0,-1,0
-175.41,152.71,-123.93,3837,-6185,-4158,0,0,0
-175.41,152.71,-123.92,3847,-6186,-4143,-1,-1,0
-175.41,152.71,-123.93,3847,-6184,-4158,-1,-1,-1
-175.41,152.71,-123.93,3842,-6182,-4158,0,0,-1
-175.41,152.71,-123.93,3838,-6188,-4156,0,0,0
-175.41,152.71,-123.93,3846,-6185,-4154,-1,0,0
-175.41,152.71,-123.93,3848,-6187,-4154,0,-1,-1
-175.41,152.71,-123.93,3846,-6180,-4158,0,-1,0
-175.41,152.71,-123.93,3845,-6185,-4164,0,-1,0
-175.42,152.72,-123.93,3847,-6189,-4167,-1,-1,0
-175.42,152.72,-123.94,3843,-6182,-4166,-1,-1,0
-175.42,152.72,-123.94,3843,-6184,-4171,0,0,-1
-175.42,152.72,-123.93,3845,-6188,-4162,0,0,-1
-175.40,152.71,-123.92,3841,-6187,-4149,0,0,-1
-175.41,152.72,-123.93,3841,-6170,-4139,-1,-1,0
-175.42,152.72,-123.94,3845,-6172,-4160,-1,-1,0
-175.42,152.72,-123.95,3840,-6187,-4171,0,0,0
-175.42,152.73,-123.93,3840,-6186,-4170,0,0,-1
-175.41,152.72,-123.93,3841,-6184,-4160,0,0,-1
-175.41,152.71,-123.92,3842,-6186,-4155,0,0,0
-175.41,152.71,-123.92,3846,-6187,-4166,0,0,-1
-175.39,152.71,-123.91,3847,-6185,-4164,0,0,-1
-175.39,152.70,-123.92,3852,-6191,-4167,-1,0,-1
-175.39,152.70,-123.92,3851,-6188,-4168,0,0,-1
-175.39,152.69,-123.91,3848,-6189,-4163,0,0,-1
-175.39,152.69,-123.91,3851,-6179,-4155,0,0,-1
-175.39,152.69,-123.91,3850,-6180,-4161,-1,0,0
-175.39,152.69,-123.92,3855,-6185,-4167,0,0,-1
-175.38,152.68,-123.91,3851,-6186,-4168,0,0,-1
-175.37,152.68,-123.90,3852,-6179,-4151,0,0,-1
-175.38,152.68,-123.91,3846,-6178,-4157,-1,-1,0
-175.38,152.68,-123.91,3851,-6182,-4169,-1,-1,0
-175.38,152.68,-123.91,3847,-6176,-4166,0,0,0
-175.38,152.68,-123.91,3844,-6180,-4161,0,0,0
-175.37,152.69,-123.90,3847,-6190,-4158,0,0,0
-175.37,152.69,-123.90,3847,-6190,-4158,0,0,0
-175.37,152.68,-123.89,3853,-6180,-4151,-1,-1,0
-175.37,152.68,-123.90,3846,-6175,-4151,-1,0,-1
-175.37,152.68,-123.90,3845,-6182,-4152,0,0,-1
-175.36,152.67,-123.89,3854,-6170,-4137,-1,-1,0
-175.37,152.68,-123.90,3854,-6180,-4147,-1,-1,0
-175.37,152.68,-123.90,3858,-6177,-4162,0,0,0
-175.36,152.67,-123.89,3855,-6180,-4150,0,0,-1
-175.36,152.67,-123.89,3859,-6175,-4143,-1,-1,0
-175.37,152.67,-123.91,3853,-6175,-4146,-1,-1,0
-175.37,152.68,-123.90,3864,-6179,-4149,0,-1,0
-175.37,152.68,-123.89,3859,-6176,-4148,0,-1,0
-175.37,152.68,-123.89,3852,-6185,-4148,-1,-1,0
-175.37,152.68,-123.90,3853,-6187,-4148,0,-1,0
-175.37,152.68,-123.90,3851,-6180,-4154,0,0,0
-175.37,152.68,-123.89,3848,-6182,-4152,-1,-1,0
-175.37,152.69,-123.90,3841,-6186,-4153,-1,0,-1
-175.37,152.69,-123.90,3845,-6183,-4148,0,0,0
-175.37,152.68,-123.90,3857,-6181,-4152,-1,0,0
-175.37,152.68,-123.90,3862,-6177,-4152,-1,-1,0
-175.37,152.68,-123.90,3863,-6182,-4146,-1,-1,0
-175.37,152.68,-123.90,3859,-6187,-4150,0,0,0
-175.37,152.68,-123.90,3848,-6188,-4144,0,0,-1
-175.37,152.68,-123.89,3844,-6183,-4135,-1,-1,0
-175.37,152.69,-123.90,3851,-6179,-4142,-1,-1,0
-175.37,152.69,-123.90,3854,-6186,-4160,0,0,-1
-175.37,152.68,-123.89,3845,-6184,-4148,0,0,0
-175.36,152.68,-123.88,3847,-6174,-4122,-1,-1,0
-175.37,152.69,-123.89,3845,-6180,-4133,-1,-1,0
-175.39,152.69,-123.90,3843,-6182,-4159,-1,-1,0
-175.39,152.70,-123.91,3840,-6184,-4169,0,0,-1
-175.39,152.69,-123.90,3843,-6181,-4169,0,0,-1
-175.39,152.69,-123.90,3850,-6179,-4154,0,0,0
-175.39,152.69,-123.90,3851,-6182,-4159,0,0,0
-175.39,152.69,-123.90,3852,-6176,-4164,0,0,0
-175.39,152.69,-123.90,3855,-6178,-4158,-1,0,0
-175.39,152.69,-123.91,3848,-6177,-4158,-1,0,-1
-175.38,152.68,-123.91,3848,-6172,-4154,0,0,-1
-175.37,152.69,-123.90,3850,-6175,-4144,0,-1,0
-175.39,152.69,-123.91,3846,-6188,-4147,-1,-1,0
-175.40,152.70,-123.92,3850,-6195,-4169,0,0,-1
-175.38,152.69,-123.90,3850,-6193,-4157,0,0,-1
-175.37,152.69,-123.90,3851,-6183,-4131,-1,-1,-1
-175.38,152.69,-123.90,3844,-6179,-4147,-1,-1,0
-175.39,152.70,-123.92,3848,-6183,-4165,0,-1,0
-175.38,152.70,-123.91,3845,-6185,-4166,0,0,0
-175.38,152.70,-123.90,3840,-6184,-4158,0,0,0
-175.39,152.70,-123.91,3850,-6180,-4158,0,0,0
-175.37,152.69,-123.90,3853,-6175,-4155,0,0,0
-175.37,152.69,-123.90,3848,-6174,-4152,0,0,0
-175.38,152.69,-123.90,3859,-6182,-4163,-1,0,0
-175.38,152.69,-123.90,3849,-6187,-4165,0,0,-1
-175.38,152.69,-123.90,3848,-6188,-4162,0,0,-1
-175.38,152.69,-123.91,3853,-6179,-4157,-1,-1,-1
-175.39,152.70,-123.92,3856,-6186,-4162,-1,-1,0
-175.39,152.70,-123.92,3851,-6186,-4162,0,0,-1
-175.39,152.70,-123.92,3851,-6183,-4166,0,0,-1
-175.39,152.70,-123.92,3851,-6178,-4155,0,-1,0
-175.39,152.70,-123.92,3853,-6179,-4164,-1,-1,0
-175.39,152.70,-123.92,3855,-6179,-4174,0,0,0
-175.39,152.70,-123.92,3853,-6184,-4168,0,0,0
-175.39,152.70,-123.92,3852,-6180,-4163,0,0,0
-175.38,152.70,-123.91,3846,-6180,-4158,0,0,0
-175.38,152.70,-123.91,3846,-6180,-4156,0,0,0
-175.38,152.70,-123.91,3844,-6181,-4158,0,0,0
-175.38,152.70,-123.91,3846,-6181,-4162,0,0,0
-175.38,152.70,-123.91,3847,-6181,-4158,-1,0,-1
-175.38,152.69,-123.91,3852,-6184,-4158,-1,0,-1
-175.38,152.69,-123.90,3850,-6188,-4156,0,0,0
-175.37,152.69,-123.90,3846,-6177,-4135,-1,-1,0
-175.39,152.70,-123.92,3851,-6180,-4150,-1,-1,0
-175.38,152.69,-123.91,3854,-6186,-4161,0,0,0
-175.38,152.69,-123.90,3851,-6180,-4164,0,0,-1
-175.37,152.69,-123.90,3843,-6177,-4145,0,-1,0
-175.37,152.69,-123.90,3843,-6177,-4135,-1,-1,0
-175.38,152.70,-123.90,3847,-6181,-4149,-1,-1,0
-175.39,152.70,-123.91,3851,-6187,-4160,0,0,0
-175.38,152.70,-123.91,3851,-6186,-4175,0,0,-1
-175.38,152.70,-123.90,3850,-6168,-4165,0,0,0
-175.38,152.70,-123.90,3849,-6174,-4164,0,-1,0
-175.39,152.70,-123.90,3853,-6186,-4162,-1,-1,0
-175.38,152.70,-123.90,3857,-6189,-4172,0,0,-1
-175.38,152.70,-123.90,3846,-6185,-4161,-1,0,-1
-175.38,152.70,-123.90,3849,-6184,-4161,-1,0,-1
-175.38,152.70,-123.91,3848,-6187,-4160,-1,-1,0
-175.38,152.70,-123.91,3852,-6186,-4164,0,-1,0
-175.38,152.70,-123.91,3849,-6178,-4167,-1,-1,0
-175.38,152.70,-123.91,3849,-6181,-4165,0,-1,0
-175.38,152.70,-123.91,3847,-6186,-4160,0,0,0
-175.38,152.70,-123.90,3846,-6180,-4150,0,-1,0
-175.39,152.71,-123.91,3847,-6175,-4158,-1,-1,0
-175.40,152.71,-123.91,3848,-6178,-4176,0,-1,0
-175.40,152.71,-123.91,3843,-6178,-4178,0,-1,0
-175.40,152.71,-123.91,3843,-6183,-4169,0,0,0
-175.40,152.71,-123.91,3844,-6179,-4172,0,0,0
-175.40,152.71,-123.91,3837,-6184,-4163,0,-1,0
-175.40,152.72,-123.91,3842,-6190,-4154,-1,-1,0
-175.40,152.72,-123.91,3848,-6190,-4158,0,0,0
-175.40,152.71,-123.91,3850,-6190,-4158,0,0,-1
-175.40,152.71,-123.91,3853,-6181,-4154,-1,-1,0
-175.41,152.72,-123.93,3848,-6179,-4166,-1,-1,0
-175.41,152.72,-123.93,3847,-6184,-4169,0,0,-1
-175.40,152.72,-123.92,3848,-6186,-4164,0,0,-1
-175.40,152.72,-123.92,3848,-6186,-4154,-1,-1,0
-175.40,152.72,-123.92,3849,-6183,-4163,0,-1,0
-175.41,152.72,-123.92,3839,-6183,-4173,0,0,0
-175.41,152.72,-123.92,3848,-6182,-4168,-1,-1,0
-175.41,152.72,-123.92,3844,-6181,-4175,0,0,0
-175.41,152.72,-123.92,3848,-6187,-4165,0,0,0
-175.40,152.73,-123.92,3845,-6185,-4164,0,-1,0
-175.41,152.72,-123.92,3842,-6192,-4157,-1,-1,0
-175.41,152.72,-123.92,3843,-6187,-4167,0,0,-1
-175.41,152.72,-123.92,3843,-6180,-4164,0,0,-1
-175.41,152.72,-123.92,3840,-6179,-4157,0,-1,0
-175.41,152.72,-123.92,3845,-6179,-4170,-1,-1,0
-175.41,152.72,-123.93,3850,-6179,-4187,0,0,0
-175.41,152.72,-123.92,3852,-6181,-4168,0,0,-1
-175.41,152.72,-123.92,3840,-6176,-4158,-1,0,-1
-175.41,152.72,-123.93,3846,-6172,-4163,-1,0,-1
-175.41,152.72,-123.92,3843,-6179,-4152,0,-1,0
-175.41,152.72,-123.93,3842,-6184,-4156,-1,0,0
-175.40,152.72,-123.92,3845,-6189,-4166,0,0,0
-175.40,152.72,-123.90,3841,-6187,-4151,0,0,0
-175.40,152.72,-123.90,3838,-6181,-4141,-1,-1,0
-175.41,152.73,-123.93,3840,-6187,-4166,-1,-1,0
-175.41,152.73,-123.93,3842,-6193,-4185,0,0,-1
-175.40,152.73,-123.91,3843,-6185,-4158,0,0,0
-175.40,152.72,-123.90,3844,-6178,-4137,-1,0,0
-175.40,152.72,-123.90,3844,-6185,-4155,-1,-1,0
-175.40,152.72,-123.90,3845,-6182,-4159,0,0,0
-175.40,152.72,-123.90,3844,-6182,-4152,-1,0,-1
-175.40,152.72,-123.91,3850,-6185,-4154,-1,0,-1
-175.39,152.72,-123.90,3849,-6179,-4160,0,0,0
-175.39,152.72,-123.90,3851,-6179,-4146,-1,-1,0
-175.40,152.71,-123.91,3841,-6185,-4164,-1,-1,0
-175.40,152.71,-123.91,3847,-6186,-4172,0,0,-1
-175.39,152.72,-123.90,3842,-6186,-4160,0,0,-1
-175.38,152.71,-123.90,3847,-6179,-4160,0,0,0
-175.38,152.71,-123.90,3852,-6177,-4164,0,-1,0
-175.39,152.71,-123.91,3855,-6173,-4165,-1,-1,0
-175.40,152.71,-123.91,3851,-6183,-4167,-1,-1,0
-175.39,152.72,-123.90,3851,-6189,-4166,0,0,-1
-175.38,152.71,-123.90,3850,-6186,-4169,0,0,-1
-175.38,152.71,-123.90,3851,-6184,-4158,-1,0,0
-175.38,152.71,-123.90,3857,-6192,-4163,0,0,-1
-175.37,152.70,-123.88,3850,-6195,-4157,0,0,-1
-175.37,152.70,-123.87,3847,-6187,-4138,-1,0,-1
-175.37,152.70,-123.88,3844,-6185,-4144,-1,-1,0
-175.37,152.70,-123.88,3852,-6189,-4154,-1,0,-1
-175.37,152.70,-123.88,3851,-6190,-4148,0,0,-1
-175.37,152.70,-123.88,3844,-6183,-4143,-1,-1,0
-175.37,152.70,-123.89,3849,-6178,-4157,-1,-1,0
-175.37,152.70,-123.89,3850,-6177,-4158,0,0,0
-175.37,152.70,-123.89,3852,-6178,-4148,0,-1,0
-175.38,152.70,-123.89,3847,-6181,-4159,-1,-1,0
-175.38,152.70,-123.89,3850,-6180,-4169,0,-1,0
-175.37,152.70,-123.89,3843,-6179,-4166,0,0,0
-175.37,152.70,-123.88,3847,-6178,-4153,-1,-1,0
-175.37,152.70,-123.89,3845,-6178,-4162,0,0,-1
-175.37,152.70,-123.88,3838,-6180,-4161,0,0,-1
-175.37,152.70,-123.88,3841,-6182,-4155,0,0,-1
-175.37,152.70,-123.88,3837,-6175,-4149,0,-1,0
-175.37,152.70,-123.88,3847,-6182,-4151,-1,-1,0
-175.38,152.70,-123.89,3851,-6186,-4160,-1,0,-1
-175.38,152.70,-123.89,3850,-6177,-4154,0,0,0
-175.37,152.70,-123.88,3849,-6175,-4139,-1,-1,0
-175.38,152.70,-123.89,3854,-6182,-4148,-1,-1,0
-175.37,152.70,-123.89,3845,-6188,-4163,0,0,-1
-175.37,152.70,-123.88,3846,-6184,-4151,0,0,-1
-175.38,152.70,-123.89,3845,-6178,-4153,-1,-1,0
-175.38,152.70,-123.90,3856,-6185,-4168,0,0,0
-175.37,152.70,-123.89,3855,-6190,-4166,0,0,0
-175.37,152.71,-123.88,3846,-6173,-4135,0,-1,0
-175.37,152.71,-123.88,3847,-6178,-4130,-1,-1,0
-175.38,152.71,-123.89,3846,-6183,-4152,-1,-1,0
-175.38,152.71,-123.89,3847,-6193,-4166,0,0,0
-175.38,152.71,-123.89,3848,-6186,-4165,0,0,-1
-175.38,152.71,-123.89,3848,-6184,-4159,0,0,0
-175.38,152.71,-123.89,3842,-6180,-4155,0,0,0
-175.39,152.72,-123.88,3849,-6181,-4156,0,-1,0
-175.38,152.71,-123.89,3853,-6180,-4145,-1,0,-1
-175.38,152.71,-123.89,3853,-6187,-4144,-1,0,-1
-175.37,152.70,-123.88,3862,-6181,-4139,0,0,-1
-175.37,152.70,-123.88,3845,-6181,-4134,-1,-1,0
-175.38,152.71,-123.89,3844,-6183,-4144,-1,-1,0
-175.38,152.71,-123.89,3853,-6187,-4156,-1,-1,0
-175.38,152.71,-123.89,3852,-6191,-4163,-1,0,0
-175.38,152.71,-123.89,3846,-6184,-4154,0,0,-1
-175.38,152.71,-123.89,3846,-6177,-4152,-1,-1,-1
-175.38,152.71,-123.90,3855,-6171,-4164,-1,-1,0
-175.38,152.71,-123.90,3852,-6177,-4164,0,-1,0
-175.39,152.72,-123.89,3854,-6185,-4167,-1,-1,0
-175.40,152.72,-123.90,3849,-6187,-4168,0,0,0
-175.38,152.72,-123.89,3855,-6193,-4155,0,0,0
-175.37,152.71,-123.87,3847,-6190,-4148,0,0,-1
-175.37,152.71,-123.87,3849,-6179,-4133,-1,-1,0
-175.37,152.71,-123.88,3851,-6177,-4140,-1,-1,-1
-175.37,152.71,-123.88,3849,-6179,-4158,0,0,-1
-175.36,152.70,-123.88,3850,-6177,-4149,-1,0,-1
-175.37,152.70,-123.89,3846,-6186,-4152,-1,-1,-1
-175.37,152.70,-123.90,3847,-6184,-4161,-1,-1,0
-175.37,152.70,-123.90,3846,-6180,-4163,0,-1,0
-175.38,152.71,-123.90,3848,-6187,-4161,-1,-1,0
-175.38,152.71,-123.90,3851,-6184,-4161,0,0,-1
-175.37,152.70,-123.90,3854,-6180,-4147,0,-1,0
-175.37,152.71,-123.89,3850,-6177,-4146,-1,-1,0
-175.38,152.71,-123.90,3854,-6181,-4154,-1,-1,0
-175.38,152.71,-123.90,3855,-6179,-4157,0,0,0
-175.37,152.70,-123.90,3854,-6180,-4154,0,0,-1
-175.37,152.71,-123.89,3852,-6183,-4143,0,0,0
-175.37,152.71,-123.89,3852,-6181,-4151,-1,0,0
-175.37,152.70,-123.90,3849,-6180,-4150,-1,-1,-1
-175.37,152.70,-123.90,3845,-6187,-4154,-1,-1,0
-175.38,152.71,-123.90,3846,-6184,-4158,-1,0,-1
-175.38,152.71,-123.90,3845,-6187,-4170,-1,-1,-1
-175.38,152.71,-123.91,3849,-6184,-4166,0,0,-1
-175.37,152.70,-123.91,3851,-6180,-4165,0,-1,0
-175.37,152.71,-123.90,3850,-6182,-4152,0,-1,0
-175.38,152.71,-123.90,3851,-6180,-4151,-1,-1,0
-175.39,152.71,-123.92,3855,-6189,-4169,-1,0,0
-175.38,152.71,-123.91,3851,-6188,-4173,0,0,-1
-175.37,152.70,-123.91,3855,-6182,-4165,0,0,-1
-175.37,152.70,-123.90,3845,-6174,-4143,0,-1,0
-175.37,152.71,-123.90,3846,-6176,-4146,-1,-1,0
-175.38,152.71,-123.91,3843,-6183,-4158,-1,-1,0
-175.39,152.72,-123.92,3850,-6185,-4166,0,-1,-1
-175.38,152.71,-123.92,3849,-6176,-4163,0,0,0
-175.38,152.71,-123.91,3848,-6170,-4161,0,0,0
-175.38,152.71,-123.91,3851,-6178,-4161,0,-1,0
-175.38,152.71,-123.91,3843,-6187,-4157,0,0,0
-175.38,152.72,-123.91,3844,-6194,-4155,0,0,-1
-175.38,152.71,-123.91,3841,-6180,-4162,-1,0,-1
-175.39,152.71,-123.92,3844,-6180,-4166,-1,-1,0
-175.39,152.71,-123.92,3848,-6174,-4156,-1,0,0
-175.39,152.71,-123.92,3844,-6173,-4157,-1,-1,-1
-175.38,152.71,-123.93,3842,-6177,-4158,-1,-1,-1
-175.39,152.71,-123.94,3840,-6175,-4162,-1,-1,-1
-175.39,152.71,-123.94,3844,-6177,-4162,0,0,0
-175.39,152.71,-123.93,3843,-6174,-4151,-1,-1,0
-175.39,152.72,-123.94,3851,-6176,-4157,-1,-1,0
-175.40,152.72,-123.94,3854,-6181,-4173,0,-1,0
-175.40,152.73,-123.94,3848,-6181,-4177,0,0,0
-175.40,152.73,-123.94,3847,-6179,-4171,0,-1,0
-175.40,152.73,-123.94,3843,-6181,-4176,-1,0,-1
-175.40,152.73,-123.94,3837,-6177,-4179,0,0,0
-175.40,152.73,-123.93,3843,-6172,-4164,0,-1,0
-175.40,152.73,-123.94,3839,-6188,-4159,-1,-1,0
-175.40,152.73,-123.94,3846,-6192,-4168,0,0,0
-175.40,152.73,-123.94,3841,-6192,-4162,0,0,-1
-175.40,152.73,-123.94,3844,-6183,-4153,-1,-1,0
-175.41,152.73,-123.95,3843,-6185,-4159,-1,-1,0
-175.41,152.73,-123.95,3841,-6181,-4172,0,0,0
-175.41,152.73,-123.95,3842,-6180,-4164,0,0,-1
-175.41,152.73,-123.95,3841,-6173,-4155,-1,-1,0
-175.41,152.73,-123.95,3848,-6174,-4160,-1,-1,0
-175.41,152.73,-123.96,3850,-6180,-4169,0,-1,0
-175.41,152.73,-123.96,3847,-6175,-4158,-1,-1,0
-175.41,152.73,-123.95,3844,-6182,-4165,0,0,-1
-175.41,152.73,-123.95,3843,-6185,-4164,0,0,0
-175.42,152.74,-123.95,3844,-6176,-4161,-1,-1,0
-175.42,152.74,-123.96,3843,-6178,-4163,-1,-1,0
-175.42,152.73,-123.97,3844,-12290,-258,-1,0,-1
-175.41,152.73,-123.97,3844,-6175,-4158,0,-1,-1
-175.41,152.73,-123.97,3842,-6170,-4157,-1,-1,0
-175.41,152.73,-123.97,3838,-6179,-4161,-1,-1,0
-175.41,152.73,-123.97,3842,-6183,-4158,0,0,0
-175.41,152.73,-123.97,3850,-6176,-4155,-1,-1,-1
-175.42,152.73,-123.98,3850,-6181,-4173,-1,-1,0
-175.42,152.73,-123.98,3851,-6186,-4178,0,0,-1
-175.41,152.73,-123.96,3849,-6178,-4159,0,0,0
-175.40,152.73,-123.96,3851,-6171,-4143,-1,-1,0
-175.41,152.73,-123.97,3850,-6179,-4162,-1,-1,0
-175.42,152.74,-123.98,3852,-6181,-4186,-1,-1,0
-175.42,152.74,-123.98,3851,-6179,-4180,0,0,-1
-175.41,152.73,-123.97,3850,-6178,-4167,0,0,0
-175.41,152.73,-123.97,3845,-6178,-4170,-1,-1,0
-175.41,152.74,-123.96,3841,-6183,-4163,0,0,0
-175.41,152.73,-123.96,3839,-6182,-4155,0,0,-1
-175.41,152.73,-123.96,3841,-6185,-4160,-1,-1,-1
-175.41,152.73,-123.96,3843,-6184,-4161,-1,0,-1
-175.40,152.73,-123.96,3845,-6178,-4159,0,0,-1
-175.40,152.72,-123.95,3847,-6176,-4153,-1,0,-1
-175.40,152.72,-123.96,3850,-6181,-4161,-1,-1,-1
-175.40,152.72,-123.96,3847,-6182,-4169,0,0,-1
-175.39,152.72,-123.95,3848,-6179,-4156,0,0,-1
-175.39,152.71,-123.94,3849,-6178,-4139,-1,0,0
-175.39,152.71,-123.94,3849,-6175,-4143,-1,-1,0
-175.39,152.72,-123.94,3847,-6173,-4155,0,0,0
-175.39,152.72,-123.94,3845,-6177,-4176,0,0,0
-175.38,152.71,-123.94,3842,-6182,-4171,0,0,-1
-175.38,152.72,-123.93,3841,-6181,-4170,0,0,-1
-175.38,152.71,-123.93,3845,-6184,-4168,0,0,-1
-175.37,152.70,-123.92,3838,-6179,-4152,0,0,-1
-175.36,152.70,-123.92,3838,-6182,-4156,-1,0,0
-175.37,152.70,-123.92,3843,-6185,-4155,0,0,-1
-175.37,152.70,-123.92,3848,-6182,-4163,0,0,-1
-175.36,152.70,-123.92,3846,-6177,-4159,-1,0,-1
-175.36,152.70,-123.92,3846,-6175,-4156,-1,0,-1
-175.36,152.70,-123.92,3845,-6177,-4148,0,0,0
-175.36,152.70,-123.92,3849,-6179,-4155,0,0,0
-175.36,152.69,-123.92,3849,-6177,-4155,0,-1,0
-175.36,152.70,-123.92,3853,-6179,-4161,-1,0,0
-175.36,152.70,-123.92,3846,-6178,-4157,0,0,-1
-175.36,152.69,-123.92,3842,-6176,-4156,0,0,0
-175.36,152.69,-123.91,3850,-6181,-4157,-1,-1,0
-175.37,152.70,-123.92,3848,-6189,-4177,-1,-1,0
-175.36,152.70,-123.92,3854,-6186,-4183,0,0,0
-175.36,152.70,-123.92,3840,-6180,-4173,0,0,-1
-175.36,152.70,-123.92,3847,-6182,-4153,-1,-1,0
-175.36,152.69,-123.92,3846,-6181,-4155,0,0,-1
-175.36,152.69,-123.92,3854,-6184,-4169,0,0,0
-175.36,152.69,-123.92,3856,-6185,-4164,-1,0,-1
-175.36,152.69,-123.93,3857,-6190,-4169,0,0,-1
-175.35,152.68,-123.91,3851,-6187,-4164,0,0,-1
-175.35,152.68,-123.90,3847,-6179,-4152,0,0,0
-175.35,152.69,-123.91,3850,-6186,-4145,-1,-1,0
-175.36,152.69,-123.91,3856,-6193,-4166,-1,-1,0
-175.35,152.68,-123.91,3854,-6189,-4168,0,0,-1
-175.35,152.69,-123.91,3853,-6180,-4154,0,0,0
-175.35,152.69,-123.91,3860,-6173,-4154,-1,-1,0
-175.36,152.69,-123.91,3854,-6179,-4161,0,0,0
-175.36,152.69,-123.90,3853,-6181,-4165,0,0,0
-175.36,152.69,-123.90,3855,-6186,-4162,-1,0,-1
-175.36,152.69,-123.91,3854,-6187,-4161,-1,0,-1
-175.35,152.68,-123.90,3851,-6184,-4153,0,0,-1
-175.35,152.68,-123.90,3848,-6184,-4153,-1,0,0
-175.36,152.69,-123.91,3851,-6181,-4154,-1,-1,0
-175.36,152.69,-123.91,3847,-6180,-4166,-1,0,-1
-175.36,152.68,-123.91,3844,-6181,-4163,0,0,-1
-175.36,152.68,-123.91,3840,-6178,-4158,0,0,0
-175.36,152.68,-123.91,3845,-6175,-4155,0,-1,0
-175.36,152.68,-123.91,3846,-6180,-4144,-1,-1,0
-175.36,152.69,-123.91,3842,-6179,-4156,0,-1,0
-175.36,152.69,-123.91,3847,-6183,-4157,0,0,0
-175.35,152.69,-123.90,3846,-6186,-4157,0,0,0
-175.36,152.69,-123.89,3846,-6188,-4150,0,0,0
-175.35,152.69,-123.89,3844,-6182,-4149,0,0,0
-175.36,152.69,-123.89,3842,-6171,-4150,-1,0,-1
-175.36,152.69,-123.89,3847,-6179,-4143,-1,-1,-1
-175.36,152.69,-123.89,3847,-6179,-4150,-1,0,-1
-175.36,152.69,-123.89,3841,-6176,-4151,-1,-1,0
-175.37,152.69,-123.91,3852,-6184,-4163,-1,-1,0
-175.36,152.69,-123.90,3855,-6182,-4167,0,0,-1
-175.36,152.69,-123.90,3850,-6180,-4150,0,0,-1
-175.36,152.69,-123.90,3854,-6176,-4150,-1,-1,0
-175.36,152.68,-123.90,3855,-6181,-4160,0,-1,0
-175.36,152.68,-123.91,3849,-6177,-4165,0,0,0
-175.36,152.69,-123.90,3855,-6183,-4160,0,-1,0
-175.36,152.69,-123.90,3854,-6185,-4160,0,-1,0
-175.36,152.69,-123.90,3843,-6180,-4160,0,-1,0
-175.36,152.69,-123.90,3833,-6181,-4162,0,0,0
-175.36,152.69,-123.90,3840,-6181,-4156,-1,0,0
-175.37,152.70,-123.90,3841,-6182,-4162,0,0,-1
-175.36,152.69,-123.90,3844,-6182,-4166,0,0,-1
-175.36,152.69,-123.90,3851,-6182,-4152,-1,-1,0
-175.37,152.70,-123.90,3846,-6191,-4155,-1,-1,0
-175.37,152.70,-123.90,3848,-6190,-4152,-1,-1,0
-175.38,152.69,-123.91,3852,-6181,-4156,-1,-1,0
-175.38,152.69,-123.92,3856,-6175,-4165,-1,0,-1
-175.37,152.69,-123.91,3849,-6176,-4164,0,0,-1
-175.36,152.68,-123.90,3844,-6170,-4137,0,0,0
-175.36,152.69,-123.90,3846,-6167,-4136,-1,-1,0
-175.38,152.69,-123.91,3851,-6180,-4153,-1,-1,0
-175.38,152.70,-123.92,3847,-6182,-4164,0,-1,0
-175.38,152.69,-123.91,3845,-6177,-4163,0,0,0
-175.38,152.69,-123.91,3841,-6175,-4163,0,0,0
-175.38,152.69,-123.91,3843,-6179,-4162,0,0,0
-175.38,152.69,-123.91,3846,-6178,-4165,0,0,-1
-175.37,152.70,-123.90,3849,-6184,-4164,0,-1,-1
-175.38,152.70,-123.91,3849,-6188,-4158,-1,-1,0
-175.38,152.70,-123.92,3847,-6181,-4166,0,0,0
-175.38,152.69,-123.91,3847,-6182,-4150,0,0,-1
-175.38,152.69,-123.91,3851,-6182,-4145,-1,-1,-1
-175.38,152.69,-123.92,3858,-6185,-4160,-1,-1,0
-175.39,152.70,-123.93,3849,-6184,-4156,0,0,-1
-175.38,152.69,-123.92,3843,-6180,-4153,0,0,-1
-175.38,152.69,-123.92,3842,-6176,-4138,-1,-1,0
-175.38,152.70,-123.92,3848,-6172,-4151,-1,-1,0
-175.39,152.70,-123.93,3841,-6182,-4160,0,-1,0
-175.39,152.70,-123.93,3843,-6179,-4162,0,0,0
-175.39,152.70,-123.93,3841,-6181,-4165,0,0,0
-175.38,152.71,-123.92,3840,-6177,-4180,0,0,0
-175.39,152.71,-123.92,3840,-6178,-4167,0,-1,0
-175.40,152.71,-123.93,3831,-6184,-4163,-1,-1,0
-175.40,152.72,-123.93,3838,-6195,-4170,-1,-1,0
-175.41,152.72,-123.94,3843,-6188,-4172,0,0,-1
-175.40,152.71,-123.94,3841,-6183,-4154,-1,0,-1
-175.40,152.71,-123.94,3845,-6179,-4155,-1,-1,0
-175.41,152.71,-123.95,3849,-6181,-4155,-1,-1,0
-175.41,152.71,-123.95,3850,-6186,-4159,-1,-1,0
-175.41,152.71,-123.95,3846,-6185,-4171,0,0,-1
-175.41,152.71,-123.95,3849,-6183,-4160,0,0,-1
-175.40,152.71,-123.95,3845,-6173,-4154,0,-1,0
-175.41,152.72,-123.95,3845,-6166,-4153,-1,-1,0
-175.42,152.72,-123.96,3844,-6170,-4165,-1,-1,0
-175.42,152.73,-123.96,3842,-6177,-4171,0,0,0
-175.41,152.72,-123.95,3842,-6178,-4159,0,0,-1
-175.41,152.72,-123.95,3840,-6178,-4160,-1,-1,0
-175.41,152.72,-123.95,3842,-6185,-4171,0,0,-1
-175.41,152.72,-123.95,3839,-6182,-4165,0,0,0
-175.41,152.72,-123.95,3844,-6180,-4167,-1,-1,0
-175.42,152.72,-123.97,3841,-6178,-4163,-1,-1,0
-175.42,152.72,-123.97,3839,-6176,-4158,0,-1,0
-175.42,152.72,-123.97,3843,-6176,-4161,0,-1,0
-175.42,152.72,-123.97,3844,-6180,-4154,-1,-1,0
-175.43,152.73,-123.96,3842,-6186,-4165,0,0,0
-175.42,152.72,-123.97,3840,-6173,-4158,0,-1,0
-175.43,152.73,-123.96,3837,-6177,-4151,-1,-1,0
-175.44,152.73,-123.98,3845,-6182,-4174,-1,-1,-1
-175.44,152.73,-123.97,3841,-6184,-4176,0,0,-1
-175.42,152.72,-123.97,3846,-6177,-4152,0,-1,0
-175.43,152.73,-123.97,3851,-6171,-4156,-1,-1,0
-175.44,152.74,-123.98,3849,-6177,-4165,-1,-1,0
-175.44,152.74,-123.98,3845,-6180,-4176,0,-1,0
-175.44,152.74,-123.98,3838,-6176,-4175,0,0,-1
-175.44,152.74,-123.98,3837,-6170,-4181,0,0,0
-175.44,152.74,-123.98,3835,-6182,-4169,-1,0,0
-175.44,152.74,-123.98,3838,-6183,-4174,0,0,-1
-175.44,152.74,-123.97,3839,-6179,-4160,0,-1,0
-175.44,152.74,-123.98,3842,-6176,-4161,-1,-1,-1
-175.44,152.74,-123.99,3846,-6179,-4170,-1,-1,0
-175.44,152.74,-123.99,3848,-6183,-4166,0,0,-1
-175.44,152.74,-123.99,3843,-6182,-4154,-1,-1,-1
-175.44,152.74,-123.99,3849,-6180,-4155,-1,-1,0
-175.44,152.74,-123.99,3849,-6178,-4158,-1,-1,0
-175.45,152.74,-123.99,3844,-6179,-4158,0,-1,0
-175.44,152.74,-123.99,3841,-6178,-4162,-1,-1,0
-175.46,152.75,-124.01,3840,-6174,-4175,-1,-1,0
-175.46,152.75,-124.01,3845,-6177,-4188,0,-1,0
-175.46,152.75,-124.01,3837,-6172,-4173,0,-1,0
-175.46,152.75,-124.01,3839,-6175,-4170,-1,-1,0
-175.46,152.75,-124.01,3837,-6183,-4172,0,0,0
-175.46,152.75,-124.00,3831,-6189,-4175,0,0,-1
-175.45,152.75,-124.00,3835,-6186,-4153,-1,0,-1
-175.45,152.75,-124.00,3841,-6183,-4157,-1,-1,-1
-175.46,152.74,-124.00,3846,-6174,-4160,-1,-1,-1
-175.45,152.74,-124.01,3844,-6172,-4165,-1,-1,-1
-175.46,152.75,-124.01,3843,-6174,-4176,-1,-1,0
-175.47,152.75,-124.02,3840,-6174,-4176,-1,-1,-1
-175.46,152.75,-124.01,3836,-6170,-4166,0,0,0
-175.46,152.75,-124.01,3832,-6173,-4167,-1,-1,-1
-175.46,152.74,-124.03,3835,-6179,-4178,0,0,-1
-175.46,152.74,-124.03,3834,-6180,-4184,0,0,0
-175.45,152.74,-124.02,3834,-6177,-4179,0,0,-1
-175.45,152.74,-124.01,3834,-6169,-4167,0,0,0
-175.45,152.74,-124.01,3837,-6176,-4175,0,0,-1
-175.45,152.73,-124.01,3839,-6180,-4173,0,0,-1
-175.44,152.73,-124.00,3837,-6177,-4176,0,0,-1
-175.43,152.72,-123.99,3844,-6174,-4172,0,0,-1
-175.43,152.71,-123.99,3842,-6175,-4164,0,0,-1
-175.42,152.70,-123.98,3848,-6171,-4164,0,0,-1
-175.41,152.70,-123.98,3850,-6173,-4158,0,0,-1
-175.41,152.70,-123.97,3849,-6179,-4165,0,0,-1
-175.40,152.69,-123.96,3846,-6176,-4160,0,0,-1
-175.40,152.69,-123.96,3844,-6181,-4156,-1,0,-1
-175.40,152.69,-123.96,3849,-6181,-4152,-1,-1,0
-175.40,152.69,-123.97,3855,-6183,-4175,0,0,-1
-175.39,152.68,-123.95,3849,-6179,-4164,0,0,-1
-175.38,152.68,-123.94,3848,-6172,-4135,0,-1,0
-175.39,152.69,-123.95,3849,-6179,-4150,-1,-1,0
-175.40,152.69,-123.96,3853,-6184,-4165,0,-1,0
-175.40,152.69,-123.95,3849,-6173,-4168,0,0,-1
-175.39,152.69,-123.95,3851,-6166,-4158,0,0,0
-175.40,152.69,-123.95,3847,-6166,-4159,-1,-1,0
-175.40,152.69,-123.95,3847,-6170,-4162,0,0,0
-175.40,152.70,-123.95,3843,-6172,-4161,0,0,0
-175.39,152.69,-123.94,3846,-6179,-4154,-1,0,-1
-175.39,152.69,-123.94,3843,-6175,-4162,-1,0,-1
-175.39,152.69,-123.94,3848,-6170,-4167,0,0,0
-175.39,152.69,-123.94,3844,-6179,-4157,-1,0,0
-175.39,152.69,-123.94,3847,-6177,-4151,-1,0,0
-175.39,152.69,-123.94,3852,-6180,-4159,0,0,-1
-175.38,152.68,-123.94,3850,-6181,-4156,0,0,0
-175.38,152.68,-123.93,3846,-6183,-4153,0,-1,0
-175.38,152.69,-123.93,3838,-6180,-4149,-1,-1,0
-175.39,152.69,-123.94,3845,-6183,-4158,-1,-1,0
-175.39,152.69,-123.94,3847,-6177,-4154,0,-1,0
-175.39,152.69,-123.93,3851,-6183,-4153,0,0,0
-175.39,152.69,-123.93,3842,-6185,-4169,0,0,0
-175.39,152.69,-123.93,3837,-6187,-4170,0,0,0
-175.39,152.69,-123.93,3837,-6182,-4162,0,0,0
-175.39,152.70,-123.92,3840,-6183,-4152,-1,-1,0
-175.39,152.69,-123.93,3839,-6182,-4155,-1,0,-1
-175.39,152.69,-123.93,3844,-6177,-4169,0,0,-1
-175.39,152.69,-123.93,3840,-6173,-4159,0,0,-1
-175.39,152.69,-123.93,3844,-6177,-4155,-1,-1,0
-175.39,152.69,-123.93,3846,-6186,-4170,-1,0,0
-175.39,152.69,-123.93,3846,-6187,-4170,0,0,0
-175.38,152.69,-123.92,3837,-6183,-4148,0,0,-1
-175.38,152.69,-123.92,3842,-6175,-4144,-1,-1,0
-175.39,152.69,-123.92,3841,-6179,-4155,-1,-1,0
-175.39,152.69,-123.92,3847,-6182,-4169,0,0,0
-175.38,152.69,-123.91,3854,-6179,-4160,0,0,0
-175.38,152.69,-123.91,3847,-6179,-4160,-1,-1,0
-175.38,152.69,-123.91,3850,-6185,-4162,0,0,0
-175.38,152.69,-123.91,3847,-6187,-4167,0,0,0
-175.39,152.69,-123.91,3843,-6190,-4170,-1,-1,0
-175.39,152.69,-123.92,3842,-6198,-4164,-1,0,-1
-175.39,152.69,-123.91,3844,-6190,-4165,0,0,0
-175.39,152.69,-123.91,3841,-6186,-4161,-1,-1,0
-175.39,152.70,-123.92,3840,-6184,-4163,0,-1,0
-175.39,152.70,-123.92,3842,-6185,-4151,0,0,-1
-175.40,152.70,-123.92,3849,-6180,-4149,-1,-1,0
-175.40,152.70,-123.92,3849,-6185,-4148,-1,0,-1
-175.39,152.69,-123.92,3851,-6188,-4156,0,0,-1
-175.38,152.69,-123.91,3846,-6182,-4136,0,0,0
-175.39,152.69,-123.90,3849,-6183,-4132,-1,-1,0
-175.39,152.69,-123.91,3857,-6183,-4140,-1,-1,0
-175.39,152.70,-123.92,3854,-6187,-4159,0,-1,0
-175.39,152.70,-123.92,3851,-6184,-4165,0,0,0
-175.39,152.70,-123.91,3849,-6180,-4155,0,0,0
-175.40,152.70,-123.90,3845,-6187,-4146,0,0,0
-175.39,152.70,-123.91,3846,-6186,-4152,0,0,0
-175.39,152.69,-123.90,3848,-6181,-4147,0,0,-1
-175.39,152.70,-123.90,3851,-6183,-4152,-1,-1,0
-175.40,152.70,-123.91,3853,-6185,-4173,0,0,-1
-175.39,152.69,-123.90,3848,-6180,-4168,0,0,-1
-175.38,152.69,-123.90,3853,-6171,-4147,-1,-1,-1
-175.39,152.69,-123.92,3849,-6169,-4161,-1,-1,0
-175.40,152.70,-123.92,3856,-6180,-4184,0,0,0
-175.39,152.69,-123.92,3852,-6183,-4173,0,0,-1
-175.39,152.69,-123.91,3850,-6173,-4157,0,0,0
-175.39,152.69,-123.91,3848,-6169,-4158,-1,-1,0
-175.40,152.70,-123.92,3847,-6170,-4163,-1,-1,0
-175.41,152.71,-123.92,3849,-6182,-4164,0,-1,0
-175.40,152.71,-123.92,3849,-6189,-4166,0,0,0
-175.40,152.71,-123.92,3844,-6188,-4173,0,0,0
-175.40,152.71,-123.92,3841,-6186,-4151,0,0,-1
-175.40,152.71,-123.92,3840,-6184,-4154,-1,-1,0
-175.40,152.71,-123.92,3837,-6195,-4156,-1,-1,-1
-175.40,152.71,-123.92,3840,-6192,-4165,-1,0,-1
-175.41,152.71,-123.92,3849,-6184,-4158,0,0,-1
-175.41,152.71,-123.93,3844,-6180,-4151,-1,-1,0
-175.41,152.71,-123.93,3844,-6190,-4159,-1,-1,0
-175.41,152.71,-123.93,3844,-6186,-4157,-1,-1,0
-175.42,152.71,-123.94,3840,-6186,-4164,0,0,-1
-175.41,152.71,-123.93,3841,-6186,-4163,0,0,-1
-175.41,152.71,-123.93,3842,-6185,-4166,0,-1,0
-175.41,152.71,-123.93,3845,-6187,-4159,-1,-1,0
-175.42,152.72,-123.93,3836,-6190,-4167,-1,-1,0
-175.43,152.73,-123.94,3844,-6196,-4173,0,-1,0
-175.43,152.73,-123.94,3841,-6184,-4171,0,0,-1
-175.43,152.73,-123.94,3845,-6180,-4154,-1,-1,0
-175.43,152.73,-123.94,3846,-6184,-4161,-1,-1,-1
-175.43,152.73,-123.94,3845,-6179,-4176,0,0,-1
-175.42,152.72,-123.94,3848,-6179,-4155,0,0,-1
-175.42,152.72,-123.95,3844,-6180,-4156,-1,-1,0
-175.44,152.73,-123.95,3840,-6183,-4175,-1,-1,0
-175.44,152.73,-123.95,3840,-6179,-4170,0,-1,0
-175.44,152.73,-123.95,3839,-6182,-4170,-1,-1,0
-175.44,152.73,-123.96,3845,-6188,-4164,-1,-1,0
-175.44,152.73,-123.96,3842,-6186,-4169,0,-1,0
-175.45,152.74,-123.96,3841,-6184,-4168,-1,-1,0
-175.45,152.74,-123.97,3851,-6188,-4172,-1,-1,0
-175.45,152.74,-123.97,3845,-6182,-4176,0,0,-1
-175.43,152.73,-123.95,3838,-6173,-4156,0,0,-1
-175.43,152.73,-123.95,3840,-6174,-4139,-1,-1,0
-175.45,152.75,-123.97,3839,-6188,-4158,-1,-1,0
-175.46,152.74,-123.98,3838,-6193,-4176,0,0,0
-175.45,152.75,-123.97,3835,-6189,-4179,0,0,-1
-175.45,152.75,-123.97,3835,-6182,-4169,0,0,0
-175.45,152.75,-123.97,3834,-6181,-4175,-1,-1,0
-175.46,152.75,-123.98,3837,-6182,-4176,-1,-1,0
-175.46,152.75,-123.98,3839,-6191,-4180,-1,0,-1
-175.46,152.75,-123.98,3836,-6192,-4173,0,0,-1
-175.46,152.74,-123.99,3839,-6180,-4172,0,0,-1
-175.46,152.74,-123.98,3843,-6178,-4148,-1,-1,0
-175.46,152.75,-123.99,3838,-6181,-4158,-1,-1,0
-175.47,152.75,-123.99,3832,-6184,-4175,0,-1,0
-175.46,152.75,-123.99,3839,-6185,-4173,0,0,-1
-175.46,152.75,-123.99,3840,-6177,-4168,0,0,-1
-175.46,152.74,-124.00,3844,-6167,-4169,-1,-1,-1
-175.46,152.74,-124.00,3839,-6172,-4166,0,-1,0
-175.46,152.74,-124.00,3839,-6166,-4164,0,-1,0
-175.46,152.74,-124.00,3838,-6165,-4167,0,0,0
-175.46,152.75,-123.99,3836,-6172,-4174,0,0,-1
-175.45,152.74,-123.99,3836,-6171,-4167,0,0,-1
-175.45,152.74,-123.99,3842,-6177,-4176,0,0,-1
-175.45,152.73,-123.98,3839,-6180,-4170,0,0,-1
-175.44,152.73,-123.97,3843,-6185,-4161,0,0,-1
-175.44,152.73,-123.97,3840,-6177,-4153,-1,0,-1
-175.43,152.72,-123.98,3843,-6181,-4161,-1,0,-1
-175.43,152.72,-123.98,3838,-6179,-4169,-1,0,-1
-175.43,152.72,-123.98,3839,-6176,-4164,0,0,0
-175.43,152.72,-123.98,3845,-6177,-4168,0,0,-1
-175.43,152.72,-123.98,3852,-6171,-4161,-1,0,0
-175.43,152.71,-123.97,3852,-6181,-4161,0,0,0
-175.43,152.71,-123.97,3854,-6187,-4155,0,0,0
-175.43,152.71,-123.97,3860,-6181,-4150,0,0,0
-175.43,152.71,-123.97,3849,-6179,-4164,0,0,0
-175.42,152.71,-123.96,3850,-6178,-4168,0,0,0
-175.42,152.71,-123.96,3857,-6179,-4162,0,-1,0
-175.42,152.71,-123.96,3852,-6189,-4158,-1,0,0
-175.42,152.71,-123.96,3851,-6191,-4169,0,0,-1
-175.42,152.71,-123.96,3843,-6188,-4170,0,0,-1
-175.42,152.71,-123.96,3846,-6181,-4163,0,0,0
-175.42,152.71,-123.97,3843,-6185,-4164,-1,-1,0
-175.42,152.71,-123.97,3846,-6183,-4184,0,0,0
-175.42,152.70,-123.96,3852,-6181,-4167,0,0,-1
-175.42,152.70,-123.96,3852,-6179,-4161,-1,-1,-1
-175.42,152.70,-123.97,3851,-6178,-4177,-1,0,0
-175.42,152.70,-123.96,3847,-6181,-4174,0,0,-1
-175.41,152.70,-123.94,3836,-6175,-4144,0,0,-1
-175.41,152.70,-123.94,3843,-6183,-4139,-1,-1,0
-175.42,152.70,-123.96,3848,-6187,-4159,-1,-1,0
-175.42,152.70,-123.96,3849,-6186,-4175,0,0,0
-175.41,152.70,-123.94,3846,-6181,-4157,0,0,-1
-175.41,152.70,-123.94,3836,-6178,-4157,-1,0,0
-175.41,152.70,-123.94,3839,-6177,-4167,0,0,0
-175.41,152.70,-123.94,3836,-6179,-4171,0,0,-1
-175.41,152.70,-123.94,3837,-6180,-4167,-1,-1,-1
-175.41,152.70,-123.95,3845,-6177,-4162,-1,0,-1
-175.41,152.69,-123.95,3850,-6171,-4154,0,0,-1
-175.41,152.69,-123.95,3852,-6172,-4155,0,0,-1
-175.41,152.69,-123.95,3853,-6172,-4152,-1,-1,0
-175.41,152.69,-123.95,3854,-6171,-4166,-1,-1,0
-175.41,152.69,-123.95,3851,-6179,-4167,0,0,0
-175.41,152.69,-123.95,3844,-6186,-4155,0,-1,0
-175.41,152.69,-123.95,3846,-6183,-4160,-1,-1,0
-175.41,152.70,-123.95,3839,-6173,-4167,-1,-1,0
-175.42,152.70,-123.96,3839,-6181,-4182,0,-1,0
-175.42,152.70,-123.96,3845,-6182,-4182,0,0,0
-175.42,152.71,-123.95,3845,-6188,-4185,0,0,0
-175.41,152.70,-123.95,3850,-6184,-4174,0,0,-1
-175.41,152.70,-123.95,3847,-6180,-4163,0,-1,0
-175.42,152.71,-123.95,3838,-6184,-4166,-1,-1,0
-175.42,152.71,-123.95,3849,-6188,-4173,0,0,0
-175.41,152.70,-123.94,3847,-6180,-4165,0,0,-1
-175.41,152.70,-123.94,3844,-6175,-4156,-1,-1,0
-175.42,152.71,-123.95,3841,-6180,-4162,-1,-1,0
-175.42,152.71,-123.96,3844,-6176,-4166,0,0,0
-175.42,152.70,-123.95,3845,-6167,-4153,0,0,0
-175.42,152.70,-123.95,3846,-6167,-4157,-1,-1,0
-175.42,152.70,-123.95,3851,-6173,-4158,0,-1,0
-175.42,152.70,-123.95,3856,-6178,-4166,0,-1,0
-175.42,152.71,-123.95,3851,-6178,-4167,-1,-1,0
-175.42,152.71,-123.96,3851,-6190,-4180,0,-1,0
-175.42,152.71,-123.95,3848,-6185,-4177,0,0,0
-175.42,152.71,-123.95,3840,-6184,-4171,0,0,0
-175.43,152.71,-123.95,3846,-6186,-4170,-1,-1,0
-175.43,152.72,-123.96,3844,-6181,-4170,0,0,0
-175.43,152.71,-123.95,3845,-6177,-4163,0,0,0
-175.43,152.71,-123.95,3844,-6172,-4166,-1,0,-1
-175.43,152.71,-123.96,3841,-6175,-4162,0,0,-1
-175.43,152.71,-123.96,3838,-6176,-4151,-1,-1,0
-175.44,152.71,-123.96,3847,-6173,-4166,-1,-1,0
-175.44,152.71,-123.97,3850,-6175,-4175,0,0,-1
-175.43,152.71,-123.96,3836,-6172,-4160,0,0,-1
-175.42,152.71,-123.95,3840,-6170,-4139,0,-1,0
-175.43,152.71,-123.95,3845,-6173,-4148,-1,-1,0
-175.44,152.71,-123.96,3846,-6186,-4171,-1,-1,0
-175.44,152.71,-123.96,3851,-6184,-4179,0,0,0
-175.43,152.71,-123.95,3851,-6174,-4163,0,0,0
-175.43,152.71,-123.95,3841,-6173,-4153,-1,-1,0
-175.44,152.72,-123.96,3837,-6177,-4164,0,0,0
-175.43,152.72,-123.95,3843,-6182,-4158,0,0,-1
-175.43,152.71,-123.95,3842,-6185,-4154,-1,0,-1
-175.43,152.71,-123.95,3844,-6183,-4169,-1,-1,0
-175.43,152.72,-123.96,3845,-6182,-4176,0,0,-1
-175.43,152.71,-123.95,3842,-6186,-4169,0,0,0
-175.44,152.72,-123.96,3841,-6184,-4160,-1,-1,0
-175.44,152.72,-123.96,3845,-6188,-4173,-1,-1,-1
-175.44,152.72,-123.96,3839,-6191,-4172,0,0,-1
-175.44,152.72,-123.96,3835,-6177,-4154,0,0,-1
-175.44,152.72,-123.96,3836,-6177,-4157,-1,-1,0
-175.45,152.72,-123.97,3839,-6177,-4158,-1,-1,0
-175.45,152.73,-123.97,3845,-6180,-4172,0,-1,0
-175.45,152.74,-123.97,3841,-6184,-4178,0,-1,0
-175.46,152.74,-123.96,3839,-6187,-4168,0,0,0
-175.46,152.74,-123.96,3839,-6187,-4157,0,-1,-1
-175.46,152.74,-123.96,3838,-6180,-4160,-1,-1,0
-175.46,152.74,-123.96,3843,-6184,-4152,-1,-1,0
-175.47,152.75,-123.97,3843,-6187,-4158,-1,-1,0
-175.46,152.74,-123.97,3843,-6191,-4157,-1,0,-1
-175.46,152.74,-123.97,3842,-6188,-4155,-1,-1,-1
-175.46,152.74,-123.97,3838,-6190,-4146,-1,-1,-1
-175.46,152.74,-123.97,3846,-6187,-4152,-1,-1,-1
-175.46,152.74,-123.97,3845,-6185,-4154,-1,-1,0
-175.47,152.74,-123.98,3852,-6190,-4156,-1,-1,0
-175.46,152.74,-123.97,3844,-6187,-4174,0,0,0
-175.46,152.74,-123.97,3841,-6179,-4158,0,-1,0
-175.47,152.75,-123.97,3843,-6178,-4144,-1,-1,0
-175.47,152.75,-123.97,3842,-6181,-4160,-1,-1,0
-175.47,152.75,-123.97,3841,-6180,-4162,0,-1,0
-175.47,152.75,-123.97,3840,-6178,-4166,0,0,-1
-175.47,152.75,-123.97,3840,-6179,-4172,-1,0,-1
-175.47,152.75,-123.97,3840,-6175,-4169,-1,0,-1
-175.47,152.75,-123.97,3835,-6173,-4158,0,-1,0
-175.47,152.75,-123.98,3837,-6179,-4161,-1,-1,-1
-175.48,152.75,-123.99,3836,-6181,-4166,-1,-1,-1
-175.48,152.75,-123.99,3842,-6175,-4170,0,0,-1
-175.47,152.75,-123.98,3842,-6181,-4164,-1,0,-1
-175.47,152.75,-123.98,3841,-6179,-4165,-1,-1,0
-175.47,152.75,-123.98,3839,-6178,-4162,0,0,-1
-175.48,152.75,-123.99,3840,-6178,-4162,-1,-1,0
-175.49,152.76,-124.00,3835,-6179,-4179,-1,-1,-1
-175.49,152.76,-124.00,3836,-6181,-4194,0,0,-1
-175.48,152.75,-123.99,3836,-6179,-4179,0,0,-1
-175.47,152.76,-123.98,3834,-6172,-4150,-1,-1,0
-175.48,152.76,-123.99,3838,-6178,-4156,-1,-1,-1
-175.49,152.76,-124.00,3842,-6174,-4170,0,-1,-1
-175.48,152.76,-123.99,3834,-6180,-4167,0,0,-1
-175.48,152.75,-123.99,3834,-6172,-4164,0,0,-1
-175.47,152.75,-123.97,3840,-6179,-4163,0,0,-1
-175.47,152.75,-123.97,3841,-6183,-4158,0,0,-1
-175.47,152.75,-123.97,3834,-6181,-4153,-1,0,-1
-175.46,152.74,-123.97,3836,-6181,-4167,-1,0,-1
-175.45,152.73,-123.96,3839,-6180,-4169,0,0,-1
-175.45,152.72,-123.96,3843,-6174,-4161,0,0,-1
-175.43,152.72,-123.96,3851,-6178,-4159,-1,0,-1
-175.44,152.71,-123.96,3855,-6172,-4160,-1,0,-1
-175.43,152.71,-123.96,3848,-6176,-4169,0,0,-1
-175.43,152.71,-123.96,3837,-6187,-4171,0,0,-1
-175.43,152.70,-123.95,3836,-6182,-4167,0,0,-1
-175.43,152.70,-123.95,3832,-6179,-4162,0,0,-1
-175.43,152.70,-123.95,3843,-6178,-4157,-1,-1,0
-175.43,152.71,-123.95,3848,-6176,-4174,0,-1,0
-175.43,152.71,-123.95,3841,-6175,-4181,0,0,0
-175.43,152.70,-123.95,3837,-6170,-4178,0,0,-1
-175.42,152.71,-123.94,3839,-6175,-4158,0,0,-1
-175.42,152.70,-123.94,3841,-6181,-4159,0,0,-1
-175.43,152.70,-123.94,3843,-6188,-4158,-1,0,-1
