Yaw,Pitch,Roll,AX,AY,AZ,GX,GY,GZ
-156.30,13.44,-70.85,1938,-7659,2664,-1,0,0
-156.30,13.44,-70.85,1941,-7656,2659,-1,-1,0
-156.30,13.43,-70.85,1939,-7652,2663,-1,0,0
-156.31,13.43,-70.87,1933,-7658,2654,-1,-1,0
-156.32,13.42,-70.86,1932,-7661,2657,0,0,0
-156.32,13.42,-70.86,1936,-7663,2649,0,-1,0
-156.32,13.42,-70.86,1941,-7662,2660,-1,0,0
-156.33,13.42,-70.87,1939,-7669,2655,0,0,0
-156.33,13.41,-70.86,1935,-7653,2666,-1,-1,0
-156.33,13.41,-70.86,1930,-7663,2648,0,-1,0
-156.33,13.41,-70.86,1931,-7660,2650,0,-1,-1
-156.33,13.41,-70.86,1939,-7663,2646,-1,-1,0
-156.34,13.40,-70.87,1938,-7652,2657,-1,-1,0
-156.35,13.40,-70.87,1933,-7653,2656,-1,-1,0
-156.36,13.39,-70.88,1930,-7658,2655,-1,-1,0
-156.37,13.39,-70.89,1929,-7668,2652,-1,-1,0
-156.37,13.39,-70.89,1930,-7664,2642,0,-1,0
-156.37,13.38,-70.89,1932,-7661,2647,0,-1,0
-156.38,13.38,-70.89,1931,-7666,2648,0,0,0
-156.37,13.38,-70.88,1938,-7666,2663,0,0,0
-156.37,13.38,-70.88,1935,-7660,2664,-1,-1,0
-156.38,13.37,-70.88,1933,-7656,2669,-1,-1,0
-156.38,13.37,-70.88,1939,-7657,2660,-1,-1,0
-156.39,13.37,-70.89,1937,-7663,2661,-1,-1,0
-156.39,13.37,-70.88,1931,-7662,2657,0,-1,0
-156.40,13.36,-70.89,1927,-7654,2661,-1,-1,0
-156.41,13.36,-70.88,1921,-7655,2658,0,-1,0
-156.41,13.35,-70.88,1921,-7656,2650,0,0,0
-156.41,13.35,-70.88,1928,-7665,2668,-1,0,0
-156.42,13.34,-70.89,1924,-7675,2656,-1,-1,0
-156.42,13.34,-70.90,1918,-7676,2640,0,-1,-1
-156.41,13.35,-70.88,1922,-7669,2642,0,0,-1
-156.40,13.35,-70.87,1935,-7643,2658,0,0,0
-156.41,13.35,-70.87,1933,-7643,2664,-1,-1,0
-156.42,13.34,-70.89,1922,-7658,2664,-1,-1,0
-156.42,13.34,-70.89,1918,-7669,2646,-1,-1,0
-156.43,13.33,-70.89,1920,-7674,2644,0,0,0
-156.43,13.33,-70.89,1917,-7664,2645,-1,0,-1
-156.43,13.33,-70.89,1920,-7657,2646,0,-1,0
-156.43,13.33,-70.89,1923,-7655,2651,-1,-1,0
-156.44,13.33,-70.90,1921,-7669,2648,-1,-1,0
-156.44,13.33,-70.90,1918,-7671,2645,-1,-1,0
-156.45,13.32,-70.91,1919,-7665,2649,-1,-1,0
-156.45,13.32,-70.91,1925,-7657,2659,-1,-1,0
-156.46,13.32,-70.91,1922,-7655,2652,-1,-1,0
-156.47,13.31,-70.92,1918,-7667,2636,-1,-1,0
-156.48,13.31,-70.92,1915,-7673,2632,0,-1,0
-156.48,13.31,-70.92,1920,-7669,2644,0,0,0
-156.49,13.30,-70.92,1918,-7669,2642,-1,-1,0
-156.50,13.29,-70.92,1924,-7660,2634,0,0,0
-156.50,13.29,-70.92,1918,-7671,2642,-1,-1,0
-156.50,13.29,-70.92,1918,-7663,2641,0,0,0
-156.50,13.29,-70.92,1912,-7662,2648,-1,-1,0
-156.51,13.28,-70.93,1907,-7663,2643,0,-1,0
-156.51,13.28,-70.92,1916,-7672,2645,-1,-1,0
-156.52,13.27,-70.93,1910,-7670,2651,-1,0,0
-156.52,13.27,-70.93,1919,-7668,2653,-1,-1,0
-156.52,13.27,-70.94,1916,-7660,2653,-1,-1,0
-156.54,13.26,-70.95,1916,-7671,2646,-1,-1,0
-156.54,13.26,-70.95,1915,-7669,2636,-1,0,0
-156.55,13.25,-70.96,1909,-7669,2638,-1,-1,0
-156.56,13.25,-70.95,1901,-7668,2646,0,-1,0
-156.56,13.25,-70.95,1910,-7670,2645,0,-1,0
-156.57,13.24,-70.95,1903,-7664,2642,0,-1,0
-156.57,13.24,-70.95,1906,-7668,2647,-1,-1,0
-156.58,13.23,-70.95,1907,-7670,2649,-1,0,0
-156.58,13.23,-70.95,1902,-7668,2635,0,-1,0
-156.59,13.22,-70.96,1903,-7669,2638,-1,-1,0
-156.60,13.21,-70.96,1900,-7675,2625,0,-1,0
-156.61,13.21,-70.97,1898,-7674,2631,-1,-1,0
-156.61,13.21,-70.96,1908,-7678,2640,0,0,0
-156.62,13.20,-70.96,1906,-7673,2666,-1,0,0
-156.63,13.19,-70.96,1895,-7665,2658,-1,0,0
-156.64,13.19,-70.97,1900,-7673,2645,-1,-1,0
-156.64,13.19,-70.97,1897,-7682,2630,0,0,-1
-156.64,13.19,-70.97,1905,-7675,2639,0,0,-1
-156.63,13.19,-70.96,1902,-7662,2643,-1,-1,0
-156.64,13.18,-70.97,1887,-7666,2649,-1,-1,0
-156.65,13.17,-70.97,1886,-7674,2653,-1,-1,0
-156.66,13.17,-70.98,1883,-7692,2638,0,-1,0
-156.66,13.17,-70.97,1882,-7699,2634,0,-1,-1
-156.65,13.17,-70.96,1876,-7682,2642,0,-1,-1
-156.64,13.18,-70.94,1879,-7674,2637,0,-1,-1
-156.62,13.19,-70.91,1888,-7663,2654,0,-1,-1
-156.61,13.19,-70.90,1891,-7657,2668,0,-1,-1
-156.60,13.20,-70.89,1895,-7658,2673,0,-1,-1
-156.59,13.21,-70.88,1900,-7675,2667,0,-1,-1
-156.58,13.22,-70.88,1902,-7672,2655,0,-1,-1
-156.57,13.22,-70.86,1896,-7664,2664,0,-1,-1
-156.56,13.23,-70.85,1902,-7658,2672,0,0,-1
-156.55,13.24,-70.85,1900,-7662,2659,0,0,-1
-156.52,13.25,-70.84,1908,-7672,2686,-1,0,-1
-156.52,13.26,-70.85,1908,-7674,2667,-1,0,-1
-156.50,13.28,-70.85,1904,-7669,2658,-1,0,-1
-156.49,13.28,-70.84,1907,-7652,2650,-1,0,-1
-156.48,13.29,-70.84,1912,-7650,2652,-1,0,-1
-156.47,13.30,-70.84,1908,-7667,2651,-1,0,-1
-156.46,13.31,-70.84,1910,-7663,2658,0,0,-1
-156.45,13.32,-70.84,1913,-7660,2670,0,0,-1
-156.43,13.33,-70.84,1915,-7662,2680,-1,0,-1
-156.42,13.33,-70.84,1919,-7660,2673,-1,0,-1
-156.42,13.34,-70.85,1922,-7661,2662,-1,0,-1
-156.42,13.35,-70.86,1922,-7667,2646,-1,0,-1
-156.41,13.35,-70.86,1921,-7672,2635,-1,0,-1
-156.41,13.36,-70.87,1916,-7676,2632,0,0,-1
-156.40,13.37,-70.86,1922,-7670,2645,0,0,-1
-156.39,13.37,-70.85,1919,-7665,2652,0,0,-1
-156.39,13.37,-70.85,1910,-7659,2653,-1,0,-1
-156.38,13.38,-70.86,1914,-7662,2659,-1,0,-1
-156.37,13.39,-70.86,1918,-7670,2652,-1,0,-1
-156.37,13.39,-70.86,1919,-7668,2642,0,0,-1
-156.35,13.40,-70.86,1922,-7663,2648,-1,0,-1
-156.35,13.41,-70.86,1927,-7666,2636,0,0,-1
-156.34,13.41,-70.85,1926,-7659,2664,-1,0,-1
-156.33,13.42,-70.85,1930,-7649,2655,0,0,-1
-156.32,13.42,-70.85,1935,-7643,2662,-1,0,-1
-156.33,13.43,-70.86,1925,-7657,2660,-1,0,-1
-156.32,13.43,-70.86,1920,-7663,2658,-1,0,-1
-156.32,13.43,-70.87,1921,-7672,2643,-1,0,-1
-156.31,13.45,-70.87,1938,-7673,2641,0,0,-1
-156.29,13.45,-70.86,1938,-7657,2643,0,0,-1
-156.28,13.46,-70.85,1938,-7654,2657,0,0,-1
-156.28,13.46,-70.85,1937,-7654,2656,-1,-1,-1
-156.28,13.47,-70.86,1935,-7657,2655,-1,-1,-1
-156.28,13.47,-70.86,1937,-7671,2654,-1,0,-1
-156.28,13.47,-70.86,1936,-7669,2647,0,0,-1
-156.27,13.47,-70.85,1931,-7662,2649,0,0,-1
-156.26,13.48,-70.85,1929,-7654,2649,0,0,-1
-156.25,13.49,-70.84,1935,-7651,2658,0,0,-1
-156.24,13.49,-70.84,1946,-7657,2661,-1,0,-1
-156.23,13.50,-70.84,1944,-7660,2662,-1,0,-1
-156.23,13.50,-70.84,1945,-7662,2672,-1,0,-1
-156.23,13.51,-70.85,1943,-7661,2665,-1,0,-1
-156.23,13.51,-70.85,1933,-7663,2661,-1,0,-1
-156.23,13.51,-70.85,1929,-7664,2654,0,0,-1
-156.22,13.51,-70.84,1938,-7657,2660,0,0,-1
-156.21,13.52,-70.85,1945,-7652,2653,-1,0,0
-156.21,13.52,-70.85,1942,-7650,2637,0,0,-1
-156.22,13.51,-70.85,1932,-7659,2654,-1,-1,-1
-156.21,13.52,-70.85,1935,-7666,2646,0,0,-1
-156.20,13.53,-70.85,1938,-7657,2659,-1,-1,-1
-156.20,13.53,-70.85,1941,-7658,2654,0,0,-1
-156.19,13.53,-70.84,1937,-7653,2663,-1,0,-1
-156.18,13.53,-70.84,1934,-7653,2670,-1,0,-1
-156.19,13.54,-70.84,1933,-7647,2661,-1,0,-1
-156.19,13.54,-70.84,1936,-7644,2667,-1,0,-1
-156.18,13.54,-70.84,1937,-7651,2668,-1,0,-1
-156.18,13.54,-70.84,1938,-7655,2664,-1,0,-1
-156.19,13.54,-70.85,1939,-7652,2648,-1,0,-1
-156.18,13.54,-70.85,1942,-7656,2639,-1,0,-1
-156.19,13.54,-70.85,1940,-7660,2639,0,0,-1
-156.17,13.55,-70.85,1941,-7664,2650,0,0,-1
-156.17,13.55,-70.84,1941,-7656,2655,0,0,-1
-156.17,13.55,-70.84,1944,-7645,2658,-1,0,-1
-156.17,13.55,-70.85,1936,-7655,2655,-1,-1,-1
-156.17,13.55,-70.85,1934,-7655,2650,-1,0,-1
-156.17,13.55,-70.85,1947,-7652,2645,-1,0,-1
-156.16,13.56,-70.85,1941,-7656,2654,-1,0,-1
-156.17,13.55,-70.85,1932,-7660,2659,-1,-1,-1
-156.17,13.55,-70.86,1938,-7658,2651,0,0,-1
-156.16,13.56,-70.85,1944,-7658,2649,0,0,-1
-156.16,13.56,-70.85,1954,-7642,2662,-1,0,0
-156.17,13.55,-70.86,1942,-7651,2653,-1,0,-1
-156.15,13.57,-70.85,1949,-7660,2668,-1,0,-1
-156.15,13.57,-70.86,1954,-7673,2649,0,0,-1
-156.14,13.57,-70.84,1955,-7639,2676,0,0,-1
-156.14,13.57,-70.84,1955,-7633,2668,-1,0,0
-156.14,13.57,-70.84,1952,-7641,2671,-1,-1,0
-156.14,13.57,-70.85,1947,-7658,2650,-1,0,-1
-156.14,13.57,-70.85,1947,-7669,2645,0,0,-1
-156.14,13.57,-70.85,1946,-7667,2647,0,0,-1
-156.13,13.57,-70.84,1946,-7654,2651,0,0,-1
-156.13,13.57,-70.83,1944,-7647,2660,0,0,-1
-156.12,13.58,-70.83,1954,-7645,2669,-1,0,-1
-156.12,13.59,-70.84,1953,-7645,2663,-1,-1,-1
-156.12,13.59,-70.84,1948,-7658,2660,-1,0,-1
-156.12,13.59,-70.85,1947,-7658,2648,-1,0,-1
-156.12,13.59,-70.85,1951,-7653,2650,-1,-1,-1
-156.12,13.59,-70.85,1956,-7659,2644,-1,0,-1
-156.12,13.59,-70.85,1954,-7652,2641,0,0,-1
-156.12,13.59,-70.85,1952,-7641,2649,-1,0,-1
-156.13,13.58,-70.85,1950,-7652,2647,-1,0,-1
-156.13,13.58,-70.85,1953,-7653,2648,-1,0,0
-156.12,13.59,-70.85,1954,-7652,2655,0,-1,-1
-156.11,13.59,-70.85,1954,-7647,2639,0,0,-1
-156.11,13.60,-70.84,1950,-7641,2650,0,0,-1
-156.10,13.60,-70.84,1955,-7646,2659,-1,-1,-1
-156.10,13.60,-70.84,1959,-7648,2659,-1,0,-1
-156.10,13.60,-70.85,1957,-7655,2643,0,0,-1
-156.10,13.60,-70.84,1949,-7662,2661,-1,-1,-1
-156.10,13.60,-70.85,1946,-7656,2654,-1,-1,-1
-156.10,13.60,-70.85,1948,-7645,2649,0,-1,-1
-156.10,13.60,-70.85,1949,-7644,2648,-1,-1,0
-156.11,13.60,-70.85,1962,-7650,2641,0,0,-1
-156.11,13.60,-70.85,1948,-7656,2659,-1,-1,-1
-156.10,13.60,-70.85,1953,-7663,2659,0,0,-1
-156.10,13.60,-70.85,1945,-7646,2642,-1,-1,-1
-156.11,13.60,-70.86,1937,-7649,2638,0,0,-1
-156.10,13.60,-70.86,1951,-7650,2634,-1,-1,-1
-156.11,13.61,-70.87,1948,-7659,2628,0,0,-1
-156.10,13.61,-70.87,1951,-7656,2639,0,0,-1
-156.10,13.60,-70.86,1952,-7649,2640,0,0,0
-156.10,13.61,-70.87,1945,-7640,2655,-1,0,-1
-156.11,13.60,-70.88,1946,-7654,2649,-1,-1,-1
-156.11,13.61,-70.88,1949,-7674,2629,-1,-1,-1
-156.11,13.61,-70.88,1956,-7674,2634,0,0,-1
-156.10,13.61,-70.87,1960,-7650,2659,0,0,0
-156.10,13.61,-70.86,1957,-7638,2674,-1,-1,0
-156.11,13.60,-70.87,1946,-7653,2662,-1,-1,0
-156.11,13.60,-70.88,1942,-7666,2644,-1,-1,-1
-156.12,13.60,-70.88,1949,-7668,2631,0,0,-1
-156.12,13.60,-70.88,1950,-7658,2639,0,0,0
-156.11,13.60,-70.87,1950,-7659,2640,0,0,-1
-156.11,13.60,-70.87,1954,-7651,2654,0,0,-1
-156.10,13.61,-70.87,1952,-7649,2652,-1,0,-1
-156.10,13.61,-70.87,1957,-7656,2658,-1,-1,-1
-156.10,13.61,-70.87,1951,-7654,2643,-1,0,0
-156.11,13.60,-70.88,1947,-7660,2642,-1,0,0
-156.11,13.60,-70.87,1944,-7648,2643,0,-1,-1
-156.11,13.60,-70.88,1960,-7650,2648,-1,-1,0
-156.11,13.60,-70.88,1956,-7641,2645,0,0,0
-156.11,13.60,-70.88,1949,-7649,2640,0,0,-1
-156.11,13.60,-70.87,1945,-7653,2667,-1,0,0
-156.13,13.59,-70.88,1943,-7661,2646,-1,0,-1
-156.13,13.59,-70.88,1940,-7657,2645,-1,-1,-1
-156.12,13.59,-70.88,1941,-7650,2636,0,0,-1
-156.12,13.59,-70.88,1945,-7652,2645,0,0,-1
-156.12,13.59,-70.87,1951,-7656,2659,0,0,-1
-156.11,13.59,-70.87,1953,-7647,2672,0,0,-1
-156.11,13.59,-70.87,1958,-7637,2672,-1,-1,0
-156.12,13.59,-70.88,1950,-7642,2659,-1,-1,0
-156.13,13.59,-70.89,1950,-7652,2649,-1,-1,0
-156.14,13.58,-70.89,1952,-7655,2625,-1,0,0
-156.14,13.58,-70.89,1950,-7649,2627,0,0,-1
-156.13,13.58,-70.88,1948,-7648,2633,0,0,-1
-156.13,13.58,-70.88,1950,-7656,2638,0,0,-1
-156.13,13.58,-70.88,1949,-7654,2648,0,0,-1
-156.14,13.58,-70.88,1945,-7653,2629,0,0,-1
-156.12,13.59,-70.87,1946,-7657,2656,0,-1,-1
-156.13,13.58,-70.87,1953,-7653,2654,0,-1,0
-156.13,13.58,-70.87,1955,-7651,2655,-1,-1,0
-156.13,13.58,-70.87,1954,-7645,2652,0,0,0
-156.13,13.58,-70.87,1955,-7650,2679,-1,-1,0
-156.14,13.57,-70.88,1945,-7662,2662,-1,-1,-1
-156.14,13.58,-70.89,1940,-7667,2650,-1,-1,-1
-156.14,13.58,-70.89,1949,-7666,2645,0,0,-1
-156.14,13.58,-70.88,1952,-7654,2652,0,0,0
-156.14,13.57,-70.88,1955,-7646,2664,-1,0,0
-156.15,13.57,-70.89,1941,-7655,2656,-1,-1,0
-156.16,13.56,-70.90,1941,-7673,2647,-1,0,-1
-156.16,13.56,-70.90,1943,-7678,2641,-1,0,0
-156.16,13.56,-70.90,1938,-7664,2636,0,0,-1
-156.16,13.56,-70.89,1936,-7654,2654,0,0,-1
-156.16,13.56,-70.89,1942,-7653,2657,0,0,0
-156.16,13.56,-70.89,1945,-7662,2655,-1,-1,0
-156.17,13.55,-70.90,1942,-7665,2658,-1,-1,0
-156.17,13.55,-70.90,1945,-7675,2662,-1,0,-1
-156.17,13.55,-70.90,1946,-7662,2657,-1,0,0
-156.18,13.55,-70.90,1942,-7645,2654,-1,-1,0
-156.18,13.54,-70.91,1937,-7647,2642,-1,-1,0
-156.19,13.54,-70.91,1945,-7662,2643,-1,-1,0
-156.19,13.54,-70.91,1946,-7668,2646,0,0,0
-156.19,13.54,-70.90,1942,-7658,2651,0,0,0
-156.19,13.53,-70.90,1938,-7657,2644,0,-1,-1
-156.19,13.54,-70.91,1941,-7660,2640,0,0,-1
-156.19,13.53,-70.90,1943,-7666,2642,0,0,-1
-156.19,13.53,-70.90,1942,-7666,2640,0,0,-1
-156.19,13.53,-70.89,1939,-7665,2650,0,0,-1
-156.19,13.53,-70.89,1926,-7664,2655,0,-1,-1
-156.19,13.54,-70.89,1931,-7656,2650,-1,-1,-1
-156.19,13.54,-70.89,1935,-7660,2655,0,-1,0
-156.19,13.53,-70.89,1943,-7662,2662,0,-1,-1
-156.19,13.54,-70.89,1947,-7655,2661,-1,0,0
-156.19,13.53,-70.90,1943,-7663,2628,0,0,-1
-156.19,13.53,-70.89,1928,-7657,2646,0,-1,-1
-156.19,13.53,-70.89,1931,-7660,2652,0,0,-1
-156.19,13.54,-70.89,1933,-7668,2654,-1,-1,-1
-156.18,13.55,-70.89,1943,-7656,2632,0,0,-1
-156.17,13.55,-70.88,1944,-7649,2648,-1,-1,-1
-156.17,13.55,-70.88,1940,-7648,2635,-1,0,-1
-156.17,13.55,-70.88,1937,-7654,2636,-1,0,-1
-156.17,13.55,-70.89,1936,-7664,2636,0,0,-1
-156.16,13.56,-70.89,1940,-7658,2641,-1,0,-1
-156.17,13.56,-70.90,1948,-7659,2631,-1,0,-1
-156.16,13.56,-70.89,1949,-7661,2638,0,0,-1
-156.16,13.57,-70.89,1945,-7656,2641,-1,0,-1
-156.16,13.56,-70.89,1936,-7662,2651,-1,0,-1
-156.16,13.56,-70.90,1941,-7667,2633,-1,0,-1
-156.16,13.57,-70.91,1949,-7673,2623,0,0,-1
-156.15,13.57,-70.90,1950,-7662,2626,0,0,-1
-156.14,13.58,-70.89,1950,-7646,2647,0,0,-1
-156.14,13.58,-70.89,1950,-7645,2664,-1,-1,0
-156.14,13.58,-70.89,1955,-7662,2657,-1,0,-1
-156.14,13.58,-70.90,1955,-7676,2657,-1,0,-1
-156.14,13.58,-70.89,1956,-7668,2653,0,0,-1
-156.14,13.58,-70.89,1946,-7662,2645,0,0,-1
-156.14,13.58,-70.89,1939,-7655,2647,0,0,-1
-156.12,13.59,-70.89,1950,-7654,2639,-1,-1,-1
-156.12,13.59,-70.88,1946,-7644,2656,0,0,-1
-156.11,13.60,-70.88,1957,-7654,2665,-1,-1,-1
-156.12,13.60,-70.89,1964,-7654,2656,0,0,-1
-156.11,13.60,-70.89,1957,-7647,2666,-1,0,-1
-156.11,13.60,-70.89,1958,-7654,2653,0,0,-1
-156.11,13.60,-70.89,1952,-7649,2658,-1,-1,-1
-156.11,13.60,-70.90,1954,-7663,2642,0,0,-1
-156.11,13.60,-70.89,1959,-7654,2653,0,0,-1
-156.11,13.60,-70.89,1951,-7654,2651,-1,0,-1
-156.11,13.60,-70.89,1956,-7656,2658,-1,0,-1
-156.11,13.60,-70.89,1957,-7663,2646,0,0,-1
-156.11,13.60,-70.89,1949,-7659,2640,0,0,-1
-156.11,13.60,-70.89,1948,-7664,2646,-1,0,-1
-156.10,13.61,-70.89,1949,-7664,2652,0,0,-1
-156.10,13.61,-70.89,1952,-7659,2657,-1,0,-1
-156.10,13.61,-70.89,1946,-7656,2656,-1,-1,-1
-156.09,13.62,-70.89,1952,-7653,2660,-1,-1,-1
-156.10,13.61,-70.89,1950,-7659,2657,-1,-1,-1
-156.10,13.61,-70.90,1949,-7660,2647,-1,0,-1
-156.10,13.61,-70.90,1951,-7659,2639,0,0,-1
-156.10,13.61,-70.90,1950,-7659,2640,0,0,-1
-156.10,13.61,-70.90,1954,-7654,2642,0,0,-1
-156.10,13.61,-70.90,1951,-7660,2639,0,0,-1
-156.10,13.61,-70.90,1955,-7664,2645,0,0,-1
-156.10,13.61,-70.90,1955,-7660,2644,-1,0,-1
-156.08,13.62,-70.89,1956,-7659,2637,-1,0,-1
-156.08,13.62,-70.89,1956,-7655,2650,0,0,-1
-156.08,13.62,-70.89,1953,-7658,2644,-1,0,-1
-156.08,13.62,-70.89,1952,-7659,2651,-1,0,-1
-156.09,13.63,-70.90,1954,-7657,2652,-1,0,-1
-156.08,13.63,-70.89,1960,-7655,2653,0,0,-1
-156.08,13.63,-70.89,1959,-7655,2650,-1,-1,-1
-156.08,13.63,-70.89,1958,-7652,2642,0,0,-1
-156.08,13.63,-70.89,1952,-7647,2655,0,0,0
-156.08,13.63,-70.89,1948,-7652,2662,-1,0,0
-156.09,13.62,-70.89,1945,-7656,2668,-1,0,0
-156.09,13.62,-70.90,1947,-7669,2645,-1,-1,-1
-156.08,13.62,-70.90,1957,-7673,2639,0,0,-1
-156.07,13.63,-70.89,1961,-7651,2650,0,0,-1
-156.07,13.63,-70.88,1964,-7632,2660,-1,0,0
-156.08,13.63,-70.89,1963,-7642,2658,-1,-1,0
-156.08,13.63,-70.89,1968,-7659,2653,-1,-1,0
-156.08,13.62,-70.90,1963,-7669,2641,-1,0,-1
-156.08,13.62,-70.90,1961,-7667,2636,0,0,-1
-156.08,13.63,-70.89,1948,-7665,2637,0,-1,-1
-156.07,13.63,-70.88,1952,-7656,2647,0,0,-1
-156.06,13.63,-70.88,1959,-7653,2652,-1,-1,0
-156.06,13.63,-70.88,1962,-7651,2658,0,0,-1
-156.07,13.63,-70.89,1952,-7665,2663,-1,-1,0
-156.08,13.63,-70.89,1946,-7666,2653,0,0,-1
-156.08,13.63,-70.90,1955,-7662,2643,-1,-1,-1
-156.08,13.63,-70.89,1951,-7661,2637,0,0,0
-156.08,13.63,-70.89,1955,-7662,2664,-1,-1,-1
-156.08,13.63,-70.89,1957,-7664,2648,0,0,-1
-156.07,13.63,-70.89,1954,-7654,2649,-1,0,-1
-156.07,13.63,-70.89,1950,-7652,2657,0,0,-1
-156.07,13.63,-70.89,1950,-7656,2651,0,-1,-1
-156.07,13.63,-70.89,1957,-7658,2635,0,0,-1
-156.07,13.63,-70.89,1958,-7654,2633,0,0,-1
-156.07,13.63,-70.89,1953,-7650,2641,0,0,-1
-156.06,13.63,-70.88,1954,-7647,2657,0,0,-1
-156.06,13.63,-70.88,1960,-7645,2670,-1,-1,-1
-156.06,13.63,-70.88,1959,-7654,2647,-1,0,-1
-156.06,13.63,-70.88,1959,-7648,2649,-1,-1,-1
-156.07,13.63,-70.89,1955,-7644,2650,-1,0,0
-156.07,13.63,-70.89,1953,-7645,2640,-1,-1,0
-156.07,13.63,-70.90,1960,-7650,2639,-1,0,-1
-156.07,13.63,-70.90,1954,-7658,2633,-1,0,-1
-156.07,13.63,-70.90,1955,-7662,2644,0,0,-1
-156.07,13.63,-70.90,1955,-7658,2641,0,0,-1
-156.07,13.63,-70.89,1949,-7651,2644,0,0,-1
-156.07,13.63,-70.89,1949,-7656,2646,0,0,-1
-156.06,13.64,-70.89,1961,-7649,2649,-1,-1,-1
-156.06,13.64,-70.89,1959,-7657,2648,-1,-1,0
-156.07,13.63,-70.89,1954,-7651,2644,0,0,-1
-156.06,13.63,-70.88,1952,-7655,2650,-1,0,-1
-156.07,13.63,-70.90,1949,-7657,2634,0,0,-1
-156.07,13.63,-70.90,1951,-7655,2647,-1,-1,0
-156.07,13.63,-70.90,1944,-7659,2642,0,0,-1
-156.07,13.63,-70.90,1949,-7654,2642,-1,-1,-1
-156.07,13.63,-70.90,1950,-7656,2639,0,0,-1
-156.07,13.63,-70.90,1955,-7649,2636,0,0,0
-156.07,13.62,-70.89,1949,-7647,2648,0,0,0
-156.08,13.62,-70.89,1948,-7653,2653,-1,-1,0
-156.08,13.62,-70.90,1944,-7662,2650,-1,-1,-1
-156.08,13.62,-70.90,1948,-7665,2647,0,-1,-1
-156.07,13.63,-70.89,1961,-7648,2641,0,0,-1
-156.07,13.62,-70.89,1956,-7636,2657,-1,0,0
-156.08,13.62,-70.89,1957,-7635,2656,-1,-1,0
-156.08,13.62,-70.90,1954,-7652,2649,-1,-1,0
-156.09,13.62,-70.91,1957,-7674,2634,0,0,-1
-156.09,13.61,-70.90,1949,-7667,2637,0,0,-1
-156.08,13.62,-70.90,1948,-7659,2638,0,0,-1
-156.08,13.62,-70.89,1943,-7656,2646,0,0,-1
-156.08,13.62,-70.89,1948,-7651,2664,-1,0,0
-156.09,13.61,-70.89,1946,-7654,2661,-1,-1,0
-156.08,13.62,-70.89,1952,-7669,2648,0,-1,-1
-156.09,13.61,-70.89,1948,-7657,2659,0,-1,-1
-156.09,13.61,-70.89,1950,-7639,2648,-1,-1,0
-156.09,13.61,-70.90,1947,-7637,2643,-1,-1,0
-156.10,13.60,-70.90,1953,-7646,2650,-1,0,-1
-156.10,13.60,-70.90,1939,-7664,2651,-1,0,-1
-156.10,13.60,-70.90,1949,-7666,2646,0,0,-1
-156.10,13.60,-70.90,1950,-7656,2644,-1,-1,0
-156.11,13.59,-70.90,1947,-7665,2637,0,0,0
-156.11,13.59,-70.89,1951,-7655,2653,0,0,-1
-156.11,13.59,-70.89,1953,-7658,2646,0,0,0
-156.11,13.59,-70.89,1954,-7660,2650,0,-1,-1
-156.11,13.59,-70.89,1950,-7657,2657,0,0,-1
-156.10,13.59,-70.88,1948,-7655,2659,-1,0,-1
-156.10,13.59,-70.88,1958,-7655,2660,-1,-1,-1
-156.10,13.59,-70.88,1955,-7651,2665,-1,0,0
-156.11,13.59,-70.89,1950,-7651,2654,-1,-1,0
-156.11,13.59,-70.89,1951,-7661,2648,-1,0,0
-156.11,13.59,-70.90,1942,-7662,2655,-1,0,-1
-156.11,13.59,-70.89,1952,-7659,2650,0,-1,-1
-156.11,13.59,-70.89,1960,-7649,2652,0,0,0
-156.12,13.59,-70.90,1949,-7657,2640,-1,-1,-1
-156.11,13.59,-70.89,1958,-7659,2656,0,0,0
-156.11,13.58,-70.89,1946,-7654,2656,-1,0,0
-156.12,13.58,-70.89,1935,-7658,2647,0,-1,-1
-156.11,13.58,-70.89,1938,-7651,2644,-1,0,-1
-156.11,13.58,-70.89,1935,-7655,2643,-1,0,-1
-156.11,13.58,-70.89,1944,-7642,2647,-1,0,-1
-156.12,13.58,-70.90,1945,-7652,2646,-1,-1,0
-156.12,13.57,-70.89,1950,-7658,2640,0,0,0
-156.13,13.57,-70.90,1941,-7661,2656,-1,-1,0
-156.13,13.57,-70.91,1933,-7667,2644,0,0,-1
-156.14,13.57,-70.91,1947,-7664,2639,-1,-1,-1
-156.14,13.57,-70.91,1959,-7666,2633,0,0,-1
-156.13,13.57,-70.90,1968,-7648,2639,0,0,0
-156.14,13.56,-70.90,1957,-7641,2656,-1,0,0
-156.14,13.56,-70.90,1944,-7655,2652,-1,-1,0
-156.15,13.55,-70.91,1945,-7674,2650,-1,-1,0
-156.16,13.55,-70.91,1947,-7672,2641,0,0,-1
-156.16,13.55,-70.91,1952,-7666,2644,0,0,-1
-156.16,13.55,-70.90,1944,-7658,2646,0,0,0
-156.16,13.55,-70.90,1931,-7654,2660,0,0,-1
-156.16,13.55,-70.90,1942,-7655,2646,-1,-1,0
-156.16,13.55,-70.90,1948,-7663,2649,0,0,0
-156.16,13.54,-70.91,1950,-7657,2637,-1,-1,0
-156.16,13.54,-70.91,1949,-7655,2648,-1,-1,0
-156.17,13.54,-70.91,1947,-7660,2645,-1,-1,0
-156.17,13.54,-70.92,1946,-7654,2641,-1,-1,0
-156.18,13.53,-70.92,1953,-7664,2628,0,0,0
-156.18,13.53,-70.92,1945,-7660,2646,0,0,0
-156.19,13.52,-70.93,1927,-7666,2643,-1,-1,0
-156.20,13.52,-70.93,1932,-7667,2637,0,0,-1
-156.20,13.52,-70.93,1929,-7662,2636,-1,-1,-1
-156.20,13.51,-70.93,1938,-7668,2633,0,0,-1
-156.20,13.52,-70.93,1945,-7658,2625,0,0,-1
-156.19,13.51,-70.92,1943,-7666,2647,-1,0,-1
-156.19,13.52,-70.92,1945,-7669,2650,0,0,-1
-156.19,13.52,-70.92,1947,-7644,2661,-1,-1,0
-156.20,13.51,-70.93,1942,-7661,2651,-1,-1,0
-156.20,13.51,-70.93,1945,-7657,2650,0,-1,0
-156.20,13.51,-70.92,1944,-7662,2656,-1,0,0
-156.21,13.50,-70.93,1938,-7670,2640,0,0,0
-156.21,13.50,-70.93,1942,-7673,2648,-1,0,0
-156.22,13.50,-70.93,1931,-7669,2648,-1,-1,0
-156.22,13.50,-70.93,1937,-7667,2662,-1,0,0
-156.22,13.49,-70.93,1934,-7671,2651,-1,0,0
-156.22,13.49,-70.93,1931,-7669,2655,0,0,-1
-156.22,13.49,-70.93,1930,-7662,2654,-1,-1,0
-156.22,13.49,-70.93,1936,-7654,2658,-1,0,0
-156.23,13.48,-70.93,1939,-7650,2659,-1,0,0
-156.23,13.49,-70.94,1943,-7654,2645,-1,-1,0
-156.24,13.48,-70.95,1936,-7650,2642,-1,-1,0
-156.26,13.47,-70.95,1924,-7659,2642,-1,-1,0
-156.26,13.46,-70.96,1928,-7658,2646,-1,-1,0
-156.26,13.46,-70.96,1932,-7662,2636,0,0,0
-156.26,13.46,-70.95,1939,-7658,2640,0,0,0
-156.27,13.46,-70.95,1937,-7648,2655,-1,-1,0
-156.28,13.45,-70.96,1937,-7661,2645,-1,-1,0
-156.28,13.44,-70.95,1932,-7663,2649,-1,-1,0
-156.29,13.44,-70.96,1935,-7676,2638,-1,0,0
-156.30,13.43,-70.96,1927,-7656,2633,0,0,0
-156.30,13.42,-70.95,1922,-7667,2648,-1,-1,0
-156.30,13.42,-70.95,1925,-7662,2649,0,0,0
-156.31,13.42,-70.96,1925,-7655,2655,-1,-1,0
-156.31,13.42,-70.96,1938,-7658,2654,0,0,0
-156.31,13.41,-70.96,1937,-7659,2654,-1,-1,0
-156.31,13.41,-70.96,1938,-7659,2642,0,0,0
-156.32,13.41,-70.97,1944,-7659,2652,-1,-1,0
-156.34,13.40,-70.97,1934,-7666,2632,-1,0,0
-156.35,13.40,-70.99,1927,-7670,2627,0,-1,0
-156.35,13.39,-70.98,1929,-7670,2636,-1,0,0
-156.35,13.39,-70.99,1925,-7666,2632,-1,0,0
-156.36,13.38,-70.99,1930,-7671,2625,-1,-1,0
-156.37,13.38,-71.00,1932,-7674,2625,-1,0,0
-156.37,13.38,-70.99,1932,-7671,2631,0,0,0
-156.38,13.37,-70.99,1930,-7668,2636,-1,0,0
-156.38,13.37,-70.99,1922,-7675,2640,-1,-1,0
-156.39,13.36,-70.99,1923,-7671,2642,-1,-1,0
-156.40,13.35,-71.00,1921,-7668,2640,-1,-1,0
-156.41,13.34,-71.01,1918,-7669,2633,-1,-1,0
-156.42,13.34,-71.01,1921,-7670,2637,-1,-1,0
-156.43,13.33,-71.02,1919,-7670,2632,-1,-1,0
-156.44,13.32,-71.02,1920,-7674,2616,0,-1,0
-156.45,13.31,-71.03,1910,-7662,2627,-1,0,0
-156.46,13.31,-71.03,1913,-7680,2628,0,-1,0
-156.46,13.30,-71.02,1923,-7673,2637,0,0,0
-156.47,13.30,-71.02,1922,-7685,2652,-1,0,0
-156.47,13.29,-71.02,1911,-7670,2645,0,0,0
-156.48,13.28,-71.02,1909,-7672,2633,0,-1,0
-156.47,13.28,-71.02,1924,-7670,2635,0,0,0
-156.49,13.27,-71.03,1923,-7670,2628,-1,0,0
-156.49,13.27,-71.03,1915,-7668,2644,-1,0,0
-156.49,13.26,-71.02,1907,-7675,2642,-1,-1,0
-156.50,13.26,-71.02,1904,-7679,2645,0,0,0
-156.51,13.25,-71.02,1900,-7672,2632,0,0,0
-156.51,13.25,-71.02,1905,-7668,2633,0,0,0
-156.51,13.25,-71.02,1905,-7665,2631,-1,-1,0
-156.52,13.24,-71.02,1903,-7675,2634,0,-1,0
-156.52,13.24,-71.02,1894,-7682,2630,-1,-1,0
-156.52,13.25,-71.02,1893,-7685,2617,0,-1,-1
-156.51,13.25,-71.01,1900,-7680,2621,0,-1,-1
-156.50,13.26,-71.00,1904,-7658,2620,0,-1,-1
-156.49,13.27,-70.99,1906,-7657,2628,0,-1,-1
-156.49,13.27,-70.98,1902,-7671,2632,0,-1,-1
-156.48,13.28,-70.97,1911,-7680,2620,0,-1,-1
-156.46,13.29,-70.95,1910,-7682,2637,0,-1,-1
-156.45,13.29,-70.94,1908,-7668,2649,0,0,-1
-156.44,13.30,-70.92,1904,-7647,2667,0,0,-1
-156.42,13.31,-70.91,1902,-7645,2655,0,0,-1
-156.41,13.32,-70.91,1919,-7658,2654,-1,-1,-1
-156.40,13.33,-70.91,1920,-7662,2643,0,0,-1
-156.37,13.35,-70.90,1931,-7655,2658,-1,0,-1
-156.37,13.36,-70.90,1926,-7642,2659,-1,0,-1
-156.35,13.36,-70.90,1925,-7631,2669,-1,0,-1
-156.36,13.37,-70.91,1929,-7654,2642,-1,0,-1
-156.35,13.37,-70.92,1923,-7668,2631,-1,0,-1
-156.35,13.38,-70.92,1921,-7667,2622,0,0,-1
-156.33,13.39,-70.91,1929,-7664,2641,0,0,-1
-156.32,13.40,-70.91,1922,-7657,2644,0,0,-1
-156.31,13.40,-70.91,1924,-7652,2641,0,0,-1
-156.30,13.41,-70.91,1924,-7659,2649,-1,0,-1
-156.29,13.42,-70.90,1931,-7662,2638,0,0,-1
-156.28,13.43,-70.90,1929,-7664,2647,0,0,-1
-156.27,13.44,-70.89,1934,-7659,2647,0,0,-1
-156.27,13.44,-70.89,1935,-7656,2655,-1,0,-1
-156.26,13.45,-70.89,1933,-7656,2659,-1,0,-1
-156.25,13.45,-70.89,1936,-7659,2655,-1,0,-1
-156.25,13.46,-70.90,1946,-7662,2642,-1,0,-1
-156.24,13.47,-70.90,1944,-7660,2648,-1,0,-1
-156.24,13.47,-70.90,1945,-7658,2649,-1,0,-1
-156.23,13.48,-70.90,1945,-7661,2649,-1,0,-1
-156.23,13.48,-70.90,1945,-7659,2642,0,0,-1
-156.22,13.49,-70.90,1947,-7660,2645,0,0,-1
-156.20,13.49,-70.89,1947,-7656,2653,-1,0,-1
-156.20,13.50,-70.89,1951,-7651,2659,-1,0,-1
-156.20,13.50,-70.89,1952,-7655,2662,-1,0,-1
-156.19,13.51,-70.90,1955,-7650,2649,-1,0,-1
-156.18,13.52,-70.90,1950,-7656,2647,-1,0,-1
-156.18,13.52,-70.90,1951,-7658,2647,-1,0,-1
-156.17,13.53,-70.90,1948,-7659,2655,-1,0,-1
-156.17,13.53,-70.90,1948,-7657,2650,-1,0,-1
-156.17,13.53,-70.90,1952,-7659,2642,-1,0,-1
-156.16,13.54,-70.91,1953,-7659,2638,-1,0,-1
-156.16,13.54,-70.91,1953,-7658,2637,-1,0,-1
-156.16,13.54,-70.91,1950,-7658,2649,-1,0,-1
-156.16,13.54,-70.91,1949,-7662,2642,-1,0,-1
-156.16,13.54,-70.91,1954,-7665,2639,0,0,-1
-156.14,13.55,-70.90,1968,-7662,2654,0,0,-1
-156.14,13.55,-70.90,1965,-7653,2667,-1,-1,-1
-156.14,13.55,-70.90,1963,-7653,2661,-1,0,0
-156.14,13.56,-70.91,1957,-7666,2649,-1,0,-1
-156.15,13.55,-70.92,1954,-7670,2635,-1,0,-1
-156.14,13.56,-70.92,1945,-7669,2635,0,0,-1
-156.14,13.56,-70.92,1933,-7665,2632,0,0,-1
-156.13,13.56,-70.91,1944,-7654,2643,0,0,-1
-156.12,13.57,-70.90,1956,-7644,2657,-1,0,-1
-156.12,13.57,-70.91,1957,-7653,2651,0,0,-1
-156.11,13.57,-70.91,1957,-7657,2656,-1,0,-1
-156.12,13.57,-70.92,1953,-7662,2641,0,0,-1
-156.12,13.57,-70.91,1954,-7650,2646,-1,-1,-1
-156.12,13.57,-70.93,1948,-7656,2632,-1,0,0
-156.12,13.57,-70.93,1950,-7663,2633,-1,0,-1
-156.12,13.57,-70.93,1956,-7669,2642,0,0,-1
-156.12,13.57,-70.92,1957,-7665,2652,-1,0,0
-156.12,13.57,-70.92,1955,-7664,2648,-1,-1,-1
-156.12,13.58,-70.93,1954,-7661,2637,0,0,-1
-156.12,13.58,-70.92,1948,-7655,2639,0,0,-1
-156.11,13.57,-70.92,1950,-7660,2637,0,0,-1
-156.11,13.58,-70.91,1955,-7661,2648,0,0,-1
-156.11,13.58,-70.91,1951,-7659,2656,-1,0,-1
-156.11,13.58,-70.91,1954,-7654,2663,-1,0,-1
-156.10,13.58,-70.91,1954,-7657,2655,-1,-1,-1
-156.11,13.58,-70.92,1960,-7655,2649,-1,0,0
-156.11,13.58,-70.92,1955,-7659,2640,-1,-1,-1
-156.11,13.58,-70.93,1960,-7656,2641,-1,0,-1
-156.10,13.59,-70.93,1957,-7658,2651,-1,0,-1
-156.10,13.59,-70.93,1958,-7661,2644,0,0,-1
-156.10,13.59,-70.93,1960,-7667,2645,0,0,-1
-156.10,13.59,-70.92,1956,-7662,2639,0,0,-1
-156.10,13.59,-70.92,1956,-7669,2643,0,0,-1
-156.10,13.59,-70.92,1958,-7662,2637,0,0,-1
-156.10,13.59,-70.92,1959,-7660,2635,0,0,-1
-156.10,13.59,-70.93,1958,-7657,2638,0,0,-1
-156.10,13.59,-70.93,1953,-7659,2638,-1,-1,0
-156.10,13.59,-70.92,1958,-7655,2640,0,0,-1
-156.09,13.59,-70.92,1956,-7657,2646,-1,0,-1
-156.10,13.59,-70.93,1968,-7653,2629,0,0,-1
-156.10,13.59,-70.93,1960,-7649,2630,-1,-1,0
-156.10,13.59,-70.94,1958,-7655,2633,0,0,0
-156.10,13.59,-70.93,1961,-7654,2650,-1,0,0
-156.10,13.59,-70.93,1952,-7654,2652,-1,0,-1
-156.10,13.59,-70.94,1960,-7661,2656,-1,-1,-1
-156.10,13.59,-70.94,1957,-7668,2639,0,0,-1
-156.09,13.60,-70.93,1957,-7656,2643,0,0,-1
-156.10,13.59,-70.93,1961,-7642,2648,-1,-1,0
-156.10,13.58,-70.93,1953,-7644,2659,-1,-1,0
-156.11,13.58,-70.94,1946,-7666,2649,-1,0,0
-156.13,13.57,-70.95,1945,-7683,2644,-1,0,0
-156.13,13.57,-70.95,1952,-7680,2634,0,0,0
-156.13,13.57,-70.94,1943,-7668,2635,0,-1,-1
-156.13,13.56,-70.94,1943,-7669,2634,0,0,-1
-156.12,13.57,-70.93,1951,-7652,2652,0,0,0
-156.13,13.56,-70.94,1956,-7653,2657,-1,-1,0
-156.13,13.56,-70.94,1961,-7654,2662,-1,0,0
-156.14,13.55,-70.94,1952,-7653,2661,-1,0,0
-156.15,13.55,-70.95,1943,-7666,2644,-1,-1,0
-156.16,13.54,-70.95,1950,-7672,2639,0,-1,0
-156.16,13.54,-70.95,1952,-7664,2631,0,-1,0
-156.15,13.55,-70.95,1962,-7661,2634,0,0,0
-156.17,13.53,-70.95,1945,-7659,2637,-1,-1,0
-156.18,13.53,-70.96,1944,-7654,2637,0,0,0
-156.19,13.53,-70.97,1942,-7672,2629,-1,-1,0
-156.19,13.52,-70.96,1948,-7676,2638,0,0,0
-156.19,13.52,-70.96,1940,-7669,2640,-1,-1,0
-156.19,13.51,-70.95,1944,-7664,2638,0,0,-1
-156.18,13.52,-70.95,1953,-7658,2649,-1,0,0
-156.19,13.51,-70.95,1956,-7659,2652,0,0,0
-156.19,13.51,-70.95,1949,-7658,2652,-1,-1,0
-156.20,13.50,-70.96,1948,-7658,2649,-1,0,0
-156.21,13.49,-70.96,1946,-7665,2648,-1,-1,0
-156.22,13.49,-70.97,1950,-7658,2646,-1,0,0
-156.24,13.48,-70.98,1938,-7653,2632,-1,-1,0
-156.24,13.47,-70.98,1942,-7658,2638,0,-1,0
-156.25,13.47,-70.98,1942,-7670,2628,-1,-1,0
-156.26,13.46,-70.99,1939,-7669,2633,0,0,0
-156.27,13.45,-70.98,1938,-7660,2642,-1,-1,0
-156.28,13.45,-70.98,1938,-7663,2642,-1,-1,0
-156.28,13.45,-70.98,1941,-7660,2645,-1,-1,0
-156.29,13.43,-70.99,1936,-7663,2647,-1,-1,0
-156.31,13.42,-70.99,1931,-7672,2648,0,-1,0
-156.31,13.42,-70.98,1926,-7666,2646,-1,0,0
-156.33,13.40,-70.99,1919,-7666,2655,-1,-1,0
-156.34,13.40,-71.00,1915,-7665,2641,-1,-1,0
-156.35,13.39,-71.01,1915,-7676,2634,0,-1,0
-156.34,13.39,-71.00,1937,-7671,2639,0,0,0
-156.35,13.38,-70.99,1940,-7655,2662,-1,0,0
-156.37,13.37,-71.00,1934,-7660,2636,-1,0,0
-156.39,13.35,-71.01,1921,-7668,2634,-1,-1,0
-156.40,13.35,-71.02,1924,-7678,2621,0,0,0
-156.41,13.34,-71.02,1922,-7676,2641,-1,0,0
-156.41,13.34,-71.02,1912,-7673,2631,0,0,0
-156.42,13.33,-71.02,1912,-7671,2637,0,0,0
-156.42,13.33,-71.01,1923,-7670,2639,0,-1,0
-156.42,13.33,-71.02,1929,-7670,2629,-1,-1,0
-156.43,13.32,-71.02,1935,-7666,2638,-1,-1,0
-156.43,13.32,-71.02,1933,-7664,2642,-1,0,0
-156.45,13.31,-71.03,1923,-7661,2632,-1,-1,0
-156.47,13.29,-71.04,1913,-7667,2633,-1,-1,0
-156.48,13.29,-71.04,1915,-7669,2630,0,-1,0
-156.49,13.28,-71.04,1914,-7668,2634,0,-1,0
-156.50,13.27,-71.05,1915,-7669,2633,-1,-1,0
-156.50,13.26,-71.04,1914,-7672,2630,-1,-1,0
-156.51,13.25,-71.05,1917,-7674,2634,0,0,0
-156.53,13.25,-71.05,1914,-7677,2626,-1,-1,0
-156.53,13.24,-71.05,1907,-7683,2626,0,0,0
-156.54,13.24,-71.04,1899,-7676,2629,0,-1,0
-156.54,13.23,-71.04,1901,-7675,2630,0,-1,0
-156.54,13.23,-71.03,1921,-7668,2654,0,0,0
-156.54,13.23,-71.03,1916,-7663,2657,-1,0,0
-156.55,13.22,-71.04,1906,-7669,2643,-1,-1,0
-156.56,13.22,-71.04,1909,-7659,2641,-1,-1,0
-156.57,13.21,-71.06,1904,-7671,2633,-1,-1,0
-156.57,13.21,-71.05,1900,-7681,2619,0,0,0
-156.58,13.20,-71.05,1904,-7688,2621,0,-1,0
-156.57,13.20,-71.04,1897,-7685,2626,0,0,0
-156.57,13.20,-71.03,1895,-7684,2635,0,-1,0
-156.56,13.20,-71.02,1893,-7666,2640,0,-1,-1
-156.56,13.21,-71.01,1895,-7667,2648,0,-1,-1
-156.55,13.22,-71.00,1901,-7664,2643,0,-1,-1
-156.53,13.23,-70.99,1912,-7676,2652,0,-1,-1
-156.52,13.23,-70.98,1911,-7670,2642,0,-1,-1
-156.52,13.24,-70.97,1906,-7664,2647,0,-1,-1
-156.52,13.24,-70.98,1903,-7667,2641,0,-1,-1
-156.50,13.26,-70.98,1910,-7683,2628,0,-1,-1
-156.48,13.28,-70.96,1919,-7675,2628,0,0,-1
-156.46,13.29,-70.94,1926,-7657,2636,0,0,-1
-156.44,13.30,-70.93,1925,-7638,2655,-1,0,-1
-156.43,13.31,-70.93,1915,-7644,2655,-1,0,-1
-156.42,13.32,-70.94,1919,-7662,2654,-1,0,-1
-156.42,13.33,-70.95,1916,-7680,2652,-1,0,-1
-156.40,13.33,-70.94,1922,-7680,2650,0,0,-1
-156.38,13.35,-70.93,1917,-7675,2654,-1,0,-1
-156.37,13.36,-70.93,1923,-7663,2653,0,0,-1
-156.35,13.37,-70.92,1932,-7655,2663,-1,0,-1
-156.35,13.37,-70.93,1926,-7653,2654,-1,0,-1
-156.34,13.38,-70.93,1930,-7656,2653,-1,0,-1
-156.33,13.39,-70.94,1931,-7661,2652,-1,0,-1
-156.33,13.39,-70.94,1926,-7667,2647,-1,0,-1
-156.33,13.39,-70.94,1928,-7666,2647,-1,0,-1
-156.32,13.40,-70.94,1932,-7666,2644,0,0,-1
-156.30,13.42,-70.94,1937,-7668,2642,0,0,-1
-156.29,13.42,-70.93,1940,-7660,2647,0,0,-1
-156.28,13.43,-70.93,1942,-7659,2646,0,0,-1
-156.27,13.44,-70.93,1940,-7664,2642,0,0,-1
-156.27,13.45,-70.92,1940,-7659,2639,0,0,-1
-156.25,13.45,-70.91,1939,-7656,2655,0,0,-1
-156.24,13.47,-70.91,1940,-7647,2661,-1,0,-1
-156.23,13.47,-70.91,1944,-7645,2660,-1,0,-1
-156.23,13.47,-70.92,1942,-7653,2657,-1,0,-1
-156.23,13.48,-70.93,1936,-7664,2653,-1,0,-1
-156.22,13.48,-70.92,1941,-7669,2647,-1,0,-1
-156.22,13.49,-70.93,1946,-7665,2641,0,0,-1
-156.21,13.50,-70.93,1944,-7660,2638,-1,0,-1
-156.20,13.50,-70.93,1946,-7665,2642,0,0,-1
-156.20,13.50,-70.92,1944,-7665,2637,0,0,-1
-156.19,13.51,-70.92,1944,-7658,2637,0,0,-1
-156.18,13.52,-70.92,1940,-7652,2648,-1,0,-1
-156.18,13.52,-70.92,1949,-7658,2652,-1,0,-1
-156.17,13.52,-70.92,1956,-7654,2651,0,0,-1
-156.17,13.53,-70.92,1945,-7659,2657,-1,0,-1
-156.16,13.53,-70.93,1950,-7663,2639,0,0,-1
-156.16,13.54,-70.93,1953,-7656,2650,-1,-1,-1
-156.16,13.54,-70.93,1947,-7651,2640,0,0,-1
-156.15,13.54,-70.93,1950,-7648,2642,-1,0,-1
-156.15,13.54,-70.94,1956,-7658,2640,-1,0,-1
-156.15,13.55,-70.94,1961,-7670,2642,-1,0,-1
-156.14,13.56,-70.94,1964,-7674,2625,0,0,-1
-156.13,13.56,-70.93,1965,-7653,2642,0,0,-1
-156.13,13.56,-70.93,1963,-7648,2653,-1,0,-1
-156.13,13.56,-70.94,1960,-7660,2653,-1,0,-1
-156.13,13.56,-70.94,1957,-7668,2641,-1,0,-1
-156.13,13.57,-70.94,1952,-7672,2643,0,0,-1
-156.13,13.56,-70.94,1951,-7669,2645,-1,0,-1
-156.12,13.57,-70.93,1946,-7661,2656,0,0,-1
-156.12,13.57,-70.93,1949,-7661,2656,0,0,-1
-156.10,13.58,-70.93,1956,-7653,2653,-1,0,-1
-156.11,13.58,-70.93,1952,-7655,2653,-1,-1,-1
-156.11,13.58,-70.93,1951,-7649,2654,-1,-1,-1
-156.11,13.58,-70.94,1949,-7654,2655,-1,0,-1
-156.11,13.58,-70.94,1954,-7660,2641,-1,0,0
-156.11,13.58,-70.95,1952,-7666,2655,-1,0,-1
-156.11,13.58,-70.95,1949,-7665,2647,0,0,-1
-156.11,13.58,-70.94,1949,-7662,2643,0,0,-1
-156.11,13.58,-70.94,1953,-7656,2642,-1,-1,-1
-156.11,13.58,-70.94,1952,-7660,2634,-1,-1,-1
-156.11,13.58,-70.94,1956,-7661,2636,0,0,-1
-156.10,13.59,-70.94,1952,-7660,2639,-1,0,-1
-156.10,13.59,-70.94,1954,-7664,2633,0,0,-1
-156.10,13.59,-70.94,1948,-7657,2640,-1,-1,-1
-156.10,13.59,-70.94,1947,-7654,2644,0,0,-1
-156.10,13.59,-70.94,1950,-7652,2651,-1,0,-1
-156.09,13.59,-70.94,1956,-7658,2657,-1,0,-1
-156.09,13.59,-70.94,1963,-7659,2659,-1,-1,-1
-156.10,13.59,-70.94,1955,-7656,2646,-1,0,0
-156.10,13.58,-70.95,1959,-7659,2641,-1,0,0
-156.10,13.58,-70.95,1960,-7666,2636,-1,0,-1
-156.10,13.59,-70.95,1962,-7665,2642,0,0,-1
-156.09,13.59,-70.94,1958,-7663,2646,0,0,-1
-156.09,13.59,-70.94,1960,-7661,2651,0,0,-1
-156.09,13.59,-70.94,1953,-7658,2645,0,0,-1
-156.09,13.59,-70.94,1956,-7657,2654,-1,0,-1
-156.09,13.59,-70.94,1957,-7654,2644,-1,0,-1
-156.09,13.59,-70.94,1963,-7653,2653,-1,0,-1
-156.09,13.59,-70.94,1964,-7652,2653,-1,0,-1
-156.09,13.59,-70.94,1965,-7662,2647,0,0,-1
-156.07,13.60,-70.94,1969,-7660,2653,0,0,-1
-156.07,13.60,-70.93,1963,-7651,2656,-1,0,0
-156.08,13.60,-70.94,1961,-7652,2652,-1,-1,0
-156.09,13.60,-70.95,1959,-7664,2641,-1,-1,-1
-156.08,13.61,-70.95,1957,-7667,2644,0,0,-1
-156.07,13.60,-70.94,1963,-7656,2648,0,0,-1
-156.07,13.61,-70.93,1961,-7640,2654,0,0,0
-156.07,13.60,-70.93,1957,-7640,2646,-1,0,0
-156.08,13.60,-70.94,1954,-7655,2635,-1,0,0
-156.08,13.60,-70.95,1962,-7666,2621,-1,0,-1
-156.08,13.60,-70.95,1965,-7661,2627,0,0,-1
-156.07,13.60,-70.94,1963,-7659,2640,0,0,-1
-156.07,13.61,-70.93,1958,-7658,2650,0,0,-1
-156.06,13.61,-70.93,1962,-7648,2652,-1,0,-1
-156.06,13.61,-70.93,1967,-7649,2655,-1,-1,0
-156.07,13.61,-70.94,1965,-7656,2652,-1,0,0
-156.07,13.61,-70.94,1964,-7654,2648,-1,-1,0
-156.07,13.61,-70.94,1967,-7652,2639,-1,-1,0
-156.07,13.61,-70.94,1963,-7654,2635,-1,-1,0
-156.08,13.61,-70.96,1960,-7666,2629,0,-1,0
-156.08,13.61,-70.95,1959,-7671,2629,0,0,0
-156.08,13.60,-70.95,1953,-7659,2649,0,0,0
-156.08,13.60,-70.95,1951,-7669,2657,-1,-1,0
-156.08,13.60,-70.95,1958,-7666,2645,0,0,0
-156.08,13.60,-70.95,1959,-7665,2632,-1,0,0
-156.09,13.59,-70.95,1955,-7664,2646,0,0,0
-156.09,13.59,-70.95,1951,-7657,2648,-1,-1,0
-156.09,13.59,-70.95,1952,-7669,2648,0,0,-1
-156.09,13.59,-70.94,1963,-7661,2651,-1,-1,0
-156.09,13.59,-70.94,1967,-7652,2655,-1,0,0
-156.09,13.59,-70.95,1969,-7640,2660,-1,0,0
-156.10,13.58,-70.96,1960,-7652,2652,-1,0,0
-156.12,13.58,-70.97,1954,-7666,2634,-1,-1,0
-156.12,13.57,-70.97,1948,-7673,2628,0,0,0
-156.12,13.57,-70.97,1955,-7667,2631,0,0,0
-156.12,13.57,-70.96,1958,-7654,2636,0,0,0
-156.12,13.57,-70.95,1959,-7651,2653,0,0,0
-156.12,13.56,-70.96,1954,-7649,2647,-1,-1,0
-156.13,13.56,-70.96,1950,-7656,2629,-1,-1,0
-156.14,13.55,-70.98,1947,-7662,2638,-1,-1,0
-156.14,13.55,-70.97,1949,-7673,2636,0,0,0
-156.15,13.55,-70.97,1960,-7670,2646,0,-1,0
-156.15,13.55,-70.97,1964,-7663,2640,-1,-1,0
-156.15,13.54,-70.97,1962,-7659,2647,-1,-1,0
-156.17,13.54,-70.98,1955,-7665,2639,-1,-1,0
-156.17,13.54,-70.98,1948,-7661,2633,0,-1,0
-156.18,13.53,-70.98,1951,-7659,2632,0,0,0
-156.18,13.52,-70.98,1957,-7665,2634,0,0,0
-156.19,13.51,-70.97,1952,-7657,2648,0,0,0
-156.20,13.51,-70.98,1940,-7661,2646,-1,-1,0
-156.20,13.51,-70.98,1940,-7665,2646,-1,-1,0
-156.21,13.50,-70.99,1936,-7676,2628,-1,-1,0
-156.22,13.49,-70.99,1939,-7672,2620,0,-1,0
-156.21,13.49,-70.98,1944,-7655,2635,0,0,0
-156.21,13.49,-70.97,1940,-7641,2659,-1,-1,0
-156.22,13.48,-70.98,1939,-7650,2658,-1,-1,0
-156.24,13.47,-70.99,1936,-7663,2650,-1,-1,0
-156.25,13.46,-70.99,1942,-7676,2643,0,0,0
-156.25,13.46,-70.99,1940,-7675,2635,0,0,0
-156.26,13.45,-70.98,1933,-7669,2633,0,-1,0
-156.25,13.45,-70.97,1933,-7666,2636,0,-1,0
-156.25,13.45,-70.97,1942,-7662,2648,0,0,0
-156.26,13.44,-70.97,1937,-7666,2656,-1,-1,0
-156.27,13.44,-70.97,1943,-7666,2652,-1,-1,0
-156.27,13.44,-70.97,1943,-7669,2649,-1,-1,0
-156.27,13.44,-70.98,1950,-7661,2648,-1,-1,0
-156.29,13.43,-70.98,1945,-7656,2646,-1,-1,0
-156.29,13.42,-70.99,1940,-7666,2640,-1,-1,0
-156.30,13.42,-71.00,1933,-7679,2632,0,-1,0
-156.32,13.41,-71.00,1932,-7678,2629,0,-1,0
-156.32,13.40,-71.00,1934,-7677,2629,0,-1,0
-156.33,13.40,-71.00,1930,-7675,2631,0,-1,0
-156.32,13.39,-70.99,1937,-7663,2632,0,0,0
-156.32,13.39,-70.98,1933,-7671,2644,0,0,0
-156.33,13.38,-70.98,1929,-7666,2650,0,0,0
-156.33,13.38,-70.98,1928,-7670,2653,-1,-1,0
-156.34,13.38,-70.98,1933,-7667,2653,-1,-1,0
-156.34,13.38,-70.98,1934,-7658,2640,-1,-1,0
-156.35,13.37,-70.98,1938,-7657,2652,0,-1,0
-156.35,13.37,-70.98,1938,-7660,2650,-1,-1,0
-156.36,13.36,-71.00,1929,-7661,2641,-1,-1,0
-156.37,13.36,-71.00,1930,-7671,2643,-1,-1,0
-156.38,13.35,-71.00,1933,-7675,2624,0,0,0
-156.38,13.35,-71.00,1939,-7672,2625,0,0,0
-156.38,13.35,-71.00,1926,-7670,2636,-1,-1,0
-156.38,13.35,-71.00,1922,-7674,2637,0,-1,0
-156.38,13.35,-70.99,1916,-7679,2632,0,-1,0
-156.37,13.36,-70.99,1930,-7681,2629,0,-1,-1
-156.36,13.37,-70.98,1935,-7668,2627,0,-1,-1
-156.35,13.37,-70.97,1930,-7665,2635,0,-1,-1
-156.34,13.38,-70.95,1935,-7669,2623,0,-1,-1
-156.33,13.39,-70.94,1939,-7676,2634,0,-1,-1
-156.32,13.40,-70.91,1941,-7662,2654,0,-1,-1
-156.30,13.40,-70.89,1942,-7645,2677,0,-1,-1
-156.30,13.41,-70.88,1931,-7648,2675,-1,-1,-1
-156.29,13.42,-70.89,1929,-7657,2651,-1,-1,-1
-156.28,13.43,-70.89,1928,-7676,2651,-1,-1,-1
-156.27,13.44,-70.89,1934,-7681,2637,0,0,-1
-156.26,13.45,-70.88,1930,-7659,2642,0,0,-1
-156.24,13.46,-70.87,1928,-7649,2641,0,0,-1
-156.22,13.47,-70.86,1942,-7636,2668,-1,0,-1
-156.21,13.48,-70.87,1942,-7655,2664,-1,-1,-1
-156.21,13.49,-70.88,1956,-7671,2654,-1,0,-1
-156.20,13.50,-70.88,1954,-7679,2651,-1,0,-1
-156.19,13.51,-70.87,1955,-7661,2646,0,0,-1
-156.18,13.51,-70.87,1949,-7647,2649,-1,0,-1
-156.18,13.51,-70.87,1940,-7638,2647,-1,0,-1
-156.16,13.52,-70.87,1942,-7647,2655,-1,-1,-1
-156.16,13.53,-70.87,1949,-7652,2641,-1,-1,-1
-156.15,13.55,-70.88,1953,-7669,2636,0,-1,-1
-156.13,13.56,-70.87,1955,-7663,2637,0,-1,-1
-156.12,13.57,-70.87,1960,-7661,2649,0,-1,-1
-156.10,13.59,-70.87,1960,-7650,2661,-1,-1,-1
-156.09,13.60,-70.86,1960,-7646,2655,-1,-1,-1
-156.08,13.61,-70.87,1971,-7649,2644,-1,-1,-1
-156.07,13.62,-70.88,1985,-7660,2626,0,-1,-1
-156.06,13.63,-70.86,1954,-7638,2656,0,0,-1
-156.05,13.64,-70.86,1949,-7617,2674,-1,-1,-1
-156.04,13.66,-70.89,1971,-7670,2669,-2,-1,-1
-156.04,13.68,-70.91,2017,-7693,2588,0,0,-1
-156.01,13.67,-70.86,1982,-7649,2657,1,0,-1
-156.00,13.68,-70.86,1930,-7602,2693,-1,-1,-1
-156.01,13.69,-70.88,1953,-7616,2700,-2,-1,-1
-156.02,13.71,-70.94,2004,-7675,2615,-1,-1,-1
-156.01,13.72,-70.93,2008,-7695,2602,0,0,-1
-156.00,13.72,-70.91,1985,-7677,2625,0,0,-1
-155.98,13.72,-70.89,1963,-7650,2669,0,0,-1
-155.97,13.73,-70.90,1975,-7650,2659,-1,0,-1
-155.96,13.74,-70.88,1978,-7630,2675,0,-1,-1
-155.95,13.74,-70.89,1950,-7627,2672,-1,-1,-1
-155.95,13.76,-70.91,1967,-7645,2680,-2,-1,-1
-155.96,13.77,-70.96,2034,-7709,2585,-1,-1,0
-155.94,13.76,-70.91,2001,-7641,2611,3,1,0
-155.93,13.76,-70.88,1958,-7627,2720,-3,-1,-1
-155.94,13.77,-70.92,1975,-7667,2632,0,-1,-1
-155.93,13.78,-70.91,2004,-7647,2665,-1,0,-1
-155.93,13.78,-70.92,1995,-7658,2633,-1,-1,0
-155.94,13.78,-70.92,1993,-7657,2640,-1,-1,-1
-155.92,13.78,-70.92,1997,-7652,2629,0,0,-1
-155.92,13.78,-70.91,1989,-7637,2646,0,0,-1
-155.92,13.78,-70.91,1990,-7647,2643,-1,0,-1
-155.92,13.78,-70.92,1998,-7670,2655,-1,0,-1
-155.93,13.78,-70.92,1980,-7650,2615,0,0,0
-155.92,13.78,-70.91,1948,-7633,2707,-2,-1,-1
-155.94,13.79,-70.97,1999,-7697,2593,-1,-1,-1
-155.92,13.80,-70.95,2014,-7664,2610,2,0,0
-155.92,13.79,-70.93,1978,-7639,2677,-2,-1,-1
-155.94,13.80,-70.97,1983,-7648,2623,-1,-1,-1
-155.94,13.80,-70.97,2001,-7646,2634,-1,-1,0
-155.95,13.79,-70.99,1983,-7667,2623,-1,-1,0
-155.96,13.79,-70.99,1995,-7665,2637,-1,-1,0
-155.97,13.78,-71.00,1991,-7653,2634,-1,0,0
-155.97,13.79,-71.01,1972,-7647,2637,-1,-1,0
-155.98,13.78,-71.01,1984,-7645,2631,-1,-1,-1
-155.98,13.78,-71.01,1996,-7653,2620,0,0,0
-155.97,13.79,-71.00,2001,-7637,2642,0,0,0
-155.98,13.78,-71.01,1990,-7633,2638,-1,-1,0
-156.00,13.77,-71.02,1989,-7643,2637,-1,0,0
-156.01,13.76,-71.04,1991,-7653,2629,-1,0,0
-156.03,13.75,-71.06,1984,-7675,2611,-1,0,0
-156.03,13.75,-71.06,1975,-7668,2605,0,0,0
-156.02,13.75,-71.04,1987,-7652,2620,0,0,0
-156.02,13.74,-71.03,1987,-7649,2633,0,0,0
-156.01,13.74,-71.02,1996,-7648,2658,-1,0,0
-156.03,13.73,-71.03,1979,-7650,2646,-1,-1,0
-156.04,13.73,-71.04,1986,-7653,2652,-2,-1,0
-156.06,13.73,-71.08,1984,-7681,2595,-1,-1,0
-156.06,13.73,-71.07,1995,-7675,2604,0,0,0
-156.06,13.72,-71.07,1970,-7662,2586,0,0,0
-156.05,13.72,-71.04,1973,-7650,2616,0,0,-1
-156.05,13.71,-71.03,1988,-7647,2638,0,0,0
-156.05,13.70,-71.02,1984,-7628,2660,-1,0,0
-156.07,13.68,-71.05,1945,-7638,2656,-2,-1,0
-156.09,13.68,-71.07,1952,-7674,2625,-1,-1,-1
-156.09,13.69,-71.08,1965,-7686,2604,0,-1,-1
-156.08,13.69,-71.06,1986,-7677,2595,1,0,0
-156.07,13.69,-71.04,1996,-7634,2662,0,0,0
-156.09,13.67,-71.04,1954,-7618,2674,-1,-1,0
-156.11,13.65,-71.06,1954,-7635,2675,-2,-1,0
-156.15,13.65,-71.11,1972,-7674,2620,-2,-1,0
-156.16,13.65,-71.14,1993,-7695,2557,0,0,0
-156.16,13.65,-71.12,1980,-7699,2538,1,0,0
-156.13,13.65,-71.07,1956,-7658,2581,2,0,-1
-156.12,13.65,-71.05,1958,-7646,2640,-1,-1,0
-156.13,13.65,-71.05,1948,-7670,2624,0,-1,-1
-156.12,13.66,-71.04,1971,-7672,2644,0,-1,-1
-156.11,13.66,-71.03,2015,-7658,2664,-1,0,0
-156.12,13.65,-71.05,1974,-7621,2634,-2,-1,0
-156.15,13.64,-71.07,1948,-7653,2612,0,-1,-1
-156.14,13.64,-71.06,1898,-7640,2590,1,1,-1
-156.10,13.65,-70.98,1883,-7520,2881,-3,-4,-2
-156.20,13.71,-71.22,2160,-7681,2588,-7,-2,2
-156.25,13.67,-71.25,1978,-7777,2536,1,0,-1
-156.25,13.67,-71.25,2001,-7779,2435,2,0,0
-156.18,13.67,-71.14,1980,-7662,2547,3,0,-1
-156.16,13.66,-71.08,1918,-7645,2644,0,-1,-1
-156.13,13.67,-71.03,1907,-7625,2696,1,-1,-2
-156.12,13.71,-71.07,2011,-7660,2651,-3,-1,0
-156.11,13.71,-71.07,2006,-7686,2585,1,0,-1
-156.09,13.71,-71.03,1990,-7641,2647,0,0,0
-156.09,13.71,-71.03,2015,-7628,2653,0,0,0
-156.10,13.69,-71.03,1996,-7575,2678,-3,0,0
-156.15,13.67,-71.09,1921,-7645,2583,-1,-1,-1
-156.14,13.67,-71.08,1956,-7715,2607,0,0,-1
-156.13,13.70,-71.10,1988,-7744,2583,0,0,-1
-156.10,13.70,-71.05,2002,-7684,2629,1,0,-1
-156.10,13.70,-71.05,1987,-7625,2637,-1,-1,0
-156.10,13.70,-71.05,1989,-7620,2638,0,0,-1
-156.11,13.70,-71.06,2000,-7642,2646,-2,-1,0
-156.12,13.69,-71.08,1988,-7671,2618,0,0,0
-156.14,13.67,-71.08,1956,-7680,2628,-1,0,0
-156.15,13.66,-71.08,1946,-7679,2620,-1,-1,0
-156.15,13.67,-71.09,1968,-7665,2626,-1,0,0
-156.16,13.66,-71.10,1973,-7675,2607,-1,-1,0
-156.16,13.65,-71.09,1972,-7662,2619,0,0,0
-156.16,13.65,-71.08,1973,-7649,2635,0,-1,0
-156.16,13.64,-71.06,1975,-7649,2655,0,-1,0
-156.16,13.65,-71.06,1975,-7651,2651,-1,-1,0
-156.17,13.64,-71.07,1980,-7653,2652,-1,-1,0
-156.20,13.63,-71.09,1969,-7669,2626,-1,-1,0
-156.21,13.62,-71.11,1952,-7686,2583,0,-1,0
-156.21,13.63,-71.09,1946,-7683,2572,0,-1,-1
-156.17,13.64,-71.05,1962,-7654,2611,1,-1,-1
-156.16,13.65,-71.04,1989,-7654,2621,-1,-1,0
-156.16,13.64,-71.02,1964,-7653,2620,1,0,-1
-156.16,13.64,-71.02,1960,-7656,2667,-1,-1,-1
-156.16,13.65,-71.03,1960,-7655,2637,0,-1,-1
-156.15,13.66,-71.03,1967,-7645,2638,-1,-1,-1
-156.15,13.67,-71.03,1978,-7653,2604,0,0,-1
-156.13,13.68,-71.02,1984,-7648,2622,0,-1,-1
-156.13,13.68,-71.00,1979,-7640,2649,0,-1,0
-156.13,13.68,-71.02,1984,-7670,2617,-1,-1,-1
-156.12,13.69,-71.00,1983,-7656,2628,0,0,0
-156.12,13.68,-71.00,1972,-7644,2638,-1,-1,0
-156.12,13.69,-70.99,1965,-7648,2635,0,0,-1
-156.11,13.69,-70.99,1966,-7646,2629,-1,0,-1
-156.09,13.70,-70.99,1969,-7655,2629,-1,0,-1
-156.09,13.71,-71.00,1983,-7670,2623,-1,0,-1
-156.08,13.72,-71.00,1989,-7672,2585,0,0,-1
-156.06,13.72,-70.97,1951,-7626,2656,0,0,-1
-156.06,13.74,-70.99,2003,-7653,2621,-2,-1,-1
-156.04,13.75,-70.98,1988,-7652,2629,1,0,-1
-156.03,13.75,-70.97,1992,-7652,2660,-1,-1,0
-156.03,13.75,-70.99,1980,-7671,2649,0,0,-1
-156.04,13.75,-70.99,1979,-7647,2675,-1,-1,-1
-156.04,13.76,-71.02,1990,-7653,2632,-1,-1,-1
-156.04,13.77,-71.03,2004,-7651,2615,-1,-1,0
-156.05,13.77,-71.04,2004,-7660,2588,0,0,0
-156.04,13.76,-71.02,2001,-7656,2615,0,0,0
-156.03,13.76,-71.00,1991,-7657,2626,0,0,-1
-156.02,13.76,-70.99,1992,-7664,2636,0,0,0
-156.02,13.75,-70.98,1987,-7659,2646,0,0,0
-156.03,13.75,-70.98,1979,-7651,2644,-1,0,0
-156.03,13.75,-70.98,1978,-7651,2635,0,-1,-1
-156.03,13.75,-70.98,1977,-7646,2620,0,0,-1
-156.02,13.75,-70.97,1990,-7639,2632,0,0,0
-156.02,13.74,-70.97,1977,-7661,2639,-1,0,-1
-156.02,13.74,-70.97,1969,-7661,2659,-1,0,-1
-156.03,13.74,-70.98,1971,-7655,2670,-1,-1,-1
-156.03,13.75,-71.00,1984,-7659,2650,-1,-1,-1
-156.04,13.75,-71.02,1992,-7654,2627,-1,-1,-1
-156.03,13.76,-71.03,1992,-7658,2608,-1,0,-1
-156.04,13.76,-71.04,2001,-7670,2598,-1,0,-1
-156.00,13.76,-70.97,1902,-7553,2742,1,-1,-2
-156.05,13.80,-71.11,2067,-7681,2618,-7,-2,1
-156.07,13.76,-71.09,1908,-7645,2647,2,-1,-2
-156.08,13.81,-71.16,2148,-7708,2604,-6,-2,1
-156.14,13.76,-71.21,1921,-7784,2408,5,2,-1
-156.04,13.78,-71.07,2017,-7648,2610,0,0,-1
-156.03,13.78,-71.05,1968,-7641,2609,1,0,-1
-156.00,13.78,-71.00,1975,-7600,2679,0,-1,-1
-156.00,13.79,-71.02,1999,-7639,2655,-1,-1,-1
-156.01,13.80,-71.02,2015,-7648,2670,-1,-1,0
-156.03,13.78,-71.05,1996,-7666,2630,-1,0,0
-156.04,13.78,-71.05,1989,-7653,2633,0,0,0
-156.05,13.77,-71.06,1984,-7619,2636,-2,-1,0
-156.08,13.76,-71.10,1973,-7650,2583,-1,-1,0
-156.08,13.76,-71.10,1979,-7683,2588,0,0,-1
-156.07,13.76,-71.10,1990,-7692,2605,0,0,-1
-156.07,13.76,-71.09,1991,-7678,2617,0,-1,-1
-156.07,13.76,-71.08,1997,-7640,2613,0,-1,0
-156.07,13.76,-71.08,1998,-7632,2626,-1,-1,0
-156.08,13.75,-71.09,1994,-7641,2617,-1,-1,0
-156.09,13.74,-71.09,1986,-7665,2609,0,-1,0
-156.10,13.74,-71.10,1990,-7679,2602,0,-1,0
-156.09,13.74,-71.08,1995,-7663,2613,0,0,0
-156.09,13.74,-71.07,1989,-7647,2629,0,0,0
-156.10,13.73,-71.06,1981,-7635,2626,-1,-1,0
-156.10,13.72,-71.06,1996,-7640,2631,-1,0,0
-156.11,13.71,-71.07,1984,-7638,2645,-1,0,0
-156.13,13.70,-71.09,1974,-7658,2637,-1,-1,0
-156.14,13.69,-71.10,1971,-7663,2630,-1,-1,0
-156.16,13.68,-71.12,1968,-7664,2616,-1,-1,0
-156.18,13.68,-71.13,1966,-7671,2615,-1,-1,0
-156.18,13.68,-71.14,1976,-7675,2608,0,-1,0
-156.18,13.68,-71.14,1987,-7667,2610,0,-1,0
-156.19,13.67,-71.13,2001,-7666,2609,0,0,0
-156.20,13.66,-71.13,1997,-7647,2624,-1,0,0
-156.23,13.63,-71.14,1956,-7650,2605,-1,-1,0
-156.25,13.62,-71.14,1950,-7662,2609,-1,-1,0
-156.25,13.62,-71.16,1964,-7700,2576,-1,-1,0
-156.25,13.62,-71.14,1980,-7696,2572,1,0,-1
-156.23,13.62,-71.12,1976,-7670,2631,0,0,0
-156.24,13.61,-71.12,1957,-7637,2624,0,0,0
-156.25,13.60,-71.11,1955,-7633,2654,-1,-1,0
-156.26,13.61,-71.13,1966,-7662,2615,-1,-1,-1
-156.25,13.62,-71.13,1978,-7682,2605,0,-1,0
-156.25,13.61,-71.11,1980,-7683,2617,0,0,0
-156.26,13.59,-71.11,1957,-7679,2616,0,-1,0
-156.25,13.60,-71.09,1953,-7664,2625,0,-1,0
-156.24,13.60,-71.07,1960,-7655,2662,-1,-1,-1
-156.24,13.61,-71.08,1968,-7641,2648,-1,-1,0
-156.26,13.61,-71.10,1968,-7652,2628,-1,-1,0
-156.27,13.61,-71.11,1971,-7674,2603,0,-1,0
-156.27,13.60,-71.10,1966,-7672,2603,0,-1,0
-156.27,13.60,-71.09,1966,-7654,2607,0,-1,0
-156.27,13.60,-71.08,1961,-7649,2613,0,-1,0
-156.28,13.59,-71.08,1947,-7652,2621,0,-1,-1
-156.28,13.59,-71.08,1957,-7671,2615,0,0,-1
-156.26,13.60,-71.06,1980,-7656,2656,-1,0,-1
-156.27,13.59,-71.07,1968,-7641,2645,-1,0,0
-156.28,13.59,-71.09,1953,-7653,2623,-1,-1,0
-156.28,13.59,-71.09,1953,-7652,2617,-1,0,-1
-156.28,13.59,-71.10,1960,-7655,2616,-1,-1,-1
-156.28,13.58,-71.11,1971,-7673,2600,0,0,0
-156.28,13.58,-71.10,1988,-7683,2647,-1,0,0
-156.29,13.57,-71.10,1958,-7682,2617,0,0,0
-156.29,13.56,-71.10,1941,-7661,2632,-1,-1,0
-156.30,13.56,-71.12,1937,-7674,2617,-1,-1,-1
-156.30,13.57,-71.11,1956,-7677,2613,0,-1,-1
-156.29,13.57,-71.11,1966,-7669,2611,0,-1,0
-156.29,13.57,-71.10,1964,-7663,2603,0,0,0
-156.29,13.56,-71.09,1947,-7659,2596,0,-1,0
-156.28,13.57,-71.07,1956,-7670,2623,0,-1,-1
-156.26,13.58,-71.05,1964,-7666,2633,0,-1,-1
-156.26,13.58,-71.04,1962,-7661,2634,0,-1,-1
-156.26,13.58,-71.04,1963,-7651,2631,0,-1,0
-156.25,13.59,-71.03,1958,-7652,2615,0,-1,-1
-156.25,13.59,-71.02,1952,-7653,2617,0,-1,-1
-156.23,13.60,-71.01,1961,-7664,2632,-1,-1,-1
-156.22,13.61,-70.99,1986,-7665,2642,1,0,-1
-156.21,13.61,-70.98,1944,-7641,2668,-2,-1,-1
-156.20,13.62,-70.98,1961,-7628,2641,0,0,-1
-156.20,13.63,-71.00,1977,-7666,2651,-2,-1,-1
-156.19,13.64,-70.99,1979,-7656,2626,1,0,-1
-156.19,13.64,-70.99,1966,-7645,2644,-1,-1,-1
-156.18,13.64,-70.99,1964,-7663,2623,0,0,-1
-156.17,13.65,-70.98,1976,-7662,2654,-1,0,-1
-156.17,13.65,-70.99,1972,-7666,2656,-1,0,-1
-156.18,13.65,-71.01,1964,-7666,2632,-1,0,-1
-156.17,13.66,-71.02,1967,-7663,2639,-1,0,-1
-156.17,13.66,-71.03,1969,-7664,2604,0,0,-1
-156.16,13.67,-71.01,1977,-7651,2628,0,0,-1
-156.15,13.68,-71.01,1985,-7641,2644,-1,0,-1
-156.15,13.67,-71.01,1979,-7643,2656,-1,-1,0
-156.16,13.67,-71.02,1977,-7652,2655,-1,-1,0
-156.17,13.66,-71.03,1972,-7665,2637,-1,0,0
-156.17,13.66,-71.05,1970,-7667,2613,-1,0,0
-156.17,13.66,-71.05,1974,-7654,2613,0,0,0
-156.17,13.66,-71.04,1962,-7656,2609,0,0,0
-156.16,13.67,-71.03,1964,-7658,2645,0,-1,-1
-156.17,13.67,-71.04,1974,-7662,2646,-1,-1,0
-156.17,13.67,-71.04,1985,-7639,2634,-1,0,0
-156.20,13.65,-71.07,1957,-7664,2629,-2,-1,0
-156.20,13.66,-71.08,1985,-7658,2578,1,0,-1
-156.19,13.66,-71.06,1981,-7667,2650,-1,-1,0
-156.21,13.65,-71.07,1947,-7676,2595,1,0,-1
-156.18,13.66,-71.03,1971,-7641,2661,-1,-1,-1
-156.19,13.67,-71.05,1970,-7678,2625,0,-1,-1
-156.18,13.67,-71.04,1983,-7677,2645,0,-1,-1
-156.17,13.68,-71.04,1979,-7655,2629,0,0,-1
-156.17,13.67,-71.03,1978,-7644,2651,-1,0,0
-156.17,13.68,-71.04,1963,-7645,2623,-1,0,0
-156.17,13.67,-71.03,1960,-7644,2636,0,-1,-1
-156.16,13.68,-71.02,1974,-7653,2626,0,-1,-1
-156.15,13.69,-71.01,1985,-7667,2621,0,0,-1
-156.15,13.69,-71.01,1981,-7674,2614,0,0,-1
-156.14,13.69,-71.01,1973,-7665,2629,0,0,-1
-156.13,13.70,-71.00,1967,-7647,2628,-1,-1,-1
-156.13,13.70,-71.00,1974,-7643,2638,-1,0,-1
-156.12,13.71,-71.01,1987,-7658,2629,-1,-1,-1
-156.12,13.71,-71.01,1989,-7667,2639,-1,0,-1
-156.12,13.71,-71.01,1988,-7660,2646,-1,-1,0
-156.12,13.71,-71.02,1982,-7649,2648,-1,-1,0
-156.13,13.71,-71.03,1969,-7650,2629,-1,0,0
-156.13,13.71,-71.03,1964,-7650,2623,-1,0,0
-156.13,13.71,-71.04,1968,-7666,2627,0,0,-1
-156.12,13.72,-71.03,1982,-7677,2624,0,0,-1
-156.11,13.73,-71.02,1988,-7667,2635,0,0,-1
-156.11,13.72,-71.02,1980,-7642,2639,-1,0,0
-156.11,13.72,-71.03,1970,-7639,2630,-1,-1,0
-156.12,13.72,-71.04,1970,-7654,2620,-1,-1,-1
-156.11,13.73,-71.03,1987,-7659,2621,0,-1,-1
-156.10,13.74,-71.03,2001,-7663,2623,-1,-1,0
-156.11,13.74,-71.04,1988,-7664,2612,-1,0,0
-156.11,13.74,-71.04,1971,-7659,2608,0,0,-1
-156.11,13.73,-71.03,1962,-7651,2614,0,0,-1
-156.09,13.74,-71.03,1973,-7648,2623,0,-1,-1
-156.08,13.75,-71.02,1989,-7657,2630,0,-1,-1
-156.08,13.75,-71.02,1997,-7659,2632,0,0,-1
-156.08,13.75,-71.01,1994,-7652,2638,-1,0,0
-156.09,13.75,-71.02,1980,-7644,2634,-1,-1,0
-156.09,13.75,-71.03,1983,-7651,2620,-1,-1,-1
-156.09,13.76,-71.04,1985,-7668,2620,-1,-1,-1
-156.08,13.76,-71.04,1995,-7663,2623,0,0,-1
-156.08,13.77,-71.04,1998,-7660,2626,-1,-1,0
-156.09,13.76,-71.05,1987,-7653,2604,-1,-1,0
-156.09,13.76,-71.05,1986,-7659,2611,0,0,-1
-156.08,13.76,-71.05,1980,-7668,2619,-1,-1,-1
-156.08,13.76,-71.05,1990,-7661,2628,0,0,-1
-156.08,13.76,-71.05,1987,-7659,2624,-1,-1,0
-156.09,13.76,-71.06,1974,-7664,2613,-1,0,0
-156.09,13.76,-71.06,1976,-7665,2614,0,0,-1
-156.07,13.77,-71.05,1990,-7668,2626,0,0,-1
-156.06,13.78,-71.04,2000,-7658,2634,0,0,-1
-156.06,13.77,-71.04,1996,-7642,2642,-1,0,0
-156.06,13.77,-71.04,1987,-7638,2645,-1,0,0
-156.07,13.77,-71.04,1981,-7644,2641,-1,-1,0
-156.07,13.77,-71.05,1982,-7656,2638,-1,-1,-1
-156.06,13.78,-71.05,1994,-7650,2629,-1,-1,-1
-156.06,13.78,-71.06,1998,-7644,2618,-1,-1,0
-156.07,13.78,-71.06,1990,-7650,2613,-1,0,0
-156.07,13.78,-71.06,1987,-7655,2608,0,0,-1
-156.07,13.78,-71.06,1974,-7650,2607,0,0,0
-156.06,13.78,-71.05,1982,-7654,2621,0,0,0
-156.06,13.77,-71.04,1988,-7652,2626,0,0,0
-156.06,13.78,-71.04,1995,-7658,2624,-1,-1,-1
-156.05,13.79,-71.04,2002,-7661,2617,-1,-1,-1
-156.05,13.79,-71.04,1987,-7663,2632,0,0,0
-156.05,13.79,-71.04,1983,-7649,2635,-1,-1,0
-156.05,13.79,-71.04,1990,-7644,2634,-1,-1,0
-156.05,13.79,-71.04,1998,-7654,2617,-1,-1,0
-156.06,13.79,-71.05,2001,-7662,2612,-1,0,-1
-156.06,13.79,-71.05,1998,-7665,2617,0,0,0
-156.05,13.79,-71.04,1995,-7650,2637,-1,-1,0
-156.05,13.79,-71.04,1987,-7639,2639,-1,-1,0
-156.07,13.78,-71.06,1980,-7636,2629,-1,-1,-1
-156.07,13.79,-71.06,1993,-7644,2614,-1,-1,-1
-156.06,13.79,-71.06,2006,-7660,2597,0,0,0
-156.06,13.79,-71.05,1998,-7665,2607,0,0,0
-156.05,13.79,-71.04,1989,-7654,2629,0,0,0
-156.05,13.78,-71.03,1977,-7651,2657,-1,-1,0
-156.05,13.78,-71.03,1981,-7642,2657,-1,-1,0
-156.06,13.78,-71.06,1999,-7646,2626,-1,-1,0
-156.06,13.79,-71.06,1999,-7658,2606,0,-1,0
-156.06,13.78,-71.06,2000,-7659,2609,0,0,0
-156.05,13.79,-71.04,1993,-7646,2629,0,0,0
-156.05,13.78,-71.04,1981,-7652,2626,0,0,-1
-156.04,13.78,-71.03,1992,-7648,2647,0,0,-1
-156.04,13.78,-71.03,1989,-7654,2638,-1,-1,-1
-156.04,13.79,-71.03,1999,-7658,2638,0,0,-1
-156.04,13.79,-71.03,2001,-7649,2644,-1,-1,0
-156.05,13.78,-71.04,1982,-7659,2634,-1,-1,0
-156.05,13.79,-71.04,1981,-7655,2619,-1,-1,0
-156.06,13.79,-71.05,1991,-7659,2614,0,0,0
-156.05,13.79,-71.04,1996,-7665,2618,0,0,0
-156.05,13.78,-71.04,1997,-7666,2620,0,0,0
-156.04,13.79,-71.02,2000,-7656,2641,0,0,-1
-156.04,13.78,-71.02,1991,-7657,2645,-1,0,0
-156.04,13.78,-71.02,1982,-7654,2642,0,0,-1
-156.04,13.78,-71.02,1982,-7659,2631,0,-1,-1
-156.04,13.79,-71.02,1991,-7660,2623,-1,-1,0
-156.04,13.78,-71.03,1993,-7656,2625,-1,-1,0
-156.04,13.78,-71.03,1989,-7658,2629,-1,0,0
-156.04,13.78,-71.03,1996,-7660,2631,0,0,-1
-156.03,13.79,-71.02,1993,-7657,2631,0,0,-1
-156.03,13.79,-71.01,1994,-7650,2636,0,0,0
-156.03,13.78,-71.01,1994,-7641,2632,-1,-1,0
-156.03,13.79,-71.02,1993,-7647,2633,-1,-1,0
-156.03,13.79,-71.02,1992,-7659,2622,0,0,-1
-156.03,13.78,-71.01,1994,-7664,2628,0,0,-1
-156.03,13.78,-71.01,1988,-7652,2631,0,0,0
-156.03,13.78,-71.00,1989,-7645,2630,0,0,0
-156.03,13.78,-71.00,1991,-7645,2637,0,0,0
-156.03,13.78,-71.00,1992,-7651,2632,-1,-1,0
-156.03,13.78,-71.00,1992,-7660,2619,0,0,0
-156.03,13.77,-71.00,1987,-7662,2634,0,0,-1
-156.02,13.78,-70.98,1980,-7656,2646,0,0,-1
-156.01,13.78,-70.97,1975,-7636,2648,0,0,-1
-156.01,13.78,-70.97,1984,-7632,2654,-1,-1,0
-156.01,13.78,-70.97,1993,-7640,2655,-1,-1,0
-156.02,13.78,-70.98,1999,-7656,2645,-1,-1,0
-156.03,13.78,-70.99,1993,-7657,2636,-1,0,0
-156.02,13.78,-70.99,1987,-7662,2628,-1,0,-1
-156.02,13.78,-70.99,1988,-7660,2618,0,0,-1
-156.02,13.78,-70.99,1990,-7648,2635,0,0,0
-156.01,13.78,-70.98,1991,-7651,2639,0,0,0
-156.01,13.78,-70.97,1993,-7659,2648,0,0,0
-156.01,13.77,-70.97,1992,-7663,2648,-1,-1,0
-156.02,13.77,-70.98,1988,-7658,2639,-1,-1,0
-156.03,13.77,-71.00,1986,-7661,2620,-1,-1,0
-156.02,13.78,-70.99,2000,-7663,2612,0,0,-1
-156.02,13.78,-70.99,1996,-7653,2615,0,0,0
-156.02,13.77,-70.97,1987,-7650,2632,0,0,0
-156.02,13.76,-70.96,1982,-7639,2660,-1,-1,0
-156.03,13.76,-70.97,1985,-7653,2662,-1,-1,0
-156.03,13.77,-70.99,1996,-7664,2642,-1,-1,0
-156.05,13.76,-71.02,1991,-7671,2625,-1,-1,0
-156.06,13.75,-71.02,1984,-7667,2611,-1,0,0
-156.06,13.75,-71.02,1972,-7661,2612,0,0,-1
-156.04,13.76,-71.00,1996,-7654,2624,0,-1,-1
-156.03,13.77,-71.00,2013,-7655,2635,0,0,-1
-156.02,13.77,-70.97,2023,-7638,2654,0,0,0
-156.03,13.76,-70.96,2009,-7613,2647,0,0,0
-156.03,13.75,-70.96,1989,-7611,2638,0,-1,0
-156.06,13.73,-70.97,1982,-7643,2628,-1,-1,0
-156.07,13.72,-70.97,1969,-7689,2605,0,0,0
-156.08,13.70,-70.96,1961,-7700,2624,0,0,0
-156.07,13.70,-70.95,1963,-7689,2639,0,0,-1
-156.06,13.70,-70.93,1951,-7658,2648,0,0,-1
-156.05,13.70,-70.93,1967,-7620,2662,-1,-1,-1
-156.05,13.71,-70.95,1989,-7638,2658,-2,-1,-1
-156.05,13.73,-70.97,2024,-7666,2629,-1,0,0
-156.06,13.72,-70.98,2021,-7661,2632,-1,0,0
-156.06,13.72,-70.98,1993,-7641,2635,0,0,0
-156.07,13.71,-70.97,1977,-7626,2648,-1,-1,0
-156.08,13.70,-70.98,1972,-7619,2650,-1,-1,0
-156.10,13.70,-71.01,1976,-7657,2629,-1,-1,0
-156.11,13.69,-71.02,1992,-7683,2612,0,0,0
-156.11,13.69,-71.01,1990,-7670,2623,0,0,0
-156.10,13.68,-70.98,1979,-7641,2649,0,0,0
-156.10,13.67,-70.97,1960,-7619,2656,-1,-1,0
-156.12,13.66,-70.98,1968,-7633,2638,-1,-1,0
-156.14,13.65,-71.00,1976,-7680,2612,-1,-1,0
-156.14,13.65,-71.01,1969,-7709,2602,0,0,0
-156.14,13.64,-70.99,1957,-7694,2625,0,0,-1
-156.12,13.65,-70.96,1962,-7654,2655,0,0,-1
-156.12,13.65,-70.95,1967,-7619,2677,-1,-1,0
-156.13,13.65,-70.96,1975,-7620,2701,-1,-1,0
-156.15,13.65,-70.99,1990,-7624,2701,-2,-1,0
-156.21,13.63,-71.08,1984,-7643,2647,-3,-1,1
-156.29,13.59,-71.17,1942,-7712,2565,-3,-1,0
-156.31,13.60,-71.20,1941,-7757,2515,0,-1,-1
-156.26,13.62,-71.16,1974,-7713,2546,2,0,-1
-156.21,13.64,-71.09,1992,-7611,2621,1,0,-1
-156.21,13.64,-71.09,1998,-7569,2645,-2,-1,0
-156.25,13.62,-71.13,1993,-7650,2610,-1,-1,0
-156.26,13.61,-71.13,1982,-7732,2574,1,0,-1
-156.24,13.61,-71.09,1981,-7724,2577,2,0,-1
-156.21,13.60,-71.03,1964,-7658,2605,1,0,0
-156.22,13.58,-70.99,1932,-7608,2647,1,0,0
-156.21,13.56,-70.96,1925,-7634,2665,0,0,0
-156.20,13.56,-70.93,1939,-7676,2676,0,-1,-1
-156.17,13.59,-70.92,1999,-7669,2693,-1,-1,0
-156.18,13.59,-70.93,2003,-7656,2674,-1,-1,0
-156.21,13.57,-70.94,1962,-7661,2648,-1,-1,0
-156.23,13.54,-70.94,1916,-7654,2639,0,-1,0
-156.23,13.55,-70.94,1917,-7658,2645,0,-1,-1
-156.21,13.57,-70.95,1965,-7667,2644,-1,-1,-1
-156.21,13.59,-70.96,1996,-7681,2611,0,0,0
-156.20,13.58,-70.94,1969,-7668,2622,0,0,0
-156.20,13.57,-70.91,1937,-7623,2648,0,0,-1
-156.19,13.58,-70.90,1944,-7616,2669,-1,-1,-1
-156.19,13.58,-70.92,1972,-7665,2625,-1,-1,-1
-156.19,13.58,-70.92,1973,-7700,2613,1,0,-1
-156.16,13.58,-70.87,1947,-7682,2654,1,0,-1
-156.15,13.59,-70.85,1938,-7630,2699,0,-1,-1
-156.15,13.59,-70.86,1951,-7615,2686,-2,-1,-1
-156.16,13.60,-70.90,1977,-7645,2641,-1,-1,0
-156.17,13.60,-70.91,1985,-7665,2617,0,0,-1
-156.16,13.60,-70.91,1978,-7673,2636,-1,0,0
-156.16,13.60,-70.91,1961,-7654,2647,0,0,0
-156.15,13.60,-70.89,1930,-7628,2689,-1,-1,-1
-156.16,13.60,-70.91,1920,-7623,2737,-2,-1,-1
-156.20,13.61,-70.98,1964,-7639,2747,-5,-1,0
-156.26,13.61,-71.11,1956,-7721,2624,-4,-1,-1
-156.28,13.64,-71.18,1965,-7765,2519,0,-1,-2
-156.21,13.69,-71.15,2030,-7679,2528,1,-1,-1
-156.18,13.71,-71.11,2028,-7558,2555,1,0,0
-156.20,13.68,-71.10,2006,-7557,2553,-1,0,1
-156.23,13.65,-71.10,1971,-7673,2531,1,0,0
-156.20,13.65,-71.04,1956,-7770,2574,2,0,-1
-156.15,13.64,-70.95,1952,-7760,2655,2,0,-1
-156.11,13.65,-70.88,1948,-7694,2696,1,0,-1
-156.08,13.66,-70.84,1939,-7636,2707,0,0,-1
-156.04,13.68,-70.81,1969,-7584,2716,0,-1,-1
-156.01,13.70,-70.80,2009,-7554,2719,-1,-1,0
-156.04,13.69,-70.82,1996,-7572,2707,-2,-1,0
-156.08,13.67,-70.86,1969,-7652,2676,-2,-1,0
-156.10,13.66,-70.89,1945,-7710,2650,-1,-1,-1
-156.10,13.67,-70.91,1953,-7700,2638,-1,-1,-1
-156.11,13.68,-70.92,1962,-7659,2625,-1,-1,-1
-156.12,13.68,-70.94,1979,-7648,2585,-1,-1,0
-156.11,13.68,-70.95,1968,-7676,2585,0,0,-1
-156.09,13.69,-70.92,1974,-7667,2613,1,0,-1
-156.06,13.71,-70.88,1992,-7647,2662,0,-1,-1
-156.06,13.71,-70.89,1984,-7654,2655,-1,0,0
-156.05,13.71,-70.88,1977,-7648,2647,0,0,-1
-156.03,13.72,-70.86,1977,-7634,2651,0,0,-1
-156.01,13.72,-70.84,1981,-7626,2657,0,0,-1
-156.00,13.73,-70.83,1997,-7634,2661,-1,0,-1
-156.01,13.73,-70.84,1990,-7648,2653,-1,0,0
-156.00,13.73,-70.83,1971,-7663,2653,0,0,-1
-155.98,13.74,-70.82,1965,-7637,2684,0,0,-1
-155.99,13.73,-70.83,1969,-7609,2697,-1,-1,0
-156.02,13.73,-70.86,1972,-7616,2676,-2,-1,0
-156.05,13.72,-70.90,1972,-7652,2652,-2,-1,0
-156.06,13.72,-70.93,1979,-7669,2637,-1,-1,0
-156.07,13.73,-70.95,1979,-7671,2614,-1,-1,0
-156.09,13.72,-70.97,1978,-7672,2588,-1,0,0
-156.09,13.72,-70.98,1967,-7685,2567,0,0,-1
-156.05,13.74,-70.95,1980,-7677,2583,1,0,-1
-156.02,13.75,-70.91,1991,-7651,2606,1,0,-1
-155.99,13.75,-70.86,1996,-7624,2650,1,0,0
-155.99,13.74,-70.83,1977,-7615,2686,0,0,0
-155.97,13.74,-70.81,1987,-7610,2720,-1,0,-1
-155.98,13.75,-70.83,1990,-7628,2721,-2,-1,0
-155.99,13.75,-70.86,1993,-7640,2690,-1,-1,0
-156.01,13.75,-70.90,1974,-7639,2674,-2,-1,0
-156.03,13.75,-70.93,1965,-7649,2653,-2,-1,-1
-156.05,13.76,-70.98,1969,-7658,2607,-1,-1,-1
-156.05,13.77,-70.99,1994,-7670,2576,0,0,0
-156.04,13.77,-70.98,1997,-7671,2572,0,0,0
-156.03,13.77,-70.96,1984,-7662,2605,0,0,-1
-156.02,13.77,-70.94,1982,-7666,2643,0,0,-1
-156.00,13.77,-70.92,1993,-7652,2665,0,0,-1
-155.99,13.77,-70.90,1994,-7634,2674,0,0,0
-155.99,13.77,-70.90,1990,-7620,2669,0,0,0
-155.98,13.77,-70.89,1988,-7623,2675,0,-1,0
-155.98,13.77,-70.88,1984,-7624,2676,-1,-1,0
-155.99,13.77,-70.90,1989,-7642,2658,-1,-1,0
-156.01,13.77,-70.92,1996,-7657,2624,-1,-1,0
-156.02,13.76,-70.92,1989,-7663,2610,0,0,0
-156.02,13.76,-70.91,1981,-7661,2610,0,0,0
-156.01,13.76,-70.90,1982,-7656,2625,0,0,0
-156.00,13.75,-70.88,1974,-7645,2650,0,0,0
-156.00,13.75,-70.88,1980,-7647,2667,-1,0,-1
-156.01,13.75,-70.89,1981,-7647,2671,-1,-1,-1
-156.01,13.76,-70.90,1987,-7651,2653,-1,-1,-1
-156.01,13.76,-70.91,2007,-7651,2643,-1,-1,-1
-156.01,13.77,-70.93,2002,-7659,2620,0,0,-1
-156.00,13.77,-70.91,2000,-7649,2646,-1,0,0
-156.01,13.76,-70.92,1988,-7646,2648,0,0,0
-156.01,13.76,-70.91,1979,-7628,2661,-1,-1,0
-156.01,13.76,-70.92,1979,-7640,2654,-1,-1,0
-156.01,13.77,-70.93,1996,-7666,2639,-1,-1,-1
-156.01,13.77,-70.93,2009,-7673,2616,0,0,-1
-156.00,13.77,-70.91,2002,-7657,2619,0,0,-1
-155.99,13.77,-70.89,1987,-7630,2649,0,0,0
-155.98,13.77,-70.87,1983,-7605,2668,0,-1,0
-155.98,13.77,-70.88,1985,-7623,2675,-1,-1,0
-156.00,13.77,-70.91,1998,-7661,2643,-1,-1,0
-156.01,13.77,-70.92,1984,-7682,2615,0,0,0
-156.01,13.76,-70.91,1979,-7670,2621,0,0,-1
-155.99,13.77,-70.89,1976,-7643,2652,0,0,-1
-155.98,13.77,-70.88,1982,-7624,2669,0,-1,-1
-155.98,13.78,-70.88,1998,-7633,2675,-1,-1,0
-155.99,13.77,-70.89,2010,-7658,2650,-1,-1,0
-156.00,13.77,-70.90,2006,-7668,2638,-1,0,0
-156.00,13.77,-70.91,1988,-7663,2635,0,0,0
-156.00,13.77,-70.90,1979,-7642,2641,0,-1,-1
-156.00,13.77,-70.90,1982,-7631,2641,-1,-1,-1
-155.99,13.78,-70.91,1995,-7636,2633,-1,-1,0
-156.00,13.78,-70.92,2000,-7649,2626,-1,-1,0
-156.01,13.77,-70.92,1994,-7663,2626,0,0,0
-156.00,13.78,-70.92,1982,-7661,2630,0,0,-1
-155.99,13.78,-70.91,1983,-7635,2646,0,0,-1
-155.99,13.78,-70.90,1986,-7616,2657,-1,-1,0
-155.99,13.78,-70.90,1993,-7624,2643,0,0,0
-155.99,13.78,-70.90,1997,-7642,2659,-1,0,0
-156.00,13.77,-70.91,1993,-7661,2639,0,0,0
-155.99,13.77,-70.90,1988,-7654,2658,-1,-1,-1
-155.99,13.77,-70.90,1980,-7652,2651,0,-1,-1
-156.00,13.77,-70.90,1989,-7641,2654,-1,-1,0
-156.00,13.77,-70.91,1991,-7645,2647,-1,-1,-1
-156.00,13.77,-70.91,1987,-7652,2639,-1,-1,0
-156.00,13.78,-70.92,1996,-7658,2645,-1,-1,0
-156.00,13.77,-70.91,1983,-7653,2639,0,0,0
-156.00,13.77,-70.91,1976,-7656,2633,0,-1,-1
-156.00,13.77,-70.91,1980,-7660,2648,0,0,-1
-156.00,13.77,-70.90,1984,-7642,2651,-1,-1,-1
-156.00,13.77,-70.91,1986,-7639,2655,-1,-1,0
-156.00,13.77,-70.91,1993,-7641,2651,-1,-1,0
-156.00,13.77,-70.90,1984,-7646,2646,0,0,0
-156.00,13.77,-70.90,1994,-7646,2645,0,-1,-1
-155.99,13.78,-70.90,1999,-7651,2645,-1,-1,-1
-155.99,13.78,-70.90,1998,-7643,2642,-1,0,0
-155.99,13.78,-70.90,1990,-7631,2649,0,-1,0
-155.99,13.78,-70.90,1990,-7632,2649,-1,-1,0
-155.99,13.78,-70.90,1991,-7645,2640,-1,-1,-1
-155.99,13.78,-70.91,1994,-7649,2642,-1,-1,0
-155.99,13.78,-70.91,1981,-7653,2633,0,0,0
-155.99,13.78,-70.91,1983,-7646,2638,0,0,-1
-155.99,13.78,-70.90,1988,-7640,2647,-1,-1,-1
-155.99,13.78,-70.90,1997,-7639,2651,0,0,0
-155.98,13.78,-70.90,1991,-7643,2651,0,-1,0
-155.99,13.78,-70.90,1986,-7650,2643,0,-1,-1
-155.98,13.78,-70.90,1999,-7650,2644,-1,-1,0
-155.99,13.78,-70.91,1997,-7658,2635,-1,0,0
-155.98,13.79,-70.91,1999,-7649,2645,-1,0,0
-155.99,13.79,-70.91,1992,-7654,2627,-1,-1,-1
-155.99,13.79,-70.91,1994,-7642,2634,-1,-1,0
-155.99,13.79,-70.92,1996,-7650,2631,0,0,0
-155.99,13.79,-70.92,1992,-7648,2641,0,0,0
-156.00,13.78,-70.92,1984,-7657,2648,-1,0,-1
-155.99,13.79,-70.92,1993,-7653,2639,0,0,-1
-155.99,13.79,-70.92,1994,-7657,2635,0,0,0
-155.98,13.79,-70.91,1997,-7646,2647,0,-1,0
-155.98,13.79,-70.91,1991,-7643,2654,0,-1,0
-155.98,13.79,-70.91,1989,-7645,2656,-1,0,0
-155.98,13.79,-70.91,1993,-7646,2661,-1,-1,0
-155.99,13.79,-70.92,1998,-7655,2640,-1,-1,0
-155.99,13.79,-70.92,1998,-7665,2634,-1,-1,-1
-155.99,13.79,-70.92,1995,-7661,2626,0,0,0
-155.99,13.78,-70.91,1989,-7656,2647,0,-1,-1
-155.99,13.78,-70.91,1986,-7650,2658,-1,-1,0
-155.99,13.78,-70.91,1989,-7648,2661,-1,-1,0
-156.00,13.78,-70.92,1987,-7663,2657,-1,-1,0
-156.00,13.78,-70.92,1990,-7661,2645,0,0,-1
-156.00,13.78,-70.91,1990,-7651,2643,0,0,0
-156.00,13.78,-70.91,1986,-7643,2644,0,-1,0
-156.00,13.78,-70.91,1991,-7648,2644,-1,-1,0
-156.01,13.77,-70.92,1996,-7661,2638,-1,0,0
-156.01,13.77,-70.92,1990,-7665,2638,0,0,0
-156.02,13.77,-70.93,1980,-7663,2632,-1,-1,0
-156.02,13.77,-70.93,1977,-7659,2642,0,-1,-1
-156.01,13.77,-70.92,1990,-7645,2652,-1,-1,0
-156.02,13.77,-70.93,1992,-7645,2644,-1,-1,0
-156.02,13.77,-70.93,1992,-7642,2660,-1,0,0
-156.04,13.76,-70.94,1993,-7663,2645,-1,-1,0
-156.04,13.76,-70.95,1992,-7665,2647,-1,-1,0
-156.04,13.76,-70.95,1989,-7662,2643,-1,-1,0
-156.04,13.76,-70.95,1986,-7646,2636,0,0,0
-156.04,13.76,-70.94,1985,-7638,2639,-1,-1,0
-156.04,13.76,-70.95,1987,-7647,2639,-1,-1,0
-156.05,13.75,-70.95,1987,-7656,2647,-1,-1,0
-156.05,13.75,-70.95,1988,-7651,2640,0,0,0
-156.06,13.74,-70.95,1979,-7651,2636,-1,-1,0
-156.06,13.74,-70.95,1973,-7655,2640,0,-1,0
-156.06,13.74,-70.94,1974,-7646,2646,-1,-1,0
-156.07,13.74,-70.95,1973,-7647,2648,-1,-1,0
