Yaw,Pitch,Roll,AX,AY,AZ,GX,GY,GZ
-179.98,-2.75,-47.15,-399,-6096,5651,-1,-1,0
-179.98,-2.75,-47.16,-399,-6096,5644,-1,-1,0
-179.98,-2.75,-47.16,-402,-6098,5630,0,-1,0
-179.98,-2.75,-47.15,-391,-6091,5627,0,-1,0
-179.98,-2.74,-47.14,-390,-6082,5650,0,-1,0
-179.99,-2.75,-47.14,-385,-6076,5652,0,-1,0
-179.99,-2.75,-47.14,-381,-6077,5649,0,-1,0
-179.99,-2.75,-47.14,-382,-6072,5650,-1,-1,0
-179.99,-2.75,-47.14,-389,-6080,5653,-1,-1,0
-180.00,-2.75,-47.15,-397,-6087,5644,-1,-1,0
179.99,-2.76,-47.15,-400,-6086,5634,-1,-1,0
179.99,-2.76,-47.15,-397,-6089,5636,0,-1,0
179.99,-2.76,-47.14,-404,-6093,5633,0,-1,0
179.99,-2.76,-47.14,-406,-6091,5637,0,-1,0
179.99,-2.76,-47.13,-401,-6090,5645,0,-1,0
179.99,-2.76,-47.13,-397,-6087,5650,0,-1,0
179.98,-2.76,-47.13,-393,-6088,5644,0,-1,0
179.98,-2.75,-47.13,-392,-6083,5641,0,-1,0
179.98,-2.76,-47.13,-396,-6082,5640,0,-1,0
179.98,-2.76,-47.12,-392,-6080,5642,0,-1,0
179.98,-2.76,-47.12,-401,-6081,5651,-1,-1,0
179.97,-2.76,-47.13,-395,-6082,5639,0,0,0
179.97,-2.77,-47.13,-404,-6082,5633,-1,-1,0
179.96,-2.77,-47.13,-399,-6082,5639,0,-1,0
179.97,-2.76,-47.12,-399,-6095,5638,0,-1,0
179.97,-2.76,-47.12,-403,-6089,5650,0,-1,0
179.96,-2.77,-47.12,-395,-6090,5649,0,-1,0
179.96,-2.76,-47.11,-393,-6084,5652,0,-1,0
179.96,-2.76,-47.10,-392,-6080,5651,0,0,0
179.96,-2.76,-47.10,-390,-6081,5652,0,-1,0
179.96,-2.76,-47.10,-391,-6080,5657,-1,-1,0
179.96,-2.76,-47.11,-396,-6083,5638,-1,0,0
179.95,-2.77,-47.11,-408,-6083,5635,-1,-1,0
179.95,-2.77,-47.11,-402,-6093,5637,0,-1,0
179.94,-2.77,-47.10,-404,-6085,5643,0,-1,0
179.94,-2.77,-47.10,-398,-6083,5641,0,-1,0
179.94,-2.77,-47.09,-387,-6083,5645,0,-1,0
179.94,-2.77,-47.09,-393,-6086,5645,0,0,0
179.94,-2.77,-47.09,-408,-6090,5656,0,0,0
179.93,-2.78,-47.08,-410,-6092,5655,0,-1,0
179.93,-2.78,-47.08,-402,-6086,5642,0,-1,0
179.93,-2.77,-47.08,-397,-6085,5635,0,-1,0
179.93,-2.77,-47.08,-393,-6082,5649,0,-1,0
179.93,-2.77,-47.08,-387,-6082,5648,0,-1,0
179.93,-2.77,-47.07,-395,-6088,5662,0,-1,0
179.93,-2.77,-47.07,-389,-6080,5659,0,0,0
179.92,-2.77,-47.07,-398,-6073,5654,0,-1,0
179.92,-2.77,-47.07,-402,-6077,5650,-1,-1,0
179.92,-2.78,-47.07,-399,-6082,5645,-1,-1,0
179.92,-2.78,-47.07,-402,-6089,5647,0,0,0
179.91,-2.78,-47.06,-406,-6084,5648,0,-1,0
179.91,-2.79,-47.06,-403,-6078,5650,0,-1,0
179.91,-2.79,-47.06,-398,-6078,5655,0,0,0
179.90,-2.79,-47.06,-394,-6087,5649,0,-1,0
179.90,-2.79,-47.05,-393,-6085,5655,0,-1,0
179.90,-2.79,-47.05,-394,-6089,5658,0,0,0
179.89,-2.79,-47.05,-397,-6082,5664,0,-1,0
179.89,-2.79,-47.05,-395,-6079,5663,0,-1,0
179.89,-2.80,-47.05,-393,-6080,5667,0,-1,0
179.89,-2.79,-47.05,-395,-6079,5661,-1,-1,0
179.89,-2.80,-47.05,-397,-6081,5651,-1,0,0
179.88,-2.80,-47.05,-395,-6079,5652,0,0,0
179.88,-2.80,-47.05,-402,-6081,5653,0,-1,0
179.88,-2.80,-47.05,-405,-6086,5648,0,-1,0
179.87,-2.80,-47.05,-410,-6083,5650,0,-1,0
179.87,-2.80,-47.05,-393,-6085,5646,0,-1,0
179.88,-2.80,-47.04,-392,-6080,5649,0,0,0
179.88,-2.80,-47.03,-393,-6074,5655,0,-1,0
179.87,-2.80,-47.03,-400,-6074,5659,0,0,0
179.87,-2.80,-47.03,-401,-6078,5664,-1,-1,0
179.86,-2.81,-47.03,-404,-6074,5657,0,-1,0
179.86,-2.81,-47.02,-405,-6074,5659,0,-1,0
179.86,-2.81,-47.03,-402,-6071,5653,-1,-1,0
179.86,-2.81,-47.03,-406,-6083,5648,-1,-1,0
179.86,-2.81,-47.03,-398,-6088,5650,0,-1,0
179.85,-2.81,-47.02,-398,-6074,5650,0,-1,0
179.85,-2.81,-47.02,-400,-6066,5646,0,-1,0
179.84,-2.82,-47.02,-397,-6063,5646,0,-1,0
179.84,-2.82,-47.01,-403,-6073,5658,0,0,0
179.84,-2.82,-47.01,-410,-6084,5668,-1,-1,0
179.83,-2.82,-47.01,-413,-6084,5668,0,0,0
179.83,-2.83,-47.01,-414,-6081,5663,0,-1,0
179.83,-2.83,-47.01,-414,-6082,5655,0,-1,0
179.83,-2.83,-47.01,-416,-6085,5657,0,-1,0
179.82,-2.83,-47.01,-408,-6090,5657,0,-1,0
179.82,-2.82,-47.01,-400,-6079,5654,0,-1,0
179.82,-2.82,-47.00,-396,-6074,5652,0,0,0
179.82,-2.83,-47.00,-394,-6069,5659,-1,-1,0
179.82,-2.83,-47.01,-399,-6071,5660,-1,-1,0
179.81,-2.84,-47.01,-401,-6081,5647,0,0,0
179.81,-2.84,-47.01,-408,-6083,5646,0,-1,0
179.80,-2.84,-47.01,-411,-6083,5650,0,-1,0
179.80,-2.84,-47.01,-410,-6081,5652,0,-1,0
179.80,-2.84,-47.01,-405,-6078,5649,0,0,0
179.80,-2.84,-47.00,-400,-6077,5652,0,-1,0
179.80,-2.84,-47.00,-404,-6066,5656,-1,-1,0
179.80,-2.84,-47.00,-406,-6071,5661,0,-1,0
179.80,-2.84,-46.99,-405,-6071,5661,0,-1,0
179.80,-2.84,-46.99,-410,-6065,5660,-1,-1,0
179.80,-2.84,-46.99,-407,-6060,5664,0,-1,-1
179.80,-2.83,-46.99,-405,-6066,5660,-1,-1,0
179.80,-2.83,-46.99,-402,-6066,5655,0,-1,0
179.80,-2.83,-46.99,-400,-6065,5657,0,-1,0
179.80,-2.83,-46.99,-399,-6064,5663,0,-1,0
179.80,-2.83,-46.99,-407,-6070,5666,-1,-1,0
179.80,-2.83,-46.99,-409,-6074,5659,0,-1,-1
179.81,-2.82,-46.99,-406,-6072,5662,0,-1,-1
179.81,-2.82,-46.99,-408,-6075,5665,-1,-1,-1
179.81,-2.82,-46.99,-408,-6068,5664,-1,-1,-1
179.81,-2.82,-46.99,-411,-6067,5666,-1,-1,0
179.80,-2.82,-47.00,-414,-6074,5660,-1,-1,-1
179.81,-2.82,-47.00,-403,-6079,5670,-1,-1,-1
179.81,-2.81,-47.00,-403,-6080,5670,-1,-1,-1
179.81,-2.81,-47.00,-403,-6079,5660,0,-1,-1
179.81,-2.81,-47.00,-398,-6075,5654,-1,-1,-1
179.81,-2.80,-47.00,-390,-6075,5658,0,-1,-1
179.82,-2.80,-47.00,-395,-6073,5661,0,-1,-1
179.82,-2.80,-47.00,-397,-6073,5669,0,-1,0
179.82,-2.80,-47.00,-398,-6072,5667,-1,-1,0
179.82,-2.80,-47.00,-403,-6074,5671,-1,0,-1
179.82,-2.79,-47.01,-394,-6085,5665,0,0,-1
179.83,-2.79,-47.01,-395,-6083,5657,0,-1,-1
179.83,-2.78,-47.00,-394,-6070,5661,0,-1,0
179.83,-2.78,-47.00,-385,-6072,5660,-1,-1,0
179.83,-2.78,-47.01,-390,-6078,5654,-1,0,0
179.83,-2.78,-47.01,-401,-6082,5659,0,0,-1
179.83,-2.79,-47.01,-408,-6076,5662,0,0,-1
179.83,-2.79,-47.01,-410,-6074,5657,-1,-1,-1
179.83,-2.79,-47.02,-410,-6076,5651,0,-1,-1
179.84,-2.78,-47.02,-397,-6079,5647,0,-1,-1
179.84,-2.78,-47.02,-390,-6077,5651,0,-1,-1
179.85,-2.77,-47.01,-381,-6070,5660,0,0,-1
179.85,-2.77,-47.00,-384,-6064,5665,0,-1,-1
179.85,-2.77,-47.00,-391,-6064,5674,-1,-1,0
179.85,-2.77,-47.01,-389,-6070,5658,-1,0,0
179.85,-2.77,-47.03,-393,-6075,5649,-1,0,0
179.85,-2.77,-47.03,-398,-6084,5640,0,0,-1
179.86,-2.76,-47.03,-398,-6083,5652,0,-1,-1
179.86,-2.76,-47.03,-399,-6087,5645,0,-1,-1
179.86,-2.76,-47.03,-393,-6082,5657,0,-1,-1
179.86,-2.75,-47.02,-391,-6076,5656,0,0,-1
179.86,-2.75,-47.02,-398,-6077,5662,0,-1,-1
179.86,-2.75,-47.03,-395,-6079,5658,-1,0,-1
179.86,-2.75,-47.03,-390,-6074,5657,0,-1,-1
179.87,-2.75,-47.03,-394,-6081,5663,-1,-1,-1
179.87,-2.75,-47.03,-391,-6072,5666,-1,0,0
179.87,-2.74,-47.03,-384,-6062,5656,-1,0,0
179.87,-2.75,-47.03,-389,-6068,5652,-1,0,0
179.87,-2.75,-47.04,-390,-6069,5653,-1,0,0
179.88,-2.75,-47.05,-394,-6073,5648,-1,0,-1
179.88,-2.75,-47.05,-396,-6071,5651,-1,-1,-1
179.88,-2.75,-47.05,-398,-6078,5656,-1,-1,-1
179.88,-2.75,-47.05,-401,-6083,5658,0,-1,-1
179.88,-2.75,-47.05,-402,-6079,5657,0,-1,-1
179.88,-2.75,-47.05,-395,-6081,5659,0,-1,-1
179.88,-2.75,-47.05,-391,-6079,5656,0,0,-1
179.89,-2.74,-47.05,-386,-6077,5657,-1,-1,-1
179.89,-2.74,-47.05,-389,-6074,5655,-1,0,-1
179.89,-2.74,-47.06,-389,-6069,5652,-1,-1,0
179.89,-2.74,-47.06,-394,-6072,5649,-1,-1,-1
179.89,-2.74,-47.06,-394,-6073,5649,-1,-1,-1
179.89,-2.74,-47.07,-391,-6082,5632,-1,-1,-1
179.90,-2.73,-47.07,-387,-6091,5643,0,0,-1
179.90,-2.73,-47.07,-395,-6084,5658,0,-1,-1
179.90,-2.73,-47.07,-395,-6076,5648,-1,-1,0
179.90,-2.73,-47.07,-396,-6080,5661,-1,-1,0
179.90,-2.73,-47.07,-396,-6093,5648,0,0,-1
179.90,-2.73,-47.07,-395,-6092,5651,0,-1,-1
179.90,-2.73,-47.07,-388,-6079,5654,0,-1,-1
179.91,-2.72,-47.07,-392,-6072,5660,-1,-1,0
179.91,-2.73,-47.07,-394,-6076,5663,-1,0,-1
179.91,-2.73,-47.07,-402,-6083,5663,-1,0,-1
179.91,-2.73,-47.07,-404,-6084,5666,-1,0,-1
179.91,-2.73,-47.08,-407,-6082,5648,-1,0,-1
179.92,-2.73,-47.09,-401,-6082,5648,-1,0,-1
179.92,-2.73,-47.08,-394,-6080,5647,0,0,-1
179.93,-2.72,-47.08,-384,-6084,5657,0,0,-1
179.93,-2.72,-47.08,-380,-6076,5659,-1,0,-1
179.93,-2.72,-47.08,-385,-6074,5657,-1,0,-1
179.94,-2.72,-47.08,-383,-6073,5660,-1,0,-1
179.94,-2.73,-47.10,-383,-6082,5658,-1,0,-1
179.94,-2.72,-47.10,-392,-6091,5651,-1,0,-1
179.94,-2.72,-47.10,-382,-6088,5639,-1,0,-1
179.95,-2.73,-47.11,-390,-6095,5639,-1,0,-1
179.95,-2.73,-47.11,-385,-6101,5640,0,0,-1
179.95,-2.72,-47.11,-391,-6089,5641,0,0,-1
179.95,-2.72,-47.11,-392,-6089,5645,0,0,-1
179.96,-2.72,-47.11,-393,-6087,5648,-1,0,-1
179.96,-2.72,-47.11,-398,-6082,5642,-1,0,-1
179.96,-2.72,-47.11,-394,-6081,5645,0,0,-1
179.97,-2.72,-47.11,-390,-6079,5647,0,0,-1
179.97,-2.72,-47.11,-387,-6079,5643,-1,0,-1
179.97,-2.72,-47.12,-383,-6083,5645,-1,0,0
179.97,-2.72,-47.12,-384,-6084,5647,-1,0,0
179.97,-2.73,-47.12,-398,-6088,5641,-1,0,0
179.97,-2.73,-47.12,-393,-6085,5637,-1,0,0
179.97,-2.73,-47.12,-398,-6086,5656,-1,-1,-1
179.97,-2.72,-47.13,-401,-6094,5638,0,0,-1
179.97,-2.72,-47.13,-397,-6090,5650,-1,-1,0
179.97,-2.73,-47.13,-394,-6093,5647,0,-1,0
179.97,-2.73,-47.13,-398,-6096,5659,0,-1,0
179.96,-2.73,-47.13,-400,-6093,5659,0,-1,0
179.96,-2.73,-47.12,-386,-6085,5657,0,-1,0
179.95,-2.73,-47.12,-385,-6081,5655,-1,-1,0
179.95,-2.73,-47.13,-391,-6084,5644,0,-1,0
179.95,-2.74,-47.13,-391,-6080,5658,-1,-1,0
179.94,-2.74,-47.12,-398,-6080,5653,0,-1,0
179.94,-2.73,-47.13,-400,-6089,5641,-1,-1,0
179.94,-2.73,-47.13,-395,-6096,5622,0,-1,0
179.94,-2.73,-47.13,-390,-6087,5623,0,-1,0
179.93,-2.73,-47.12,-391,-6076,5631,0,-1,0
179.93,-2.73,-47.11,-385,-6074,5644,-1,-1,0
179.93,-2.73,-47.11,-396,-6079,5650,-1,0,0
179.92,-2.74,-47.11,-406,-6083,5655,-1,0,0
179.92,-2.74,-47.12,-407,-6085,5646,-1,-1,0
179.92,-2.74,-47.12,-407,-6095,5646,0,-1,0
179.92,-2.74,-47.12,-396,-6102,5643,0,-1,0
179.92,-2.74,-47.11,-388,-6092,5635,0,-1,0
179.92,-2.73,-47.10,-386,-6083,5640,0,-1,0
179.92,-2.73,-47.10,-382,-6080,5649,0,-1,0
179.92,-2.73,-47.10,-386,-6073,5656,-1,-1,0
179.91,-2.73,-47.10,-385,-6072,5660,-1,-1,0
179.90,-2.74,-47.10,-387,-6078,5649,-1,0,0
179.90,-2.74,-47.10,-388,-6086,5643,-1,-1,0
179.90,-2.74,-47.10,-399,-6094,5660,-1,-1,0
179.89,-2.74,-47.10,-401,-6089,5651,0,-1,0
179.89,-2.74,-47.10,-401,-6093,5657,0,-1,0
179.89,-2.74,-47.09,-403,-6088,5658,0,-1,0
179.89,-2.75,-47.09,-402,-6087,5656,0,-1,0
179.89,-2.74,-47.08,-390,-6081,5657,0,-1,0
179.89,-2.74,-47.08,-387,-6075,5656,0,-1,0
179.88,-2.74,-47.08,-383,-6078,5660,0,-1,0
179.88,-2.74,-47.08,-392,-6082,5656,0,0,0
179.88,-2.75,-47.08,-392,-6084,5649,-1,-1,0
179.88,-2.75,-47.08,-399,-6086,5654,-1,-1,0
179.88,-2.75,-47.08,-393,-6091,5642,-1,-1,0
179.87,-2.75,-47.08,-389,-6089,5649,0,-1,0
179.87,-2.75,-47.08,-386,-6090,5647,0,-1,0
179.87,-2.75,-47.07,-392,-6088,5652,0,-1,0
179.86,-2.75,-47.07,-402,-6089,5653,0,-1,0
179.86,-2.75,-47.07,-403,-6091,5660,0,-1,0
179.86,-2.75,-47.07,-404,-6089,5653,0,-1,0
179.86,-2.75,-47.07,-397,-6088,5652,0,-1,0
179.86,-2.76,-47.07,-392,-6086,5662,0,-1,0
179.86,-2.76,-47.06,-395,-6082,5659,-1,-1,0
179.85,-2.76,-47.07,-397,-6089,5659,-1,0,0
179.85,-2.76,-47.07,-402,-6090,5648,-1,0,0
179.84,-2.77,-47.07,-406,-6097,5657,0,-1,-1
179.84,-2.77,-47.07,-405,-6093,5666,0,0,0
179.84,-2.77,-47.06,-401,-6087,5651,-1,-1,0
179.84,-2.77,-47.06,-399,-6077,5654,0,0,0
179.84,-2.77,-47.06,-403,-6074,5651,0,0,0
179.83,-2.77,-47.05,-404,-6073,5660,0,-1,0
179.83,-2.77,-47.05,-403,-6077,5655,0,-1,0
179.83,-2.77,-47.05,-399,-6078,5648,0,-1,0
179.83,-2.77,-47.05,-400,-6083,5648,0,-1,0
179.82,-2.78,-47.05,-403,-6075,5651,0,-1,0
179.82,-2.78,-47.04,-396,-6074,5657,-1,-1,0
179.82,-2.78,-47.04,-397,-6076,5660,0,0,0
179.82,-2.78,-47.04,-395,-6082,5658,-1,-1,0
179.81,-2.78,-47.04,-398,-6081,5660,0,0,0
179.81,-2.78,-47.05,-400,-6083,5655,-1,-1,0
179.80,-2.79,-47.05,-400,-6082,5653,0,-1,0
179.80,-2.79,-47.05,-403,-6084,5648,0,-1,0
179.79,-2.79,-47.05,-404,-6084,5646,0,-1,0
179.79,-2.79,-47.04,-406,-6084,5648,0,-1,0
179.79,-2.79,-47.04,-405,-6081,5656,0,-1,0
179.79,-2.80,-47.03,-401,-6081,5654,0,-1,0
179.79,-2.79,-47.03,-398,-6078,5657,0,-1,0
179.79,-2.80,-47.03,-396,-6075,5650,0,0,0
179.79,-2.80,-47.03,-398,-6069,5664,0,-1,0
179.78,-2.80,-47.03,-402,-6072,5658,0,0,0
179.78,-2.80,-47.03,-399,-6076,5661,-1,-1,0
179.78,-2.80,-47.03,-408,-6078,5670,-1,-1,0
179.78,-2.80,-47.03,-401,-6084,5662,0,-1,0
179.77,-2.81,-47.03,-408,-6084,5664,0,-1,0
179.77,-2.81,-47.02,-407,-6090,5657,0,-1,0
179.77,-2.81,-47.02,-406,-6080,5659,0,-1,0
179.76,-2.81,-47.02,-402,-6074,5658,0,-1,0
179.77,-2.80,-47.01,-396,-6072,5671,0,-1,0
179.76,-2.81,-47.00,-404,-6068,5673,0,-1,0
179.76,-2.81,-47.00,-408,-6069,5667,0,-1,0
179.75,-2.81,-47.00,-402,-6071,5678,-1,-1,0
179.75,-2.81,-47.00,-400,-6075,5678,0,0,0
179.74,-2.82,-47.00,-406,-6077,5669,-1,-1,0
179.74,-2.82,-47.00,-411,-6073,5662,-1,-1,0
179.74,-2.82,-47.00,-413,-6080,5656,-1,-1,0
179.74,-2.82,-47.00,-411,-6085,5654,0,-1,0
179.74,-2.82,-47.00,-404,-6076,5667,0,-1,0
179.73,-2.82,-46.99,-397,-6066,5670,0,-1,0
179.73,-2.82,-46.99,-399,-6064,5662,0,0,0
179.73,-2.83,-46.99,-406,-6080,5658,0,0,0
179.72,-2.83,-46.99,-410,-6084,5660,0,0,0
179.72,-2.84,-46.99,-411,-6083,5660,0,-1,0
179.72,-2.84,-46.99,-410,-6081,5657,0,0,0
179.72,-2.84,-46.99,-412,-6076,5652,0,-1,0
179.72,-2.84,-46.98,-408,-6076,5659,0,0,0
179.71,-2.83,-46.98,-398,-6077,5667,0,-1,0
179.71,-2.83,-46.98,-403,-6073,5667,0,-1,0
179.71,-2.84,-46.97,-407,-6066,5672,0,-1,0
179.71,-2.84,-46.97,-407,-6066,5664,-1,-1,0
179.71,-2.83,-46.98,-407,-6074,5655,-1,0,0
179.71,-2.83,-46.98,-405,-6076,5655,-1,-1,0
179.71,-2.83,-46.98,-411,-6069,5651,0,-1,0
179.70,-2.83,-46.98,-416,-6076,5654,-1,-1,0
179.70,-2.83,-46.98,-416,-6080,5663,0,-1,-1
179.70,-2.83,-46.98,-412,-6078,5669,0,-1,-1
179.70,-2.83,-46.98,-413,-6083,5666,-1,-1,-1
179.71,-2.82,-46.98,-407,-6086,5663,-1,-1,-1
179.71,-2.82,-46.99,-404,-6079,5666,-1,-1,-1
179.71,-2.82,-46.98,-407,-6075,5665,-1,-1,0
179.71,-2.82,-46.98,-404,-6072,5675,-1,-1,-1
179.71,-2.82,-46.98,-399,-6071,5664,-1,-1,-1
179.71,-2.82,-46.99,-398,-6069,5658,-1,-1,-1
179.71,-2.82,-47.00,-406,-6082,5650,-1,0,-1
179.71,-2.82,-47.00,-403,-6084,5654,0,-1,-1
179.72,-2.81,-47.00,-405,-6085,5664,0,-1,-1
179.72,-2.81,-47.00,-413,-6084,5661,-1,-1,-1
179.72,-2.81,-47.00,-410,-6085,5663,0,-1,-1
179.72,-2.81,-47.00,-408,-6083,5668,0,-1,-1
179.72,-2.81,-47.00,-412,-6083,5670,0,-1,-1
179.72,-2.81,-47.01,-409,-6081,5665,-1,-1,-1
179.73,-2.80,-47.01,-404,-6078,5662,0,-1,-1
179.73,-2.80,-47.01,-403,-6077,5665,-1,-1,-1
179.73,-2.80,-47.01,-404,-6082,5658,-1,-1,-1
179.73,-2.80,-47.02,-402,-6086,5656,-1,-1,-1
179.73,-2.80,-47.02,-398,-6083,5652,0,0,0
179.73,-2.80,-47.02,-393,-6083,5654,0,0,0
179.73,-2.80,-47.02,-392,-6071,5661,-1,0,-1
179.74,-2.79,-47.02,-400,-6078,5664,-1,0,-1
179.74,-2.79,-47.02,-402,-6091,5652,-1,-1,-1
179.74,-2.79,-47.02,-397,-6087,5652,0,-1,-1
179.75,-2.78,-47.02,-397,-6078,5651,0,-1,0
179.74,-2.78,-47.02,-396,-6081,5652,-1,-1,0
179.74,-2.78,-47.02,-394,-6088,5653,0,0,0
179.74,-2.78,-47.02,-400,-6088,5650,0,0,-1
179.75,-2.78,-47.03,-400,-6079,5641,-1,0,-1
179.75,-2.78,-47.03,-404,-6077,5654,-1,-1,-1
179.75,-2.78,-47.04,-404,-6076,5648,0,0,-1
179.75,-2.78,-47.03,-401,-6082,5657,0,-1,-1
179.75,-2.77,-47.03,-395,-6082,5664,0,-1,-1
179.75,-2.77,-47.03,-394,-6081,5663,-1,-1,0
179.75,-2.77,-47.03,-396,-6077,5662,0,0,0
179.75,-2.77,-47.03,-395,-6072,5659,-1,-1,0
179.75,-2.77,-47.04,-403,-6073,5659,-1,0,0
179.75,-2.77,-47.04,-402,-6080,5649,-1,0,-1
179.75,-2.77,-47.04,-406,-6086,5651,0,-1,0
179.75,-2.77,-47.04,-403,-6085,5650,0,-1,0
179.75,-2.77,-47.04,-408,-6085,5655,-1,-1,-1
179.75,-2.77,-47.04,-410,-6083,5657,0,0,-1
179.75,-2.77,-47.04,-408,-6075,5664,0,-1,-1
179.75,-2.77,-47.04,-402,-6078,5662,0,-1,-1
179.75,-2.77,-47.04,-398,-6078,5653,-1,-1,-1
179.76,-2.76,-47.04,-393,-6078,5649,0,0,-1
179.76,-2.76,-47.04,-389,-6079,5650,0,-1,0
179.76,-2.76,-47.04,-389,-6079,5650,-1,-1,0
179.76,-2.76,-47.04,-386,-6078,5662,-1,0,-1
179.76,-2.76,-47.05,-391,-6081,5657,-1,0,0
179.76,-2.76,-47.05,-396,-6083,5656,-1,-1,-1
179.76,-2.76,-47.06,-391,-6084,5642,-1,-1,0
179.76,-2.76,-47.06,-398,-6084,5634,0,0,0
179.76,-2.76,-47.06,-399,-6079,5638,0,-1,-1
179.77,-2.76,-47.06,-392,-6076,5642,0,-1,-1
179.77,-2.75,-47.06,-397,-6082,5656,-1,-1,0
179.77,-2.75,-47.06,-393,-6082,5658,0,0,-1
179.77,-2.75,-47.06,-393,-6083,5650,-1,0,-1
179.78,-2.75,-47.06,-392,-6084,5647,0,-1,-1
179.78,-2.75,-47.07,-391,-6083,5647,0,-1,-1
179.78,-2.75,-47.07,-392,-6084,5646,-1,-1,-1
179.79,-2.74,-47.07,-386,-6081,5643,0,0,-1
179.79,-2.74,-47.07,-388,-6082,5652,-1,0,-1
179.79,-2.74,-47.07,-396,-6083,5648,0,0,-1
179.79,-2.74,-47.07,-390,-6076,5660,-1,-1,0
179.79,-2.74,-47.07,-394,-6067,5660,-1,0,0
179.78,-2.75,-47.07,-396,-6082,5649,-1,0,-1
179.79,-2.74,-47.08,-396,-6102,5644,0,0,-1
179.79,-2.74,-47.08,-387,-6094,5651,0,-1,-1
179.79,-2.74,-47.07,-378,-6086,5660,0,-1,0
179.79,-2.73,-47.07,-378,-6079,5658,-1,-1,0
179.79,-2.74,-47.07,-388,-6075,5649,-1,0,0
179.79,-2.74,-47.08,-397,-6079,5655,-1,0,-1
179.80,-2.73,-47.08,-400,-6078,5648,-1,0,-1
179.80,-2.73,-47.08,-400,-6083,5652,-1,-1,-1
179.80,-2.73,-47.09,-397,-6091,5637,0,-1,-1
179.80,-2.73,-47.09,-401,-6095,5644,0,-1,-1
179.80,-2.73,-47.08,-397,-6089,5647,0,-1,-1
179.80,-2.73,-47.08,-386,-6084,5646,0,0,-1
179.81,-2.72,-47.09,-386,-6080,5650,-1,0,-1
179.81,-2.72,-47.09,-388,-6080,5648,-1,0,-1
179.81,-2.73,-47.10,-397,-6087,5642,-1,0,-1
179.81,-2.73,-47.11,-397,-6087,5636,-1,0,-1
179.82,-2.73,-47.11,-398,-6088,5636,0,0,-1
179.82,-2.73,-47.10,-394,-6085,5647,0,-1,-1
179.82,-2.73,-47.10,-398,-6085,5641,0,0,-1
179.82,-2.72,-47.10,-397,-6088,5642,0,0,-1
179.82,-2.73,-47.10,-401,-6091,5646,0,0,-1
179.83,-2.73,-47.10,-395,-6088,5646,0,0,-1
179.83,-2.73,-47.10,-399,-6091,5646,-1,-1,-1
179.83,-2.72,-47.11,-396,-6084,5646,0,0,-1
179.83,-2.72,-47.11,-395,-6082,5651,-1,0,-1
179.84,-2.72,-47.11,-382,-6083,5649,-1,0,-1
179.84,-2.73,-47.11,-384,-6078,5651,-1,0,0
179.84,-2.73,-47.11,-386,-6078,5650,-1,0,-1
179.84,-2.73,-47.11,-383,-6082,5645,-1,0,0
179.84,-2.73,-47.11,-381,-6088,5641,-1,0,0
179.83,-2.74,-47.12,-386,-6092,5634,-1,0,0
179.83,-2.74,-47.12,-386,-6093,5636,-1,-1,0
179.82,-2.74,-47.12,-392,-6092,5643,0,-1,0
179.82,-2.73,-47.12,-395,-6091,5652,0,-1,0
179.81,-2.74,-47.12,-390,-6078,5654,0,-1,0
179.81,-2.74,-47.12,-383,-6080,5650,-1,-1,0
179.80,-2.74,-47.12,-383,-6085,5654,-1,-1,0
179.80,-2.74,-47.12,-389,-6083,5645,-1,-1,0
179.80,-2.74,-47.12,-392,-6078,5641,0,-1,0
179.80,-2.74,-47.12,-391,-6088,5645,0,-1,0
179.80,-2.74,-47.12,-388,-6094,5645,0,-1,0
179.79,-2.74,-47.11,-387,-6095,5648,0,-1,0
179.79,-2.74,-47.11,-394,-6088,5654,0,-1,0
179.79,-2.74,-47.11,-395,-6082,5656,-1,-1,0
179.78,-2.75,-47.11,-396,-6085,5651,-1,-1,0
179.78,-2.75,-47.11,-396,-6093,5645,-1,-1,0
179.78,-2.75,-47.11,-396,-6106,5648,0,-1,0
179.78,-2.74,-47.11,-385,-6087,5645,0,-1,0
179.77,-2.74,-47.09,-393,-6077,5666,-1,-1,0
179.77,-2.74,-47.09,-388,-6082,5664,0,0,0
179.77,-2.75,-47.09,-401,-6083,5657,-1,-1,0
179.76,-2.75,-47.09,-405,-6092,5651,0,-1,0
179.76,-2.75,-47.10,-404,-6096,5647,-1,-1,0
179.76,-2.75,-47.09,-397,-6096,5652,0,-1,-1
179.76,-2.74,-47.09,-386,-6096,5658,0,-1,0
179.76,-2.74,-47.07,-384,-6078,5659,0,-1,0
179.77,-2.74,-47.07,-381,-6069,5662,0,-1,0
179.76,-2.74,-47.07,-380,-6069,5653,0,0,0
179.76,-2.74,-47.07,-380,-6077,5666,-1,-1,0
179.75,-2.74,-47.07,-387,-6083,5655,-1,0,0
179.75,-2.75,-47.07,-393,-6085,5646,0,0,0
179.74,-2.75,-47.07,-397,-6081,5641,0,-1,0
179.74,-2.75,-47.07,-394,-6077,5650,0,-1,0
179.74,-2.76,-47.06,-393,-6084,5649,0,-1,0
179.74,-2.76,-47.06,-401,-6078,5649,0,-1,0
179.73,-2.76,-47.06,-408,-6083,5644,0,-1,0
179.73,-2.76,-47.06,-405,-6080,5656,0,-1,0
179.72,-2.76,-47.06,-399,-6077,5657,0,-1,0
179.72,-2.76,-47.05,-395,-6073,5658,0,-1,0
179.72,-2.76,-47.05,-394,-6077,5653,0,-1,0
179.72,-2.76,-47.04,-393,-6071,5660,0,0,0
179.72,-2.76,-47.04,-394,-6075,5658,0,-1,0
179.72,-2.76,-47.04,-398,-6078,5654,0,0,0
179.71,-2.77,-47.04,-402,-6082,5656,-1,-1,0
179.71,-2.77,-47.04,-407,-6087,5658,-1,-1,0
179.70,-2.78,-47.04,-411,-6079,5651,0,-1,0
179.70,-2.78,-47.04,-408,-6087,5645,0,-1,0
179.71,-2.77,-47.04,-406,-6088,5641,0,-1,0
179.70,-2.77,-47.04,-402,-6081,5642,0,-1,0
179.70,-2.77,-47.03,-402,-6067,5660,0,-1,0
179.69,-2.78,-47.03,-405,-6068,5656,0,-1,0
179.69,-2.78,-47.03,-406,-6076,5668,-1,-1,0
179.69,-2.78,-47.03,-403,-6074,5666,0,-1,0
179.69,-2.78,-47.03,-399,-6073,5652,-1,-1,0
179.68,-2.78,-47.03,-396,-6075,5651,0,-1,0
179.68,-2.78,-47.03,-394,-6078,5648,0,-1,0
179.67,-2.78,-47.03,-398,-6082,5664,0,-1,0
179.67,-2.78,-47.03,-400,-6081,5668,-1,-1,0
179.67,-2.78,-47.03,-400,-6083,5664,0,-1,0
179.67,-2.78,-47.02,-393,-6076,5656,0,-1,0
179.67,-2.78,-47.01,-390,-6067,5653,0,-1,0
179.67,-2.78,-47.01,-394,-6077,5660,-1,0,0
179.66,-2.79,-47.02,-402,-6084,5651,0,0,0
179.66,-2.80,-47.02,-409,-6090,5660,0,0,0
179.65,-2.80,-47.02,-411,-6079,5657,-1,-1,0
179.65,-2.80,-47.02,-410,-6083,5654,0,-1,0
179.66,-2.79,-47.02,-408,-6086,5651,0,-1,0
179.66,-2.79,-47.01,-407,-6080,5662,0,-1,0
179.66,-2.79,-47.00,-396,-6080,5664,0,-1,0
179.65,-2.79,-47.00,-390,-6078,5664,-1,-1,0
179.65,-2.79,-47.00,-390,-6076,5658,0,0,0
179.64,-2.80,-47.00,-396,-6078,5666,-1,0,0
179.64,-2.80,-47.00,-401,-6072,5661,-1,-1,0
179.64,-2.80,-47.00,-405,-6083,5667,-1,-1,0
179.64,-2.80,-47.01,-400,-6078,5652,0,-1,0
179.64,-2.80,-47.01,-405,-6080,5661,-1,-1,0
179.64,-2.80,-47.01,-407,-6083,5662,0,-1,0
179.64,-2.80,-47.00,-404,-6081,5658,0,-1,0
179.63,-2.80,-47.00,-407,-6079,5661,0,-1,0
179.63,-2.80,-46.99,-404,-6069,5667,0,-1,0
179.63,-2.80,-46.99,-404,-6066,5664,-1,-1,-1
179.63,-2.80,-46.99,-401,-6065,5653,0,-1,0
179.63,-2.80,-46.99,-403,-6067,5657,-1,0,0
179.63,-2.80,-46.99,-404,-6073,5656,0,0,0
179.63,-2.80,-47.00,-403,-6079,5657,-1,-1,0
179.63,-2.80,-47.00,-404,-6082,5659,-1,0,0
179.63,-2.80,-47.01,-403,-6076,5646,-1,-1,0
179.63,-2.79,-47.01,-400,-6077,5651,-1,-1,0
179.63,-2.79,-47.01,-397,-6081,5656,-1,-1,-1
179.63,-2.79,-47.01,-406,-6080,5655,0,-1,-1
179.63,-2.79,-47.01,-405,-6076,5659,0,-1,0
179.63,-2.79,-47.01,-411,-6075,5673,0,-1,-1
179.63,-2.79,-47.01,-411,-6075,5673,0,-1,-1
179.64,-2.79,-47.01,-398,-6075,5664,-1,-1,-1
179.64,-2.79,-47.02,-392,-6073,5656,-1,-1,0
179.64,-2.79,-47.02,-395,-6072,5660,-1,-1,0
179.63,-2.79,-47.02,-394,-6074,5653,-1,0,0
179.63,-2.79,-47.03,-397,-6080,5647,-1,-1,-1
179.64,-2.78,-47.03,-395,-6086,5649,0,0,-1
179.64,-2.78,-47.03,-392,-6078,5659,0,-1,-1
179.64,-2.78,-47.02,-381,-6065,5653,0,0,-1
179.65,-2.78,-47.02,-389,-6074,5656,-1,-1,0
179.65,-2.78,-47.02,-387,-6081,5671,-1,0,0
179.65,-2.78,-47.03,-398,-6078,5660,-1,0,-1
179.65,-2.78,-47.03,-403,-6078,5659,0,-1,-1
179.65,-2.77,-47.03,-402,-6084,5655,0,-1,-1
179.66,-2.77,-47.03,-394,-6082,5653,0,-1,-1
179.66,-2.77,-47.02,-395,-6072,5651,0,-1,-1
179.66,-2.77,-47.03,-393,-6080,5652,-1,-1,-1
179.67,-2.76,-47.03,-384,-6074,5654,-1,0,-1
179.67,-2.76,-47.03,-387,-6076,5656,-1,0,-1
179.66,-2.76,-47.04,-389,-6075,5661,-1,-1,-1
179.66,-2.76,-47.05,-393,-6071,5655,-1,0,-1
179.66,-2.76,-47.05,-393,-6078,5649,-1,0,-1
179.66,-2.76,-47.06,-388,-6086,5639,0,0,-1
179.67,-2.75,-47.06,-392,-6078,5649,-1,-1,-1
179.67,-2.75,-47.06,-398,-6078,5653,0,-1,-1
179.67,-2.75,-47.06,-403,-6081,5661,0,-1,-1
179.67,-2.75,-47.06,-399,-6085,5659,0,0,-1
179.67,-2.75,-47.06,-401,-6085,5666,0,-1,-1
179.68,-2.74,-47.05,-396,-6078,5668,0,-1,-1
179.68,-2.74,-47.05,-394,-6078,5666,-1,0,-1
179.68,-2.74,-47.06,-395,-6077,5664,-1,-1,-1
179.68,-2.74,-47.06,-389,-6073,5658,-1,-1,0
179.68,-2.74,-47.06,-391,-6076,5657,-1,-1,-1
179.68,-2.74,-47.06,-391,-6078,5646,-1,0,-1
179.69,-2.74,-47.06,-392,-6081,5648,-1,0,-1
179.69,-2.74,-47.06,-394,-6083,5648,0,0,-1
179.69,-2.74,-47.06,-397,-6091,5648,-1,-1,-1
179.69,-2.74,-47.07,-394,-6094,5647,0,-1,0
179.69,-2.74,-47.07,-395,-6082,5650,0,-1,-1
179.69,-2.74,-47.07,-400,-6080,5648,0,-1,-1
179.69,-2.74,-47.06,-396,-6067,5654,0,-1,-1
179.70,-2.73,-47.06,-396,-6076,5667,-1,-1,-1
179.70,-2.73,-47.07,-393,-6076,5654,0,0,-1
179.70,-2.73,-47.07,-398,-6072,5653,-1,-1,0
179.69,-2.74,-47.07,-397,-6074,5649,-1,-1,0
179.69,-2.73,-47.08,-396,-6084,5638,-1,0,-1
179.70,-2.73,-47.08,-388,-6087,5646,0,-1,-1
179.70,-2.73,-47.08,-384,-6084,5649,0,-1,-1
179.70,-2.72,-47.07,-382,-6071,5658,0,-1,-1
179.70,-2.72,-47.07,-387,-6064,5653,-1,0,0
179.70,-2.73,-47.07,-392,-6072,5653,-1,0,0
179.70,-2.73,-47.07,-400,-6079,5657,-1,0,-1
179.71,-2.73,-47.08,-401,-6091,5653,-1,0,-1
179.71,-2.73,-47.08,-398,-6099,5649,0,-1,-1
179.71,-2.73,-47.08,-395,-6095,5652,0,-1,-1
179.71,-2.72,-47.08,-393,-6090,5652,0,-1,-1
179.72,-2.72,-47.08,-386,-6076,5649,0,-1,-1
179.72,-2.71,-47.08,-379,-6073,5658,-1,0,0
179.72,-2.71,-47.07,-374,-6075,5657,-1,0,-1
179.72,-2.71,-47.08,-381,-6080,5657,-1,0,0
179.72,-2.71,-47.08,-384,-6082,5656,-1,0,0
179.72,-2.72,-47.08,-392,-6087,5657,-1,0,0
179.72,-2.72,-47.08,-396,-6088,5654,0,-1,-1
179.72,-2.72,-47.08,-400,-6088,5653,0,0,-1
179.72,-2.71,-47.08,-396,-6081,5654,0,-1,-1
179.72,-2.71,-47.08,-392,-6083,5645,0,0,-1
179.73,-2.71,-47.07,-392,-6081,5653,0,-1,-1
179.73,-2.71,-47.07,-389,-6088,5660,0,0,-1
179.72,-2.71,-47.07,-396,-6083,5651,0,0,-1
179.73,-2.71,-47.07,-393,-6092,5647,0,0,-1
179.73,-2.71,-47.07,-400,-6090,5648,-1,-1,0
179.73,-2.71,-47.08,-394,-6086,5645,0,-1,0
179.73,-2.71,-47.08,-386,-6080,5645,-1,0,0
179.73,-2.71,-47.08,-390,-6081,5646,0,0,-1
179.73,-2.71,-47.08,-384,-6088,5642,0,0,-1
179.73,-2.71,-47.08,-387,-6083,5651,-1,-1,0
179.73,-2.71,-47.08,-390,-6081,5650,0,0,-1
179.72,-2.71,-47.08,-392,-6089,5643,0,-1,0
179.73,-2.71,-47.08,-387,-6086,5653,0,-1,0
179.73,-2.71,-47.08,-388,-6096,5662,0,-1,0
179.73,-2.71,-47.08,-385,-6096,5660,0,0,0
179.72,-2.72,-47.08,-391,-6085,5657,-1,-1,0
179.72,-2.72,-47.08,-390,-6086,5655,-1,0,0
179.71,-2.72,-47.09,-393,-6083,5639,-1,0,0
179.71,-2.73,-47.09,-392,-6091,5637,-1,-1,0
179.70,-2.73,-47.10,-400,-6094,5647,-1,-1,0
179.69,-2.73,-47.10,-390,-6102,5645,0,-1,0
179.69,-2.73,-47.10,-387,-6098,5645,0,0,0
179.69,-2.73,-47.09,-382,-6095,5663,0,-1,0
179.69,-2.73,-47.09,-383,-6091,5663,-1,-1,0
179.69,-2.73,-47.09,-382,-6098,5657,0,-1,0
179.68,-2.73,-47.10,-390,-6099,5648,0,-1,0
179.68,-2.73,-47.10,-389,-6088,5645,0,0,0
179.68,-2.74,-47.09,-389,-6084,5649,-1,-1,0
179.67,-2.74,-47.10,-396,-6087,5652,-1,-1,0
179.67,-2.74,-47.10,-392,-6093,5652,0,-1,0
179.67,-2.74,-47.09,-393,-6088,5645,0,-1,0
179.67,-2.74,-47.08,-393,-6078,5652,0,-1,0
179.67,-2.74,-47.08,-389,-6073,5657,-1,-1,0
179.66,-2.74,-47.08,-384,-6078,5646,0,0,0
179.66,-2.75,-47.08,-393,-6082,5652,-1,0,0
179.65,-2.75,-47.08,-393,-6080,5644,0,-1,0
179.65,-2.75,-47.08,-402,-6090,5653,0,-1,0
179.64,-2.75,-47.08,-397,-6099,5632,0,-1,0
179.64,-2.75,-47.08,-396,-6095,5640,0,-1,0
179.65,-2.75,-47.08,-381,-6090,5644,0,-1,0
179.65,-2.75,-47.07,-370,-6083,5662,0,-1,0
179.64,-2.74,-47.07,-373,-6082,5671,0,-1,0
179.64,-2.74,-47.06,-379,-6076,5666,-1,-1,0
179.64,-2.75,-47.07,-378,-6078,5666,-1,-1,0
179.64,-2.75,-47.07,-387,-6080,5653,-1,0,0
179.63,-2.76,-47.08,-395,-6088,5652,0,-1,0
179.63,-2.76,-47.07,-402,-6089,5655,0,-1,0
179.62,-2.76,-47.07,-399,-6087,5652,0,-1,0
179.61,-2.76,-47.06,-403,-6087,5660,0,-1,0
179.61,-2.76,-47.05,-396,-6081,5656,0,-1,0
179.62,-2.76,-47.05,-398,-6077,5654,0,-1,0
179.61,-2.76,-47.04,-397,-6070,5660,0,-1,0
179.61,-2.76,-47.04,-393,-6075,5664,0,-1,0
179.61,-2.76,-47.04,-384,-6077,5666,0,-1,0
179.61,-2.76,-47.04,-390,-6073,5654,-1,-1,0
179.60,-2.76,-47.04,-393,-6074,5664,0,-1,0
179.60,-2.76,-47.04,-390,-6087,5664,-1,-1,0
179.59,-2.77,-47.04,-392,-6086,5655,0,-1,0
179.59,-2.77,-47.04,-393,-6083,5651,0,0,0
179.59,-2.77,-47.04,-397,-6078,5642,0,-1,0
179.58,-2.78,-47.04,-394,-6077,5636,0,0,0
179.59,-2.77,-47.04,-397,-6082,5650,-1,-1,0
179.59,-2.77,-47.03,-393,-6082,5666,0,-1,0
179.58,-2.77,-47.03,-394,-6083,5668,0,-1,0
179.58,-2.77,-47.02,-396,-6080,5667,0,-1,0
179.58,-2.77,-47.02,-395,-6076,5661,0,-1,0
179.57,-2.78,-47.02,-393,-6081,5660,0,-1,0
179.57,-2.78,-47.02,-395,-6075,5663,0,-1,0
179.57,-2.78,-47.02,-397,-6069,5667,0,-1,0
179.57,-2.78,-47.02,-396,-6070,5661,-1,-1,0
179.56,-2.78,-47.02,-401,-6074,5650,0,0,0
179.56,-2.78,-47.02,-402,-6074,5657,-1,-1,0
179.55,-2.79,-47.02,-405,-6077,5649,0,0,0
179.55,-2.79,-47.02,-401,-6078,5655,0,-1,0
179.55,-2.79,-47.02,-402,-6079,5663,0,0,0
179.55,-2.79,-47.01,-404,-6075,5663,0,-1,0
179.55,-2.79,-47.01,-395,-6078,5669,-1,0,0
179.54,-2.80,-47.01,-397,-6082,5657,-1,0,0
179.54,-2.80,-47.02,-404,-6087,5652,0,-1,0
179.54,-2.80,-47.01,-394,-6078,5646,0,-1,0
179.54,-2.80,-47.01,-392,-6069,5643,0,-1,0
179.53,-2.80,-47.01,-392,-6071,5650,-1,0,0
179.53,-2.80,-47.01,-399,-6076,5648,-1,0,0
179.52,-2.81,-47.01,-405,-6076,5655,0,0,0
179.52,-2.82,-47.01,-411,-6070,5666,0,0,0
179.52,-2.82,-47.01,-410,-6076,5658,0,0,0
179.51,-2.82,-47.01,-408,-6087,5655,-1,-1,0
179.51,-2.82,-47.01,-406,-6094,5654,0,0,0
179.51,-2.82,-47.01,-407,-6084,5660,0,-1,0
179.51,-2.82,-47.00,-404,-6073,5668,0,-1,0
179.51,-2.83,-47.00,-405,-6074,5674,0,-1,0
179.50,-2.83,-47.00,-399,-6067,5669,0,0,0
179.50,-2.84,-47.00,-401,-6060,5681,-1,0,0
179.49,-2.84,-47.00,-407,-6065,5670,-1,0,0
179.49,-2.85,-47.01,-417,-6071,5650,-1,0,0
179.48,-2.85,-47.01,-410,-6085,5651,0,-1,0
179.48,-2.85,-47.01,-408,-6090,5648,0,-1,0
179.47,-2.85,-47.01,-411,-6084,5653,0,0,0
179.47,-2.86,-47.00,-418,-6078,5653,0,-1,0
179.46,-2.86,-47.00,-407,-6075,5659,0,-1,0
179.47,-2.85,-47.00,-401,-6079,5662,-1,-1,0
179.46,-2.86,-47.00,-405,-6078,5660,0,-1,0
179.46,-2.86,-46.99,-401,-6082,5657,0,-1,0
179.46,-2.86,-46.99,-408,-6081,5671,0,-1,0
179.45,-2.87,-46.99,-405,-6080,5672,0,-1,0
179.45,-2.86,-46.99,-401,-6074,5661,0,-1,0
179.45,-2.86,-46.99,-408,-6064,5654,0,-1,0
179.44,-2.87,-46.98,-407,-6064,5660,0,0,0
179.44,-2.87,-46.98,-402,-6070,5657,0,0,0
179.43,-2.88,-46.97,-411,-6080,5664,0,-1,0
179.43,-2.88,-46.97,-415,-6077,5667,0,-1,0
179.43,-2.88,-46.97,-420,-6075,5663,0,-1,0
179.42,-2.88,-46.96,-415,-6075,5655,0,-1,0
179.42,-2.88,-46.96,-410,-6064,5652,0,-1,0
179.42,-2.87,-46.95,-409,-6063,5662,0,-1,0
179.42,-2.88,-46.94,-406,-6059,5662,0,-1,0
179.42,-2.88,-46.94,-409,-6057,5665,0,-1,0
179.41,-2.88,-46.94,-404,-6060,5668,0,-1,0
179.40,-2.89,-46.94,-416,-6061,5669,-1,-1,0
179.40,-2.89,-46.94,-414,-6066,5671,-1,-1,0
179.40,-2.89,-46.94,-419,-6071,5665,-1,-1,0
179.40,-2.89,-46.94,-420,-6073,5658,0,-1,0
179.40,-2.89,-46.94,-407,-6073,5650,0,-1,0
179.39,-2.89,-46.94,-411,-6060,5660,0,-1,0
179.39,-2.89,-46.93,-412,-6064,5665,0,-1,0
179.39,-2.89,-46.93,-409,-6064,5672,0,-1,0
179.39,-2.89,-46.93,-419,-6059,5676,0,-1,-1
179.39,-2.89,-46.93,-424,-6060,5678,-1,-1,-1
179.39,-2.89,-46.93,-426,-6073,5667,-1,-1,-1
179.39,-2.88,-46.94,-418,-6075,5660,-1,-1,-1
179.39,-2.87,-46.94,-413,-6071,5663,0,-1,-1
179.39,-2.87,-46.94,-415,-6064,5665,0,-1,0
179.40,-2.87,-46.94,-411,-6066,5686,-1,-1,-1
179.40,-2.86,-46.94,-408,-6068,5677,0,0,-1
179.40,-2.86,-46.94,-412,-6070,5679,-1,-1,-1
179.41,-2.86,-46.94,-410,-6066,5678,-1,-1,-1
179.41,-2.85,-46.94,-410,-6068,5659,-1,0,-1
179.41,-2.85,-46.94,-406,-6063,5661,0,-1,-1
179.42,-2.84,-46.94,-408,-6073,5666,0,-1,-1
179.42,-2.84,-46.94,-406,-6077,5661,0,-1,-1
179.42,-2.84,-46.94,-407,-6081,5663,0,-1,-1
179.43,-2.84,-46.94,-404,-6070,5680,-1,-1,-1
179.43,-2.84,-46.94,-408,-6069,5674,0,0,-1
179.43,-2.84,-46.94,-407,-6070,5671,-1,-1,-1
179.44,-2.83,-46.94,-401,-6074,5675,-1,-1,-1
179.44,-2.83,-46.95,-393,-6072,5673,-1,0,0
179.44,-2.83,-46.95,-390,-6071,5674,-1,-1,0
179.44,-2.83,-46.96,-398,-6077,5670,-1,0,0
179.44,-2.83,-46.96,-397,-6077,5670,-1,0,-1
179.44,-2.83,-46.96,-401,-6076,5659,0,0,-1
179.45,-2.82,-46.96,-407,-6069,5661,0,-1,-1
179.45,-2.82,-46.96,-402,-6069,5663,-1,-1,-1
179.45,-2.82,-46.96,-399,-6077,5668,0,-1,-1
179.45,-2.82,-46.96,-396,-6082,5665,0,-1,-1
179.46,-2.81,-46.96,-404,-6081,5659,0,-1,-1
179.46,-2.81,-46.96,-410,-6073,5664,0,-1,-1
179.46,-2.81,-46.96,-406,-6066,5660,-1,-1,-1
179.46,-2.81,-46.96,-396,-6071,5666,-1,-1,-1
179.46,-2.81,-46.97,-395,-6066,5666,0,-1,0
179.46,-2.81,-46.97,-399,-6063,5660,-1,-1,0
179.46,-2.81,-46.97,-397,-6060,5661,-1,0,-1
179.46,-2.80,-46.98,-397,-6073,5657,0,-1,-1
179.47,-2.80,-46.97,-405,-6074,5658,0,-1,-1
179.47,-2.80,-46.97,-399,-6071,5668,0,-1,-1
179.47,-2.79,-46.96,-402,-6063,5666,-1,-1,0
179.47,-2.80,-46.97,-404,-6066,5669,0,0,0
179.47,-2.80,-46.97,-405,-6071,5667,-1,0,0
179.47,-2.80,-46.97,-402,-6068,5656,0,0,-1
179.47,-2.80,-46.98,-404,-6073,5659,-1,-1,-1
179.47,-2.80,-46.98,-403,-6077,5658,-1,-1,-1
179.48,-2.79,-46.98,-403,-6078,5655,-1,-1,-1
179.48,-2.79,-46.99,-389,-6076,5653,0,-1,-1
179.49,-2.78,-46.98,-389,-6063,5651,0,0,-1
179.49,-2.78,-46.98,-391,-6056,5665,0,-1,-1
179.49,-2.78,-46.97,-388,-6060,5672,-1,-1,-1
179.49,-2.78,-46.98,-388,-6064,5677,-1,0,-1
179.49,-2.78,-46.99,-392,-6070,5667,-1,0,0
179.49,-2.78,-46.99,-396,-6076,5653,0,0,-1
179.49,-2.78,-46.99,-400,-6082,5644,0,-1,-1
179.50,-2.77,-46.99,-402,-6085,5651,0,-1,-1
179.50,-2.77,-46.99,-405,-6083,5657,0,-1,-1
179.50,-2.77,-46.99,-402,-6076,5669,0,-1,0
179.50,-2.77,-46.99,-401,-6067,5661,0,0,-1
179.50,-2.77,-46.99,-400,-6070,5656,-1,-1,-1
179.51,-2.76,-46.99,-401,-6070,5657,0,-1,-1
179.51,-2.76,-46.99,-396,-6068,5662,-1,-1,-1
179.51,-2.76,-47.00,-386,-6066,5658,-1,0,0
179.51,-2.76,-47.00,-390,-6063,5656,-1,-1,0
179.51,-2.76,-47.00,-395,-6068,5666,-1,-1,0
179.51,-2.76,-47.01,-405,-6072,5673,-1,0,0
179.51,-2.76,-47.01,-399,-6076,5657,-1,0,-1
179.51,-2.76,-47.02,-393,-6078,5646,0,0,-1
179.51,-2.76,-47.02,-395,-6077,5650,0,-1,-1
179.51,-2.76,-47.02,-392,-6083,5654,0,-1,-1
179.51,-2.76,-47.02,-392,-6088,5664,0,0,0
179.51,-2.76,-47.01,-392,-6079,5664,-1,0,-1
179.51,-2.76,-47.02,-388,-6081,5658,-1,0,0
179.52,-2.75,-47.02,-393,-6081,5650,-1,0,-1
179.52,-2.75,-47.03,-397,-6080,5651,-1,-1,-1
179.52,-2.75,-47.03,-390,-6086,5665,0,-1,0
179.52,-2.75,-47.03,-389,-6080,5666,0,-1,0
179.52,-2.75,-47.03,-390,-6078,5664,-1,0,0
179.52,-2.75,-47.03,-397,-6081,5664,-1,0,-1
179.52,-2.76,-47.03,-401,-6077,5661,0,0,-1
179.53,-2.75,-47.03,-397,-6075,5658,0,-1,-1
179.53,-2.75,-47.02,-391,-6070,5661,0,-1,0
179.53,-2.75,-47.02,-387,-6070,5655,-1,0,-1
179.53,-2.75,-47.03,-394,-6081,5656,-1,0,0
179.53,-2.75,-47.03,-390,-6084,5652,0,0,-1
179.53,-2.75,-47.03,-401,-6080,5662,-1,0,-1
179.53,-2.75,-47.03,-402,-6071,5647,-1,-1,-1
179.54,-2.74,-47.03,-396,-6086,5664,-1,-1,-1
179.54,-2.74,-47.03,-389,-6089,5658,0,0,-1
179.55,-2.73,-47.03,-389,-6079,5654,0,-1,-1
179.55,-2.73,-47.03,-382,-6073,5657,0,-1,-1
179.55,-2.73,-47.03,-378,-6081,5658,-1,0,-1
179.56,-2.73,-47.03,-378,-6077,5659,-1,0,-1
179.56,-2.73,-47.03,-376,-6075,5655,-1,0,-1
179.56,-2.72,-47.04,-379,-6081,5644,-1,0,0
179.56,-2.73,-47.04,-391,-6083,5648,-1,0,0
179.56,-2.73,-47.04,-392,-6088,5656,0,-1,-1
179.56,-2.73,-47.04,-395,-6091,5660,0,-1,-1
179.57,-2.73,-47.04,-397,-6099,5656,0,0,-1
179.57,-2.73,-47.04,-396,-6088,5657,0,0,-1
179.57,-2.73,-47.04,-398,-6080,5653,0,0,-1
179.58,-2.72,-47.04,-395,-6078,5657,0,0,-1
179.58,-2.72,-47.04,-391,-6077,5657,-1,0,-1
179.58,-2.72,-47.04,-385,-6080,5663,-1,0,-1
179.58,-2.72,-47.05,-387,-6077,5653,-1,0,-1
179.59,-2.72,-47.05,-380,-6083,5653,-1,0,0
179.58,-2.72,-47.05,-385,-6094,5649,-1,0,0
179.58,-2.72,-47.06,-393,-6092,5655,-1,0,0
179.58,-2.73,-47.06,-396,-6086,5647,0,0,-1
179.58,-2.74,-47.06,-390,-6081,5647,-1,0,0
179.58,-2.74,-47.06,-389,-6081,5651,-1,0,0
179.58,-2.74,-47.06,-392,-6079,5655,-1,0,0
179.58,-2.74,-47.07,-390,-6079,5658,-1,0,0
179.57,-2.75,-47.07,-394,-6078,5657,-1,0,0
179.56,-2.76,-47.08,-396,-6088,5649,-1,0,0
179.56,-2.76,-47.08,-396,-6082,5654,0,0,0
179.55,-2.78,-47.09,-402,-6077,5664,-1,-1,0
179.54,-2.79,-47.10,-409,-6083,5650,-1,-1,0
179.54,-2.78,-47.10,-404,-6077,5641,-1,0,0
179.54,-2.78,-47.10,-401,-6074,5637,0,-1,0
179.53,-2.79,-47.10,-401,-6077,5635,0,-1,0
179.52,-2.79,-47.10,-400,-6080,5646,-1,-1,0
179.53,-2.78,-47.10,-397,-6094,5643,0,-1,0
179.52,-2.79,-47.10,-395,-6095,5656,0,-1,0
179.52,-2.78,-47.09,-391,-6083,5644,0,-1,0
179.52,-2.78,-47.08,-393,-6068,5646,0,-1,0
179.52,-2.78,-47.08,-394,-6068,5654,-1,-1,0
179.51,-2.79,-47.08,-404,-6078,5650,0,0,0
179.51,-2.79,-47.08,-411,-6078,5654,0,-1,0
179.51,-2.78,-47.08,-406,-6080,5652,0,-1,0
179.51,-2.78,-47.08,-405,-6084,5646,0,-1,0
179.51,-2.78,-47.07,-395,-6081,5647,0,-1,0
179.51,-2.77,-47.06,-396,-6070,5638,0,-1,0
179.51,-2.77,-47.06,-390,-6069,5649,0,-1,0
179.51,-2.77,-47.05,-388,-6075,5656,0,-1,0
179.50,-2.78,-47.05,-394,-6073,5671,-1,-1,0
179.49,-2.78,-47.05,-398,-6078,5672,-1,-1,0
179.49,-2.78,-47.05,-402,-6078,5673,0,-1,0
179.49,-2.78,-47.05,-406,-6074,5656,0,-1,0
179.49,-2.78,-47.05,-392,-6078,5647,0,-1,0
179.48,-2.78,-47.04,-396,-6092,5665,-1,-1,0
179.48,-2.78,-47.04,-396,-6092,5650,0,0,0
179.48,-2.78,-47.04,-405,-6082,5652,0,-1,0
179.47,-2.79,-47.03,-402,-6087,5654,0,-1,0
179.47,-2.79,-47.03,-398,-6088,5665,0,-1,0
179.48,-2.78,-47.03,-393,-6079,5663,0,-1,0
179.47,-2.78,-47.03,-389,-6074,5656,0,-1,0
179.47,-2.78,-47.03,-390,-6067,5657,0,-1,0
179.46,-2.79,-47.02,-393,-6070,5658,-1,-1,0
179.46,-2.79,-47.02,-395,-6077,5664,0,0,0
179.46,-2.79,-47.02,-399,-6082,5662,-1,-1,0
179.46,-2.79,-47.02,-400,-6083,5648,0,0,0
179.46,-2.79,-47.02,-399,-6085,5653,0,-1,0
179.45,-2.79,-47.02,-402,-6084,5656,0,-1,0
179.45,-2.79,-47.02,-395,-6074,5653,0,-1,0
179.45,-2.80,-47.01,-395,-6074,5664,0,-1,0
179.45,-2.80,-47.00,-394,-6071,5673,0,0,0
179.45,-2.80,-47.00,-395,-6075,5663,-1,-1,0
179.44,-2.79,-47.01,-398,-6071,5655,0,-1,0
179.44,-2.79,-47.01,-393,-6076,5649,0,-1,0
179.44,-2.80,-47.01,-397,-6073,5642,0,0,0
179.43,-2.80,-47.00,-399,-6076,5657,0,0,0
179.43,-2.80,-47.00,-399,-6067,5662,-1,0,0
179.43,-2.80,-47.00,-407,-6076,5669,-1,-1,0
179.43,-2.80,-47.00,-407,-6080,5662,0,0,0
179.43,-2.80,-46.99,-403,-6075,5654,0,-1,0
179.42,-2.81,-46.99,-401,-6064,5658,0,-1,0
179.41,-2.81,-46.99,-401,-6072,5656,0,0,0
179.41,-2.81,-46.98,-396,-6073,5652,0,0,0
179.41,-2.82,-46.98,-402,-6071,5662,0,0,0
179.41,-2.82,-46.98,-404,-6070,5662,-1,0,0
179.40,-2.83,-46.98,-404,-6070,5654,0,-1,0
179.41,-2.82,-46.98,-405,-6077,5654,0,0,0
179.40,-2.83,-46.98,-408,-6075,5655,0,-1,0
179.40,-2.82,-46.98,-397,-6075,5656,0,-1,0
179.39,-2.83,-46.98,-390,-6077,5667,0,0,0
179.39,-2.83,-46.97,-396,-6072,5678,0,-1,0
179.38,-2.83,-46.97,-403,-6071,5678,-1,-1,0
179.38,-2.83,-46.97,-396,-6068,5666,0,0,0
179.38,-2.83,-46.97,-400,-6071,5668,-1,0,0
179.37,-2.84,-46.97,-406,-6071,5656,0,-1,0
179.37,-2.85,-46.97,-413,-6076,5651,0,-1,0
179.36,-2.85,-46.98,-409,-6085,5652,0,0,0
179.36,-2.86,-46.97,-415,-6079,5659,0,0,0
179.36,-2.86,-46.96,-412,-6072,5658,0,0,0
179.36,-2.86,-46.96,-416,-6071,5677,-1,-1,0
179.35,-2.86,-46.96,-412,-6066,5669,-1,-1,0
179.35,-2.86,-46.97,-409,-6070,5663,-1,0,0
179.34,-2.87,-46.97,-407,-6070,5660,-1,0,0
179.34,-2.87,-46.97,-402,-6066,5663,0,0,0
179.33,-2.88,-46.98,-409,-6073,5651,-1,-1,0
179.33,-2.88,-46.97,-409,-6074,5654,0,0,0
179.32,-2.89,-46.97,-416,-6066,5660,0,0,0
179.32,-2.89,-46.97,-419,-6077,5653,0,-1,0
179.32,-2.90,-46.97,-409,-6082,5658,0,-1,0
179.32,-2.90,-46.96,-412,-6078,5664,0,-1,0
179.31,-2.90,-46.96,-413,-6072,5651,0,-1,0
179.31,-2.89,-46.96,-408,-6074,5656,0,-1,0
179.31,-2.89,-46.96,-412,-6070,5654,0,-1,0
179.30,-2.90,-46.96,-420,-6071,5657,0,-1,0
179.30,-2.90,-46.95,-409,-6071,5656,0,-1,0
179.29,-2.90,-46.95,-418,-6065,5659,0,-1,0
179.29,-2.90,-46.94,-425,-6065,5658,0,-1,0
179.29,-2.90,-46.94,-424,-6069,5666,-1,-1,0
179.28,-2.90,-46.95,-424,-6069,5656,0,-1,0
179.28,-2.90,-46.95,-416,-6080,5668,0,-1,0
179.29,-2.89,-46.94,-406,-6066,5674,0,-1,0
179.29,-2.89,-46.93,-403,-6060,5679,0,0,0
179.29,-2.89,-46.93,-408,-6052,5683,-1,0,0
179.29,-2.89,-46.93,-423,-6059,5670,-1,-1,0
179.29,-2.89,-46.94,-427,-6073,5668,-1,-1,-1
179.29,-2.89,-46.95,-423,-6076,5663,-1,-1,-1
179.29,-2.89,-46.94,-420,-6068,5660,0,-1,-1
179.30,-2.88,-46.94,-412,-6060,5660,0,-1,-1
179.30,-2.88,-46.94,-414,-6058,5662,0,-1,-1
179.30,-2.87,-46.94,-404,-6058,5658,-1,-1,-1
179.30,-2.86,-46.94,-405,-6064,5670,-1,-1,-1
179.31,-2.86,-46.94,-396,-6063,5672,0,-1,-1
179.31,-2.86,-46.94,-401,-6057,5678,-1,0,-1
179.31,-2.86,-46.94,-404,-6065,5659,-1,-1,0
179.31,-2.86,-46.95,-410,-6074,5649,-1,-1,0
179.31,-2.86,-46.95,-413,-6074,5656,0,-1,-1
179.31,-2.86,-46.95,-417,-6068,5657,0,-1,-1
179.32,-2.85,-46.95,-413,-6063,5666,0,-1,-1
179.32,-2.85,-46.94,-411,-6059,5666,0,-1,-1
179.32,-2.85,-46.94,-406,-6060,5671,0,-1,-1
179.33,-2.84,-46.94,-409,-6064,5669,-1,-1,-1
179.33,-2.84,-46.94,-408,-6069,5676,-1,0,-1
179.33,-2.84,-46.94,-406,-6068,5675,-1,-1,-1
179.33,-2.84,-46.95,-413,-6069,5663,-1,-1,-1
179.33,-2.84,-46.95,-411,-6073,5668,-1,-1,-1
179.33,-2.84,-46.96,-401,-6074,5652,-1,-1,0
179.34,-2.83,-46.97,-398,-6074,5654,0,0,0
179.34,-2.83,-46.97,-407,-6074,5669,0,0,-1
179.34,-2.83,-46.97,-403,-6069,5664,-1,-1,0
179.34,-2.83,-46.96,-409,-6070,5679,0,0,-1
179.34,-2.83,-46.96,-404,-6072,5664,0,-1,-1
179.35,-2.82,-46.96,-405,-6071,5664,-1,-1,-1
179.35,-2.82,-46.96,-406,-6067,5663,0,-1,-1
179.35,-2.82,-46.96,-403,-6075,5657,0,-1,-1
179.36,-2.82,-46.96,-401,-6073,5657,0,0,0
179.36,-2.82,-46.96,-400,-6072,5667,0,-1,0
179.36,-2.82,-46.96,-401,-6067,5668,-1,-1,-1
179.36,-2.82,-46.97,-400,-6068,5657,-1,-1,0
179.36,-2.81,-46.97,-402,-6066,5653,0,-1,-1
179.36,-2.81,-46.97,-405,-6076,5657,0,-1,-1
179.36,-2.81,-46.97,-402,-6076,5665,-1,-1,0
179.36,-2.81,-46.97,-404,-6073,5665,0,-1,-1
179.36,-2.81,-46.97,-412,-6075,5662,0,-1,-1
179.36,-2.81,-46.97,-412,-6070,5666,0,-1,0
179.36,-2.81,-46.97,-406,-6069,5666,-1,0,0
179.36,-2.81,-46.98,-408,-6070,5670,-1,-1,-1
179.36,-2.81,-46.98,-398,-6079,5663,0,-1,-1
179.37,-2.80,-46.98,-395,-6075,5661,0,-1,-1
179.37,-2.80,-46.97,-393,-6066,5662,0,-1,0
179.37,-2.79,-46.97,-397,-6063,5664,-1,-1,0
179.37,-2.80,-46.97,-399,-6072,5667,-1,0,0
179.37,-2.80,-46.98,-399,-6073,5665,-1,0,-1
179.37,-2.80,-46.98,-403,-6067,5660,-1,0,-1
179.37,-2.80,-46.98,-408,-6068,5663,-1,-1,-1
179.37,-2.80,-46.98,-414,-6077,5659,0,-1,-1
179.37,-2.80,-46.98,-405,-6082,5651,0,-1,-1
179.38,-2.79,-46.98,-398,-6075,5658,0,-1,-1
179.39,-2.78,-46.98,-388,-6068,5658,0,-1,-1
179.39,-2.78,-46.98,-386,-6066,5667,0,-1,0
179.39,-2.78,-46.98,-397,-6063,5667,-1,0,0
179.38,-2.79,-46.98,-399,-6060,5659,-1,0,0
179.38,-2.79,-46.99,-403,-6070,5663,-1,-1,0
179.38,-2.79,-46.99,-406,-6069,5657,0,0,-1
179.38,-2.79,-47.00,-406,-6076,5655,-1,-1,-1
179.38,-2.79,-47.00,-404,-6078,5654,0,0,-1
179.38,-2.79,-47.00,-397,-6079,5661,0,0,-1
179.39,-2.78,-46.99,-396,-6080,5662,0,0,-1
179.39,-2.78,-46.99,-398,-6081,5667,0,0,-1
179.39,-2.78,-46.99,-396,-6079,5658,0,-1,-1
179.40,-2.78,-46.99,-393,-6075,5662,-1,-1,-1
179.40,-2.78,-46.99,-392,-6066,5660,0,-1,-1
179.40,-2.77,-46.99,-393,-6067,5653,-1,-1,-1
179.40,-2.77,-46.99,-390,-6065,5657,-1,-1,-1
179.41,-2.77,-47.00,-389,-6073,5650,-1,0,0
179.41,-2.77,-47.00,-387,-6075,5645,-1,0,0
179.41,-2.77,-47.01,-393,-6076,5654,-1,0,-1
179.41,-2.77,-47.01,-400,-6078,5655,0,0,-1
179.41,-2.77,-47.01,-398,-6082,5653,0,-1,-1
179.41,-2.77,-47.00,-399,-6081,5657,0,0,-1
179.41,-2.76,-47.00,-394,-6070,5661,0,0,-1
179.41,-2.76,-47.00,-393,-6057,5666,-1,0,-1
179.42,-2.77,-47.00,-391,-6063,5673,-1,0,-1
179.42,-2.77,-47.01,-392,-6070,5666,-1,0,0
179.42,-2.77,-47.02,-393,-6077,5655,-1,0,-1
179.42,-2.77,-47.02,-397,-6071,5660,-1,0,0
179.42,-2.77,-47.02,-394,-6075,5665,-1,0,0
179.42,-2.78,-47.02,-394,-6069,5674,-1,0,-1
179.41,-2.78,-47.03,-400,-6071,5663,-1,0,-1
179.42,-2.78,-47.04,-395,-6070,5648,-1,0,0
179.42,-2.79,-47.05,-399,-6084,5647,-1,0,0
179.41,-2.79,-47.06,-398,-6080,5648,-1,0,0
179.41,-2.80,-47.07,-397,-6088,5636,-1,0,0
179.41,-2.80,-47.08,-399,-6087,5647,-1,0,0
179.41,-2.81,-47.08,-402,-6082,5666,-1,0,0
179.40,-2.82,-47.09,-398,-6073,5649,-1,0,0
179.39,-2.83,-47.10,-402,-6087,5648,-1,0,0
179.39,-2.84,-47.12,-404,-6089,5646,-1,0,-1
179.39,-2.84,-47.12,-400,-6073,5644,-1,0,0
179.38,-2.85,-47.12,-398,-6076,5648,-1,-1,0
179.38,-2.85,-47.13,-388,-6084,5648,-1,0,0
179.37,-2.86,-47.14,-406,-6085,5656,-1,0,0
179.37,-2.87,-47.15,-411,-6101,5642,0,0,0
179.37,-2.88,-47.15,-414,-6091,5640,-1,0,0
179.37,-2.88,-47.15,-412,-6095,5637,0,0,-1
179.37,-2.88,-47.15,-417,-6102,5641,0,-1,-1
179.37,-2.88,-47.15,-417,-6095,5647,0,0,-1
179.37,-2.88,-47.15,-415,-6098,5639,0,-1,-1
179.38,-2.87,-47.14,-413,-6101,5633,0,0,-1
179.38,-2.87,-47.14,-411,-6092,5644,-1,0,-1
179.38,-2.87,-47.14,-408,-6086,5640,-1,0,-1
179.38,-2.87,-47.15,-412,-6081,5646,-1,-1,-1
179.39,-2.87,-47.15,-418,-6090,5640,-1,-1,-1
179.39,-2.86,-47.15,-421,-6095,5642,0,-1,-1
179.39,-2.86,-47.15,-414,-6095,5634,0,-1,-1
179.40,-2.85,-47.15,-414,-6095,5636,0,-1,-1
179.41,-2.84,-47.15,-416,-6092,5634,0,-1,-1
179.42,-2.83,-47.14,-409,-6094,5637,0,-1,-1
179.42,-2.83,-47.14,-404,-6090,5638,0,-1,-1
179.43,-2.83,-47.13,-405,-6082,5650,0,-1,-1
179.43,-2.82,-47.13,-402,-6085,5655,0,0,-1
179.44,-2.82,-47.13,-393,-6083,5649,0,0,-1
179.44,-2.81,-47.13,-391,-6085,5646,-1,-1,-1
179.44,-2.81,-47.13,-396,-6086,5648,-1,0,-1
179.44,-2.81,-47.14,-394,-6084,5643,-1,0,-1
179.45,-2.81,-47.14,-399,-6078,5641,0,0,-1
179.46,-2.81,-47.13,-397,-6083,5647,0,0,-1
179.46,-2.81,-47.13,-408,-6083,5648,0,0,-1
179.46,-2.81,-47.13,-408,-6091,5644,0,-1,-1
179.47,-2.80,-47.13,-401,-6087,5645,0,0,-1
179.47,-2.80,-47.13,-403,-6084,5643,0,0,-1
179.47,-2.80,-47.12,-401,-6079,5655,0,-1,-1
179.47,-2.80,-47.12,-394,-6083,5659,0,-1,-1
179.47,-2.79,-47.12,-392,-6087,5658,0,0,0
179.47,-2.79,-47.12,-395,-6087,5652,0,-1,0
179.47,-2.79,-47.12,-396,-6076,5648,-1,0,0
179.47,-2.79,-47.12,-397,-6084,5646,-1,-1,0
179.47,-2.79,-47.12,-404,-6085,5656,0,-1,-1
179.47,-2.79,-47.12,-402,-6089,5640,0,-1,0
179.47,-2.79,-47.12,-398,-6086,5653,0,-1,0
179.47,-2.79,-47.11,-394,-6078,5659,0,-1,0
179.47,-2.79,-47.11,-394,-6082,5658,-1,0,-1
179.47,-2.79,-47.12,-396,-6086,5650,0,-1,-1
179.47,-2.78,-47.12,-388,-6089,5654,0,-1,-1
179.48,-2.77,-47.12,-379,-6090,5641,0,0,-1
179.47,-2.78,-47.11,-369,-6089,5637,0,0,0
179.48,-2.79,-47.10,-389,-6082,5620,0,0,0
179.48,-2.80,-47.09,-422,-6100,5637,0,0,-1
179.49,-2.81,-47.06,-439,-6101,5661,0,0,-1
179.50,-2.80,-47.06,-430,-6089,5657,0,0,-1
179.51,-2.79,-47.05,-406,-6077,5644,0,0,-1
179.52,-2.79,-47.04,-387,-6075,5633,0,0,-1
179.53,-2.79,-47.01,-384,-6078,5649,0,0,-1
179.54,-2.79,-46.99,-394,-6066,5669,0,0,-1
179.55,-2.79,-46.97,-413,-6063,5675,0,0,-1
179.55,-2.80,-46.97,-417,-6065,5677,0,0,-1
179.55,-2.79,-46.96,-413,-6067,5669,0,-1,-1
179.56,-2.79,-46.96,-401,-6081,5657,0,-1,-1
179.57,-2.78,-46.94,-395,-6088,5652,0,0,-1
179.58,-2.78,-46.93,-384,-6073,5667,0,0,-1
179.58,-2.78,-46.92,-391,-6050,5664,0,0,-1
179.57,-2.79,-46.91,-401,-6047,5674,0,-1,0
179.57,-2.79,-46.90,-406,-6051,5678,0,-1,0
179.57,-2.79,-46.90,-403,-6055,5680,-1,-1,0
179.57,-2.79,-46.90,-397,-6067,5669,0,0,-1
179.57,-2.79,-46.90,-390,-6073,5645,0,0,0
179.57,-2.79,-46.90,-391,-6070,5662,0,0,0
179.57,-2.80,-46.89,-385,-6058,5663,0,0,0
179.57,-2.80,-46.89,-390,-6044,5677,-1,0,0
179.56,-2.82,-46.90,-406,-6051,5684,-1,0,0
179.56,-2.82,-46.92,-401,-6054,5677,-1,0,0
179.56,-2.83,-46.93,-393,-6061,5671,-1,0,0
179.55,-2.85,-46.95,-402,-6067,5670,-1,0,0
179.55,-2.86,-46.97,-398,-6064,5676,-1,0,0
179.55,-2.88,-46.98,-398,-6063,5677,-1,0,-1
179.54,-2.89,-47.00,-409,-6056,5662,-1,0,0
179.54,-2.92,-47.03,-422,-6073,5656,-1,0,0
179.53,-2.94,-47.05,-417,-6079,5644,-1,0,0
179.53,-2.95,-47.06,-425,-6067,5661,-1,1,-1
179.53,-2.97,-47.09,-436,-6076,5643,-1,0,0
179.52,-2.98,-47.10,-425,-6088,5636,-1,0,0
179.53,-2.99,-47.11,-433,-6091,5622,0,0,0
179.52,-3.00,-47.11,-427,-6094,5632,-1,0,0
179.52,-3.00,-47.11,-428,-6094,5634,0,0,0
179.52,-3.02,-47.10,-430,-6080,5647,0,0,-1
179.52,-3.02,-47.10,-435,-6084,5646,0,0,0
179.52,-3.03,-47.09,-437,-6076,5662,0,0,0
179.52,-3.03,-47.09,-427,-6080,5657,0,0,0
179.51,-3.04,-47.09,-421,-6080,5655,0,0,0
179.50,-3.05,-47.09,-433,-6082,5648,0,0,0
179.50,-3.06,-47.08,-445,-6085,5657,0,0,0
179.49,-3.08,-47.08,-445,-6088,5660,0,0,0
179.48,-3.08,-47.08,-460,-6090,5655,0,0,0
179.48,-3.09,-47.08,-452,-6093,5651,0,0,0
179.48,-3.09,-47.07,-450,-6075,5651,0,0,0
179.47,-3.10,-47.07,-440,-6070,5651,0,0,0
179.46,-3.12,-47.07,-436,-6068,5650,0,0,0
179.46,-3.12,-47.07,-432,-6066,5644,0,0,0
179.45,-3.13,-47.06,-443,-6066,5660,-1,0,0
179.44,-3.15,-47.06,-448,-6074,5666,-1,0,0
179.43,-3.15,-47.07,-452,-6089,5660,-1,0,0
179.42,-3.16,-47.08,-451,-6083,5661,-1,0,0
179.41,-3.16,-47.08,-450,-6069,5654,0,0,0
179.41,-3.17,-47.08,-451,-6076,5647,-1,0,0
179.39,-3.19,-47.09,-440,-6080,5644,0,0,0
179.38,-3.20,-47.08,-454,-6071,5652,-1,0,0
179.37,-3.21,-47.08,-467,-6070,5654,0,0,0
179.36,-3.23,-47.08,-467,-6074,5646,0,0,0
179.35,-3.23,-47.08,-462,-6068,5666,-1,0,0
179.33,-3.24,-47.09,-458,-6069,5665,-2,-1,0
179.32,-3.25,-47.11,-468,-6076,5634,0,0,0
179.31,-3.26,-47.11,-467,-6070,5638,-1,-1,0
179.31,-3.26,-47.12,-474,-6087,5626,0,-1,0
179.30,-3.26,-47.11,-481,-6092,5640,0,-1,0
179.30,-3.26,-47.11,-480,-6091,5636,0,-1,0
179.30,-3.25,-47.09,-489,-6087,5649,0,-1,-1
179.29,-3.24,-47.09,-477,-6089,5635,0,-1,0
179.29,-3.24,-47.08,-475,-6077,5632,0,-1,-1
179.30,-3.23,-47.06,-459,-6066,5656,0,-1,-1
179.30,-3.22,-47.06,-457,-6080,5659,-1,-1,0
179.30,-3.22,-47.06,-467,-6067,5664,0,-1,-1
179.30,-3.21,-47.07,-462,-6068,5661,-1,-1,0
179.30,-3.21,-47.07,-470,-6064,5661,-1,0,-1
179.30,-3.20,-47.08,-470,-6080,5639,-1,-1,0
179.30,-3.21,-47.08,-459,-6082,5641,-1,-1,0
179.30,-3.21,-47.08,-457,-6076,5637,-1,0,0
179.30,-3.21,-47.08,-440,-6055,5647,-1,0,0
179.28,-3.22,-47.10,-448,-6062,5645,-1,0,0
179.27,-3.24,-47.13,-458,-6080,5631,-1,0,0
179.26,-3.26,-47.14,-463,-6090,5651,-1,0,0
179.26,-3.26,-47.16,-472,-6096,5628,-1,0,-1
179.25,-3.28,-47.16,-469,-6091,5647,-1,0,0
179.25,-3.29,-47.17,-467,-6086,5642,-1,0,0
179.24,-3.30,-47.19,-470,-6084,5635,-1,0,0
179.23,-3.32,-47.19,-475,-6084,5650,-1,0,0
179.22,-3.34,-47.21,-490,-6092,5632,-1,0,0
179.21,-3.35,-47.22,-485,-6102,5645,-1,0,0
179.20,-3.36,-47.22,-484,-6097,5629,0,0,0
179.20,-3.37,-47.22,-493,-6092,5631,-1,0,0
179.19,-3.38,-47.22,-482,-6099,5622,0,0,0
179.19,-3.38,-47.21,-479,-6085,5623,0,0,0
179.19,-3.39,-47.21,-483,-6095,5623,0,0,0
179.18,-3.39,-47.20,-486,-6091,5639,0,-1,0
179.18,-3.39,-47.19,-488,-6096,5626,0,-1,0
179.17,-3.39,-47.18,-502,-6096,5623,0,-1,0
179.17,-3.38,-47.17,-482,-6095,5658,-1,-1,0
179.17,-3.38,-47.17,-488,-6095,5630,0,0,-1
179.17,-3.38,-47.16,-493,-6088,5647,0,-1,-1
179.17,-3.37,-47.15,-496,-6091,5634,0,-1,-1
179.18,-3.36,-47.14,-492,-6092,5647,0,-1,-1
179.19,-3.35,-47.12,-482,-6086,5649,0,-1,-1
179.20,-3.34,-47.11,-488,-6087,5649,0,-1,-1
179.20,-3.33,-47.10,-487,-6084,5648,0,-1,-1
179.20,-3.32,-47.09,-478,-6082,5665,0,-1,-1
179.21,-3.31,-47.09,-474,-6076,5670,0,-1,-1
179.22,-3.30,-47.08,-464,-6075,5674,0,-1,-1
179.22,-3.29,-47.08,-474,-6082,5672,-1,-1,-1
179.22,-3.28,-47.08,-472,-6079,5667,-1,-1,-1
179.23,-3.28,-47.09,-470,-6077,5653,-1,-1,-1
179.23,-3.28,-47.09,-473,-6081,5648,0,-1,-1
179.24,-3.27,-47.09,-484,-6084,5638,0,-1,-1
179.24,-3.27,-47.08,-476,-6080,5642,0,-1,-1
179.25,-3.26,-47.08,-475,-6075,5657,0,-1,-1
179.26,-3.24,-47.08,-471,-6078,5652,0,-1,-1
179.26,-3.24,-47.08,-470,-6070,5648,0,-1,-1
179.27,-3.24,-47.08,-465,-6064,5650,0,-1,-1
179.28,-3.23,-47.07,-460,-6071,5660,0,-1,-1
179.29,-3.22,-47.07,-456,-6080,5664,-1,-1,-1
179.30,-3.21,-47.07,-456,-6086,5659,0,-1,-1
179.30,-3.20,-47.08,-454,-6084,5653,-1,-1,-1
179.30,-3.20,-47.07,-460,-6082,5653,0,-1,-1
179.31,-3.20,-47.08,-461,-6087,5645,0,-1,-1
179.31,-3.19,-47.08,-456,-6088,5655,0,-1,-1
179.32,-3.18,-47.07,-449,-6082,5662,0,-1,-1
179.33,-3.18,-47.07,-452,-6076,5659,0,0,-1
179.33,-3.17,-47.07,-455,-6066,5655,-1,0,-1
179.34,-3.17,-47.08,-456,-6078,5653,-1,0,-1
179.34,-3.17,-47.08,-463,-6089,5647,-1,-1,-1
179.35,-3.16,-47.08,-450,-6086,5645,0,-1,-1
179.36,-3.15,-47.08,-445,-6079,5644,-1,-1,-1
179.36,-3.15,-47.08,-445,-6075,5655,-1,0,-1
179.36,-3.15,-47.08,-451,-6079,5654,-1,0,-1
179.36,-3.15,-47.08,-450,-6082,5657,-1,0,-1
179.37,-3.14,-47.09,-455,-6085,5650,-1,0,-1
179.37,-3.14,-47.09,-458,-6087,5655,-1,-1,-1
179.38,-3.14,-47.09,-454,-6082,5656,0,0,-1
179.39,-3.13,-47.09,-454,-6078,5654,0,-1,-1
179.39,-3.13,-47.09,-448,-6079,5653,0,-1,-1
179.39,-3.12,-47.09,-444,-6078,5653,0,-1,-1
179.40,-3.12,-47.09,-430,-6075,5645,0,0,-1
179.40,-3.12,-47.09,-426,-6077,5649,-1,0,-1
179.41,-3.11,-47.09,-432,-6070,5649,-1,-1,-1
179.41,-3.11,-47.09,-436,-6075,5654,-1,0,-1
179.41,-3.11,-47.10,-443,-6084,5646,-1,-1,0
179.41,-3.11,-47.10,-455,-6086,5647,-1,-1,-1
179.41,-3.11,-47.10,-459,-6082,5644,0,-1,-1
179.41,-3.11,-47.10,-454,-6086,5637,0,-1,-1
179.41,-3.10,-47.10,-446,-6097,5636,0,0,-1
179.42,-3.09,-47.10,-440,-6093,5642,0,-1,-1
179.42,-3.09,-47.10,-437,-6081,5648,0,-1,-1
179.42,-3.09,-47.10,-442,-6087,5648,-1,-1,-1
179.43,-3.09,-47.10,-441,-6080,5652,-1,0,-1
179.43,-3.09,-47.10,-443,-6075,5652,-1,0,-1
179.43,-3.09,-47.10,-443,-6079,5653,-1,-1,-1
179.43,-3.08,-47.11,-449,-6086,5646,-1,0,-1
179.43,-3.09,-47.11,-453,-6090,5642,-1,0,-1
179.43,-3.09,-47.12,-449,-6087,5635,-1,0,-1
179.43,-3.09,-47.12,-447,-6076,5642,0,-1,-1
179.43,-3.08,-47.12,-447,-6080,5642,0,-1,-1
179.44,-3.08,-47.12,-443,-6083,5650,0,-1,-1
179.44,-3.07,-47.11,-434,-6085,5646,0,-1,-1
179.44,-3.07,-47.11,-439,-6079,5644,0,-1,-1
179.45,-3.07,-47.11,-438,-6079,5653,-1,-1,-1
179.45,-3.07,-47.11,-445,-6082,5653,-1,0,-1
179.45,-3.07,-47.12,-441,-6089,5656,-1,-1,-1
179.45,-3.07,-47.12,-447,-6081,5642,-1,-1,-1
179.45,-3.06,-47.12,-441,-6081,5642,-1,0,-1
179.45,-3.06,-47.12,-439,-6080,5647,0,0,-1
179.45,-3.06,-47.12,-446,-6083,5649,0,0,-1
179.46,-3.06,-47.12,-446,-6083,5646,-1,-1,-1
179.46,-3.06,-47.13,-433,-6084,5632,-1,-1,-1
179.46,-3.06,-47.13,-428,-6083,5636,0,0,-1
179.46,-3.06,-47.13,-430,-6085,5642,0,0,-1
179.46,-3.06,-47.13,-436,-6078,5645,-1,-1,-1
179.46,-3.06,-47.13,-444,-6084,5660,-1,-1,-1
179.46,-3.05,-47.13,-440,-6093,5653,0,0,-1
179.47,-3.05,-47.13,-444,-6097,5642,0,-1,-1
179.47,-3.05,-47.13,-438,-6091,5645,0,-1,-1
179.47,-3.04,-47.13,-435,-6082,5650,0,-1,-1
179.47,-3.04,-47.13,-440,-6083,5639,0,-1,0
179.47,-3.04,-47.13,-440,-6085,5642,-1,0,0
179.47,-3.04,-47.13,-444,-6089,5652,0,0,-1
179.47,-3.05,-47.13,-449,-6083,5641,-1,0,-1
179.47,-3.05,-47.13,-455,-6087,5640,-1,-1,-1
179.47,-3.04,-47.13,-442,-6093,5642,0,-1,-1
179.47,-3.04,-47.13,-434,-6092,5638,0,-1,-1
179.47,-3.04,-47.12,-432,-6086,5649,0,-1,0
179.48,-3.03,-47.12,-428,-6081,5647,0,-1,-1
179.47,-3.04,-47.12,-432,-6081,5661,-1,0,0
179.47,-3.04,-47.12,-438,-6081,5660,-1,-1,0
179.47,-3.04,-47.13,-438,-6080,5649,-1,0,0
179.47,-3.04,-47.13,-438,-6084,5641,-1,-1,0
179.47,-3.04,-47.13,-440,-6090,5644,0,0,-1
179.47,-3.04,-47.13,-442,-6089,5644,0,-1,0
179.47,-3.04,-47.13,-440,-6080,5646,0,-1,-1
179.47,-3.04,-47.13,-441,-6083,5648,0,-1,-1
179.48,-3.03,-47.12,-432,-6085,5654,0,0,-1
179.48,-3.03,-47.12,-434,-6086,5660,0,-1,-1
179.48,-3.03,-47.12,-434,-6084,5653,0,0,-1
179.48,-3.03,-47.12,-436,-6083,5655,0,0,-1
179.48,-3.03,-47.12,-440,-6085,5649,-1,0,-1
179.48,-3.03,-47.12,-436,-6087,5652,-1,-1,0
179.47,-3.03,-47.13,-440,-6082,5650,-1,-1,0
179.47,-3.03,-47.13,-430,-6076,5641,-1,0,0
179.47,-3.03,-47.13,-439,-6084,5648,-1,0,0
179.47,-3.03,-47.13,-433,-6086,5638,0,0,-1
179.48,-3.03,-47.13,-441,-6092,5657,0,-1,-1
179.47,-3.03,-47.14,-437,-6097,5636,0,-1,-1
179.48,-3.03,-47.14,-442,-6085,5646,-1,-1,-1
179.48,-3.03,-47.13,-441,-6080,5641,0,0,-1
179.48,-3.03,-47.13,-435,-6083,5647,0,-1,-1
179.48,-3.03,-47.13,-436,-6078,5641,0,0,-1
179.48,-3.02,-47.13,-429,-6079,5645,0,-1,0
179.48,-3.02,-47.13,-426,-6075,5653,-1,-1,-1
179.48,-3.02,-47.13,-429,-6078,5648,-1,0,0
179.48,-3.02,-47.13,-432,-6086,5652,0,-1,-1
179.48,-3.02,-47.13,-429,-6084,5647,-1,-1,0
179.49,-3.01,-47.14,-436,-6089,5645,-1,-1,0
179.49,-3.01,-47.14,-440,-6092,5642,0,0,-1
179.49,-3.01,-47.14,-432,-6096,5641,0,-1,-1
179.49,-3.01,-47.13,-423,-6089,5644,0,-1,-1
179.49,-3.01,-47.13,-424,-6076,5647,0,-1,0
179.49,-3.01,-47.13,-425,-6077,5662,-1,-1,0
179.49,-3.01,-47.13,-433,-6080,5654,-1,0,0
179.49,-3.01,-47.13,-436,-6081,5648,-1,0,-1
179.49,-3.01,-47.13,-445,-6084,5638,-1,0,-1
179.49,-3.01,-47.13,-442,-6080,5636,0,-1,-1
179.50,-3.00,-47.13,-440,-6090,5645,0,-1,-1
179.50,-3.00,-47.13,-439,-6087,5645,0,-1,-1
179.50,-3.00,-47.12,-431,-6090,5656,0,-1,-1
179.50,-3.00,-47.12,-421,-6088,5650,0,0,-1
179.50,-3.00,-47.12,-426,-6084,5651,-1,-1,0
179.50,-3.00,-47.13,-426,-6080,5642,0,0,0
179.50,-3.00,-47.12,-425,-6083,5655,-1,-1,0
179.50,-2.99,-47.13,-429,-6089,5652,0,0,-1
179.50,-2.99,-47.13,-444,-6086,5649,0,-1,-1
179.50,-2.99,-47.13,-437,-6081,5635,0,-1,-1
179.50,-2.99,-47.13,-433,-6090,5640,0,-1,-1
179.51,-2.98,-47.12,-432,-6088,5639,0,-1,-1
179.51,-2.98,-47.12,-434,-6083,5652,0,-1,-1
179.51,-2.98,-47.12,-430,-6083,5656,0,0,-1
179.51,-2.98,-47.12,-428,-6086,5663,0,-1,-1
179.52,-2.97,-47.12,-429,-6086,5661,0,0,-1
179.52,-2.97,-47.11,-427,-6083,5669,-1,-1,-1
179.52,-2.97,-47.11,-422,-6082,5659,0,0,0
179.52,-2.97,-47.11,-426,-6077,5663,-1,-1,-1
179.52,-2.97,-47.11,-431,-6084,5649,-1,0,-1
179.52,-2.97,-47.11,-431,-6081,5643,0,0,-1
179.52,-2.97,-47.12,-432,-6087,5643,0,0,-1
179.52,-2.97,-47.12,-429,-6085,5639,0,0,-1
179.53,-2.97,-47.12,-425,-6088,5644,0,0,-1
179.53,-2.97,-47.12,-427,-6092,5646,0,0,-1
179.53,-2.97,-47.11,-429,-6085,5658,0,0,-1
179.53,-2.97,-47.11,-422,-6078,5648,0,0,-1
179.53,-2.97,-47.11,-428,-6077,5651,-1,0,-1
179.53,-2.97,-47.11,-426,-6076,5647,0,-1,-1
179.53,-2.97,-47.11,-422,-6087,5652,0,-1,0
179.53,-2.97,-47.11,-421,-6084,5658,-1,0,0
179.53,-2.97,-47.11,-427,-6082,5655,-1,0,0
179.52,-2.98,-47.12,-428,-6087,5641,0,0,-1
179.52,-2.98,-47.11,-432,-6089,5652,0,0,-1
179.53,-2.97,-47.11,-420,-6087,5637,0,-1,-1
179.53,-2.97,-47.11,-422,-6076,5641,-1,-1,0
179.52,-2.97,-47.11,-426,-6079,5633,0,0,0
179.52,-2.97,-47.11,-424,-6082,5650,0,0,0
179.52,-2.97,-47.11,-430,-6087,5643,0,0,0
179.52,-2.97,-47.11,-428,-6092,5648,-1,-1,-1
179.52,-2.97,-47.11,-427,-6084,5641,0,0,-1
179.52,-2.97,-47.11,-434,-6080,5641,0,0,-1
179.52,-2.97,-47.11,-430,-6083,5637,0,-1,0
179.52,-2.97,-47.11,-424,-6086,5645,-1,-1,0
179.52,-2.97,-47.11,-417,-6090,5641,0,0,0
179.51,-2.98,-47.11,-424,-6089,5647,0,0,0
179.51,-2.98,-47.11,-425,-6084,5650,-1,0,0
179.51,-2.98,-47.12,-426,-6084,5644,-1,0,0
179.51,-2.98,-47.12,-431,-6087,5645,0,0,0
179.51,-2.98,-47.12,-436,-6083,5643,0,0,0
179.51,-2.98,-47.12,-431,-6087,5639,0,0,-1
179.51,-2.98,-47.12,-432,-6095,5640,0,-1,-1
179.51,-2.98,-47.12,-431,-6087,5642,0,0,-1
179.51,-2.98,-47.11,-430,-6087,5650,0,0,-1
179.51,-2.98,-47.11,-421,-6081,5651,0,0,0
179.51,-2.98,-47.11,-417,-6086,5653,0,-1,0
179.51,-2.98,-47.11,-417,-6090,5656,-1,0,0
179.51,-2.98,-47.11,-418,-6089,5652,0,0,0
179.51,-2.99,-47.11,-426,-6090,5650,0,-1,0
179.51,-2.99,-47.11,-424,-6083,5652,0,0,-1
179.50,-2.98,-47.11,-428,-6090,5653,-1,-1,0
179.50,-2.99,-47.11,-425,-6089,5652,-1,0,0
179.50,-2.99,-47.12,-431,-6091,5644,0,0,0
179.50,-2.99,-47.11,-433,-6087,5649,0,-1,0
179.49,-2.99,-47.11,-433,-6092,5646,0,-1,0
179.49,-2.99,-47.10,-426,-6085,5654,0,-1,0
179.49,-2.99,-47.10,-427,-6089,5660,0,0,0
179.49,-2.99,-47.10,-430,-6079,5649,0,0,0
179.49,-2.99,-47.10,-428,-6084,5645,-1,-1,0
179.50,-2.98,-47.10,-425,-6082,5650,0,-1,-1
179.49,-2.99,-47.10,-414,-6087,5649,0,0,0
179.49,-2.99,-47.10,-418,-6087,5652,0,0,0
179.48,-2.99,-47.10,-427,-6087,5651,-1,-1,0
179.48,-3.00,-47.10,-432,-6081,5659,-1,0,0
179.48,-2.99,-47.10,-434,-6083,5650,0,-1,0
179.48,-2.99,-47.09,-424,-6075,5652,0,-1,0
179.48,-2.99,-47.09,-421,-6065,5652,0,-1,0
179.48,-2.99,-47.09,-422,-6067,5658,-1,0,0
179.48,-2.99,-47.09,-428,-6081,5665,-1,0,0
179.47,-3.00,-47.09,-437,-6090,5673,0,0,0
179.47,-3.00,-47.09,-438,-6097,5660,0,0,0
179.47,-3.00,-47.09,-441,-6088,5655,0,-1,-1
179.47,-3.00,-47.09,-425,-6081,5642,0,0,-1
179.47,-3.00,-47.08,-434,-6090,5650,-1,-1,0
179.47,-3.00,-47.08,-425,-6084,5652,0,-1,0
179.46,-3.00,-47.08,-428,-6073,5648,0,-1,0
179.46,-3.00,-47.07,-429,-6070,5660,0,0,0
179.47,-2.99,-47.06,-426,-6073,5657,-1,-1,0
179.46,-3.00,-47.06,-435,-6080,5661,-1,0,0
179.46,-3.00,-47.06,-434,-6078,5659,-1,0,0
179.45,-3.01,-47.06,-437,-6079,5660,0,0,0
179.45,-3.01,-47.06,-438,-6084,5664,0,-1,0
179.45,-3.01,-47.05,-443,-6078,5658,0,0,0
179.44,-3.01,-47.05,-436,-6085,5643,-1,-1,0
179.44,-3.01,-47.05,-431,-6081,5639,0,0,0
179.44,-3.01,-47.05,-429,-6076,5651,0,-1,0
179.44,-3.01,-47.05,-425,-6073,5653,0,0,0
179.44,-3.01,-47.05,-429,-6072,5652,0,0,0
179.44,-3.01,-47.04,-430,-6072,5658,0,0,0
179.44,-3.02,-47.04,-432,-6070,5651,0,0,0
179.44,-3.02,-47.04,-431,-6070,5658,0,-1,0
179.44,-3.02,-47.04,-429,-6080,5655,-1,-1,0
179.43,-3.02,-47.04,-436,-6081,5656,-1,-1,0
179.43,-3.02,-47.04,-429,-6079,5651,0,0,0
179.42,-3.03,-47.04,-432,-6078,5655,0,0,0
179.42,-3.03,-47.03,-432,-6080,5643,0,0,0
179.42,-3.03,-47.03,-447,-6087,5653,-1,-1,0
179.42,-3.03,-47.02,-445,-6086,5653,0,-1,0
179.42,-3.03,-47.02,-438,-6078,5658,0,0,0
179.42,-3.03,-47.02,-434,-6070,5663,-1,-1,0
179.41,-3.04,-47.02,-432,-6074,5665,0,-1,0
179.41,-3.04,-47.02,-431,-6073,5666,0,-1,0
179.41,-3.04,-47.02,-433,-6080,5667,0,0,0
179.40,-3.04,-47.01,-429,-6075,5665,0,-1,0
179.40,-3.04,-47.01,-437,-6073,5669,0,-1,0
179.40,-3.04,-47.01,-443,-6071,5665,0,0,0
179.39,-3.05,-47.01,-448,-6073,5665,-1,-1,0
179.39,-3.05,-47.02,-452,-6080,5653,0,0,-1
179.39,-3.05,-47.01,-450,-6077,5658,0,-1,0
179.38,-3.05,-47.01,-439,-6073,5656,0,-1,0
179.38,-3.05,-47.00,-431,-6058,5658,-1,-1,0
179.37,-3.06,-47.00,-436,-6064,5664,0,0,0
179.38,-3.06,-46.99,-442,-6066,5666,0,0,0
179.37,-3.06,-46.99,-445,-6066,5671,-1,0,0
179.37,-3.07,-47.00,-447,-6070,5660,-1,-1,0
179.37,-3.07,-47.00,-452,-6076,5660,-1,-1,0
179.37,-3.07,-47.00,-450,-6081,5645,0,-1,0
179.37,-3.07,-47.00,-444,-6078,5646,0,0,0
179.37,-3.06,-46.99,-435,-6065,5666,0,-1,0
179.37,-3.06,-46.98,-434,-6066,5662,0,0,-1
179.36,-3.06,-46.98,-438,-6073,5664,-1,-1,0
179.37,-3.06,-46.99,-438,-6069,5663,-1,-1,-1
179.37,-3.06,-46.99,-441,-6071,5649,-1,-1,-1
179.36,-3.06,-47.00,-436,-6081,5649,-1,-1,-1
179.37,-3.05,-47.00,-432,-6072,5651,0,-1,-1
179.37,-3.05,-46.99,-431,-6065,5651,0,-1,-1
179.38,-3.04,-46.99,-434,-6065,5664,-1,-1,-1
179.38,-3.04,-46.99,-438,-6064,5664,-1,-1,-1
179.38,-3.04,-46.99,-441,-6073,5670,0,0,-1
179.38,-3.04,-47.00,-438,-6080,5663,0,0,-1
179.38,-3.04,-47.00,-436,-6074,5672,-1,-1,-1
179.39,-3.03,-47.00,-438,-6066,5662,0,-1,-1
179.39,-3.03,-46.99,-441,-6062,5656,0,0,-1
179.39,-3.03,-47.00,-441,-6065,5655,-1,-1,-1
179.39,-3.03,-47.00,-434,-6070,5666,-1,0,-1
179.39,-3.03,-47.00,-431,-6074,5672,-1,0,-1
179.39,-3.03,-47.00,-431,-6073,5668,-1,0,-1
179.39,-3.03,-47.01,-434,-6073,5664,-1,0,-1
179.39,-3.03,-47.01,-438,-6077,5669,-1,-1,-1
179.40,-3.02,-47.01,-439,-6075,5663,0,0,-1
179.40,-3.02,-47.01,-443,-6075,5673,-1,0,-1
179.40,-3.02,-47.01,-443,-6075,5663,0,-1,-1
179.41,-3.02,-47.01,-439,-6077,5661,-1,0,-1
179.41,-3.02,-47.01,-430,-6078,5650,-1,-1,-1
179.41,-3.02,-47.01,-430,-6072,5654,-1,0,-1
179.41,-3.01,-47.01,-426,-6071,5667,-1,0,-1
179.41,-3.01,-47.01,-429,-6065,5661,0,0,-1
179.42,-3.01,-47.01,-434,-6074,5665,-1,-1,-1
179.42,-3.01,-47.01,-434,-6074,5661,-1,0,-1
179.42,-3.01,-47.01,-441,-6075,5656,0,0,-1
179.42,-3.01,-47.01,-438,-6070,5664,-1,-1,-1
179.42,-3.01,-47.01,-439,-6075,5661,-1,0,-1
179.43,-3.00,-47.02,-433,-6079,5659,0,-1,-1
179.44,-3.00,-47.01,-423,-6076,5659,0,-1,-1
179.44,-2.99,-47.01,-421,-6070,5664,-1,-1,-1
179.44,-2.99,-47.01,-425,-6076,5656,-1,0,0
179.44,-3.00,-47.02,-431,-6080,5658,-1,0,-1
179.44,-3.00,-47.02,-432,-6080,5660,-1,0,-1
179.44,-2.99,-47.03,-436,-6084,5653,-1,0,-1
179.44,-2.99,-47.03,-438,-6076,5650,-1,0,-1
179.44,-2.99,-47.04,-435,-6079,5648,0,-1,-1
179.45,-2.99,-47.03,-428,-6078,5656,0,-1,-1
179.45,-2.99,-47.03,-426,-6067,5664,0,0,-1
179.45,-2.99,-47.02,-423,-6062,5669,0,0,-1
179.45,-2.99,-47.02,-424,-6060,5669,-1,0,0
179.45,-2.99,-47.03,-426,-6062,5664,-1,0,0
179.45,-2.99,-47.03,-434,-6070,5663,-1,0,0
179.45,-2.99,-47.04,-432,-6072,5664,-1,0,-1
179.45,-2.99,-47.04,-436,-6075,5664,-1,0,-1
179.46,-2.98,-47.04,-428,-6084,5663,-1,0,-1
179.45,-2.99,-47.04,-428,-6079,5654,-1,0,-1
179.45,-2.99,-47.04,-428,-6081,5655,0,0,-1
179.45,-2.99,-47.04,-430,-6070,5664,0,0,-1
179.46,-2.99,-47.03,-432,-6069,5668,-1,0,-1
179.46,-2.99,-47.04,-434,-6077,5658,-1,-1,-1
179.46,-2.99,-47.04,-425,-6081,5655,-1,-1,-1
179.46,-2.98,-47.04,-420,-6079,5656,0,0,-1
179.47,-2.98,-47.04,-426,-6068,5658,0,0,-1
179.47,-2.98,-47.04,-426,-6063,5658,0,0,-1
179.47,-2.98,-47.04,-433,-6069,5662,-1,-1,0
179.47,-2.98,-47.04,-430,-6075,5656,-1,0,0
179.47,-2.98,-47.05,-435,-6077,5642,-1,0,-1
179.47,-2.98,-47.05,-445,-6080,5648,0,-1,-1
179.46,-2.99,-47.05,-445,-6081,5656,0,-1,-1
179.46,-2.99,-47.05,-442,-6080,5651,0,0,-1
179.47,-2.99,-47.04,-433,-6074,5657,0,0,-1
179.47,-2.99,-47.04,-433,-6078,5661,-1,0,-1
179.47,-2.99,-47.05,-423,-6067,5658,-1,0,-1
179.47,-2.99,-47.05,-427,-6064,5653,-1,0,-1
179.48,-2.98,-47.05,-421,-6071,5658,-1,-1,-1
179.48,-2.98,-47.05,-420,-6068,5653,0,0,0
179.48,-2.98,-47.05,-421,-6066,5660,-1,0,-1
179.48,-2.98,-47.05,-430,-6077,5651,-1,0,0
179.48,-2.98,-47.05,-436,-6082,5651,-1,0,-1
179.48,-2.98,-47.05,-435,-6074,5654,0,0,-1
179.48,-2.98,-47.05,-430,-6064,5650,0,0,-1
179.48,-2.98,-47.05,-424,-6057,5653,-1,-1,0
179.48,-2.98,-47.05,-428,-6067,5661,-1,0,-1
179.47,-2.99,-47.05,-440,-6078,5665,-1,0,0
179.47,-2.99,-47.05,-440,-6079,5674,-1,0,-1
179.48,-2.99,-47.05,-432,-6077,5664,-1,0,-1
179.48,-2.99,-47.05,-426,-6082,5646,-1,0,-1
179.49,-2.98,-47.05,-423,-6080,5652,0,-1,-1
179.49,-2.98,-47.05,-415,-6077,5651,0,0,-1
179.50,-2.97,-47.05,-415,-6076,5662,0,0,-1
179.50,-2.97,-47.05,-415,-6077,5663,-1,0,0
179.50,-2.97,-47.05,-416,-6075,5663,-1,0,-1
179.50,-2.97,-47.05,-421,-6085,5658,-1,-1,0
179.50,-2.97,-47.06,-425,-6084,5651,-1,0,0
179.50,-2.98,-47.06,-429,-6077,5646,0,0,-1
179.50,-2.98,-47.05,-430,-6077,5656,0,-1,-1
179.50,-2.98,-47.05,-432,-6077,5671,0,0,-1
179.50,-2.97,-47.05,-429,-6080,5652,-1,0,-1
179.50,-2.97,-47.05,-437,-6075,5650,-1,0,-1
179.51,-2.98,-47.06,-439,-6077,5648,-1,0,-1
179.51,-2.98,-47.06,-430,-6075,5658,-1,0,-1
179.51,-2.97,-47.06,-429,-6076,5654,0,0,-1
179.52,-2.97,-47.05,-421,-6075,5657,0,0,-1
179.52,-2.97,-47.05,-427,-6068,5667,-1,0,0
179.52,-2.97,-47.05,-429,-6067,5660,-1,0,-1
179.52,-2.97,-47.05,-426,-6073,5652,-1,0,-1
