Yaw,Pitch,Roll,AX,AY,AZ,GX,GY,GZ
-167.96,149.82,-117.99,4160,-6423,-3549,7,7,-4
-167.64,149.60,-117.69,4208,-6438,-3495,7,9,-5
-167.32,149.39,-117.38,4241,-6426,-3447,8,9,-4
-166.96,149.14,-117.04,4227,-6283,-3182,4,10,-6
-166.76,148.97,-116.90,4238,-6306,-3114,0,3,-3
-166.62,148.83,-116.82,4362,-6347,-3173,1,5,-3
-166.55,148.74,-116.76,4349,-6354,-3137,-1,2,-1
-166.51,148.69,-116.72,4339,-6387,-3210,0,3,-2
-166.39,148.59,-116.64,4295,-6402,-3295,3,4,-4
-166.17,148.41,-116.50,4415,-6385,-3179,0,6,-3
-166.10,148.31,-116.45,4393,-6369,-3149,-1,2,-2
-166.06,148.23,-116.42,4400,-6378,-3185,-1,4,-2
-165.98,148.13,-116.33,4403,-6362,-3155,0,4,-1
-165.92,148.06,-116.26,4403,-6377,-3150,0,4,-1
-165.85,147.99,-116.18,4370,-6387,-3205,1,3,-2
-165.73,147.88,-116.07,4436,-6387,-3114,0,5,-2
-165.64,147.78,-116.00,4435,-6375,-3106,0,4,-2
-165.55,147.67,-115.94,4446,-6365,-3100,0,4,-3
-165.48,147.57,-115.90,4461,-6372,-3092,-1,3,-3
-165.40,147.46,-115.86,4476,-6367,-3102,-1,4,-3
-165.32,147.35,-115.81,4484,-6343,-3086,-1,4,-3
-165.24,147.25,-115.76,4499,-6332,-3058,0,4,-2
-165.19,147.19,-115.71,4502,-6332,-3050,-1,2,-1
-165.14,147.13,-115.67,4518,-6341,-3062,0,3,-2
-165.07,147.05,-115.60,4531,-6341,-3068,1,4,-2
-164.97,146.97,-115.51,4537,-6341,-3042,0,3,-2
-164.89,146.90,-115.42,4545,-6332,-3014,1,3,-1
-164.82,146.84,-115.34,4557,-6324,-2988,1,2,-1
-164.74,146.78,-115.26,4560,-6328,-2984,1,2,-1
-164.70,146.76,-115.21,4557,-6321,-2935,0,0,0
-164.71,146.77,-115.23,4568,-6332,-2970,-1,-1,0
-164.71,146.77,-115.24,4579,-6327,-2970,0,-1,0
-164.73,146.80,-115.26,4576,-6325,-2978,-1,-2,0
-164.76,146.83,-115.27,4568,-6317,-2968,-1,-2,0
-164.80,146.88,-115.30,4566,-6333,-2990,-1,-2,0
-164.84,146.92,-115.31,4572,-6340,-2996,0,-2,0
-164.86,146.95,-115.33,4569,-6345,-3004,-1,-2,0
-164.90,146.98,-115.36,4558,-6341,-2993,-1,-2,0
-164.93,147.01,-115.40,4555,-6336,-3008,-1,-2,0
-164.95,147.04,-115.42,4545,-6326,-3000,-1,-2,0
-165.01,147.11,-115.47,4535,-6333,-2992,-1,-4,1
-165.10,147.19,-115.55,4526,-6339,-3012,-1,-5,1
-165.17,147.25,-115.63,4488,-6347,-3022,-1,-4,0
-165.20,147.30,-115.68,4534,-6344,-3036,-1,-4,0
-165.27,147.36,-115.75,4542,-6349,-3075,-1,-3,0
-165.31,147.41,-115.80,4522,-6353,-3060,-1,-4,0
-165.39,147.48,-115.88,4507,-6343,-3060,-2,-5,1
-165.47,147.56,-115.97,4500,-6346,-3085,-1,-4,1
-165.55,147.63,-116.04,4496,-6350,-3094,-1,-4,1
-165.60,147.69,-116.10,4491,-6358,-3109,-1,-3,0
-165.66,147.75,-116.15,4477,-6349,-3099,-2,-4,0
-165.73,147.82,-116.22,4470,-6354,-3119,-1,-4,0
-165.78,147.88,-116.27,4456,-6350,-3132,-1,-3,0
-165.83,147.94,-116.33,4444,-6339,-3112,-1,-4,1
-165.91,148.01,-116.41,4434,-6346,-3143,-1,-4,1
-165.97,148.06,-116.45,4438,-6352,-3168,-1,-2,0
-166.00,148.11,-116.48,4430,-6360,-3172,-1,-2,0
-166.03,148.14,-116.51,4416,-6360,-3162,-1,-2,0
-166.07,148.18,-116.55,4404,-6364,-3168,-1,-3,0
-166.11,148.23,-116.60,4400,-6358,-3172,-1,-3,0
-166.16,148.28,-116.64,4400,-6360,-3182,-1,-3,0
-166.21,148.33,-116.68,4395,-6351,-3185,-1,-3,0
-166.27,148.38,-116.75,4392,-6359,-3202,-1,-3,0
-166.30,148.42,-116.78,4392,-6371,-3226,-1,-2,0
-166.33,148.44,-116.81,4390,-6362,-3207,-1,-2,0
-166.37,148.48,-116.86,4388,-6368,-3231,-1,-2,0
-166.40,148.50,-116.88,4382,-6373,-3236,-1,-1,0
-166.40,148.51,-116.89,4383,-6367,-3239,0,-1,0
-166.40,148.52,-116.88,4376,-6360,-3222,-1,-1,0
-166.41,148.52,-116.89,4373,-6368,-3225,0,-1,0
-166.42,148.54,-116.89,4371,-6369,-3223,-1,-1,0
-166.42,148.54,-116.90,4375,-6372,-3227,0,-1,0
-166.43,148.55,-116.90,4372,-6368,-3233,-1,-1,0
-166.44,148.56,-116.91,4373,-6361,-3246,0,-1,0
-166.44,148.56,-116.92,4367,-6365,-3236,0,-1,0
-166.45,148.58,-116.92,4362,-6365,-3237,-1,-1,0
-166.46,148.58,-116.92,4366,-6366,-3235,-1,-1,0
-166.47,148.60,-116.93,4364,-6366,-3245,-1,-1,0
-166.49,148.62,-116.94,4358,-6364,-3246,-1,-1,0
-166.50,148.63,-116.96,4357,-6368,-3242,-1,-1,0
-166.52,148.66,-116.97,4357,-6373,-3245,-1,-2,0
-166.54,148.69,-117.00,4355,-6368,-3234,-1,-2,0
-166.58,148.72,-117.04,4355,-6373,-3259,-1,-2,0
-166.60,148.75,-117.06,4349,-6371,-3258,-1,-2,0
-166.63,148.79,-117.08,4342,-6370,-3253,-1,-2,0
-166.67,148.82,-117.12,4335,-6374,-3253,-1,-2,0
-166.69,148.75,-117.14,4273,-6275,-3025,-8,5,-3
-166.91,148.73,-117.48,4378,-6307,-3142,-13,-5,0
-167.18,148.82,-117.79,4367,-6406,-3538,-4,-2,0
-167.17,148.83,-117.76,4364,-6414,-3555,4,1,0
-167.08,148.83,-117.63,4336,-6349,-3323,1,0,0
-167.11,148.83,-117.67,4330,-6325,-3238,-4,-2,0
-167.20,148.86,-117.78,4343,-6349,-3341,-3,-2,0
-167.24,148.89,-117.81,4333,-6357,-3391,0,-1,0
-167.22,148.90,-117.79,4328,-6339,-3316,-1,-1,0
-167.28,148.93,-117.84,4324,-6321,-3291,-2,-2,0
-167.35,148.96,-117.92,4323,-6339,-3341,-2,-2,0
-167.40,148.99,-117.97,4313,-6346,-3371,-1,-2,0
-167.43,149.02,-118.00,4313,-6340,-3373,-1,-1,0
-167.47,149.03,-118.04,4312,-6339,-3383,-2,-1,0
-167.51,149.06,-118.07,4313,-6338,-3399,-1,-1,0
-167.53,149.07,-118.09,4310,-6341,-3402,-1,-1,0
-167.55,149.09,-118.11,4310,-6346,-3384,-1,-1,0
-167.58,149.10,-118.13,4304,-6338,-3374,-1,-1,0
-167.60,149.12,-118.15,4299,-6341,-3373,-1,-1,0
-167.63,149.14,-118.18,4289,-6344,-3377,-1,-1,0
-167.65,149.15,-118.20,4290,-6339,-3388,-1,-1,0
-167.68,149.17,-118.23,4295,-6332,-3395,-1,-1,0
-167.71,149.18,-118.26,4296,-6330,-3402,-1,-1,0
-167.74,149.20,-118.29,4294,-6330,-3393,-1,-1,0
-167.76,149.21,-118.31,4291,-6334,-3393,-1,-1,0
-167.78,149.22,-118.32,4291,-6327,-3400,-1,-1,0
-167.81,149.24,-118.35,4287,-6325,-3414,-1,-1,0
-167.82,149.25,-118.37,4292,-6330,-3405,-1,-1,0
-167.84,149.26,-118.39,4289,-6340,-3407,-1,-1,0
-167.87,149.28,-118.41,4280,-6341,-3420,-1,-1,0
-167.87,149.28,-118.41,4282,-6343,-3421,0,-1,0
-167.87,149.29,-118.41,4278,-6334,-3414,-1,-1,0
-167.90,149.30,-118.43,4283,-6330,-3404,-1,-1,0
-167.92,149.31,-118.45,4279,-6331,-3417,-1,-1,0
-167.94,149.32,-118.47,4272,-6330,-3443,-1,-1,0
-167.95,149.33,-118.48,4272,-6330,-3430,0,-1,0
-167.96,149.34,-118.48,4266,-6332,-3420,-1,-1,0
-167.97,149.35,-118.49,4272,-6340,-3429,-1,-1,0
-167.98,149.35,-118.50,4273,-6342,-3421,-1,-1,0
-167.98,149.35,-118.50,4267,-6334,-3420,-1,-1,0
-168.00,149.37,-118.52,4267,-6333,-3427,-1,-1,0
-168.03,149.38,-118.54,4266,-6331,-3441,-1,-1,0
-168.04,149.39,-118.56,4266,-6329,-3446,-1,-1,0
-168.05,149.40,-118.57,4274,-6330,-3451,-1,-1,0
-168.07,149.41,-118.59,4274,-6331,-3450,-1,-1,0
-168.08,149.41,-118.60,4269,-6328,-3454,-1,-1,0
-168.09,149.42,-118.61,4266,-6326,-3442,-1,-1,0
-168.11,149.43,-118.63,4257,-6333,-3452,-1,-1,0
-168.11,149.44,-118.63,4260,-6325,-3456,-1,-1,0
-168.13,149.45,-118.64,4255,-6329,-3448,-1,-1,0
-168.15,149.46,-118.65,4264,-6329,-3454,-1,-1,0
-168.16,149.46,-118.66,4262,-6329,-3460,-1,-1,0
-168.16,149.47,-118.67,4262,-6326,-3456,-1,-1,0
-168.16,149.47,-118.68,4265,-6322,-3453,-1,-1,0
-168.17,149.46,-118.68,4258,-6323,-3449,-1,-1,0
-168.18,149.47,-118.69,4246,-6320,-3447,-1,-1,0
-168.19,149.48,-118.71,4249,-6325,-3460,-1,-1,0
-168.22,149.50,-118.72,4243,-6330,-3459,-1,-1,0
-168.22,149.50,-118.72,4244,-6331,-3463,-1,-1,0
-168.23,149.50,-118.74,4258,-6327,-3470,-1,-1,0
-168.24,149.51,-118.75,4251,-6329,-3472,-1,-1,0
-168.25,149.52,-118.75,4248,-6328,-3477,-1,-1,0
-168.26,149.52,-118.76,4253,-6331,-3475,-1,-1,0
-168.27,149.53,-118.77,4248,-6330,-3479,-1,-1,0
-168.28,149.54,-118.77,4248,-6329,-3466,-1,-1,0
-168.28,149.54,-118.77,4245,-6323,-3471,-1,-1,0
-168.28,149.54,-118.77,4254,-6325,-3465,-1,-1,0
-168.30,149.55,-118.79,4246,-6321,-3483,-1,-1,0
-168.31,149.55,-118.80,4250,-6325,-3490,0,0,0
-168.30,149.56,-118.80,4245,-6322,-3484,0,0,0
-168.30,149.55,-118.79,4245,-6315,-3459,-1,-1,0
-168.32,149.56,-118.81,4244,-6317,-3460,-1,-1,0
-168.33,149.56,-118.83,4242,-6325,-3488,-1,-1,0
-168.33,149.56,-118.83,4244,-6332,-3495,0,0,0
-168.33,149.57,-118.82,4236,-6326,-3475,0,0,0
-168.33,149.57,-118.82,4239,-6326,-3456,-1,-1,0
-168.35,149.58,-118.84,4244,-6327,-3483,-1,-1,0
-168.37,149.59,-118.86,4247,-6327,-3496,-1,-1,0
-168.37,149.59,-118.87,4233,-6328,-3492,-1,-1,0
-168.38,149.60,-118.87,4230,-6323,-3489,-1,-1,0
-168.38,149.60,-118.87,4236,-6321,-3485,-1,-1,0
-168.39,149.61,-118.88,4244,-6324,-3492,-1,-1,0
-168.39,149.60,-118.88,4247,-6333,-3510,-1,0,0
-168.39,149.61,-118.88,4244,-6329,-3501,0,0,-1
-168.38,149.60,-118.87,4238,-6323,-3489,0,0,-1
-168.38,149.60,-118.86,4238,-6325,-3473,-1,-1,0
-168.38,149.60,-118.87,4243,-6320,-3488,-1,-1,0
-168.39,149.60,-118.88,4235,-6327,-3493,-1,-1,0
-168.40,149.61,-118.89,4239,-6330,-3494,-1,-1,0
-168.41,149.61,-118.90,4242,-6328,-3497,-1,-1,0
-168.41,149.62,-118.90,4240,-6323,-3489,-1,-1,0
-168.40,149.61,-118.90,4240,-6317,-3479,-1,-1,0
-168.41,149.61,-118.90,4240,-6316,-3488,0,-1,0
-168.42,149.62,-118.91,4234,-6313,-3494,-1,-1,0
-168.43,149.63,-118.92,4234,-6320,-3518,0,0,0
-168.43,149.63,-118.91,4232,-6330,-3507,0,0,0
-168.42,149.62,-118.90,4233,-6332,-3502,0,0,-1
-168.41,149.62,-118.90,4233,-6326,-3486,-1,0,0
-168.42,149.62,-118.91,4235,-6323,-3480,-1,0,-1
-168.42,149.62,-118.91,4231,-6322,-3489,-1,0,0
-168.41,149.61,-118.90,4236,-6320,-3484,0,0,-1
-168.41,149.61,-118.90,4236,-6324,-3490,0,0,-1
-168.41,149.60,-118.90,4241,-6320,-3500,-1,0,0
-168.40,149.60,-118.90,4236,-6328,-3505,0,0,-1
-168.39,149.60,-118.88,4236,-6332,-3492,0,0,-1
-168.37,149.58,-118.87,4233,-6323,-3494,0,0,-1
-168.36,149.57,-118.85,4245,-6310,-3487,0,0,0
-168.36,149.57,-118.86,4246,-6315,-3477,-1,0,0
-168.36,149.57,-118.85,4245,-6325,-3481,0,0,0
-168.35,149.57,-118.84,4243,-6329,-3485,0,0,0
-168.35,149.57,-118.84,4240,-6328,-3470,-1,-1,-1
-168.36,149.57,-118.85,4243,-6329,-3479,-1,-1,0
-168.36,149.57,-118.86,4244,-6330,-3497,0,-1,0
-168.36,149.58,-118.85,4242,-6319,-3484,-1,-1,0
-168.37,149.58,-118.87,4242,-6326,-3485,-1,-1,0
-168.39,149.59,-118.89,4238,-6331,-3503,-1,0,0
-168.38,149.58,-118.87,4237,-6326,-3493,0,0,0
-168.38,149.59,-118.87,4233,-6320,-3483,0,0,-1
-168.38,149.58,-118.87,4235,-6322,-3473,-1,-1,0
-168.39,149.59,-118.89,4241,-6328,-3486,-1,-1,-1
-168.39,149.59,-118.89,4235,-6327,-3490,0,-1,0
-168.40,149.60,-118.88,4233,-6333,-3475,-1,-1,0
-168.41,149.60,-118.90,4228,-6332,-3485,-1,-1,0
-168.41,149.60,-118.89,4240,-6332,-3496,0,-1,0
-168.41,149.60,-118.90,4236,-6332,-3489,-1,-1,0
-168.41,149.60,-118.90,4238,-6321,-3481,-1,-1,0
-168.41,149.61,-118.90,4238,-6326,-3484,-1,-1,0
-168.42,149.61,-118.90,4238,-6330,-3480,-1,-1,0
-168.42,149.61,-118.90,4241,-6325,-3478,0,-1,0
-168.42,149.61,-118.91,4240,-6326,-3474,-1,-1,0
-168.44,149.62,-118.92,4244,-6327,-3484,-1,-1,0
-168.45,149.62,-118.94,4243,-6330,-3506,-1,-1,0
-168.45,149.62,-118.94,4236,-6327,-3507,0,0,0
-168.45,149.63,-118.94,4229,-6321,-3488,-1,-1,0
-168.46,149.63,-118.94,4233,-6318,-3496,-1,-1,0
-168.47,149.64,-118.96,4219,-6323,-3499,-1,-1,0
-168.48,149.65,-118.96,4222,-6324,-3507,0,-1,0
-168.47,149.65,-118.95,4228,-6327,-3501,0,-1,0
-168.48,149.65,-118.95,4229,-6325,-3494,-1,-1,0
-168.48,149.65,-118.95,4231,-6322,-3504,0,0,-1
-168.47,149.65,-118.95,4229,-6321,-3487,0,0,0
-168.47,149.65,-118.95,4227,-6318,-3473,-1,-1,0
-168.49,149.66,-118.96,4225,-6312,-3492,-1,-1,0
-168.50,149.66,-118.98,4232,-6318,-3496,-1,-1,0
-168.50,149.67,-118.98,4235,-6318,-3508,0,-1,0
-168.50,149.67,-118.98,4239,-6313,-3502,-1,-1,0
-168.51,149.67,-118.99,4233,-6320,-3495,-1,-1,0
-168.52,149.68,-119.00,4228,-6322,-3508,-1,-1,0
-168.53,149.68,-119.00,4228,-6325,-3495,-1,-1,0
-168.53,149.68,-119.01,4229,-6331,-3495,-1,-1,0
-168.55,149.69,-119.01,4232,-6332,-3505,0,-1,0
-168.54,149.69,-119.00,4231,-6326,-3504,0,-1,0
-168.55,149.70,-119.01,4229,-6319,-3500,-1,-1,0
-168.55,149.70,-119.02,4226,-6319,-3501,-1,-1,0
-168.56,149.71,-119.03,4225,-6326,-3506,-1,-1,0
-168.57,149.71,-119.03,4227,-6324,-3500,-1,-1,0
-168.58,149.72,-119.04,4228,-6319,-3494,-1,-1,0
-168.58,149.72,-119.04,4221,-6317,-3486,-1,-1,0
-168.58,149.72,-119.04,4225,-6329,-3501,-1,-1,0
-168.60,149.73,-119.05,4221,-6321,-3513,0,-1,0
-168.59,149.73,-119.05,4232,-6324,-3509,-1,-1,0
-168.60,149.73,-119.06,4224,-6329,-3514,-1,-1,0
-168.60,149.74,-119.06,4233,-6330,-3520,-1,-1,0
-168.61,149.74,-119.06,4228,-6319,-3532,0,-1,0
-168.61,149.74,-119.06,4226,-6317,-3521,-1,-1,0
-168.62,149.74,-119.08,4228,-6320,-3519,-1,-1,0
-168.63,149.75,-119.09,4227,-6330,-3522,-1,-1,0
-168.64,149.76,-119.10,4217,-6329,-3531,-1,-1,0
-168.64,149.76,-119.10,4211,-6319,-3516,0,-1,0
-168.65,149.77,-119.10,4214,-6325,-3511,-1,-1,0
-168.66,149.77,-119.11,4218,-6326,-3521,-1,-1,0
-168.66,149.78,-119.11,4215,-6322,-3515,0,-1,0
-168.66,149.78,-119.11,4215,-6321,-3506,-1,-1,0
-168.66,149.78,-119.12,4221,-6318,-3512,-1,-1,0
-168.67,149.78,-119.12,4219,-6319,-3515,-1,-1,0
-168.67,149.78,-119.12,4218,-6321,-3505,-1,-1,0
-168.68,149.79,-119.13,4225,-6326,-3512,-1,-1,0
-168.69,149.79,-119.15,4219,-6325,-3533,-1,-1,0
-168.69,149.79,-119.16,4215,-6321,-3538,-1,-1,0
-168.69,149.79,-119.15,4219,-6322,-3536,0,0,0
-168.69,149.79,-119.15,4209,-6323,-3522,-1,-1,0
-168.70,149.80,-119.15,4214,-6318,-3515,-1,-1,0
-168.70,149.80,-119.16,4216,-6318,-3521,-1,-1,0
-168.71,149.81,-119.16,4221,-6320,-3529,-1,-1,0
-168.71,149.81,-119.16,4213,-6324,-3534,0,0,0
-168.71,149.81,-119.16,4209,-6316,-3523,0,0,0
-168.71,149.81,-119.16,4209,-6320,-3514,-1,-1,0
-168.71,149.81,-119.16,4207,-6321,-3517,-1,-1,0
-168.72,149.81,-119.16,4204,-6327,-3524,-1,-1,0
-168.71,149.82,-119.16,4207,-6325,-3517,0,0,-1
-168.71,149.81,-119.16,4209,-6319,-3512,-1,-1,-1
-168.72,149.81,-119.16,4206,-6328,-3519,-1,-1,0
-168.72,149.81,-119.17,4209,-6329,-3530,-1,-1,0
-168.72,149.82,-119.17,4209,-6328,-3540,0,-1,0
-168.72,149.82,-119.17,4211,-6328,-3534,-1,-1,0
-168.72,149.82,-119.18,4217,-6321,-3534,-1,-1,0
-168.73,149.82,-119.18,4217,-6319,-3538,-1,0,0
-168.72,149.82,-119.18,4216,-6317,-3532,0,0,0
-168.72,149.82,-119.17,4212,-6322,-3516,0,0,0
-168.73,149.82,-119.17,4213,-6317,-3523,-1,0,0
-168.72,149.81,-119.17,4214,-6327,-3513,0,0,0
-168.72,149.82,-119.16,4206,-6332,-3521,-1,0,-1
-168.71,149.82,-119.16,4209,-6324,-3520,0,0,0
-168.71,149.82,-119.16,4210,-6321,-3515,-1,0,-1
-168.71,149.81,-119.16,4214,-6317,-3517,-1,-1,0
-168.72,149.81,-119.17,4216,-6322,-3531,0,0,0
-168.72,149.81,-119.17,4210,-6317,-3537,0,-1,0
-168.72,149.81,-119.17,4213,-6316,-3523,-1,-1,-1
-168.72,149.81,-119.18,4212,-6314,-3526,-1,-1,-1
-168.72,149.81,-119.18,4213,-6325,-3523,-1,0,0
-168.72,149.81,-119.17,4212,-6320,-3527,0,-1,0
-168.72,149.81,-119.17,4211,-6314,-3515,-1,-1,0
-168.73,149.82,-119.18,4216,-6319,-3533,-1,-1,0
-168.74,149.82,-119.19,4217,-6320,-3545,0,0,-1
-168.73,149.82,-119.18,4210,-6316,-3533,0,0,-1
-168.72,149.81,-119.16,4206,-6307,-3508,0,0,-1
-168.72,149.81,-119.17,4214,-6309,-3501,-1,-1,0
-168.73,149.82,-119.19,4217,-6313,-3523,-1,-1,0
-168.75,149.83,-119.20,4221,-6325,-3542,-1,0,0
-168.75,149.83,-119.20,4206,-6325,-3534,0,0,-1
-168.74,149.83,-119.18,4201,-6319,-3530,-1,0,-1
-168.74,149.82,-119.19,4203,-6314,-3540,-1,0,-1
-168.74,149.82,-119.19,4207,-6322,-3531,0,0,0
-168.74,149.82,-119.19,4217,-6322,-3523,-1,-1,0
-168.74,149.82,-119.19,4211,-6318,-3532,0,0,0
-168.74,149.83,-119.18,4208,-6322,-3528,0,0,0
-168.74,149.83,-119.18,4210,-6321,-3523,-1,-1,-1
-168.74,149.82,-119.19,4208,-6316,-3511,-1,-1,0
-168.75,149.83,-119.20,4207,-6329,-3536,-1,-1,-1
-168.75,149.83,-119.20,4211,-6325,-3545,0,0,-1
-168.74,149.82,-119.19,4212,-6315,-3525,0,0,0
-168.74,149.82,-119.19,4216,-6312,-3521,-1,-1,0
-168.75,149.83,-119.20,4216,-6313,-3531,-1,-1,0
-168.75,149.83,-119.20,4215,-6320,-3529,-1,-1,0
-168.75,149.83,-119.20,4214,-6322,-3524,-1,-1,-1
-168.75,149.83,-119.20,4202,-6322,-3530,0,0,0
-168.75,149.83,-119.20,4206,-6328,-3530,-1,0,0
-168.75,149.83,-119.20,4208,-6320,-3536,-1,-1,0
-168.75,149.83,-119.20,4204,-6327,-3535,-1,0,0
-168.75,149.83,-119.20,4208,-6321,-3538,0,0,-1
-168.75,149.83,-119.20,4211,-6313,-3537,-1,-1,0
-168.75,149.83,-119.21,4213,-6313,-3542,-1,-1,0
-168.76,149.83,-119.22,4210,-6318,-3536,-1,-1,0
-168.77,149.84,-119.23,4210,-6318,-3543,-1,-1,0
-168.77,149.84,-119.23,4211,-6322,-3544,-1,0,0
-168.77,149.84,-119.23,4208,-6318,-3546,0,0,-1
-168.77,149.84,-119.23,4211,-6318,-3554,0,0,0
-168.77,149.84,-119.23,4210,-6314,-3545,0,0,0
-168.77,149.84,-119.23,4214,-6322,-3534,-1,-1,0
-168.77,149.84,-119.23,4214,-6320,-3551,0,0,0
-168.77,149.84,-119.23,4211,-6323,-3543,0,0,0
-168.77,149.84,-119.22,4199,-6324,-3543,0,0,-1
-168.78,149.85,-119.23,4199,-6314,-3537,-1,-1,0
-168.78,149.84,-119.23,4205,-6313,-3529,-1,-1,-1
-168.78,149.84,-119.23,4206,-6315,-3531,0,0,0
-168.78,149.84,-119.23,4211,-6317,-3540,0,-1,0
-168.78,149.84,-119.23,4209,-6316,-3538,-1,-1,0
-168.78,149.84,-119.24,4203,-6312,-3546,-1,-1,0
-168.78,149.84,-119.24,4204,-6311,-3530,-1,0,0
-168.78,149.84,-119.24,4209,-6321,-3532,-1,-1,0
-168.78,149.84,-119.24,4208,-6324,-3547,0,0,-1
-168.78,149.84,-119.24,4211,-6318,-3544,0,0,0
-168.78,149.84,-119.23,4202,-6321,-3529,0,0,0
-168.78,149.84,-119.23,4202,-6319,-3518,-1,-1,0
-168.78,149.85,-119.24,4205,-6323,-3524,-1,-1,0
-168.80,149.86,-119.25,4202,-6330,-3543,-1,-1,0
-168.80,149.86,-119.25,4203,-6320,-3552,0,0,0
-168.80,149.86,-119.24,4200,-6316,-3538,0,0,0
-168.80,149.86,-119.24,4195,-6321,-3539,-1,-1,0
-168.80,149.86,-119.24,4198,-6324,-3536,-1,-1,0
-168.80,149.86,-119.24,4201,-6320,-3539,-1,0,0
-168.80,149.86,-119.25,4199,-6321,-3543,-1,-1,0
-168.81,149.87,-119.25,4198,-6320,-3543,-1,-1,0
-168.80,149.86,-119.25,4196,-6313,-3531,-1,0,-1
-168.80,149.86,-119.25,4210,-6312,-3526,-1,-1,0
-168.81,149.87,-119.27,4197,-6315,-3539,-1,-1,0
-168.81,149.87,-119.27,4211,-6325,-3550,0,0,0
-168.81,149.87,-119.27,4199,-6317,-3551,0,0,-1
-168.80,149.86,-119.25,4208,-6309,-3530,-1,-1,0
-168.81,149.87,-119.27,4204,-6309,-3538,-1,-1,0
-168.82,149.87,-119.28,4206,-6312,-3557,-1,-1,0
-168.82,149.87,-119.27,4204,-6317,-3554,0,0,0
-168.81,149.87,-119.26,4194,-6319,-3552,-1,-1,0
-168.83,149.88,-119.27,4196,-6319,-3551,-1,-1,0
-168.83,149.88,-119.27,4198,-6323,-3544,0,0,-1
-168.83,149.88,-119.27,4198,-6323,-3538,-1,0,0
-168.83,149.88,-119.27,4191,-6319,-3533,0,-1,-1
-168.83,149.88,-119.27,4195,-6318,-3545,-1,-1,0
-168.84,149.89,-119.28,4195,-6316,-3552,-1,-1,0
-168.84,149.89,-119.29,4201,-6321,-3552,-1,-1,0
-168.85,149.89,-119.30,4205,-6316,-3557,0,-1,-1
-168.85,149.89,-119.30,4205,-6314,-3545,-1,-1,0
-168.85,149.89,-119.30,4202,-6311,-3546,-1,-1,0
-168.85,149.90,-119.31,4199,-6310,-3545,-1,-1,0
-168.86,149.89,-119.31,4203,-6316,-3544,-1,-1,0
-168.85,149.90,-119.31,4200,-6317,-3539,0,-1,0
-168.85,149.90,-119.31,4201,-6319,-3538,0,-1,0
-168.86,149.90,-119.31,4195,-6320,-3529,-1,-1,0
-168.86,149.90,-119.31,4196,-6319,-3534,-1,0,0
-168.86,149.90,-119.31,4209,-6315,-3541,-1,-1,0
-168.87,149.91,-119.31,4201,-6318,-3549,-1,-1,0
-168.87,149.91,-119.32,4213,-6325,-3552,-1,-1,0
-168.87,149.91,-119.32,4202,-6328,-3549,0,0,-1
-168.87,149.91,-119.31,4207,-6319,-3542,-1,-1,0
-168.87,149.91,-119.32,4197,-6311,-3541,-1,-1,-1
-168.88,149.91,-119.33,4200,-6319,-3549,-1,-1,0
-168.88,149.91,-119.33,4205,-6330,-3560,0,0,-1
-168.87,149.91,-119.32,4206,-6327,-3550,0,0,-1
-168.86,149.90,-119.31,4202,-6310,-3527,0,-1,0
-168.87,149.91,-119.31,4203,-6309,-3523,-1,-1,0
-168.88,149.91,-119.33,4205,-6317,-3539,-1,-1,0
-168.88,149.91,-119.33,4200,-6323,-3552,0,0,0
-168.88,149.92,-119.33,4191,-6320,-3549,0,0,0
-168.88,149.92,-119.33,4186,-6317,-3548,-1,-1,0
-168.88,149.92,-119.33,4194,-6316,-3553,-1,0,0
-168.88,149.92,-119.33,4194,-6317,-3545,0,0,0
-168.88,149.91,-119.33,4197,-6318,-3540,-1,0,0
-168.89,149.92,-119.33,4198,-6321,-3538,-1,-1,0
-168.89,149.92,-119.32,4202,-6320,-3533,-1,-1,0
-168.89,149.92,-119.33,4206,-6323,-3548,-1,-1,0
-168.89,149.92,-119.33,4199,-6323,-3552,-1,-1,-1
-168.89,149.92,-119.34,4203,-6321,-3557,-1,-1,0
-168.89,149.92,-119.34,4200,-6315,-3553,-1,0,-1
-168.89,149.92,-119.34,4204,-6307,-3531,-1,-1,0
-168.90,149.93,-119.34,4197,-6313,-3549,-1,-1,0
-168.90,149.93,-119.34,4205,-6323,-3554,0,0,0
-168.90,149.93,-119.33,4197,-6322,-3550,0,0,-1
-168.90,149.93,-119.33,4210,-6318,-3547,-1,-1,0
-168.90,149.93,-119.34,4205,-6316,-3558,-1,-1,0
-168.90,149.93,-119.35,4197,-6322,-3562,0,0,0
-168.90,149.93,-119.33,4193,-6319,-3547,0,0,-1
-168.90,149.93,-119.33,4198,-6321,-3543,-1,-1,-1
-168.90,149.93,-119.34,4201,-6316,-3547,-1,-1,0
-168.90,149.93,-119.34,4189,-6318,-3543,0,-1,-1
-168.90,149.93,-119.34,4189,-6324,-3538,-1,-1,0
-168.90,149.93,-119.35,4191,-6317,-3540,-1,-1,0
-168.90,149.93,-119.35,4203,-6320,-3549,-1,-1,0
-168.90,149.93,-119.35,4202,-6319,-3551,-1,-1,-1
-168.91,149.93,-119.35,4199,-6318,-3563,0,0,-1
-168.91,149.93,-119.36,4194,-6314,-3566,-1,0,-1
-168.90,149.93,-119.36,4195,-6311,-3556,-1,-1,0
-168.91,149.94,-119.36,4200,-6306,-3548,-1,-1,0
-168.91,149.94,-119.36,4195,-6305,-3551,-1,-1,0
-168.92,149.94,-119.36,4188,-6312,-3562,-1,-1,0
-168.92,149.94,-119.36,4188,-6318,-3562,0,0,-1
-168.92,149.94,-119.36,4194,-6319,-3547,-1,-1,0
-168.92,149.94,-119.36,4199,-6318,-3549,0,0,-1
-168.91,149.94,-119.36,4194,-6317,-3544,-1,0,0
-168.91,149.94,-119.36,4191,-6314,-3536,-1,0,-1
-168.92,149.94,-119.36,4194,-6319,-3536,-1,-1,0
-168.92,149.94,-119.37,4200,-6324,-3547,-1,-1,0
-168.92,149.94,-119.36,4201,-6326,-3553,0,0,-1
-168.91,149.94,-119.36,4201,-6323,-3547,-1,-1,0
-168.92,149.94,-119.36,4203,-6321,-3554,-1,-1,0
-168.92,149.94,-119.37,4197,-6323,-3556,-1,-1,0
-168.92,149.95,-119.37,4190,-6322,-3554,0,-1,0
-168.92,149.95,-119.37,4195,-6329,-3548,-1,-1,0
-168.94,149.95,-119.38,4198,-6329,-3561,-1,-1,0
-168.94,149.96,-119.37,4199,-6332,-3566,0,0,-1
-168.92,149.95,-119.36,4201,-6319,-3556,0,0,-1
-168.91,149.94,-119.36,4202,-6314,-3541,-1,-1,0
-168.93,149.95,-119.38,4205,-6311,-3540,-1,-1,0
-168.95,149.96,-119.39,4197,-6321,-3558,-1,-1,0
-168.95,149.97,-119.39,4185,-6322,-3572,0,0,0
-168.95,149.97,-119.39,4183,-6323,-3565,0,0,-1
-168.95,149.97,-119.39,4182,-6316,-3559,-1,0,-1
-168.95,149.97,-119.39,4188,-6318,-3554,-1,-1,0
-168.95,149.97,-119.39,4187,-6325,-3563,-1,0,0
-168.95,149.97,-119.39,4203,-6328,-3562,0,-1,0
-168.95,149.97,-119.38,4189,-6325,-3547,0,0,-1
-168.95,149.97,-119.38,4196,-6320,-3545,-1,-1,0
-168.95,149.97,-119.39,4192,-6314,-3559,-1,-1,-1
-168.96,149.97,-119.40,4199,-6318,-3562,-1,-1,0
-168.96,149.97,-119.40,4195,-6315,-3562,0,-1,-1
-168.96,149.97,-119.40,4198,-6314,-3571,0,-1,0
-168.97,149.97,-119.41,4193,-6314,-3569,-1,-1,0
-168.96,149.98,-119.41,4188,-6312,-3568,0,-1,0
-168.97,149.98,-119.42,4201,-6314,-3569,-1,-1,0
-168.97,149.98,-119.42,4192,-6314,-3572,-1,-1,0
-168.97,149.98,-119.42,4192,-6311,-3561,-1,-1,0
-168.98,149.98,-119.42,4192,-6321,-3556,-1,0,0
-168.98,149.98,-119.42,4189,-6319,-3561,0,0,-1
-168.97,149.98,-119.42,4195,-6321,-3564,0,0,-1
-168.97,149.98,-119.42,4196,-6328,-3558,-1,-1,0
-168.98,149.99,-119.42,4193,-6316,-3574,-1,-1,0
-168.99,149.99,-119.43,4190,-6314,-3574,-1,-1,0
-168.99,149.99,-119.43,4186,-6317,-3561,-1,-1,-1
-168.99,149.99,-119.43,4189,-6312,-3559,0,-1,0
-168.99,149.99,-119.44,4187,-6315,-3560,-1,-1,0
-168.99,149.99,-119.43,4186,-6317,-3568,0,-1,0
-169.00,150.00,-119.44,4183,-6319,-3568,-1,0,0
-168.99,149.99,-119.43,4191,-6317,-3567,0,-1,0
-169.00,150.00,-119.44,4186,-6321,-3564,-1,-1,0
-169.00,150.00,-119.45,4195,-6319,-3567,-1,0,0
-169.00,150.00,-119.45,4185,-6318,-3576,0,0,0
-169.00,150.00,-119.44,4184,-6317,-3563,0,-1,0
-169.00,150.00,-119.45,4193,-6318,-3568,-1,-1,-1
-169.01,150.00,-119.45,4196,-6319,-3577,0,-1,-1
-169.00,150.00,-119.45,4194,-6318,-3574,0,-1,-1
-169.00,149.99,-119.45,4191,-6309,-3575,0,-1,-1
-169.00,149.99,-119.45,4189,-6312,-3565,-1,-1,-1
-169.00,149.99,-119.45,4190,-6312,-3569,-1,-1,0
-169.01,150.00,-119.46,4185,-6316,-3570,0,0,0
-169.00,150.00,-119.45,4189,-6318,-3569,0,0,0
-169.00,150.00,-119.45,4189,-6319,-3571,0,0,0
-169.00,149.99,-119.45,4192,-6311,-3575,-1,-1,0
-169.00,149.99,-119.45,4190,-6317,-3584,0,0,-1
-169.00,149.99,-119.45,4191,-6317,-3580,0,0,-1
-168.99,149.99,-119.44,4184,-6308,-3573,0,0,-1
-168.99,149.99,-119.44,4180,-6314,-3565,0,0,-1
-168.99,149.99,-119.44,4186,-6318,-3573,-1,0,0
-168.99,149.99,-119.44,4191,-6318,-3597,0,0,-1
-168.98,149.98,-119.43,4187,-6321,-3575,0,0,-1
-168.97,149.97,-119.41,4183,-6307,-3547,0,-1,-1
-168.97,149.98,-119.43,4184,-6309,-3546,-1,-1,0
-168.99,149.98,-119.44,4186,-6318,-3574,-1,-1,0
-168.98,149.98,-119.43,4185,-6325,-3571,0,0,-1
-168.97,149.97,-119.41,4186,-6313,-3556,0,0,-1
-168.97,149.97,-119.41,4184,-6313,-3561,-1,0,-1
-168.98,149.98,-119.42,4185,-6315,-3566,0,0,0
-168.97,149.97,-119.41,4183,-6324,-3570,0,0,0
-168.97,149.97,-119.41,4184,-6317,-3571,0,0,0
-168.96,149.97,-119.40,4188,-6320,-3562,0,0,-1
-168.96,149.97,-119.40,4186,-6323,-3567,0,0,0
-168.96,149.97,-119.40,4196,-6321,-3565,0,0,-1
-168.95,149.96,-119.39,4197,-6320,-3562,-1,-1,-1
-168.95,149.96,-119.40,4195,-6325,-3578,-1,0,-1
-168.95,149.96,-119.40,4198,-6324,-3578,0,0,-1
-168.95,149.96,-119.39,4197,-6322,-3565,0,0,-1
-168.94,149.95,-119.39,4193,-6319,-3554,-1,-1,-1
-168.95,149.96,-119.39,4189,-6319,-3567,-1,-1,0
-168.95,149.96,-119.39,4197,-6322,-3572,0,0,-1
-168.95,149.96,-119.39,4188,-6318,-3571,0,0,-1
-168.94,149.95,-119.39,4190,-6317,-3566,0,0,-1
-168.93,149.95,-119.37,4183,-6319,-3558,0,0,-1
-168.93,149.95,-119.37,4196,-6312,-3563,-1,0,-1
-168.94,149.95,-119.38,4195,-6318,-3566,0,0,-1
-168.93,149.95,-119.37,4193,-6319,-3565,0,0,0
-168.93,149.95,-119.37,4195,-6313,-3561,-1,-1,-1
-168.94,149.95,-119.38,4194,-6321,-3578,-1,0,-1
-168.94,149.95,-119.38,4205,-6330,-3581,0,0,0
-168.94,149.95,-119.38,4193,-6317,-3576,0,0,-1
-168.94,149.95,-119.38,4196,-6313,-3559,-1,-1,0
-168.94,149.95,-119.39,4193,-6313,-3568,-1,-1,-1
-168.94,149.95,-119.39,4197,-6315,-3578,0,0,0
-168.93,149.94,-119.38,4193,-6313,-3568,0,0,-1
-168.93,149.94,-119.37,4193,-6310,-3555,-1,0,0
-168.93,149.94,-119.37,4184,-6315,-3553,-1,-1,0
-168.93,149.95,-119.37,4185,-6322,-3557,0,-1,0
-168.93,149.95,-119.37,4188,-6327,-3562,0,0,-1
-168.93,149.94,-119.37,4189,-6320,-3562,0,0,0
-168.93,149.94,-119.37,4192,-6315,-3570,0,0,-1
-168.93,149.94,-119.37,4198,-6315,-3562,-1,-1,-1
-168.93,149.94,-119.38,4198,-6314,-3564,0,0,-1
-168.93,149.94,-119.38,4198,-6312,-3561,-1,0,-1
-168.93,149.94,-119.37,4192,-6316,-3562,0,0,-1
-168.93,149.94,-119.37,4185,-6314,-3567,0,0,-1
-168.92,149.94,-119.36,4181,-6317,-3555,0,0,0
-168.93,149.94,-119.37,4183,-6319,-3563,-1,-1,-1
-168.93,149.94,-119.38,4192,-6329,-3582,-1,0,-1
-168.93,149.94,-119.37,4193,-6329,-3580,0,0,-1
-168.92,149.93,-119.36,4190,-6318,-3557,0,0,-1
-168.91,149.93,-119.35,4184,-6309,-3538,-1,-1,-1
-168.92,149.94,-119.36,4182,-6305,-3551,-1,-1,0
-168.93,149.94,-119.38,4181,-6314,-3575,-1,-1,0
-168.94,149.95,-119.38,4182,-6314,-3587,0,0,-1
-168.92,149.94,-119.36,4184,-6313,-3569,0,0,-1
-168.93,149.94,-119.36,4178,-6312,-3559,0,0,-1
-168.93,149.94,-119.36,4190,-6315,-3561,0,0,0
-168.91,149.93,-119.35,4192,-6309,-3559,0,0,-1
-168.92,149.93,-119.35,4188,-6303,-3559,-1,-1,0
-168.93,149.93,-119.37,4194,-6309,-3575,-1,-1,-1
-168.93,149.93,-119.37,4196,-6315,-3582,0,0,0
-168.92,149.93,-119.35,4194,-6312,-3562,0,0,-1
-168.92,149.92,-119.36,4200,-6312,-3561,-1,0,-1
-168.92,149.92,-119.37,4198,-6307,-3575,0,0,-1
-168.91,149.92,-119.36,4190,-6300,-3569,0,0,-1
-168.91,149.92,-119.36,4188,-6304,-3552,-1,0,-1
-168.91,149.92,-119.36,4191,-6311,-3559,-1,-1,-1
-168.91,149.92,-119.36,4187,-6318,-3566,0,0,0
-168.92,149.92,-119.36,4185,-6320,-3569,0,0,0
-168.91,149.92,-119.35,4183,-6320,-3567,0,0,-1
-168.91,149.92,-119.35,4183,-6322,-3565,0,0,-1
-168.91,149.92,-119.35,4188,-6315,-3555,0,0,-1
-168.90,149.91,-119.34,4193,-6315,-3546,0,0,0
-168.90,149.91,-119.34,4193,-6313,-3552,0,0,-1
-168.90,149.91,-119.34,4189,-6311,-3555,0,0,-1
-168.90,149.91,-119.34,4196,-6318,-3563,-1,0,-1
-168.90,149.91,-119.34,4198,-6312,-3563,0,0,-1
-168.90,149.91,-119.34,4198,-6321,-3566,0,0,-1
-168.90,149.91,-119.35,4194,-6317,-3578,0,0,-1
-168.90,149.91,-119.35,4194,-6309,-3577,0,0,-1
-168.90,149.91,-119.35,4191,-6306,-3562,-1,-1,0
-168.91,149.92,-119.35,4189,-6319,-3570,0,0,-1
-168.90,149.91,-119.34,4187,-6319,-3570,0,0,0
-168.89,149.91,-119.34,4189,-6310,-3558,0,0,-1
-168.90,149.91,-119.34,4186,-6308,-3550,-1,-1,0
-168.91,149.91,-119.35,4197,-6317,-3572,-1,0,-1
-168.90,149.91,-119.34,4188,-6322,-3574,0,0,-1
-168.90,149.91,-119.34,4189,-6320,-3566,0,0,-1
-168.90,149.91,-119.34,4187,-6318,-3563,-1,0,-1
-168.91,149.91,-119.35,4191,-6312,-3579,0,-1,0
-168.91,149.92,-119.35,4183,-6310,-3575,0,-1,0
-168.92,149.92,-119.35,4183,-6310,-3579,-1,-1,-1
-168.93,149.92,-119.37,4187,-6316,-3579,0,0,0
-168.92,149.92,-119.35,4193,-6322,-3574,0,0,-1
-168.91,149.92,-119.35,4189,-6322,-3560,0,0,-1
-168.90,149.91,-119.34,4194,-6317,-3556,-1,-1,-1
-168.91,149.92,-119.35,4195,-6318,-3566,-1,-1,0
-168.93,149.92,-119.37,4188,-6318,-3582,-1,-1,0
-168.93,149.93,-119.37,4190,-6314,-3580,0,0,0
-168.93,149.93,-119.36,4187,-6312,-3571,0,0,-1
-168.93,149.93,-119.36,4185,-6312,-3564,-1,0,-1
-168.93,149.93,-119.36,4189,-6310,-3560,0,0,-1
-168.93,149.93,-119.36,4190,-6305,-3561,0,0,0
-168.93,149.93,-119.36,4185,-6312,-3562,0,0,-1
-168.93,149.93,-119.36,4187,-6314,-3562,0,0,-1
-168.93,149.93,-119.36,4183,-6311,-3562,-1,-1,-1
-168.93,149.92,-119.37,4189,-6312,-3573,-1,-1,-1
-168.93,149.92,-119.37,4184,-6318,-3569,0,0,-1
-168.93,149.93,-119.37,4192,-6321,-3561,-1,-1,0
-168.94,149.93,-119.38,4190,-6325,-3565,0,0,-1
-168.93,149.93,-119.37,4191,-6323,-3573,0,0,0
-168.93,149.93,-119.36,4181,-6313,-3562,0,0,-1
-168.93,149.93,-119.36,4186,-6317,-3548,-1,-1,0
-168.95,149.94,-119.38,4184,-6317,-3569,-1,-1,0
-168.95,149.94,-119.38,4184,-6324,-3579,0,0,0
-168.94,149.94,-119.37,4174,-6321,-3566,0,0,-1
-168.94,149.94,-119.37,4180,-6321,-3565,-1,0,-1
-168.95,149.94,-119.38,4184,-6318,-3568,-1,0,0
-168.95,149.95,-119.37,4185,-6321,-3565,0,0,-1
-168.95,149.95,-119.37,4183,-6319,-3561,-1,-1,0
-168.95,149.94,-119.38,4183,-6316,-3570,-1,-1,-1
-168.95,149.94,-119.38,4180,-6314,-3569,-1,-1,-1
-168.96,149.95,-119.38,4181,-6320,-3571,-1,-1,-1
-168.96,149.95,-119.38,4187,-6326,-3574,0,0,-1
-168.96,149.95,-119.38,4186,-6324,-3576,0,0,-1
-168.96,149.95,-119.38,4187,-6320,-3575,-1,0,-1
-168.96,149.95,-119.38,4190,-6322,-3572,-1,-1,0
-168.96,149.95,-119.38,4190,-6312,-3564,0,0,0
-168.96,149.95,-119.38,4190,-6310,-3570,0,-1,0
-168.96,149.95,-119.38,4188,-6310,-3570,0,0,0
-168.96,149.95,-119.38,4183,-6310,-3572,0,0,-1
-168.97,149.96,-119.38,4185,-6311,-3572,0,0,0
-168.96,149.95,-119.38,4192,-6313,-3567,-1,0,-1
-168.97,149.96,-119.38,4185,-6310,-3569,0,0,0
-168.97,149.96,-119.38,4184,-6311,-3563,0,-1,-1
-168.98,149.96,-119.39,4180,-6310,-3567,-1,-1,0
-168.98,149.96,-119.39,4186,-6314,-3583,0,0,-1
-168.97,149.96,-119.38,4181,-6312,-3583,0,0,-1
-168.97,149.96,-119.38,4193,-6311,-3564,-1,-1,-1
-168.98,149.96,-119.39,4191,-6307,-3576,-1,-1,0
-168.98,149.96,-119.40,4194,-6320,-3593,0,0,0
-168.97,149.96,-119.39,4190,-6311,-3580,0,0,-1
-168.97,149.95,-119.38,4192,-6301,-3552,-1,-1,-1
-168.98,149.95,-119.40,4188,-6309,-3571,-1,-1,-1
-168.98,149.96,-119.40,4191,-6315,-3587,0,0,0
-168.98,149.96,-119.40,4186,-6309,-3575,0,0,0
-168.98,149.96,-119.40,4176,-6307,-3574,-1,0,-1
-168.98,149.96,-119.40,4181,-6312,-3576,0,0,-1
-168.98,149.96,-119.40,4181,-6311,-3573,0,0,0
-168.98,149.95,-119.40,4188,-6313,-3573,0,0,-1
-168.98,149.95,-119.40,4189,-6315,-3578,0,0,0
-168.98,149.95,-119.40,4182,-6309,-3568,0,0,-1
-168.98,149.95,-119.40,4181,-6313,-3573,0,0,-1
-168.99,149.96,-119.41,4181,-6313,-3576,-1,-1,-1
-168.99,149.96,-119.41,4184,-6314,-3578,-1,-1,-1
-168.99,149.96,-119.42,4184,-6319,-3588,-1,0,-1
-168.99,149.96,-119.42,4185,-6309,-3583,0,0,-1
-168.99,149.96,-119.41,4183,-6304,-3558,0,0,0
-168.99,149.96,-119.41,4181,-6304,-3558,-1,-1,0
-168.99,149.96,-119.42,4197,-6310,-3575,0,0,0
-168.99,149.96,-119.41,4186,-6310,-3574,0,0,-1
-168.99,149.96,-119.41,4181,-6308,-3570,0,-1,0
-168.99,149.96,-119.40,4163,-6313,-3564,-1,0,-1
-168.99,149.96,-119.41,4171,-6317,-3581,0,0,0
-168.99,149.96,-119.40,4170,-6321,-3568,0,0,-1
-168.99,149.96,-119.40,4182,-6312,-3564,0,0,-1
-168.99,149.96,-119.41,4185,-6304,-3567,-1,-1,0
-168.99,149.96,-119.41,4187,-6302,-3573,0,-1,0
-169.00,149.97,-119.41,4188,-6315,-3575,-1,-1,-1
-169.00,149.96,-119.42,4187,-6313,-3579,-1,0,-1
-169.00,149.96,-119.42,4185,-6310,-3580,0,0,-1
-169.00,149.96,-119.42,4190,-6314,-3570,0,0,-1
-169.00,149.96,-119.42,4191,-6314,-3570,0,0,-1
-169.00,149.96,-119.42,4189,-6321,-3577,0,0,0
-169.00,149.96,-119.42,4189,-6315,-3572,0,0,-1
-169.00,149.96,-119.42,4185,-6307,-3569,0,-1,0
-168.99,149.96,-119.41,4186,-6311,-3573,0,-1,0
-169.00,149.97,-119.41,4183,-6314,-3573,0,0,0
-169.00,149.97,-119.41,4189,-6317,-3567,-1,-1,-1
-169.01,149.97,-119.42,4184,-6314,-3580,0,0,-1
-169.00,149.96,-119.42,4185,-6311,-3577,0,0,-1
-169.01,149.97,-119.42,4181,-6321,-3568,-1,-1,0
-169.01,149.97,-119.42,4185,-6320,-3579,0,0,0
-169.00,149.97,-119.41,4180,-6321,-3569,0,0,-1
-169.00,149.97,-119.41,4189,-6312,-3568,-1,-1,-1
-169.01,149.97,-119.42,4185,-6313,-3570,-1,-1,-1
-169.01,149.97,-119.43,4193,-6316,-3580,-1,0,-1
-169.01,149.97,-119.42,4188,-6307,-3588,0,0,-1
-169.01,149.97,-119.42,4183,-6304,-3569,-1,-1,0
-169.02,149.97,-119.43,4189,-6313,-3579,-1,-1,0
-169.02,149.97,-119.44,4192,-6321,-3606,0,0,0
-169.01,149.97,-119.43,4182,-6317,-3587,0,0,-1
-169.01,149.97,-119.42,4177,-6306,-3564,-1,-1,-1
-169.02,149.97,-119.43,4185,-6307,-3562,-1,-1,0
-169.03,149.98,-119.45,4189,-6311,-3583,-1,-1,0
-169.03,149.98,-119.45,4186,-6316,-3586,0,0,0
-169.03,149.98,-119.45,4179,-6305,-3586,0,0,-1
-169.03,149.98,-119.45,4171,-6303,-3584,0,0,-1
-169.03,149.98,-119.45,4178,-6306,-3582,-1,0,0
-169.04,149.99,-119.45,4179,-6311,-3576,0,-1,0
-169.04,149.99,-119.45,4179,-6311,-3570,-1,-1,0
-169.04,149.99,-119.45,4172,-6314,-3574,-1,0,-1
-169.05,149.99,-119.45,4176,-6313,-3584,0,0,0
-169.04,149.99,-119.44,4176,-6314,-3560,0,0,0
-169.05,149.99,-119.45,4172,-6306,-3573,-1,-1,-1
-169.05,149.99,-119.45,4180,-6313,-3580,0,0,0
-169.05,149.99,-119.45,4168,-6308,-3582,0,0,-1
-169.04,149.99,-119.44,4177,-6306,-3573,0,-1,0
-169.05,150.00,-119.45,4178,-6309,-3566,-1,-1,-1
-169.05,149.99,-119.45,4177,-6306,-3579,-1,-1,0
-169.05,149.99,-119.45,4183,-6309,-3578,0,0,-1
-169.04,149.99,-119.44,4178,-6314,-3569,0,0,-1
-169.04,149.99,-119.44,4186,-6315,-3566,-1,0,-1
-169.04,149.99,-119.44,4177,-6310,-3574,0,0,-1
-169.04,149.98,-119.44,4180,-6323,-3578,-1,0,-1
-169.04,149.98,-119.44,4180,-6316,-3576,0,0,-1
-169.04,149.99,-119.44,4177,-6317,-3567,0,0,0
-169.04,149.99,-119.44,4179,-6316,-3569,-1,-1,-1
-169.04,149.99,-119.45,4184,-6318,-3587,-1,-1,-1
-169.04,149.98,-119.45,4190,-6320,-3589,0,0,-1
-169.04,149.98,-119.45,4185,-6312,-3591,0,0,-1
-169.04,149.98,-119.45,4184,-6313,-3581,0,0,-1
-169.04,149.98,-119.45,4181,-6316,-3579,0,0,-1
-169.04,149.98,-119.45,4179,-6309,-3589,0,0,-1
-169.04,149.98,-119.45,4184,-6311,-3587,0,0,-1
-169.04,149.98,-119.45,4179,-6315,-3584,0,0,-1
-169.03,149.98,-119.44,4176,-6310,-3577,0,0,-1
-169.03,149.98,-119.44,4178,-6312,-3570,-1,-1,-1
-169.05,149.98,-119.45,4174,-6313,-3580,-1,0,0
-169.04,149.98,-119.44,4172,-6320,-3578,0,0,0
-169.03,149.98,-119.44,4168,-6313,-3573,0,0,-1
-169.04,149.98,-119.44,4167,-6314,-3570,-1,0,-1
-169.04,149.98,-119.45,4172,-6319,-3588,-1,0,-1
-169.04,149.98,-119.45,4177,-6316,-3594,0,0,-1
-169.03,149.97,-119.44,4179,-6317,-3587,0,0,-1
-169.03,149.97,-119.44,4184,-6311,-3574,-1,-1,0
-169.04,149.98,-119.44,4182,-6313,-3572,-1,-1,0
-169.04,149.98,-119.44,4182,-6318,-3579,0,0,0
-169.04,149.98,-119.44,4188,-6329,-3593,0,0,-1
-169.04,149.98,-119.44,4182,-6330,-3591,0,0,-1
-169.03,149.97,-119.42,4180,-6313,-3569,0,0,-1
-169.02,149.97,-119.41,4182,-6297,-3550,-1,-1,0
-169.03,149.98,-119.43,4182,-6303,-3564,-1,-1,0
-169.04,149.98,-119.44,4185,-6320,-3595,-1,-1,0
-169.04,149.98,-119.44,4180,-6319,-3597,0,0,-1
-169.03,149.98,-119.43,4179,-6314,-3589,0,0,-1
-169.03,149.97,-119.43,4179,-6309,-3579,0,0,-1
-169.03,149.98,-119.43,4180,-6309,-3578,-1,-1,0
-169.04,149.98,-119.44,4184,-6310,-3589,-1,-1,0
-169.04,149.98,-119.44,4182,-6316,-3593,0,0,-1
-169.04,149.98,-119.43,4183,-6314,-3585,0,0,-1
-169.04,149.98,-119.43,4182,-6308,-3574,0,0,-1
-169.04,149.98,-119.44,4173,-6306,-3574,-1,-1,-1
-169.04,149.97,-119.44,4184,-6307,-3583,-1,-1,0
-169.04,149.97,-119.44,4194,-6310,-3585,0,0,-1
-169.04,149.97,-119.44,4184,-6311,-3578,0,0,-1
-169.04,149.97,-119.44,4180,-6312,-3566,-1,-1,-1
-169.04,149.97,-119.44,4180,-6312,-3580,0,0,-1
-169.04,149.98,-119.44,4179,-6313,-3573,0,0,0
-169.04,149.98,-119.44,4171,-6308,-3575,-1,0,0
-169.04,149.98,-119.44,4183,-6313,-3590,0,0,-1
-169.04,149.98,-119.42,4173,-6323,-3587,0,0,-1
-169.03,149.97,-119.42,4173,-6322,-3577,0,0,-1
-169.04,149.98,-119.42,4175,-6313,-3558,-1,-1,-1
-169.04,149.98,-119.42,4189,-6325,-3572,-1,0,0
-169.04,149.98,-119.42,4190,-6318,-3586,0,0,-1
-169.03,149.97,-119.42,4178,-6321,-3576,0,0,-1
-169.04,149.98,-119.42,4186,-6320,-3576,-1,-1,-1
-169.04,149.97,-119.43,4183,-6320,-3578,0,0,-1
-169.04,149.97,-119.43,4184,-6317,-3579,0,0,-1
-169.04,149.97,-119.43,4184,-6319,-3581,-1,0,-1
-169.04,149.97,-119.44,4186,-6310,-3591,0,0,0
-169.04,149.97,-119.43,4185,-6312,-3580,0,0,-1
-169.04,149.97,-119.43,4189,-6312,-3576,0,0,0
-169.05,149.98,-119.43,4188,-6321,-3586,0,0,-1
-169.05,149.98,-119.43,4179,-6318,-3584,0,0,-1
-169.05,149.98,-119.43,4177,-6314,-3582,0,0,-1
-169.04,149.97,-119.43,4181,-6314,-3574,0,0,-1
-169.03,149.97,-119.43,4182,-6309,-3573,0,0,-1
-169.03,149.97,-119.43,4187,-6304,-3575,0,0,-1
-169.03,149.97,-119.43,4181,-6306,-3582,0,0,0
-169.03,149.97,-119.43,4179,-6306,-3570,0,0,-1
-169.04,149.97,-119.42,4177,-6309,-3570,-1,0,-1
-169.05,149.97,-119.43,4180,-6314,-3581,0,0,-1
-169.04,149.97,-119.42,4185,-6317,-3573,0,0,-1
-169.03,149.97,-119.41,4190,-6314,-3572,0,0,-1
-169.02,149.96,-119.40,4186,-6302,-3557,0,0,0
-169.03,149.97,-119.41,4193,-6305,-3573,-1,-1,0
-169.04,149.97,-119.43,4190,-6317,-3603,-1,0,0
-169.04,149.97,-119.42,4185,-6326,-3601,0,0,-1
-169.03,149.97,-119.41,4176,-6320,-3583,0,0,-1
-169.03,149.96,-119.40,4180,-6311,-3573,-1,0,0
-169.04,149.97,-119.42,4185,-6313,-3582,-1,0,-1
-169.03,149.97,-119.41,4182,-6322,-3587,0,0,0
-169.03,149.96,-119.40,4183,-6319,-3575,0,0,-1
-169.03,149.96,-119.40,4178,-6313,-3568,-1,0,-1
-169.03,149.97,-119.41,4182,-6316,-3578,0,0,-1
-169.03,149.97,-119.40,4183,-6322,-3570,0,0,-1
-169.04,149.96,-119.41,4185,-6316,-3574,-1,0,-1
-169.04,149.96,-119.41,4184,-6310,-3584,-1,0,0
-169.04,149.96,-119.41,4181,-6320,-3589,0,0,-1
-169.04,149.96,-119.41,4183,-6317,-3578,0,0,0
-169.04,149.96,-119.41,4179,-6317,-3576,0,0,-1
-169.04,149.97,-119.42,4180,-6316,-3582,0,-1,0
-169.04,149.97,-119.42,4181,-6312,-3592,0,0,0
-169.04,149.97,-119.42,4176,-6317,-3591,0,0,0
-169.05,149.98,-119.41,4168,-6316,-3587,0,0,0
-169.05,149.98,-119.41,4172,-6316,-3579,0,0,-1
-169.05,149.98,-119.41,4175,-6318,-3582,0,0,-1
-169.05,149.98,-119.41,4177,-6319,-3577,0,0,-1
-169.05,149.98,-119.41,4180,-6310,-3571,0,-1,-1
-169.05,149.97,-119.42,4183,-6313,-3571,-1,-1,-1
-169.05,149.98,-119.42,4183,-6316,-3572,-1,-1,-1
-169.05,149.98,-119.42,4185,-6319,-3582,0,0,-1
-169.05,149.97,-119.42,4187,-6314,-3577,0,0,-1
-169.05,149.97,-119.42,4183,-6306,-3576,0,0,-1
-169.05,149.97,-119.42,4187,-6299,-3578,0,0,-1
-169.05,149.97,-119.42,4187,-6303,-3568,-1,-1,0
-169.06,149.98,-119.43,4181,-6308,-3586,0,0,-1
-169.05,149.97,-119.42,4184,-6314,-3590,0,0,0
-169.04,149.97,-119.41,4180,-6304,-3583,0,0,-1
-169.04,149.97,-119.41,4176,-6298,-3578,-1,-1,0
-169.05,149.97,-119.42,4176,-6303,-3584,-1,0,-1
-169.05,149.97,-119.42,4176,-6312,-3590,0,0,0
-169.05,149.97,-119.42,4181,-6317,-3585,0,0,-1
-169.05,149.97,-119.42,4180,-6317,-3581,-1,-1,-1
-169.06,149.98,-119.42,4180,-6316,-3593,0,0,0
-169.06,149.98,-119.42,4185,-6309,-3585,0,0,-1
-169.06,149.98,-119.42,4188,-6311,-3574,-1,-1,0
-169.07,149.98,-119.44,4192,-6314,-3590,-1,-1,-1
-169.07,149.98,-119.44,4188,-6312,-3593,0,0,0
-169.06,149.98,-119.42,4181,-6316,-3585,0,0,-1
-169.06,149.98,-119.42,4177,-6311,-3578,-1,-1,-1
-169.07,149.99,-119.43,4181,-6316,-3573,-1,-1,0
-169.07,149.98,-119.44,4189,-6323,-3581,-1,-1,0
-169.08,149.99,-119.44,4186,-6322,-3587,0,0,0
-169.08,149.99,-119.44,4169,-6322,-3584,0,0,-1
-169.09,149.99,-119.44,4168,-6318,-3590,-1,0,-1
-169.09,149.99,-119.44,4176,-6323,-3587,0,0,-1
-169.08,150.00,-119.44,4178,-6325,-3586,0,0,-1
-169.08,150.00,-119.44,4186,-6314,-3581,0,0,-1
-169.08,150.00,-119.44,4174,-6315,-3574,-1,0,-1
-169.08,150.00,-119.44,4175,-6312,-3569,0,-1,-1
-169.09,149.99,-119.44,4172,-6315,-3574,-1,-1,-1
-169.09,149.99,-119.44,4181,-6320,-3585,0,0,-1
-169.09,149.99,-119.44,4180,-6317,-3590,0,0,-1
-169.09,149.99,-119.44,4187,-6313,-3583,0,-1,0
-169.09,150.00,-119.45,4181,-6311,-3587,0,-1,0
-169.09,150.00,-119.45,4185,-6314,-3584,0,0,0
-169.09,149.99,-119.44,4192,-6311,-3584,0,0,-1
-169.09,149.99,-119.44,4187,-6312,-3583,0,-1,0
-169.09,150.00,-119.45,4182,-6314,-3585,-1,-1,0
-169.10,150.00,-119.45,4175,-6317,-3594,0,0,0
-169.10,150.00,-119.45,4176,-6316,-3578,0,0,-1
-169.09,150.00,-119.44,4184,-6316,-3573,-1,0,-1
-169.09,149.99,-119.44,4182,-6319,-3577,0,0,-1
-169.09,149.99,-119.44,4183,-6318,-3574,0,0,0
-169.09,150.00,-119.44,4186,-6318,-3583,-1,-1,-1
-169.10,149.99,-119.45,4182,-6319,-3587,-1,-1,0
-169.10,150.00,-119.45,4183,-6320,-3589,0,0,-1
-169.10,149.99,-119.45,4189,-6316,-3589,0,0,-1
-169.09,149.99,-119.45,4186,-6308,-3575,0,0,0
-169.10,149.99,-119.45,4182,-6308,-3573,-1,-1,0
-169.10,149.99,-119.45,4188,-6315,-3571,-1,0,-1
-169.09,149.99,-119.45,4188,-6317,-3584,0,0,-1
-169.08,149.99,-119.45,4189,-6313,-3579,0,0,-1
-169.08,149.98,-119.44,4176,-6306,-3577,0,0,-1
-169.08,149.98,-119.43,4182,-6307,-3572,-1,-1,0
-169.09,149.99,-119.45,4183,-6309,-3586,-1,0,-1
-169.09,149.99,-119.45,4192,-6317,-3593,0,0,0
-169.09,149.99,-119.45,4181,-6318,-3591,0,0,-1
-169.08,149.98,-119.44,4183,-6310,-3584,-1,-1,0
-169.09,149.99,-119.45,4187,-6313,-3577,-1,-1,-1
-169.09,149.99,-119.45,4191,-6308,-3585,0,0,-1
-169.08,149.98,-119.44,4185,-6311,-3573,0,0,-1
-169.09,149.99,-119.45,4184,-6314,-3573,-1,-1,-1
-169.10,149.99,-119.46,4187,-6305,-3592,-1,-1,0
-169.10,149.99,-119.46,4190,-6301,-3597,0,0,-1
-169.10,149.99,-119.46,4195,-6306,-3591,-1,-1,-1
-169.10,149.98,-119.47,4186,-6307,-3592,-1,0,0
-169.10,149.99,-119.46,4193,-6311,-3595,0,0,-1
-169.09,149.98,-119.45,4190,-6307,-3580,0,0,-1
-169.09,149.98,-119.45,4191,-6307,-3567,-1,-1,0
-169.10,149.98,-119.47,4189,-6310,-3578,-1,-1,-1
-169.10,149.98,-119.47,4185,-6309,-3586,0,0,0
-169.10,149.99,-119.46,4180,-6302,-3581,0,0,-1
-169.10,149.99,-119.46,4175,-6302,-3568,-1,-1,-1
-169.10,149.98,-119.47,4180,-6305,-3571,-1,-1,0
-169.11,149.99,-119.48,4188,-6316,-3581,0,0,-1
-169.10,149.98,-119.47,4192,-6312,-3580,0,0,-1
-169.11,149.99,-119.48,4179,-6313,-3577,-1,-1,0
-169.11,149.99,-119.48,4184,-6312,-3578,0,0,-1
-169.11,149.99,-119.48,4182,-6313,-3572,0,0,-1
-169.11,149.99,-119.48,4184,-6317,-3560,-1,-1,-1
-169.12,150.00,-119.49,4186,-6314,-3573,-1,-1,-1
-169.13,150.00,-119.50,4190,-6319,-3586,-1,-1,-1
-169.12,149.99,-119.49,4186,-6312,-3572,0,0,-1
-169.11,149.99,-119.48,4180,-6311,-3556,0,-1,0
-169.12,150.00,-119.48,4179,-6308,-3555,-1,-1,0
-169.13,150.00,-119.49,4184,-6305,-3583,-1,-1,0
-169.13,150.01,-119.50,4183,-6308,-3588,0,-1,0
-169.13,150.01,-119.50,4180,-6313,-3585,0,-1,0
-169.13,150.01,-119.50,4182,-6309,-3580,0,0,-1
-169.14,150.01,-119.50,4176,-6311,-3580,-1,-1,-1
-169.15,150.01,-119.51,4181,-6315,-3583,-1,-1,0
-169.15,150.01,-119.51,4184,-6316,-3586,0,-1,-1
-169.15,150.02,-119.51,4179,-6313,-3580,-1,-1,0
-169.15,150.02,-119.51,4180,-6319,-3576,-1,-1,0
-169.16,150.02,-119.52,4180,-6314,-3581,-1,-1,0
-169.16,150.02,-119.53,4189,-6310,-3586,-1,-1,-1
-169.16,150.02,-119.53,4182,-6309,-3581,-1,-1,-1
-169.17,150.03,-119.54,4183,-6300,-3581,-1,-1,0
-169.18,150.03,-119.54,4177,-6305,-3595,-1,0,-1
-169.18,150.04,-119.54,4184,-6317,-3594,0,-1,0
-169.18,150.04,-119.54,4173,-6312,-3599,0,-1,-1
-169.18,150.04,-119.54,4181,-6312,-3589,-1,-1,0
-169.19,150.04,-119.54,4173,-6315,-3589,-1,-1,0
-169.19,150.04,-119.54,4178,-6317,-3590,0,0,0
-169.19,150.04,-119.54,4177,-6314,-3591,0,0,-1
-169.19,150.04,-119.54,4181,-6313,-3590,-1,-1,-1
-169.20,150.05,-119.56,4182,-6313,-3596,-1,-1,0
-169.21,150.06,-119.56,4171,-6305,-3592,0,-1,0
-169.21,150.06,-119.56,4172,-6312,-3599,-1,-1,0
-169.22,150.06,-119.57,4177,-6312,-3598,0,-1,0
-169.22,150.06,-119.57,4167,-6312,-3594,0,0,-1
-169.21,150.06,-119.57,4170,-6307,-3593,0,-1,0
-169.22,150.06,-119.57,4178,-6309,-3591,-1,-1,-1
-169.22,150.06,-119.57,4179,-6316,-3598,0,0,0
-169.22,150.06,-119.57,4177,-6311,-3588,0,0,-1
-169.22,150.06,-119.57,4175,-6302,-3585,0,0,0
-169.21,150.06,-119.57,4172,-6297,-3589,-1,-1,-1
-169.22,150.07,-119.58,4173,-6310,-3595,-1,-1,0
-169.22,150.06,-119.58,4177,-6319,-3608,0,0,-1
-169.21,150.05,-119.57,4171,-6313,-3599,0,0,-1
-169.19,150.05,-119.55,4173,-6306,-3574,-1,-1,-1
-169.21,150.05,-119.57,4177,-6306,-3576,-1,-1,0
-169.22,150.06,-119.57,4183,-6319,-3594,-1,-1,0
-169.22,150.06,-119.57,4168,-6322,-3607,0,0,-1
-169.21,150.06,-119.57,4167,-6314,-3597,0,0,-1
-169.21,150.06,-119.56,4165,-6309,-3595,-1,0,-1
-169.21,150.05,-119.57,4173,-6310,-3600,0,0,-1
-169.20,150.05,-119.56,4178,-6310,-3576,0,0,0
-169.20,150.05,-119.56,4182,-6311,-3565,-1,-1,0
-169.22,150.06,-119.57,4177,-6308,-3584,-1,-1,0
-169.22,150.06,-119.57,4182,-6314,-3592,0,0,-1
-169.21,150.05,-119.56,4185,-6312,-3592,0,0,-1
-169.21,150.05,-119.56,4179,-6309,-3582,-1,0,-1
-169.21,150.05,-119.56,4176,-6306,-3582,-1,-1,-1
-169.21,150.05,-119.57,4177,-6314,-3584,0,0,-1
-169.20,150.05,-119.56,4171,-6314,-3578,0,0,0
-169.21,150.05,-119.56,4174,-6312,-3582,-1,-1,-1
-169.21,150.05,-119.56,4184,-6310,-3586,0,-1,-1
-169.21,150.05,-119.56,4178,-6314,-3586,0,-1,0
-169.21,150.06,-119.56,4178,-6315,-3581,-1,-1,0
-169.21,150.06,-119.56,4176,-6316,-3585,-1,-1,-1
-169.21,150.06,-119.56,4175,-6316,-3589,0,0,-1
-169.21,150.05,-119.56,4174,-6319,-3584,0,0,-1
-169.21,150.05,-119.56,4175,-6312,-3581,0,-1,-1
-169.20,150.05,-119.56,4178,-6308,-3571,-1,-1,-1
-169.20,150.05,-119.56,4172,-6304,-3571,-1,0,-1
-169.20,150.05,-119.56,4177,-6304,-3579,0,-1,-1
-169.21,150.06,-119.56,4176,-6309,-3583,-1,-1,-1
-169.22,150.06,-119.58,4181,-6312,-3602,-1,-1,0
-169.22,150.06,-119.57,4189,-6323,-3598,0,0,-1
-169.20,150.05,-119.56,4186,-6320,-3585,0,0,-1
-169.21,150.05,-119.56,4194,-6313,-3574,-1,-1,0
-169.21,150.05,-119.56,4190,-6318,-3582,-1,0,-1
-169.21,150.05,-119.56,4190,-6319,-3581,0,-1,0
-169.20,150.05,-119.56,4184,-6313,-3578,0,0,-1
-169.20,150.05,-119.56,4175,-6314,-3574,-1,-1,-1
-169.20,150.05,-119.56,4174,-6315,-3578,-1,-1,-1
-169.20,150.05,-119.56,4174,-6310,-3582,0,-1,0
-169.21,150.05,-119.56,4176,-6308,-3584,-1,0,-1
-169.21,150.05,-119.56,4179,-6306,-3586,-1,-1,-1
-169.21,150.05,-119.56,4181,-6310,-3581,0,-1,-1
-169.21,150.05,-119.56,4185,-6312,-3583,-1,-1,-1
-169.21,150.05,-119.57,4187,-6312,-3588,-1,0,-1
-169.21,150.05,-119.57,4179,-6310,-3590,0,0,-1
-169.21,150.05,-119.56,4176,-6304,-3575,0,0,-1
-169.21,150.05,-119.56,4174,-6309,-3567,-1,-1,0
-169.21,150.05,-119.56,4174,-6316,-3578,0,0,-1
-169.21,150.05,-119.55,4174,-6320,-3582,0,0,-1
-169.19,150.05,-119.54,4169,-6312,-3572,0,0,-1
-169.19,150.05,-119.54,4175,-6308,-3569,-1,-1,0
-169.21,150.05,-119.56,4185,-6314,-3580,-1,-1,0
-169.22,150.06,-119.57,4183,-6316,-3598,0,0,-1
-169.21,150.05,-119.56,4177,-6308,-3598,0,0,-1
-169.20,150.04,-119.55,4179,-6306,-3584,0,0,-1
-169.20,150.04,-119.55,4173,-6307,-3579,-1,0,-1
-169.21,150.05,-119.55,4180,-6311,-3578,-1,-1,0
-169.21,150.05,-119.56,4186,-6319,-3574,-1,-1,0
-169.21,150.05,-119.56,4179,-6317,-3590,-1,0,0
-169.21,150.05,-119.55,4187,-6317,-3591,0,0,-1
-169.20,150.05,-119.55,4179,-6312,-3577,0,0,-1
-169.20,150.04,-119.55,4190,-6307,-3579,-1,-1,0
-169.21,150.05,-119.56,4184,-6311,-3588,-1,-1,-1
-169.21,150.04,-119.57,4191,-6310,-3598,0,0,-1
-169.20,150.04,-119.56,4179,-6308,-3593,0,0,-1
-169.21,150.05,-119.55,4176,-6305,-3579,-1,-1,0
-169.21,150.05,-119.56,4187,-6310,-3596,-1,-1,0
-169.21,150.05,-119.56,4179,-6315,-3595,0,0,0
-169.21,150.05,-119.55,4176,-6319,-3586,0,0,0
-169.21,150.05,-119.55,4173,-6316,-3594,0,0,-1
-169.21,150.05,-119.56,4168,-6320,-3585,-1,0,0
-169.22,150.06,-119.56,4172,-6317,-3587,0,0,-1
-169.22,150.06,-119.56,4178,-6321,-3586,0,0,-1
-169.21,150.05,-119.55,4185,-6323,-3581,-1,0,-1
-169.21,150.05,-119.55,4185,-6320,-3586,-1,0,-1
-169.22,150.06,-119.56,4184,-6315,-3581,-1,-1,-1
-169.22,150.06,-119.56,4178,-6312,-3588,-1,-1,-1
-169.22,150.05,-119.57,4179,-6312,-3596,0,0,-1
-169.22,150.05,-119.57,4174,-6311,-3593,0,0,-1
-169.21,150.05,-119.56,4179,-6315,-3588,0,0,-1
-169.22,150.05,-119.57,4182,-6313,-3591,0,0,-1
-169.22,150.05,-119.57,4185,-6309,-3596,0,0,0
-169.21,150.05,-119.56,4182,-6316,-3590,0,0,-1
-169.22,150.06,-119.56,4184,-6317,-3589,0,0,0
-169.22,150.05,-119.56,4183,-6316,-3584,0,0,0
-169.22,150.05,-119.56,4184,-6315,-3583,0,0,-1
-169.21,150.05,-119.56,4182,-6316,-3580,-1,0,-1
-169.21,150.05,-119.56,4182,-6318,-3581,0,-1,-1
-169.21,150.05,-119.56,4179,-6310,-3578,-1,-1,-1
-169.21,150.05,-119.56,4183,-6304,-3583,-1,-1,0
-169.22,150.05,-119.57,4184,-6308,-3586,-1,-1,0
-169.23,150.06,-119.59,4180,-6319,-3607,-1,0,-1
-169.23,150.06,-119.58,4191,-6327,-3615,0,0,-1
-169.22,150.05,-119.56,4177,-6316,-3580,0,0,-1
-169.21,150.05,-119.55,4181,-6301,-3558,-1,-1,0
-169.22,150.05,-119.57,4181,-6308,-3568,-1,-1,0
-169.23,150.06,-119.59,4181,-6316,-3597,0,-1,0
-169.23,150.06,-119.58,4175,-6313,-3593,0,0,-1
-169.22,150.06,-119.56,4171,-6307,-3577,0,0,-1
-169.22,150.06,-119.57,4174,-6310,-3579,-1,-1,-1
-169.23,150.06,-119.58,4173,-6314,-3584,0,0,-1
-169.22,150.06,-119.57,4180,-6315,-3580,0,0,-1
-169.22,150.05,-119.57,4181,-6312,-3584,-1,0,0
-169.22,150.05,-119.57,4183,-6302,-3583,0,-1,-1
-169.22,150.05,-119.57,4177,-6304,-3586,-1,-1,-1
-169.23,150.06,-119.58,4173,-6311,-3592,-1,-1,-1
-169.23,150.06,-119.58,4183,-6314,-3582,-1,-1,-1
-169.23,150.06,-119.59,4184,-6317,-3591,-1,0,-1
-169.23,150.06,-119.59,4186,-6311,-3586,0,0,0
-169.22,150.05,-119.57,4183,-6307,-3582,0,0,0
-169.22,150.05,-119.57,4180,-6310,-3579,0,-1,0
-169.23,150.06,-119.58,4180,-6308,-3582,-1,-1,0
-169.23,150.06,-119.58,4177,-6308,-3591,0,-1,0
-169.23,150.06,-119.58,4173,-6316,-3591,0,0,0
-169.23,150.06,-119.58,4174,-6318,-3587,0,-1,0
-169.23,150.06,-119.58,4175,-6318,-3583,0,0,-1
-169.23,150.06,-119.57,4170,-6319,-3579,0,0,-1
-169.23,150.06,-119.57,4175,-6310,-3584,0,0,-1
-169.23,150.06,-119.57,4174,-6313,-3574,-1,-1,0
-169.24,150.07,-119.58,4174,-6318,-3586,-1,-1,-1
-169.23,150.06,-119.58,4176,-6311,-3590,0,0,-1
-169.23,150.06,-119.57,4175,-6308,-3584,0,0,-1
-169.23,150.06,-119.58,4180,-6302,-3586,-1,-1,0
-169.23,150.07,-119.58,4181,-6311,-3587,-1,-1,-1
-169.23,150.07,-119.58,4177,-6317,-3602,0,0,-1
-169.23,150.07,-119.58,4178,-6318,-3584,0,-1,-1
-169.23,150.07,-119.58,4175,-6320,-3579,-1,-1,-1
-169.23,150.07,-119.58,4177,-6319,-3582,0,0,0
-169.23,150.06,-119.58,4178,-6313,-3583,0,0,-1
-169.23,150.07,-119.57,4176,-6319,-3582,-1,-1,0
-169.23,150.07,-119.58,4186,-6317,-3583,0,-1,-1
-169.23,150.07,-119.58,4183,-6312,-3593,-1,-1,-1
-169.24,150.07,-119.58,4180,-6318,-3592,-1,0,-1
-169.24,150.07,-119.58,4183,-6318,-3588,0,0,-1
-169.23,150.07,-119.58,4180,-6314,-3579,0,0,-1
-169.23,150.07,-119.58,4180,-6312,-3580,-1,-1,0
-169.24,150.07,-119.58,4178,-6320,-3577,-1,-1,0
-169.25,150.07,-119.58,4179,-6321,-3588,0,0,-1
-169.23,150.06,-119.58,4176,-6314,-3585,0,0,-1
-169.23,150.07,-119.57,4172,-6299,-3575,0,0,-1
-169.23,150.07,-119.57,4179,-6305,-3564,-1,-1,0
-169.24,150.07,-119.59,4185,-6306,-3591,-1,-1,0
-169.25,150.08,-119.59,4183,-6306,-3593,0,0,0
-169.24,150.08,-119.59,4172,-6305,-3594,0,0,-1
-169.25,150.08,-119.59,4168,-6306,-3596,-1,0,-1
-169.25,150.08,-119.60,4172,-6309,-3592,-1,-1,0
-169.25,150.08,-119.60,4175,-6317,-3606,-1,0,-1
-169.25,150.08,-119.60,4182,-6326,-3611,0,0,0
-169.25,150.08,-119.59,4174,-6309,-3589,0,0,-1
-169.25,150.08,-119.60,4175,-6298,-3584,-1,-1,0
-169.26,150.08,-119.61,4180,-6310,-3593,-1,-1,-1
-169.26,150.08,-119.61,4177,-6314,-3597,0,-1,-1
-169.26,150.08,-119.61,4174,-6315,-3592,-1,0,-1
-169.26,150.08,-119.61,4170,-6309,-3595,-1,-1,-1
-169.26,150.08,-119.61,4180,-6300,-3598,0,0,0
-169.26,150.08,-119.61,4177,-6301,-3593,0,0,-1
-169.26,150.08,-119.61,4176,-6305,-3584,-1,-1,0
-169.27,150.09,-119.61,4169,-6317,-3591,-1,-1,-1
-169.27,150.09,-119.61,4171,-6315,-3591,0,-1,0
-169.27,150.09,-119.61,4169,-6315,-3595,0,-1,-1
-169.27,150.09,-119.61,4174,-6315,-3602,-1,0,-1
-169.27,150.09,-119.61,4171,-6318,-3600,0,0,-1
-169.27,150.09,-119.61,4170,-6321,-3593,0,0,-1
-169.27,150.09,-119.61,4173,-6320,-3594,0,-1,0
-169.27,150.10,-119.61,4177,-6318,-3583,-1,-1,0
-169.28,150.10,-119.62,4178,-6319,-3590,-1,-1,-1
-169.28,150.09,-119.63,4174,-6320,-3594,-1,0,-1
-169.28,150.09,-119.63,4179,-6316,-3593,0,0,-1
-169.27,150.09,-119.62,4185,-6309,-3583,-1,-1,0
-169.28,150.09,-119.63,4181,-6306,-3586,-1,0,-1
-169.27,150.09,-119.62,4180,-6308,-3590,0,0,0
-169.27,150.09,-119.62,4180,-6308,-3584,0,0,-1
-169.27,150.09,-119.62,4176,-6305,-3581,-1,-1,0
-169.27,150.09,-119.62,4177,-6306,-3588,-1,0,0
-169.27,150.09,-119.62,4176,-6308,-3584,0,0,0
-169.27,150.09,-119.61,4182,-6316,-3580,0,-1,0
-169.27,150.09,-119.61,4184,-6315,-3584,-1,-1,-1
-169.28,150.09,-119.63,4179,-6310,-3597,-1,-1,0
-169.27,150.09,-119.62,4171,-6314,-3592,0,0,-1
-169.28,150.10,-119.62,4170,-6315,-3590,-1,0,0
-169.28,150.10,-119.62,4165,-6315,-3584,0,0,-1
-169.28,150.10,-119.62,4173,-6309,-3597,0,0,0
-169.28,150.10,-119.62,4178,-6315,-3591,-1,-1,-1
-169.29,150.10,-119.63,4175,-6316,-3602,-1,-1,0
-169.29,150.10,-119.62,4171,-6315,-3598,0,0,-1
-169.28,150.10,-119.62,4175,-6313,-3587,0,0,0
-169.29,150.10,-119.62,4178,-6304,-3578,-1,-1,0
-169.29,150.10,-119.63,4179,-6320,-3595,-1,-1,0
-169.29,150.10,-119.63,4181,-6322,-3611,0,0,-1
-169.27,150.09,-119.62,4186,-6310,-3590,0,0,-1
-169.27,150.09,-119.61,4178,-6303,-3576,-1,-1,-1
-169.28,150.10,-119.63,4186,-6311,-3585,-1,-1,0
-169.29,150.11,-119.64,4177,-6320,-3603,0,-1,-1
-169.29,150.11,-119.63,4174,-6321,-3599,0,-1,0
-169.29,150.11,-119.62,4162,-6316,-3594,-1,0,-1
-169.29,150.11,-119.63,4169,-6313,-3600,0,0,-1
-169.29,150.10,-119.63,4172,-6307,-3593,0,0,-1
-169.29,150.10,-119.62,4179,-6314,-3577,-1,-1,0
-169.29,150.10,-119.63,4181,-6306,-3582,-1,-1,0
-169.29,150.10,-119.63,4180,-6307,-3591,0,0,-1
-169.29,150.10,-119.63,4170,-6308,-3591,0,0,0
-169.29,150.10,-119.63,4171,-6309,-3592,-1,0,-1
-169.29,150.10,-119.63,4175,-6303,-3588,-1,-1,-1
-169.30,150.10,-119.64,4174,-6306,-3598,-1,-1,-1
-169.30,150.10,-119.64,4170,-6307,-3603,0,0,0
-169.30,150.10,-119.64,4174,-6310,-3602,0,0,-1
-169.30,150.10,-119.64,4175,-6305,-3602,-1,-1,0
-169.30,150.11,-119.65,4172,-6304,-3604,-1,-1,0
-169.31,150.11,-119.65,4170,-6313,-3609,-1,-1,0
-169.31,150.11,-119.65,4172,-6311,-3606,0,0,-1
-169.30,150.11,-119.65,4169,-6314,-3596,0,0,0
-169.30,150.11,-119.65,4172,-6316,-3599,0,0,-1
-169.30,150.11,-119.64,4174,-6319,-3598,-1,0,0
-169.30,150.11,-119.64,4171,-6314,-3589,-1,0,-1
-169.31,150.11,-119.65,4168,-6316,-3583,-1,-1,0
-169.31,150.11,-119.65,4173,-6308,-3589,-1,-1,-1
-169.31,150.11,-119.65,4173,-6310,-3588,0,0,-1
-169.31,150.11,-119.65,4175,-6305,-3592,0,-1,-1
-169.31,150.11,-119.65,4172,-6305,-3588,-1,-1,0
-169.31,150.11,-119.67,4173,-6303,-3601,0,-1,0
-169.31,150.11,-119.66,4172,-6306,-3595,-1,0,0
-169.31,150.11,-119.67,4177,-6311,-3600,0,0,-1
-169.31,150.11,-119.66,4172,-6316,-3604,0,0,0
-169.31,150.11,-119.65,4175,-6309,-3599,0,0,-1
-169.31,150.11,-119.65,4173,-6311,-3596,-1,-1,-1
-169.31,150.11,-119.65,4174,-6306,-3592,-1,-1,-1
-169.31,150.11,-119.65,4171,-6308,-3591,0,0,-1
-169.30,150.10,-119.65,4176,-6305,-3584,-1,0,-1
-169.31,150.11,-119.65,4167,-6307,-3594,0,-1,-1
-169.31,150.11,-119.65,4172,-6314,-3601,-1,-1,-1
-169.31,150.11,-119.66,4172,-6314,-3607,0,0,-1
-169.31,150.11,-119.66,4172,-6309,-3600,0,0,-1
-169.31,150.11,-119.65,4158,-6309,-3591,-1,-1,0
-169.32,150.11,-119.66,4161,-6314,-3599,-1,0,0
-169.31,150.11,-119.65,4171,-6326,-3602,0,0,0
-169.30,150.11,-119.64,4173,-6323,-3604,0,0,-1
-169.29,150.10,-119.63,4163,-6307,-3578,0,0,-1
-169.29,150.10,-119.63,4169,-6311,-3567,-1,-1,-1
-169.31,150.11,-119.65,4173,-6315,-3598,-1,-1,0
-169.31,150.11,-119.65,4175,-6322,-3614,0,0,-1
-169.31,150.11,-119.64,4171,-6317,-3607,0,0,-1
-169.30,150.11,-119.64,4170,-6307,-3592,0,0,-1
-169.29,150.10,-119.64,4177,-6311,-3584,0,0,-1
-169.29,150.10,-119.64,4180,-6311,-3586,-1,0,-1
-169.29,150.10,-119.64,4179,-6314,-3584,-1,-1,0
-169.30,150.11,-119.64,4175,-6313,-3596,0,0,-1
-169.30,150.11,-119.64,4171,-6316,-3594,0,0,-1
-169.29,150.10,-119.64,4175,-6312,-3589,0,0,-1
-169.29,150.10,-119.64,4177,-6313,-3588,-1,0,-1
-169.30,150.10,-119.65,4172,-6319,-3601,0,0,-1
-169.29,150.10,-119.64,4171,-6311,-3598,0,0,-1
-169.29,150.10,-119.64,4169,-6305,-3585,-1,0,-1
-169.30,150.10,-119.65,4167,-6307,-3580,-1,-1,0
-169.30,150.10,-119.64,4173,-6313,-3594,0,0,0
-169.30,150.10,-119.64,4174,-6302,-3602,0,0,0
-169.29,150.10,-119.64,4173,-6307,-3598,0,0,0
-169.30,150.10,-119.64,4169,-6306,-3600,0,-1,-1
-169.30,150.10,-119.64,4170,-6311,-3600,-1,0,0
-169.30,150.10,-119.64,4175,-6314,-3599,0,0,-1
-169.29,150.10,-119.63,4172,-6309,-3599,0,0,-1
-169.28,150.09,-119.63,4179,-6307,-3583,-1,-1,0
-169.30,150.10,-119.64,4174,-6320,-3597,-1,0,0
-169.28,150.09,-119.63,4183,-6324,-3601,0,0,0
-169.28,150.09,-119.63,4171,-6314,-3598,0,0,-1
-169.29,150.09,-119.63,4180,-6304,-3582,-1,-1,0
-169.29,150.09,-119.64,4175,-6304,-3591,-1,-1,-1
-169.29,150.09,-119.64,4175,-6314,-3598,0,0,0
-169.29,150.09,-119.63,4177,-6309,-3588,0,0,-1
-169.29,150.09,-119.63,4178,-6308,-3582,-1,-1,0
-169.29,150.09,-119.63,4180,-6313,-3595,-1,0,0
-169.29,150.09,-119.63,4179,-6313,-3588,0,0,0
-169.29,150.09,-119.63,4179,-6313,-3584,-1,0,-1
-169.28,150.09,-119.63,4173,-6307,-3586,0,-1,0
-169.29,150.09,-119.63,4163,-6306,-3584,-1,-1,-1
-169.29,150.09,-119.63,4165,-6305,-3591,-1,-1,0
-169.29,150.09,-119.63,4166,-6308,-3595,0,0,-1
-169.29,150.09,-119.64,4168,-6305,-3591,-1,-1,-1
-169.30,150.10,-119.65,4171,-6313,-3599,-1,-1,-1
-169.30,150.10,-119.64,4173,-6323,-3611,0,0,-1
-169.29,150.09,-119.63,4168,-6322,-3606,0,0,-1
-169.28,150.09,-119.63,4169,-6311,-3584,0,0,-1
-169.29,150.09,-119.63,4173,-6304,-3584,-1,-1,0
-169.30,150.10,-119.65,4180,-6317,-3598,-1,-1,0
-169.31,150.11,-119.65,4173,-6325,-3609,0,0,-1
-169.29,150.10,-119.64,4171,-6316,-3606,0,0,-1
-169.29,150.10,-119.64,4167,-6311,-3595,0,0,-1
-169.29,150.10,-119.64,4171,-6318,-3596,-1,-1,0
-169.30,150.10,-119.64,4172,-6318,-3595,0,0,0
-169.30,150.10,-119.64,4174,-6319,-3597,0,0,0
-169.30,150.10,-119.64,4173,-6323,-3599,-1,0,-1
-169.30,150.10,-119.64,4178,-6320,-3601,-1,0,-1
-169.30,150.10,-119.64,4177,-6318,-3601,0,0,-1
-169.29,150.09,-119.64,4177,-6311,-3595,0,0,-1
-169.29,150.09,-119.64,4176,-6309,-3585,-1,-1,0
-169.31,150.10,-119.65,4175,-6317,-3604,-1,0,0
-169.30,150.10,-119.64,4176,-6324,-3596,0,0,0
-169.29,150.10,-119.63,4167,-6319,-3588,0,0,-1
-169.29,150.10,-119.63,4172,-6314,-3590,-1,-1,0
-169.30,150.09,-119.64,4176,-6310,-3598,-1,-1,-1
-169.30,150.09,-119.64,4180,-6311,-3602,0,0,0
-169.29,150.10,-119.63,4177,-6310,-3601,0,0,-1
-169.29,150.10,-119.63,4175,-6310,-3604,-1,0,-1
-169.29,150.10,-119.63,4173,-6308,-3601,-1,0,0
-169.29,150.10,-119.63,4176,-6311,-3593,0,0,-1
-169.29,150.09,-119.63,4185,-6310,-3583,-1,-1,0
-169.29,150.09,-119.63,4186,-6314,-3585,-1,-1,-1
-169.29,150.09,-119.63,4176,-6311,-3585,-1,-1,-1
-169.29,150.10,-119.63,4174,-6305,-3593,-1,-1,-1
-169.30,150.09,-119.64,4169,-6310,-3612,-1,0,-1
-169.30,150.09,-119.64,4175,-6309,-3600,0,0,-1
-169.29,150.09,-119.63,4176,-6301,-3596,0,0,0
-169.29,150.09,-119.64,4178,-6306,-3593,-1,-1,-1
-169.29,150.09,-119.64,4182,-6313,-3591,0,-1,-1
-169.29,150.09,-119.63,4190,-6309,-3594,0,0,-1
-169.28,150.08,-119.63,4187,-6308,-3592,0,0,-1
-169.28,150.08,-119.63,4188,-6310,-3588,0,0,0
-169.28,150.08,-119.63,4182,-6310,-3590,0,0,-1
-169.28,150.08,-119.63,4181,-6308,-3585,-1,-1,-1
-169.28,150.08,-119.63,4172,-6308,-3589,-1,-1,0
-169.28,150.08,-119.64,4174,-6311,-3599,-1,-1,0
-169.28,150.08,-119.64,4174,-6318,-3600,0,0,-1
-169.28,150.08,-119.63,4173,-6307,-3589,0,0,0
-169.28,150.08,-119.64,4166,-6303,-3592,-1,-1,0
-169.30,150.09,-119.65,4173,-6302,-3595,-1,-1,0
-169.30,150.09,-119.65,4170,-6306,-3617,0,0,-1
-169.29,150.09,-119.63,4171,-6309,-3603,0,0,-1
-169.27,150.08,-119.61,4167,-6297,-3567,0,0,-1
-169.28,150.08,-119.63,4179,-6301,-3568,-1,-1,0
-169.30,150.09,-119.65,4177,-6312,-3594,-1,-1,0
-169.30,150.09,-119.65,4172,-6316,-3614,0,0,0
-169.28,150.08,-119.64,4170,-6307,-3592,0,0,-1
-169.28,150.09,-119.63,4161,-6303,-3572,-1,-1,-1
-169.30,150.09,-119.64,4164,-6300,-3590,-1,-1,0
-169.30,150.09,-119.64,4168,-6306,-3601,0,0,-1
-169.30,150.09,-119.64,4168,-6307,-3592,-1,0,0
-169.30,150.09,-119.64,4175,-6315,-3596,-1,-1,0
-169.30,150.09,-119.64,4181,-6311,-3594,0,0,0
-169.30,150.09,-119.64,4179,-6307,-3589,-1,0,-1
-169.30,150.09,-119.65,4189,-6306,-3590,-1,-1,-1
-169.30,150.09,-119.65,4186,-6315,-3591,-1,-1,-1
-169.30,150.09,-119.65,4180,-6315,-3600,0,0,-1
-169.29,150.08,-119.65,4183,-6305,-3583,0,0,0
-169.29,150.08,-119.65,4177,-6305,-3589,0,0,0
-169.29,150.09,-119.64,4179,-6312,-3574,-1,-1,0
-169.30,150.09,-119.64,4181,-6320,-3581,-1,-1,0
-169.30,150.09,-119.64,4172,-6314,-3582,0,0,0
-169.30,150.09,-119.64,4165,-6316,-3590,0,0,0
-169.29,150.10,-119.63,4168,-6315,-3593,0,0,0
-169.29,150.10,-119.63,4172,-6318,-3586,-1,0,0
-169.29,150.10,-119.63,4175,-6326,-3588,0,0,0
-169.29,150.10,-119.63,4172,-6323,-3593,0,0,0
-169.29,150.10,-119.62,4173,-6324,-3577,0,-1,-1
-169.29,150.10,-119.62,4176,-6322,-3571,-1,-1,0
-169.29,150.10,-119.63,4180,-6321,-3589,0,0,-1
-169.29,150.10,-119.62,4186,-6315,-3583,0,0,0
-169.28,150.09,-119.61,4181,-6308,-3569,0,0,-1
-169.29,150.09,-119.62,4177,-6305,-3579,-1,-1,0
-169.29,150.10,-119.63,4183,-6309,-3586,-1,-1,0
-169.29,150.10,-119.62,4180,-6312,-3598,0,0,0
-169.28,150.09,-119.62,4182,-6308,-3587,0,-1,0
-169.28,150.09,-119.62,4182,-6311,-3580,-1,0,-1
-169.28,150.09,-119.62,4172,-6312,-3591,0,-1,0
-169.28,150.09,-119.62,4175,-6314,-3586,0,0,-1
-169.28,150.09,-119.62,4169,-6314,-3580,-1,-1,0
-169.28,150.09,-119.63,4174,-6309,-3588,0,-1,-1
-169.28,150.09,-119.63,4173,-6308,-3590,0,-1,0
-169.29,150.09,-119.63,4177,-6312,-3597,-1,-1,0
-169.29,150.10,-119.63,4175,-6312,-3594,0,0,-1
-169.29,150.09,-119.63,4176,-6314,-3584,0,0,-1
-169.29,150.09,-119.63,4178,-6307,-3591,-1,-1,0
-169.29,150.09,-119.63,4182,-6311,-3590,-1,-1,0
-169.29,150.09,-119.63,4179,-6308,-3587,0,-1,0
-169.29,150.10,-119.63,4175,-6300,-3595,0,0,0
-169.29,150.10,-119.64,4176,-6304,-3597,-1,-1,0
-169.30,150.10,-119.64,4178,-6314,-3601,-1,0,0
-169.29,150.10,-119.63,4175,-6320,-3601,0,0,-1
-169.28,150.09,-119.62,4172,-6303,-3584,0,0,-1
-169.28,150.09,-119.63,4171,-6307,-3574,-1,-1,0
-169.31,150.11,-119.65,4170,-6314,-3599,-1,-1,0
-169.31,150.11,-119.65,4176,-6327,-3628,0,0,0
-169.30,150.11,-119.64,4161,-6324,-3613,0,0,-1
-169.30,150.11,-119.64,4161,-6306,-3591,-1,-1,0
-169.31,150.11,-119.65,4170,-6310,-3588,-1,-1,0
-169.31,150.11,-119.65,4173,-6315,-3601,0,0,0
-169.30,150.11,-119.64,4180,-6316,-3595,0,0,0
-169.30,150.11,-119.64,4174,-6317,-3591,-1,0,0
-169.31,150.11,-119.64,4172,-6319,-3588,-1,-1,0
-169.31,150.11,-119.64,4170,-6320,-3593,0,0,0
-169.30,150.11,-119.64,4176,-6312,-3585,-1,-1,-1
-169.32,150.11,-119.65,4175,-6313,-3593,-1,-1,-1
-169.32,150.12,-119.65,4177,-6314,-3598,0,-1,0
-169.31,150.11,-119.65,4178,-6314,-3602,0,0,-1
-169.31,150.11,-119.65,4178,-6311,-3589,0,0,0
-169.31,150.11,-119.65,4175,-6311,-3595,0,0,0
-169.31,150.11,-119.65,4180,-6309,-3606,0,-1,0
-169.31,150.11,-119.65,4177,-6314,-3606,0,-1,0
-169.31,150.11,-119.65,4174,-6314,-3600,-1,-1,0
-169.32,150.12,-119.66,4173,-6314,-3599,-1,0,0
-169.32,150.12,-119.65,4172,-6315,-3602,0,0,-1
-169.32,150.12,-119.65,4175,-6312,-3604,0,0,-1
-169.31,150.11,-119.65,4176,-6309,-3595,0,0,0
-169.31,150.11,-119.65,4175,-6308,-3591,-1,-1,0
-169.32,150.12,-119.66,4171,-6307,-3591,-1,-1,-1
-169.32,150.12,-119.67,4174,-6309,-3589,0,-1,-1
-169.32,150.12,-119.67,4174,-6315,-3592,-1,-1,0
-169.33,150.12,-119.67,4180,-6316,-3596,0,0,0
-169.32,150.12,-119.66,4179,-6315,-3590,0,0,0
-169.31,150.12,-119.65,4174,-6311,-3578,0,-1,-1
-169.32,150.12,-119.66,4169,-6310,-3580,-1,-1,0
-169.33,150.12,-119.67,4171,-6319,-3601,-1,0,0
-169.33,150.13,-119.66,4170,-6316,-3604,0,0,-1
-169.32,150.12,-119.65,4183,-6319,-3587,0,0,0
-169.32,150.12,-119.65,4181,-6316,-3585,-1,-1,0
-169.33,150.13,-119.65,4177,-6319,-3598,-1,-1,0
-169.33,150.13,-119.65,4174,-6321,-3608,0,-1,-1
-169.33,150.13,-119.66,4173,-6315,-3604,-1,-1,0
-169.33,150.13,-119.66,4176,-6322,-3606,-1,-1,0
-169.33,150.13,-119.66,4170,-6313,-3603,0,0,0
-169.33,150.13,-119.66,4171,-6319,-3595,-1,0,0
-169.33,150.13,-119.66,4177,-6320,-3602,-1,0,0
-169.33,150.13,-119.66,4182,-6320,-3602,0,0,-1
-169.32,150.12,-119.65,4187,-6318,-3596,0,0,0
-169.32,150.12,-119.64,4175,-6308,-3590,0,0,0
-169.32,150.12,-119.64,4174,-6303,-3590,-1,-1,0
-169.32,150.12,-119.65,4174,-6311,-3597,-1,-1,0
-169.32,150.12,-119.65,4176,-6313,-3606,0,0,-1
-169.29,150.10,-119.62,4177,-6304,-3592,0,0,-1
-169.28,150.09,-119.61,4168,-6297,-3572,0,0,-1
-169.28,150.09,-119.61,4176,-6296,-3571,-1,-1,0
-169.28,150.09,-119.61,4170,-6309,-3585,0,0,0
-169.28,150.09,-119.61,4172,-6316,-3596,0,0,0
-169.28,150.09,-119.60,4171,-6307,-3589,0,0,-1
-169.27,150.08,-119.60,4182,-6307,-3594,0,0,-1
-169.26,150.07,-119.60,4178,-6308,-3599,0,0,-1
-169.25,150.07,-119.59,4177,-6312,-3587,0,0,-1
-169.25,150.07,-119.59,4181,-6313,-3585,0,0,0
-169.26,150.07,-119.59,4180,-6312,-3586,0,0,0
-169.25,150.07,-119.58,4177,-6306,-3582,0,-1,-1
-169.26,150.07,-119.59,4176,-6311,-3580,-1,-1,0
-169.25,150.07,-119.59,4183,-6314,-3584,-1,-1,-1
-169.26,150.07,-119.60,4180,-6314,-3592,0,-1,0
-169.26,150.07,-119.60,4185,-6313,-3591,0,0,0
-169.26,150.07,-119.60,4179,-6308,-3587,0,0,-1
-169.26,150.07,-119.60,4172,-6306,-3580,-1,-1,0
-169.26,150.07,-119.60,4174,-6307,-3586,-1,-1,0
-169.28,150.08,-119.61,4173,-6308,-3594,0,-1,0
-169.27,150.08,-119.61,4176,-6308,-3595,-1,-1,0
-169.28,150.09,-119.62,4175,-6308,-3590,-1,-1,0
-169.28,150.09,-119.62,4176,-6310,-3586,-1,-1,0
-169.29,150.09,-119.62,4170,-6307,-3591,-1,-1,0
-169.29,150.09,-119.62,4177,-6309,-3583,0,-1,0
-169.29,150.09,-119.62,4169,-6312,-3590,-1,-1,-1
-169.29,150.10,-119.64,4174,-6311,-3593,-1,-1,0
-169.31,150.10,-119.66,4171,-6306,-3595,-1,-1,0
-169.33,150.11,-119.67,4175,-6313,-3608,-1,-1,0
-169.33,150.12,-119.67,4174,-6315,-3600,0,-1,0
-169.33,150.12,-119.67,4176,-6316,-3591,-1,-1,0
-169.33,150.12,-119.67,4174,-6315,-3593,-1,-1,0
-169.33,150.12,-119.67,4173,-6310,-3597,0,0,-1
-169.33,150.12,-119.67,4174,-6310,-3587,-1,-1,0
-169.34,150.12,-119.68,4175,-6307,-3588,-1,-1,0
-169.33,150.12,-119.67,4166,-6313,-3595,0,-1,0
-169.33,150.12,-119.67,4167,-6312,-3588,0,0,-1
-169.33,150.12,-119.67,4173,-6310,-3589,-1,0,0
-169.33,150.12,-119.67,4172,-6311,-3604,0,0,-1
-169.33,150.12,-119.67,4173,-6311,-3605,0,0,-1
-169.33,150.12,-119.67,4172,-6306,-3605,-1,-1,0
-169.34,150.12,-119.68,4168,-6310,-3604,-1,-1,0
-169.34,150.12,-119.69,4167,-6313,-3609,0,0,-1
-169.33,150.12,-119.67,4175,-6314,-3608,0,0,-1
-169.32,150.11,-119.66,4167,-6302,-3595,0,0,-1
-169.32,150.11,-119.66,4168,-6300,-3580,-1,-1,0
-169.33,150.12,-119.67,4172,-6303,-3592,-1,-1,0
-169.34,150.12,-119.68,4173,-6303,-3608,0,0,0
-169.33,150.12,-119.67,4179,-6305,-3605,0,0,0
-169.33,150.11,-119.67,4177,-6304,-3608,0,0,-1
-169.31,150.10,-119.66,4177,-6308,-3601,0,0,0
-169.31,150.10,-119.66,4175,-6304,-3589,0,0,-1
-169.31,150.10,-119.66,4177,-6296,-3594,-1,-1,0
-169.33,150.11,-119.67,4167,-6309,-3602,-1,0,-1
-169.32,150.11,-119.66,4176,-6317,-3613,0,0,-1
-169.30,150.09,-119.64,4174,-6308,-3597,0,0,-1
-169.28,150.08,-119.64,4178,-6306,-3585,0,0,-1
-169.29,150.09,-119.63,4177,-6310,-3583,-1,-1,0
-169.29,150.09,-119.64,4176,-6316,-3597,0,-1,0
-169.29,150.09,-119.63,4175,-6317,-3587,0,0,-1
-169.29,150.08,-119.63,4185,-6308,-3596,0,0,0
-169.28,150.08,-119.63,4177,-6306,-3597,0,0,-1
-169.28,150.08,-119.63,4177,-6307,-3592,0,0,0
-169.29,150.08,-119.63,4176,-6317,-3608,-1,-1,0
-169.28,150.09,-119.63,4176,-6315,-3616,0,0,-1
-169.27,150.08,-119.62,4178,-6311,-3597,0,0,0
-169.26,150.07,-119.61,4176,-6305,-3583,0,0,-1
-169.26,150.07,-119.61,4175,-6302,-3574,-1,-1,0
-169.26,150.07,-119.61,4182,-6307,-3576,0,0,-1
-169.26,150.07,-119.61,4177,-6306,-3593,0,0,0
-169.26,150.07,-119.61,4181,-6310,-3587,-1,0,-1
-169.27,150.07,-119.62,4180,-6313,-3584,-1,0,-1
-169.26,150.06,-119.61,4186,-6313,-3599,0,0,-1
-169.25,150.06,-119.60,4180,-6308,-3584,0,0,0
-169.25,150.06,-119.60,4181,-6306,-3569,-1,-1,0
-169.26,150.06,-119.61,4186,-6306,-3591,0,0,0
-169.25,150.06,-119.60,4182,-6310,-3596,0,0,0
-169.24,150.06,-119.59,4173,-6313,-3581,0,0,-1
-169.24,150.05,-119.59,4183,-6312,-3571,-1,-1,0
-169.24,150.05,-119.59,4181,-6311,-3581,-1,0,-1
-169.24,150.05,-119.59,4180,-6309,-3591,0,0,0
-169.23,150.06,-119.58,4182,-6308,-3574,0,0,0
-169.23,150.06,-119.58,4177,-6313,-3566,-1,-1,-1
-169.24,150.06,-119.59,4183,-6313,-3572,-1,-1,0
-169.25,150.06,-119.60,4181,-6322,-3584,-1,0,-1
-169.24,150.05,-119.59,4183,-6327,-3599,0,0,-1
-169.23,150.05,-119.58,4181,-6310,-3590,0,0,-1
-169.22,150.04,-119.57,4185,-6308,-3560,-1,-1,-1
-169.24,150.05,-119.59,4185,-6310,-3572,-1,-1,0
-169.24,150.05,-119.59,4186,-6317,-3592,0,-1,0
-169.25,150.06,-119.60,4179,-6316,-3602,0,0,0
-169.24,150.06,-119.59,4176,-6309,-3584,-1,-1,-1
-169.25,150.06,-119.60,4177,-6305,-3588,-1,-1,0
-169.25,150.06,-119.61,4182,-6309,-3597,-1,-1,0
-169.27,150.07,-119.62,4181,-6315,-3590,0,-1,0
-169.27,150.07,-119.62,4178,-6314,-3587,-1,-1,0
-169.27,150.08,-119.62,4178,-6316,-3579,-1,-1,0
-169.28,150.08,-119.62,4173,-6318,-3586,0,-1,0
-169.28,150.09,-119.63,4173,-6325,-3585,-1,-1,0
-169.28,150.08,-119.64,4168,-6310,-3592,-1,-1,-1
-169.29,150.09,-119.64,4171,-6313,-3602,-1,-1,0
-169.30,150.09,-119.64,4174,-6309,-3593,0,-1,0
-169.30,150.09,-119.64,4169,-6307,-3598,-1,0,0
-169.30,150.09,-119.64,4174,-6315,-3591,0,0,0
-169.29,150.10,-119.63,4172,-6315,-3582,0,0,-1
-169.29,150.10,-119.63,4176,-6308,-3576,-1,-1,0
-169.30,150.10,-119.64,4168,-6315,-3595,-1,-1,0
-169.30,150.10,-119.64,4169,-6315,-3612,0,0,0
-169.30,150.10,-119.64,4170,-6317,-3594,0,0,-1
-169.29,150.10,-119.62,4172,-6314,-3583,-1,0,0
-169.29,150.10,-119.63,4171,-6318,-3577,-1,-1,0
-169.30,150.10,-119.63,4179,-6314,-3582,0,-1,0
-169.30,150.10,-119.63,4176,-6316,-3582,-1,-1,0
-169.31,150.11,-119.64,4177,-6316,-3593,-1,-1,0
-169.31,150.11,-119.64,4178,-6315,-3590,0,0,0
-169.30,150.10,-119.63,4181,-6319,-3588,0,0,0
-169.30,150.10,-119.64,4175,-6321,-3595,-1,-1,-1
-169.30,150.10,-119.64,4179,-6319,-3595,-1,0,0
-169.30,150.10,-119.64,4183,-6314,-3590,0,0,-1
-169.30,150.10,-119.64,4174,-6308,-3587,0,0,0
-169.30,150.10,-119.64,4176,-6307,-3585,0,-1,0
-169.30,150.10,-119.64,4174,-6312,-3585,-1,-1,0
-169.31,150.11,-119.64,4172,-6315,-3590,0,-1,0
-169.31,150.11,-119.64,4173,-6312,-3589,0,-1,0
-169.31,150.11,-119.64,4172,-6312,-3588,-1,0,-1
-169.31,150.11,-119.64,4170,-6311,-3587,0,0,0
-169.31,150.11,-119.64,4168,-6306,-3584,0,-1,0
-169.31,150.11,-119.64,4168,-6312,-3597,-1,-1,0
-169.31,150.11,-119.64,4173,-6313,-3604,0,-1,0
-169.31,150.11,-119.64,4175,-6317,-3598,0,0,0
-169.31,150.11,-119.64,4179,-6308,-3591,0,0,0
-169.31,150.11,-119.64,4182,-6306,-3593,-1,-1,0
-169.32,150.11,-119.65,4188,-6314,-3606,-1,-1,0
-169.31,150.11,-119.64,4184,-6314,-3602,0,0,-1
-169.30,150.10,-119.63,4177,-6301,-3573,0,0,0
-169.30,150.10,-119.63,4174,-6299,-3571,-1,-1,0
-169.30,150.11,-119.64,4186,-6308,-3588,-1,-1,0
-169.32,150.12,-119.65,4178,-6310,-3611,-1,-1,0
-169.32,150.12,-119.65,4177,-6318,-3608,0,0,0
-169.30,150.11,-119.63,4163,-6312,-3583,0,0,-1
-169.30,150.11,-119.63,4174,-6305,-3574,-1,-1,0
-169.31,150.11,-119.64,4171,-6306,-3584,-1,-1,0
-169.31,150.11,-119.64,4179,-6311,-3604,0,0,0
