Yaw,Pitch,Roll,AX,AY,AZ,GX,GY,GZ
-156.07,13.74,-70.95,1978,-7647,2650,-1,-1,0
-156.08,13.73,-70.95,1980,-7650,2648,-1,-1,0
-156.09,13.73,-70.96,1984,-7653,2636,-1,-1,0
-156.09,13.73,-70.97,1984,-7653,2620,0,-1,0
-156.09,13.72,-70.96,1983,-7655,2623,0,0,0
-156.09,13.72,-70.95,1985,-7649,2638,0,0,0
-156.10,13.72,-70.96,1981,-7650,2643,-1,-1,0
-156.11,13.72,-70.97,1981,-7658,2639,-1,-1,0
-156.11,13.72,-70.97,1983,-7668,2633,0,-1,0
-156.10,13.71,-70.96,1978,-7649,2636,0,0,0
-156.11,13.71,-70.96,1972,-7639,2642,-1,-1,0
-156.11,13.71,-70.96,1974,-7636,2640,-1,-1,0
-156.12,13.70,-70.97,1984,-7650,2662,-1,0,0
-156.13,13.70,-70.98,1981,-7663,2635,-1,0,0
-156.13,13.69,-70.97,1971,-7659,2644,0,-1,0
-156.14,13.69,-70.98,1966,-7650,2631,0,-1,0
-156.14,13.69,-70.97,1974,-7640,2634,0,0,0
-156.14,13.68,-70.97,1979,-7641,2634,-1,-1,0
-156.14,13.68,-70.97,1979,-7647,2636,-1,-1,0
-156.15,13.68,-70.98,1980,-7653,2642,-1,-1,0
-156.16,13.67,-70.98,1969,-7651,2633,-1,-1,0
-156.17,13.66,-70.99,1973,-7657,2627,-1,-1,0
-156.17,13.66,-70.98,1975,-7650,2631,-1,0,0
-156.17,13.66,-70.98,1975,-7646,2637,0,-1,0
-156.17,13.66,-70.98,1977,-7646,2643,-1,-1,0
-156.17,13.66,-70.98,1976,-7655,2638,-1,-1,0
-156.18,13.66,-70.99,1978,-7662,2640,-1,-1,0
-156.19,13.65,-70.99,1972,-7658,2643,-1,-1,0
-156.20,13.64,-70.99,1960,-7656,2634,0,-1,0
-156.20,13.64,-70.99,1967,-7652,2633,0,-1,0
-156.21,13.63,-70.99,1968,-7653,2620,0,-1,0
-156.21,13.63,-70.99,1965,-7655,2628,0,-1,0
-156.21,13.63,-70.99,1963,-7654,2636,0,-1,0
-156.22,13.62,-70.99,1965,-7660,2641,-1,-1,0
-156.22,13.62,-70.99,1980,-7652,2642,0,0,0
-156.23,13.62,-71.00,1965,-7656,2641,-1,-1,0
-156.24,13.61,-71.01,1962,-7648,2630,0,0,0
-156.24,13.61,-71.01,1963,-7648,2633,-1,-1,0
-156.25,13.61,-71.02,1966,-7668,2624,0,-1,0
-156.25,13.61,-71.02,1976,-7668,2619,0,0,0
-156.26,13.60,-71.01,1979,-7650,2635,0,0,0
-156.26,13.60,-71.01,1972,-7641,2644,-1,-1,0
-156.27,13.59,-71.01,1971,-7645,2635,-1,-1,0
-156.28,13.59,-71.03,1973,-7667,2634,-1,-1,0
-156.29,13.58,-71.03,1966,-7674,2627,0,0,0
-156.29,13.57,-71.03,1956,-7675,2628,0,-1,0
-156.29,13.57,-71.02,1956,-7664,2636,0,-1,0
-156.29,13.57,-71.02,1956,-7657,2637,-1,-1,0
-156.30,13.57,-71.02,1952,-7651,2637,-1,-1,0
-156.30,13.57,-71.02,1955,-7657,2634,-1,-1,0
-156.31,13.56,-71.02,1951,-7652,2630,-1,-1,0
-156.32,13.56,-71.03,1950,-7658,2626,-1,-1,0
-156.32,13.55,-71.03,1948,-7669,2628,0,-1,0
-156.32,13.56,-71.03,1957,-7672,2631,0,-1,0
-156.32,13.55,-71.02,1956,-7658,2637,0,-1,0
-156.32,13.55,-71.01,1958,-7648,2640,0,0,0
-156.32,13.55,-71.01,1962,-7659,2648,-1,-1,0
-156.32,13.55,-71.02,1956,-7663,2629,-1,0,0
-156.33,13.55,-71.02,1954,-7669,2634,-1,-1,0
-156.33,13.55,-71.02,1953,-7668,2625,0,-1,-1
-156.32,13.55,-71.01,1955,-7663,2634,0,0,-1
-156.32,13.55,-71.01,1962,-7656,2643,-1,-1,-1
-156.31,13.56,-71.00,1966,-7659,2640,-1,-1,-1
-156.31,13.56,-71.00,1963,-7653,2637,0,0,-1
-156.31,13.56,-71.00,1963,-7649,2638,0,-1,-1
-156.31,13.56,-71.00,1956,-7654,2635,-1,-1,-1
-156.30,13.57,-71.00,1959,-7663,2629,0,-1,-1
-156.30,13.57,-71.01,1960,-7658,2625,-1,-1,-1
-156.30,13.58,-71.01,1968,-7672,2621,-1,-1,-1
-156.29,13.58,-71.01,1973,-7674,2620,0,0,-1
-156.28,13.59,-71.00,1964,-7658,2630,0,0,-1
-156.27,13.59,-70.99,1962,-7647,2644,0,-1,-1
-156.27,13.59,-70.99,1967,-7654,2641,-1,-1,-1
-156.27,13.60,-70.99,1974,-7664,2635,-1,0,-1
-156.27,13.60,-71.00,1963,-7670,2629,-1,-1,-1
-156.26,13.60,-70.99,1955,-7669,2629,0,0,-1
-156.25,13.61,-70.98,1960,-7654,2637,-1,-1,-1
-156.24,13.62,-70.98,1969,-7647,2638,0,0,-1
-156.24,13.62,-70.98,1970,-7662,2640,-1,-1,-1
-156.23,13.63,-70.98,1974,-7668,2638,0,0,-1
-156.23,13.63,-70.98,1973,-7656,2643,-1,-1,0
-156.23,13.63,-70.98,1968,-7650,2644,-1,-1,-1
-156.23,13.64,-70.99,1972,-7650,2636,-1,-1,-1
-156.23,13.64,-71.00,1973,-7654,2625,-1,-1,-1
-156.23,13.64,-71.00,1976,-7656,2629,-1,0,0
-156.23,13.65,-71.01,1968,-7657,2608,0,0,-1
-156.23,13.65,-71.01,1970,-7655,2620,-1,0,-1
-156.22,13.65,-71.00,1974,-7662,2631,0,0,-1
-156.21,13.66,-71.00,1973,-7656,2642,-1,0,-1
-156.21,13.65,-71.00,1963,-7655,2645,0,0,-1
-156.20,13.66,-70.99,1965,-7655,2641,-1,-1,-1
-156.20,13.66,-70.99,1967,-7650,2640,0,0,-1
-156.20,13.66,-70.99,1972,-7653,2644,-1,-1,-1
-156.20,13.66,-70.99,1977,-7647,2641,-1,-1,0
-156.20,13.66,-70.99,1972,-7647,2636,0,0,-1
-156.19,13.67,-70.99,1977,-7651,2642,-1,-1,0
-156.19,13.67,-71.00,1975,-7656,2638,-1,-1,-1
-156.20,13.67,-71.01,1973,-7661,2623,-1,-1,-1
-156.20,13.67,-71.02,1975,-7668,2617,-1,0,-1
-156.20,13.68,-71.01,1973,-7670,2625,0,0,-1
-156.18,13.68,-71.00,1966,-7645,2639,0,-1,-1
-156.18,13.68,-71.00,1972,-7643,2641,-1,-1,-1
-156.18,13.68,-71.00,1976,-7649,2639,-1,-1,0
-156.19,13.68,-71.01,1972,-7668,2625,-1,-1,0
-156.18,13.68,-71.00,1969,-7666,2632,0,0,-1
-156.18,13.68,-71.00,1961,-7662,2634,-1,-1,-1
-156.18,13.69,-71.00,1969,-7652,2627,0,0,-1
-156.17,13.69,-70.99,1982,-7647,2636,-1,-1,-1
-156.17,13.70,-71.00,1977,-7651,2631,0,0,-1
-156.16,13.69,-70.99,1969,-7646,2641,0,-1,-1
-156.16,13.69,-70.99,1973,-7653,2647,-1,-1,-1
-156.16,13.70,-70.99,1983,-7654,2643,-1,-1,-1
-156.16,13.70,-70.99,1989,-7653,2634,-1,-1,-1
-156.15,13.71,-71.00,1987,-7651,2632,-1,0,0
-156.16,13.71,-71.00,1986,-7657,2622,0,0,0
-156.16,13.71,-71.00,1984,-7657,2626,-1,0,-1
-156.16,13.71,-71.00,1979,-7660,2626,-1,-1,-1
-156.16,13.71,-71.00,1979,-7665,2627,-1,-1,-1
-156.15,13.72,-71.00,1979,-7665,2628,0,0,-1
-156.14,13.72,-71.00,1980,-7660,2628,0,-1,-1
-156.14,13.73,-71.00,1980,-7664,2634,0,0,-1
-156.14,13.73,-70.99,1984,-7652,2645,-1,-1,-1
-156.14,13.73,-71.00,1984,-7655,2640,-1,-1,-1
-156.13,13.73,-71.00,1983,-7653,2640,-1,-1,-1
-156.14,13.73,-71.00,1981,-7654,2637,-1,-1,-1
-156.14,13.74,-71.01,1990,-7653,2628,-1,-1,-1
-156.13,13.74,-71.01,1989,-7664,2624,-1,-1,-1
-156.13,13.74,-71.01,1993,-7664,2614,0,0,-1
-156.12,13.74,-71.00,1989,-7656,2619,0,0,-1
-156.12,13.75,-71.00,1984,-7642,2632,0,-1,-1
-156.12,13.75,-71.00,1983,-7643,2632,-1,-1,-1
-156.12,13.75,-71.00,1989,-7656,2637,-1,-1,0
-156.12,13.75,-71.00,1986,-7671,2624,0,0,-1
-156.11,13.75,-70.99,1991,-7669,2641,0,0,-1
-156.11,13.75,-70.99,1979,-7663,2633,-1,-1,-1
-156.11,13.76,-70.99,1985,-7649,2635,0,-1,-1
-156.10,13.76,-70.99,1994,-7655,2631,-1,-1,-1
-156.10,13.77,-70.99,1993,-7655,2635,0,0,-1
-156.10,13.77,-70.99,1989,-7655,2640,-1,-1,-1
-156.09,13.77,-71.00,1991,-7653,2631,-1,-1,-1
-156.10,13.78,-71.01,1989,-7655,2628,-1,-1,-1
-156.10,13.77,-71.01,1986,-7656,2621,0,-1,0
-156.10,13.78,-71.01,1991,-7656,2628,0,0,-1
-156.10,13.78,-71.01,1993,-7654,2625,0,0,-1
-156.10,13.78,-71.01,1994,-7658,2621,-1,-1,-1
-156.10,13.78,-71.02,1985,-7653,2620,0,-1,0
-156.10,13.78,-71.01,1983,-7660,2625,0,0,-1
-156.09,13.78,-71.00,1975,-7656,2630,0,0,-1
-156.09,13.79,-71.00,1991,-7651,2634,-1,-1,-1
-156.09,13.79,-71.01,1988,-7646,2627,-1,-1,0
-156.09,13.79,-71.01,1998,-7655,2626,-1,-1,-1
-156.09,13.79,-71.01,1997,-7654,2626,-1,-1,0
-156.09,13.79,-71.01,2005,-7655,2637,-1,-1,0
-156.09,13.80,-71.02,2000,-7651,2638,-1,-1,0
-156.09,13.80,-71.02,1994,-7651,2636,-1,-1,-1
-156.09,13.80,-71.03,2000,-7661,2620,-1,-1,-1
-156.09,13.80,-71.03,2001,-7666,2616,0,0,-1
-156.08,13.81,-71.02,1998,-7648,2623,0,0,0
-156.08,13.81,-71.02,1993,-7646,2641,-1,0,0
-156.08,13.80,-71.03,1992,-7648,2634,-1,-1,0
-156.09,13.80,-71.03,1984,-7664,2618,-1,0,0
-156.09,13.80,-71.03,1986,-7665,2607,0,0,0
-156.08,13.80,-71.02,1997,-7647,2609,0,0,-1
-156.08,13.81,-71.03,1997,-7645,2611,-1,-1,-1
-156.07,13.81,-71.02,2011,-7639,2619,0,0,-1
-156.07,13.81,-71.03,2002,-7647,2623,-1,-1,0
-156.07,13.82,-71.03,2002,-7644,2625,0,0,0
-156.09,13.81,-71.04,1986,-7643,2622,-1,-1,0
-156.08,13.82,-71.05,1990,-7649,2608,-1,-1,-1
-156.08,13.82,-71.05,2000,-7652,2617,-1,-1,-1
-156.08,13.82,-71.05,2002,-7654,2616,0,0,0
-156.08,13.82,-71.05,2002,-7660,2626,-1,-1,0
-156.08,13.82,-71.05,2000,-7653,2624,-1,-1,0
-156.08,13.82,-71.05,1991,-7650,2622,-1,-1,0
-156.08,13.82,-71.05,1991,-7657,2617,0,0,0
-156.08,13.82,-71.05,1987,-7655,2624,0,0,-1
-156.08,13.82,-71.05,1984,-7646,2634,0,-1,-1
-156.07,13.83,-71.04,1990,-7641,2624,-1,-1,-1
-156.07,13.83,-71.04,1989,-7644,2625,0,0,0
-156.07,13.83,-71.04,1992,-7652,2628,-1,-1,0
-156.07,13.83,-71.04,1994,-7649,2628,0,-1,-1
-156.07,13.83,-71.04,1989,-7639,2634,-1,-1,0
-156.08,13.82,-71.05,1985,-7643,2635,-1,-1,0
-156.08,13.82,-71.05,1990,-7652,2627,-1,-1,-1
-156.08,13.83,-71.06,1996,-7661,2615,0,-1,-1
-156.07,13.83,-71.05,1998,-7655,2616,0,0,-1
-156.07,13.83,-71.05,2000,-7636,2623,0,0,-1
-156.07,13.83,-71.05,1997,-7629,2632,-1,-1,0
-156.08,13.83,-71.06,2005,-7653,2623,-1,-1,0
-156.08,13.83,-71.07,1994,-7669,2605,0,0,0
-156.08,13.83,-71.06,1992,-7671,2608,0,0,-1
-156.08,13.82,-71.05,1985,-7656,2626,-1,-1,-1
-156.07,13.83,-71.05,1996,-7642,2623,0,0,-1
-156.07,13.83,-71.05,1999,-7648,2637,-1,-1,0
-156.08,13.83,-71.06,1996,-7657,2622,0,0,0
-156.08,13.82,-71.06,1987,-7654,2631,-1,-1,0
-156.08,13.82,-71.06,1977,-7656,2632,0,-1,0
-156.08,13.83,-71.06,1989,-7651,2631,-1,-1,-1
-156.08,13.83,-71.07,1999,-7655,2615,-1,-1,0
-156.09,13.82,-71.07,2001,-7656,2623,0,-1,0
-156.09,13.82,-71.07,1997,-7649,2625,0,-1,0
-156.09,13.82,-71.07,1996,-7647,2632,-1,-1,0
-156.09,13.82,-71.07,2000,-7660,2623,-1,0,0
-156.10,13.82,-71.08,1990,-7663,2618,-1,-1,0
-156.10,13.81,-71.07,1988,-7658,2614,0,-1,0
-156.10,13.82,-71.07,1990,-7663,2627,0,-1,-1
-156.09,13.82,-71.07,2000,-7656,2629,0,-1,-1
-156.09,13.82,-71.07,2003,-7652,2626,-1,-1,0
-156.10,13.82,-71.07,1999,-7653,2619,-1,-1,0
-156.10,13.82,-71.07,1995,-7655,2628,0,-1,0
-156.11,13.82,-71.07,1990,-7648,2627,-1,-1,0
-156.11,13.82,-71.08,1991,-7655,2630,-1,-1,0
-156.11,13.81,-71.09,2003,-7659,2618,-1,-1,0
-156.12,13.82,-71.09,1997,-7664,2616,0,-1,0
-156.12,13.81,-71.08,1990,-7651,2623,0,0,0
-156.11,13.80,-71.07,1988,-7642,2634,0,-1,0
-156.12,13.80,-71.07,1989,-7641,2637,-1,-1,0
-156.13,13.80,-71.08,1994,-7654,2623,-1,-1,0
-156.13,13.80,-71.08,1994,-7666,2617,0,0,0
-156.13,13.79,-71.07,1984,-7665,2631,-1,0,0
-156.13,13.79,-71.07,1985,-7653,2618,0,0,0
-156.13,13.79,-71.07,1991,-7645,2630,-1,-1,0
-156.14,13.79,-71.08,1986,-7656,2613,-1,-1,0
-156.14,13.79,-71.08,2000,-7660,2619,0,0,0
-156.14,13.79,-71.08,1998,-7655,2630,-1,-1,0
-156.15,13.78,-71.08,1990,-7653,2628,-1,-1,0
-156.16,13.78,-71.09,1990,-7654,2610,-1,-1,0
-156.16,13.78,-71.09,1985,-7652,2606,-1,0,0
-156.17,13.77,-71.10,1991,-7655,2615,0,0,0
-156.17,13.77,-71.10,1985,-7655,2612,-1,-1,0
-156.18,13.77,-71.11,1985,-7658,2617,0,-1,0
-156.18,13.77,-71.11,1986,-7665,2611,0,-1,0
-156.17,13.76,-71.10,1986,-7668,2614,0,0,0
-156.17,13.76,-71.09,1995,-7661,2630,0,0,0
-156.17,13.76,-71.09,1992,-7651,2619,0,-1,0
-156.18,13.76,-71.09,1988,-7650,2617,0,-1,0
-156.18,13.76,-71.09,1985,-7656,2619,-1,-1,0
-156.18,13.76,-71.10,1999,-7662,2615,-1,-1,0
-156.19,13.75,-71.10,1984,-7654,2622,-1,-1,0
-156.19,13.75,-71.10,1979,-7647,2619,-1,-1,0
-156.20,13.75,-71.11,1981,-7644,2618,-1,-1,0
-156.21,13.74,-71.12,1984,-7660,2607,-1,-1,0
-156.21,13.74,-71.12,1992,-7668,2613,0,0,0
-156.21,13.74,-71.12,1992,-7661,2605,0,0,0
-156.21,13.73,-71.10,1982,-7631,2612,0,-1,0
-156.22,13.73,-71.11,1980,-7639,2616,-1,-1,0
-156.22,13.73,-71.11,1986,-7654,2610,-1,-1,0
-156.22,13.73,-71.11,1984,-7666,2611,0,0,0
-156.23,13.72,-71.11,1978,-7665,2614,0,0,0
-156.23,13.72,-71.10,1973,-7657,2616,0,-1,0
-156.22,13.73,-71.10,1976,-7652,2623,-1,-1,-1
-156.22,13.73,-71.10,1983,-7657,2621,-1,0,0
-156.23,13.72,-71.10,1985,-7658,2625,0,0,0
-156.23,13.72,-71.10,1979,-7651,2629,0,0,0
-156.24,13.71,-71.11,1977,-7651,2628,-1,-1,0
-156.24,13.71,-71.11,1985,-7661,2615,-1,-1,-1
-156.24,13.72,-71.11,1986,-7661,2614,0,-1,0
-156.24,13.72,-71.11,1991,-7652,2618,0,-1,0
-156.25,13.71,-71.11,1983,-7654,2602,0,0,0
-156.25,13.71,-71.11,1977,-7658,2613,0,-1,0
-156.25,13.71,-71.11,1977,-7661,2609,0,0,0
-156.25,13.70,-71.11,1964,-7660,2614,0,0,0
-156.25,13.70,-71.10,1968,-7661,2625,0,-1,-1
-156.25,13.70,-71.10,1978,-7651,2620,0,-1,-1
-156.25,13.71,-71.10,1980,-7655,2610,0,-1,-1
-156.25,13.71,-71.10,1983,-7655,2622,0,-1,0
-156.24,13.70,-71.09,1983,-7652,2631,0,0,0
-156.24,13.70,-71.09,1979,-7663,2635,-1,-1,0
-156.25,13.70,-71.09,1971,-7658,2635,-1,-1,0
-156.25,13.70,-71.10,1970,-7658,2614,-1,-1,-1
-156.26,13.71,-71.11,1976,-7664,2610,-1,-1,-1
-156.26,13.71,-71.11,1980,-7665,2613,0,0,-1
-156.25,13.71,-71.10,1980,-7656,2617,0,0,-1
-156.24,13.71,-71.08,1974,-7647,2628,0,0,0
-156.24,13.71,-71.08,1977,-7646,2627,-1,-1,-1
-156.25,13.71,-71.10,1984,-7658,2609,-1,-1,0
-156.24,13.71,-71.10,1978,-7672,2598,0,0,-1
-156.24,13.71,-71.10,1980,-7669,2610,0,0,-1
-156.23,13.72,-71.09,1974,-7653,2609,0,0,-1
-156.23,13.72,-71.09,1978,-7646,2625,-1,-1,-1
-156.23,13.72,-71.10,1980,-7656,2615,-1,-1,-1
-156.23,13.73,-71.10,1987,-7660,2619,-1,0,-1
-156.22,13.73,-71.10,1983,-7664,2624,-1,0,-1
-156.22,13.73,-71.10,1980,-7662,2628,-1,-1,-1
-156.22,13.73,-71.10,1979,-7658,2629,-1,-1,-1
-156.22,13.74,-71.11,1984,-7661,2620,-1,-1,-1
-156.22,13.74,-71.11,1979,-7657,2615,0,0,-1
-156.22,13.74,-71.11,1983,-7655,2609,0,0,-1
-156.22,13.74,-71.11,1980,-7660,2611,0,-1,0
-156.22,13.74,-71.11,1979,-7673,2613,0,0,-1
-156.22,13.74,-71.11,1979,-7664,2612,0,0,-1
-156.21,13.75,-71.10,1977,-7659,2621,0,0,-1
-156.20,13.74,-71.09,1978,-7658,2628,0,0,-1
-156.20,13.74,-71.09,1981,-7657,2632,-1,0,-1
-156.21,13.75,-71.10,1979,-7662,2626,-1,0,-1
-156.21,13.75,-71.10,1983,-7662,2618,-1,-1,-1
-156.21,13.75,-71.11,1989,-7664,2617,0,0,-1
-156.20,13.75,-71.10,1991,-7652,2623,-1,0,0
-156.20,13.76,-71.11,1982,-7654,2611,-1,0,0
-156.21,13.75,-71.12,1976,-7655,2605,-1,-1,-1
-156.21,13.76,-71.13,1982,-7666,2595,0,-1,-1
-156.20,13.77,-71.13,1987,-7672,2593,0,-1,-1
-156.19,13.77,-71.12,1998,-7656,2606,0,0,-1
-156.20,13.76,-71.11,1989,-7648,2624,-1,-1,-1
-156.20,13.76,-71.11,1984,-7647,2619,0,0,-1
-156.20,13.76,-71.12,1989,-7657,2616,-1,0,0
-156.20,13.76,-71.12,1984,-7671,2604,0,0,-1
-156.19,13.76,-71.11,1980,-7667,2601,0,0,-1
-156.19,13.76,-71.11,1976,-7672,2608,0,0,-1
-156.18,13.77,-71.10,1984,-7662,2616,-1,-1,-1
-156.18,13.77,-71.10,1989,-7657,2613,-1,-1,-1
-156.18,13.77,-71.10,1984,-7653,2608,0,-1,-1
-156.18,13.77,-71.10,1979,-7657,2621,-1,-1,-1
-156.18,13.78,-71.11,1979,-7661,2619,-1,0,-1
-156.18,13.78,-71.11,1984,-7656,2625,-1,-1,-1
-156.18,13.78,-71.12,1990,-7658,2618,-1,-1,-1
-156.18,13.78,-71.12,1998,-7661,2614,-1,-1,-1
-156.17,13.79,-71.12,1992,-7659,2611,0,0,-1
-156.17,13.79,-71.12,1996,-7665,2605,0,-1,-1
-156.17,13.79,-71.12,1994,-7664,2605,0,0,-1
-156.15,13.80,-71.10,1991,-7657,2628,0,0,-1
-156.15,13.80,-71.10,1989,-7652,2635,-1,-1,-1
-156.15,13.80,-71.10,1987,-7650,2629,0,0,-1
-156.14,13.81,-71.10,1992,-7652,2624,0,-1,-1
-156.13,13.82,-71.09,1997,-7643,2629,-1,0,-1
-156.14,13.81,-71.09,1989,-7641,2624,-1,0,-1
-156.14,13.81,-71.09,1986,-7653,2624,-1,0,-1
-156.14,13.81,-71.10,1987,-7659,2613,-1,-1,-1
-156.14,13.82,-71.11,2002,-7663,2606,-1,-1,-1
-156.14,13.82,-71.12,2000,-7673,2598,0,-1,-1
-156.13,13.83,-71.10,2003,-7657,2605,0,0,-1
-156.12,13.82,-71.09,1991,-7643,2622,-1,-1,-1
-156.13,13.82,-71.10,1991,-7645,2614,-1,0,0
-156.13,13.82,-71.11,1994,-7660,2605,-1,-1,0
-156.14,13.82,-71.12,1994,-7669,2593,0,0,-1
-156.13,13.82,-71.10,1994,-7662,2611,0,0,-1
-156.11,13.83,-71.09,1996,-7651,2628,0,0,-1
-156.11,13.83,-71.09,2001,-7641,2629,-1,-1,-1
-156.11,13.84,-71.10,2000,-7642,2614,-1,0,-1
-156.11,13.84,-71.10,1996,-7648,2622,0,0,-1
-156.12,13.83,-71.10,1994,-7655,2626,0,0,-1
-156.11,13.84,-71.10,1994,-7648,2631,-1,-1,-1
-156.11,13.84,-71.10,1996,-7653,2618,-1,-1,-1
-156.11,13.84,-71.11,1999,-7659,2619,0,0,-1
-156.11,13.84,-71.10,2003,-7659,2614,0,0,-1
-156.10,13.85,-71.10,2002,-7653,2615,0,0,-1
-156.10,13.85,-71.10,2001,-7660,2616,0,0,-1
-156.10,13.85,-71.10,2001,-7655,2603,0,0,-1
-156.10,13.85,-71.10,1994,-7652,2608,0,0,-1
-156.09,13.85,-71.09,1997,-7647,2616,0,0,-1
-156.08,13.86,-71.09,1998,-7642,2627,0,-1,-1
-156.08,13.86,-71.09,2001,-7648,2620,-1,-1,-1
-156.09,13.86,-71.10,2000,-7654,2612,-1,0,-1
-156.09,13.86,-71.10,1995,-7660,2610,-1,0,-1
-156.09,13.86,-71.10,1991,-7660,2610,0,0,-1
-156.08,13.87,-71.09,1998,-7659,2609,0,0,-1
-156.08,13.87,-71.09,1997,-7647,2621,0,-1,-1
-156.08,13.87,-71.09,1999,-7647,2621,-1,-1,0
-156.09,13.87,-71.10,1998,-7653,2617,-1,-1,-1
-156.08,13.87,-71.11,2009,-7665,2600,0,0,-1
-156.08,13.88,-71.11,2003,-7671,2589,0,0,-1
-156.07,13.88,-71.09,2003,-7645,2601,0,0,-1
-156.07,13.87,-71.08,1993,-7635,2619,-1,-1,0
-156.08,13.87,-71.10,1999,-7645,2616,-1,0,0
-156.09,13.87,-71.11,1996,-7663,2612,-1,-1,0
-156.09,13.87,-71.11,1996,-7670,2605,0,0,-1
-156.08,13.87,-71.10,1997,-7661,2611,0,0,-1
-156.07,13.88,-71.10,2008,-7648,2614,0,0,-1
-156.06,13.89,-71.10,2007,-7639,2617,-1,-1,-1
-156.06,13.89,-71.10,2008,-7647,2620,-1,-1,-1
-156.07,13.89,-71.11,2003,-7650,2622,-1,0,0
-156.07,13.89,-71.11,2000,-7658,2625,-1,-1,-1
-156.07,13.88,-71.11,1995,-7655,2624,-1,-1,-1
-156.06,13.89,-71.12,2004,-7650,2609,0,-1,-1
-156.06,13.89,-71.12,2010,-7646,2610,0,0,-1
-156.06,13.90,-71.11,2013,-7651,2603,0,-1,-1
-156.07,13.89,-71.12,2005,-7654,2603,-1,0,-1
-156.07,13.90,-71.13,1997,-7663,2604,-1,-1,0
-156.07,13.90,-71.13,1995,-7662,2599,0,0,-1
-156.07,13.90,-71.13,1997,-7657,2607,0,0,-1
-156.06,13.90,-71.12,1997,-7645,2613,0,0,-1
-156.06,13.90,-71.11,2000,-7646,2618,0,0,-1
-156.06,13.90,-71.12,2006,-7649,2620,-1,0,0
-156.06,13.90,-71.12,2007,-7651,2625,-1,0,-1
-156.06,13.90,-71.12,2004,-7655,2614,-1,-1,-1
-156.06,13.90,-71.13,1999,-7657,2598,-1,-1,-1
-156.06,13.91,-71.13,2016,-7655,2610,-1,0,0
-156.07,13.90,-71.14,2008,-7662,2603,0,0,0
-156.06,13.90,-71.12,2003,-7655,2618,0,0,0
-156.07,13.89,-71.14,1999,-7661,2605,-1,-1,0
-156.07,13.90,-71.14,2002,-7663,2606,0,-1,-1
-156.07,13.90,-71.14,2004,-7670,2596,0,0,-1
-156.06,13.90,-71.13,2007,-7649,2597,0,0,-1
-156.06,13.90,-71.13,2008,-7640,2612,-1,0,0
-156.07,13.90,-71.14,2009,-7644,2620,-1,-1,0
-156.07,13.90,-71.14,2003,-7661,2616,-1,-1,0
-156.08,13.89,-71.14,2002,-7667,2595,0,0,0
-156.08,13.89,-71.14,1993,-7663,2598,0,0,-1
-156.07,13.89,-71.14,1983,-7653,2606,0,0,-1
-156.07,13.89,-71.13,1994,-7646,2618,-1,-1,-1
-156.07,13.90,-71.14,2007,-7647,2608,-1,-1,0
-156.08,13.90,-71.14,2006,-7664,2606,0,-1,0
-156.08,13.89,-71.14,2000,-7659,2610,0,0,0
-156.08,13.90,-71.14,2006,-7654,2611,-1,-1,-1
-156.08,13.89,-71.15,2009,-7652,2604,-1,-1,0
-156.09,13.90,-71.15,2013,-7648,2596,0,0,0
-156.09,13.90,-71.15,2008,-7638,2603,0,0,0
-156.08,13.89,-71.15,2005,-7641,2601,-1,-1,0
-156.09,13.90,-71.15,2003,-7651,2607,-1,-1,0
-156.10,13.89,-71.16,2006,-7653,2603,0,-1,0
-156.10,13.88,-71.15,2007,-7652,2604,0,0,0
-156.09,13.89,-71.15,2007,-7658,2597,0,0,0
-156.09,13.89,-71.15,2011,-7652,2618,0,0,0
-156.10,13.88,-71.15,2009,-7652,2611,-1,-1,0
-156.10,13.88,-71.15,2010,-7654,2612,-1,-1,0
-156.11,13.88,-71.16,2001,-7658,2612,-1,-1,0
-156.11,13.88,-71.16,2001,-7664,2600,-1,0,0
-156.11,13.88,-71.17,2004,-7661,2603,0,0,0
-156.11,13.88,-71.16,2012,-7661,2607,0,0,0
-156.11,13.88,-71.16,2001,-7656,2614,-1,-1,0
-156.12,13.87,-71.17,1999,-7651,2609,-1,-1,0
-156.13,13.87,-71.17,1994,-7654,2613,-1,-1,0
-156.13,13.87,-71.18,1999,-7665,2606,-1,-1,0
-156.14,13.87,-71.19,2002,-7668,2597,0,-1,-1
-156.14,13.87,-71.18,2001,-7667,2604,0,0,0
-156.14,13.86,-71.17,2003,-7659,2608,0,0,0
-156.14,13.86,-71.18,1997,-7656,2603,-1,-1,0
-156.15,13.85,-71.18,1997,-7669,2599,-1,-1,0
-156.15,13.85,-71.18,2001,-7674,2595,0,0,0
-156.15,13.85,-71.18,2005,-7669,2594,0,0,0
-156.15,13.85,-71.18,1998,-7656,2601,0,0,0
-156.15,13.85,-71.18,1995,-7659,2607,-1,-1,0
-156.15,13.85,-71.19,1995,-7660,2600,-1,-1,0
-156.16,13.85,-71.19,2003,-7663,2601,0,-1,0
-156.16,13.85,-71.19,2002,-7657,2602,0,0,0
-156.17,13.84,-71.19,1993,-7661,2607,-1,-1,0
-156.17,13.84,-71.20,1997,-7652,2599,0,0,0
-156.17,13.84,-71.20,1997,-7663,2609,-1,-1,0
-156.18,13.83,-71.20,1997,-7662,2598,0,0,0
-156.19,13.83,-71.21,1985,-7656,2600,-1,-1,0
-156.20,13.82,-71.22,1987,-7664,2588,0,-1,0
-156.20,13.82,-71.21,1995,-7668,2600,0,-1,0
-156.21,13.81,-71.21,1986,-7671,2601,0,0,0
-156.21,13.81,-71.20,1983,-7663,2608,0,0,0
-156.22,13.80,-71.20,1976,-7657,2607,0,0,0
-156.22,13.80,-71.20,1989,-7657,2614,-1,-1,0
-156.22,13.80,-71.21,1993,-7659,2603,-1,-1,0
-156.23,13.80,-71.21,1992,-7663,2595,0,-1,0
-156.23,13.80,-71.21,1986,-7666,2585,0,-1,0
-156.23,13.79,-71.21,1995,-7662,2598,-1,-1,0
-156.23,13.80,-71.21,1992,-7664,2594,0,0,0
-156.23,13.79,-71.20,1984,-7654,2604,0,-1,0
-156.24,13.79,-71.21,1984,-7648,2615,-1,-1,0
-156.24,13.78,-71.21,1980,-7657,2613,-1,-1,0
-156.25,13.78,-71.22,1984,-7670,2601,-1,-1,0
-156.26,13.78,-71.23,1993,-7680,2591,0,0,0
-156.26,13.78,-71.22,1993,-7666,2589,0,0,0
-156.25,13.78,-71.21,1990,-7659,2602,0,-1,0
-156.25,13.78,-71.21,1996,-7653,2603,-1,-1,0
-156.26,13.77,-71.22,1996,-7660,2594,-1,-1,0
-156.27,13.77,-71.23,1997,-7677,2584,0,0,0
-156.27,13.76,-71.22,1992,-7665,2590,0,0,0
-156.27,13.76,-71.21,1979,-7662,2609,-1,-1,0
-156.27,13.76,-71.21,1982,-7656,2610,0,0,0
-156.28,13.76,-71.22,1979,-7652,2608,-1,-1,0
-156.29,13.76,-71.23,1984,-7664,2597,0,-1,0
-156.29,13.76,-71.23,1988,-7663,2594,0,0,0
-156.30,13.75,-71.23,1979,-7659,2597,-1,-1,0
-156.30,13.75,-71.23,1982,-7657,2611,-1,-1,0
-156.31,13.74,-71.24,1986,-7665,2599,-1,-1,0
-156.32,13.74,-71.25,1990,-7673,2585,0,0,0
-156.31,13.74,-71.25,1990,-7674,2592,0,-1,0
-156.31,13.74,-71.25,1988,-7670,2593,0,0,0
-156.32,13.74,-71.24,1986,-7665,2590,0,-1,0
-156.32,13.73,-71.24,1981,-7670,2597,0,-1,0
-156.32,13.73,-71.23,1973,-7674,2595,0,0,-1
-156.32,13.73,-71.22,1975,-7665,2603,0,-1,-1
-156.32,13.73,-71.22,1978,-7672,2602,0,-1,0
-156.32,13.73,-71.22,1982,-7665,2610,0,-1,0
-156.31,13.73,-71.21,1990,-7659,2605,0,0,0
-156.31,13.73,-71.21,1986,-7658,2611,-1,-1,0
-156.31,13.73,-71.21,1988,-7661,2615,-1,0,0
-156.31,13.74,-71.22,1986,-7672,2606,-1,-1,-1
-156.31,13.73,-71.21,1979,-7677,2598,0,0,-1
-156.31,13.73,-71.21,1980,-7664,2601,0,-1,-1
-156.31,13.74,-71.22,1980,-7659,2596,-1,-1,-1
-156.31,13.74,-71.22,1983,-7666,2598,-1,-1,-1
-156.30,13.75,-71.21,1983,-7672,2589,0,0,-1
-156.29,13.75,-71.20,1991,-7659,2613,0,0,-1
-156.28,13.75,-71.19,1973,-7647,2630,-1,0,-1
-156.28,13.75,-71.19,1965,-7648,2622,-1,-1,-1
-156.29,13.75,-71.21,1977,-7669,2601,-1,-1,-1
-156.30,13.75,-71.22,1983,-7685,2585,0,0,-1
-156.28,13.76,-71.20,1983,-7670,2590,0,0,-1
-156.28,13.76,-71.20,1976,-7656,2602,0,0,-1
-156.27,13.77,-71.20,1981,-7652,2605,-1,-1,-1
-156.26,13.77,-71.19,1986,-7657,2596,-1,0,-1
-156.26,13.77,-71.19,1988,-7668,2610,0,0,-1
-156.26,13.78,-71.19,1986,-7665,2603,0,0,-1
-156.26,13.78,-71.19,1987,-7660,2618,-1,0,-1
-156.26,13.78,-71.20,1992,-7661,2617,-1,-1,-1
-156.25,13.79,-71.20,1997,-7670,2615,-1,0,-1
-156.25,13.79,-71.21,1994,-7668,2600,0,0,-1
-156.25,13.79,-71.20,1992,-7666,2599,0,0,-1
-156.24,13.79,-71.20,1986,-7667,2601,0,0,-1
-156.24,13.79,-71.20,1987,-7666,2596,0,0,-1
-156.23,13.80,-71.20,1991,-7673,2599,0,0,-1
-156.23,13.80,-71.19,1983,-7661,2599,0,0,-1
-156.23,13.80,-71.19,1984,-7651,2601,-1,0,-1
-156.23,13.80,-71.19,1983,-7653,2600,0,0,-1
-156.22,13.81,-71.19,1984,-7652,2600,0,0,-1
-156.22,13.81,-71.19,1993,-7654,2613,-1,0,-1
-156.22,13.81,-71.19,1995,-7652,2614,-1,-1,-1
-156.22,13.81,-71.20,1990,-7668,2616,-1,-1,-1
-156.22,13.81,-71.20,1989,-7666,2612,0,0,-1
-156.21,13.81,-71.19,1989,-7658,2610,0,0,-1
-156.22,13.81,-71.20,1989,-7653,2606,-1,-1,-1
-156.21,13.82,-71.20,1991,-7660,2601,-1,-1,-1
-156.21,13.82,-71.20,1998,-7673,2601,0,0,-1
-156.20,13.83,-71.19,1998,-7663,2601,0,0,-1
-156.20,13.83,-71.19,1997,-7646,2607,0,0,-1
-156.20,13.83,-71.19,1998,-7638,2609,-1,-1,0
-156.20,13.83,-71.19,1997,-7663,2612,-1,-1,0
-156.20,13.83,-71.20,1996,-7676,2596,0,0,-1
-156.20,13.82,-71.19,1989,-7675,2598,0,0,-1
-156.20,13.83,-71.19,1985,-7662,2601,0,0,-1
-156.18,13.83,-71.18,1989,-7654,2602,0,-1,-1
-156.18,13.84,-71.18,1994,-7650,2601,0,-1,-1
-156.18,13.84,-71.19,1993,-7657,2614,-1,-1,0
-156.19,13.84,-71.19,1995,-7650,2622,0,0,0
-156.19,13.84,-71.19,1988,-7657,2613,-1,-1,-1
-156.19,13.84,-71.20,1990,-7657,2606,-1,-1,-1
-156.19,13.84,-71.20,1994,-7664,2596,-1,-1,-1
-156.19,13.84,-71.20,2000,-7667,2587,0,0,-1
-156.18,13.85,-71.19,2002,-7661,2598,0,0,-1
-156.18,13.85,-71.19,2002,-7663,2596,0,0,-1
-156.18,13.85,-71.19,2000,-7670,2603,0,0,-1
-156.18,13.85,-71.19,1999,-7672,2596,0,0,-1
-156.16,13.85,-71.18,1996,-7659,2596,0,0,-1
-156.16,13.85,-71.18,2001,-7654,2607,-1,-1,-1
-156.16,13.86,-71.18,2005,-7652,2604,-1,0,-1
-156.16,13.86,-71.18,1998,-7649,2602,-1,0,-1
-156.16,13.87,-71.19,2000,-7653,2603,-1,0,-1
-156.15,13.87,-71.19,2001,-7660,2605,-1,-1,-1
-156.15,13.87,-71.19,1996,-7660,2602,0,0,-1
-156.15,13.88,-71.19,2002,-7651,2608,0,0,-1
-156.15,13.88,-71.19,1994,-7648,2604,-1,0,0
-156.15,13.87,-71.19,1995,-7653,2600,-1,-1,-1
-156.15,13.88,-71.20,1992,-7664,2598,-1,-1,-1
-156.15,13.88,-71.20,1998,-7675,2588,0,0,-1
-156.14,13.88,-71.20,2009,-7664,2595,0,0,-1
-156.13,13.89,-71.18,2006,-7648,2605,0,0,-1
-156.13,13.89,-71.18,1998,-7646,2601,-1,-1,0
-156.14,13.89,-71.20,2001,-7662,2586,-1,-1,-1
-156.14,13.89,-71.20,1997,-7676,2583,0,0,-1
-156.14,13.89,-71.19,2002,-7669,2596,0,0,-1
-156.13,13.89,-71.19,1992,-7656,2594,0,0,-1
-156.12,13.90,-71.18,2002,-7641,2609,0,0,-1
-156.12,13.90,-71.18,2005,-7653,2606,-1,-1,-1
-156.12,13.90,-71.19,2004,-7657,2602,0,0,-1
-156.12,13.90,-71.19,2007,-7665,2598,-1,0,-1
-156.12,13.90,-71.19,2003,-7666,2599,0,0,-1
-156.11,13.91,-71.19,2007,-7668,2602,-1,0,-1
-156.11,13.91,-71.20,2005,-7665,2603,0,0,-1
-156.11,13.91,-71.20,2009,-7665,2603,0,0,-1
-156.11,13.91,-71.20,2010,-7660,2597,0,0,-1
-156.11,13.91,-71.20,2005,-7662,2597,0,0,-1
-156.11,13.91,-71.20,2011,-7664,2598,0,0,-1
-156.11,13.91,-71.20,2005,-7663,2599,0,0,-1
-156.11,13.91,-71.20,2004,-7663,2609,0,-1,-1
-156.11,13.92,-71.21,2011,-7660,2602,-1,-1,-1
-156.10,13.93,-71.21,2011,-7664,2591,0,0,-1
-156.10,13.93,-71.21,2009,-7654,2591,0,0,-1
-156.10,13.93,-71.21,2010,-7653,2593,-1,0,-1
-156.10,13.93,-71.21,2013,-7658,2598,-1,0,-1
-156.09,13.93,-71.21,2011,-7661,2596,0,0,-1
-156.09,13.93,-71.21,2005,-7653,2596,0,0,-1
-156.09,13.93,-71.21,2004,-7652,2604,-1,0,-1
-156.10,13.93,-71.22,2003,-7651,2598,-1,-1,-1
-156.10,13.94,-71.23,2009,-7665,2578,-1,-1,-1
-156.10,13.94,-71.23,2019,-7669,2590,0,0,-1
-156.09,13.94,-71.22,2020,-7667,2587,0,0,-1
-156.08,13.95,-71.21,2024,-7651,2594,0,0,-1
-156.08,13.95,-71.22,2023,-7651,2598,-1,-1,0
-156.10,13.94,-71.23,2015,-7668,2582,-1,0,0
-156.10,13.95,-71.24,2011,-7683,2583,-1,0,0
-156.10,13.94,-71.24,2002,-7677,2585,0,0,-1
-156.09,13.95,-71.22,1997,-7653,2610,0,-1,-1
-156.09,13.95,-71.22,2004,-7644,2611,-1,-1,-1
-156.09,13.95,-71.23,2009,-7651,2607,-1,0,-1
-156.09,13.95,-71.23,2014,-7659,2593,-1,0,0
-156.09,13.94,-71.23,2012,-7670,2594,0,0,0
-156.09,13.94,-71.24,1997,-7664,2587,-1,-1,-1
-156.09,13.95,-71.24,2001,-7660,2589,-1,-1,-1
-156.09,13.95,-71.24,2014,-7656,2586,0,-1,-1
-156.09,13.95,-71.24,2017,-7651,2592,0,0,-1
-156.09,13.95,-71.24,2011,-7647,2585,-1,-1,0
-156.09,13.95,-71.25,2012,-7652,2588,-1,-1,0
-156.09,13.95,-71.25,2013,-7659,2574,0,0,-1
-156.09,13.96,-71.24,2015,-7665,2587,0,0,-1
-156.08,13.96,-71.24,2020,-7655,2591,0,0,-1
-156.08,13.96,-71.23,2017,-7652,2602,0,0,-1
-156.07,13.96,-71.23,2010,-7655,2608,-1,0,-1
-156.08,13.96,-71.24,2013,-7663,2597,0,-1,-1
-156.08,13.96,-71.24,2018,-7668,2596,0,0,-1
-156.08,13.96,-71.24,2011,-7667,2590,-1,0,-1
-156.08,13.96,-71.24,2007,-7658,2593,0,0,-1
-156.08,13.96,-71.24,2010,-7656,2588,-1,0,-1
-156.08,13.96,-71.25,2012,-7659,2586,-1,-1,0
-156.08,13.96,-71.25,2013,-7664,2585,-1,-1,0
-156.08,13.96,-71.25,2019,-7667,2581,0,0,-1
-156.08,13.96,-71.25,2017,-7670,2580,0,0,0
-156.08,13.96,-71.25,2022,-7652,2589,0,0,0
-156.08,13.96,-71.24,2009,-7642,2601,-1,0,0
-156.09,13.96,-71.26,2015,-7658,2600,-1,-1,0
-156.10,13.96,-71.26,2014,-7669,2593,-1,-1,0
-156.10,13.96,-71.26,2013,-7679,2581,0,0,0
-156.09,13.95,-71.25,2017,-7664,2592,0,0,0
-156.09,13.95,-71.25,2014,-7656,2599,0,-1,0
-156.09,13.95,-71.25,2018,-7659,2601,0,-1,0
-156.09,13.95,-71.25,2020,-7661,2605,-1,-1,0
-156.10,13.95,-71.26,2018,-7658,2603,-1,0,0
-156.10,13.95,-71.26,2008,-7660,2599,-1,-1,0
-156.11,13.95,-71.26,2002,-7654,2596,-1,-1,0
-156.11,13.95,-71.27,2009,-7650,2589,-1,-1,-1
-156.11,13.95,-71.27,2018,-7661,2587,-1,-1,0
-156.11,13.95,-71.27,2012,-7658,2579,0,0,0
-156.12,13.95,-71.27,2018,-7655,2585,0,-1,0
-156.12,13.95,-71.27,2007,-7657,2577,-1,-1,0
-156.13,13.94,-71.28,2003,-7662,2579,0,0,0
-156.13,13.93,-71.27,2004,-7663,2589,0,0,0
-156.12,13.94,-71.26,2007,-7657,2600,0,-1,0
-156.12,13.93,-71.26,2013,-7657,2595,-1,0,0
-156.13,13.93,-71.27,2018,-7653,2595,-1,-1,0
-156.13,13.93,-71.27,2016,-7663,2592,0,-1,0
-156.13,13.93,-71.27,2012,-7664,2600,0,-1,0
-156.13,13.93,-71.27,2011,-7659,2602,-1,-1,0
-156.13,13.93,-71.27,2006,-7653,2598,-1,-1,0
-156.14,13.93,-71.27,2008,-7659,2594,0,0,0
-156.14,13.92,-71.26,2010,-7652,2607,-1,0,0
-156.14,13.92,-71.27,2006,-7654,2600,-1,-1,0
-156.15,13.92,-71.27,2003,-7663,2599,-1,-1,0
-156.15,13.92,-71.28,2002,-7677,2587,0,0,0
-156.15,13.92,-71.27,2012,-7665,2595,0,0,0
-156.15,13.91,-71.26,2017,-7646,2607,0,0,0
-156.14,13.91,-71.25,2013,-7641,2620,-1,-1,0
-156.15,13.91,-71.26,2012,-7663,2611,-1,-1,0
-156.17,13.90,-71.27,2007,-7674,2592,0,0,0
-156.17,13.90,-71.27,2000,-7674,2584,0,0,0
-156.16,13.90,-71.26,1998,-7660,2595,0,0,0
-156.16,13.90,-71.26,2004,-7645,2600,0,-1,-1
-156.16,13.90,-71.26,2015,-7653,2605,-1,-1,0
-156.16,13.90,-71.26,2014,-7664,2594,0,-1,0
-156.17,13.90,-71.26,2013,-7661,2597,0,0,0
-156.16,13.90,-71.25,2009,-7661,2611,-1,-1,0
-156.17,13.90,-71.26,2013,-7659,2596,-1,-1,0
-156.17,13.90,-71.27,2011,-7662,2593,-1,-1,0
-156.17,13.90,-71.27,2010,-7656,2588,0,0,0
-156.17,13.90,-71.27,2006,-7662,2588,0,-1,0
-156.19,13.89,-71.27,2001,-7662,2591,0,-1,0
-156.19,13.89,-71.27,2006,-7663,2596,-1,0,0
-156.19,13.88,-71.28,2000,-7665,2590,0,0,0
-156.19,13.88,-71.27,1999,-7668,2603,0,0,0
-156.19,13.88,-71.27,2005,-7661,2594,0,-1,-1
-156.19,13.89,-71.26,2014,-7648,2595,-1,0,0
-156.19,13.88,-71.27,2012,-7653,2594,-1,-1,0
-156.19,13.88,-71.27,2013,-7655,2590,0,0,0
-156.20,13.88,-71.28,2009,-7664,2594,-1,-1,0
-156.20,13.88,-71.28,2005,-7662,2598,0,0,0
-156.20,13.88,-71.28,2002,-7664,2593,-1,-1,0
-156.21,13.87,-71.29,2006,-7663,2582,0,-1,0
-156.21,13.87,-71.29,2013,-7668,2586,0,0,0
-156.21,13.87,-71.28,2018,-7657,2591,0,0,0
-156.21,13.87,-71.28,2013,-7650,2594,-1,-1,0
-156.22,13.87,-71.28,2011,-7655,2584,-1,-1,0
-156.23,13.87,-71.30,2008,-7663,2582,-1,-1,0
-156.23,13.87,-71.30,2007,-7677,2579,0,0,0
-156.22,13.86,-71.29,2004,-7665,2589,0,0,0
-156.22,13.86,-71.28,1999,-7648,2606,0,0,0
-156.22,13.86,-71.29,2003,-7653,2602,-1,-1,0
-156.24,13.86,-71.29,2009,-7670,2584,-1,-1,0
-156.24,13.85,-71.30,2005,-7685,2581,0,0,0
-156.24,13.85,-71.30,2003,-7668,2593,0,0,0
-156.25,13.85,-71.29,1994,-7659,2596,0,-1,0
-156.25,13.85,-71.29,2001,-7656,2600,0,0,0
-156.25,13.85,-71.29,2010,-7649,2598,-1,-1,0
-156.25,13.84,-71.30,2007,-7660,2586,0,-1,0
-156.25,13.84,-71.30,2011,-7663,2593,0,0,0
-156.26,13.84,-71.30,2003,-7655,2591,-1,-1,0
-156.27,13.83,-71.31,1999,-7649,2585,-1,-1,0
-156.28,13.83,-71.32,1998,-7667,2575,-1,-1,0
-156.29,13.83,-71.32,2007,-7680,2567,0,0,0
-156.29,13.83,-71.32,2007,-7664,2575,0,-1,0
-156.29,13.83,-71.32,2012,-7665,2582,-1,-1,0
-156.30,13.82,-71.32,2014,-7657,2588,0,0,0
-156.30,13.82,-71.33,2007,-7666,2589,-1,-1,0
-156.31,13.81,-71.33,1997,-7665,2582,-1,0,0
-156.32,13.81,-71.34,1994,-7672,2580,0,-1,0
-156.31,13.81,-71.33,1989,-7665,2584,0,-1,0
-156.31,13.81,-71.33,1995,-7664,2585,0,0,0
-156.31,13.81,-71.33,1997,-7657,2597,-1,0,0
-156.32,13.80,-71.33,1992,-7663,2595,-1,-1,0
-156.34,13.80,-71.34,1988,-7667,2598,-1,-1,0
-156.35,13.79,-71.36,1989,-7667,2577,0,-1,0
-156.35,13.79,-71.36,2000,-7672,2577,0,-1,0
-156.36,13.79,-71.36,1997,-7666,2574,0,-1,0
-156.35,13.79,-71.35,1994,-7662,2584,0,-1,0
-156.36,13.78,-71.36,1999,-7671,2580,-1,-1,0
-156.37,13.78,-71.36,1994,-7676,2574,0,-1,0
-156.37,13.78,-71.36,1987,-7678,2573,0,-1,0
-156.37,13.77,-71.35,1987,-7671,2581,0,-1,0
-156.37,13.77,-71.35,1990,-7670,2578,-1,-1,0
-156.38,13.77,-71.36,1989,-7678,2578,-1,-1,0
-156.39,13.77,-71.36,1996,-7693,2573,0,-1,0
-156.39,13.76,-71.35,1998,-7681,2572,0,0,0
-156.38,13.77,-71.34,1993,-7665,2582,0,-1,0
-156.38,13.77,-71.34,1998,-7653,2599,-1,-1,0
-156.38,13.77,-71.35,1994,-7664,2586,-1,-1,0
-156.39,13.77,-71.35,1995,-7692,2578,-1,-1,0
-156.39,13.77,-71.35,1982,-7687,2566,0,0,0
-156.39,13.76,-71.34,1986,-7672,2579,0,0,-1
-156.38,13.77,-71.34,1981,-7668,2581,0,-1,-1
-156.37,13.78,-71.33,1986,-7659,2587,0,-1,-1
-156.37,13.78,-71.33,1996,-7661,2598,0,-1,-1
-156.36,13.78,-71.33,1989,-7660,2599,0,0,0
-156.36,13.78,-71.33,1984,-7663,2595,-1,-1,-1
-156.36,13.78,-71.33,1990,-7663,2588,-1,-1,-1
-156.35,13.79,-71.33,1996,-7674,2584,-1,-1,-1
-156.35,13.80,-71.33,1994,-7672,2580,0,0,-1
-156.34,13.80,-71.33,2007,-7658,2591,0,0,-1
-156.34,13.81,-71.32,1998,-7659,2593,-1,-1,-1
-156.34,13.81,-71.32,2002,-7664,2584,0,0,-1
-156.33,13.81,-71.33,2002,-7669,2581,0,0,-1
-156.33,13.81,-71.33,1992,-7677,2586,0,0,-1
-156.32,13.82,-71.32,1991,-7674,2581,0,0,-1
-156.31,13.83,-71.32,1995,-7665,2590,0,-1,-1
-156.31,13.83,-71.32,2001,-7663,2591,0,0,-1
-156.31,13.83,-71.32,2009,-7660,2596,-1,0,-1
-156.31,13.83,-71.32,2002,-7660,2595,-1,-1,-1
-156.30,13.84,-71.33,2000,-7668,2587,-1,-1,-1
-156.30,13.84,-71.33,1999,-7667,2587,-1,-1,-1
-156.30,13.85,-71.33,2004,-7671,2574,0,0,-1
-156.30,13.85,-71.33,2000,-7666,2582,0,0,-1
-156.30,13.85,-71.33,2007,-7664,2586,-1,0,-1
-156.30,13.85,-71.33,2007,-7664,2588,-1,0,-1
-156.29,13.85,-71.34,2008,-7661,2581,-1,-1,-1
-156.29,13.86,-71.34,2007,-7662,2577,0,0,-1
-156.28,13.86,-71.33,2013,-7665,2570,0,-1,-1
-156.28,13.87,-71.33,2010,-7658,2577,0,0,-1
-156.28,13.87,-71.33,2010,-7661,2578,-1,-1,0
-156.27,13.87,-71.33,2007,-7659,2583,0,0,-1
-156.27,13.87,-71.33,2005,-7667,2598,-1,-1,-1
-156.27,13.88,-71.33,2002,-7668,2589,0,0,-1
-156.27,13.88,-71.33,2002,-7662,2593,-1,-1,0
-156.27,13.87,-71.33,1998,-7660,2591,-1,-1,-1
-156.27,13.88,-71.34,2004,-7663,2581,-1,-1,-1
-156.27,13.88,-71.35,2013,-7676,2568,0,-1,-1
-156.26,13.89,-71.34,2016,-7667,2565,0,0,-1
-156.26,13.89,-71.33,2009,-7640,2582,0,0,0
-156.26,13.89,-71.34,2015,-7641,2593,-1,-1,0
-156.28,13.89,-71.36,2003,-7669,2575,-1,-1,0
-156.28,13.89,-71.36,2009,-7684,2569,0,0,-1
-156.28,13.89,-71.36,1997,-7683,2574,0,0,-1
-156.27,13.89,-71.36,1996,-7675,2575,0,-1,-1
-156.27,13.90,-71.35,1996,-7663,2574,0,0,-1
-156.26,13.91,-71.35,2007,-7662,2584,-1,-1,-1
-156.26,13.91,-71.35,2013,-7669,2584,-1,-1,0
-156.26,13.91,-71.36,2011,-7664,2585,-1,0,0
-156.27,13.91,-71.37,2013,-7655,2585,-1,-1,0
-156.29,13.91,-71.39,2015,-7652,2608,-2,-2,0
-156.32,13.91,-71.44,2014,-7673,2564,-1,-1,0
-156.32,13.92,-71.45,2007,-7676,2544,0,0,-1
-156.31,13.92,-71.44,2015,-7666,2568,-1,-1,-1
-156.32,13.92,-71.45,2013,-7665,2553,-1,-1,0
-156.32,13.92,-71.45,2005,-7674,2564,-1,-1,-1
-156.32,13.92,-71.45,2006,-7676,2559,0,0,-1
-156.32,13.92,-71.45,2011,-7677,2568,-1,-1,-1
-156.31,13.93,-71.45,2015,-7667,2562,0,0,-1
-156.31,13.93,-71.45,2021,-7664,2581,-1,-1,-1
-156.31,13.94,-71.46,2022,-7667,2579,-1,-1,-1
-156.30,13.95,-71.46,2030,-7668,2583,-1,-1,0
-156.31,13.95,-71.47,2021,-7671,2572,-1,-1,-1
-156.31,13.95,-71.47,2017,-7670,2564,-1,-1,-1
-156.31,13.95,-71.48,2020,-7666,2558,-1,-1,-1
-156.30,13.96,-71.48,2024,-7664,2561,0,0,-1
-156.30,13.96,-71.48,2017,-7667,2558,0,0,-1
-156.30,13.97,-71.49,2021,-7665,2552,-1,-1,-1
-156.30,13.97,-71.49,2023,-7673,2552,-1,-1,-1
-156.30,13.97,-71.49,2015,-7673,2554,0,0,-1
-156.29,13.98,-71.49,2013,-7671,2547,0,0,-1
-156.29,13.98,-71.49,2020,-7664,2554,0,-1,-1
-156.29,13.98,-71.49,2027,-7666,2553,0,-1,-1
-156.28,13.99,-71.49,2023,-7669,2559,-1,0,-1
-156.29,13.99,-71.50,2020,-7669,2565,-1,-1,-1
-156.30,13.99,-71.51,2024,-7674,2552,-1,-1,-1
-156.29,14.00,-71.52,2026,-7673,2540,0,0,-1
-156.28,14.00,-71.51,2031,-7657,2538,0,0,-1
-156.28,14.00,-71.51,2033,-7645,2566,-1,0,0
-156.28,14.01,-71.51,2038,-7652,2571,-1,-1,0
-156.28,14.01,-71.52,2031,-7670,2554,-1,-1,0
-156.28,14.01,-71.53,2024,-7678,2560,0,0,-1
-156.28,14.01,-71.52,2026,-7671,2547,0,0,-1
-156.27,14.02,-71.51,2028,-7655,2561,0,0,-1
-156.26,14.02,-71.51,2032,-7659,2568,-1,-1,-1
-156.26,14.03,-71.51,2035,-7667,2559,0,0,-1
-156.25,14.03,-71.50,2027,-7670,2575,-1,0,0
-156.25,14.03,-71.51,2031,-7669,2567,-1,-1,0
-156.26,14.03,-71.52,2025,-7661,2569,-1,-1,-1
-156.26,14.04,-71.53,2027,-7674,2553,-1,-1,-1
-156.26,14.04,-71.53,2035,-7674,2549,0,0,-1
-156.26,14.04,-71.53,2035,-7674,2548,0,0,0
-156.25,14.04,-71.52,2034,-7672,2564,0,0,0
-156.26,14.03,-71.52,2029,-7674,2569,0,0,0
-156.25,14.04,-71.52,2033,-7662,2565,0,0,0
-156.25,14.04,-71.51,2035,-7669,2554,0,0,-1
-156.24,14.04,-71.50,2032,-7669,2551,0,0,-1
-156.23,14.05,-71.50,2034,-7670,2550,0,0,-1
-156.22,14.05,-71.48,2031,-7664,2571,0,0,-1
-156.22,14.05,-71.48,2032,-7668,2572,0,-1,-1
-156.22,14.05,-71.48,2027,-7673,2580,0,0,-1
-156.22,14.05,-71.48,2022,-7661,2572,-1,-1,-1
-156.22,14.06,-71.49,2033,-7655,2561,-1,-1,-1
-156.21,14.06,-71.49,2032,-7653,2555,0,0,-1
-156.21,14.06,-71.48,2038,-7660,2545,0,0,-1
-156.21,14.06,-71.47,2039,-7663,2555,0,0,0
-156.20,14.06,-71.46,2038,-7669,2561,0,0,0
-156.20,14.06,-71.46,2034,-7676,2565,0,0,-1
-156.20,14.06,-71.46,2036,-7661,2584,0,-1,-1
-156.19,14.07,-71.46,2035,-7660,2587,-1,-1,-1
-156.20,14.07,-71.48,2036,-7671,2560,-1,-1,0
-156.20,14.08,-71.49,2037,-7688,2527,0,-1,-1
-156.19,14.09,-71.47,2048,-7685,2528,0,0,-1
-156.17,14.09,-71.44,2042,-7665,2537,1,0,-1
-156.14,14.10,-71.40,2045,-7647,2563,1,0,-1
-156.13,14.10,-71.38,2040,-7653,2579,0,-1,0
-156.12,14.11,-71.36,2033,-7691,2589,0,-1,-1
-156.11,14.11,-71.34,2027,-7712,2574,1,-1,-1
-156.10,14.13,-71.32,2030,-7726,2529,1,-2,-1
-156.05,14.14,-71.25,2069,-7718,2481,4,0,-1
-155.96,14.15,-71.08,2042,-7651,2566,6,0,-1
-155.87,14.17,-70.92,1973,-7556,2722,2,0,-2
-155.83,14.20,-70.88,1978,-7551,2765,-1,-3,-1
-155.82,14.25,-70.92,1992,-7563,2688,-1,-3,-2
-155.77,14.32,-70.92,2068,-7566,2656,0,-2,-3
-155.73,14.38,-70.95,2130,-7617,2708,-3,-2,-1
-155.77,14.40,-71.05,2056,-7657,2623,-3,-2,-1
-155.75,14.46,-71.08,2053,-7653,2548,0,-1,-3
-155.67,14.53,-71.07,2095,-7604,2582,0,0,-3
-155.63,14.57,-71.07,2115,-7572,2608,-2,-1,-1
-155.62,14.61,-71.11,2120,-7586,2587,-1,-2,-1
-155.63,14.64,-71.15,2128,-7647,2592,-1,-2,-1
-155.62,14.66,-71.17,2143,-7694,2590,-1,-1,-1
-155.61,14.68,-71.17,2128,-7696,2566,0,-1,-1
-155.57,14.71,-71.14,2131,-7643,2580,1,0,-1
-155.54,14.73,-71.11,2135,-7602,2641,0,-1,-1
-155.54,14.73,-71.13,2117,-7580,2630,-2,-1,-1
-155.55,14.75,-71.16,2122,-7596,2597,-1,-1,-1
-155.56,14.76,-71.18,2142,-7628,2590,-1,-1,-1
-155.55,14.77,-71.19,2152,-7652,2576,-1,-1,-1
-155.55,14.77,-71.20,2144,-7653,2555,0,0,-1
-155.55,14.77,-71.18,2132,-7653,2563,0,0,-1
-155.53,14.78,-71.15,2148,-7634,2576,1,0,-1
-155.51,14.78,-71.12,2144,-7628,2588,1,0,-1
-155.49,14.79,-71.09,2128,-7618,2601,1,0,-1
-155.47,14.80,-71.06,2155,-7624,2637,0,-1,-1
-155.47,14.80,-71.06,2152,-7625,2635,-1,-1,0
-155.48,14.79,-71.06,2148,-7627,2604,0,0,0
-155.48,14.78,-71.04,2144,-7608,2632,0,-1,0
-155.50,14.77,-71.05,2134,-7587,2620,-1,-1,0
-155.52,14.76,-71.08,2134,-7612,2599,-1,-1,0
-155.54,14.75,-71.08,2128,-7637,2571,0,-1,0
-155.54,14.74,-71.07,2144,-7649,2570,0,0,0
-155.55,14.73,-71.05,2135,-7634,2572,1,0,0
-155.54,14.72,-71.01,2127,-7623,2597,1,0,0
-155.54,14.71,-70.99,2124,-7616,2598,0,0,0
-155.52,14.71,-70.96,2133,-7620,2604,1,0,0
-155.50,14.70,-70.91,2127,-7599,2618,1,0,0
-155.48,14.69,-70.87,2118,-7586,2660,0,0,0
-155.48,14.69,-70.85,2119,-7588,2681,0,-1,0
-155.49,14.69,-70.85,2121,-7608,2669,-1,-1,0
-155.48,14.68,-70.84,2122,-7607,2644,0,0,0
-155.48,14.68,-70.83,2113,-7595,2675,-1,-1,0
-155.50,14.68,-70.85,2113,-7606,2654,-1,-1,0
-155.50,14.68,-70.86,2106,-7615,2628,0,0,0
-155.51,14.67,-70.86,2117,-7619,2622,0,0,0
-155.51,14.67,-70.86,2124,-7618,2623,-1,-1,0
-155.51,14.67,-70.86,2120,-7630,2610,0,-1,0
-155.50,14.67,-70.84,2121,-7627,2639,0,0,0
-155.51,14.66,-70.83,2107,-7611,2649,0,-1,0
-155.51,14.66,-70.83,2110,-7596,2643,0,-1,0
-155.52,14.65,-70.83,2123,-7587,2648,-1,-1,0
-155.54,14.65,-70.84,2127,-7600,2642,-1,-1,0
-155.56,14.63,-70.86,2119,-7604,2617,0,-1,0
-155.58,14.62,-70.86,2106,-7624,2614,0,0,0
-155.58,14.61,-70.85,2106,-7641,2613,0,-1,0
-155.58,14.61,-70.83,2116,-7640,2622,1,0,0
-155.57,14.61,-70.79,2109,-7647,2636,0,-1,0
-155.56,14.61,-70.76,2105,-7633,2618,2,0,-1
-155.53,14.61,-70.70,2085,-7587,2667,1,0,-1
-155.50,14.61,-70.66,2071,-7555,2704,1,-1,-1
-155.47,14.63,-70.65,2048,-7538,2739,-1,0,-2
-155.48,14.66,-70.70,2090,-7572,2748,-4,-2,-1
-155.53,14.69,-70.81,2117,-7653,2646,-3,-3,-1
-155.54,14.71,-70.86,2130,-7677,2571,0,-1,-1
-155.51,14.73,-70.84,2132,-7634,2606,0,0,-1
-155.51,14.74,-70.84,2143,-7581,2653,-1,-1,0
-155.52,14.74,-70.86,2148,-7577,2664,-2,-1,0
-155.55,14.74,-70.89,2192,-7617,2644,-2,-1,0
-155.57,14.72,-70.92,2185,-7661,2604,0,0,0
-155.58,14.70,-70.90,2164,-7653,2608,1,0,0
-155.59,14.68,-70.87,2125,-7620,2624,0,0,0
-155.59,14.67,-70.86,2134,-7593,2637,0,-1,0
-155.62,14.65,-70.87,2146,-7608,2628,0,-1,1
-155.65,14.62,-70.86,2115,-7598,2609,1,0,0
-155.66,14.59,-70.83,2106,-7603,2661,0,0,0
-155.68,14.57,-70.83,2103,-7616,2658,-1,-1,0
-155.71,14.55,-70.84,2099,-7629,2627,0,-1,0
-155.72,14.54,-70.84,2100,-7622,2613,0,0,0
-155.72,14.53,-70.83,2106,-7624,2629,0,0,0
-155.73,14.52,-70.82,2105,-7620,2643,0,0,0
-155.73,14.50,-70.80,2083,-7611,2668,0,0,0
-155.74,14.49,-70.79,2078,-7604,2677,-1,0,0
-155.76,14.49,-70.81,2090,-7593,2680,-2,-1,0
-155.79,14.48,-70.85,2086,-7611,2658,-2,-1,0
-155.82,14.46,-70.88,2088,-7621,2629,-1,0,0
-155.84,14.45,-70.89,2086,-7617,2601,-1,0,0
-155.85,14.44,-70.91,2087,-7638,2582,0,0,0
-155.86,14.42,-70.89,2076,-7652,2601,0,-1,0
-155.85,14.42,-70.85,2080,-7650,2654,1,0,0
-155.85,14.41,-70.84,2076,-7631,2668,0,0,0
-155.85,14.41,-70.84,2092,-7614,2664,-1,-1,0
-155.87,14.39,-70.86,2092,-7614,2641,-1,-1,0
-155.89,14.38,-70.86,2087,-7624,2619,0,0,0
-155.88,14.37,-70.84,2081,-7624,2627,0,0,0
-155.88,14.37,-70.82,2072,-7629,2669,0,-1,0
-155.89,14.36,-70.82,2068,-7637,2678,0,-1,0
-155.90,14.36,-70.82,2068,-7624,2682,-1,-1,0
-155.91,14.36,-70.84,2074,-7606,2661,-1,-1,0
-155.92,14.37,-70.88,2081,-7621,2615,-1,-1,-1
-155.91,14.39,-70.88,2110,-7643,2613,0,0,-1
-155.90,14.39,-70.87,2095,-7635,2617,0,0,-1
-155.88,14.39,-70.84,2072,-7622,2666,0,0,-1
-155.87,14.39,-70.84,2049,-7610,2691,-1,-1,-1
-155.87,14.40,-70.85,2057,-7611,2684,-1,-1,-1
-155.87,14.42,-70.87,2069,-7612,2678,-2,-1,-1
-155.88,14.43,-70.91,2088,-7617,2648,-2,-1,-1
-155.90,14.44,-70.96,2092,-7636,2626,-2,-1,-1
-155.91,14.44,-70.99,2072,-7656,2616,-1,-1,-1
-155.91,14.45,-71.01,2047,-7652,2597,-1,0,-1
-155.88,14.48,-71.01,2063,-7654,2616,-1,-1,-2
-155.87,14.51,-71.04,2079,-7667,2611,-1,-1,-1
-155.86,14.53,-71.05,2079,-7672,2592,0,-1,-1
-155.82,14.56,-71.03,2075,-7640,2618,0,-1,-2
-155.77,14.60,-71.02,2094,-7612,2647,-1,-1,-2
-155.74,14.64,-71.03,2118,-7579,2647,-1,-1,-1
-155.74,14.66,-71.06,2123,-7585,2623,-2,-1,-1
-155.74,14.68,-71.09,2119,-7618,2582,-1,-1,-1
-155.71,14.71,-71.08,2140,-7651,2582,0,-1,-2
-155.67,14.76,-71.06,2163,-7626,2586,1,-1,-2
-155.62,14.80,-71.04,2197,-7602,2622,0,-1,-1
-155.61,14.81,-71.04,2188,-7598,2667,-1,-1,0
-155.63,14.81,-71.05,2134,-7605,2622,-1,-1,-1
-155.62,14.83,-71.04,2121,-7589,2623,0,-1,-1
-155.60,14.86,-71.04,2145,-7581,2648,-1,-1,-1
-155.61,14.85,-71.04,2160,-7601,2648,-1,-1,0
-155.62,14.85,-71.05,2127,-7607,2673,-1,-1,0
-155.64,14.86,-71.08,2124,-7588,2663,-2,-2,0
-155.68,14.88,-71.17,2139,-7594,2605,-4,-2,0
-155.75,14.89,-71.31,2160,-7639,2532,-4,-3,0
-155.81,14.90,-71.43,2153,-7714,2461,-3,-2,0
-155.84,14.90,-71.49,2099,-7770,2415,-1,-1,-2
-155.81,14.93,-71.49,2088,-7768,2421,1,0,-2
-155.74,14.98,-71.44,2094,-7713,2440,2,0,-3
-155.64,15.04,-71.36,2143,-7672,2519,2,0,-3
-155.55,15.09,-71.29,2144,-7653,2597,1,-1,-3
-155.47,15.16,-71.23,2170,-7610,2628,1,-1,-3
-155.39,15.21,-71.18,2207,-7530,2671,0,0,-2
-155.37,15.24,-71.21,2229,-7486,2672,-3,-2,-1
-155.40,15.26,-71.28,2194,-7534,2605,-3,-2,-1
-155.41,15.29,-71.32,2196,-7595,2561,0,-1,-1
-155.38,15.31,-71.30,2169,-7593,2570,0,-1,-2
-155.33,15.35,-71.29,2190,-7577,2602,-1,-1,-2
-155.30,15.41,-71.32,2215,-7591,2636,-2,-2,-2
-155.28,15.46,-71.35,2246,-7612,2598,-1,-2,-2
-155.24,15.51,-71.37,2250,-7596,2589,-1,-1,-2
-155.21,15.55,-71.37,2261,-7560,2617,-1,-1,-1
-155.20,15.58,-71.38,2295,-7550,2623,-2,-2,-1
-155.19,15.61,-71.42,2306,-7568,2596,-1,-2,-1
-155.19,15.63,-71.44,2317,-7554,2568,-1,-1,0
-155.23,15.61,-71.48,2300,-7573,2572,-2,-1,1
-155.27,15.60,-71.53,2267,-7601,2563,-2,-1,0
-155.30,15.60,-71.57,2274,-7627,2533,-2,-1,0
-155.34,15.59,-71.60,2255,-7613,2507,-1,-1,0
-155.37,15.56,-71.63,2233,-7611,2527,-2,-1,0
-155.43,15.53,-71.69,2222,-7640,2474,-2,-1,0
-155.47,15.52,-71.73,2218,-7654,2427,0,0,0
-155.47,15.51,-71.72,2173,-7623,2502,-1,-1,-1
-155.48,15.52,-71.75,2162,-7614,2538,-3,-2,-1
-155.52,15.55,-71.86,2191,-7652,2467,-4,-3,-1
-155.56,15.60,-71.98,2205,-7666,2305,-1,-3,-2
-155.51,15.67,-72.01,2278,-7640,2206,1,-1,-3
-155.43,15.76,-71.97,2350,-7677,2139,4,-2,-3
-155.30,15.85,-71.84,2373,-7721,2083,7,0,-3
-155.06,15.95,-71.53,2459,-7784,2033,16,2,-4
-154.67,16.05,-70.91,2299,-7761,2226,25,4,-7
-154.20,16.16,-70.14,2093,-7631,2738,21,3,-9
-153.75,16.36,-69.57,2140,-7498,3124,13,-4,-8
-153.50,16.57,-69.30,2167,-7451,3159,6,-7,-6
-153.26,16.78,-69.09,2321,-7466,3113,8,-4,-7
-152.99,16.97,-68.85,2433,-7401,3235,4,-2,-6
-152.83,17.10,-68.74,2446,-7276,3270,0,-3,-4
-152.78,17.20,-68.78,2515,-7163,3194,-4,-4,-1
-152.86,17.24,-68.94,2515,-7111,3114,-8,-6,1
-153.07,17.25,-69.29,2551,-7134,2896,-12,-9,4
-153.37,17.22,-69.73,2515,-7283,2658,-12,-9,4
-153.65,17.20,-70.12,2407,-7471,2506,-9,-9,2
-153.81,17.26,-70.45,2407,-7687,2364,-7,-9,-1
-153.84,17.38,-70.64,2382,-7886,2257,1,-6,-4
-153.72,17.53,-70.58,2345,-7926,2291,6,-4,-7
-153.49,17.75,-70.41,2313,-7867,2368,8,-6,-9
-153.15,18.05,-70.14,2358,-7745,2533,11,-6,-12
-152.79,18.41,-69.94,2522,-7455,2651,3,-7,-9
-152.61,18.71,-69.94,2546,-7319,2765,0,-15,-10
-152.43,19.07,-70.07,2661,-7193,2758,-3,-15,-8
-152.35,19.41,-70.29,2767,-7259,2566,-1,-17,-6
-152.25,19.70,-70.36,2805,-7393,2518,5,-15,-6
-152.10,19.95,-70.23,2847,-7342,2616,10,-13,-4
-151.99,20.13,-70.01,2876,-7237,2750,9,-12,-2
-151.89,20.27,-69.83,2996,-7199,2735,9,-9,-1
-151.83,20.36,-69.61,2984,-7259,2802,11,-8,-1
-151.76,20.45,-69.40,2994,-7241,2886,6,-9,-1
-151.74,20.55,-69.31,2978,-7262,2874,5,-9,-1
-151.70,20.66,-69.24,2943,-7228,2862,3,-7,-2
-151.66,20.78,-69.23,2958,-7308,2826,3,-9,-2
-151.64,20.89,-69.23,2917,-7303,2815,3,-10,-2
-151.67,21.01,-69.27,2895,-7227,2764,2,-13,0
-151.73,21.13,-69.36,2966,-7164,2776,0,-15,1
-151.81,21.25,-69.50,3032,-7193,2805,-1,-16,1
-151.95,21.35,-69.75,3182,-7301,2754,-2,-18,4
-152.15,21.39,-69.95,3201,-7282,2759,2,-17,7
-152.40,21.35,-70.14,3085,-7226,2773,-3,-14,5
-152.58,21.35,-70.32,3037,-7185,2678,-1,-12,4
-152.66,21.39,-70.44,3010,-7138,2618,-2,-7,0
-152.69,21.45,-70.56,3042,-7048,2593,-3,-8,1
-152.81,21.49,-70.81,3020,-6984,2671,-11,-11,2
-153.08,21.51,-71.42,3163,-7064,2605,-19,-19,7
-153.55,21.43,-72.23,3231,-7291,2378,-19,-24,13
-154.22,21.20,-73.08,3104,-7460,2340,-19,-30,17
-154.81,20.99,-73.87,3065,-7695,2047,-13,-22,13
-155.24,20.80,-74.29,2924,-7844,1799,0,-13,8
-155.39,20.67,-74.23,2840,-7784,1754,8,-1,2
-155.38,20.63,-73.96,2940,-7632,1873,11,2,0
-155.28,20.63,-73.64,2924,-7456,2173,5,4,-2
-155.16,20.72,-73.58,2901,-7429,2451,-5,-3,-5
-155.01,20.87,-73.58,2713,-7103,2399,4,6,-11
-153.93,21.52,-72.95,2748,-7109,2374,2,54,-50
-151.70,22.55,-71.93,3920,-7144,1995,-17,130,-73
-149.30,23.25,-70.91,4354,-7374,2113,-33,129,-58
-148.84,23.09,-70.72,2933,-8933,3244,-20,-10,13
-152.10,21.49,-72.58,-325,-9532,4166,-9,-188,89
-155.93,20.41,-75.59,440,-6958,1793,-26,-215,77
-155.05,21.87,-75.82,4773,-5554,-1142,62,41,-67
-150.83,24.13,-72.12,6264,-5049,118,59,190,-105
-148.16,24.72,-69.26,3803,-6721,3871,-4,61,-44
-149.55,24.11,-70.59,1922,-8539,5032,-46,-101,53
-152.53,22.94,-73.54,2003,-7863,3181,-38,-118,69
-153.35,23.03,-75.14,3343,-6981,1220,-4,-28,-6
-152.41,23.78,-74.96,3995,-7090,1267,-6,41,-31
-151.74,24.19,-74.85,4150,-7221,1549,-14,15,-9
-152.24,23.92,-75.55,3750,-7342,1709,-24,-22,21
-153.00,23.45,-76.28,3413,-7272,1478,-13,-16,17
-153.28,23.31,-76.62,3241,-7412,1380,-2,-2,1
-153.22,23.33,-76.64,3189,-7636,1492,-3,5,-4
-153.53,23.16,-76.70,2895,-7701,1841,5,-37,11
-153.53,23.18,-76.73,4822,-6783,780,6,42,0
-152.18,23.88,-76.26,5189,-7516,1596,-42,80,-44
-152.67,23.67,-77.60,1636,-11448,3437,-45,-51,26
-156.38,20.96,-79.26,-542,-11362,2654,14,-145,89
-158.41,19.90,-80.62,2481,-6457,-982,12,-99,50
-156.71,21.51,-79.30,6273,-4215,-3114,147,52,-52
-153.58,23.16,-74.85,6887,-4729,-18,51,158,-74
-151.44,23.72,-72.42,2950,-7041,3391,2,72,-47
-153.39,22.19,-72.98,-1771,-10383,5803,-8,-118,60
-156.66,20.56,-75.10,-737,-8200,3257,-13,-152,73
-155.58,22.13,-75.26,4822,-5689,-225,69,27,-67
-152.33,24.23,-72.43,6324,-5875,1298,36,113,-68
-151.13,24.50,-71.05,4583,-6530,3346,-11,36,-8
-152.34,23.59,-72.11,3059,-7248,3900,-49,-39,45
-153.93,22.73,-74.19,2546,-7091,2835,-53,-43,31
-154.45,22.57,-75.64,2708,-7216,1723,-31,0,-7
-153.89,23.07,-75.95,3076,-7529,1352,-9,22,-26
-153.47,23.41,-76.01,3408,-7803,1528,-8,3,-7
-153.64,23.35,-76.36,3614,-7852,1375,-5,-10,9
-153.93,23.16,-76.55,3563,-7842,1217,3,-4,7
-154.01,23.06,-76.38,3426,-7782,1306,12,-2,2
-154.00,23.02,-76.05,3266,-7702,1580,10,2,-1
-153.95,23.00,-75.75,3017,-7513,1785,10,-2,-3
-153.75,23.15,-75.40,2987,-7317,1964,10,1,-9
-153.49,23.33,-75.05,2972,-7099,2242,6,-3,-6
-153.39,23.48,-75.01,3200,-6784,2256,-1,-7,-2
-153.29,23.59,-74.99,3451,-6501,2296,0,-3,1
-153.17,23.80,-75.33,3564,-7056,2768,-27,-7,-12
-152.85,24.21,-76.37,3910,-7878,2651,-57,15,-18
-152.75,24.40,-77.67,4370,-8019,1598,-47,28,0
-153.22,23.92,-78.43,3979,-8009,931,-22,23,20
-154.20,23.00,-78.71,2721,-7893,835,4,-16,27
-154.82,22.61,-78.90,2110,-7433,494,18,-36,2
-154.27,23.20,-78.33,2494,-7230,447,44,-14,-30
-153.22,24.11,-77.11,3241,-7460,1344,44,-11,-25
-152.52,24.62,-76.13,3998,-7697,2344,9,11,-14
-152.17,24.85,-75.96,4295,-7564,2437,-10,9,-3
-152.24,24.73,-76.19,4296,-7594,1951,-13,16,7
-152.47,24.29,-76.10,4025,-7378,1275,3,35,12
-152.80,23.71,-75.57,3232,-7007,1288,18,7,16
-153.27,23.30,-75.13,2390,-6755,1671,26,-33,10
-153.26,23.48,-74.60,2367,-6772,2264,32,-27,-7
-152.75,23.85,-73.86,2858,-6670,3015,6,12,-19
-152.12,24.30,-73.67,3419,-6481,3398,-21,11,-16
-151.88,24.60,-74.40,3796,-6575,3201,-42,0,-7
-151.98,24.75,-75.74,3831,-6967,2595,-51,-4,-1
-152.23,24.70,-77.06,3832,-7563,1832,-44,16,-1
-152.33,24.58,-77.88,3698,-7776,1217,-34,32,-4
-152.31,24.55,-78.37,3577,-7798,765,-22,23,-6
-152.20,24.66,-78.67,3538,-7933,543,-6,7,-8
-152.15,24.72,-78.71,3575,-8069,513,7,-4,-1
-152.10,24.72,-78.36,3585,-7967,534,25,1,0
-151.91,24.74,-77.58,3509,-7705,899,31,-4,-2
-151.73,24.79,-76.80,3459,-7500,1374,27,-9,-1
-151.54,24.87,-76.12,3450,-7363,1709,23,-3,-4
-151.25,24.99,-75.39,3490,-7299,2042,21,6,-6
-150.95,25.06,-74.76,3540,-7189,2316,9,12,-6
-150.79,25.08,-74.40,3530,-7064,2364,4,5,-2
-150.75,25.04,-74.24,3450,-7063,2308,1,5,-1
-150.72,25.01,-74.14,3406,-7040,2237,1,3,-1
-150.67,25.00,-74.03,3475,-7069,2238,0,4,-2
-150.62,25.00,-73.99,3536,-7149,2294,-4,4,0
-150.68,24.93,-74.09,3527,-7200,2216,-6,2,2
-150.77,24.84,-74.18,3454,-7221,2117,-4,2,1
-150.81,24.79,-74.25,3450,-7250,2086,-5,3,-1
-150.78,24.80,-74.30,3490,-7287,2068,-5,4,-2
-150.79,24.78,-74.42,3526,-7258,1960,-5,3,0
-150.81,24.74,-74.45,3555,-7185,1890,-2,5,1
-150.86,24.65,-74.44,3510,-7127,2007,-3,3,3
-150.92,24.58,-74.51,3516,-7050,2071,-6,5,1
-150.97,24.50,-74.63,3464,-7186,2280,-13,6,1
-151.12,24.37,-74.94,3382,-7290,2191,-14,5,2
-151.19,24.31,-75.24,3383,-7387,2040,-13,8,-2
-151.18,24.33,-75.52,3521,-7442,2004,-16,8,-2
-151.18,24.26,-75.74,3524,-7402,1837,-14,20,-3
-151.12,24.21,-75.91,3517,-7446,1663,-14,20,-3
-151.11,24.12,-76.00,3504,-7558,1492,-6,16,0
-151.17,23.95,-75.93,3337,-7548,1585,1,7,2
-151.20,23.84,-75.80,3196,-7456,1900,1,3,1
-151.26,23.74,-75.75,3127,-7362,2187,-5,1,1
-151.29,23.69,-75.82,3224,-7402,2087,-7,6,0
-151.32,23.62,-75.87,3381,-7383,1850,-1,6,2
-151.36,23.56,-75.87,3440,-7424,1890,-3,2,3
-151.44,23.44,-75.89,3366,-7390,1900,-5,6,1
-151.48,23.36,-75.93,3427,-7434,1766,-1,7,2
-151.54,23.25,-75.89,3340,-7427,1750,2,4,3
-151.60,23.14,-75.82,3216,-7381,1844,-2,3,1
-151.65,23.05,-75.82,3274,-7371,1810,-1,3,3
-151.76,22.95,-75.84,3252,-7357,1894,-2,-1,3
-151.84,22.88,-75.90,3298,-7415,1909,-4,3,1
-151.91,22.76,-75.92,3241,-7463,1847,-2,6,3
-151.97,22.66,-75.90,3150,-7441,1811,-1,4,1
-152.02,22.58,-75.90,3171,-7442,1749,0,2,2
-152.08,22.52,-75.89,3180,-7464,1759,2,-1,2
-152.11,22.45,-75.80,3105,-7447,1842,2,1,1
-152.12,22.42,-75.75,3105,-7464,1882,1,-1,0
-152.13,22.40,-75.69,3147,-7486,1858,3,-1,1
-152.14,22.36,-75.61,3164,-7457,1896,3,-1,2
-152.16,22.33,-75.54,3172,-7489,1991,1,-1,0
-152.17,22.28,-75.45,3142,-7468,2071,1,1,1
-152.18,22.23,-75.39,3064,-7450,2114,0,0,0
-152.21,22.20,-75.38,3077,-7422,2122,-1,-2,1
-152.28,22.18,-75.45,3069,-7372,2121,-4,-4,1
-152.38,22.16,-75.61,3088,-7383,2045,-6,-5,1
-152.51,22.13,-75.81,3160,-7404,1898,-4,-6,2
-152.63,22.08,-75.92,3202,-7421,1902,-3,-4,3
-152.73,22.03,-76.06,3121,-7485,1859,-5,-1,0
-152.79,22.01,-76.16,3134,-7597,1762,-1,-1,0
-152.82,21.99,-76.16,3145,-7596,1777,1,-2,1
-152.82,21.98,-76.12,3155,-7545,1826,1,-1,0
-152.85,21.94,-76.10,3074,-7551,1823,1,-1,0
-152.85,21.95,-76.08,3083,-7539,1725,3,-1,-1
-152.82,21.95,-75.96,3146,-7490,1781,5,-3,1
-152.82,21.94,-75.89,3118,-7434,1881,1,-2,1
-152.81,21.94,-75.84,3069,-7441,1874,2,0,-1
-152.78,21.97,-75.80,3099,-7452,1901,0,-1,-1
-152.73,22.01,-75.77,3087,-7455,1944,-1,0,-2
-152.65,22.08,-75.77,3095,-7494,1978,-3,2,-5
-152.53,22.19,-75.80,3149,-7483,1912,0,0,-4
-152.47,22.26,-75.83,3190,-7463,1979,-3,0,-2
-152.47,22.27,-75.90,3203,-7456,1950,-5,1,-1
-152.48,22.28,-75.98,3203,-7471,1897,-4,1,0
-152.52,22.25,-76.05,3171,-7464,1867,-3,0,0
-152.54,22.25,-76.11,3168,-7452,1832,-2,-1,0
-152.58,22.24,-76.16,3165,-7440,1859,-2,-3,1
-152.66,22.21,-76.24,3134,-7466,1868,-3,-3,0
-152.68,22.22,-76.32,3143,-7507,1880,-3,-1,-1
-152.69,22.23,-76.39,3174,-7541,1864,-4,0,0
-152.75,22.20,-76.48,3136,-7476,1849,-3,-2,1
-152.81,22.19,-76.61,3057,-7452,1796,-4,-1,-1
-152.78,22.26,-76.73,3064,-7461,1765,-5,-1,-5
-152.68,22.38,-76.82,3179,-7547,1749,-5,2,-4
-152.64,22.43,-76.91,3233,-7568,1704,-4,2,-1
-152.66,22.43,-76.99,3195,-7549,1649,-3,0,-1
-152.63,22.47,-77.03,3213,-7531,1641,-1,-1,-2
-152.64,22.49,-77.05,3233,-7513,1693,0,-4,1
-152.70,22.47,-77.07,3206,-7497,1727,0,-3,1
-152.74,22.44,-77.09,3168,-7468,1774,-1,-2,0
-152.71,22.46,-77.10,3180,-7474,1783,-2,1,-2
-152.69,22.49,-77.14,3207,-7514,1770,-4,2,-2
-152.68,22.50,-77.20,3211,-7533,1704,-3,2,-1
-152.67,22.51,-77.24,3206,-7545,1644,-2,1,-1
-152.66,22.52,-77.25,3201,-7534,1630,0,-1,-1
-152.66,22.53,-77.24,3198,-7535,1656,1,-2,0
-152.66,22.52,-77.22,3220,-7505,1707,1,-2,0
-152.68,22.52,-77.21,3220,-7481,1751,-1,-1,0
-152.69,22.50,-77.21,3210,-7474,1777,-1,1,0
-152.72,22.48,-77.25,3196,-7476,1779,-3,0,0
-152.76,22.45,-77.30,3170,-7486,1754,-3,1,0
-152.78,22.43,-77.36,3157,-7508,1703,-3,1,-1
-152.79,22.43,-77.40,3166,-7519,1671,-2,1,-1
-152.79,22.43,-77.44,3183,-7541,1636,-2,1,-1
-152.79,22.43,-77.45,3185,-7540,1622,-1,0,0
-152.80,22.42,-77.45,3182,-7545,1621,0,-1,0
-152.81,22.41,-77.45,3166,-7521,1629,0,-1,0
-152.80,22.42,-77.42,3163,-7517,1646,1,-1,-1
-152.78,22.43,-77.39,3179,-7508,1671,0,0,-1
-152.77,22.43,-77.38,3187,-7500,1680,0,0,-1
-152.77,22.43,-77.37,3192,-7511,1689,-1,0,-1
-152.75,22.44,-77.36,3187,-7522,1678,0,1,-1
-152.74,22.44,-77.35,3184,-7523,1668,0,0,-1
-152.72,22.45,-77.32,3185,-7514,1669,1,-1,-1
-152.70,22.46,-77.28,3187,-7506,1689,1,-1,-1
-152.69,22.46,-77.25,3201,-7497,1718,1,-1,0
-152.70,22.45,-77.24,3193,-7490,1743,0,-1,0
-152.70,22.45,-77.24,3178,-7493,1740,-1,0,-1
-152.69,22.45,-77.24,3183,-7493,1728,-1,0,-1
-152.69,22.46,-77.26,3192,-7500,1717,-1,0,-1
-152.69,22.46,-77.28,3193,-7500,1699,-1,0,0
-152.69,22.47,-77.29,3195,-7518,1700,-1,-1,-1
-152.70,22.47,-77.31,3197,-7523,1690,-1,-1,0
-152.72,22.46,-77.32,3192,-7504,1685,-1,-1,0
-152.72,22.46,-77.33,3181,-7500,1680,-1,-1,-1
-152.71,22.47,-77.34,3184,-7500,1674,-1,-1,-1
-152.71,22.48,-77.35,3184,-7505,1670,-1,0,-1
-152.70,22.49,-77.35,3197,-7516,1680,-1,0,-1
-152.70,22.49,-77.35,3197,-7521,1672,0,0,0
-152.69,22.49,-77.35,3185,-7513,1666,0,-1,-1
-152.69,22.49,-77.33,3189,-7502,1672,0,-1,-1
-152.69,22.49,-77.33,3191,-7510,1684,0,-1,-1
-152.68,22.50,-77.32,3189,-7511,1691,0,0,-1
-152.66,22.51,-77.31,3196,-7511,1701,0,0,-1
-152.66,22.51,-77.30,3204,-7501,1697,0,-1,-1
-152.65,22.52,-77.31,3209,-7499,1702,-1,-1,0
-152.66,22.52,-77.32,3200,-7490,1694,-1,0,0
-152.68,22.51,-77.34,3179,-7477,1673,-1,0,0
-152.68,22.51,-77.35,3139,-7467,1726,0,-3,0
-152.73,22.52,-77.43,3108,-7441,1720,-2,-5,0
-152.69,22.61,-77.50,3089,-7453,1742,-2,-4,-5
-152.59,22.76,-77.60,3198,-7552,1753,-5,-1,-5
-152.48,22.87,-77.67,3273,-7568,1664,-5,4,-5
-152.38,22.95,-77.72,3314,-7539,1568,-3,3,-3
-152.37,22.98,-77.79,3270,-7549,1484,-2,0,-2
-152.28,23.06,-77.78,3259,-7528,1426,2,0,-4
-152.18,23.15,-77.71,3284,-7553,1469,3,-2,-3
-152.08,23.24,-77.63,3301,-7565,1549,3,-2,-3
-151.99,23.31,-77.55,3304,-7546,1617,2,-1,-3
-151.88,23.38,-77.46,3276,-7491,1680,2,0,-4
-151.76,23.48,-77.40,3249,-7495,1735,0,0,-5
-151.62,23.59,-77.35,3231,-7498,1689,0,4,-6
-151.40,23.75,-77.25,3309,-7444,1641,1,3,-7
-151.20,23.90,-77.15,3426,-7425,1640,2,0,-4
-151.18,23.92,-77.12,3413,-7399,1644,0,-3,0
-151.15,23.98,-77.15,3420,-7491,1571,1,0,-4
-150.98,24.09,-77.02,3527,-7519,1588,3,2,-4
-150.89,24.10,-76.88,3558,-7589,1629,4,3,0
-150.84,24.08,-76.70,3516,-7566,1621,5,3,0
-150.75,24.06,-76.45,3450,-7498,1613,8,4,-2
-150.59,24.07,-76.12,3424,-7405,1697,10,4,-3
-150.43,24.11,-75.85,3443,-7350,1798,6,4,-2
-150.35,24.08,-75.62,3423,-7265,1901,3,5,0
-150.32,24.02,-75.49,3375,-7253,1996,0,4,0
-150.31,23.96,-75.45,3434,-7221,2045,-5,9,1
-150.46,23.75,-75.54,3482,-7219,2062,-10,10,8
-150.86,23.34,-75.77,3478,-7110,2020,-14,10,16
-151.43,22.78,-76.08,3167,-6876,2196,-17,8,19
-152.12,22.27,-76.70,2960,-7001,2367,-34,4,13
-152.62,21.87,-77.36,3065,-7404,2003,-27,21,6
-152.61,21.77,-77.64,3338,-7578,1611,-13,36,-4
-152.59,21.55,-77.74,3633,-7430,1321,-17,42,5
-152.95,21.05,-78.04,3511,-7559,1269,-27,27,17
-153.50,20.53,-78.40,3283,-7776,1025,-4,13,13
-153.93,20.10,-78.37,2845,-8023,1379,5,-13,16
-154.37,19.63,-78.18,2384,-7843,1695,13,-4,12
-154.50,19.43,-78.06,2250,-7391,2280,-14,5,0
-154.46,19.47,-78.37,2621,-7537,1889,-20,22,-7
-154.54,19.45,-78.70,2905,-7759,1398,-10,10,3
-154.63,19.38,-78.84,2919,-7909,1312,-2,4,1
-154.79,19.22,-78.84,2794,-7752,1582,-2,-2,5
-154.91,19.11,-78.90,2718,-7576,1749,-8,6,2
-155.01,19.00,-79.04,2635,-7652,1654,-8,9,1
-155.14,18.90,-79.16,2606,-7730,1482,-3,1,1
-155.27,18.82,-79.22,2635,-7785,1473,0,-3,3
-155.38,18.72,-79.23,2630,-7720,1577,-2,-3,3
-155.46,18.67,-79.30,2605,-7734,1517,-3,2,1
-155.52,18.66,-79.40,2605,-7858,1415,-2,-2,0
-155.58,18.63,-79.43,2576,-7811,1453,1,-6,1
-155.64,18.62,-79.46,2557,-7708,1538,-2,-5,0
-155.72,18.62,-79.57,2589,-7674,1509,-5,-5,0
-155.80,18.65,-79.70,2650,-7679,1454,-3,-7,0
-155.89,18.66,-79.82,2649,-7710,1475,-3,-7,0
-155.95,18.69,-79.96,2652,-7809,1469,-5,-5,-2
-155.99,18.75,-80.12,2753,-7904,1346,-4,-3,-1
-156.01,18.79,-80.20,2705,-7895,1321,-2,-3,-1
-156.02,18.83,-80.28,2707,-7860,1351,-4,-3,-2
-156.06,18.86,-80.40,2722,-7837,1314,-4,-3,-1
-156.09,18.89,-80.50,2718,-7769,1302,-4,-1,-1
-156.14,18.90,-80.63,2718,-7685,1316,-6,0,-1
-156.23,18.91,-80.82,2727,-7667,1345,-10,-3,-1
-156.30,18.95,-81.05,2773,-7796,1311,-8,1,-2
-156.46,18.90,-81.30,2777,-7810,1221,-9,1,3
-156.62,18.85,-81.54,2753,-7805,1164,-10,2,0
-156.81,18.76,-81.76,2674,-7738,1194,-10,-1,3
-156.93,18.76,-82.01,2639,-7668,1201,-10,2,-3
-156.93,18.88,-82.33,2905,-7528,1150,-19,9,-2
-157.21,18.79,-82.83,2874,-7665,1092,-25,17,3
-157.55,18.68,-83.42,2820,-7737,860,-24,17,3
-158.10,18.43,-84.04,2704,-7889,761,-25,3,8
-158.63,18.16,-84.52,2433,-8110,673,-13,-1,6
-159.05,17.93,-84.84,2270,-8033,488,-4,-6,5
-159.08,17.96,-84.89,2219,-7723,694,-2,-13,-4
-159.07,18.13,-85.11,2375,-7759,979,-8,-14,-8
-159.05,18.36,-85.43,2699,-8061,994,-13,-5,-6
-159.01,18.46,-85.57,2697,-8263,809,-5,9,-5
-158.98,18.51,-85.66,2736,-8365,677,-9,13,-1
-158.88,18.49,-85.54,2730,-7889,699,-1,9,-1
-159.03,18.42,-85.66,2549,-7946,750,-6,-8,3
-159.07,18.46,-85.79,2477,-7884,533,-2,3,-7
-158.81,18.68,-85.75,2554,-7880,452,1,6,-10
-158.44,18.95,-85.61,2705,-7926,498,2,8,-10
-158.24,19.09,-85.51,2751,-7870,551,1,-1,-2
-158.17,19.16,-85.48,2659,-7937,567,4,-6,-5
-157.94,19.33,-85.36,2680,-7916,594,4,0,-8
-157.59,19.57,-85.17,2821,-7826,651,6,3,-7
-157.39,19.71,-85.07,2850,-7760,778,0,-3,-4
-157.33,19.81,-85.11,2848,-7710,833,-3,-5,-3
-157.30,19.91,-85.22,2798,-7768,798,-5,-1,-5
-157.17,20.06,-85.29,2790,-7755,796,-5,2,-7
-157.07,20.25,-85.43,2815,-7804,754,-6,-2,-8
-156.91,20.49,-85.57,3058,-7831,635,-5,4,-7
-156.91,20.54,-85.68,3161,-7811,569,-6,2,1
-157.07,20.45,-85.83,3011,-7837,510,-4,0,3
-157.22,20.38,-85.95,2912,-7853,460,-1,-5,0
-157.24,20.39,-85.97,2912,-7878,488,0,-1,0
-157.27,20.34,-85.96,2959,-7834,502,0,1,1
-157.28,20.31,-85.93,2967,-7811,605,0,0,2
-157.40,20.24,-86.01,2974,-7828,583,-1,-2,4
-157.52,20.15,-86.07,2937,-7874,535,-2,1,2
-157.55,20.10,-86.05,2896,-7844,469,0,6,1
-157.54,20.04,-85.96,2852,-7785,520,2,2,1
-157.56,20.01,-85.94,2898,-7834,568,0,-2,2
-157.59,19.96,-85.92,2902,-7923,497,1,6,1
-157.50,19.93,-85.75,2860,-7852,488,4,7,-1
-157.36,19.95,-85.56,2843,-7900,550,2,5,-2
-157.21,19.97,-85.37,2885,-7861,570,5,7,-1
-157.05,19.97,-85.14,2924,-7833,635,5,6,0
-156.97,19.90,-84.94,2874,-7768,712,3,5,2
-156.94,19.83,-84.80,2826,-7744,739,2,4,1
-156.89,19.79,-84.67,2808,-7781,789,1,5,0
-156.80,19.77,-84.55,2822,-7807,783,2,8,-1
-156.67,19.78,-84.40,2862,-7828,787,1,9,-1
-156.59,19.75,-84.29,2879,-7835,766,0,7,1
-156.57,19.68,-84.18,2837,-7875,741,1,7,1
-156.52,19.61,-84.04,2804,-7851,682,4,7,1
-156.43,19.54,-83.82,2770,-7820,742,5,4,1
-156.39,19.45,-83.63,2731,-7808,816,5,1,3
-156.40,19.35,-83.48,2677,-7805,833,5,0,2
-156.32,19.31,-83.31,2753,-7769,876,6,1,0
-156.28,19.25,-83.14,2834,-7793,980,4,-2,4
-156.41,19.07,-83.03,2758,-7788,1031,3,-3,7
-156.52,18.91,-82.96,2641,-7784,1032,3,-2,3
-156.53,18.86,-82.89,2621,-7824,1048,1,-1,0
-156.51,18.85,-82.84,2655,-7852,1041,0,2,-1
-156.42,18.87,-82.77,2704,-7875,988,1,4,-2
-156.36,18.87,-82.69,2706,-7875,1010,1,1,0
-156.41,18.81,-82.68,2658,-7860,983,0,-1,1
-156.41,18.80,-82.65,2631,-7851,926,2,2,-2
-156.28,18.84,-82.54,2707,-7830,918,3,3,-2
-156.17,18.85,-82.41,2759,-7850,948,3,2,-1
-156.07,18.83,-82.25,2770,-7860,967,5,3,1
-156.02,18.77,-82.08,2718,-7861,1026,5,2,2
-155.99,18.70,-81.94,2630,-7865,1078,4,1,1
-155.91,18.68,-81.78,2629,-7821,1130,4,0,-1
-155.83,18.67,-81.65,2642,-7795,1189,3,0,0
-155.78,18.66,-81.56,2629,-7751,1214,1,1,0
-155.71,18.68,-81.51,2638,-7765,1214,1,2,-2
-155.62,18.70,-81.44,2671,-7778,1213,1,4,-1
-155.57,18.71,-81.39,2686,-7782,1215,0,0,-1
-155.57,18.69,-81.37,2670,-7805,1159,0,2,0
-155.51,18.69,-81.30,2638,-7809,1151,2,1,-2
-155.40,18.73,-81.20,2695,-7818,1176,3,1,-1
-155.34,18.73,-81.11,2702,-7814,1221,1,0,0
-155.32,18.71,-81.06,2671,-7840,1220,0,2,-1
-155.21,18.73,-80.97,2679,-7840,1217,1,4,-3
-155.12,18.75,-80.89,2693,-7830,1237,1,2,-1
-155.12,18.71,-80.85,2656,-7795,1236,0,0,1
-155.15,18.67,-80.83,2575,-7780,1220,1,-2,0
-155.09,18.71,-80.79,2579,-7793,1229,2,0,-3
-154.98,18.77,-80.72,2627,-7811,1260,1,1,-3
-154.92,18.80,-80.67,2620,-7798,1270,1,-1,-1
-154.86,18.84,-80.64,2587,-7776,1279,1,-3,-3
-154.77,18.93,-80.60,2614,-7788,1284,2,-3,-4
-154.66,19.03,-80.55,2675,-7772,1303,2,-3,-3
-154.58,19.11,-80.51,2715,-7763,1328,1,-4,-2
-154.55,19.16,-80.50,2740,-7755,1353,0,-4,-2
-154.50,19.23,-80.50,2778,-7761,1336,0,-2,-3
-154.44,19.29,-80.49,2826,-7741,1330,-1,-2,-2
-154.43,19.32,-80.51,2835,-7738,1305,-1,-2,0
-154.45,19.33,-80.53,2819,-7751,1297,0,-2,0
-154.46,19.33,-80.54,2832,-7758,1308,0,-2,0
-154.50,19.31,-80.56,2813,-7768,1306,-1,-1,1
-154.53,19.29,-80.57,2774,-7771,1290,-1,-1,0
-154.54,19.28,-80.58,2758,-7779,1283,-1,-1,0
-154.57,19.28,-80.60,2759,-7766,1275,-1,-2,0
-154.59,19.27,-80.63,2779,-7758,1267,-1,-2,0
-154.63,19.25,-80.65,2777,-7763,1279,-1,-2,1
-154.67,19.23,-80.67,2761,-7768,1262,-1,-1,0
-154.70,19.22,-80.68,2747,-7781,1271,-1,-1,0
-154.71,19.20,-80.69,2762,-7778,1275,-1,-1,0
-154.76,19.18,-80.71,2741,-7779,1267,-1,-1,1
-154.78,19.17,-80.73,2737,-7779,1262,-1,-1,0
-154.79,19.17,-80.73,2746,-7793,1257,0,-1,0
-154.79,19.17,-80.74,2763,-7780,1256,0,-1,0
-154.82,19.15,-80.74,2746,-7765,1253,0,-1,0
-154.85,19.14,-80.76,2733,-7772,1245,-1,-2,0
-154.86,19.13,-80.77,2739,-7782,1254,-1,-1,0
-154.88,19.13,-80.79,2747,-7784,1259,-1,-1,0
-154.90,19.12,-80.80,2732,-7791,1256,-1,-1,0
-154.91,19.12,-80.82,2730,-7794,1245,-1,-1,-1
-154.90,19.13,-80.82,2741,-7804,1239,0,-1,0
-154.91,19.12,-80.81,2741,-7793,1235,0,-1,0
-154.92,19.11,-80.80,2734,-7783,1258,0,-2,0
-154.94,19.10,-80.80,2731,-7771,1260,0,-1,0
-154.93,19.10,-80.78,2742,-7769,1260,0,-1,-1
-154.93,19.10,-80.78,2757,-7778,1273,-1,0,0
-154.94,19.09,-80.79,2735,-7776,1275,-1,-1,0
-154.96,19.08,-80.81,2709,-7785,1258,-1,-1,-1
-154.97,19.08,-80.81,2710,-7783,1248,0,-1,-1
-154.96,19.10,-80.81,2742,-7790,1249,-1,-1,-1
-154.96,19.09,-80.81,2746,-7782,1260,0,-1,0
-154.97,19.09,-80.81,2737,-7774,1253,0,-1,0
-154.96,19.10,-80.81,2740,-7786,1250,0,-1,-1
-154.96,19.10,-80.81,2742,-7793,1260,0,0,0
-154.96,19.09,-80.80,2736,-7777,1256,0,-1,0
-154.97,19.09,-80.81,2739,-7778,1261,0,-1,0
-154.98,19.09,-80.82,2742,-7782,1261,-1,-1,0
-154.99,19.09,-80.83,2745,-7782,1258,-1,0,0
-155.00,19.07,-80.84,2751,-7757,1266,-1,0,0
-155.04,19.06,-80.87,2744,-7759,1246,-2,0,0
-155.06,19.05,-80.88,2740,-7778,1244,-1,0,0
-155.08,19.03,-80.90,2752,-7798,1247,-1,0,0
-155.12,19.01,-80.92,2741,-7794,1240,-1,0,1
-155.17,18.97,-80.95,2723,-7781,1240,-1,-1,1
-155.21,18.95,-80.97,2701,-7778,1228,-1,0,0
-155.23,18.94,-80.99,2716,-7792,1234,-1,0,-1
-155.23,18.93,-81.00,2736,-7797,1240,-1,0,0
-155.28,18.90,-81.03,2714,-7806,1230,-2,0,1
-155.32,18.86,-81.05,2687,-7810,1213,-1,0,0
-155.35,18.85,-81.06,2693,-7804,1219,-1,-1,0
-155.37,18.84,-81.07,2695,-7809,1217,-1,-1,0
-155.39,18.82,-81.08,2703,-7812,1225,-1,0,0
-155.41,18.79,-81.08,2719,-7806,1232,-1,0,1
-155.45,18.76,-81.10,2695,-7796,1232,-1,0,0
-155.47,18.74,-81.12,2689,-7796,1226,-1,0,0
-155.50,18.73,-81.14,2701,-7791,1226,-2,0,1
-155.54,18.70,-81.17,2712,-7805,1222,-1,1,0
-155.58,18.66,-81.18,2709,-7823,1223,-2,1,1
-155.63,18.61,-81.20,2681,-7813,1207,-2,0,1
-155.68,18.57,-81.23,2669,-7815,1188,-1,0,0
-155.71,18.54,-81.23,2676,-7812,1196,-1,1,1
-155.76,18.49,-81.25,2665,-7813,1194,-1,1,1
-155.80,18.45,-81.26,2630,-7825,1180,-1,1,1
-155.81,18.43,-81.25,2641,-7832,1181,0,1,0
-155.82,18.41,-81.25,2664,-7843,1185,-1,0,1
-155.86,18.35,-81.24,2625,-7843,1153,0,1,1
-155.86,18.33,-81.21,2626,-7821,1169,1,-1,0
-155.88,18.30,-81.19,2635,-7830,1190,0,0,1
-155.89,18.27,-81.16,2622,-7817,1199,0,0,0
-155.90,18.24,-81.13,2624,-7813,1241,0,0,0
-155.92,18.21,-81.13,2621,-7812,1235,-1,1,1
-155.96,18.16,-81.13,2590,-7811,1215,-1,1,0
-155.95,18.16,-81.11,2591,-7828,1213,0,0,0
-155.96,18.12,-81.10,2543,-7857,1172,1,0,0
-155.91,18.14,-81.03,2488,-7875,1153,3,-1,-3
-155.75,18.23,-80.91,2582,-7880,1182,5,-2,-3
-155.65,18.28,-80.79,2652,-7845,1230,4,-3,0
