Yaw,Pitch,Roll,AX,AY,AZ,GX,GY,GZ
-158.82,12.40,-71.19,1781,-7707,2624,0,0,-1
-158.82,12.41,-71.18,1780,-7696,2634,-1,0,-1
-158.82,12.41,-71.18,1778,-7692,2630,-1,0,-1
-158.82,12.41,-71.19,1779,-7710,2621,-1,0,-1
-158.82,12.40,-71.20,1773,-7728,2613,0,0,-1
-158.81,12.41,-71.19,1769,-7731,2621,0,0,-1
-158.81,12.41,-71.19,1772,-7713,2625,0,0,-1
-158.81,12.41,-71.19,1778,-7703,2622,0,0,-1
-158.80,12.42,-71.19,1789,-7708,2627,-1,-1,-1
-158.80,12.42,-71.19,1796,-7710,2629,-1,-1,0
-158.80,12.42,-71.19,1796,-7717,2615,0,-1,-1
-158.80,12.42,-71.19,1784,-7711,2622,0,-1,0
-158.81,12.41,-71.19,1780,-7697,2626,-1,-1,0
-158.81,12.41,-71.19,1784,-7701,2627,-1,-1,0
-158.81,12.41,-71.20,1786,-7712,2634,-1,-1,0
-158.81,12.41,-71.20,1778,-7707,2630,0,-1,-1
-158.80,12.42,-71.19,1783,-7711,2633,-1,0,0
-158.80,12.42,-71.19,1782,-7705,2627,0,0,0
-158.81,12.41,-71.19,1775,-7707,2629,-1,0,0
-158.81,12.41,-71.19,1776,-7713,2623,0,-1,-1
-158.81,12.41,-71.19,1773,-7713,2617,0,-1,0
-158.82,12.40,-71.19,1770,-7708,2628,0,-1,0
-158.81,12.40,-71.18,1781,-7710,2626,0,-1,-1
-158.81,12.40,-71.18,1781,-7701,2627,-1,0,-1
-158.81,12.40,-71.18,1787,-7704,2635,-1,-1,0
-158.81,12.41,-71.19,1784,-7702,2623,-1,-1,0
-158.82,12.40,-71.19,1773,-7701,2626,-1,-1,0
-158.82,12.40,-71.19,1782,-7708,2614,-1,-1,0
-158.82,12.40,-71.19,1782,-7713,2617,0,-1,0
-158.83,12.39,-71.19,1784,-7708,2618,0,-1,0
-158.83,12.39,-71.19,1772,-7715,2615,0,-1,0
-158.83,12.39,-71.19,1768,-7712,2619,0,-1,-1
-158.83,12.39,-71.19,1776,-7713,2626,-1,-1,0
-158.84,12.39,-71.20,1781,-7710,2621,-1,-1,0
-158.84,12.38,-71.19,1781,-7712,2625,-1,0,0
-158.85,12.38,-71.19,1780,-7709,2618,-1,-1,0
-158.86,12.37,-71.20,1779,-7714,2619,-1,-1,0
-158.86,12.37,-71.20,1779,-7716,2611,0,-1,0
-158.87,12.36,-71.21,1774,-7720,2622,0,-1,0
-158.86,12.36,-71.19,1776,-7715,2630,0,-1,0
-158.88,12.36,-71.20,1776,-7716,2624,-1,-1,0
-158.88,12.35,-71.20,1782,-7716,2618,0,0,0
-158.89,12.34,-71.20,1775,-7723,2614,0,-1,0
-158.90,12.34,-71.20,1759,-7715,2621,0,-1,0
-158.91,12.33,-71.20,1766,-7716,2616,-1,-1,0
-158.92,12.32,-71.20,1773,-7725,2624,0,-1,0
-158.92,12.32,-71.20,1783,-7727,2614,0,-1,0
-158.92,12.32,-71.18,1781,-7711,2626,0,-1,0
-158.93,12.31,-71.18,1765,-7705,2641,0,-1,0
-158.93,12.30,-71.17,1763,-7688,2648,-1,-1,0
-158.95,12.29,-71.18,1769,-7708,2624,-1,-1,0
-158.96,12.28,-71.19,1774,-7723,2632,-1,-1,0
-158.98,12.27,-71.19,1755,-7710,2619,0,0,0
-158.99,12.26,-71.18,1744,-7703,2630,-1,-1,0
-158.99,12.26,-71.18,1745,-7706,2637,-1,-1,-1
-158.99,12.26,-71.18,1770,-7708,2634,-1,-1,0
-158.99,12.26,-71.18,1785,-7705,2639,0,-1,0
-158.99,12.25,-71.18,1776,-7708,2643,-1,-1,0
-159.00,12.25,-71.18,1769,-7705,2660,-1,-1,0
-159.01,12.24,-71.19,1751,-7706,2650,-1,-1,0
-159.02,12.24,-71.19,1753,-7713,2637,-1,-1,0
-159.02,12.24,-71.20,1758,-7715,2623,0,0,0
-159.02,12.23,-71.19,1757,-7710,2621,0,-1,0
-159.02,12.23,-71.19,1760,-7707,2642,-1,0,0
-159.03,12.23,-71.20,1764,-7710,2635,-1,0,0
-159.03,12.22,-71.20,1760,-7710,2625,-1,-1,0
-159.04,12.22,-71.20,1764,-7720,2616,-1,-1,0
-159.05,12.21,-71.21,1758,-7723,2615,0,0,0
-159.04,12.21,-71.20,1763,-7716,2624,0,-1,0
-159.04,12.21,-71.19,1759,-7710,2637,-1,-1,0
-159.05,12.21,-71.19,1762,-7716,2640,-1,-1,0
-159.06,12.20,-71.20,1758,-7711,2639,-1,-1,0
-159.06,12.19,-71.20,1766,-7713,2638,-1,-1,0
-159.07,12.19,-71.20,1756,-7715,2623,0,-1,0
-159.08,12.19,-71.20,1769,-7716,2627,0,-1,0
-159.09,12.18,-71.20,1753,-7716,2616,0,-1,0
-159.09,12.18,-71.19,1767,-7722,2633,0,-1,0
-159.11,12.16,-71.19,1760,-7714,2625,0,-1,0
-159.12,12.15,-71.19,1754,-7717,2636,-1,-1,0
-159.12,12.15,-71.18,1763,-7716,2625,0,-1,0
-159.13,12.14,-71.18,1751,-7708,2630,0,-1,0
-159.15,12.13,-71.18,1751,-7709,2629,-1,-1,0
-159.16,12.12,-71.18,1735,-7714,2621,0,-1,0
-159.16,12.11,-71.18,1767,-7718,2634,0,0,0
-159.17,12.10,-71.17,1744,-7718,2649,-1,0,0
-159.18,12.10,-71.17,1738,-7722,2643,0,-1,0
-159.18,12.09,-71.18,1731,-7714,2627,-1,-1,0
-159.19,12.09,-71.18,1734,-7723,2630,0,-1,0
-159.19,12.08,-71.17,1750,-7713,2643,0,0,0
-159.19,12.08,-71.16,1750,-7708,2657,0,0,0
-159.20,12.07,-71.17,1744,-7708,2655,-1,-1,0
-159.21,12.06,-71.17,1729,-7702,2646,-1,-1,0
-159.22,12.06,-71.18,1739,-7719,2641,-1,-1,0
-159.23,12.05,-71.18,1746,-7734,2639,-1,-1,0
-159.24,12.05,-71.18,1743,-7727,2624,0,-1,0
-159.23,12.05,-71.17,1742,-7708,2640,0,0,0
-159.24,12.04,-71.17,1739,-7697,2637,-1,-1,0
-159.25,12.04,-71.18,1728,-7710,2635,-1,-1,0
-159.26,12.03,-71.19,1737,-7727,2628,-1,-1,0
-159.27,12.03,-71.19,1733,-7731,2630,-1,-1,0
-159.27,12.02,-71.19,1726,-7728,2616,0,-1,0
-159.27,12.02,-71.19,1732,-7720,2625,0,-1,0
-159.27,12.02,-71.19,1742,-7704,2636,0,0,0
-159.27,12.02,-71.19,1745,-7703,2632,-1,0,0
-159.26,12.03,-71.18,1747,-7713,2642,-1,0,0
-159.26,12.02,-71.19,1748,-7722,2632,-1,0,0
-159.26,12.02,-71.20,1741,-7727,2621,-1,0,0
-159.28,12.01,-71.20,1733,-7724,2628,0,0,-1
-159.26,12.02,-71.19,1733,-7717,2639,-1,0,-1
-159.26,12.02,-71.19,1730,-7712,2641,-1,-1,-1
-159.26,12.02,-71.19,1734,-7716,2638,-1,-1,-1
-159.26,12.03,-71.19,1731,-7708,2640,-1,-1,-1
-159.25,12.03,-71.19,1740,-7720,2640,-1,0,-1
-159.26,12.04,-71.20,1737,-7714,2642,-1,-1,-1
-159.26,12.04,-71.23,1743,-7727,2634,-1,-1,-1
-159.26,12.04,-71.24,1737,-7726,2621,-1,0,-1
-159.25,12.05,-71.24,1732,-7726,2648,-1,-1,-1
-159.24,12.07,-71.25,1754,-7721,2632,-1,-1,-1
-159.25,12.06,-71.25,1745,-7701,2637,-1,-1,0
-159.26,12.06,-71.27,1741,-7711,2610,-1,-1,0
-159.27,12.05,-71.27,1751,-7721,2593,0,-1,0
-159.27,12.05,-71.26,1755,-7725,2595,0,0,0
-159.27,12.04,-71.25,1742,-7721,2616,0,-1,0
-159.27,12.04,-71.24,1739,-7723,2632,0,-1,0
-159.27,12.05,-71.23,1744,-7712,2634,0,-1,-1
-159.27,12.05,-71.23,1750,-7712,2628,0,-1,0
-159.26,12.05,-71.23,1752,-7712,2628,0,-1,0
-159.26,12.05,-71.23,1751,-7722,2623,-1,-1,0
-159.26,12.05,-71.22,1753,-7717,2632,0,0,-1
-159.27,12.04,-71.22,1740,-7727,2637,-1,0,-1
-159.26,12.05,-71.22,1738,-7723,2642,-1,-1,-1
-159.26,12.05,-71.22,1744,-7723,2619,0,0,-1
-159.26,12.05,-71.22,1745,-7718,2614,-1,-1,-1
-159.25,12.06,-71.22,1746,-7714,2609,0,0,-1
-159.25,12.06,-71.22,1743,-7711,2618,0,0,-1
-159.24,12.06,-71.22,1743,-7715,2621,-1,-1,0
-159.25,12.06,-71.23,1743,-7717,2612,-1,-1,-1
-159.24,12.07,-71.24,1747,-7726,2616,-1,0,-1
-159.23,12.07,-71.23,1746,-7732,2625,0,0,-1
-159.23,12.08,-71.22,1747,-7713,2623,0,0,-1
-159.23,12.08,-71.22,1741,-7709,2633,-1,-1,-1
-159.23,12.08,-71.22,1747,-7704,2627,-1,-1,0
-159.23,12.08,-71.23,1748,-7726,2615,-1,0,-1
-159.23,12.08,-71.24,1751,-7734,2609,0,0,-1
-159.22,12.08,-71.23,1749,-7728,2608,0,0,-1
-159.22,12.09,-71.23,1748,-7715,2617,0,0,-1
-159.21,12.09,-71.23,1755,-7707,2623,-1,0,-1
-159.20,12.10,-71.22,1764,-7711,2626,-1,0,0
-159.21,12.10,-71.23,1761,-7715,2623,-1,0,0
-159.21,12.10,-71.23,1759,-7722,2632,-1,0,0
-159.21,12.10,-71.23,1759,-7721,2632,-1,-1,-1
-159.21,12.10,-71.23,1758,-7719,2621,-1,-1,-1
-159.20,12.11,-71.24,1760,-7720,2619,-1,-1,-1
-159.20,12.11,-71.24,1753,-7715,2623,0,-1,-1
-159.20,12.11,-71.24,1756,-7719,2620,-1,0,0
-159.20,12.11,-71.24,1750,-7720,2622,-1,-1,0
-159.20,12.11,-71.24,1752,-7718,2612,-1,-1,0
-159.21,12.11,-71.25,1754,-7726,2605,-1,-1,0
-159.20,12.11,-71.25,1751,-7728,2605,0,0,-1
-159.19,12.11,-71.24,1757,-7730,2625,-1,0,-1
-159.19,12.11,-71.24,1751,-7726,2626,0,0,-1
-159.18,12.12,-71.23,1756,-7710,2629,-1,-1,-1
-159.19,12.12,-71.24,1752,-7706,2628,-1,-1,-1
-159.19,12.12,-71.24,1757,-7711,2620,-1,-1,-1
-159.18,12.13,-71.24,1759,-7719,2627,-1,0,-1
-159.18,12.13,-71.24,1755,-7715,2625,-1,-1,-1
-159.18,12.13,-71.24,1750,-7717,2614,0,0,0
-159.18,12.13,-71.24,1751,-7714,2615,0,-1,-1
-159.18,12.13,-71.24,1761,-7719,2609,-1,-1,-1
-159.18,12.13,-71.24,1753,-7716,2607,0,0,-1
-159.18,12.13,-71.23,1751,-7717,2608,0,-1,-1
-159.16,12.14,-71.23,1756,-7713,2620,0,0,-1
-159.16,12.14,-71.22,1762,-7715,2622,0,0,-1
-159.16,12.14,-71.22,1767,-7718,2627,0,-1,-1
-159.16,12.14,-71.21,1764,-7715,2626,0,-1,-1
-159.15,12.14,-71.21,1757,-7709,2625,0,0,0
-159.15,12.14,-71.21,1755,-7701,2627,-1,-1,0
-159.15,12.14,-71.21,1753,-7703,2630,-1,-1,0
-159.15,12.14,-71.22,1756,-7713,2625,-1,-1,-1
-159.15,12.14,-71.22,1752,-7731,2619,0,0,-1
-159.14,12.15,-71.22,1757,-7721,2616,0,0,-1
-159.14,12.15,-71.21,1755,-7706,2628,0,0,-1
-159.13,12.15,-71.20,1758,-7697,2634,-1,-1,0
-159.13,12.16,-71.21,1765,-7714,2633,-1,-1,-1
-159.14,12.16,-71.22,1766,-7732,2619,-1,0,-1
-159.14,12.16,-71.22,1762,-7728,2614,0,0,-1
-159.13,12.16,-71.22,1750,-7717,2618,0,-1,-1
-159.12,12.17,-71.21,1762,-7711,2633,0,0,-1
-159.11,12.18,-71.21,1765,-7710,2633,0,0,-1
-159.10,12.18,-71.20,1772,-7709,2640,-1,0,-1
-159.10,12.18,-71.21,1774,-7722,2630,-1,0,-1
-159.10,12.18,-71.21,1763,-7713,2629,-1,0,-1
-159.10,12.18,-71.21,1754,-7700,2628,-1,-1,-1
-159.10,12.18,-71.21,1761,-7705,2631,-1,-1,-1
-159.10,12.19,-71.21,1765,-7715,2626,-1,0,-1
-159.09,12.19,-71.21,1765,-7723,2629,0,0,-1
-159.09,12.19,-71.21,1766,-7721,2625,0,0,-1
-159.08,12.20,-71.20,1760,-7716,2634,-1,0,-1
-159.08,12.20,-71.20,1767,-7718,2637,0,0,-1
-159.08,12.20,-71.20,1768,-7721,2626,-1,0,-1
-159.07,12.21,-71.20,1762,-7715,2621,0,-1,-1
-159.06,12.21,-71.19,1766,-7714,2635,0,0,-1
-159.05,12.22,-71.19,1770,-7711,2637,-1,0,-1
-159.05,12.22,-71.19,1777,-7717,2639,-1,0,-1
-159.04,12.23,-71.19,1778,-7711,2642,-1,-1,-1
-159.04,12.23,-71.19,1776,-7710,2636,-1,0,-1
-159.03,12.24,-71.20,1774,-7709,2629,-1,0,-1
-159.04,12.23,-71.20,1761,-7718,2621,-1,0,-1
-159.03,12.24,-71.20,1761,-7719,2616,-1,-1,-1
-159.03,12.24,-71.20,1768,-7720,2618,0,0,-1
-159.02,12.25,-71.19,1773,-7717,2635,0,0,-1
-159.01,12.25,-71.19,1772,-7708,2634,0,0,-1
-159.01,12.25,-71.19,1776,-7711,2638,-1,0,-1
-159.01,12.25,-71.18,1773,-7712,2636,-1,0,-1
-159.01,12.25,-71.18,1769,-7710,2638,-1,0,-1
-159.00,12.26,-71.18,1773,-7714,2632,-1,0,-1
-159.00,12.26,-71.18,1773,-7714,2630,-1,0,-1
-158.99,12.26,-71.18,1774,-7709,2637,0,-1,-1
-158.99,12.27,-71.18,1786,-7704,2635,-1,0,-1
-158.98,12.27,-71.18,1777,-7705,2628,-1,0,-1
-158.98,12.27,-71.18,1779,-7702,2640,-1,0,-1
-158.98,12.27,-71.18,1775,-7715,2645,-1,0,-1
-158.98,12.28,-71.19,1772,-7722,2639,-1,0,-1
-158.98,12.28,-71.19,1780,-7720,2623,0,0,-1
-158.97,12.28,-71.18,1779,-7708,2625,0,0,-1
-158.96,12.28,-71.17,1777,-7701,2631,0,0,-1
-158.95,12.29,-71.17,1779,-7706,2643,-1,0,-1
-158.95,12.29,-71.18,1782,-7714,2643,-1,0,-1
-158.96,12.29,-71.18,1783,-7722,2626,-1,0,0
-158.96,12.28,-71.18,1775,-7725,2621,0,0,-1
-158.95,12.29,-71.18,1771,-7723,2623,0,0,-1
-158.95,12.29,-71.18,1771,-7710,2627,-1,0,-1
-158.93,12.30,-71.17,1780,-7695,2643,-1,0,-1
-158.93,12.30,-71.17,1783,-7708,2637,-1,0,-1
-158.93,12.31,-71.18,1793,-7714,2634,-1,0,-1
-158.93,12.30,-71.18,1789,-7707,2630,-1,0,0
-158.93,12.30,-71.18,1780,-7711,2624,-1,0,0
-158.93,12.30,-71.18,1781,-7711,2621,0,0,0
-158.93,12.30,-71.18,1780,-7716,2627,0,0,0
-158.93,12.30,-71.18,1777,-7710,2632,0,0,0
-158.93,12.30,-71.18,1776,-7708,2629,-1,-1,0
-158.93,12.30,-71.18,1774,-7709,2637,-1,-1,-1
-158.93,12.30,-71.18,1776,-7718,2623,-1,-1,0
-158.93,12.30,-71.18,1785,-7713,2621,0,0,0
-158.93,12.30,-71.18,1783,-7709,2613,0,0,0
-158.93,12.30,-71.18,1781,-7710,2618,-1,-1,0
-158.93,12.30,-71.18,1781,-7708,2623,-1,-1,-1
-158.93,12.31,-71.18,1788,-7707,2619,-1,-1,0
-158.94,12.30,-71.18,1789,-7711,2624,-1,-1,0
-158.94,12.30,-71.18,1788,-7702,2624,0,0,0
-158.94,12.30,-71.18,1778,-7706,2622,-1,-1,0
-158.94,12.30,-71.19,1779,-7709,2619,-1,0,0
-158.95,12.30,-71.20,1779,-7714,2622,0,-1,0
-158.95,12.30,-71.19,1784,-7712,2615,-1,-1,0
-158.95,12.30,-71.19,1777,-7708,2625,0,-1,0
-158.95,12.29,-71.19,1781,-7709,2627,0,-1,0
-158.95,12.29,-71.18,1784,-7708,2643,-1,-1,0
-158.96,12.29,-71.19,1783,-7703,2630,0,-1,0
-158.96,12.29,-71.19,1775,-7702,2628,-1,-1,0
-158.96,12.29,-71.19,1776,-7711,2627,-1,0,0
-158.96,12.29,-71.19,1770,-7709,2625,-1,-1,0
-158.97,12.28,-71.19,1774,-7706,2619,0,-1,0
-158.97,12.28,-71.19,1774,-7712,2622,0,-1,0
-158.98,12.28,-71.19,1775,-7714,2626,0,-1,0
-158.98,12.28,-71.19,1776,-7704,2631,-1,-1,0
-158.98,12.28,-71.20,1779,-7707,2618,-1,-1,0
-158.98,12.28,-71.20,1784,-7714,2611,-1,-1,0
-158.99,12.27,-71.20,1782,-7720,2612,0,-1,0
-158.99,12.27,-71.20,1782,-7712,2624,0,-1,0
-158.99,12.27,-71.19,1774,-7699,2624,0,-1,0
-159.00,12.27,-71.20,1779,-7702,2632,-1,-1,0
-159.00,12.26,-71.20,1775,-7708,2624,-1,-1,0
-159.01,12.26,-71.20,1772,-7721,2620,-1,-1,0
-159.01,12.25,-71.21,1766,-7728,2618,0,-1,0
-159.02,12.25,-71.21,1767,-7720,2616,0,-1,0
-159.02,12.25,-71.20,1770,-7718,2619,0,-1,0
-159.02,12.25,-71.20,1780,-7709,2630,-1,0,0
-159.02,12.25,-71.21,1778,-7716,2633,-1,-1,0
-159.03,12.25,-71.21,1778,-7714,2620,-1,-1,0
-159.04,12.24,-71.22,1769,-7712,2615,-1,-1,0
-159.04,12.24,-71.22,1777,-7709,2614,-1,-1,0
-159.04,12.24,-71.22,1779,-7708,2615,0,-1,0
-159.04,12.24,-71.21,1784,-7710,2618,0,0,0
-159.04,12.23,-71.22,1776,-7718,2622,0,-1,0
-159.05,12.23,-71.22,1777,-7709,2617,0,-1,0
-159.06,12.23,-71.22,1772,-7714,2610,-1,-1,0
-159.06,12.22,-71.23,1769,-7716,2609,-1,-1,0
-159.08,12.21,-71.23,1763,-7706,2595,-1,-1,0
-159.08,12.21,-71.23,1764,-7709,2602,0,-1,0
-159.08,12.21,-71.23,1767,-7715,2612,0,-1,0
-159.08,12.21,-71.23,1773,-7715,2621,0,-1,0
-159.08,12.21,-71.23,1775,-7709,2626,-1,-1,0
-159.08,12.21,-71.23,1777,-7706,2619,-1,-1,0
-159.09,12.21,-71.24,1776,-7707,2619,-1,-1,0
-159.10,12.20,-71.24,1770,-7705,2620,-1,-1,0
-159.10,12.20,-71.25,1770,-7713,2610,-1,-1,0
-159.11,12.19,-71.24,1764,-7718,2618,0,-1,0
-159.11,12.19,-71.24,1764,-7714,2623,0,-1,0
-159.12,12.19,-71.24,1765,-7715,2618,0,-1,0
-159.12,12.18,-71.23,1767,-7714,2625,0,-1,0
-159.12,12.18,-71.23,1765,-7717,2637,-1,0,0
-159.13,12.18,-71.23,1770,-7723,2624,0,-1,0
-159.13,12.17,-71.23,1759,-7721,2624,-1,-1,0
-159.14,12.17,-71.23,1758,-7726,2623,0,-1,0
-159.14,12.16,-71.23,1755,-7725,2622,0,-1,0
-159.15,12.16,-71.23,1764,-7724,2620,0,-1,0
-159.15,12.16,-71.23,1769,-7725,2626,0,-1,0
-159.16,12.15,-71.22,1758,-7725,2635,0,-1,0
-159.17,12.14,-71.22,1754,-7710,2631,-1,-1,0
-159.18,12.13,-71.23,1750,-7717,2626,-1,-1,0
-159.19,12.13,-71.23,1760,-7728,2618,-1,-1,0
-159.19,12.12,-71.24,1769,-7731,2601,0,-1,0
-159.20,12.12,-71.22,1760,-7723,2622,0,-1,0
-159.20,12.11,-71.21,1755,-7712,2624,0,-1,0
-159.21,12.10,-71.20,1756,-7697,2629,-1,-1,0
-159.22,12.10,-71.21,1768,-7712,2617,0,-1,0
-159.23,12.09,-71.21,1763,-7724,2608,0,-1,0
-159.25,12.07,-71.20,1763,-7733,2623,0,-1,0
-159.25,12.06,-71.19,1744,-7715,2615,0,-1,0
-159.26,12.06,-71.19,1737,-7720,2615,0,-1,0
-159.26,12.06,-71.18,1747,-7707,2618,0,-1,0
-159.26,12.05,-71.18,1760,-7705,2635,-1,-1,0
-159.27,12.05,-71.17,1752,-7705,2634,0,-1,0
-159.27,12.04,-71.16,1751,-7701,2660,-1,-1,0
-159.28,12.03,-71.17,1749,-7704,2655,-1,0,0
-159.30,12.02,-71.18,1728,-7704,2644,-1,-1,0
-159.31,12.01,-71.18,1747,-7713,2637,-1,-1,0
-159.32,12.01,-71.19,1735,-7722,2625,0,0,0
-159.32,12.00,-71.18,1731,-7715,2634,0,0,0
-159.33,12.00,-71.18,1732,-7721,2619,-1,-1,0
-159.33,12.00,-71.18,1739,-7714,2626,-1,-1,0
-159.34,11.99,-71.18,1731,-7718,2619,0,-1,0
-159.34,11.99,-71.18,1735,-7729,2625,0,-1,0
-159.35,11.98,-71.17,1731,-7718,2635,0,-1,0
-159.35,11.98,-71.18,1732,-7718,2627,0,-1,0
-159.35,11.98,-71.17,1748,-7714,2636,-1,-1,0
-159.35,11.98,-71.18,1739,-7727,2633,0,-1,0
-159.35,11.98,-71.18,1727,-7711,2635,-1,-1,-1
-159.36,11.98,-71.18,1743,-7708,2627,-1,-1,0
-159.36,11.98,-71.18,1744,-7722,2624,-1,0,0
-159.36,11.98,-71.18,1737,-7722,2632,-1,0,0
-159.35,11.99,-71.19,1727,-7717,2629,-1,-1,-1
-159.35,11.99,-71.19,1739,-7717,2630,-1,-1,-1
-159.34,11.99,-71.18,1738,-7713,2632,0,0,-1
-159.34,11.99,-71.18,1741,-7713,2633,-1,0,-1
-159.32,12.01,-71.17,1747,-7717,2640,-1,0,-1
-159.33,12.00,-71.18,1739,-7734,2625,-1,0,-1
-159.32,12.01,-71.19,1734,-7728,2623,-1,0,-1
-159.33,12.01,-71.20,1735,-7724,2614,-1,0,-1
-159.32,12.02,-71.20,1753,-7716,2615,-1,-1,-1
-159.31,12.03,-71.20,1753,-7711,2616,-1,0,-1
-159.30,12.04,-71.20,1757,-7717,2618,-1,-1,-1
-159.29,12.05,-71.20,1760,-7714,2625,-1,-1,-1
-159.29,12.05,-71.20,1746,-7705,2623,-1,-1,-1
-159.29,12.05,-71.21,1752,-7714,2622,-1,-1,-1
-159.28,12.06,-71.21,1754,-7725,2623,-1,0,-1
-159.28,12.07,-71.21,1751,-7721,2620,0,0,-1
-159.27,12.07,-71.20,1747,-7708,2628,0,0,-1
-159.26,12.07,-71.19,1748,-7700,2641,-1,-1,-1
-159.27,12.07,-71.20,1754,-7715,2634,-1,-1,-1
-159.27,12.07,-71.21,1756,-7724,2625,-1,-1,-1
-159.27,12.08,-71.21,1752,-7731,2613,0,0,-1
-159.26,12.09,-71.21,1753,-7727,2620,0,0,-1
-159.25,12.09,-71.20,1753,-7711,2626,0,0,-1
-159.24,12.10,-71.20,1755,-7697,2628,-1,-1,-1
-159.24,12.10,-71.20,1759,-7700,2631,-1,-1,-1
-159.23,12.11,-71.20,1762,-7709,2632,-1,-1,-1
-159.23,12.11,-71.20,1753,-7709,2626,-1,0,-1
-159.23,12.11,-71.20,1752,-7709,2629,-1,0,0
-159.23,12.11,-71.21,1757,-7716,2620,-1,-1,-1
-159.23,12.11,-71.21,1761,-7721,2610,0,-1,-1
-159.22,12.12,-71.21,1763,-7709,2615,0,-1,-1
-159.22,12.12,-71.21,1771,-7716,2619,-1,-1,0
-159.21,12.13,-71.21,1782,-7712,2629,-1,0,0
-159.22,12.13,-71.21,1763,-7726,2618,-1,0,-1
-159.22,12.12,-71.22,1760,-7725,2623,-1,0,-1
-159.22,12.13,-71.22,1743,-7720,2617,0,0,-1
-159.21,12.13,-71.21,1752,-7713,2624,0,-1,-1
-159.20,12.13,-71.21,1755,-7709,2632,0,0,-1
-159.20,12.13,-71.21,1758,-7704,2634,-1,-1,-1
-159.20,12.14,-71.21,1762,-7705,2632,-1,0,0
-159.20,12.13,-71.21,1762,-7704,2633,-1,-1,0
-159.20,12.14,-71.22,1760,-7706,2630,-1,-1,-1
-159.20,12.14,-71.23,1772,-7722,2617,-1,0,0
-159.20,12.14,-71.23,1768,-7717,2615,-1,-1,0
-159.20,12.14,-71.23,1764,-7718,2620,0,-1,-1
-159.20,12.15,-71.23,1763,-7714,2622,-1,0,-1
-159.20,12.15,-71.23,1758,-7716,2626,0,-1,-1
-159.19,12.15,-71.22,1762,-7716,2620,0,-1,-1
-159.19,12.15,-71.22,1765,-7714,2620,0,0,-1
-159.19,12.15,-71.22,1755,-7711,2624,0,0,-1
-159.19,12.15,-71.22,1750,-7715,2629,-1,-1,-1
-159.19,12.16,-71.22,1759,-7714,2633,-1,-1,-1
-159.19,12.16,-71.22,1761,-7715,2624,0,0,-1
-159.19,12.16,-71.22,1754,-7713,2620,-1,-1,0
-159.19,12.15,-71.23,1753,-7714,2623,-1,-1,-1
-159.19,12.16,-71.23,1755,-7717,2613,-1,-1,-1
-159.18,12.16,-71.23,1765,-7727,2611,0,-1,-1
-159.18,12.16,-71.23,1765,-7718,2617,0,0,-1
-159.17,12.16,-71.22,1760,-7698,2629,0,0,0
-159.17,12.16,-71.21,1758,-7696,2644,-1,-1,0
-159.17,12.16,-71.22,1762,-7711,2641,-1,-1,0
-159.18,12.16,-71.22,1760,-7723,2621,-1,0,0
-159.18,12.16,-71.22,1758,-7728,2610,0,0,-1
-159.17,12.16,-71.22,1760,-7727,2614,0,0,-1
-159.17,12.16,-71.22,1760,-7716,2627,-1,-1,-1
-159.16,12.17,-71.21,1762,-7722,2624,-1,-1,-1
-159.17,12.18,-71.22,1765,-7713,2626,-1,0,-1
-159.17,12.18,-71.22,1771,-7713,2627,-1,0,0
-159.16,12.18,-71.21,1772,-7711,2649,-1,0,0
-159.16,12.18,-71.21,1767,-7720,2641,-1,0,-1
-159.16,12.18,-71.21,1764,-7720,2626,-1,-1,-1
-159.15,12.18,-71.21,1768,-7716,2623,0,0,-1
-159.15,12.18,-71.21,1762,-7717,2617,0,0,-1
-159.15,12.19,-71.21,1770,-7711,2625,-1,0,-1
-159.14,12.19,-71.21,1769,-7709,2634,-1,0,-1
-159.15,12.19,-71.21,1768,-7714,2626,0,0,-1
-159.14,12.19,-71.20,1765,-7712,2632,0,0,-1
-159.13,12.20,-71.20,1761,-7715,2630,0,0,-1
-159.13,12.20,-71.20,1766,-7711,2629,0,0,-1
-159.12,12.20,-71.19,1764,-7715,2635,-1,0,-1
-159.12,12.20,-71.20,1764,-7710,2628,-1,0,-1
-159.12,12.21,-71.20,1771,-7715,2635,-1,0,-1
-159.11,12.21,-71.20,1769,-7718,2634,-1,-1,-1
-159.11,12.22,-71.21,1774,-7716,2613,-1,0,-1
-159.11,12.22,-71.21,1764,-7715,2610,0,0,-1
-159.11,12.22,-71.20,1764,-7723,2619,0,0,-1
-159.10,12.22,-71.19,1768,-7713,2635,0,0,-1
-159.10,12.22,-71.19,1764,-7705,2633,-1,0,-1
-159.09,12.22,-71.19,1764,-7707,2629,-1,0,-1
-159.09,12.23,-71.20,1774,-7709,2626,-1,0,-1
-159.08,12.24,-71.20,1772,-7708,2629,-1,0,-1
-159.08,12.23,-71.19,1764,-7710,2627,-1,0,-1
-159.08,12.23,-71.20,1762,-7713,2623,-1,0,-1
-159.07,12.24,-71.20,1769,-7714,2631,-1,0,-1
-159.06,12.25,-71.20,1770,-7712,2624,0,0,-1
-159.06,12.25,-71.20,1768,-7713,2623,-1,0,-1
-159.06,12.25,-71.20,1768,-7712,2628,-1,0,-1
-159.06,12.25,-71.20,1767,-7719,2624,-1,0,-1
-159.05,12.25,-71.21,1773,-7724,2617,-1,0,-1
-159.05,12.26,-71.21,1770,-7718,2621,0,0,-1
-159.04,12.26,-71.20,1772,-7712,2627,0,0,-1
-159.03,12.27,-71.20,1777,-7699,2630,-1,0,-1
-159.02,12.28,-71.20,1785,-7704,2631,-1,0,-1
-159.02,12.28,-71.20,1778,-7711,2627,-1,0,-1
-159.02,12.28,-71.20,1769,-7717,2628,-1,0,-1
-159.01,12.28,-71.19,1764,-7714,2631,0,0,-1
-159.00,12.28,-71.19,1762,-7713,2623,-1,0,-1
-158.98,12.30,-71.19,1775,-7706,2627,-1,0,-1
-158.98,12.30,-71.18,1786,-7708,2628,-1,0,-1
-158.96,12.31,-71.18,1795,-7708,2634,-1,0,-1
-158.97,12.31,-71.18,1788,-7711,2632,0,0,-1
-158.96,12.31,-71.18,1784,-7705,2627,-1,0,-1
-158.96,12.31,-71.18,1778,-7709,2632,-1,0,-1
-158.96,12.31,-71.18,1777,-7715,2621,-1,0,-1
-158.96,12.31,-71.19,1776,-7721,2623,0,0,-1
-158.96,12.31,-71.19,1776,-7719,2628,0,0,-1
-158.95,12.31,-71.18,1778,-7716,2633,0,0,-1
-158.95,12.31,-71.18,1778,-7715,2633,-1,0,-1
-158.95,12.32,-71.18,1781,-7716,2623,0,0,-1
-158.95,12.31,-71.18,1780,-7712,2627,-1,0,-1
-158.94,12.31,-71.17,1774,-7709,2628,0,0,-1
-158.94,12.32,-71.17,1781,-7702,2623,0,0,-1
-158.93,12.32,-71.17,1782,-7711,2616,-1,-1,-1
-158.93,12.32,-71.17,1789,-7710,2620,-1,0,-1
-158.93,12.33,-71.17,1790,-7715,2630,-1,0,0
-158.93,12.32,-71.18,1791,-7709,2629,-1,0,0
-158.94,12.32,-71.18,1791,-7709,2623,-1,-1,0
-158.94,12.32,-71.18,1786,-7713,2619,0,0,0
-158.95,12.31,-71.18,1780,-7714,2618,0,0,0
-158.94,12.31,-71.17,1780,-7717,2634,0,-1,0
-158.94,12.32,-71.17,1786,-7713,2633,-1,-1,-1
-158.95,12.31,-71.17,1784,-7705,2635,-1,-1,0
-158.95,12.31,-71.17,1784,-7708,2622,-1,-1,0
-158.95,12.31,-71.18,1784,-7713,2629,-1,-1,0
-158.96,12.30,-71.18,1771,-7707,2625,-1,-1,0
-158.96,12.30,-71.18,1777,-7706,2633,-1,-1,0
-158.96,12.31,-71.18,1779,-7708,2636,0,-1,-1
-158.96,12.30,-71.17,1786,-7715,2640,0,-1,-1
-158.96,12.30,-71.17,1788,-7711,2645,0,-1,0
-158.96,12.30,-71.17,1783,-7702,2642,-1,-1,0
-158.97,12.30,-71.17,1781,-7707,2626,-1,-1,0
-158.97,12.30,-71.18,1784,-7714,2624,-1,-1,0
-158.97,12.30,-71.18,1784,-7719,2610,0,-1,-1
-158.97,12.30,-71.18,1785,-7707,2615,0,0,0
-158.97,12.30,-71.17,1777,-7695,2624,0,-1,0
-158.97,12.30,-71.17,1790,-7695,2629,-1,-1,0
-158.98,12.29,-71.17,1791,-7705,2630,-1,-1,0
-158.99,12.28,-71.18,1785,-7716,2618,-1,0,0
-159.00,12.28,-71.18,1767,-7734,2611,0,-1,0
-159.01,12.27,-71.17,1770,-7723,2621,0,-1,0
-159.00,12.27,-71.16,1773,-7706,2624,0,-1,0
-159.01,12.27,-71.16,1772,-7704,2624,0,-1,0
-159.01,12.27,-71.16,1798,-7711,2643,0,-1,0
-159.01,12.27,-71.15,1801,-7713,2638,-1,-1,0
-159.02,12.26,-71.15,1784,-7713,2633,0,-1,0
-159.02,12.25,-71.13,1771,-7694,2648,-1,-1,0
-159.04,12.24,-71.14,1756,-7708,2649,0,-1,0
-159.05,12.23,-71.13,1757,-7699,2648,0,0,0
-159.05,12.23,-71.14,1774,-7715,2638,0,0,0
-159.06,12.22,-71.13,1756,-7703,2648,0,-1,0
-159.06,12.22,-71.12,1776,-7709,2640,0,0,0
-159.06,12.21,-71.12,1772,-7712,2640,-1,-1,0
-159.07,12.21,-71.12,1773,-7704,2638,-1,-1,0
-159.07,12.21,-71.12,1776,-7713,2628,-1,0,0
-159.08,12.20,-71.13,1760,-7709,2635,0,0,0
-159.08,12.20,-71.13,1762,-7706,2627,0,-1,-1
-159.08,12.20,-71.13,1766,-7707,2625,-1,-1,0
-159.08,12.20,-71.12,1772,-7706,2636,0,0,0
-159.08,12.20,-71.12,1763,-7693,2658,-1,-1,0
-159.09,12.19,-71.13,1758,-7695,2662,-1,0,0
-159.10,12.19,-71.15,1764,-7714,2639,-1,0,0
-159.10,12.19,-71.15,1758,-7713,2627,-1,-1,0
-159.10,12.19,-71.15,1763,-7716,2637,0,0,-1
-159.10,12.19,-71.15,1763,-7711,2634,-1,-1,0
-159.11,12.18,-71.15,1763,-7713,2639,-1,-1,0
-159.11,12.18,-71.15,1767,-7712,2629,-1,-1,0
-159.11,12.19,-71.16,1766,-7717,2622,-1,-1,0
-159.12,12.18,-71.16,1769,-7716,2623,-1,0,0
-159.12,12.18,-71.16,1772,-7717,2627,0,-1,0
-159.12,12.18,-71.16,1772,-7718,2629,0,0,0
-159.12,12.18,-71.16,1767,-7712,2628,0,-1,0
-159.12,12.18,-71.16,1762,-7714,2632,-1,-1,0
-159.12,12.18,-71.16,1767,-7711,2635,-1,-1,0
-159.13,12.17,-71.17,1770,-7709,2622,-1,-1,0
-159.13,12.18,-71.18,1764,-7709,2619,-1,-1,0
-159.14,12.17,-71.18,1763,-7721,2618,-1,0,0
-159.14,12.17,-71.18,1767,-7722,2621,0,0,0
-159.14,12.17,-71.18,1755,-7711,2628,0,0,0
-159.14,12.17,-71.17,1761,-7705,2636,-1,-1,0
-159.14,12.17,-71.18,1764,-7710,2638,-1,-1,0
-159.15,12.16,-71.19,1770,-7714,2622,-1,-1,0
-159.16,12.16,-71.19,1757,-7727,2621,-1,0,0
-159.16,12.16,-71.19,1751,-7728,2625,0,0,-1
-159.16,12.15,-71.19,1750,-7717,2626,-1,-1,-1
-159.16,12.15,-71.19,1764,-7706,2629,-1,-1,0
-159.16,12.16,-71.19,1769,-7711,2620,0,0,0
-159.16,12.16,-71.19,1778,-7720,2615,0,0,0
-159.17,12.15,-71.18,1774,-7723,2624,0,-1,0
-159.18,12.14,-71.19,1769,-7721,2615,0,-1,0
-159.19,12.13,-71.18,1757,-7699,2627,0,-1,0
-159.19,12.13,-71.18,1760,-7718,2624,-1,-1,0
-159.20,12.13,-71.18,1762,-7710,2636,0,0,0
-159.20,12.12,-71.18,1750,-7717,2620,0,-1,0
-159.21,12.12,-71.17,1761,-7714,2641,0,-1,0
-159.21,12.12,-71.17,1760,-7711,2628,0,0,0
-159.22,12.10,-71.17,1756,-7699,2631,-1,0,0
-159.22,12.11,-71.18,1757,-7710,2641,-1,-1,0
-159.23,12.10,-71.19,1755,-7720,2629,-1,-1,0
-159.23,12.10,-71.19,1758,-7722,2632,0,-1,-1
-159.22,12.11,-71.19,1757,-7721,2637,-1,0,-1
-159.23,12.10,-71.19,1753,-7719,2632,-1,0,0
-159.23,12.10,-71.19,1753,-7710,2634,-1,-1,0
-159.24,12.10,-71.20,1756,-7705,2629,-1,-1,0
-159.24,12.10,-71.20,1755,-7711,2626,-1,-1,0
-159.24,12.10,-71.21,1766,-7713,2622,0,0,0
-159.25,12.09,-71.21,1757,-7723,2620,0,0,0
-159.25,12.09,-71.21,1755,-7725,2633,0,0,0
-159.25,12.09,-71.21,1753,-7718,2634,-1,-1,0
-159.25,12.09,-71.21,1747,-7722,2630,-1,-1,0
-159.26,12.09,-71.21,1747,-7719,2620,0,0,0
-159.26,12.08,-71.21,1751,-7720,2622,0,0,0
-159.26,12.08,-71.21,1754,-7711,2626,-1,0,0
-159.27,12.07,-71.20,1744,-7718,2627,-1,-1,0
-159.27,12.07,-71.20,1745,-7710,2628,-1,-1,0
-159.28,12.07,-71.21,1744,-7712,2627,0,-1,0
-159.28,12.07,-71.21,1748,-7709,2620,-1,-1,0
-159.29,12.06,-71.22,1748,-7711,2624,-1,-1,0
-159.29,12.06,-71.23,1754,-7724,2619,-1,-1,0
-159.29,12.07,-71.23,1754,-7726,2615,0,-1,-1
-159.29,12.07,-71.22,1754,-7716,2618,0,-1,0
-159.28,12.07,-71.21,1753,-7708,2629,0,-1,0
-159.28,12.07,-71.21,1753,-7709,2633,-1,-1,0
-159.29,12.07,-71.21,1752,-7714,2628,-1,-1,0
-159.29,12.07,-71.22,1748,-7726,2625,-1,0,0
-159.30,12.06,-71.21,1748,-7726,2617,0,0,-1
-159.29,12.07,-71.21,1744,-7728,2619,0,0,-1
-159.29,12.06,-71.21,1740,-7715,2622,0,0,-1
-159.29,12.07,-71.21,1748,-7718,2628,-1,-1,-1
-159.28,12.07,-71.20,1753,-7703,2633,-1,-1,-1
-159.28,12.07,-71.21,1753,-7714,2623,-1,0,0
-159.28,12.07,-71.20,1753,-7711,2635,-1,0,0
-159.29,12.07,-71.21,1751,-7722,2619,-1,0,0
-159.29,12.07,-71.21,1742,-7724,2611,0,0,-1
-159.29,12.07,-71.21,1743,-7724,2618,0,-1,-1
-159.28,12.07,-71.21,1744,-7716,2625,0,0,-1
-159.28,12.08,-71.21,1745,-7723,2618,0,0,-1
-159.27,12.08,-71.20,1749,-7721,2625,0,0,-1
-159.27,12.08,-71.20,1743,-7723,2624,-1,0,0
-159.27,12.08,-71.20,1736,-7726,2622,-1,0,-1
-159.27,12.08,-71.20,1745,-7715,2631,0,0,-1
-159.26,12.09,-71.20,1748,-7713,2630,0,-1,-1
-159.26,12.09,-71.20,1757,-7719,2624,-1,-1,-1
-159.25,12.10,-71.19,1763,-7712,2627,-1,-1,-1
-159.25,12.10,-71.19,1765,-7714,2637,-1,-1,0
-159.25,12.10,-71.19,1765,-7715,2639,-1,-1,-1
-159.25,12.10,-71.19,1760,-7722,2635,-1,0,-1
-159.25,12.11,-71.20,1761,-7730,2623,0,-1,-1
-159.24,12.11,-71.20,1759,-7721,2618,0,0,-1
-159.24,12.11,-71.20,1768,-7722,2624,0,0,-1
-159.23,12.12,-71.19,1764,-7713,2633,-1,0,-1
-159.23,12.12,-71.19,1758,-7716,2636,-1,0,-1
-159.22,12.13,-71.19,1760,-7724,2629,-1,0,-1
-159.22,12.13,-71.19,1761,-7721,2629,0,0,-1
-159.22,12.12,-71.19,1761,-7721,2629,0,0,-1
-159.21,12.13,-71.18,1754,-7711,2632,-1,0,-1
-159.22,12.13,-71.19,1752,-7709,2623,-1,-1,-1
-159.22,12.13,-71.19,1759,-7708,2623,-1,-1,-1
-159.22,12.13,-71.21,1766,-7726,2609,-1,0,-1
-159.21,12.14,-71.20,1769,-7729,2607,0,0,-1
-159.20,12.14,-71.20,1757,-7721,2621,0,0,-1
-159.20,12.14,-71.19,1753,-7698,2637,-1,0,-1
-159.20,12.14,-71.19,1755,-7701,2625,-1,-1,-1
-159.21,12.14,-71.20,1757,-7713,2609,-1,0,-1
-159.21,12.14,-71.21,1766,-7729,2594,0,0,-1
-159.20,12.15,-71.21,1760,-7726,2607,0,0,-1
-159.19,12.15,-71.20,1766,-7716,2619,0,0,-1
-159.19,12.15,-71.20,1764,-7712,2627,-1,-1,-1
-159.18,12.16,-71.20,1771,-7710,2639,-1,0,-1
-159.18,12.16,-71.20,1772,-7724,2638,-1,0,-1
-159.18,12.17,-71.20,1767,-7708,2653,-1,-1,-1
-159.18,12.17,-71.21,1765,-7723,2631,-1,-1,-1
-159.18,12.17,-71.22,1773,-7733,2614,-1,-1,-1
-159.18,12.17,-71.21,1789,-7730,2603,0,0,0
-159.18,12.16,-71.20,1776,-7716,2620,0,0,0
-159.18,12.16,-71.19,1757,-7683,2631,0,0,0
-159.19,12.15,-71.20,1738,-7700,2630,-1,-1,-1
-159.19,12.15,-71.21,1756,-7725,2607,-1,-1,-1
-159.19,12.15,-71.21,1750,-7731,2608,0,0,-1
-159.19,12.15,-71.20,1748,-7723,2616,0,0,-1
-159.18,12.16,-71.19,1750,-7711,2624,0,0,-1
-159.18,12.16,-71.19,1759,-7702,2638,-1,0,-1
-159.17,12.17,-71.19,1764,-7707,2637,-1,-1,-1
-159.17,12.17,-71.20,1777,-7714,2632,-1,0,0
-159.18,12.17,-71.20,1771,-7720,2627,-1,-1,0
-159.18,12.17,-71.20,1767,-7728,2620,-1,-1,-1
-159.18,12.17,-71.21,1764,-7721,2619,-1,-1,-1
-159.18,12.17,-71.21,1766,-7707,2606,0,-1,-1
-159.18,12.17,-71.21,1756,-7711,2607,0,-1,-1
-159.17,12.18,-71.20,1765,-7711,2622,0,0,-1
-159.17,12.17,-71.20,1751,-7721,2626,-1,0,-1
-159.17,12.17,-71.20,1752,-7723,2633,-1,0,-1
-159.17,12.17,-71.19,1761,-7726,2632,0,0,-1
-159.16,12.18,-71.19,1763,-7719,2630,0,0,-1
-159.16,12.18,-71.19,1765,-7717,2630,0,0,-1
-159.15,12.19,-71.19,1773,-7711,2639,0,-1,-1
-159.15,12.19,-71.19,1768,-7709,2643,-1,0,0
-159.15,12.19,-71.19,1770,-7712,2638,-1,-1,0
-159.15,12.19,-71.19,1764,-7719,2625,-1,-1,-1
-159.15,12.19,-71.19,1773,-7730,2614,0,0,-1
-159.14,12.20,-71.18,1772,-7715,2617,0,0,-1
-159.13,12.20,-71.18,1779,-7702,2628,0,0,-1
-159.13,12.20,-71.17,1771,-7696,2635,-1,0,-1
-159.13,12.20,-71.18,1774,-7710,2623,-1,0,-1
-159.13,12.20,-71.18,1768,-7718,2619,-1,0,-1
-159.13,12.20,-71.17,1759,-7719,2622,0,0,-1
-159.12,12.21,-71.17,1755,-7707,2626,0,0,-1
-159.11,12.21,-71.16,1754,-7698,2640,0,0,-1
-159.11,12.22,-71.16,1765,-7703,2642,-1,0,-1
-159.10,12.22,-71.16,1779,-7713,2639,-1,0,-1
-159.10,12.23,-71.17,1774,-7713,2631,-1,0,-1
-159.09,12.23,-71.17,1763,-7711,2631,-1,0,-1
-159.09,12.23,-71.17,1763,-7704,2635,-1,-1,-1
-159.09,12.23,-71.17,1755,-7707,2632,-1,-1,-1
-159.09,12.24,-71.17,1772,-7705,2625,0,0,-1
-159.08,12.24,-71.17,1772,-7714,2623,-1,0,-1
-159.07,12.24,-71.17,1773,-7710,2625,0,0,-1
-159.07,12.25,-71.17,1768,-7718,2635,-1,0,-1
-159.06,12.26,-71.16,1778,-7719,2638,0,0,-1
-159.05,12.26,-71.16,1774,-7719,2630,-1,0,-1
-159.05,12.26,-71.16,1777,-7716,2629,0,0,-1
-159.04,12.26,-71.16,1771,-7713,2634,-1,0,-1
-159.04,12.27,-71.16,1767,-7707,2640,-1,0,-1
-159.03,12.27,-71.16,1773,-7707,2634,-1,0,-1
-159.03,12.27,-71.16,1776,-7705,2631,-1,0,-1
-159.04,12.27,-71.17,1768,-7705,2630,-1,0,-1
-159.03,12.27,-71.17,1772,-7713,2627,-1,0,-1
-159.03,12.28,-71.17,1776,-7707,2626,-1,0,-1
-159.02,12.28,-71.17,1779,-7710,2616,-1,0,-1
-159.02,12.28,-71.17,1772,-7716,2618,0,0,-1
-159.01,12.29,-71.17,1774,-7714,2627,0,0,-1
-159.01,12.29,-71.17,1775,-7712,2629,-1,0,-1
-159.00,12.30,-71.17,1774,-7708,2623,-1,0,-1
-159.00,12.30,-71.17,1776,-7704,2630,-1,0,-1
-159.00,12.29,-71.17,1772,-7696,2626,-1,0,-1
-159.00,12.30,-71.17,1769,-7696,2631,-1,0,-1
-159.00,12.30,-71.17,1771,-7707,2625,-1,0,-1
-159.00,12.30,-71.17,1788,-7709,2620,0,0,-1
-158.99,12.30,-71.16,1787,-7702,2631,0,0,0
-158.99,12.29,-71.16,1780,-7704,2628,-1,0,0
-159.00,12.28,-71.17,1775,-7710,2631,-1,0,0
-159.00,12.28,-71.16,1775,-7708,2627,-1,0,-1
-158.99,12.29,-71.16,1795,-7713,2628,0,0,-1
-159.00,12.29,-71.16,1779,-7711,2619,0,0,0
-158.99,12.29,-71.15,1781,-7704,2625,0,0,-1
-158.99,12.28,-71.15,1779,-7709,2632,0,0,-1
-158.99,12.28,-71.15,1781,-7721,2622,-1,0,0
-158.99,12.28,-71.14,1765,-7719,2626,0,-1,0
-158.99,12.28,-71.14,1789,-7738,2629,-1,-1,0
-158.99,12.28,-71.13,1782,-7710,2628,0,0,0
-158.99,12.27,-71.13,1775,-7690,2647,-1,0,0
-158.99,12.27,-71.13,1768,-7694,2650,-1,-1,-1
-158.99,12.27,-71.14,1778,-7701,2632,-1,0,-1
-158.99,12.28,-71.14,1776,-7724,2629,0,0,-1
-158.98,12.28,-71.14,1786,-7723,2631,0,0,-1
-158.98,12.28,-71.14,1784,-7701,2639,-1,-1,-1
-158.98,12.29,-71.13,1784,-7690,2643,-1,-1,-1
-158.98,12.29,-71.15,1779,-7703,2621,-1,-1,-1
-158.99,12.29,-71.15,1776,-7707,2609,0,-1,-1
-158.98,12.30,-71.15,1792,-7713,2621,0,0,-1
-158.98,12.30,-71.15,1780,-7710,2620,0,0,-1
-158.98,12.30,-71.15,1786,-7713,2633,0,0,0
-158.98,12.30,-71.15,1783,-7711,2631,-1,0,0
-158.98,12.29,-71.15,1784,-7716,2639,0,-1,0
-158.98,12.29,-71.15,1777,-7706,2632,0,-1,0
-158.98,12.29,-71.14,1780,-7706,2636,0,-1,-1
-158.99,12.29,-71.15,1776,-7707,2631,-1,-1,0
-158.99,12.29,-71.15,1782,-7711,2636,-1,-1,0
-158.99,12.29,-71.15,1781,-7716,2640,-1,0,0
-159.00,12.28,-71.15,1782,-7714,2638,-1,0,0
-159.01,12.27,-71.15,1770,-7704,2628,-1,-1,0
-159.00,12.28,-71.15,1779,-7701,2636,0,-1,0
-159.00,12.28,-71.15,1784,-7706,2629,0,-1,0
-159.01,12.28,-71.15,1782,-7712,2625,0,-1,0
-159.01,12.28,-71.15,1786,-7716,2636,-1,-1,0
-159.02,12.27,-71.15,1778,-7715,2640,0,-1,0
-159.01,12.27,-71.15,1775,-7707,2632,-1,-1,0
-159.02,12.27,-71.15,1774,-7708,2634,-1,-1,0
-159.02,12.27,-71.15,1775,-7706,2640,-1,-1,0
-159.03,12.26,-71.15,1780,-7703,2645,-1,-1,0
-159.03,12.26,-71.15,1778,-7714,2637,-1,-1,0
-159.03,12.26,-71.15,1780,-7702,2632,-1,-1,0
-159.03,12.26,-71.15,1776,-7705,2636,-1,-1,0
-159.04,12.26,-71.16,1774,-7710,2621,-1,-1,0
-159.05,12.25,-71.16,1774,-7712,2619,0,-1,0
-159.05,12.25,-71.16,1777,-7710,2629,0,0,0
-159.05,12.25,-71.15,1772,-7699,2642,0,-1,0
-159.05,12.25,-71.14,1780,-7693,2645,-1,-1,0
-159.06,12.25,-71.15,1777,-7702,2630,-1,-1,0
-159.06,12.24,-71.16,1793,-7718,2630,0,0,0
-159.07,12.23,-71.16,1773,-7731,2626,-1,-1,0
-159.07,12.23,-71.16,1763,-7718,2629,0,0,0
-159.07,12.23,-71.16,1764,-7714,2629,0,-1,-1
-159.07,12.24,-71.15,1779,-7705,2627,-1,-1,0
-159.07,12.24,-71.16,1781,-7705,2635,0,-1,0
-159.07,12.24,-71.16,1786,-7712,2645,-1,-1,0
-159.07,12.23,-71.16,1781,-7710,2642,-1,-1,0
-159.08,12.23,-71.16,1765,-7708,2629,-1,-1,0
-159.09,12.23,-71.17,1769,-7710,2615,-1,-1,0
-159.09,12.23,-71.17,1777,-7723,2616,-1,0,0
-159.09,12.23,-71.17,1774,-7715,2622,0,0,0
-159.09,12.22,-71.17,1769,-7709,2629,-1,-1,0
-159.09,12.22,-71.17,1773,-7718,2636,0,-1,0
-159.09,12.22,-71.17,1770,-7714,2624,-1,-1,0
-159.10,12.22,-71.17,1761,-7716,2624,0,-1,0
-159.11,12.22,-71.17,1758,-7709,2624,0,0,0
-159.11,12.21,-71.16,1766,-7705,2637,0,-1,0
-159.11,12.21,-71.16,1769,-7704,2637,-1,-1,0
-159.11,12.21,-71.16,1770,-7713,2638,-1,-1,0
-159.12,12.21,-71.17,1767,-7713,2631,-1,-1,0
-159.12,12.21,-71.17,1763,-7707,2633,-1,-1,0
-159.13,12.20,-71.17,1761,-7708,2629,-1,-1,0
-159.14,12.19,-71.18,1757,-7718,2626,0,-1,0
-159.14,12.19,-71.18,1767,-7718,2625,-1,0,0
-159.14,12.19,-71.18,1769,-7724,2621,0,0,0
-159.14,12.19,-71.18,1757,-7718,2620,-1,0,0
-159.15,12.18,-71.18,1759,-7715,2621,0,0,0
-159.15,12.18,-71.18,1762,-7717,2621,-1,-1,0
-159.15,12.18,-71.18,1772,-7716,2623,-1,0,0
-159.15,12.18,-71.18,1768,-7709,2624,-1,-1,0
-159.15,12.18,-71.18,1763,-7713,2631,-1,-1,0
-159.16,12.17,-71.18,1761,-7706,2630,-1,-1,0
-159.16,12.17,-71.18,1764,-7711,2633,-1,-1,0
-159.16,12.17,-71.18,1766,-7713,2626,-1,0,0
-159.17,12.17,-71.19,1763,-7709,2620,-1,-1,0
-159.17,12.17,-71.20,1756,-7711,2628,-1,-1,0
-159.18,12.17,-71.20,1760,-7728,2622,-1,-1,0
-159.19,12.16,-71.20,1759,-7723,2619,0,-1,0
-159.18,12.16,-71.20,1759,-7720,2625,0,0,0
-159.18,12.16,-71.19,1764,-7703,2622,0,-1,0
-159.19,12.15,-71.19,1766,-7706,2618,-1,-1,0
-159.20,12.15,-71.20,1767,-7706,2618,-1,-1,0
-159.20,12.15,-71.20,1773,-7719,2616,-1,0,0
-159.20,12.15,-71.20,1756,-7724,2615,0,0,0
-159.21,12.14,-71.20,1750,-7713,2625,0,-1,-1
-159.20,12.15,-71.19,1754,-7710,2626,0,-1,-1
-159.20,12.15,-71.19,1763,-7704,2629,-1,-1,0
-159.20,12.15,-71.20,1767,-7704,2618,-1,-1,0
-159.21,12.14,-71.20,1768,-7712,2625,0,0,0
-159.21,12.14,-71.20,1767,-7718,2633,-1,0,0
-159.21,12.14,-71.20,1764,-7724,2629,-1,0,0
-159.22,12.14,-71.21,1759,-7715,2617,-1,-1,0
-159.22,12.14,-71.21,1757,-7717,2609,0,-1,0
-159.23,12.13,-71.21,1760,-7720,2604,0,0,0
-159.23,12.13,-71.21,1757,-7706,2616,0,0,0
-159.23,12.13,-71.21,1760,-7714,2621,-1,-1,0
-159.24,12.12,-71.21,1756,-7722,2618,-1,0,0
-159.24,12.12,-71.21,1752,-7721,2619,0,-1,0
-159.24,12.12,-71.21,1751,-7727,2625,0,-1,-1
-159.23,12.12,-71.20,1758,-7718,2631,0,-1,-1
-159.23,12.12,-71.20,1759,-7713,2628,0,-1,0
-159.24,12.12,-71.20,1755,-7715,2637,0,-1,0
-159.24,12.12,-71.20,1757,-7715,2638,-1,-1,0
-159.24,12.12,-71.20,1766,-7707,2632,0,-1,0
-159.24,12.13,-71.20,1764,-7711,2630,0,-1,0
-159.24,12.13,-71.19,1761,-7712,2631,0,0,-1
-159.23,12.12,-71.19,1760,-7712,2635,0,-1,-1
-159.22,12.13,-71.19,1750,-7714,2629,0,-1,-1
-159.22,12.13,-71.19,1751,-7718,2620,0,0,-1
-159.22,12.13,-71.18,1753,-7729,2633,0,0,-1
-159.21,12.14,-71.18,1757,-7726,2638,0,0,-1
-159.21,12.14,-71.18,1757,-7720,2627,-1,-1,-1
-159.21,12.15,-71.18,1757,-7720,2620,0,-1,-1
-159.20,12.15,-71.17,1761,-7712,2626,0,0,-1
-159.19,12.16,-71.18,1768,-7717,2625,-1,-1,-1
-159.19,12.16,-71.17,1767,-7712,2631,0,0,-1
-159.18,12.16,-71.16,1758,-7716,2635,-1,0,-1
-159.19,12.17,-71.17,1755,-7718,2637,-1,0,-1
-159.19,12.16,-71.18,1754,-7723,2618,-1,-1,-1
-159.18,12.17,-71.18,1762,-7728,2618,0,-1,-1
-159.17,12.18,-71.16,1767,-7722,2625,0,0,-1
-159.16,12.18,-71.15,1770,-7702,2622,0,0,-1
-159.16,12.18,-71.15,1765,-7698,2631,-1,-1,0
-159.16,12.18,-71.15,1752,-7703,2631,-1,-1,0
-159.16,12.18,-71.15,1756,-7712,2625,-1,0,-1
-159.17,12.18,-71.16,1762,-7720,2627,0,0,-1
-159.15,12.18,-71.15,1753,-7706,2641,0,0,-1
-159.15,12.18,-71.15,1755,-7704,2644,0,0,-1
-159.15,12.19,-71.14,1758,-7702,2646,-1,0,-1
-159.14,12.20,-71.15,1770,-7712,2642,-1,0,-1
-159.14,12.20,-71.15,1765,-7726,2644,-1,0,-1
-159.13,12.20,-71.14,1758,-7720,2649,-1,0,-1
-159.13,12.20,-71.14,1759,-7713,2640,-1,0,-1
-159.13,12.21,-71.15,1752,-7711,2636,-1,0,-1
-159.13,12.21,-71.15,1759,-7714,2635,-1,0,-1
-159.13,12.21,-71.15,1767,-7720,2632,-1,0,-1
-159.12,12.21,-71.15,1766,-7720,2642,0,0,-1
-159.11,12.21,-71.15,1760,-7719,2642,0,0,-1
-159.11,12.22,-71.15,1756,-7712,2637,-1,0,-1
-159.11,12.22,-71.15,1762,-7715,2626,0,0,-1
-159.11,12.22,-71.15,1760,-7718,2622,0,0,-1
-159.10,12.23,-71.15,1767,-7718,2631,0,0,-1
-159.09,12.23,-71.15,1769,-7716,2629,0,-1,-1
-159.08,12.24,-71.15,1770,-7706,2640,-1,0,-1
-159.08,12.24,-71.15,1768,-7707,2640,-1,0,-1
-159.08,12.25,-71.16,1778,-7706,2633,-1,0,-1
-159.07,12.25,-71.15,1781,-7719,2630,-1,0,-1
-159.07,12.25,-71.16,1775,-7720,2621,-1,0,-1
-159.07,12.25,-71.16,1769,-7713,2616,0,0,-1
-159.07,12.25,-71.16,1772,-7712,2627,-1,0,-1
-159.06,12.26,-71.15,1777,-7713,2627,0,0,-1
-159.05,12.27,-71.15,1778,-7710,2630,0,0,-1
-159.04,12.27,-71.16,1783,-7710,2638,-1,0,-1
-159.04,12.28,-71.15,1775,-7709,2631,-1,0,-1
-159.03,12.29,-71.15,1778,-7709,2640,-1,0,-1
-159.02,12.29,-71.15,1782,-7709,2644,0,0,-1
-159.02,12.29,-71.15,1780,-7700,2636,-1,0,-1
-159.02,12.30,-71.16,1780,-7698,2639,-1,0,-1
-159.02,12.30,-71.17,1777,-7711,2631,-1,-1,-1
-159.01,12.31,-71.17,1780,-7730,2625,0,0,-1
-159.00,12.31,-71.16,1782,-7712,2635,0,0,-1
-158.99,12.31,-71.15,1776,-7695,2642,0,0,-1
-158.99,12.32,-71.15,1779,-7691,2640,-1,0,-1
-158.99,12.32,-71.15,1779,-7703,2624,-1,0,-1
-158.99,12.32,-71.16,1777,-7720,2619,-1,0,-1
-158.99,12.32,-71.16,1768,-7724,2615,0,0,-1
-158.98,12.32,-71.16,1768,-7719,2624,0,0,-1
-158.98,12.33,-71.16,1775,-7709,2623,0,0,-1
-158.97,12.34,-71.16,1780,-7697,2632,-1,0,-1
-158.97,12.34,-71.16,1783,-7705,2623,-1,0,-1
-158.96,12.34,-71.16,1789,-7713,2631,-1,0,-1
-158.97,12.34,-71.16,1774,-7712,2625,-1,0,-1
-158.96,12.34,-71.16,1773,-7712,2621,-1,0,-1
-158.96,12.35,-71.17,1774,-7706,2624,-1,0,-1
-158.95,12.35,-71.17,1780,-7712,2634,0,0,-1
-158.95,12.35,-71.16,1779,-7708,2634,-1,0,-1
-158.94,12.36,-71.16,1776,-7709,2633,-1,0,-1
-158.94,12.36,-71.17,1770,-7713,2621,-1,0,-1
-158.94,12.36,-71.17,1772,-7712,2620,-1,0,-1
-158.94,12.36,-71.17,1779,-7719,2615,0,0,-1
-158.93,12.36,-71.16,1784,-7713,2623,0,0,-1
-158.92,12.37,-71.16,1784,-7711,2633,0,0,-1
-158.91,12.37,-71.15,1787,-7707,2634,0,0,-1
-158.92,12.37,-71.15,1784,-7707,2638,-1,0,-1
-158.91,12.37,-71.15,1789,-7712,2641,-1,0,-1
-158.91,12.37,-71.15,1780,-7706,2634,-1,0,-1
-158.91,12.37,-71.15,1782,-7700,2634,-1,0,-1
-158.90,12.37,-71.15,1783,-7702,2635,-1,0,-1
-158.91,12.37,-71.16,1779,-7700,2621,0,0,-1
-158.90,12.37,-71.15,1771,-7703,2630,0,0,-1
-158.90,12.38,-71.15,1776,-7704,2631,0,0,-1
-158.89,12.38,-71.15,1773,-7711,2633,-1,0,-1
-158.88,12.38,-71.14,1780,-7706,2643,-1,0,-1
-158.87,12.39,-71.14,1777,-7706,2641,-1,0,-1
-158.87,12.39,-71.14,1781,-7705,2638,-1,0,-1
-158.87,12.39,-71.14,1788,-7711,2642,0,0,-1
-158.87,12.39,-71.14,1778,-7723,2643,0,0,-1
-158.86,12.39,-71.13,1783,-7723,2646,-1,0,-1
-158.85,12.40,-71.14,1783,-7718,2639,-1,-1,-1
-158.85,12.40,-71.14,1784,-7716,2626,-1,-1,-1
-158.85,12.40,-71.14,1783,-7721,2616,0,0,-1
-158.85,12.41,-71.15,1793,-7711,2623,0,0,-1
-158.83,12.41,-71.13,1781,-7704,2635,0,0,-1
-158.83,12.41,-71.13,1784,-7699,2635,0,0,-1
-158.83,12.41,-71.13,1780,-7701,2636,-1,-1,-1
-158.84,12.41,-71.14,1780,-7714,2624,-1,0,-1
-158.84,12.41,-71.14,1778,-7723,2612,0,0,-1
-158.83,12.41,-71.14,1780,-7723,2618,0,0,-1
-158.83,12.41,-71.14,1787,-7715,2633,0,-1,-1
-158.83,12.42,-71.14,1791,-7706,2633,-1,-1,-1
-158.83,12.42,-71.14,1794,-7705,2636,-1,-1,-1
-158.83,12.42,-71.14,1802,-7708,2641,-1,-1,0
-158.83,12.41,-71.15,1790,-7708,2640,-1,-1,-1
-158.84,12.41,-71.15,1790,-7697,2636,-1,-1,0
-158.84,12.41,-71.15,1788,-7706,2638,-1,-1,-1
-158.84,12.42,-71.15,1791,-7708,2641,-1,-1,-1
-158.84,12.42,-71.15,1799,-7710,2638,0,0,0
-158.84,12.41,-71.14,1799,-7702,2632,0,0,0
-158.84,12.41,-71.15,1793,-7700,2628,-1,-1,0
-158.84,12.41,-71.15,1794,-7709,2635,-1,-1,0
-158.85,12.40,-71.15,1783,-7706,2627,-1,0,0
-158.85,12.40,-71.15,1780,-7706,2623,0,0,0
-158.85,12.40,-71.15,1779,-7706,2625,0,-1,-1
-158.85,12.40,-71.15,1784,-7706,2623,0,-1,0
-158.85,12.40,-71.15,1792,-7701,2639,-1,-1,0
-158.86,12.40,-71.16,1786,-7703,2631,-1,-1,0
-158.86,12.40,-71.16,1787,-7705,2628,-1,-1,0
-158.87,12.39,-71.16,1779,-7704,2618,-1,-1,0
-158.87,12.39,-71.16,1786,-7711,2623,-1,-1,0
-158.87,12.39,-71.16,1787,-7713,2620,0,-1,0
-158.88,12.38,-71.17,1782,-7708,2631,0,0,-1
-158.88,12.38,-71.17,1784,-7710,2623,-1,-1,0
-158.88,12.38,-71.17,1782,-7712,2619,-1,0,0
-158.89,12.38,-71.17,1774,-7714,2618,-1,-1,0
-158.89,12.38,-71.17,1774,-7706,2622,-1,-1,-1
-158.89,12.38,-71.17,1781,-7717,2626,0,0,0
-158.90,12.37,-71.17,1780,-7711,2627,-1,-1,0
-158.89,12.37,-71.17,1783,-7711,2626,-1,-1,0
-158.90,12.37,-71.17,1785,-7710,2628,0,-1,0
-158.90,12.37,-71.17,1782,-7711,2635,0,-1,0
-158.90,12.37,-71.17,1784,-7712,2644,-1,-1,0
-158.91,12.36,-71.17,1778,-7709,2640,-1,-1,0
-158.91,12.36,-71.18,1782,-7708,2638,-1,-1,0
-158.91,12.36,-71.18,1781,-7718,2631,0,-1,0
-158.92,12.35,-71.18,1778,-7716,2630,0,0,-1
-158.91,12.36,-71.17,1781,-7704,2630,0,-1,-1
-158.91,12.36,-71.16,1782,-7695,2646,-1,-1,0
-158.91,12.36,-71.17,1778,-7698,2641,-1,-1,0
-158.92,12.35,-71.17,1783,-7705,2632,-1,-1,0
-158.93,12.34,-71.18,1764,-7715,2626,0,0,0
-158.93,12.34,-71.17,1766,-7723,2618,0,-1,-1
-158.93,12.34,-71.17,1771,-7713,2632,0,-1,-1
-158.93,12.34,-71.17,1785,-7711,2633,0,-1,-1
-158.93,12.34,-71.17,1783,-7707,2627,-1,-1,0
-158.94,12.34,-71.17,1786,-7708,2625,-1,-1,0
-158.94,12.34,-71.18,1783,-7710,2622,-1,-1,0
-158.95,12.33,-71.18,1777,-7704,2626,-1,0,0
-158.95,12.33,-71.19,1775,-7716,2618,-1,-1,0
-158.95,12.33,-71.19,1773,-7711,2615,-1,0,0
-158.96,12.32,-71.19,1779,-7716,2615,0,-1,0
-158.96,12.32,-71.19,1772,-7712,2617,0,-1,0
-158.96,12.32,-71.19,1773,-7705,2624,0,0,0
-158.96,12.32,-71.19,1776,-7708,2626,-1,0,0
-158.97,12.32,-71.20,1769,-7714,2624,-1,-1,0
-158.97,12.32,-71.20,1765,-7716,2619,0,0,0
-158.98,12.30,-71.19,1758,-7726,2625,0,-1,-1
-158.98,12.30,-71.19,1766,-7722,2636,-1,0,0
-158.98,12.30,-71.19,1768,-7712,2625,-1,-1,0
-158.99,12.30,-71.20,1774,-7707,2628,-1,-1,0
-158.99,12.30,-71.20,1780,-7708,2625,-1,-1,0
-158.98,12.31,-71.20,1781,-7704,2622,-1,-1,0
-158.99,12.30,-71.20,1773,-7709,2614,-1,-1,0
-159.00,12.29,-71.21,1772,-7713,2616,0,-1,0
-159.00,12.29,-71.21,1773,-7712,2621,0,0,0
-159.00,12.29,-71.21,1772,-7719,2626,0,-1,0
-159.01,12.29,-71.21,1774,-7722,2618,-1,-1,0
-159.01,12.29,-71.21,1777,-7723,2620,-1,-1,0
-159.01,12.28,-71.21,1779,-7715,2628,-1,0,0
-159.02,12.28,-71.21,1771,-7719,2637,-1,-1,0
-159.02,12.28,-71.21,1766,-7717,2629,-1,-1,0
-159.02,12.28,-71.21,1769,-7714,2618,0,-1,0
-159.02,12.28,-71.21,1778,-7713,2615,0,-1,0
-159.02,12.28,-71.21,1778,-7707,2613,0,0,0
-159.04,12.27,-71.21,1766,-7714,2622,-1,0,0
-159.04,12.26,-71.21,1762,-7718,2625,-1,0,0
-159.05,12.26,-71.21,1751,-7713,2617,-1,-1,0
-159.06,12.25,-71.22,1757,-7717,2608,-1,-1,0
-159.05,12.25,-71.22,1767,-7722,2611,0,0,-1
-159.05,12.25,-71.20,1763,-7720,2624,0,0,0
-159.05,12.25,-71.19,1772,-7716,2623,0,-1,0
-159.06,12.24,-71.19,1778,-7714,2626,0,-1,0
-159.07,12.23,-71.19,1768,-7715,2627,-1,-1,0
-159.08,12.22,-71.20,1756,-7723,2617,-1,-1,0
-159.09,12.21,-71.20,1754,-7730,2618,0,-1,0
-159.09,12.21,-71.19,1750,-7725,2614,0,-1,0
-159.10,12.20,-71.18,1756,-7711,2631,0,-1,0
-159.10,12.20,-71.18,1756,-7718,2629,0,-1,0
-159.11,12.19,-71.17,1751,-7722,2634,0,-1,0
-159.11,12.19,-71.16,1767,-7719,2637,0,-1,0
-159.12,12.18,-71.17,1746,-7718,2637,-1,-1,0
-159.13,12.17,-71.16,1753,-7712,2628,0,-1,0
-159.15,12.16,-71.17,1757,-7718,2628,-1,0,0
-159.15,12.15,-71.17,1744,-7735,2618,0,-1,0
-159.16,12.15,-71.16,1742,-7731,2630,0,-1,0
-159.16,12.14,-71.15,1745,-7720,2641,0,-1,0
-159.17,12.14,-71.15,1738,-7715,2628,0,-1,0
-159.16,12.13,-71.14,1759,-7710,2643,0,-1,0
-159.16,12.13,-71.14,1750,-7711,2641,-1,-1,0
-159.17,12.13,-71.14,1756,-7722,2633,0,0,0
-159.17,12.13,-71.13,1730,-7722,2632,0,-1,-1
-159.16,12.13,-71.12,1757,-7713,2633,0,0,-1
-159.17,12.13,-71.12,1746,-7731,2631,0,-1,0
-159.16,12.13,-71.11,1759,-7713,2643,0,-1,-1
-159.16,12.13,-71.11,1745,-7688,2640,-1,0,0
-159.17,12.12,-71.12,1740,-7699,2630,0,-1,0
-159.18,12.12,-71.12,1736,-7709,2634,-1,-1,-1
-159.17,12.13,-71.12,1745,-7722,2630,0,0,-1
-159.17,12.12,-71.12,1740,-7708,2637,-1,0,-1
-159.17,12.12,-71.12,1729,-7709,2638,0,-1,-1
-159.16,12.13,-71.11,1741,-7712,2641,-1,-1,-1
-159.16,12.13,-71.11,1744,-7703,2638,-1,0,-1
-159.14,12.15,-71.11,1753,-7709,2638,0,0,-1
-159.15,12.14,-71.11,1743,-7711,2647,-1,0,-1
-159.14,12.15,-71.12,1741,-7714,2644,-1,-1,-1
-159.13,12.16,-71.12,1748,-7717,2633,-1,0,-1
-159.12,12.17,-71.13,1751,-7717,2628,-1,0,-1
-159.12,12.18,-71.13,1748,-7706,2633,0,0,-1
-159.11,12.18,-71.12,1751,-7699,2654,-1,0,-1
-159.11,12.18,-71.13,1749,-7707,2639,-1,-1,-1
-159.11,12.19,-71.13,1764,-7725,2631,-1,0,-1
-159.10,12.19,-71.14,1764,-7738,2630,0,0,-1
-159.09,12.20,-71.12,1755,-7711,2627,0,0,-1
-159.08,12.20,-71.12,1760,-7710,2649,-1,-1,-1
-159.08,12.20,-71.12,1772,-7704,2640,-1,0,-1
-159.08,12.20,-71.13,1769,-7729,2648,-1,0,-1
-159.08,12.20,-71.13,1766,-7735,2634,-1,0,-1
-159.08,12.20,-71.13,1754,-7726,2632,-1,0,-1
-159.07,12.21,-71.13,1748,-7719,2630,0,0,-1
-159.06,12.22,-71.13,1755,-7707,2622,0,0,-1
-159.05,12.22,-71.12,1766,-7697,2640,-1,0,-1
-159.04,12.23,-71.12,1770,-7700,2642,-1,0,-1
-159.05,12.23,-71.13,1771,-7712,2647,-1,0,-1
-159.05,12.22,-71.13,1756,-7708,2638,-1,0,-1
-159.05,12.23,-71.14,1754,-7708,2625,-1,-1,-1
-159.04,12.23,-71.14,1756,-7710,2621,-1,0,-1
-159.04,12.24,-71.15,1761,-7708,2619,0,0,-1
-159.03,12.24,-71.14,1760,-7703,2628,-1,0,-1
-159.04,12.24,-71.14,1760,-7705,2633,-1,0,-1
-159.04,12.24,-71.15,1761,-7713,2631,-1,0,-1
-159.03,12.24,-71.15,1764,-7721,2626,-1,0,-1
-159.03,12.24,-71.15,1759,-7723,2624,0,0,-1
-159.03,12.25,-71.15,1753,-7718,2632,0,0,-1
-159.02,12.25,-71.15,1761,-7715,2631,0,0,-1
-159.02,12.26,-71.15,1766,-7712,2634,-1,-1,-1
-159.02,12.26,-71.15,1765,-7712,2629,-1,0,-1
-159.01,12.26,-71.15,1765,-7714,2631,-1,0,-1
-159.01,12.26,-71.15,1762,-7707,2621,-1,-1,-1
-159.01,12.26,-71.15,1764,-7712,2626,0,-1,-1
-159.01,12.27,-71.15,1769,-7709,2630,-1,-1,-1
-159.00,12.27,-71.15,1763,-7713,2623,0,0,-1
-159.01,12.27,-71.15,1764,-7712,2625,-1,0,-1
-159.00,12.27,-71.15,1765,-7720,2628,0,0,-1
-159.00,12.27,-71.15,1764,-7709,2630,-1,0,-1
-159.00,12.27,-71.15,1758,-7709,2635,0,0,-1
-158.99,12.27,-71.15,1759,-7715,2641,-1,0,-1
-158.99,12.28,-71.15,1770,-7714,2636,0,0,-1
-158.98,12.28,-71.13,1771,-7704,2649,0,0,-1
-158.98,12.28,-71.13,1767,-7703,2644,-1,-1,-1
-158.98,12.28,-71.14,1766,-7702,2626,-1,-1,-1
-158.98,12.28,-71.15,1772,-7720,2629,-1,-1,-1
-158.98,12.29,-71.15,1774,-7724,2619,0,0,-1
-158.97,12.29,-71.15,1772,-7713,2616,0,0,-1
-158.96,12.30,-71.14,1768,-7696,2630,-1,0,-1
-158.96,12.30,-71.14,1771,-7699,2639,-1,-1,-1
-158.97,12.29,-71.14,1766,-7710,2635,-1,0,-1
-158.97,12.29,-71.15,1767,-7723,2624,0,0,-1
-158.96,12.29,-71.14,1762,-7716,2630,0,0,-1
-158.95,12.30,-71.14,1761,-7702,2625,0,0,-1
-158.95,12.30,-71.14,1769,-7698,2634,-1,0,-1
-158.95,12.30,-71.14,1775,-7702,2636,-1,0,-1
-158.95,12.30,-71.14,1773,-7714,2633,-1,0,-1
-158.94,12.31,-71.15,1773,-7716,2625,-1,0,-1
-158.94,12.31,-71.15,1765,-7713,2633,-1,0,-1
-158.95,12.30,-71.15,1763,-7711,2627,-1,0,-1
-158.95,12.31,-71.16,1770,-7714,2623,-1,0,-1
-158.94,12.31,-71.16,1773,-7714,2627,0,0,-1
-158.94,12.32,-71.15,1770,-7712,2630,0,0,-1
-158.94,12.32,-71.16,1773,-7706,2625,-1,0,-1
-158.94,12.31,-71.16,1769,-7715,2617,-1,0,-1
-158.94,12.31,-71.16,1772,-7716,2637,-1,0,-1
-158.93,12.31,-71.15,1767,-7719,2634,0,0,-1
-158.93,12.32,-71.15,1761,-7710,2636,-1,0,-1
-158.92,12.32,-71.15,1770,-7707,2647,-1,0,-1
-158.92,12.33,-71.15,1782,-7704,2637,-1,0,-1
-158.91,12.33,-71.15,1785,-7704,2631,-1,0,-1
-158.90,12.33,-71.15,1788,-7711,2628,-1,0,-1
-158.91,12.34,-71.16,1783,-7707,2634,-1,-1,0
-158.91,12.34,-71.16,1770,-7708,2636,-1,0,-1
-158.91,12.34,-71.16,1772,-7714,2632,0,0,-1
-158.91,12.34,-71.16,1778,-7717,2630,0,0,-1
-158.90,12.34,-71.16,1780,-7704,2627,0,0,-1
-158.90,12.34,-71.15,1782,-7701,2637,0,0,-1
-158.89,12.34,-71.15,1784,-7708,2642,0,0,-1
-158.88,12.35,-71.15,1782,-7708,2629,0,0,-1
-158.88,12.35,-71.15,1780,-7708,2634,0,-1,-1
-158.88,12.35,-71.14,1778,-7707,2644,0,0,-1
-158.87,12.36,-71.14,1774,-7701,2642,-1,0,-1
-158.87,12.36,-71.14,1780,-7710,2640,-1,0,-1
-158.88,12.36,-71.15,1777,-7714,2628,-1,-1,-1
-158.87,12.36,-71.15,1779,-7718,2622,0,0,-1
-158.86,12.37,-71.14,1778,-7712,2628,0,0,-1
-158.86,12.37,-71.14,1775,-7703,2624,0,0,-1
-158.85,12.38,-71.15,1782,-7698,2631,-1,0,-1
-158.85,12.38,-71.15,1788,-7710,2639,-1,0,-1
-158.85,12.38,-71.15,1785,-7717,2623,-1,0,-1
-158.85,12.38,-71.15,1778,-7721,2620,0,0,-1
-158.84,12.38,-71.15,1768,-7707,2623,0,0,-1
-158.83,12.39,-71.14,1774,-7700,2627,0,0,-1
-158.82,12.40,-71.14,1790,-7698,2632,-1,0,-1
-158.82,12.40,-71.15,1794,-7709,2617,-1,0,-1
-158.81,12.41,-71.15,1800,-7711,2625,-1,0,-1
-158.81,12.41,-71.15,1788,-7708,2626,-1,0,-1
-158.81,12.41,-71.16,1779,-7710,2631,-1,0,-1
-158.80,12.41,-71.16,1777,-7709,2619,-1,0,-1
-158.80,12.42,-71.17,1787,-7715,2608,-1,0,-1
-158.79,12.42,-71.16,1789,-7707,2613,0,0,-1
-158.79,12.43,-71.16,1791,-7702,2615,0,0,-1
-158.79,12.42,-71.15,1790,-7703,2627,0,0,-1
-158.78,12.42,-71.15,1785,-7707,2631,-1,0,-1
-158.78,12.42,-71.15,1777,-7707,2633,0,0,-1
-158.77,12.43,-71.15,1789,-7718,2630,-1,0,-1
-158.77,12.43,-71.15,1784,-7710,2635,0,0,-1
-158.76,12.44,-71.15,1783,-7705,2625,0,0,-1
-158.76,12.43,-71.15,1783,-7709,2628,-1,0,-1
-158.75,12.44,-71.14,1790,-7707,2628,-1,0,-1
-158.75,12.44,-71.15,1796,-7706,2626,-1,0,-1
-158.75,12.45,-71.16,1792,-7714,2622,-1,0,-1
-158.75,12.44,-71.16,1790,-7714,2614,-1,0,-1
-158.75,12.44,-71.16,1794,-7709,2617,0,0,-1
-158.74,12.45,-71.16,1789,-7708,2620,0,0,-1
-158.74,12.45,-71.16,1789,-7705,2623,-1,0,-1
-158.74,12.45,-71.16,1792,-7710,2631,0,0,-1
-158.74,12.45,-71.15,1795,-7706,2630,0,0,0
-158.74,12.45,-71.15,1796,-7703,2631,0,0,0
-158.74,12.45,-71.15,1787,-7699,2635,-1,-1,0
-158.74,12.45,-71.15,1785,-7701,2633,-1,-1,0
-158.75,12.44,-71.15,1794,-7700,2632,-1,0,0
-158.75,12.44,-71.15,1793,-7702,2635,-1,0,0
-158.75,12.44,-71.15,1796,-7700,2636,-1,0,0
-158.75,12.44,-71.16,1789,-7707,2641,-1,-1,0
-158.76,12.43,-71.16,1792,-7710,2637,-1,-1,0
-158.76,12.43,-71.17,1793,-7715,2622,0,-1,0
-158.76,12.43,-71.16,1795,-7707,2625,0,0,-1
-158.75,12.44,-71.15,1793,-7698,2629,0,0,-1
-158.76,12.43,-71.15,1791,-7691,2638,-1,0,0
-158.76,12.43,-71.15,1787,-7705,2633,-1,-1,0
-158.77,12.42,-71.17,1780,-7714,2613,0,0,0
-158.78,12.42,-71.17,1777,-7712,2618,0,0,0
-158.78,12.41,-71.16,1783,-7705,2616,0,0,-1
-158.78,12.41,-71.16,1782,-7696,2617,0,-1,-1
-158.78,12.41,-71.16,1793,-7699,2633,-1,-1,0
-158.77,12.42,-71.16,1793,-7712,2632,-1,-1,0
-158.78,12.41,-71.17,1795,-7723,2628,-1,-1,0
-158.78,12.41,-71.17,1785,-7715,2624,-1,-1,0
-158.79,12.41,-71.17,1787,-7704,2615,-1,-1,0
-158.79,12.41,-71.17,1794,-7707,2621,-1,-1,0
-158.79,12.41,-71.18,1796,-7711,2623,-1,-1,0
-158.80,12.40,-71.17,1790,-7715,2623,0,0,0
-158.80,12.40,-71.17,1786,-7713,2626,0,-1,0
-158.80,12.40,-71.17,1787,-7711,2624,0,-1,0
-158.80,12.40,-71.17,1790,-7703,2628,-1,-1,0
-158.81,12.40,-71.18,1786,-7710,2627,-1,0,0
-158.81,12.39,-71.17,1786,-7717,2633,0,0,0
-158.81,12.39,-71.17,1779,-7717,2643,-1,0,0
-158.81,12.39,-71.17,1783,-7713,2632,0,0,0
-158.82,12.38,-71.17,1777,-7708,2634,-1,-1,0
-158.82,12.39,-71.18,1777,-7710,2626,-1,-1,0
-158.83,12.38,-71.19,1779,-7705,2618,-1,-1,0
-158.83,12.38,-71.19,1776,-7709,2621,-1,0,0
-158.83,12.38,-71.19,1781,-7703,2624,-1,0,0
-158.84,12.37,-71.19,1773,-7702,2623,0,-1,0
-158.85,12.36,-71.18,1766,-7701,2634,-1,-1,0
-158.85,12.36,-71.18,1775,-7708,2631,-1,0,0
-158.84,12.36,-71.18,1771,-7711,2623,0,-1,0
-158.85,12.36,-71.18,1778,-7711,2616,0,-1,0
-158.86,12.35,-71.18,1774,-7723,2623,-1,-1,0
-158.86,12.35,-71.18,1771,-7717,2636,-1,-1,0
-158.87,12.34,-71.19,1768,-7711,2635,-1,-1,0
-158.88,12.34,-71.19,1772,-7710,2630,0,-1,0
-158.87,12.34,-71.18,1775,-7712,2631,0,-1,0
-158.88,12.33,-71.18,1781,-7711,2626,0,-1,0
-158.88,12.33,-71.19,1772,-7704,2633,0,-1,0
-158.89,12.32,-71.19,1770,-7710,2629,-1,-1,0
-158.90,12.32,-71.20,1763,-7718,2629,-1,-1,0
-158.91,12.32,-71.20,1768,-7718,2618,0,-1,0
-158.91,12.32,-71.20,1769,-7711,2618,0,0,0
-158.90,12.31,-71.19,1776,-7700,2627,0,0,0
-158.91,12.31,-71.18,1774,-7696,2638,-1,-1,0
-158.91,12.31,-71.19,1781,-7706,2627,-1,-1,0
-158.93,12.30,-71.20,1765,-7724,2616,-1,-1,0
-158.93,12.29,-71.20,1757,-7725,2613,0,-1,0
-158.94,12.28,-71.20,1760,-7723,2610,0,0,0
-158.94,12.29,-71.20,1767,-7711,2617,0,-1,-1
-158.94,12.29,-71.19,1779,-7707,2626,0,-1,0
-158.94,12.29,-71.19,1781,-7713,2637,-1,-1,0
-158.94,12.28,-71.19,1783,-7709,2633,-1,-1,0
-158.94,12.28,-71.20,1784,-7714,2623,-1,-1,0
-158.95,12.27,-71.20,1773,-7710,2623,-1,-1,0
-158.96,12.28,-71.20,1768,-7704,2620,0,-1,0
-158.96,12.28,-71.21,1768,-7713,2616,-1,-1,0
-158.97,12.27,-71.21,1764,-7715,2624,0,-1,0
-158.97,12.27,-71.20,1765,-7714,2624,0,-1,0
-158.97,12.26,-71.20,1772,-7717,2624,0,-1,0
-158.98,12.26,-71.20,1766,-7714,2627,0,-1,0
-158.98,12.26,-71.20,1767,-7713,2639,0,-1,0
-158.98,12.26,-71.20,1771,-7714,2636,0,-1,0
-158.99,12.25,-71.20,1767,-7727,2631,0,-1,0
-158.99,12.25,-71.20,1765,-7721,2630,0,-1,0
-158.98,12.25,-71.20,1771,-7714,2638,0,-1,0
-158.99,12.25,-71.20,1773,-7712,2633,-1,-1,0
-158.99,12.25,-71.20,1774,-7714,2629,-1,-1,0
-159.00,12.25,-71.20,1777,-7710,2619,-1,-1,0
-159.00,12.24,-71.21,1781,-7704,2620,0,0,0
-159.01,12.24,-71.21,1768,-7714,2623,-1,-1,0
-159.01,12.23,-71.21,1765,-7712,2623,0,0,0
-159.01,12.23,-71.21,1764,-7711,2626,0,-1,0
-159.02,12.22,-71.21,1765,-7709,2631,0,0,0
-159.01,12.23,-71.21,1770,-7711,2625,0,-1,0
-159.02,12.22,-71.21,1769,-7708,2632,0,-1,0
-159.02,12.22,-71.21,1762,-7715,2630,0,-1,0
-159.03,12.21,-71.20,1757,-7715,2633,0,-1,0
-159.04,12.20,-71.20,1751,-7708,2629,0,-1,0
-159.04,12.20,-71.21,1759,-7716,2627,-1,-1,0
-159.04,12.20,-71.21,1766,-7714,2625,0,-1,0
-159.04,12.20,-71.20,1769,-7715,2626,0,-1,0
-159.04,12.20,-71.20,1760,-7710,2629,-1,-1,0
-159.05,12.20,-71.21,1761,-7710,2629,-1,-1,0
-159.06,12.19,-71.21,1760,-7716,2617,-1,-1,0
-159.06,12.19,-71.22,1761,-7728,2613,0,-1,0
-159.06,12.19,-71.22,1758,-7725,2613,0,-1,0
-159.06,12.19,-71.20,1752,-7707,2630,0,-1,0
-159.06,12.19,-71.20,1761,-7703,2631,-1,-1,0
-159.06,12.19,-71.20,1758,-7704,2630,-1,-1,0
-159.07,12.18,-71.21,1757,-7723,2612,-1,-1,0
-159.08,12.18,-71.22,1751,-7728,2614,0,-1,0
-159.08,12.17,-71.21,1749,-7722,2619,0,-1,-1
-159.08,12.18,-71.20,1754,-7713,2629,0,-1,-1
-159.08,12.18,-71.20,1762,-7700,2633,0,-1,-1
-159.07,12.18,-71.20,1764,-7715,2632,-1,0,0
-159.07,12.18,-71.20,1761,-7722,2625,-1,0,0
-159.07,12.18,-71.20,1763,-7713,2625,-1,-1,-1
-159.07,12.18,-71.20,1760,-7705,2620,-1,-1,-1
-159.06,12.19,-71.20,1756,-7712,2618,0,-1,-1
-159.06,12.19,-71.20,1760,-7711,2614,0,-1,-1
-159.06,12.19,-71.20,1759,-7717,2613,0,0,-1
-159.05,12.20,-71.19,1764,-7713,2629,0,-1,-1
-159.05,12.20,-71.19,1761,-7700,2625,0,-1,-1
-159.05,12.20,-71.19,1763,-7707,2625,-1,-1,-1
-159.05,12.20,-71.19,1765,-7711,2626,-1,0,-1
-159.05,12.20,-71.20,1757,-7717,2608,0,-1,-1
-159.04,12.21,-71.19,1759,-7717,2616,0,-1,-1
-159.04,12.21,-71.19,1758,-7717,2628,0,0,-1
-159.03,12.21,-71.18,1765,-7718,2641,-1,-1,-1
-159.03,12.22,-71.19,1774,-7717,2635,0,-1,-1
-159.03,12.22,-71.19,1774,-7721,2624,-1,-1,0
-159.03,12.22,-71.19,1771,-7717,2624,0,0,0
-159.03,12.22,-71.19,1769,-7709,2621,0,-1,0
-159.03,12.22,-71.19,1763,-7712,2617,0,-1,-1
-159.03,12.22,-71.19,1758,-7716,2621,0,0,-1
-159.03,12.22,-71.18,1762,-7714,2637,0,0,-1
-159.02,12.22,-71.18,1762,-7716,2626,0,0,-1
-159.01,12.23,-71.17,1767,-7711,2635,0,-1,-1
-159.01,12.23,-71.17,1768,-7716,2640,0,0,-1
-159.01,12.23,-71.17,1769,-7712,2641,-1,0,-1
-159.00,12.23,-71.17,1764,-7714,2636,-1,0,-1
-159.00,12.24,-71.17,1768,-7707,2625,0,-1,-1
-159.00,12.24,-71.17,1765,-7709,2617,0,0,-1
-158.99,12.24,-71.17,1762,-7707,2621,0,0,-1
-158.99,12.25,-71.17,1763,-7711,2618,-1,0,-1
-158.99,12.25,-71.17,1768,-7712,2631,-1,0,-1
-158.99,12.25,-71.18,1763,-7719,2623,-1,-1,-1
-158.99,12.25,-71.18,1758,-7721,2620,-1,0,-1
-158.99,12.25,-71.18,1755,-7727,2614,0,0,-1
-158.98,12.25,-71.18,1765,-7721,2621,0,0,-1
-158.97,12.26,-71.16,1772,-7710,2631,0,0,-1
-158.97,12.26,-71.17,1763,-7698,2638,-1,0,0
-158.98,12.25,-71.17,1756,-7703,2635,-1,-1,-1
-158.98,12.25,-71.18,1756,-7720,2630,-1,-1,-1
-158.98,12.26,-71.18,1765,-7734,2613,0,0,-1
-158.97,12.26,-71.17,1757,-7730,2612,0,0,-1
-158.97,12.26,-71.17,1762,-7714,2621,0,0,-1
-158.96,12.27,-71.17,1766,-7710,2638,-1,-1,-1
-158.96,12.27,-71.17,1775,-7715,2633,-1,-1,-1
-158.96,12.27,-71.17,1783,-7718,2628,-1,0,-1
-158.96,12.27,-71.17,1780,-7708,2629,0,0,0
-158.96,12.27,-71.17,1768,-7704,2628,0,-1,-1
-158.96,12.27,-71.17,1770,-7707,2623,0,-1,-1
-158.96,12.27,-71.17,1770,-7718,2629,0,0,-1
-158.96,12.27,-71.17,1773,-7723,2620,0,0,-1
-158.95,12.28,-71.17,1773,-7717,2623,0,0,-1
-158.95,12.28,-71.17,1775,-7715,2617,0,0,-1
-158.95,12.28,-71.17,1775,-7713,2621,0,0,-1
-158.95,12.28,-71.17,1772,-7715,2621,0,0,-1
-158.94,12.28,-71.17,1768,-7710,2618,0,0,-1
-158.94,12.28,-71.17,1762,-7716,2627,0,0,-1
-158.94,12.28,-71.17,1767,-7709,2628,0,-1,-1
-158.93,12.29,-71.17,1771,-7705,2632,0,-1,-1
-158.93,12.29,-71.17,1778,-7709,2628,-1,-1,-1
-158.93,12.29,-71.17,1780,-7708,2627,-1,0,-1
-158.93,12.29,-71.17,1777,-7714,2628,-1,0,-1
-158.92,12.30,-71.18,1778,-7713,2629,-1,0,-1
-158.92,12.30,-71.18,1775,-7708,2611,0,-1,-1
-158.92,12.30,-71.18,1778,-7708,2627,0,0,-1
-158.92,12.31,-71.18,1782,-7706,2626,0,0,-1
-158.92,12.30,-71.17,1782,-7707,2634,0,0,-1
-158.91,12.31,-71.17,1781,-7699,2620,0,-1,-1
-158.91,12.31,-71.17,1780,-7698,2621,-1,-1,-1
-158.91,12.31,-71.17,1770,-7697,2623,-1,-1,-1
-158.91,12.31,-71.17,1776,-7714,2629,-1,-1,-1
-158.90,12.32,-71.17,1783,-7708,2633,0,0,-1
-158.90,12.32,-71.16,1780,-7698,2635,0,0,0
-158.90,12.32,-71.17,1780,-7700,2634,-1,-1,0
-158.90,12.32,-71.17,1779,-7712,2638,-1,-1,-1
-158.89,12.32,-71.17,1780,-7723,2627,0,0,-1
-158.89,12.32,-71.17,1790,-7711,2627,0,0,-1
-158.88,12.32,-71.16,1781,-7699,2640,0,0,-1
-158.88,12.32,-71.16,1781,-7693,2645,0,-1,-1
-158.87,12.33,-71.16,1783,-7705,2642,-1,-1,-1
-158.88,12.34,-71.17,1790,-7724,2631,-1,0,-1
-158.87,12.34,-71.16,1783,-7726,2622,0,0,-1
-158.86,12.34,-71.16,1775,-7716,2623,0,0,-1
-158.86,12.34,-71.16,1778,-7708,2623,0,0,-1
-158.86,12.35,-71.16,1780,-7710,2626,-1,0,-1
-158.85,12.36,-71.16,1789,-7709,2626,-1,-1,-1
-158.84,12.37,-71.16,1799,-7707,2638,-1,0,-1
-158.84,12.36,-71.16,1791,-7706,2639,0,0,-1
-158.83,12.37,-71.16,1791,-7704,2638,-1,0,-1
-158.83,12.37,-71.16,1784,-7711,2622,-1,0,-1
-158.83,12.37,-71.16,1782,-7702,2622,0,0,-1
-158.83,12.37,-71.16,1779,-7698,2625,0,0,-1
-158.82,12.38,-71.16,1781,-7697,2621,-1,0,-1
-158.82,12.37,-71.16,1779,-7699,2631,-1,0,-1
-158.82,12.37,-71.16,1785,-7715,2621,-1,0,-1
-158.82,12.37,-71.16,1789,-7720,2625,0,0,-1
-158.82,12.37,-71.16,1780,-7717,2625,0,0,-1
-158.81,12.38,-71.15,1786,-7715,2633,0,0,-1
-158.80,12.38,-71.16,1797,-7712,2646,0,0,-1
-158.80,12.38,-71.15,1789,-7698,2632,0,0,-1
-158.80,12.39,-71.16,1790,-7696,2625,-1,0,-1
-158.80,12.39,-71.16,1787,-7704,2619,-1,0,-1
-158.79,12.39,-71.17,1789,-7705,2617,-1,0,-1
-158.80,12.39,-71.17,1784,-7706,2616,-1,0,-1
-158.79,12.39,-71.17,1784,-7704,2613,0,0,-1
-158.79,12.39,-71.17,1787,-7702,2620,0,0,-1
-158.78,12.39,-71.16,1782,-7699,2632,0,0,-1
-158.78,12.40,-71.16,1782,-7703,2631,0,0,-1
-158.77,12.40,-71.16,1785,-7711,2627,-1,0,-1
-158.77,12.40,-71.16,1785,-7715,2627,0,-1,-1
-158.76,12.41,-71.16,1793,-7710,2626,0,0,-1
-158.75,12.42,-71.16,1794,-7715,2623,0,0,-1
-158.75,12.42,-71.16,1793,-7715,2630,0,-1,-1
-158.75,12.42,-71.16,1788,-7709,2630,0,-1,-1
-158.75,12.42,-71.16,1795,-7703,2631,-1,0,0
-158.76,12.41,-71.16,1800,-7706,2619,-1,-1,0
-158.76,12.42,-71.17,1795,-7706,2635,-1,0,0
-158.77,12.41,-71.18,1792,-7716,2619,0,-1,-1
-158.77,12.41,-71.17,1786,-7713,2605,0,-1,0
-158.76,12.41,-71.17,1797,-7703,2617,0,-1,0
-158.77,12.41,-71.16,1797,-7695,2630,0,-1,0
-158.77,12.42,-71.17,1799,-7701,2625,-1,-1,0
-158.78,12.41,-71.17,1797,-7706,2616,-1,-1,0
-158.78,12.40,-71.18,1794,-7716,2614,0,-1,0
-158.78,12.40,-71.18,1789,-7713,2612,0,-1,0
-158.78,12.40,-71.18,1793,-7707,2620,0,-1,-1
-158.78,12.40,-71.17,1794,-7709,2628,0,-1,0
-158.78,12.40,-71.18,1798,-7702,2629,-1,-1,0
-158.78,12.40,-71.18,1799,-7704,2631,-1,-1,0
-158.79,12.40,-71.18,1802,-7709,2623,-1,-1,0
-158.80,12.40,-71.19,1796,-7708,2611,0,-1,0
-158.81,12.39,-71.19,1790,-7704,2614,-1,-1,0
-158.81,12.39,-71.19,1794,-7702,2610,-1,-1,0
-158.81,12.39,-71.19,1800,-7704,2624,0,-1,0
-158.81,12.39,-71.19,1791,-7705,2626,0,-1,0
-158.82,12.39,-71.19,1789,-7707,2629,0,-1,0
-158.82,12.38,-71.19,1785,-7712,2630,0,-1,0
-158.82,12.38,-71.18,1790,-7712,2626,0,-1,0
-158.83,12.38,-71.18,1787,-7710,2625,0,-1,0
-158.84,12.37,-71.18,1795,-7718,2620,0,-1,0
-158.83,12.37,-71.17,1792,-7702,2630,0,0,0
-158.84,12.36,-71.17,1778,-7704,2631,0,-1,0
-158.85,12.35,-71.18,1771,-7700,2632,-1,-1,0
-158.86,12.35,-71.18,1786,-7702,2623,0,-1,0
-158.86,12.35,-71.18,1777,-7704,2614,0,-1,0
-158.87,12.34,-71.18,1779,-7708,2612,0,-1,0
-158.87,12.34,-71.17,1780,-7707,2627,0,-1,0
-158.88,12.33,-71.17,1775,-7705,2625,0,-1,0
-158.87,12.33,-71.16,1787,-7704,2638,0,0,0
-158.88,12.33,-71.17,1786,-7706,2632,0,-1,0
-158.88,12.33,-71.16,1781,-7707,2639,0,0,0
-158.88,12.32,-71.16,1774,-7707,2634,0,0,0
-158.89,12.32,-71.16,1772,-7707,2639,0,0,-1
-158.88,12.32,-71.16,1772,-7709,2630,-1,0,-1
-158.88,12.32,-71.16,1773,-7716,2629,0,0,-1
-158.88,12.32,-71.16,1778,-7715,2619,0,0,0
-158.88,12.32,-71.16,1777,-7703,2625,0,-1,-1
-158.88,12.31,-71.15,1777,-7702,2631,0,-1,0
-158.89,12.31,-71.15,1779,-7705,2631,-1,-1,0
-158.90,12.31,-71.16,1779,-7708,2622,0,-1,0
-158.91,12.30,-71.16,1786,-7717,2627,0,-1,0
-158.91,12.29,-71.16,1776,-7722,2618,0,-1,0
-158.91,12.30,-71.15,1789,-7709,2620,0,-1,0
-158.91,12.29,-71.14,1773,-7703,2630,0,-1,0
-158.92,12.28,-71.14,1775,-7703,2638,0,-1,0
-158.92,12.28,-71.13,1776,-7694,2637,-1,-1,0
-158.94,12.27,-71.15,1765,-7712,2616,0,-1,0
-158.95,12.26,-71.14,1763,-7712,2628,0,-1,0
-158.95,12.26,-71.14,1767,-7720,2622,0,-1,0
-158.96,12.25,-71.13,1767,-7714,2630,0,-1,0
-158.96,12.25,-71.13,1771,-7701,2636,0,-1,0
-158.96,12.25,-71.13,1769,-7708,2628,-1,-1,0
-158.96,12.25,-71.12,1780,-7700,2652,-1,0,0
-158.97,12.24,-71.13,1763,-7701,2638,-1,-1,0
-158.98,12.23,-71.13,1759,-7696,2645,-1,-1,0
-158.99,12.23,-71.15,1763,-7708,2636,-1,-1,0
-158.99,12.23,-71.15,1769,-7721,2621,0,-1,0
-158.99,12.23,-71.15,1758,-7719,2627,0,-1,0
-159.00,12.22,-71.15,1762,-7713,2633,0,-1,0
-159.00,12.22,-71.15,1764,-7704,2635,-1,-1,0
-159.01,12.21,-71.15,1767,-7713,2627,-1,-1,0
-159.01,12.21,-71.15,1762,-7710,2623,0,-1,0
-159.02,12.21,-71.15,1762,-7708,2632,0,-1,0
-159.02,12.21,-71.15,1762,-7708,2640,0,-1,0
-159.01,12.21,-71.15,1769,-7697,2641,0,0,0
-159.02,12.21,-71.15,1763,-7704,2644,-1,-1,0
-159.02,12.20,-71.16,1767,-7706,2638,-1,0,0
-159.03,12.20,-71.16,1773,-7712,2644,-1,-1,0
-159.03,12.20,-71.16,1764,-7712,2634,-1,-1,0
-159.03,12.20,-71.16,1764,-7710,2622,0,-1,0
-159.03,12.20,-71.16,1762,-7715,2616,0,0,0
-159.05,12.19,-71.17,1757,-7715,2623,0,-1,0
-159.05,12.18,-71.17,1752,-7709,2629,0,-1,0
-159.05,12.18,-71.17,1754,-7706,2639,-1,-1,0
-159.05,12.18,-71.17,1757,-7710,2630,0,-1,0
-159.06,12.18,-71.17,1760,-7715,2624,-1,-1,0
-159.06,12.18,-71.17,1759,-7709,2619,0,-1,0
-159.06,12.18,-71.17,1762,-7711,2628,-1,-1,0
-159.06,12.18,-71.17,1757,-7713,2630,-1,-1,0
-159.06,12.18,-71.17,1756,-7718,2630,-1,-1,0
-159.07,12.17,-71.18,1759,-7720,2630,0,-1,0
-159.07,12.17,-71.18,1764,-7713,2640,0,-1,0
-159.08,12.17,-71.18,1759,-7713,2645,-1,-1,0
-159.09,12.16,-71.18,1757,-7707,2636,-1,-1,0
-159.09,12.16,-71.19,1751,-7714,2622,-1,-1,0
-159.10,12.16,-71.20,1755,-7727,2611,-1,-1,-1
-159.09,12.17,-71.19,1763,-7723,2614,0,0,-1
-159.09,12.17,-71.18,1761,-7708,2627,0,-1,0
-159.09,12.16,-71.19,1765,-7698,2627,0,-1,0
-159.10,12.16,-71.19,1760,-7711,2631,-1,-1,0
-159.11,12.16,-71.20,1761,-7730,2625,-1,0,0
-159.11,12.15,-71.21,1754,-7732,2607,-1,-1,0
-159.12,12.15,-71.21,1747,-7727,2606,0,-1,-1
-159.11,12.15,-71.20,1752,-7716,2615,0,-1,-1
-159.10,12.15,-71.19,1755,-7700,2620,0,-1,-1
-159.10,12.16,-71.19,1762,-7701,2629,0,-1,0
-159.10,12.16,-71.19,1759,-7709,2631,-1,-1,0
-159.10,12.16,-71.19,1757,-7712,2636,0,0,-1
-159.10,12.16,-71.19,1759,-7717,2625,-1,-1,-1
-159.10,12.16,-71.19,1757,-7711,2618,-1,-1,-1
-159.11,12.16,-71.20,1745,-7718,2613,0,-1,-1
-159.10,12.16,-71.19,1748,-7712,2623,0,-1,-1
-159.10,12.16,-71.19,1748,-7719,2620,0,-1,-1
-159.10,12.16,-71.19,1754,-7720,2618,0,-1,-1
-159.10,12.17,-71.19,1761,-7715,2620,0,-1,-1
-159.10,12.17,-71.20,1762,-7710,2607,0,-1,-1
-159.10,12.17,-71.20,1755,-7715,2610,0,-1,-1
-159.10,12.17,-71.19,1752,-7712,2623,0,-1,-1
-159.10,12.17,-71.19,1758,-7715,2631,0,-1,-1
-159.08,12.18,-71.19,1766,-7708,2630,0,-1,-1
-159.08,12.18,-71.19,1764,-7713,2628,0,-1,-1
-159.07,12.19,-71.19,1765,-7709,2624,0,-1,-1
-159.07,12.19,-71.19,1768,-7707,2627,-1,-1,-1
-159.07,12.20,-71.19,1759,-7702,2620,0,-1,-1
-159.08,12.19,-71.19,1754,-7700,2618,0,-1,-1
-159.07,12.20,-71.19,1757,-7714,2616,0,0,-1
-159.06,12.20,-71.18,1766,-7712,2623,0,0,-1
-159.06,12.20,-71.19,1764,-7716,2624,0,0,-1
-159.06,12.21,-71.19,1756,-7709,2623,-1,0,-1
-159.06,12.21,-71.19,1765,-7714,2624,0,-1,-1
-159.06,12.21,-71.19,1760,-7714,2618,0,0,-1
-159.05,12.21,-71.19,1765,-7710,2610,0,0,-1
-159.05,12.21,-71.19,1758,-7709,2615,0,0,-1
-159.05,12.22,-71.19,1767,-7715,2624,-1,0,-1
-159.04,12.22,-71.19,1762,-7714,2622,-1,-1,-1
-159.04,12.22,-71.19,1779,-7710,2628,-1,-1,-1
-159.03,12.23,-71.19,1780,-7714,2624,0,0,-1
-159.03,12.23,-71.19,1768,-7710,2626,0,0,-1
-159.04,12.22,-71.19,1759,-7704,2629,-1,-1,-1
-159.04,12.23,-71.19,1759,-7710,2616,-1,-1,-1
-159.03,12.23,-71.20,1765,-7718,2615,0,-1,-1
-159.02,12.24,-71.19,1776,-7719,2623,0,0,-1
