Yaw,Pitch,Roll,AX,AY,AZ,GX,GY,GZ
22.28,11.82,-45.40,1701,-5769,5698,0,-1,-1
22.28,11.83,-45.39,1705,-5760,5702,0,-1,-1
22.28,11.84,-45.38,1711,-5755,5696,0,-1,0
22.28,11.85,-45.38,1712,-5757,5693,0,-1,0
22.28,11.86,-45.38,1711,-5758,5698,0,-1,-1
22.28,11.87,-45.37,1723,-5758,5703,0,-1,0
22.28,11.87,-45.35,1715,-5759,5703,0,-1,0
22.29,11.88,-45.34,1715,-5755,5700,0,-1,-1
22.29,11.89,-45.33,1717,-5753,5703,0,-1,-1
22.30,11.90,-45.32,1722,-5756,5714,0,-1,-1
22.30,11.90,-45.32,1724,-5746,5726,0,-1,-1
22.30,11.91,-45.31,1724,-5753,5720,0,-1,0
22.30,11.91,-45.30,1719,-5749,5727,0,-1,0
22.30,11.92,-45.30,1721,-5751,5712,-1,-1,0
22.30,11.91,-45.29,1716,-5752,5719,0,-1,0
22.30,11.93,-45.29,1719,-5752,5718,0,-1,-1
22.31,11.93,-45.28,1714,-5758,5719,0,-1,-1
22.31,11.94,-45.27,1720,-5755,5726,0,-1,-1
22.31,11.95,-45.27,1725,-5748,5722,0,-1,-1
22.32,11.95,-45.26,1737,-5742,5723,0,-1,0
22.31,11.96,-45.26,1736,-5736,5706,0,-1,0
22.32,11.96,-45.26,1740,-5741,5713,0,-1,0
22.32,11.96,-45.26,1736,-5745,5718,-1,-1,0
22.31,11.96,-45.26,1726,-5756,5709,0,0,0
22.31,11.96,-45.26,1712,-5761,5722,0,-1,-1
22.31,11.97,-45.25,1711,-5754,5709,0,-1,-1
22.32,11.98,-45.25,1720,-5739,5716,0,-1,-1
22.32,11.99,-45.24,1725,-5733,5705,0,-1,-1
22.32,11.99,-45.22,1731,-5731,5720,0,-1,0
22.32,12.00,-45.22,1750,-5743,5726,0,-1,0
22.32,12.00,-45.21,1749,-5735,5726,0,-1,0
22.32,12.00,-45.20,1733,-5737,5722,0,0,0
22.32,12.00,-45.20,1730,-5729,5730,0,-1,0
22.32,12.00,-45.19,1732,-5738,5728,0,-1,-1
22.32,12.01,-45.18,1728,-5739,5727,0,-1,0
22.32,12.02,-45.18,1737,-5738,5731,0,-1,0
22.32,12.03,-45.19,1744,-5749,5730,-1,-1,0
22.32,12.04,-45.18,1741,-5750,5724,0,-1,0
22.32,12.04,-45.18,1739,-5751,5718,0,-1,-1
22.32,12.05,-45.17,1738,-5744,5714,0,-1,0
22.32,12.05,-45.16,1737,-5738,5723,0,-1,0
22.32,12.05,-45.14,1735,-5731,5719,0,-1,0
22.32,12.06,-45.14,1739,-5729,5726,0,-1,0
22.32,12.06,-45.12,1748,-5728,5739,0,-1,0
22.33,12.06,-45.11,1740,-5720,5734,0,-1,0
22.32,12.06,-45.11,1738,-5721,5730,0,-1,0
22.32,12.07,-45.10,1731,-5729,5726,0,-1,0
22.32,12.07,-45.11,1732,-5725,5729,0,-1,0
22.32,12.08,-45.10,1730,-5737,5724,0,-1,0
22.32,12.07,-45.10,1734,-5738,5728,0,-1,-1
22.31,12.08,-45.10,1740,-5730,5727,0,-1,0
22.32,12.08,-45.09,1742,-5728,5728,0,-1,0
22.32,12.09,-45.09,1747,-5732,5719,0,-1,0
22.32,12.09,-45.08,1741,-5730,5719,0,-1,0
22.32,12.09,-45.07,1745,-5727,5720,0,-1,0
22.31,12.09,-45.06,1749,-5721,5714,0,-1,0
22.32,12.10,-45.06,1745,-5720,5708,0,-1,0
22.31,12.09,-45.05,1738,-5724,5721,0,0,0
22.31,12.10,-45.05,1748,-5731,5724,0,-1,0
22.32,12.10,-45.04,1736,-5730,5736,0,-1,0
22.31,12.10,-45.04,1732,-5728,5733,0,-1,-1
22.31,12.11,-45.04,1734,-5735,5736,0,-1,-1
22.32,12.11,-45.03,1748,-5742,5731,0,-1,-1
22.32,12.12,-45.02,1746,-5734,5730,0,-1,0
22.31,12.11,-45.01,1742,-5721,5733,0,-1,0
22.31,12.12,-45.02,1743,-5724,5730,0,-1,0
22.30,12.11,-45.01,1737,-5727,5724,0,-1,0
22.31,12.12,-45.00,1735,-5729,5732,0,-1,0
22.30,12.12,-44.99,1736,-5727,5745,0,-1,0
22.30,12.13,-44.99,1744,-5719,5737,0,-1,-1
22.31,12.14,-44.98,1745,-5712,5736,0,-1,0
22.31,12.14,-44.98,1752,-5713,5741,0,-1,0
22.30,12.14,-44.98,1756,-5711,5742,0,-1,0
22.29,12.14,-44.98,1753,-5720,5733,0,-1,0
22.29,12.14,-44.98,1749,-5734,5727,0,-1,0
22.29,12.14,-44.98,1741,-5741,5731,0,-1,0
22.29,12.14,-44.97,1741,-5742,5729,0,-1,0
22.29,12.14,-44.95,1739,-5733,5739,0,-1,0
22.29,12.15,-44.94,1744,-5719,5738,0,-1,0
22.29,12.15,-44.93,1751,-5719,5746,0,-1,0
22.28,12.15,-44.92,1755,-5714,5744,0,-1,0
22.28,12.16,-44.91,1756,-5710,5754,0,-1,0
22.28,12.16,-44.90,1756,-5706,5754,0,-1,0
22.27,12.16,-44.91,1750,-5706,5746,0,-1,0
22.27,12.15,-44.90,1744,-5709,5744,0,-1,0
22.26,12.16,-44.90,1754,-5720,5736,0,-1,0
22.26,12.16,-44.90,1764,-5729,5729,0,0,-1
22.26,12.15,-44.88,1743,-5719,5741,0,-1,0
22.26,12.16,-44.87,1746,-5719,5736,0,-1,0
22.26,12.17,-44.87,1756,-5714,5729,0,-1,0
22.26,12.18,-44.87,1762,-5721,5720,0,-1,0
22.26,12.18,-44.85,1762,-5711,5728,0,-1,0
22.26,12.18,-44.83,1767,-5706,5751,0,-1,0
22.25,12.18,-44.82,1756,-5706,5746,0,0,0
22.25,12.17,-44.81,1751,-5700,5755,0,0,0
22.24,12.17,-44.80,1750,-5690,5762,0,-1,0
22.24,12.17,-44.80,1751,-5691,5774,-1,-1,0
22.24,12.17,-44.80,1747,-5696,5774,-1,-1,0
22.24,12.17,-44.81,1757,-5706,5779,-1,0,-1
22.24,12.17,-44.83,1758,-5715,5764,-1,0,-1
22.24,12.16,-44.84,1760,-5713,5753,-1,0,-1
22.24,12.15,-44.85,1753,-5724,5734,-1,0,-1
22.24,12.15,-44.86,1745,-5715,5742,-1,0,-1
22.25,12.15,-44.86,1745,-5709,5744,-1,0,-1
22.25,12.14,-44.86,1747,-5713,5741,-1,0,-1
22.25,12.14,-44.86,1757,-5712,5747,-1,0,-1
22.26,12.14,-44.86,1756,-5708,5750,-1,0,-1
22.26,12.13,-44.86,1748,-5705,5750,-1,0,-1
22.26,12.12,-44.87,1739,-5706,5750,-1,0,-1
22.27,12.12,-44.88,1743,-5708,5746,-1,0,-1
22.27,12.12,-44.88,1741,-5707,5756,-1,0,-1
22.27,12.12,-44.89,1747,-5712,5748,-1,0,-1
22.28,12.13,-44.89,1759,-5719,5744,-1,0,-1
22.28,12.12,-44.90,1747,-5715,5740,-1,0,-1
22.28,12.11,-44.91,1735,-5715,5732,-1,0,-1
22.29,12.12,-44.92,1742,-5723,5721,-1,0,-1
22.28,12.11,-44.92,1742,-5722,5731,0,0,-1
22.29,12.11,-44.92,1743,-5723,5745,-1,0,-1
22.30,12.11,-44.92,1751,-5722,5745,-1,0,-1
22.30,12.10,-44.92,1753,-5722,5741,-1,0,0
22.31,12.10,-44.93,1756,-5709,5735,-1,0,-1
22.30,12.10,-44.93,1750,-5712,5728,-1,0,-1
22.31,12.09,-44.94,1747,-5717,5738,-1,0,0
22.30,12.08,-44.96,1734,-5729,5739,-1,0,-1
22.30,12.07,-44.96,1732,-5738,5746,-1,0,-1
22.30,12.06,-44.97,1736,-5738,5737,-1,0,-1
22.31,12.06,-44.97,1730,-5740,5729,-1,0,-1
22.31,12.05,-44.98,1730,-5728,5725,-1,0,-1
22.32,12.05,-44.99,1742,-5725,5726,-1,0,-1
22.32,12.05,-44.99,1746,-5720,5727,-1,0,-1
22.32,12.04,-45.00,1748,-5724,5726,-1,0,0
22.32,12.03,-45.01,1746,-5725,5735,-1,0,-1
22.33,12.03,-45.01,1739,-5718,5733,-1,0,0
22.32,12.02,-45.02,1722,-5728,5734,-1,0,-1
22.32,12.01,-45.03,1727,-5729,5738,-1,0,0
22.32,12.00,-45.05,1727,-5734,5735,-1,0,-1
22.33,12.00,-45.06,1726,-5735,5739,-1,0,-1
22.33,11.98,-45.08,1723,-5737,5729,-1,0,-1
22.33,11.98,-45.11,1729,-5749,5709,-1,0,-1
22.34,11.98,-45.11,1726,-5752,5712,-1,0,-1
22.33,11.97,-45.12,1717,-5746,5717,-1,0,-1
22.34,11.96,-45.12,1726,-5737,5724,-1,0,-1
22.35,11.96,-45.12,1729,-5735,5743,-1,0,-1
22.35,11.94,-45.14,1723,-5740,5738,-1,0,-1
22.35,11.93,-45.16,1717,-5741,5724,-1,0,0
22.34,11.92,-45.17,1715,-5746,5713,-1,0,0
22.34,11.91,-45.18,1707,-5744,5718,-1,0,0
22.34,11.91,-45.20,1703,-5749,5725,-1,0,-1
22.34,11.90,-45.21,1707,-5764,5718,-1,0,-1
22.34,11.90,-45.22,1715,-5765,5721,-1,0,-1
22.34,11.89,-45.22,1710,-5762,5713,-1,0,-1
22.34,11.88,-45.23,1711,-5759,5708,-1,0,-1
22.35,11.88,-45.23,1710,-5753,5714,-1,0,0
22.35,11.87,-45.24,1714,-5753,5715,-1,0,0
22.35,11.87,-45.24,1721,-5744,5713,-1,0,0
22.34,11.85,-45.25,1708,-5751,5712,-1,0,0
22.34,11.85,-45.25,1707,-5758,5710,-1,0,0
22.35,11.85,-45.26,1705,-5768,5710,0,0,-1
22.35,11.85,-45.26,1705,-5764,5709,0,0,-1
22.35,11.85,-45.26,1697,-5755,5706,-1,0,-1
22.35,11.85,-45.26,1702,-5751,5700,-1,-1,0
22.35,11.85,-45.27,1703,-5753,5696,-1,-1,0
22.35,11.86,-45.26,1713,-5756,5702,0,-1,-1
22.35,11.87,-45.26,1707,-5758,5699,0,-1,0
22.35,11.87,-45.26,1715,-5764,5703,0,-1,-1
22.35,11.88,-45.25,1708,-5758,5706,0,-1,-1
22.36,11.88,-45.25,1716,-5754,5702,0,-1,-1
22.36,11.89,-45.25,1720,-5757,5696,0,-1,0
22.36,11.89,-45.24,1714,-5757,5702,0,-1,0
22.35,11.89,-45.24,1716,-5770,5710,0,-1,-1
22.36,11.90,-45.24,1713,-5765,5710,0,-1,0
22.35,11.90,-45.23,1706,-5766,5705,0,-1,-1
22.36,11.91,-45.23,1710,-5757,5703,0,-1,-1
22.36,11.92,-45.22,1712,-5766,5702,0,-1,-1
22.37,11.93,-45.21,1713,-5756,5707,0,-1,-1
22.36,11.93,-45.20,1717,-5751,5710,0,-1,-1
22.37,11.94,-45.19,1725,-5746,5712,0,-1,0
22.36,11.94,-45.19,1725,-5746,5711,0,-1,0
22.37,11.95,-45.18,1726,-5745,5713,0,0,0
22.36,11.95,-45.18,1722,-5748,5723,0,-1,0
22.36,11.95,-45.18,1728,-5748,5728,0,-1,0
22.36,11.96,-45.17,1716,-5753,5717,0,-1,-1
22.36,11.96,-45.17,1715,-5753,5712,0,-1,-1
22.36,11.97,-45.17,1722,-5760,5717,0,-1,-1
22.37,11.98,-45.17,1733,-5763,5714,0,-1,-1
22.36,11.99,-45.17,1726,-5766,5710,0,-1,0
22.37,11.99,-45.16,1735,-5763,5704,0,-1,0
22.37,12.00,-45.15,1730,-5756,5692,0,-1,0
22.37,12.00,-45.14,1727,-5740,5699,0,-1,0
22.36,12.00,-45.12,1723,-5737,5712,0,-1,0
22.37,12.01,-45.12,1729,-5732,5710,0,-1,0
22.36,12.01,-45.10,1730,-5732,5717,0,-1,0
22.36,12.01,-45.10,1728,-5731,5723,0,-1,0
22.36,12.01,-45.09,1721,-5738,5724,0,-1,0
22.36,12.02,-45.10,1720,-5737,5713,0,-1,0
22.36,12.02,-45.09,1727,-5736,5717,0,-1,0
22.36,12.03,-45.09,1728,-5733,5725,0,-1,0
22.36,12.03,-45.09,1729,-5740,5730,0,-1,0
22.36,12.04,-45.08,1733,-5743,5727,0,-1,0
22.36,12.03,-45.08,1722,-5747,5724,0,-1,-1
22.36,12.04,-45.08,1724,-5740,5717,0,-1,-1
22.36,12.04,-45.07,1735,-5734,5723,0,0,-1
22.36,12.04,-45.07,1730,-5730,5720,0,-1,0
22.35,12.05,-45.07,1750,-5746,5714,0,-1,0
22.36,12.04,-45.06,1739,-5741,5725,0,0,0
22.34,12.03,-45.06,1720,-5733,5721,0,-1,0
22.34,12.04,-45.06,1724,-5735,5722,0,-1,-1
22.35,12.06,-45.05,1736,-5737,5718,0,-1,-1
22.35,12.06,-45.04,1742,-5729,5726,0,-1,0
22.35,12.06,-45.03,1739,-5724,5727,0,-1,0
22.35,12.06,-45.02,1733,-5722,5732,0,0,0
22.35,12.06,-45.02,1725,-5720,5742,-1,-1,0
22.34,12.06,-45.02,1724,-5738,5732,0,-1,0
22.34,12.06,-45.02,1723,-5740,5713,0,-1,0
22.34,12.06,-45.01,1721,-5729,5738,0,-1,0
22.33,12.06,-45.00,1724,-5729,5757,0,-1,0
22.34,12.08,-45.00,1750,-5732,5744,0,-1,0
22.35,12.08,-45.00,1756,-5731,5740,0,-1,0
22.34,12.08,-45.00,1749,-5729,5737,0,0,0
22.33,12.08,-45.00,1738,-5734,5730,0,-1,0
22.32,12.07,-45.00,1739,-5744,5724,0,-1,0
22.32,12.07,-45.00,1737,-5751,5729,0,0,0
22.33,12.07,-45.00,1735,-5755,5732,0,0,0
22.32,12.07,-44.99,1727,-5756,5728,0,-1,0
22.32,12.06,-44.99,1739,-5740,5742,0,0,0
22.32,12.06,-44.98,1732,-5722,5731,-1,0,0
22.31,12.05,-44.98,1747,-5711,5745,-1,0,0
22.30,12.05,-45.00,1761,-5715,5730,-1,-1,0
22.29,12.03,-45.01,1752,-5709,5733,-1,0,0
22.28,12.03,-45.03,1737,-5721,5729,-1,0,0
22.27,12.02,-45.04,1735,-5718,5734,-1,-1,0
22.27,12.01,-45.07,1723,-5726,5729,-2,0,0
22.26,12.01,-45.10,1713,-5753,5705,-1,-1,0
22.25,12.02,-45.13,1723,-5739,5713,-1,0,0
22.25,12.03,-45.15,1732,-5748,5719,-1,-1,0
22.24,12.04,-45.18,1750,-5757,5695,-1,-1,0
22.24,12.04,-45.19,1753,-5770,5716,-1,0,0
22.24,12.04,-45.20,1740,-5765,5691,-1,0,0
22.23,12.03,-45.20,1738,-5762,5700,0,-1,0
22.23,12.03,-45.19,1730,-5750,5706,-1,0,0
22.22,12.03,-45.20,1749,-5784,5689,0,-1,0
22.23,12.03,-45.17,1735,-5741,5734,0,0,0
22.22,12.03,-45.16,1729,-5749,5724,0,-1,0
22.22,12.02,-45.15,1729,-5748,5734,0,0,0
22.22,12.02,-45.14,1723,-5742,5738,0,-1,0
22.22,12.03,-45.14,1732,-5742,5710,0,-1,0
22.22,12.03,-45.13,1718,-5742,5718,0,-1,-1
22.21,12.04,-45.13,1726,-5743,5710,0,-1,0
22.21,12.04,-45.13,1725,-5747,5710,0,-1,0
22.21,12.06,-45.13,1734,-5756,5704,0,-1,-1
22.21,12.06,-45.13,1733,-5756,5697,0,-1,0
22.21,12.08,-45.11,1745,-5736,5696,0,-1,0
22.21,12.08,-45.09,1740,-5742,5700,0,-1,0
22.19,12.08,-45.09,1742,-5751,5713,0,-1,0
22.19,12.08,-45.07,1748,-5746,5728,0,0,0
22.19,12.08,-45.06,1734,-5733,5736,0,-1,0
22.18,12.08,-45.05,1736,-5732,5747,0,-1,0
22.17,12.08,-45.07,1729,-5744,5719,-1,-1,0
22.18,12.09,-45.07,1745,-5729,5745,-1,0,0
22.17,12.09,-45.09,1735,-5733,5727,-1,-1,0
22.16,12.09,-45.11,1766,-5721,5741,-1,-1,0
22.14,12.09,-45.14,1734,-5728,5729,-2,-1,0
22.13,12.08,-45.16,1732,-5717,5698,-1,0,0
22.12,12.07,-45.18,1721,-5727,5738,-2,-1,0
22.11,12.07,-45.22,1724,-5760,5701,-1,0,-1
22.10,12.07,-45.22,1716,-5740,5721,-1,0,0
22.10,12.07,-45.24,1719,-5775,5734,-1,-1,-1
22.10,12.07,-45.27,1723,-5764,5679,-1,0,-1
22.11,12.08,-45.28,1774,-5749,5727,-1,0,-1
22.11,12.07,-45.30,1762,-5768,5698,-2,1,0
22.11,12.05,-45.32,1756,-5775,5671,-1,0,0
22.12,12.05,-45.32,1746,-5775,5689,-1,0,-1
22.11,12.03,-45.33,1729,-5773,5677,0,0,0
22.12,12.03,-45.32,1718,-5770,5714,-1,0,-1
22.13,12.02,-45.32,1708,-5755,5680,-1,0,-1
22.15,12.03,-45.31,1728,-5770,5684,0,-1,-1
22.15,12.03,-45.30,1729,-5747,5690,0,0,-1
22.16,12.03,-45.29,1722,-5738,5694,-1,0,-1
22.17,12.03,-45.29,1734,-5745,5702,-1,0,-1
22.18,12.02,-45.29,1734,-5749,5715,-1,0,-1
22.18,12.01,-45.30,1728,-5759,5703,-1,0,-1
22.19,12.01,-45.29,1740,-5745,5715,-1,0,-1
22.19,12.00,-45.30,1724,-5755,5694,-1,0,-1
22.19,11.99,-45.32,1721,-5757,5679,-1,0,-1
22.21,12.00,-45.33,1730,-5748,5699,-1,0,-1
22.21,12.00,-45.34,1737,-5765,5703,-1,0,-1
22.22,12.00,-45.37,1732,-5784,5676,-1,0,-1
22.22,11.99,-45.37,1738,-5779,5699,-1,0,-1
22.23,11.98,-45.39,1738,-5784,5679,-1,0,-1
22.23,11.97,-45.40,1724,-5781,5671,-1,0,-1
22.23,11.97,-45.41,1734,-5765,5683,-1,0,-1
22.24,11.96,-45.42,1725,-5767,5709,-1,0,-1
22.24,11.95,-45.43,1719,-5793,5698,-1,0,0
22.24,11.95,-45.45,1734,-5792,5684,-1,0,-1
22.24,11.93,-45.45,1712,-5783,5704,-1,0,0
22.23,11.92,-45.47,1725,-5788,5708,-1,0,-1
22.24,11.92,-45.50,1705,-5771,5694,-1,-1,0
22.23,11.91,-45.52,1711,-5777,5663,-1,0,-1
22.23,11.91,-45.53,1714,-5772,5676,-1,0,0
22.23,11.90,-45.55,1705,-5785,5666,-1,0,-1
22.23,11.89,-45.58,1714,-5802,5667,-1,0,0
22.23,11.89,-45.58,1710,-5791,5679,-1,0,-1
22.23,11.88,-45.60,1710,-5801,5672,-1,0,-1
22.23,11.87,-45.61,1702,-5806,5666,-1,0,-1
22.23,11.86,-45.62,1705,-5788,5669,-1,0,0
22.24,11.86,-45.64,1699,-5806,5653,-1,0,-1
22.24,11.86,-45.64,1714,-5806,5669,-1,0,-1
22.24,11.86,-45.64,1718,-5792,5661,-1,0,-1
22.25,11.85,-45.64,1698,-5806,5667,-1,0,-1
22.24,11.85,-45.66,1708,-5797,5671,-1,-1,0
22.25,11.85,-45.66,1721,-5805,5678,-1,0,-1
22.25,11.84,-45.67,1709,-5798,5663,-1,0,-1
22.25,11.84,-45.66,1702,-5795,5659,0,0,-1
22.26,11.83,-45.66,1701,-5794,5662,-1,0,-1
22.26,11.83,-45.66,1701,-5799,5659,0,0,-1
22.25,11.83,-45.65,1693,-5807,5657,0,-1,-1
22.26,11.84,-45.64,1710,-5816,5650,0,-1,-1
22.26,11.84,-45.63,1706,-5816,5672,0,-1,-1
22.27,11.85,-45.61,1715,-5796,5671,0,-1,-1
22.28,11.86,-45.59,1722,-5786,5671,0,-1,-1
22.28,11.87,-45.58,1726,-5790,5663,0,-1,0
22.28,11.86,-45.57,1711,-5798,5673,0,-1,0
22.28,11.87,-45.56,1709,-5805,5679,0,-1,0
22.28,11.86,-45.55,1689,-5801,5665,0,-1,-1
22.27,11.87,-45.54,1676,-5792,5677,0,-1,-1
22.28,11.88,-45.53,1690,-5793,5682,0,-1,-1
22.29,11.89,-45.52,1706,-5783,5681,0,-1,-1
22.29,11.91,-45.51,1709,-5772,5694,0,-1,-1
22.30,11.92,-45.49,1711,-5770,5696,0,-1,-1
22.30,11.92,-45.49,1716,-5767,5695,0,-1,-1
22.30,11.93,-45.49,1729,-5770,5700,0,-1,0
22.30,11.94,-45.49,1728,-5773,5690,0,-1,0
22.29,11.94,-45.48,1718,-5778,5699,0,-1,0
22.30,11.95,-45.47,1715,-5781,5692,0,-1,0
22.30,11.96,-45.47,1715,-5785,5690,0,-1,-1
22.30,11.96,-45.47,1721,-5796,5690,0,-1,-1
22.30,11.98,-45.46,1730,-5792,5681,0,-1,-1
22.31,11.99,-45.45,1732,-5784,5677,0,-1,0
22.30,11.99,-45.45,1732,-5777,5681,0,-1,0
22.31,12.00,-45.44,1730,-5780,5684,0,-1,-1
22.31,12.00,-45.42,1734,-5784,5689,0,-1,0
22.31,12.01,-45.41,1731,-5770,5694,0,-1,0
22.31,12.01,-45.39,1732,-5765,5697,0,-1,0
22.30,12.01,-45.38,1733,-5757,5696,0,-1,0
22.30,12.02,-45.37,1730,-5754,5708,0,-1,0
22.30,12.02,-45.37,1725,-5767,5701,0,-1,-1
22.30,12.03,-45.36,1724,-5775,5711,0,-1,0
22.30,12.03,-45.36,1718,-5773,5702,0,-1,-1
22.30,12.03,-45.36,1716,-5773,5695,0,-1,-1
22.31,12.05,-45.35,1724,-5769,5693,0,-1,-1
22.31,12.06,-45.35,1741,-5775,5707,0,-1,-1
22.31,12.07,-45.34,1745,-5774,5703,0,-1,-1
22.31,12.07,-45.34,1741,-5772,5698,0,-1,0
22.31,12.07,-45.33,1744,-5766,5693,0,-1,0
22.31,12.07,-45.32,1750,-5766,5695,0,-1,0
22.31,12.08,-45.31,1741,-5770,5703,0,-1,0
22.30,12.08,-45.31,1736,-5762,5703,0,-1,-1
22.31,12.09,-45.30,1742,-5763,5709,0,-1,-1
22.31,12.09,-45.29,1741,-5761,5703,0,-1,0
22.31,12.09,-45.28,1738,-5762,5711,0,-1,0
22.30,12.09,-45.28,1736,-5754,5695,0,-1,0
22.30,12.10,-45.28,1739,-5751,5699,0,-1,0
22.30,12.10,-45.27,1745,-5752,5696,0,-1,0
22.30,12.11,-45.27,1751,-5765,5704,0,-1,-1
22.30,12.11,-45.26,1756,-5767,5704,0,-1,0
22.30,12.12,-45.26,1754,-5753,5699,0,-1,0
22.30,12.13,-45.25,1760,-5748,5699,0,-1,0
22.31,12.13,-45.25,1752,-5747,5696,0,-1,0
22.30,12.13,-45.25,1740,-5763,5699,0,-1,0
22.29,12.13,-45.25,1740,-5767,5700,0,-1,0
22.29,12.13,-45.24,1730,-5773,5699,0,-1,0
22.28,12.12,-45.24,1730,-5766,5696,0,-1,0
22.29,12.13,-45.23,1734,-5757,5690,0,-1,0
22.29,12.13,-45.22,1736,-5752,5687,0,-1,0
22.29,12.14,-45.22,1751,-5762,5685,0,-1,-1
22.29,12.15,-45.21,1756,-5747,5703,0,-1,0
22.29,12.14,-45.20,1746,-5747,5708,0,-1,0
22.29,12.15,-45.20,1748,-5750,5706,0,-1,0
22.29,12.15,-45.20,1753,-5752,5708,0,-1,0
22.28,12.15,-45.19,1754,-5740,5714,0,-1,0
22.28,12.16,-45.18,1753,-5738,5716,0,-1,0
22.29,12.16,-45.18,1755,-5745,5712,0,-1,0
22.28,12.16,-45.18,1753,-5747,5716,0,-1,0
22.27,12.16,-45.18,1754,-5753,5704,0,-1,0
22.28,12.16,-45.18,1755,-5751,5709,0,-1,0
22.28,12.16,-45.18,1750,-5753,5713,0,-1,-1
22.27,12.16,-45.17,1748,-5746,5703,0,-1,0
22.27,12.17,-45.16,1752,-5746,5706,0,-1,0
22.27,12.17,-45.15,1759,-5735,5702,0,-1,0
22.28,12.18,-45.14,1756,-5733,5710,0,-1,0
22.27,12.18,-45.13,1755,-5730,5713,0,-1,0
22.26,12.17,-45.13,1749,-5737,5714,0,-1,0
22.26,12.17,-45.12,1746,-5744,5713,0,-1,0
22.26,12.17,-45.11,1743,-5748,5718,0,0,0
22.26,12.17,-45.11,1740,-5738,5715,0,0,0
22.26,12.17,-45.10,1737,-5740,5727,0,-1,-1
22.26,12.18,-45.10,1739,-5748,5714,0,-1,0
22.26,12.18,-45.09,1745,-5744,5715,0,-1,-1
22.26,12.18,-45.08,1753,-5734,5715,0,-1,0
22.26,12.18,-45.08,1749,-5731,5717,0,-1,0
22.25,12.18,-45.07,1753,-5738,5715,0,-1,0
22.25,12.18,-45.07,1760,-5754,5715,0,-1,0
22.25,12.19,-45.06,1749,-5744,5720,0,0,0
22.25,12.19,-45.04,1749,-5740,5719,0,-1,-1
22.26,12.19,-45.04,1752,-5733,5717,0,-1,0
22.25,12.19,-45.03,1758,-5731,5720,0,-1,0
22.25,12.20,-45.03,1755,-5732,5715,0,-1,0
22.25,12.19,-45.02,1756,-5740,5725,0,-1,0
22.24,12.20,-45.02,1758,-5744,5727,0,-1,0
22.24,12.20,-45.01,1753,-5736,5735,0,0,0
22.24,12.20,-45.00,1751,-5733,5733,0,-1,0
22.24,12.21,-45.00,1757,-5736,5724,0,-1,0
22.24,12.21,-44.99,1759,-5725,5726,0,-1,0
22.24,12.21,-44.98,1757,-5723,5742,0,-1,0
22.24,12.22,-44.98,1762,-5735,5740,0,-1,0
22.23,12.21,-44.98,1762,-5735,5725,0,0,0
22.23,12.21,-44.97,1757,-5735,5727,0,0,0
22.23,12.21,-44.96,1746,-5731,5727,0,0,-1
22.23,12.21,-44.96,1743,-5729,5729,0,0,-1
22.23,12.21,-44.95,1745,-5728,5736,0,0,-1
22.24,12.21,-44.94,1757,-5719,5738,0,-1,-1
22.24,12.21,-44.93,1760,-5721,5742,0,0,-1
22.24,12.21,-44.93,1758,-5718,5750,-1,0,0
22.24,12.21,-44.93,1757,-5712,5754,-1,0,-1
22.24,12.20,-44.94,1764,-5705,5740,-1,0,-1
22.24,12.20,-44.95,1764,-5709,5743,-1,0,-1
22.24,12.19,-44.97,1764,-5714,5737,-1,0,0
22.24,12.19,-44.98,1752,-5732,5735,-1,0,-1
22.24,12.18,-45.00,1755,-5743,5736,-1,0,-1
22.24,12.16,-45.01,1738,-5736,5719,-1,0,-1
22.25,12.16,-45.02,1739,-5731,5716,-1,0,-1
22.26,12.17,-45.04,1752,-5734,5713,-1,0,-1
22.26,12.16,-45.05,1760,-5740,5708,-1,0,-1
22.27,12.16,-45.05,1762,-5729,5711,-1,0,-1
22.28,12.15,-45.05,1764,-5720,5723,-1,0,-1
22.28,12.14,-45.06,1756,-5718,5731,-1,0,-1
22.28,12.13,-45.07,1752,-5722,5736,-1,0,-1
22.28,12.11,-45.08,1742,-5731,5730,-1,0,-1
22.28,12.11,-45.10,1736,-5740,5719,-1,0,-1
22.29,12.10,-45.11,1736,-5740,5733,-1,0,-1
22.29,12.09,-45.12,1738,-5739,5729,-1,0,-1
22.29,12.09,-45.14,1739,-5734,5718,-1,0,-1
22.30,12.08,-45.15,1742,-5733,5711,-1,0,-1
22.30,12.07,-45.17,1739,-5740,5713,-1,0,-1
22.30,12.07,-45.18,1744,-5745,5710,-1,0,-1
22.31,12.06,-45.19,1742,-5746,5727,-1,0,-1
22.31,12.04,-45.20,1735,-5744,5727,-1,0,-1
22.31,12.03,-45.21,1733,-5745,5716,-1,0,-1
22.31,12.02,-45.22,1737,-5743,5714,-1,0,-1
22.32,12.01,-45.23,1724,-5733,5712,-1,0,-1
22.31,12.00,-45.24,1727,-5749,5727,-1,0,-1
22.32,11.99,-45.25,1724,-5751,5725,-1,0,-1
22.32,11.97,-45.27,1721,-5746,5716,-1,1,-1
22.33,11.96,-45.29,1706,-5753,5718,-2,0,-1
22.33,11.95,-45.32,1715,-5752,5702,-2,0,-1
22.34,11.93,-45.34,1716,-5758,5706,-1,0,-1
22.34,11.93,-45.37,1714,-5756,5708,-1,0,-1
22.34,11.93,-45.40,1723,-5767,5705,-2,0,-1
22.35,11.93,-45.42,1724,-5765,5685,-1,0,-1
22.35,11.92,-45.44,1729,-5762,5689,-1,0,-1
22.35,11.91,-45.46,1730,-5768,5682,-1,0,-1
22.35,11.90,-45.48,1734,-5769,5690,-1,0,-1
22.35,11.89,-45.50,1720,-5778,5682,-1,0,0
22.35,11.88,-45.51,1706,-5785,5678,-1,0,-1
22.35,11.87,-45.52,1696,-5793,5670,-1,0,-1
22.35,11.87,-45.53,1694,-5793,5670,-1,0,-1
22.35,11.86,-45.53,1699,-5795,5671,-1,0,-1
22.36,11.86,-45.53,1719,-5782,5686,-1,0,-1
22.37,11.87,-45.53,1723,-5779,5680,-1,0,-1
22.37,11.86,-45.54,1719,-5777,5680,-1,0,-1
22.37,11.85,-45.55,1712,-5775,5680,-1,0,-1
22.37,11.84,-45.55,1718,-5778,5693,-1,0,0
22.37,11.83,-45.56,1709,-5781,5700,-1,0,0
22.37,11.82,-45.57,1702,-5780,5690,-1,0,-1
22.37,11.82,-45.58,1702,-5782,5687,-1,0,-1
22.37,11.81,-45.60,1704,-5792,5680,-1,0,-1
22.38,11.81,-45.62,1704,-5794,5685,-1,0,-1
22.38,11.81,-45.63,1708,-5799,5680,-1,0,-1
22.38,11.81,-45.65,1703,-5797,5676,-1,0,-1
22.39,11.80,-45.66,1709,-5790,5679,-1,0,-1
22.39,11.80,-45.68,1708,-5794,5678,-1,-1,-1
22.39,11.81,-45.70,1720,-5795,5660,-1,-1,-1
22.39,11.81,-45.70,1720,-5785,5668,-1,0,-1
22.40,11.81,-45.70,1713,-5788,5672,-1,0,0
22.39,11.81,-45.71,1702,-5793,5676,-1,0,0
22.39,11.80,-45.71,1701,-5797,5678,-1,0,-1
22.39,11.80,-45.72,1691,-5804,5675,-1,0,-1
22.39,11.80,-45.72,1698,-5806,5675,-1,-1,-1
22.40,11.81,-45.72,1704,-5794,5675,0,-1,-1
22.40,11.82,-45.72,1709,-5793,5670,0,-1,-1
22.40,11.82,-45.71,1706,-5800,5668,-1,-1,-1
22.40,11.83,-45.71,1712,-5809,5671,0,-1,-1
22.41,11.83,-45.71,1708,-5804,5671,0,-1,-1
22.41,11.84,-45.70,1714,-5800,5670,0,-1,-1
22.41,11.84,-45.69,1716,-5794,5676,0,-1,-1
22.42,11.86,-45.68,1719,-5786,5684,0,-1,-1
22.43,11.86,-45.67,1713,-5788,5680,0,-1,-1
22.43,11.87,-45.66,1713,-5782,5685,0,-1,-1
22.43,11.87,-45.66,1711,-5783,5670,0,-1,0
22.42,11.87,-45.65,1712,-5793,5668,0,-1,-1
22.43,11.89,-45.65,1721,-5796,5675,0,-1,-1
22.43,11.89,-45.63,1716,-5789,5680,0,-1,-1
22.43,11.89,-45.62,1705,-5786,5681,0,-1,-1
22.43,11.90,-45.62,1707,-5788,5680,0,-1,-1
22.43,11.90,-45.61,1713,-5790,5677,0,-1,-1
22.44,11.91,-45.61,1712,-5787,5687,0,-1,-1
22.44,11.92,-45.59,1728,-5787,5699,0,-1,-1
22.45,11.93,-45.59,1725,-5778,5703,0,-1,-1
22.44,11.94,-45.58,1730,-5771,5698,0,-1,-1
22.45,11.94,-45.57,1736,-5775,5687,0,-1,0
22.45,11.95,-45.57,1741,-5775,5684,0,-1,0
22.45,11.95,-45.57,1738,-5775,5680,0,-1,0
22.45,11.97,-45.57,1728,-5781,5687,0,0,0
22.44,11.96,-45.57,1716,-5791,5682,-1,-1,-1
22.45,11.96,-45.56,1722,-5799,5698,0,-1,-1
22.45,11.97,-45.55,1713,-5787,5686,0,-1,-1
22.45,11.97,-45.54,1714,-5782,5681,0,-1,-1
22.46,11.98,-45.53,1725,-5767,5692,0,-1,-1
22.46,11.99,-45.52,1742,-5762,5693,0,-1,-1
22.47,12.00,-45.52,1742,-5762,5693,0,-1,0
22.47,12.00,-45.51,1747,-5762,5708,0,-1,0
22.46,12.00,-45.50,1739,-5761,5705,0,0,0
22.46,12.00,-45.50,1738,-5753,5696,-1,-1,0
22.47,12.01,-45.50,1731,-5757,5700,-1,-1,0
22.46,12.01,-45.50,1733,-5763,5702,-1,-1,-1
22.47,12.02,-45.49,1738,-5766,5706,-1,-1,-1
22.47,12.02,-45.49,1739,-5764,5704,-1,-1,-1
22.47,12.03,-45.50,1739,-5769,5702,-1,-1,-1
22.47,12.03,-45.49,1739,-5772,5688,0,0,-1
22.47,12.03,-45.49,1741,-5765,5690,0,-1,0
22.48,12.04,-45.48,1739,-5768,5693,0,-1,0
22.48,12.04,-45.46,1745,-5766,5688,0,-1,0
22.48,12.04,-45.46,1743,-5760,5693,0,-1,0
22.48,12.04,-45.46,1746,-5764,5700,0,-1,0
22.48,12.04,-45.45,1741,-5759,5701,0,-1,0
22.48,12.04,-45.44,1744,-5753,5688,0,-1,-1
22.47,12.05,-45.44,1732,-5751,5703,-1,-1,0
22.48,12.05,-45.44,1738,-5752,5706,-1,-1,0
22.48,12.05,-45.44,1740,-5756,5699,-1,-1,0
22.48,12.06,-45.44,1740,-5768,5704,0,-1,-1
22.47,12.06,-45.44,1745,-5767,5700,0,0,0
22.48,12.06,-45.43,1740,-5758,5701,0,-1,-1
22.49,12.07,-45.42,1741,-5756,5698,0,-1,-1
22.49,12.08,-45.42,1747,-5759,5701,0,0,-1
22.49,12.07,-45.41,1747,-5756,5697,0,0,0
22.49,12.07,-45.41,1749,-5753,5700,0,-1,-1
22.49,12.08,-45.40,1750,-5754,5702,0,-1,-1
22.49,12.08,-45.39,1746,-5750,5701,0,0,0
22.49,12.08,-45.39,1740,-5748,5696,0,0,0
22.49,12.07,-45.38,1735,-5751,5690,0,0,0
22.48,12.07,-45.38,1733,-5749,5690,-1,-1,0
22.49,12.07,-45.38,1737,-5756,5688,-1,-1,-1
22.49,12.08,-45.38,1752,-5755,5704,0,-1,-1
22.49,12.09,-45.38,1748,-5750,5712,0,-1,-1
22.49,12.09,-45.37,1750,-5746,5709,0,-1,0
22.50,12.10,-45.37,1757,-5745,5696,0,-1,0
22.49,12.10,-45.37,1755,-5749,5697,0,-1,0
22.49,12.10,-45.37,1758,-5754,5702,0,0,0
22.49,12.10,-45.37,1762,-5756,5706,0,0,0
22.49,12.10,-45.36,1744,-5766,5705,0,-1,0
22.49,12.10,-45.36,1749,-5770,5695,0,-1,0
22.48,12.10,-45.36,1748,-5770,5688,0,-1,-1
22.49,12.10,-45.35,1747,-5748,5693,0,-1,-1
22.49,12.11,-45.34,1738,-5735,5706,0,-1,-1
22.49,12.11,-45.33,1746,-5739,5711,0,-1,0
22.49,12.12,-45.33,1758,-5748,5707,0,-1,0
22.49,12.12,-45.32,1767,-5760,5707,0,0,0
22.49,12.11,-45.30,1754,-5746,5715,0,0,0
22.49,12.10,-45.29,1734,-5718,5746,-1,-1,0
22.48,12.11,-45.30,1747,-5728,5733,-1,-1,-1
22.49,12.12,-45.31,1752,-5754,5708,-1,-1,0
22.48,12.12,-45.32,1748,-5735,5718,-1,0,0
22.47,12.12,-45.33,1749,-5730,5733,-1,-1,0
22.47,12.12,-45.36,1761,-5725,5736,-2,0,0
22.46,12.12,-45.40,1759,-5758,5713,-2,-1,0
22.46,12.11,-45.41,1751,-5747,5697,-1,0,0
22.45,12.11,-45.44,1742,-5761,5704,-1,-1,0
22.43,12.10,-45.47,1731,-5761,5690,-2,0,0
22.43,12.11,-45.49,1749,-5764,5676,-1,-1,0
22.42,12.11,-45.51,1768,-5762,5726,-2,0,0
22.41,12.10,-45.55,1744,-5774,5669,-1,0,0
22.39,12.08,-45.57,1752,-5770,5709,-2,0,0
22.38,12.07,-45.60,1754,-5766,5677,-1,0,0
22.36,12.06,-45.62,1731,-5787,5701,-1,-1,0
22.35,12.05,-45.65,1748,-5792,5673,-1,0,0
22.34,12.03,-45.66,1737,-5790,5685,-1,1,0
22.33,11.99,-45.66,1702,-5784,5669,-1,-1,0
22.33,11.99,-45.68,1727,-5763,5679,-1,1,-1
22.33,11.96,-45.69,1702,-5776,5664,-2,0,-1
22.33,11.97,-45.70,1741,-5777,5685,-1,0,0
22.34,11.97,-45.71,1726,-5791,5652,-1,1,-1
22.34,11.94,-45.70,1701,-5770,5672,0,0,-1
22.35,11.96,-45.70,1706,-5763,5685,-1,-1,-1
22.37,11.99,-45.70,1722,-5797,5652,0,-1,-1
22.41,12.00,-45.67,1738,-5787,5661,0,1,-2
22.42,12.00,-45.65,1711,-5772,5656,0,-1,-1
22.44,12.02,-45.65,1741,-5776,5681,-1,-1,-1
22.45,12.04,-45.64,1763,-5799,5677,0,0,-1
22.47,12.03,-45.63,1762,-5791,5681,0,0,-1
22.46,12.02,-45.62,1739,-5778,5672,0,0,-1
22.48,12.03,-45.60,1737,-5776,5670,0,0,-1
22.48,12.03,-45.59,1747,-5777,5666,0,0,-1
22.50,12.03,-45.57,1752,-5777,5686,0,0,-1
22.51,12.03,-45.55,1750,-5762,5700,0,0,-1
22.52,12.02,-45.53,1740,-5766,5697,0,0,-1
22.52,12.02,-45.53,1743,-5770,5692,-1,0,-1
22.53,12.01,-45.54,1739,-5774,5686,-1,0,-1
22.53,12.00,-45.54,1722,-5764,5683,-1,0,-1
22.53,12.00,-45.55,1723,-5761,5692,-1,0,-1
22.54,12.00,-45.55,1736,-5761,5693,-1,0,-1
22.54,12.00,-45.56,1731,-5762,5688,-1,0,-1
22.54,12.00,-45.57,1730,-5764,5697,-1,0,-1
22.55,11.99,-45.58,1736,-5777,5692,-1,0,-1
22.56,11.99,-45.59,1753,-5780,5691,-1,0,-1
22.56,11.99,-45.59,1732,-5779,5685,-1,0,-1
22.56,11.98,-45.60,1724,-5780,5681,-1,0,-1
22.57,11.98,-45.61,1729,-5779,5670,-1,0,-1
22.57,11.98,-45.61,1728,-5778,5681,-1,0,-1
22.58,11.98,-45.62,1733,-5783,5685,-1,0,-1
22.58,11.98,-45.62,1748,-5788,5692,-1,0,-1
22.59,11.98,-45.62,1740,-5784,5695,-1,0,-1
22.59,11.97,-45.62,1736,-5782,5688,-1,0,-1
22.59,11.96,-45.62,1733,-5780,5685,-1,0,-1
22.60,11.95,-45.62,1725,-5774,5688,-1,0,-1
22.61,11.95,-45.63,1722,-5778,5698,-1,0,-1
22.61,11.94,-45.62,1732,-5773,5695,-1,0,-1
22.61,11.94,-45.63,1734,-5777,5695,-1,0,-1
22.62,11.94,-45.63,1738,-5776,5687,-1,0,-1
22.62,11.93,-45.64,1728,-5772,5688,-1,0,-1
22.62,11.92,-45.65,1722,-5779,5687,-1,0,-1
22.62,11.92,-45.66,1723,-5783,5685,-1,0,-1
22.63,11.91,-45.66,1722,-5790,5684,-1,0,-1
22.63,11.90,-45.68,1719,-5786,5677,-1,0,-1
22.63,11.91,-45.68,1719,-5780,5682,-1,0,-1
22.63,11.90,-45.70,1719,-5778,5681,-1,0,-1
22.63,11.89,-45.71,1722,-5790,5681,-1,0,-1
22.64,11.89,-45.72,1723,-5787,5691,-1,0,-1
22.64,11.88,-45.73,1712,-5789,5680,-1,0,-1
22.65,11.88,-45.73,1716,-5787,5680,-1,0,-1
22.65,11.88,-45.74,1721,-5795,5674,-1,0,-1
22.65,11.87,-45.75,1716,-5791,5670,-1,0,-1
22.66,11.87,-45.75,1716,-5790,5669,-1,0,-1
22.65,11.87,-45.76,1711,-5797,5677,-1,0,-1
22.66,11.86,-45.75,1713,-5804,5676,-1,0,0
22.66,11.86,-45.76,1712,-5806,5675,-1,0,-1
22.66,11.87,-45.76,1717,-5810,5668,-1,0,-1
22.66,11.86,-45.76,1708,-5806,5670,0,0,-1
22.67,11.86,-45.76,1711,-5798,5665,-1,0,-1
22.67,11.86,-45.76,1709,-5794,5661,-1,0,-1
22.67,11.86,-45.76,1711,-5798,5661,-1,-1,-1
22.67,11.87,-45.77,1713,-5803,5658,-1,-1,-1
22.68,11.88,-45.76,1712,-5800,5663,0,-1,-1
22.68,11.88,-45.76,1713,-5792,5669,0,-1,-1
22.68,11.89,-45.76,1724,-5785,5666,-1,-1,-1
22.68,11.90,-45.75,1727,-5782,5669,0,-1,-1
22.69,11.91,-45.76,1726,-5785,5673,-1,0,0
22.69,11.91,-45.76,1721,-5801,5665,-1,-1,-1
22.69,11.91,-45.76,1725,-5818,5675,0,0,0
22.69,11.91,-45.76,1712,-5819,5660,0,0,-1
22.69,11.91,-45.75,1702,-5806,5664,0,-1,-1
22.70,11.92,-45.74,1708,-5804,5658,0,-1,-1
22.71,11.94,-45.73,1725,-5800,5664,0,-1,-1
22.72,11.95,-45.71,1736,-5784,5676,0,-1,-1
22.72,11.96,-45.70,1745,-5775,5689,0,-1,-1
22.72,11.96,-45.70,1744,-5775,5688,0,-1,0
22.72,11.96,-45.70,1740,-5782,5686,0,-1,0
22.72,11.96,-45.69,1728,-5779,5685,0,-1,0
22.72,11.96,-45.68,1721,-5780,5691,0,-1,-1
22.72,11.96,-45.68,1722,-5782,5694,-1,-1,-1
22.73,11.97,-45.68,1723,-5781,5695,-1,-1,-1
22.73,11.98,-45.68,1723,-5794,5688,-1,-1,-1
22.73,11.99,-45.68,1733,-5795,5684,-1,-1,-1
22.74,11.99,-45.68,1739,-5788,5679,-1,-1,-1
22.74,12.00,-45.67,1741,-5787,5675,0,-1,-1
22.74,12.00,-45.67,1739,-5792,5677,0,-1,-1
22.74,12.00,-45.66,1737,-5796,5680,0,-1,-1
22.74,12.00,-45.65,1735,-5788,5671,0,-1,0
22.75,12.01,-45.64,1730,-5780,5677,0,-1,0
22.75,12.01,-45.63,1733,-5778,5684,0,-1,-1
22.75,12.01,-45.63,1742,-5768,5689,0,-1,-1
22.75,12.02,-45.62,1736,-5766,5690,0,-1,0
22.75,12.03,-45.62,1740,-5770,5682,0,0,0
22.75,12.02,-45.62,1734,-5781,5681,-1,-1,-1
22.75,12.03,-45.62,1741,-5781,5686,0,-1,0
22.75,12.04,-45.62,1726,-5784,5670,-1,-1,-1
22.75,12.04,-45.62,1730,-5788,5665,0,-1,-1
22.76,12.05,-45.61,1732,-5782,5677,0,-1,-1
22.76,12.06,-45.60,1745,-5775,5693,0,-1,0
22.76,12.06,-45.60,1752,-5777,5684,0,-1,0
22.76,12.07,-45.59,1757,-5776,5682,0,-1,0
22.76,12.06,-45.58,1748,-5785,5681,0,0,0
22.75,12.06,-45.57,1739,-5776,5682,-1,-1,0
22.75,12.06,-45.57,1731,-5768,5688,0,-1,0
22.76,12.07,-45.57,1738,-5766,5680,0,-1,-1
22.76,12.07,-45.57,1739,-5767,5689,0,-1,-1
22.77,12.08,-45.56,1735,-5765,5692,0,-1,-1
22.76,12.08,-45.56,1737,-5758,5693,0,-1,0
22.76,12.08,-45.55,1747,-5759,5698,0,-1,0
22.76,12.09,-45.55,1751,-5764,5695,-1,-1,0
22.77,12.09,-45.54,1747,-5770,5699,0,-1,0
22.77,12.09,-45.54,1752,-5774,5696,0,-1,-1
22.77,12.09,-45.53,1749,-5768,5692,0,0,0
22.76,12.09,-45.52,1747,-5764,5708,0,0,0
22.77,12.09,-45.51,1743,-5755,5693,-1,-1,0
22.77,12.09,-45.51,1739,-5766,5696,0,-1,0
22.76,12.09,-45.51,1740,-5765,5687,0,-1,0
22.76,12.09,-45.50,1750,-5761,5696,0,-1,-1
22.76,12.10,-45.50,1750,-5761,5701,0,-1,-1
22.77,12.11,-45.50,1757,-5758,5704,0,0,-1
22.77,12.11,-45.49,1754,-5762,5696,-1,-1,0
22.77,12.12,-45.50,1772,-5764,5701,0,-1,0
22.77,12.11,-45.49,1759,-5760,5695,-1,0,0
22.76,12.11,-45.49,1749,-5774,5694,0,0,0
22.76,12.11,-45.49,1744,-5776,5693,0,-1,-1
22.76,12.11,-45.49,1746,-5776,5691,0,0,-1
22.77,12.12,-45.48,1746,-5761,5695,0,-1,-1
22.77,12.12,-45.47,1749,-5755,5697,0,-1,-1
22.78,12.12,-45.46,1756,-5750,5694,0,0,0
22.78,12.12,-45.45,1766,-5748,5704,0,0,0
22.78,12.12,-45.45,1764,-5749,5703,0,0,0
22.78,12.12,-45.44,1762,-5752,5704,-1,-1,0
22.78,12.13,-45.44,1766,-5759,5695,0,0,0
22.78,12.13,-45.44,1758,-5759,5694,-1,-1,0
22.78,12.13,-45.44,1749,-5749,5703,0,-1,0
22.78,12.13,-45.43,1741,-5748,5705,0,-1,0
22.78,12.13,-45.44,1749,-5757,5694,-1,-1,0
22.78,12.14,-45.43,1749,-5757,5702,-1,-1,0
22.78,12.14,-45.43,1755,-5763,5702,-1,0,0
22.77,12.13,-45.44,1757,-5774,5699,-1,-1,0
22.77,12.13,-45.43,1753,-5767,5700,0,0,-1
22.78,12.14,-45.43,1748,-5761,5699,0,0,-1
22.78,12.13,-45.42,1749,-5756,5700,0,0,0
22.78,12.13,-45.41,1757,-5753,5710,0,0,-1
22.78,12.13,-45.41,1754,-5749,5713,-1,0,0
22.78,12.14,-45.41,1757,-5748,5705,-1,-1,0
22.78,12.14,-45.41,1754,-5744,5706,-1,-1,0
22.78,12.14,-45.41,1760,-5749,5703,0,-1,0
22.77,12.14,-45.41,1751,-5746,5706,-1,-1,0
22.78,12.14,-45.41,1745,-5755,5700,-1,-1,-1
22.78,12.15,-45.41,1750,-5754,5696,0,-1,-1
22.77,12.16,-45.41,1755,-5760,5699,0,-1,-1
22.78,12.16,-45.40,1757,-5752,5697,0,-1,0
22.78,12.17,-45.39,1762,-5745,5700,0,-1,0
22.78,12.17,-45.38,1768,-5745,5695,0,-1,0
22.78,12.17,-45.38,1763,-5750,5696,0,0,0
22.77,12.16,-45.37,1763,-5750,5698,0,-1,0
22.78,12.16,-45.35,1761,-5747,5694,0,0,-1
22.78,12.16,-45.34,1750,-5742,5697,0,0,0
22.78,12.16,-45.34,1753,-5745,5700,0,-1,0
22.78,12.17,-45.33,1752,-5743,5704,0,-1,0
22.78,12.17,-45.32,1766,-5743,5713,0,-1,0
22.78,12.17,-45.31,1770,-5741,5716,0,0,0
22.78,12.17,-45.30,1759,-5736,5705,0,0,0
22.77,12.16,-45.31,1755,-5727,5712,-1,0,0
22.77,12.16,-45.32,1751,-5743,5723,-1,0,0
22.77,12.15,-45.32,1761,-5747,5742,-1,0,-1
22.77,12.12,-45.33,1752,-5739,5740,-1,1,-1
22.78,12.11,-45.36,1751,-5747,5734,-1,0,-1
22.78,12.10,-45.37,1755,-5733,5750,-2,0,-1
22.78,12.10,-45.42,1768,-5720,5735,-3,0,-1
22.78,12.08,-45.47,1744,-5703,5706,-3,1,0
22.78,12.06,-45.52,1736,-5736,5690,-2,0,-1
22.78,12.06,-45.57,1753,-5747,5705,-3,0,0
22.78,12.05,-45.62,1752,-5755,5711,-2,0,-1
22.78,12.04,-45.66,1733,-5776,5665,-2,1,-1
22.78,12.04,-45.71,1729,-5785,5678,-2,-1,-1
22.79,12.04,-45.74,1733,-5771,5680,-2,0,-1
22.80,12.05,-45.78,1738,-5822,5651,-2,-1,-1
22.80,12.07,-45.81,1759,-5825,5638,-1,-1,0
22.81,12.07,-45.83,1767,-5821,5639,-1,0,-1
22.82,12.07,-45.83,1766,-5803,5660,-1,0,-1
22.82,12.06,-45.84,1769,-5826,5647,-1,-1,-1
22.82,12.06,-45.84,1787,-5828,5639,0,1,0
22.83,12.04,-45.81,1759,-5806,5652,0,1,-1
22.83,12.02,-45.79,1741,-5802,5649,0,0,-1
22.84,12.01,-45.77,1739,-5783,5674,0,0,-1
22.84,12.00,-45.76,1722,-5786,5686,0,0,-1
22.85,11.99,-45.75,1718,-5794,5677,-1,0,-1
22.85,11.99,-45.75,1722,-5788,5667,0,0,-1
22.86,11.99,-45.74,1724,-5774,5687,-1,0,-1
22.87,11.99,-45.73,1723,-5773,5685,-1,0,-1
22.88,11.99,-45.74,1728,-5775,5667,-1,0,-1
22.88,11.99,-45.74,1729,-5778,5664,-1,0,-1
22.89,11.97,-45.74,1731,-5775,5683,-1,0,-1
22.90,11.97,-45.76,1739,-5786,5694,-1,0,-1
22.90,11.96,-45.78,1730,-5796,5698,-2,0,-1
22.90,11.96,-45.81,1733,-5806,5666,-2,0,-1
22.90,11.96,-45.84,1734,-5804,5668,-2,0,-1
22.90,11.96,-45.87,1722,-5793,5669,-2,0,-1
22.90,11.96,-45.91,1732,-5800,5658,-2,0,-1
22.91,11.96,-45.92,1741,-5805,5654,-1,0,-1
22.91,11.95,-45.95,1730,-5799,5655,-2,0,0
22.90,11.95,-45.98,1737,-5815,5653,-2,-1,-1
22.91,11.95,-46.00,1753,-5804,5647,-1,1,-1
22.91,11.93,-46.01,1718,-5822,5654,-2,0,-1
22.90,11.92,-46.04,1731,-5838,5613,-1,0,-1
22.92,11.92,-46.05,1728,-5827,5650,-1,0,-1
22.91,11.92,-46.07,1729,-5830,5628,-1,0,0
22.92,11.92,-46.07,1739,-5825,5647,-1,0,-1
22.92,11.90,-46.08,1715,-5838,5636,-1,0,0
22.92,11.89,-46.08,1713,-5832,5619,0,0,0
22.92,11.88,-46.07,1727,-5816,5643,-1,0,-1
22.93,11.88,-46.07,1728,-5828,5645,0,0,-1
22.93,11.88,-46.05,1723,-5833,5649,0,0,-1
22.95,11.88,-46.04,1713,-5833,5642,0,0,-1
22.95,11.87,-46.02,1718,-5828,5656,0,0,-1
22.95,11.87,-46.00,1715,-5818,5664,0,-1,-1
22.96,11.87,-45.99,1716,-5815,5660,0,0,-1
22.96,11.88,-45.98,1712,-5818,5653,0,-1,-1
22.96,11.88,-45.98,1715,-5822,5658,0,0,-1
22.97,11.89,-45.97,1721,-5820,5659,0,-1,-1
22.98,11.89,-45.97,1717,-5813,5649,-1,0,-1
22.98,11.89,-45.97,1706,-5807,5647,0,-1,-1
22.99,11.90,-45.97,1711,-5814,5635,0,-1,-1
22.98,11.90,-45.97,1711,-5819,5647,0,-1,-1
22.98,11.91,-45.96,1712,-5816,5648,0,-1,-1
22.99,11.92,-45.95,1714,-5823,5659,0,-1,-1
23.00,11.93,-45.94,1724,-5820,5660,0,-1,-1
23.00,11.93,-45.93,1731,-5817,5650,0,-1,-1
23.00,11.94,-45.92,1728,-5814,5657,0,-1,-1
23.00,11.94,-45.91,1729,-5801,5659,0,0,0
23.00,11.94,-45.90,1723,-5806,5659,0,-1,0
23.00,11.95,-45.90,1724,-5801,5663,0,-1,-1
23.01,11.95,-45.89,1724,-5802,5668,0,-1,-1
23.00,11.96,-45.89,1716,-5803,5662,0,-1,-1
23.01,11.96,-45.88,1729,-5822,5660,0,-1,-1
23.01,11.96,-45.87,1714,-5809,5659,0,-1,-1
23.01,11.97,-45.86,1715,-5799,5656,0,-1,-1
23.02,11.98,-45.86,1730,-5796,5654,0,-1,-1
23.03,11.99,-45.85,1739,-5802,5648,0,-1,-1
23.03,12.00,-45.84,1737,-5801,5657,0,-1,-1
23.03,12.00,-45.84,1740,-5798,5662,0,-1,0
23.03,12.01,-45.84,1736,-5800,5664,0,-1,0
23.03,12.01,-45.83,1733,-5802,5659,-1,-1,0
23.03,12.01,-45.83,1734,-5801,5666,0,-1,-1
23.04,12.02,-45.82,1731,-5797,5668,0,-1,-1
23.04,12.02,-45.82,1729,-5799,5665,0,-1,-1
23.04,12.03,-45.81,1732,-5799,5675,0,-1,-1
23.04,12.03,-45.80,1738,-5798,5676,0,-1,0
23.04,12.04,-45.80,1735,-5798,5669,0,-1,0
23.04,12.04,-45.79,1735,-5796,5671,0,-1,0
23.04,12.04,-45.78,1741,-5800,5673,0,-1,0
23.04,12.05,-45.78,1740,-5801,5670,0,-1,-1
23.05,12.05,-45.77,1742,-5801,5676,0,-1,-1
23.05,12.05,-45.76,1737,-5792,5670,0,0,0
23.05,12.06,-45.76,1745,-5782,5667,0,-1,0
23.05,12.06,-45.76,1747,-5785,5669,0,-1,0
23.05,12.07,-45.75,1743,-5784,5673,0,0,0
23.05,12.06,-45.74,1736,-5783,5666,-1,-1,-1
23.06,12.08,-45.74,1748,-5784,5685,0,-1,-1
23.06,12.08,-45.73,1740,-5784,5668,-1,0,-1
23.05,12.08,-45.73,1743,-5777,5658,0,-1,-1
23.06,12.09,-45.73,1753,-5778,5663,0,-1,-1
23.06,12.09,-45.72,1762,-5779,5667,0,-1,0
23.07,12.10,-45.71,1761,-5782,5677,0,-1,0
23.07,12.10,-45.71,1751,-5791,5672,0,-1,0
23.06,12.10,-45.71,1740,-5792,5666,0,0,0
23.06,12.09,-45.71,1730,-5795,5669,0,-1,0
23.06,12.10,-45.70,1734,-5789,5666,0,-1,-1
23.06,12.11,-45.70,1743,-5782,5667,0,-1,-1
23.07,12.11,-45.68,1757,-5778,5679,0,-1,-1
23.07,12.12,-45.67,1759,-5777,5678,0,-1,-1
23.08,12.13,-45.66,1774,-5770,5681,0,0,0
23.08,12.12,-45.65,1767,-5770,5682,0,0,0
23.07,12.12,-45.65,1752,-5768,5686,0,-1,0
23.07,12.12,-45.64,1743,-5773,5688,0,0,0
23.08,12.12,-45.63,1736,-5771,5687,0,-1,0
23.07,12.12,-45.63,1742,-5767,5701,-1,-1,0
23.07,12.13,-45.63,1749,-5780,5698,-1,-1,0
23.07,12.13,-45.63,1744,-5785,5687,-1,-1,-1
23.07,12.14,-45.63,1750,-5779,5676,-1,-1,-1
23.08,12.15,-45.63,1758,-5774,5673,0,-1,-1
23.08,12.15,-45.63,1767,-5772,5671,0,0,0
23.08,12.15,-45.62,1755,-5771,5664,0,-1,0
23.08,12.15,-45.61,1767,-5776,5679,0,-1,0
23.08,12.15,-45.60,1757,-5764,5690,0,-1,0
23.08,12.15,-45.60,1752,-5768,5679,0,0,-1
23.08,12.16,-45.60,1752,-5768,5685,-1,-1,-1
23.09,12.16,-45.60,1761,-5769,5676,0,0,-1
23.09,12.16,-45.59,1761,-5766,5674,-1,-1,0
23.09,12.17,-45.59,1763,-5762,5687,-1,-1,0
23.09,12.17,-45.59,1758,-5767,5687,0,0,0
23.09,12.17,-45.59,1757,-5774,5676,-1,-1,0
23.09,12.17,-45.59,1758,-5779,5682,0,0,-1
23.09,12.17,-45.59,1757,-5780,5681,-1,-1,-1
23.09,12.17,-45.58,1761,-5773,5678,0,0,0
23.09,12.18,-45.58,1764,-5767,5678,0,-1,-1
23.09,12.18,-45.58,1767,-5770,5674,0,0,-1
23.10,12.18,-45.57,1772,-5771,5680,0,0,0
23.10,12.18,-45.56,1766,-5768,5679,0,-1,0
23.10,12.18,-45.56,1761,-5767,5682,0,-1,0
23.10,12.18,-45.56,1770,-5765,5691,0,0,0
23.10,12.18,-45.55,1759,-5771,5692,-1,-1,-1
23.10,12.18,-45.55,1763,-5772,5686,-1,-1,0
23.10,12.19,-45.55,1766,-5776,5684,-1,-1,-1
23.11,12.20,-45.55,1774,-5774,5677,0,0,-1
23.10,12.19,-45.55,1770,-5773,5690,-1,0,0
23.10,12.19,-45.55,1763,-5767,5693,-1,0,0
23.10,12.18,-45.55,1753,-5765,5684,-1,-1,0
23.10,12.19,-45.55,1764,-5767,5680,0,-1,0
23.10,12.19,-45.54,1770,-5768,5683,0,-1,0
23.10,12.19,-45.54,1763,-5762,5697,0,-1,0
23.09,12.19,-45.53,1770,-5748,5696,0,0,0
23.09,12.20,-45.54,1771,-5758,5686,-1,-1,0
23.09,12.20,-45.54,1781,-5759,5687,0,0,0
23.10,12.20,-45.52,1777,-5758,5680,0,0,0
23.09,12.19,-45.51,1756,-5765,5692,0,-1,0
23.09,12.19,-45.51,1755,-5774,5701,0,-1,0
23.09,12.19,-45.51,1757,-5777,5697,0,0,0
23.10,12.19,-45.50,1755,-5771,5702,0,0,-1
23.10,12.19,-45.49,1753,-5769,5708,0,-1,-1
23.10,12.19,-45.48,1759,-5763,5703,0,-1,0
23.10,12.19,-45.48,1771,-5760,5687,0,-1,0
23.10,12.19,-45.47,1768,-5741,5701,0,0,0
23.09,12.19,-45.47,1766,-5748,5700,-1,-1,0
23.09,12.18,-45.46,1771,-5758,5702,0,-1,0
23.08,12.18,-45.46,1762,-5753,5717,-1,0,0
23.07,12.17,-45.46,1758,-5749,5722,-1,0,0
23.07,12.17,-45.47,1759,-5761,5706,-1,-1,0
23.07,12.17,-45.48,1767,-5758,5704,-1,0,-1
23.07,12.17,-45.49,1752,-5756,5710,-1,0,-1
23.07,12.17,-45.49,1748,-5756,5691,-1,0,-1
23.08,12.17,-45.51,1761,-5765,5690,-1,0,-1
23.08,12.16,-45.52,1756,-5773,5683,-1,0,-1
23.09,12.16,-45.52,1751,-5763,5682,-1,0,-1
23.10,12.16,-45.52,1751,-5769,5672,-1,0,-1
23.10,12.16,-45.52,1754,-5769,5681,-1,0,-1
23.12,12.16,-45.52,1761,-5757,5688,-1,0,-1
23.12,12.15,-45.52,1763,-5757,5697,-1,0,-1
23.13,12.15,-45.53,1767,-5771,5701,-1,0,-1
23.13,12.13,-45.53,1763,-5766,5703,-1,0,-1
23.13,12.12,-45.54,1747,-5769,5702,-1,0,-1
23.14,12.12,-45.55,1741,-5775,5691,-1,0,-1
23.14,12.12,-45.57,1751,-5780,5682,-1,0,-1
23.15,12.11,-45.58,1752,-5776,5695,-1,0,-1
23.16,12.11,-45.59,1745,-5767,5689,-1,0,-1
23.16,12.11,-45.60,1758,-5776,5678,-1,0,-1
23.16,12.10,-45.61,1750,-5778,5673,-1,0,-1
23.17,12.10,-45.62,1757,-5784,5670,-1,0,-1
23.17,12.10,-45.61,1743,-5779,5683,-1,0,-1
23.17,12.09,-45.61,1742,-5777,5682,-1,0,-1
23.18,12.09,-45.62,1750,-5780,5687,-1,0,-1
23.19,12.08,-45.62,1745,-5773,5691,-1,0,-1
23.19,12.08,-45.63,1743,-5773,5683,-1,0,-1
23.19,12.07,-45.63,1740,-5773,5687,-1,0,-1
23.19,12.07,-45.63,1743,-5774,5687,-1,0,-1
23.20,12.06,-45.64,1750,-5775,5691,-1,0,-1
23.21,12.06,-45.65,1749,-5781,5696,-1,0,-1
23.21,12.06,-45.66,1747,-5788,5686,-1,0,-1
23.22,12.05,-45.66,1746,-5781,5691,-1,0,-1
23.22,12.04,-45.67,1740,-5773,5697,-1,0,-1
23.21,12.02,-45.68,1733,-5771,5684,-1,0,0
23.22,12.02,-45.69,1734,-5792,5681,-1,0,-1
23.22,12.01,-45.70,1742,-5792,5686,-1,0,-1
23.23,12.00,-45.71,1733,-5793,5687,-1,0,-1
23.23,12.00,-45.73,1733,-5782,5689,-1,0,-1
23.24,12.00,-45.73,1744,-5778,5684,-1,0,-1
23.25,11.99,-45.75,1743,-5782,5662,-1,0,-1
23.25,11.98,-45.76,1744,-5792,5656,-1,0,-1
23.24,11.97,-45.78,1734,-5803,5677,-1,0,0
23.24,11.96,-45.78,1717,-5805,5682,-1,0,0
23.24,11.95,-45.80,1716,-5810,5668,-1,0,-1
23.24,11.94,-45.81,1712,-5807,5664,-1,0,-1
23.25,11.94,-45.81,1714,-5807,5657,-1,0,-1
23.25,11.93,-45.82,1721,-5799,5667,-1,0,-1
23.26,11.93,-45.82,1728,-5796,5668,-1,0,-1
23.26,11.92,-45.83,1733,-5798,5660,-1,0,-1
23.27,11.92,-45.84,1727,-5799,5665,-1,0,-1
23.26,11.91,-45.84,1726,-5804,5661,-1,0,0
23.27,11.90,-45.85,1716,-5801,5666,-1,0,-1
23.26,11.89,-45.85,1717,-5805,5664,-1,0,-1
23.27,11.89,-45.86,1716,-5801,5661,-1,0,-1
23.27,11.88,-45.87,1719,-5808,5672,-1,0,-1
23.27,11.87,-45.88,1716,-5812,5677,-1,0,-1
23.27,11.87,-45.89,1722,-5805,5692,-1,0,0
23.27,11.88,-45.93,1712,-5805,5668,-2,-1,-1
23.27,11.87,-45.95,1712,-5822,5640,-1,0,-1
23.27,11.87,-45.96,1717,-5819,5654,-1,0,0
23.27,11.86,-45.97,1711,-5819,5649,-1,0,-1
23.27,11.86,-45.98,1713,-5807,5629,-1,0,-1
23.27,11.87,-45.99,1728,-5823,5638,-1,0,0
23.27,11.87,-46.00,1731,-5808,5653,-1,-1,0
23.28,11.87,-46.00,1725,-5814,5644,-1,0,-1
23.27,11.87,-46.00,1716,-5822,5651,-1,-1,-1
23.28,11.87,-46.00,1716,-5839,5637,-1,0,-1
23.28,11.87,-46.00,1708,-5825,5641,-1,-1,-1
23.28,11.87,-46.00,1714,-5818,5639,0,-1,-1
23.28,11.88,-46.00,1719,-5824,5627,0,-1,-1
23.29,11.89,-46.00,1718,-5821,5619,0,-1,-1
23.29,11.90,-45.99,1719,-5817,5625,0,-1,-1
23.30,11.91,-45.97,1729,-5820,5641,0,-1,-1
23.31,11.91,-45.95,1724,-5816,5645,0,-1,-1
23.31,11.92,-45.94,1729,-5804,5645,0,-1,-1
23.32,11.93,-45.93,1732,-5801,5656,0,-1,-1
23.32,11.93,-45.92,1727,-5799,5651,0,-1,0
23.32,11.94,-45.92,1726,-5809,5654,0,-1,-1
23.33,11.95,-45.91,1720,-5799,5665,-1,-1,-1
23.33,11.97,-45.91,1733,-5808,5652,0,-1,-1
23.33,11.97,-45.91,1726,-5808,5637,0,-1,-1
23.34,11.98,-45.90,1732,-5804,5635,0,-1,-1
23.34,11.98,-45.89,1733,-5795,5659,-1,-1,-1
23.34,11.99,-45.89,1733,-5801,5658,-1,-1,-1
23.34,12.00,-45.89,1736,-5815,5655,0,-1,0
23.35,12.00,-45.89,1746,-5807,5666,0,-1,-1
23.35,12.00,-45.88,1741,-5798,5675,0,-1,-1
23.35,12.02,-45.87,1741,-5789,5665,-1,-1,-1
23.36,12.02,-45.87,1740,-5795,5656,-1,-1,-1
23.36,12.03,-45.87,1754,-5798,5653,0,-1,0
23.35,12.03,-45.87,1742,-5803,5668,0,0,0
23.35,12.02,-45.86,1739,-5810,5673,0,0,0
23.35,12.02,-45.86,1723,-5811,5668,0,-1,-1
23.36,12.03,-45.85,1720,-5800,5658,0,-1,-1
23.36,12.03,-45.84,1728,-5803,5663,0,-1,-1
23.36,12.04,-45.83,1745,-5798,5674,0,-1,-1
23.37,12.05,-45.83,1748,-5794,5664,0,-1,-1
23.37,12.05,-45.82,1749,-5793,5671,-1,-1,0
23.37,12.05,-45.82,1749,-5782,5666,0,-1,0
23.37,12.06,-45.81,1751,-5790,5663,0,0,0
23.37,12.06,-45.81,1746,-5799,5664,-1,-1,0
23.37,12.06,-45.81,1742,-5793,5668,0,0,0
23.37,12.06,-45.81,1730,-5795,5665,-1,-1,0
23.37,12.05,-45.81,1725,-5795,5668,-1,-1,-1
23.37,12.06,-45.81,1735,-5795,5657,-1,-1,-1
23.37,12.06,-45.82,1744,-5799,5650,-1,0,-1
23.37,12.06,-45.82,1745,-5810,5659,-1,-1,0
23.37,12.07,-45.82,1758,-5806,5667,-1,0,0
23.38,12.06,-45.82,1751,-5789,5689,-1,0,0
23.36,12.05,-45.83,1735,-5795,5657,-1,-1,0
23.36,12.05,-45.83,1748,-5805,5672,-1,0,-1
23.36,12.05,-45.84,1742,-5802,5669,-1,0,0
23.36,12.04,-45.84,1736,-5793,5668,-1,0,0
23.36,12.05,-45.84,1725,-5785,5701,-1,-1,0
23.35,12.05,-45.87,1724,-5812,5661,-1,-1,0
23.35,12.06,-45.88,1739,-5807,5667,-1,-1,-1
23.35,12.06,-45.89,1749,-5806,5654,-1,0,0
23.34,12.06,-45.90,1728,-5812,5654,-1,-1,0
23.34,12.06,-45.91,1746,-5814,5646,-1,0,-1
23.35,12.06,-45.91,1750,-5823,5654,0,-1,0
23.34,12.06,-45.91,1738,-5819,5655,-1,0,0
23.35,12.06,-45.90,1746,-5816,5663,0,0,0
23.34,12.06,-45.90,1746,-5815,5648,0,-1,0
23.34,12.06,-45.90,1751,-5810,5658,0,0,0
23.34,12.05,-45.89,1739,-5803,5640,0,0,-1
23.34,12.05,-45.87,1746,-5796,5674,0,0,0
23.34,12.05,-45.86,1752,-5797,5654,0,0,0
23.34,12.05,-45.85,1737,-5791,5674,0,0,0
23.34,12.05,-45.85,1727,-5790,5670,-1,-1,-1
23.34,12.05,-45.85,1721,-5804,5665,0,-1,-1
23.35,12.07,-45.85,1737,-5805,5656,0,-1,-1
23.35,12.07,-45.83,1751,-5795,5661,0,-1,-1
23.36,12.08,-45.82,1751,-5787,5671,0,-1,0
23.35,12.09,-45.81,1762,-5797,5664,0,-1,-1
23.36,12.10,-45.80,1768,-5793,5666,0,-1,0
23.36,12.10,-45.79,1765,-5796,5661,0,0,0
23.36,12.10,-45.78,1758,-5795,5666,0,-1,0
23.36,12.10,-45.76,1753,-5796,5672,0,-1,-1
23.36,12.11,-45.75,1737,-5801,5671,0,-1,-1
23.36,12.12,-45.74,1734,-5798,5668,0,-1,-1
23.37,12.12,-45.72,1737,-5794,5673,0,-1,-1
23.37,12.13,-45.70,1748,-5779,5671,0,-1,-1
23.38,12.14,-45.69,1755,-5771,5672,0,-1,-1
23.39,12.14,-45.67,1766,-5769,5680,0,-1,0
23.38,12.15,-45.66,1772,-5766,5691,0,-1,0
23.38,12.15,-45.66,1761,-5771,5685,0,0,0
23.38,12.14,-45.66,1754,-5770,5687,0,-1,0
23.38,12.15,-45.65,1748,-5765,5692,-1,-1,0
23.38,12.15,-45.65,1749,-5766,5684,-1,-1,-1
23.38,12.15,-45.65,1755,-5776,5679,-1,-1,-1
23.38,12.16,-45.65,1764,-5775,5669,-1,-1,0
23.38,12.17,-45.65,1760,-5785,5670,-1,-1,-1
23.39,12.17,-45.65,1772,-5784,5681,0,-1,0
23.39,12.18,-45.64,1756,-5786,5677,0,-1,-1
23.39,12.18,-45.64,1753,-5789,5671,0,-1,-1
23.39,12.18,-45.63,1760,-5774,5667,0,-1,-1
23.40,12.19,-45.61,1768,-5771,5669,0,0,-1
23.41,12.18,-45.59,1773,-5763,5672,0,0,-1
23.41,12.18,-45.57,1768,-5754,5688,0,-1,0
23.40,12.18,-45.56,1763,-5761,5699,0,0,0
23.40,12.18,-45.56,1754,-5759,5694,0,-1,0
23.40,12.17,-45.55,1753,-5759,5699,0,-1,0
23.40,12.18,-45.54,1756,-5763,5687,0,-1,-1
23.40,12.18,-45.54,1751,-5766,5682,0,-1,-1
23.40,12.18,-45.54,1754,-5763,5684,-1,-1,-1
23.40,12.19,-45.54,1755,-5759,5678,-1,-1,0
23.41,12.20,-45.54,1766,-5759,5676,-1,0,0
23.41,12.20,-45.54,1761,-5757,5687,-1,0,-1
23.41,12.20,-45.54,1767,-5758,5684,-1,0,-1
23.41,12.19,-45.55,1767,-5758,5678,-1,0,-1
23.41,12.19,-45.55,1774,-5765,5679,-1,0,-1
23.41,12.19,-45.55,1768,-5766,5682,-1,0,-1
23.42,12.18,-45.56,1766,-5763,5683,-1,0,-1
23.42,12.18,-45.56,1760,-5768,5681,-1,0,-1
23.42,12.18,-45.57,1758,-5767,5690,-1,0,-1
23.43,12.18,-45.57,1760,-5771,5677,-1,0,-1
23.43,12.17,-45.57,1756,-5775,5677,-1,0,-1
23.45,12.17,-45.57,1753,-5768,5680,-1,0,-1
23.44,12.16,-45.58,1751,-5764,5684,-1,0,-1
23.44,12.16,-45.59,1744,-5765,5679,-1,0,-1
23.45,12.15,-45.59,1762,-5771,5697,-1,0,-1
23.45,12.14,-45.59,1747,-5759,5702,-1,0,-1
23.46,12.15,-45.60,1748,-5766,5696,-1,0,-1
23.47,12.16,-45.60,1763,-5771,5692,-1,0,-1
23.47,12.15,-45.61,1771,-5776,5681,-1,0,-1
23.48,12.15,-45.62,1775,-5771,5679,-1,0,-1
23.48,12.15,-45.63,1765,-5772,5675,-1,0,-1
23.49,12.14,-45.64,1765,-5779,5685,-1,0,0
23.48,12.13,-45.65,1756,-5790,5675,-1,0,-1
23.48,12.12,-45.66,1744,-5803,5660,-1,0,-1
23.49,12.11,-45.66,1737,-5791,5664,-1,0,-1
23.50,12.12,-45.66,1743,-5790,5673,-1,0,-1
23.50,12.12,-45.66,1752,-5782,5678,-1,0,-1
23.51,12.12,-45.66,1761,-5775,5673,-1,0,-1
23.51,12.11,-45.66,1762,-5771,5676,-1,0,-1
23.52,12.10,-45.66,1761,-5775,5678,-1,0,0
23.52,12.10,-45.67,1755,-5776,5677,-1,0,-1
23.51,12.08,-45.68,1750,-5782,5688,-1,0,-1
23.52,12.07,-45.69,1739,-5792,5682,-1,0,-1
23.52,12.07,-45.70,1742,-5791,5683,-1,0,-1
23.52,12.07,-45.72,1744,-5785,5671,-1,0,-1
23.53,12.07,-45.73,1747,-5785,5665,-1,0,-1
23.54,12.07,-45.74,1746,-5788,5662,-1,0,-1
23.53,12.06,-45.76,1757,-5799,5648,-1,0,-1
23.54,12.05,-45.76,1747,-5795,5653,-1,0,-1
23.54,12.04,-45.77,1743,-5799,5653,-1,0,-1
23.55,12.04,-45.76,1742,-5791,5656,-1,0,-1
23.55,12.03,-45.76,1743,-5786,5671,-1,0,-1
23.56,12.03,-45.77,1747,-5786,5678,-1,0,-1
23.56,12.02,-45.77,1737,-5786,5683,-1,0,-1
23.56,12.00,-45.78,1737,-5781,5695,-1,0,0
23.55,11.99,-45.79,1731,-5789,5687,-1,0,-1
23.56,11.97,-45.80,1731,-5788,5682,-1,0,-1
23.57,11.97,-45.82,1737,-5790,5675,-1,0,-1
23.57,11.97,-45.84,1736,-5796,5667,-1,0,-1
23.57,11.97,-45.85,1734,-5804,5660,-1,0,-1
23.57,11.96,-45.87,1726,-5803,5659,-1,0,-1
23.57,11.96,-45.88,1728,-5813,5648,-1,0,-1
23.58,11.95,-45.89,1731,-5808,5651,-1,0,-1
23.58,11.94,-45.90,1731,-5810,5652,-1,0,-1
23.58,11.94,-45.90,1729,-5804,5656,-1,0,0
23.58,11.94,-45.91,1736,-5810,5657,-1,0,-1
23.59,11.94,-45.92,1736,-5804,5652,-1,0,0
23.58,11.92,-45.92,1726,-5801,5653,-1,0,-1
23.59,11.92,-45.92,1718,-5802,5651,-1,0,-1
23.59,11.91,-45.93,1723,-5815,5654,-1,0,-1
23.59,11.91,-45.93,1717,-5813,5660,-1,0,0
23.59,11.90,-45.93,1712,-5812,5667,-1,0,-1
23.59,11.90,-45.93,1720,-5812,5663,-1,-1,-1
23.60,11.91,-45.94,1728,-5819,5651,-1,0,-1
23.60,11.90,-45.94,1723,-5813,5647,0,0,-1
23.60,11.90,-45.94,1716,-5800,5647,-1,-1,0
23.60,11.90,-45.94,1710,-5805,5647,-1,0,0
23.60,11.90,-45.94,1705,-5807,5634,-1,0,0
23.58,11.91,-45.96,1700,-5818,5639,-1,-2,0
23.58,11.92,-45.97,1718,-5820,5639,0,-1,-1
23.58,11.92,-45.97,1706,-5818,5649,-1,-1,-1
23.59,11.93,-45.96,1712,-5816,5650,0,-1,-1
23.59,11.94,-45.96,1722,-5806,5649,-1,-1,-1
23.59,11.95,-45.96,1725,-5811,5638,0,-1,0
23.59,11.97,-45.97,1729,-5822,5634,0,-1,0
23.58,11.97,-45.96,1724,-5837,5635,0,-1,0
23.58,11.96,-45.95,1715,-5839,5638,0,-1,0
23.58,11.97,-45.94,1705,-5838,5633,0,-1,-1
23.58,11.97,-45.93,1717,-5836,5638,0,-1,-1
23.59,11.99,-45.92,1727,-5826,5649,0,-1,-1
23.59,12.00,-45.90,1725,-5812,5657,0,-1,-1
23.60,12.01,-45.88,1735,-5816,5664,0,-1,-1
23.60,12.02,-45.87,1730,-5801,5658,0,-1,0
23.60,12.02,-45.85,1735,-5798,5669,0,-1,-1
23.60,12.04,-45.84,1735,-5805,5665,0,-1,-1
23.61,12.04,-45.83,1731,-5805,5654,0,-1,-1
23.61,12.06,-45.82,1734,-5799,5661,0,-1,-1
23.61,12.07,-45.82,1734,-5802,5664,0,-1,-1
23.61,12.08,-45.81,1733,-5807,5669,0,-1,0
23.61,12.09,-45.81,1736,-5815,5658,0,-1,0
23.61,12.10,-45.80,1737,-5817,5659,0,-1,0
23.61,12.11,-45.79,1741,-5818,5655,0,-1,-1
23.61,12.12,-45.78,1739,-5813,5652,0,-1,-1
23.61,12.12,-45.77,1743,-5808,5658,0,-1,0
23.61,12.13,-45.75,1741,-5798,5660,0,-1,0
23.61,12.13,-45.73,1743,-5799,5663,0,-1,0
23.60,12.13,-45.72,1741,-5789,5665,0,-1,0
23.61,12.14,-45.71,1745,-5786,5670,0,-1,0
23.61,12.14,-45.70,1742,-5788,5674,0,-1,0
23.61,12.14,-45.70,1739,-5793,5675,0,-1,0
23.60,12.15,-45.69,1737,-5801,5673,0,-1,0
23.61,12.16,-45.69,1739,-5800,5672,0,-1,-1
23.60,12.16,-45.69,1736,-5796,5666,0,-1,0
23.60,12.17,-45.68,1743,-5793,5666,0,-1,0
23.60,12.18,-45.67,1744,-5793,5667,0,-1,0
23.60,12.18,-45.68,1754,-5802,5656,0,-1,0
23.60,12.18,-45.68,1747,-5805,5664,0,-1,0
23.59,12.18,-45.67,1741,-5801,5653,0,-1,-1
23.59,12.19,-45.67,1735,-5796,5658,0,-1,0
23.60,12.19,-45.66,1743,-5797,5660,0,-1,0
23.60,12.20,-45.65,1743,-5784,5657,0,-1,0
23.59,12.20,-45.64,1751,-5783,5661,0,-1,0
23.59,12.21,-45.63,1749,-5786,5666,0,-1,0
23.59,12.21,-45.63,1744,-5787,5658,0,-1,0
23.58,12.21,-45.63,1742,-5787,5657,0,-1,-1
23.59,12.21,-45.62,1745,-5792,5663,0,-1,0
23.58,12.21,-45.62,1743,-5783,5665,0,-1,0
23.58,12.21,-45.62,1737,-5785,5662,-1,-1,0
23.58,12.21,-45.62,1745,-5786,5659,-1,-1,0
23.58,12.22,-45.62,1746,-5791,5658,0,-1,0
23.58,12.23,-45.62,1753,-5796,5661,0,-1,0
23.57,12.23,-45.62,1757,-5792,5667,0,-1,-1
23.58,12.24,-45.61,1758,-5790,5661,0,-1,0
23.58,12.24,-45.60,1758,-5783,5664,0,-1,-1
23.57,12.25,-45.61,1758,-5781,5659,0,-1,0
23.57,12.24,-45.61,1753,-5780,5659,0,-1,0
23.57,12.25,-45.60,1755,-5788,5667,0,-1,0
23.56,12.25,-45.60,1743,-5797,5659,0,-1,0
23.56,12.25,-45.59,1751,-5795,5661,0,-1,0
23.56,12.25,-45.58,1744,-5791,5655,0,-1,-1
23.56,12.26,-45.57,1750,-5784,5660,0,-1,0
23.56,12.26,-45.57,1754,-5793,5663,0,-1,-1
23.56,12.27,-45.56,1761,-5791,5675,0,-1,0
23.56,12.27,-45.56,1751,-5790,5660,0,-1,0
23.56,12.27,-45.56,1748,-5790,5656,0,-1,0
23.55,12.28,-45.56,1757,-5788,5665,0,-1,0
23.56,12.28,-45.55,1763,-5787,5671,0,-1,0
23.55,12.29,-45.55,1764,-5788,5668,0,-1,0
23.55,12.30,-45.54,1771,-5792,5669,0,-1,0
23.55,12.30,-45.55,1767,-5784,5665,0,-1,0
23.55,12.30,-45.54,1761,-5785,5659,0,-1,0
23.55,12.31,-45.54,1764,-5793,5669,0,-1,0
23.54,12.31,-45.54,1760,-5796,5658,0,-1,-1
23.55,12.32,-45.53,1762,-5791,5668,0,-1,0
23.54,12.32,-45.51,1765,-5786,5676,0,-1,0
23.55,12.32,-45.50,1760,-5783,5673,0,-1,0
23.54,12.32,-45.50,1755,-5781,5674,0,-1,0
23.54,12.32,-45.50,1760,-5775,5673,0,-1,0
23.53,12.32,-45.49,1766,-5780,5679,0,-1,0
23.53,12.33,-45.49,1766,-5783,5683,0,-1,0
23.52,12.33,-45.49,1758,-5782,5688,0,-1,0
23.53,12.33,-45.48,1758,-5782,5685,0,-1,0
23.53,12.34,-45.48,1755,-5787,5685,0,-1,-1
23.52,12.35,-45.47,1759,-5782,5672,0,-1,0
23.52,12.35,-45.47,1765,-5775,5671,0,-1,-1
23.52,12.35,-45.46,1764,-5775,5669,0,-1,0
23.52,12.36,-45.46,1769,-5772,5673,0,-1,0
23.51,12.36,-45.45,1757,-5780,5669,0,-1,0
23.51,12.36,-45.45,1765,-5782,5670,0,-1,0
23.50,12.36,-45.43,1747,-5776,5679,0,-1,0
23.50,12.36,-45.42,1742,-5781,5675,0,-1,-1
23.50,12.36,-45.42,1757,-5777,5675,0,0,-1
23.51,12.37,-45.40,1767,-5770,5690,0,-1,0
23.50,12.36,-45.39,1767,-5768,5694,0,-1,0
23.50,12.37,-45.39,1764,-5766,5690,0,-1,0
23.49,12.37,-45.38,1763,-5765,5688,0,-1,0
23.49,12.37,-45.38,1760,-5763,5683,0,-1,0
23.49,12.37,-45.37,1763,-5768,5690,0,-1,0
23.48,12.38,-45.36,1763,-5771,5698,0,-1,-1
23.48,12.38,-45.36,1762,-5764,5701,0,-1,-1
23.48,12.38,-45.36,1770,-5760,5696,-1,-1,-1
23.48,12.39,-45.36,1777,-5762,5696,-1,-1,0
23.48,12.38,-45.37,1779,-5765,5689,-1,0,0
23.48,12.38,-45.38,1779,-5773,5681,-1,0,0
23.48,12.38,-45.38,1769,-5783,5677,-1,0,0
23.47,12.36,-45.38,1758,-5789,5684,0,0,-1
23.47,12.36,-45.38,1754,-5789,5683,0,0,-1
23.47,12.36,-45.38,1752,-5782,5679,0,0,-1
23.48,12.36,-45.37,1759,-5771,5679,0,0,-1
23.48,12.36,-45.37,1764,-5765,5683,0,-1,-1
23.48,12.36,-45.37,1771,-5763,5669,0,0,-1
23.49,12.36,-45.37,1771,-5765,5678,-1,0,-1
23.49,12.36,-45.38,1766,-5763,5687,-1,0,0
23.48,12.34,-45.39,1755,-5764,5682,-1,0,-1
23.48,12.34,-45.39,1750,-5764,5688,-1,0,-1
23.49,12.34,-45.40,1761,-5777,5693,-1,0,-1
23.48,12.33,-45.41,1756,-5776,5685,-1,0,-1
23.49,12.33,-45.42,1758,-5790,5678,-1,0,-1
23.48,12.33,-45.43,1763,-5799,5679,-1,-1,-1
23.49,12.34,-45.44,1773,-5795,5676,-1,0,-1
23.49,12.33,-45.45,1769,-5795,5663,-1,0,-1
23.50,12.33,-45.45,1773,-5792,5664,-1,0,-1
23.50,12.32,-45.45,1772,-5788,5660,0,0,0
23.50,12.31,-45.45,1764,-5779,5674,0,0,-1
23.50,12.31,-45.45,1759,-5777,5675,0,0,-1
23.50,12.30,-45.45,1755,-5777,5683,-1,0,0
23.50,12.30,-45.45,1759,-5778,5686,-1,0,-1
23.49,12.29,-45.46,1749,-5781,5684,-1,0,-1
23.49,12.29,-45.47,1741,-5783,5667,-1,0,-1
23.50,12.29,-45.47,1749,-5776,5681,-1,0,-1
23.50,12.29,-45.48,1750,-5785,5679,-1,0,-1
23.49,12.29,-45.49,1761,-5792,5676,-1,0,-1
23.50,12.29,-45.49,1759,-5799,5672,-1,0,-1
23.50,12.30,-45.51,1761,-5803,5675,-1,-1,-1
23.51,12.30,-45.51,1772,-5799,5661,0,0,-1
23.50,12.29,-45.52,1761,-5779,5655,0,0,-1
23.50,12.29,-45.52,1756,-5777,5668,-1,0,-1
23.51,12.29,-45.52,1754,-5777,5673,-1,0,0
23.50,12.27,-45.53,1761,-5790,5667,-1,0,-1
23.50,12.26,-45.53,1747,-5792,5671,-1,0,0
23.50,12.25,-45.54,1744,-5799,5656,-1,0,-1
23.50,12.25,-45.54,1750,-5795,5668,-1,0,-1
23.50,12.25,-45.54,1748,-5794,5671,-1,0,-1
23.50,12.24,-45.55,1747,-5791,5666,0,0,0
23.50,12.24,-45.55,1745,-5791,5659,-1,0,0
23.49,12.23,-45.56,1738,-5791,5664,-1,0,0
23.49,12.23,-45.56,1742,-5800,5667,-1,0,0
23.48,12.23,-45.57,1740,-5791,5667,-1,0,0
23.48,12.22,-45.57,1744,-5786,5672,-1,0,-1
23.48,12.22,-45.59,1744,-5794,5677,-1,-1,-1
23.49,12.23,-45.60,1759,-5801,5671,-1,0,-1
23.49,12.22,-45.60,1763,-5795,5665,-1,0,-1
23.49,12.21,-45.60,1754,-5791,5668,-1,0,0
23.49,12.20,-45.61,1746,-5806,5670,-1,0,0
23.48,12.19,-45.62,1737,-5817,5665,-1,0,0
23.48,12.19,-45.62,1728,-5824,5666,-1,0,0
23.47,12.17,-45.63,1727,-5820,5666,-1,0,0
23.47,12.17,-45.64,1725,-5809,5660,-1,0,-1
23.47,12.17,-45.64,1737,-5806,5660,0,0,-1
23.47,12.17,-45.64,1739,-5803,5659,-1,0,-1
23.47,12.16,-45.64,1735,-5804,5659,-1,0,0
23.47,12.15,-45.64,1737,-5801,5671,-1,0,0
23.46,12.15,-45.65,1732,-5802,5665,-1,0,0
23.46,12.14,-45.65,1722,-5802,5660,-1,0,-1
23.46,12.13,-45.66,1720,-5808,5659,-1,0,-1
23.45,12.13,-45.67,1721,-5812,5652,-1,0,-1
23.45,12.13,-45.68,1724,-5814,5650,-1,-1,-1
23.45,12.13,-45.68,1737,-5815,5655,-1,-1,-1
23.45,12.14,-45.69,1734,-5817,5641,-1,-1,-1
23.45,12.14,-45.70,1729,-5820,5648,-1,-1,-1
23.45,12.14,-45.70,1727,-5821,5652,0,-1,0
23.45,12.14,-45.70,1730,-5815,5648,0,0,-1
23.45,12.14,-45.69,1728,-5815,5644,0,-1,-1
23.46,12.14,-45.69,1728,-5811,5646,0,-1,0
23.45,12.14,-45.68,1728,-5804,5646,0,-1,-1
23.45,12.14,-45.68,1737,-5798,5657,0,-1,0
23.45,12.15,-45.68,1733,-5806,5656,0,-1,0
23.44,12.15,-45.69,1725,-5813,5649,0,-1,0
23.45,12.15,-45.68,1722,-5813,5657,0,-1,-1
23.44,12.16,-45.68,1720,-5819,5647,0,-1,-1
23.44,12.16,-45.68,1724,-5808,5648,0,-1,-1
23.44,12.17,-45.67,1727,-5810,5657,0,-1,-1
23.44,12.18,-45.67,1727,-5814,5655,0,-1,0
23.44,12.18,-45.66,1734,-5823,5664,0,-1,-1
23.44,12.19,-45.66,1728,-5816,5667,0,-1,-1
23.44,12.19,-45.65,1735,-5813,5661,0,-1,-1
23.44,12.20,-45.65,1727,-5814,5663,0,-1,-1
23.44,12.20,-45.64,1739,-5808,5667,0,-1,-1
23.44,12.21,-45.63,1737,-5807,5663,0,-1,-1
23.44,12.22,-45.62,1738,-5805,5667,0,-1,0
23.44,12.23,-45.62,1742,-5805,5652,0,-1,0
23.44,12.23,-45.61,1743,-5798,5662,0,-1,-1
23.43,12.23,-45.61,1741,-5804,5665,0,-1,-1
23.43,12.24,-45.61,1731,-5800,5668,0,-1,-1
23.43,12.24,-45.60,1736,-5804,5667,0,-1,0
23.43,12.24,-45.60,1736,-5807,5662,0,-1,0
23.42,12.25,-45.60,1736,-5809,5658,0,-1,0
23.42,12.26,-45.59,1748,-5810,5663,0,-1,0
23.42,12.26,-45.59,1747,-5807,5662,0,-1,0
23.42,12.27,-45.58,1751,-5807,5661,0,-1,-1
23.42,12.27,-45.57,1753,-5800,5671,0,-1,-1
23.42,12.28,-45.57,1759,-5797,5661,0,-1,0
23.42,12.28,-45.57,1759,-5797,5661,0,-1,0
23.41,12.28,-45.57,1757,-5807,5661,0,-1,0
23.41,12.28,-45.57,1745,-5814,5664,0,-1,0
23.40,12.28,-45.57,1743,-5815,5651,0,-1,-1
23.40,12.29,-45.57,1738,-5807,5648,0,-1,-1
23.41,12.30,-45.56,1741,-5803,5648,0,-1,-1
23.40,12.31,-45.55,1752,-5795,5660,0,-1,-1
23.40,12.31,-45.53,1767,-5785,5669,0,-1,0
23.40,12.32,-45.53,1761,-5782,5659,0,-1,0
23.40,12.32,-45.53,1763,-5788,5677,0,-1,0
23.39,12.32,-45.52,1752,-5785,5673,0,-1,0
23.38,12.31,-45.52,1748,-5799,5662,0,-1,0
23.38,12.31,-45.51,1746,-5788,5666,0,-1,0
23.38,12.32,-45.51,1753,-5790,5668,0,-1,-1
23.37,12.33,-45.51,1756,-5792,5665,0,-1,-1
23.37,12.34,-45.51,1762,-5789,5669,0,-1,0
23.38,12.35,-45.51,1765,-5794,5668,0,-1,0
23.37,12.35,-45.51,1759,-5793,5670,0,-1,0
23.37,12.34,-45.50,1759,-5800,5667,0,-1,0
23.37,12.35,-45.49,1764,-5800,5668,0,-1,0
23.36,12.34,-45.48,1765,-5796,5675,0,-1,0
23.36,12.34,-45.47,1766,-5794,5674,0,-1,0
23.36,12.35,-45.46,1768,-5789,5679,0,-1,0
23.35,12.34,-45.46,1768,-5786,5681,0,-1,0
23.35,12.35,-45.46,1764,-5784,5684,0,-1,0
23.34,12.35,-45.45,1758,-5786,5690,0,-1,0
23.34,12.34,-45.46,1756,-5783,5687,0,-1,0
23.34,12.34,-45.46,1750,-5785,5680,0,0,-1
23.34,12.34,-45.45,1754,-5783,5676,0,-1,-1
23.34,12.34,-45.46,1756,-5779,5681,-1,-1,-1
23.33,12.34,-45.46,1750,-5782,5670,0,-1,0
23.33,12.34,-45.46,1749,-5781,5660,0,-1,0
23.33,12.35,-45.46,1764,-5782,5663,0,-1,0
23.32,12.35,-45.45,1760,-5777,5672,0,-1,0
23.32,12.35,-45.44,1756,-5782,5665,0,-1,0
23.31,12.35,-45.44,1748,-5783,5664,0,-1,0
23.31,12.36,-45.43,1762,-5784,5681,0,-1,0
23.30,12.35,-45.43,1750,-5784,5684,0,-1,0
23.31,12.36,-45.42,1751,-5791,5674,0,-1,-1
23.31,12.37,-45.42,1759,-5787,5680,0,-1,-1
23.30,12.37,-45.42,1764,-5787,5674,0,-1,0
23.30,12.38,-45.42,1761,-5781,5672,0,-1,0
23.30,12.37,-45.41,1760,-5777,5671,0,-1,0
23.29,12.37,-45.41,1760,-5784,5672,0,-1,0
23.29,12.38,-45.41,1765,-5782,5669,0,-1,0
23.28,12.38,-45.40,1759,-5783,5679,0,-1,-1
23.29,12.38,-45.39,1762,-5776,5678,0,-1,-1
23.29,12.39,-45.39,1763,-5774,5672,0,-1,-1
23.29,12.40,-45.39,1777,-5773,5668,0,-1,0
23.29,12.40,-45.39,1781,-5775,5670,0,-1,0
23.28,12.40,-45.39,1772,-5778,5668,0,-1,0
23.27,12.40,-45.39,1772,-5782,5670,0,-1,0
23.27,12.40,-45.39,1766,-5791,5674,0,-1,0
23.26,12.40,-45.39,1760,-5798,5668,0,-1,-1
23.26,12.40,-45.38,1757,-5798,5665,0,-1,-1
23.26,12.41,-45.38,1764,-5781,5668,0,-1,-1
23.26,12.41,-45.36,1766,-5763,5676,0,-1,0
23.26,12.41,-45.35,1773,-5766,5675,0,-1,0
23.26,12.42,-45.34,1786,-5759,5676,0,-1,0
23.25,12.43,-45.34,1776,-5765,5677,0,-1,0
23.25,12.42,-45.34,1768,-5757,5681,0,-1,0
23.23,12.42,-45.34,1764,-5759,5694,0,-1,0
23.23,12.43,-45.33,1751,-5762,5692,0,-1,0
23.23,12.44,-45.34,1765,-5775,5680,0,-1,0
23.22,12.44,-45.33,1766,-5770,5685,0,-1,0
23.22,12.45,-45.33,1766,-5785,5675,0,-1,0
23.22,12.46,-45.33,1771,-5779,5676,0,-1,0
23.21,12.46,-45.32,1777,-5778,5670,0,-1,0
23.21,12.46,-45.32,1779,-5773,5661,0,-1,0
23.21,12.46,-45.30,1775,-5772,5672,0,-1,0
23.20,12.47,-45.28,1779,-5763,5676,0,-1,0
23.20,12.46,-45.26,1774,-5751,5678,0,0,0
23.20,12.45,-45.25,1769,-5748,5699,0,0,0
23.19,12.44,-45.24,1773,-5742,5698,-1,-1,0
23.20,12.45,-45.25,1784,-5751,5700,-1,0,-1
23.19,12.44,-45.26,1779,-5752,5700,-1,0,-1
23.19,12.44,-45.27,1774,-5757,5686,-1,0,-1
23.19,12.44,-45.29,1776,-5769,5680,-1,0,-1
23.19,12.43,-45.30,1776,-5760,5681,-1,0,-1
23.19,12.43,-45.30,1767,-5764,5683,-1,0,-1
23.19,12.43,-45.30,1766,-5769,5684,-1,0,-1
23.19,12.43,-45.31,1771,-5775,5681,-1,0,-1
23.19,12.42,-45.31,1777,-5772,5680,-1,0,-1
23.19,12.42,-45.31,1779,-5768,5674,-1,0,0
23.19,12.41,-45.31,1773,-5771,5674,-1,0,-1
23.19,12.41,-45.32,1765,-5772,5677,-1,0,-1
23.19,12.41,-45.33,1770,-5769,5681,-1,0,-1
23.19,12.40,-45.33,1766,-5765,5688,-1,0,-1
23.20,12.40,-45.34,1765,-5758,5687,-1,0,-1
23.19,12.39,-45.35,1759,-5772,5674,-1,0,-1
23.19,12.38,-45.36,1762,-5776,5682,-1,0,-1
23.19,12.37,-45.37,1755,-5774,5672,-1,0,-1
23.19,12.37,-45.38,1757,-5788,5681,-1,0,-1
23.20,12.37,-45.39,1763,-5786,5686,-1,0,-1
23.20,12.36,-45.40,1773,-5781,5684,-1,0,-1
23.21,12.35,-45.41,1770,-5767,5702,-1,0,-1
23.20,12.34,-45.43,1763,-5774,5691,-1,0,0
23.20,12.33,-45.46,1772,-5774,5667,-1,0,0
23.19,12.30,-45.47,1756,-5795,5681,-1,0,0
23.18,12.28,-45.49,1751,-5796,5682,-1,1,0
23.19,12.26,-45.51,1731,-5809,5669,-1,0,-1
23.18,12.25,-45.54,1741,-5806,5656,-1,0,-1
23.18,12.24,-45.54,1725,-5800,5660,-1,-1,-1
23.19,12.25,-45.55,1737,-5791,5657,-1,0,-1
23.19,12.25,-45.57,1750,-5790,5648,-1,0,-1
23.19,12.24,-45.58,1764,-5792,5655,-1,0,0
23.19,12.24,-45.58,1749,-5802,5656,-1,0,0
23.19,12.23,-45.60,1742,-5805,5648,-1,0,0
23.18,12.21,-45.61,1736,-5806,5656,-1,0,0
23.18,12.20,-45.62,1740,-5806,5660,-1,0,-1
23.18,12.20,-45.64,1734,-5806,5666,-1,-1,0
23.17,12.19,-45.65,1733,-5799,5673,-1,0,0
23.17,12.18,-45.66,1724,-5797,5664,-1,0,-1
23.17,12.18,-45.68,1731,-5809,5668,-1,0,-1
23.17,12.17,-45.69,1731,-5815,5653,-1,0,-1
23.17,12.18,-45.71,1733,-5824,5660,-1,-1,-1
23.17,12.17,-45.73,1731,-5816,5647,-1,0,-1
23.17,12.16,-45.74,1731,-5818,5650,-1,0,-1
23.16,12.15,-45.75,1729,-5813,5645,-1,0,-1
23.17,12.15,-45.76,1744,-5804,5662,-1,0,-1
23.16,12.14,-45.78,1740,-5820,5647,-1,0,-1
23.16,12.13,-45.80,1728,-5819,5635,-1,0,0
23.15,12.11,-45.83,1719,-5824,5633,-1,0,0
23.15,12.11,-45.84,1721,-5826,5666,-2,-1,0
23.15,12.11,-45.88,1725,-5834,5633,-1,0,-1
23.15,12.11,-45.89,1731,-5836,5621,-1,0,-1
23.15,12.10,-45.91,1726,-5846,5632,-1,0,-1
23.14,12.10,-45.94,1724,-5827,5635,-2,-1,0
23.14,12.11,-45.97,1738,-5860,5608,-1,-1,-1
23.14,12.11,-45.97,1739,-5855,5627,-1,0,0
23.14,12.12,-45.98,1733,-5863,5602,0,-1,0
23.13,12.11,-45.98,1731,-5850,5611,0,0,-1
23.14,12.11,-45.98,1729,-5847,5615,0,-1,-1
23.13,12.11,-45.97,1721,-5849,5600,0,0,0
23.13,12.10,-45.96,1726,-5856,5606,0,0,0
23.13,12.10,-45.95,1712,-5850,5613,0,-1,0
23.13,12.10,-45.94,1707,-5838,5623,0,-1,-1
23.13,12.11,-45.93,1715,-5841,5624,0,-1,-1
23.13,12.11,-45.91,1723,-5838,5626,0,-1,-1
23.14,12.12,-45.90,1723,-5822,5635,0,-1,-1
23.14,12.13,-45.89,1728,-5818,5634,0,-1,-1
23.14,12.14,-45.89,1731,-5820,5636,0,-1,0
23.13,12.15,-45.89,1732,-5824,5637,0,-1,0
23.13,12.15,-45.89,1724,-5838,5634,0,-1,0
