Yaw,Pitch,Roll,AX,AY,AZ,GX,GY,GZ
161.12,-176.26,-112.40,-554,-7779,-3210,-1,0,-1
161.12,-176.26,-112.41,-559,-7772,-3219,-1,0,-1
161.12,-176.26,-112.41,-553,-7771,-3215,0,0,0
161.12,-176.26,-112.41,-544,-7766,-3204,0,0,-1
161.13,-176.27,-112.40,-545,-7768,-3208,0,0,-1
161.13,-176.27,-112.40,-558,-7775,-3203,-1,0,-1
161.13,-176.27,-112.40,-564,-7779,-3202,-1,0,-1
161.12,-176.27,-112.41,-557,-7783,-3212,-1,-1,0
161.12,-176.27,-112.41,-552,-7770,-3212,-1,0,0
161.12,-176.26,-112.41,-554,-7768,-3209,-1,-1,-1
161.12,-176.27,-112.42,-555,-7766,-3210,-1,0,-1
161.12,-176.27,-112.42,-554,-7766,-3214,0,0,-1
161.12,-176.27,-112.42,-552,-7771,-3218,0,0,-1
161.12,-176.27,-112.42,-556,-7769,-3209,0,0,0
161.12,-176.27,-112.42,-551,-7774,-3203,-1,0,-1
161.12,-176.27,-112.42,-549,-7777,-3202,-1,0,-1
161.12,-176.28,-112.42,-544,-7778,-3204,-1,0,-1
161.12,-176.28,-112.42,-544,-7770,-3213,-1,0,0
161.12,-176.28,-112.42,-541,-7767,-3212,0,-1,-1
161.12,-176.28,-112.42,-544,-7771,-3206,-1,0,-1
161.12,-176.28,-112.42,-545,-7776,-3214,-1,-1,0
161.12,-176.28,-112.42,-548,-7779,-3217,0,-1,-1
161.12,-176.28,-112.42,-544,-7771,-3212,-1,-1,0
161.11,-176.28,-112.43,-543,-7772,-3212,-1,-1,0
161.11,-176.28,-112.43,-547,-7770,-3213,-1,0,-1
161.11,-176.28,-112.43,-557,-7768,-3212,-1,-1,-1
161.11,-176.28,-112.44,-555,-7764,-3216,0,-1,-1
161.11,-176.28,-112.43,-550,-7761,-3204,0,0,-1
161.11,-176.28,-112.43,-553,-7770,-3210,-1,0,0
161.11,-176.28,-112.44,-548,-7779,-3216,-1,-1,0
161.10,-176.27,-112.43,-555,-7781,-3212,-1,-1,0
161.10,-176.27,-112.44,-556,-7790,-3227,0,-1,-1
161.11,-176.27,-112.44,-554,-7771,-3212,-1,-1,0
161.11,-176.27,-112.44,-553,-7764,-3201,0,-1,-1
161.11,-176.27,-112.43,-546,-7768,-3202,0,0,-1
161.11,-176.27,-112.43,-544,-7778,-3204,0,0,-1
161.11,-176.27,-112.43,-544,-7780,-3218,0,-1,0
161.11,-176.27,-112.43,-547,-7783,-3215,0,-1,0
161.11,-176.27,-112.43,-550,-7768,-3213,0,-1,0
161.11,-176.27,-112.43,-552,-7766,-3211,-1,-1,0
161.11,-176.27,-112.43,-551,-7770,-3220,0,-1,-1
161.11,-176.27,-112.43,-550,-7771,-3218,-1,-1,-1
161.11,-176.27,-112.43,-544,-7773,-3226,0,-1,-1
161.11,-176.27,-112.43,-546,-7769,-3223,0,-1,0
161.11,-176.27,-112.43,-552,-7764,-3217,0,-1,0
161.11,-176.27,-112.42,-557,-7769,-3201,0,0,-1
161.11,-176.27,-112.43,-561,-7780,-3216,-1,-1,-1
161.11,-176.27,-112.43,-554,-7783,-3215,-1,-1,-1
161.11,-176.27,-112.43,-545,-7777,-3206,-1,-1,0
161.11,-176.27,-112.43,-547,-7774,-3206,-1,-1,0
161.10,-176.26,-112.43,-551,-7762,-3217,-1,0,0
161.09,-176.26,-112.44,-554,-7768,-3217,-1,0,-1
161.11,-176.27,-112.43,-545,-7776,-3213,0,0,-1
161.11,-176.27,-112.43,-545,-7780,-3204,0,0,-1
161.11,-176.27,-112.43,-543,-7778,-3210,0,-1,0
161.11,-176.27,-112.42,-544,-7778,-3204,-1,0,-1
161.11,-176.27,-112.43,-545,-7776,-3212,-1,-1,-1
161.11,-176.27,-112.42,-547,-7775,-3204,-1,-1,0
161.11,-176.27,-112.42,-549,-7773,-3204,0,-1,-1
161.11,-176.27,-112.43,-544,-7771,-3210,-1,0,0
161.11,-176.27,-112.43,-548,-7778,-3210,-1,0,-1
161.11,-176.27,-112.43,-549,-7774,-3211,-1,0,0
161.11,-176.27,-112.43,-550,-7776,-3218,-1,-1,0
161.11,-176.27,-112.43,-543,-7789,-3225,0,-1,0
161.11,-176.26,-112.42,-548,-7764,-3217,0,-1,0
161.11,-176.25,-112.41,-554,-7760,-3190,-1,0,-1
161.11,-176.26,-112.41,-559,-7786,-3210,0,-1,-1
161.11,-176.26,-112.41,-546,-7771,-3192,-1,0,-1
161.11,-176.26,-112.41,-546,-7772,-3206,0,0,0
161.12,-176.26,-112.40,-546,-7777,-3205,0,-1,0
161.11,-176.25,-112.41,-550,-7794,-3202,-1,-1,0
161.11,-176.25,-112.41,-554,-7793,-3209,-1,-1,-1
161.11,-176.25,-112.41,-555,-7778,-3211,-1,-1,-1
161.11,-176.25,-112.41,-552,-7767,-3211,-1,-1,0
161.11,-176.26,-112.41,-552,-7769,-3215,0,-1,0
161.10,-176.25,-112.42,-553,-7768,-3218,-1,-1,0
161.10,-176.25,-112.42,-554,-7776,-3219,-1,-1,-1
161.11,-176.26,-112.41,-550,-7782,-3217,-1,-1,-1
161.11,-176.26,-112.41,-547,-7776,-3215,0,-1,-1
161.11,-176.26,-112.41,-545,-7774,-3221,0,-1,0
161.11,-176.26,-112.41,-540,-7777,-3219,0,-1,0
161.11,-176.26,-112.41,-547,-7776,-3217,-1,0,0
161.10,-176.25,-112.42,-553,-7781,-3227,-1,-1,0
161.10,-176.25,-112.42,-552,-7776,-3216,0,-1,0
161.10,-176.25,-112.42,-553,-7773,-3219,0,-1,-1
161.11,-176.25,-112.42,-553,-7774,-3211,0,-1,-1
161.11,-176.25,-112.42,-551,-7773,-3209,0,0,-1
161.11,-176.25,-112.42,-558,-7775,-3215,-1,0,0
161.11,-176.25,-112.41,-552,-7778,-3195,-1,-1,0
161.11,-176.25,-112.42,-552,-7770,-3199,-1,0,0
161.10,-176.24,-112.42,-555,-7773,-3214,-1,-1,0
161.09,-176.24,-112.43,-554,-7764,-3220,-1,-1,-1
161.09,-176.24,-112.43,-554,-7769,-3215,0,-1,-1
161.10,-176.25,-112.42,-554,-7773,-3218,0,0,-1
161.10,-176.24,-112.42,-556,-7773,-3210,0,-1,-1
161.10,-176.24,-112.41,-557,-7781,-3212,0,-1,0
161.10,-176.24,-112.41,-550,-7780,-3198,-1,0,0
161.10,-176.24,-112.41,-555,-7776,-3207,-1,-1,0
161.10,-176.24,-112.41,-557,-7775,-3196,-1,-1,-1
161.10,-176.24,-112.41,-552,-7775,-3206,0,-1,0
161.10,-176.24,-112.41,-550,-7765,-3205,0,-1,0
161.11,-176.24,-112.41,-547,-7759,-3205,-1,0,-1
161.11,-176.25,-112.41,-543,-7770,-3201,-1,-1,-1
161.11,-176.25,-112.41,-542,-7775,-3208,-1,-1,0
161.11,-176.24,-112.41,-550,-7773,-3198,-1,-1,0
161.11,-176.24,-112.41,-552,-7768,-3197,-1,-1,0
161.11,-176.24,-112.41,-551,-7778,-3201,-1,-1,-1
161.10,-176.24,-112.41,-550,-7785,-3214,-1,0,-1
161.10,-176.24,-112.41,-555,-7781,-3217,0,0,0
161.11,-176.24,-112.41,-556,-7774,-3217,0,-1,-1
161.11,-176.24,-112.41,-552,-7778,-3214,0,-1,0
161.11,-176.24,-112.40,-561,-7773,-3197,-1,-1,0
161.11,-176.24,-112.40,-556,-7771,-3197,-1,-1,0
161.10,-176.23,-112.41,-555,-7773,-3213,-1,-1,0
161.10,-176.23,-112.41,-547,-7770,-3221,0,-1,0
161.10,-176.23,-112.41,-551,-7771,-3214,0,-1,0
161.10,-176.23,-112.41,-553,-7779,-3212,-1,-1,0
161.10,-176.23,-112.41,-557,-7776,-3213,-1,0,0
161.10,-176.23,-112.41,-556,-7777,-3218,0,-1,-1
161.10,-176.23,-112.41,-559,-7778,-3212,0,-1,0
161.09,-176.23,-112.41,-565,-7774,-3210,0,-1,0
161.09,-176.23,-112.41,-569,-7776,-3210,-1,-1,-1
161.09,-176.23,-112.41,-560,-7777,-3202,-1,-1,-1
161.09,-176.23,-112.41,-554,-7770,-3205,-1,-1,-1
161.09,-176.23,-112.41,-546,-7773,-3214,0,-1,0
161.10,-176.23,-112.41,-546,-7775,-3204,0,-1,0
161.10,-176.22,-112.40,-551,-7776,-3203,0,0,0
161.10,-176.23,-112.40,-554,-7775,-3199,0,0,-1
161.11,-176.23,-112.40,-553,-7777,-3212,-1,-1,-1
161.11,-176.23,-112.40,-549,-7781,-3209,-1,-1,-1
161.11,-176.23,-112.40,-545,-7782,-3209,-1,-1,0
161.11,-176.23,-112.40,-551,-7777,-3199,-1,-1,0
161.10,-176.23,-112.41,-557,-7773,-3204,-1,0,0
161.10,-176.23,-112.41,-551,-7777,-3225,-1,0,0
161.10,-176.23,-112.41,-549,-7780,-3227,0,0,-1
161.10,-176.23,-112.41,-556,-7785,-3223,0,0,0
161.10,-176.23,-112.41,-555,-7781,-3215,0,-1,-1
161.10,-176.23,-112.41,-561,-7774,-3210,-1,0,-1
161.10,-176.23,-112.41,-558,-7776,-3214,-1,0,0
161.10,-176.23,-112.41,-559,-7773,-3205,-1,-1,-1
161.10,-176.23,-112.41,-556,-7772,-3200,-1,0,0
161.10,-176.23,-112.41,-550,-7772,-3208,-1,-1,0
161.10,-176.23,-112.41,-553,-7776,-3212,-1,0,-1
161.10,-176.23,-112.41,-549,-7778,-3207,0,-1,-1
161.10,-176.24,-112.40,-543,-7774,-3215,0,-1,0
161.10,-176.23,-112.41,-552,-7777,-3217,0,-1,0
161.10,-176.23,-112.41,-552,-7773,-3211,-1,-1,0
161.10,-176.23,-112.41,-554,-7778,-3212,-1,0,0
161.10,-176.23,-112.41,-559,-7782,-3211,-1,-1,-1
161.10,-176.23,-112.41,-558,-7782,-3215,0,-1,0
161.10,-176.23,-112.41,-561,-7772,-3209,0,-1,-1
161.10,-176.23,-112.41,-559,-7774,-3209,0,0,-1
161.10,-176.23,-112.41,-552,-7774,-3207,-1,0,-1
161.10,-176.23,-112.41,-550,-7778,-3207,-1,-1,-1
161.10,-176.23,-112.41,-548,-7781,-3207,-1,-1,0
161.10,-176.23,-112.41,-554,-7781,-3210,-1,0,-1
161.10,-176.23,-112.41,-551,-7778,-3214,-1,0,0
161.10,-176.23,-112.41,-553,-7778,-3216,-1,-1,-1
161.10,-176.23,-112.41,-558,-7777,-3220,-1,-1,0
161.10,-176.23,-112.41,-562,-7777,-3219,0,-1,-1
161.10,-176.23,-112.41,-549,-7775,-3213,0,-1,0
161.10,-176.23,-112.41,-552,-7772,-3210,-1,0,0
161.10,-176.23,-112.41,-550,-7770,-3216,-1,-1,-1
161.10,-176.23,-112.41,-550,-7768,-3212,-1,-1,0
161.10,-176.23,-112.41,-547,-7774,-3211,-1,-1,0
161.09,-176.23,-112.41,-550,-7772,-3214,0,-1,0
161.09,-176.23,-112.41,-552,-7781,-3212,0,0,0
161.09,-176.23,-112.41,-557,-7776,-3209,-1,0,-1
161.09,-176.23,-112.42,-559,-7771,-3214,-1,-1,0
161.08,-176.23,-112.42,-561,-7770,-3224,0,-1,-1
161.08,-176.22,-112.42,-559,-7769,-3213,0,-1,0
161.09,-176.23,-112.41,-558,-7765,-3207,0,-1,-1
161.09,-176.23,-112.41,-556,-7770,-3204,0,-1,0
161.09,-176.23,-112.41,-551,-7784,-3200,-1,-1,0
161.09,-176.23,-112.41,-553,-7785,-3200,-1,-1,0
161.09,-176.23,-112.41,-554,-7775,-3201,-1,-1,-1
161.09,-176.23,-112.41,-554,-7770,-3200,-1,-1,0
161.09,-176.22,-112.42,-551,-7769,-3212,0,-1,0
161.09,-176.22,-112.42,-551,-7770,-3210,0,-1,-1
161.09,-176.23,-112.41,-553,-7776,-3211,0,-1,0
161.09,-176.23,-112.41,-557,-7779,-3212,0,-1,-1
161.10,-176.23,-112.41,-556,-7782,-3201,0,-1,-1
161.10,-176.23,-112.40,-554,-7783,-3199,-1,-1,-1
161.10,-176.23,-112.40,-556,-7776,-3193,-1,0,0
161.09,-176.23,-112.41,-553,-7776,-3208,-1,0,0
161.09,-176.23,-112.41,-551,-7778,-3211,0,-1,0
161.09,-176.22,-112.40,-552,-7777,-3203,-1,-1,0
161.09,-176.22,-112.41,-554,-7776,-3206,-1,-1,-1
161.10,-176.22,-112.41,-553,-7770,-3209,-1,-1,0
161.09,-176.22,-112.41,-558,-7773,-3213,0,-1,0
161.09,-176.22,-112.41,-553,-7773,-3210,-1,-1,0
161.09,-176.21,-112.41,-560,-7769,-3208,-1,-1,0
161.09,-176.21,-112.41,-550,-7773,-3216,-1,-1,-1
161.09,-176.21,-112.41,-556,-7776,-3218,0,-1,0
161.09,-176.21,-112.41,-562,-7783,-3206,0,-1,0
161.09,-176.21,-112.41,-557,-7779,-3207,0,-1,0
161.09,-176.21,-112.41,-555,-7778,-3210,0,-1,0
161.09,-176.21,-112.40,-560,-7777,-3204,-1,0,0
161.09,-176.21,-112.40,-553,-7784,-3198,-1,-1,0
161.09,-176.21,-112.40,-557,-7783,-3192,-1,-1,0
161.08,-176.21,-112.41,-553,-7777,-3203,-1,-1,0
161.08,-176.21,-112.41,-557,-7779,-3202,-1,-1,0
161.08,-176.21,-112.41,-555,-7776,-3210,-1,-1,0
161.08,-176.21,-112.41,-554,-7777,-3207,-1,-1,0
161.08,-176.21,-112.41,-556,-7778,-3210,0,-1,0
161.08,-176.20,-112.41,-554,-7778,-3205,-1,-1,0
161.08,-176.20,-112.40,-561,-7779,-3206,0,-1,0
161.08,-176.19,-112.40,-556,-7774,-3212,-1,-1,0
161.07,-176.19,-112.40,-565,-7779,-3211,-1,-1,0
161.07,-176.18,-112.40,-564,-7778,-3210,0,-1,0
161.07,-176.18,-112.40,-562,-7780,-3212,0,-1,0
161.07,-176.18,-112.40,-562,-7775,-3207,-1,-1,0
161.07,-176.18,-112.40,-565,-7778,-3213,-1,-1,0
161.07,-176.18,-112.41,-565,-7783,-3227,-1,-1,0
161.07,-176.18,-112.41,-556,-7782,-3225,0,-1,0
161.07,-176.18,-112.41,-558,-7778,-3222,0,-1,0
161.07,-176.18,-112.40,-559,-7777,-3206,0,-1,-1
161.07,-176.18,-112.40,-555,-7768,-3203,-1,-1,0
161.06,-176.17,-112.41,-557,-7773,-3220,-1,-1,0
161.06,-176.17,-112.41,-562,-7771,-3219,-1,-1,0
161.05,-176.16,-112.41,-570,-7771,-3214,-1,-1,0
161.05,-176.16,-112.41,-570,-7770,-3218,0,-1,-1
161.05,-176.16,-112.41,-564,-7770,-3213,0,-1,0
161.05,-176.16,-112.41,-560,-7774,-3211,0,-1,0
161.05,-176.16,-112.41,-565,-7774,-3208,0,-1,-1
161.06,-176.16,-112.41,-564,-7783,-3201,0,-1,0
161.06,-176.16,-112.41,-568,-7780,-3200,-1,-1,-1
161.06,-176.16,-112.41,-567,-7771,-3211,-1,-1,0
161.06,-176.16,-112.41,-566,-7769,-3205,-1,-1,0
161.05,-176.15,-112.41,-562,-7770,-3202,0,-1,0
161.05,-176.15,-112.40,-563,-7769,-3215,0,-1,0
161.05,-176.15,-112.40,-560,-7770,-3218,-1,-1,0
161.04,-176.15,-112.41,-562,-7777,-3225,-1,-1,0
161.04,-176.14,-112.41,-558,-7783,-3215,0,-1,0
161.05,-176.15,-112.40,-560,-7780,-3215,0,-1,0
161.05,-176.14,-112.41,-562,-7778,-3210,-1,-1,0
161.04,-176.14,-112.41,-561,-7776,-3218,-1,-1,0
161.04,-176.13,-112.41,-566,-7773,-3220,-1,-1,0
161.04,-176.13,-112.41,-561,-7779,-3217,0,-1,0
161.04,-176.13,-112.40,-565,-7779,-3216,0,-1,0
161.05,-176.13,-112.40,-564,-7776,-3216,0,-1,0
161.04,-176.13,-112.40,-558,-7775,-3211,-1,-1,0
161.04,-176.13,-112.40,-558,-7774,-3216,0,-1,0
161.04,-176.13,-112.40,-567,-7780,-3207,0,-1,0
161.04,-176.12,-112.40,-569,-7779,-3209,0,-1,0
161.04,-176.12,-112.40,-575,-7770,-3204,-1,-1,0
161.04,-176.12,-112.40,-578,-7770,-3203,0,-1,0
161.04,-176.12,-112.40,-572,-7771,-3213,0,-1,0
161.03,-176.11,-112.40,-566,-7772,-3214,0,-1,0
161.03,-176.11,-112.40,-571,-7773,-3217,-1,-1,0
161.03,-176.11,-112.40,-577,-7770,-3214,-1,-1,-1
161.03,-176.11,-112.40,-574,-7776,-3210,0,-1,-1
161.03,-176.11,-112.40,-579,-7779,-3212,0,-1,-1
161.04,-176.11,-112.39,-571,-7765,-3199,0,-1,-1
161.04,-176.11,-112.39,-570,-7768,-3198,-1,-1,-1
161.04,-176.11,-112.39,-577,-7772,-3206,-1,0,-1
161.04,-176.11,-112.39,-576,-7783,-3211,-1,-1,0
161.03,-176.10,-112.40,-577,-7777,-3200,0,-1,0
161.04,-176.10,-112.39,-574,-7771,-3201,0,-1,-1
161.05,-176.11,-112.38,-576,-7777,-3195,0,-1,-1
161.06,-176.11,-112.38,-571,-7771,-3202,0,-1,-1
161.06,-176.11,-112.37,-575,-7776,-3201,0,-1,0
161.07,-176.11,-112.36,-574,-7774,-3201,0,-1,-1
161.07,-176.11,-112.36,-566,-7774,-3206,0,-1,-1
161.07,-176.11,-112.36,-572,-7776,-3211,0,-1,-1
161.07,-176.11,-112.36,-569,-7773,-3204,0,-1,-1
161.08,-176.12,-112.35,-572,-7773,-3201,0,0,-1
161.08,-176.12,-112.35,-575,-7776,-3203,0,0,-1
161.08,-176.12,-112.35,-572,-7779,-3208,-1,0,-1
161.08,-176.12,-112.36,-576,-7782,-3203,-1,0,-1
161.08,-176.12,-112.36,-576,-7775,-3200,-1,0,-1
161.08,-176.13,-112.36,-574,-7768,-3203,0,0,0
161.08,-176.13,-112.36,-565,-7770,-3200,-1,0,0
161.08,-176.13,-112.36,-570,-7773,-3206,-1,0,-1
161.08,-176.13,-112.36,-573,-7775,-3212,-1,0,0
161.08,-176.13,-112.36,-574,-7780,-3221,0,0,-1
161.08,-176.13,-112.36,-568,-7778,-3210,0,-1,-1
161.08,-176.13,-112.36,-570,-7776,-3195,-1,0,0
161.08,-176.13,-112.36,-566,-7769,-3192,-1,0,-1
161.08,-176.14,-112.37,-573,-7772,-3203,-1,0,-1
161.09,-176.15,-112.36,-568,-7779,-3214,0,0,-1
161.09,-176.15,-112.36,-567,-7790,-3214,0,0,-1
161.10,-176.16,-112.36,-562,-7784,-3206,0,-1,-1
161.10,-176.16,-112.36,-555,-7780,-3201,-1,-1,0
161.10,-176.16,-112.36,-557,-7774,-3194,-1,0,0
161.09,-176.16,-112.37,-559,-7773,-3188,-1,0,0
161.09,-176.16,-112.37,-564,-7778,-3206,0,0,-1
161.10,-176.16,-112.37,-561,-7781,-3217,0,0,-1
161.11,-176.17,-112.36,-558,-7781,-3199,0,0,-1
161.10,-176.17,-112.36,-557,-7776,-3201,-1,0,0
161.10,-176.17,-112.36,-559,-7777,-3189,-1,0,0
161.10,-176.18,-112.37,-557,-7780,-3199,-1,0,-1
161.10,-176.18,-112.37,-553,-7768,-3198,-1,0,-1
161.11,-176.18,-112.37,-556,-7769,-3190,-1,0,-1
161.11,-176.18,-112.37,-557,-7778,-3203,0,0,-1
161.10,-176.18,-112.37,-554,-7775,-3207,-1,0,0
161.10,-176.18,-112.38,-560,-7772,-3207,-1,0,-1
161.10,-176.19,-112.37,-562,-7776,-3202,-1,0,-1
161.10,-176.19,-112.38,-562,-7768,-3205,-1,0,0
161.10,-176.19,-112.38,-560,-7767,-3208,-1,0,-1
161.09,-176.19,-112.39,-559,-7769,-3206,-1,0,0
161.09,-176.19,-112.39,-560,-7765,-3202,-1,0,0
161.09,-176.19,-112.39,-564,-7773,-3207,0,0,-1
161.09,-176.19,-112.39,-558,-7782,-3208,-1,0,-1
161.10,-176.20,-112.38,-554,-7785,-3213,-1,0,-1
161.09,-176.19,-112.39,-550,-7781,-3217,-1,-1,0
161.09,-176.20,-112.39,-547,-7774,-3206,-1,-1,0
161.09,-176.19,-112.40,-551,-7766,-3201,-1,-1,0
161.08,-176.19,-112.40,-560,-7761,-3204,-1,0,0
161.07,-176.19,-112.41,-561,-7769,-3215,0,-1,-1
161.07,-176.19,-112.41,-558,-7774,-3215,0,-1,-1
161.08,-176.19,-112.40,-562,-7774,-3212,0,-1,0
161.09,-176.19,-112.40,-559,-7773,-3197,-1,-1,-1
161.09,-176.19,-112.40,-558,-7770,-3196,-1,0,-1
161.08,-176.19,-112.40,-555,-7768,-3196,-1,-1,0
161.07,-176.18,-112.40,-558,-7768,-3203,-1,-1,0
161.07,-176.18,-112.40,-563,-7767,-3200,-1,-1,0
161.07,-176.18,-112.40,-562,-7776,-3216,0,-1,0
161.06,-176.17,-112.41,-558,-7781,-3226,-1,-1,0
161.07,-176.18,-112.41,-555,-7775,-3221,-1,0,0
161.07,-176.18,-112.41,-558,-7780,-3225,0,-1,-1
161.07,-176.18,-112.41,-552,-7775,-3206,0,-1,0
161.07,-176.18,-112.41,-556,-7778,-3210,-1,-1,0
161.06,-176.17,-112.41,-553,-7777,-3209,-1,-1,0
161.06,-176.17,-112.41,-561,-7777,-3214,-1,-1,0
161.05,-176.16,-112.42,-566,-7778,-3218,0,-1,0
161.06,-176.17,-112.41,-566,-7776,-3209,0,-1,0
161.06,-176.17,-112.41,-565,-7772,-3217,0,-1,0
161.05,-176.16,-112.42,-572,-7773,-3226,-1,0,-1
161.05,-176.16,-112.42,-568,-7778,-3230,-1,-1,0
161.05,-176.16,-112.42,-568,-7786,-3216,0,-1,0
161.06,-176.16,-112.41,-567,-7780,-3202,-1,-1,0
161.06,-176.15,-112.41,-569,-7773,-3202,-1,-1,0
161.06,-176.15,-112.41,-568,-7773,-3204,-1,-1,0
161.06,-176.15,-112.41,-570,-7780,-3204,0,-1,-1
161.06,-176.15,-112.40,-573,-7785,-3207,0,-1,0
161.06,-176.15,-112.40,-568,-7779,-3210,0,-1,0
161.05,-176.14,-112.40,-571,-7775,-3204,-1,-1,0
161.05,-176.14,-112.40,-567,-7769,-3219,-1,-1,0
161.05,-176.13,-112.40,-571,-7778,-3218,0,-1,0
161.05,-176.13,-112.40,-569,-7772,-3216,0,-1,0
161.05,-176.13,-112.40,-565,-7774,-3219,0,-1,0
161.05,-176.13,-112.40,-564,-7769,-3215,0,-1,0
161.05,-176.13,-112.40,-565,-7772,-3209,0,-1,0
161.04,-176.12,-112.40,-567,-7775,-3204,-1,-1,-1
161.04,-176.12,-112.40,-573,-7770,-3202,-1,-1,0
161.04,-176.12,-112.40,-572,-7774,-3213,0,-1,0
161.04,-176.11,-112.40,-569,-7775,-3212,0,-1,0
161.04,-176.11,-112.40,-564,-7780,-3209,0,-1,-1
161.05,-176.12,-112.39,-564,-7785,-3205,0,0,-1
161.04,-176.11,-112.40,-569,-7785,-3211,-1,-1,0
161.04,-176.11,-112.40,-566,-7780,-3207,-1,-1,0
161.04,-176.11,-112.40,-565,-7782,-3216,-1,-1,0
161.03,-176.10,-112.41,-573,-7783,-3210,-1,-1,0
161.03,-176.10,-112.41,-574,-7779,-3215,-1,-1,-1
161.03,-176.10,-112.41,-573,-7774,-3217,0,-1,0
161.03,-176.10,-112.41,-573,-7769,-3210,0,-1,0
161.03,-176.10,-112.40,-577,-7774,-3219,0,-1,0
161.03,-176.10,-112.40,-578,-7773,-3227,0,-1,-1
161.03,-176.09,-112.40,-577,-7772,-3218,0,-1,-1
161.04,-176.10,-112.39,-579,-7774,-3210,0,-1,-1
161.04,-176.09,-112.39,-582,-7771,-3213,0,-1,-1
161.05,-176.09,-112.39,-577,-7772,-3202,0,-1,-1
161.05,-176.09,-112.38,-571,-7778,-3212,0,-1,-1
161.06,-176.09,-112.37,-565,-7780,-3211,0,-1,-1
161.07,-176.09,-112.36,-572,-7771,-3201,0,-1,0
161.07,-176.09,-112.36,-578,-7773,-3192,0,-1,0
161.07,-176.09,-112.36,-566,-7772,-3194,0,0,0
161.07,-176.09,-112.35,-568,-7776,-3202,0,0,-1
161.07,-176.10,-112.35,-571,-7774,-3204,-1,0,-1
161.07,-176.10,-112.35,-578,-7776,-3214,0,-1,-1
161.08,-176.10,-112.35,-578,-7768,-3203,0,-1,-1
161.08,-176.10,-112.35,-568,-7771,-3194,-1,0,-1
161.08,-176.10,-112.35,-571,-7779,-3207,0,0,-1
161.08,-176.11,-112.35,-565,-7780,-3191,-1,0,-1
161.08,-176.11,-112.35,-570,-7776,-3192,-1,0,-1
161.08,-176.12,-112.36,-574,-7773,-3196,-1,0,-1
161.08,-176.12,-112.36,-570,-7780,-3191,-1,0,0
161.07,-176.11,-112.36,-570,-7778,-3190,-1,0,-1
161.08,-176.12,-112.36,-572,-7778,-3195,-1,0,-1
161.08,-176.13,-112.36,-566,-7782,-3199,-1,0,-1
161.08,-176.13,-112.36,-567,-7786,-3204,-1,0,-1
161.08,-176.13,-112.36,-574,-7778,-3197,0,0,-1
161.09,-176.14,-112.36,-566,-7781,-3201,0,0,-1
161.09,-176.14,-112.36,-559,-7773,-3198,-1,-1,-1
161.09,-176.14,-112.36,-558,-7774,-3205,0,0,-1
161.09,-176.14,-112.36,-553,-7775,-3203,-1,0,-1
161.10,-176.15,-112.36,-559,-7776,-3217,-1,0,-1
161.09,-176.15,-112.37,-565,-7783,-3212,0,0,-1
161.10,-176.15,-112.36,-566,-7783,-3202,0,0,-1
161.10,-176.15,-112.36,-566,-7778,-3196,-1,0,-1
161.11,-176.16,-112.36,-563,-7779,-3195,-1,0,-1
161.11,-176.16,-112.36,-559,-7785,-3194,-1,0,-1
161.11,-176.16,-112.36,-568,-7785,-3203,-1,0,0
161.10,-176.16,-112.37,-562,-7787,-3206,-1,-1,0
161.10,-176.16,-112.37,-562,-7777,-3206,-1,0,-1
161.10,-176.16,-112.37,-564,-7775,-3214,-1,0,-1
161.10,-176.17,-112.38,-570,-7774,-3216,-1,0,-1
161.10,-176.17,-112.38,-554,-7778,-3219,0,0,-1
161.10,-176.17,-112.38,-561,-7780,-3216,-1,0,-1
161.10,-176.18,-112.37,-564,-7786,-3215,0,0,-1
161.10,-176.18,-112.37,-554,-7786,-3200,0,0,0
161.11,-176.18,-112.37,-557,-7788,-3202,-1,0,-1
161.11,-176.18,-112.37,-557,-7783,-3191,-1,0,-1
161.11,-176.18,-112.38,-555,-7778,-3197,-1,0,-1
161.10,-176.18,-112.39,-561,-7776,-3212,-1,0,-1
161.10,-176.18,-112.39,-562,-7771,-3214,-1,0,-1
161.09,-176.19,-112.40,-569,-7770,-3216,-1,0,-1
161.10,-176.18,-112.39,-567,-7773,-3209,0,0,0
161.10,-176.19,-112.39,-560,-7778,-3208,-1,0,0
161.10,-176.19,-112.39,-560,-7781,-3197,-1,0,0
161.09,-176.19,-112.39,-562,-7776,-3202,-1,-1,0
161.09,-176.19,-112.39,-559,-7780,-3198,-1,-1,-1
161.09,-176.19,-112.39,-559,-7775,-3187,-1,-1,0
161.09,-176.19,-112.39,-565,-7775,-3193,0,0,-1
161.09,-176.19,-112.39,-559,-7778,-3194,-1,0,0
161.09,-176.19,-112.39,-566,-7781,-3208,-1,0,-1
161.09,-176.19,-112.39,-564,-7776,-3210,-1,0,0
161.08,-176.18,-112.40,-564,-7768,-3205,-1,0,0
161.08,-176.19,-112.40,-564,-7770,-3211,-1,0,0
161.08,-176.19,-112.40,-556,-7770,-3209,-1,-1,0
161.08,-176.19,-112.41,-553,-7771,-3214,-1,0,-1
161.08,-176.19,-112.41,-552,-7777,-3223,-1,0,0
161.08,-176.19,-112.41,-554,-7777,-3219,-1,-1,-1
161.08,-176.19,-112.41,-555,-7781,-3213,-1,-1,0
161.08,-176.19,-112.41,-559,-7781,-3209,0,-1,0
161.07,-176.19,-112.41,-558,-7779,-3204,-1,0,0
161.08,-176.19,-112.41,-549,-7781,-3215,-1,-1,0
161.08,-176.19,-112.41,-546,-7784,-3218,0,-1,-1
161.08,-176.19,-112.41,-546,-7780,-3205,0,-1,-1
161.08,-176.19,-112.41,-557,-7773,-3205,-1,0,-1
161.08,-176.19,-112.41,-556,-7773,-3200,-1,-1,0
161.08,-176.19,-112.41,-555,-7770,-3202,-1,0,0
161.07,-176.19,-112.42,-554,-7773,-3210,-1,0,0
161.07,-176.19,-112.42,-561,-7785,-3212,-1,-1,0
161.07,-176.19,-112.42,-564,-7789,-3216,0,-1,-1
161.08,-176.20,-112.42,-559,-7782,-3214,-1,-1,-1
161.07,-176.19,-112.42,-555,-7773,-3208,-1,-1,0
161.07,-176.19,-112.42,-557,-7773,-3214,-1,-1,0
161.07,-176.19,-112.42,-563,-7773,-3221,-1,-1,0
161.05,-176.18,-112.44,-565,-7773,-3222,-1,-1,0
161.05,-176.18,-112.43,-558,-7768,-3222,0,-1,0
161.06,-176.18,-112.43,-561,-7768,-3214,0,-1,0
161.06,-176.18,-112.43,-565,-7771,-3209,0,-1,-1
161.06,-176.18,-112.43,-559,-7778,-3214,0,-1,0
161.06,-176.18,-112.43,-558,-7785,-3212,0,-1,-1
161.06,-176.18,-112.42,-553,-7782,-3203,-1,-1,0
161.06,-176.18,-112.42,-552,-7780,-3204,-1,-1,0
161.06,-176.18,-112.43,-548,-7777,-3214,-1,-1,0
161.05,-176.17,-112.43,-546,-7778,-3231,0,-1,0
161.06,-176.18,-112.43,-547,-7776,-3225,0,-1,0
161.06,-176.18,-112.43,-551,-7774,-3221,0,-1,0
161.06,-176.17,-112.43,-560,-7772,-3206,0,-1,0
161.06,-176.17,-112.42,-558,-7774,-3205,0,-1,0
161.05,-176.17,-112.42,-561,-7779,-3205,-1,-1,0
161.05,-176.16,-112.43,-556,-7779,-3212,-1,-1,0
161.05,-176.16,-112.43,-563,-7778,-3208,-1,-1,0
161.05,-176.16,-112.43,-566,-7761,-3208,0,-1,0
161.04,-176.16,-112.43,-564,-7766,-3195,-1,-1,0
161.04,-176.16,-112.43,-571,-7768,-3192,-1,0,-1
161.04,-176.16,-112.43,-564,-7778,-3212,-1,-1,0
161.04,-176.16,-112.43,-568,-7778,-3216,-1,-1,0
161.04,-176.15,-112.43,-569,-7780,-3213,0,-1,0
161.04,-176.15,-112.42,-564,-7773,-3205,0,-1,0
161.05,-176.15,-112.42,-560,-7769,-3195,-1,-1,0
161.05,-176.15,-112.42,-563,-7788,-3232,0,-1,0
161.06,-176.13,-112.39,-569,-7792,-3236,1,-1,0
161.08,-176.12,-112.35,-571,-7798,-3209,1,-1,0
161.10,-176.11,-112.32,-577,-7764,-3149,0,-1,0
161.10,-176.12,-112.32,-566,-7736,-3115,-1,0,-1
161.09,-176.14,-112.36,-555,-7746,-3151,-2,0,-1
161.07,-176.14,-112.39,-553,-7780,-3213,-1,0,0
161.05,-176.14,-112.41,-564,-7805,-3248,0,-1,0
161.06,-176.13,-112.40,-578,-7805,-3244,0,-1,0
161.07,-176.13,-112.38,-581,-7782,-3213,0,-1,-1
161.08,-176.13,-112.37,-562,-7765,-3186,0,0,-1
161.09,-176.14,-112.37,-552,-7769,-3186,-1,0,-1
161.09,-176.14,-112.38,-557,-7772,-3199,0,-1,0
161.09,-176.14,-112.37,-556,-7781,-3203,0,-1,0
161.09,-176.14,-112.36,-567,-7779,-3200,0,-1,-1
161.10,-176.14,-112.36,-573,-7778,-3192,0,-1,-1
161.10,-176.14,-112.36,-565,-7777,-3185,-1,0,-1
161.10,-176.15,-112.36,-559,-7784,-3193,-1,0,-1
161.10,-176.15,-112.36,-565,-7782,-3198,-1,-1,0
161.09,-176.14,-112.37,-579,-7779,-3199,-1,0,0
161.09,-176.14,-112.37,-581,-7778,-3196,-1,0,-1
161.08,-176.14,-112.38,-575,-7780,-3208,-1,0,-1
161.08,-176.14,-112.38,-578,-7774,-3205,0,0,-1
161.08,-176.15,-112.37,-574,-7779,-3197,0,0,-1
161.10,-176.16,-112.37,-569,-7784,-3196,-1,0,-1
161.09,-176.16,-112.38,-565,-7791,-3194,-1,0,-1
161.09,-176.16,-112.38,-559,-7782,-3191,-1,-1,-1
161.09,-176.16,-112.38,-562,-7771,-3187,-1,0,0
161.09,-176.16,-112.38,-559,-7774,-3190,-1,0,-1
161.09,-176.16,-112.38,-554,-7774,-3204,0,0,-1
161.09,-176.17,-112.38,-552,-7777,-3204,0,0,-1
161.10,-176.17,-112.37,-556,-7777,-3209,0,0,-1
161.10,-176.17,-112.38,-556,-7781,-3207,-1,0,0
161.09,-176.17,-112.38,-560,-7779,-3204,-1,-1,0
161.09,-176.17,-112.38,-564,-7779,-3197,-1,0,-1
161.09,-176.17,-112.39,-560,-7774,-3202,-1,0,-1
161.09,-176.18,-112.39,-554,-7782,-3211,-1,0,-1
161.09,-176.18,-112.39,-554,-7775,-3203,-1,0,-1
161.10,-176.18,-112.39,-560,-7777,-3208,0,0,-1
161.10,-176.18,-112.39,-559,-7781,-3203,-1,0,-1
161.10,-176.18,-112.39,-561,-7775,-3208,-1,0,0
161.10,-176.18,-112.39,-560,-7777,-3204,-1,-1,0
161.09,-176.19,-112.40,-555,-7777,-3203,-1,0,0
161.09,-176.18,-112.40,-557,-7772,-3206,-1,0,0
161.08,-176.18,-112.40,-554,-7775,-3211,-1,0,0
161.08,-176.18,-112.40,-553,-7780,-3209,-1,0,-1
161.09,-176.19,-112.40,-558,-7776,-3213,0,0,-1
161.09,-176.19,-112.40,-555,-7777,-3215,0,0,-1
161.09,-176.19,-112.40,-557,-7771,-3210,0,0,-1
161.09,-176.20,-112.40,-557,-7775,-3213,-1,0,0
161.08,-176.19,-112.41,-557,-7770,-3210,-1,0,0
161.08,-176.19,-112.41,-561,-7770,-3216,-1,-1,0
161.08,-176.19,-112.41,-562,-7766,-3223,-1,0,-1
161.08,-176.20,-112.42,-561,-7765,-3220,-1,0,-1
161.08,-176.20,-112.42,-564,-7766,-3221,0,0,-1
161.08,-176.20,-112.42,-563,-7774,-3217,0,0,-1
161.08,-176.20,-112.42,-557,-7777,-3217,-1,0,-1
161.08,-176.20,-112.42,-554,-7774,-3214,-1,0,0
161.07,-176.19,-112.42,-557,-7773,-3215,0,-1,0
161.07,-176.19,-112.42,-554,-7769,-3208,0,-1,0
161.07,-176.19,-112.41,-560,-7769,-3207,0,0,-1
161.08,-176.20,-112.41,-564,-7777,-3203,-1,-1,-1
161.07,-176.19,-112.41,-566,-7785,-3203,-1,-1,-1
161.07,-176.19,-112.42,-564,-7776,-3204,-1,-1,0
161.07,-176.19,-112.42,-557,-7777,-3207,-1,-1,0
161.07,-176.19,-112.42,-557,-7776,-3204,-1,0,0
161.07,-176.19,-112.42,-559,-7774,-3212,-1,0,-1
161.07,-176.19,-112.42,-563,-7778,-3218,0,-1,-1
161.07,-176.19,-112.42,-561,-7782,-3218,0,-1,-1
161.07,-176.19,-112.42,-562,-7783,-3221,0,-1,0
161.07,-176.19,-112.42,-565,-7777,-3209,-1,0,0
161.07,-176.19,-112.42,-559,-7778,-3208,-1,0,0
161.07,-176.19,-112.42,-560,-7785,-3204,-1,-1,-1
161.07,-176.19,-112.42,-555,-7781,-3203,-1,-1,-1
161.08,-176.20,-112.42,-556,-7783,-3205,0,-1,-1
161.08,-176.20,-112.42,-554,-7775,-3210,-1,0,0
161.08,-176.20,-112.42,-554,-7779,-3204,-1,-1,-1
161.08,-176.20,-112.42,-556,-7776,-3203,-1,-1,0
161.08,-176.20,-112.42,-555,-7778,-3206,0,-1,0
161.07,-176.19,-112.42,-560,-7775,-3208,-1,-1,0
161.07,-176.19,-112.42,-557,-7772,-3212,-1,-1,0
161.07,-176.19,-112.42,-557,-7775,-3221,-1,-1,-1
161.07,-176.19,-112.42,-558,-7776,-3209,0,-1,-1
161.07,-176.19,-112.42,-556,-7785,-3213,-1,-1,0
161.07,-176.19,-112.42,-561,-7780,-3211,-1,0,-1
161.07,-176.19,-112.42,-565,-7781,-3223,0,-1,0
161.07,-176.19,-112.42,-559,-7773,-3215,0,-1,0
161.07,-176.19,-112.42,-560,-7769,-3210,0,0,0
161.07,-176.19,-112.42,-553,-7766,-3204,-1,-1,0
161.07,-176.19,-112.42,-556,-7771,-3203,-1,-1,0
161.07,-176.19,-112.42,-553,-7774,-3207,-1,-1,0
161.06,-176.18,-112.43,-564,-7776,-3200,-1,-1,0
161.06,-176.18,-112.43,-565,-7777,-3201,0,-1,0
161.06,-176.18,-112.43,-557,-7768,-3205,0,0,-1
161.07,-176.19,-112.42,-560,-7771,-3208,0,-1,-1
161.07,-176.19,-112.42,-560,-7776,-3211,0,-1,0
161.07,-176.18,-112.41,-559,-7778,-3210,0,-1,0
161.07,-176.18,-112.41,-563,-7768,-3206,0,-1,0
161.07,-176.18,-112.41,-562,-7772,-3205,-1,-1,-1
161.07,-176.18,-112.41,-560,-7765,-3201,-1,0,0
161.07,-176.18,-112.41,-561,-7768,-3200,-1,0,-1
161.07,-176.18,-112.41,-561,-7782,-3199,0,-1,-1
161.07,-176.18,-112.41,-559,-7778,-3199,-1,-1,0
161.06,-176.18,-112.41,-560,-7775,-3204,-1,-1,0
161.06,-176.18,-112.42,-562,-7776,-3213,-1,-1,0
161.06,-176.18,-112.42,-560,-7780,-3209,-1,-1,0
161.06,-176.18,-112.42,-565,-7775,-3193,-1,-1,-1
161.06,-176.18,-112.43,-562,-7760,-3184,-1,0,-1
161.05,-176.18,-112.44,-560,-7772,-3200,-1,0,0
161.04,-176.18,-112.45,-561,-7781,-3219,-1,-1,0
161.04,-176.18,-112.44,-566,-7770,-3219,0,-1,-1
161.05,-176.18,-112.43,-568,-7760,-3208,0,-1,-1
161.07,-176.19,-112.41,-565,-7775,-3203,0,0,-1
161.07,-176.19,-112.41,-557,-7790,-3200,0,0,-1
161.07,-176.19,-112.41,-556,-7796,-3204,-1,0,0
161.06,-176.19,-112.42,-560,-7789,-3206,-1,-1,-1
161.05,-176.19,-112.43,-561,-7773,-3206,-1,-1,0
161.05,-176.19,-112.44,-561,-7765,-3216,-1,0,-1
161.05,-176.19,-112.44,-565,-7767,-3221,0,0,-1
161.05,-176.19,-112.44,-561,-7767,-3211,0,0,-1
161.07,-176.20,-112.43,-557,-7777,-3204,0,-1,0
161.05,-176.19,-112.44,-564,-7778,-3213,-1,-1,0
161.05,-176.19,-112.44,-557,-7766,-3209,-1,-1,0
161.05,-176.19,-112.44,-560,-7770,-3208,0,-1,0
161.05,-176.19,-112.44,-560,-7777,-3210,0,0,-1
161.06,-176.19,-112.43,-560,-7773,-3196,0,0,-1
161.06,-176.20,-112.44,-551,-7778,-3194,-1,0,-1
161.06,-176.20,-112.44,-553,-7774,-3200,-1,0,-1
161.06,-176.21,-112.44,-542,-7766,-3195,-1,0,-1
161.06,-176.21,-112.46,-546,-7774,-3211,-1,0,0
161.06,-176.21,-112.46,-549,-7784,-3216,-1,0,-1
161.06,-176.22,-112.46,-551,-7792,-3228,-1,-1,0
161.06,-176.21,-112.46,-552,-7788,-3214,0,-1,-1
161.06,-176.22,-112.45,-554,-7772,-3209,0,-1,-1
161.06,-176.22,-112.45,-552,-7772,-3218,-1,0,-1
161.06,-176.22,-112.45,-551,-7777,-3223,0,-1,0
161.06,-176.21,-112.45,-558,-7775,-3214,0,-1,0
161.06,-176.21,-112.45,-559,-7767,-3215,0,-1,0
161.06,-176.21,-112.45,-552,-7775,-3224,-1,-1,-1
161.06,-176.22,-112.45,-549,-7775,-3223,0,-1,-1
161.06,-176.21,-112.46,-555,-7779,-3226,-1,-1,0
161.05,-176.21,-112.46,-558,-7788,-3231,-1,-1,0
161.05,-176.21,-112.47,-559,-7778,-3230,-1,-1,0
161.04,-176.20,-112.47,-564,-7770,-3229,-1,-1,-1
161.03,-176.21,-112.48,-559,-7768,-3223,-1,0,0
161.03,-176.21,-112.48,-563,-7764,-3227,0,-1,0
161.04,-176.20,-112.47,-557,-7767,-3228,0,0,-1
161.04,-176.20,-112.47,-553,-7777,-3231,0,-1,-1
161.04,-176.20,-112.47,-557,-7773,-3224,0,-1,0
161.04,-176.20,-112.47,-556,-7772,-3224,-1,-1,0
161.03,-176.21,-112.48,-558,-7769,-3218,-1,-1,0
161.03,-176.21,-112.48,-556,-7771,-3214,-1,0,0
161.03,-176.21,-112.48,-558,-7781,-3220,-1,-1,0
161.03,-176.21,-112.48,-551,-7775,-3220,-1,-1,-1
161.03,-176.20,-112.49,-552,-7766,-3230,-1,-1,0
161.03,-176.20,-112.49,-556,-7767,-3218,0,-1,0
161.03,-176.20,-112.49,-560,-7772,-3213,0,-1,0
161.03,-176.20,-112.49,-558,-7779,-3221,-1,-1,0
161.03,-176.20,-112.49,-556,-7781,-3221,-1,-1,0
161.02,-176.20,-112.50,-551,-7775,-3229,-1,-1,0
161.02,-176.20,-112.50,-555,-7764,-3224,0,-1,0
161.02,-176.20,-112.50,-559,-7761,-3223,0,-1,0
161.02,-176.20,-112.50,-562,-7761,-3225,0,0,-1
161.02,-176.20,-112.50,-554,-7769,-3219,-1,0,-1
161.02,-176.20,-112.50,-552,-7772,-3222,-1,-1,-1
161.02,-176.20,-112.50,-557,-7770,-3222,-1,-1,0
161.02,-176.20,-112.50,-557,-7767,-3214,-1,-1,0
161.02,-176.20,-112.50,-560,-7767,-3211,0,-1,-1
161.02,-176.20,-112.49,-556,-7765,-3196,0,0,-1
161.02,-176.20,-112.49,-555,-7767,-3198,-1,-1,-1
161.02,-176.20,-112.49,-557,-7772,-3206,-1,-1,0
161.02,-176.20,-112.49,-562,-7771,-3215,-1,-1,-1
161.02,-176.19,-112.49,-560,-7770,-3219,-1,-1,-1
161.02,-176.19,-112.50,-559,-7779,-3226,0,-1,-1
161.02,-176.19,-112.49,-551,-7779,-3221,0,-1,0
161.02,-176.19,-112.49,-558,-7777,-3228,0,-1,0
161.02,-176.19,-112.49,-556,-7774,-3216,0,-1,-1
161.02,-176.19,-112.49,-553,-7780,-3214,-1,-1,-1
161.02,-176.19,-112.49,-557,-7778,-3213,-1,-1,0
161.02,-176.19,-112.49,-565,-7763,-3214,-1,-1,0
161.01,-176.18,-112.50,-569,-7766,-3223,-1,-1,0
161.01,-176.18,-112.50,-565,-7768,-3226,-1,-1,-1
161.01,-176.18,-112.50,-560,-7771,-3225,0,-1,0
161.02,-176.19,-112.49,-557,-7764,-3215,0,-1,-1
161.03,-176.19,-112.49,-553,-7763,-3207,0,-1,0
161.03,-176.19,-112.48,-554,-7762,-3210,0,-1,0
161.03,-176.19,-112.48,-558,-7768,-3219,-1,0,-1
161.03,-176.19,-112.48,-558,-7776,-3214,-1,0,-1
161.03,-176.19,-112.49,-552,-7769,-3216,-1,-1,0
161.02,-176.19,-112.49,-554,-7761,-3226,-1,-1,0
161.02,-176.19,-112.49,-561,-7764,-3214,-1,0,0
161.02,-176.19,-112.49,-561,-7769,-3219,-1,0,0
161.02,-176.19,-112.50,-559,-7774,-3220,-1,-1,-1
161.02,-176.19,-112.50,-555,-7768,-3219,-1,0,0
161.01,-176.18,-112.50,-561,-7773,-3227,0,-1,-1
161.02,-176.19,-112.50,-560,-7777,-3224,-1,-1,0
161.01,-176.19,-112.50,-557,-7772,-3229,-1,0,-1
161.01,-176.19,-112.51,-561,-7771,-3226,-1,-1,-1
161.02,-176.20,-112.51,-561,-7773,-3224,-1,-1,-1
161.02,-176.20,-112.51,-558,-7771,-3220,0,-1,-1
161.02,-176.20,-112.51,-562,-7768,-3207,0,-1,0
161.01,-176.19,-112.50,-566,-7770,-3214,0,-1,0
161.01,-176.19,-112.50,-552,-7768,-3227,0,-1,0
161.01,-176.19,-112.50,-557,-7770,-3235,0,-1,0
161.01,-176.19,-112.50,-556,-7774,-3226,0,-1,-1
161.01,-176.19,-112.50,-557,-7779,-3221,-1,-1,0
161.01,-176.19,-112.51,-558,-7768,-3214,-1,-1,-1
161.01,-176.19,-112.51,-565,-7760,-3216,-1,-1,0
161.00,-176.18,-112.52,-562,-7765,-3236,-1,-1,-1
161.00,-176.19,-112.53,-565,-7771,-3240,0,-1,-1
161.00,-176.18,-112.52,-568,-7761,-3221,0,-1,-1
161.02,-176.19,-112.51,-566,-7751,-3216,0,-1,-1
161.02,-176.19,-112.51,-564,-7763,-3203,-1,0,0
161.02,-176.19,-112.50,-564,-7777,-3199,-1,0,0
161.02,-176.19,-112.51,-554,-7777,-3211,-1,-1,0
161.01,-176.19,-112.51,-559,-7774,-3215,-1,-1,0
161.01,-176.19,-112.51,-562,-7768,-3216,0,-1,0
161.02,-176.19,-112.50,-560,-7765,-3206,0,-1,-1
161.02,-176.19,-112.50,-550,-7768,-3211,0,0,-1
161.03,-176.20,-112.49,-551,-7779,-3221,-1,-1,-1
161.03,-176.20,-112.49,-548,-7779,-3235,0,-1,0
161.03,-176.19,-112.50,-557,-7773,-3224,0,-1,0
161.03,-176.18,-112.48,-567,-7780,-3206,0,-1,0
161.02,-176.17,-112.49,-574,-7785,-3197,-1,-1,0
161.01,-176.16,-112.50,-574,-7788,-3205,-1,-1,0
160.99,-176.16,-112.53,-574,-7769,-3213,-1,0,-1
160.98,-176.17,-112.55,-571,-7738,-3211,-1,0,-1
160.98,-176.18,-112.56,-566,-7728,-3230,-1,0,-1
160.99,-176.19,-112.57,-557,-7740,-3243,0,0,-1
161.00,-176.21,-112.56,-549,-7762,-3257,0,0,-1
161.00,-176.21,-112.55,-544,-7773,-3241,-1,0,-1
161.01,-176.21,-112.55,-541,-7773,-3247,0,-1,0
161.02,-176.21,-112.53,-540,-7756,-3232,0,-1,0
161.01,-176.20,-112.53,-552,-7769,-3220,0,-1,0
161.01,-176.18,-112.53,-565,-7788,-3200,-1,-1,0
160.99,-176.17,-112.53,-580,-7778,-3201,-1,-1,0
160.99,-176.16,-112.53,-583,-7765,-3210,-1,0,-1
161.00,-176.18,-112.53,-575,-7744,-3210,0,0,-1
161.02,-176.19,-112.51,-553,-7746,-3201,0,0,-1
161.03,-176.20,-112.50,-547,-7788,-3200,0,0,0
161.03,-176.20,-112.50,-544,-7823,-3200,-1,-1,0
161.01,-176.18,-112.53,-558,-7809,-3202,-1,-1,0
160.98,-176.18,-112.55,-571,-7760,-3206,-1,0,0
160.97,-176.18,-112.57,-565,-7726,-3227,-1,0,-1
160.98,-176.19,-112.57,-559,-7729,-3246,0,0,-1
160.99,-176.19,-112.55,-552,-7765,-3261,0,0,-1
161.00,-176.20,-112.54,-557,-7790,-3251,0,-1,0
161.01,-176.19,-112.52,-563,-7782,-3223,0,-1,0
161.01,-176.19,-112.52,-570,-7770,-3209,-1,0,0
161.01,-176.19,-112.51,-564,-7761,-3213,0,0,-1
161.02,-176.20,-112.51,-562,-7761,-3219,0,0,-1
161.02,-176.21,-112.50,-560,-7778,-3227,0,0,-1
161.04,-176.21,-112.49,-559,-7791,-3221,0,0,-1
161.03,-176.22,-112.50,-551,-7792,-3223,-1,0,-1
161.03,-176.22,-112.51,-556,-7786,-3216,-1,0,-1
161.03,-176.22,-112.52,-550,-7766,-3220,-1,0,-1
161.03,-176.23,-112.51,-550,-7752,-3211,-1,0,-1
161.03,-176.23,-112.51,-551,-7760,-3216,0,-1,-1
161.05,-176.24,-112.51,-545,-7767,-3215,0,-1,0
161.04,-176.22,-112.50,-553,-7793,-3215,-1,-1,0
161.03,-176.22,-112.52,-553,-7795,-3225,-1,-1,0
161.02,-176.22,-112.53,-558,-7778,-3225,-1,-1,0
161.00,-176.20,-112.54,-562,-7759,-3233,-1,-1,0
161.00,-176.21,-112.55,-550,-7746,-3225,-1,-1,-1
161.00,-176.21,-112.55,-552,-7751,-3233,-1,0,-1
161.01,-176.22,-112.55,-547,-7766,-3238,-1,0,-1
161.01,-176.22,-112.55,-542,-7781,-3233,0,-1,-1
161.01,-176.22,-112.55,-544,-7779,-3237,0,-1,0
161.00,-176.21,-112.55,-552,-7767,-3236,0,-1,0
161.00,-176.20,-112.54,-562,-7763,-3232,0,-1,0
160.99,-176.19,-112.54,-573,-7760,-3236,0,-1,0
160.99,-176.18,-112.53,-579,-7756,-3237,0,-1,0
161.00,-176.19,-112.52,-578,-7769,-3230,0,-1,-1
161.00,-176.18,-112.51,-578,-7784,-3230,0,0,-1
161.00,-176.18,-112.51,-567,-7781,-3215,-1,0,0
161.00,-176.18,-112.51,-571,-7779,-3209,-1,0,-1
161.00,-176.19,-112.52,-567,-7775,-3211,-1,0,-1
161.01,-176.20,-112.52,-563,-7770,-3221,-1,0,-1
161.01,-176.21,-112.52,-544,-7772,-3212,-1,0,-1
161.02,-176.23,-112.52,-529,-7767,-3212,-1,0,-1
161.01,-176.23,-112.54,-532,-7771,-3213,-1,-1,0
161.01,-176.22,-112.55,-540,-7771,-3223,-1,-1,0
160.99,-176.22,-112.56,-553,-7761,-3227,-1,-1,0
160.99,-176.22,-112.55,-551,-7748,-3233,0,0,-1
161.01,-176.22,-112.54,-555,-7744,-3234,0,0,-1
161.01,-176.23,-112.53,-551,-7762,-3238,0,0,-1
161.02,-176.22,-112.52,-551,-7779,-3233,0,-1,0
161.02,-176.22,-112.52,-543,-7779,-3231,0,-1,0
161.02,-176.21,-112.51,-547,-7778,-3228,-1,-1,0
161.01,-176.21,-112.52,-556,-7765,-3217,-1,-1,0
161.00,-176.21,-112.52,-560,-7757,-3211,-1,0,0
160.99,-176.20,-112.53,-560,-7756,-3228,-1,0,-1
160.99,-176.20,-112.53,-561,-7770,-3237,-1,0,-1
161.00,-176.21,-112.53,-561,-7774,-3234,-1,-1,-1
161.00,-176.21,-112.54,-560,-7773,-3235,-1,-1,-1
161.00,-176.21,-112.54,-556,-7775,-3231,0,-1,-1
161.00,-176.21,-112.54,-559,-7768,-3230,-1,0,0
161.00,-176.21,-112.54,-558,-7758,-3232,0,0,-1
160.99,-176.21,-112.54,-558,-7767,-3233,0,0,0
160.99,-176.21,-112.54,-555,-7769,-3234,0,0,0
161.00,-176.21,-112.53,-561,-7769,-3223,0,-1,0
161.00,-176.21,-112.53,-563,-7763,-3221,0,-1,0
160.99,-176.20,-112.53,-560,-7755,-3219,0,-1,-1
161.01,-176.21,-112.53,-550,-7753,-3203,0,0,-1
161.01,-176.22,-112.52,-544,-7763,-3215,-1,0,-1
161.01,-176.22,-112.52,-551,-7779,-3220,-1,-1,0
161.00,-176.21,-112.53,-552,-7774,-3212,-1,-1,0
161.00,-176.21,-112.53,-558,-7774,-3220,-1,0,0
161.00,-176.21,-112.53,-556,-7765,-3229,-1,0,-1
160.99,-176.21,-112.54,-559,-7761,-3228,-1,-1,-1
160.99,-176.21,-112.54,-555,-7757,-3241,0,-1,0
160.98,-176.20,-112.54,-551,-7760,-3234,0,-1,0
160.98,-176.20,-112.54,-554,-7763,-3233,0,-1,0
160.99,-176.20,-112.54,-552,-7769,-3239,0,-1,-1
160.99,-176.21,-112.53,-550,-7763,-3225,-1,-1,-1
160.99,-176.20,-112.54,-547,-7757,-3227,0,0,0
160.99,-176.20,-112.54,-556,-7758,-3234,0,0,0
160.99,-176.20,-112.54,-561,-7771,-3228,0,-1,-1
160.99,-176.20,-112.53,-566,-7778,-3229,0,-1,-1
161.00,-176.20,-112.52,-562,-7765,-3227,0,-1,-1
161.01,-176.21,-112.52,-562,-7769,-3215,-1,0,-1
161.01,-176.21,-112.53,-549,-7772,-3212,-1,-1,-1
161.01,-176.21,-112.53,-549,-7777,-3196,-1,-1,0
161.00,-176.21,-112.54,-545,-7783,-3204,-1,-1,0
160.99,-176.20,-112.54,-547,-7763,-3213,-1,-1,0
160.99,-176.20,-112.54,-562,-7756,-3218,0,-1,0
160.99,-176.20,-112.54,-566,-7754,-3221,0,0,-1
160.99,-176.21,-112.53,-564,-7760,-3224,0,0,-1
161.01,-176.21,-112.53,-555,-7765,-3210,-1,0,-1
161.01,-176.22,-112.52,-543,-7773,-3215,-1,-1,0
161.01,-176.21,-112.53,-553,-7779,-3217,0,-1,0
161.01,-176.21,-112.52,-550,-7765,-3208,0,-1,0
161.01,-176.20,-112.50,-560,-7754,-3187,0,-1,0
161.01,-176.21,-112.50,-562,-7758,-3200,-1,0,-1
161.01,-176.21,-112.51,-556,-7786,-3229,-1,0,-1
161.00,-176.20,-112.51,-558,-7786,-3244,0,-1,0
161.00,-176.20,-112.51,-563,-7780,-3240,0,-1,0
161.01,-176.20,-112.50,-556,-7773,-3221,-1,-1,-1
161.01,-176.21,-112.51,-547,-7762,-3212,-1,0,-1
161.01,-176.21,-112.52,-552,-7760,-3227,-1,0,-1
161.01,-176.21,-112.53,-564,-7765,-3227,0,-1,-1
161.01,-176.21,-112.52,-561,-7774,-3229,0,-1,0
161.01,-176.21,-112.52,-562,-7775,-3231,0,-1,-1
161.01,-176.21,-112.52,-570,-7759,-3220,0,-1,-1
161.01,-176.21,-112.51,-565,-7753,-3225,0,-1,0
161.01,-176.21,-112.51,-554,-7765,-3212,-1,0,0
161.01,-176.21,-112.51,-559,-7777,-3210,-1,0,-1
161.01,-176.21,-112.51,-563,-7777,-3220,-1,-1,0
161.01,-176.21,-112.52,-557,-7757,-3215,-1,0,-1
161.01,-176.21,-112.52,-552,-7761,-3228,0,0,-1
161.01,-176.22,-112.51,-549,-7766,-3223,0,0,-1
161.01,-176.21,-112.51,-552,-7765,-3221,0,-1,-1
161.03,-176.22,-112.50,-551,-7767,-3215,0,-1,0
161.02,-176.22,-112.50,-561,-7780,-3220,0,-1,0
161.02,-176.21,-112.50,-558,-7776,-3207,-1,-1,0
161.02,-176.21,-112.50,-560,-7774,-3204,-1,-1,0
161.01,-176.21,-112.50,-557,-7768,-3209,-1,-1,-1
161.02,-176.21,-112.51,-559,-7769,-3210,-1,0,-1
161.02,-176.21,-112.51,-553,-7773,-3212,-1,0,-1
161.01,-176.21,-112.51,-549,-7777,-3224,-1,0,-1
161.02,-176.22,-112.51,-547,-7770,-3228,0,-1,0
161.01,-176.21,-112.51,-551,-7763,-3220,0,-1,0
161.01,-176.21,-112.51,-556,-7765,-3223,0,-1,0
161.01,-176.21,-112.51,-555,-7764,-3222,0,-1,0
161.02,-176.21,-112.51,-556,-7772,-3232,0,-1,0
161.02,-176.21,-112.51,-554,-7775,-3230,0,-1,-1
161.02,-176.21,-112.51,-556,-7772,-3229,0,-1,-1
161.02,-176.22,-112.50,-556,-7772,-3235,0,-1,-1
161.02,-176.21,-112.50,-552,-7769,-3231,0,-1,-1
161.02,-176.21,-112.50,-555,-7764,-3225,0,0,-1
161.03,-176.22,-112.50,-558,-7772,-3217,0,0,-1
161.04,-176.22,-112.50,-554,-7783,-3219,-1,0,-1
161.02,-176.22,-112.51,-549,-7788,-3225,-1,0,0
161.02,-176.23,-112.52,-543,-7763,-3227,-1,-1,0
161.02,-176.22,-112.52,-549,-7750,-3231,0,-1,0
161.01,-176.22,-112.52,-556,-7749,-3228,0,0,0
161.01,-176.22,-112.51,-561,-7771,-3233,0,0,-1
161.02,-176.22,-112.51,-560,-7784,-3227,0,-1,-1
161.02,-176.22,-112.51,-550,-7769,-3210,-1,-1,0
161.02,-176.22,-112.51,-554,-7747,-3203,-1,0,0
161.01,-176.22,-112.53,-560,-7762,-3213,-1,0,-1
161.00,-176.22,-112.54,-559,-7771,-3221,-1,0,0
160.99,-176.21,-112.54,-563,-7766,-3223,0,-1,-1
161.00,-176.22,-112.53,-566,-7770,-3221,0,0,-1
161.00,-176.22,-112.54,-565,-7774,-3222,-1,-1,-1
161.00,-176.22,-112.53,-567,-7769,-3224,0,-1,0
161.00,-176.21,-112.52,-567,-7762,-3222,0,-1,0
161.00,-176.21,-112.52,-561,-7765,-3231,0,-1,0
161.00,-176.22,-112.53,-556,-7780,-3237,-1,-1,-1
160.99,-176.21,-112.54,-557,-7784,-3240,-1,-1,0
161.00,-176.22,-112.54,-553,-7774,-3239,0,-1,-1
161.00,-176.22,-112.53,-551,-7763,-3233,0,-1,-1
161.02,-176.22,-112.52,-543,-7766,-3230,0,-1,-1
161.02,-176.22,-112.51,-553,-7775,-3223,0,-1,0
161.02,-176.21,-112.50,-563,-7787,-3204,-1,0,0
161.01,-176.21,-112.51,-552,-7799,-3208,-1,0,0
161.00,-176.21,-112.52,-540,-7791,-3217,-1,0,0
160.99,-176.21,-112.54,-540,-7774,-3228,-1,-1,0
160.98,-176.20,-112.55,-555,-7753,-3235,-1,-1,0
160.98,-176.21,-112.55,-554,-7733,-3217,0,0,-1
160.99,-176.21,-112.55,-553,-7740,-3221,-1,0,-1
160.99,-176.22,-112.55,-554,-7767,-3235,0,0,-1
160.99,-176.22,-112.55,-558,-7791,-3251,0,-1,0
160.99,-176.21,-112.54,-556,-7789,-3235,0,-1,0
160.99,-176.21,-112.53,-558,-7773,-3206,0,-1,0
160.99,-176.21,-112.53,-563,-7757,-3210,-1,0,0
160.98,-176.20,-112.53,-562,-7769,-3221,0,0,0
160.98,-176.20,-112.53,-567,-7782,-3232,0,0,0
160.98,-176.20,-112.53,-565,-7781,-3235,0,-1,0
160.98,-176.20,-112.53,-564,-7779,-3229,-1,-1,0
160.98,-176.20,-112.54,-563,-7777,-3230,-1,-1,-1
160.98,-176.20,-112.54,-558,-7762,-3225,-1,-1,-1
160.98,-176.20,-112.54,-560,-7767,-3225,-1,0,-1
160.98,-176.20,-112.55,-558,-7769,-3229,-1,0,-1
160.99,-176.21,-112.55,-560,-7769,-3237,-1,-1,-1
160.99,-176.21,-112.55,-556,-7773,-3245,0,-1,-1
160.99,-176.21,-112.54,-551,-7761,-3234,0,-1,-1
160.99,-176.21,-112.54,-551,-7762,-3231,0,-1,0
160.98,-176.20,-112.54,-541,-7754,-3221,-1,-1,0
160.97,-176.20,-112.55,-554,-7757,-3226,-1,0,0
160.96,-176.20,-112.56,-555,-7775,-3248,-1,-1,0
160.96,-176.20,-112.56,-558,-7794,-3244,0,-1,0
160.97,-176.19,-112.55,-563,-7770,-3222,0,-1,0
160.97,-176.20,-112.55,-569,-7757,-3209,-1,0,-1
160.97,-176.20,-112.55,-561,-7751,-3215,-1,0,-1
160.99,-176.21,-112.55,-557,-7765,-3228,0,-1,-1
160.99,-176.21,-112.54,-550,-7769,-3220,0,-1,-1
161.01,-176.21,-112.53,-550,-7767,-3204,0,-1,-1
161.01,-176.21,-112.53,-552,-7761,-3197,-1,0,-1
161.01,-176.22,-112.53,-553,-7767,-3209,-1,0,-1
161.01,-176.22,-112.52,-550,-7769,-3217,0,0,0
161.01,-176.22,-112.51,-538,-7766,-3201,0,-1,0
161.00,-176.21,-112.52,-544,-7765,-3209,0,0,0
160.99,-176.20,-112.52,-552,-7777,-3220,-1,0,0
160.98,-176.20,-112.53,-559,-7785,-3219,-1,-1,0
160.98,-176.20,-112.53,-556,-7778,-3219,-1,-1,0
160.97,-176.19,-112.53,-559,-7765,-3222,-1,-1,0
160.97,-176.19,-112.53,-548,-7754,-3216,-1,0,-1
160.97,-176.19,-112.53,-543,-7750,-3213,0,0,0
160.97,-176.18,-112.52,-559,-7754,-3218,-1,-1,0
160.97,-176.18,-112.52,-566,-7768,-3215,-1,0,0
160.97,-176.18,-112.52,-568,-7773,-3221,-1,-1,0
160.96,-176.17,-112.52,-574,-7775,-3227,-1,-1,0
160.96,-176.17,-112.52,-566,-7773,-3233,0,-1,-1
160.98,-176.18,-112.51,-563,-7763,-3222,0,-1,-1
160.98,-176.18,-112.51,-569,-7759,-3204,0,-1,-1
160.99,-176.19,-112.50,-565,-7770,-3203,-1,0,-1
160.99,-176.19,-112.50,-561,-7775,-3218,0,-1,-1
161.00,-176.19,-112.50,-557,-7775,-3216,-1,-1,-1
161.00,-176.20,-112.50,-554,-7766,-3210,-1,-1,-1
161.00,-176.20,-112.51,-556,-7753,-3210,-1,0,-1
161.00,-176.21,-112.52,-559,-7760,-3223,-1,0,-1
161.00,-176.21,-112.52,-562,-7766,-3227,0,0,-1
161.00,-176.21,-112.52,-556,-7771,-3228,-1,0,-1
161.00,-176.21,-112.52,-555,-7774,-3222,-1,0,-1
161.00,-176.21,-112.52,-555,-7777,-3217,-1,-1,-1
161.00,-176.21,-112.52,-551,-7772,-3228,-1,-1,0
161.00,-176.21,-112.52,-554,-7771,-3236,0,-1,-1
161.00,-176.21,-112.52,-554,-7771,-3222,0,-1,-1
161.01,-176.22,-112.52,-557,-7772,-3224,0,0,-1
161.01,-176.22,-112.52,-561,-7764,-3236,0,-1,-1
161.01,-176.22,-112.52,-560,-7769,-3238,0,-1,-1
161.01,-176.22,-112.51,-559,-7773,-3227,0,-1,0
161.02,-176.22,-112.51,-557,-7783,-3221,0,-1,-1
161.02,-176.22,-112.51,-555,-7778,-3223,-1,-1,-1
161.02,-176.22,-112.51,-558,-7768,-3224,-1,-1,-1
161.02,-176.22,-112.51,-559,-7761,-3219,-1,-1,-1
161.02,-176.22,-112.51,-556,-7766,-3218,-1,0,-1
161.02,-176.23,-112.52,-547,-7773,-3232,-1,0,-1
161.02,-176.23,-112.52,-544,-7784,-3226,-1,-1,-1
161.02,-176.23,-112.52,-539,-7778,-3220,0,-1,0
161.02,-176.23,-112.52,-548,-7773,-3218,-1,-1,0
161.02,-176.22,-112.52,-554,-7776,-3232,-1,-1,0
161.01,-176.22,-112.52,-553,-7769,-3229,-1,-1,0
161.01,-176.22,-112.52,-562,-7773,-3229,0,0,0
161.01,-176.22,-112.52,-558,-7774,-3232,0,0,-1
161.02,-176.22,-112.52,-558,-7773,-3220,0,-1,0
161.02,-176.22,-112.51,-560,-7762,-3219,0,-1,-1
161.02,-176.22,-112.51,-559,-7766,-3214,-1,0,-1
161.02,-176.22,-112.51,-561,-7761,-3223,0,-1,-1
161.02,-176.22,-112.51,-559,-7764,-3231,0,-1,-1
161.02,-176.22,-112.51,-559,-7772,-3221,0,-1,-1
161.02,-176.22,-112.51,-555,-7768,-3221,0,0,-1
161.02,-176.22,-112.51,-557,-7769,-3223,-1,0,-1
161.02,-176.22,-112.51,-553,-7768,-3223,-1,0,-1
161.02,-176.22,-112.51,-557,-7764,-3227,0,-1,0
161.03,-176.23,-112.51,-555,-7759,-3222,0,-1,-1
161.03,-176.23,-112.51,-554,-7762,-3227,0,0,-1
161.03,-176.23,-112.51,-549,-7767,-3219,0,-1,-1
161.03,-176.23,-112.51,-553,-7774,-3228,-1,-1,0
161.03,-176.23,-112.51,-555,-7780,-3226,-1,-1,0
161.02,-176.23,-112.51,-553,-7783,-3219,-1,-1,0
161.02,-176.23,-112.52,-553,-7773,-3219,-1,-1,0
161.02,-176.23,-112.52,-551,-7766,-3226,-1,-1,-1
161.02,-176.23,-112.52,-553,-7760,-3224,0,0,-1
161.02,-176.23,-112.52,-553,-7768,-3227,0,-1,-1
161.03,-176.24,-112.52,-549,-7763,-3222,0,-1,-1
161.03,-176.24,-112.52,-552,-7767,-3211,0,-1,0
161.03,-176.23,-112.51,-551,-7766,-3209,0,-1,0
161.03,-176.23,-112.51,-554,-7764,-3213,-1,0,-1
161.02,-176.23,-112.51,-552,-7767,-3220,-1,-1,0
161.03,-176.23,-112.51,-557,-7773,-3220,0,-1,-1
161.03,-176.23,-112.51,-554,-7776,-3220,0,-1,-1
161.03,-176.23,-112.51,-553,-7777,-3216,-1,-1,-1
161.03,-176.23,-112.51,-556,-7776,-3219,-1,0,0
161.03,-176.23,-112.51,-557,-7771,-3227,-1,-1,0
161.02,-176.23,-112.51,-551,-7770,-3226,-1,-1,0
161.02,-176.23,-112.52,-553,-7768,-3231,-1,-1,-1
161.02,-176.23,-112.52,-554,-7761,-3230,-1,-1,0
161.02,-176.23,-112.52,-558,-7770,-3230,-1,-1,-1
161.02,-176.23,-112.52,-563,-7775,-3225,-1,-1,-1
161.02,-176.23,-112.52,-566,-7771,-3224,0,-1,0
161.02,-176.23,-112.52,-561,-7771,-3235,0,-1,0
161.02,-176.23,-112.52,-558,-7771,-3218,0,-1,0
161.02,-176.23,-112.51,-557,-7775,-3212,0,-1,-1
161.02,-176.22,-112.51,-551,-7779,-3214,-1,0,0
161.02,-176.22,-112.51,-546,-7774,-3215,-1,0,-1
161.02,-176.23,-112.52,-548,-7765,-3217,-1,-1,-1
161.02,-176.23,-112.52,-554,-7766,-3223,0,-1,0
161.02,-176.22,-112.51,-552,-7766,-3222,0,-1,0
161.02,-176.22,-112.51,-555,-7765,-3220,0,0,0
161.02,-176.22,-112.51,-549,-7773,-3211,0,-1,-1
161.02,-176.22,-112.51,-549,-7778,-3220,-1,-1,0
161.02,-176.22,-112.51,-545,-7774,-3214,-1,-1,0
161.02,-176.23,-112.51,-552,-7771,-3216,-1,-1,0
161.02,-176.22,-112.51,-560,-7771,-3214,-1,-1,0
161.02,-176.22,-112.52,-562,-7769,-3229,0,0,-1
161.02,-176.22,-112.52,-560,-7764,-3224,0,0,-1
161.02,-176.22,-112.51,-557,-7762,-3221,0,0,0
161.02,-176.22,-112.51,-558,-7765,-3236,0,0,0
161.01,-176.21,-112.51,-559,-7780,-3227,0,-1,0
161.02,-176.22,-112.50,-558,-7792,-3218,-1,-1,0
161.02,-176.21,-112.51,-555,-7783,-3221,-1,-1,0
161.01,-176.21,-112.52,-557,-7759,-3217,-1,-1,0
161.00,-176.21,-112.52,-557,-7749,-3222,-1,0,0
161.00,-176.21,-112.53,-557,-7755,-3229,0,-1,0
161.00,-176.21,-112.52,-560,-7771,-3234,0,-1,-1
161.00,-176.21,-112.52,-558,-7777,-3231,-1,-1,0
161.00,-176.20,-112.52,-555,-7776,-3223,-1,-1,0
161.00,-176.20,-112.52,-560,-7771,-3211,-1,-1,0
160.99,-176.19,-112.53,-562,-7769,-3215,-1,0,0
160.98,-176.20,-112.54,-564,-7777,-3230,-1,0,0
160.98,-176.20,-112.54,-562,-7779,-3228,-1,-1,-1
160.98,-176.20,-112.54,-558,-7777,-3215,-1,-1,-1
160.98,-176.19,-112.54,-560,-7770,-3206,-1,-1,-1
160.98,-176.19,-112.55,-557,-7761,-3201,-1,0,-1
160.98,-176.19,-112.56,-560,-7769,-3212,-1,0,-1
160.97,-176.19,-112.57,-554,-7779,-3239,-1,0,0
160.96,-176.20,-112.58,-553,-7782,-3252,-1,-1,0
160.96,-176.19,-112.58,-551,-7769,-3247,-1,-1,0
160.96,-176.19,-112.58,-554,-7765,-3242,0,-1,0
160.95,-176.19,-112.58,-563,-7760,-3238,0,0,0
160.95,-176.19,-112.58,-558,-7754,-3241,0,0,-1
160.96,-176.19,-112.57,-554,-7760,-3241,0,-1,-1
160.97,-176.19,-112.56,-550,-7771,-3236,0,-1,0
160.97,-176.18,-112.55,-551,-7769,-3218,0,-1,0
160.97,-176.18,-112.55,-559,-7770,-3207,-1,-1,0
160.96,-176.17,-112.56,-566,-7767,-3204,-1,-1,0
160.95,-176.17,-112.57,-564,-7763,-3221,-1,-1,0
160.95,-176.17,-112.57,-550,-7759,-3231,-1,-1,0
160.95,-176.17,-112.57,-555,-7753,-3234,0,0,0
160.95,-176.17,-112.57,-557,-7767,-3232,0,-1,0
160.96,-176.17,-112.56,-556,-7771,-3214,0,-1,0
160.96,-176.17,-112.55,-557,-7773,-3213,-1,-1,0
160.95,-176.17,-112.56,-557,-7769,-3206,-1,-1,0
160.94,-176.16,-112.58,-556,-7775,-3225,-1,-1,0
160.93,-176.16,-112.59,-557,-7767,-3233,-1,-1,0
160.93,-176.16,-112.59,-562,-7758,-3242,-1,-1,0
160.92,-176.15,-112.59,-567,-7761,-3243,-1,-1,0
160.92,-176.15,-112.59,-566,-7771,-3236,-1,0,-1
160.92,-176.15,-112.60,-563,-7766,-3231,-1,-1,-1
160.91,-176.15,-112.60,-562,-7761,-3235,-1,-1,0
160.91,-176.15,-112.61,-560,-7759,-3237,-1,-1,0
160.91,-176.15,-112.61,-572,-7758,-3247,-1,-1,0
160.91,-176.15,-112.61,-574,-7751,-3240,0,0,-1
160.91,-176.15,-112.61,-572,-7755,-3239,0,0,-1
160.92,-176.15,-112.60,-567,-7765,-3232,0,-1,-1
160.93,-176.16,-112.59,-563,-7771,-3231,0,-1,-1
160.93,-176.16,-112.59,-566,-7768,-3224,0,-1,-1
160.93,-176.15,-112.58,-564,-7765,-3220,0,-1,0
160.93,-176.15,-112.58,-567,-7767,-3213,0,-1,0
160.94,-176.15,-112.58,-566,-7771,-3211,-1,-1,0
160.93,-176.15,-112.59,-566,-7765,-3229,-1,-1,0
160.92,-176.14,-112.59,-563,-7765,-3237,-1,-1,0
160.92,-176.15,-112.59,-561,-7766,-3241,0,-1,0
160.92,-176.14,-112.59,-565,-7764,-3237,0,-1,0
160.92,-176.13,-112.58,-571,-7770,-3234,0,-1,0
160.92,-176.13,-112.58,-574,-7772,-3240,0,-1,0
160.92,-176.13,-112.57,-573,-7778,-3228,-1,-1,0
160.92,-176.12,-112.57,-575,-7772,-3227,0,-1,0
160.92,-176.12,-112.57,-570,-7771,-3231,0,-1,0
160.92,-176.11,-112.57,-577,-7764,-3227,0,-1,0
160.92,-176.11,-112.57,-583,-7761,-3234,0,-1,0
160.93,-176.11,-112.56,-583,-7764,-3228,0,-1,-1
160.92,-176.11,-112.56,-576,-7773,-3224,0,-1,-1
160.93,-176.11,-112.55,-578,-7771,-3224,0,-1,-1
160.93,-176.11,-112.55,-576,-7768,-3231,0,-1,-1
160.93,-176.11,-112.55,-575,-7770,-3235,0,-1,-1
160.93,-176.11,-112.55,-570,-7766,-3235,0,0,-1
160.94,-176.12,-112.55,-569,-7761,-3243,0,0,-1
160.94,-176.12,-112.55,-567,-7761,-3230,0,-1,-1
160.96,-176.13,-112.54,-568,-7773,-3225,0,0,-1
160.97,-176.14,-112.53,-567,-7773,-3228,0,-1,-1
160.97,-176.14,-112.53,-564,-7768,-3233,0,0,-1
160.97,-176.14,-112.53,-565,-7768,-3228,0,0,0
160.97,-176.14,-112.53,-569,-7769,-3220,-1,0,0
160.97,-176.14,-112.53,-566,-7774,-3222,-1,0,-1
160.97,-176.14,-112.53,-567,-7779,-3213,-1,0,-1
160.97,-176.14,-112.54,-565,-7774,-3225,-1,0,-1
160.97,-176.15,-112.55,-561,-7775,-3222,-1,0,0
160.96,-176.14,-112.55,-564,-7773,-3235,-1,0,0
160.95,-176.14,-112.57,-565,-7759,-3244,-1,0,0
160.95,-176.14,-112.57,-563,-7756,-3253,0,-1,0
160.96,-176.15,-112.55,-557,-7759,-3246,0,-1,-1
160.96,-176.15,-112.55,-560,-7765,-3232,0,-1,-1
160.97,-176.14,-112.54,-558,-7761,-3216,0,0,-1
160.97,-176.14,-112.54,-560,-7762,-3228,-1,-1,0
160.97,-176.15,-112.54,-558,-7768,-3218,-1,0,0
160.97,-176.15,-112.54,-560,-7761,-3221,-1,0,-1
160.96,-176.15,-112.54,-564,-7755,-3227,-1,0,-1
160.97,-176.15,-112.55,-567,-7759,-3227,-1,0,-1
160.97,-176.16,-112.55,-559,-7762,-3238,0,0,-1
160.97,-176.16,-112.55,-553,-7755,-3230,-1,0,-1
160.97,-176.17,-112.55,-557,-7757,-3223,-1,0,0
160.97,-176.17,-112.55,-553,-7763,-3215,-1,0,0
160.97,-176.17,-112.55,-552,-7765,-3215,-1,0,0
160.97,-176.18,-112.56,-551,-7766,-3219,-1,0,-1
160.97,-176.18,-112.56,-551,-7764,-3224,-1,0,-1
160.97,-176.18,-112.56,-555,-7768,-3220,0,0,-1
160.97,-176.18,-112.56,-556,-7761,-3228,-1,0,-1
160.97,-176.18,-112.56,-559,-7756,-3223,-1,0,-1
160.97,-176.18,-112.56,-557,-7764,-3224,-1,0,0
160.97,-176.18,-112.56,-565,-7767,-3223,0,0,-1
160.98,-176.19,-112.55,-559,-7774,-3220,0,0,-1
160.98,-176.18,-112.55,-558,-7780,-3204,-1,0,-1
160.98,-176.19,-112.55,-560,-7776,-3220,-1,0,-1
160.98,-176.19,-112.55,-558,-7766,-3220,-1,0,0
160.98,-176.19,-112.56,-555,-7771,-3226,-1,0,-1
160.98,-176.19,-112.55,-558,-7769,-3229,-1,0,-1
160.98,-176.20,-112.56,-561,-7771,-3229,-1,0,-1
160.98,-176.20,-112.56,-559,-7768,-3229,-1,0,0
160.98,-176.20,-112.56,-554,-7763,-3232,-1,0,0
160.97,-176.20,-112.56,-546,-7764,-3236,0,-1,0
160.98,-176.20,-112.56,-547,-7763,-3234,-1,0,0
160.98,-176.20,-112.56,-558,-7770,-3234,-1,0,0
160.98,-176.20,-112.56,-556,-7770,-3236,-1,0,0
160.98,-176.20,-112.56,-557,-7769,-3217,-1,0,-1
160.98,-176.21,-112.57,-558,-7762,-3228,-1,0,0
160.97,-176.20,-112.58,-563,-7761,-3229,-1,0,0
160.97,-176.20,-112.57,-563,-7763,-3226,0,0,0
160.97,-176.20,-112.58,-563,-7767,-3238,0,-1,-1
160.98,-176.21,-112.57,-556,-7771,-3231,0,-1,-1
160.98,-176.21,-112.57,-549,-7763,-3222,-1,-1,0
160.98,-176.21,-112.57,-555,-7770,-3216,0,-1,0
160.98,-176.21,-112.57,-561,-7763,-3226,-1,-1,0
160.96,-176.20,-112.58,-566,-7758,-3227,-1,-1,0
160.96,-176.20,-112.58,-568,-7758,-3226,0,-1,-1
160.97,-176.20,-112.57,-563,-7771,-3226,0,-1,-1
160.98,-176.20,-112.56,-564,-7765,-3223,0,-1,0
160.97,-176.20,-112.57,-565,-7772,-3236,0,-1,0
160.97,-176.20,-112.57,-565,-7767,-3226,-1,-1,-1
160.97,-176.20,-112.57,-559,-7766,-3223,-1,-1,-1
160.97,-176.20,-112.57,-552,-7768,-3223,-1,-1,-1
160.97,-176.20,-112.57,-554,-7762,-3233,-1,-1,0
160.97,-176.20,-112.57,-555,-7764,-3226,-1,-1,-1
160.97,-176.20,-112.57,-555,-7766,-3221,-1,-1,-1
160.97,-176.20,-112.57,-563,-7766,-3221,-1,-1,-1
160.97,-176.20,-112.57,-570,-7767,-3221,-1,-1,0
160.96,-176.19,-112.57,-567,-7764,-3228,-1,-1,0
160.96,-176.19,-112.57,-563,-7760,-3233,0,-1,0
160.96,-176.19,-112.57,-557,-7755,-3227,0,-1,0
160.97,-176.19,-112.57,-553,-7757,-3229,-1,-1,-1
160.96,-176.19,-112.57,-558,-7755,-3225,-1,-1,0
160.96,-176.18,-112.57,-565,-7755,-3224,0,0,0
160.96,-176.18,-112.57,-565,-7762,-3233,-1,-1,0
160.95,-176.18,-112.57,-566,-7763,-3226,-1,-1,0
160.95,-176.18,-112.57,-566,-7768,-3227,0,-1,0
160.95,-176.18,-112.57,-559,-7762,-3218,-1,-1,0
160.95,-176.18,-112.57,-562,-7769,-3223,-1,-1,0
160.95,-176.17,-112.57,-572,-7771,-3222,-1,-1,0
160.95,-176.17,-112.57,-575,-7768,-3215,-1,-1,0
160.95,-176.17,-112.57,-571,-7770,-3219,-1,-1,0
160.94,-176.17,-112.58,-569,-7765,-3233,-1,-1,0
160.94,-176.17,-112.58,-567,-7765,-3230,0,-1,0
160.94,-176.16,-112.58,-564,-7762,-3229,-1,-1,0
160.94,-176.16,-112.57,-571,-7770,-3229,0,-1,0
160.94,-176.16,-112.57,-566,-7766,-3231,-1,-1,0
160.94,-176.16,-112.57,-561,-7766,-3233,-1,-1,0
160.94,-176.16,-112.58,-556,-7764,-3235,-1,-1,0
160.94,-176.16,-112.57,-565,-7767,-3225,-1,-1,0
160.93,-176.15,-112.58,-568,-7764,-3231,-1,-1,0
160.93,-176.15,-112.58,-565,-7762,-3235,-1,-1,0
160.93,-176.15,-112.58,-563,-7762,-3236,0,-1,0
160.93,-176.15,-112.58,-556,-7766,-3228,0,-1,-1
160.94,-176.15,-112.57,-561,-7769,-3222,-1,-1,0
160.93,-176.14,-112.57,-565,-7770,-3224,-1,-1,0
160.93,-176.14,-112.57,-566,-7767,-3226,-1,-1,0
160.93,-176.14,-112.57,-567,-7770,-3228,-1,-1,0
160.92,-176.13,-112.57,-570,-7771,-3235,-1,-1,0
160.92,-176.13,-112.57,-568,-7767,-3236,-1,-1,0
160.92,-176.13,-112.57,-566,-7765,-3238,0,-1,-1
160.92,-176.14,-112.58,-560,-7759,-3242,0,-1,0
160.92,-176.13,-112.57,-562,-7759,-3238,-1,-1,0
160.92,-176.13,-112.57,-567,-7766,-3236,0,-1,0
160.93,-176.13,-112.57,-557,-7770,-3224,0,0,0
160.93,-176.13,-112.57,-564,-7769,-3224,0,0,-1
160.92,-176.13,-112.57,-563,-7763,-3232,0,-1,-1
160.93,-176.13,-112.57,-570,-7766,-3222,0,-1,0
160.93,-176.13,-112.56,-571,-7763,-3226,0,-1,-1
160.94,-176.13,-112.56,-573,-7764,-3225,0,-1,-1
160.95,-176.13,-112.55,-572,-7766,-3223,0,-1,-1
160.95,-176.13,-112.55,-569,-7769,-3231,0,-1,-1
160.95,-176.13,-112.54,-558,-7762,-3221,0,-1,-1
160.96,-176.13,-112.54,-559,-7762,-3233,0,-1,-1
160.96,-176.13,-112.54,-567,-7766,-3228,0,-1,-1
160.97,-176.14,-112.52,-571,-7767,-3221,0,-1,-1
160.98,-176.14,-112.52,-565,-7769,-3217,0,-1,-1
160.99,-176.14,-112.51,-564,-7760,-3213,0,-1,-1
160.99,-176.14,-112.51,-568,-7761,-3212,-1,0,-1
160.99,-176.15,-112.51,-565,-7769,-3222,-1,0,0
160.99,-176.15,-112.51,-565,-7778,-3236,0,0,0
160.99,-176.15,-112.51,-568,-7778,-3235,0,0,-1
160.99,-176.15,-112.51,-569,-7767,-3225,-1,0,-1
160.99,-176.15,-112.52,-566,-7765,-3219,-1,0,-1
161.00,-176.16,-112.52,-560,-7769,-3217,-1,0,-1
161.00,-176.16,-112.52,-560,-7773,-3231,0,0,-1
161.00,-176.17,-112.51,-559,-7776,-3230,0,0,-1
161.00,-176.17,-112.51,-566,-7775,-3217,0,0,0
161.00,-176.17,-112.51,-565,-7768,-3214,0,0,0
161.01,-176.17,-112.51,-562,-7768,-3222,-1,0,-1
161.00,-176.17,-112.52,-568,-7763,-3232,0,0,-1
161.01,-176.17,-112.51,-568,-7768,-3227,0,0,-1
161.01,-176.18,-112.51,-566,-7769,-3227,0,0,-1
161.01,-176.18,-112.51,-565,-7772,-3218,0,0,-1
161.02,-176.18,-112.51,-564,-7775,-3221,-1,0,-1
161.01,-176.19,-112.51,-566,-7776,-3222,-1,0,-1
161.00,-176.18,-112.52,-571,-7773,-3225,-1,0,0
161.00,-176.18,-112.52,-571,-7770,-3221,-1,0,0
161.00,-176.18,-112.52,-570,-7761,-3221,-1,0,-1
161.01,-176.19,-112.52,-567,-7761,-3222,-1,0,-1
161.01,-176.20,-112.53,-560,-7763,-3223,0,0,-1
161.00,-176.19,-112.53,-566,-7771,-3230,0,0,0
161.00,-176.19,-112.53,-568,-7778,-3232,-1,0,-1
161.00,-176.19,-112.53,-564,-7773,-3230,-1,0,-1
161.00,-176.20,-112.53,-563,-7773,-3220,-1,0,-1
161.00,-176.20,-112.53,-556,-7766,-3217,-1,0,-1
161.00,-176.21,-112.53,-550,-7769,-3215,-1,0,0
161.00,-176.21,-112.54,-558,-7770,-3220,-1,0,0
161.00,-176.21,-112.54,-562,-7766,-3219,-1,0,-1
161.00,-176.21,-112.54,-561,-7770,-3227,-1,0,-1
161.00,-176.21,-112.55,-559,-7774,-3229,0,0,-1
161.00,-176.21,-112.55,-558,-7768,-3232,-1,0,0
160.99,-176.21,-112.55,-566,-7771,-3230,-1,0,0
160.99,-176.21,-112.55,-566,-7773,-3223,-1,0,-1
160.99,-176.22,-112.56,-562,-7766,-3220,0,0,-1
160.99,-176.22,-112.56,-564,-7767,-3219,0,0,-1
160.99,-176.22,-112.56,-562,-7764,-3228,0,0,-1
160.99,-176.22,-112.56,-558,-7767,-3226,-1,0,0
160.98,-176.22,-112.56,-555,-7767,-3228,-1,0,0
160.98,-176.22,-112.56,-557,-7772,-3242,0,0,-1
160.98,-176.22,-112.56,-559,-7768,-3237,0,-1,-1
160.99,-176.22,-112.56,-561,-7768,-3223,0,0,-1
160.98,-176.22,-112.56,-563,-7761,-3225,-1,0,0
160.99,-176.22,-112.56,-558,-7762,-3225,-1,0,0
160.99,-176.22,-112.56,-561,-7764,-3230,0,0,0
160.98,-176.22,-112.56,-554,-7761,-3230,-1,0,0
160.98,-176.22,-112.56,-559,-7767,-3232,0,0,-1
160.98,-176.22,-112.56,-558,-7766,-3235,0,0,-1
160.98,-176.22,-112.57,-554,-7765,-3234,-1,0,0
160.98,-176.23,-112.57,-558,-7760,-3229,-1,0,0
160.97,-176.22,-112.57,-559,-7761,-3236,-1,0,0
160.97,-176.22,-112.57,-558,-7765,-3228,0,0,0
160.97,-176.22,-112.57,-559,-7769,-3235,0,0,0
160.98,-176.22,-112.56,-557,-7769,-3216,0,0,-1
160.98,-176.22,-112.56,-556,-7773,-3221,-1,0,0
160.97,-176.22,-112.57,-561,-7769,-3225,-1,-1,0
160.97,-176.22,-112.57,-563,-7760,-3220,-1,-1,0
160.96,-176.21,-112.58,-561,-7760,-3233,-1,-1,0
160.96,-176.21,-112.58,-564,-7760,-3233,0,0,0
160.96,-176.21,-112.58,-557,-7762,-3231,-1,0,0
160.96,-176.21,-112.58,-558,-7756,-3233,0,0,0
160.96,-176.21,-112.58,-553,-7761,-3228,0,-1,0
160.96,-176.21,-112.58,-558,-7773,-3232,0,0,0
160.96,-176.21,-112.58,-564,-7767,-3228,0,0,0
160.96,-176.21,-112.57,-560,-7766,-3230,0,-1,-1
160.97,-176.21,-112.57,-562,-7766,-3235,0,-1,0
160.97,-176.21,-112.57,-562,-7769,-3232,0,-1,0
160.97,-176.20,-112.57,-563,-7773,-3231,0,-1,0
160.97,-176.20,-112.57,-559,-7766,-3229,0,-1,0
160.97,-176.20,-112.57,-558,-7764,-3229,0,-1,0
160.97,-176.20,-112.56,-556,-7767,-3232,0,-1,0
160.96,-176.19,-112.56,-565,-7764,-3236,0,-1,0
160.96,-176.19,-112.56,-567,-7766,-3234,0,-1,0
160.96,-176.19,-112.56,-569,-7759,-3234,0,-1,-1
160.97,-176.19,-112.56,-567,-7756,-3238,0,-1,-1
160.97,-176.19,-112.56,-567,-7758,-3232,0,-1,-1
160.98,-176.19,-112.55,-569,-7762,-3235,0,-1,0
160.98,-176.19,-112.54,-567,-7770,-3223,0,-1,-1
160.98,-176.19,-112.54,-565,-7769,-3215,0,-1,0
160.98,-176.18,-112.54,-565,-7768,-3235,0,-1,-1
160.99,-176.19,-112.54,-556,-7773,-3240,0,-1,-1
160.99,-176.19,-112.54,-558,-7763,-3235,0,0,0
160.99,-176.19,-112.53,-562,-7762,-3226,0,0,-1
160.99,-176.19,-112.53,-560,-7757,-3217,-1,0,0
160.99,-176.19,-112.54,-560,-7766,-3217,0,0,-1
160.99,-176.19,-112.54,-561,-7770,-3222,0,0,-1
160.99,-176.20,-112.53,-562,-7772,-3228,0,0,-1
160.99,-176.20,-112.53,-569,-7766,-3231,0,0,-1
160.99,-176.20,-112.53,-565,-7766,-3230,0,0,-1
161.00,-176.20,-112.53,-561,-7766,-3227,0,0,-1
161.00,-176.21,-112.54,-566,-7769,-3234,-1,0,-1
161.00,-176.21,-112.54,-560,-7773,-3227,-1,0,-1
161.00,-176.21,-112.54,-559,-7768,-3220,-1,0,0
161.00,-176.22,-112.53,-557,-7768,-3220,0,0,0
161.00,-176.21,-112.53,-558,-7770,-3223,0,0,-1
161.01,-176.22,-112.53,-556,-7774,-3222,0,0,-1
161.01,-176.22,-112.53,-556,-7773,-3219,-1,0,0
161.01,-176.22,-112.53,-552,-7774,-3224,-1,-1,0
160.99,-176.21,-112.54,-560,-7773,-3228,-1,0,0
160.99,-176.21,-112.54,-563,-7766,-3221,-1,0,-1
161.00,-176.22,-112.54,-560,-7761,-3233,0,0,-1
161.00,-176.22,-112.54,-561,-7763,-3228,0,0,-1
161.00,-176.22,-112.54,-562,-7769,-3222,0,0,-1
161.00,-176.22,-112.54,-571,-7772,-3220,0,0,-1
161.00,-176.22,-112.54,-566,-7767,-3227,0,0,0
161.00,-176.23,-112.54,-565,-7770,-3221,0,0,0
161.00,-176.23,-112.54,-566,-7768,-3222,0,0,-1
161.00,-176.23,-112.54,-563,-7774,-3226,0,0,-1
161.00,-176.23,-112.54,-562,-7775,-3230,-1,0,-1
161.01,-176.24,-112.54,-555,-7775,-3236,0,0,-1
161.01,-176.24,-112.54,-555,-7778,-3224,-1,0,-1
161.01,-176.24,-112.54,-559,-7773,-3224,0,0,0
161.00,-176.24,-112.54,-558,-7769,-3224,0,0,-1
161.00,-176.24,-112.55,-562,-7767,-3235,-1,0,0
161.00,-176.24,-112.55,-559,-7765,-3235,-1,0,0
161.00,-176.24,-112.55,-551,-7769,-3238,0,0,0
161.00,-176.24,-112.55,-552,-7773,-3244,0,0,-1
161.00,-176.24,-112.55,-558,-7769,-3237,0,0,-1
161.00,-176.25,-112.55,-559,-7768,-3234,0,0,0
161.00,-176.25,-112.55,-562,-7765,-3230,-1,0,-1
161.00,-176.25,-112.55,-560,-7757,-3224,-1,0,-1
160.99,-176.25,-112.56,-559,-7765,-3237,0,0,-1
160.99,-176.25,-112.56,-557,-7764,-3234,-1,0,-1
160.99,-176.25,-112.56,-558,-7763,-3233,-1,0,-1
160.99,-176.25,-112.56,-554,-7758,-3229,-1,0,-1
160.99,-176.26,-112.56,-554,-7763,-3229,-1,0,0
160.99,-176.25,-112.57,-563,-7766,-3226,-1,0,0
160.99,-176.26,-112.56,-562,-7773,-3229,0,0,-1
160.99,-176.26,-112.56,-557,-7770,-3231,0,0,-1
160.99,-176.26,-112.56,-553,-7773,-3233,0,0,-1
160.99,-176.26,-112.56,-560,-7772,-3238,-1,0,-1
160.99,-176.26,-112.56,-557,-7770,-3241,-1,0,-1
160.99,-176.25,-112.57,-556,-7773,-3240,0,0,-1
160.99,-176.25,-112.57,-553,-7771,-3234,-1,0,0
160.99,-176.25,-112.57,-554,-7760,-3225,0,0,0
160.99,-176.25,-112.57,-554,-7761,-3225,-1,0,0
160.99,-176.25,-112.57,-560,-7761,-3235,-1,0,-1
160.98,-176.25,-112.58,-560,-7759,-3243,0,0,-1
160.98,-176.26,-112.57,-556,-7765,-3237,0,-1,-1
160.98,-176.26,-112.57,-553,-7765,-3238,0,0,-1
160.99,-176.26,-112.57,-554,-7765,-3235,0,0,-1
160.99,-176.26,-112.57,-554,-7763,-3227,-1,0,0
160.99,-176.26,-112.57,-559,-7770,-3211,-1,0,0
160.98,-176.25,-112.57,-553,-7780,-3225,-1,-1,0
160.98,-176.25,-112.58,-554,-7775,-3232,-1,-1,0
160.98,-176.25,-112.58,-557,-7771,-3239,0,-1,0
160.98,-176.25,-112.58,-559,-7767,-3233,0,-1,-1
160.99,-176.25,-112.57,-558,-7767,-3244,0,-1,-1
160.99,-176.25,-112.57,-561,-7762,-3237,0,0,-1
160.99,-176.25,-112.57,-560,-7761,-3228,-1,-1,0
160.97,-176.24,-112.57,-561,-7763,-3225,-1,0,0
160.99,-176.25,-112.57,-555,-7760,-3228,-1,0,-1
160.98,-176.26,-112.57,-560,-7756,-3236,-1,0,-1
160.98,-176.25,-112.58,-555,-7753,-3240,0,-1,0
160.98,-176.26,-112.57,-547,-7758,-3238,0,0,-1
160.98,-176.26,-112.57,-542,-7765,-3225,0,-1,0
160.98,-176.26,-112.57,-551,-7765,-3234,-1,0,0
160.98,-176.25,-112.58,-552,-7769,-3230,-1,-1,0
160.97,-176.25,-112.58,-560,-7770,-3232,0,-1,0
160.97,-176.24,-112.58,-563,-7765,-3233,0,-1,-1
160.97,-176.24,-112.58,-563,-7762,-3231,0,-1,0
160.97,-176.24,-112.58,-556,-7764,-3237,-1,0,0
160.97,-176.24,-112.58,-554,-7768,-3231,-1,0,0
160.97,-176.24,-112.58,-551,-7770,-3230,0,-1,0
160.97,-176.24,-112.58,-555,-7771,-3223,0,-1,0
160.97,-176.23,-112.57,-559,-7769,-3230,0,-1,0
160.97,-176.23,-112.57,-554,-7764,-3224,0,-1,0
160.97,-176.23,-112.57,-551,-7763,-3219,-1,-1,-1
160.97,-176.23,-112.57,-555,-7761,-3227,-1,-1,0
160.97,-176.23,-112.57,-556,-7760,-3229,-1,-1,0
160.97,-176.23,-112.57,-559,-7765,-3222,0,0,0
160.97,-176.23,-112.57,-559,-7771,-3229,0,-1,-1
160.97,-176.23,-112.57,-554,-7764,-3234,0,-1,0
160.97,-176.23,-112.57,-558,-7757,-3241,0,-1,0
160.97,-176.23,-112.57,-564,-7756,-3236,0,-1,0
160.97,-176.23,-112.57,-562,-7764,-3247,0,-1,0
160.97,-176.23,-112.57,-564,-7766,-3244,0,-1,-1
160.97,-176.23,-112.57,-563,-7758,-3236,0,-1,-1
160.97,-176.22,-112.57,-568,-7761,-3226,0,-1,-1
160.97,-176.22,-112.56,-572,-7764,-3227,0,-1,0
160.97,-176.22,-112.56,-565,-7763,-3219,0,-1,-1
160.98,-176.22,-112.55,-561,-7761,-3221,0,-1,-1
160.98,-176.22,-112.55,-555,-7761,-3216,0,-1,0
160.98,-176.22,-112.55,-560,-7767,-3213,-1,0,0
160.98,-176.22,-112.55,-557,-7773,-3227,-1,0,0
160.98,-176.22,-112.55,-555,-7770,-3236,-1,0,-1
160.98,-176.22,-112.56,-559,-7763,-3244,0,0,-1
160.98,-176.22,-112.56,-555,-7757,-3231,0,0,-1
160.98,-176.22,-112.55,-559,-7754,-3231,0,0,0
160.99,-176.23,-112.55,-561,-7759,-3224,-1,0,0
160.98,-176.22,-112.55,-569,-7767,-3235,-1,0,0
160.98,-176.22,-112.55,-573,-7776,-3231,0,0,-1
160.98,-176.22,-112.55,-564,-7773,-3235,0,0,-1
160.99,-176.23,-112.55,-562,-7765,-3226,0,0,-1
160.99,-176.23,-112.55,-556,-7759,-3221,-1,0,0
160.98,-176.23,-112.56,-557,-7763,-3230,-1,0,0
160.98,-176.23,-112.56,-553,-7767,-3230,-1,0,0
160.98,-176.23,-112.56,-551,-7778,-3234,0,0,-1
160.98,-176.23,-112.56,-551,-7771,-3243,0,-1,0
160.98,-176.23,-112.56,-551,-7765,-3222,-1,0,0
160.98,-176.23,-112.56,-554,-7768,-3222,-1,0,0
160.98,-176.23,-112.56,-556,-7768,-3232,-1,0,-1
160.98,-176.23,-112.56,-559,-7768,-3235,0,0,0
160.98,-176.23,-112.56,-558,-7763,-3235,0,0,-1
160.98,-176.24,-112.56,-552,-7761,-3242,0,0,-1
160.98,-176.24,-112.56,-550,-7759,-3230,0,0,-1
160.98,-176.24,-112.56,-555,-7761,-3222,0,0,-1
160.98,-176.24,-112.56,-561,-7765,-3219,-1,0,0
160.98,-176.24,-112.56,-556,-7769,-3225,-1,0,0
160.98,-176.24,-112.56,-556,-7763,-3229,-1,0,0
160.98,-176.24,-112.56,-563,-7760,-3230,-1,0,0
160.98,-176.24,-112.57,-562,-7758,-3235,0,0,-1
160.97,-176.24,-112.57,-563,-7765,-3237,-1,0,-1
160.98,-176.24,-112.57,-560,-7768,-3236,0,0,-1
160.97,-176.24,-112.57,-553,-7772,-3232,-1,0,0
160.97,-176.24,-112.56,-556,-7776,-3225,0,0,-1
160.97,-176.24,-112.56,-559,-7764,-3220,0,0,0
160.97,-176.24,-112.57,-559,-7767,-3232,-1,0,-1
160.97,-176.25,-112.57,-553,-7765,-3239,0,0,-1
160.97,-176.25,-112.57,-557,-7768,-3237,-1,0,0
160.97,-176.25,-112.57,-552,-7771,-3241,0,0,0
160.97,-176.25,-112.57,-556,-7771,-3248,0,0,-1
160.97,-176.25,-112.57,-553,-7766,-3242,0,0,0
160.97,-176.25,-112.57,-560,-7767,-3238,0,0,-1
160.97,-176.25,-112.57,-551,-7759,-3226,-1,0,-1
160.97,-176.25,-112.58,-553,-7761,-3230,-1,0,0
160.97,-176.26,-112.58,-556,-7759,-3230,-1,0,0
160.96,-176.25,-112.59,-555,-7758,-3239,-1,0,0
160.96,-176.25,-112.59,-558,-7755,-3238,0,0,-1
160.96,-176.25,-112.59,-563,-7763,-3229,0,0,-1
160.96,-176.25,-112.59,-561,-7761,-3228,0,0,-1
160.96,-176.25,-112.59,-557,-7763,-3242,0,0,-1
160.97,-176.26,-112.59,-552,-7769,-3234,0,-1,-1
160.97,-176.26,-112.59,-551,-7764,-3228,0,0,-1
160.97,-176.26,-112.58,-548,-7767,-3222,0,0,-1
160.97,-176.26,-112.58,-555,-7768,-3222,-1,0,-1
160.97,-176.26,-112.58,-552,-7767,-3225,-1,0,0
160.97,-176.26,-112.59,-552,-7767,-3227,0,0,0
160.97,-176.26,-112.58,-552,-7766,-3229,0,0,0
160.97,-176.26,-112.58,-547,-7771,-3233,-1,0,-1
160.97,-176.26,-112.58,-554,-7769,-3233,0,0,0
160.96,-176.26,-112.59,-559,-7765,-3233,0,0,0
160.96,-176.26,-112.59,-566,-7763,-3238,0,0,0
160.96,-176.26,-112.59,-560,-7764,-3230,-1,0,0
160.96,-176.26,-112.59,-551,-7765,-3239,-1,0,-1
160.96,-176.26,-112.59,-556,-7767,-3234,0,-1,-1
160.96,-176.26,-112.59,-559,-7767,-3235,0,0,0
160.96,-176.26,-112.58,-563,-7768,-3236,0,0,0
160.96,-176.26,-112.58,-559,-7762,-3227,0,0,-1
160.96,-176.26,-112.59,-554,-7770,-3232,0,0,-1
160.96,-176.26,-112.59,-554,-7767,-3232,-1,-1,-1
160.96,-176.26,-112.59,-557,-7763,-3234,0,0,0
160.96,-176.26,-112.59,-556,-7762,-3231,0,0,-1
160.96,-176.26,-112.59,-552,-7762,-3225,-1,0,-1
160.97,-176.27,-112.59,-551,-7763,-3223,-1,0,-1
160.97,-176.26,-112.58,-549,-7760,-3228,0,0,-1
160.97,-176.27,-112.59,-552,-7761,-3233,0,0,-1
160.97,-176.27,-112.59,-555,-7766,-3232,0,0,0
160.97,-176.26,-112.58,-553,-7765,-3223,0,0,-1
160.97,-176.26,-112.58,-555,-7767,-3224,0,0,-1
160.97,-176.26,-112.58,-558,-7760,-3229,0,0,-1
160.97,-176.26,-112.58,-559,-7759,-3224,0,0,0
160.97,-176.26,-112.58,-554,-7764,-3225,0,0,0
160.97,-176.26,-112.58,-547,-7768,-3233,-1,0,0
160.97,-176.27,-112.58,-548,-7766,-3234,-1,0,0
160.97,-176.26,-112.58,-554,-7762,-3236,0,-1,0
160.97,-176.26,-112.58,-556,-7763,-3233,0,0,0
160.97,-176.27,-112.57,-551,-7765,-3223,0,0,-1
160.97,-176.27,-112.57,-555,-7770,-3223,0,0,-1
160.97,-176.27,-112.57,-552,-7773,-3216,-1,-1,0
160.97,-176.26,-112.58,-559,-7769,-3225,-1,-1,0
160.96,-176.26,-112.58,-565,-7766,-3228,-1,-1,0
160.96,-176.26,-112.58,-565,-7763,-3235,0,0,-1
160.96,-176.26,-112.58,-560,-7762,-3233,0,0,-1
160.96,-176.26,-112.58,-556,-7761,-3243,0,0,-1
160.96,-176.26,-112.58,-559,-7762,-3239,0,-1,0
160.96,-176.26,-112.58,-561,-7762,-3234,-1,-1,-1
160.96,-176.26,-112.58,-557,-7754,-3228,0,0,-1
160.96,-176.26,-112.58,-553,-7758,-3207,-1,0,-1
160.96,-176.26,-112.58,-556,-7763,-3215,-1,0,-1
160.96,-176.26,-112.58,-559,-7765,-3234,-1,0,0
160.96,-176.26,-112.58,-554,-7767,-3232,0,-1,-1
160.96,-176.26,-112.58,-557,-7770,-3227,0,-1,0
160.96,-176.26,-112.57,-560,-7764,-3227,0,0,-1
160.96,-176.26,-112.57,-572,-7758,-3220,-1,0,0
160.95,-176.25,-112.58,-561,-7763,-3227,0,-1,0
160.95,-176.25,-112.58,-558,-7760,-3229,0,-1,0
160.95,-176.25,-112.58,-559,-7761,-3235,0,0,-1
160.95,-176.25,-112.58,-554,-7763,-3228,0,0,-1
160.96,-176.26,-112.57,-555,-7765,-3223,0,0,-1
160.96,-176.26,-112.57,-556,-7758,-3225,0,0,0
160.96,-176.25,-112.57,-552,-7758,-3227,0,-1,0
160.96,-176.25,-112.57,-551,-7760,-3224,-1,0,0
160.96,-176.26,-112.57,-550,-7767,-3230,-1,0,0
160.96,-176.26,-112.57,-554,-7771,-3234,-1,0,-1
160.95,-176.25,-112.58,-566,-7763,-3237,0,0,0
160.95,-176.25,-112.58,-564,-7762,-3234,0,0,-1
160.95,-176.25,-112.57,-566,-7763,-3225,0,0,-1
160.95,-176.25,-112.57,-567,-7769,-3230,-1,0,-1
160.95,-176.25,-112.58,-562,-7766,-3236,-1,-1,0
160.95,-176.25,-112.58,-554,-7768,-3231,-1,-1,0
160.95,-176.24,-112.58,-560,-7764,-3231,0,-1,0
160.95,-176.24,-112.58,-563,-7760,-3232,0,-1,0
160.95,-176.24,-112.57,-566,-7760,-3229,0,0,0
160.95,-176.24,-112.57,-560,-7764,-3233,0,0,-1
160.95,-176.24,-112.57,-566,-7769,-3222,0,0,-1
160.96,-176.24,-112.56,-553,-7773,-3224,0,-1,-1
160.96,-176.24,-112.56,-556,-7769,-3223,0,0,-1
160.96,-176.25,-112.56,-547,-7769,-3220,-1,0,-1
160.96,-176.25,-112.56,-546,-7768,-3230,-1,0,0
160.96,-176.25,-112.57,-556,-7770,-3232,-1,0,0
160.96,-176.25,-112.56,-560,-7760,-3230,0,0,0
160.97,-176.24,-112.55,-563,-7762,-3228,0,0,-1
160.97,-176.25,-112.55,-560,-7765,-3228,0,0,-1
160.98,-176.25,-112.55,-547,-7770,-3228,-1,-1,-1
