Yaw,Pitch,Roll,AX,AY,AZ,GX,GY,GZ
21.93,21.25,-59.79,3004,-6690,3879,0,-1,0
21.92,21.24,-59.79,2991,-6684,3881,0,-1,-1
21.93,21.25,-59.79,3012,-6682,3890,0,-1,0
21.93,21.26,-59.80,3007,-6687,3898,-1,-1,-1
21.93,21.26,-59.80,3013,-6685,3893,0,-1,0
21.93,21.27,-59.79,3009,-6679,3887,0,-1,-1
21.93,21.28,-59.80,3004,-6688,3892,0,-1,-1
21.93,21.29,-59.79,3013,-6693,3884,0,-1,-1
21.94,21.30,-59.78,3021,-6688,3896,0,-1,0
21.94,21.31,-59.78,3012,-6690,3891,0,-1,-1
21.94,21.33,-59.78,3022,-6687,3881,0,-1,-1
21.94,21.33,-59.76,3031,-6671,3895,0,-1,0
21.94,21.34,-59.75,3030,-6657,3888,0,-1,0
21.93,21.35,-59.74,3030,-6653,3900,0,-1,0
21.93,21.35,-59.75,3030,-6667,3905,-1,-1,0
21.93,21.36,-59.75,3035,-6684,3885,0,-1,0
21.93,21.36,-59.74,3018,-6678,3894,0,-1,0
21.92,21.37,-59.74,3018,-6673,3895,0,-1,0
21.93,21.37,-59.74,3027,-6669,3892,0,-1,0
21.93,21.38,-59.74,3032,-6668,3887,0,-1,0
21.93,21.39,-59.74,3039,-6673,3886,0,-1,0
21.93,21.40,-59.74,3038,-6671,3893,0,-1,0
21.92,21.39,-59.73,3034,-6673,3901,0,-1,0
21.92,21.39,-59.73,3028,-6682,3891,0,-1,0
21.92,21.40,-59.73,3019,-6676,3889,0,-1,0
21.91,21.40,-59.73,3015,-6683,3879,0,-1,0
21.91,21.40,-59.73,3025,-6678,3882,0,-1,0
21.91,21.41,-59.73,3029,-6676,3891,0,-1,0
21.91,21.41,-59.72,3027,-6677,3893,0,-1,0
21.91,21.42,-59.73,3041,-6680,3898,0,-1,0
21.90,21.41,-59.73,3040,-6679,3900,0,-1,0
21.90,21.41,-59.73,3035,-6681,3894,0,-1,0
21.89,21.41,-59.72,3041,-6676,3901,0,-1,0
21.89,21.42,-59.72,3042,-6662,3901,0,-1,-1
21.89,21.41,-59.72,3036,-6663,3893,0,0,0
21.89,21.42,-59.73,3041,-6673,3897,-1,-1,-1
21.89,21.42,-59.73,3032,-6679,3894,-1,-1,0
21.88,21.42,-59.73,3045,-6682,3893,0,-1,0
21.88,21.42,-59.73,3035,-6679,3896,0,-1,0
21.88,21.42,-59.73,3030,-6685,3885,0,-1,-1
21.88,21.42,-59.73,3026,-6678,3888,0,-1,-1
21.88,21.42,-59.72,3029,-6665,3898,0,-1,0
21.88,21.42,-59.72,3034,-6666,3891,0,-1,0
21.88,21.43,-59.72,3035,-6666,3893,0,-1,-1
21.88,21.43,-59.71,3031,-6661,3893,0,0,0
21.88,21.43,-59.72,3038,-6665,3889,-1,-1,0
21.87,21.43,-59.72,3038,-6663,3894,-1,-1,0
21.87,21.43,-59.72,3038,-6671,3878,-1,-1,0
21.88,21.44,-59.72,3039,-6668,3885,0,-1,0
21.87,21.43,-59.72,3041,-6665,3888,0,-1,0
21.87,21.44,-59.72,3039,-6665,3880,0,-1,0
21.87,21.43,-59.73,3037,-6667,3886,0,-1,0
21.87,21.44,-59.73,3041,-6667,3886,0,-1,0
21.87,21.44,-59.72,3037,-6666,3889,0,-1,0
21.86,21.44,-59.72,3034,-6663,3901,0,-1,0
21.87,21.45,-59.72,3040,-6669,3896,-1,-1,0
21.87,21.45,-59.71,3048,-6671,3896,0,-1,-1
21.87,21.45,-59.72,3037,-6664,3885,0,-1,0
21.86,21.45,-59.72,3037,-6665,3892,0,-1,0
21.86,21.45,-59.72,3044,-6666,3894,-1,-1,-1
21.86,21.45,-59.72,3059,-6664,3901,0,-1,0
21.86,21.45,-59.72,3035,-6669,3895,-1,-1,-1
21.86,21.46,-59.72,3041,-6680,3890,0,-1,0
21.86,21.46,-59.71,3031,-6675,3880,0,-1,-1
21.86,21.46,-59.71,3035,-6675,3879,0,-1,0
21.86,21.46,-59.71,3039,-6668,3887,0,-1,0
21.85,21.46,-59.70,3041,-6661,3893,-1,-1,0
21.86,21.47,-59.70,3042,-6669,3893,0,-1,0
21.86,21.47,-59.70,3043,-6673,3893,0,-1,-1
21.85,21.46,-59.70,3043,-6668,3886,0,-1,0
21.86,21.48,-59.70,3051,-6668,3892,0,-1,0
21.85,21.47,-59.70,3053,-6662,3891,0,-1,0
21.85,21.48,-59.70,3060,-6666,3881,0,-1,0
21.86,21.49,-59.70,3055,-6670,3884,0,-1,0
21.85,21.48,-59.71,3053,-6678,3895,0,-1,0
21.85,21.48,-59.70,3043,-6673,3899,0,-1,0
21.85,21.48,-59.70,3028,-6670,3888,0,-1,0
21.84,21.48,-59.70,3024,-6669,3886,0,-1,0
21.83,21.47,-59.69,3023,-6665,3891,0,-1,0
21.83,21.48,-59.69,3033,-6669,3895,0,-1,-1
21.83,21.49,-59.69,3042,-6668,3900,0,-1,0
21.83,21.49,-59.68,3050,-6674,3908,0,-1,0
21.83,21.49,-59.68,3056,-6670,3898,0,-1,0
21.83,21.49,-59.68,3040,-6661,3891,0,-1,0
21.82,21.49,-59.68,3044,-6661,3897,0,-1,0
21.81,21.49,-59.68,3048,-6653,3896,-1,-1,0
21.81,21.49,-59.68,3049,-6660,3901,0,0,0
21.80,21.48,-59.68,3042,-6666,3902,-1,0,0
21.79,21.47,-59.69,3044,-6670,3895,-1,0,0
21.79,21.47,-59.70,3034,-6677,3887,-1,-1,0
21.78,21.46,-59.70,3040,-6684,3875,0,-1,0
21.77,21.46,-59.69,3048,-6674,3891,0,-1,0
21.74,21.43,-59.68,3019,-6642,3923,-1,0,0
21.74,21.43,-59.71,3026,-6673,3908,-2,-1,-1
21.74,21.43,-59.75,3068,-6706,3867,0,-1,0
21.71,21.41,-59.72,3038,-6679,3893,0,-1,0
21.68,21.39,-59.72,3032,-6664,3923,-1,0,0
21.69,21.39,-59.74,3036,-6661,3882,-1,-1,0
21.66,21.37,-59.74,3023,-6668,3904,0,0,1
21.64,21.35,-59.75,3036,-6665,3907,-1,0,0
21.63,21.34,-59.78,3007,-6671,3876,-1,0,0
21.62,21.34,-59.78,3026,-6655,3894,0,-1,0
21.60,21.32,-59.79,3018,-6660,3893,-1,0,0
21.60,21.31,-59.81,3039,-6670,3887,-1,0,0
21.60,21.31,-59.82,3036,-6667,3890,-1,0,0
21.60,21.28,-59.82,3018,-6681,3893,-2,1,0
21.60,21.28,-59.83,3082,-6669,3887,0,1,0
21.59,21.24,-59.81,3004,-6624,3933,-2,1,-1
21.60,21.23,-59.85,2983,-6686,3877,-2,1,-1
21.60,21.21,-59.88,2979,-6692,3846,-1,0,0
21.60,21.20,-59.89,2988,-6710,3860,-1,0,0
21.62,21.21,-59.89,3010,-6711,3846,0,0,-1
21.62,21.20,-59.87,2972,-6679,3899,-1,0,-1
21.64,21.22,-59.87,3051,-6675,3921,-1,0,-1
21.66,21.21,-59.91,3006,-6713,3861,-2,1,-1
21.66,21.20,-59.89,2996,-6687,3874,0,0,-1
21.67,21.20,-59.90,3024,-6676,3852,-1,0,-1
21.67,21.19,-59.90,2976,-6672,3902,-2,0,-1
21.69,21.21,-59.92,3061,-6685,3894,-1,0,0
21.69,21.19,-59.91,2969,-6699,3882,-1,0,-1
21.70,21.19,-59.93,3034,-6704,3850,0,0,-1
21.71,21.19,-59.92,2985,-6680,3886,-2,0,-1
21.72,21.19,-59.96,3013,-6723,3800,0,0,0
21.72,21.19,-59.92,3025,-6688,3902,-1,-1,-1
21.73,21.18,-59.93,2977,-6704,3886,-2,1,-1
21.74,21.19,-59.94,3006,-6710,3844,0,-1,-1
21.75,21.20,-59.91,2995,-6686,3890,-1,0,-1
21.76,21.20,-59.93,2965,-6710,3860,0,0,-1
21.78,21.22,-59.91,3019,-6687,3886,-1,-1,-1
21.79,21.23,-59.92,3010,-6683,3876,-1,0,-1
21.81,21.24,-59.92,3017,-6685,3870,-1,0,-1
21.82,21.25,-59.92,3028,-6678,3902,-1,0,-1
21.83,21.25,-59.96,3009,-6712,3869,-1,0,-1
21.85,21.27,-59.96,3031,-6717,3847,0,0,-1
21.87,21.28,-59.94,3026,-6701,3862,0,0,-1
21.88,21.29,-59.93,3022,-6696,3867,0,0,-1
21.90,21.29,-59.92,3012,-6696,3855,0,0,-1
21.90,21.30,-59.90,3022,-6696,3864,0,0,-1
21.92,21.31,-59.90,3033,-6696,3874,0,0,-1
21.93,21.32,-59.88,3045,-6690,3890,0,0,-1
21.93,21.31,-59.88,3038,-6687,3888,0,0,-1
21.93,21.31,-59.87,3017,-6683,3888,0,0,-1
21.94,21.31,-59.86,3007,-6672,3893,-1,0,-1
21.94,21.31,-59.86,3017,-6669,3895,-1,0,-1
21.95,21.31,-59.87,3025,-6676,3895,-1,0,-1
21.95,21.31,-59.87,3024,-6686,3881,-1,0,-1
21.96,21.31,-59.88,3031,-6686,3876,-1,0,-1
21.96,21.30,-59.88,3033,-6693,3878,-1,0,-1
21.96,21.30,-59.89,3027,-6694,3873,-1,0,-1
21.97,21.30,-59.89,3030,-6690,3875,-1,0,-1
21.97,21.30,-59.89,3017,-6685,3876,-1,0,-1
21.96,21.29,-59.89,3012,-6684,3868,-1,0,-1
21.98,21.30,-59.89,3022,-6687,3867,-1,0,-1
21.98,21.30,-59.89,3014,-6681,3868,0,0,-1
21.98,21.30,-59.89,3016,-6677,3858,0,0,-1
21.98,21.30,-59.88,3008,-6676,3863,-1,0,-1
21.99,21.30,-59.88,3008,-6680,3873,0,0,-1
21.99,21.31,-59.88,3011,-6684,3890,0,-1,-1
22.00,21.31,-59.88,3015,-6685,3878,0,-1,-1
22.00,21.31,-59.88,3018,-6689,3880,-1,-1,-1
22.00,21.32,-59.88,3015,-6692,3874,0,-1,-1
22.00,21.32,-59.87,3007,-6683,3873,0,-1,-1
22.00,21.32,-59.87,3013,-6688,3863,0,-1,-1
22.00,21.33,-59.87,3017,-6689,3869,0,-1,-1
22.01,21.33,-59.87,3021,-6688,3876,0,-1,-1
22.01,21.34,-59.87,3017,-6690,3884,0,-1,0
22.00,21.34,-59.86,3016,-6689,3885,0,-1,-1
22.00,21.35,-59.86,3016,-6684,3885,0,-1,-1
22.00,21.34,-59.86,3013,-6680,3885,0,-1,0
22.00,21.35,-59.86,3014,-6686,3879,0,-1,-1
22.00,21.36,-59.86,3027,-6683,3876,0,-1,0
22.00,21.36,-59.86,3039,-6685,3876,0,-1,-1
22.00,21.37,-59.85,3043,-6675,3873,0,-1,0
22.01,21.37,-59.85,3041,-6671,3877,0,-1,-1
22.01,21.38,-59.84,3042,-6668,3888,0,-1,0
22.00,21.38,-59.84,3038,-6679,3889,0,-1,0
22.00,21.38,-59.84,3029,-6685,3879,0,-1,0
22.00,21.38,-59.84,3028,-6685,3872,0,-1,-1
22.00,21.39,-59.84,3023,-6683,3870,0,-1,0
22.00,21.39,-59.83,3020,-6669,3871,0,-1,-1
21.99,21.39,-59.83,3028,-6668,3871,0,-1,0
22.00,21.40,-59.83,3030,-6676,3874,0,-1,-1
21.99,21.41,-59.83,3034,-6679,3875,0,-1,0
21.99,21.41,-59.82,3040,-6672,3876,0,-1,0
21.99,21.42,-59.82,3035,-6676,3882,0,-1,0
21.99,21.42,-59.82,3037,-6677,3890,0,-1,0
21.99,21.42,-59.81,3033,-6680,3897,0,-1,0
21.99,21.42,-59.81,3031,-6676,3881,0,-1,0
21.98,21.42,-59.81,3032,-6679,3877,0,-1,0
21.98,21.42,-59.81,3040,-6672,3878,0,-1,0
21.98,21.43,-59.80,3041,-6669,3890,-1,-1,0
21.98,21.43,-59.81,3041,-6677,3886,0,-1,0
21.97,21.43,-59.82,3037,-6684,3875,0,-1,-1
21.97,21.43,-59.81,3034,-6684,3871,0,-1,0
21.97,21.43,-59.80,3027,-6677,3868,0,-1,-1
21.97,21.43,-59.81,3038,-6669,3869,0,-1,0
21.97,21.44,-59.80,3045,-6666,3872,0,-1,0
21.97,21.45,-59.80,3047,-6666,3890,0,-1,0
21.97,21.45,-59.80,3048,-6671,3892,-1,-1,0
21.97,21.45,-59.79,3051,-6671,3888,0,-1,0
21.96,21.45,-59.79,3040,-6672,3892,0,-1,0
21.96,21.44,-59.80,3037,-6681,3893,0,0,0
21.96,21.44,-59.80,3034,-6678,3884,-1,-1,0
21.96,21.45,-59.80,3034,-6682,3878,0,-1,0
21.96,21.45,-59.80,3038,-6685,3883,0,-1,0
21.95,21.45,-59.81,3042,-6678,3874,0,-1,0
21.96,21.45,-59.81,3042,-6680,3874,0,-1,0
21.95,21.45,-59.80,3041,-6680,3883,0,-1,0
21.95,21.45,-59.80,3044,-6678,3880,0,-1,0
21.95,21.45,-59.80,3036,-6670,3872,0,-1,0
21.95,21.45,-59.80,3041,-6670,3887,0,-1,0
21.95,21.45,-59.80,3040,-6668,3887,0,-1,-1
21.95,21.46,-59.79,3038,-6664,3892,-1,-1,0
21.95,21.46,-59.80,3036,-6668,3879,-1,-1,-1
21.94,21.45,-59.80,3036,-6669,3885,-1,0,0
21.95,21.45,-59.81,3043,-6680,3875,-1,-1,-1
21.94,21.45,-59.80,3036,-6674,3886,0,0,0
21.94,21.45,-59.80,3032,-6672,3891,0,-1,-1
21.94,21.46,-59.80,3043,-6676,3882,0,-1,-1
21.94,21.46,-59.80,3044,-6680,3874,0,-1,0
21.94,21.46,-59.79,3038,-6671,3876,0,0,0
21.94,21.46,-59.79,3036,-6666,3877,0,-1,0
21.94,21.47,-59.79,3045,-6665,3876,0,-1,0
21.94,21.47,-59.79,3039,-6670,3884,-1,-1,-1
21.94,21.47,-59.79,3053,-6667,3875,0,0,0
21.95,21.48,-59.78,3051,-6659,3882,0,-1,0
21.94,21.48,-59.79,3054,-6663,3877,0,-1,0
21.95,21.48,-59.79,3058,-6666,3888,0,-1,0
21.95,21.48,-59.79,3056,-6668,3888,-1,0,0
21.94,21.48,-59.79,3042,-6679,3885,-1,-1,0
21.94,21.48,-59.79,3037,-6684,3883,0,-1,0
21.93,21.48,-59.79,3029,-6680,3878,0,-1,0
21.93,21.47,-59.78,3023,-6669,3886,0,-1,0
21.93,21.48,-59.78,3035,-6666,3902,0,-1,0
21.93,21.49,-59.78,3042,-6664,3895,0,-1,-1
21.93,21.49,-59.78,3045,-6672,3890,0,-1,0
21.93,21.49,-59.77,3051,-6672,3896,0,-1,0
21.93,21.49,-59.77,3034,-6669,3886,0,0,0
21.93,21.49,-59.77,3047,-6675,3886,0,-1,-1
21.93,21.49,-59.77,3057,-6680,3877,0,0,0
21.92,21.48,-59.74,3016,-6659,3904,0,-1,0
21.91,21.48,-59.74,3033,-6623,3926,-1,-1,0
21.91,21.49,-59.77,3057,-6651,3912,-2,0,-1
21.91,21.49,-59.80,3045,-6699,3871,-1,0,-1
21.91,21.48,-59.79,3044,-6718,3851,1,-1,0
21.90,21.48,-59.77,3032,-6680,3878,0,-1,0
21.90,21.48,-59.77,3051,-6674,3883,-1,-1,0
21.90,21.48,-59.77,3052,-6676,3872,0,0,0
21.89,21.47,-59.76,3035,-6667,3876,0,0,0
21.88,21.47,-59.75,3039,-6663,3874,0,-1,0
21.86,21.46,-59.75,3039,-6662,3895,0,-1,0
21.85,21.46,-59.75,3048,-6656,3917,-1,0,0
21.84,21.44,-59.77,3050,-6656,3907,-2,-1,0
21.83,21.44,-59.80,3063,-6682,3867,0,0,0
21.83,21.44,-59.80,3084,-6657,3882,-1,-1,0
21.80,21.40,-59.79,3022,-6667,3915,-1,1,1
21.79,21.39,-59.83,3075,-6667,3896,-2,-1,0
21.75,21.35,-59.83,3010,-6660,3925,-1,0,1
21.74,21.34,-59.88,3070,-6671,3890,-3,0,-1
21.72,21.30,-59.92,2994,-6703,3850,-1,1,1
21.71,21.30,-59.95,3055,-6690,3812,-1,-1,-1
21.67,21.25,-59.93,2963,-6709,3899,-1,0,1
21.66,21.25,-59.96,3048,-6662,3850,-1,0,0
21.66,21.23,-59.95,2992,-6673,3916,-2,0,0
21.64,21.19,-59.98,2983,-6665,3889,-2,1,-1
21.66,21.20,-60.04,3040,-6713,3830,-2,0,0
21.65,21.17,-60.02,3009,-6715,3864,0,1,-1
21.67,21.16,-60.03,3027,-6709,3865,-2,2,0
21.66,21.14,-60.04,2963,-6711,3844,-1,0,-2
21.66,21.13,-60.07,2965,-6733,3818,0,0,1
21.66,21.13,-60.05,3001,-6713,3847,0,1,-1
21.67,21.13,-60.04,2959,-6688,3915,-2,-1,-1
21.68,21.14,-60.06,2965,-6682,3862,-1,0,-1
21.71,21.17,-60.08,3013,-6698,3898,-2,0,-1
21.72,21.16,-60.12,3002,-6758,3809,-2,0,-1
21.75,21.19,-60.12,3075,-6739,3820,1,0,0
21.72,21.15,-60.08,2961,-6684,3891,-2,-1,-1
21.76,21.19,-60.13,3026,-6713,3828,0,0,-1
21.76,21.18,-60.12,2979,-6706,3831,-1,0,-1
21.78,21.18,-60.13,2975,-6727,3829,0,0,-1
21.79,21.19,-60.11,3015,-6699,3866,-1,-1,-1
21.81,21.20,-60.11,2986,-6692,3857,-1,0,-1
21.82,21.21,-60.13,2964,-6712,3828,0,-1,-1
21.83,21.22,-60.12,2996,-6692,3854,0,-1,-1
21.85,21.26,-60.14,3032,-6721,3847,-1,0,-1
21.87,21.27,-60.12,3046,-6712,3856,0,0,-1
21.88,21.26,-60.10,2995,-6696,3870,-1,0,-1
21.90,21.28,-60.13,3026,-6723,3830,-1,-1,-1
21.92,21.29,-60.12,3030,-6723,3837,0,0,-1
21.92,21.29,-60.09,3024,-6699,3863,0,0,-1
21.93,21.29,-60.09,3025,-6688,3873,-1,0,-1
21.95,21.31,-60.11,3024,-6711,3851,-1,0,-1
21.95,21.31,-60.11,3036,-6721,3835,0,0,-1
21.95,21.30,-60.07,3020,-6702,3862,0,0,-1
21.96,21.29,-60.07,2995,-6681,3871,-1,0,-1
21.97,21.30,-60.09,3008,-6696,3847,-1,-1,-1
21.98,21.30,-60.09,3034,-6707,3841,0,0,-1
21.99,21.31,-60.08,3038,-6706,3853,0,0,-1
21.99,21.31,-60.07,3034,-6689,3863,0,0,-1
22.01,21.31,-60.07,3037,-6696,3870,-1,0,-1
22.01,21.31,-60.07,3034,-6698,3868,0,0,-1
22.01,21.31,-60.07,3023,-6696,3869,-1,0,-1
22.02,21.31,-60.06,3028,-6699,3859,-1,0,-1
22.03,21.31,-60.06,3022,-6711,3847,-1,0,-1
22.03,21.30,-60.06,3024,-6709,3845,0,0,-1
22.03,21.30,-60.05,3018,-6695,3854,0,0,-1
22.03,21.29,-60.04,3009,-6689,3861,-1,0,0
22.04,21.30,-60.04,3019,-6700,3868,-1,0,-1
22.04,21.30,-60.04,3018,-6701,3856,-1,0,-1
22.05,21.30,-60.04,3016,-6700,3853,0,0,-1
22.05,21.30,-60.04,3016,-6697,3864,-1,0,-1
22.06,21.30,-60.03,3023,-6697,3867,-1,0,-1
22.06,21.30,-60.03,3023,-6692,3863,-1,0,-1
22.06,21.29,-60.03,3013,-6693,3871,-1,0,-1
22.06,21.28,-60.04,3002,-6694,3859,-1,0,-1
22.06,21.28,-60.03,3006,-6699,3864,-1,0,-1
22.07,21.29,-60.04,3010,-6708,3865,-1,0,-1
22.07,21.29,-60.04,3015,-6701,3862,0,0,-1
22.08,21.30,-60.03,3024,-6697,3856,0,-1,-1
22.08,21.30,-60.03,3018,-6689,3864,0,0,-1
22.08,21.30,-60.03,3015,-6695,3858,-1,-1,-1
22.09,21.31,-60.03,3019,-6696,3854,0,0,-1
22.09,21.31,-60.03,3010,-6705,3846,0,-1,0
22.08,21.30,-60.03,3003,-6698,3855,0,-1,-1
22.09,21.31,-60.03,3014,-6697,3857,0,-1,-1
22.09,21.32,-60.02,3004,-6687,3855,0,-1,-1
22.09,21.33,-60.02,3025,-6690,3855,0,-1,-1
22.09,21.33,-60.01,3016,-6691,3863,0,-1,-1
22.09,21.34,-60.00,3021,-6693,3864,0,-1,-1
22.09,21.35,-59.99,3025,-6689,3866,0,-1,0
22.09,21.35,-60.00,3033,-6692,3860,0,-1,-1
22.10,21.37,-59.99,3033,-6695,3853,0,-1,-1
22.10,21.37,-59.98,3041,-6688,3853,0,-1,0
22.10,21.38,-59.97,3028,-6678,3864,0,-1,0
22.10,21.38,-59.97,3032,-6678,3874,0,-1,0
22.09,21.38,-59.97,3026,-6686,3875,0,-1,-1
22.09,21.39,-59.97,3036,-6691,3869,0,-1,0
22.09,21.40,-59.97,3037,-6694,3868,0,-1,-1
22.09,21.40,-59.96,3037,-6684,3867,0,-1,0
22.09,21.41,-59.96,3038,-6690,3872,0,-1,0
22.09,21.41,-59.96,3041,-6689,3862,0,-1,-1
22.09,21.42,-59.95,3046,-6686,3860,0,-1,0
22.09,21.42,-59.94,3035,-6683,3859,0,-1,0
22.09,21.42,-59.95,3040,-6674,3862,0,-1,0
22.09,21.43,-59.94,3045,-6674,3870,0,-1,0
22.08,21.43,-59.94,3040,-6679,3871,-1,-1,0
22.08,21.43,-59.95,3048,-6690,3862,0,-1,-1
22.09,21.44,-59.94,3039,-6692,3864,0,-1,0
22.09,21.44,-59.94,3045,-6690,3862,0,-1,-1
22.09,21.45,-59.93,3041,-6685,3862,0,-1,0
22.08,21.45,-59.93,3044,-6678,3871,0,-1,0
22.08,21.45,-59.93,3046,-6679,3863,0,-1,0
22.08,21.45,-59.93,3043,-6679,3857,0,-1,0
22.09,21.46,-59.93,3045,-6683,3854,0,-1,0
22.08,21.46,-59.93,3051,-6687,3859,0,-1,0
22.08,21.45,-59.92,3040,-6684,3864,0,0,0
22.07,21.45,-59.92,3037,-6685,3869,-1,-1,0
22.08,21.46,-59.93,3030,-6685,3862,-1,-1,-1
22.08,21.46,-59.94,3045,-6686,3854,0,-1,-1
22.08,21.46,-59.93,3046,-6684,3863,0,-1,0
22.08,21.46,-59.93,3043,-6677,3871,0,-1,0
22.08,21.47,-59.93,3050,-6671,3868,0,-1,0
22.08,21.47,-59.93,3048,-6674,3872,-1,-1,0
22.08,21.47,-59.92,3044,-6671,3872,0,-1,0
22.07,21.47,-59.92,3046,-6681,3862,-1,0,0
22.07,21.47,-59.92,3033,-6679,3863,0,-1,-1
22.07,21.47,-59.93,3034,-6684,3865,0,0,0
22.06,21.46,-59.93,3041,-6687,3854,0,-1,-1
22.07,21.47,-59.93,3033,-6691,3870,0,-1,0
22.06,21.47,-59.93,3050,-6686,3861,0,-1,-1
22.06,21.47,-59.92,3036,-6669,3874,0,-1,0
22.06,21.47,-59.91,3036,-6677,3875,0,-1,-1
22.07,21.48,-59.91,3045,-6681,3865,0,-1,0
22.06,21.48,-59.92,3053,-6682,3872,0,-1,0
22.06,21.49,-59.91,3051,-6678,3875,0,-1,0
22.06,21.48,-59.91,3057,-6680,3870,0,-1,0
22.06,21.49,-59.90,3054,-6678,3874,0,-1,0
22.06,21.48,-59.89,3053,-6673,3882,-1,-1,0
22.05,21.48,-59.90,3045,-6678,3872,0,-1,0
22.05,21.48,-59.90,3042,-6675,3863,-1,0,-1
22.05,21.48,-59.90,3046,-6684,3867,0,0,0
22.04,21.47,-59.90,3040,-6685,3878,0,0,0
22.04,21.46,-59.90,3035,-6674,3885,-1,0,0
22.04,21.46,-59.92,3026,-6689,3844,-1,0,0
22.03,21.46,-59.90,3048,-6673,3867,1,-1,0
22.02,21.44,-59.89,3013,-6657,3897,-2,0,-1
22.02,21.45,-59.93,3095,-6692,3849,0,-1,0
22.00,21.42,-59.92,3006,-6690,3872,-1,0,-1
22.01,21.43,-59.93,3141,-6706,3848,1,0,1
21.95,21.36,-59.90,2969,-6638,3940,-2,0,0
21.96,21.37,-59.96,3045,-6675,3847,-1,-1,0
21.93,21.35,-59.98,3045,-6674,3857,-1,0,0
21.93,21.34,-60.00,3024,-6709,3873,-1,1,0
21.91,21.31,-60.02,2983,-6721,3797,0,0,0
21.91,21.33,-60.01,3005,-6728,3838,0,-1,-1
21.91,21.33,-60.00,3042,-6712,3855,0,0,0
21.89,21.31,-59.99,3010,-6695,3875,0,-1,0
21.89,21.31,-59.98,2996,-6667,3885,-1,-1,0
21.90,21.33,-60.04,3002,-6699,3822,-1,-2,-1
21.90,21.34,-60.02,3060,-6689,3858,1,0,1
21.89,21.33,-60.00,3020,-6674,3911,-1,-1,-1
21.89,21.33,-60.02,3015,-6667,3857,-1,-1,-1
21.89,21.35,-60.02,3026,-6687,3891,-1,-1,0
21.91,21.36,-60.04,3027,-6713,3864,-1,0,-1
21.90,21.36,-60.04,3018,-6716,3832,0,-1,-1
21.90,21.37,-60.03,3028,-6704,3867,0,-1,0
21.89,21.37,-60.03,3027,-6680,3875,-1,-1,0
21.89,21.37,-60.03,3032,-6677,3868,0,-1,0
21.89,21.38,-60.04,3024,-6688,3868,-1,-1,-1
21.88,21.38,-60.06,3021,-6701,3848,-1,-1,-1
21.89,21.39,-60.06,3044,-6715,3832,0,-1,0
21.88,21.39,-60.05,3047,-6699,3862,0,-1,0
21.88,21.39,-60.04,3038,-6691,3859,0,0,0
21.88,21.40,-60.03,3046,-6680,3865,0,-1,0
21.87,21.39,-60.03,3026,-6670,3873,-1,-1,0
21.88,21.40,-60.04,3045,-6676,3857,-1,-1,0
21.87,21.39,-60.05,3023,-6692,3843,-1,-1,0
21.86,21.39,-60.06,3038,-6701,3834,0,-1,0
21.85,21.38,-60.05,3015,-6694,3859,-1,0,0
21.85,21.39,-60.05,3052,-6691,3856,0,-1,0
21.84,21.38,-60.04,3016,-6674,3861,0,0,-1
21.85,21.39,-60.04,3061,-6702,3878,-1,-1,0
21.83,21.36,-60.06,3047,-6700,3844,0,0,0
21.83,21.37,-60.05,3073,-6722,3861,0,1,0
21.81,21.33,-60.03,3056,-6672,3857,1,1,0
21.80,21.30,-60.01,2999,-6681,3914,-3,1,-1
21.79,21.28,-60.04,3021,-6689,3865,-1,-1,0
21.81,21.29,-60.05,3083,-6685,3871,-2,2,0
21.77,21.23,-60.08,2938,-6707,3848,-2,1,0
21.80,21.25,-60.11,3046,-6734,3794,0,0,-1
21.78,21.21,-60.09,2962,-6716,3849,1,1,1
21.77,21.20,-60.07,2984,-6672,3901,-1,0,-1
21.78,21.20,-60.09,2992,-6674,3864,-2,0,-1
21.80,21.21,-60.11,3014,-6700,3865,-1,1,0
21.83,21.22,-60.14,3007,-6757,3825,-2,1,-2
21.81,21.21,-60.12,3015,-6712,3827,1,-1,0
21.82,21.21,-60.12,3006,-6705,3863,-2,0,-1
21.82,21.20,-60.15,3001,-6741,3834,-1,1,0
21.84,21.21,-60.11,3029,-6681,3864,0,0,0
21.83,21.18,-60.12,2982,-6686,3880,-2,0,-1
21.85,21.20,-60.14,2997,-6712,3847,-1,0,-1
21.86,21.21,-60.16,3006,-6740,3822,-1,-1,-1
21.86,21.20,-60.15,2992,-6715,3829,0,0,-1
21.89,21.22,-60.15,2993,-6708,3850,-1,0,-1
21.90,21.22,-60.16,2971,-6697,3845,-1,-1,-1
21.93,21.25,-60.17,2996,-6689,3844,-1,0,-1
21.96,21.28,-60.17,3008,-6706,3840,-1,-1,-2
21.99,21.30,-60.18,3027,-6718,3847,-1,-1,-1
22.01,21.33,-60.19,3047,-6726,3845,0,0,-1
22.02,21.34,-60.18,3054,-6712,3853,-1,0,-1
22.04,21.35,-60.18,3037,-6707,3821,-1,0,-1
22.05,21.35,-60.17,3036,-6705,3818,0,0,-1
22.06,21.36,-60.16,3039,-6694,3840,0,0,-1
22.07,21.36,-60.15,3031,-6698,3844,-1,0,-1
22.08,21.36,-60.15,3025,-6704,3849,-1,0,-1
22.09,21.36,-60.14,3032,-6708,3846,0,0,-1
22.10,21.36,-60.13,3035,-6696,3866,0,0,-1
22.10,21.36,-60.13,3032,-6692,3859,-1,0,-1
22.10,21.36,-60.13,3038,-6691,3852,-1,0,-1
22.11,21.36,-60.14,3039,-6698,3859,-1,0,0
22.11,21.35,-60.15,3031,-6710,3853,-1,0,-1
22.12,21.36,-60.16,3038,-6725,3852,-1,0,-1
22.12,21.35,-60.15,3025,-6717,3834,-1,0,-1
22.12,21.35,-60.15,3026,-6709,3832,0,0,-1
22.13,21.34,-60.14,3008,-6696,3848,0,0,-1
22.14,21.35,-60.13,3015,-6696,3846,-1,0,-1
22.14,21.35,-60.13,3025,-6696,3855,-1,0,-1
22.14,21.34,-60.14,3030,-6700,3841,-1,0,-1
22.15,21.34,-60.13,3034,-6702,3844,-1,0,-1
22.15,21.34,-60.13,3030,-6706,3843,-1,0,-1
22.15,21.34,-60.13,3020,-6701,3851,-1,0,-1
22.16,21.34,-60.13,3018,-6681,3862,-1,0,-1
22.16,21.33,-60.14,3019,-6694,3855,-1,0,-1
22.16,21.33,-60.14,3012,-6696,3847,-1,0,-1
22.16,21.33,-60.14,3013,-6699,3844,-1,0,-1
22.17,21.32,-60.15,3018,-6705,3837,-1,0,-1
22.17,21.33,-60.15,3021,-6705,3836,0,0,-1
22.18,21.33,-60.14,3024,-6698,3838,0,-1,-1
22.18,21.34,-60.14,3041,-6687,3844,0,-1,-1
22.18,21.34,-60.14,3033,-6688,3852,-1,-1,-1
22.19,21.35,-60.14,3023,-6699,3845,-1,-1,-1
22.19,21.35,-60.14,3031,-6708,3846,0,-1,-1
22.19,21.35,-60.13,3016,-6701,3845,0,-1,-1
22.19,21.35,-60.13,3009,-6711,3850,0,-1,-1
22.19,21.35,-60.12,3006,-6700,3852,0,-1,-1
22.19,21.36,-60.12,3019,-6699,3849,0,-1,-1
22.19,21.37,-60.12,3021,-6702,3831,0,-1,0
22.20,21.38,-60.12,3039,-6695,3837,0,-1,-1
22.19,21.39,-60.11,3039,-6688,3848,0,-1,0
22.20,21.40,-60.10,3041,-6692,3847,0,-1,-1
22.20,21.40,-60.10,3036,-6687,3849,0,-1,0
22.20,21.41,-60.09,3035,-6694,3852,0,-1,0
22.19,21.41,-60.09,3040,-6699,3857,0,-1,-1
22.20,21.42,-60.08,3039,-6699,3868,0,-1,0
22.20,21.42,-60.08,3035,-6695,3862,0,-1,-1
22.20,21.42,-60.08,3036,-6695,3858,0,-1,0
22.20,21.43,-60.08,3049,-6693,3852,0,-1,0
22.19,21.43,-60.08,3038,-6690,3848,0,-1,0
22.19,21.43,-60.08,3042,-6682,3850,0,-1,0
22.19,21.43,-60.07,3039,-6679,3850,0,-1,-1
22.20,21.45,-60.07,3040,-6680,3849,0,-1,0
22.19,21.45,-60.07,3047,-6688,3855,0,-1,-1
22.19,21.45,-60.06,3041,-6683,3852,0,-1,0
22.19,21.45,-60.06,3036,-6685,3848,0,-1,-1
22.19,21.45,-60.06,3040,-6687,3852,0,-1,0
22.19,21.46,-60.06,3040,-6687,3851,0,-1,0
22.19,21.46,-60.06,3048,-6691,3850,0,-1,0
22.18,21.46,-60.05,3036,-6694,3848,0,-1,0
22.19,21.46,-60.05,3046,-6687,3860,0,-1,0
22.18,21.46,-60.05,3039,-6689,3863,0,-1,-1
22.18,21.46,-60.05,3035,-6696,3854,0,-1,0
22.18,21.47,-60.04,3033,-6689,3856,0,-1,0
22.18,21.47,-60.04,3035,-6691,3863,0,-1,0
22.18,21.47,-60.03,3039,-6686,3863,0,-1,0
22.17,21.47,-60.04,3039,-6688,3861,0,-1,0
22.17,21.47,-60.03,3037,-6695,3858,0,-1,0
22.17,21.47,-60.03,3034,-6696,3850,0,-1,0
22.17,21.48,-60.03,3042,-6694,3857,0,-1,0
22.17,21.48,-60.03,3045,-6694,3849,0,-1,0
22.17,21.48,-60.03,3050,-6690,3851,0,-1,-1
22.17,21.48,-60.02,3039,-6683,3858,0,0,0
22.16,21.49,-60.02,3042,-6676,3872,0,-1,0
22.15,21.48,-60.01,3025,-6677,3874,-1,-1,0
22.15,21.48,-60.02,3041,-6685,3865,0,-1,0
22.15,21.48,-60.02,3033,-6693,3853,-1,-1,-1
22.15,21.49,-60.02,3058,-6698,3849,0,-1,0
22.15,21.49,-60.01,3044,-6691,3867,0,-1,-1
22.16,21.50,-60.01,3048,-6680,3861,0,-1,-1
22.16,21.50,-60.01,3055,-6683,3862,0,-1,0
22.16,21.50,-60.00,3056,-6684,3864,0,0,0
22.16,21.50,-60.00,3045,-6688,3873,0,0,0
22.15,21.50,-60.00,3039,-6692,3871,0,-1,-1
22.15,21.49,-59.99,3034,-6689,3864,0,0,0
22.15,21.50,-59.99,3035,-6684,3864,0,-1,0
22.15,21.50,-60.00,3034,-6677,3862,0,-1,-1
22.15,21.51,-60.00,3040,-6678,3856,0,-1,-1
22.15,21.50,-60.00,3049,-6683,3858,0,-1,-1
22.15,21.51,-59.99,3053,-6683,3863,0,-1,0
22.15,21.51,-59.99,3047,-6675,3859,0,-1,0
22.15,21.51,-59.99,3052,-6680,3856,0,-1,0
22.15,21.51,-59.99,3057,-6683,3865,0,-1,0
22.14,21.51,-59.99,3047,-6682,3866,0,-1,0
22.14,21.51,-59.99,3048,-6685,3860,0,-1,-1
22.14,21.52,-59.99,3055,-6686,3865,0,-1,0
22.14,21.52,-59.99,3048,-6686,3867,-1,-1,0
22.14,21.51,-59.99,3051,-6693,3872,0,-1,0
22.14,21.51,-59.99,3034,-6685,3863,0,-1,-1
22.14,21.52,-59.99,3053,-6690,3854,0,-1,0
22.14,21.52,-59.99,3049,-6686,3853,0,-1,-1
22.13,21.52,-59.98,3060,-6679,3849,0,-1,0
22.13,21.52,-59.99,3056,-6686,3849,0,-1,-1
22.14,21.53,-59.98,3061,-6687,3849,0,-1,0
22.14,21.54,-59.98,3053,-6685,3867,0,-1,-1
22.13,21.53,-59.98,3052,-6681,3859,0,-1,0
22.13,21.54,-59.98,3055,-6680,3868,0,-1,0
22.13,21.53,-59.97,3052,-6685,3874,0,-1,0
22.13,21.53,-59.97,3048,-6686,3861,-1,-1,0
22.13,21.54,-59.97,3058,-6686,3857,0,-1,0
22.13,21.54,-59.97,3054,-6679,3852,0,-1,0
22.12,21.54,-59.97,3054,-6674,3860,0,-1,0
22.12,21.55,-59.96,3056,-6671,3864,0,-1,0
22.12,21.55,-59.96,3057,-6681,3863,0,-1,0
22.12,21.55,-59.95,3055,-6677,3863,0,-1,0
22.12,21.56,-59.95,3060,-6680,3857,0,-1,-1
22.12,21.56,-59.95,3059,-6679,3861,0,-1,0
22.12,21.56,-59.95,3057,-6679,3858,0,-1,0
22.11,21.56,-59.95,3051,-6683,3851,0,-1,0
22.11,21.56,-59.94,3058,-6683,3865,0,-1,0
22.11,21.56,-59.95,3052,-6683,3878,-1,-1,0
22.10,21.55,-59.95,3042,-6683,3861,-1,-1,0
22.08,21.54,-59.96,3041,-6681,3849,0,-1,0
22.08,21.54,-59.97,3050,-6681,3858,0,-1,0
22.07,21.54,-59.97,3057,-6683,3860,-1,0,0
22.07,21.53,-59.97,3045,-6677,3845,0,0,0
22.07,21.53,-59.97,3067,-6670,3865,0,-1,0
22.05,21.53,-59.98,3064,-6677,3860,-1,-1,0
22.05,21.52,-59.99,3070,-6699,3849,0,-1,0
22.05,21.52,-59.99,3062,-6698,3860,0,0,0
22.04,21.51,-59.98,3051,-6689,3864,-1,0,0
22.04,21.50,-60.00,3051,-6690,3868,-1,0,0
22.04,21.49,-60.00,3051,-6676,3863,-1,0,-1
22.04,21.49,-60.00,3044,-6678,3857,-1,0,-1
22.05,21.48,-60.00,3042,-6685,3860,-1,0,-1
22.06,21.47,-60.00,3034,-6675,3853,-1,1,-1
22.07,21.47,-59.98,3027,-6679,3873,-1,1,-1
22.09,21.47,-60.00,3039,-6678,3859,-2,0,-1
22.10,21.47,-60.00,3060,-6682,3853,0,1,0
22.11,21.46,-60.00,3034,-6685,3870,-2,0,-2
22.13,21.48,-60.02,3096,-6710,3835,0,0,0
22.12,21.44,-59.99,3028,-6674,3871,0,0,0
22.12,21.44,-60.00,3050,-6666,3881,-1,1,0
22.11,21.41,-60.03,2984,-6672,3859,-2,0,-1
22.13,21.43,-60.07,3049,-6723,3837,-1,0,-1
22.13,21.42,-60.08,3020,-6728,3825,-1,0,-1
22.14,21.43,-60.08,3027,-6719,3817,0,0,-1
22.15,21.43,-60.07,3024,-6690,3846,0,-1,-1
22.16,21.44,-60.08,3058,-6692,3863,-1,0,-1
22.17,21.44,-60.08,3043,-6685,3849,-1,0,-1
22.18,21.44,-60.08,3034,-6689,3835,-1,0,-1
22.18,21.44,-60.08,3027,-6699,3848,-1,0,-1
22.19,21.45,-60.07,3039,-6702,3857,-1,0,-1
22.21,21.46,-60.07,3050,-6690,3855,0,0,-1
22.21,21.46,-60.06,3050,-6683,3859,-1,0,-1
22.22,21.46,-60.06,3039,-6687,3855,-1,0,-1
22.22,21.46,-60.07,3040,-6696,3850,-1,0,-1
22.23,21.46,-60.07,3042,-6693,3858,-1,0,-1
22.24,21.45,-60.08,3050,-6701,3856,-1,0,-1
22.24,21.46,-60.08,3047,-6697,3853,-1,0,-1
22.24,21.46,-60.07,3047,-6692,3845,-1,0,-1
22.25,21.46,-60.07,3049,-6690,3859,-1,0,-1
22.25,21.46,-60.07,3040,-6687,3852,-1,0,-1
22.26,21.46,-60.07,3033,-6694,3843,0,0,-1
22.26,21.45,-60.07,3046,-6688,3852,-1,0,-1
22.27,21.45,-60.07,3044,-6685,3851,-1,0,-1
22.27,21.45,-60.06,3048,-6683,3863,-1,0,0
22.27,21.45,-60.06,3051,-6685,3874,-1,0,0
22.27,21.44,-60.08,3042,-6688,3855,-1,0,-1
22.28,21.43,-60.08,3039,-6699,3848,-1,0,-1
22.28,21.43,-60.09,3041,-6703,3858,-1,0,-1
22.28,21.41,-60.08,3027,-6700,3848,-1,1,-1
22.29,21.40,-60.07,3017,-6690,3867,-1,0,-1
22.29,21.39,-60.06,3049,-6692,3885,-1,1,-1
22.30,21.38,-60.06,3031,-6686,3879,-1,1,-1
22.30,21.36,-60.08,3036,-6709,3860,-1,1,-1
22.30,21.35,-60.08,3048,-6713,3863,-1,1,0
22.29,21.33,-60.08,3035,-6693,3863,-1,0,-1
22.31,21.33,-60.09,3035,-6708,3856,-1,1,-1
22.30,21.31,-60.10,3011,-6707,3823,0,0,0
22.31,21.31,-60.09,3054,-6690,3865,-1,0,-1
22.30,21.29,-60.09,3013,-6695,3870,-1,0,0
22.30,21.28,-60.11,3006,-6699,3842,-1,0,0
22.30,21.28,-60.12,3017,-6713,3840,-1,0,-1
22.30,21.27,-60.12,3016,-6713,3851,0,0,-1
22.30,21.27,-60.13,3003,-6718,3842,-1,-1,0
22.30,21.27,-60.12,3023,-6694,3859,0,0,0
22.30,21.27,-60.13,3010,-6707,3857,-1,-1,-1
22.29,21.27,-60.13,3004,-6716,3830,0,0,0
22.31,21.28,-60.13,3017,-6729,3850,-1,-1,-1
22.31,21.29,-60.13,3022,-6700,3841,0,-1,0
22.30,21.29,-60.11,2997,-6677,3868,0,-1,-1
22.32,21.30,-60.12,2997,-6693,3875,-1,-1,-1
22.31,21.31,-60.13,3003,-6709,3848,0,-1,-1
22.32,21.32,-60.12,3025,-6695,3855,0,-1,-1
22.33,21.33,-60.11,3029,-6688,3860,-1,-1,-1
22.33,21.33,-60.12,3015,-6697,3844,-1,-1,-1
22.33,21.34,-60.13,3018,-6713,3836,0,-1,-1
22.33,21.35,-60.12,3018,-6720,3831,0,-1,-1
22.33,21.36,-60.11,3030,-6723,3851,0,-1,-1
22.34,21.37,-60.10,3031,-6714,3859,0,-1,-1
22.33,21.38,-60.08,3031,-6698,3859,0,-1,-1
22.34,21.39,-60.06,3022,-6691,3860,0,-1,0
22.33,21.40,-60.04,3024,-6682,3870,0,-1,-1
22.34,21.41,-60.04,3035,-6681,3876,0,-1,0
22.34,21.41,-60.04,3040,-6686,3871,-1,-1,0
22.33,21.42,-60.04,3048,-6689,3866,0,-1,0
22.33,21.42,-60.05,3046,-6701,3864,-1,-1,0
22.33,21.42,-60.05,3047,-6702,3846,0,-1,0
22.32,21.43,-60.05,3021,-6701,3848,0,-1,-1
22.32,21.43,-60.05,3027,-6701,3839,0,-1,-1
22.32,21.43,-60.05,3028,-6694,3838,0,-1,-1
22.32,21.44,-60.04,3031,-6687,3838,0,-1,0
22.32,21.45,-60.04,3043,-6682,3843,0,-1,0
22.32,21.45,-60.03,3049,-6692,3851,0,-1,0
22.32,21.45,-60.02,3040,-6683,3866,0,-1,0
22.32,21.46,-60.02,3049,-6684,3857,0,-1,0
22.32,21.46,-60.03,3041,-6683,3858,0,-1,0
22.32,21.47,-60.02,3044,-6686,3855,0,-1,0
22.31,21.47,-60.02,3040,-6681,3867,0,-1,0
22.31,21.47,-60.01,3038,-6679,3875,-1,-1,0
22.31,21.48,-60.02,3050,-6689,3866,0,-1,0
22.31,21.47,-60.02,3042,-6701,3868,0,-1,0
22.31,21.47,-60.02,3048,-6699,3860,0,-1,-1
22.30,21.47,-60.02,3038,-6692,3852,0,-1,0
22.30,21.48,-60.01,3048,-6682,3864,0,-1,0
22.30,21.48,-60.01,3043,-6679,3868,-1,-1,-1
22.30,21.48,-60.01,3041,-6683,3866,-1,0,0
22.30,21.48,-60.02,3042,-6691,3858,0,-1,-1
22.30,21.49,-60.01,3051,-6687,3859,0,-1,0
22.30,21.49,-60.01,3050,-6681,3869,0,-1,-1
22.30,21.50,-60.00,3053,-6672,3876,0,-1,0
22.30,21.50,-59.99,3059,-6672,3882,-1,-1,-1
22.30,21.50,-60.00,3066,-6677,3863,-1,0,0
22.31,21.50,-59.99,3055,-6678,3865,0,0,0
22.30,21.50,-59.99,3043,-6685,3872,-1,0,0
22.30,21.49,-60.00,3043,-6686,3859,-1,-1,0
22.30,21.49,-60.00,3041,-6682,3850,0,0,0
22.30,21.49,-60.00,3031,-6687,3849,0,-1,-1
22.29,21.50,-60.00,3036,-6685,3856,0,-1,0
22.29,21.50,-60.01,3044,-6687,3855,-1,-1,-1
22.29,21.50,-60.01,3052,-6687,3843,0,0,0
22.28,21.49,-60.01,3040,-6674,3843,0,0,0
22.28,21.50,-60.00,3036,-6672,3855,0,-1,-1
22.29,21.50,-60.01,3048,-6680,3859,-1,0,-1
22.29,21.50,-60.01,3037,-6696,3848,0,0,-1
22.28,21.49,-60.00,3037,-6694,3834,0,0,0
22.28,21.49,-59.98,3042,-6660,3873,0,-1,0
22.27,21.48,-59.99,3044,-6678,3883,-1,0,0
22.27,21.48,-60.00,3037,-6703,3862,0,-1,0
22.26,21.46,-60.00,3055,-6702,3862,0,0,0
22.25,21.45,-60.00,3035,-6707,3875,-1,0,0
22.23,21.44,-60.01,3060,-6687,3858,0,-1,0
22.21,21.42,-60.00,3020,-6691,3859,-1,0,0
22.21,21.41,-60.02,3053,-6714,3838,-1,0,-1
22.20,21.40,-60.01,3054,-6693,3829,1,0,0
22.18,21.38,-59.99,3035,-6687,3882,0,0,0
22.17,21.37,-59.98,3013,-6658,3887,-1,-1,-1
22.17,21.38,-59.99,3059,-6649,3879,0,1,1
22.15,21.35,-60.01,2986,-6686,3870,-2,-1,-1
22.16,21.37,-60.04,3077,-6704,3842,0,0,1
22.14,21.35,-60.04,3011,-6697,3846,-1,-1,-2
22.14,21.35,-60.03,3034,-6694,3869,0,0,0
22.14,21.35,-60.05,3021,-6689,3877,-1,-1,-1
22.14,21.34,-60.05,3010,-6691,3860,0,-1,0
22.13,21.35,-60.07,3003,-6697,3859,-1,-1,0
22.12,21.35,-60.08,3000,-6689,3849,-1,-2,-1
22.14,21.38,-60.10,3051,-6699,3843,0,-1,0
22.13,21.37,-60.10,3022,-6723,3842,0,-1,-1
22.14,21.38,-60.10,3028,-6712,3834,0,-1,0
22.14,21.40,-60.10,3042,-6693,3832,0,-2,0
22.13,21.40,-60.09,3033,-6675,3847,0,-1,0
22.14,21.42,-60.09,3049,-6680,3861,0,-1,0
22.14,21.42,-60.10,3037,-6692,3857,-1,-1,-1
22.15,21.44,-60.10,3038,-6713,3836,0,-1,-1
22.15,21.44,-60.09,3023,-6699,3847,0,-1,0
22.14,21.44,-60.08,3029,-6695,3852,0,-1,-1
22.15,21.45,-60.08,3039,-6700,3853,0,-1,-1
22.14,21.45,-60.08,3047,-6689,3852,0,-1,0
22.14,21.45,-60.07,3038,-6681,3861,0,-1,0
22.14,21.46,-60.08,3051,-6691,3860,-1,-1,0
22.13,21.46,-60.08,3044,-6687,3843,0,-1,0
22.13,21.46,-60.07,3034,-6695,3849,0,-1,0
22.12,21.45,-60.07,3029,-6694,3847,0,-1,0
22.13,21.46,-60.08,3043,-6681,3857,0,-1,0
22.12,21.46,-60.07,3045,-6682,3856,0,-1,0
22.11,21.46,-60.08,3047,-6675,3843,0,-1,0
22.11,21.46,-60.08,3051,-6684,3850,-1,-1,0
22.10,21.46,-60.09,3051,-6699,3839,-1,-1,0
22.08,21.44,-60.09,3033,-6702,3851,0,-1,0
22.08,21.44,-60.08,3025,-6695,3858,-1,-1,0
22.07,21.44,-60.09,3016,-6698,3845,-1,-1,0
22.07,21.44,-60.09,3021,-6698,3850,0,-1,0
22.07,21.44,-60.09,3036,-6696,3865,0,-1,-1
22.07,21.44,-60.08,3050,-6685,3871,-1,0,-1
22.08,21.45,-60.10,3042,-6689,3847,-1,0,-1
22.09,21.45,-60.10,3059,-6690,3849,-1,0,0
22.09,21.44,-60.10,3043,-6682,3859,-1,0,-1
22.10,21.44,-60.10,3026,-6689,3859,-1,0,-1
22.11,21.45,-60.10,3037,-6701,3852,0,0,-1
22.13,21.46,-60.09,3041,-6694,3862,-1,0,-1
22.15,21.47,-60.09,3038,-6700,3858,-1,0,-1
22.16,21.48,-60.09,3046,-6696,3852,0,0,-1
22.17,21.48,-60.08,3041,-6691,3845,-1,0,-1
22.18,21.48,-60.08,3042,-6695,3843,-1,0,-1
22.20,21.49,-60.08,3048,-6692,3841,0,0,-1
22.20,21.49,-60.07,3051,-6680,3849,0,0,-1
22.21,21.49,-60.07,3045,-6679,3865,-1,0,-1
22.22,21.49,-60.07,3038,-6679,3857,-1,0,-1
22.23,21.50,-60.07,3047,-6687,3854,-1,0,-1
22.23,21.50,-60.07,3051,-6696,3852,0,0,-1
22.24,21.51,-60.07,3054,-6691,3861,-1,0,-1
22.25,21.51,-60.06,3045,-6685,3861,-1,0,-1
22.26,21.51,-60.06,3054,-6685,3857,-1,0,-1
22.27,21.50,-60.07,3049,-6688,3857,-1,0,-1
22.26,21.49,-60.06,3040,-6690,3851,-1,0,-1
22.27,21.49,-60.07,3038,-6695,3858,-1,0,-1
22.28,21.49,-60.07,3035,-6690,3857,-1,0,-1
22.29,21.49,-60.06,3035,-6691,3850,-1,0,-1
22.29,21.49,-60.06,3044,-6678,3843,-1,0,-1
22.30,21.50,-60.06,3061,-6676,3849,-1,0,-1
22.30,21.49,-60.07,3041,-6687,3846,-1,0,-1
22.31,21.49,-60.07,3060,-6697,3854,-1,0,-1
22.32,21.49,-60.06,3049,-6700,3858,-1,0,-1
22.32,21.49,-60.07,3046,-6696,3858,-1,0,-1
22.33,21.49,-60.07,3045,-6694,3851,-1,0,-1
22.33,21.48,-60.06,3043,-6685,3847,-1,0,-1
22.33,21.48,-60.07,3034,-6685,3849,-1,0,-1
22.34,21.47,-60.07,3046,-6692,3841,-1,0,-1
22.34,21.47,-60.07,3031,-6684,3845,-1,0,-1
22.34,21.46,-60.08,3039,-6698,3838,-1,0,-1
22.35,21.46,-60.08,3046,-6690,3842,-1,0,-1
22.35,21.46,-60.07,3040,-6681,3844,-1,0,-1
22.36,21.46,-60.07,3045,-6680,3858,-1,0,-1
22.37,21.46,-60.08,3055,-6687,3852,-1,0,-1
22.37,21.46,-60.07,3053,-6694,3849,-1,0,-1
22.38,21.46,-60.07,3058,-6691,3847,-1,0,0
22.38,21.45,-60.08,3040,-6690,3862,-1,0,0
22.37,21.44,-60.09,3038,-6703,3855,-1,0,-1
22.39,21.44,-60.09,3047,-6707,3844,-1,0,-1
22.38,21.42,-60.09,3035,-6696,3847,-1,1,-1
22.39,21.41,-60.09,3027,-6686,3850,-1,0,-1
22.39,21.41,-60.10,3039,-6689,3853,-1,0,-1
22.40,21.40,-60.11,3019,-6710,3849,-1,0,-1
22.40,21.39,-60.11,3040,-6712,3849,-1,1,-1
22.41,21.38,-60.10,3043,-6698,3849,-1,1,-1
22.41,21.37,-60.09,3020,-6697,3853,-1,1,-1
22.42,21.36,-60.10,3020,-6692,3846,-1,0,-1
22.43,21.36,-60.10,3043,-6700,3855,-1,0,-1
22.44,21.36,-60.09,3058,-6691,3841,0,1,-1
22.43,21.34,-60.09,3015,-6700,3864,-1,0,0
22.43,21.33,-60.10,3014,-6698,3824,0,0,-1
22.43,21.32,-60.10,3028,-6692,3857,-1,0,-1
22.42,21.31,-60.12,3015,-6727,3828,0,0,0
22.42,21.30,-60.11,3026,-6716,3844,0,1,0
22.40,21.28,-60.11,2999,-6707,3841,0,-1,-1
22.40,21.28,-60.10,3021,-6712,3844,0,0,0
22.39,21.27,-60.10,3024,-6720,3849,0,-1,0
22.40,21.27,-60.06,3034,-6661,3908,-1,1,0
22.38,21.25,-60.11,2973,-6741,3831,-1,-2,-1
22.38,21.26,-60.09,3056,-6722,3848,2,0,1
22.37,21.25,-60.08,2988,-6706,3851,-1,-1,-1
22.34,21.23,-60.07,2990,-6696,3848,0,0,0
22.36,21.25,-60.07,3005,-6699,3872,0,-2,0
22.35,21.24,-60.08,3012,-6687,3873,-2,0,-1
22.35,21.24,-60.08,3020,-6709,3851,1,-1,0
22.33,21.22,-60.08,2968,-6692,3856,-1,0,0
22.34,21.24,-60.10,3031,-6692,3854,-1,-1,0
22.33,21.23,-60.10,2970,-6692,3843,0,-1,-1
22.35,21.26,-60.12,3055,-6746,3852,0,0,0
22.33,21.24,-60.12,2984,-6727,3852,-1,-1,-1
22.33,21.24,-60.09,3025,-6683,3861,0,0,-1
22.34,21.25,-60.12,3005,-6698,3831,-1,-1,-1
22.35,21.26,-60.11,2985,-6694,3852,0,-1,-1
22.36,21.28,-60.11,3011,-6694,3885,-1,-1,-1
22.37,21.30,-60.14,3044,-6716,3861,-1,-1,-1
22.37,21.31,-60.15,3024,-6717,3869,-1,-1,-1
22.38,21.32,-60.16,3006,-6709,3837,-1,-1,-1
22.39,21.33,-60.16,3016,-6697,3830,0,-1,-1
22.40,21.35,-60.17,3031,-6712,3834,0,-1,-1
22.42,21.37,-60.16,3040,-6717,3824,0,-1,-1
22.42,21.38,-60.15,3054,-6715,3844,0,-1,-1
22.42,21.39,-60.14,3041,-6712,3838,0,-1,-1
22.43,21.41,-60.12,3040,-6708,3839,1,-1,-1
22.42,21.41,-60.10,3024,-6695,3858,0,-1,-1
22.42,21.42,-60.08,3015,-6688,3867,0,-1,-1
22.43,21.42,-60.07,3021,-6690,3870,0,-1,-1
22.42,21.43,-60.07,3024,-6693,3862,0,-1,-1
22.42,21.44,-60.07,3030,-6695,3850,0,-1,0
22.42,21.44,-60.06,3039,-6684,3865,0,-1,0
22.42,21.45,-60.06,3042,-6681,3858,0,-1,-1
22.42,21.46,-60.05,3054,-6687,3861,0,-1,-1
22.43,21.47,-60.04,3061,-6690,3867,0,-1,0
22.43,21.47,-60.04,3044,-6695,3849,0,-1,0
22.42,21.47,-60.04,3047,-6686,3852,0,-1,0
22.42,21.48,-60.03,3045,-6685,3866,0,-1,0
22.41,21.48,-60.03,3047,-6682,3863,0,-1,0
22.41,21.48,-60.02,3043,-6685,3864,0,-1,0
22.42,21.49,-60.03,3050,-6686,3862,-1,-1,0
22.42,21.49,-60.04,3056,-6695,3847,0,-1,0
22.42,21.49,-60.04,3050,-6699,3840,0,-1,0
22.41,21.49,-60.03,3040,-6686,3843,0,-1,0
22.41,21.49,-60.03,3034,-6680,3860,0,-1,0
22.41,21.50,-60.03,3049,-6683,3867,0,-1,0
22.41,21.49,-60.03,3038,-6684,3857,-1,-1,0
22.41,21.50,-60.03,3047,-6682,3861,0,-1,-1
22.41,21.50,-60.02,3042,-6673,3858,0,-1,-1
22.41,21.50,-60.02,3052,-6681,3856,0,0,0
22.41,21.51,-60.02,3050,-6686,3858,0,-1,0
22.40,21.50,-60.02,3052,-6687,3850,-1,-1,0
22.40,21.51,-60.03,3052,-6694,3837,0,0,0
22.41,21.51,-60.03,3047,-6692,3839,0,-1,-1
22.40,21.51,-60.03,3042,-6687,3849,0,0,0
22.40,21.51,-60.02,3044,-6680,3860,-1,-1,0
22.40,21.51,-60.02,3042,-6683,3860,0,-1,-1
22.40,21.51,-60.02,3049,-6687,3860,0,-1,-1
22.40,21.51,-60.02,3050,-6692,3862,0,-1,0
22.40,21.52,-60.01,3051,-6681,3855,0,-1,0
22.39,21.51,-60.02,3049,-6679,3859,0,-1,0
22.39,21.51,-60.02,3046,-6687,3866,-1,-1,0
22.40,21.52,-60.02,3048,-6695,3866,0,-1,0
22.39,21.51,-60.02,3050,-6693,3859,0,-1,0
22.39,21.51,-60.02,3056,-6692,3849,0,-1,0
22.39,21.52,-60.02,3057,-6691,3856,0,-1,0
22.39,21.52,-60.02,3054,-6684,3859,0,0,-1
22.39,21.52,-60.02,3038,-6679,3847,-1,0,0
22.39,21.52,-60.02,3048,-6680,3851,0,-1,0
22.39,21.52,-60.02,3039,-6682,3855,0,-1,0
22.39,21.53,-60.02,3061,-6680,3848,0,-1,0
22.39,21.53,-60.01,3047,-6675,3853,0,-1,-1
22.39,21.54,-60.00,3060,-6677,3861,0,-1,0
22.40,21.54,-60.00,3059,-6673,3870,0,-1,-1
22.40,21.54,-60.00,3057,-6680,3863,0,0,0
22.39,21.54,-59.99,3055,-6695,3867,0,-1,0
22.39,21.54,-59.99,3053,-6690,3859,0,0,0
22.39,21.54,-59.99,3045,-6686,3856,0,-1,0
22.38,21.54,-59.99,3039,-6687,3847,0,-1,0
22.38,21.54,-59.98,3031,-6681,3856,0,-1,0
22.38,21.54,-59.97,3052,-6693,3871,0,-1,-1
22.38,21.55,-59.97,3055,-6682,3871,0,-1,0
22.39,21.56,-59.97,3052,-6683,3862,0,-1,0
22.38,21.56,-59.97,3059,-6682,3856,0,-1,0
22.39,21.57,-59.97,3068,-6687,3864,0,-1,0
22.38,21.57,-59.96,3066,-6684,3870,0,-1,0
22.37,21.56,-59.96,3060,-6673,3861,0,-1,0
22.37,21.56,-59.95,3056,-6669,3861,0,-1,0
22.38,21.58,-59.95,3062,-6680,3852,0,-1,0
22.37,21.58,-59.95,3053,-6684,3852,0,-1,0
22.37,21.58,-59.95,3060,-6693,3858,0,-1,0
22.37,21.58,-59.95,3059,-6695,3860,0,-1,0
22.36,21.58,-59.94,3045,-6682,3862,0,0,0
22.37,21.59,-59.94,3057,-6675,3865,0,-1,0
22.37,21.58,-59.93,3049,-6670,3862,0,-1,-1
22.36,21.59,-59.93,3057,-6671,3867,-1,0,0
22.37,21.59,-59.94,3059,-6674,3864,-1,-1,-1
22.37,21.59,-59.94,3063,-6680,3867,0,-1,0
22.36,21.59,-59.94,3055,-6677,3869,-1,-1,0
22.36,21.59,-59.94,3057,-6668,3876,-1,-1,0
22.36,21.59,-59.95,3063,-6672,3877,-1,-1,0
22.36,21.59,-59.95,3071,-6679,3869,-1,0,0
22.36,21.58,-59.96,3061,-6685,3858,-1,0,0
22.35,21.58,-59.96,3054,-6688,3848,0,-1,0
22.35,21.58,-59.96,3053,-6683,3842,0,-1,-1
22.35,21.59,-59.96,3055,-6686,3847,0,-1,0
22.34,21.58,-59.95,3046,-6668,3871,0,0,0
22.34,21.58,-59.96,3056,-6668,3882,-1,0,-1
22.35,21.58,-59.97,3069,-6677,3856,-1,0,0
22.35,21.58,-59.96,3071,-6675,3854,-1,0,0
22.35,21.57,-59.97,3061,-6678,3856,-1,0,0
22.35,21.57,-59.97,3058,-6673,3856,-1,0,-1
22.36,21.57,-59.97,3059,-6675,3870,-1,0,-1
22.36,21.56,-59.98,3053,-6680,3866,-1,0,-1
22.37,21.57,-59.98,3059,-6686,3850,-1,0,-1
22.37,21.56,-59.98,3054,-6688,3857,-1,0,-1
22.37,21.55,-59.98,3054,-6688,3856,-1,0,-1
22.38,21.55,-59.99,3037,-6680,3853,-1,0,-1
22.38,21.54,-59.99,3042,-6682,3847,-1,0,-1
22.39,21.54,-60.00,3035,-6678,3859,-1,0,-1
22.39,21.54,-60.01,3057,-6690,3849,-1,0,0
22.40,21.54,-60.01,3064,-6693,3861,0,0,-1
22.41,21.54,-60.00,3055,-6682,3881,-1,1,-1
22.41,21.52,-60.00,3040,-6672,3865,-1,1,-1
22.43,21.52,-59.99,3066,-6672,3858,-1,0,-1
22.43,21.51,-59.99,3034,-6666,3897,-2,0,-1
22.44,21.50,-60.01,3076,-6686,3859,-1,1,0
22.45,21.49,-60.02,3063,-6687,3864,-1,1,-1
22.45,21.47,-60.03,3054,-6697,3858,-1,1,0
22.45,21.45,-60.01,3037,-6665,3873,-1,0,-1
22.46,21.44,-60.04,3029,-6704,3842,-2,1,-1
22.45,21.42,-60.05,3029,-6711,3829,0,0,0
22.44,21.41,-60.04,3034,-6682,3884,-1,0,0
22.44,21.39,-60.05,3012,-6672,3867,-1,1,-1
22.45,21.40,-60.06,3052,-6690,3863,-1,0,-1
22.45,21.38,-60.07,3041,-6693,3840,-1,1,-1
22.46,21.38,-60.06,3039,-6708,3866,-1,0,-1
22.44,21.35,-60.06,3011,-6699,3857,0,0,0
22.45,21.36,-60.06,3028,-6690,3860,-1,0,-1
22.45,21.35,-60.06,3021,-6682,3885,-1,0,0
22.45,21.35,-60.08,3024,-6685,3863,-2,0,-1
22.46,21.34,-60.10,3036,-6711,3840,-1,0,-1
22.46,21.33,-60.11,2987,-6731,3818,-1,0,-2
22.47,21.34,-60.09,3018,-6698,3833,1,0,0
22.48,21.35,-60.09,3025,-6683,3878,-2,0,-1
22.49,21.36,-60.11,3057,-6700,3849,-1,0,-1
22.49,21.35,-60.11,3028,-6702,3839,0,0,-1
22.49,21.34,-60.09,2998,-6685,3843,0,0,-1
22.51,21.35,-60.10,3022,-6695,3838,-1,0,-1
22.51,21.36,-60.10,3033,-6699,3861,-1,0,-1
22.51,21.35,-60.10,3034,-6700,3855,-1,0,-1
22.52,21.35,-60.10,3029,-6699,3854,-1,0,-1
22.52,21.35,-60.11,3025,-6696,3839,-1,0,-1
22.53,21.36,-60.11,3034,-6703,3839,0,0,-1
22.54,21.36,-60.10,3033,-6694,3844,0,0,-1
22.54,21.36,-60.10,3034,-6694,3845,-1,0,-1
22.55,21.36,-60.10,3029,-6698,3838,-1,0,-1
22.55,21.36,-60.10,3028,-6700,3839,0,0,-1
22.56,21.36,-60.09,3018,-6690,3852,-1,0,-1
22.56,21.37,-60.09,3026,-6692,3850,-1,0,-1
22.56,21.37,-60.09,3034,-6686,3855,0,0,-1
22.56,21.37,-60.09,3021,-6699,3850,0,-1,-1
22.57,21.38,-60.09,3039,-6701,3849,0,0,-1
22.57,21.38,-60.09,3028,-6702,3860,0,-1,-1
22.57,21.38,-60.08,3030,-6698,3848,0,-1,-1
22.58,21.39,-60.07,3032,-6684,3858,0,-1,-1
22.58,21.40,-60.07,3040,-6689,3848,0,-1,-1
22.58,21.40,-60.07,3036,-6691,3843,0,-1,-1
22.58,21.41,-60.06,3037,-6691,3852,0,-1,0
22.58,21.41,-60.06,3030,-6685,3860,0,-1,0
22.58,21.42,-60.06,3031,-6693,3855,0,-1,0
22.58,21.42,-60.06,3029,-6695,3844,0,-1,-1
22.58,21.43,-60.06,3033,-6692,3838,0,-1,-1
22.58,21.44,-60.06,3038,-6695,3854,0,-1,0
22.59,21.45,-60.04,3040,-6687,3859,0,-1,0
22.58,21.45,-60.04,3050,-6682,3859,0,-1,0
22.58,21.46,-60.05,3061,-6683,3849,0,-1,0
22.58,21.46,-60.04,3059,-6689,3847,0,-1,0
22.58,21.46,-60.04,3044,-6687,3857,0,-1,0
22.58,21.47,-60.04,3035,-6685,3859,0,-1,0
22.57,21.46,-60.04,3025,-6690,3860,-1,-1,0
22.57,21.46,-60.05,3036,-6700,3846,0,-1,0
22.56,21.47,-60.04,3030,-6694,3846,0,-1,0
22.56,21.47,-60.04,3031,-6687,3839,0,-1,0
22.57,21.48,-60.04,3037,-6680,3851,0,-1,0
22.57,21.48,-60.03,3048,-6690,3861,0,-1,0
22.56,21.49,-60.03,3054,-6689,3856,0,-1,0
22.57,21.49,-60.03,3050,-6689,3858,0,-1,-1
22.56,21.49,-60.02,3047,-6689,3859,0,-1,0
22.56,21.49,-60.02,3051,-6688,3863,0,-1,0
22.56,21.50,-60.02,3055,-6686,3855,0,-1,0
22.56,21.50,-60.02,3061,-6689,3849,0,-1,0
22.56,21.50,-60.02,3048,-6694,3858,0,-1,0
22.56,21.50,-60.02,3048,-6689,3861,0,-1,0
22.55,21.50,-60.02,3050,-6685,3855,0,-1,0
22.55,21.50,-60.02,3040,-6681,3863,0,-1,0
22.55,21.50,-60.02,3040,-6692,3856,0,-1,-1
22.55,21.51,-60.02,3052,-6690,3848,0,-1,-1
22.55,21.50,-60.01,3043,-6681,3850,0,-1,0
22.54,21.51,-60.02,3039,-6671,3861,-1,-1,0
22.54,21.51,-60.02,3053,-6680,3852,-1,-1,0
22.54,21.51,-60.02,3046,-6678,3850,-1,-1,-1
22.55,21.52,-60.03,3063,-6686,3839,0,0,0
22.54,21.52,-60.02,3047,-6684,3847,0,-1,-1
22.54,21.51,-60.02,3050,-6684,3842,0,-1,0
22.54,21.52,-60.02,3046,-6683,3858,0,-1,0
22.54,21.52,-60.02,3049,-6681,3857,-1,-1,-1
22.54,21.52,-60.02,3052,-6687,3852,0,-1,0
22.54,21.53,-60.01,3059,-6685,3858,0,-1,0
22.54,21.53,-60.01,3057,-6674,3861,0,-1,-1
22.54,21.53,-60.00,3050,-6681,3863,0,-1,0
22.53,21.53,-60.00,3049,-6673,3863,0,-1,0
22.53,21.53,-60.00,3055,-6679,3851,0,-1,0
22.53,21.54,-60.00,3060,-6680,3855,0,-1,0
22.53,21.54,-60.00,3056,-6679,3861,0,-1,0
22.53,21.54,-60.00,3056,-6680,3848,0,-1,0
22.53,21.54,-59.99,3053,-6678,3864,0,-1,0
22.53,21.54,-59.99,3044,-6679,3856,-1,-1,0
22.53,21.54,-60.00,3039,-6683,3855,0,-1,-1
22.52,21.54,-59.99,3036,-6690,3850,0,-1,0
22.52,21.54,-59.99,3055,-6687,3857,0,-1,0
22.52,21.55,-59.99,3059,-6678,3867,0,-1,-1
22.53,21.55,-59.99,3061,-6669,3870,0,0,0
22.53,21.55,-59.99,3057,-6673,3867,-1,-1,-1
22.53,21.56,-59.99,3061,-6678,3858,0,0,0
22.52,21.55,-59.99,3052,-6677,3867,-1,0,0
22.52,21.55,-59.99,3051,-6684,3856,0,0,0
22.52,21.55,-59.99,3042,-6691,3852,0,-1,0
22.51,21.55,-59.99,3038,-6691,3849,0,-1,-1
22.52,21.55,-59.98,3047,-6690,3852,0,-1,0
22.52,21.55,-59.98,3053,-6684,3858,0,-1,0
22.52,21.56,-59.97,3059,-6676,3864,0,-1,-1
22.51,21.56,-59.98,3060,-6672,3867,0,-1,0
22.51,21.56,-59.98,3062,-6678,3861,-1,-1,0
22.51,21.56,-59.98,3058,-6680,3864,0,-1,0
22.51,21.57,-59.97,3061,-6672,3870,0,-1,0
22.51,21.56,-59.97,3051,-6670,3859,0,0,0
22.51,21.57,-59.97,3055,-6677,3845,-1,-1,-1
22.52,21.57,-59.97,3069,-6672,3844,0,-1,0
22.52,21.57,-59.97,3063,-6678,3862,-1,-1,0
22.51,21.57,-59.98,3053,-6687,3837,-1,0,0
22.50,21.57,-59.98,3060,-6685,3844,0,-1,0
22.50,21.57,-59.98,3053,-6677,3850,0,-1,0
22.50,21.57,-59.97,3063,-6685,3858,0,-1,0
22.49,21.57,-59.96,3065,-6676,3855,0,-1,0
22.48,21.57,-59.97,3049,-6672,3864,0,-1,0
22.48,21.57,-59.97,3075,-6678,3852,0,-1,-1
22.49,21.58,-59.96,3069,-6678,3867,0,-1,0
22.48,21.58,-59.95,3062,-6676,3868,0,-1,0
22.48,21.58,-59.95,3060,-6675,3868,0,-1,0
22.47,21.58,-59.96,3061,-6673,3868,-1,-1,0
22.47,21.58,-59.96,3056,-6678,3859,-1,0,0
22.46,21.58,-59.98,3058,-6681,3849,0,-1,0
22.46,21.58,-59.98,3065,-6678,3848,0,-1,0
22.46,21.59,-59.97,3068,-6675,3860,0,-1,0
22.45,21.58,-59.96,3059,-6674,3868,0,-1,0
22.45,21.57,-59.96,3036,-6675,3867,0,-1,0
22.44,21.58,-59.96,3053,-6677,3868,0,-1,0
22.44,21.57,-59.96,3059,-6669,3880,0,-1,0
22.44,21.57,-59.96,3053,-6673,3882,-1,0,0
22.43,21.56,-59.97,3047,-6678,3866,-1,-1,0
22.43,21.57,-59.97,3057,-6672,3868,0,-1,0
22.42,21.56,-59.96,3055,-6675,3873,0,0,0
22.41,21.56,-59.97,3050,-6675,3869,0,-1,0
22.41,21.55,-59.97,3041,-6665,3862,-1,-1,0
22.40,21.55,-59.97,3043,-6682,3865,-1,-1,0
22.40,21.55,-59.98,3046,-6677,3864,0,0,-1
22.41,21.56,-59.98,3044,-6672,3855,-1,0,-1
22.41,21.56,-59.98,3068,-6681,3860,-1,0,-1
22.42,21.56,-59.98,3066,-6675,3861,-1,0,-1
22.43,21.57,-59.98,3074,-6674,3861,-1,0,-1
22.44,21.57,-59.99,3075,-6687,3855,-1,0,-1
22.44,21.56,-59.99,3062,-6693,3861,-1,0,-1
22.45,21.56,-59.99,3043,-6689,3856,-1,0,-1
22.45,21.55,-59.99,3043,-6697,3861,-1,0,-1
22.46,21.55,-59.99,3050,-6699,3861,-1,0,-1
22.47,21.55,-60.00,3053,-6701,3854,-1,0,-1
22.47,21.55,-59.99,3057,-6693,3857,0,0,-1
22.48,21.55,-59.98,3063,-6673,3868,-1,0,-1
22.49,21.55,-59.97,3064,-6674,3880,-1,0,-1
22.50,21.55,-59.98,3064,-6677,3866,-1,0,-1
22.50,21.54,-59.97,3062,-6674,3858,-1,0,-1
22.51,21.54,-59.97,3047,-6677,3887,-1,0,-1
22.51,21.53,-59.98,3042,-6678,3880,-1,0,-1
22.52,21.52,-59.98,3061,-6677,3875,-1,0,-1
22.54,21.52,-59.97,3052,-6667,3887,-1,1,-1
22.55,21.51,-59.99,3054,-6684,3860,-1,0,-1
22.54,21.49,-60.00,3088,-6676,3867,-1,1,0
22.54,21.47,-60.02,3060,-6723,3854,-2,1,0
22.52,21.44,-60.01,3047,-6674,3831,0,1,-1
22.52,21.42,-60.02,2986,-6709,3852,-3,0,0
22.51,21.42,-60.05,3090,-6708,3804,1,0,0
22.50,21.40,-60.01,3007,-6689,3911,-2,0,-1
22.51,21.38,-60.04,3008,-6716,3809,0,1,-1
22.52,21.39,-60.02,3023,-6691,3836,1,-1,-1
22.53,21.39,-59.99,3015,-6634,3910,-1,0,0
22.53,21.40,-60.00,3050,-6666,3896,-1,-1,-1
22.52,21.38,-60.02,3025,-6672,3874,-2,1,0
22.55,21.39,-60.05,3047,-6683,3848,-2,0,-2
22.53,21.37,-60.06,3013,-6721,3838,0,1,1
22.54,21.37,-60.05,3044,-6670,3877,-1,-1,-1
22.55,21.37,-60.07,3002,-6691,3862,-2,1,-1
22.56,21.37,-60.09,3021,-6732,3824,-1,-1,-1
22.58,21.38,-60.08,3085,-6721,3854,0,1,0
22.57,21.35,-60.07,3000,-6679,3862,0,0,-1
22.57,21.35,-60.07,3002,-6664,3858,-1,0,0
22.58,21.36,-60.09,3041,-6679,3863,-2,-1,-1
22.59,21.37,-60.12,3047,-6714,3839,-1,0,-1
22.59,21.36,-60.12,3042,-6720,3825,0,0,-1
22.59,21.34,-60.10,2993,-6710,3848,-1,1,-1
22.61,21.35,-60.11,3040,-6699,3847,-1,-1,-1
22.60,21.33,-60.11,3000,-6713,3827,0,0,0
22.62,21.35,-60.11,3065,-6714,3840,-1,0,-1
22.60,21.33,-60.12,3024,-6728,3830,-1,0,-1
22.60,21.32,-60.10,2992,-6699,3843,0,0,0
22.61,21.33,-60.10,3019,-6680,3852,-1,0,-1
22.60,21.32,-60.10,2992,-6689,3864,-1,0,-1
22.62,21.33,-60.11,3012,-6711,3857,-1,-1,-1
22.63,21.34,-60.11,3014,-6713,3844,-1,0,-1
22.64,21.34,-60.11,3025,-6706,3845,0,0,-1
22.64,21.35,-60.11,3032,-6696,3856,0,-1,-1
22.65,21.35,-60.10,3035,-6688,3859,0,0,-1
22.65,21.36,-60.10,3040,-6682,3853,-1,-1,-1
22.66,21.37,-60.11,3026,-6703,3851,0,-1,-1
22.67,21.37,-60.10,3030,-6703,3862,0,0,-1
22.67,21.37,-60.10,3031,-6693,3857,0,0,-1
22.67,21.38,-60.09,3018,-6694,3853,0,0,-1
22.68,21.38,-60.08,3011,-6695,3845,0,-1,-1
22.68,21.38,-60.08,3009,-6698,3848,0,-1,-1
22.69,21.39,-60.07,3017,-6688,3864,0,-1,-1
22.68,21.39,-60.07,3025,-6679,3868,0,-1,-1
22.69,21.40,-60.06,3029,-6688,3849,0,-1,-1
22.68,21.40,-60.06,3041,-6692,3876,0,-1,0
22.68,21.40,-60.07,3061,-6684,3863,-1,0,0
22.67,21.40,-60.06,3022,-6698,3851,0,0,0
22.66,21.39,-60.06,3055,-6713,3843,0,-1,0
22.65,21.39,-60.05,3036,-6710,3853,0,-1,0
22.65,21.39,-60.05,3042,-6706,3848,0,0,0
22.64,21.38,-60.02,3025,-6671,3890,-1,0,0
22.64,21.37,-60.05,2999,-6707,3816,0,0,-1
22.63,21.38,-60.03,3074,-6685,3886,0,-1,0
22.61,21.36,-60.04,2990,-6682,3865,-1,0,0
22.62,21.37,-60.07,3040,-6728,3796,0,-1,0
22.61,21.36,-60.05,3006,-6701,3865,0,-1,0
22.60,21.36,-60.05,3030,-6708,3868,0,0,0
22.60,21.37,-60.06,3069,-6702,3834,0,-1,-1
22.59,21.35,-60.04,2998,-6699,3871,0,-1,0
22.59,21.37,-60.04,3074,-6672,3872,0,0,0
22.59,21.36,-60.04,3004,-6689,3855,-1,-1,0
22.58,21.36,-60.06,3039,-6699,3842,0,-1,0
22.58,21.36,-60.03,3059,-6648,3914,-1,0,-1
22.58,21.35,-60.06,2989,-6702,3839,-1,1,0
22.56,21.35,-60.07,3019,-6705,3834,0,-2,-1
22.58,21.36,-60.06,3045,-6658,3902,-2,0,-1
22.57,21.36,-60.09,3007,-6694,3848,0,-1,0
22.58,21.38,-60.11,3036,-6703,3817,-1,-1,-1
22.58,21.37,-60.10,3021,-6704,3843,0,-1,0
22.57,21.38,-60.09,3046,-6690,3853,0,-1,0
22.58,21.39,-60.10,3029,-6696,3844,-1,-1,-1
22.59,21.40,-60.11,3032,-6704,3833,0,-1,-1
22.60,21.42,-60.12,3046,-6717,3823,0,-1,-1
22.59,21.42,-60.10,3030,-6719,3834,1,0,0
22.60,21.43,-60.08,3030,-6687,3864,0,-1,-1
22.60,21.44,-60.07,3058,-6669,3878,0,-1,-1
22.62,21.46,-60.07,3051,-6675,3855,0,-1,-1
22.62,21.47,-60.07,3027,-6692,3817,0,-1,-1
22.61,21.49,-60.05,3042,-6687,3844,0,-2,0
22.62,21.50,-60.04,3043,-6690,3863,0,-1,-1
22.62,21.51,-60.03,3039,-6697,3857,0,-1,0
22.62,21.51,-60.02,3042,-6690,3851,1,-1,0
22.61,21.52,-60.00,3039,-6670,3872,0,-1,-1
22.62,21.54,-59.98,3051,-6667,3890,0,-1,0
22.63,21.55,-59.98,3054,-6668,3872,0,-1,-1
22.63,21.56,-59.97,3069,-6675,3866,0,-1,0
22.62,21.56,-59.97,3066,-6679,3874,0,-1,0
22.63,21.56,-59.97,3067,-6681,3865,-1,-1,0
22.62,21.56,-59.97,3053,-6682,3862,0,-1,0
22.62,21.56,-59.98,3046,-6682,3858,-1,-1,0
22.62,21.56,-59.99,3046,-6693,3848,0,-1,-1
22.62,21.56,-59.99,3043,-6689,3844,0,-1,0
22.61,21.56,-59.98,3044,-6686,3840,0,-1,0
22.61,21.56,-59.97,3049,-6679,3843,0,-1,0
22.61,21.57,-59.97,3050,-6677,3856,0,-1,0
22.62,21.58,-59.98,3061,-6682,3854,0,-1,0
22.61,21.58,-59.97,3057,-6683,3854,0,-1,0
22.61,21.58,-59.97,3066,-6684,3857,0,-1,0
22.61,21.58,-59.98,3065,-6694,3853,0,-1,0
22.60,21.58,-59.98,3066,-6686,3861,0,-1,0
22.60,21.58,-59.97,3058,-6683,3864,0,-1,0
22.60,21.58,-59.98,3053,-6682,3861,-1,-1,-1
22.60,21.58,-59.98,3060,-6687,3854,0,-1,0
22.59,21.58,-59.98,3058,-6686,3856,0,-1,0
22.60,21.59,-59.98,3055,-6685,3859,0,-1,-1
22.60,21.59,-59.97,3054,-6679,3869,0,-1,0
22.60,21.59,-59.96,3047,-6665,3859,0,-1,-1
22.59,21.59,-59.96,3063,-6666,3852,0,-1,0
22.60,21.60,-59.96,3072,-6664,3857,0,-1,-1
22.59,21.60,-59.96,3069,-6658,3865,-1,-1,0
22.59,21.60,-59.97,3072,-6670,3863,0,-1,0
22.59,21.60,-59.96,3057,-6671,3870,0,-1,0
22.59,21.61,-59.97,3056,-6676,3863,0,-1,-1
22.59,21.61,-59.97,3061,-6680,3852,0,-1,0
22.59,21.61,-59.97,3062,-6682,3859,0,-1,0
22.59,21.61,-59.97,3068,-6686,3843,0,-1,-1
22.58,21.61,-59.97,3061,-6686,3846,0,-1,0
22.59,21.61,-59.96,3059,-6675,3853,0,-1,0
22.58,21.61,-59.95,3053,-6674,3861,0,-1,0
22.58,21.61,-59.95,3058,-6677,3857,0,-1,0
22.58,21.61,-59.95,3048,-6679,3856,0,-1,0
22.58,21.62,-59.95,3065,-6684,3859,0,-1,0
22.58,21.62,-59.95,3069,-6682,3871,0,-1,0
22.57,21.62,-59.95,3078,-6680,3868,-1,-1,0
22.57,21.62,-59.95,3073,-6684,3859,0,0,0
22.57,21.62,-59.95,3060,-6680,3853,0,-1,0
22.57,21.63,-59.96,3062,-6678,3857,0,-1,0
22.56,21.62,-59.96,3049,-6682,3854,-1,-1,-1
22.57,21.63,-59.96,3057,-6689,3858,0,-1,0
22.56,21.63,-59.96,3059,-6689,3864,0,-1,0
22.56,21.63,-59.95,3064,-6678,3866,0,-1,0
22.56,21.63,-59.94,3056,-6668,3864,0,0,0
22.56,21.63,-59.95,3064,-6674,3861,-1,-1,0
22.56,21.63,-59.96,3059,-6679,3850,-1,-1,-1
22.56,21.63,-59.95,3062,-6673,3849,0,0,0
22.56,21.64,-59.95,3072,-6667,3863,-1,0,-1
22.56,21.64,-59.96,3069,-6667,3867,-1,0,-1
22.57,21.63,-59.98,3066,-6675,3847,-1,0,-1
22.57,21.63,-59.97,3079,-6670,3853,0,0,0
22.56,21.62,-59.97,3069,-6672,3873,-1,0,0
22.57,21.62,-59.98,3054,-6679,3865,-1,0,-1
22.57,21.61,-59.97,3046,-6684,3845,0,0,-1
22.57,21.61,-59.97,3051,-6675,3866,0,0,-1
22.58,21.61,-59.97,3057,-6672,3868,-1,0,-1
22.58,21.61,-59.97,3058,-6671,3859,-1,0,-1
22.59,21.61,-59.97,3060,-6666,3867,-1,0,-1
22.60,21.61,-59.97,3067,-6676,3867,-1,0,-1
22.60,21.61,-59.98,3076,-6679,3858,-1,0,-1
22.60,21.61,-59.98,3065,-6679,3858,-1,0,-1
22.61,21.61,-59.98,3068,-6679,3855,-1,0,-1
22.61,21.60,-59.98,3066,-6672,3863,-1,0,-1
22.62,21.61,-59.98,3066,-6671,3858,-1,0,-1
22.63,21.61,-59.98,3064,-6675,3857,-1,0,-1
22.63,21.60,-59.99,3061,-6687,3849,-1,0,-1
22.63,21.60,-59.99,3065,-6686,3851,-1,0,-1
22.64,21.60,-59.98,3070,-6682,3860,-1,0,-1
22.64,21.59,-59.98,3052,-6670,3862,-1,0,-1
22.64,21.59,-59.98,3056,-6676,3866,-1,0,-1
22.65,21.59,-59.99,3057,-6676,3863,-1,0,-1
22.65,21.58,-59.98,3049,-6682,3859,-1,0,-1
22.66,21.59,-59.99,3061,-6682,3852,-1,0,-1
22.66,21.58,-59.99,3061,-6675,3859,-1,0,-1
22.67,21.58,-59.99,3059,-6675,3855,-1,0,-1
22.67,21.58,-60.00,3056,-6674,3864,-1,0,-1
22.67,21.57,-60.00,3057,-6675,3859,-1,0,-1
22.68,21.56,-60.00,3053,-6678,3853,-1,0,-1
22.68,21.56,-60.00,3055,-6678,3846,-1,0,-1
22.68,21.56,-60.01,3049,-6677,3847,-1,0,0
22.68,21.55,-60.00,3046,-6681,3849,-1,0,-1
22.68,21.54,-60.01,3048,-6680,3851,-1,0,-1
22.69,21.54,-60.01,3049,-6687,3849,-1,0,-1
22.69,21.54,-60.00,3047,-6686,3850,-1,0,-1
22.70,21.54,-60.01,3052,-6678,3853,-1,0,-1
22.69,21.53,-60.01,3053,-6677,3859,-1,0,-1
22.70,21.52,-60.01,3051,-6678,3861,-1,0,-1
22.70,21.51,-60.01,3045,-6683,3861,-1,0,-1
22.71,21.51,-60.02,3057,-6682,3861,-1,0,-1
22.71,21.50,-60.02,3051,-6686,3858,-1,0,-1
22.71,21.50,-60.02,3050,-6677,3859,-1,0,-1
22.71,21.49,-60.02,3052,-6674,3861,-1,0,0
22.71,21.48,-60.04,3051,-6678,3855,-1,0,0
22.71,21.47,-60.04,3042,-6696,3849,-1,0,-1
22.72,21.47,-60.05,3052,-6699,3853,-1,0,-1
22.72,21.47,-60.05,3050,-6690,3849,-1,0,-1
22.73,21.47,-60.04,3047,-6684,3849,-1,0,-1
22.74,21.46,-60.04,3050,-6684,3843,-1,0,-1
22.74,21.46,-60.05,3046,-6689,3846,-1,0,-1
22.74,21.45,-60.05,3044,-6688,3846,-1,0,0
22.73,21.44,-60.05,3035,-6688,3859,-1,0,0
22.73,21.43,-60.05,3030,-6688,3855,-1,0,-1
22.73,21.43,-60.06,3025,-6695,3851,-1,0,-1
22.73,21.42,-60.06,3023,-6693,3852,-1,0,-1
22.74,21.43,-60.05,3022,-6693,3867,-1,0,-1
22.74,21.42,-60.05,3033,-6693,3861,-1,0,-1
22.74,21.43,-60.06,3032,-6693,3842,-1,0,-1
22.75,21.43,-60.06,3037,-6691,3840,0,0,-1
22.75,21.43,-60.06,3035,-6686,3860,-1,0,-1
22.75,21.43,-60.05,3031,-6687,3863,0,-1,-1
22.75,21.43,-60.05,3033,-6689,3862,0,-1,0
22.75,21.44,-60.05,3038,-6686,3856,0,-1,-1
22.76,21.45,-60.05,3040,-6688,3858,-1,-1,0
22.75,21.44,-60.06,3031,-6697,3844,-1,-1,-1
22.76,21.45,-60.06,3029,-6698,3840,0,-1,0
22.75,21.45,-60.05,3028,-6689,3845,0,-1,-1
22.76,21.46,-60.04,3030,-6696,3844,0,-1,-1
22.76,21.47,-60.03,3039,-6688,3859,0,-1,-1
22.77,21.48,-60.03,3044,-6689,3859,0,-1,-1
22.76,21.48,-60.02,3045,-6682,3859,0,-1,0
22.76,21.49,-60.01,3051,-6678,3864,0,-1,0
22.76,21.49,-60.01,3051,-6665,3856,0,-1,0
22.76,21.49,-60.01,3046,-6677,3867,-1,-1,0
22.76,21.50,-60.01,3051,-6684,3865,-1,-1,-1
22.76,21.51,-60.01,3056,-6678,3865,0,-1,0
22.76,21.51,-60.01,3051,-6680,3863,-1,-1,0
22.76,21.50,-60.01,3042,-6677,3857,-1,-1,0
22.76,21.51,-60.01,3049,-6684,3849,0,-1,0
22.76,21.51,-60.01,3050,-6687,3839,0,-1,0
22.76,21.52,-60.02,3049,-6689,3839,0,-1,0
22.76,21.52,-60.01,3042,-6689,3868,0,-1,0
22.76,21.52,-60.00,3046,-6683,3864,-1,-1,0
22.75,21.53,-60.01,3054,-6680,3858,0,-1,0
22.75,21.53,-60.01,3050,-6689,3852,0,-1,-1
22.76,21.54,-60.00,3058,-6694,3853,0,-1,0
22.75,21.53,-59.99,3046,-6682,3869,0,-1,-1
22.75,21.54,-59.98,3040,-6675,3870,0,-1,0
22.75,21.54,-59.99,3042,-6682,3864,-1,-1,0
22.75,21.54,-60.00,3053,-6688,3863,0,-1,-1
22.75,21.55,-59.99,3058,-6683,3852,0,-1,0
22.75,21.55,-59.98,3062,-6678,3866,0,-1,0
22.75,21.55,-59.98,3057,-6678,3865,0,-1,0
22.75,21.56,-59.98,3060,-6686,3864,0,-1,0
22.74,21.55,-59.98,3056,-6678,3862,0,-1,0
22.74,21.56,-59.99,3060,-6680,3858,0,-1,0
22.74,21.56,-59.99,3051,-6683,3865,-1,-1,0
22.74,21.55,-59.99,3054,-6685,3863,0,0,0
22.73,21.55,-59.98,3040,-6689,3861,0,0,0
22.73,21.55,-59.99,3040,-6683,3865,0,-1,0
22.73,21.55,-59.99,3049,-6689,3860,0,-1,0
22.73,21.56,-59.98,3061,-6692,3859,0,-1,0
22.73,21.56,-59.97,3053,-6687,3856,0,-1,-1
22.73,21.56,-59.98,3059,-6675,3856,0,-1,0
22.73,21.57,-59.97,3069,-6666,3866,0,-1,0
22.73,21.57,-59.97,3059,-6671,3866,-1,-1,0
22.73,21.57,-59.97,3070,-6682,3868,0,-1,0
22.73,21.57,-59.97,3063,-6684,3867,0,-1,0
22.72,21.57,-59.97,3054,-6680,3863,0,-1,0
22.72,21.58,-59.97,3057,-6676,3856,0,-1,0
22.72,21.58,-59.97,3050,-6676,3865,-1,-1,-1
22.72,21.58,-59.97,3057,-6681,3861,0,-1,0
22.72,21.58,-59.97,3057,-6691,3858,0,-1,0
22.71,21.58,-59.97,3044,-6691,3851,0,0,0
22.71,21.58,-59.96,3051,-6681,3849,0,-1,0
22.71,21.58,-59.95,3056,-6672,3860,0,-1,0
22.71,21.59,-59.95,3060,-6675,3859,0,-1,-1
22.71,21.59,-59.95,3071,-6680,3865,0,-1,0
22.71,21.60,-59.95,3077,-6680,3865,0,-1,0
22.71,21.60,-59.95,3073,-6675,3872,0,0,0
22.71,21.60,-59.95,3067,-6679,3871,-1,-1,0
22.70,21.59,-59.96,3060,-6689,3862,-1,-1,0
22.70,21.59,-59.96,3061,-6688,3846,0,0,0
22.70,21.58,-59.96,3049,-6688,3856,0,0,0
22.70,21.59,-59.95,3063,-6684,3864,0,-1,0
22.69,21.59,-59.95,3055,-6673,3856,-1,-1,0
22.70,21.59,-59.95,3069,-6678,3864,0,-1,0
22.68,21.58,-59.95,3052,-6677,3865,-1,-1,-1
22.69,21.59,-59.95,3062,-6679,3849,0,-1,0
22.68,21.59,-59.95,3042,-6678,3867,0,-1,-1
22.69,21.59,-59.94,3054,-6676,3864,0,-1,-1
22.69,21.60,-59.94,3062,-6675,3869,0,-1,-1
22.69,21.61,-59.93,3061,-6675,3861,0,-1,0
22.69,21.61,-59.94,3063,-6675,3847,0,-1,0
22.69,21.61,-59.94,3068,-6677,3858,0,-1,0
22.68,21.61,-59.93,3072,-6666,3856,0,-1,0
22.67,21.61,-59.93,3065,-6677,3858,0,-1,0
22.67,21.61,-59.93,3047,-6671,3864,-1,-1,0
22.66,21.61,-59.94,3058,-6674,3858,0,-1,0
22.66,21.61,-59.94,3058,-6680,3859,0,-1,0
22.67,21.61,-59.94,3061,-6686,3867,0,-1,0
22.66,21.61,-59.93,3074,-6685,3863,0,-1,0
22.65,21.61,-59.93,3073,-6665,3861,0,-1,0
22.65,21.61,-59.94,3077,-6663,3864,-1,-1,0
22.64,21.61,-59.94,3087,-6672,3864,-1,0,0
22.63,21.61,-59.94,3082,-6683,3864,0,-1,0
22.62,21.60,-59.95,3061,-6693,3863,-1,0,0
22.61,21.59,-59.96,3058,-6686,3858,0,-1,0
22.60,21.58,-59.96,3050,-6689,3856,0,-1,0
22.59,21.58,-59.95,3060,-6676,3864,0,-1,0
22.58,21.57,-59.95,3044,-6663,3867,-1,0,0
22.57,21.57,-59.97,3054,-6676,3853,-1,0,0
22.57,21.57,-59.98,3084,-6689,3840,0,-1,0
22.56,21.57,-59.97,3083,-6680,3855,0,0,0
22.55,21.55,-59.96,3041,-6668,3870,-1,0,0
22.54,21.54,-59.98,3040,-6663,3870,-1,-1,0
22.53,21.54,-59.99,3085,-6685,3858,0,0,0
22.52,21.51,-59.96,3047,-6665,3918,-1,1,0
22.53,21.50,-59.99,3053,-6670,3868,-3,1,-1
22.53,21.49,-60.01,3045,-6705,3824,0,0,0
22.53,21.48,-60.00,3078,-6684,3865,-1,0,0
22.54,21.47,-60.01,3065,-6724,3857,-1,1,-1
22.53,21.45,-60.00,3005,-6683,3809,-1,1,0
22.53,21.44,-59.98,3016,-6666,3850,0,-1,0
22.55,21.46,-60.00,3050,-6650,3897,-2,0,-1
22.55,21.44,-60.02,3009,-6681,3861,-1,1,-1
22.57,21.46,-60.04,3049,-6696,3830,-1,0,-1
22.58,21.46,-60.05,3039,-6688,3845,-1,0,-1
22.59,21.46,-60.07,3050,-6729,3824,-1,0,-1
22.61,21.47,-60.06,3058,-6711,3830,0,0,-1
22.60,21.46,-60.04,3025,-6663,3864,-1,0,-1
22.63,21.48,-60.06,3039,-6667,3868,-1,-1,-1
22.64,21.48,-60.08,3019,-6695,3844,-1,0,-1
22.66,21.50,-60.09,3052,-6715,3832,0,0,-1
22.67,21.50,-60.07,3043,-6700,3848,0,0,-1
22.69,21.52,-60.06,3051,-6693,3857,0,0,-1
22.69,21.52,-60.05,3056,-6683,3862,0,0,-1
22.71,21.53,-60.04,3052,-6678,3853,0,0,-1
22.72,21.54,-60.05,3060,-6680,3855,-1,0,-1
22.73,21.55,-60.04,3074,-6686,3860,-1,0,-1
22.74,21.54,-60.04,3055,-6689,3847,-1,0,-1
22.74,21.54,-60.04,3055,-6686,3850,0,0,-1
22.74,21.53,-60.04,3044,-6680,3858,-1,0,-1
22.75,21.54,-60.04,3048,-6682,3858,-1,0,-1
22.75,21.53,-60.04,3043,-6675,3859,-1,0,-1
22.75,21.52,-60.05,3044,-6687,3849,-1,0,-1
22.76,21.53,-60.06,3049,-6698,3843,-1,0,-1
22.76,21.52,-60.06,3048,-6694,3851,-1,0,0
22.76,21.52,-60.06,3054,-6690,3853,-1,0,-1
22.77,21.52,-60.06,3055,-6686,3853,-1,0,-1
22.78,21.52,-60.06,3062,-6683,3850,-1,0,-1
22.78,21.51,-60.06,3058,-6689,3844,-1,0,-1
22.78,21.51,-60.07,3053,-6693,3848,-1,0,0
22.78,21.50,-60.07,3048,-6692,3855,-1,0,0
22.78,21.49,-60.07,3043,-6694,3849,-1,0,0
22.77,21.48,-60.08,3040,-6693,3848,-1,0,-1
22.78,21.47,-60.08,3033,-6699,3855,-1,0,0
22.78,21.47,-60.09,3048,-6697,3848,-1,0,-1
22.78,21.46,-60.09,3043,-6691,3853,-1,0,-1
22.79,21.46,-60.09,3041,-6697,3856,-1,0,-1
22.79,21.45,-60.09,3044,-6691,3858,-1,0,-1
22.79,21.44,-60.09,3045,-6697,3856,-1,0,-1
22.79,21.43,-60.10,3048,-6688,3857,-1,0,0
22.80,21.43,-60.10,3037,-6687,3850,-1,0,-1
22.80,21.42,-60.10,3036,-6689,3845,-1,0,-1
22.80,21.42,-60.10,3039,-6686,3851,-1,0,-1
22.80,21.41,-60.11,3033,-6694,3842,-1,0,0
22.80,21.41,-60.11,3031,-6695,3847,-1,0,-1
22.80,21.41,-60.11,3024,-6699,3849,-1,0,-1
22.80,21.41,-60.11,3017,-6699,3838,-1,0,-1
22.80,21.41,-60.11,3019,-6697,3834,0,0,-1
22.81,21.42,-60.11,3028,-6692,3835,0,-1,-1
22.81,21.42,-60.10,3032,-6688,3834,0,-1,-1
22.82,21.43,-60.10,3033,-6697,3843,0,-1,-1
22.83,21.44,-60.10,3042,-6693,3842,0,-1,-1
22.82,21.44,-60.09,3047,-6685,3859,0,-1,-1
22.83,21.45,-60.08,3054,-6682,3863,0,-1,-1
22.83,21.46,-60.08,3050,-6686,3860,-1,-1,0
22.84,21.47,-60.09,3052,-6702,3850,0,-1,-1
22.83,21.46,-60.09,3038,-6695,3850,0,-1,-1
22.84,21.47,-60.09,3036,-6697,3849,0,-1,-1
22.84,21.48,-60.08,3039,-6692,3850,0,-1,-1
22.84,21.49,-60.07,3045,-6690,3856,0,-1,-1
22.85,21.49,-60.07,3053,-6690,3858,0,-1,-1
22.84,21.50,-60.06,3056,-6691,3851,0,-1,0
22.84,21.50,-60.05,3046,-6686,3858,0,-1,0
22.84,21.50,-60.04,3047,-6691,3861,0,-1,0
22.84,21.51,-60.04,3041,-6681,3845,0,-1,0
22.85,21.51,-60.04,3043,-6684,3844,0,-1,0
22.84,21.52,-60.04,3048,-6678,3857,0,-1,0
22.84,21.52,-60.03,3052,-6672,3858,0,-1,0
22.85,21.53,-60.04,3054,-6681,3853,-1,-1,0
22.84,21.53,-60.04,3044,-6692,3843,-1,-1,0
22.84,21.53,-60.05,3048,-6690,3839,0,-1,0
22.84,21.53,-60.05,3056,-6683,3841,0,-1,0
22.84,21.54,-60.05,3057,-6678,3845,0,-1,0
22.84,21.54,-60.04,3058,-6674,3853,0,-1,0
22.84,21.54,-60.04,3052,-6679,3854,0,-1,0
22.83,21.54,-60.04,3046,-6682,3848,-1,-1,0
22.83,21.54,-60.05,3049,-6686,3845,0,-1,0
22.82,21.54,-60.04,3042,-6679,3855,0,-1,0
22.83,21.55,-60.05,3048,-6684,3850,0,-1,-1
22.82,21.55,-60.04,3053,-6682,3848,0,-1,0
22.83,21.55,-60.03,3050,-6682,3847,0,-1,-1
22.83,21.56,-60.03,3058,-6680,3854,0,-1,0
22.82,21.56,-60.03,3057,-6679,3854,0,-1,0
22.82,21.56,-60.03,3061,-6682,3848,0,-1,0
22.82,21.57,-60.03,3056,-6682,3850,0,-1,0
22.82,21.57,-60.02,3061,-6677,3865,0,-1,0
22.82,21.56,-60.01,3061,-6679,3864,0,-1,-1
22.82,21.57,-60.01,3059,-6685,3858,0,-1,0
22.82,21.57,-60.02,3058,-6676,3855,-1,-1,0
22.81,21.58,-60.02,3058,-6684,3848,0,-1,0
22.81,21.57,-60.03,3054,-6689,3853,0,-1,0
22.81,21.58,-60.03,3057,-6694,3857,0,-1,0
22.81,21.58,-60.03,3050,-6695,3844,0,-1,0
22.81,21.58,-60.02,3056,-6688,3844,0,-1,0
22.81,21.58,-60.02,3058,-6676,3835,0,-1,0
22.81,21.59,-60.02,3060,-6673,3846,0,-1,-1
22.81,21.60,-60.01,3065,-6679,3856,0,-1,0
22.80,21.59,-60.00,3054,-6666,3862,0,-1,0
22.81,21.60,-60.00,3065,-6668,3869,0,-1,0
22.81,21.60,-60.00,3059,-6667,3865,-1,-1,0
22.80,21.60,-60.00,3067,-6672,3856,0,0,0
22.80,21.60,-60.01,3060,-6681,3857,-1,-1,-1
22.80,21.60,-60.01,3065,-6684,3858,0,-1,0
22.80,21.61,-60.01,3056,-6686,3860,-1,-1,-1
22.80,21.60,-60.01,3059,-6692,3842,0,-1,-1
22.80,21.61,-60.00,3061,-6688,3841,0,-1,0
