Yaw,Pitch,Roll,AX,AY,AZ,GX,GY,GZ
21.20,11.72,-43.91,1673,-5641,5836,-1,0,-1
21.20,11.72,-43.93,1679,-5629,5847,-1,0,-1
21.21,11.71,-43.95,1680,-5641,5834,-1,0,-1
21.22,11.70,-43.97,1683,-5632,5842,-1,0,-1
21.22,11.70,-43.98,1698,-5622,5834,-1,0,-1
21.22,11.68,-44.00,1695,-5633,5826,-1,0,0
21.22,11.67,-44.01,1676,-5633,5835,-1,0,0
21.22,11.67,-44.04,1666,-5636,5822,-1,0,-1
21.22,11.66,-44.04,1671,-5652,5828,-1,0,-1
21.22,11.66,-44.05,1676,-5659,5823,-1,0,-1
21.22,11.66,-44.05,1665,-5656,5818,0,0,-1
21.23,11.66,-44.05,1679,-5657,5811,-1,0,-1
21.23,11.66,-44.06,1672,-5658,5818,-1,0,-1
21.23,11.66,-44.06,1674,-5662,5822,-1,0,-1
21.24,11.66,-44.06,1683,-5657,5826,0,0,-1
21.24,11.65,-44.05,1682,-5651,5831,0,0,-1
21.24,11.64,-44.05,1672,-5641,5833,0,0,-1
21.24,11.63,-44.05,1676,-5638,5838,-1,0,-1
21.24,11.63,-44.05,1672,-5641,5844,-1,0,0
21.24,11.62,-44.05,1676,-5638,5841,-1,0,0
21.24,11.61,-44.06,1672,-5633,5832,-1,0,0
21.24,11.61,-44.07,1667,-5646,5833,-1,0,-1
21.24,11.60,-44.08,1674,-5646,5845,-1,0,-1
21.25,11.60,-44.10,1676,-5644,5836,-1,0,-1
21.24,11.59,-44.12,1672,-5636,5839,-2,-1,0
21.24,11.59,-44.15,1669,-5643,5826,-2,0,-1
21.24,11.59,-44.18,1674,-5657,5807,-1,0,-1
21.24,11.59,-44.20,1693,-5677,5819,-1,0,0
21.23,11.58,-44.22,1676,-5678,5796,-1,0,0
21.24,11.57,-44.23,1662,-5673,5784,-1,0,-1
21.24,11.57,-44.24,1665,-5660,5808,-1,-1,0
21.24,11.56,-44.25,1677,-5660,5798,-1,0,-1
21.25,11.56,-44.26,1664,-5675,5795,-1,-1,-1
21.25,11.57,-44.27,1671,-5672,5807,-1,-1,-1
21.24,11.58,-44.27,1668,-5654,5811,-1,-1,-1
21.24,11.58,-44.28,1677,-5664,5802,0,0,0
21.24,11.58,-44.27,1663,-5668,5789,0,-1,-1
21.24,11.58,-44.27,1658,-5669,5787,0,-1,0
21.24,11.59,-44.26,1656,-5667,5802,0,-1,0
21.24,11.59,-44.25,1658,-5671,5796,0,-1,0
21.24,11.59,-44.24,1659,-5677,5807,0,-1,-1
21.24,11.60,-44.23,1669,-5673,5809,0,-1,-1
21.25,11.61,-44.22,1674,-5663,5820,0,-1,-1
21.25,11.62,-44.21,1678,-5651,5819,0,-1,-1
21.26,11.63,-44.19,1678,-5645,5812,0,-1,-1
21.25,11.64,-44.19,1680,-5651,5808,0,-1,0
21.25,11.65,-44.19,1685,-5656,5813,0,-1,0
21.25,11.65,-44.19,1674,-5659,5812,0,-1,0
21.24,11.64,-44.18,1679,-5675,5820,0,-1,0
21.24,11.65,-44.18,1672,-5672,5824,0,-1,0
21.24,11.66,-44.17,1664,-5674,5807,0,-1,-1
21.25,11.66,-44.15,1671,-5662,5814,0,-1,-1
21.25,11.67,-44.14,1679,-5651,5822,0,-1,-1
21.26,11.67,-44.13,1687,-5650,5826,0,0,-1
21.26,11.67,-44.13,1684,-5643,5829,-1,-1,0
21.25,11.67,-44.13,1683,-5641,5814,0,-1,0
21.24,11.67,-44.13,1686,-5648,5832,-1,-1,0
21.24,11.66,-44.13,1676,-5645,5835,0,0,0
21.24,11.66,-44.13,1667,-5641,5845,-1,-1,0
21.24,11.67,-44.13,1670,-5656,5811,-1,-1,-1
21.24,11.68,-44.14,1676,-5669,5808,0,-1,0
21.24,11.69,-44.13,1685,-5666,5804,0,-1,-1
21.24,11.69,-44.13,1673,-5665,5803,0,-1,-1
21.24,11.70,-44.13,1682,-5655,5801,0,-1,0
21.24,11.71,-44.11,1697,-5662,5803,0,-1,0
21.24,11.72,-44.10,1695,-5660,5806,0,-1,0
21.24,11.72,-44.08,1686,-5644,5811,0,-1,0
21.24,11.73,-44.06,1703,-5629,5824,0,-1,0
21.24,11.73,-44.05,1700,-5625,5825,0,-1,0
21.24,11.74,-44.03,1694,-5621,5841,0,0,0
21.24,11.73,-44.03,1689,-5637,5844,0,-1,0
21.23,11.74,-44.02,1688,-5640,5845,0,-1,0
21.23,11.74,-44.02,1679,-5646,5842,0,-1,-1
21.23,11.75,-44.02,1674,-5643,5832,0,-1,-1
21.23,11.76,-44.02,1692,-5639,5826,0,-1,-1
21.24,11.77,-44.02,1702,-5644,5817,0,-1,-1
21.23,11.77,-44.02,1696,-5643,5815,0,-1,0
21.24,11.77,-44.01,1702,-5638,5819,0,-1,0
21.23,11.77,-44.01,1697,-5634,5819,0,-1,0
21.23,11.78,-44.00,1692,-5640,5813,0,-1,0
21.23,11.77,-44.00,1686,-5638,5820,0,-1,0
21.23,11.78,-43.99,1687,-5633,5820,0,-1,-1
21.23,11.79,-43.99,1693,-5636,5827,0,-1,-1
21.24,11.80,-43.98,1703,-5638,5829,0,-1,0
21.23,11.80,-43.97,1704,-5633,5828,0,-1,0
21.23,11.80,-43.97,1698,-5626,5828,0,-1,0
21.22,11.80,-43.96,1695,-5630,5819,0,-1,0
21.22,11.81,-43.96,1694,-5640,5826,0,-1,0
21.22,11.81,-43.96,1695,-5643,5831,0,-1,0
21.22,11.81,-43.95,1686,-5640,5834,0,-1,0
21.21,11.82,-43.93,1698,-5634,5834,0,-1,-1
21.22,11.83,-43.92,1707,-5621,5833,0,-1,0
21.22,11.84,-43.92,1715,-5620,5829,0,-1,0
21.21,11.84,-43.91,1712,-5623,5836,0,-1,0
21.21,11.84,-43.91,1708,-5629,5841,0,0,0
21.21,11.84,-43.92,1700,-5652,5840,0,-1,0
21.20,11.83,-43.91,1693,-5647,5840,0,-1,0
21.20,11.83,-43.90,1679,-5642,5842,0,-1,-1
21.20,11.84,-43.89,1693,-5640,5847,0,-1,-1
21.21,11.85,-43.88,1712,-5628,5836,0,-1,-1
21.21,11.85,-43.87,1711,-5623,5832,0,-1,-1
21.21,11.86,-43.86,1712,-5612,5840,0,-1,0
21.21,11.87,-43.85,1718,-5607,5846,0,-1,0
21.21,11.86,-43.85,1711,-5611,5844,0,0,0
21.20,11.85,-43.84,1703,-5615,5849,0,0,0
21.20,11.86,-43.84,1699,-5616,5844,0,-1,0
21.20,11.87,-43.84,1705,-5620,5847,0,-1,-1
21.20,11.87,-43.84,1705,-5623,5846,0,-1,-1
21.20,11.88,-43.84,1705,-5616,5850,0,-1,-1
21.20,11.88,-43.84,1708,-5621,5849,0,-1,0
21.20,11.88,-43.84,1712,-5630,5844,0,-1,0
21.20,11.89,-43.83,1716,-5622,5844,0,-1,0
21.20,11.88,-43.82,1710,-5618,5846,0,-1,0
21.20,11.89,-43.80,1709,-5621,5843,0,-1,0
21.20,11.89,-43.80,1711,-5606,5840,0,-1,0
21.20,11.89,-43.78,1711,-5598,5846,0,-1,0
21.20,11.90,-43.78,1708,-5601,5834,0,-1,0
21.19,11.89,-43.77,1719,-5603,5839,0,-1,0
21.19,11.90,-43.77,1723,-5605,5843,0,-1,0
21.19,11.90,-43.77,1717,-5606,5844,0,-1,0
21.19,11.90,-43.77,1719,-5611,5831,0,0,-1
21.18,11.89,-43.76,1710,-5617,5836,0,0,-1
21.18,11.89,-43.76,1718,-5618,5853,0,0,0
21.18,11.88,-43.76,1707,-5613,5850,0,0,0
21.18,11.88,-43.76,1701,-5615,5836,0,-1,0
21.17,11.89,-43.75,1710,-5612,5844,0,-1,0
21.17,11.89,-43.74,1712,-5609,5840,0,-1,0
21.18,11.90,-43.74,1716,-5604,5842,0,-1,0
21.17,11.89,-43.73,1715,-5596,5843,0,-1,0
21.16,11.89,-43.72,1709,-5599,5841,0,0,0
21.16,11.89,-43.72,1693,-5596,5840,0,-1,0
21.15,11.89,-43.71,1694,-5601,5853,0,-1,0
21.15,11.89,-43.71,1704,-5617,5846,0,0,0
21.14,11.87,-43.69,1699,-5609,5866,0,-1,0
21.14,11.88,-43.68,1706,-5604,5870,0,-1,0
21.13,11.89,-43.68,1713,-5600,5867,0,-1,0
21.13,11.89,-43.69,1717,-5589,5856,-1,-1,0
21.13,11.90,-43.69,1718,-5589,5864,-1,-1,0
21.12,11.89,-43.69,1717,-5595,5846,-1,-1,0
21.11,11.89,-43.70,1711,-5602,5860,-1,-1,0
21.10,11.88,-43.70,1699,-5602,5861,-1,-1,0
21.09,11.87,-43.72,1694,-5600,5874,-1,-1,0
21.08,11.87,-43.74,1693,-5602,5855,-1,0,-1
21.09,11.88,-43.74,1702,-5602,5870,-1,0,-1
21.09,11.87,-43.76,1698,-5599,5856,-1,0,-1
21.10,11.86,-43.77,1716,-5569,5866,-1,0,-1
21.10,11.86,-43.80,1729,-5593,5848,-1,-1,0
21.09,11.85,-43.82,1712,-5613,5841,-1,0,-1
21.09,11.84,-43.83,1701,-5615,5827,-1,0,-1
21.10,11.82,-43.84,1686,-5617,5838,-1,0,-1
21.11,11.83,-43.84,1696,-5640,5854,-1,0,-1
21.12,11.83,-43.85,1703,-5633,5848,-1,0,-1
21.13,11.82,-43.84,1697,-5629,5838,-1,0,-1
21.13,11.83,-43.84,1699,-5627,5834,0,0,-1
21.14,11.82,-43.84,1707,-5623,5846,0,0,-1
21.14,11.82,-43.84,1698,-5619,5858,-1,0,-1
21.15,11.82,-43.83,1703,-5623,5857,-1,0,-1
21.16,11.81,-43.83,1701,-5631,5847,0,0,-1
21.16,11.81,-43.83,1699,-5618,5848,0,0,-1
21.17,11.80,-43.82,1700,-5613,5844,-1,0,-1
21.17,11.80,-43.82,1695,-5611,5856,-1,0,-1
21.18,11.79,-43.83,1699,-5614,5848,-1,0,-1
21.17,11.79,-43.85,1695,-5620,5847,-1,0,-1
21.17,11.79,-43.85,1702,-5626,5844,-1,0,-1
21.18,11.78,-43.86,1707,-5626,5848,-1,0,-1
21.18,11.77,-43.87,1701,-5628,5838,-1,0,-1
21.19,11.77,-43.87,1699,-5628,5831,-1,0,-1
21.19,11.77,-43.87,1696,-5622,5843,-1,0,-1
21.19,11.77,-43.87,1693,-5625,5836,-1,0,-1
21.19,11.77,-43.88,1687,-5626,5844,-1,0,-1
21.19,11.76,-43.89,1695,-5633,5828,-1,0,-1
21.20,11.76,-43.89,1701,-5630,5835,-1,0,-1
21.20,11.75,-43.90,1694,-5632,5835,-1,0,-1
21.21,11.75,-43.90,1690,-5627,5838,-1,0,-1
21.21,11.75,-43.91,1695,-5621,5830,-1,0,-1
21.22,11.74,-43.91,1688,-5622,5827,-1,0,-1
21.22,11.73,-43.92,1685,-5624,5837,-1,0,-1
21.22,11.72,-43.93,1687,-5629,5831,-1,0,0
21.22,11.71,-43.94,1688,-5626,5841,-1,0,-1
21.22,11.71,-43.95,1691,-5628,5844,-1,0,-1
21.23,11.70,-43.96,1684,-5631,5841,-1,0,-1
21.22,11.69,-43.97,1686,-5636,5829,-1,0,-1
21.23,11.68,-43.99,1695,-5626,5850,-1,0,-1
21.23,11.66,-44.01,1688,-5630,5835,-1,0,-1
21.23,11.66,-44.04,1687,-5652,5811,-1,0,-1
21.22,11.64,-44.06,1675,-5656,5822,-1,0,0
21.22,11.63,-44.08,1673,-5657,5837,-1,0,-1
21.22,11.61,-44.10,1655,-5651,5828,-1,0,-1
21.23,11.60,-44.12,1656,-5650,5821,-1,0,-1
21.22,11.61,-44.15,1665,-5641,5850,-2,-2,0
21.23,11.62,-44.20,1684,-5657,5807,-2,0,0
21.23,11.59,-44.22,1679,-5652,5821,-1,0,-1
21.23,11.59,-44.25,1682,-5654,5819,-2,0,-1
21.23,11.58,-44.28,1688,-5643,5825,-2,0,0
21.22,11.56,-44.32,1673,-5671,5809,-2,0,0
21.21,11.54,-44.35,1645,-5656,5793,-1,0,0
21.20,11.54,-44.38,1645,-5665,5810,-2,-1,0
21.20,11.54,-44.42,1645,-5676,5787,-2,-1,0
21.19,11.54,-44.46,1675,-5715,5771,-1,-1,0
21.19,11.54,-44.48,1662,-5693,5770,-1,0,-1
21.18,11.54,-44.49,1654,-5698,5779,-1,-1,0
21.18,11.54,-44.51,1658,-5706,5774,-1,-1,-1
21.17,11.55,-44.51,1677,-5709,5766,-1,0,-1
21.18,11.55,-44.51,1660,-5702,5765,0,0,-1
21.17,11.55,-44.50,1659,-5701,5758,0,-1,-1
21.18,11.56,-44.49,1671,-5695,5778,0,-1,-1
21.19,11.58,-44.47,1679,-5698,5776,0,0,-1
21.20,11.58,-44.46,1666,-5699,5784,0,-1,-1
21.19,11.59,-44.45,1675,-5704,5775,0,-1,-1
21.20,11.60,-44.42,1672,-5699,5783,0,-1,-1
21.21,11.61,-44.40,1666,-5688,5780,1,-1,-1
21.21,11.62,-44.37,1668,-5671,5798,0,-1,-1
21.20,11.63,-44.36,1673,-5673,5786,0,-1,-1
21.21,11.64,-44.33,1685,-5686,5804,0,-1,-1
21.22,11.65,-44.31,1676,-5681,5813,0,-1,-1
21.21,11.65,-44.29,1668,-5676,5812,0,-1,-1
21.21,11.66,-44.28,1672,-5666,5809,0,-1,-1
21.22,11.67,-44.27,1678,-5666,5808,0,-1,-1
21.22,11.68,-44.25,1675,-5657,5810,0,-1,0
21.22,11.68,-44.24,1675,-5657,5819,0,-1,0
21.22,11.69,-44.23,1682,-5656,5824,0,-1,0
21.22,11.70,-44.23,1682,-5662,5822,0,-1,-1
21.22,11.70,-44.22,1689,-5666,5822,0,-1,0
21.22,11.70,-44.20,1692,-5658,5818,0,-1,0
21.23,11.71,-44.19,1683,-5656,5813,0,-1,-1
21.23,11.72,-44.19,1675,-5659,5813,0,-1,-1
21.22,11.72,-44.19,1677,-5656,5812,0,-1,0
21.23,11.73,-44.17,1685,-5661,5815,0,-1,0
21.22,11.73,-44.16,1687,-5654,5819,0,-1,0
21.22,11.74,-44.15,1692,-5652,5813,0,-1,-1
21.23,11.76,-44.14,1698,-5653,5814,0,-1,-1
21.23,11.76,-44.14,1692,-5641,5816,0,-1,0
21.23,11.77,-44.13,1695,-5634,5822,0,-1,0
21.22,11.77,-44.12,1701,-5642,5820,0,-1,0
21.22,11.78,-44.12,1699,-5659,5815,0,-1,0
21.21,11.77,-44.12,1695,-5665,5813,0,-1,-1
21.22,11.77,-44.11,1681,-5666,5831,0,-1,0
21.21,11.77,-44.10,1677,-5652,5832,0,-1,-1
21.22,11.78,-44.09,1677,-5649,5812,0,-1,-1
21.22,11.80,-44.08,1695,-5649,5816,0,-1,-1
21.22,11.81,-44.07,1706,-5637,5821,0,-1,-1
21.23,11.81,-44.06,1715,-5636,5830,0,-1,0
21.22,11.81,-44.05,1714,-5632,5836,0,-1,0
21.22,11.81,-44.04,1704,-5635,5836,0,0,0
21.22,11.81,-44.03,1695,-5639,5835,0,-1,0
21.21,11.80,-44.03,1689,-5638,5830,0,-1,0
21.21,11.81,-44.03,1697,-5641,5831,0,-1,-1
21.22,11.82,-44.03,1691,-5644,5837,0,-1,-1
21.21,11.82,-44.03,1697,-5645,5829,0,-1,-1
21.22,11.83,-44.02,1709,-5647,5822,0,-1,-1
21.22,11.84,-44.02,1710,-5649,5816,0,-1,0
21.21,11.84,-44.02,1707,-5649,5814,0,-1,0
21.21,11.84,-44.01,1708,-5640,5822,0,-1,0
21.21,11.84,-44.00,1706,-5639,5831,0,-1,0
21.21,11.84,-43.99,1705,-5632,5823,0,-1,0
21.21,11.84,-43.98,1710,-5627,5834,0,-1,0
21.20,11.84,-43.98,1705,-5634,5844,0,-1,0
21.20,11.85,-43.97,1697,-5633,5847,0,-1,0
21.20,11.85,-43.97,1705,-5628,5843,0,-1,-1
21.20,11.85,-43.96,1705,-5628,5834,0,-1,-1
21.20,11.86,-43.96,1707,-5624,5833,0,-1,0
21.20,11.86,-43.95,1704,-5630,5841,0,-1,0
21.20,11.86,-43.94,1711,-5627,5850,0,0,0
21.20,11.86,-43.94,1710,-5622,5845,0,-1,0
21.20,11.87,-43.94,1712,-5634,5830,0,-1,0
21.20,11.87,-43.94,1706,-5637,5830,0,-1,0
21.19,11.86,-43.93,1701,-5631,5832,0,-1,0
21.20,11.87,-43.92,1711,-5621,5837,0,-1,0
21.19,11.87,-43.91,1719,-5628,5844,0,-1,0
21.19,11.87,-43.91,1722,-5629,5838,0,0,0
21.19,11.86,-43.90,1709,-5624,5843,0,-1,0
21.18,11.86,-43.89,1703,-5629,5843,0,-1,0
21.17,11.86,-43.89,1704,-5632,5839,0,-1,0
21.18,11.88,-43.88,1709,-5636,5838,0,-1,-1
21.19,11.88,-43.88,1710,-5637,5850,0,-1,-1
21.18,11.88,-43.86,1715,-5627,5847,0,-1,0
21.18,11.88,-43.85,1707,-5611,5837,0,-1,0
21.17,11.88,-43.84,1705,-5610,5835,0,-1,0
21.17,11.88,-43.84,1712,-5617,5834,0,-1,0
21.17,11.89,-43.83,1719,-5626,5848,0,-1,0
21.17,11.89,-43.81,1716,-5630,5854,0,-1,0
21.17,11.89,-43.80,1714,-5629,5865,0,0,-1
21.18,11.89,-43.78,1718,-5614,5865,0,-1,-1
21.18,11.90,-43.77,1717,-5602,5862,0,-1,-1
21.18,11.91,-43.77,1724,-5599,5858,0,-1,0
21.17,11.91,-43.77,1721,-5614,5856,0,-1,0
21.16,11.90,-43.77,1716,-5619,5835,0,0,0
21.16,11.90,-43.77,1705,-5632,5837,0,-1,0
21.16,11.90,-43.77,1704,-5632,5841,0,-1,0
21.16,11.90,-43.76,1694,-5630,5833,0,-1,-1
21.16,11.90,-43.75,1691,-5620,5834,0,-1,-1
21.16,11.91,-43.74,1699,-5608,5846,0,-1,-1
21.16,11.92,-43.73,1718,-5607,5856,0,-1,0
21.17,11.92,-43.71,1729,-5602,5852,0,0,-1
21.17,11.92,-43.70,1726,-5594,5870,0,-1,0
21.16,11.92,-43.70,1732,-5593,5865,0,0,0
21.15,11.91,-43.70,1715,-5600,5865,0,-1,0
21.15,11.91,-43.70,1710,-5601,5864,0,-1,0
21.14,11.92,-43.70,1709,-5604,5863,0,-1,0
21.15,11.92,-43.70,1710,-5604,5857,0,-1,0
21.15,11.93,-43.70,1711,-5611,5861,0,-1,0
21.14,11.94,-43.70,1719,-5613,5858,0,-1,0
21.14,11.94,-43.70,1722,-5608,5848,0,-1,-1
21.14,11.94,-43.70,1728,-5612,5845,0,0,-1
21.15,11.94,-43.70,1725,-5602,5847,0,0,-1
21.15,11.93,-43.69,1720,-5594,5853,0,0,0
21.15,11.93,-43.69,1719,-5591,5857,-1,0,0
21.15,11.91,-43.69,1714,-5595,5853,-1,0,0
21.15,11.91,-43.70,1715,-5603,5853,-1,0,-1
21.15,11.90,-43.71,1706,-5606,5856,-1,0,-1
21.15,11.90,-43.71,1703,-5608,5847,-1,0,-1
21.15,11.90,-43.72,1711,-5599,5853,-1,0,-1
21.16,11.90,-43.74,1715,-5596,5849,-1,0,-1
21.16,11.90,-43.74,1709,-5599,5842,-1,0,-1
21.16,11.89,-43.76,1718,-5609,5843,-1,0,-1
21.16,11.88,-43.76,1706,-5614,5849,-1,0,0
21.16,11.87,-43.78,1700,-5615,5844,-1,0,-1
21.16,11.86,-43.79,1702,-5608,5848,-1,0,-1
21.17,11.86,-43.78,1712,-5613,5849,-1,0,-1
21.18,11.85,-43.79,1709,-5610,5842,-1,0,-1
21.18,11.84,-43.81,1713,-5607,5834,-1,0,-1
21.18,11.84,-43.82,1719,-5618,5838,-1,0,0
21.18,11.83,-43.83,1718,-5622,5842,-1,0,-1
21.19,11.83,-43.84,1710,-5630,5845,-1,0,-1
21.19,11.82,-43.86,1700,-5631,5846,-1,0,-1
21.19,11.82,-43.87,1709,-5633,5848,-1,0,-1
21.20,11.81,-43.87,1710,-5626,5849,-1,0,0
21.20,11.81,-43.88,1700,-5624,5835,-1,0,0
21.19,11.79,-43.90,1693,-5624,5829,-1,0,0
21.19,11.79,-43.91,1693,-5627,5831,-1,0,-1
21.19,11.78,-43.91,1698,-5629,5835,-1,0,-1
21.20,11.78,-43.91,1702,-5632,5844,-1,0,-1
21.20,11.77,-43.92,1699,-5623,5848,-1,0,-1
21.21,11.76,-43.93,1711,-5621,5849,-1,0,-1
21.21,11.76,-43.94,1712,-5615,5853,-1,0,0
21.21,11.75,-43.95,1689,-5612,5846,-1,0,0
21.20,11.73,-43.97,1682,-5622,5845,-1,0,0
21.21,11.72,-43.99,1692,-5647,5841,-1,0,-1
21.21,11.71,-44.00,1675,-5657,5832,-1,0,0
21.20,11.70,-44.02,1665,-5654,5828,-1,0,-1
21.21,11.69,-44.03,1665,-5640,5820,-1,0,-1
21.22,11.69,-44.04,1675,-5638,5812,-1,0,-1
21.22,11.69,-44.04,1687,-5631,5820,-1,0,-1
21.23,11.69,-44.05,1704,-5640,5822,-1,0,-1
21.23,11.67,-44.06,1698,-5638,5834,-1,0,0
21.22,11.67,-44.07,1692,-5641,5830,-1,0,0
21.23,11.65,-44.08,1689,-5647,5837,-1,0,-1
21.23,11.64,-44.09,1679,-5650,5841,-1,0,-1
21.23,11.63,-44.11,1669,-5655,5827,-1,0,-1
21.23,11.63,-44.12,1666,-5654,5832,-1,0,-1
21.23,11.62,-44.13,1662,-5653,5825,-1,0,-1
21.23,11.62,-44.14,1667,-5661,5819,-1,0,-1
21.23,11.61,-44.15,1669,-5661,5816,-1,0,-1
21.24,11.61,-44.16,1670,-5666,5827,-1,0,-1
21.24,11.60,-44.16,1668,-5665,5826,-1,0,-1
21.24,11.60,-44.16,1668,-5659,5820,-1,0,-1
21.24,11.60,-44.17,1667,-5650,5821,-1,0,-1
21.24,11.59,-44.17,1662,-5647,5824,-1,0,0
21.24,11.59,-44.17,1668,-5655,5821,-1,0,-1
21.24,11.58,-44.18,1659,-5660,5832,-1,0,0
21.23,11.58,-44.18,1658,-5661,5830,-1,0,0
21.23,11.59,-44.20,1655,-5666,5825,-1,-1,-1
21.23,11.60,-44.21,1668,-5672,5819,-1,0,-1
21.24,11.60,-44.21,1668,-5666,5808,-1,-1,-1
21.24,11.60,-44.21,1668,-5669,5806,0,-1,-1
21.24,11.61,-44.21,1667,-5673,5812,0,-1,0
21.24,11.61,-44.21,1676,-5669,5805,0,-1,0
21.24,11.61,-44.21,1667,-5665,5810,0,-1,-1
21.24,11.61,-44.21,1665,-5665,5807,0,-1,-1
21.24,11.62,-44.20,1671,-5669,5809,0,-1,-1
21.24,11.63,-44.20,1672,-5668,5814,0,-1,-1
21.24,11.63,-44.19,1674,-5672,5820,0,-1,-1
21.24,11.64,-44.19,1682,-5662,5821,0,-1,-1
21.24,11.64,-44.18,1676,-5659,5821,0,-1,0
21.24,11.65,-44.18,1674,-5664,5811,0,-1,0
21.24,11.65,-44.18,1665,-5664,5819,0,-1,0
21.24,11.66,-44.17,1676,-5662,5827,0,-1,0
21.24,11.66,-44.17,1676,-5660,5824,0,-1,0
21.24,11.67,-44.16,1678,-5656,5815,0,-1,-1
21.25,11.68,-44.15,1681,-5646,5804,0,-1,-1
21.25,11.69,-44.15,1689,-5647,5816,0,-1,0
21.25,11.69,-44.14,1689,-5649,5826,0,-1,-1
21.25,11.69,-44.14,1685,-5665,5819,0,-1,0
21.25,11.70,-44.13,1682,-5669,5816,0,-1,-1
21.25,11.71,-44.13,1677,-5668,5816,0,-1,-1
21.25,11.71,-44.12,1672,-5662,5825,0,-1,-1
21.25,11.72,-44.11,1681,-5656,5823,0,-1,-1
21.26,11.73,-44.10,1687,-5650,5816,0,-1,0
21.25,11.73,-44.08,1686,-5639,5824,0,-1,0
21.25,11.74,-44.08,1693,-5636,5826,0,-1,0
21.25,11.74,-44.07,1684,-5642,5831,0,-1,0
21.24,11.74,-44.06,1694,-5642,5832,0,-1,0
21.25,11.75,-44.05,1693,-5634,5837,0,-1,0
21.24,11.74,-44.04,1683,-5635,5837,0,-1,0
21.25,11.75,-44.04,1687,-5638,5833,0,-1,0
21.25,11.76,-44.04,1695,-5645,5832,0,-1,0
21.24,11.76,-44.04,1697,-5654,5839,0,-1,0
21.24,11.77,-44.03,1692,-5651,5838,0,-1,0
21.24,11.77,-44.03,1689,-5653,5836,0,-1,0
21.24,11.78,-44.03,1691,-5649,5835,0,-1,0
21.24,11.78,-44.02,1690,-5642,5831,0,-1,-1
21.24,11.78,-44.01,1689,-5636,5816,0,-1,0
21.25,11.79,-43.99,1708,-5633,5830,0,-1,0
21.24,11.79,-43.99,1708,-5627,5836,0,-1,0
21.24,11.80,-43.98,1712,-5631,5836,0,-1,0
21.23,11.79,-43.97,1700,-5628,5836,0,-1,0
21.23,11.79,-43.97,1697,-5635,5839,0,-1,-1
21.24,11.80,-43.96,1696,-5625,5835,0,-1,-1
21.24,11.81,-43.96,1702,-5626,5829,0,-1,-1
21.24,11.81,-43.96,1697,-5624,5823,0,-1,0
21.23,11.82,-43.95,1703,-5631,5828,0,-1,0
21.24,11.83,-43.95,1718,-5630,5827,0,-1,0
21.24,11.83,-43.95,1714,-5637,5828,0,-1,0
21.23,11.83,-43.94,1711,-5639,5830,0,-1,0
21.24,11.83,-43.93,1704,-5636,5831,0,-1,0
21.23,11.83,-43.92,1701,-5630,5840,0,-1,0
21.23,11.83,-43.92,1700,-5623,5844,0,-1,0
21.23,11.83,-43.92,1703,-5629,5837,0,-1,0
21.23,11.83,-43.91,1701,-5625,5835,0,-1,0
21.23,11.84,-43.90,1705,-5621,5839,0,-1,0
21.23,11.84,-43.89,1706,-5616,5841,0,-1,0
21.22,11.85,-43.89,1708,-5615,5846,0,-1,0
21.23,11.85,-43.88,1706,-5610,5843,0,-1,0
21.22,11.86,-43.88,1709,-5617,5838,0,-1,0
21.22,11.86,-43.89,1707,-5641,5842,0,-1,0
21.22,11.85,-43.89,1707,-5638,5836,0,0,0
21.21,11.85,-43.88,1700,-5626,5837,0,-1,0
21.21,11.86,-43.88,1695,-5631,5832,0,-1,-1
21.21,11.86,-43.88,1697,-5629,5836,0,-1,0
21.22,11.87,-43.87,1707,-5631,5841,0,-1,-1
21.22,11.87,-43.85,1712,-5621,5860,0,0,0
21.21,11.87,-43.85,1711,-5620,5849,0,-1,0
21.21,11.87,-43.84,1704,-5622,5845,0,-1,0
21.21,11.87,-43.84,1703,-5626,5843,0,-1,0
21.21,11.86,-43.84,1707,-5622,5841,0,0,0
21.21,11.86,-43.84,1703,-5615,5854,0,0,0
21.21,11.86,-43.85,1706,-5620,5855,-1,0,0
21.20,11.85,-43.85,1708,-5616,5857,-1,0,0
21.19,11.85,-43.86,1707,-5620,5832,-1,-1,0
21.19,11.85,-43.88,1714,-5625,5842,-1,0,0
21.18,11.84,-43.89,1715,-5629,5836,-1,0,0
21.18,11.84,-43.91,1708,-5622,5841,-1,0,0
21.17,11.84,-43.93,1713,-5633,5841,-1,-1,0
21.17,11.83,-43.95,1719,-5614,5834,-1,0,0
21.16,11.82,-43.97,1701,-5630,5847,-2,-1,0
21.14,11.82,-44.01,1680,-5633,5812,-2,-1,0
21.13,11.82,-44.04,1732,-5633,5858,-2,0,0
21.12,11.81,-44.07,1698,-5645,5846,-1,-1,0
21.11,11.80,-44.10,1692,-5651,5864,-2,-1,0
21.09,11.80,-44.15,1705,-5658,5806,-1,0,0
21.09,11.80,-44.17,1705,-5657,5825,-2,0,0
21.08,11.78,-44.20,1675,-5647,5793,-1,-1,0
21.08,11.79,-44.22,1695,-5653,5816,-1,-1,0
21.06,11.79,-44.25,1691,-5648,5799,-2,-1,0
21.05,11.80,-44.27,1697,-5676,5792,0,-1,0
21.05,11.81,-44.28,1704,-5683,5778,-1,-1,0
21.05,11.82,-44.27,1703,-5675,5804,0,-1,-1
21.05,11.82,-44.27,1686,-5671,5772,0,-1,0
21.06,11.84,-44.25,1719,-5686,5790,1,-1,-1
21.07,11.85,-44.23,1700,-5683,5765,0,-1,-1
21.06,11.85,-44.20,1707,-5672,5791,1,-1,0
21.06,11.87,-44.17,1709,-5672,5801,1,-2,0
21.06,11.88,-44.14,1731,-5666,5805,1,-1,0
21.05,11.89,-44.09,1720,-5660,5814,1,-1,0
21.06,11.88,-44.04,1716,-5651,5808,2,0,-1
21.07,11.88,-43.99,1708,-5632,5827,1,-1,-1
21.07,11.88,-43.95,1709,-5618,5831,1,-1,0
21.07,11.89,-43.92,1703,-5615,5844,0,-1,0
21.07,11.88,-43.89,1708,-5610,5860,0,0,0
21.08,11.88,-43.88,1714,-5608,5870,0,0,-1
21.09,11.88,-43.87,1701,-5610,5851,0,0,-1
21.08,11.88,-43.87,1685,-5625,5840,0,0,-1
21.10,11.87,-43.87,1683,-5623,5842,0,0,-1
21.10,11.88,-43.86,1689,-5624,5850,0,-1,-1
21.11,11.89,-43.86,1711,-5632,5846,0,-1,-1
21.12,11.89,-43.85,1718,-5627,5837,0,0,-1
21.13,11.90,-43.85,1714,-5620,5833,0,0,-1
21.13,11.90,-43.84,1722,-5623,5845,0,0,-1
21.14,11.89,-43.84,1709,-5627,5829,0,0,-1
21.14,11.88,-43.83,1720,-5621,5844,0,0,-1
21.14,11.88,-43.82,1712,-5606,5864,-1,0,0
21.15,11.87,-43.82,1703,-5615,5861,-1,0,-1
21.15,11.86,-43.82,1700,-5619,5858,-1,0,-1
21.15,11.86,-43.83,1707,-5618,5848,-1,0,-1
21.16,11.86,-43.83,1713,-5614,5858,-1,0,-1
21.17,11.86,-43.84,1712,-5616,5844,-1,0,-1
21.16,11.85,-43.86,1703,-5613,5835,-1,0,-1
21.17,11.85,-43.86,1703,-5618,5836,-1,0,-1
21.17,11.85,-43.86,1711,-5620,5833,-1,0,-1
21.17,11.84,-43.87,1707,-5623,5825,-1,0,-1
21.18,11.84,-43.88,1708,-5617,5835,-1,0,-1
21.18,11.83,-43.89,1708,-5625,5834,-1,0,-1
21.18,11.82,-43.90,1703,-5633,5835,-1,0,-1
21.17,11.81,-43.92,1693,-5636,5824,-1,0,-1
21.18,11.81,-43.93,1695,-5634,5833,-1,0,-1
21.18,11.81,-43.93,1690,-5629,5829,-1,0,-1
21.18,11.80,-43.94,1692,-5636,5830,-1,0,-1
21.19,11.80,-43.94,1700,-5637,5832,-1,0,-1
21.19,11.79,-43.96,1696,-5636,5824,-1,0,-1
21.19,11.79,-43.96,1695,-5626,5832,-1,0,0
21.19,11.78,-43.97,1693,-5624,5832,-1,0,0
21.18,11.77,-43.98,1692,-5632,5837,-1,0,-1
21.19,11.76,-43.98,1691,-5641,5825,-1,0,0
21.19,11.76,-43.99,1686,-5643,5823,-1,0,-1
21.19,11.75,-44.00,1689,-5635,5833,-1,0,-1
21.20,11.76,-44.01,1696,-5637,5820,-1,0,-1
21.20,11.75,-44.02,1700,-5631,5828,-1,0,-1
21.20,11.74,-44.02,1695,-5632,5833,-1,0,0
21.20,11.74,-44.02,1694,-5635,5830,-1,0,-1
21.20,11.73,-44.04,1690,-5640,5826,-1,0,-1
21.20,11.72,-44.05,1686,-5642,5828,-1,0,-1
21.20,11.72,-44.06,1689,-5647,5828,-1,0,-1
21.21,11.71,-44.06,1686,-5649,5827,-1,0,-1
21.21,11.70,-44.07,1683,-5643,5826,-1,0,-1
21.20,11.69,-44.08,1682,-5643,5821,-1,0,-1
21.21,11.69,-44.08,1680,-5645,5822,-1,0,-1
21.21,11.68,-44.09,1681,-5645,5831,-1,0,-1
21.21,11.67,-44.10,1687,-5645,5845,-1,0,-1
21.22,11.67,-44.11,1689,-5651,5834,-1,0,-1
21.22,11.67,-44.11,1693,-5643,5834,-1,0,-1
21.22,11.67,-44.12,1695,-5640,5829,-1,0,-1
21.22,11.66,-44.14,1692,-5640,5822,-1,0,0
21.22,11.65,-44.15,1687,-5647,5821,-1,0,0
21.21,11.64,-44.16,1677,-5657,5807,-1,0,-1
21.22,11.64,-44.17,1667,-5665,5818,-1,0,-1
21.21,11.62,-44.18,1649,-5665,5804,-1,0,-1
21.21,11.62,-44.19,1646,-5665,5799,-1,0,-1
21.22,11.62,-44.19,1658,-5658,5807,-1,-1,-1
21.22,11.62,-44.19,1675,-5657,5807,0,0,-1
21.23,11.63,-44.19,1677,-5653,5808,-1,0,0
21.22,11.62,-44.19,1685,-5650,5807,-1,-1,0
21.22,11.62,-44.19,1679,-5655,5812,0,0,0
21.22,11.62,-44.19,1677,-5658,5809,0,0,0
21.22,11.62,-44.19,1667,-5657,5812,0,-1,0
21.22,11.62,-44.19,1661,-5656,5816,0,-1,0
21.21,11.62,-44.19,1664,-5655,5814,0,-1,-1
21.22,11.63,-44.19,1668,-5659,5808,0,-1,0
21.22,11.63,-44.19,1667,-5660,5807,0,-1,0
21.21,11.64,-44.19,1673,-5663,5808,0,-1,-1
21.22,11.64,-44.19,1677,-5660,5809,0,-1,-1
21.22,11.65,-44.18,1667,-5660,5809,0,-1,-1
21.22,11.66,-44.18,1666,-5662,5811,0,-1,-1
21.22,11.66,-44.16,1669,-5659,5817,0,-1,0
21.22,11.66,-44.15,1674,-5652,5826,0,-1,0
21.22,11.67,-44.15,1666,-5653,5814,0,-1,-1
21.21,11.67,-44.15,1673,-5661,5821,0,-1,0
21.21,11.67,-44.15,1671,-5662,5823,0,-1,-1
21.22,11.68,-44.14,1672,-5662,5817,0,-1,-1
21.22,11.69,-44.14,1682,-5663,5815,0,-1,-1
21.23,11.70,-44.13,1685,-5662,5810,0,-1,-1
21.23,11.70,-44.13,1688,-5657,5812,0,-1,-1
21.23,11.71,-44.12,1695,-5658,5817,0,-1,-1
21.23,11.72,-44.12,1690,-5658,5821,0,-1,0
21.23,11.72,-44.11,1688,-5660,5825,0,-1,0
21.22,11.72,-44.10,1685,-5651,5826,0,-1,0
21.22,11.72,-44.09,1681,-5649,5813,0,-1,0
21.23,11.72,-44.09,1682,-5650,5814,0,-1,-1
21.22,11.73,-44.08,1694,-5647,5820,0,-1,0
21.22,11.73,-44.07,1690,-5647,5818,0,-1,0
21.22,11.73,-44.06,1691,-5642,5820,0,-1,0
21.22,11.74,-44.06,1695,-5641,5827,0,-1,0
21.22,11.75,-44.05,1697,-5644,5824,0,-1,0
21.23,11.76,-44.05,1698,-5645,5819,0,-1,0
21.22,11.76,-44.04,1690,-5645,5825,0,-1,0
21.23,11.76,-44.04,1689,-5634,5833,0,-1,0
21.22,11.76,-44.03,1685,-5633,5833,0,-1,0
21.21,11.76,-44.03,1688,-5635,5832,0,-1,0
21.22,11.77,-44.02,1696,-5645,5845,0,-1,0
21.22,11.78,-44.01,1703,-5644,5852,0,-1,0
21.21,11.78,-44.00,1691,-5637,5848,0,-1,-1
21.22,11.78,-43.99,1699,-5626,5832,0,-1,-1
21.22,11.80,-43.99,1705,-5622,5831,0,-1,0
21.22,11.80,-43.98,1710,-5624,5817,0,-1,0
21.22,11.80,-43.97,1699,-5625,5826,0,-1,0
21.22,11.80,-43.97,1701,-5637,5829,0,-1,0
21.21,11.80,-43.97,1700,-5648,5832,0,-1,0
21.21,11.80,-43.97,1688,-5650,5822,0,-1,0
21.20,11.80,-43.97,1689,-5652,5820,0,-1,0
21.20,11.81,-43.97,1692,-5644,5822,0,-1,-1
21.20,11.82,-43.96,1702,-5633,5825,0,-1,-1
21.21,11.82,-43.95,1717,-5625,5826,0,-1,0
21.21,11.83,-43.94,1717,-5618,5825,0,-1,0
21.21,11.83,-43.93,1711,-5618,5818,0,-1,0
21.20,11.83,-43.93,1708,-5614,5825,0,-1,0
21.20,11.83,-43.93,1699,-5619,5831,0,-1,0
21.20,11.84,-43.93,1697,-5627,5827,0,-1,0
21.19,11.83,-43.92,1703,-5638,5828,0,-1,-1
21.20,11.84,-43.92,1698,-5628,5833,0,-1,-1
21.20,11.85,-43.92,1701,-5622,5846,0,-1,0
21.19,11.85,-43.92,1706,-5624,5841,0,-1,0
21.20,11.86,-43.92,1704,-5640,5834,-1,-1,-1
21.19,11.85,-43.92,1715,-5643,5839,0,0,0
21.19,11.86,-43.91,1706,-5627,5844,0,-1,0
21.19,11.86,-43.91,1702,-5626,5838,0,0,-1
21.20,11.86,-43.90,1702,-5623,5835,0,-1,0
21.19,11.86,-43.90,1712,-5622,5836,0,-1,0
21.19,11.87,-43.89,1710,-5619,5849,0,-1,0
21.19,11.87,-43.89,1713,-5610,5854,0,-1,0
21.19,11.87,-43.89,1706,-5623,5846,0,-1,0
21.19,11.86,-43.89,1704,-5634,5844,0,-1,0
21.18,11.87,-43.89,1700,-5631,5836,0,-1,0
21.18,11.87,-43.89,1702,-5629,5841,0,-1,-1
21.18,11.87,-43.88,1703,-5623,5839,0,-1,0
21.19,11.88,-43.88,1712,-5623,5843,0,-1,0
21.18,11.88,-43.88,1717,-5628,5840,0,-1,0
21.19,11.88,-43.88,1717,-5617,5832,0,-1,0
21.19,11.89,-43.87,1713,-5616,5841,0,-1,0
21.18,11.88,-43.87,1714,-5617,5842,0,-1,0
21.18,11.89,-43.87,1706,-5625,5844,0,-1,0
21.17,11.89,-43.86,1699,-5624,5848,0,-1,0
21.17,11.89,-43.85,1705,-5617,5859,0,-1,0
21.17,11.89,-43.85,1711,-5618,5852,0,-1,0
21.17,11.90,-43.84,1718,-5616,5860,0,-1,0
21.17,11.90,-43.84,1706,-5619,5850,0,-1,0
21.17,11.91,-43.84,1721,-5612,5841,0,-1,0
21.17,11.91,-43.84,1714,-5606,5847,0,-1,0
21.17,11.91,-43.84,1707,-5607,5834,0,-1,0
21.16,11.91,-43.83,1716,-5620,5843,0,-1,0
21.16,11.91,-43.83,1710,-5614,5842,0,-1,0
21.16,11.91,-43.83,1700,-5621,5830,0,-1,0
21.16,11.92,-43.82,1708,-5617,5838,0,-1,-1
21.16,11.93,-43.81,1722,-5615,5860,0,-1,-1
21.16,11.94,-43.80,1723,-5598,5857,0,-1,0
21.16,11.95,-43.79,1724,-5594,5866,0,-1,0
21.16,11.96,-43.79,1734,-5594,5861,0,-1,0
21.15,11.95,-43.79,1728,-5597,5864,0,-1,0
21.15,11.95,-43.79,1722,-5613,5855,0,-1,0
21.15,11.95,-43.78,1717,-5617,5852,0,-1,0
21.15,11.95,-43.78,1708,-5625,5839,0,-1,0
21.14,11.96,-43.78,1705,-5626,5840,0,-1,-1
21.14,11.96,-43.77,1707,-5617,5846,0,-1,-1
21.14,11.97,-43.75,1721,-5605,5863,0,-1,0
21.15,11.98,-43.75,1726,-5591,5857,0,-1,0
21.14,11.98,-43.74,1722,-5584,5870,0,-1,0
21.15,11.98,-43.74,1733,-5582,5880,-1,0,0
21.14,11.97,-43.74,1734,-5589,5877,-1,0,0
21.15,11.96,-43.75,1729,-5592,5863,-1,0,0
21.14,11.95,-43.76,1715,-5599,5868,-1,0,0
21.14,11.94,-43.77,1711,-5601,5863,-1,0,-1
21.15,11.94,-43.77,1715,-5592,5862,-1,0,-1
21.15,11.94,-43.79,1721,-5601,5852,-1,0,-1
21.15,11.93,-43.80,1724,-5606,5848,-1,0,-1
21.16,11.94,-43.81,1735,-5610,5856,-1,0,-1
21.15,11.92,-43.82,1712,-5612,5845,-1,0,-1
21.16,11.91,-43.83,1715,-5611,5850,-1,0,-1
21.16,11.91,-43.83,1724,-5610,5833,-1,0,-1
21.16,11.90,-43.84,1716,-5607,5839,-1,0,-1
21.16,11.89,-43.84,1710,-5600,5844,-1,0,-1
21.17,11.88,-43.84,1721,-5603,5853,-1,0,-1
21.17,11.88,-43.86,1716,-5609,5845,-1,0,-1
21.17,11.87,-43.87,1708,-5615,5838,-1,0,0
21.17,11.86,-43.89,1700,-5615,5852,-1,0,-1
21.17,11.85,-43.90,1697,-5618,5855,-1,0,-1
21.18,11.86,-43.91,1704,-5629,5847,-1,0,-1
21.18,11.85,-43.92,1701,-5628,5844,-1,0,-1
21.18,11.84,-43.93,1699,-5633,5839,-1,0,-1
21.18,11.84,-43.95,1704,-5629,5836,-1,0,-1
21.18,11.83,-43.96,1704,-5625,5833,-1,0,-1
21.19,11.82,-43.96,1699,-5624,5844,-1,0,-1
21.19,11.81,-43.97,1698,-5631,5855,-1,0,-1
21.19,11.80,-43.99,1699,-5628,5845,-1,0,-1
21.19,11.79,-44.00,1696,-5616,5849,-1,0,0
21.20,11.77,-44.02,1685,-5615,5844,-1,0,-1
21.20,11.76,-44.04,1693,-5627,5835,-2,0,-1
21.20,11.74,-44.06,1677,-5625,5840,-1,0,0
21.20,11.72,-44.09,1682,-5632,5851,-2,0,-1
21.20,11.71,-44.13,1681,-5648,5833,-2,0,-1
21.21,11.69,-44.15,1685,-5639,5852,-2,0,-1
21.21,11.68,-44.20,1681,-5634,5830,-2,0,-1
21.21,11.68,-44.24,1691,-5641,5815,-2,0,-1
21.21,11.69,-44.30,1694,-5657,5824,-3,-1,-1
21.20,11.67,-44.35,1682,-5687,5793,-2,0,0
21.20,11.67,-44.39,1688,-5692,5765,-1,0,0
21.19,11.65,-44.42,1693,-5701,5799,-2,0,0
21.18,11.63,-44.44,1674,-5699,5767,-1,0,0
21.17,11.61,-44.46,1679,-5707,5781,-1,0,0
21.18,11.58,-44.47,1661,-5678,5783,-1,1,-1
21.17,11.58,-44.49,1664,-5696,5765,-1,-1,0
21.16,11.56,-44.50,1660,-5696,5793,-1,0,-1
21.17,11.56,-44.51,1673,-5664,5792,-1,1,-1
21.17,11.53,-44.51,1655,-5673,5794,-1,-1,0
21.16,11.54,-44.52,1667,-5675,5789,-1,-1,0
21.18,11.55,-44.54,1666,-5646,5769,-1,1,-1
21.17,11.53,-44.55,1654,-5659,5809,-1,-1,0
21.16,11.55,-44.59,1661,-5715,5764,-1,-1,-1
21.17,11.54,-44.60,1644,-5720,5768,-1,0,-1
21.17,11.54,-44.61,1641,-5706,5782,-1,0,-1
21.18,11.54,-44.61,1656,-5705,5794,-1,-1,-1
21.18,11.56,-44.63,1667,-5714,5774,-1,0,-1
21.19,11.56,-44.64,1665,-5717,5765,0,-1,-1
21.19,11.57,-44.63,1679,-5707,5768,0,-1,-1
21.19,11.57,-44.62,1675,-5702,5762,0,-1,-1
21.19,11.57,-44.62,1673,-5710,5767,0,-1,-1
21.20,11.57,-44.60,1676,-5703,5782,0,0,-1
21.20,11.57,-44.58,1670,-5696,5796,0,0,0
21.20,11.56,-44.57,1647,-5689,5793,0,0,-1
21.20,11.57,-44.56,1661,-5680,5795,0,-1,0
21.19,11.57,-44.57,1655,-5687,5793,-1,-1,0
21.19,11.58,-44.58,1670,-5690,5777,-1,-1,0
21.20,11.59,-44.58,1668,-5699,5781,0,-1,-1
21.20,11.60,-44.58,1663,-5707,5789,0,-1,-1
21.20,11.61,-44.58,1667,-5707,5782,0,-1,-1
21.21,11.63,-44.57,1683,-5701,5770,0,-1,-1
21.21,11.63,-44.56,1677,-5709,5752,0,-1,-1
21.21,11.65,-44.55,1688,-5708,5764,0,-1,0
21.21,11.65,-44.52,1682,-5699,5775,0,-1,0
21.21,11.66,-44.49,1685,-5696,5783,1,-1,0
21.21,11.67,-44.47,1691,-5693,5792,0,-1,-1
21.22,11.67,-44.44,1684,-5691,5799,0,-1,0
21.22,11.68,-44.41,1681,-5685,5795,0,-1,-1
21.22,11.68,-44.40,1670,-5681,5806,0,-1,-1
21.22,11.68,-44.38,1666,-5671,5808,0,-1,-1
21.23,11.69,-44.36,1674,-5671,5812,0,-1,-1
21.23,11.71,-44.35,1678,-5668,5814,0,-1,0
21.22,11.72,-44.34,1686,-5671,5818,0,-1,0
21.22,11.72,-44.33,1686,-5666,5821,0,-1,0
21.23,11.73,-44.32,1684,-5662,5813,0,-1,-1
21.23,11.74,-44.32,1688,-5663,5803,0,-1,0
21.23,11.75,-44.31,1692,-5654,5813,0,-1,0
21.23,11.76,-44.30,1693,-5660,5816,0,-1,0
21.23,11.77,-44.29,1692,-5665,5818,0,-1,0
21.23,11.78,-44.29,1704,-5670,5808,0,-1,0
21.23,11.78,-44.28,1702,-5667,5807,0,-1,0
21.22,11.78,-44.27,1699,-5662,5820,0,-1,0
21.23,11.79,-44.27,1708,-5668,5824,0,-1,0
21.22,11.79,-44.26,1700,-5662,5815,0,-1,0
21.22,11.79,-44.25,1688,-5664,5813,0,-1,-1
21.23,11.79,-44.24,1686,-5656,5814,0,-1,-1
21.23,11.80,-44.23,1689,-5652,5819,0,-1,-1
21.23,11.82,-44.22,1698,-5657,5819,0,-1,-1
21.23,11.82,-44.21,1702,-5650,5823,0,-1,0
21.23,11.82,-44.21,1701,-5643,5819,0,-1,0
21.23,11.82,-44.20,1696,-5647,5814,0,-1,0
21.22,11.82,-44.20,1692,-5649,5811,0,-1,0
21.22,11.82,-44.19,1687,-5652,5813,0,-1,0
21.22,11.83,-44.18,1696,-5656,5821,0,-1,-1
21.22,11.83,-44.19,1696,-5647,5825,0,-1,0
21.23,11.84,-44.18,1707,-5646,5821,0,-1,-1
21.22,11.84,-44.17,1711,-5643,5814,0,-1,0
21.22,11.85,-44.17,1709,-5645,5812,0,-1,0
21.22,11.85,-44.17,1704,-5649,5821,0,-1,0
21.22,11.85,-44.16,1703,-5653,5822,0,-1,0
21.21,11.84,-44.16,1694,-5660,5821,0,-1,0
21.21,11.84,-44.16,1687,-5668,5818,0,-1,0
21.21,11.85,-44.15,1695,-5656,5828,0,-1,0
21.21,11.86,-44.14,1700,-5653,5818,0,-1,-1
21.21,11.86,-44.13,1703,-5640,5815,0,-1,0
21.22,11.87,-44.12,1717,-5624,5824,0,-1,0
21.21,11.87,-44.11,1718,-5618,5830,0,-1,0
21.21,11.88,-44.11,1729,-5639,5826,0,-1,0
21.21,11.88,-44.11,1717,-5645,5834,0,0,0
21.21,11.88,-44.11,1700,-5643,5827,0,-1,-1
21.21,11.88,-44.10,1700,-5635,5818,0,-1,-1
21.21,11.89,-44.09,1713,-5639,5819,0,-1,-1
21.21,11.89,-44.09,1715,-5635,5821,0,-1,-1
21.21,11.90,-44.09,1713,-5631,5820,-1,-1,0
21.22,11.90,-44.09,1722,-5639,5822,0,-1,0
21.22,11.90,-44.08,1720,-5641,5818,0,0,0
21.21,11.90,-44.08,1711,-5640,5817,0,-1,0
21.21,11.91,-44.07,1706,-5638,5816,0,-1,0
21.21,11.90,-44.06,1700,-5630,5814,0,-1,-1
21.22,11.91,-44.06,1709,-5632,5819,0,-1,-1
21.22,11.91,-44.05,1721,-5630,5827,0,0,-1
21.22,11.91,-44.03,1726,-5626,5842,0,0,0
21.22,11.91,-44.03,1719,-5624,5834,-1,-1,0
21.22,11.91,-44.03,1717,-5628,5845,0,-1,0
21.22,11.92,-44.03,1716,-5633,5833,0,-1,0
21.22,11.92,-44.02,1714,-5635,5839,0,-1,-1
21.21,11.92,-44.02,1721,-5638,5833,0,-1,0
21.22,11.93,-44.02,1724,-5646,5824,0,-1,0
21.21,11.94,-44.02,1724,-5641,5833,0,-1,0
21.21,11.93,-44.01,1719,-5641,5829,0,-1,0
21.21,11.94,-44.00,1722,-5627,5833,0,-1,0
21.21,11.94,-43.99,1729,-5627,5834,0,-1,0
21.20,11.94,-43.98,1719,-5619,5830,0,-1,0
21.21,11.95,-43.98,1732,-5637,5833,0,-1,0
21.21,11.94,-43.96,1720,-5631,5836,0,0,0
21.21,11.94,-43.94,1704,-5625,5842,0,-1,-1
21.20,11.94,-43.94,1711,-5620,5827,0,-1,-1
21.21,11.96,-43.94,1725,-5623,5831,0,-1,-1
21.21,11.97,-43.93,1731,-5629,5832,0,-1,0
21.21,11.96,-43.91,1725,-5616,5842,0,-1,0
21.20,11.97,-43.91,1723,-5612,5839,0,-1,0
21.20,11.96,-43.91,1710,-5607,5834,0,-1,0
21.19,11.96,-43.90,1709,-5610,5842,0,-1,0
21.19,11.96,-43.89,1708,-5621,5843,0,-1,0
21.19,11.97,-43.88,1715,-5629,5830,0,0,-1
21.19,11.97,-43.85,1714,-5613,5844,0,-1,0
21.19,11.98,-43.84,1731,-5605,5834,0,-1,0
21.19,11.99,-43.83,1737,-5600,5835,0,-1,0
21.19,11.99,-43.83,1727,-5604,5834,0,-1,0
21.19,11.99,-43.83,1729,-5610,5840,0,-1,0
21.18,11.99,-43.82,1724,-5617,5847,0,-1,0
21.17,11.99,-43.82,1717,-5623,5847,0,-1,0
21.16,11.98,-43.81,1698,-5627,5851,0,-1,-1
21.17,11.99,-43.81,1710,-5621,5861,0,-1,-1
21.17,11.99,-43.81,1719,-5609,5859,-1,-1,-1
21.17,11.99,-43.81,1727,-5606,5858,-1,0,-1
21.18,11.99,-43.81,1731,-5601,5858,-1,0,-1
21.18,11.98,-43.82,1733,-5598,5841,-1,0,0
21.17,11.97,-43.83,1726,-5593,5849,-1,0,0
21.18,11.96,-43.83,1713,-5598,5858,-1,0,0
21.18,11.95,-43.84,1726,-5616,5860,-1,0,-1
21.18,11.95,-43.85,1719,-5623,5861,-1,0,-1
21.19,11.95,-43.86,1718,-5617,5855,-1,0,-1
21.19,11.94,-43.87,1713,-5606,5850,-1,0,-1
21.20,11.94,-43.89,1716,-5611,5847,-1,0,-1
21.21,11.93,-43.90,1719,-5611,5848,-1,0,-1
21.21,11.92,-43.92,1722,-5617,5837,-1,0,-1
21.21,11.91,-43.93,1711,-5620,5852,-1,1,0
21.21,11.89,-43.95,1705,-5613,5833,-1,0,-1
21.22,11.88,-43.97,1714,-5624,5846,-1,1,-1
21.22,11.86,-44.00,1709,-5631,5841,-1,0,-1
21.23,11.85,-44.01,1704,-5619,5836,-1,1,-1
21.24,11.84,-44.04,1697,-5619,5824,-2,0,-1
21.23,11.84,-44.07,1707,-5630,5821,-1,0,0
21.24,11.84,-44.08,1706,-5634,5846,-1,0,-1
21.24,11.82,-44.12,1699,-5652,5823,-2,0,-1
21.24,11.82,-44.14,1717,-5650,5805,-1,0,-1
21.24,11.81,-44.15,1712,-5658,5822,-1,0,0
21.24,11.80,-44.15,1708,-5665,5824,-1,0,-1
21.25,11.78,-44.16,1689,-5657,5824,-1,0,-1
21.25,11.77,-44.16,1691,-5659,5827,-1,0,-1
21.25,11.76,-44.17,1694,-5655,5839,-1,0,-1
21.25,11.75,-44.17,1690,-5641,5834,-1,0,-1
21.25,11.74,-44.18,1688,-5649,5826,-1,0,-1
21.26,11.73,-44.18,1680,-5643,5826,-1,0,-1
21.26,11.72,-44.19,1679,-5643,5833,-1,0,-1
21.26,11.71,-44.20,1677,-5634,5819,-1,0,-1
21.26,11.71,-44.22,1677,-5644,5810,-1,0,-1
21.27,11.71,-44.23,1682,-5648,5817,-1,0,-1
21.26,11.71,-44.24,1684,-5658,5816,-1,0,-1
21.26,11.70,-44.26,1681,-5660,5809,-1,0,-1
21.27,11.69,-44.26,1679,-5663,5819,-1,0,-1
21.27,11.69,-44.27,1684,-5666,5813,-1,0,-1
21.27,11.68,-44.28,1687,-5663,5806,-1,0,-1
21.28,11.68,-44.28,1689,-5663,5804,-1,0,-1
21.28,11.67,-44.29,1690,-5670,5816,-1,0,0
21.28,11.66,-44.30,1687,-5670,5800,-1,0,0
21.28,11.65,-44.31,1679,-5673,5802,-1,0,0
21.27,11.64,-44.31,1665,-5676,5810,-1,0,-1
21.27,11.63,-44.31,1660,-5674,5803,-1,0,-1
21.28,11.62,-44.32,1662,-5668,5822,-1,0,-1
21.29,11.62,-44.33,1664,-5664,5805,-1,0,-1
21.28,11.62,-44.35,1672,-5660,5797,-1,0,0
21.28,11.61,-44.36,1675,-5651,5799,-1,0,0
21.29,11.61,-44.36,1676,-5656,5819,-1,0,0
21.27,11.61,-44.38,1655,-5654,5828,-2,-2,0
21.27,11.63,-44.42,1671,-5674,5792,-1,0,-1
21.27,11.62,-44.42,1661,-5674,5808,-1,-1,-1
21.27,11.62,-44.43,1663,-5679,5800,-1,-1,-1
21.27,11.62,-44.43,1666,-5676,5806,-1,-1,-1
21.27,11.64,-44.44,1681,-5685,5801,-1,-1,-1
21.28,11.64,-44.43,1677,-5683,5804,0,-1,0
21.28,11.65,-44.43,1684,-5690,5794,0,-1,-1
21.29,11.65,-44.42,1681,-5687,5788,0,-1,-1
21.29,11.66,-44.41,1682,-5677,5785,0,-1,0
21.29,11.66,-44.40,1673,-5665,5791,0,-1,-1
21.29,11.66,-44.38,1675,-5662,5788,0,-1,-1
21.29,11.66,-44.37,1680,-5666,5789,0,-1,0
21.29,11.67,-44.36,1678,-5666,5800,0,-1,0
21.29,11.67,-44.36,1675,-5664,5799,0,-1,0
21.29,11.68,-44.35,1669,-5662,5806,0,-1,0
21.28,11.68,-44.35,1671,-5666,5807,0,-1,-1
21.29,11.69,-44.35,1679,-5662,5798,0,-1,0
21.29,11.70,-44.34,1682,-5659,5806,0,-1,-1
21.29,11.71,-44.34,1680,-5664,5798,0,-1,0
21.29,11.71,-44.34,1687,-5671,5811,0,-1,0
21.29,11.72,-44.33,1687,-5671,5807,0,-1,0
21.29,11.72,-44.33,1690,-5671,5799,0,0,-1
21.29,11.72,-44.32,1688,-5661,5787,0,-1,-1
21.30,11.73,-44.31,1694,-5656,5804,0,0,-1
21.30,11.73,-44.31,1687,-5668,5796,0,-1,0
21.30,11.74,-44.31,1695,-5674,5802,0,-1,0
21.29,11.74,-44.31,1693,-5669,5809,0,0,0
21.29,11.73,-44.31,1681,-5662,5817,-1,-1,0
21.29,11.73,-44.31,1682,-5656,5816,0,0,0
21.29,11.73,-44.31,1682,-5657,5804,-1,-1,0
21.29,11.73,-44.31,1683,-5660,5811,-1,-1,0
21.29,11.75,-44.32,1699,-5667,5798,-1,-1,0
21.28,11.75,-44.33,1701,-5673,5796,0,0,0
21.28,11.74,-44.32,1689,-5666,5802,0,-1,0
21.28,11.75,-44.32,1697,-5668,5797,0,-1,-1
21.29,11.77,-44.31,1713,-5662,5808,0,-1,0
21.29,11.77,-44.30,1715,-5667,5805,0,-1,0
21.28,11.77,-44.30,1703,-5669,5803,0,-1,0
21.28,11.76,-44.30,1700,-5662,5810,0,-1,0
21.27,11.77,-44.30,1697,-5669,5807,0,-1,0
21.27,11.77,-44.29,1692,-5671,5799,0,-1,0
21.27,11.78,-44.27,1693,-5665,5802,0,-1,0
21.27,11.78,-44.26,1684,-5657,5804,0,-1,-1
21.28,11.79,-44.24,1693,-5663,5827,0,-1,-1
21.28,11.80,-44.22,1694,-5657,5825,0,-1,-1
21.28,11.80,-44.21,1694,-5649,5813,0,-1,-1
21.28,11.81,-44.20,1707,-5641,5822,0,-1,0
21.28,11.82,-44.20,1709,-5638,5818,0,-1,0
21.28,11.82,-44.19,1713,-5636,5829,0,-1,0
21.28,11.82,-44.18,1705,-5645,5836,0,-1,0
21.27,11.82,-44.17,1695,-5645,5824,0,-1,0
21.27,11.82,-44.17,1699,-5653,5826,0,-1,0
21.27,11.83,-44.17,1701,-5657,5832,0,-1,0
21.27,11.83,-44.16,1696,-5655,5827,0,-1,-1
21.27,11.84,-44.16,1694,-5650,5824,0,-1,-1
21.27,11.85,-44.15,1706,-5651,5814,0,-1,-1
21.28,11.85,-44.15,1712,-5651,5815,0,-1,0
21.27,11.85,-44.13,1709,-5643,5816,0,-1,0
21.28,11.86,-44.12,1712,-5629,5825,0,-1,0
21.27,11.86,-44.10,1715,-5627,5831,0,-1,0
21.27,11.86,-44.10,1710,-5624,5833,0,-1,0
21.27,11.86,-44.09,1706,-5626,5839,0,-1,0
21.26,11.86,-44.09,1694,-5640,5835,0,-1,0
21.26,11.86,-44.09,1692,-5637,5838,0,-1,0
21.26,11.86,-44.08,1694,-5642,5827,0,-1,-1
21.26,11.87,-44.09,1700,-5649,5820,-1,-1,0
21.27,11.88,-44.09,1708,-5647,5819,0,-1,0
21.26,11.88,-44.08,1716,-5638,5827,0,-1,0
21.25,11.88,-44.08,1715,-5652,5828,0,-1,0
21.26,11.88,-44.07,1716,-5642,5831,0,-1,0
21.25,11.88,-44.06,1704,-5636,5821,0,-1,-1
21.26,11.89,-44.06,1707,-5633,5820,0,-1,0
21.26,11.90,-44.06,1712,-5631,5821,0,-1,0
21.26,11.90,-44.05,1710,-5629,5822,0,-1,0
21.25,11.90,-44.04,1715,-5632,5832,0,-1,0
21.25,11.91,-44.04,1717,-5638,5828,0,-1,0
21.25,11.91,-44.03,1714,-5633,5836,0,-1,0
21.26,11.91,-44.02,1718,-5632,5834,0,-1,0
21.25,11.91,-44.02,1718,-5627,5835,0,-1,0
21.25,11.92,-44.01,1711,-5628,5834,0,-1,0
21.25,11.92,-44.00,1712,-5623,5835,0,-1,0
21.24,11.92,-44.00,1716,-5625,5830,0,-1,0
21.24,11.92,-43.99,1716,-5628,5827,0,-1,0
21.24,11.93,-43.99,1717,-5623,5829,0,-1,0
21.24,11.93,-43.98,1721,-5627,5834,0,-1,0
21.24,11.94,-43.97,1727,-5616,5837,0,-1,0
21.24,11.94,-43.96,1732,-5613,5835,0,-1,0
21.24,11.94,-43.95,1730,-5619,5834,0,0,0
21.24,11.94,-43.94,1720,-5620,5838,0,-1,0
21.23,11.94,-43.94,1720,-5631,5830,0,0,0
21.23,11.93,-43.94,1715,-5631,5840,0,0,0
21.22,11.92,-43.93,1707,-5623,5849,0,0,0
21.22,11.93,-43.93,1710,-5619,5854,-1,-1,0
21.21,11.92,-43.93,1701,-5612,5835,0,-1,0
21.20,11.92,-43.93,1726,-5613,5858,0,-1,0
21.20,11.91,-43.93,1716,-5608,5857,-1,0,0
21.20,11.91,-43.94,1709,-5618,5839,-1,-1,0
21.19,11.91,-43.96,1711,-5612,5841,-1,0,0
21.18,11.90,-43.97,1706,-5605,5839,-1,-1,0
21.17,11.91,-43.99,1705,-5605,5833,-1,-1,0
21.16,11.91,-44.01,1706,-5612,5842,-1,-1,0
21.15,11.91,-44.03,1710,-5627,5840,-1,-1,0
21.15,11.91,-44.05,1706,-5629,5816,-1,-1,0
21.14,11.92,-44.07,1704,-5653,5815,-1,-1,0
21.14,11.93,-44.08,1720,-5660,5824,-1,-1,-1
21.15,11.93,-44.08,1721,-5669,5814,0,0,-1
21.14,11.93,-44.07,1722,-5668,5825,0,0,-1
21.15,11.93,-44.06,1721,-5658,5823,0,0,-1
21.16,11.92,-44.03,1717,-5637,5835,0,0,-1
21.17,11.92,-44.01,1718,-5628,5848,0,0,-1
21.18,11.92,-44.00,1718,-5615,5843,0,0,-1
21.19,11.90,-43.99,1717,-5608,5864,-1,0,-1
21.19,11.89,-43.99,1707,-5607,5865,-1,0,-1
21.19,11.89,-44.00,1701,-5611,5851,-1,0,-1
21.20,11.88,-44.01,1699,-5615,5858,-1,0,-1
21.20,11.87,-44.03,1695,-5616,5844,-2,0,-1
21.20,11.87,-44.07,1698,-5630,5824,-1,0,-1
21.20,11.88,-44.08,1710,-5633,5816,-1,0,-1
21.21,11.87,-44.09,1706,-5631,5815,-1,0,-1
21.21,11.87,-44.11,1714,-5647,5823,-1,0,-1
21.22,11.87,-44.10,1716,-5649,5821,-1,0,-1
21.22,11.87,-44.11,1710,-5665,5808,0,0,-1
21.23,11.87,-44.11,1707,-5658,5814,-1,0,-1
21.23,11.87,-44.10,1724,-5654,5817,0,0,-1
21.24,11.86,-44.09,1720,-5644,5823,0,0,-1
21.24,11.86,-44.08,1714,-5638,5842,0,0,-1
21.25,11.86,-44.08,1712,-5638,5836,0,0,-1
21.25,11.85,-44.08,1709,-5625,5836,-1,0,-1
21.26,11.84,-44.07,1707,-5634,5838,-1,0,-1
21.26,11.83,-44.07,1698,-5628,5826,-1,0,-1
21.26,11.83,-44.07,1694,-5624,5834,-1,0,-1
21.27,11.83,-44.08,1695,-5627,5838,-1,0,-1
21.26,11.82,-44.09,1693,-5632,5830,-1,0,-1
21.27,11.82,-44.11,1692,-5631,5828,-1,0,-1
21.27,11.82,-44.11,1705,-5636,5826,-1,0,-1
21.28,11.82,-44.12,1708,-5642,5822,-1,0,-1
21.28,11.82,-44.13,1705,-5640,5819,-1,0,-1
21.28,11.82,-44.14,1715,-5648,5814,-1,0,-1
21.29,11.82,-44.15,1717,-5647,5819,-1,0,-1
21.28,11.80,-44.17,1704,-5662,5819,-1,0,0
21.28,11.80,-44.18,1696,-5664,5821,-1,0,0
21.28,11.79,-44.18,1691,-5656,5822,-1,0,-1
21.29,11.78,-44.18,1688,-5659,5830,-1,0,-1
21.29,11.77,-44.18,1688,-5650,5829,-1,0,-1
21.29,11.76,-44.19,1688,-5649,5820,-1,0,-1
21.30,11.76,-44.19,1695,-5644,5824,-1,0,-1
21.30,11.76,-44.19,1703,-5643,5825,-1,0,-1
21.30,11.75,-44.19,1702,-5639,5816,-1,0,-1
21.31,11.75,-44.20,1704,-5636,5834,-1,0,0
21.31,11.74,-44.21,1699,-5642,5833,-1,0,-1
21.31,11.73,-44.23,1697,-5650,5824,-1,0,-1
21.31,11.72,-44.24,1690,-5658,5831,-1,0,-1
21.31,11.71,-44.24,1681,-5658,5834,-1,0,-1
21.31,11.70,-44.26,1683,-5662,5821,-1,0,-1
21.31,11.69,-44.28,1682,-5670,5809,-1,0,-1
21.31,11.69,-44.30,1684,-5677,5814,-1,0,-1
21.31,11.68,-44.31,1688,-5680,5809,-1,0,-1
21.32,11.68,-44.32,1689,-5676,5804,-1,0,-1
21.31,11.67,-44.32,1688,-5679,5805,-1,0,-1
21.32,11.66,-44.33,1688,-5668,5807,-1,0,-1
21.32,11.66,-44.33,1687,-5663,5816,-1,0,0
21.32,11.65,-44.33,1685,-5658,5812,-1,0,0
21.32,11.66,-44.34,1679,-5656,5810,-1,0,0
21.32,11.65,-44.35,1677,-5664,5800,-1,-1,0
21.32,11.65,-44.35,1675,-5672,5814,-1,-1,-1
21.32,11.65,-44.36,1666,-5672,5802,-1,-1,-1
21.32,11.66,-44.36,1667,-5673,5797,0,-1,-1
21.32,11.67,-44.36,1676,-5670,5793,0,-1,-1
21.33,11.67,-44.36,1678,-5672,5805,0,-1,-1
21.33,11.68,-44.35,1684,-5673,5796,0,-1,-1
21.33,11.68,-44.35,1684,-5666,5800,0,-1,-1
21.33,11.68,-44.34,1685,-5666,5794,0,-1,0
21.33,11.69,-44.33,1681,-5671,5794,0,-1,0
21.33,11.69,-44.32,1679,-5673,5806,0,-1,-1
21.33,11.69,-44.31,1681,-5662,5811,0,-1,0
21.34,11.70,-44.30,1684,-5664,5808,0,-1,-1
21.33,11.70,-44.30,1684,-5655,5800,0,-1,0
21.33,11.71,-44.30,1681,-5666,5816,0,-1,0
21.34,11.71,-44.29,1683,-5665,5812,0,-1,-1
21.33,11.72,-44.28,1678,-5663,5821,0,-1,-1
21.33,11.72,-44.28,1684,-5666,5815,0,0,-1
21.34,11.72,-44.27,1684,-5659,5819,0,-1,0
21.34,11.72,-44.27,1690,-5647,5824,-1,0,0
21.33,11.71,-44.29,1692,-5653,5821,-1,-1,0
21.32,11.70,-44.31,1691,-5653,5816,-1,0,0
21.31,11.70,-44.32,1697,-5656,5826,-1,0,0
21.30,11.70,-44.35,1681,-5665,5835,-1,-1,0
21.28,11.70,-44.39,1653,-5653,5820,-2,-2,0
21.27,11.72,-44.44,1680,-5675,5807,-2,-2,0
21.26,11.73,-44.47,1682,-5653,5783,-1,-1,0
21.26,11.74,-44.50,1689,-5677,5776,-1,-1,-1
21.25,11.76,-44.52,1692,-5675,5764,-1,-1,0
21.25,11.76,-44.54,1705,-5692,5780,-1,-1,0
21.25,11.77,-44.54,1717,-5693,5774,-1,0,0
21.24,11.76,-44.55,1686,-5703,5746,0,0,0
21.25,11.77,-44.53,1691,-5701,5792,0,-1,-1
21.25,11.78,-44.53,1698,-5681,5759,0,-1,-1
21.26,11.79,-44.50,1725,-5690,5776,1,-1,0
21.26,11.79,-44.48,1702,-5709,5760,0,0,0
21.26,11.78,-44.45,1690,-5689,5784,1,0,-1
21.27,11.79,-44.42,1698,-5673,5819,0,-1,-1
21.27,11.79,-44.39,1702,-5679,5822,0,-1,-1
21.27,11.79,-44.37,1704,-5671,5800,0,0,-1
21.28,11.80,-44.35,1699,-5659,5798,0,0,-1
21.28,11.80,-44.32,1695,-5644,5810,0,-1,0
21.28,11.81,-44.30,1700,-5645,5815,0,-1,0
21.29,11.81,-44.29,1687,-5647,5819,0,-1,0
21.28,11.82,-44.29,1696,-5643,5814,0,-1,-1
21.29,11.83,-44.28,1694,-5639,5811,0,-1,0
21.28,11.84,-44.28,1701,-5641,5806,0,-1,0
21.28,11.85,-44.28,1695,-5654,5797,0,-1,0
21.28,11.85,-44.28,1702,-5660,5805,0,-1,0
21.28,11.86,-44.28,1699,-5661,5808,0,-1,-1
21.27,11.87,-44.28,1700,-5679,5799,0,-1,-1
21.28,11.87,-44.26,1708,-5677,5799,0,-1,-1
21.28,11.88,-44.25,1711,-5672,5805,0,-1,-1
21.29,11.89,-44.23,1712,-5665,5802,0,-1,-1
21.29,11.89,-44.22,1717,-5661,5810,0,-1,0
21.29,11.89,-44.19,1717,-5651,5810,0,-1,0
21.28,11.89,-44.17,1706,-5635,5817,0,-1,0
21.28,11.89,-44.16,1700,-5633,5816,0,-1,0
21.28,11.90,-44.15,1701,-5635,5817,0,-1,0
21.27,11.90,-44.14,1708,-5634,5825,0,-1,0
21.28,11.91,-44.13,1708,-5628,5836,0,-1,-1
21.28,11.92,-44.13,1705,-5635,5831,0,-1,-1
21.28,11.93,-44.13,1716,-5638,5821,0,-1,0
21.28,11.93,-44.13,1729,-5633,5800,0,-1,0
21.27,11.93,-44.13,1717,-5630,5803,-1,-1,0
21.27,11.94,-44.13,1726,-5644,5815,0,-1,0
21.27,11.94,-44.13,1721,-5662,5822,0,-1,0
21.27,11.93,-44.12,1712,-5657,5823,0,0,0
21.26,11.93,-44.11,1701,-5652,5818,0,-1,0
21.27,11.93,-44.11,1698,-5639,5814,0,-1,-1
21.26,11.94,-44.10,1699,-5635,5810,0,-1,-1
21.26,11.94,-44.08,1714,-5625,5814,0,-1,-1
21.27,11.94,-44.07,1724,-5629,5822,0,-1,0
21.27,11.94,-44.07,1727,-5621,5823,0,0,0
21.26,11.94,-44.07,1724,-5621,5823,0,-1,0
21.26,11.95,-44.06,1715,-5618,5834,-1,0,0
21.26,11.94,-44.07,1711,-5625,5828,-1,-1,0
21.26,11.94,-44.07,1721,-5636,5840,0,-1,0
21.26,11.95,-44.06,1708,-5637,5838,-1,-1,-1
21.25,11.95,-44.07,1707,-5641,5831,0,-1,-1
21.26,11.96,-44.06,1718,-5641,5828,-1,-1,-1
21.26,11.96,-44.06,1725,-5647,5824,0,0,-1
21.27,11.96,-44.05,1731,-5644,5825,0,0,0
21.27,11.96,-44.04,1722,-5631,5828,0,0,0
21.26,11.95,-44.03,1721,-5619,5828,0,0,0
21.26,11.95,-44.02,1721,-5623,5830,0,-1,0
21.27,11.96,-44.01,1721,-5628,5830,0,-1,0
21.26,11.95,-44.00,1723,-5622,5829,0,-1,0
21.26,11.95,-44.00,1722,-5627,5831,0,-1,0
21.26,11.96,-43.99,1722,-5628,5833,0,-1,0
21.26,11.97,-43.99,1723,-5635,5820,0,-1,0
21.26,11.98,-43.98,1725,-5635,5810,0,-1,0
21.26,11.97,-43.96,1725,-5624,5824,0,-1,0
21.25,11.98,-43.95,1724,-5619,5833,0,-1,0
21.25,11.99,-43.94,1725,-5626,5836,0,-1,0
21.25,11.99,-43.93,1727,-5623,5844,0,-1,0
21.25,12.00,-43.92,1727,-5620,5845,0,-1,0
21.24,12.00,-43.90,1724,-5615,5848,0,-1,0
21.24,12.00,-43.89,1726,-5621,5833,0,-1,0
21.24,12.00,-43.87,1726,-5616,5847,0,0,0
21.24,12.00,-43.86,1733,-5604,5843,0,-1,0
21.24,12.01,-43.85,1730,-5610,5840,0,-1,0
21.24,12.02,-43.84,1731,-5612,5847,0,-1,0
21.23,12.02,-43.83,1724,-5612,5846,0,-1,0
21.24,12.02,-43.82,1736,-5615,5853,0,0,0
21.23,12.02,-43.81,1722,-5605,5853,-1,0,-1
21.23,12.01,-43.82,1719,-5605,5868,-1,0,-1
21.24,12.01,-43.83,1725,-5613,5864,-1,0,-1
21.24,12.01,-43.83,1739,-5609,5864,-1,0,-1
21.24,12.00,-43.85,1736,-5605,5857,-1,0,-1
21.24,11.99,-43.85,1739,-5608,5848,-1,0,-1
21.24,11.98,-43.86,1736,-5601,5857,-1,0,-1
21.25,11.98,-43.86,1741,-5600,5853,-1,0,-1
21.25,11.97,-43.87,1735,-5610,5851,-1,0,-1
21.25,11.95,-43.88,1727,-5613,5849,-1,0,-1
21.26,11.94,-43.89,1712,-5620,5849,-1,0,-1
21.26,11.93,-43.90,1704,-5622,5844,-1,0,-1
21.26,11.93,-43.90,1708,-5623,5838,-1,0,-1
21.27,11.93,-43.91,1719,-5617,5840,-1,0,-1
21.27,11.93,-43.92,1725,-5611,5842,-1,0,-1
21.28,11.92,-43.92,1722,-5607,5851,-1,0,-1
21.28,11.92,-43.93,1726,-5616,5846,-1,0,-1
21.28,11.91,-43.94,1727,-5612,5845,-1,0,0
21.28,11.90,-43.94,1717,-5617,5847,-1,0,-1
21.29,11.89,-43.95,1711,-5622,5838,-1,0,-1
21.29,11.88,-43.97,1705,-5623,5832,-1,0,0
21.29,11.87,-43.99,1707,-5622,5834,-1,0,-1
21.29,11.86,-44.00,1707,-5629,5840,-1,0,-1
21.29,11.86,-44.02,1713,-5638,5844,-1,0,-1
21.30,11.86,-44.03,1709,-5636,5832,-1,0,-1
21.30,11.85,-44.04,1710,-5641,5831,-1,0,-1
21.30,11.84,-44.05,1707,-5641,5837,-1,0,-1
21.30,11.83,-44.05,1705,-5635,5835,-1,0,-1
21.31,11.83,-44.05,1712,-5630,5835,-1,0,-1
21.31,11.82,-44.05,1703,-5631,5839,-1,0,-1
21.32,11.81,-44.05,1704,-5623,5840,-1,0,0
21.32,11.80,-44.06,1702,-5626,5835,-1,0,-1
21.32,11.79,-44.08,1702,-5639,5835,-1,0,0
21.32,11.79,-44.09,1695,-5641,5828,-1,0,0
21.32,11.77,-44.10,1690,-5643,5829,-1,0,-1
21.32,11.77,-44.12,1696,-5652,5827,-1,0,-1
21.33,11.77,-44.12,1695,-5647,5826,-1,0,-1
21.33,11.76,-44.14,1703,-5650,5818,-1,0,-1
21.33,11.76,-44.15,1706,-5650,5816,-1,0,-1
21.33,11.76,-44.16,1703,-5654,5815,-1,0,-1
21.33,11.75,-44.16,1697,-5653,5820,-1,0,0
21.33,11.74,-44.16,1693,-5645,5811,-1,0,-1
21.34,11.74,-44.17,1693,-5638,5805,-1,0,-1
21.33,11.73,-44.18,1688,-5645,5806,-1,0,-1
21.34,11.73,-44.19,1681,-5646,5814,-1,0,0
21.33,11.72,-44.20,1681,-5652,5819,-1,0,-1
21.34,11.71,-44.20,1676,-5645,5817,-1,0,-1
21.34,11.71,-44.22,1680,-5656,5822,-1,0,-1
21.34,11.71,-44.24,1677,-5658,5818,-1,0,-1
21.35,11.70,-44.24,1680,-5663,5809,-1,0,-1
21.35,11.70,-44.25,1684,-5659,5807,-1,0,-1
21.35,11.69,-44.26,1682,-5653,5804,-1,0,-1
21.35,11.68,-44.27,1674,-5659,5801,-1,0,0
21.35,11.67,-44.28,1678,-5658,5815,-1,0,0
21.35,11.67,-44.28,1680,-5667,5811,-1,0,-1
21.35,11.66,-44.29,1684,-5670,5821,-1,0,-1
21.35,11.66,-44.30,1680,-5676,5828,-1,0,-1
21.36,11.65,-44.31,1683,-5655,5823,-1,0,-1
21.35,11.66,-44.34,1683,-5656,5809,-2,-1,-1
21.36,11.67,-44.35,1691,-5659,5809,-1,0,0
21.36,11.66,-44.36,1689,-5662,5819,-1,0,0
21.35,11.65,-44.36,1684,-5677,5811,-1,0,0
21.35,11.65,-44.37,1666,-5691,5812,-1,-1,0
21.35,11.65,-44.38,1664,-5693,5806,-1,0,-1
21.35,11.65,-44.38,1656,-5684,5792,-1,-1,-1
21.35,11.66,-44.38,1664,-5676,5781,0,-1,-1
21.35,11.66,-44.37,1675,-5662,5795,0,0,0
21.35,11.66,-44.37,1682,-5668,5795,0,-1,-1
21.35,11.67,-44.36,1685,-5664,5799,0,-1,0
21.35,11.67,-44.36,1687,-5667,5809,0,-1,-1
21.35,11.68,-44.35,1682,-5667,5817,0,-1,-1
21.35,11.69,-44.35,1684,-5665,5815,0,-1,-1
21.36,11.69,-44.34,1683,-5663,5810,0,-1,-1
21.36,11.70,-44.33,1683,-5666,5820,0,-1,-1
21.36,11.71,-44.33,1689,-5666,5812,0,-1,-1
21.36,11.72,-44.33,1687,-5670,5803,0,-1,-1
21.36,11.72,-44.33,1684,-5670,5794,0,-1,-1
21.36,11.73,-44.32,1688,-5671,5792,0,-1,0
21.37,11.74,-44.31,1699,-5669,5795,0,-1,-1
21.37,11.74,-44.29,1694,-5660,5795,0,-1,-1
21.37,11.75,-44.28,1698,-5655,5810,0,-1,-1
21.37,11.76,-44.27,1703,-5659,5799,0,-1,0
21.37,11.76,-44.26,1693,-5658,5811,0,-1,0
21.37,11.76,-44.26,1696,-5653,5817,0,-1,0
21.36,11.77,-44.25,1689,-5653,5819,0,-1,0
21.36,11.77,-44.25,1687,-5666,5817,0,-1,0
21.36,11.78,-44.24,1688,-5664,5815,0,-1,-1
21.37,11.79,-44.24,1684,-5661,5812,0,-1,-1
21.36,11.79,-44.24,1693,-5655,5814,0,-1,0
21.36,11.81,-44.23,1700,-5649,5810,0,-1,-1
21.37,11.81,-44.23,1696,-5652,5817,0,-1,0
21.36,11.81,-44.22,1701,-5664,5825,0,-1,0
21.36,11.81,-44.21,1699,-5654,5825,0,-1,0
21.36,11.82,-44.20,1688,-5653,5817,0,-1,0
21.36,11.82,-44.19,1695,-5648,5819,0,-1,-1
21.37,11.83,-44.19,1707,-5647,5820,0,-1,0
21.36,11.83,-44.18,1707,-5643,5810,0,-1,0
21.37,11.84,-44.17,1701,-5643,5819,0,-1,0
21.36,11.84,-44.17,1697,-5646,5822,0,-1,0
21.35,11.84,-44.17,1700,-5648,5817,0,-1,0
21.35,11.84,-44.16,1699,-5655,5816,0,-1,0
21.35,11.84,-44.15,1702,-5646,5819,0,-1,0
21.35,11.84,-44.14,1700,-5645,5828,0,0,0
21.34,11.84,-44.14,1692,-5644,5825,-1,-1,0
21.34,11.85,-44.14,1702,-5650,5821,0,-1,0
21.34,11.85,-44.13,1698,-5653,5829,0,-1,0
21.33,11.85,-44.13,1688,-5646,5828,0,-1,0
21.33,11.85,-44.12,1693,-5641,5828,0,-1,0
21.33,11.86,-44.11,1705,-5651,5822,0,-1,-1
21.34,11.87,-44.10,1716,-5649,5831,0,-1,0
21.34,11.87,-44.09,1720,-5634,5817,0,-1,0
21.34,11.87,-44.09,1712,-5642,5821,0,-1,0
21.33,11.87,-44.09,1706,-5645,5824,0,-1,0
21.32,11.87,-44.08,1701,-5648,5834,0,-1,0
21.32,11.87,-44.07,1707,-5647,5832,0,-1,0
21.32,11.87,-44.07,1703,-5643,5827,0,-1,-1
21.32,11.88,-44.06,1700,-5633,5825,0,-1,0
21.32,11.89,-44.05,1702,-5635,5829,0,-1,-1
21.32,11.90,-44.04,1717,-5635,5838,0,-1,0
21.32,11.90,-44.04,1710,-5627,5831,0,-1,0
21.32,11.90,-44.03,1710,-5633,5826,0,-1,0
21.31,11.90,-44.03,1717,-5630,5841,0,-1,0
21.32,11.91,-44.02,1710,-5631,5834,0,-1,0
21.31,11.91,-44.01,1709,-5629,5833,0,-1,0
21.31,11.91,-44.01,1711,-5625,5834,0,-1,0
21.31,11.92,-44.00,1715,-5626,5842,0,-1,0
21.31,11.92,-44.00,1716,-5627,5832,0,-1,0
21.31,11.92,-44.00,1715,-5632,5831,0,-1,0
21.31,11.93,-44.00,1722,-5632,5824,0,-1,0
21.31,11.93,-43.99,1716,-5637,5831,0,-1,0
21.30,11.93,-43.98,1711,-5636,5823,0,-1,-1
21.31,11.93,-43.97,1714,-5627,5824,0,-1,0
21.30,11.93,-43.96,1720,-5621,5835,0,-1,0
21.30,11.95,-43.95,1727,-5611,5838,0,-1,0
21.30,11.95,-43.95,1732,-5614,5837,0,-1,0
21.30,11.95,-43.95,1731,-5615,5843,0,-1,0
21.30,11.95,-43.95,1723,-5611,5835,0,-1,0
21.30,11.96,-43.95,1714,-5613,5830,0,-1,0
21.30,11.96,-43.95,1706,-5624,5834,0,-1,-1
21.30,11.97,-43.94,1718,-5620,5820,0,-1,-1
21.29,11.96,-43.93,1721,-5616,5819,0,-1,0
21.30,11.97,-43.92,1724,-5614,5844,0,-1,0
21.29,11.97,-43.92,1725,-5619,5843,0,-1,0
21.29,11.98,-43.91,1728,-5620,5839,0,0,0
21.28,11.97,-43.90,1715,-5621,5830,0,-1,0
21.28,11.97,-43.89,1716,-5621,5851,0,-1,0
21.28,11.97,-43.89,1707,-5616,5847,0,-1,0
21.28,11.98,-43.89,1712,-5620,5842,0,-1,0
21.28,11.99,-43.88,1727,-5619,5841,0,-1,0
21.28,12.00,-43.88,1737,-5627,5827,0,-1,0
21.28,12.00,-43.87,1740,-5619,5824,0,-1,0
21.28,12.01,-43.88,1742,-5615,5836,0,-1,0
21.27,12.00,-43.87,1733,-5612,5832,0,0,0
21.26,11.99,-43.87,1725,-5616,5833,-1,-1,0
21.25,11.98,-43.86,1720,-5620,5824,0,0,0
21.25,11.98,-43.85,1717,-5612,5838,0,-1,0
21.25,11.99,-43.84,1718,-5615,5849,0,-1,0
21.25,11.99,-43.83,1716,-5606,5851,0,-1,0
21.25,11.99,-43.81,1726,-5598,5843,0,0,0
21.25,11.99,-43.80,1731,-5597,5853,0,-1,0
21.24,11.99,-43.80,1725,-5604,5857,0,-1,0
21.24,11.99,-43.79,1727,-5606,5864,0,-1,0
21.24,11.99,-43.79,1726,-5601,5868,0,-1,0
21.24,11.98,-43.79,1717,-5600,5869,-1,0,0
21.24,11.98,-43.80,1710,-5599,5857,-1,0,-1
21.24,11.98,-43.80,1721,-5606,5863,-1,0,-1
21.24,11.98,-43.80,1729,-5605,5855,-1,0,-1
21.25,11.97,-43.80,1720,-5596,5866,-1,0,-1
21.25,11.95,-43.81,1719,-5589,5866,-1,0,-1
21.26,11.95,-43.82,1714,-5585,5862,-1,0,-1
21.26,11.94,-43.83,1717,-5591,5849,-1,0,-1
21.26,11.94,-43.84,1727,-5612,5849,-1,0,-1
21.26,11.93,-43.84,1719,-5608,5852,-1,0,0
21.26,11.92,-43.86,1709,-5613,5855,-1,0,-1
21.27,11.92,-43.88,1708,-5617,5861,-1,0,-1
21.28,11.92,-43.90,1724,-5626,5860,-1,0,-1
21.28,11.91,-43.91,1720,-5633,5837,-1,0,-1
21.28,11.91,-43.92,1712,-5625,5845,-1,0,-1
21.29,11.90,-43.92,1714,-5623,5845,-1,0,-1
21.29,11.89,-43.93,1712,-5625,5834,-1,0,-1
21.30,11.88,-43.94,1728,-5630,5832,-1,0,-1
21.31,11.87,-43.94,1731,-5628,5842,-1,0,-1
21.30,11.86,-43.94,1719,-5614,5852,-1,0,-1
21.31,11.85,-43.95,1704,-5608,5849,-1,0,-1
21.31,11.84,-43.97,1703,-5624,5840,-1,0,-1
21.30,11.82,-43.98,1699,-5634,5839,-1,0,-1
21.30,11.82,-44.00,1697,-5632,5837,-1,0,-1
21.30,11.81,-44.01,1699,-5641,5837,-1,0,-1
21.31,11.81,-44.03,1706,-5649,5827,-1,0,-1
21.32,11.80,-44.04,1698,-5645,5833,-1,0,-1
21.32,11.79,-44.05,1700,-5638,5832,-1,0,-1
21.32,11.79,-44.05,1699,-5631,5829,-1,0,0
21.32,11.78,-44.05,1703,-5627,5826,-1,0,0
21.32,11.77,-44.06,1695,-5639,5825,-1,0,-1
21.32,11.76,-44.06,1700,-5644,5832,-1,0,-1
21.32,11.75,-44.07,1690,-5639,5837,-1,0,-1
21.33,11.74,-44.07,1692,-5643,5843,-1,0,-1
21.33,11.74,-44.08,1687,-5643,5842,-1,0,-1
21.34,11.73,-44.09,1698,-5644,5826,-1,0,-1
21.34,11.72,-44.10,1694,-5633,5827,-1,0,-1
21.35,11.71,-44.11,1690,-5636,5833,-1,0,-1
21.35,11.70,-44.13,1683,-5637,5826,-1,0,-1
21.35,11.70,-44.14,1684,-5643,5817,-1,0,-1
21.34,11.69,-44.16,1683,-5648,5820,-1,0,0
21.34,11.68,-44.17,1675,-5647,5819,-1,0,-1
21.35,11.68,-44.18,1681,-5645,5818,-1,0,-1
21.36,11.68,-44.19,1695,-5644,5818,-1,0,-1
21.36,11.67,-44.21,1698,-5652,5820,-1,0,-1
21.36,11.67,-44.22,1690,-5654,5818,-1,0,0
21.36,11.65,-44.24,1682,-5655,5819,-1,0,-1
21.36,11.64,-44.25,1677,-5668,5813,-1,0,-1
21.36,11.63,-44.26,1668,-5671,5822,-1,0,-1
21.36,11.62,-44.27,1666,-5673,5814,-1,0,-1
21.36,11.62,-44.28,1667,-5667,5813,-1,0,-1
21.36,11.62,-44.29,1655,-5650,5822,-1,-2,0
21.36,11.64,-44.32,1679,-5662,5783,-1,0,-1
21.36,11.64,-44.33,1678,-5664,5792,-1,0,-1
21.36,11.64,-44.33,1679,-5661,5803,-1,0,0
21.36,11.63,-44.33,1669,-5662,5806,-1,0,0
21.35,11.63,-44.33,1668,-5672,5795,-1,-1,-1
21.35,11.63,-44.34,1660,-5677,5804,-1,-1,-1
21.36,11.63,-44.34,1673,-5674,5809,-1,-1,-1
21.36,11.64,-44.34,1679,-5673,5813,-1,-1,-1
21.36,11.65,-44.34,1683,-5669,5811,-1,-1,-1
21.36,11.66,-44.34,1682,-5669,5804,0,-1,-1
21.36,11.66,-44.34,1680,-5679,5798,0,-1,-1
21.36,11.67,-44.33,1681,-5678,5804,0,-1,0
21.37,11.67,-44.32,1685,-5675,5802,0,-1,-1
21.37,11.68,-44.30,1682,-5669,5804,0,-1,0
21.37,11.68,-44.29,1683,-5657,5808,0,-1,0
21.37,11.69,-44.28,1686,-5651,5820,0,-1,-1
21.37,11.69,-44.27,1687,-5657,5821,0,-1,0
21.37,11.70,-44.27,1690,-5656,5827,0,-1,0
21.37,11.70,-44.27,1688,-5662,5820,0,-1,0
21.37,11.71,-44.27,1685,-5660,5827,0,-1,0
21.37,11.71,-44.26,1686,-5666,5815,0,-1,-1
21.37,11.72,-44.26,1682,-5660,5809,0,-1,-1
21.38,11.73,-44.25,1694,-5660,5814,0,-1,-1
21.38,11.74,-44.25,1694,-5659,5810,0,-1,0
21.38,11.74,-44.25,1702,-5664,5808,0,-1,0
21.37,11.75,-44.24,1695,-5656,5803,0,-1,0
21.38,11.75,-44.23,1687,-5654,5794,0,-1,-1
21.38,11.76,-44.22,1692,-5658,5804,0,-1,-1
21.38,11.77,-44.21,1699,-5657,5806,0,-1,-1
21.38,11.77,-44.20,1694,-5654,5820,0,-1,-1
21.38,11.78,-44.20,1692,-5654,5821,0,-1,0
21.38,11.79,-44.19,1706,-5657,5821,0,-1,0
21.38,11.78,-44.18,1695,-5655,5817,0,0,0
21.38,11.78,-44.18,1687,-5641,5809,0,0,-1
21.38,11.78,-44.18,1692,-5648,5810,-1,-1,0
21.38,11.78,-44.18,1699,-5654,5835,-1,0,0
21.37,11.77,-44.19,1696,-5658,5823,-1,0,0
21.37,11.76,-44.19,1697,-5649,5831,-1,0,0
21.37,11.77,-44.20,1693,-5649,5833,-1,-1,0
21.37,11.77,-44.21,1702,-5641,5828,-1,-1,0
21.37,11.77,-44.21,1701,-5626,5841,-1,0,0
21.36,11.77,-44.23,1693,-5649,5834,-1,-1,0
21.35,11.77,-44.25,1690,-5653,5818,-1,-1,0
21.36,11.78,-44.28,1702,-5676,5829,-1,-1,0
21.35,11.77,-44.30,1682,-5677,5815,-1,-1,0
21.34,11.77,-44.31,1685,-5654,5830,-1,-1,0
21.33,11.78,-44.34,1676,-5667,5790,-1,-1,0
21.33,11.78,-44.35,1689,-5659,5803,-1,-1,-1
21.33,11.79,-44.37,1707,-5668,5783,-1,0,0
21.33,11.80,-44.37,1708,-5673,5798,-1,-1,0
21.32,11.80,-44.38,1705,-5680,5795,-1,0,0
21.32,11.78,-44.38,1697,-5669,5822,-1,-1,-1
21.31,11.79,-44.40,1689,-5682,5784,-1,-1,0
21.32,11.79,-44.39,1704,-5681,5789,0,-1,0
21.31,11.80,-44.38,1712,-5675,5768,0,0,0
21.31,11.79,-44.36,1676,-5666,5801,0,-1,0
21.30,11.80,-44.36,1692,-5668,5798,0,-1,0
21.31,11.80,-44.35,1692,-5689,5785,0,-1,0
21.31,11.81,-44.33,1700,-5686,5793,0,0,-1
21.31,11.81,-44.30,1691,-5666,5804,0,-1,-1
21.32,11.82,-44.27,1693,-5654,5817,0,-1,-1
21.32,11.83,-44.26,1704,-5656,5800,0,-1,-1
21.31,11.83,-44.23,1705,-5656,5815,1,-1,0
21.32,11.83,-44.19,1706,-5642,5815,1,-1,0
21.32,11.85,-44.16,1705,-5642,5819,0,-1,0
21.32,11.85,-44.14,1710,-5643,5829,0,-1,0
21.31,11.85,-44.11,1707,-5633,5845,0,-1,0
21.31,11.86,-44.09,1706,-5631,5845,0,-1,0
21.31,11.86,-44.08,1696,-5630,5843,0,-1,-1
21.31,11.87,-44.07,1693,-5632,5825,0,-1,-1
21.32,11.88,-44.05,1695,-5631,5824,0,-1,-1
21.32,11.89,-44.05,1704,-5632,5823,0,-1,0
21.31,11.89,-44.04,1708,-5628,5825,0,-1,0
21.31,11.90,-44.04,1710,-5628,5833,0,-1,0
21.31,11.89,-44.03,1706,-5630,5831,0,-1,0
21.31,11.90,-44.02,1713,-5632,5834,0,-1,0
21.30,11.90,-44.01,1714,-5635,5835,0,-1,-1
21.31,11.91,-44.01,1713,-5629,5835,0,-1,0
21.31,11.92,-43.99,1718,-5627,5838,0,-1,0
21.31,11.92,-43.99,1725,-5623,5840,0,-1,0
21.31,11.92,-43.97,1722,-5620,5840,0,-1,0
21.31,11.92,-43.97,1721,-5614,5839,0,-1,0
21.30,11.92,-43.96,1718,-5620,5832,0,-1,0
21.30,11.93,-43.96,1713,-5623,5827,0,-1,0
21.30,11.93,-43.95,1721,-5626,5846,0,-1,0
21.30,11.94,-43.94,1720,-5622,5845,0,-1,-1
21.30,11.94,-43.95,1725,-5621,5836,0,-1,0
21.31,11.95,-43.94,1741,-5619,5838,0,-1,0
21.30,11.95,-43.94,1740,-5622,5837,-1,-1,0
21.29,11.95,-43.94,1730,-5628,5844,0,-1,0
21.29,11.96,-43.94,1719,-5634,5841,0,-1,0
21.29,11.95,-43.93,1708,-5635,5835,0,-1,-1
21.28,11.95,-43.93,1707,-5623,5833,0,-1,0
21.29,11.96,-43.92,1718,-5623,5829,0,-1,-1
21.29,11.96,-43.90,1719,-5619,5837,0,-1,-1
21.29,11.97,-43.89,1731,-5611,5837,0,-1,0
21.29,11.98,-43.89,1729,-5609,5833,0,-1,0
21.29,11.97,-43.88,1733,-5605,5832,0,0,0
21.28,11.97,-43.87,1721,-5609,5844,0,0,0
21.28,11.96,-43.86,1729,-5605,5840,0,0,0
21.28,11.97,-43.86,1717,-5601,5850,0,-1,0
21.28,11.97,-43.85,1718,-5603,5847,0,-1,0
21.28,11.97,-43.85,1731,-5614,5849,0,-1,-1
21.29,11.97,-43.84,1725,-5613,5847,0,0,-1
21.28,11.96,-43.83,1714,-5620,5848,-1,-1,-1
21.28,11.97,-43.84,1716,-5627,5838,0,-1,-1
21.29,11.97,-43.83,1726,-5622,5852,0,-1,-1
21.29,11.98,-43.82,1723,-5611,5851,0,0,-1
21.29,11.98,-43.81,1726,-5598,5859,-1,0,-1
21.30,11.97,-43.81,1729,-5594,5860,-1,0,0
21.30,11.96,-43.81,1733,-5587,5870,-1,0,-1
21.30,11.95,-43.82,1727,-5602,5858,-1,0,0
21.29,11.94,-43.83,1724,-5605,5856,-1,0,-1
21.30,11.93,-43.84,1717,-5611,5863,-1,0,-1
21.30,11.93,-43.85,1706,-5615,5861,-1,0,-1
21.30,11.92,-43.86,1713,-5611,5862,-1,0,-1
21.31,11.92,-43.87,1716,-5603,5857,-1,0,-1
21.32,11.92,-43.88,1725,-5603,5845,-1,0,-1
21.33,11.91,-43.89,1719,-5603,5847,-1,0,-1
21.33,11.91,-43.90,1725,-5608,5848,-1,0,-1
21.33,11.90,-43.91,1723,-5613,5842,-1,0,-1
21.34,11.89,-43.92,1720,-5624,5847,-1,0,-1
21.34,11.88,-43.93,1719,-5622,5844,-1,0,-1
21.34,11.87,-43.94,1709,-5619,5846,-1,0,-1
21.35,11.86,-43.94,1703,-5609,5861,-1,0,-1
21.36,11.86,-43.95,1709,-5608,5855,-1,0,-1
21.36,11.85,-43.97,1712,-5613,5848,-1,0,-1
21.36,11.83,-43.99,1712,-5613,5840,-1,0,-1
21.36,11.82,-44.01,1708,-5617,5842,-2,0,-1
21.37,11.81,-44.03,1714,-5635,5852,-1,0,-1
21.37,11.80,-44.06,1699,-5628,5841,-2,0,-1
21.38,11.79,-44.08,1702,-5631,5839,-2,0,-1
21.39,11.78,-44.11,1707,-5632,5824,-2,0,-1
21.39,11.78,-44.14,1725,-5623,5823,-2,1,-1
21.39,11.76,-44.17,1703,-5630,5837,-2,0,-1
21.40,11.76,-44.20,1713,-5645,5826,-1,0,-1
21.40,11.75,-44.22,1703,-5659,5816,-1,0,0
21.40,11.74,-44.24,1700,-5660,5820,-1,1,-1
21.40,11.73,-44.25,1688,-5667,5823,-1,0,-1
21.41,11.72,-44.26,1688,-5663,5800,-1,0,-1
21.41,11.72,-44.26,1691,-5661,5809,0,0,-1
21.42,11.72,-44.25,1693,-5661,5804,0,0,-1
21.42,11.72,-44.25,1687,-5664,5813,0,0,-1
21.42,11.71,-44.25,1692,-5657,5818,0,0,-1
21.43,11.70,-44.24,1701,-5652,5827,0,0,-1
21.43,11.69,-44.23,1696,-5650,5827,0,0,-1
21.44,11.68,-44.22,1680,-5642,5833,-1,0,-1
21.44,11.67,-44.23,1676,-5644,5822,-1,0,-1
21.44,11.67,-44.24,1679,-5633,5829,-1,0,0
21.44,11.67,-44.25,1671,-5640,5833,-1,0,-1
21.44,11.66,-44.27,1672,-5654,5834,-1,0,-1
21.44,11.66,-44.29,1677,-5670,5821,-1,0,-1
21.45,11.66,-44.30,1676,-5667,5814,-1,0,-1
21.44,11.65,-44.31,1681,-5666,5805,-1,0,-1
21.45,11.65,-44.32,1679,-5655,5802,-1,0,-1
21.46,11.64,-44.33,1681,-5658,5798,-1,0,-1
21.46,11.63,-44.33,1688,-5658,5815,-1,0,-1
21.46,11.63,-44.34,1688,-5667,5826,-1,0,0
21.46,11.62,-44.34,1689,-5670,5822,-1,0,0
21.46,11.61,-44.35,1675,-5667,5818,-1,0,-1
21.46,11.59,-44.36,1667,-5666,5810,-1,0,-1
21.46,11.59,-44.37,1663,-5661,5818,-1,0,-1
21.47,11.59,-44.39,1669,-5665,5810,-1,0,-1
21.47,11.59,-44.39,1680,-5670,5808,-1,0,-1
21.47,11.58,-44.40,1669,-5668,5803,-1,0,-1
21.46,11.59,-44.42,1656,-5660,5819,-1,-2,0
21.46,11.61,-44.45,1674,-5671,5787,-1,-1,-1
21.46,11.59,-44.45,1669,-5669,5802,-1,0,-1
21.47,11.60,-44.46,1676,-5676,5799,-1,-1,-1
