Yaw,Pitch,Roll,AX,AY,AZ,GX,GY,GZ
24.01,22.45,-64.21,3174,-6896,3358,-1,0,-1
24.01,22.44,-64.22,3180,-6909,3348,-1,0,-1
24.01,22.44,-64.23,3172,-6910,3342,-1,0,-1
24.01,22.44,-64.24,3172,-6919,3330,-1,0,0
24.01,22.43,-64.25,3172,-6914,3328,-1,0,-1
24.02,22.43,-64.26,3175,-6914,3336,-1,0,0
24.02,22.42,-64.27,3173,-6927,3333,-1,0,-1
24.02,22.43,-64.26,3179,-6934,3334,0,0,-1
24.03,22.42,-64.26,3178,-6924,3336,-1,0,-1
24.03,22.43,-64.26,3175,-6924,3329,0,0,-1
24.03,22.42,-64.25,3159,-6918,3327,-1,0,-1
24.04,22.42,-64.26,3169,-6918,3328,-1,0,-1
24.04,22.41,-64.26,3165,-6926,3325,-1,0,-1
24.04,22.41,-64.26,3176,-6927,3332,-1,0,-1
24.04,22.41,-64.26,3175,-6917,3339,-1,0,-1
24.05,22.41,-64.26,3181,-6910,3323,-1,0,-1
24.05,22.41,-64.27,3173,-6908,3324,-1,0,0
24.05,22.41,-64.28,3180,-6910,3329,-1,0,0
24.05,22.39,-64.27,3177,-6917,3335,-1,0,0
24.05,22.39,-64.29,3173,-6921,3325,-1,0,0
24.04,22.38,-64.29,3163,-6923,3329,-1,0,0
24.04,22.37,-64.30,3155,-6928,3325,-1,0,0
24.04,22.37,-64.31,3153,-6932,3318,-1,0,-1
24.04,22.37,-64.31,3158,-6938,3319,-1,0,-1
24.04,22.36,-64.32,3159,-6932,3324,-1,0,-1
24.05,22.37,-64.32,3167,-6926,3331,-1,0,-1
24.05,22.37,-64.32,3168,-6931,3332,-1,0,-1
24.06,22.37,-64.32,3180,-6931,3331,-1,0,0
24.05,22.35,-64.32,3164,-6923,3326,-1,0,0
24.04,22.34,-64.33,3165,-6919,3324,-1,0,0
24.04,22.33,-64.33,3157,-6916,3328,-1,0,0
24.03,22.33,-64.33,3156,-6922,3325,-1,0,-1
24.04,22.33,-64.33,3148,-6925,3332,-1,0,-1
24.05,22.33,-64.34,3153,-6925,3330,-1,0,-1
24.05,22.33,-64.34,3162,-6924,3322,-1,0,0
24.05,22.33,-64.35,3157,-6927,3316,-1,0,-1
24.05,22.33,-64.36,3157,-6933,3310,-1,0,-1
24.06,22.33,-64.36,3165,-6928,3306,0,0,-1
24.06,22.34,-64.36,3157,-6925,3312,0,0,-1
24.06,22.34,-64.35,3156,-6926,3319,0,-1,-1
24.06,22.34,-64.35,3168,-6932,3331,0,-1,-1
24.07,22.34,-64.34,3162,-6930,3332,0,-1,-1
24.07,22.35,-64.33,3162,-6931,3330,0,-1,0
24.07,22.35,-64.34,3156,-6924,3334,0,-1,-1
24.07,22.35,-64.34,3158,-6926,3328,0,-1,-1
24.07,22.36,-64.34,3157,-6922,3331,0,-1,-1
24.07,22.36,-64.34,3158,-6931,3324,0,-1,-1
24.07,22.37,-64.33,3171,-6936,3319,0,-1,-1
24.07,22.37,-64.33,3167,-6928,3321,0,-1,-1
24.07,22.37,-64.33,3166,-6921,3326,0,-1,0
24.08,22.38,-64.33,3165,-6911,3328,0,-1,-1
24.08,22.38,-64.32,3177,-6923,3333,0,-1,0
24.08,22.39,-64.32,3175,-6932,3335,0,-1,-1
24.08,22.39,-64.31,3178,-6920,3341,0,-1,0
24.08,22.39,-64.30,3172,-6916,3337,0,-1,-1
24.08,22.39,-64.31,3171,-6920,3323,0,-1,-1
24.09,22.41,-64.31,3172,-6924,3328,0,-1,-1
24.09,22.41,-64.31,3183,-6929,3319,0,-1,-1
24.09,22.42,-64.30,3176,-6926,3326,0,-1,-1
24.10,22.42,-64.29,3181,-6918,3330,0,-1,-1
24.09,22.42,-64.29,3173,-6908,3326,0,-1,0
24.09,22.42,-64.29,3173,-6914,3318,0,-1,0
24.09,22.42,-64.29,3169,-6919,3305,0,-1,0
24.09,22.42,-64.29,3165,-6915,3312,0,-1,-1
24.09,22.42,-64.30,3176,-6916,3324,0,-1,-1
24.09,22.43,-64.29,3179,-6920,3330,0,-1,-1
24.09,22.44,-64.29,3180,-6917,3335,0,-1,-1
24.10,22.44,-64.28,3183,-6908,3337,0,-1,-1
24.10,22.44,-64.28,3187,-6902,3337,0,-1,0
24.10,22.44,-64.28,3184,-6900,3335,0,-1,0
24.09,22.44,-64.28,3186,-6910,3332,-1,-1,0
24.09,22.44,-64.29,3175,-6922,3324,-1,-1,0
24.09,22.44,-64.30,3172,-6929,3327,0,-1,0
24.08,22.44,-64.29,3166,-6929,3323,0,-1,-1
24.08,22.44,-64.29,3163,-6922,3320,0,-1,-1
24.09,22.45,-64.28,3174,-6907,3326,0,-1,-1
24.09,22.45,-64.27,3174,-6904,3334,0,-1,0
24.09,22.45,-64.27,3197,-6904,3342,0,-1,0
24.08,22.45,-64.26,3180,-6900,3340,-1,-1,0
24.09,22.46,-64.27,3194,-6914,3329,0,-1,0
24.09,22.46,-64.26,3177,-6905,3343,0,-1,0
24.08,22.45,-64.26,3175,-6911,3338,0,0,0
24.08,22.45,-64.26,3169,-6918,3343,0,-1,0
24.08,22.45,-64.26,3175,-6915,3338,-1,-1,0
24.08,22.45,-64.27,3171,-6922,3323,-1,-1,-1
24.08,22.46,-64.28,3173,-6927,3318,0,-1,-1
24.08,22.46,-64.28,3178,-6921,3315,0,0,0
24.07,22.46,-64.27,3175,-6914,3326,0,-1,0
24.07,22.45,-64.27,3172,-6914,3322,0,0,0
24.07,22.45,-64.27,3163,-6917,3319,0,-1,-1
24.07,22.46,-64.26,3178,-6921,3327,0,-1,-1
24.08,22.46,-64.26,3174,-6909,3333,0,-1,0
24.07,22.46,-64.26,3181,-6901,3340,0,-1,0
24.07,22.46,-64.26,3189,-6901,3339,-1,-1,0
24.07,22.47,-64.26,3182,-6909,3329,-1,0,0
24.06,22.46,-64.27,3166,-6908,3324,0,-1,0
24.06,22.45,-64.27,3170,-6913,3332,-1,-1,0
24.06,22.45,-64.27,3180,-6913,3330,0,-1,0
24.05,22.45,-64.28,3176,-6915,3331,-1,-1,0
24.05,22.45,-64.28,3170,-6918,3329,-1,-1,0
24.06,22.46,-64.29,3172,-6922,3314,-1,-1,-1
24.06,22.46,-64.28,3188,-6917,3324,0,0,0
24.05,22.45,-64.26,3168,-6900,3341,0,-1,-1
24.05,22.46,-64.26,3176,-6901,3341,-1,0,0
24.05,22.45,-64.27,3182,-6913,3322,-1,-1,-1
24.05,22.46,-64.26,3186,-6916,3330,0,0,0
24.05,22.45,-64.27,3182,-6917,3339,0,-1,0
24.04,22.45,-64.27,3177,-6916,3337,0,-1,0
24.04,22.45,-64.27,3170,-6920,3330,-1,-1,0
24.03,22.45,-64.27,3179,-6921,3319,0,0,0
24.03,22.45,-64.27,3170,-6910,3316,0,0,0
24.03,22.44,-64.27,3175,-6912,3325,-1,-1,0
24.02,22.44,-64.27,3173,-6911,3330,0,-1,0
24.02,22.44,-64.27,3180,-6910,3327,0,-1,0
24.02,22.45,-64.27,3173,-6910,3332,-1,-1,0
24.02,22.45,-64.28,3179,-6916,3326,-1,-1,0
24.02,22.46,-64.29,3189,-6917,3320,0,-1,0
24.02,22.46,-64.29,3188,-6906,3329,0,-1,0
24.02,22.46,-64.29,3187,-6898,3332,-1,-1,0
24.01,22.46,-64.30,3181,-6908,3321,-1,-1,0
24.01,22.45,-64.30,3173,-6920,3321,0,-1,0
24.00,22.44,-64.30,3171,-6924,3316,0,-1,0
24.00,22.45,-64.30,3171,-6922,3321,0,-1,0
24.00,22.45,-64.30,3169,-6923,3323,0,-1,-1
24.00,22.45,-64.30,3170,-6919,3321,0,-1,-1
24.01,22.46,-64.30,3167,-6911,3321,0,-1,-1
24.01,22.46,-64.29,3184,-6914,3324,0,-1,0
24.01,22.46,-64.28,3177,-6907,3332,0,-1,-1
24.00,22.46,-64.28,3187,-6907,3347,0,0,0
24.00,22.45,-64.28,3179,-6917,3338,-1,-1,-1
23.99,22.45,-64.28,3177,-6921,3345,0,-1,0
23.98,22.45,-64.27,3158,-6913,3342,0,-1,0
23.99,22.45,-64.28,3161,-6907,3326,-1,-1,0
23.99,22.45,-64.28,3169,-6903,3326,-1,-1,-1
23.99,22.45,-64.29,3172,-6906,3321,-1,0,-1
23.99,22.45,-64.29,3180,-6916,3332,-1,0,-1
24.00,22.46,-64.30,3192,-6925,3321,-1,0,-1
24.00,22.46,-64.31,3184,-6920,3321,0,0,-1
24.00,22.45,-64.30,3172,-6919,3327,0,0,-1
24.01,22.45,-64.29,3168,-6917,3321,-1,0,-1
24.02,22.46,-64.29,3174,-6913,3333,0,0,-1
24.02,22.46,-64.28,3179,-6916,3340,0,0,-1
24.04,22.47,-64.27,3190,-6909,3338,-1,0,-1
24.04,22.47,-64.28,3186,-6909,3347,-1,0,-1
24.04,22.46,-64.28,3185,-6913,3332,-1,0,0
24.04,22.46,-64.28,3171,-6911,3333,-1,0,0
24.04,22.45,-64.29,3169,-6916,3324,-1,0,-1
24.05,22.45,-64.30,3174,-6923,3324,-1,0,-1
24.06,22.46,-64.30,3171,-6927,3319,-1,0,-1
24.06,22.45,-64.30,3175,-6926,3325,-1,0,-1
24.06,22.45,-64.31,3180,-6924,3319,-1,0,0
24.06,22.45,-64.31,3189,-6918,3323,-1,0,-1
24.07,22.45,-64.30,3180,-6909,3330,-1,0,0
24.07,22.44,-64.31,3187,-6916,3329,-1,0,-1
24.08,22.45,-64.31,3181,-6910,3336,-1,0,-1
24.08,22.44,-64.31,3176,-6917,3330,-1,0,-1
24.08,22.44,-64.31,3175,-6910,3330,-1,0,-1
24.09,22.44,-64.31,3171,-6906,3332,-1,0,-1
24.09,22.43,-64.31,3169,-6910,3328,-1,0,-1
24.09,22.43,-64.32,3168,-6914,3327,-1,0,-1
24.09,22.42,-64.32,3170,-6920,3323,-1,0,0
24.10,22.43,-64.32,3179,-6922,3322,-1,0,-1
24.09,22.42,-64.33,3173,-6918,3313,-1,0,-1
24.10,22.42,-64.32,3183,-6917,3325,-1,0,-1
24.11,22.42,-64.32,3180,-6913,3341,-1,0,-1
24.10,22.41,-64.33,3173,-6911,3336,-1,0,0
24.10,22.40,-64.33,3171,-6924,3332,-1,0,-1
24.10,22.40,-64.34,3166,-6929,3327,-1,0,0
24.09,22.38,-64.34,3151,-6932,3324,-1,0,-1
24.10,22.38,-64.35,3149,-6935,3323,-1,0,-1
24.09,22.38,-64.35,3162,-6928,3314,-1,0,-1
24.10,22.38,-64.35,3166,-6924,3325,-1,0,-1
24.10,22.38,-64.35,3166,-6918,3328,-1,0,-1
24.10,22.37,-64.35,3158,-6913,3330,-1,0,-1
24.10,22.37,-64.36,3173,-6913,3323,-1,0,0
24.10,22.36,-64.36,3170,-6921,3316,-1,0,-1
24.11,22.37,-64.36,3170,-6925,3315,0,0,0
24.10,22.35,-64.36,3158,-6925,3318,-1,0,-1
24.10,22.35,-64.36,3161,-6921,3322,-1,0,-1
24.11,22.35,-64.36,3161,-6919,3331,-1,0,-1
24.11,22.35,-64.37,3161,-6917,3331,-1,0,-1
24.11,22.35,-64.37,3165,-6923,3325,-1,0,0
24.11,22.34,-64.38,3166,-6926,3317,-1,0,-1
24.11,22.34,-64.38,3160,-6921,3320,-1,0,0
24.11,22.33,-64.39,3155,-6927,3311,-1,0,0
24.12,22.33,-64.39,3151,-6926,3308,-1,0,-1
24.12,22.32,-64.39,3152,-6925,3317,-1,0,-1
24.12,22.32,-64.39,3146,-6927,3327,-1,0,-1
24.11,22.32,-64.39,3150,-6931,3333,-1,0,-1
24.12,22.32,-64.39,3156,-6933,3322,-1,0,0
24.12,22.31,-64.39,3150,-6931,3324,-1,0,-1
24.12,22.31,-64.39,3148,-6928,3320,-1,-1,-1
24.11,22.31,-64.40,3150,-6933,3324,0,-1,-1
24.12,22.32,-64.39,3145,-6932,3324,0,-1,-1
24.12,22.33,-64.39,3145,-6928,3335,-1,-1,0
24.12,22.33,-64.39,3151,-6926,3333,0,-1,-1
24.13,22.34,-64.40,3168,-6933,3322,0,-1,-1
24.13,22.35,-64.39,3167,-6946,3308,0,-1,-1
24.14,22.36,-64.37,3173,-6941,3329,0,-1,0
24.14,22.37,-64.36,3164,-6931,3338,0,-1,-1
24.14,22.37,-64.34,3151,-6925,3333,0,-1,-1
24.14,22.38,-64.34,3157,-6925,3336,0,-1,-1
24.16,22.39,-64.33,3166,-6927,3344,0,-1,-1
24.16,22.40,-64.31,3168,-6929,3335,0,-1,-1
24.17,22.41,-64.31,3182,-6931,3315,0,-1,-1
24.17,22.42,-64.30,3190,-6915,3326,0,-1,0
24.17,22.42,-64.30,3175,-6920,3312,0,-1,-1
24.16,22.41,-64.28,3169,-6915,3318,0,-1,0
24.16,22.42,-64.28,3165,-6912,3333,-1,-1,-1
24.17,22.42,-64.28,3174,-6928,3322,0,-1,0
24.17,22.43,-64.26,3211,-6919,3358,0,0,0
24.16,22.42,-64.26,3121,-6921,3324,0,0,-1
24.17,22.43,-64.26,3172,-6918,3330,0,-1,0
24.16,22.43,-64.23,3173,-6891,3372,0,-1,0
24.16,22.43,-64.24,3144,-6914,3344,-1,-1,-1
24.17,22.45,-64.25,3209,-6930,3325,0,0,0
24.16,22.44,-64.25,3151,-6926,3320,-1,-1,-1
24.16,22.44,-64.24,3209,-6908,3310,1,-1,0
24.15,22.43,-64.23,3154,-6888,3360,-1,0,-1
24.16,22.44,-64.25,3187,-6929,3314,0,-1,-1
24.14,22.43,-64.23,3153,-6926,3327,0,0,0
24.14,22.43,-64.23,3177,-6910,3352,0,-1,0
24.14,22.43,-64.22,3158,-6893,3354,0,0,-1
24.14,22.43,-64.24,3142,-6922,3324,-1,-1,-1
24.14,22.44,-64.24,3191,-6926,3329,0,-1,0
24.14,22.44,-64.23,3152,-6915,3321,0,0,-1
24.14,22.44,-64.23,3200,-6921,3322,0,-1,0
24.13,22.44,-64.24,3142,-6927,3315,-1,0,-1
24.14,22.45,-64.23,3207,-6903,3321,1,-1,0
24.13,22.44,-64.22,3153,-6922,3346,-1,0,0
24.13,22.45,-64.22,3187,-6917,3320,1,-1,0
24.13,22.44,-64.21,3156,-6899,3337,-1,0,-1
24.13,22.45,-64.21,3173,-6918,3331,0,-1,0
24.12,22.45,-64.20,3175,-6909,3334,0,-1,-1
24.12,22.45,-64.20,3178,-6898,3333,0,0,0
24.12,22.44,-64.20,3159,-6897,3346,-1,-2,-1
24.12,22.45,-64.21,3173,-6927,3314,0,-1,0
24.11,22.45,-64.21,3184,-6919,3338,0,-1,0
24.11,22.45,-64.21,3180,-6913,3346,-1,-1,0
24.10,22.44,-64.22,3150,-6915,3321,-1,-1,-1
24.10,22.45,-64.23,3194,-6925,3351,-1,-1,0
24.09,22.44,-64.23,3158,-6918,3330,0,-1,-1
24.10,22.45,-64.23,3165,-6934,3339,0,0,0
24.08,22.44,-64.23,3173,-6913,3343,0,-2,-1
24.09,22.45,-64.22,3169,-6937,3349,-1,0,0
24.08,22.44,-64.23,3145,-6937,3308,0,0,0
24.08,22.45,-64.23,3182,-6924,3325,0,-1,0
24.08,22.45,-64.22,3163,-6908,3349,0,-1,0
24.08,22.46,-64.23,3159,-6933,3323,-1,-1,-1
24.07,22.46,-64.22,3194,-6911,3324,0,-1,0
24.06,22.45,-64.22,3169,-6899,3358,-1,-1,0
24.06,22.46,-64.23,3173,-6918,3340,0,-1,0
24.05,22.46,-64.23,3158,-6912,3337,0,-1,0
24.06,22.46,-64.23,3192,-6917,3349,-1,-1,0
24.04,22.46,-64.25,3164,-6922,3336,-1,-1,0
24.03,22.46,-64.26,3171,-6920,3320,0,-1,0
24.03,22.45,-64.26,3161,-6905,3338,0,-1,-1
24.02,22.46,-64.26,3156,-6920,3340,-1,-1,-1
24.03,22.47,-64.27,3172,-6924,3329,0,-1,-1
24.03,22.48,-64.27,3179,-6928,3331,0,-1,-1
24.04,22.49,-64.27,3162,-6934,3317,0,-1,-1
24.04,22.49,-64.27,3174,-6936,3306,0,-1,-1
24.04,22.51,-64.27,3194,-6920,3311,0,-1,-1
24.04,22.50,-64.25,3183,-6913,3325,0,0,0
24.04,22.51,-64.25,3184,-6921,3326,0,-1,-1
24.04,22.51,-64.24,3182,-6920,3325,0,-1,0
24.04,22.52,-64.23,3171,-6920,3324,0,-1,-1
24.04,22.52,-64.22,3172,-6920,3319,0,-1,-1
24.04,22.52,-64.22,3177,-6912,3325,0,-1,-1
24.05,22.53,-64.21,3173,-6905,3325,0,-1,-1
24.05,22.54,-64.21,3178,-6908,3318,0,-1,-1
24.05,22.54,-64.21,3182,-6913,3323,0,-1,0
24.05,22.54,-64.21,3185,-6904,3324,0,-1,0
24.05,22.55,-64.20,3177,-6896,3325,0,-1,0
24.04,22.54,-64.20,3173,-6897,3330,0,-1,0
24.04,22.55,-64.20,3177,-6908,3344,-1,-1,0
24.04,22.55,-64.21,3183,-6910,3337,0,-1,0
24.03,22.54,-64.21,3178,-6915,3336,0,-1,0
24.04,22.55,-64.21,3182,-6915,3323,0,-1,0
24.03,22.54,-64.22,3172,-6914,3327,0,-1,0
24.02,22.55,-64.22,3183,-6915,3322,0,-1,0
24.02,22.55,-64.23,3177,-6924,3318,0,-1,0
24.02,22.55,-64.23,3183,-6925,3318,0,-1,0
24.01,22.55,-64.22,3181,-6917,3318,0,-1,0
24.01,22.55,-64.22,3186,-6914,3335,0,-1,0
24.02,22.55,-64.21,3182,-6914,3337,0,-1,-1
24.01,22.55,-64.21,3182,-6908,3336,0,-1,-1
24.01,22.56,-64.21,3173,-6895,3338,0,0,0
24.01,22.56,-64.21,3186,-6899,3343,-1,-1,0
24.01,22.56,-64.22,3193,-6901,3333,-1,0,-1
24.01,22.55,-64.22,3186,-6907,3340,-1,0,0
24.01,22.55,-64.24,3177,-6921,3324,-1,-1,-1
24.00,22.54,-64.24,3175,-6923,3328,0,0,0
24.00,22.54,-64.24,3163,-6921,3342,-1,0,-1
24.01,22.54,-64.25,3179,-6921,3330,-1,0,-1
24.01,22.54,-64.25,3184,-6921,3325,-1,0,-1
24.02,22.54,-64.25,3183,-6917,3323,-1,0,-1
24.03,22.55,-64.25,3187,-6909,3323,0,0,-1
24.02,22.55,-64.25,3178,-6913,3324,-1,0,-1
24.03,22.54,-64.25,3189,-6911,3329,0,0,0
24.03,22.54,-64.24,3188,-6913,3323,0,0,-1
24.03,22.54,-64.24,3174,-6911,3331,-1,0,0
24.03,22.53,-64.24,3168,-6913,3330,-1,0,-1
24.03,22.53,-64.25,3171,-6916,3322,-1,0,-1
24.03,22.53,-64.25,3184,-6916,3334,-1,0,-1
24.03,22.53,-64.26,3177,-6922,3328,-1,0,-1
24.03,22.53,-64.26,3178,-6919,3328,-1,0,-1
24.04,22.53,-64.27,3188,-6911,3324,-1,0,0
24.04,22.53,-64.27,3184,-6908,3323,-1,0,0
24.04,22.52,-64.28,3178,-6917,3328,-1,0,-1
24.04,22.51,-64.28,3175,-6919,3330,-1,0,-1
24.04,22.51,-64.27,3157,-6914,3339,0,0,-1
24.03,22.50,-64.27,3138,-6901,3358,-1,0,-1
24.05,22.50,-64.30,3151,-6927,3325,-2,0,-1
24.06,22.51,-64.32,3183,-6951,3303,-1,0,-1
24.07,22.51,-64.31,3186,-6933,3314,-1,1,-1
24.08,22.50,-64.30,3158,-6900,3347,-1,0,-1
24.08,22.50,-64.32,3184,-6886,3324,-1,0,0
24.08,22.50,-64.35,3162,-6898,3339,-2,0,-1
24.09,22.49,-64.38,3216,-6905,3330,-2,0,0
24.07,22.47,-64.41,3142,-6935,3296,-1,0,-1
24.07,22.47,-64.44,3212,-6952,3294,-1,0,0
24.06,22.45,-64.46,3160,-6941,3294,-1,1,0
24.05,22.44,-64.46,3161,-6952,3301,-1,0,-1
24.05,22.43,-64.46,3206,-6951,3320,-1,0,0
24.04,22.41,-64.46,3136,-6928,3315,-1,0,-1
24.05,22.41,-64.48,3185,-6967,3293,-1,0,0
24.04,22.39,-64.47,3138,-6951,3285,0,0,-1
24.05,22.39,-64.46,3165,-6929,3306,0,0,0
24.05,22.39,-64.44,3158,-6901,3328,-1,0,-1
24.05,22.38,-64.47,3145,-6948,3284,-1,0,0
24.05,22.38,-64.46,3142,-6920,3305,0,0,0
24.05,22.37,-64.48,3137,-6954,3284,-1,0,0
24.04,22.37,-64.47,3148,-6947,3309,-1,-1,-1
24.04,22.37,-64.47,3133,-6949,3292,0,-1,0
24.05,22.38,-64.46,3159,-6940,3291,0,-1,-1
24.06,22.38,-64.45,3172,-6939,3299,0,0,0
24.05,22.37,-64.44,3141,-6959,3308,-1,-1,-1
24.07,22.39,-64.42,3180,-6979,3260,2,0,-1
24.08,22.39,-64.35,3149,-6931,3352,0,0,-1
24.09,22.40,-64.35,3134,-6981,3279,1,0,-2
24.12,22.42,-64.27,3187,-6944,3351,1,0,-1
24.14,22.43,-64.24,3154,-6962,3303,1,0,-1
24.17,22.44,-64.17,3186,-6966,3271,2,0,-1
24.18,22.44,-64.07,3163,-6917,3346,2,1,-1
24.22,22.47,-64.02,3185,-6967,3320,1,0,-2
24.24,22.47,-63.91,3171,-6948,3336,3,2,-2
24.29,22.50,-63.81,3186,-6923,3360,3,0,-2
24.30,22.50,-63.69,3172,-6880,3414,3,1,-1
24.32,22.50,-63.60,3127,-6852,3433,1,0,-2
24.34,22.51,-63.52,3176,-6831,3453,2,1,-1
24.37,22.52,-63.45,3150,-6811,3467,0,0,-2
24.41,22.55,-63.43,3171,-6888,3411,1,1,-2
24.44,22.57,-63.36,3185,-6868,3439,1,1,-2
24.49,22.59,-63.31,3163,-6886,3425,0,1,-3
24.54,22.61,-63.23,3153,-6852,3456,1,1,-2
24.58,22.63,-63.17,3152,-6863,3435,1,1,-2
24.63,22.66,-63.12,3163,-6874,3427,2,1,-2
24.67,22.69,-63.03,3133,-6857,3430,2,0,-2
24.71,22.72,-62.96,3146,-6885,3400,2,0,-3
24.81,22.79,-62.85,3239,-6916,3378,4,1,-3
24.86,22.81,-62.70,3172,-6889,3411,4,2,-4
24.97,22.89,-62.52,3258,-6898,3423,5,2,-5
25.08,22.94,-62.31,3228,-6895,3452,6,3,-5
25.20,23.00,-62.05,3220,-6850,3478,7,4,-6
25.34,23.08,-61.79,3261,-6798,3559,7,3,-6
25.49,23.14,-61.53,3225,-6733,3609,5,4,-6
25.62,23.22,-61.29,3222,-6697,3618,6,3,-6
25.77,23.29,-61.03,3236,-6623,3707,6,3,-5
25.89,23.35,-60.82,3199,-6581,3769,3,2,-5
26.01,23.44,-60.65,3278,-6583,3808,3,1,-4
26.11,23.50,-60.51,3331,-6563,3810,2,1,-3
26.18,23.53,-60.40,3274,-6583,3824,1,2,-4
26.26,23.58,-60.32,3342,-6633,3759,1,1,-3
26.33,23.61,-60.22,3317,-6646,3699,4,2,-3
26.40,23.64,-60.07,3314,-6641,3743,3,1,-3
26.47,23.68,-59.92,3286,-6624,3772,3,2,-3
26.55,23.72,-59.78,3301,-6604,3766,4,1,-3
26.62,23.76,-59.61,3317,-6579,3794,4,1,-3
26.67,23.78,-59.45,3289,-6541,3828,4,1,-3
26.74,23.83,-59.29,3307,-6544,3871,3,0,-3
26.83,23.88,-59.16,3325,-6577,3854,3,2,-4
26.92,23.93,-58.99,3371,-6569,3849,5,2,-4
27.00,23.97,-58.79,3365,-6526,3891,5,2,-4
27.08,24.01,-58.62,3388,-6527,3903,5,1,-3
27.16,24.04,-58.40,3357,-6478,3953,5,2,-3
27.24,24.07,-58.23,3385,-6484,3939,4,2,-4
27.31,24.10,-58.03,3359,-6455,3942,6,2,-3
27.38,24.13,-57.84,3348,-6426,3999,5,1,-3
27.45,24.16,-57.65,3393,-6418,4040,5,2,-3
27.51,24.18,-57.47,3369,-6390,4046,5,2,-3
27.56,24.20,-57.29,3361,-6384,4052,4,1,-3
27.61,24.22,-57.13,3391,-6366,4059,5,1,-2
27.66,24.24,-56.95,3387,-6361,4103,5,1,-3
27.72,24.26,-56.75,3403,-6321,4136,5,1,-2
27.75,24.26,-56.60,3363,-6301,4122,4,1,-2
27.79,24.28,-56.42,3348,-6271,4145,5,0,-2
27.82,24.30,-56.27,3424,-6281,4186,4,1,-1
27.85,24.30,-56.13,3349,-6330,4210,3,0,-2
27.90,24.33,-56.01,3381,-6362,4157,4,0,-3
27.95,24.35,-55.82,3412,-6310,4194,5,1,-2
27.97,24.36,-55.67,3410,-6335,4186,6,1,-2
28.01,24.37,-55.47,3409,-6302,4200,5,1,-2
28.03,24.37,-55.27,3411,-6267,4230,7,1,-1
28.06,24.37,-55.05,3365,-6240,4275,6,1,-3
28.11,24.41,-54.86,3434,-6247,4256,7,1,-2
28.14,24.40,-54.62,3391,-6284,4279,8,1,-3
28.17,24.40,-54.36,3431,-6239,4306,9,2,-2
28.17,24.37,-54.05,3392,-6151,4437,8,1,0
28.18,24.36,-53.84,3348,-6163,4386,7,1,-2
28.22,24.39,-53.60,3429,-6150,4362,10,1,-2
28.27,24.39,-53.26,3413,-6073,4460,9,2,-3
28.31,24.40,-52.95,3456,-6040,4530,10,2,-2
28.34,24.38,-52.66,3410,-5986,4622,6,1,-2
28.39,24.41,-52.45,3482,-6027,4600,7,2,-2
28.43,24.40,-52.18,3476,-5935,4658,6,2,-2
28.47,24.41,-52.00,3487,-5968,4697,4,1,-2
28.45,24.36,-51.81,3495,-5890,4713,5,3,1
28.47,24.32,-51.66,3454,-5902,4716,2,2,-2
28.51,24.31,-51.54,3429,-5953,4704,2,3,-3
28.58,24.33,-51.42,3350,-6011,4671,4,1,-5
28.63,24.34,-51.18,3599,-5931,4841,5,3,2
28.53,24.18,-51.07,3413,-5837,4697,1,4,1
28.57,24.16,-50.99,3316,-5924,4569,4,1,-4
28.67,24.22,-50.81,3423,-5928,4605,6,2,-4
28.72,24.19,-50.51,3489,-5815,4780,8,5,-1
28.74,24.13,-50.29,3288,-5828,4854,3,2,-4
28.83,24.17,-50.16,3267,-5861,4720,6,1,-4
28.87,24.18,-49.89,3285,-5743,4850,5,0,-2
28.90,24.19,-49.73,3401,-5747,4769,6,3,-1
28.92,24.16,-49.50,3338,-5722,4866,6,1,-3
29.00,24.21,-49.37,3392,-5777,4868,3,0,-4
29.03,24.21,-49.18,3387,-5794,4890,7,1,-2
29.06,24.22,-48.98,3436,-5828,5049,4,1,-1
29.05,24.20,-48.90,3442,-5874,5000,3,0,0
29.03,24.14,-48.76,3503,-5884,4909,5,4,1
28.97,23.99,-48.47,3443,-5636,4726,13,8,2
28.90,23.83,-48.08,3309,-5523,5095,5,3,0
28.88,23.77,-48.00,3297,-5593,4976,3,3,1
28.85,23.68,-47.78,3247,-5442,4980,9,3,-1
28.82,23.60,-47.51,3239,-5265,5150,2,2,1
28.81,23.52,-47.29,3184,-5134,4875,12,6,-1
28.91,23.52,-46.95,3077,-5262,5436,0,-2,-7
29.01,23.65,-47.08,3220,-5530,5233,-4,-3,-2
29.02,23.68,-47.06,3301,-5552,5102,4,1,-1
29.03,23.64,-46.95,3339,-5550,5243,0,1,-1
29.02,23.61,-46.90,3279,-5553,5223,1,1,-1
29.04,23.61,-46.86,3280,-5521,5247,-1,0,-1
29.03,23.60,-46.89,3244,-5571,5185,-1,-1,0
29.02,23.61,-46.92,3248,-5663,5172,-1,-1,0
29.01,23.61,-46.92,3280,-5637,5138,1,-1,0
29.01,23.62,-46.89,3298,-5598,5183,0,-1,-1
29.03,23.66,-46.88,3316,-5574,5163,0,-2,-1
29.05,23.69,-46.87,3345,-5564,5197,0,-1,-1
29.07,23.72,-46.88,3353,-5586,5149,-1,-1,-1
29.13,23.77,-46.86,3400,-5576,5125,1,0,-3
29.21,23.82,-46.80,3428,-5589,5166,1,1,-3
29.20,23.77,-46.73,3396,-5534,5214,1,2,1
29.19,23.73,-46.70,3336,-5539,5158,0,1,-1
29.18,23.69,-46.67,3289,-5558,5191,1,1,-1
29.16,23.66,-46.64,3255,-5539,5186,1,0,0
29.15,23.63,-46.59,3214,-5537,5176,1,0,-1
29.14,23.62,-46.55,3195,-5489,5207,1,-1,-1
29.14,23.65,-46.54,3269,-5491,5202,0,-2,-1
29.16,23.67,-46.54,3321,-5523,5173,0,0,-1
29.17,23.67,-46.50,3337,-5504,5173,1,0,0
29.15,23.64,-46.45,3334,-5451,5244,0,0,0
29.12,23.62,-46.46,3312,-5430,5281,-1,-1,1
29.06,23.60,-46.50,3310,-5423,5319,-3,-2,2
29.01,23.58,-46.60,3322,-5466,5298,-3,-2,2
28.96,23.58,-46.73,3305,-5573,5254,-4,-3,1
28.94,23.59,-46.87,3380,-5667,5148,-2,-1,1
28.89,23.57,-46.93,3327,-5650,5117,-2,-1,1
28.86,23.54,-46.96,3273,-5598,5100,0,-1,0
28.87,23.56,-46.95,3292,-5546,5122,-1,0,-1
28.91,23.57,-46.94,3276,-5601,5123,0,0,-2
28.93,23.59,-46.90,3290,-5599,5136,1,0,-1
28.95,23.59,-46.86,3279,-5573,5155,1,0,-2
28.97,23.60,-46.83,3284,-5577,5154,0,0,-2
28.99,23.59,-46.79,3253,-5567,5136,1,0,-2
29.03,23.61,-46.73,3299,-5540,5187,1,1,-2
29.05,23.60,-46.67,3269,-5498,5197,0,0,-1
29.06,23.60,-46.65,3230,-5503,5192,0,-1,-1
29.07,23.61,-46.63,3271,-5520,5198,0,-1,-1
29.09,23.64,-46.62,3293,-5564,5190,0,-1,-2
29.13,23.67,-46.60,3338,-5625,5160,1,0,-2
29.16,23.69,-46.54,3349,-5631,5146,2,0,-2
29.19,23.71,-46.45,3305,-5638,5178,2,0,-3
29.26,23.75,-46.37,3350,-5618,5144,3,0,-2
29.29,23.75,-46.22,3311,-5539,5215,4,1,-2
29.33,23.76,-46.10,3268,-5482,5219,3,0,-2
29.36,23.79,-45.98,3277,-5475,5278,2,-1,-2
29.43,23.86,-45.93,3257,-5556,5284,2,-2,-4
29.47,23.92,-45.84,3391,-5532,5364,3,0,-1
29.46,23.93,-45.80,3382,-5511,5471,-1,-3,0
29.43,23.94,-45.89,3477,-5523,5309,-1,0,2
29.37,23.88,-45.86,3382,-5424,5232,1,1,1
29.39,23.87,-45.80,3373,-5369,5282,1,1,-1
29.41,23.88,-45.81,3407,-5368,5293,-3,0,-2
29.42,23.87,-45.85,3318,-5485,5158,0,1,-1
29.41,23.83,-45.79,3397,-5506,5104,4,2,0
29.42,23.77,-45.58,3395,-5346,5278,7,5,-1
29.38,23.69,-45.51,3406,-5500,5313,-3,1,0
29.30,23.56,-45.46,3332,-5532,5057,10,6,2
29.28,23.47,-45.13,3247,-5419,5426,3,2,-1
29.23,23.37,-45.08,3304,-5442,5162,4,5,3
29.12,23.21,-44.75,3087,-5354,5474,7,0,0
29.10,23.18,-44.73,3340,-5514,5413,1,1,3
28.91,23.01,-44.63,3317,-5628,5377,7,4,6
28.72,22.77,-44.38,3344,-5442,5266,12,6,7
28.59,22.48,-43.92,3178,-4885,5003,14,14,2
28.54,22.24,-43.26,2867,-4676,5622,13,3,-1
28.67,22.28,-43.13,2946,-4818,5676,-4,0,-4
28.73,22.27,-43.08,2853,-4851,5389,5,2,-3
28.77,22.27,-42.88,2890,-4900,5831,1,-3,-1
28.79,22.36,-43.01,3007,-5004,5735,-7,-5,-1
28.84,22.48,-43.15,3122,-5234,5657,-3,-5,-3
28.88,22.56,-43.28,3228,-5433,5614,-3,-3,-1
28.88,22.60,-43.34,3219,-5482,5491,0,-1,-1
28.95,22.67,-43.33,3236,-5353,5479,-1,-2,-4
29.07,22.77,-43.29,3244,-5308,5549,0,-1,-5
29.19,22.86,-43.26,3239,-5305,5561,-1,-1,-5
29.27,22.91,-43.25,3208,-5307,5573,0,0,-3
29.32,22.95,-43.26,3178,-5265,5562,-2,-2,-2
29.36,23.00,-43.29,3247,-5287,5546,-2,-1,-2
29.38,23.02,-43.31,3210,-5317,5556,-1,-1,-1
29.41,23.05,-43.34,3183,-5399,5589,-1,-3,-2
29.43,23.13,-43.37,3260,-5339,5506,1,-2,-2
29.44,23.14,-43.27,3258,-5118,5599,1,0,-1
29.48,23.17,-43.37,3271,-5282,5530,-7,-1,-2
29.51,23.19,-43.45,3310,-5345,5426,0,0,-2
29.52,23.18,-43.44,3364,-5330,5526,-1,1,0
29.47,23.10,-43.39,3320,-5230,5541,2,3,2
29.41,23.02,-43.39,3173,-5223,5627,-4,-1,0
29.41,23.00,-43.51,3221,-5329,5427,0,1,0
29.39,22.94,-43.38,3172,-5179,5607,3,1,0
29.44,22.97,-43.39,3087,-5313,5790,-7,-5,-3
29.44,22.99,-43.60,3222,-5194,5181,1,5,2
29.45,22.94,-43.48,3110,-5268,5628,-4,-3,-3
29.49,22.99,-43.60,3241,-5406,5406,0,1,-1
29.47,22.93,-43.47,3295,-5126,5370,8,4,1
29.48,22.84,-43.24,3142,-5131,5746,-2,1,-1
29.53,22.82,-43.41,3232,-5366,5314,-3,4,-2
29.52,22.74,-43.25,3180,-5209,5559,8,2,1
29.52,22.68,-43.10,3136,-5081,5746,-1,0,0
29.50,22.63,-43.23,3102,-5186,5403,0,3,1
29.56,22.63,-43.10,3093,-5137,5643,-3,-1,-5
29.63,22.69,-43.21,3224,-5366,5506,-2,0,-2
29.67,22.63,-42.99,3129,-5112,5414,5,7,-3
29.78,22.61,-42.93,3262,-5370,5569,-3,1,-3
29.79,22.56,-42.83,3107,-5275,5681,1,0,-3
29.81,22.56,-42.82,3194,-5226,5583,0,1,0
29.80,22.50,-42.72,3138,-5228,5688,-1,2,-1
29.80,22.44,-42.72,3208,-5162,5531,2,4,1
29.79,22.34,-42.54,3107,-5004,5675,3,3,-2
29.85,22.31,-42.51,3039,-5103,5718,-4,1,-2
29.87,22.28,-42.59,3037,-5142,5512,0,2,-2
29.92,22.29,-42.46,3082,-5094,5788,-1,-1,-2
29.95,22.26,-42.50,3186,-5043,5660,-3,3,0
30.02,22.21,-42.51,2978,-5155,5550,-3,3,-7
30.14,22.24,-42.51,3089,-5174,5633,0,2,-3
30.19,22.23,-42.46,3057,-4999,5694,-3,1,-3
30.31,22.27,-42.52,3075,-5076,5680,-3,1,-5
30.40,22.32,-42.60,3010,-5103,5509,-4,0,-2
30.49,22.37,-42.56,2918,-5018,5466,1,-1,-8
30.68,22.55,-42.56,3189,-5158,5767,-4,-3,-2
30.70,22.61,-42.69,3035,-5204,5624,-5,-4,-4
30.91,22.78,-42.73,3125,-5249,5385,-3,0,-11
31.17,22.86,-42.51,3207,-5120,5207,7,8,-10
31.66,22.98,-42.13,3194,-5254,5346,7,13,-22
32.02,23.08,-41.76,3357,-5441,6058,-1,-1,-9
32.17,23.24,-41.95,3356,-5448,5887,-4,-3,-5
32.32,23.34,-41.89,3300,-5110,5796,1,1,-6
32.54,23.45,-41.87,3248,-4986,5710,-5,1,-9
32.73,23.52,-41.90,3241,-4978,5689,-4,1,-6
32.93,23.63,-41.93,3218,-4946,5647,-4,1,-7
33.19,23.74,-41.91,3164,-4967,5443,-2,5,-13
33.54,23.84,-41.70,3252,-4940,5442,2,7,-12
33.90,23.95,-41.49,3259,-4865,5547,-5,4,-14
34.25,24.14,-41.50,3285,-5006,5631,-3,1,-12
34.49,24.36,-41.58,3392,-4987,5886,-9,-6,-7
34.62,24.54,-41.93,3422,-4997,5621,-12,-4,-4
34.71,24.66,-42.11,3408,-5054,5666,-9,-5,-6
34.80,24.81,-42.31,3473,-5075,5548,-4,-2,-1
34.89,24.89,-42.37,3510,-5106,5535,-4,-2,-5
34.98,24.95,-42.47,3499,-5179,5488,-2,3,-4
35.03,24.99,-42.52,3434,-5241,5776,-8,-7,-5
35.13,25.18,-42.78,3467,-5232,5556,-6,-5,-4
35.24,25.35,-43.00,3538,-5022,5365,-11,-4,-4
35.31,25.48,-43.24,3431,-5009,5230,-5,-4,-4
35.45,25.61,-43.35,3463,-5135,5357,-7,-5,-6
35.53,25.78,-43.62,3532,-5006,5205,-11,-5,-2
35.56,25.86,-43.81,3537,-4933,5177,-4,-2,-2
35.70,25.94,-43.97,3578,-5123,5261,-11,3,-6
35.65,25.87,-44.12,3582,-5205,5421,-7,-2,4
35.53,25.81,-44.35,3602,-5409,5389,-5,-2,0
35.47,25.79,-44.53,3808,-5222,5262,-7,2,7
35.27,25.52,-44.58,3664,-5192,5210,2,9,3
35.21,25.28,-44.48,3600,-5197,5420,-2,7,2
35.14,25.14,-44.51,3565,-5312,5513,-3,2,2
35.06,25.04,-44.56,3580,-5236,5417,-2,2,3
35.04,24.92,-44.54,3527,-5286,5266,1,8,-2
35.07,24.72,-44.33,3427,-5266,5324,3,10,0
35.03,24.56,-44.26,3461,-5087,5440,-3,4,3
34.89,24.35,-44.36,3336,-5079,5428,-6,4,3
34.83,24.18,-44.47,3301,-5189,5377,-5,5,1
34.74,24.05,-44.59,3254,-5245,5423,-5,2,2
34.63,23.97,-44.77,3268,-5214,5435,-8,-2,3
34.55,23.88,-44.99,3328,-5254,5363,-7,3,3
34.41,23.72,-45.17,3294,-5281,5336,-6,3,5
34.26,23.51,-45.24,3283,-5335,5327,-1,5,5
34.04,23.26,-45.27,3262,-5392,5354,-1,4,8
33.81,23.00,-45.30,3200,-5480,5302,1,6,7
33.58,22.65,-45.27,3155,-5521,5265,2,9,8
33.35,22.31,-45.19,3150,-5498,5293,3,9,9
33.09,21.91,-45.11,3085,-5472,5347,2,9,9
32.89,21.58,-45.04,2974,-5494,5511,1,6,7
32.69,21.36,-45.09,3003,-5497,5569,-3,2,7
32.45,21.16,-45.21,3050,-5501,5453,-3,2,8
32.27,20.93,-45.24,3075,-5469,5367,0,7,6
32.09,20.63,-45.17,3046,-5435,5327,2,9,7
31.91,20.28,-45.07,2929,-5384,5350,2,10,7
31.68,19.89,-45.01,2808,-5403,5403,1,9,8
31.45,19.55,-44.99,2762,-5452,5490,0,7,9
31.17,19.25,-45.06,2747,-5516,5497,-2,4,10
30.90,18.92,-45.07,2716,-5593,5500,1,6,10
30.63,18.58,-45.05,2650,-5639,5551,2,6,9
30.35,18.28,-45.04,2583,-5605,5615,-1,2,10
30.07,18.03,-45.14,2578,-5633,5600,-2,2,9
29.81,17.82,-45.26,2532,-5658,5616,-3,-1,8
29.58,17.71,-45.42,2550,-5728,5517,-3,-2,7
29.37,17.57,-45.51,2547,-5756,5479,-1,0,7
29.19,17.44,-45.54,2529,-5780,5562,0,0,5
29.05,17.35,-45.60,2536,-5830,5529,-1,0,4
28.92,17.25,-45.63,2486,-5827,5448,1,0,4
28.80,17.16,-45.61,2508,-5798,5500,1,-1,4
28.72,17.11,-45.61,2516,-5802,5508,0,0,2
28.65,17.02,-45.58,2478,-5841,5496,2,2,2
28.58,16.93,-45.51,2454,-5827,5499,3,1,2
28.53,16.87,-45.41,2445,-5777,5547,3,0,1
28.51,16.85,-45.31,2445,-5779,5542,4,0,1
28.47,16.78,-45.19,2416,-5767,5569,5,1,1
28.45,16.73,-45.05,2396,-5718,5565,5,1,1
28.44,16.67,-44.90,2398,-5669,5544,6,2,0
28.44,16.60,-44.72,2389,-5583,5588,5,2,0
28.44,16.53,-44.53,2362,-5519,5644,5,3,0
28.44,16.47,-44.37,2355,-5517,5634,5,1,0
28.45,16.43,-44.18,2376,-5529,5628,6,2,0
28.48,16.38,-43.97,2408,-5549,5640,7,3,0
28.50,16.30,-43.73,2410,-5526,5661,8,3,0
28.55,16.25,-43.46,2437,-5516,5681,9,3,-1
28.61,16.21,-43.14,2470,-5443,5676,11,3,-1
28.67,16.21,-42.81,2420,-5451,5694,11,0,-2
28.74,16.22,-42.49,2381,-5531,5748,11,2,-2
28.77,16.12,-42.18,2266,-5595,5850,9,5,-1
28.77,15.97,-41.91,2184,-5635,5819,10,5,0
28.73,15.83,-41.60,2187,-5560,5835,12,3,2
28.69,15.68,-41.22,2219,-5385,5991,12,5,2
28.66,15.53,-40.88,2167,-5278,6131,9,3,2
28.63,15.39,-40.58,2105,-5225,6127,9,4,1
28.61,15.27,-40.29,2076,-5223,6079,10,3,1
28.62,15.18,-39.97,2134,-5190,6040,11,3,0
28.62,15.10,-39.64,2181,-5155,6058,11,3,0
28.63,14.98,-39.29,2190,-5069,6141,11,6,1
28.65,14.83,-38.95,2181,-4977,6213,10,6,0
28.65,14.68,-38.64,2148,-4953,6264,9,6,0
28.66,14.53,-38.37,2135,-4980,6291,8,6,0
28.67,14.33,-38.10,2092,-4943,6313,8,7,0
28.68,14.17,-37.84,2064,-4891,6321,7,7,0
28.67,14.00,-37.60,1982,-4837,6338,6,5,0
28.65,13.83,-37.39,1961,-4851,6379,7,6,1
28.61,13.64,-37.18,1939,-4856,6408,6,6,2
28.54,13.46,-37.01,1912,-4871,6422,6,5,3
28.46,13.26,-36.84,1834,-4794,6459,4,6,3
28.40,13.06,-36.71,1765,-4738,6484,3,6,2
28.31,12.86,-36.62,1756,-4697,6490,2,5,3
28.23,12.69,-36.55,1791,-4646,6534,1,4,3
28.16,12.54,-36.51,1787,-4620,6535,-1,4,2
28.09,12.40,-36.51,1775,-4654,6559,-1,4,2
28.02,12.25,-36.55,1726,-4712,6530,-2,4,2
27.95,12.10,-36.59,1671,-4762,6476,-2,4,1
27.90,11.97,-36.61,1639,-4753,6481,-2,3,2
27.84,11.87,-36.66,1610,-4759,6507,-3,2,1
27.79,11.80,-36.74,1611,-4806,6516,-4,1,1
27.73,11.73,-36.84,1613,-4817,6523,-4,2,1
27.67,11.66,-36.96,1608,-4824,6536,-5,1,2
27.60,11.58,-37.09,1601,-4836,6493,-5,1,2
27.52,11.54,-37.22,1613,-4848,6449,-5,-1,1
27.46,11.52,-37.38,1637,-4876,6427,-6,0,1
27.37,11.47,-37.55,1643,-4906,6439,-6,0,2
27.28,11.41,-37.73,1617,-4921,6435,-7,0,2
27.19,11.38,-37.92,1621,-4944,6426,-7,-1,2
27.09,11.37,-38.11,1588,-4955,6423,-7,-5,2
27.01,11.42,-38.33,1615,-5024,6351,-7,-3,1
26.95,11.43,-38.51,1635,-5076,6305,-5,-1,1
26.89,11.41,-38.65,1645,-5098,6322,-5,0,1
26.84,11.37,-38.78,1645,-5126,6308,-5,0,1
26.77,11.36,-38.93,1613,-5102,6332,-6,-3,1
26.71,11.37,-39.10,1620,-5103,6263,-5,-1,1
26.66,11.36,-39.24,1590,-5098,6266,-5,-2,1
26.62,11.35,-39.37,1608,-5147,6248,-5,0,1
26.56,11.33,-39.49,1583,-5183,6259,-4,-1,0
26.52,11.33,-39.60,1604,-5190,6255,-4,-1,0
26.48,11.32,-39.71,1626,-5191,6262,-4,-1,1
26.43,11.30,-39.83,1620,-5212,6235,-5,-1,1
26.38,11.30,-39.96,1619,-5235,6214,-4,-2,1
26.33,11.30,-40.07,1629,-5246,6192,-4,-1,1
26.29,11.28,-40.16,1611,-5241,6190,-4,-1,0
26.26,11.27,-40.25,1589,-5233,6169,-3,-1,0
26.22,11.28,-40.34,1587,-5250,6166,-3,-2,0
26.18,11.29,-40.44,1595,-5299,6145,-3,-2,0
26.14,11.30,-40.51,1610,-5333,6114,-1,-1,0
26.13,11.30,-40.53,1608,-5342,6136,-1,-1,0
26.12,11.29,-40.56,1602,-5310,6148,-1,-1,0
26.10,11.29,-40.57,1591,-5280,6152,-1,-1,0
26.10,11.32,-40.61,1604,-5280,6136,-1,-2,0
26.09,11.32,-40.64,1602,-5275,6137,-2,-1,0
26.07,11.31,-40.67,1593,-5277,6151,-2,-1,0
26.04,11.33,-40.71,1590,-5273,6158,-2,-2,0
26.02,11.35,-40.76,1609,-5301,6149,-2,-2,0
26.00,11.37,-40.81,1631,-5307,6150,-2,-2,0
25.96,11.40,-40.88,1634,-5327,6120,-2,-2,0
25.93,11.40,-40.91,1623,-5342,6118,-1,-1,0
25.91,11.40,-40.94,1618,-5346,6136,-1,-1,0
25.89,11.42,-40.97,1632,-5348,6105,-1,-1,0
25.88,11.43,-40.98,1634,-5349,6102,-1,-2,0
25.87,11.44,-40.99,1639,-5360,6100,-1,-1,0
25.86,11.44,-40.99,1626,-5361,6099,0,-1,0
25.85,11.44,-40.98,1635,-5346,6104,0,-1,0
25.84,11.45,-40.97,1642,-5334,6101,0,-1,0
25.82,11.45,-40.96,1642,-5338,6103,0,-1,0
25.82,11.46,-40.94,1645,-5348,6108,1,-1,0
25.80,11.46,-40.91,1646,-5343,6099,1,-1,0
25.80,11.46,-40.89,1631,-5332,6118,1,-1,0
25.78,11.45,-40.86,1614,-5328,6138,0,-1,0
25.76,11.45,-40.85,1605,-5320,6131,0,-1,0
25.76,11.45,-40.82,1617,-5319,6144,0,-1,0
25.75,11.46,-40.82,1631,-5329,6140,0,-1,0
25.74,11.46,-40.79,1645,-5331,6121,1,-1,0
25.73,11.45,-40.77,1627,-5318,6124,0,-1,0
25.71,11.44,-40.75,1618,-5308,6138,0,-1,0
25.71,11.44,-40.74,1621,-5313,6141,0,-1,0
25.70,11.43,-40.72,1617,-5318,6143,0,0,0
25.69,11.42,-40.71,1617,-5321,6160,0,-1,0
25.70,11.42,-40.69,1622,-5312,6140,0,-1,0
25.69,11.42,-40.68,1628,-5301,6155,0,-1,0
25.69,11.41,-40.66,1624,-5297,6142,0,-1,0
25.69,11.41,-40.65,1630,-5312,6143,0,0,0
25.68,11.39,-40.64,1635,-5289,6153,0,0,0
25.68,11.37,-40.62,1634,-5287,6165,0,0,0
25.67,11.36,-40.61,1616,-5287,6168,0,0,0
25.65,11.35,-40.61,1595,-5289,6146,0,-1,0
25.65,11.35,-40.60,1590,-5285,6145,0,-1,0
25.64,11.35,-40.59,1615,-5277,6149,0,-1,0
25.63,11.34,-40.58,1610,-5273,6151,0,-1,0
25.63,11.34,-40.58,1607,-5280,6166,0,-1,0
25.61,11.34,-40.58,1608,-5282,6163,0,-1,0
25.61,11.34,-40.58,1615,-5285,6166,-1,-1,0
25.59,11.34,-40.59,1623,-5284,6169,-1,-1,0
25.59,11.33,-40.59,1620,-5289,6155,0,-1,0
25.58,11.33,-40.59,1610,-5278,6151,-1,0,0
25.56,11.32,-40.61,1612,-5294,6148,-1,-1,0
25.55,11.32,-40.62,1610,-5307,6163,-1,-1,0
25.53,11.30,-40.63,1609,-5309,6155,-1,0,0
25.52,11.30,-40.65,1616,-5312,6156,-1,-1,0
25.50,11.31,-40.66,1618,-5312,6133,0,-1,0
25.50,11.30,-40.66,1611,-5304,6130,0,-1,0
25.48,11.30,-40.66,1604,-5293,6136,-1,-2,0
25.47,11.31,-40.66,1613,-5277,6153,-1,-1,0
25.46,11.31,-40.66,1618,-5265,6162,-1,-1,0
25.44,11.30,-40.68,1605,-5287,6145,-1,-1,0
25.43,11.31,-40.69,1608,-5311,6155,0,-1,0
25.41,11.31,-40.69,1612,-5315,6151,-1,-1,0
25.40,11.31,-40.70,1614,-5313,6146,-1,-1,0
25.40,11.31,-40.70,1604,-5317,6129,0,-1,0
25.38,11.31,-40.70,1611,-5318,6120,0,-1,0
25.37,11.30,-40.68,1603,-5302,6113,0,-1,0
25.36,11.32,-40.67,1614,-5310,6112,1,-1,0
25.35,11.31,-40.64,1616,-5314,6139,1,-1,0
25.34,11.32,-40.61,1612,-5315,6138,1,-1,0
25.33,11.32,-40.58,1615,-5315,6145,1,-1,0
25.33,11.33,-40.55,1610,-5299,6158,1,-1,0
25.32,11.32,-40.52,1590,-5280,6168,1,-1,0
25.32,11.32,-40.50,1592,-5263,6173,0,-1,-1
25.32,11.33,-40.49,1603,-5260,6170,0,-1,0
25.32,11.34,-40.47,1602,-5266,6175,0,-1,0
25.31,11.35,-40.46,1605,-5269,6157,0,-1,-1
25.31,11.36,-40.46,1616,-5278,6167,0,-1,-1
25.32,11.38,-40.44,1622,-5284,6169,0,-1,0
25.32,11.38,-40.43,1620,-5281,6164,0,0,-1
25.32,11.38,-40.42,1609,-5272,6173,0,-1,-1
25.31,11.38,-40.40,1607,-5266,6168,0,-1,0
25.32,11.39,-40.40,1603,-5250,6175,0,-1,0
25.31,11.40,-40.40,1612,-5250,6166,0,-1,0
25.30,11.41,-40.40,1612,-5258,6167,0,-1,-1
25.31,11.43,-40.39,1619,-5256,6173,-1,-1,0
25.30,11.44,-40.40,1621,-5256,6179,-1,-1,-1
25.31,11.45,-40.41,1625,-5243,6189,-1,-1,-1
25.30,11.47,-40.42,1633,-5248,6190,-1,-1,0
25.29,11.48,-40.44,1633,-5256,6173,-1,-1,-1
25.29,11.49,-40.46,1633,-5276,6157,-1,-1,-1
25.29,11.50,-40.48,1637,-5279,6156,-1,-1,-1
25.29,11.51,-40.49,1625,-5282,6157,-1,-1,0
25.28,11.52,-40.51,1632,-5282,6156,-1,-1,-1
25.28,11.54,-40.52,1636,-5274,6169,-1,-1,-1
25.28,11.54,-40.54,1629,-5276,6173,-1,-1,-1
25.28,11.55,-40.56,1623,-5286,6151,-1,-1,-1
25.29,11.57,-40.57,1646,-5285,6130,-1,-1,-1
25.29,11.59,-40.59,1659,-5282,6141,-1,-1,-1
25.29,11.60,-40.59,1661,-5282,6155,-1,-1,0
25.29,11.62,-40.60,1665,-5275,6151,-1,-1,-1
25.28,11.62,-40.61,1662,-5280,6150,-1,-1,-1
25.28,11.63,-40.62,1659,-5272,6144,-1,-1,0
25.28,11.64,-40.64,1658,-5272,6137,-1,-1,0
25.28,11.65,-40.66,1659,-5284,6143,-1,-1,-1
25.27,11.67,-40.68,1654,-5302,6129,-1,-1,-1
25.27,11.68,-40.70,1660,-5313,6130,-1,-1,-1
25.27,11.70,-40.72,1662,-5311,6118,-1,-1,-1
25.27,11.72,-40.73,1666,-5308,6114,0,-1,-1
25.27,11.73,-40.74,1663,-5307,6110,-1,-1,0
25.27,11.75,-40.75,1683,-5312,6116,0,-1,-1
25.27,11.76,-40.74,1682,-5308,6124,0,-1,0
25.27,11.76,-40.74,1677,-5311,6119,0,-1,-1
25.27,11.77,-40.74,1680,-5314,6116,0,-1,-1
25.28,11.77,-40.72,1687,-5307,6135,1,0,0
25.27,11.77,-40.70,1685,-5300,6150,0,-1,0
25.27,11.77,-40.70,1679,-5301,6138,0,-1,-1
25.27,11.77,-40.70,1671,-5299,6137,0,-1,0
25.27,11.77,-40.69,1668,-5306,6134,0,0,-1
25.27,11.77,-40.69,1667,-5303,6136,0,-1,-1
25.27,11.78,-40.68,1673,-5301,6129,0,-1,0
25.27,11.79,-40.67,1673,-5292,6132,0,-1,-1
25.27,11.79,-40.67,1673,-5289,6123,0,0,-1
25.27,11.78,-40.66,1669,-5291,6142,0,-1,-1
25.26,11.79,-40.66,1671,-5291,6128,0,-1,0
25.26,11.79,-40.66,1669,-5290,6133,0,-1,0
25.26,11.79,-40.64,1661,-5272,6147,0,-1,0
25.25,11.79,-40.65,1671,-5286,6137,-1,-1,-1
25.25,11.79,-40.66,1682,-5296,6141,0,-1,0
25.25,11.78,-40.66,1668,-5306,6134,0,0,-1
25.25,11.78,-40.66,1672,-5307,6147,0,0,-1
25.26,11.78,-40.66,1679,-5298,6136,-1,0,-1
25.25,11.77,-40.66,1681,-5288,6133,0,0,-1
25.26,11.76,-40.65,1681,-5270,6136,-1,0,-1
25.26,11.76,-40.66,1677,-5278,6131,-1,0,-1
25.26,11.75,-40.67,1675,-5283,6142,-1,0,0
25.25,11.74,-40.69,1669,-5288,6145,-1,0,0
25.24,11.73,-40.70,1671,-5290,6148,-1,0,0
25.23,11.73,-40.71,1667,-5289,6149,-1,-1,-1
25.23,11.73,-40.73,1667,-5292,6142,-1,-1,-1
25.23,11.73,-40.75,1681,-5294,6136,-1,-1,0
25.23,11.74,-40.77,1681,-5297,6131,-1,-1,0
25.23,11.73,-40.78,1675,-5308,6139,-1,0,0
25.22,11.73,-40.80,1660,-5305,6137,-1,-1,0
25.21,11.72,-40.82,1657,-5282,6157,-2,0,-1
25.21,11.72,-40.85,1669,-5306,6128,-2,0,-1
25.21,11.71,-40.89,1671,-5328,6124,-1,0,-1
25.20,11.70,-40.90,1659,-5329,6120,-1,0,0
25.20,11.69,-40.93,1659,-5330,6101,-1,0,-1
25.20,11.69,-40.93,1656,-5326,6109,-1,0,-1
25.21,11.69,-40.94,1669,-5329,6102,-1,0,-1
25.22,11.69,-40.94,1671,-5328,6102,-1,0,-1
25.22,11.68,-40.94,1664,-5323,6113,-1,0,-1
25.22,11.68,-40.94,1669,-5318,6102,0,0,-1
25.23,11.68,-40.94,1666,-5316,6097,0,-1,-1
25.23,11.69,-40.93,1665,-5312,6105,0,-1,-1
25.23,11.69,-40.93,1655,-5320,6110,-1,-1,-1
25.23,11.69,-40.93,1652,-5328,6107,0,0,-1
25.22,11.68,-40.93,1651,-5324,6126,-1,0,0
25.22,11.68,-40.95,1651,-5329,6105,-1,-1,-1
25.23,11.69,-40.95,1654,-5328,6117,-1,-1,-1
25.23,11.69,-40.96,1657,-5324,6102,-1,0,-1
25.23,11.70,-40.96,1644,-5311,6107,-1,0,-1
25.23,11.70,-40.97,1658,-5316,6109,-1,-1,-1
25.23,11.71,-40.98,1669,-5334,6115,-1,-1,-1
25.23,11.71,-40.98,1669,-5324,6114,-1,0,-1
25.23,11.70,-41.00,1654,-5324,6117,-1,-1,-1
25.23,11.71,-41.01,1647,-5325,6111,-1,-1,-1
25.23,11.72,-41.03,1660,-5336,6105,-1,-1,-1
25.24,11.72,-41.04,1660,-5338,6106,-1,-1,-1
25.23,11.72,-41.06,1663,-5329,6098,-1,-1,-1
25.24,11.74,-41.08,1669,-5337,6089,-1,0,-1
25.24,11.73,-41.10,1672,-5339,6086,-1,0,-1
25.24,11.73,-41.11,1663,-5337,6087,-1,0,-1
25.23,11.73,-41.13,1663,-5332,6096,-1,0,-1
25.24,11.73,-41.14,1676,-5335,6103,-1,0,-1
25.23,11.72,-41.16,1670,-5341,6098,-1,0,-1
25.24,11.72,-41.17,1671,-5342,6098,-1,0,-1
25.24,11.72,-41.19,1669,-5348,6100,-1,0,-1
25.24,11.73,-41.20,1661,-5353,6096,-1,0,-1
25.24,11.72,-41.21,1665,-5351,6085,-1,-1,-1
25.24,11.72,-41.22,1666,-5348,6082,-1,0,-1
25.23,11.72,-41.23,1667,-5343,6077,-1,-1,0
25.23,11.72,-41.25,1667,-5363,6084,-1,-1,-1
25.23,11.72,-41.25,1665,-5368,6089,-1,-1,0
25.22,11.71,-41.26,1652,-5366,6074,-1,0,-1
25.23,11.72,-41.26,1658,-5355,6076,-1,-1,-1
25.23,11.73,-41.27,1672,-5350,6074,-1,-1,-1
25.23,11.74,-41.27,1679,-5353,6068,0,-1,-1
25.23,11.74,-41.27,1676,-5346,6061,0,-1,0
25.23,11.75,-41.27,1686,-5347,6075,0,-1,0
25.22,11.75,-41.27,1679,-5355,6085,0,-1,0
25.21,11.75,-41.27,1670,-5373,6082,0,-1,0
25.21,11.76,-41.28,1663,-5381,6062,0,-1,0
25.20,11.76,-41.27,1654,-5376,6068,0,-1,0
25.20,11.77,-41.26,1650,-5359,6073,0,-1,0
25.20,11.77,-41.24,1661,-5361,6085,0,-1,-1
25.20,11.79,-41.22,1674,-5352,6085,0,-1,-1
25.20,11.80,-41.20,1677,-5355,6093,0,-1,0
25.20,11.80,-41.19,1688,-5342,6089,0,-1,0
25.20,11.81,-41.18,1681,-5324,6091,0,-1,0
25.20,11.82,-41.17,1674,-5319,6090,-1,-1,0
25.19,11.82,-41.17,1676,-5344,6085,0,-1,-1
25.19,11.83,-41.16,1674,-5347,6094,0,-1,0
25.19,11.82,-41.16,1658,-5354,6091,0,-1,-1
25.18,11.83,-41.15,1663,-5343,6107,0,-1,0
25.18,11.84,-41.15,1671,-5346,6097,0,-1,-1
25.18,11.84,-41.15,1673,-5346,6092,0,-1,-1
25.19,11.86,-41.14,1683,-5339,6093,0,-1,-1
25.18,11.86,-41.13,1690,-5334,6080,0,-1,-1
25.19,11.86,-41.13,1698,-5336,6083,0,-1,0
25.18,11.87,-41.12,1700,-5338,6092,0,-1,0
25.18,11.87,-41.12,1698,-5339,6098,0,-1,0
25.18,11.87,-41.11,1689,-5342,6097,0,-1,0
25.17,11.87,-41.11,1686,-5344,6087,0,-1,0
25.17,11.86,-41.10,1682,-5342,6093,0,-1,0
25.17,11.87,-41.10,1680,-5336,6098,0,-1,0
25.17,11.87,-41.09,1690,-5335,6104,0,-1,0
25.16,11.88,-41.09,1691,-5333,6107,0,-1,-1
25.17,11.88,-41.09,1695,-5328,6103,0,-1,0
25.17,11.88,-41.09,1689,-5327,6092,0,-1,-1
25.16,11.88,-41.09,1684,-5327,6086,0,-1,-1
25.16,11.88,-41.08,1686,-5319,6100,0,-1,0
25.15,11.88,-41.08,1690,-5347,6096,0,-1,-1
25.15,11.89,-41.08,1696,-5349,6102,0,-1,0
25.15,11.89,-41.08,1686,-5348,6086,0,-1,-1
25.16,11.90,-41.08,1688,-5341,6108,0,-1,-1
25.15,11.90,-41.07,1695,-5335,6101,0,-1,0
25.15,11.90,-41.07,1698,-5323,6101,0,-1,-1
25.15,11.90,-41.07,1690,-5327,6095,0,0,0
25.15,11.90,-41.07,1683,-5322,6088,0,-1,0
25.14,11.90,-41.06,1690,-5327,6094,0,-1,0
25.14,11.90,-41.06,1685,-5331,6099,0,-1,0
25.14,11.90,-41.05,1684,-5329,6109,0,-1,0
25.14,11.90,-41.06,1687,-5330,6100,0,-1,-1
25.13,11.91,-41.06,1689,-5330,6096,0,-1,-1
25.14,11.92,-41.06,1699,-5325,6096,0,-1,-1
25.14,11.92,-41.06,1703,-5326,6100,0,-1,0
25.13,11.91,-41.06,1698,-5322,6102,0,0,0
25.12,11.91,-41.06,1687,-5341,6104,0,-1,0
25.12,11.90,-41.06,1691,-5344,6100,0,-1,0
25.12,11.90,-41.05,1686,-5345,6101,0,0,0
25.12,11.90,-41.05,1689,-5339,6096,0,-1,0
25.11,11.91,-41.05,1686,-5335,6085,0,0,-1
25.12,11.90,-41.04,1693,-5325,6100,-1,0,0
25.11,11.90,-41.05,1705,-5339,6091,0,-1,0
25.11,11.90,-41.05,1698,-5326,6112,0,0,0
25.11,11.89,-41.05,1686,-5334,6100,0,0,0
25.10,11.89,-41.05,1690,-5331,6103,0,-1,0
25.10,11.89,-41.05,1699,-5331,6096,0,0,0
25.10,11.88,-41.04,1701,-5327,6114,0,0,0
25.10,11.88,-41.04,1692,-5331,6109,0,0,0
25.09,11.87,-41.04,1686,-5324,6108,-1,0,0
25.08,11.86,-41.04,1687,-5329,6108,0,0,0
25.08,11.86,-41.05,1684,-5333,6101,-1,-1,-1
25.08,11.86,-41.05,1684,-5338,6103,0,0,-1
25.08,11.86,-41.04,1683,-5336,6088,0,0,-1
25.09,11.85,-41.03,1672,-5322,6104,0,0,0
25.08,11.86,-41.03,1679,-5330,6102,0,-1,-1
25.09,11.86,-41.02,1684,-5324,6108,0,-1,0
25.08,11.86,-41.01,1692,-5321,6121,0,-1,0
25.08,11.86,-41.01,1691,-5333,6118,0,-1,0
25.07,11.86,-41.02,1682,-5336,6108,0,-1,0
25.08,11.86,-41.01,1672,-5325,6107,0,-1,-1
25.07,11.86,-41.01,1671,-5319,6103,0,-1,-1
25.06,11.86,-41.01,1674,-5323,6111,-1,-1,0
25.06,11.86,-41.02,1682,-5343,6106,0,-1,-1
25.06,11.86,-41.01,1677,-5338,6116,0,-1,0
25.06,11.86,-41.01,1668,-5328,6112,0,0,-1
25.06,11.86,-41.01,1669,-5320,6129,-1,-1,-1
25.06,11.86,-41.02,1681,-5320,6123,-1,0,-1
25.06,11.85,-41.02,1683,-5323,6104,-1,0,-1
25.06,11.85,-41.03,1686,-5321,6104,-1,0,0
25.06,11.84,-41.03,1689,-5314,6105,-1,0,-1
25.06,11.83,-41.04,1691,-5312,6115,-1,0,-1
25.06,11.82,-41.06,1686,-5321,6106,-1,0,-1
25.06,11.81,-41.07,1687,-5332,6097,-1,0,-1
25.07,11.81,-41.08,1691,-5338,6096,-1,0,-1
25.07,11.81,-41.08,1684,-5335,6098,-1,0,-1
25.07,11.80,-41.09,1664,-5328,6096,-1,0,-1
25.07,11.79,-41.10,1670,-5327,6092,-1,0,-1
25.07,11.78,-41.13,1669,-5337,6084,-1,0,-1
25.07,11.78,-41.13,1671,-5345,6090,-1,0,-1
25.08,11.78,-41.14,1665,-5348,6100,-1,0,-1
25.07,11.78,-41.16,1673,-5343,6094,-1,0,-1
25.08,11.77,-41.17,1673,-5333,6100,-1,0,-1
25.08,11.76,-41.18,1678,-5335,6084,-1,0,-1
25.09,11.76,-41.20,1689,-5357,6091,-1,0,-1
25.08,11.74,-41.22,1675,-5365,6099,-1,0,-1
25.08,11.73,-41.23,1665,-5364,6098,-1,0,-1
25.08,11.73,-41.26,1666,-5363,6087,-1,0,-1
25.08,11.72,-41.27,1661,-5364,6080,-1,0,-1
25.09,11.71,-41.29,1664,-5353,6079,-1,0,-1
25.10,11.71,-41.30,1672,-5352,6081,-1,0,-1
25.10,11.71,-41.31,1675,-5351,6080,-1,0,-1
25.10,11.69,-41.33,1672,-5361,6083,-1,0,-1
25.10,11.69,-41.35,1670,-5357,6087,-1,0,-1
25.10,11.67,-41.36,1664,-5359,6092,-1,0,-1
25.09,11.66,-41.39,1661,-5364,6088,-1,0,-1
25.10,11.64,-41.41,1654,-5370,6084,-1,0,-1
25.10,11.63,-41.43,1649,-5384,6070,-1,0,-1
25.09,11.61,-41.46,1646,-5376,6085,-1,0,-1
25.10,11.60,-41.48,1651,-5379,6078,-2,0,-1
25.10,11.59,-41.52,1652,-5392,6071,-1,0,-1
25.10,11.57,-41.54,1642,-5384,6067,-2,0,-1
25.10,11.55,-41.57,1637,-5390,6071,-1,0,-1
25.10,11.54,-41.60,1637,-5394,6070,-2,0,-1
25.11,11.54,-41.63,1644,-5415,6052,-1,0,-1
25.10,11.53,-41.65,1638,-5410,6064,-1,0,0
25.10,11.52,-41.67,1633,-5399,6062,-1,0,-1
25.10,11.52,-41.69,1622,-5391,6069,-1,-1,-1
25.10,11.53,-41.72,1633,-5398,6065,-1,-1,-1
25.09,11.53,-41.75,1629,-5396,6055,-2,-1,-1
25.09,11.54,-41.78,1622,-5400,6049,-2,-1,-1
25.09,11.55,-41.82,1623,-5386,6096,-3,-2,0
25.07,11.57,-41.89,1624,-5415,6014,-2,-1,-1
25.06,11.59,-41.93,1643,-5405,6037,-2,-1,-1
25.06,11.61,-41.98,1650,-5437,6028,-3,-2,0
25.04,11.62,-42.03,1630,-5427,6035,-2,-2,-1
25.03,11.65,-42.09,1659,-5444,6012,-2,-2,0
25.03,11.65,-42.13,1651,-5441,6011,-2,-1,-1
25.01,11.68,-42.20,1648,-5468,6000,-3,-3,0
25.00,11.70,-42.27,1672,-5486,5957,-2,-1,-1
25.00,11.71,-42.30,1688,-5461,6020,-2,-1,0
24.98,11.73,-42.35,1675,-5473,5952,-2,-2,0
24.98,11.73,-42.38,1670,-5450,6011,-2,-1,0
24.96,11.73,-42.44,1669,-5476,5954,-2,-1,0
24.96,11.73,-42.47,1670,-5470,6000,-2,0,0
24.93,11.72,-42.54,1670,-5501,5968,-2,-1,0
24.92,11.73,-42.57,1664,-5496,5961,-2,-1,-1
24.91,11.73,-42.62,1671,-5497,5971,-3,-1,0
24.90,11.74,-42.67,1670,-5492,5938,-2,-1,0
24.89,11.74,-42.70,1658,-5529,5941,-1,-1,0
24.88,11.74,-42.73,1668,-5497,5957,-2,-1,0
24.87,11.75,-42.77,1661,-5517,5943,-1,-1,0
24.86,11.76,-42.79,1670,-5502,5968,-2,-1,0
24.86,11.77,-42.83,1680,-5531,5942,-1,-1,0
24.85,11.78,-42.85,1692,-5532,5943,-1,-1,0
24.84,11.79,-42.88,1686,-5537,5936,-1,-1,0
24.83,11.79,-42.90,1682,-5561,5906,-1,-1,-1
24.83,11.80,-42.91,1702,-5556,5918,-1,0,-1
24.83,11.80,-42.92,1688,-5549,5914,-1,-1,0
24.82,11.79,-42.91,1667,-5542,5908,0,-1,0
24.82,11.80,-42.91,1653,-5543,5928,-1,-1,-1
24.82,11.80,-42.91,1676,-5531,5925,0,-1,-1
24.82,11.81,-42.90,1679,-5513,5951,0,-1,0
24.82,11.82,-42.90,1699,-5533,5920,0,-1,-1
24.81,11.82,-42.89,1689,-5524,5919,-1,-1,0
24.79,11.82,-42.88,1669,-5528,5914,1,-1,-1
24.80,11.83,-42.86,1676,-5515,5961,0,-1,0
24.79,11.83,-42.86,1673,-5536,5933,0,-1,-1
24.80,11.84,-42.84,1691,-5520,5935,0,0,-1
24.79,11.84,-42.83,1685,-5522,5942,0,-1,0
24.79,11.83,-42.83,1668,-5522,5927,0,0,0
24.78,11.83,-42.81,1679,-5508,5945,0,-1,0
24.77,11.83,-42.81,1667,-5518,5943,0,-1,0
24.77,11.84,-42.82,1681,-5520,5938,-1,-1,0
24.77,11.84,-42.81,1684,-5520,5955,0,0,-1
24.77,11.84,-42.82,1684,-5532,5940,-1,-1,-1
24.76,11.84,-42.82,1682,-5510,5942,0,0,0
24.76,11.85,-42.82,1674,-5514,5943,-1,-1,-1
24.75,11.85,-42.82,1682,-5492,5954,-1,-1,0
24.74,11.86,-42.84,1690,-5516,5951,-1,-1,0
24.74,11.87,-42.85,1696,-5531,5925,0,-1,0
24.73,11.86,-42.85,1684,-5523,5949,-1,-1,0
24.72,11.87,-42.86,1692,-5522,5932,-1,-1,0
24.71,11.86,-42.86,1676,-5537,5955,-1,-1,0
24.71,11.88,-42.88,1709,-5532,5929,-1,-1,0
24.70,11.87,-42.88,1671,-5536,5901,0,-1,-1
24.71,11.89,-42.88,1693,-5540,5916,0,-1,0
24.70,11.89,-42.88,1686,-5525,5911,0,-1,-1
24.70,11.91,-42.87,1689,-5543,5896,1,-1,0
24.70,11.91,-42.85,1707,-5533,5911,0,-1,0
24.69,11.92,-42.84,1714,-5538,5911,0,-1,0
24.68,11.92,-42.82,1713,-5533,5919,1,-1,0
24.67,11.92,-42.79,1705,-5526,5920,1,-1,0
24.67,11.93,-42.76,1701,-5529,5914,1,-1,0
24.66,11.93,-42.73,1686,-5536,5932,1,-1,0
24.65,11.93,-42.69,1682,-5526,5929,1,-1,0
24.64,11.93,-42.65,1686,-5521,5956,1,-1,0
24.64,11.94,-42.60,1690,-5516,5959,1,-1,0
24.64,11.94,-42.56,1684,-5507,5962,1,-1,0
24.64,11.95,-42.52,1687,-5488,5977,1,-1,-1
24.64,11.95,-42.48,1692,-5473,5982,1,-1,-1
24.65,11.97,-42.46,1711,-5466,5984,0,0,-1
24.66,11.96,-42.43,1702,-5462,5980,0,0,-1
24.66,11.96,-42.41,1707,-5459,5987,0,-1,-1
24.66,11.97,-42.40,1706,-5462,5992,0,-1,-1
24.66,11.97,-42.39,1682,-5448,5986,0,-1,-1
24.66,11.97,-42.39,1660,-5458,5978,0,-1,-1
24.66,11.98,-42.39,1674,-5467,5977,-1,-1,-1
24.67,12.00,-42.40,1694,-5468,5980,-1,-1,-1
24.67,12.01,-42.41,1695,-5477,5983,-1,-1,-1
24.67,12.02,-42.43,1713,-5473,5976,-1,-1,-1
24.68,12.03,-42.45,1719,-5467,5984,-1,0,-1
24.68,12.03,-42.47,1712,-5454,5980,-2,-1,-1
24.69,12.04,-42.51,1725,-5450,5984,-2,-1,-1
24.69,12.04,-42.55,1717,-5449,5982,-2,-1,-1
24.68,12.05,-42.61,1709,-5447,5974,-2,-1,-1
24.67,12.06,-42.67,1700,-5457,5962,-3,-1,0
24.66,12.08,-42.74,1705,-5467,5953,-3,-1,-1
24.66,12.08,-42.81,1702,-5495,5952,-3,-1,-1
24.65,12.08,-42.88,1741,-5512,5959,-4,0,-1
24.64,12.08,-42.98,1720,-5539,5917,-3,0,-1
24.63,12.07,-43.04,1729,-5546,5928,-3,0,-1
24.63,12.07,-43.12,1737,-5578,5881,-3,0,-1
24.64,12.06,-43.16,1738,-5570,5871,-2,0,-1
24.64,12.05,-43.20,1712,-5559,5857,-1,0,-1
24.64,12.04,-43.23,1723,-5567,5892,-2,0,-1
24.65,12.04,-43.26,1728,-5579,5892,-2,0,-1
24.65,12.03,-43.29,1729,-5592,5885,-1,0,-1
24.66,12.02,-43.30,1711,-5574,5879,-1,0,-1
24.67,12.01,-43.30,1705,-5564,5890,-1,0,-1
24.67,12.00,-43.32,1711,-5575,5863,-1,0,-1
24.69,11.99,-43.33,1715,-5564,5886,-1,1,-1
24.68,11.97,-43.35,1705,-5567,5860,-1,0,-1
24.69,11.96,-43.34,1698,-5550,5891,-1,0,-1
24.68,11.95,-43.36,1697,-5565,5890,-1,-1,0
24.67,11.94,-43.39,1686,-5571,5880,-1,-1,0
24.68,11.93,-43.41,1698,-5577,5868,-1,1,-1
24.68,11.92,-43.41,1692,-5581,5878,-1,0,-1
24.68,11.92,-43.42,1684,-5582,5871,0,0,-1
24.69,11.92,-43.42,1681,-5576,5877,-1,-1,-1
24.70,11.92,-43.44,1694,-5594,5862,0,0,-1
24.70,11.92,-43.43,1698,-5592,5869,0,0,-1
24.71,11.92,-43.44,1703,-5594,5872,-1,0,-1
24.71,11.92,-43.43,1697,-5583,5885,0,0,-1
24.71,11.90,-43.42,1693,-5569,5900,-1,0,-1
24.71,11.90,-43.44,1698,-5585,5873,-1,0,-1
24.72,11.89,-43.43,1702,-5588,5876,0,0,-1
24.73,11.88,-43.43,1697,-5594,5875,0,0,-1
24.74,11.88,-43.43,1691,-5582,5884,-1,0,-1
24.73,11.87,-43.44,1689,-5579,5884,-1,0,-1
24.73,11.87,-43.45,1688,-5587,5878,-1,0,-1
24.74,11.86,-43.46,1694,-5593,5874,-1,0,0
24.74,11.85,-43.47,1679,-5581,5885,-1,0,-1
24.73,11.85,-43.49,1679,-5587,5883,-1,0,-1
24.73,11.86,-43.52,1663,-5575,5911,-2,-2,-1
24.73,11.87,-43.57,1685,-5611,5841,-1,0,-1
24.73,11.86,-43.58,1683,-5599,5868,-1,0,-1
24.73,11.86,-43.59,1689,-5598,5844,-1,0,-1
24.73,11.86,-43.61,1681,-5596,5868,-1,0,-1
24.73,11.85,-43.62,1691,-5596,5860,-1,0,0
24.73,11.85,-43.63,1685,-5603,5848,-1,0,-1
24.73,11.84,-43.64,1688,-5599,5860,-1,0,-1
24.72,11.84,-43.66,1690,-5599,5862,-1,0,-1
24.71,11.85,-43.69,1680,-5608,5843,-1,-1,0
24.71,11.85,-43.70,1688,-5610,5848,-1,-1,0
24.71,11.85,-43.72,1682,-5617,5859,-1,-1,-1
24.71,11.86,-43.73,1682,-5625,5861,-1,-1,-1
24.71,11.86,-43.74,1661,-5622,5842,-1,-1,-1
24.70,11.87,-43.75,1672,-5615,5840,-1,-1,-1
24.70,11.88,-43.75,1686,-5622,5836,0,-1,-1
24.71,11.90,-43.76,1692,-5621,5839,0,-1,-1
24.71,11.91,-43.76,1703,-5622,5831,0,-1,0
24.70,11.91,-43.75,1705,-5620,5828,0,-1,0
24.70,11.92,-43.74,1706,-5619,5832,0,-1,0
24.69,11.92,-43.73,1701,-5620,5842,0,-1,0
24.69,11.92,-43.72,1692,-5620,5841,0,-1,0
24.68,11.93,-43.71,1694,-5625,5849,0,-1,0
24.68,11.94,-43.69,1679,-5627,5824,0,-1,0
24.68,11.94,-43.67,1684,-5629,5834,1,-1,-1
24.67,11.95,-43.64,1682,-5612,5843,1,-1,-1
24.68,11.97,-43.62,1706,-5611,5845,0,-1,0
24.68,11.98,-43.59,1706,-5608,5856,1,-1,0
24.68,11.99,-43.57,1705,-5595,5867,1,-1,0
24.67,12.01,-43.54,1707,-5584,5861,0,-1,0
24.67,12.01,-43.52,1698,-5573,5867,1,-1,0
24.66,12.02,-43.50,1703,-5573,5870,0,-1,0
24.66,12.04,-43.50,1724,-5593,5882,0,-1,0
24.66,12.06,-43.48,1714,-5586,5879,0,-1,0
24.65,12.06,-43.47,1703,-5597,5887,0,-1,0
24.65,12.07,-43.46,1716,-5579,5886,0,-1,-1
24.66,12.09,-43.45,1733,-5586,5869,0,-1,-1
24.66,12.10,-43.43,1731,-5586,5872,0,-1,-1
24.65,12.11,-43.41,1715,-5575,5867,0,-1,0
24.65,12.11,-43.40,1716,-5572,5867,0,-1,0
24.65,12.12,-43.40,1724,-5577,5871,0,-1,0
24.64,12.13,-43.39,1733,-5577,5872,0,-1,0
24.63,12.13,-43.38,1729,-5579,5874,0,-1,0
24.63,12.14,-43.36,1722,-5568,5876,0,-1,0
24.63,12.15,-43.35,1723,-5560,5868,0,-1,0
24.63,12.17,-43.33,1732,-5552,5874,0,-1,0
24.63,12.18,-43.33,1740,-5553,5871,0,-1,0
24.62,12.18,-43.33,1747,-5560,5874,0,-1,0
24.62,12.19,-43.32,1739,-5569,5888,0,-1,0
24.61,12.19,-43.32,1730,-5575,5884,0,-1,0
24.60,12.19,-43.30,1711,-5573,5884,0,-1,0
24.60,12.20,-43.30,1722,-5564,5878,0,-1,0
24.60,12.20,-43.29,1718,-5559,5881,0,-1,0
24.59,12.21,-43.28,1724,-5560,5867,0,-1,0
24.59,12.22,-43.26,1746,-5573,5891,0,-1,0
24.59,12.23,-43.24,1747,-5558,5899,0,-1,0
24.59,12.23,-43.23,1741,-5553,5892,0,-1,-1
24.59,12.23,-43.22,1743,-5555,5888,0,-1,0
24.59,12.23,-43.21,1746,-5549,5882,0,-1,0
24.58,12.23,-43.20,1751,-5558,5879,0,0,0
24.58,12.23,-43.18,1734,-5552,5888,0,-1,0
24.58,12.23,-43.17,1742,-5554,5906,0,-1,0
24.57,12.23,-43.17,1735,-5555,5899,0,-1,0
24.57,12.24,-43.17,1742,-5562,5899,0,-1,0
24.56,12.23,-43.17,1739,-5559,5883,0,-1,0
24.56,12.23,-43.17,1741,-5558,5889,0,-1,0
24.56,12.24,-43.17,1743,-5553,5898,0,-1,0
24.55,12.23,-43.16,1740,-5537,5899,0,0,0
24.54,12.23,-43.17,1744,-5535,5906,-1,-1,0
24.54,12.22,-43.18,1738,-5542,5902,-1,0,0
24.53,12.22,-43.19,1743,-5531,5914,-1,-1,0
24.52,12.21,-43.22,1746,-5523,5935,-2,0,0
24.51,12.21,-43.25,1741,-5524,5927,-2,-1,0
24.50,12.20,-43.29,1734,-5536,5919,-2,0,0
24.48,12.20,-43.35,1741,-5541,5887,-3,-1,0
24.47,12.19,-43.40,1722,-5540,5859,-2,0,0
24.45,12.19,-43.45,1718,-5534,5873,-3,-1,0
24.43,12.19,-43.52,1727,-5577,5846,-2,-1,0
24.42,12.20,-43.56,1729,-5596,5852,-2,-1,0
24.40,12.20,-43.60,1714,-5626,5820,-1,-1,0
24.40,12.21,-43.62,1719,-5607,5857,-1,-1,-1
24.40,12.22,-43.66,1734,-5629,5842,-1,-1,0
24.40,12.24,-43.67,1756,-5628,5826,-1,-1,-1
24.39,12.23,-43.68,1752,-5607,5836,-1,0,-1
24.38,12.23,-43.69,1742,-5610,5819,-1,-1,0
24.39,12.24,-43.68,1756,-5608,5839,0,-1,0
24.38,12.23,-43.69,1762,-5602,5842,-1,0,0
24.37,12.21,-43.69,1727,-5618,5853,-1,-1,-1
24.36,12.22,-43.70,1755,-5633,5820,0,-1,0
24.36,12.22,-43.69,1736,-5611,5842,0,0,0
24.35,12.21,-43.68,1732,-5599,5828,0,-1,0
24.35,12.21,-43.67,1716,-5581,5847,0,-1,-1
24.34,12.20,-43.67,1723,-5606,5851,0,0,0
24.34,12.20,-43.66,1738,-5620,5840,0,-1,-1
24.34,12.19,-43.65,1744,-5605,5871,0,0,-1
24.36,12.18,-43.65,1749,-5598,5850,-1,0,-1
24.36,12.16,-43.63,1725,-5589,5858,0,0,-1
24.36,12.14,-43.64,1723,-5569,5857,-1,0,-1
24.37,12.13,-43.65,1730,-5587,5849,-1,0,-1
24.37,12.12,-43.65,1722,-5597,5862,-1,0,-1
24.38,12.11,-43.66,1717,-5600,5857,-1,0,-1
24.38,12.10,-43.69,1714,-5605,5846,-1,0,-1
24.38,12.08,-43.71,1723,-5597,5833,-1,0,-1
24.38,12.07,-43.71,1711,-5609,5827,-1,0,-1
24.39,12.07,-43.72,1707,-5611,5824,-1,0,-1
24.40,12.07,-43.72,1708,-5603,5838,-1,0,-1
24.41,12.08,-43.72,1732,-5603,5843,0,0,-1
24.41,12.07,-43.72,1719,-5608,5828,0,0,-1
24.42,12.06,-43.71,1710,-5616,5837,0,0,-1
24.43,12.06,-43.71,1708,-5613,5865,-1,0,-1
24.44,12.05,-43.71,1715,-5609,5860,-1,0,-1
24.45,12.05,-43.71,1715,-5605,5842,-1,0,-1
24.45,12.05,-43.71,1716,-5606,5855,-1,0,-1
24.45,12.05,-43.72,1730,-5606,5853,-1,0,-1
24.46,12.05,-43.72,1720,-5609,5853,-1,0,-1
24.46,12.04,-43.73,1705,-5612,5836,-1,0,-1
24.46,12.04,-43.74,1707,-5611,5837,-1,0,-1
24.47,12.03,-43.74,1709,-5605,5850,-1,0,-1
24.47,12.02,-43.76,1710,-5622,5836,-1,0,-1
24.47,12.01,-43.77,1713,-5624,5845,-1,0,-1
24.47,12.00,-43.77,1695,-5614,5845,-1,0,-1
24.48,12.01,-43.78,1702,-5618,5849,-1,0,-1
24.48,12.01,-43.79,1703,-5619,5852,-1,0,-1
24.48,12.00,-43.80,1712,-5617,5853,-1,0,-1
24.49,12.00,-43.81,1716,-5617,5857,-1,0,-1
24.49,12.00,-43.82,1714,-5623,5840,-1,0,-1
24.49,11.98,-43.82,1707,-5628,5844,-1,0,-1
24.49,11.98,-43.84,1706,-5627,5836,-1,0,-1
24.50,11.98,-43.85,1693,-5621,5843,-1,0,-1
24.50,11.97,-43.86,1692,-5621,5843,-1,0,-1
24.50,11.96,-43.88,1697,-5621,5835,-1,0,-1
24.50,11.95,-43.89,1693,-5619,5830,-1,0,-1
24.49,11.95,-43.90,1696,-5624,5828,-1,-1,-1
24.50,11.96,-43.93,1704,-5630,5828,-1,0,-1
24.49,11.95,-43.95,1706,-5645,5820,-1,0,-1
24.49,11.95,-43.97,1710,-5641,5818,-1,0,-1
24.49,11.94,-43.99,1700,-5636,5813,-1,0,0
24.49,11.93,-44.01,1691,-5632,5802,-1,0,-1
24.48,11.93,-44.02,1688,-5636,5817,-1,0,0
24.47,11.92,-44.05,1690,-5658,5816,-1,0,-1
24.48,11.92,-44.06,1696,-5655,5825,-1,0,-1
24.47,11.91,-44.08,1679,-5653,5817,-1,0,-1
24.48,11.91,-44.08,1687,-5651,5818,-1,0,-1
24.48,11.91,-44.10,1699,-5647,5810,-1,-1,-1
24.48,11.92,-44.10,1710,-5646,5813,-1,0,-1
24.49,11.91,-44.11,1708,-5647,5816,-1,0,0
24.48,11.91,-44.12,1706,-5645,5815,-1,0,0
24.48,11.91,-44.13,1704,-5654,5812,-1,0,0
24.48,11.91,-44.13,1702,-5663,5814,-1,-1,0
24.47,11.90,-44.13,1693,-5662,5819,0,-1,-1
24.48,11.91,-44.13,1688,-5659,5825,0,-1,-1
24.47,11.91,-44.13,1687,-5661,5814,0,-1,-1
24.48,11.92,-44.13,1694,-5661,5816,0,-1,-1
24.47,11.93,-44.13,1701,-5665,5813,0,-1,-1
24.48,11.94,-44.13,1705,-5661,5808,0,-1,-1
24.47,11.94,-44.12,1704,-5655,5805,0,-1,-1
24.48,11.95,-44.11,1707,-5647,5807,0,-1,-1
24.47,11.95,-44.10,1696,-5640,5806,0,-1,0
24.46,11.96,-44.09,1694,-5643,5811,0,-1,0
24.46,11.97,-44.09,1697,-5662,5800,0,-1,-1
24.46,11.97,-44.08,1700,-5666,5812,0,-1,0
24.46,11.98,-44.07,1695,-5663,5807,0,-1,-1
24.46,11.99,-44.06,1688,-5655,5811,0,-1,-1
24.47,12.00,-44.05,1691,-5649,5810,0,-1,-1
24.47,12.01,-44.04,1702,-5648,5799,0,-1,-1
24.47,12.03,-44.02,1711,-5639,5810,0,-1,-1
24.47,12.03,-44.00,1717,-5628,5818,0,-1,0
24.47,12.04,-43.99,1725,-5636,5814,0,-1,0
24.47,12.04,-43.97,1720,-5631,5830,0,-1,0
24.47,12.05,-43.96,1723,-5636,5834,0,-1,0
24.47,12.05,-43.95,1713,-5634,5831,0,-1,0
24.47,12.06,-43.93,1712,-5628,5833,0,-1,0
24.46,12.06,-43.92,1702,-5626,5835,0,-1,-1
24.46,12.07,-43.91,1699,-5624,5838,0,-1,-1
24.46,12.08,-43.90,1713,-5630,5835,0,-1,-1
24.46,12.09,-43.89,1724,-5631,5835,0,-1,0
24.46,12.10,-43.88,1723,-5631,5824,0,-1,0
24.45,12.10,-43.86,1728,-5625,5835,0,-1,0
24.45,12.11,-43.85,1728,-5626,5830,0,-1,0
24.45,12.12,-43.84,1727,-5622,5833,0,-1,0
24.45,12.13,-43.83,1722,-5624,5841,0,-1,-1
24.45,12.14,-43.82,1731,-5614,5834,0,-1,0
24.45,12.14,-43.80,1736,-5625,5832,0,-1,0
24.44,12.14,-43.79,1727,-5609,5834,0,-1,0
24.44,12.15,-43.77,1710,-5607,5832,0,-1,-1
24.44,12.15,-43.76,1712,-5606,5832,0,-1,-1
24.44,12.16,-43.75,1719,-5609,5845,0,-1,-1
24.44,12.17,-43.74,1730,-5600,5847,0,-1,-1
24.44,12.18,-43.72,1734,-5602,5846,0,-1,0
24.44,12.19,-43.71,1740,-5599,5857,0,-1,0
24.43,12.19,-43.70,1738,-5611,5844,0,-1,0
24.42,12.19,-43.69,1742,-5610,5842,0,-1,0
24.42,12.20,-43.68,1744,-5610,5846,0,-1,0
24.42,12.20,-43.67,1733,-5618,5846,0,-1,0
24.41,12.20,-43.66,1735,-5615,5849,0,-1,0
24.41,12.20,-43.66,1729,-5617,5841,0,-1,0
24.41,12.20,-43.65,1728,-5607,5836,0,-1,0
24.40,12.21,-43.64,1732,-5598,5832,0,-1,0
24.41,12.22,-43.62,1734,-5589,5840,0,-1,0
24.41,12.22,-43.61,1737,-5585,5856,0,-1,0
24.40,12.23,-43.59,1734,-5586,5860,0,-1,0
24.39,12.23,-43.58,1739,-5584,5861,0,-1,0
24.40,12.23,-43.57,1744,-5580,5858,0,-1,0
24.39,12.23,-43.56,1746,-5579,5852,0,-1,0
24.39,12.23,-43.55,1746,-5574,5866,0,-1,0
24.38,12.24,-43.55,1741,-5586,5856,0,-1,0
24.38,12.24,-43.54,1740,-5595,5872,0,-1,0
24.37,12.25,-43.53,1725,-5595,5869,0,-1,0
24.37,12.25,-43.52,1721,-5596,5853,0,-1,-1
24.36,12.27,-43.52,1739,-5591,5858,0,-1,-1
24.37,12.27,-43.51,1748,-5591,5841,0,-1,-1
24.37,12.28,-43.49,1760,-5584,5846,0,-1,-1
24.37,12.29,-43.48,1761,-5575,5853,0,-1,0
24.36,12.30,-43.47,1770,-5575,5853,0,-1,0
24.36,12.29,-43.46,1762,-5572,5863,0,-1,0
24.36,12.29,-43.45,1764,-5570,5866,0,-1,0
24.35,12.28,-43.44,1746,-5579,5869,0,-1,0
24.34,12.28,-43.44,1740,-5585,5860,0,-1,0
24.33,12.29,-43.43,1751,-5590,5870,0,-1,0
24.33,12.28,-43.43,1737,-5583,5863,0,-1,0
24.32,12.28,-43.43,1742,-5578,5868,0,-1,0
24.31,12.28,-43.43,1749,-5577,5874,0,-1,0
24.30,12.28,-43.43,1746,-5577,5870,0,0,0
24.30,12.27,-43.43,1749,-5569,5879,-1,-1,0
24.29,12.27,-43.43,1749,-5572,5868,0,-1,0
24.28,12.27,-43.43,1742,-5574,5868,0,-1,0
24.28,12.26,-43.42,1744,-5569,5871,0,0,0
24.26,12.25,-43.42,1732,-5555,5876,-1,-1,0
24.26,12.26,-43.42,1740,-5559,5871,-1,-1,0
24.25,12.26,-43.43,1754,-5575,5881,-1,-1,0
24.25,12.27,-43.42,1755,-5566,5881,0,-1,0
24.24,12.27,-43.42,1739,-5569,5860,0,-1,0
24.23,12.27,-43.43,1740,-5574,5846,0,-1,0
24.22,12.27,-43.43,1746,-5590,5840,0,-1,0
24.22,12.28,-43.42,1749,-5597,5829,0,-1,0
24.22,12.28,-43.39,1757,-5590,5852,1,0,-1
24.23,12.26,-43.36,1743,-5574,5876,1,0,-1
24.23,12.27,-43.33,1740,-5575,5886,0,-1,-1
24.23,12.28,-43.31,1744,-5578,5884,0,-1,0
24.22,12.28,-43.30,1748,-5568,5882,0,-1,0
24.23,12.28,-43.28,1749,-5560,5890,0,0,0
24.22,12.28,-43.27,1746,-5556,5902,0,-1,0
24.22,12.28,-43.27,1751,-5555,5900,-1,0,-1
24.22,12.27,-43.27,1749,-5552,5905,-1,0,-1
24.23,12.26,-43.28,1741,-5554,5884,-1,0,-1
24.23,12.25,-43.29,1732,-5560,5878,-1,0,-1
24.24,12.25,-43.29,1724,-5572,5878,-1,0,-1
24.25,12.25,-43.29,1735,-5572,5880,0,0,-1
24.25,12.25,-43.29,1737,-5560,5890,-1,0,-1
24.26,12.25,-43.29,1743,-5554,5897,-1,0,-1
24.27,12.25,-43.29,1754,-5547,5899,-1,0,-1
24.28,12.24,-43.30,1750,-5536,5891,-1,0,-1
24.28,12.23,-43.31,1743,-5539,5881,-1,0,-1
24.28,12.22,-43.32,1748,-5557,5885,-1,0,-1
24.28,12.21,-43.33,1731,-5563,5895,-1,0,0
24.28,12.19,-43.35,1714,-5566,5884,-1,0,-1
24.28,12.19,-43.37,1719,-5569,5885,-1,0,-1
24.29,12.19,-43.39,1723,-5579,5873,-1,0,-1
24.29,12.19,-43.41,1736,-5583,5877,-1,0,-1
24.30,12.19,-43.42,1738,-5576,5869,-1,0,-1
24.30,12.18,-43.42,1734,-5565,5863,-1,0,-1
24.31,12.18,-43.44,1744,-5570,5861,-1,0,-1
24.31,12.17,-43.45,1744,-5576,5863,-1,0,-1
24.31,12.16,-43.46,1738,-5580,5871,-1,0,-1
24.30,12.15,-43.47,1728,-5580,5879,-1,0,-1
24.30,12.13,-43.48,1724,-5579,5878,-1,0,-1
24.31,12.12,-43.50,1716,-5580,5872,-1,0,-1
24.31,12.11,-43.52,1713,-5587,5862,-1,0,-1
24.31,12.10,-43.53,1716,-5591,5858,-1,0,-1
24.31,12.10,-43.55,1719,-5587,5859,-1,0,-1
24.31,12.09,-43.56,1716,-5593,5860,-1,0,-1
24.31,12.08,-43.58,1724,-5593,5853,-1,0,-1
24.31,12.07,-43.60,1718,-5590,5851,-1,0,-1
24.31,12.07,-43.61,1724,-5585,5856,-1,0,-1
24.31,12.06,-43.63,1735,-5613,5848,-1,0,-1
24.31,12.05,-43.65,1723,-5603,5857,-1,0,-1
24.31,12.04,-43.66,1710,-5599,5859,-1,0,-1
24.31,12.03,-43.68,1715,-5600,5854,-1,0,-1
24.32,12.03,-43.69,1714,-5602,5848,-1,0,-1
24.32,12.02,-43.71,1710,-5608,5853,-1,0,-1
24.32,12.01,-43.72,1718,-5609,5851,-1,0,-1
24.32,12.00,-43.73,1713,-5612,5854,-1,0,-1
24.32,11.99,-43.75,1717,-5616,5851,-1,0,-1
24.32,11.97,-43.76,1703,-5609,5840,-1,0,0
24.31,11.96,-43.79,1698,-5614,5830,-1,0,-1
24.31,11.94,-43.81,1691,-5615,5837,-1,0,-1
24.30,11.95,-43.84,1689,-5614,5850,-2,-1,-1
24.30,11.95,-43.87,1705,-5631,5828,-1,0,-1
24.31,11.94,-43.88,1702,-5629,5832,-1,0,-1
24.31,11.94,-43.90,1707,-5624,5836,-1,0,-1
24.31,11.94,-43.90,1700,-5622,5842,-1,0,-1
24.30,11.93,-43.92,1711,-5627,5831,-1,0,0
24.30,11.92,-43.94,1704,-5631,5838,-1,0,0
24.29,11.92,-43.95,1693,-5632,5836,-1,-1,0
24.28,11.92,-43.99,1696,-5663,5797,-1,0,-1
24.27,11.91,-43.99,1689,-5661,5833,-1,0,0
24.28,11.90,-43.99,1679,-5656,5815,-1,0,-1
24.27,11.90,-43.99,1672,-5636,5814,0,-1,-1
24.27,11.90,-44.00,1684,-5634,5819,-1,-1,-1
24.28,11.91,-44.00,1694,-5641,5818,-1,0,-1
24.29,11.91,-44.00,1705,-5632,5826,-1,0,-1
24.28,11.90,-44.00,1694,-5632,5819,0,-1,0
24.27,11.91,-44.01,1695,-5635,5818,-1,-1,0
24.26,11.91,-44.02,1696,-5627,5848,-1,-1,0
24.24,11.92,-44.05,1692,-5648,5810,-1,-1,0
24.24,11.92,-44.05,1694,-5655,5824,0,-1,0
24.23,11.93,-44.06,1688,-5649,5810,-1,-1,0
24.23,11.93,-44.06,1703,-5645,5835,0,0,-1
24.22,11.93,-44.08,1687,-5656,5802,-1,-2,0
24.21,11.94,-44.09,1677,-5676,5789,-1,-1,-1
24.20,11.95,-44.09,1711,-5656,5810,0,-1,0
24.20,11.95,-44.09,1694,-5672,5817,0,-2,0
24.20,11.96,-44.08,1718,-5658,5809,0,-1,0
24.19,11.96,-44.07,1705,-5649,5811,0,-1,0
24.19,11.96,-44.06,1693,-5646,5790,0,0,0
24.20,11.96,-44.05,1721,-5655,5808,0,0,0
24.19,11.95,-44.02,1701,-5640,5831,0,-1,0
24.19,11.96,-44.01,1713,-5643,5847,0,-1,0
24.18,11.96,-44.02,1688,-5628,5829,0,-1,0
24.18,11.96,-44.01,1683,-5632,5809,0,-1,-1
24.18,11.96,-44.01,1694,-5622,5817,0,-1,0
24.18,11.97,-44.00,1708,-5635,5837,-1,-1,-1
24.18,11.97,-44.00,1697,-5631,5816,0,-1,0
24.17,11.98,-44.01,1708,-5654,5815,-1,-1,0
24.17,11.98,-44.01,1697,-5645,5815,0,0,0
24.16,11.99,-44.01,1701,-5652,5815,0,-1,0
24.16,12.00,-44.01,1695,-5660,5800,0,-1,-1
24.16,12.00,-44.00,1706,-5656,5808,0,-1,0
24.16,12.00,-43.98,1703,-5649,5806,0,-1,0
24.16,12.00,-43.96,1704,-5629,5833,0,-1,0
24.15,12.00,-43.95,1702,-5641,5821,0,-1,0
24.15,12.01,-43.92,1700,-5634,5820,1,-1,0
24.15,12.02,-43.90,1700,-5643,5804,0,-1,-1
24.15,12.03,-43.88,1709,-5635,5811,1,-1,0
24.14,12.04,-43.84,1706,-5610,5832,1,-1,0
24.14,12.05,-43.82,1712,-5608,5829,0,-1,0
24.14,12.06,-43.80,1722,-5611,5835,0,-1,0
24.14,12.07,-43.78,1715,-5609,5829,0,-1,0
24.14,12.08,-43.76,1719,-5609,5839,0,-1,0
24.14,12.09,-43.75,1721,-5607,5855,0,-1,0
24.13,12.09,-43.73,1724,-5608,5856,0,-1,0
24.13,12.10,-43.72,1709,-5617,5851,0,-1,0
24.13,12.10,-43.71,1710,-5615,5851,0,-1,0
24.12,12.11,-43.70,1712,-5595,5845,0,-1,0
24.12,12.12,-43.69,1717,-5604,5841,0,-1,0
24.11,12.13,-43.68,1722,-5607,5838,0,-1,0
24.12,12.13,-43.66,1730,-5607,5843,0,-1,0
24.11,12.14,-43.65,1727,-5604,5843,0,-1,0
24.11,12.15,-43.64,1730,-5598,5843,0,-1,0
24.11,12.15,-43.62,1736,-5601,5850,0,-1,0
24.10,12.16,-43.61,1743,-5599,5846,0,-1,0
24.10,12.16,-43.60,1738,-5589,5850,0,-1,0
24.10,12.16,-43.60,1732,-5592,5860,0,-1,0
