Yaw,Pitch,Roll,AX,AY,AZ,GX,GY,GZ
24.49,22.30,-57.62,3149,-6492,4105,0,-1,-1
24.50,22.30,-57.63,3158,-6491,4101,-1,0,0
24.50,22.30,-57.61,3141,-6484,4103,-1,0,0
24.49,22.29,-57.61,3131,-6474,4111,-1,0,0
24.48,22.28,-57.62,3124,-6472,4109,-1,0,0
24.48,22.28,-57.63,3130,-6483,4116,-1,0,0
24.48,22.27,-57.63,3129,-6495,4118,-1,0,-1
24.48,22.27,-57.63,3139,-6486,4121,-1,0,-1
24.48,22.27,-57.63,3148,-6480,4120,-1,0,-1
24.48,22.27,-57.64,3143,-6472,4121,-1,0,0
24.48,22.26,-57.65,3144,-6478,4118,-1,0,0
24.48,22.26,-57.66,3142,-6487,4106,-1,0,0
24.47,22.26,-57.67,3147,-6502,4108,-1,-1,0
24.47,22.25,-57.68,3142,-6512,4094,-1,0,0
24.47,22.25,-57.68,3133,-6510,4088,-1,0,-1
24.47,22.24,-57.69,3132,-6503,4097,-1,0,0
24.47,22.23,-57.69,3127,-6498,4099,-1,0,0
24.46,22.23,-57.69,3139,-6491,4100,-1,0,0
24.46,22.22,-57.68,3147,-6482,4110,-1,0,0
24.47,22.23,-57.68,3143,-6483,4112,-1,0,0
24.46,22.21,-57.69,3142,-6479,4110,-1,0,0
24.46,22.21,-57.70,3136,-6479,4125,-1,0,0
24.45,22.20,-57.70,3130,-6491,4117,-1,0,0
24.45,22.19,-57.72,3127,-6502,4109,-1,0,0
24.45,22.19,-57.73,3131,-6503,4104,-1,0,0
24.44,22.19,-57.74,3129,-6508,4102,-1,0,0
24.44,22.18,-57.75,3134,-6497,4104,-1,0,0
24.44,22.18,-57.77,3142,-6503,4101,-1,0,0
24.43,22.17,-57.78,3131,-6504,4092,-1,0,0
24.43,22.16,-57.80,3131,-6512,4081,-1,0,0
24.42,22.16,-57.80,3130,-6512,4087,-1,0,0
24.42,22.15,-57.80,3123,-6508,4100,-1,0,0
24.42,22.15,-57.81,3126,-6497,4092,-1,-1,-1
24.42,22.15,-57.81,3149,-6489,4097,-1,0,0
24.42,22.15,-57.82,3132,-6496,4096,-1,0,0
24.40,22.14,-57.84,3121,-6488,4099,-1,-1,0
24.39,22.14,-57.86,3134,-6501,4106,-1,-1,0
24.39,22.13,-57.90,3117,-6520,4086,-2,0,0
24.38,22.11,-57.92,3113,-6526,4065,-1,0,0
24.37,22.10,-57.94,3109,-6524,4084,-1,-1,0
24.37,22.10,-57.96,3117,-6540,4084,-1,-1,-1
24.37,22.10,-57.98,3135,-6542,4059,-1,0,0
24.37,22.09,-57.98,3129,-6529,4056,-1,0,0
24.36,22.08,-57.99,3114,-6523,4064,-1,0,0
24.37,22.08,-57.99,3130,-6519,4081,-1,0,0
24.36,22.07,-58.00,3114,-6523,4084,-1,0,0
24.36,22.07,-58.01,3121,-6522,4073,-1,0,-1
24.36,22.07,-58.01,3114,-6516,4076,-1,0,-1
24.36,22.07,-58.02,3113,-6512,4073,-1,0,-1
24.37,22.07,-58.02,3115,-6508,4071,-1,0,-1
24.37,22.07,-58.03,3119,-6517,4076,-1,0,-1
24.37,22.07,-58.04,3120,-6527,4071,-1,0,-1
24.38,22.07,-58.05,3129,-6533,4074,-1,0,-1
24.39,22.07,-58.06,3132,-6535,4068,-1,0,-1
24.38,22.06,-58.07,3120,-6540,4057,-1,0,0
24.38,22.05,-58.08,3105,-6533,4052,-1,0,0
24.38,22.05,-58.08,3114,-6540,4057,-1,0,0
24.37,22.04,-58.10,3105,-6541,4063,-1,0,0
24.37,22.03,-58.11,3103,-6546,4065,-1,0,-1
24.37,22.03,-58.11,3124,-6538,4066,-1,0,0
24.37,22.02,-58.11,3124,-6535,4066,-1,0,0
24.37,22.02,-58.12,3120,-6526,4053,-1,0,0
24.36,22.01,-58.13,3107,-6521,4060,-1,0,0
24.36,22.00,-58.13,3109,-6532,4063,-1,0,0
24.35,21.99,-58.15,3099,-6536,4071,-1,0,0
24.34,21.98,-58.16,3091,-6561,4053,-1,-1,0
24.34,21.98,-58.17,3097,-6553,4059,0,0,0
24.33,21.98,-58.18,3091,-6563,4049,-1,-1,0
24.33,21.98,-58.17,3102,-6550,4040,0,0,0
24.33,21.98,-58.17,3090,-6544,4051,0,-1,0
24.33,21.98,-58.17,3102,-6541,4060,0,-1,0
24.32,21.97,-58.17,3113,-6551,4055,-1,-1,0
24.31,21.97,-58.17,3107,-6532,4065,-1,-1,0
24.31,21.97,-58.18,3097,-6529,4060,-1,-1,0
24.30,21.97,-58.18,3088,-6531,4060,-1,-1,0
24.30,21.97,-58.18,3090,-6533,4061,-1,-1,0
24.29,21.96,-58.19,3100,-6536,4053,0,-1,0
24.29,21.96,-58.19,3101,-6529,4069,-1,-1,0
24.28,21.96,-58.20,3076,-6539,4044,0,-1,-1
24.29,21.97,-58.20,3112,-6543,4047,0,-1,0
24.28,21.97,-58.20,3108,-6545,4043,0,-1,-1
24.29,21.99,-58.21,3106,-6552,4024,0,0,-1
24.29,21.99,-58.19,3093,-6559,4038,0,-1,-1
24.28,22.00,-58.18,3110,-6551,4038,0,-1,0
24.28,22.00,-58.16,3087,-6530,4062,0,-1,-1
24.29,22.01,-58.15,3095,-6533,4049,0,-1,-1
24.30,22.02,-58.14,3113,-6534,4052,0,-1,-1
24.30,22.03,-58.12,3113,-6531,4073,0,-1,0
24.30,22.04,-58.10,3104,-6528,4084,0,-1,-1
24.31,22.05,-58.09,3102,-6552,4075,0,-1,-1
24.31,22.05,-58.09,3100,-6545,4073,0,-1,-1
24.30,22.05,-58.09,3117,-6525,4070,0,-1,0
24.31,22.06,-58.09,3120,-6534,4067,-1,-1,-1
24.30,22.06,-58.09,3133,-6535,4049,0,-1,0
24.30,22.07,-58.08,3122,-6520,4081,-1,-1,0
24.30,22.07,-58.10,3121,-6529,4061,0,-1,-1
24.31,22.08,-58.10,3123,-6536,4055,-1,-1,-1
24.31,22.09,-58.11,3124,-6530,4047,-1,-1,-1
24.31,22.10,-58.11,3122,-6531,4048,0,-1,-1
24.32,22.11,-58.11,3127,-6541,4051,0,-1,-1
24.32,22.11,-58.10,3116,-6544,4058,0,-1,-1
24.32,22.12,-58.09,3130,-6541,4059,0,-1,-1
24.33,22.13,-58.08,3129,-6533,4060,0,-1,-1
24.33,22.13,-58.07,3128,-6525,4061,0,-1,-1
24.33,22.14,-58.05,3117,-6541,4064,0,-1,-1
24.35,22.15,-58.04,3121,-6531,4065,0,-1,-1
24.35,22.16,-58.02,3121,-6536,4060,0,-1,-1
24.36,22.17,-58.00,3131,-6532,4063,0,-1,-1
24.37,22.18,-57.98,3136,-6525,4075,0,0,-1
24.38,22.18,-57.96,3130,-6513,4084,0,-1,-1
24.38,22.19,-57.94,3130,-6509,4084,0,-1,-1
24.39,22.20,-57.92,3140,-6514,4083,0,-1,-1
24.40,22.22,-57.91,3148,-6510,4079,0,-1,-1
24.40,22.22,-57.90,3144,-6507,4074,0,-1,-1
24.40,22.22,-57.88,3142,-6493,4080,0,-1,-1
24.41,22.23,-57.87,3140,-6490,4093,0,-1,-1
24.41,22.23,-57.86,3133,-6499,4096,0,-1,-1
24.41,22.24,-57.85,3135,-6516,4091,0,-1,-1
24.40,22.23,-57.84,3128,-6517,4093,0,-1,-1
24.40,22.24,-57.85,3141,-6517,4080,0,-1,-1
24.41,22.25,-57.83,3140,-6516,4083,0,-1,-1
24.41,22.25,-57.81,3142,-6511,4081,0,-1,-1
24.41,22.25,-57.80,3149,-6499,4090,0,-1,-1
24.41,22.26,-57.79,3157,-6497,4095,0,-1,0
24.42,22.26,-57.78,3150,-6500,4090,0,-1,0
24.41,22.27,-57.77,3154,-6501,4090,0,-1,0
24.41,22.26,-57.77,3142,-6498,4093,0,-1,0
24.41,22.27,-57.76,3141,-6492,4090,0,-1,-1
24.41,22.27,-57.76,3140,-6487,4086,0,-1,-1
24.41,22.27,-57.75,3141,-6490,4107,0,-1,0
24.41,22.27,-57.76,3142,-6500,4089,-1,0,0
24.41,22.27,-57.75,3145,-6504,4108,0,-1,0
24.41,22.27,-57.74,3136,-6494,4111,0,0,0
24.40,22.26,-57.74,3126,-6498,4094,0,-1,-1
24.40,22.26,-57.73,3135,-6497,4101,0,-1,-1
24.40,22.27,-57.72,3139,-6496,4100,0,0,-1
24.41,22.27,-57.70,3141,-6490,4093,0,0,-1
24.41,22.27,-57.68,3142,-6478,4102,0,-1,-1
24.40,22.27,-57.68,3146,-6472,4111,0,0,0
24.41,22.27,-57.67,3150,-6474,4104,0,-1,0
24.40,22.27,-57.67,3148,-6478,4113,0,-1,0
24.40,22.27,-57.67,3144,-6486,4110,-1,-1,0
24.41,22.27,-57.67,3139,-6489,4110,-1,-1,-1
24.40,22.27,-57.67,3140,-6494,4110,-1,-1,-1
24.41,22.27,-57.67,3146,-6500,4096,0,0,-1
24.41,22.28,-57.67,3152,-6499,4097,0,0,-1
24.41,22.28,-57.66,3155,-6491,4108,0,0,-1
24.41,22.28,-57.66,3157,-6491,4109,0,0,-1
24.41,22.28,-57.65,3151,-6485,4111,0,0,-1
24.41,22.27,-57.64,3149,-6474,4110,0,0,-1
24.41,22.28,-57.64,3148,-6472,4107,0,0,-1
24.41,22.28,-57.64,3147,-6473,4103,0,0,-1
24.41,22.28,-57.64,3145,-6475,4108,-1,0,-1
24.41,22.28,-57.64,3148,-6476,4097,-1,0,-1
24.41,22.27,-57.65,3151,-6490,4103,-1,0,-1
24.41,22.27,-57.64,3145,-6492,4108,0,0,0
24.41,22.27,-57.64,3138,-6483,4110,0,0,0
24.41,22.27,-57.64,3137,-6474,4118,-1,-1,0
24.41,22.27,-57.64,3136,-6478,4123,-1,-1,-1
24.41,22.27,-57.64,3150,-6487,4122,0,0,0
24.42,22.27,-57.63,3153,-6493,4121,0,0,-1
24.42,22.27,-57.62,3160,-6487,4127,0,0,-1
24.42,22.27,-57.62,3155,-6481,4120,0,0,-1
24.42,22.26,-57.61,3150,-6470,4120,-1,0,0
24.42,22.26,-57.61,3140,-6471,4125,-1,0,0
24.42,22.26,-57.62,3138,-6482,4117,-1,-1,0
24.41,22.26,-57.63,3140,-6496,4112,-1,-1,0
24.41,22.25,-57.64,3140,-6504,4105,-1,-1,-1
24.41,22.25,-57.64,3139,-6494,4107,0,-1,0
24.41,22.25,-57.64,3139,-6490,4112,-1,0,-1
24.41,22.25,-57.63,3146,-6484,4120,-1,0,0
24.41,22.25,-57.64,3145,-6477,4120,-1,0,0
24.41,22.25,-57.64,3143,-6482,4134,-1,0,0
24.40,22.23,-57.64,3139,-6486,4129,-1,0,0
24.40,22.23,-57.64,3134,-6479,4118,-1,0,0
24.40,22.23,-57.65,3135,-6481,4117,-1,0,-1
24.40,22.23,-57.66,3140,-6485,4121,-1,0,-1
24.41,22.23,-57.66,3145,-6486,4120,-1,0,0
24.41,22.22,-57.67,3147,-6485,4113,-1,0,0
24.40,22.22,-57.68,3151,-6491,4115,-1,0,0
24.40,22.21,-57.70,3150,-6499,4106,-1,0,0
24.41,22.21,-57.70,3145,-6502,4100,-1,0,-1
24.40,22.21,-57.71,3137,-6515,4092,-1,0,-1
24.40,22.20,-57.71,3142,-6508,4102,-1,0,0
24.41,22.20,-57.71,3141,-6494,4106,-1,0,0
24.41,22.20,-57.71,3147,-6473,4111,-1,0,0
24.41,22.19,-57.71,3152,-6473,4126,-1,0,0
24.40,22.18,-57.72,3140,-6480,4127,-1,0,-1
24.40,22.18,-57.73,3148,-6488,4127,-1,0,0
24.40,22.17,-57.74,3137,-6491,4108,-1,0,0
24.40,22.16,-57.75,3130,-6493,4099,-1,0,0
24.40,22.16,-57.76,3131,-6498,4099,-1,0,0
24.40,22.16,-57.77,3134,-6500,4090,-1,0,0
24.40,22.15,-57.78,3145,-6503,4087,-1,0,0
24.40,22.15,-57.79,3142,-6498,4095,-1,0,0
24.41,22.14,-57.78,3141,-6496,4100,-1,0,0
24.40,22.13,-57.79,3140,-6502,4099,-1,0,0
24.40,22.13,-57.79,3136,-6503,4108,-1,0,0
24.40,22.12,-57.80,3132,-6497,4101,-1,0,0
24.40,22.12,-57.81,3133,-6504,4104,-1,0,0
24.40,22.12,-57.81,3138,-6503,4107,-1,0,-1
24.40,22.12,-57.82,3137,-6502,4095,-1,0,0
24.40,22.11,-57.83,3140,-6495,4088,-1,0,0
24.39,22.10,-57.83,3130,-6493,4101,-1,0,0
24.39,22.09,-57.84,3123,-6502,4100,-1,0,0
24.39,22.09,-57.86,3126,-6505,4101,-1,0,0
24.39,22.08,-57.87,3131,-6510,4094,-1,0,0
24.38,22.07,-57.88,3128,-6516,4094,-1,0,0
24.39,22.07,-57.88,3130,-6513,4098,-1,0,-1
24.39,22.07,-57.88,3137,-6498,4094,-1,0,0
24.39,22.06,-57.89,3138,-6494,4103,-1,0,0
24.39,22.06,-57.90,3127,-6504,4107,-1,0,0
24.38,22.05,-57.91,3130,-6507,4106,-1,0,0
24.37,22.04,-57.92,3130,-6519,4110,-1,0,0
24.37,22.04,-57.92,3126,-6523,4097,-1,0,0
24.37,22.03,-57.94,3121,-6533,4092,-1,0,0
24.37,22.02,-57.94,3113,-6521,4097,-1,0,0
24.37,22.02,-57.94,3112,-6514,4091,-1,0,-1
24.37,22.01,-57.94,3120,-6517,4099,-1,0,0
24.37,22.02,-57.94,3122,-6505,4092,-1,0,0
24.37,22.01,-57.95,3120,-6506,4093,-1,0,0
24.37,22.00,-57.96,3119,-6509,4095,-1,0,0
24.36,21.99,-57.96,3116,-6509,4089,-1,0,0
24.36,21.98,-57.97,3115,-6514,4087,-1,0,-1
24.36,21.98,-57.97,3110,-6514,4093,-1,0,0
24.36,21.98,-57.99,3115,-6523,4094,-1,0,0
24.36,21.98,-58.00,3111,-6524,4097,-1,0,0
24.36,21.97,-58.00,3112,-6527,4083,-1,0,-1
24.36,21.97,-58.01,3106,-6526,4079,-1,0,0
24.36,21.97,-58.02,3105,-6527,4071,-1,0,-1
24.36,21.96,-58.02,3107,-6521,4068,-1,0,-1
24.36,21.96,-58.02,3109,-6528,4061,0,0,-1
24.36,21.96,-58.02,3112,-6520,4072,0,0,-1
24.37,21.97,-58.01,3106,-6509,4078,-1,-1,0
24.37,21.97,-58.01,3108,-6508,4083,0,-1,-1
24.37,21.98,-58.01,3119,-6506,4094,-1,-1,-1
24.38,21.98,-58.01,3112,-6515,4083,-1,-1,-1
24.38,21.98,-58.01,3113,-6523,4086,-1,-1,-1
24.38,21.99,-58.01,3104,-6532,4086,0,-1,-1
24.39,22.00,-58.01,3104,-6532,4078,0,-1,-1
24.39,22.00,-58.00,3110,-6526,4076,0,-1,-1
24.40,22.02,-58.00,3124,-6518,4077,0,-1,-1
24.40,22.02,-57.99,3124,-6516,4081,0,-1,-1
24.41,22.03,-57.98,3126,-6521,4087,0,-1,-1
24.41,22.03,-57.97,3119,-6505,4091,0,-1,-1
24.41,22.04,-57.96,3115,-6507,4083,0,-1,-1
24.42,22.04,-57.96,3116,-6506,4084,0,-1,-1
24.42,22.05,-57.96,3121,-6499,4084,0,-1,-1
24.42,22.05,-57.95,3122,-6497,4088,0,-1,-1
24.43,22.06,-57.95,3123,-6503,4097,0,-1,-1
24.43,22.07,-57.94,3125,-6510,4097,0,-1,-1
24.43,22.07,-57.94,3124,-6513,4100,-1,-1,0
24.44,22.08,-57.94,3127,-6519,4088,0,-1,-1
24.44,22.08,-57.94,3129,-6517,4081,0,-1,-1
24.44,22.08,-57.93,3135,-6519,4081,0,-1,-1
24.44,22.09,-57.92,3126,-6510,4089,0,-1,-1
24.44,22.09,-57.92,3124,-6515,4090,-1,-1,0
24.44,22.09,-57.93,3126,-6515,4096,0,-1,-1
24.45,22.10,-57.92,3135,-6513,4101,0,-1,-1
24.45,22.10,-57.91,3128,-6508,4099,0,-1,-1
24.45,22.11,-57.90,3140,-6499,4094,0,-1,-1
24.46,22.11,-57.90,3146,-6493,4102,0,-1,-1
24.46,22.11,-57.90,3137,-6498,4088,0,-1,-1
24.46,22.12,-57.90,3144,-6507,4103,-1,-1,0
24.46,22.12,-57.90,3137,-6514,4094,-1,-1,0
24.46,22.12,-57.90,3133,-6523,4095,0,-1,-1
24.46,22.12,-57.90,3129,-6521,4088,0,-1,-1
24.46,22.12,-57.89,3129,-6511,4090,0,-1,-1
24.47,22.13,-57.88,3136,-6507,4093,0,-1,-1
24.48,22.13,-57.87,3136,-6506,4090,0,-1,-1
24.47,22.14,-57.86,3133,-6502,4093,0,0,0
24.47,22.14,-57.86,3143,-6495,4097,-1,-1,0
24.48,22.14,-57.86,3138,-6497,4106,-1,-1,0
24.47,22.14,-57.86,3135,-6498,4100,-1,-1,0
24.48,22.15,-57.86,3137,-6497,4103,-1,-1,0
24.48,22.15,-57.86,3137,-6499,4105,-1,-1,-1
24.48,22.15,-57.86,3139,-6500,4104,-1,-1,0
24.48,22.15,-57.86,3143,-6505,4095,0,-1,-1
24.48,22.15,-57.86,3147,-6508,4102,-1,-1,0
24.49,22.16,-57.86,3144,-6506,4091,0,-1,0
24.48,22.16,-57.86,3142,-6512,4090,0,-1,0
24.48,22.16,-57.86,3136,-6508,4085,0,0,0
24.48,22.16,-57.85,3135,-6510,4090,0,0,-1
24.48,22.16,-57.84,3136,-6503,4096,0,-1,-1
24.49,22.17,-57.83,3136,-6494,4097,0,-1,0
24.49,22.17,-57.83,3131,-6484,4090,0,-1,-1
24.48,22.16,-57.82,3127,-6480,4098,0,-1,0
24.49,22.17,-57.83,3134,-6496,4102,-1,-1,0
24.49,22.17,-57.83,3137,-6501,4101,-1,-1,0
24.49,22.18,-57.83,3139,-6508,4106,0,-1,-1
24.49,22.18,-57.83,3143,-6507,4093,0,0,-1
24.48,22.17,-57.83,3138,-6508,4087,0,0,-1
24.49,22.17,-57.82,3135,-6501,4092,0,-1,-1
24.48,22.18,-57.81,3144,-6496,4099,0,-1,-1
24.49,22.18,-57.80,3149,-6497,4100,0,-1,0
24.49,22.18,-57.79,3150,-6499,4104,0,-1,0
24.49,22.19,-57.78,3146,-6495,4110,0,-1,0
24.49,22.18,-57.77,3139,-6487,4112,0,-1,-1
24.48,22.18,-57.76,3134,-6483,4103,0,-1,0
24.49,22.19,-57.76,3145,-6481,4091,0,-1,-1
24.49,22.19,-57.76,3154,-6487,4106,0,-1,-1
24.50,22.20,-57.76,3144,-6486,4117,0,-1,0
24.49,22.20,-57.75,3147,-6498,4112,0,-1,0
24.49,22.20,-57.75,3142,-6495,4103,0,-1,0
24.50,22.20,-57.74,3142,-6490,4103,0,-1,-1
24.50,22.20,-57.73,3144,-6492,4106,0,-1,-1
24.50,22.21,-57.72,3145,-6493,4105,0,0,-1
24.50,22.21,-57.71,3146,-6486,4110,0,0,-1
24.50,22.20,-57.69,3141,-6477,4115,0,0,0
24.50,22.20,-57.68,3136,-6470,4128,0,-1,0
24.50,22.20,-57.68,3141,-6474,4131,-1,-1,0
24.50,22.21,-57.68,3146,-6487,4130,0,-1,-1
24.51,22.22,-57.67,3157,-6492,4126,0,-1,-1
24.51,22.21,-57.66,3151,-6486,4115,0,0,-1
24.51,22.22,-57.65,3155,-6470,4108,0,0,0
24.51,22.22,-57.64,3153,-6465,4119,0,-1,0
24.51,22.22,-57.64,3156,-6466,4120,-1,-1,0
24.51,22.22,-57.64,3152,-6487,4116,0,-1,0
24.51,22.23,-57.64,3153,-6497,4129,0,-1,-1
24.51,22.23,-57.64,3149,-6504,4111,0,0,-1
24.51,22.22,-57.63,3146,-6493,4118,0,0,-1
24.51,22.22,-57.61,3146,-6488,4114,0,0,-1
24.52,22.23,-57.61,3146,-6472,4117,0,0,-1
24.52,22.23,-57.60,3158,-6461,4124,0,-1,-1
24.52,22.23,-57.59,3159,-6467,4120,0,0,0
24.52,22.23,-57.59,3155,-6464,4123,-1,0,0
24.52,22.23,-57.59,3150,-6473,4119,-1,0,0
24.52,22.23,-57.59,3141,-6469,4125,-1,-1,-1
24.52,22.23,-57.59,3146,-6471,4131,-1,0,-1
24.53,22.23,-57.59,3148,-6471,4130,-1,0,0
24.53,22.23,-57.59,3152,-6474,4131,-1,0,0
24.52,22.22,-57.59,3150,-6479,4131,-1,0,0
24.52,22.22,-57.60,3143,-6489,4123,0,-1,0
24.51,22.22,-57.60,3138,-6486,4119,0,-1,-1
24.51,22.22,-57.59,3140,-6486,4119,0,-1,0
24.51,22.22,-57.59,3142,-6484,4123,0,0,0
24.52,22.23,-57.58,3150,-6480,4129,0,-1,0
24.52,22.22,-57.57,3152,-6471,4135,0,0,0
24.51,22.22,-57.57,3145,-6466,4137,-1,0,0
24.51,22.22,-57.57,3145,-6468,4137,-1,0,0
24.51,22.21,-57.59,3148,-6470,4151,-1,0,0
24.50,22.20,-57.60,3153,-6480,4138,-1,0,0
24.50,22.20,-57.62,3155,-6484,4132,-1,0,0
24.50,22.20,-57.64,3152,-6470,4126,-2,0,0
24.50,22.19,-57.66,3158,-6472,4122,-1,0,0
24.50,22.18,-57.68,3152,-6484,4128,-1,0,0
24.49,22.17,-57.71,3145,-6478,4118,-1,0,0
24.48,22.15,-57.72,3138,-6478,4124,-2,0,0
24.48,22.14,-57.75,3143,-6486,4111,-2,0,0
24.47,22.12,-57.77,3129,-6496,4099,-1,0,0
24.45,22.11,-57.80,3131,-6502,4086,-1,0,0
24.45,22.10,-57.82,3149,-6511,4090,-1,0,0
24.44,22.08,-57.82,3138,-6488,4114,-1,0,0
24.43,22.07,-57.85,3141,-6507,4081,-1,0,0
24.41,22.04,-57.87,3108,-6494,4084,-1,0,0
24.41,22.03,-57.88,3115,-6501,4084,-1,0,0
24.40,22.02,-57.90,3097,-6505,4094,-1,0,0
24.40,22.02,-57.92,3126,-6497,4082,-1,0,-1
24.40,22.01,-57.93,3129,-6484,4108,-1,0,0
24.39,22.00,-57.94,3108,-6527,4078,-1,0,-1
24.39,21.99,-57.94,3105,-6486,4099,-1,0,0
24.40,21.99,-57.97,3094,-6512,4082,-1,-1,0
24.40,22.00,-57.98,3103,-6532,4088,-1,-1,-1
24.39,21.99,-57.99,3109,-6539,4083,-1,0,-1
24.40,21.99,-57.99,3110,-6528,4096,-1,0,-1
24.40,21.99,-58.00,3134,-6516,4083,-1,0,0
24.40,21.98,-58.00,3141,-6495,4089,-1,0,0
24.40,21.98,-58.01,3121,-6500,4068,-1,0,-1
24.40,21.98,-58.02,3118,-6510,4057,-1,-1,-1
24.41,21.98,-58.02,3103,-6511,4066,-1,0,-1
24.41,21.98,-58.03,3105,-6532,4067,-1,-1,-1
24.42,21.99,-58.02,3109,-6542,4077,0,0,-1
24.43,22.00,-58.02,3105,-6546,4064,0,0,-1
24.44,22.00,-58.01,3115,-6526,4064,0,0,-1
24.45,22.01,-57.99,3125,-6507,4060,0,0,-1
24.45,22.01,-57.99,3122,-6504,4078,0,0,-1
24.46,22.01,-57.98,3126,-6500,4092,-1,0,-1
24.46,22.01,-57.98,3129,-6504,4103,-1,0,0
24.46,22.00,-57.98,3122,-6507,4097,-1,0,-1
24.46,22.00,-57.98,3114,-6512,4098,-1,0,-1
24.47,22.00,-57.98,3116,-6503,4096,-1,0,-1
24.47,22.00,-57.99,3120,-6501,4097,-1,0,-1
24.47,22.00,-58.01,3117,-6514,4082,-1,0,-1
24.47,22.00,-58.02,3118,-6513,4083,-1,0,0
24.48,22.00,-58.03,3118,-6525,4096,-1,0,0
24.47,21.99,-58.03,3119,-6528,4082,-1,0,0
24.47,21.98,-58.04,3117,-6531,4088,-1,0,0
24.47,21.98,-58.04,3108,-6526,4081,0,0,0
24.46,21.97,-58.03,3108,-6524,4085,0,0,0
24.47,21.97,-58.02,3117,-6499,4104,-1,0,0
24.47,21.96,-58.03,3116,-6488,4105,-1,-1,0
24.46,21.96,-58.06,3127,-6514,4075,-1,-1,0
24.46,21.96,-58.06,3114,-6514,4081,-1,0,0
24.46,21.95,-58.05,3114,-6522,4098,-1,0,0
24.46,21.94,-58.06,3104,-6518,4097,-1,0,0
24.45,21.94,-58.08,3104,-6535,4075,-1,-1,0
24.45,21.93,-58.08,3119,-6529,4074,-1,0,0
24.44,21.92,-58.09,3121,-6527,4067,-1,0,0
24.44,21.91,-58.09,3106,-6532,4079,-1,0,0
24.43,21.90,-58.10,3093,-6534,4063,-1,0,0
24.43,21.90,-58.10,3084,-6526,4069,-1,-1,0
24.43,21.90,-58.10,3087,-6527,4083,-1,-1,0
24.43,21.90,-58.10,3085,-6518,4090,-1,-1,-1
24.43,21.91,-58.11,3094,-6523,4069,-1,-1,-1
24.44,21.92,-58.11,3099,-6517,4061,0,0,-1
24.45,21.93,-58.10,3103,-6519,4062,0,-1,-1
24.46,21.94,-58.10,3108,-6525,4076,-1,-1,-1
24.47,21.95,-58.10,3112,-6532,4075,0,-1,-1
24.47,21.96,-58.10,3113,-6538,4077,0,-1,-1
24.48,21.97,-58.09,3101,-6541,4066,0,-1,-1
24.49,21.98,-58.09,3112,-6540,4059,0,-1,-1
24.50,22.00,-58.06,3122,-6523,4071,0,-1,-1
24.51,22.00,-58.05,3126,-6512,4074,0,-1,-1
24.52,22.02,-58.04,3136,-6501,4078,0,-1,-1
24.52,22.02,-58.03,3142,-6505,4078,-1,-1,0
24.53,22.03,-58.03,3125,-6517,4079,0,-1,-1
24.53,22.03,-58.02,3125,-6526,4080,0,0,-1
24.54,22.04,-58.02,3110,-6520,4075,0,-1,-1
24.54,22.04,-58.00,3110,-6511,4084,0,-1,-1
24.54,22.05,-58.00,3115,-6518,4083,0,-1,-1
24.55,22.06,-57.99,3121,-6505,4078,0,-1,-1
24.55,22.06,-57.99,3126,-6511,4075,0,-1,0
24.55,22.07,-57.98,3131,-6511,4082,0,-1,0
24.55,22.07,-57.97,3128,-6502,4094,0,-1,-1
24.56,22.08,-57.97,3115,-6508,4093,0,-1,-1
24.56,22.08,-57.97,3118,-6506,4094,0,-1,-1
24.56,22.09,-57.96,3125,-6510,4092,0,-1,-1
24.56,22.09,-57.96,3134,-6510,4093,0,-1,-1
24.57,22.10,-57.95,3129,-6509,4093,0,-1,0
24.57,22.10,-57.95,3126,-6510,4089,0,-1,-1
24.57,22.11,-57.95,3128,-6519,4085,0,-1,-1
24.58,22.11,-57.95,3130,-6517,4081,0,-1,-1
24.58,22.11,-57.94,3132,-6519,4085,0,-1,-1
24.57,22.12,-57.94,3135,-6511,4093,0,-1,-1
24.58,22.12,-57.92,3137,-6504,4097,0,-1,-1
24.58,22.12,-57.92,3133,-6498,4091,0,-1,-1
24.58,22.13,-57.91,3133,-6504,4093,0,-1,-1
24.59,22.13,-57.91,3141,-6497,4095,0,-1,0
24.59,22.14,-57.90,3145,-6499,4093,0,-1,-1
24.59,22.14,-57.90,3149,-6496,4088,-1,-1,-1
24.59,22.14,-57.91,3146,-6507,4092,-1,-1,0
24.60,22.15,-57.91,3142,-6514,4094,0,-1,-1
24.60,22.16,-57.90,3147,-6510,4089,0,-1,-1
24.59,22.15,-57.90,3142,-6510,4091,0,0,-1
24.60,22.16,-57.89,3143,-6510,4091,0,0,-1
24.60,22.16,-57.88,3137,-6507,4090,0,-1,-1
24.60,22.16,-57.88,3143,-6507,4094,0,-1,-1
24.60,22.17,-57.88,3148,-6510,4093,0,-1,-1
24.61,22.17,-57.87,3145,-6504,4087,0,-1,-1
24.61,22.18,-57.86,3142,-6496,4092,0,0,0
24.61,22.18,-57.85,3142,-6486,4090,0,0,0
24.61,22.18,-57.83,3138,-6478,4102,0,-1,0
24.60,22.17,-57.83,3131,-6482,4101,-1,-1,0
24.61,22.18,-57.83,3132,-6489,4102,0,-1,0
24.61,22.18,-57.83,3139,-6492,4099,0,-1,0
24.61,22.19,-57.83,3145,-6495,4098,0,-1,-1
24.61,22.19,-57.82,3142,-6488,4103,0,-1,-1
24.62,22.19,-57.81,3145,-6486,4096,0,0,0
24.62,22.19,-57.80,3146,-6482,4100,0,0,0
24.61,22.19,-57.80,3145,-6485,4111,0,-1,0
24.61,22.19,-57.80,3141,-6499,4108,-1,-1,0
24.61,22.19,-57.80,3139,-6501,4104,0,-1,0
24.61,22.19,-57.80,3140,-6496,4093,0,0,-1
24.61,22.19,-57.80,3136,-6492,4091,0,0,-1
24.61,22.19,-57.79,3138,-6489,4096,0,-1,-1
24.62,22.20,-57.78,3148,-6485,4099,0,-1,0
24.62,22.20,-57.77,3147,-6488,4109,0,-1,0
24.62,22.20,-57.77,3152,-6485,4103,0,-1,0
24.62,22.21,-57.76,3147,-6493,4104,0,-1,0
24.62,22.20,-57.76,3141,-6483,4105,0,0,0
24.62,22.21,-57.76,3150,-6480,4108,0,-1,-1
24.62,22.21,-57.75,3151,-6476,4115,0,-1,0
24.62,22.21,-57.75,3156,-6488,4117,0,-1,-1
24.63,22.22,-57.74,3157,-6486,4119,0,0,0
24.63,22.21,-57.73,3151,-6493,4105,0,0,0
24.62,22.21,-57.72,3147,-6487,4111,0,0,0
24.62,22.21,-57.72,3143,-6493,4108,0,0,-1
24.62,22.22,-57.71,3148,-6493,4108,0,0,-1
24.63,22.22,-57.70,3152,-6491,4104,0,0,-1
24.63,22.22,-57.69,3150,-6481,4104,0,0,-1
24.63,22.22,-57.68,3139,-6471,4110,0,0,0
24.63,22.22,-57.67,3141,-6463,4117,0,0,0
24.64,22.22,-57.66,3151,-6469,4128,-1,-1,0
24.64,22.22,-57.66,3147,-6478,4129,-1,-1,0
24.64,22.22,-57.67,3152,-6486,4117,-1,-1,0
24.64,22.22,-57.67,3152,-6486,4126,-1,-1,-1
24.64,22.22,-57.66,3149,-6489,4131,-1,0,-1
24.64,22.23,-57.66,3157,-6490,4127,0,0,-1
24.64,22.22,-57.66,3153,-6493,4113,0,0,0
24.64,22.22,-57.65,3161,-6487,4124,-1,0,0
24.64,22.22,-57.65,3152,-6480,4115,0,0,0
24.63,22.21,-57.64,3149,-6479,4118,0,0,0
24.63,22.21,-57.64,3151,-6474,4109,0,0,0
24.63,22.21,-57.64,3139,-6468,4121,0,0,0
24.63,22.20,-57.64,3141,-6471,4118,-1,-1,0
24.62,22.20,-57.64,3145,-6473,4126,-1,-1,0
24.61,22.19,-57.65,3142,-6486,4121,-1,-1,0
24.61,22.19,-57.65,3139,-6483,4120,-1,0,0
24.62,22.19,-57.65,3141,-6477,4119,-1,-1,-1
24.62,22.19,-57.65,3133,-6477,4115,-1,-1,-1
24.62,22.19,-57.65,3139,-6481,4116,0,-1,-1
24.61,22.19,-57.65,3135,-6486,4125,-1,-1,0
24.62,22.20,-57.65,3152,-6496,4122,0,-1,-1
24.62,22.20,-57.65,3155,-6488,4112,0,0,0
24.61,22.19,-57.64,3140,-6479,4109,0,0,0
24.62,22.19,-57.63,3134,-6473,4119,-1,0,0
24.61,22.19,-57.64,3126,-6480,4125,-1,0,0
24.62,22.19,-57.63,3127,-6481,4130,0,-1,-1
24.62,22.19,-57.63,3139,-6478,4124,0,0,-1
24.62,22.19,-57.63,3149,-6469,4127,-1,0,-1
24.64,22.20,-57.62,3158,-6459,4128,-1,0,-1
24.63,22.19,-57.62,3148,-6454,4139,-1,0,0
24.64,22.20,-57.63,3137,-6456,4133,-1,0,0
24.63,22.19,-57.64,3142,-6476,4129,-1,0,0
24.63,22.19,-57.65,3136,-6491,4124,-1,0,-1
24.64,22.19,-57.66,3140,-6496,4120,-1,0,-1
24.64,22.19,-57.66,3130,-6494,4111,-1,0,-1
24.64,22.19,-57.66,3135,-6491,4106,0,0,-1
24.64,22.18,-57.65,3133,-6488,4105,0,0,-1
24.64,22.18,-57.65,3138,-6482,4125,-1,0,-1
24.64,22.18,-57.65,3141,-6471,4116,-1,0,0
24.65,22.18,-57.65,3147,-6473,4125,-1,0,0
24.65,22.18,-57.65,3143,-6482,4122,-1,0,0
24.65,22.17,-57.66,3142,-6481,4108,-1,0,0
24.65,22.17,-57.67,3140,-6477,4120,-1,0,0
24.65,22.17,-57.68,3135,-6482,4127,-1,0,0
24.65,22.16,-57.68,3143,-6489,4122,-1,0,0
24.65,22.15,-57.69,3145,-6494,4131,-1,0,0
24.65,22.15,-57.71,3140,-6499,4114,-1,0,0
24.64,22.14,-57.71,3134,-6501,4109,-1,0,0
24.65,22.14,-57.72,3129,-6498,4111,-1,0,0
24.65,22.14,-57.72,3129,-6491,4115,-1,0,0
24.65,22.13,-57.72,3131,-6488,4114,-1,0,0
24.65,22.12,-57.72,3141,-6488,4125,-1,0,0
24.64,22.11,-57.72,3124,-6481,4127,-1,0,0
24.64,22.10,-57.73,3131,-6479,4121,-1,0,0
24.64,22.10,-57.74,3124,-6485,4125,-1,0,0
24.63,22.09,-57.75,3127,-6485,4119,-1,0,0
24.63,22.09,-57.77,3128,-6482,4116,-1,0,0
24.63,22.08,-57.78,3129,-6493,4125,-1,0,0
24.64,22.08,-57.79,3127,-6490,4117,-1,0,0
24.64,22.07,-57.80,3128,-6497,4104,-1,0,0
24.64,22.07,-57.80,3124,-6503,4099,-1,0,0
24.63,22.06,-57.81,3127,-6504,4098,-1,0,0
24.64,22.06,-57.82,3134,-6504,4115,-1,0,0
24.64,22.05,-57.83,3124,-6505,4104,-1,0,0
24.63,22.04,-57.83,3120,-6497,4106,-1,0,0
24.63,22.04,-57.84,3120,-6501,4103,-1,0,0
24.63,22.04,-57.85,3121,-6494,4109,-1,0,0
24.63,22.03,-57.86,3132,-6490,4110,-1,0,0
24.63,22.02,-57.87,3127,-6500,4098,-1,0,-1
24.63,22.02,-57.89,3126,-6502,4097,-1,0,0
24.63,22.02,-57.90,3120,-6513,4091,-1,0,0
24.63,22.01,-57.91,3111,-6509,4089,-1,0,0
24.62,22.00,-57.92,3110,-6515,4094,-1,0,0
24.62,21.99,-57.92,3114,-6510,4098,-1,0,0
24.63,21.99,-57.92,3111,-6515,4097,-1,0,0
24.62,21.98,-57.93,3114,-6513,4096,-1,0,0
24.62,21.98,-57.94,3104,-6518,4101,-1,0,0
24.62,21.97,-57.94,3102,-6523,4112,-1,0,0
24.61,21.96,-57.95,3103,-6514,4104,-1,0,0
24.61,21.96,-57.95,3110,-6506,4093,-1,0,0
24.61,21.96,-57.96,3117,-6493,4094,-1,0,0
24.62,21.96,-57.97,3114,-6495,4091,-1,0,0
24.61,21.95,-57.98,3120,-6503,4103,-1,0,0
24.60,21.94,-57.98,3113,-6522,4096,-1,0,0
24.59,21.93,-58.00,3117,-6532,4096,-1,0,0
24.58,21.93,-58.02,3108,-6538,4081,-1,-1,0
24.58,21.92,-58.03,3097,-6540,4074,0,0,0
24.57,21.92,-58.04,3101,-6522,4066,-1,-1,0
24.57,21.91,-58.03,3084,-6517,4080,0,0,0
24.56,21.91,-58.04,3100,-6519,4088,-1,-1,0
24.56,21.91,-58.05,3123,-6525,4079,-1,-1,0
24.55,21.90,-58.05,3095,-6518,4087,-1,-1,0
24.55,21.90,-58.06,3095,-6533,4081,-1,-1,-1
24.55,21.90,-58.06,3097,-6520,4076,0,0,0
24.55,21.90,-58.06,3083,-6529,4080,0,-1,-1
24.56,21.92,-58.05,3115,-6502,4099,-1,-1,-1
24.57,21.93,-58.06,3094,-6524,4069,-1,-1,-1
24.57,21.94,-58.07,3108,-6536,4070,0,-1,-1
24.58,21.95,-58.06,3094,-6528,4076,0,-1,-1
24.58,21.96,-58.06,3091,-6527,4081,0,-1,-1
24.59,21.97,-58.05,3100,-6533,4068,0,-1,-1
24.60,21.98,-58.04,3121,-6531,4072,0,-1,-1
24.61,21.99,-58.03,3104,-6519,4086,0,0,-1
24.61,21.99,-58.01,3099,-6509,4099,0,-1,-1
24.63,22.01,-57.99,3111,-6505,4098,0,-1,-1
24.64,22.02,-57.98,3115,-6501,4094,0,-1,-1
24.65,22.04,-57.98,3117,-6508,4092,0,-1,-1
24.66,22.05,-57.97,3123,-6510,4107,0,-1,-1
24.67,22.06,-57.97,3124,-6514,4095,0,-1,-1
24.67,22.07,-57.96,3125,-6514,4086,0,-1,-1
24.68,22.08,-57.95,3121,-6515,4083,0,-1,-1
24.68,22.08,-57.95,3120,-6507,4072,0,-1,-1
24.68,22.09,-57.95,3129,-6506,4078,0,-1,-1
24.69,22.10,-57.94,3133,-6504,4082,0,-1,-1
24.69,22.10,-57.93,3137,-6514,4093,0,-1,-1
24.70,22.11,-57.92,3135,-6512,4092,0,-1,-1
24.70,22.11,-57.91,3125,-6503,4091,0,0,-1
24.71,22.12,-57.91,3122,-6494,4091,0,-1,-1
24.71,22.12,-57.90,3124,-6493,4088,0,-1,-1
24.71,22.12,-57.89,3128,-6490,4096,0,-1,-1
24.71,22.13,-57.89,3134,-6495,4103,0,-1,-1
24.71,22.14,-57.89,3132,-6498,4105,0,-1,-1
24.71,22.13,-57.89,3127,-6500,4108,-1,-1,-1
24.71,22.14,-57.89,3123,-6510,4099,0,-1,0
24.72,22.14,-57.89,3131,-6510,4106,0,-1,-1
24.72,22.15,-57.88,3139,-6508,4102,0,-1,-1
24.72,22.15,-57.87,3126,-6500,4107,0,-1,0
24.72,22.15,-57.86,3128,-6500,4109,0,-1,0
24.72,22.16,-57.86,3123,-6501,4103,0,-1,0
24.72,22.16,-57.86,3126,-6507,4092,0,-1,-1
24.72,22.16,-57.85,3124,-6505,4088,0,-1,-1
24.72,22.16,-57.84,3137,-6495,4101,0,-1,-1
24.73,22.17,-57.83,3140,-6490,4100,0,0,-1
24.73,22.17,-57.83,3141,-6485,4091,0,-1,0
24.73,22.18,-57.83,3144,-6487,4108,-1,-1,0
24.73,22.18,-57.83,3137,-6501,4109,-1,-1,0
24.72,22.17,-57.83,3139,-6513,4110,0,-1,0
24.72,22.17,-57.82,3125,-6510,4103,0,0,0
24.72,22.18,-57.82,3129,-6507,4089,0,-1,-1
24.73,22.18,-57.82,3129,-6499,4081,0,-1,-1
24.73,22.19,-57.80,3144,-6491,4101,0,0,-1
24.72,22.18,-57.79,3151,-6495,4108,0,-1,0
24.73,22.19,-57.79,3162,-6493,4123,0,-1,0
24.73,22.19,-57.78,3157,-6495,4121,0,-1,0
24.73,22.19,-57.77,3146,-6495,4119,0,0,-1
24.73,22.19,-57.76,3143,-6486,4121,0,-1,0
24.74,22.20,-57.75,3147,-6484,4111,0,-1,-1
24.74,22.20,-57.75,3148,-6484,4104,0,0,0
24.74,22.20,-57.75,3152,-6479,4101,0,0,0
24.73,22.20,-57.74,3138,-6487,4106,0,0,0
24.73,22.20,-57.74,3136,-6488,4094,-1,-1,0
24.73,22.20,-57.74,3139,-6492,4103,0,-1,-1
24.73,22.20,-57.75,3136,-6494,4107,0,-1,-1
24.74,22.21,-57.74,3142,-6494,4101,0,-1,-1
24.74,22.21,-57.72,3141,-6488,4110,0,-1,-1
24.74,22.21,-57.71,3149,-6485,4115,0,0,-1
24.74,22.22,-57.71,3151,-6478,4110,0,0,-1
24.75,22.22,-57.70,3150,-6476,4115,0,-1,-1
24.75,22.22,-57.69,3152,-6480,4129,0,-1,-1
24.75,22.23,-57.69,3154,-6485,4136,-1,-1,-1
24.75,22.23,-57.69,3150,-6486,4122,0,-1,-1
24.75,22.23,-57.69,3146,-6483,4121,0,-1,-1
24.75,22.23,-57.69,3152,-6486,4124,0,0,-1
24.76,22.23,-57.68,3145,-6494,4115,0,0,-1
24.76,22.23,-57.67,3145,-6489,4107,0,0,-1
24.76,22.23,-57.67,3150,-6497,4113,0,0,-1
24.76,22.23,-57.66,3149,-6494,4120,0,0,0
24.76,22.23,-57.65,3148,-6479,4125,0,0,0
24.76,22.23,-57.64,3139,-6474,4117,0,-1,-1
24.76,22.23,-57.64,3137,-6471,4111,-1,-1,0
24.75,22.23,-57.65,3153,-6479,4120,-1,0,0
24.75,22.22,-57.65,3151,-6475,4121,-1,0,0
24.76,22.22,-57.64,3162,-6478,4127,0,0,0
24.75,22.22,-57.65,3152,-6478,4119,-1,0,0
24.75,22.22,-57.65,3138,-6482,4103,-1,-1,0
24.74,22.21,-57.65,3121,-6484,4117,-1,-1,0
24.74,22.21,-57.66,3132,-6486,4118,-1,-1,0
24.73,22.21,-57.67,3141,-6497,4114,-1,0,0
24.73,22.21,-57.67,3149,-6479,4117,-1,-1,0
24.73,22.21,-57.68,3155,-6477,4100,-1,0,0
24.72,22.20,-57.68,3145,-6474,4109,-1,0,0
24.72,22.19,-57.68,3126,-6480,4114,-1,-1,0
24.72,22.19,-57.68,3127,-6488,4118,-1,-1,0
24.72,22.20,-57.69,3130,-6500,4123,-1,-1,0
24.72,22.20,-57.69,3132,-6510,4112,-1,0,0
24.72,22.19,-57.69,3126,-6495,4113,0,0,-1
24.72,22.19,-57.68,3133,-6487,4125,-1,0,-1
24.73,22.20,-57.68,3143,-6485,4118,0,0,-1
24.73,22.20,-57.67,3139,-6478,4118,-1,0,-1
24.74,22.21,-57.67,3143,-6477,4126,-1,0,-1
24.74,22.20,-57.67,3149,-6480,4133,-1,0,-1
24.74,22.21,-57.67,3148,-6480,4130,-1,0,-1
24.75,22.21,-57.67,3148,-6489,4126,-1,0,-1
24.75,22.21,-57.67,3146,-6491,4116,-1,0,-1
24.75,22.21,-57.67,3145,-6475,4119,-1,0,-1
24.76,22.21,-57.67,3146,-6469,4118,-1,0,-1
24.77,22.22,-57.67,3148,-6474,4118,-1,0,-1
24.76,22.21,-57.68,3150,-6482,4115,-1,0,0
24.77,22.21,-57.69,3147,-6493,4105,-1,0,-1
24.77,22.21,-57.69,3140,-6495,4100,-1,0,-1
24.77,22.20,-57.69,3140,-6500,4100,0,0,-1
24.78,22.20,-57.68,3131,-6489,4123,0,0,-1
24.78,22.20,-57.68,3139,-6484,4119,-1,0,-1
24.78,22.20,-57.67,3145,-6471,4130,-1,0,0
24.78,22.20,-57.67,3148,-6472,4123,-1,0,0
24.78,22.19,-57.67,3143,-6475,4133,-1,0,0
24.78,22.19,-57.68,3142,-6480,4132,-1,0,0
24.78,22.18,-57.69,3135,-6482,4121,-1,0,0
24.77,22.17,-57.70,3132,-6483,4114,-1,0,0
24.78,22.17,-57.72,3140,-6491,4113,-1,0,0
24.78,22.17,-57.72,3136,-6493,4123,-1,0,0
24.78,22.17,-57.72,3136,-6498,4119,-1,0,-1
24.77,22.16,-57.73,3136,-6496,4117,-1,0,0
24.78,22.15,-57.73,3135,-6490,4117,-1,0,0
24.77,22.15,-57.73,3129,-6497,4120,-1,0,0
24.77,22.14,-57.73,3127,-6497,4110,-1,0,0
24.77,22.14,-57.74,3131,-6498,4109,-1,0,0
24.77,22.13,-57.74,3132,-6498,4107,-1,0,0
24.77,22.13,-57.74,3130,-6489,4118,-1,0,0
24.77,22.12,-57.75,3133,-6482,4118,-1,0,0
24.77,22.12,-57.76,3125,-6482,4115,-1,0,0
24.76,22.11,-57.76,3125,-6490,4116,-1,-1,0
24.76,22.11,-57.77,3128,-6496,4116,-1,0,0
24.77,22.11,-57.78,3138,-6496,4114,-1,0,0
24.76,22.10,-57.79,3131,-6507,4106,-1,0,0
24.76,22.10,-57.79,3136,-6497,4108,-1,0,0
24.76,22.10,-57.80,3130,-6493,4113,-1,0,0
24.76,22.08,-57.81,3130,-6493,4101,-1,0,0
24.75,22.08,-57.82,3128,-6505,4099,-1,0,0
24.75,22.07,-57.82,3125,-6507,4101,-1,0,0
24.75,22.07,-57.83,3121,-6510,4096,-1,0,0
24.75,22.06,-57.84,3113,-6508,4102,-1,0,-1
24.74,22.05,-57.84,3117,-6499,4092,-1,0,-1
24.75,22.05,-57.84,3116,-6500,4094,-1,0,0
24.75,22.05,-57.84,3124,-6489,4104,-1,0,0
24.75,22.05,-57.84,3131,-6489,4111,-1,0,0
24.75,22.04,-57.85,3124,-6498,4105,-1,0,0
24.75,22.04,-57.86,3118,-6502,4096,-1,0,0
24.75,22.03,-57.87,3119,-6498,4088,-1,0,0
24.74,22.03,-57.89,3120,-6498,4087,-1,0,0
24.75,22.03,-57.90,3118,-6499,4100,-1,0,0
24.74,22.02,-57.91,3125,-6508,4096,-1,0,0
24.74,22.02,-57.92,3120,-6515,4095,-1,0,-1
24.75,22.02,-57.93,3123,-6516,4097,-1,0,-1
24.75,22.02,-57.93,3120,-6510,4090,-1,0,0
24.75,22.02,-57.94,3114,-6517,4096,-1,0,0
24.74,22.01,-57.94,3117,-6519,4094,-1,0,0
24.75,22.01,-57.94,3108,-6520,4092,0,0,-1
24.75,22.01,-57.94,3116,-6511,4101,-1,0,-1
24.75,22.01,-57.93,3110,-6508,4098,-1,0,-1
24.76,22.01,-57.92,3104,-6500,4106,-1,0,-1
24.76,22.01,-57.92,3105,-6504,4101,-1,0,-1
24.76,22.01,-57.92,3110,-6504,4103,-1,-1,-1
24.77,22.02,-57.92,3115,-6506,4096,-1,-1,-1
24.77,22.02,-57.92,3116,-6507,4102,-1,-1,-1
24.77,22.02,-57.92,3112,-6504,4098,0,-1,-1
24.78,22.03,-57.92,3111,-6503,4090,0,-1,-1
24.78,22.04,-57.91,3119,-6506,4100,0,-1,-1
24.78,22.05,-57.91,3120,-6510,4090,0,-1,-1
24.79,22.05,-57.90,3114,-6514,4101,0,-1,-1
24.79,22.06,-57.89,3121,-6511,4102,0,-1,-1
24.80,22.07,-57.89,3123,-6509,4098,0,-1,-1
24.80,22.07,-57.88,3126,-6505,4097,0,-1,-1
24.81,22.08,-57.88,3130,-6509,4097,0,-1,-1
24.82,22.09,-57.88,3131,-6507,4096,0,-1,-1
24.82,22.09,-57.87,3133,-6503,4097,0,-1,-1
24.82,22.10,-57.86,3131,-6493,4094,0,-1,-1
24.82,22.11,-57.86,3124,-6490,4084,0,-1,0
24.82,22.11,-57.86,3121,-6493,4082,-1,-1,-1
24.83,22.12,-57.86,3119,-6505,4089,0,-1,-1
24.83,22.12,-57.86,3126,-6507,4104,0,-1,-1
24.83,22.13,-57.85,3129,-6501,4112,0,-1,-1
24.84,22.13,-57.84,3130,-6496,4108,0,-1,-1
24.84,22.14,-57.83,3136,-6482,4107,0,-1,-1
24.85,22.15,-57.84,3144,-6484,4098,-1,-1,0
24.84,22.15,-57.84,3135,-6501,4102,0,-1,-1
24.84,22.15,-57.84,3130,-6517,4099,0,-1,-1
24.84,22.15,-57.84,3113,-6521,4094,0,-1,-1
24.84,22.15,-57.83,3122,-6512,4091,0,-1,-1
24.85,22.16,-57.82,3127,-6508,4088,0,-1,-1
24.86,22.17,-57.82,3136,-6497,4095,0,-1,-1
24.85,22.17,-57.80,3144,-6493,4109,0,-1,-1
24.86,22.18,-57.80,3151,-6487,4112,0,-1,-1
24.86,22.19,-57.79,3148,-6481,4102,0,-1,-1
24.86,22.19,-57.79,3138,-6481,4099,0,-1,0
24.86,22.19,-57.78,3140,-6483,4101,0,-1,0
24.86,22.19,-57.77,3139,-6488,4103,0,-1,-1
24.86,22.20,-57.77,3142,-6486,4114,0,-1,-1
24.87,22.21,-57.77,3142,-6490,4116,0,-1,-1
24.87,22.21,-57.77,3146,-6491,4120,-1,-1,-1
24.87,22.21,-57.77,3139,-6498,4106,0,-1,0
24.86,22.21,-57.77,3137,-6499,4106,0,-1,-1
24.87,22.21,-57.76,3142,-6505,4105,0,-1,-1
24.87,22.22,-57.76,3148,-6503,4097,0,-1,-1
24.87,22.22,-57.75,3147,-6495,4089,0,0,-1
24.87,22.22,-57.74,3136,-6489,4101,0,-1,-1
24.87,22.23,-57.73,3138,-6479,4109,0,-1,0
24.87,22.22,-57.72,3137,-6467,4109,0,-1,-1
24.87,22.23,-57.72,3134,-6458,4112,0,-1,0
24.87,22.23,-57.72,3136,-6477,4124,-1,-1,-1
24.87,22.23,-57.72,3144,-6484,4120,-1,-1,0
24.87,22.24,-57.72,3144,-6491,4117,0,-1,-1
24.87,22.24,-57.72,3146,-6492,4108,0,0,-1
24.87,22.24,-57.72,3140,-6498,4096,0,-1,-1
24.87,22.24,-57.72,3136,-6491,4104,0,-1,0
24.87,22.24,-57.71,3141,-6493,4113,0,-1,-1
24.88,22.25,-57.70,3144,-6495,4114,0,-1,0
24.88,22.24,-57.69,3150,-6491,4117,0,0,0
24.88,22.25,-57.68,3153,-6485,4129,0,-1,0
24.88,22.24,-57.67,3143,-6470,4132,0,-1,-1
24.87,22.24,-57.66,3145,-6470,4132,0,0,0
24.88,22.25,-57.66,3143,-6474,4135,-1,-1,0
24.88,22.25,-57.66,3149,-6478,4124,-1,0,0
24.88,22.25,-57.67,3141,-6482,4117,-1,0,0
24.87,22.24,-57.67,3135,-6491,4121,-1,0,0
24.87,22.24,-57.67,3136,-6491,4119,-1,0,0
24.87,22.24,-57.67,3137,-6490,4117,-1,0,0
24.87,22.24,-57.66,3147,-6491,4110,0,0,-1
24.87,22.24,-57.66,3150,-6490,4093,0,0,0
24.87,22.23,-57.65,3134,-6476,4117,0,0,0
24.86,22.22,-57.63,3130,-6466,4127,0,-1,0
24.86,22.22,-57.64,3128,-6467,4124,-1,-1,0
24.86,22.23,-57.64,3143,-6483,4121,0,-1,0
24.86,22.23,-57.62,3147,-6474,4121,0,0,-1
24.86,22.23,-57.61,3138,-6469,4126,0,-1,-1
24.86,22.24,-57.61,3147,-6465,4124,0,-1,-1
24.87,22.24,-57.60,3156,-6464,4132,0,-1,0
24.86,22.24,-57.60,3153,-6471,4136,-1,-1,0
24.87,22.25,-57.60,3159,-6478,4137,-1,-1,0
24.87,22.25,-57.60,3148,-6491,4128,-1,0,-1
24.86,22.24,-57.59,3145,-6487,4124,0,0,-1
24.87,22.25,-57.59,3136,-6488,4116,0,-1,-1
24.87,22.25,-57.59,3141,-6481,4107,0,-1,-1
24.87,22.25,-57.58,3147,-6472,4111,0,0,-1
24.88,22.26,-57.56,3155,-6465,4121,0,0,-1
24.88,22.26,-57.55,3150,-6465,4135,0,0,0
24.87,22.26,-57.55,3147,-6463,4131,-1,0,0
24.87,22.26,-57.55,3139,-6459,4126,-1,-1,-1
24.87,22.26,-57.56,3138,-6464,4122,-1,-1,-1
24.88,22.26,-57.56,3143,-6475,4127,0,-1,-1
24.88,22.26,-57.55,3150,-6479,4137,0,-1,0
24.88,22.26,-57.55,3148,-6472,4142,0,0,0
24.87,22.25,-57.55,3148,-6474,4137,-1,0,0
24.87,22.25,-57.55,3138,-6480,4132,-1,0,0
24.87,22.25,-57.54,3146,-6479,4139,0,0,0
24.87,22.25,-57.54,3148,-6476,4134,0,0,0
24.87,22.25,-57.53,3148,-6470,4125,0,0,0
24.87,22.25,-57.52,3144,-6463,4131,0,-1,-1
24.87,22.25,-57.51,3153,-6457,4141,0,0,-1
24.87,22.24,-57.51,3151,-6455,4148,-1,0,0
24.87,22.24,-57.51,3155,-6453,4152,-1,-1,0
24.87,22.25,-57.52,3150,-6463,4150,-1,-1,0
24.87,22.25,-57.52,3149,-6473,4149,-1,-1,-1
24.87,22.25,-57.53,3146,-6484,4137,-1,-1,0
24.87,22.25,-57.53,3146,-6485,4139,-1,-1,-1
24.88,22.26,-57.53,3150,-6475,4133,-1,-1,-1
24.88,22.26,-57.53,3155,-6468,4138,0,-1,0
24.88,22.26,-57.53,3155,-6473,4136,0,0,0
24.87,22.26,-57.52,3161,-6466,4147,-1,0,0
24.88,22.25,-57.52,3146,-6464,4144,-1,0,0
24.87,22.25,-57.52,3136,-6464,4142,-1,0,0
24.87,22.24,-57.52,3142,-6464,4140,-1,0,-1
24.88,22.25,-57.52,3143,-6464,4134,-1,0,-1
24.88,22.24,-57.52,3150,-6461,4135,-1,0,0
24.88,22.24,-57.53,3157,-6460,4137,-1,0,0
24.88,22.24,-57.54,3147,-6468,4136,-1,0,0
24.88,22.23,-57.55,3144,-6472,4128,-1,0,0
24.88,22.23,-57.56,3145,-6474,4138,-1,0,-1
24.88,22.23,-57.57,3145,-6480,4129,-1,0,0
24.88,22.23,-57.57,3144,-6478,4125,-1,0,-1
24.88,22.21,-57.57,3145,-6471,4132,-1,0,0
24.88,22.21,-57.58,3135,-6468,4120,-1,0,0
24.88,22.21,-57.59,3131,-6467,4119,-1,0,0
24.87,22.20,-57.60,3136,-6470,4128,-1,0,0
24.87,22.19,-57.61,3135,-6479,4131,-1,0,-1
24.87,22.18,-57.62,3137,-6484,4136,-1,0,0
24.87,22.18,-57.62,3140,-6480,4133,-1,0,0
24.87,22.18,-57.63,3151,-6467,4139,-1,0,0
24.87,22.17,-57.65,3151,-6469,4140,-1,0,0
24.86,22.16,-57.66,3143,-6476,4138,-1,0,0
24.86,22.15,-57.68,3138,-6484,4124,-1,0,0
24.85,22.14,-57.70,3130,-6488,4125,-1,0,0
24.84,22.12,-57.72,3118,-6502,4118,-2,0,0
24.83,22.11,-57.74,3122,-6499,4097,-1,0,0
24.83,22.11,-57.75,3126,-6486,4118,-1,0,0
24.83,22.11,-57.76,3122,-6479,4102,-1,0,0
24.83,22.09,-57.78,3130,-6502,4099,-1,0,0
24.82,22.09,-57.79,3127,-6498,4115,-1,0,0
24.81,22.07,-57.81,3132,-6500,4127,-2,0,0
24.81,22.06,-57.83,3125,-6496,4111,-1,0,0
24.80,22.06,-57.85,3124,-6503,4091,-1,-1,-1
24.80,22.05,-57.86,3132,-6490,4107,-1,0,0
24.80,22.04,-57.88,3114,-6496,4109,-1,0,0
24.79,22.03,-57.90,3142,-6507,4109,-1,0,0
24.79,22.02,-57.93,3119,-6508,4116,-2,0,0
24.78,22.01,-57.95,3118,-6522,4087,-1,0,0
24.77,22.00,-57.96,3109,-6519,4097,-1,0,0
24.77,21.99,-57.97,3100,-6505,4079,-1,0,0
24.77,21.99,-57.96,3098,-6502,4080,-1,0,0
24.77,21.98,-57.97,3100,-6504,4092,-1,0,-1
24.78,21.99,-57.98,3125,-6502,4106,-1,0,-1
24.78,21.98,-57.98,3121,-6503,4089,-1,0,0
24.78,21.97,-57.98,3108,-6510,4080,-1,0,-1
24.78,21.97,-57.99,3105,-6506,4082,-1,0,0
24.78,21.97,-58.00,3109,-6507,4090,-1,0,-1
24.79,21.98,-58.01,3115,-6523,4100,-1,0,-1
24.79,21.97,-58.01,3114,-6534,4086,-1,0,-1
24.79,21.97,-58.01,3110,-6524,4085,-1,0,-1
24.80,21.97,-58.01,3100,-6520,4081,-1,0,-1
24.81,21.98,-58.01,3097,-6521,4080,0,0,-1
24.81,21.98,-58.00,3104,-6518,4084,0,0,-1
24.82,21.98,-58.00,3108,-6513,4087,0,0,-1
24.83,21.99,-57.99,3111,-6521,4089,-1,0,-1
24.83,21.99,-57.99,3120,-6516,4096,0,0,-1
24.84,21.99,-57.98,3110,-6515,4092,0,0,-1
24.84,22.00,-57.98,3112,-6511,4091,0,-1,-1
24.84,22.00,-57.97,3115,-6512,4089,0,-1,-1
24.85,22.01,-57.96,3117,-6513,4099,0,-1,-1
24.86,22.02,-57.95,3111,-6510,4087,0,-1,-1
24.86,22.02,-57.94,3111,-6505,4098,0,-1,-1
24.87,22.03,-57.94,3106,-6514,4086,0,-1,-1
24.88,22.05,-57.93,3103,-6517,4079,0,-1,-1
24.88,22.05,-57.92,3111,-6514,4086,0,-1,-1
24.89,22.06,-57.92,3121,-6523,4081,0,-1,-1
24.89,22.07,-57.90,3128,-6517,4097,0,-1,-1
24.90,22.08,-57.88,3125,-6507,4091,0,-1,-1
24.90,22.09,-57.88,3124,-6494,4094,0,-1,-1
24.91,22.10,-57.86,3120,-6498,4100,0,-1,-1
24.91,22.11,-57.86,3122,-6508,4097,0,-1,-1
24.91,22.11,-57.86,3119,-6520,4106,0,-1,-1
24.91,22.12,-57.84,3112,-6522,4101,0,-1,-1
24.92,22.13,-57.83,3107,-6516,4090,0,-1,-1
24.91,22.13,-57.83,3110,-6507,4093,0,-1,-1
24.92,22.14,-57.81,3115,-6505,4092,0,-1,-1
24.92,22.15,-57.79,3124,-6500,4097,0,-1,-1
24.93,22.16,-57.79,3134,-6490,4090,0,-1,-1
24.93,22.16,-57.78,3123,-6491,4095,0,-1,0
24.93,22.16,-57.76,3127,-6486,4100,0,-1,-1
24.93,22.17,-57.75,3122,-6486,4115,0,-1,-1
24.93,22.18,-57.75,3130,-6489,4113,0,-1,-1
24.93,22.18,-57.75,3135,-6492,4104,0,-1,-1
24.93,22.19,-57.74,3126,-6493,4098,0,-1,-1
24.94,22.19,-57.74,3127,-6497,4100,0,-1,-1
24.93,22.20,-57.74,3131,-6495,4093,0,-1,-1
24.94,22.21,-57.74,3131,-6497,4092,0,-1,-1
24.93,22.21,-57.73,3126,-6506,4093,0,-1,-1
24.94,22.21,-57.72,3131,-6495,4096,0,-1,-1
24.95,22.22,-57.70,3136,-6490,4092,0,-1,-1
24.94,22.23,-57.69,3139,-6484,4107,0,-1,-1
24.95,22.23,-57.68,3141,-6486,4114,0,-1,-1
24.95,22.23,-57.68,3143,-6493,4117,0,-1,-1
24.95,22.24,-57.67,3136,-6492,4106,0,-1,-1
24.94,22.24,-57.67,3135,-6487,4107,0,-1,-1
24.95,22.25,-57.67,3135,-6497,4113,0,-1,-1
24.94,22.25,-57.67,3133,-6505,4102,0,-1,-1
24.95,22.26,-57.66,3138,-6503,4111,0,-1,-1
24.95,22.26,-57.66,3137,-6499,4095,0,-1,-1
24.95,22.26,-57.65,3133,-6494,4090,0,-1,-1
24.94,22.26,-57.64,3127,-6487,4119,0,-1,-1
24.95,22.26,-57.63,3138,-6484,4107,0,-1,-1
24.95,22.27,-57.62,3135,-6484,4102,0,-1,-1
24.94,22.27,-57.62,3147,-6487,4112,0,-1,0
24.95,22.27,-57.61,3145,-6487,4109,0,-1,0
24.95,22.28,-57.59,3150,-6482,4111,0,-1,-1
24.94,22.28,-57.60,3142,-6486,4109,0,-1,-1
24.95,22.28,-57.60,3143,-6490,4109,0,-1,-1
24.95,22.29,-57.60,3140,-6486,4111,0,-1,-1
24.95,22.30,-57.59,3144,-6491,4114,0,-1,-1
24.95,22.30,-57.58,3153,-6492,4120,0,-1,-1
24.95,22.30,-57.57,3150,-6479,4112,0,-1,0
24.94,22.29,-57.56,3142,-6473,4117,0,-1,0
24.95,22.30,-57.56,3135,-6483,4110,0,-1,-1
24.94,22.30,-57.56,3136,-6491,4108,0,-1,-1
24.95,22.31,-57.54,3145,-6480,4115,0,-1,-1
24.95,22.31,-57.53,3147,-6471,4118,0,-1,-1
24.95,22.32,-57.53,3150,-6471,4116,0,-1,0
24.95,22.31,-57.52,3152,-6470,4111,0,-1,0
24.95,22.31,-57.51,3156,-6461,4119,0,0,0
24.94,22.31,-57.50,3153,-6469,4127,0,-1,0
24.94,22.31,-57.50,3144,-6484,4117,0,-1,0
24.93,22.31,-57.51,3139,-6498,4118,0,-1,0
24.93,22.30,-57.51,3132,-6502,4098,0,-1,0
24.92,22.30,-57.51,3134,-6494,4111,0,-1,-1
24.92,22.30,-57.50,3142,-6489,4125,0,0,0
24.92,22.29,-57.49,3140,-6494,4113,0,0,0
24.90,22.28,-57.48,3149,-6479,4132,0,-1,0
24.89,22.27,-57.49,3151,-6478,4133,-1,-1,0
24.87,22.26,-57.50,3150,-6481,4109,0,0,0
24.86,22.24,-57.49,3121,-6469,4131,-1,-1,0
24.85,22.23,-57.50,3142,-6466,4133,-1,0,0
24.83,22.22,-57.52,3101,-6485,4110,-1,-1,0
24.82,22.22,-57.53,3135,-6486,4117,0,0,0
24.81,22.21,-57.53,3127,-6475,4140,-1,-1,0
24.80,22.20,-57.55,3114,-6503,4127,0,-1,0
24.80,22.20,-57.56,3125,-6519,4107,-1,-1,-1
24.79,22.19,-57.55,3128,-6517,4130,0,-1,0
24.78,22.18,-57.54,3112,-6506,4120,0,0,0
24.78,22.19,-57.54,3119,-6510,4097,0,-1,-1
24.78,22.19,-57.53,3137,-6503,4109,0,0,0
24.77,22.18,-57.50,3116,-6471,4121,0,-1,-1
24.78,22.19,-57.49,3117,-6485,4125,0,-1,-1
24.78,22.20,-57.49,3120,-6488,4118,0,-1,-1
24.79,22.21,-57.47,3137,-6475,4140,0,0,-1
24.79,22.21,-57.45,3128,-6478,4154,-1,-1,-1
24.80,22.22,-57.46,3122,-6483,4143,-1,-1,-1
24.81,22.23,-57.46,3137,-6490,4133,0,-1,-1
24.80,22.23,-57.45,3124,-6485,4137,0,0,-1
24.80,22.23,-57.45,3127,-6483,4131,-1,-1,-1
24.80,22.23,-57.45,3133,-6489,4121,0,-1,-1
24.80,22.23,-57.45,3133,-6498,4116,0,0,0
24.80,22.23,-57.44,3131,-6497,4129,0,-1,-1
24.80,22.24,-57.43,3133,-6486,4123,0,-1,-1
24.80,22.24,-57.43,3127,-6489,4107,0,-1,-1
24.80,22.24,-57.41,3137,-6481,4119,0,-1,-1
24.80,22.24,-57.40,3133,-6477,4128,0,-1,-1
24.80,22.24,-57.39,3134,-6472,4141,0,0,-1
24.80,22.24,-57.39,3137,-6475,4150,0,0,-1
24.81,22.24,-57.38,3135,-6481,4143,-1,0,-1
24.81,22.24,-57.38,3138,-6481,4141,0,-1,-1
24.81,22.25,-57.38,3127,-6481,4122,0,0,-1
24.82,22.25,-57.38,3120,-6470,4129,0,-1,-1
24.82,22.25,-57.38,3124,-6469,4142,-1,0,-1
24.82,22.25,-57.38,3123,-6479,4126,-1,0,-1
24.83,22.25,-57.39,3128,-6484,4129,-1,-1,-1
24.83,22.26,-57.39,3139,-6495,4122,-1,-1,-1
24.83,22.25,-57.39,3135,-6490,4130,0,0,-1
24.84,22.26,-57.39,3136,-6487,4126,0,0,-1
24.85,22.26,-57.38,3145,-6473,4128,-1,0,-1
24.86,22.27,-57.38,3154,-6465,4136,-1,0,-1
24.86,22.26,-57.38,3152,-6469,4138,-1,0,-1
24.85,22.26,-57.38,3142,-6483,4145,-1,0,0
24.85,22.25,-57.39,3138,-6500,4151,-1,0,-1
24.85,22.25,-57.40,3132,-6501,4137,-1,0,-1
24.85,22.25,-57.41,3127,-6491,4122,-1,0,-1
24.86,22.25,-57.41,3127,-6485,4123,-1,0,-1
24.85,22.25,-57.41,3130,-6483,4129,-1,0,-1
24.86,22.25,-57.41,3130,-6478,4134,-1,0,-1
24.85,22.24,-57.41,3143,-6478,4141,-1,0,0
24.85,22.23,-57.42,3140,-6482,4132,-1,0,0
24.85,22.23,-57.43,3129,-6490,4122,-1,0,-1
24.85,22.23,-57.43,3125,-6488,4127,-1,0,-1
24.85,22.22,-57.43,3141,-6490,4128,-1,0,-1
24.85,22.22,-57.43,3135,-6488,4133,-1,0,-1
24.85,22.22,-57.44,3133,-6484,4123,-1,0,-1
24.85,22.22,-57.44,3130,-6485,4130,-1,0,0
24.85,22.21,-57.46,3131,-6493,4128,-1,0,0
24.84,22.20,-57.46,3127,-6495,4131,-1,0,0
24.84,22.20,-57.47,3127,-6497,4120,-1,0,0
24.84,22.19,-57.47,3121,-6498,4115,-1,0,-1
24.84,22.20,-57.47,3124,-6492,4114,0,0,-1
24.84,22.19,-57.47,3120,-6490,4121,0,0,0
24.83,22.18,-57.48,3124,-6483,4121,-1,0,-1
24.84,22.18,-57.48,3132,-6485,4117,-1,0,0
24.84,22.18,-57.49,3136,-6489,4118,-1,0,-1
24.83,22.18,-57.50,3139,-6488,4114,-1,0,0
24.83,22.17,-57.51,3123,-6491,4109,-1,0,0
24.82,22.16,-57.52,3119,-6497,4105,-1,0,0
24.83,22.16,-57.53,3114,-6499,4104,-1,0,0
24.82,22.16,-57.53,3120,-6485,4111,-1,0,0
24.82,22.16,-57.54,3132,-6484,4118,-1,0,0
24.82,22.15,-57.56,3128,-6498,4105,-1,0,0
24.81,22.14,-57.56,3123,-6499,4112,-1,0,0
24.80,22.13,-57.56,3112,-6509,4113,-1,0,0
24.80,22.13,-57.57,3106,-6501,4098,-1,0,-1
24.80,22.12,-57.57,3111,-6498,4108,-1,0,-1
24.80,22.12,-57.57,3110,-6498,4106,-1,0,-1
24.80,22.11,-57.58,3113,-6499,4112,-1,0,-1
24.80,22.11,-57.59,3120,-6502,4105,-1,0,0
24.80,22.11,-57.60,3116,-6499,4113,-1,0,-1
24.79,22.10,-57.61,3116,-6504,4099,-1,0,0
24.79,22.10,-57.62,3114,-6505,4096,-1,0,0
24.79,22.09,-57.63,3104,-6507,4102,-1,0,0
24.78,22.08,-57.64,3098,-6511,4096,-1,0,0
24.77,22.08,-57.64,3098,-6524,4109,-1,0,0
24.78,22.08,-57.65,3110,-6520,4118,-1,0,-1
24.78,22.08,-57.66,3127,-6517,4118,-1,0,0
24.77,22.07,-57.67,3146,-6513,4106,-1,0,0
24.75,22.05,-57.69,3132,-6515,4101,-1,0,0
24.74,22.03,-57.69,3120,-6515,4099,-1,0,0
24.73,22.02,-57.71,3113,-6526,4098,-1,-1,0
24.71,22.01,-57.72,3095,-6519,4093,-1,0,0
24.69,22.00,-57.75,3086,-6538,4089,-1,-1,0
24.68,21.98,-57.76,3095,-6527,4092,-1,0,0
24.67,21.97,-57.77,3082,-6544,4092,-1,-1,0
24.66,21.97,-57.78,3102,-6544,4076,0,-1,0
24.65,21.96,-57.79,3084,-6531,4071,0,0,0
24.64,21.95,-57.78,3091,-6511,4086,0,0,0
24.64,21.95,-57.78,3087,-6528,4087,0,-1,0
24.63,21.94,-57.78,3085,-6532,4080,0,-1,0
24.63,21.95,-57.77,3093,-6526,4084,0,-1,-1
24.62,21.95,-57.76,3073,-6513,4089,0,-1,0
24.63,21.96,-57.76,3091,-6517,4095,0,-1,-1
24.63,21.96,-57.75,3084,-6511,4094,0,0,-1
24.64,21.98,-57.74,3097,-6506,4106,-1,-1,-1
24.65,21.99,-57.75,3100,-6518,4094,0,-1,-1
24.65,22.01,-57.75,3096,-6536,4083,0,-1,-1
24.66,22.02,-57.75,3097,-6522,4075,0,-1,-1
24.67,22.03,-57.74,3081,-6513,4077,0,-1,-1
24.69,22.05,-57.73,3097,-6513,4078,0,-1,-1
24.70,22.07,-57.72,3116,-6512,4092,0,-1,-1
24.70,22.08,-57.71,3109,-6520,4085,0,-1,-1
24.71,22.09,-57.71,3100,-6516,4093,0,-1,-1
24.72,22.10,-57.70,3111,-6513,4101,0,-1,-1
24.72,22.11,-57.69,3115,-6516,4101,0,-1,-1
24.72,22.12,-57.69,3113,-6525,4093,0,-1,-1
24.72,22.12,-57.69,3113,-6512,4106,0,-1,-1
24.72,22.13,-57.69,3112,-6517,4095,0,-1,-1
24.73,22.14,-57.68,3119,-6513,4095,0,-1,-1
24.72,22.14,-57.68,3103,-6512,4096,0,-1,-1
24.73,22.15,-57.67,3110,-6512,4089,0,-1,-1
24.73,22.16,-57.66,3104,-6506,4090,0,-1,-1
24.73,22.16,-57.65,3114,-6510,4103,0,-1,-1
24.73,22.17,-57.65,3124,-6514,4093,0,-1,-1
24.74,22.18,-57.64,3133,-6511,4091,0,-1,-1
24.74,22.19,-57.63,3126,-6506,4092,0,-1,-1
24.74,22.19,-57.62,3122,-6498,4098,0,-1,-1
24.75,22.19,-57.61,3112,-6501,4104,0,-1,-1
24.74,22.20,-57.61,3114,-6502,4098,0,-1,-1
24.75,22.21,-57.61,3122,-6506,4102,0,-1,-1
24.75,22.22,-57.60,3135,-6510,4112,0,-1,-1
24.76,22.23,-57.59,3136,-6514,4107,0,-1,-1
24.76,22.23,-57.58,3134,-6500,4105,0,-1,-1
24.77,22.24,-57.57,3137,-6498,4101,0,-1,-1
24.77,22.24,-57.56,3145,-6491,4104,0,-1,-1
24.77,22.25,-57.55,3143,-6499,4119,0,-1,-1
24.77,22.25,-57.55,3135,-6498,4119,0,-1,-1
24.77,22.25,-57.54,3127,-6497,4112,0,-1,-1
24.77,22.25,-57.54,3121,-6501,4105,0,-1,-1
24.77,22.26,-57.53,3120,-6502,4109,0,-1,-1
24.78,22.26,-57.52,3119,-6493,4111,0,-1,-1
24.77,22.26,-57.51,3127,-6485,4117,0,-1,0
24.78,22.27,-57.50,3137,-6486,4123,0,-1,-1
24.78,22.28,-57.50,3147,-6479,4120,0,-1,0
24.77,22.27,-57.50,3144,-6492,4111,0,-1,-1
24.77,22.28,-57.49,3137,-6490,4107,0,-1,-1
24.77,22.28,-57.49,3132,-6495,4100,0,-1,-1
24.77,22.28,-57.47,3130,-6484,4120,0,-1,-1
24.77,22.28,-57.46,3132,-6492,4115,0,-1,-1
24.77,22.29,-57.47,3134,-6496,4112,0,-1,-1
24.77,22.29,-57.46,3133,-6498,4105,0,-1,-1
24.77,22.29,-57.46,3130,-6499,4107,0,-1,-1
24.76,22.29,-57.46,3129,-6500,4107,0,-1,-1
24.76,22.29,-57.45,3126,-6500,4116,0,-1,-1
24.76,22.30,-57.44,3130,-6490,4114,0,-1,-1
24.77,22.30,-57.43,3133,-6484,4118,0,-1,-1
24.76,22.30,-57.42,3134,-6486,4115,0,-1,-1
24.76,22.30,-57.41,3136,-6474,4118,0,-1,0
24.76,22.30,-57.40,3135,-6479,4129,0,-1,-1
24.76,22.30,-57.41,3136,-6486,4132,0,-1,0
24.75,22.30,-57.41,3130,-6481,4119,0,-1,-1
24.76,22.31,-57.40,3130,-6482,4117,0,-1,-1
24.75,22.30,-57.40,3129,-6484,4111,0,-1,-1
24.75,22.31,-57.39,3130,-6482,4119,0,-1,-1
24.75,22.31,-57.39,3136,-6478,4117,0,-1,-1
24.75,22.31,-57.38,3145,-6486,4131,0,-1,-1
24.76,22.32,-57.38,3151,-6485,4130,0,-1,-1
24.76,22.32,-57.37,3151,-6482,4127,0,-1,-1
24.75,22.32,-57.36,3147,-6480,4132,0,0,-1
24.75,22.32,-57.35,3140,-6469,4131,0,-1,-1
24.75,22.32,-57.34,3134,-6465,4135,0,-1,0
24.74,22.31,-57.35,3126,-6476,4130,0,-1,-1
24.75,22.32,-57.34,3136,-6486,4128,0,-1,0
24.75,22.32,-57.34,3141,-6493,4123,0,-1,-1
24.75,22.33,-57.33,3157,-6481,4134,0,-1,-1
24.75,22.33,-57.32,3148,-6482,4126,0,0,-1
24.75,22.33,-57.31,3146,-6470,4133,0,-1,-1
24.75,22.33,-57.31,3142,-6466,4130,0,-1,-1
24.75,22.33,-57.31,3138,-6472,4121,0,-1,-1
24.75,22.33,-57.31,3136,-6481,4110,0,-1,-1
24.74,22.33,-57.31,3136,-6484,4114,0,-1,-1
24.74,22.33,-57.30,3128,-6479,4124,0,-1,-1
24.74,22.33,-57.29,3130,-6480,4136,0,0,-1
24.74,22.33,-57.28,3130,-6473,4157,0,-1,-1
24.74,22.33,-57.28,3127,-6472,4142,0,-1,-1
24.73,22.32,-57.27,3133,-6469,4142,0,-1,0
24.74,22.33,-57.26,3147,-6466,4147,0,-1,0
24.73,22.33,-57.26,3138,-6464,4151,0,-1,0
24.72,22.32,-57.25,3138,-6458,4148,0,0,-1
24.72,22.32,-57.24,3135,-6461,4150,0,-1,-1
24.72,22.32,-57.24,3138,-6467,4148,0,-1,-1
24.72,22.32,-57.24,3143,-6470,4151,0,-1,-1
24.72,22.32,-57.24,3143,-6469,4147,0,-1,-1
24.72,22.32,-57.25,3143,-6466,4136,0,-1,0
24.72,22.33,-57.25,3135,-6471,4126,0,-1,0
24.71,22.32,-57.25,3138,-6482,4130,0,-1,-1
24.71,22.32,-57.25,3142,-6475,4141,-1,-1,-1
24.71,22.32,-57.25,3144,-6479,4141,0,0,-1
24.71,22.32,-57.25,3140,-6472,4138,0,0,0
24.71,22.32,-57.25,3144,-6461,4139,-1,0,0
24.71,22.32,-57.26,3142,-6460,4138,-1,-1,0
24.71,22.31,-57.27,3142,-6461,4145,-1,0,0
24.71,22.31,-57.27,3135,-6468,4129,-1,0,-1
24.70,22.31,-57.28,3143,-6477,4142,-1,0,-1
24.70,22.30,-57.29,3133,-6476,4140,-1,0,-1
24.70,22.30,-57.29,3128,-6478,4137,0,0,-1
24.70,22.29,-57.29,3127,-6467,4138,-1,0,-1
24.69,22.29,-57.29,3122,-6476,4152,-1,-1,-1
24.69,22.29,-57.30,3124,-6477,4163,-1,-1,0
24.69,22.31,-57.31,3142,-6469,4150,-1,-1,-1
24.70,22.32,-57.32,3159,-6469,4122,-1,0,-1
24.72,22.33,-57.32,3158,-6479,4093,0,0,-1
24.71,22.32,-57.31,3138,-6471,4119,0,0,-1
24.71,22.32,-57.31,3137,-6452,4140,-1,-1,0
24.71,22.32,-57.33,3146,-6474,4136,-1,-1,0
24.71,22.32,-57.34,3149,-6493,4122,-1,0,-1
24.70,22.31,-57.35,3144,-6498,4116,0,0,-1
24.70,22.31,-57.33,3135,-6486,4123,0,0,-1
24.70,22.30,-57.32,3122,-6462,4134,0,0,-1
24.70,22.29,-57.32,3114,-6462,4141,-1,0,-1
24.70,22.29,-57.32,3122,-6469,4151,-1,-1,-1
24.70,22.29,-57.33,3139,-6479,4142,-1,0,-1
24.70,22.29,-57.33,3147,-6478,4131,-1,0,-1
24.70,22.29,-57.33,3148,-6479,4125,0,0,-1
24.70,22.29,-57.34,3144,-6466,4126,-1,0,-1
24.70,22.28,-57.34,3145,-6465,4128,-1,0,0
24.70,22.28,-57.35,3138,-6476,4130,-1,0,0
24.70,22.28,-57.37,3140,-6491,4125,-1,0,0
24.69,22.27,-57.38,3134,-6504,4117,-1,0,-1
24.69,22.27,-57.39,3129,-6507,4108,-1,0,0
24.68,22.25,-57.39,3125,-6502,4106,0,0,-1
24.68,22.25,-57.39,3122,-6487,4111,0,0,-1
24.68,22.25,-57.39,3131,-6489,4118,0,0,-1
24.68,22.25,-57.38,3136,-6481,4129,0,0,0
24.68,22.24,-57.38,3142,-6474,4131,-1,0,-1
24.67,22.24,-57.39,3141,-6475,4128,-1,0,0
24.67,22.23,-57.40,3141,-6474,4139,-1,0,0
24.66,22.22,-57.40,3126,-6480,4137,-1,0,0
24.66,22.21,-57.42,3131,-6484,4132,-1,0,0
24.65,22.20,-57.44,3135,-6486,4128,-1,0,0
24.64,22.19,-57.45,3142,-6495,4124,-1,0,0
24.63,22.17,-57.47,3122,-6500,4129,-1,0,0
24.61,22.15,-57.48,3106,-6513,4114,-1,0,0
24.60,22.14,-57.50,3130,-6505,4117,-1,0,0
24.59,22.12,-57.51,3121,-6504,4122,-1,0,0
24.58,22.11,-57.53,3121,-6511,4117,-1,0,0
24.56,22.09,-57.54,3093,-6498,4116,-1,0,0
24.55,22.08,-57.56,3101,-6506,4111,-1,0,0
24.54,22.06,-57.57,3091,-6490,4109,-1,0,0
24.54,22.06,-57.58,3105,-6490,4116,-1,0,-1
24.54,22.05,-57.60,3105,-6488,4103,-1,0,0
24.53,22.05,-57.62,3098,-6503,4109,-2,0,0
24.53,22.04,-57.64,3114,-6510,4110,-1,0,-1
24.53,22.04,-57.66,3107,-6515,4103,-1,0,-1
24.53,22.04,-57.69,3104,-6528,4080,-1,0,-1
24.53,22.04,-57.69,3099,-6521,4077,-1,0,-1
24.54,22.03,-57.69,3094,-6523,4083,-1,0,-1
24.54,22.03,-57.70,3096,-6520,4087,-1,0,-1
24.55,22.03,-57.70,3107,-6519,4084,-1,0,-1
24.55,22.03,-57.70,3107,-6517,4097,-1,0,0
24.54,22.02,-57.71,3102,-6521,4096,-1,0,-1
24.54,22.02,-57.71,3104,-6519,4096,0,0,0
24.54,22.02,-57.71,3101,-6510,4097,-1,0,-1
24.54,22.01,-57.72,3094,-6511,4093,-1,0,-1
24.54,22.01,-57.72,3091,-6508,4094,-1,0,-1
24.55,22.02,-57.73,3092,-6519,4093,0,-1,-1
24.55,22.02,-57.73,3105,-6528,4086,0,-1,-1
24.55,22.03,-57.73,3109,-6539,4089,0,-1,-1
24.55,22.03,-57.72,3106,-6533,4090,0,-1,-1
24.55,22.03,-57.71,3102,-6516,4087,0,-1,-1
24.55,22.03,-57.71,3089,-6521,4088,0,-1,-1
24.55,22.04,-57.70,3092,-6520,4092,0,-1,-1
24.56,22.05,-57.70,3102,-6523,4096,0,-1,-1
24.56,22.05,-57.70,3103,-6515,4095,0,-1,-1
24.57,22.07,-57.68,3116,-6508,4104,0,-1,-1
24.57,22.07,-57.68,3106,-6508,4103,0,-1,-1
24.57,22.08,-57.66,3102,-6500,4113,0,-1,-1
24.58,22.08,-57.66,3095,-6508,4110,0,-1,-1
24.58,22.09,-57.66,3099,-6524,4111,0,-1,-1
24.57,22.10,-57.65,3108,-6530,4100,0,-1,-1
24.58,22.10,-57.65,3113,-6527,4096,0,-1,-1
24.59,22.11,-57.64,3099,-6516,4089,0,-1,-1
24.59,22.12,-57.63,3105,-6511,4078,0,-1,-1
24.59,22.13,-57.63,3103,-6508,4094,0,-1,-1
24.59,22.14,-57.62,3118,-6510,4100,0,-1,-1
24.60,22.15,-57.61,3120,-6509,4092,0,-1,-1
24.60,22.15,-57.60,3121,-6509,4101,0,-1,-1
24.60,22.16,-57.60,3117,-6500,4103,0,-1,-1
24.60,22.17,-57.60,3115,-6498,4096,0,-1,-1
24.60,22.17,-57.59,3116,-6494,4108,0,-1,-1
24.61,22.18,-57.58,3128,-6492,4113,0,-1,-1
24.60,22.18,-57.58,3118,-6503,4105,0,-1,-1
24.61,22.19,-57.58,3121,-6512,4100,0,-1,-1
24.61,22.19,-57.59,3119,-6517,4106,0,-1,-1
24.61,22.20,-57.58,3120,-6508,4107,0,-1,-1
24.61,22.21,-57.57,3120,-6518,4101,0,-1,-1
24.61,22.21,-57.57,3122,-6516,4092,0,-1,-1
24.61,22.22,-57.56,3132,-6510,4105,0,-1,-1
24.61,22.22,-57.54,3134,-6499,4105,0,-1,-1
24.62,22.23,-57.54,3124,-6489,4103,0,-1,-1
24.62,22.23,-57.53,3130,-6483,4112,0,-1,-1
24.62,22.23,-57.52,3128,-6484,4120,0,-1,-1
24.62,22.24,-57.52,3129,-6488,4113,0,-1,-1
24.62,22.25,-57.52,3138,-6492,4120,0,-1,-1
24.62,22.25,-57.52,3138,-6503,4110,0,-1,0
24.62,22.25,-57.52,3130,-6505,4103,0,-1,-1
24.62,22.25,-57.52,3130,-6505,4108,0,-1,-1
24.62,22.26,-57.52,3132,-6502,4111,0,-1,-1
24.62,22.26,-57.51,3132,-6499,4108,0,-1,-1
24.61,22.26,-57.50,3121,-6492,4112,0,-1,-1
24.61,22.26,-57.49,3125,-6490,4102,0,-1,0
24.61,22.27,-57.50,3128,-6488,4096,0,-1,0
24.61,22.27,-57.50,3130,-6485,4105,0,-1,0
24.61,22.27,-57.50,3132,-6497,4104,0,-1,-1
24.61,22.27,-57.50,3136,-6500,4107,0,-1,-1
24.61,22.27,-57.50,3134,-6493,4106,0,-1,-1
24.61,22.27,-57.50,3131,-6488,4106,0,-1,-1
24.60,22.27,-57.50,3133,-6481,4115,-1,-1,0
24.60,22.27,-57.50,3133,-6485,4113,-1,-1,0
24.60,22.27,-57.51,3136,-6496,4120,0,-1,-1
24.60,22.27,-57.50,3137,-6505,4114,0,-1,-1
24.60,22.27,-57.50,3140,-6495,4111,0,-1,-1
24.60,22.27,-57.50,3147,-6480,4109,0,-1,-1
24.60,22.28,-57.49,3148,-6481,4118,0,-1,0
24.60,22.28,-57.49,3143,-6479,4110,-1,-1,0
24.60,22.28,-57.49,3141,-6491,4120,0,-1,0
24.59,22.27,-57.49,3132,-6496,4123,0,0,0
24.58,22.27,-57.49,3124,-6501,4116,0,0,0
24.58,22.27,-57.48,3118,-6499,4116,0,-1,-1
24.58,22.26,-57.48,3125,-6499,4114,0,-1,-1
24.58,22.27,-57.47,3135,-6488,4120,0,-1,-1
24.58,22.27,-57.46,3138,-6484,4122,0,-1,0
24.58,22.28,-57.46,3138,-6482,4115,0,-1,0
24.57,22.27,-57.45,3135,-6474,4122,0,-1,0
24.57,22.27,-57.45,3133,-6479,4122,0,-1,0
24.57,22.27,-57.44,3138,-6482,4123,0,-1,-1
24.57,22.27,-57.44,3135,-6480,4120,0,-1,-1
24.57,22.28,-57.44,3140,-6472,4122,0,-1,-1
24.57,22.27,-57.43,3141,-6474,4129,0,-1,0
24.56,22.28,-57.43,3147,-6474,4133,0,-1,0
24.56,22.28,-57.43,3147,-6490,4126,0,-1,-1
24.56,22.27,-57.43,3140,-6486,4123,0,-1,-1
24.56,22.28,-57.43,3139,-6488,4119,0,-1,-1
24.56,22.28,-57.42,3137,-6486,4124,0,-1,-1
24.56,22.28,-57.42,3141,-6488,4130,0,0,-1
24.56,22.28,-57.41,3137,-6473,4127,0,-1,0
24.56,22.27,-57.40,3131,-6464,4127,0,0,0
24.56,22.27,-57.40,3133,-6462,4127,0,-1,0
24.55,22.27,-57.40,3140,-6462,4132,0,-1,0
24.55,22.28,-57.40,3138,-6467,4132,-1,-1,0
24.55,22.27,-57.40,3146,-6475,4140,0,-1,-1
24.55,22.27,-57.40,3139,-6481,4134,0,-1,-1
24.55,22.28,-57.40,3142,-6478,4125,0,-1,-1
24.55,22.28,-57.40,3141,-6477,4118,0,-1,-1
24.55,22.28,-57.40,3146,-6479,4128,0,-1,0
24.55,22.28,-57.40,3146,-6485,4124,0,-1,-1
24.55,22.28,-57.39,3153,-6482,4136,0,-1,0
24.55,22.28,-57.39,3141,-6486,4131,0,0,-1
24.54,22.28,-57.39,3137,-6477,4137,0,-1,0
24.54,22.28,-57.38,3142,-6478,4137,0,-1,-1
24.54,22.28,-57.37,3151,-6473,4130,0,-1,-1
24.55,22.29,-57.36,3153,-6468,4128,0,0,-1
24.54,22.28,-57.35,3142,-6459,4133,0,0,0
24.54,22.28,-57.35,3139,-6457,4139,0,-1,0
24.53,22.27,-57.36,3138,-6467,4133,-1,-1,0
24.54,22.28,-57.36,3140,-6477,4131,0,-1,-1
24.53,22.28,-57.36,3144,-6482,4134,0,-1,-1
24.54,22.28,-57.35,3150,-6478,4122,0,0,-1
24.54,22.29,-57.34,3152,-6471,4134,0,0,-1
24.54,22.29,-57.33,3150,-6467,4150,0,0,0
24.53,22.28,-57.33,3142,-6464,4154,0,-1,0
24.53,22.28,-57.33,3140,-6464,4147,-1,-1,0
24.53,22.28,-57.34,3151,-6479,4134,0,-1,0
24.53,22.28,-57.34,3138,-6479,4136,0,-1,0
24.52,22.27,-57.34,3147,-6475,4136,0,-1,-1
24.52,22.27,-57.34,3143,-6467,4140,0,0,0
24.52,22.27,-57.33,3138,-6464,4140,0,-1,-1
24.52,22.27,-57.33,3141,-6458,4137,0,-1,0
24.52,22.28,-57.33,3141,-6458,4138,0,-1,0
24.52,22.27,-57.32,3142,-6468,4149,0,-1,0
24.51,22.27,-57.33,3141,-6466,4151,-1,0,0
24.51,22.26,-57.33,3143,-6465,4156,-1,0,0
24.50,22.25,-57.33,3142,-6467,4150,-1,0,-1
24.50,22.26,-57.34,3151,-6460,4136,-1,0,0
24.50,22.25,-57.35,3147,-6469,4140,-1,-1,-1
24.50,22.25,-57.36,3154,-6469,4134,-1,0,0
24.50,22.24,-57.37,3141,-6479,4119,-1,0,0
24.49,22.24,-57.38,3135,-6489,4119,-1,0,-1
24.50,22.24,-57.38,3133,-6489,4124,0,0,-1
24.50,22.24,-57.38,3139,-6481,4126,0,0,-1
24.50,22.24,-57.37,3143,-6469,4135,0,0,-1
24.50,22.24,-57.36,3149,-6462,4148,0,0,-1
24.50,22.23,-57.36,3143,-6459,4149,-1,0,0
24.49,22.23,-57.37,3145,-6461,4151,-1,0,0
24.49,22.23,-57.38,3149,-6457,4132,-1,0,0
24.50,22.23,-57.39,3156,-6463,4144,-1,0,0
24.49,22.22,-57.40,3143,-6461,4147,-1,0,0
24.50,22.22,-57.40,3144,-6470,4151,-1,0,0
24.49,22.21,-57.42,3133,-6473,4134,-1,0,0
24.48,22.20,-57.43,3132,-6478,4126,-1,0,0
24.48,22.20,-57.43,3133,-6474,4124,-1,0,-1
24.49,22.20,-57.43,3146,-6477,4125,-1,0,0
24.49,22.20,-57.43,3144,-6474,4130,-1,0,0
24.48,22.19,-57.44,3137,-6471,4143,-1,0,0
24.48,22.18,-57.44,3131,-6472,4129,-1,0,0
24.48,22.18,-57.44,3134,-6466,4132,-1,0,0
24.48,22.17,-57.44,3126,-6465,4138,-1,0,0
24.47,22.16,-57.45,3125,-6462,4139,-1,0,0
24.47,22.15,-57.46,3137,-6465,4152,-1,0,0
24.47,22.16,-57.48,3146,-6484,4135,-1,0,0
24.46,22.14,-57.49,3150,-6494,4138,-1,0,0
24.45,22.13,-57.50,3136,-6493,4138,-1,0,0
24.44,22.12,-57.54,3132,-6505,4108,-1,0,0
24.41,22.09,-57.54,3129,-6497,4124,-1,-1,0
24.40,22.08,-57.55,3117,-6484,4123,-1,0,0
24.38,22.06,-57.58,3099,-6491,4111,-1,-1,0
24.38,22.05,-57.59,3114,-6485,4131,-1,0,0
24.36,22.03,-57.61,3108,-6497,4114,-1,0,0
24.36,22.02,-57.62,3115,-6488,4116,-1,0,0
24.35,22.01,-57.63,3106,-6479,4121,-1,0,0
24.35,22.00,-57.65,3119,-6475,4103,-1,0,0
24.34,21.99,-57.66,3109,-6485,4140,-2,-1,0
24.32,21.98,-57.70,3105,-6507,4106,-1,0,0
24.31,21.97,-57.71,3091,-6515,4118,-1,-1,0
24.30,21.95,-57.72,3108,-6497,4102,-1,0,0
24.29,21.95,-57.76,3105,-6525,4093,-2,-1,0
24.29,21.94,-57.78,3090,-6533,4066,0,0,0
24.28,21.93,-57.78,3099,-6524,4095,-1,-1,0
24.28,21.92,-57.79,3102,-6522,4097,-1,0,0
24.28,21.92,-57.79,3111,-6496,4126,-1,-1,0
24.27,21.91,-57.80,3099,-6498,4104,-1,0,0
24.27,21.91,-57.81,3090,-6499,4097,-1,0,-1
24.27,21.91,-57.81,3102,-6489,4112,-1,-1,0
24.28,21.91,-57.82,3079,-6518,4089,-1,-1,-1
24.29,21.92,-57.83,3108,-6520,4106,-1,0,-1
24.29,21.92,-57.84,3099,-6525,4096,-1,0,-1
24.30,21.92,-57.84,3118,-6531,4114,-1,0,-1
24.31,21.93,-57.84,3104,-6522,4091,0,0,-1
24.30,21.92,-57.84,3079,-6520,4087,-1,0,-1
24.31,21.92,-57.85,3089,-6524,4081,-1,0,-1
24.32,21.93,-57.84,3098,-6519,4086,-1,0,-1
24.32,21.93,-57.84,3097,-6521,4089,-1,0,-1
24.33,21.92,-57.84,3103,-6515,4072,0,0,-1
24.34,21.93,-57.83,3099,-6510,4082,0,0,-1
24.35,21.93,-57.83,3102,-6510,4089,0,0,-1
24.36,21.94,-57.82,3100,-6512,4091,0,0,-1
24.36,21.94,-57.82,3102,-6511,4102,-1,0,-1
24.37,21.95,-57.82,3115,-6511,4106,-1,0,-1
24.38,21.95,-57.82,3117,-6515,4100,0,0,-1
24.38,21.95,-57.81,3105,-6511,4103,0,0,-1
24.38,21.95,-57.81,3106,-6504,4105,0,-1,-1
24.38,21.95,-57.81,3097,-6509,4111,0,-1,-1
24.39,21.96,-57.81,3111,-6510,4099,0,0,-1
24.39,21.96,-57.80,3113,-6512,4110,0,-1,-1
24.40,21.97,-57.79,3117,-6524,4105,0,-1,-1
24.40,21.97,-57.78,3111,-6525,4097,0,0,-1
24.40,21.97,-57.77,3108,-6514,4106,0,-1,-1
24.41,21.98,-57.76,3105,-6510,4112,0,-1,-1
24.42,21.99,-57.75,3115,-6499,4110,0,-1,-1
24.42,22.00,-57.74,3116,-6502,4116,0,-1,-1
24.42,22.00,-57.73,3114,-6505,4107,0,-1,0
24.43,22.01,-57.73,3105,-6513,4109,0,-1,-1
24.43,22.01,-57.72,3104,-6516,4112,0,-1,-1
24.44,22.03,-57.72,3106,-6511,4102,0,-1,-1
24.44,22.04,-57.71,3121,-6513,4104,0,-1,-1
24.45,22.04,-57.70,3127,-6505,4107,0,-1,-1
24.45,22.05,-57.69,3127,-6500,4104,0,-1,-1
24.46,22.06,-57.68,3124,-6490,4109,0,-1,-1
24.46,22.06,-57.68,3112,-6498,4105,0,-1,-1
24.45,22.06,-57.68,3112,-6506,4118,0,-1,-1
24.46,22.07,-57.67,3119,-6503,4115,0,-1,-1
24.46,22.08,-57.66,3131,-6502,4126,0,-1,-1
24.47,22.09,-57.65,3138,-6492,4116,0,-1,-1
24.47,22.09,-57.65,3131,-6483,4108,0,-1,0
24.47,22.10,-57.64,3133,-6483,4127,-1,-1,-1
24.47,22.10,-57.65,3133,-6498,4122,-1,-1,0
24.47,22.10,-57.66,3123,-6521,4109,0,-1,-1
24.47,22.11,-57.66,3128,-6526,4125,0,-1,-1
24.47,22.11,-57.65,3128,-6513,4111,0,-1,-1
24.48,22.12,-57.64,3124,-6501,4109,0,-1,-1
24.48,22.13,-57.62,3127,-6493,4110,0,-1,-1
24.48,22.13,-57.62,3131,-6491,4106,0,-1,0
24.48,22.13,-57.61,3133,-6487,4113,0,-1,-1
24.48,22.14,-57.60,3137,-6487,4127,0,-1,-1
24.48,22.14,-57.59,3129,-6485,4131,0,-1,0
24.48,22.14,-57.59,3120,-6497,4125,0,-1,0
24.48,22.14,-57.60,3124,-6493,4124,0,-1,-1
24.48,22.14,-57.59,3133,-6486,4122,0,-1,-1
24.49,22.15,-57.59,3137,-6485,4123,0,-1,-1
24.49,22.16,-57.59,3133,-6490,4121,0,-1,-1
24.48,22.15,-57.59,3135,-6495,4123,0,-1,0
24.48,22.16,-57.59,3134,-6498,4122,0,-1,0
24.48,22.16,-57.58,3136,-6499,4117,0,-1,-1
24.48,22.16,-57.58,3135,-6494,4117,0,-1,-1
24.49,22.17,-57.58,3145,-6489,4118,0,-1,-1
24.49,22.17,-57.57,3144,-6486,4127,0,-1,0
24.50,22.18,-57.56,3146,-6480,4127,0,-1,0
24.49,22.18,-57.55,3148,-6481,4131,0,-1,0
24.49,22.18,-57.56,3141,-6487,4129,0,-1,0
24.49,22.19,-57.55,3151,-6481,4128,0,-1,-1
24.49,22.19,-57.55,3143,-6491,4123,0,-1,-1
24.50,22.19,-57.55,3141,-6489,4120,-1,0,0
24.50,22.19,-57.56,3141,-6492,4120,0,-1,-1
24.50,22.19,-57.55,3149,-6484,4130,0,-1,0
24.50,22.19,-57.55,3143,-6498,4122,0,0,-1
24.50,22.20,-57.55,3148,-6494,4129,0,-1,-1
24.50,22.19,-57.54,3137,-6490,4132,0,0,-1
24.50,22.19,-57.52,3135,-6478,4134,0,-1,-1
24.50,22.20,-57.51,3133,-6477,4138,0,-1,-1
24.50,22.20,-57.50,3143,-6473,4129,0,-1,-1
24.50,22.20,-57.50,3149,-6467,4131,0,-1,0
24.50,22.20,-57.50,3143,-6475,4133,0,-1,-1
24.51,22.21,-57.50,3140,-6475,4142,0,-1,0
24.50,22.21,-57.51,3135,-6476,4134,0,-1,0
24.50,22.21,-57.51,3139,-6480,4140,-1,-1,-1
24.50,22.21,-57.51,3138,-6486,4127,0,-1,-1
24.50,22.21,-57.50,3139,-6485,4128,0,0,-1
24.50,22.21,-57.49,3145,-6485,4129,0,0,0
24.51,22.21,-57.48,3141,-6484,4134,0,-1,0
24.50,22.21,-57.48,3134,-6472,4132,0,-1,0
24.50,22.21,-57.48,3127,-6473,4130,0,-1,0
24.50,22.21,-57.48,3135,-6481,4140,0,-1,-1
24.50,22.21,-57.48,3142,-6480,4136,0,-1,-1
24.50,22.22,-57.47,3149,-6473,4134,0,0,-1
24.51,22.22,-57.46,3150,-6469,4129,0,0,0
24.50,22.22,-57.45,3153,-6471,4133,0,-1,0
24.50,22.22,-57.45,3144,-6476,4131,0,-1,0
24.50,22.22,-57.45,3142,-6485,4140,0,-1,0
24.50,22.22,-57.44,3143,-6488,4136,0,-1,0
