Yaw,Pitch,Roll,AX,AY,AZ,GX,GY,GZ
24.97,22.31,-57.03,3165,-6432,4188,0,-1,-1
24.98,22.32,-57.02,3157,-6431,4187,0,-1,0
24.97,22.31,-57.01,3148,-6428,4194,0,-1,-1
24.98,22.32,-57.01,3153,-6433,4190,0,-1,-1
24.98,22.33,-57.00,3151,-6433,4196,0,-1,-1
24.98,22.33,-56.99,3152,-6441,4189,0,-1,-1
24.98,22.34,-56.99,3163,-6438,4187,0,-1,0
24.99,22.34,-56.98,3170,-6439,4176,0,-1,-1
24.99,22.35,-56.97,3169,-6432,4185,0,-1,-1
24.99,22.35,-56.95,3167,-6425,4189,0,-1,-1
24.99,22.36,-56.95,3163,-6424,4195,0,-1,0
24.99,22.35,-56.95,3159,-6416,4195,-1,-1,0
24.99,22.36,-56.95,3163,-6421,4196,-1,-1,0
24.99,22.36,-56.95,3158,-6426,4193,-1,-1,0
24.99,22.37,-56.96,3158,-6435,4189,0,-1,-1
24.99,22.37,-56.96,3162,-6430,4193,0,-1,-1
24.99,22.37,-56.95,3158,-6428,4188,0,-1,-1
25.00,22.37,-56.94,3161,-6426,4190,0,-1,-1
25.00,22.38,-56.94,3162,-6425,4188,0,-1,-1
25.00,22.38,-56.93,3163,-6419,4178,0,-1,-1
25.00,22.38,-56.92,3169,-6421,4189,0,-1,0
25.00,22.38,-56.92,3163,-6427,4184,0,-1,0
25.00,22.38,-56.91,3161,-6422,4189,0,-1,-1
25.00,22.38,-56.91,3156,-6423,4200,0,0,0
24.99,22.37,-56.90,3155,-6419,4200,-1,0,0
24.99,22.37,-56.90,3157,-6415,4204,0,-1,-1
24.99,22.37,-56.90,3156,-6424,4203,-1,0,-1
24.99,22.37,-56.90,3148,-6434,4183,0,0,-1
25.00,22.38,-56.89,3165,-6426,4188,0,-1,-1
25.00,22.38,-56.89,3169,-6421,4191,0,0,-1
25.01,22.39,-56.88,3180,-6416,4189,0,0,-1
25.01,22.39,-56.87,3171,-6406,4197,0,0,0
25.01,22.39,-56.86,3163,-6411,4195,0,0,0
25.01,22.39,-56.86,3163,-6416,4199,-1,0,0
25.01,22.39,-56.86,3156,-6417,4204,0,-1,0
25.01,22.39,-56.86,3156,-6427,4194,0,0,-1
25.01,22.39,-56.86,3161,-6424,4197,0,0,-1
25.01,22.39,-56.86,3165,-6422,4197,0,-1,-1
25.01,22.39,-56.85,3169,-6415,4198,0,-1,-1
25.01,22.39,-56.85,3165,-6411,4202,0,0,0
25.01,22.39,-56.84,3169,-6412,4205,0,0,0
25.01,22.39,-56.84,3166,-6423,4201,0,0,0
25.01,22.39,-56.84,3171,-6423,4201,0,0,-1
25.01,22.39,-56.84,3170,-6419,4196,0,0,-1
25.02,22.39,-56.83,3167,-6409,4200,0,0,-1
25.02,22.40,-56.83,3172,-6405,4204,-1,-1,0
25.02,22.40,-56.83,3178,-6408,4202,-1,0,0
25.02,22.40,-56.83,3178,-6411,4193,-1,0,0
25.02,22.40,-56.84,3161,-6422,4193,-1,0,-1
25.02,22.40,-56.84,3168,-6428,4191,-1,0,0
25.03,22.40,-56.84,3167,-6415,4190,0,-1,-1
25.03,22.40,-56.83,3162,-6411,4188,0,0,-1
25.02,22.40,-56.83,3170,-6417,4197,0,0,-1
25.03,22.41,-56.82,3172,-6410,4201,-1,0,-1
25.03,22.40,-56.81,3172,-6417,4214,0,0,-1
25.04,22.40,-56.81,3167,-6417,4209,-1,0,0
25.03,22.40,-56.81,3158,-6413,4198,0,0,-1
25.03,22.40,-56.81,3160,-6411,4201,-1,0,0
25.03,22.40,-56.81,3158,-6412,4197,-1,0,-1
25.04,22.40,-56.82,3164,-6415,4191,-1,0,-1
25.04,22.40,-56.81,3169,-6410,4199,-1,0,-1
25.04,22.39,-56.81,3159,-6417,4192,0,0,0
25.03,22.39,-56.82,3162,-6418,4185,-1,0,0
25.03,22.39,-56.81,3161,-6412,4196,0,0,-1
25.03,22.39,-56.81,3163,-6416,4199,-1,0,-1
25.03,22.39,-56.80,3162,-6402,4202,0,0,0
25.04,22.39,-56.80,3157,-6405,4197,-1,-1,-1
25.04,22.39,-56.80,3166,-6412,4198,-1,-1,0
25.04,22.40,-56.81,3162,-6413,4196,-1,0,-1
25.04,22.40,-56.81,3166,-6418,4195,-1,0,0
25.04,22.40,-56.81,3165,-6414,4197,0,0,0
25.04,22.39,-56.80,3164,-6404,4197,0,0,0
25.04,22.39,-56.80,3160,-6404,4200,-1,0,0
25.04,22.39,-56.80,3159,-6408,4201,-1,-1,0
25.03,22.39,-56.81,3162,-6414,4206,-1,-1,0
25.04,22.39,-56.81,3175,-6414,4207,-1,0,-1
25.04,22.39,-56.81,3178,-6410,4208,0,0,0
25.04,22.39,-56.81,3176,-6402,4209,-1,0,0
25.03,22.38,-56.81,3173,-6402,4205,-1,0,0
25.03,22.38,-56.81,3182,-6402,4210,-1,0,0
25.03,22.38,-56.83,3170,-6414,4204,-1,0,0
25.03,22.36,-56.83,3162,-6423,4210,-1,0,0
25.02,22.35,-56.84,3152,-6440,4198,-1,0,0
25.02,22.34,-56.85,3149,-6433,4187,-1,0,-1
25.02,22.35,-56.85,3150,-6428,4186,0,0,-1
25.02,22.35,-56.85,3154,-6422,4183,-1,0,-1
25.02,22.35,-56.85,3162,-6425,4191,0,0,0
25.03,22.35,-56.84,3178,-6413,4212,-1,0,0
25.03,22.34,-56.84,3173,-6408,4204,-1,0,0
25.02,22.33,-56.85,3156,-6412,4201,-1,0,0
25.02,22.32,-56.86,3149,-6415,4205,-1,0,0
25.02,22.32,-56.86,3154,-6417,4209,-1,0,-1
25.02,22.31,-56.87,3152,-6426,4202,-1,0,0
25.02,22.31,-56.88,3155,-6423,4198,-1,0,0
25.01,22.30,-56.89,3161,-6415,4213,-1,0,0
25.01,22.29,-56.90,3165,-6421,4208,-1,0,0
25.01,22.29,-56.92,3157,-6430,4201,-1,0,0
25.00,22.28,-56.94,3162,-6436,4193,-1,0,0
25.00,22.27,-56.95,3157,-6444,4195,-1,0,0
24.98,22.25,-56.97,3139,-6440,4182,-1,0,0
24.97,22.24,-56.98,3152,-6424,4196,-1,0,0
24.96,22.22,-57.01,3135,-6448,4180,-2,-1,0
24.94,22.20,-57.03,3147,-6427,4183,-1,1,0
24.92,22.19,-57.05,3137,-6427,4181,-2,-1,0
24.92,22.17,-57.08,3160,-6447,4163,-1,0,0
24.89,22.14,-57.08,3127,-6440,4201,-2,-1,0
24.89,22.12,-57.10,3110,-6451,4174,-1,1,0
24.87,22.11,-57.12,3125,-6463,4186,-1,-1,0
24.86,22.10,-57.14,3122,-6458,4186,-1,0,0
24.85,22.08,-57.15,3130,-6442,4180,0,0,0
24.84,22.07,-57.16,3113,-6433,4192,-2,0,0
24.83,22.06,-57.19,3122,-6451,4160,-1,0,0
24.83,22.05,-57.20,3123,-6450,4182,-1,0,0
24.82,22.04,-57.22,3096,-6453,4175,-1,0,0
24.82,22.04,-57.25,3120,-6457,4164,-1,-1,0
24.81,22.03,-57.27,3107,-6467,4159,-1,0,0
24.81,22.03,-57.28,3131,-6462,4175,-1,0,0
24.80,22.02,-57.31,3102,-6492,4139,-1,-1,-1
24.80,22.01,-57.30,3109,-6471,4154,-1,0,0
24.79,22.00,-57.31,3096,-6457,4154,-1,-1,0
24.79,22.01,-57.33,3098,-6492,4151,-1,-1,0
24.79,22.01,-57.34,3125,-6487,4146,0,0,-1
24.80,22.01,-57.32,3102,-6471,4150,0,0,-1
24.80,22.02,-57.33,3114,-6483,4134,0,-1,-1
24.81,22.03,-57.31,3114,-6464,4159,0,-1,-1
24.82,22.04,-57.31,3113,-6472,4144,0,-1,-1
24.82,22.05,-57.30,3129,-6479,4158,0,-1,-1
24.83,22.06,-57.29,3119,-6483,4150,0,-1,-1
24.83,22.06,-57.28,3120,-6467,4164,0,0,-1
24.83,22.06,-57.27,3104,-6473,4162,0,-1,-1
24.84,22.07,-57.27,3102,-6461,4153,0,0,-1
24.84,22.07,-57.26,3103,-6464,4155,0,-1,-1
24.84,22.08,-57.26,3109,-6465,4150,0,-1,-1
24.85,22.10,-57.25,3141,-6459,4153,0,-1,-1
24.86,22.10,-57.23,3128,-6462,4158,0,-1,-1
24.86,22.11,-57.23,3135,-6469,4150,0,-1,-1
24.86,22.12,-57.21,3137,-6453,4177,0,-1,0
24.86,22.12,-57.20,3137,-6452,4167,0,-1,0
24.86,22.13,-57.20,3133,-6457,4174,0,-1,-1
24.86,22.13,-57.19,3138,-6456,4157,0,-1,0
24.87,22.14,-57.19,3136,-6444,4173,0,-1,-1
24.87,22.15,-57.19,3134,-6458,4172,-1,-1,-1
24.87,22.16,-57.19,3137,-6462,4160,0,-1,-1
24.88,22.17,-57.19,3135,-6456,4161,0,-1,-1
24.88,22.18,-57.18,3148,-6443,4167,0,-1,-1
24.88,22.18,-57.17,3128,-6448,4171,0,-1,-1
24.89,22.20,-57.17,3150,-6460,4155,0,-1,-1
24.90,22.21,-57.15,3153,-6452,4181,0,-1,-1
24.91,22.22,-57.13,3137,-6448,4176,0,-1,-1
24.92,22.23,-57.11,3143,-6453,4169,0,0,-1
24.92,22.23,-57.09,3145,-6452,4169,0,-1,-1
24.94,22.24,-57.07,3143,-6446,4171,0,0,-1
24.95,22.26,-57.04,3147,-6438,4182,0,-1,-1
24.96,22.27,-57.02,3150,-6442,4185,0,-1,-1
24.97,22.28,-57.01,3142,-6427,4187,0,-1,-1
24.98,22.29,-57.00,3148,-6423,4191,0,-1,-1
24.98,22.30,-57.00,3152,-6428,4188,0,-1,-1
24.99,22.31,-56.99,3157,-6434,4185,0,-1,-1
25.00,22.31,-56.99,3161,-6441,4180,0,-1,-1
25.00,22.32,-56.98,3162,-6439,4185,0,-1,-1
25.01,22.33,-56.97,3161,-6438,4191,0,-1,-1
25.01,22.33,-56.97,3158,-6440,4186,0,-1,-1
25.01,22.33,-56.96,3160,-6434,4187,0,-1,-1
25.02,22.34,-56.95,3160,-6435,4186,0,-1,-1
25.02,22.34,-56.94,3167,-6434,4201,0,-1,-1
25.03,22.35,-56.93,3158,-6424,4194,0,0,-1
25.03,22.35,-56.91,3162,-6418,4191,0,0,0
25.03,22.35,-56.91,3154,-6411,4206,-1,-1,-1
25.03,22.35,-56.91,3154,-6424,4203,-1,-1,-1
25.03,22.36,-56.92,3160,-6438,4194,0,-1,-1
25.04,22.36,-56.91,3172,-6434,4197,0,0,-1
25.04,22.37,-56.90,3173,-6429,4190,0,0,-1
25.05,22.38,-56.89,3172,-6416,4186,0,0,-1
25.05,22.37,-56.87,3169,-6413,4205,0,-1,-1
25.05,22.37,-56.87,3166,-6417,4201,0,-1,0
25.05,22.38,-56.87,3170,-6425,4200,0,-1,0
25.05,22.38,-56.87,3171,-6434,4199,0,0,-1
25.05,22.38,-56.86,3165,-6428,4199,0,0,-1
25.05,22.38,-56.86,3156,-6428,4196,0,-1,-1
25.05,22.38,-56.85,3155,-6425,4192,0,-1,-1
25.05,22.38,-56.85,3163,-6425,4190,0,0,-1
25.06,22.38,-56.84,3168,-6426,4199,0,0,-1
25.06,22.38,-56.84,3167,-6430,4198,0,-1,-1
25.05,22.39,-56.84,3172,-6429,4194,0,0,0
25.05,22.39,-56.84,3168,-6427,4189,0,0,0
25.06,22.39,-56.84,3168,-6424,4191,0,0,-1
25.06,22.39,-56.84,3177,-6425,4194,0,-1,-1
25.06,22.40,-56.84,3182,-6424,4190,0,0,0
25.06,22.39,-56.84,3177,-6417,4197,-1,0,0
25.06,22.39,-56.84,3174,-6421,4195,-1,0,0
25.07,22.39,-56.84,3175,-6432,4202,0,0,-1
25.06,22.39,-56.84,3168,-6430,4187,0,0,-1
25.07,22.40,-56.84,3164,-6428,4188,0,0,0
25.07,22.40,-56.83,3172,-6422,4194,0,-1,-1
25.07,22.40,-56.82,3176,-6405,4211,0,0,0
25.08,22.41,-56.81,3175,-6412,4199,0,0,-1
25.08,22.41,-56.81,3177,-6403,4212,0,0,0
25.08,22.40,-56.81,3169,-6407,4201,-1,0,0
25.07,22.39,-56.80,3166,-6409,4210,0,0,-1
25.07,22.40,-56.80,3170,-6411,4211,-1,0,0
25.08,22.40,-56.81,3172,-6422,4210,-1,0,-1
25.08,22.40,-56.81,3173,-6420,4200,-1,0,-1
25.08,22.40,-56.81,3171,-6417,4205,-1,0,-1
25.08,22.40,-56.81,3166,-6422,4203,-1,0,-1
25.07,22.39,-56.80,3160,-6422,4204,0,0,0
25.07,22.39,-56.80,3163,-6421,4208,-1,0,-1
25.07,22.39,-56.80,3163,-6423,4210,-1,0,-1
25.08,22.39,-56.79,3173,-6416,4207,0,0,-1
25.09,22.40,-56.79,3177,-6412,4204,0,0,-1
25.09,22.40,-56.79,3172,-6404,4215,0,0,0
25.09,22.39,-56.78,3167,-6399,4210,-1,0,0
25.08,22.39,-56.78,3161,-6403,4216,-1,0,0
25.08,22.39,-56.79,3160,-6414,4212,-1,-1,0
25.09,22.39,-56.78,3169,-6422,4204,0,0,-1
25.09,22.39,-56.78,3170,-6415,4205,0,0,-1
25.10,22.40,-56.78,3170,-6405,4193,0,0,-1
25.10,22.40,-56.78,3179,-6405,4197,0,0,-1
25.10,22.40,-56.77,3180,-6402,4198,0,0,0
25.10,22.40,-56.78,3172,-6403,4191,-1,-1,0
25.09,22.39,-56.78,3167,-6415,4198,-1,-1,0
25.09,22.39,-56.78,3163,-6432,4211,-1,0,0
25.09,22.39,-56.79,3161,-6428,4194,-1,0,-1
25.09,22.40,-56.79,3169,-6424,4195,0,-1,-1
25.10,22.40,-56.78,3169,-6413,4202,0,0,-1
25.11,22.41,-56.77,3168,-6405,4199,0,0,-1
25.11,22.41,-56.77,3170,-6402,4208,0,-1,0
25.10,22.41,-56.77,3166,-6405,4207,-1,-1,0
25.10,22.40,-56.77,3165,-6405,4198,0,0,0
25.10,22.40,-56.76,3166,-6413,4207,0,0,-1
25.11,22.40,-56.76,3165,-6406,4215,0,0,0
25.10,22.40,-56.75,3157,-6408,4209,0,0,0
25.10,22.40,-56.75,3161,-6402,4209,-1,-1,0
25.10,22.40,-56.75,3173,-6402,4210,-1,0,0
25.10,22.40,-56.76,3171,-6408,4211,-1,0,0
25.10,22.40,-56.76,3168,-6416,4216,-1,0,0
25.10,22.39,-56.76,3167,-6422,4208,-1,0,0
25.10,22.39,-56.76,3169,-6421,4202,0,0,-1
25.10,22.39,-56.76,3171,-6420,4203,0,0,0
25.10,22.39,-56.75,3171,-6409,4204,0,0,0
25.10,22.38,-56.75,3171,-6402,4214,-1,0,0
25.09,22.38,-56.75,3168,-6401,4206,-1,0,0
25.10,22.38,-56.76,3169,-6402,4204,-1,0,0
25.09,22.37,-56.77,3166,-6405,4206,-1,0,0
25.09,22.37,-56.77,3160,-6412,4207,-1,0,0
25.09,22.36,-56.77,3162,-6409,4217,-1,0,0
25.09,22.36,-56.78,3163,-6413,4217,-1,0,0
25.09,22.35,-56.78,3157,-6420,4212,-1,0,0
25.08,22.34,-56.79,3160,-6413,4206,-1,0,0
25.08,22.35,-56.80,3170,-6424,4203,-1,0,0
25.08,22.34,-56.81,3168,-6426,4201,-1,0,0
25.08,22.33,-56.81,3159,-6423,4206,-1,0,0
25.08,22.32,-56.80,3152,-6413,4209,-1,0,0
25.08,22.31,-56.81,3143,-6405,4205,-1,0,0
25.08,22.31,-56.81,3144,-6407,4209,-1,0,0
25.07,22.30,-56.81,3153,-6410,4215,-1,0,0
25.07,22.29,-56.83,3148,-6421,4203,-1,0,0
25.07,22.29,-56.84,3156,-6421,4200,-1,0,0
25.06,22.28,-56.84,3154,-6415,4198,-1,0,0
25.07,22.27,-56.85,3156,-6413,4192,-1,0,0
25.07,22.27,-56.86,3153,-6403,4194,-1,0,0
25.06,22.25,-56.87,3147,-6412,4195,-1,0,0
25.06,22.25,-56.88,3152,-6422,4202,-1,0,0
25.06,22.24,-56.89,3148,-6437,4189,-1,0,0
25.05,22.23,-56.91,3138,-6435,4187,-1,0,0
25.05,22.23,-56.91,3137,-6426,4188,-1,0,0
25.05,22.22,-56.93,3137,-6432,4180,-1,0,0
25.05,22.22,-56.93,3135,-6426,4188,-1,0,0
25.04,22.21,-56.93,3139,-6422,4194,-1,0,0
25.05,22.21,-56.93,3143,-6419,4200,-1,0,0
25.04,22.19,-56.93,3148,-6413,4205,-1,0,0
25.04,22.19,-56.94,3147,-6419,4214,-1,0,0
25.03,22.18,-56.95,3141,-6424,4199,-1,0,0
25.04,22.18,-56.96,3143,-6431,4202,-1,0,0
25.03,22.17,-56.98,3141,-6431,4204,-1,0,0
25.03,22.16,-56.98,3134,-6433,4200,-1,0,0
25.03,22.15,-56.99,3122,-6432,4196,-1,0,0
25.03,22.14,-57.01,3123,-6438,4187,-1,0,0
25.03,22.14,-57.02,3135,-6443,4180,-1,0,0
25.02,22.13,-57.02,3133,-6443,4192,-1,0,0
25.02,22.12,-57.03,3125,-6439,4189,-1,0,0
25.02,22.11,-57.04,3116,-6436,4186,-1,0,0
25.02,22.10,-57.04,3117,-6440,4187,-1,0,0
25.02,22.11,-57.04,3127,-6433,4185,-1,0,-1
25.02,22.10,-57.05,3120,-6437,4179,-1,0,-1
25.02,22.10,-57.05,3124,-6445,4182,-1,0,-1
25.02,22.10,-57.06,3122,-6447,4178,-1,-1,-1
25.02,22.10,-57.07,3122,-6448,4165,-1,-1,-1
25.02,22.10,-57.07,3128,-6448,4167,-1,-1,-1
25.03,22.11,-57.07,3138,-6453,4168,-1,-1,-1
25.03,22.12,-57.07,3136,-6455,4162,0,-1,-1
25.04,22.12,-57.07,3133,-6450,4174,0,-1,-1
25.04,22.13,-57.07,3131,-6444,4183,0,-1,-1
25.04,22.14,-57.06,3130,-6439,4189,0,-1,-1
25.05,22.15,-57.05,3133,-6435,4184,0,-1,-1
25.05,22.16,-57.04,3146,-6439,4202,0,-1,-1
25.06,22.17,-57.04,3152,-6438,4191,0,-1,-1
25.07,22.18,-57.02,3138,-6435,4190,0,-1,-1
25.07,22.18,-57.01,3131,-6433,4209,0,-1,-1
25.07,22.19,-57.01,3131,-6436,4197,0,-1,-1
25.07,22.20,-57.01,3134,-6445,4189,0,-1,-1
25.08,22.22,-57.00,3142,-6445,4187,0,-1,-1
25.09,22.22,-56.99,3146,-6431,4192,0,-1,-1
25.09,22.23,-56.98,3155,-6432,4196,0,-1,0
25.09,22.23,-56.98,3154,-6424,4193,0,-1,0
25.09,22.24,-56.98,3146,-6421,4192,0,-1,0
25.09,22.24,-56.98,3139,-6416,4188,0,-1,-1
25.09,22.24,-56.98,3136,-6433,4193,0,-1,-1
25.09,22.24,-56.98,3139,-6441,4184,0,-1,-1
25.09,22.25,-56.97,3137,-6433,4177,0,-1,-1
25.09,22.26,-56.97,3142,-6429,4181,0,-1,-1
25.09,22.26,-56.97,3139,-6425,4177,0,-1,-1
25.10,22.27,-56.96,3143,-6424,4190,0,-1,-1
25.09,22.27,-56.95,3146,-6427,4202,0,-1,-1
25.10,22.28,-56.95,3152,-6425,4201,0,-1,-1
25.10,22.28,-56.94,3148,-6421,4203,0,-1,-1
25.10,22.29,-56.94,3153,-6419,4197,0,-1,-1
25.10,22.30,-56.93,3156,-6414,4203,0,-1,0
25.10,22.30,-56.93,3156,-6423,4192,0,-1,-1
25.11,22.31,-56.92,3160,-6428,4201,0,-1,-1
25.10,22.31,-56.93,3154,-6435,4198,0,-1,0
25.10,22.31,-56.93,3152,-6435,4182,0,-1,-1
25.10,22.32,-56.92,3156,-6426,4188,0,-1,-1
25.10,22.32,-56.92,3155,-6427,4195,0,-1,-1
25.11,22.33,-56.91,3156,-6424,4200,0,-1,-1
25.11,22.33,-56.90,3159,-6428,4202,0,-1,-1
25.11,22.33,-56.89,3154,-6424,4211,0,-1,-1
25.11,22.34,-56.88,3159,-6413,4202,0,-1,0
25.11,22.34,-56.87,3163,-6414,4199,0,-1,0
25.12,22.35,-56.87,3167,-6415,4200,-1,-1,0
25.11,22.35,-56.88,3161,-6416,4196,-1,-1,-1
25.11,22.35,-56.88,3165,-6424,4195,-1,-1,-1
25.11,22.35,-56.88,3156,-6423,4199,0,-1,0
25.12,22.36,-56.88,3155,-6422,4192,0,-1,-1
25.11,22.35,-56.88,3159,-6424,4192,0,-1,0
25.11,22.36,-56.88,3163,-6425,4182,0,-1,0
25.11,22.36,-56.88,3162,-6425,4188,0,-1,-1
25.11,22.36,-56.87,3163,-6425,4188,0,-1,-1
25.12,22.36,-56.86,3161,-6420,4194,0,0,0
25.12,22.36,-56.85,3159,-6408,4207,0,-1,0
25.12,22.36,-56.85,3155,-6404,4209,-1,-1,-1
25.11,22.36,-56.85,3162,-6409,4205,-1,-1,0
25.11,22.37,-56.86,3172,-6420,4191,-1,-1,-1
25.12,22.38,-56.85,3179,-6415,4198,0,0,-1
25.12,22.37,-56.84,3165,-6413,4196,0,0,0
25.11,22.36,-56.84,3154,-6405,4200,-1,0,0
25.11,22.36,-56.85,3147,-6409,4199,-1,-1,0
25.11,22.36,-56.85,3146,-6416,4195,-1,-1,0
25.11,22.36,-56.85,3159,-6419,4198,0,-1,-1
25.12,22.37,-56.85,3174,-6415,4204,0,0,-1
25.11,22.37,-56.84,3174,-6407,4201,0,-1,-1
25.12,22.37,-56.84,3164,-6403,4194,0,0,0
25.12,22.37,-56.84,3170,-6403,4209,-1,-1,0
25.12,22.37,-56.84,3167,-6404,4204,-1,0,0
25.12,22.37,-56.84,3164,-6413,4209,-1,0,0
25.12,22.37,-56.84,3158,-6420,4207,-1,-1,0
25.12,22.37,-56.84,3153,-6418,4200,0,-1,-1
25.12,22.37,-56.83,3155,-6420,4205,0,0,-1
25.12,22.37,-56.83,3159,-6416,4197,0,-1,-1
25.13,22.38,-56.82,3166,-6407,4198,0,0,0
25.13,22.38,-56.81,3167,-6403,4210,0,0,-1
25.13,22.38,-56.80,3167,-6404,4221,-1,0,0
25.13,22.38,-56.81,3162,-6406,4219,-1,-1,0
25.13,22.38,-56.80,3165,-6412,4212,0,0,0
25.13,22.38,-56.80,3163,-6408,4212,0,0,-1
25.14,22.38,-56.80,3168,-6403,4214,-1,0,0
25.14,22.38,-56.80,3171,-6408,4219,-1,-1,-1
25.13,22.38,-56.81,3170,-6411,4206,-1,-1,0
25.13,22.38,-56.81,3169,-6425,4207,-1,0,-1
25.13,22.38,-56.81,3172,-6428,4202,-1,0,-1
25.14,22.38,-56.81,3163,-6425,4195,0,0,-1
25.14,22.38,-56.81,3160,-6422,4193,0,0,-1
25.15,22.39,-56.80,3165,-6422,4196,0,0,-1
25.15,22.38,-56.79,3170,-6411,4216,0,0,-1
25.15,22.38,-56.78,3172,-6402,4221,0,0,0
25.15,22.38,-56.77,3172,-6397,4227,-1,0,0
25.15,22.38,-56.77,3170,-6388,4221,-1,-1,0
25.14,22.38,-56.78,3164,-6403,4218,-1,-1,0
25.15,22.38,-56.78,3162,-6410,4211,-1,-1,-1
25.15,22.38,-56.79,3161,-6418,4213,-1,-1,-1
25.14,22.38,-56.80,3163,-6418,4202,-1,0,0
25.14,22.38,-56.80,3165,-6419,4206,-1,-1,0
25.14,22.38,-56.80,3167,-6422,4213,-1,-1,0
25.14,22.38,-56.80,3162,-6423,4209,0,0,0
25.14,22.38,-56.79,3161,-6417,4213,0,0,0
25.14,22.37,-56.79,3158,-6407,4221,0,0,0
25.13,22.36,-56.78,3158,-6405,4227,-1,0,0
25.13,22.36,-56.78,3161,-6402,4224,-1,0,0
25.14,22.36,-56.79,3167,-6402,4220,-1,0,0
25.14,22.36,-56.80,3168,-6414,4220,-1,0,0
25.13,22.35,-56.81,3168,-6419,4207,-1,0,0
25.13,22.35,-56.81,3172,-6413,4205,-1,0,0
25.14,22.35,-56.81,3162,-6401,4211,-1,0,0
25.13,22.34,-56.82,3147,-6399,4204,-1,0,0
25.13,22.33,-56.84,3149,-6414,4192,-1,0,0
25.12,22.33,-56.86,3157,-6433,4193,-1,0,-1
25.12,22.32,-56.85,3161,-6431,4196,-1,0,-1
25.12,22.31,-56.85,3160,-6425,4192,-1,0,-1
25.13,22.31,-56.85,3157,-6413,4196,-1,0,-1
25.12,22.30,-56.85,3161,-6401,4197,-1,0,0
25.13,22.30,-56.86,3161,-6413,4199,-1,0,0
25.12,22.29,-56.86,3159,-6418,4210,-1,0,0
25.12,22.29,-56.87,3151,-6424,4222,-1,0,0
25.12,22.28,-56.88,3146,-6423,4209,-1,0,-1
25.12,22.27,-56.89,3144,-6432,4196,-1,0,-1
25.12,22.28,-56.89,3146,-6432,4198,-1,0,-1
25.13,22.27,-56.89,3152,-6428,4199,-1,0,-1
25.13,22.27,-56.89,3152,-6425,4204,-1,0,0
25.13,22.27,-56.90,3155,-6427,4197,-1,0,0
25.12,22.25,-56.91,3151,-6429,4197,-1,0,0
25.13,22.25,-56.91,3144,-6429,4199,-1,0,0
25.12,22.24,-56.91,3141,-6419,4203,-1,0,0
25.12,22.24,-56.92,3148,-6422,4203,-1,0,-1
25.13,22.24,-56.92,3153,-6426,4204,-1,0,0
25.12,22.24,-56.93,3154,-6428,4207,-1,0,0
25.11,22.22,-56.93,3146,-6429,4207,-1,0,0
25.11,22.22,-56.95,3140,-6425,4196,-1,-1,0
25.11,22.22,-56.96,3138,-6434,4195,-1,0,0
25.10,22.21,-56.97,3140,-6433,4197,-1,0,0
25.10,22.20,-56.97,3145,-6442,4198,-1,0,0
25.11,22.20,-56.97,3140,-6439,4190,-1,0,0
25.10,22.19,-56.98,3137,-6432,4173,-1,0,0
25.10,22.18,-56.98,3136,-6423,4191,-1,0,0
25.10,22.17,-56.98,3143,-6419,4202,-1,0,0
25.10,22.17,-56.99,3137,-6421,4208,-1,0,0
25.09,22.16,-57.01,3152,-6429,4204,-1,0,0
25.09,22.15,-57.02,3124,-6425,4204,-1,0,0
25.07,22.13,-57.05,3131,-6433,4195,-1,0,0
25.07,22.12,-57.06,3121,-6435,4199,-1,0,0
25.07,22.11,-57.09,3121,-6449,4179,-1,0,0
25.06,22.10,-57.11,3133,-6453,4164,-1,0,0
25.06,22.09,-57.12,3118,-6454,4159,-1,0,0
25.06,22.09,-57.12,3123,-6446,4177,-1,0,-1
25.06,22.08,-57.13,3134,-6449,4181,-1,0,0
25.07,22.07,-57.14,3132,-6451,4177,-1,0,0
25.06,22.06,-57.14,3132,-6440,4198,-1,0,0
25.06,22.05,-57.15,3128,-6430,4187,-1,0,0
25.06,22.04,-57.16,3110,-6441,4179,-1,0,0
25.05,22.04,-57.17,3116,-6451,4174,-1,0,0
25.06,22.04,-57.18,3121,-6453,4175,-1,0,-1
25.06,22.04,-57.20,3112,-6460,4174,-1,-1,-1
25.06,22.04,-57.21,3124,-6460,4169,-1,0,-1
25.06,22.04,-57.20,3118,-6455,4175,-1,-1,-1
25.06,22.05,-57.20,3122,-6453,4166,0,0,-1
25.07,22.05,-57.20,3117,-6454,4176,0,-1,-1
25.07,22.05,-57.19,3106,-6462,4180,0,-1,-1
25.07,22.06,-57.18,3113,-6463,4175,0,-1,-1
25.08,22.08,-57.17,3117,-6464,4174,0,-1,-1
25.08,22.08,-57.16,3125,-6456,4168,0,-1,-1
25.09,22.09,-57.16,3116,-6451,4167,0,-1,-1
25.09,22.10,-57.14,3122,-6445,4166,0,-1,-1
25.11,22.12,-57.14,3126,-6443,4172,0,-1,-1
25.11,22.13,-57.14,3138,-6448,4179,0,-1,-1
25.11,22.14,-57.13,3131,-6451,4183,0,-1,-1
25.12,22.15,-57.12,3129,-6450,4184,0,-1,-1
25.12,22.16,-57.12,3132,-6444,4184,0,-1,-1
25.13,22.17,-57.11,3138,-6436,4179,0,-1,-1
25.13,22.18,-57.10,3143,-6438,4183,0,-1,-1
25.14,22.19,-57.09,3143,-6441,4179,0,-1,-1
25.14,22.20,-57.10,3138,-6444,4175,0,-1,-1
25.14,22.20,-57.09,3134,-6446,4175,0,-1,-1
25.14,22.21,-57.08,3128,-6447,4176,0,-1,-1
25.14,22.21,-57.08,3130,-6433,4172,0,-1,-1
25.15,22.22,-57.07,3143,-6435,4175,0,-1,-1
25.15,22.23,-57.07,3152,-6430,4182,0,-1,0
25.15,22.24,-57.05,3151,-6433,4186,0,-1,-1
25.16,22.25,-57.05,3151,-6427,4185,0,-1,-1
25.16,22.25,-57.04,3145,-6427,4185,0,-1,-1
25.16,22.26,-57.03,3142,-6422,4187,0,-1,-1
25.16,22.26,-57.02,3153,-6421,4195,0,-1,-1
25.17,22.28,-57.02,3150,-6426,4198,0,-1,-1
25.16,22.27,-57.02,3151,-6430,4192,0,-1,-1
25.17,22.28,-57.01,3153,-6435,4199,0,-1,0
25.17,22.28,-57.01,3158,-6433,4199,0,-1,-1
25.17,22.29,-57.00,3146,-6433,4193,0,-1,-1
25.18,22.30,-57.00,3149,-6425,4191,0,-1,-1
25.17,22.30,-56.99,3154,-6425,4188,0,-1,0
25.18,22.31,-56.99,3154,-6430,4194,0,-1,0
25.17,22.31,-56.98,3159,-6429,4202,0,-1,-1
25.18,22.31,-56.97,3163,-6427,4194,0,-1,0
25.18,22.32,-56.97,3163,-6422,4198,0,-1,-1
25.18,22.33,-56.96,3165,-6428,4185,0,-1,-1
25.18,22.33,-56.96,3155,-6423,4190,0,-1,0
25.18,22.33,-56.94,3158,-6418,4195,0,-1,0
25.18,22.34,-56.94,3156,-6418,4198,-1,-1,0
25.18,22.34,-56.94,3156,-6421,4195,0,-1,-1
25.18,22.34,-56.93,3160,-6426,4199,0,-1,0
25.18,22.35,-56.93,3152,-6422,4198,0,-1,-1
25.18,22.35,-56.92,3169,-6408,4196,0,-1,-1
25.19,22.36,-56.91,3177,-6411,4198,0,-1,0
25.19,22.36,-56.91,3177,-6409,4191,-1,-1,0
25.19,22.36,-56.91,3170,-6422,4196,0,-1,-1
25.19,22.37,-56.91,3170,-6426,4196,-1,-1,0
25.19,22.37,-56.91,3163,-6433,4186,0,0,0
25.19,22.36,-56.90,3155,-6428,4193,0,-1,-1
25.19,22.37,-56.89,3161,-6421,4194,0,-1,-1
25.19,22.37,-56.89,3165,-6419,4184,0,-1,-1
25.20,22.38,-56.87,3171,-6420,4187,0,-1,-1
25.20,22.38,-56.86,3167,-6416,4211,0,0,0
25.20,22.38,-56.85,3163,-6413,4204,0,-1,0
25.20,22.38,-56.85,3157,-6413,4206,0,-1,0
25.20,22.38,-56.84,3156,-6413,4204,0,-1,-1
25.20,22.38,-56.84,3156,-6413,4208,0,-1,0
25.20,22.38,-56.84,3157,-6405,4215,-1,-1,-1
25.20,22.38,-56.83,3153,-6407,4214,0,0,-1
25.20,22.38,-56.83,3162,-6414,4213,-1,-1,0
25.20,22.38,-56.83,3166,-6423,4207,-1,-1,0
25.20,22.39,-56.84,3164,-6421,4205,-1,-1,0
25.20,22.39,-56.84,3162,-6418,4199,0,-1,-1
25.20,22.39,-56.84,3165,-6423,4205,0,-1,-1
25.20,22.39,-56.83,3162,-6423,4213,0,0,-1
25.20,22.39,-56.82,3167,-6417,4209,0,0,-1
25.20,22.39,-56.80,3166,-6405,4213,0,0,0
25.20,22.39,-56.79,3174,-6391,4212,0,-1,-1
25.20,22.39,-56.79,3175,-6387,4207,-1,-1,0
25.21,22.40,-56.79,3183,-6387,4215,-1,-1,0
25.21,22.40,-56.79,3172,-6400,4208,-1,-1,0
25.21,22.40,-56.79,3174,-6415,4216,-1,0,-1
25.21,22.40,-56.79,3161,-6416,4201,-1,0,-1
25.21,22.40,-56.79,3154,-6416,4196,0,0,-1
25.21,22.40,-56.79,3168,-6417,4204,-1,0,0
25.21,22.40,-56.79,3169,-6418,4206,-1,0,0
25.21,22.39,-56.79,3171,-6400,4213,-1,0,0
25.20,22.38,-56.79,3167,-6407,4215,-1,0,0
25.20,22.38,-56.79,3165,-6406,4208,-1,0,0
25.19,22.37,-56.80,3161,-6413,4210,-1,0,0
25.19,22.36,-56.80,3153,-6406,4204,-1,-1,0
25.18,22.36,-56.81,3153,-6408,4194,-1,-1,0
25.18,22.36,-56.82,3162,-6411,4206,-1,0,0
25.18,22.36,-56.83,3153,-6421,4201,-1,-1,0
25.18,22.36,-56.83,3165,-6426,4209,-1,0,0
25.18,22.36,-56.83,3162,-6414,4202,0,0,0
25.18,22.35,-56.83,3149,-6413,4199,-1,0,0
25.17,22.34,-56.83,3151,-6411,4196,-1,-1,0
25.17,22.35,-56.83,3156,-6419,4218,-1,-1,0
25.17,22.35,-56.83,3155,-6428,4202,-1,-1,-1
25.17,22.35,-56.83,3161,-6428,4204,0,0,-1
25.18,22.35,-56.83,3168,-6417,4221,-1,0,-1
25.17,22.35,-56.82,3170,-6405,4218,0,0,-1
25.18,22.35,-56.82,3168,-6397,4211,0,0,0
25.18,22.35,-56.82,3169,-6401,4214,-1,0,0
25.18,22.35,-56.83,3154,-6421,4205,-1,-1,0
25.16,22.34,-56.84,3157,-6428,4201,-1,0,0
25.17,22.35,-56.85,3157,-6439,4188,-1,0,-1
25.17,22.34,-56.84,3155,-6427,4185,0,0,-1
25.18,22.34,-56.84,3155,-6419,4186,0,0,-1
25.18,22.34,-56.83,3157,-6405,4200,0,0,0
25.18,22.34,-56.82,3166,-6409,4217,-1,0,0
25.17,22.33,-56.82,3160,-6407,4236,-1,0,0
25.17,22.32,-56.82,3167,-6408,4221,-1,0,0
25.17,22.32,-56.82,3166,-6407,4218,-1,0,0
25.17,22.31,-56.82,3157,-6404,4219,-1,0,0
25.16,22.30,-56.83,3149,-6404,4212,-1,0,0
25.17,22.30,-56.84,3151,-6405,4215,-1,0,0
25.16,22.30,-56.86,3161,-6417,4209,-1,0,0
25.17,22.29,-56.86,3148,-6423,4207,-1,0,0
25.17,22.29,-56.87,3153,-6435,4197,-1,0,0
25.16,22.28,-56.88,3153,-6436,4199,-1,0,0
25.16,22.27,-56.88,3147,-6433,4192,-1,0,0
25.16,22.26,-56.87,3151,-6426,4193,-1,0,0
25.16,22.26,-56.88,3154,-6419,4197,-1,0,0
25.15,22.25,-56.88,3154,-6402,4216,-1,0,0
25.15,22.25,-56.88,3151,-6401,4216,-1,0,0
25.15,22.23,-56.88,3146,-6405,4220,-1,0,0
25.14,22.22,-56.89,3144,-6407,4205,-1,0,0
25.14,22.22,-56.91,3146,-6412,4219,-1,0,0
25.13,22.21,-56.93,3149,-6424,4209,-1,0,0
25.12,22.20,-56.95,3148,-6437,4208,-1,0,0
25.12,22.18,-56.97,3165,-6444,4194,-1,0,0
25.11,22.16,-56.98,3138,-6438,4216,-2,0,0
25.10,22.15,-57.02,3134,-6447,4167,-1,0,0
25.08,22.13,-57.02,3126,-6413,4208,-1,0,0
25.06,22.10,-57.05,3125,-6440,4204,-2,-1,0
25.04,22.08,-57.09,3149,-6447,4205,-2,0,1
25.01,22.04,-57.12,3114,-6443,4196,-2,0,0
24.99,22.02,-57.15,3138,-6464,4190,-2,1,1
24.96,21.99,-57.18,3120,-6445,4170,-1,-1,0
24.94,21.97,-57.21,3114,-6462,4172,-2,0,0
24.93,21.95,-57.22,3100,-6443,4165,-1,0,0
24.92,21.94,-57.24,3120,-6435,4172,-1,0,0
24.91,21.92,-57.26,3108,-6455,4205,-1,0,0
24.90,21.91,-57.30,3094,-6456,4175,-2,0,0
24.89,21.90,-57.31,3099,-6464,4163,-1,0,0
24.89,21.89,-57.32,3075,-6437,4173,-1,0,-1
24.89,21.90,-57.33,3092,-6461,4149,-1,0,-1
24.90,21.90,-57.34,3085,-6471,4135,-1,-1,-1
24.91,21.91,-57.34,3068,-6480,4139,0,-1,-1
24.93,21.93,-57.32,3076,-6468,4164,0,-1,-1
24.94,21.94,-57.32,3085,-6472,4174,-1,-1,-1
24.96,21.96,-57.32,3120,-6487,4175,0,0,-1
24.97,21.96,-57.32,3139,-6481,4162,0,0,-1
24.98,21.97,-57.31,3138,-6455,4158,0,0,-1
24.99,21.96,-57.29,3111,-6440,4163,-1,0,-1
24.99,21.96,-57.29,3097,-6456,4164,-1,0,-1
25.00,21.97,-57.29,3100,-6466,4173,0,0,-1
25.01,21.97,-57.28,3095,-6485,4167,0,-1,-1
25.02,21.98,-57.27,3097,-6490,4152,0,-1,-1
25.03,21.99,-57.26,3104,-6478,4158,0,-1,-1
25.04,22.00,-57.24,3100,-6464,4163,0,-1,-1
25.05,22.01,-57.22,3108,-6447,4169,0,-1,-1
25.06,22.03,-57.20,3117,-6447,4177,0,-1,-1
25.07,22.04,-57.19,3120,-6446,4192,0,-1,-1
25.08,22.05,-57.18,3129,-6457,4194,0,-1,-1
25.09,22.06,-57.17,3131,-6449,4180,0,-1,-1
25.09,22.07,-57.16,3133,-6447,4171,0,-1,-1
25.10,22.09,-57.15,3137,-6443,4179,0,-1,-1
25.11,22.10,-57.14,3130,-6446,4182,0,-1,-1
25.11,22.11,-57.13,3135,-6447,4188,0,-1,-1
25.12,22.12,-57.13,3127,-6446,4181,0,-1,-1
25.12,22.13,-57.12,3123,-6453,4168,0,-1,-1
25.13,22.14,-57.11,3127,-6451,4173,0,-1,-1
25.13,22.14,-57.11,3119,-6455,4174,0,-1,-1
25.13,22.15,-57.10,3138,-6448,4177,0,-1,-1
25.14,22.16,-57.09,3143,-6443,4183,0,-1,-1
25.14,22.17,-57.07,3138,-6433,4184,0,-1,-1
25.14,22.17,-57.06,3132,-6426,4189,0,-1,-1
25.14,22.18,-57.06,3133,-1,-1,0,-1,-1
25.14,22.19,-57.05,3142,-6431,4202,0,-1,-1
25.14,22.19,-57.05,3138,-6441,4197,0,-1,0
25.14,22.19,-57.04,3139,-6438,4196,-1,-1,-1
25.15,22.20,-57.04,3132,-6432,4182,0,-1,-1
25.14,22.20,-57.05,3132,-6428,4185,-1,-1,-1
25.15,22.20,-57.05,3139,-6436,4178,0,-1,-1
25.16,22.22,-57.04,3142,-6436,4178,0,-1,-1
25.15,22.22,-57.03,3147,-6441,4183,0,-1,-1
25.16,22.22,-57.03,3146,-6432,4174,0,-1,-1
25.15,22.23,-57.02,3145,-6431,4179,0,-1,-1
25.16,22.23,-57.02,3147,-6425,4183,0,-1,-1
25.16,22.24,-57.01,3149,-6423,4190,0,-1,-1
25.16,22.24,-57.00,3147,-6430,4187,0,-1,-1
25.17,22.25,-57.00,3153,-6428,4192,0,-1,-1
25.17,22.25,-56.99,3146,-6429,4190,0,-1,0
25.16,22.26,-56.99,3142,-6429,4191,0,-1,0
25.17,22.27,-56.99,3143,-6428,4184,0,-1,-1
25.17,22.27,-56.99,3158,-6434,4192,0,-1,0
25.17,22.27,-56.98,3158,-6445,4190,0,-1,-1
25.17,22.27,-56.97,3150,-6434,4185,0,-1,0
25.17,22.27,-56.97,3141,-6428,4181,0,-1,0
25.17,22.27,-56.96,3129,-6433,4195,0,-1,-1
25.17,22.28,-56.95,3133,-6438,4200,0,-1,-1
25.17,22.28,-56.94,3153,-6438,4206,0,-1,-1
25.18,22.30,-56.93,3160,-6428,4198,0,-1,-1
25.19,22.30,-56.92,3167,-6413,4204,0,-1,0
25.18,22.30,-56.91,3165,-6411,4211,0,-1,0
25.19,22.31,-56.91,3148,-6412,4207,0,-1,0
25.18,22.30,-56.91,3145,-6425,4195,0,-1,0
25.18,22.30,-56.91,3145,-6433,4189,0,-1,-1
25.18,22.31,-56.90,3143,-6435,4195,0,-1,-1
25.19,22.32,-56.89,3154,-6431,4203,0,-1,-1
25.19,22.32,-56.89,3155,-6424,4208,0,-1,-1
25.19,22.33,-56.88,3164,-6416,4202,0,-1,-1
25.20,22.33,-56.87,3165,-6412,4204,0,-1,-1
25.20,22.34,-56.87,3166,-6416,4204,0,-1,0
25.20,22.34,-56.86,3167,-6418,4207,0,-1,-1
25.20,22.34,-56.86,3171,-6417,4203,0,-1,0
25.20,22.35,-56.86,3172,-6421,4204,0,-1,0
25.20,22.35,-56.85,3166,-6418,4199,0,-1,-1
25.20,22.35,-56.85,3159,-6421,4194,0,-1,0
25.20,22.35,-56.84,3160,-6417,4198,0,-1,0
25.21,22.36,-56.84,3161,-6413,4192,0,-1,-1
25.20,22.35,-56.84,3163,-6432,4198,0,-1,0
25.20,22.36,-56.84,3161,-6434,4193,0,-1,-1
25.21,22.36,-56.84,3167,-6434,4196,0,-1,-1
25.21,22.36,-56.83,3157,-6423,4192,0,0,-1
25.21,22.36,-56.82,3147,-6412,4195,0,0,-1
25.21,22.36,-56.81,3154,-6401,4202,0,-1,-1
25.21,22.37,-56.80,3159,-6405,4206,0,-1,0
25.21,22.37,-56.79,3164,-6405,4212,0,-1,0
25.21,22.37,-56.79,3159,-6411,4199,0,-1,-1
25.22,22.37,-56.79,3165,-6414,4203,0,0,0
25.21,22.37,-56.79,3161,-6416,4205,-1,0,0
25.21,22.37,-56.79,3155,-6413,4198,0,-1,-1
25.22,22.37,-56.79,3155,-6417,4191,0,-1,-1
25.22,22.37,-56.79,3163,-6419,4204,0,0,0
25.22,22.37,-56.79,3164,-6422,4210,0,-1,-1
25.22,22.38,-56.78,3159,-6416,4208,0,0,-1
25.22,22.38,-56.77,3153,-6413,4209,0,0,0
25.22,22.38,-56.76,3158,-6405,4205,0,0,0
25.22,22.38,-56.76,3164,-6403,4198,0,-1,-1
25.22,22.38,-56.75,3169,-6412,4212,0,-1,-1
25.22,22.38,-56.75,3167,-6409,4206,0,0,-1
25.22,22.38,-56.75,3166,-6413,4202,0,0,-1
25.22,22.38,-56.74,3158,-6405,4211,0,0,0
25.22,22.38,-56.74,3153,-6399,4210,0,-1,0
25.22,22.38,-56.74,3151,-6407,4200,-1,-1,0
25.22,22.38,-56.75,3152,-6411,4203,-1,-1,-1
25.22,22.38,-56.74,3162,-6416,4217,0,-1,-1
25.23,22.39,-56.73,3169,-6419,4215,0,0,-1
25.23,22.39,-56.73,3168,-6408,4208,0,0,-1
25.23,22.39,-56.72,3167,-6400,4204,0,-1,0
25.23,22.39,-56.72,3178,-6408,4211,0,0,0
25.23,22.38,-56.73,3171,-6409,4209,-1,0,0
25.23,22.38,-56.73,3169,-6418,4228,-1,0,0
25.23,22.38,-56.73,3158,-6426,4214,-1,0,0
25.22,22.37,-56.74,3151,-6430,4204,-1,0,0
25.21,22.36,-56.74,3150,-6421,4204,0,0,0
25.21,22.36,-56.74,3151,-6417,4212,-1,0,0
25.21,22.36,-56.74,3171,-6413,4200,0,-1,0
25.21,22.36,-56.75,3156,-6413,4202,-1,-1,0
25.20,22.35,-56.75,3156,-6417,4201,0,0,0
25.19,22.34,-56.75,3161,-6413,4214,-1,0,0
25.18,22.34,-56.75,3160,-6425,4223,-1,-1,0
25.17,22.33,-56.76,3159,-6412,4230,-1,0,0
25.16,22.32,-56.77,3155,-6416,4221,-1,0,0
25.15,22.30,-56.78,3152,-6410,4220,-1,-1,0
25.14,22.30,-56.81,3174,-6420,4216,-1,0,0
25.12,22.27,-56.83,3156,-6427,4226,-2,0,0
25.10,22.25,-56.86,3177,-6428,4200,-1,1,0
25.08,22.22,-56.88,3114,-6436,4186,-1,0,0
25.07,22.21,-56.89,3126,-6436,4191,-1,-1,0
25.05,22.20,-56.92,3137,-6438,4155,0,1,0
25.04,22.18,-56.91,3116,-6421,4213,-1,-1,0
25.04,22.18,-56.94,3156,-6453,4169,-1,0,-1
25.03,22.16,-56.94,3139,-6437,4191,-1,0,0
25.01,22.15,-56.95,3145,-6428,4202,-1,0,0
25.01,22.13,-56.97,3114,-6424,4189,-2,-1,0
25.01,22.13,-56.99,3133,-6428,4183,-1,0,0
25.00,22.13,-57.01,3138,-6432,4175,-1,0,0
24.98,22.10,-57.02,3110,-6449,4207,-1,0,0
24.99,22.12,-57.05,3140,-6478,4174,-1,-1,-1
24.98,22.10,-57.05,3122,-6444,4187,0,0,0
24.98,22.10,-57.06,3124,-6463,4185,-1,-1,-1
24.98,22.09,-57.07,3114,-6467,4148,0,0,-1
24.98,22.09,-57.06,3104,-6446,4186,-1,-1,-1
24.99,22.10,-57.08,3129,-6455,4169,-1,0,-1
24.99,22.10,-57.07,3111,-6462,4174,0,-1,-1
25.00,22.11,-57.07,3133,-6453,4154,0,0,-1
25.02,22.11,-57.04,3112,-6439,4194,-1,0,-1
25.03,22.12,-57.03,3117,-6438,4190,-1,0,-1
25.03,22.12,-57.04,3127,-6445,4181,-1,-1,-1
25.04,22.12,-57.03,3138,-6439,4180,0,0,-1
25.04,22.12,-57.03,3117,-6445,4188,-1,0,-1
25.05,22.12,-57.03,3111,-6456,4197,-1,0,-1
25.05,22.12,-57.03,3117,-6452,4197,-1,0,-1
25.06,22.12,-57.03,3122,-6448,4181,-1,0,-1
25.06,22.12,-57.03,3129,-6435,4179,-1,0,-1
25.07,22.13,-57.03,3138,-6428,4172,-1,0,-1
25.08,22.13,-57.04,3133,-6433,4175,-1,0,-1
25.09,22.12,-57.05,3130,-6443,4186,-1,0,-1
25.09,22.13,-57.05,3133,-6463,4182,-1,0,-1
25.09,22.12,-57.06,3129,-6461,4176,-1,0,-1
25.10,22.13,-57.07,3131,-6466,4165,0,0,-1
25.11,22.13,-57.06,3129,-6461,4172,-1,0,-1
25.11,22.13,-57.06,3125,-6460,4157,0,0,-1
25.12,22.12,-57.05,3121,-6454,4164,0,0,-1
25.12,22.13,-57.04,3133,-6458,4170,0,0,-1
25.12,22.13,-57.04,3136,-6452,4169,0,0,-1
25.13,22.13,-57.03,3140,-6447,4185,-1,0,-1
25.13,22.12,-57.03,3126,-6444,4185,-1,0,0
25.13,22.11,-57.02,3126,-6434,4192,-1,0,0
25.13,22.11,-57.03,3121,-6433,4196,-1,0,0
25.13,22.10,-57.03,3126,-6439,4196,-1,0,0
25.13,22.10,-57.04,3121,-6442,4195,-1,0,-1
25.14,22.11,-57.05,3126,-6453,4191,-1,0,-1
25.13,22.10,-57.06,3123,-6468,4186,-1,0,0
25.14,22.10,-57.07,3121,-6472,4183,-1,0,-1
25.13,22.09,-57.07,3116,-6473,4168,-1,0,0
25.13,22.08,-57.08,3114,-6473,4165,0,0,0
25.13,22.08,-57.07,3111,-6458,4170,0,0,0
25.12,22.07,-57.07,3109,-6447,4170,-1,0,0
25.12,22.07,-57.08,3119,-6447,4174,-1,-1,0
25.12,22.07,-57.08,3135,-6453,4180,0,-1,0
25.11,22.06,-57.08,3113,-6445,4188,0,0,0
25.10,22.05,-57.08,3102,-6454,4186,-1,-1,-1
25.11,22.06,-57.08,3104,-6458,4176,-1,-1,-1
25.11,22.06,-57.08,3099,-6466,4164,0,-1,-1
25.11,22.07,-57.07,3094,-6453,4177,0,-1,-1
25.12,22.08,-57.07,3105,-6450,4170,0,-1,-1
25.13,22.10,-57.07,3121,-6460,4165,0,-1,-1
25.14,22.11,-57.06,3127,-6463,4172,0,-1,-1
25.15,22.12,-57.05,3133,-6455,4173,0,-1,-1
25.15,22.13,-57.03,3120,-6450,4169,0,-1,-1
25.15,22.14,-57.02,3120,-6444,4178,0,-1,-1
25.16,22.15,-57.01,3129,-6439,4178,0,-1,-1
25.17,22.16,-57.01,3125,-6451,4184,0,-1,-1
25.17,22.17,-57.00,3132,-6454,4187,0,-1,-1
25.18,22.18,-56.99,3132,-6452,4180,0,-1,-1
25.17,22.18,-56.98,3135,-6441,4184,0,-1,0
25.18,22.19,-56.98,3133,-6437,4183,0,-1,-1
25.18,22.19,-56.98,3125,-6443,4178,0,-1,-1
25.18,22.19,-56.98,3128,-6448,4179,0,-1,-1
25.18,22.20,-56.98,3126,-6450,4177,0,-1,-1
25.18,22.21,-56.97,3134,-6444,4178,0,-1,-1
25.19,22.22,-56.96,3155,-6442,4178,0,-1,-1
25.19,22.23,-56.96,3150,-6438,4171,0,-1,-1
25.20,22.24,-56.95,3150,-6430,4185,0,-1,0
25.19,22.24,-56.95,3150,-6429,4193,0,-1,-1
25.20,22.25,-56.94,3146,-6436,4197,0,-1,-1
25.20,22.25,-56.93,3137,-6441,4197,0,-1,-1
25.20,22.26,-56.93,3140,-6439,4190,0,-1,-1
25.20,22.26,-56.93,3136,-6437,4182,0,-1,-1
25.20,22.26,-56.92,3141,-6445,4189,0,-1,-1
25.21,22.27,-56.91,3146,-6435,4189,0,-1,-1
25.21,22.27,-56.90,3150,-6428,4192,0,-1,0
25.21,22.28,-56.89,3151,-6422,4190,0,-1,0
25.21,22.29,-56.89,3147,-6426,4188,0,-1,-1
25.21,22.28,-56.88,3148,-6434,4195,0,-1,0
25.21,22.29,-56.88,3146,-6433,4199,0,-1,-1
25.21,22.29,-56.87,3145,-6428,4199,0,-1,0
25.21,22.30,-56.87,3148,-6425,4202,0,-1,-1
25.21,22.30,-56.87,3147,-6432,4199,0,-1,0
25.21,22.30,-56.87,3143,-6438,4188,0,-1,0
25.21,22.30,-56.87,3146,-6443,4190,0,-1,0
25.21,22.31,-56.87,3150,-6435,4192,0,-1,0
25.20,22.31,-56.86,3140,-6442,4188,0,-1,0
25.21,22.31,-56.86,3150,-6446,4184,0,-1,0
25.21,22.32,-56.84,3144,-6428,4183,0,0,-1
25.21,22.32,-56.83,3154,-6414,4188,0,0,0
25.21,22.32,-56.82,3161,-6409,4190,0,-1,0
25.21,22.32,-56.82,3166,-6412,4201,0,-1,0
25.21,22.33,-56.82,3162,-6425,4193,0,-1,-1
25.21,22.34,-56.82,3165,-6428,4199,0,-1,-1
25.21,22.34,-56.82,3156,-6432,4193,0,-1,-1
25.22,22.34,-56.81,3150,-6430,4196,0,-1,-1
25.21,22.34,-56.80,3147,-6426,4193,0,-1,-1
25.21,22.34,-56.80,3151,-6421,4193,0,-1,0
25.21,22.34,-56.79,3160,-6425,4195,0,-1,0
25.21,22.35,-56.79,3165,-6423,4199,0,-1,0
25.22,22.35,-56.77,3166,-6416,4200,0,-1,-1
25.22,22.35,-56.77,3160,-6414,4192,0,-1,0
25.22,22.36,-56.76,3164,-6414,4197,0,-1,0
25.22,22.36,-56.75,3169,-6411,4201,0,-1,-1
25.22,22.36,-56.75,3165,-6415,4206,0,-1,-1
25.22,22.36,-56.75,3166,-6425,4200,0,-1,-1
25.23,22.37,-56.75,3167,-6414,4198,0,0,0
25.22,22.37,-56.74,3158,-6414,4196,0,-1,0
25.22,22.36,-56.75,3150,-6415,4192,0,-1,0
25.21,22.36,-56.75,3149,-6423,4197,0,-1,0
25.22,22.36,-56.74,3145,-6427,4198,0,-1,-1
25.22,22.37,-56.74,3155,-6428,4205,0,-1,-1
25.22,22.36,-56.72,3161,-6417,4207,0,-1,-1
25.22,22.37,-56.72,3170,-6406,4200,0,-1,0
25.23,22.38,-56.71,3177,-6399,4209,0,-1,0
25.22,22.37,-56.71,3171,-6407,4214,-1,-1,0
25.22,22.37,-56.71,3165,-6415,4225,0,-1,0
25.22,22.37,-56.71,3150,-6414,4213,0,-1,-1
25.22,22.37,-56.71,3148,-6419,4208,0,-1,0
25.22,22.38,-56.71,3149,-6427,4196,0,-1,-1
25.22,22.38,-56.71,3148,-6415,4187,0,-1,0
25.22,22.38,-56.70,3150,-6419,4193,0,-1,-1
25.22,22.38,-56.69,3159,-6409,4200,0,-1,-1
25.22,22.38,-56.68,3157,-6411,4207,0,0,-1
25.23,22.39,-56.67,3160,-6407,4213,0,0,-1
25.23,22.39,-56.66,3162,-6407,4217,0,-1,-1
25.23,22.39,-56.65,3163,-6399,4216,0,-1,-1
25.23,22.40,-56.65,3166,-6397,4215,0,-1,-1
25.24,22.40,-56.64,3164,-6395,4225,0,-1,-1
25.24,22.40,-56.64,3169,-6400,4219,-1,-1,0
25.24,22.40,-56.64,3164,-6412,4222,-1,-1,0
25.23,22.40,-56.65,3163,-6423,4212,-1,-1,0
25.24,22.40,-56.65,3160,-6418,4207,0,0,-1
25.24,22.40,-56.65,3161,-6414,4206,0,0,0
25.24,22.39,-56.65,3159,-6414,4206,0,0,-1
25.24,22.39,-56.65,3156,-6414,4212,0,0,0
25.24,22.39,-56.64,3160,-6402,4202,0,0,0
25.23,22.39,-56.63,3162,-6389,4204,0,0,0
25.23,22.39,-56.63,3158,-6390,4214,0,0,0
25.23,22.39,-56.63,3158,-6386,4224,-1,-1,0
25.23,22.39,-56.63,3159,-6392,4218,-1,0,0
25.23,22.38,-56.64,3160,-6402,4218,-1,0,0
25.23,22.38,-56.65,3159,-6405,4211,-1,0,-1
25.24,22.38,-56.65,3158,-6408,4215,-1,0,-1
25.24,22.39,-56.66,3159,-6418,4213,-1,-1,0
25.24,22.39,-56.66,3160,-6418,4207,0,-1,0
25.23,22.38,-56.66,3161,-6419,4205,0,-1,0
25.23,22.38,-56.66,3156,-6414,4205,0,0,-1
25.23,22.38,-56.65,3157,-6408,4203,0,0,0
25.23,22.39,-56.65,3160,-6407,4204,0,-1,-1
25.23,22.39,-56.65,3163,-6406,4209,0,0,-1
25.24,22.39,-56.64,3152,-6406,4208,0,0,0
25.23,22.38,-56.64,3150,-6416,4208,0,0,-1
25.24,22.39,-56.64,3162,-6411,4219,0,-1,-1
25.24,22.39,-56.64,3170,-6410,4216,0,0,-1
25.24,22.38,-56.63,3160,-6407,4210,0,0,0
25.23,22.38,-56.63,3151,-6398,4209,-1,0,0
25.23,22.37,-56.63,3136,-6407,4210,-1,0,0
25.23,22.37,-56.64,3143,-6417,4207,-1,0,0
25.23,22.37,-56.65,3148,-6415,4208,-1,0,-1
25.23,22.37,-56.64,3158,-6409,4206,0,0,-1
25.23,22.37,-56.64,3170,-6403,4208,-1,0,0
25.24,22.37,-56.64,3164,-6393,4221,-1,0,-1
25.24,22.37,-56.64,3165,-6397,4231,-1,0,0
25.23,22.36,-56.64,3158,-6411,4231,-1,0,0
25.23,22.36,-56.65,3160,-6428,4237,-1,0,0
25.22,22.35,-56.66,3150,-6432,4229,-1,0,0
25.22,22.34,-56.66,3145,-6426,4219,0,0,-1
25.22,22.34,-56.66,3155,-6418,4215,-1,0,0
25.22,22.34,-56.66,3156,-6417,4208,-1,0,0
25.23,22.34,-56.66,3159,-6412,4214,-1,0,0
25.22,22.33,-56.66,3154,-6407,4227,-1,0,0
25.22,22.32,-56.66,3146,-6401,4223,-1,0,0
25.22,22.32,-56.66,3148,-6397,4214,-1,0,0
25.22,22.32,-56.66,3148,-6396,4220,-1,0,0
25.22,22.31,-56.67,3158,-6400,4216,-1,0,0
25.21,22.31,-56.68,3167,-6397,4231,-1,0,0
25.21,22.30,-56.70,3164,-6406,4216,-1,0,0
25.20,22.28,-56.72,3147,-6420,4199,-1,0,0
25.19,22.26,-56.74,3147,-6428,4201,-1,0,0
25.18,22.24,-56.75,3143,-6422,4229,-1,0,0
25.16,22.22,-56.77,3144,-6435,4218,-1,0,0
25.16,22.20,-56.79,3151,-6433,4212,-1,0,0
25.14,22.17,-56.82,3143,-6430,4221,-2,0,0
25.11,22.13,-56.86,3124,-6446,4196,-2,0,1
25.09,22.11,-56.88,3148,-6421,4197,-1,0,0
25.07,22.08,-56.91,3119,-6432,4222,-3,0,0
25.04,22.06,-56.96,3123,-6431,4182,-2,0,0
25.02,22.03,-56.97,3122,-6441,4212,-2,0,0
24.99,22.00,-57.03,3117,-6473,4159,-1,0,0
24.97,21.97,-57.04,3104,-6448,4199,-1,0,0
24.96,21.96,-57.08,3111,-6456,4168,-2,0,0
24.95,21.94,-57.10,3114,-6448,4182,-1,0,0
24.93,21.92,-57.13,3094,-6476,4153,-1,-1,0
24.93,21.91,-57.13,3103,-6458,4183,0,1,0
24.92,21.89,-57.14,3070,-6447,4182,-2,-1,0
24.92,21.90,-57.17,3082,-6462,4147,-1,0,-1
24.93,21.89,-57.17,3090,-6437,4180,-1,-1,-1
24.93,21.90,-57.18,3067,-6482,4149,0,0,-1
24.94,21.91,-57.19,3099,-6476,4165,-1,-1,-1
24.95,21.92,-57.19,3093,-6482,4158,0,0,-1
24.97,21.93,-57.18,3111,-6469,4162,0,0,-1
24.99,21.94,-57.16,3085,-6455,4180,-1,-1,-1
25.01,21.95,-57.16,3074,-6465,4155,0,-1,-1
25.02,21.97,-57.15,3093,-6476,4155,0,-1,-1
25.05,21.99,-57.12,3113,-6479,4170,0,0,-1
25.07,22.00,-57.10,3121,-6460,4180,0,0,-1
25.08,22.01,-57.09,3123,-6455,4167,0,0,-1
25.09,22.02,-57.06,3119,-6453,4176,0,-1,-1
25.10,22.04,-57.05,3116,-6450,4183,0,-1,-1
25.10,22.04,-57.04,3101,-6455,4190,0,-1,-1
25.11,22.05,-57.04,3104,-6459,4183,0,-1,-1
25.11,22.06,-57.03,3109,-6459,4183,0,-1,-1
25.12,22.07,-57.02,3106,-6459,4184,0,-1,-1
25.13,22.09,-57.02,3116,-6460,4177,0,-1,-1
25.14,22.10,-57.01,3122,-6456,4175,0,-1,-1
25.14,22.10,-57.00,3125,-6449,4175,0,-1,-1
25.14,22.11,-57.01,3127,-6455,4178,0,-1,-1
25.15,22.12,-57.00,3122,-6453,4187,0,-1,-1
25.15,22.13,-56.99,3128,-6455,4177,0,-1,-1
25.16,22.14,-56.97,3129,-6451,4190,0,-1,-1
25.17,22.15,-56.96,3139,-6440,4196,0,-1,-1
25.17,22.15,-56.95,3122,-6440,4187,0,-1,-1
25.17,22.16,-56.95,3125,-6424,4190,0,-1,-1
25.18,22.17,-56.94,3128,-6434,4194,0,-1,-1
25.18,22.19,-56.94,3131,-6442,4191,0,-1,-1
25.18,22.18,-56.94,3130,-6447,4183,0,-1,-1
25.18,22.19,-56.93,3124,-6446,4181,0,-1,-1
25.19,22.20,-56.93,3134,-6446,4179,0,-1,-1
25.19,22.20,-56.93,3130,-6443,4180,0,-1,-1
25.19,22.21,-56.92,3134,-6437,4189,0,-1,-1
25.19,22.21,-56.91,3134,-6433,4191,0,-1,-1
25.19,22.22,-56.90,3142,-6430,4199,0,-1,-1
25.19,22.22,-56.90,3146,-6433,4189,0,-1,-1
25.20,22.23,-56.90,3137,-6434,4182,0,-1,-1
25.20,22.24,-56.89,3137,-6431,4185,0,-1,-1
25.20,22.24,-56.89,3146,-6431,4198,0,-1,-1
25.20,22.25,-56.88,3141,-6430,4197,0,-1,-1
25.20,22.26,-56.88,3143,-6431,4204,0,-1,0
25.21,22.26,-56.88,3144,-6434,4195,0,-1,-1
25.20,22.26,-56.87,3145,-6437,4197,0,-1,0
25.20,22.27,-56.87,3143,-6438,4192,0,-1,-1
25.21,22.28,-56.86,3147,-6436,4186,0,-1,0
25.21,22.28,-56.86,3150,-6437,4193,0,-1,-1
25.21,22.29,-56.85,3158,-6426,4192,0,-1,0
25.21,22.30,-56.84,3151,-6427,4191,0,-1,-1
25.21,22.30,-56.84,3149,-6427,4192,0,-1,0
25.21,22.30,-56.84,3143,-6423,4177,0,-1,-1
25.21,22.31,-56.83,3143,-6420,4189,0,-1,-1
25.22,22.31,-56.82,3151,-6423,4191,0,-1,-1
25.22,22.32,-56.81,3154,-6419,4197,0,-1,-1
25.22,22.32,-56.81,3158,-6414,4195,0,-1,-1
25.22,22.33,-56.80,3155,-6411,4209,0,-1,-1
25.22,22.33,-56.78,3157,-6406,4214,0,-1,0
25.22,22.33,-56.78,3152,-6414,4213,0,-1,0
25.22,22.33,-56.78,3157,-6433,4214,0,-1,-1
25.23,22.34,-56.77,3159,-6430,4205,0,-1,-1
25.22,22.34,-56.77,3157,-6423,4207,0,-1,-1
25.23,22.34,-56.76,3159,-6424,4204,0,-1,-1
25.23,22.35,-56.76,3156,-6413,4207,0,-1,-1
25.23,22.35,-56.75,3159,-6411,4205,0,-1,-1
25.23,22.35,-56.74,3158,-6405,4208,0,-1,0
25.23,22.35,-56.74,3155,-6407,4199,0,-1,0
25.23,22.36,-56.73,3153,-6412,4192,0,-1,0
25.23,22.36,-56.73,3160,-6409,4194,0,-1,-1
25.24,22.36,-56.73,3158,-6404,4195,0,-1,-1
25.23,22.36,-56.73,3160,-6410,4202,0,-1,-1
25.23,22.36,-56.72,3158,-6411,4206,0,0,0
25.23,22.36,-56.72,3151,-6413,4209,0,-1,-1
25.23,22.36,-56.72,3151,-6417,4203,0,-1,-1
25.23,22.37,-56.73,3157,-6423,4201,0,-1,-1
25.24,22.37,-56.73,3160,-6422,4193,0,-1,-1
25.23,22.37,-56.72,3156,-6427,4196,0,-1,-1
25.24,22.38,-56.71,3157,-6425,4196,0,0,0
25.24,22.37,-56.70,3149,-6421,4196,0,0,-1
25.24,22.37,-56.69,3150,-6409,4205,0,0,-1
25.24,22.38,-56.68,3156,-6410,4210,0,-1,0
25.24,22.37,-56.67,3157,-6403,4217,0,-1,0
25.24,22.38,-56.67,3163,-6404,4219,-1,-1,0
25.24,22.38,-56.67,3164,-6409,4220,0,0,0
25.24,22.38,-56.67,3163,-6409,4211,-1,0,0
25.24,22.38,-56.67,3156,-6415,4209,0,-1,-1
25.24,22.38,-56.67,3155,-6413,4208,0,-1,-1
25.24,22.38,-56.67,3155,-6414,4192,0,-1,-1
25.24,22.38,-56.67,3159,-6415,4202,0,-1,0
25.24,22.38,-56.67,3161,-6415,4212,0,0,0
25.24,22.38,-56.66,3157,-6417,4209,0,0,-1
25.24,22.38,-56.66,3159,-6407,4215,0,-1,-1
25.24,22.39,-56.65,3166,-6404,4219,0,-1,0
25.24,22.39,-56.65,3163,-6405,4224,0,-1,-1
25.24,22.39,-56.65,3159,-6410,4223,-1,-1,-1
25.24,22.39,-56.65,3163,-6413,4213,0,-1,-1
25.25,22.39,-56.65,3161,-6409,4210,0,0,-1
25.25,22.39,-56.64,3156,-6394,4215,0,0,0
25.25,22.39,-56.64,3155,-6398,4221,-1,-1,0
25.24,22.38,-56.65,3149,-6402,4219,-1,-1,-1
25.24,22.39,-56.65,3148,-6409,4217,0,0,-1
25.25,22.39,-56.65,3159,-6409,4225,-1,0,-1
25.25,22.39,-56.65,3168,-6407,4225,-1,0,-1
25.25,22.39,-56.65,3173,-6407,4239,-1,0,0
25.24,22.38,-56.65,3166,-6409,4220,-1,0,0
25.24,22.37,-56.65,3167,-6402,4228,-1,0,0
25.23,22.36,-56.66,3157,-6405,4217,-1,0,0
25.22,22.35,-56.68,3151,-6418,4205,-1,-1,0
25.20,22.34,-56.69,3146,-6415,4203,-1,-1,0
25.20,22.34,-56.71,3138,-6418,4192,-1,-1,0
25.20,22.34,-56.71,3140,-6421,4194,0,-1,-1
25.20,22.35,-56.71,3148,-6431,4204,-1,-1,-1
25.21,22.35,-56.70,3156,-6430,4207,0,0,-1
25.20,22.34,-56.69,3153,-6410,4224,0,0,0
25.21,22.35,-56.69,3168,-6396,4222,-1,-1,0
25.20,22.34,-56.69,3158,-6394,4215,-1,0,0
25.20,22.34,-56.70,3158,-6409,4211,0,0,-1
25.21,22.35,-56.69,3153,-6406,4221,0,-1,-1
25.21,22.35,-56.69,3153,-6412,4220,0,0,-1
25.22,22.35,-56.68,3150,-6416,4212,0,0,-1
25.23,22.36,-56.68,3155,-6415,4218,0,0,-1
25.23,22.36,-56.68,3158,-6411,4214,-1,-1,-1
25.23,22.36,-56.68,3157,-6417,4208,-1,0,-1
25.23,22.36,-56.69,3154,-6420,4200,0,0,-1
25.23,22.36,-56.68,3156,-6422,4209,0,0,-1
25.23,22.36,-56.68,3160,-6425,4216,0,0,0
25.22,22.35,-56.67,3148,-6415,4212,0,0,-1
25.23,22.35,-56.66,3154,-6401,4217,0,0,-1
25.23,22.35,-56.66,3152,-6393,4222,-1,0,0
25.23,22.35,-56.66,3157,-6404,4212,-1,0,0
25.23,22.35,-56.67,3162,-6413,4222,-1,0,0
25.23,22.34,-56.67,3159,-6413,4222,-1,0,0
25.23,22.34,-56.67,3152,-6419,4212,-1,0,0
25.23,22.33,-56.68,3145,-6419,4207,-1,0,-1
25.23,22.33,-56.68,3151,-6423,4207,-1,0,-1
25.23,22.33,-56.68,3156,-6418,4207,0,0,0
25.23,22.33,-56.68,3166,-6421,4212,-1,0,0
25.23,22.32,-56.68,3149,-6423,4216,-1,0,0
25.23,22.32,-56.68,3150,-6421,4211,-1,0,0
25.23,22.31,-56.68,3151,-6415,4211,-1,0,0
25.22,22.30,-56.68,3144,-6410,4210,-1,0,0
25.23,22.30,-56.68,3142,-6408,4207,-1,0,0
25.22,22.29,-56.69,3148,-6403,4219,-1,0,0
25.22,22.29,-56.70,3155,-6413,4222,-1,0,0
25.22,22.29,-56.70,3149,-6421,4217,-1,0,0
25.22,22.28,-56.71,3156,-6421,4210,-1,0,-1
25.22,22.28,-56.71,3157,-6419,4201,-1,0,0
25.22,22.27,-56.72,3146,-6411,4203,-1,0,0
25.21,22.26,-56.73,3134,-6419,4203,-1,0,0
25.21,22.25,-56.73,3143,-6424,4200,-1,0,0
25.21,22.25,-56.74,3134,-6428,4203,-1,0,0
25.21,22.25,-56.74,3137,-6424,4216,-1,0,-1
25.21,22.24,-56.74,3135,-6416,4207,-1,0,0
25.21,22.24,-56.75,3151,-6407,4213,-1,0,0
25.21,22.24,-56.75,3163,-6404,4213,-1,0,0
25.20,22.22,-56.76,3153,-6416,4212,-1,0,0
25.21,22.22,-56.77,3149,-6427,4211,-1,0,0
25.20,22.21,-56.78,3144,-6441,4200,-1,0,0
25.20,22.20,-56.79,3130,-6438,4193,-1,0,0
25.19,22.19,-56.79,3128,-6430,4196,-1,0,-1
25.20,22.19,-56.79,3132,-6434,4205,-1,0,-1
25.20,22.19,-56.79,3135,-6429,4205,-1,0,0
25.20,22.19,-56.78,3145,-6426,4205,-1,0,0
25.20,22.18,-56.79,3144,-6414,4202,-1,0,0
25.20,22.17,-56.80,3134,-6422,4206,-1,0,0
25.19,22.17,-56.81,3127,-6421,4199,-1,0,0
25.19,22.16,-56.81,3133,-6422,4200,-1,0,0
25.19,22.15,-56.82,3125,-6430,4198,-1,0,0
25.19,22.15,-56.83,3123,-6433,4201,-1,0,0
25.19,22.14,-56.84,3127,-6439,4207,-1,0,0
25.20,22.14,-56.85,3127,-6434,4206,-1,0,0
25.19,22.14,-56.88,3120,-6444,4198,-1,-1,0
25.19,22.13,-56.88,3115,-6455,4192,-1,0,0
25.19,22.13,-56.89,3115,-6450,4182,-1,0,-1
25.19,22.13,-56.89,3109,-6444,4184,0,0,-1
25.19,22.12,-56.88,3111,-6434,4198,0,0,-1
25.19,22.12,-56.88,3118,-6431,4200,0,-1,-1
25.19,22.12,-56.88,3117,-6426,4205,-1,-1,0
25.19,22.13,-56.88,3122,-6424,4191,-1,-1,-1
25.19,22.13,-56.88,3129,-6429,4207,0,-1,-1
25.19,22.14,-56.88,3122,-6438,4200,-1,-1,-1
25.19,22.13,-56.88,3115,-6448,4191,0,-1,-1
25.19,22.14,-56.88,3115,-6446,4190,0,-1,-1
25.20,22.15,-56.88,3125,-6445,4188,0,-1,-1
25.21,22.16,-56.88,3130,-6444,4193,0,-1,-1
25.20,22.16,-56.87,3129,-6440,4198,0,-1,-1
25.21,22.17,-56.86,3126,-6441,4193,0,-1,0
25.21,22.18,-56.85,3128,-6440,4191,0,-1,-1
25.21,22.18,-56.85,3129,-6435,4201,0,-1,-1
25.22,22.19,-56.84,3136,-6426,4203,0,-1,-1
25.22,22.19,-56.84,3137,-6426,4209,0,-1,-1
25.22,22.20,-56.83,3137,-6429,4206,0,-1,-1
25.22,22.21,-56.83,3139,-6433,4201,0,-1,-1
25.23,22.22,-56.83,3145,-6426,4218,0,-1,-1
25.23,22.22,-56.83,3139,-6425,4217,0,-1,-1
25.23,22.22,-56.83,3146,-6434,4206,0,-1,-1
25.23,22.23,-56.83,3145,-6437,4199,0,-1,0
25.23,22.23,-56.83,3140,-6426,4205,0,-1,0
25.22,22.22,-56.83,3144,-6426,4201,0,-1,0
25.22,22.22,-56.83,3128,-6428,4195,-1,-1,0
25.21,22.22,-56.84,3129,-6433,4189,0,-1,0
25.21,22.23,-56.84,3130,-6434,4191,0,-1,0
25.21,22.23,-56.84,3148,-6433,4181,0,-1,-1
25.21,22.24,-56.83,3158,-6424,4199,0,-1,0
25.22,22.25,-56.83,3153,-6417,4197,0,-1,0
25.21,22.24,-56.83,3146,-6418,4192,0,-1,0
25.21,22.24,-56.82,3136,-6410,4204,-1,-1,0
25.21,22.25,-56.83,3138,-6425,4197,-1,-1,0
25.21,22.25,-56.83,3138,-6433,4193,0,-1,0
25.21,22.26,-56.83,3137,-6436,4198,0,-1,-1
25.21,22.26,-56.82,3127,-6431,4194,0,-1,-1
25.22,22.27,-56.82,3137,-6422,4202,0,-1,-1
25.22,22.27,-56.81,3145,-6424,4208,0,-1,-1
25.22,22.27,-56.80,3141,-6422,4204,0,-1,-1
25.22,22.28,-56.80,3151,-6426,4199,0,-1,0
25.22,22.29,-56.80,3153,-6430,4201,0,-1,0
25.22,22.28,-56.80,3157,-6427,4204,0,-1,0
25.22,22.29,-56.80,3157,-6432,4206,0,-1,0
25.22,22.29,-56.80,3148,-6430,4202,0,-1,0
25.22,22.29,-56.81,3153,-6435,4189,0,-1,0
25.22,22.30,-56.80,3149,-6424,4200,0,-1,-1
25.22,22.30,-56.80,3153,-6425,4201,0,-1,0
25.22,22.30,-56.79,3152,-6422,4190,0,-1,-1
25.22,22.31,-56.79,3156,-6427,4191,0,-1,-1
25.23,22.31,-56.78,3156,-6431,4197,0,-1,-1
25.23,22.32,-56.77,3152,-6416,4201,0,-1,-1
25.23,22.32,-56.77,3146,-6407,4201,0,-1,0
25.23,22.33,-56.76,3144,-6404,4194,0,-1,-1
25.24,22.33,-56.76,3162,-6409,4206,-1,-1,0
25.23,22.33,-56.76,3159,-6424,4211,0,-1,-1
25.24,22.34,-56.76,3160,-6426,4205,0,-1,-1
25.23,22.34,-56.76,3151,-6422,4198,0,0,0
25.23,22.34,-56.76,3151,-6419,4205,0,-1,0
25.24,22.34,-56.75,3156,-6424,4210,0,-1,0
25.24,22.34,-56.75,3163,-6423,4205,0,-1,0
25.24,22.34,-56.75,3160,-6425,4207,0,0,0
25.23,22.34,-56.75,3160,-6424,4207,0,-1,0
25.23,22.34,-56.74,3159,-6410,4211,0,-1,-1
25.23,22.34,-56.73,3148,-6409,4213,0,-1,0
25.23,22.34,-56.72,3149,-6400,4205,0,-1,0
25.23,22.34,-56.72,3158,-6397,4218,-1,0,0
25.23,22.34,-56.72,3158,-6409,4213,-1,-1,0
25.23,22.35,-56.72,3165,-6419,4214,-1,-1,-1
25.23,22.35,-56.72,3158,-6423,4212,0,-1,-1
25.23,22.35,-56.71,3147,-6420,4205,0,0,0
25.23,22.35,-56.71,3149,-6418,4209,0,-1,0
25.23,22.34,-56.72,3144,-6422,4211,0,-1,0
25.23,22.34,-56.72,3142,-6428,4211,0,-1,-1
25.23,22.35,-56.71,3147,-6417,4209,0,-1,-1
25.23,22.35,-56.70,3159,-6409,4216,0,-1,-1
25.23,22.35,-56.69,3165,-6404,4225,0,0,-1
25.24,22.36,-56.69,3168,-6406,4214,0,0,0
25.23,22.35,-56.68,3167,-6404,4225,0,-1,0
25.23,22.35,-56.68,3159,-6410,4225,0,-1,0
25.23,22.35,-56.68,3155,-6413,4223,-1,-1,0
25.23,22.36,-56.69,3156,-6422,4211,0,-1,-1
25.23,22.36,-56.69,3156,-6419,4203,0,-1,0
25.23,22.36,-56.69,3159,-6432,4203,0,-1,-1
25.23,22.36,-56.68,3160,-6424,4209,0,0,-1
25.23,22.35,-56.67,3158,-6421,4211,0,0,-1
25.23,22.35,-56.67,3155,-6410,4210,0,-1,0
25.23,22.36,-56.67,3159,-6407,4222,0,-1,0
25.23,22.36,-56.66,3161,-6407,4215,0,0,0
25.24,22.36,-56.66,3158,-6397,4212,0,0,0
25.24,22.36,-56.66,3160,-6405,4214,0,-1,-1
25.24,22.36,-56.66,3158,-6406,4211,-1,0,-1
25.24,22.36,-56.66,3158,-6403,4211,-1,0,0
25.24,22.36,-56.67,3156,-6404,4208,-1,-1,0
25.23,22.35,-56.67,3151,-6413,4209,-1,-1,0
25.22,22.35,-56.68,3152,-6427,4201,0,-1,0
25.22,22.35,-56.68,3145,-6427,4206,0,0,0
25.22,22.34,-56.68,3145,-6417,4207,0,0,0
25.22,22.34,-56.67,3145,-6407,4220,0,-1,0
25.21,22.34,-56.67,3160,-6412,4206,0,-1,0
25.21,22.34,-56.66,3163,-6402,4220,0,-1,0
25.21,22.34,-56.65,3153,-6405,4230,0,0,0
25.20,22.33,-56.66,3141,-6402,4224,-1,-1,0
25.19,22.32,-56.66,3145,-6404,4220,-1,-1,0
25.20,22.33,-56.67,3153,-6413,4216,-1,-1,0
25.20,22.33,-56.67,3157,-6418,4209,0,-1,-1
25.20,22.33,-56.67,3147,-6419,4209,0,-1,-1
25.19,22.33,-56.67,3144,-6413,4218,0,-1,-1
25.19,22.33,-56.67,3148,-6406,4216,0,-1,-1
25.19,22.33,-56.67,3154,-6411,4216,0,0,0
25.20,22.33,-56.65,3156,-6408,4210,0,0,-1
25.20,22.33,-56.65,3159,-6416,4218,0,0,-1
25.20,22.33,-56.65,3154,-6416,4215,0,0,-1
25.20,22.34,-56.65,3161,-6417,4213,0,0,-1
25.21,22.33,-56.64,3160,-6415,4221,0,0,-1
25.20,22.33,-56.63,3160,-6407,4230,-1,0,0
25.20,22.32,-56.63,3153,-6393,4229,-1,0,0
25.20,22.32,-56.64,3155,-6402,4226,-1,0,0
25.19,22.31,-56.65,3144,-6414,4221,-1,0,0
25.19,22.31,-56.66,3146,-6424,4218,-1,0,0
25.20,22.31,-56.66,3151,-6416,4230,-1,0,-1
25.20,22.31,-56.66,3161,-6417,4221,-1,0,-1
25.20,22.31,-56.66,3161,-6412,4210,0,0,0
25.20,22.30,-56.66,3154,-6407,4222,-1,0,0
25.20,22.30,-56.67,3152,-6412,4214,-1,0,0
25.19,22.29,-56.68,3146,-6421,4203,-1,0,-1
25.20,22.29,-56.69,3149,-6431,4205,-1,0,0
25.19,22.28,-56.69,3146,-6429,4201,-1,0,-1
25.20,22.28,-56.68,3137,-6427,4209,-1,0,-1
25.20,22.28,-56.68,3139,-6421,4210,-1,0,0
25.20,22.28,-56.68,3145,-6417,4220,0,0,-1
25.20,22.28,-56.67,3148,-6406,4220,0,0,-1
25.20,22.28,-56.68,3143,-6407,4219,-1,0,0
25.20,22.27,-56.68,3137,-6410,4223,-1,0,0
25.20,22.26,-56.68,3136,-6410,4219,-1,0,0
25.20,22.26,-56.69,3132,-6416,4216,-1,0,-1
25.20,22.26,-56.69,3146,-6418,4214,-1,0,-1
25.20,22.26,-56.69,3144,-6422,4215,-1,0,0
25.20,22.25,-56.69,3139,-6421,4224,-1,0,0
25.20,22.25,-56.70,3142,-6422,4219,-1,0,-1
25.20,22.25,-56.70,3145,-6425,4220,-1,0,0
25.20,22.24,-56.71,3148,-6424,4213,-1,0,0
25.20,22.23,-56.71,3150,-6426,4212,-1,0,0
25.19,22.22,-56.71,3140,-6419,4204,-1,0,0
25.19,22.22,-56.71,3141,-6420,4205,-1,0,0
25.19,22.21,-56.71,3136,-6411,4216,-1,0,0
25.19,22.20,-56.73,3134,-6414,4207,-1,0,0
25.19,22.20,-56.72,3142,-6412,4214,-1,0,0
25.18,22.19,-56.74,3140,-6423,4206,-1,0,0
25.18,22.18,-56.76,3130,-6428,4206,-1,0,0
25.18,22.17,-56.77,3123,-6428,4205,-1,0,0
25.17,22.16,-56.78,3130,-6434,4196,-1,0,0
25.17,22.15,-56.78,3125,-6432,4206,-1,0,-1
25.17,22.15,-56.80,3121,-6439,4192,-1,0,0
25.17,22.15,-56.80,3127,-6436,4185,-1,0,0
25.16,22.13,-56.81,3124,-6432,4191,-1,0,0
25.16,22.13,-56.81,3123,-6434,4199,-1,0,0
25.17,22.13,-56.82,3131,-6432,4199,-1,0,0
25.16,22.12,-56.82,3125,-6430,4204,-1,0,-1
25.16,22.12,-56.82,3134,-6433,4196,-1,0,0
25.17,22.11,-56.82,3127,-6433,4203,-1,0,0
25.16,22.10,-56.83,3124,-6423,4214,-1,0,0
25.16,22.10,-56.84,3129,-6430,4214,-1,0,0
25.16,22.10,-56.85,3132,-6439,4210,-1,0,0
25.16,22.09,-56.87,3132,-6443,4204,-1,0,0
25.15,22.08,-56.88,3123,-6446,4197,-1,0,0
25.15,22.07,-56.89,3118,-6434,4205,-1,0,0
25.14,22.06,-56.91,3106,-6448,4195,-1,0,0
25.14,22.06,-56.92,3107,-6451,4202,-1,0,0
25.13,22.05,-56.93,3107,-6458,4200,-1,0,0
25.13,22.04,-56.94,3114,-6461,4203,-1,0,-1
25.13,22.05,-56.94,3126,-6449,4200,0,0,0
25.13,22.04,-56.94,3123,-6437,4195,-1,0,0
25.14,22.04,-56.94,3123,-6436,4193,-1,0,0
25.13,22.05,-56.94,3110,-6440,4194,-1,-1,-1
25.13,22.05,-56.94,3109,-6449,4193,-1,-1,0
25.14,22.05,-56.95,3102,-6451,4193,-1,-1,-1
25.14,22.05,-56.95,3101,-6457,4188,0,-1,-1
25.14,22.05,-56.94,3101,-6454,4193,0,-1,-1
25.14,22.06,-56.94,3104,-6455,4180,0,-1,-1
25.15,22.07,-56.94,3124,-6457,4180,0,-1,-1
25.16,22.08,-56.93,3126,-6455,4184,0,-1,-1
25.16,22.08,-56.92,3122,-6439,4192,0,-1,-1
25.17,22.10,-56.91,3125,-6440,4203,0,-1,-1
25.17,22.10,-56.91,3118,-6438,4189,0,-1,-1
25.18,22.11,-56.90,3115,-6429,4192,0,-1,-1
25.18,22.12,-56.90,3124,-6430,4190,0,-1,-1
25.19,22.13,-56.89,3125,-6439,4191,0,-1,-1
25.19,22.13,-56.89,3123,-6438,4202,0,-1,-1
25.19,22.14,-56.89,3128,-6430,4206,-1,-1,-1
25.19,22.14,-56.90,3131,-6445,4192,-1,-1,-1
25.19,22.15,-56.90,3140,-6455,4176,0,-1,-1
25.20,22.16,-56.90,3124,-6459,4186,0,-1,-1
25.19,22.16,-56.88,3121,-6448,4194,0,-1,-1
25.20,22.17,-56.87,3121,-6437,4198,0,-1,-1
25.21,22.18,-56.87,3127,-6431,4196,0,-1,-1
25.21,22.19,-56.86,3137,-6421,4199,0,-1,-1
25.21,22.20,-56.85,3138,-6426,4203,0,-1,-1
25.21,22.20,-56.85,3149,-6422,4210,0,-1,0
25.22,22.21,-56.85,3135,-6427,4203,-1,-1,0
25.21,22.21,-56.85,3127,-6426,4198,0,-1,-1
25.22,22.22,-56.85,3127,-6431,4194,0,-1,-1
25.22,22.22,-56.85,3135,-6430,4200,-1,-1,0
25.23,22.23,-56.86,3139,-6441,4189,0,-1,-1
25.23,22.24,-56.85,3152,-6435,4196,0,-1,-1
25.23,22.24,-56.85,3143,-6439,4190,-1,-1,-1
25.22,22.24,-56.85,3141,-6439,4190,0,-1,0
25.22,22.24,-56.85,3139,-6441,4186,0,-1,0
25.22,22.25,-56.84,3127,-6444,4192,0,-1,-1
25.21,22.24,-56.83,3126,-6430,4205,0,-1,-1
25.23,22.27,-56.82,3151,-6428,4196,0,-1,-1
25.23,22.28,-56.81,3147,-6413,4206,0,-1,-1
25.23,22.28,-56.81,3147,-6413,4213,0,-1,-1
25.23,22.28,-56.81,3149,-6419,4212,-1,-1,-1
25.23,22.29,-56.81,3151,-6426,4195,0,-1,-1
25.23,22.29,-56.81,3149,-6432,4201,0,-1,0
25.23,22.29,-56.80,3142,-6428,4205,0,-1,0
25.23,22.30,-56.79,3132,-6424,4209,0,-1,-1
25.23,22.30,-56.79,3127,-6434,4201,0,-1,-1
25.23,22.30,-56.78,3135,-6428,4212,0,-1,-1
25.23,22.31,-56.77,3144,-6413,4208,0,-1,-1
25.24,22.31,-56.76,3168,-6407,4210,0,-1,-1
25.24,22.32,-56.76,3161,-6413,4214,0,-1,0
25.24,22.32,-56.75,3164,-6406,4211,0,-1,0
25.24,22.32,-56.75,3158,-6411,4195,0,-1,0
25.24,22.33,-56.75,3149,-6413,4206,0,-1,-1
25.24,22.33,-56.75,3146,-6426,4209,0,-1,-1
25.23,22.33,-56.75,3143,-6426,4206,-1,-1,0
25.24,22.34,-56.75,3156,-6437,4210,0,-1,-1
25.24,22.34,-56.74,3158,-6427,4200,0,0,-1
25.24,22.34,-56.73,3153,-6425,4191,0,0,-1
25.24,22.34,-56.71,3150,-6409,4204,0,-1,-1
25.25,22.35,-56.69,3153,-6403,4212,0,-1,-1
25.25,22.35,-56.68,3157,-6404,4219,0,-1,0
25.25,22.36,-56.67,3162,-6406,4216,0,-1,0
25.25,22.36,-56.66,3151,-6409,4220,0,-1,0
25.25,22.36,-56.66,3152,-6399,4222,0,-1,0
25.25,22.36,-56.66,3155,-6399,4220,0,-1,-1
25.25,22.37,-56.66,3160,-6404,4217,0,-1,0
25.25,22.37,-56.65,3165,-6409,4210,0,-1,-1
25.25,22.37,-56.65,3160,-6416,4208,0,-1,-1
25.25,22.37,-56.65,3152,-6420,4200,0,-1,0
25.25,22.37,-56.64,3149,-6414,4202,0,-1,-1
25.25,22.38,-56.63,3153,-6409,4209,0,-1,-1
25.25,22.38,-56.62,3161,-6413,4205,0,-1,-1
25.25,22.38,-56.61,3160,-6402,4211,0,-1,0
25.25,22.38,-56.60,3162,-6397,4206,0,-1,0
25.25,22.39,-56.60,3161,-6402,4219,0,-1,0
25.25,22.39,-56.60,3155,-6397,4223,-1,-1,0
25.25,22.39,-56.60,3156,-6401,4223,-1,-1,0
25.25,22.39,-56.60,3155,-6401,4221,-1,-1,-1
25.25,22.39,-56.61,3154,-6415,4217,-1,-1,-1
25.25,22.40,-56.61,3155,-6421,4212,0,-1,-1
25.25,22.40,-56.61,3157,-6419,4214,0,-1,-1
25.25,22.39,-56.60,3155,-6415,4204,0,0,-1
25.25,22.40,-56.59,3159,-6410,4218,0,0,0
25.25,22.40,-56.59,3160,-6404,4217,0,-1,-1
25.25,22.40,-56.58,3166,-6399,4216,0,-1,0
25.25,22.40,-56.58,3160,-6409,4215,0,0,-1
25.25,22.40,-56.57,3166,-6406,4231,-1,0,0
25.24,22.39,-56.58,3159,-6414,4213,-1,0,0
25.24,22.39,-56.58,3164,-6408,4220,0,0,-1
25.25,22.39,-56.58,3161,-6406,4224,-1,0,0
25.24,22.38,-56.58,3156,-6401,4216,-1,0,0
25.24,22.38,-56.58,3150,-6397,4225,-1,0,0
25.23,22.37,-56.59,3149,-6409,4213,-1,-1,0
25.23,22.37,-56.59,3158,-6412,4220,0,0,-1
25.23,22.37,-56.59,3157,-6419,4222,0,0,0
25.23,22.37,-56.59,3161,-6403,4226,0,-1,0
25.23,22.37,-56.59,3168,-6395,4217,-1,-1,0
25.23,22.37,-56.59,3169,-6390,4215,0,0,0
25.23,22.38,-56.59,3171,-6389,4215,-1,-1,0
25.22,22.37,-56.60,3151,-6400,4218,-1,0,0
25.22,22.37,-56.60,3140,-6415,4215,-1,0,0
25.22,22.36,-56.61,3134,-6426,4205,0,0,-1
25.22,22.36,-56.61,3144,-6425,4207,-1,-1,-1
25.22,22.36,-56.61,3153,-6421,4213,0,0,-1
25.22,22.36,-56.60,3160,-6404,4225,0,0,0
25.22,22.36,-56.60,3164,-6400,4229,-1,0,0
25.21,22.35,-56.60,3160,-6405,4228,-1,0,0
25.21,22.35,-56.60,3157,-6405,4236,-1,0,0
25.21,22.34,-56.60,3147,-6402,4220,-1,0,-1
25.21,22.34,-56.60,3151,-6397,4225,-1,-1,-1
25.22,22.34,-56.60,3156,-6398,4229,-1,0,0
25.21,22.34,-56.61,3160,-6404,4225,-1,0,-1
25.22,22.34,-56.62,3165,-6411,4237,-1,0,0
25.22,22.33,-56.62,3159,-6423,4237,-1,0,0
25.21,22.32,-56.63,3145,-6433,4223,-1,0,0
25.21,22.32,-56.63,3141,-6434,4212,-1,0,-1
25.21,22.31,-56.63,3144,-6432,4209,0,0,-1
25.22,22.32,-56.63,3149,-6429,4208,0,0,-1
25.22,22.31,-56.62,3150,-6420,4216,0,0,-1
25.21,22.31,-56.62,3148,-6419,4221,0,0,0
25.21,22.30,-56.62,3153,-6416,4223,-1,0,0
25.21,22.30,-56.62,3148,-6405,4225,-1,0,0
25.21,22.30,-56.63,3150,-6412,4224,-1,0,0
25.21,22.29,-56.63,3152,-6416,4212,-1,0,-1
25.21,22.29,-56.64,3146,-6419,4212,-1,0,-1
25.21,22.29,-56.66,3153,-6423,4213,-1,0,0
25.20,22.28,-56.67,3149,-6423,4213,-1,0,0
25.20,22.27,-56.67,3142,-6431,4215,-1,0,0
25.20,22.27,-56.67,3145,-6425,4216,-1,0,0
25.19,22.25,-56.68,3144,-6420,4213,-1,0,0
25.19,22.25,-56.68,3150,-6427,4201,-1,0,0
25.20,22.25,-56.69,3141,-6421,4212,-1,0,-1
25.19,22.24,-56.68,3137,-6422,4219,0,0,-1
25.20,22.24,-56.68,3139,-6408,4217,-1,0,0
25.19,22.23,-56.69,3134,-6406,4215,-1,0,0
25.19,22.22,-56.70,3137,-6414,4212,-1,0,0
25.19,22.22,-56.71,3148,-6422,4217,-1,0,0
25.19,22.22,-56.71,3146,-6428,4217,-1,0,-1
25.19,22.21,-56.71,3144,-6434,4212,-1,0,-1
25.19,22.21,-56.71,3137,-6427,4213,-1,0,0
25.19,22.20,-56.72,3143,-6417,4214,-1,0,0
25.18,22.19,-56.72,3135,-6418,4215,-1,0,0
25.18,22.19,-56.73,3134,-6434,4219,-1,0,0
25.18,22.18,-56.73,3132,-6435,4221,-1,0,0
25.17,22.17,-56.75,3121,-6441,4207,-1,0,0
25.16,22.16,-56.76,3118,-6437,4209,-1,0,0
25.16,22.15,-56.76,3123,-6435,4202,-1,0,-1
25.16,22.15,-56.76,3123,-6432,4206,-1,0,0
25.16,22.14,-56.77,3131,-6430,4208,-1,0,0
25.16,22.14,-56.77,3127,-6434,4212,-1,0,0
25.16,22.13,-56.78,3127,-6433,4217,-1,0,0
25.15,22.12,-56.78,3129,-6429,4215,-1,0,0
25.16,22.12,-56.79,3135,-6431,4210,-1,0,0
25.16,22.12,-56.80,3134,-6429,4215,-1,0,0
25.15,22.11,-56.81,3123,-6424,4223,-1,0,0
25.15,22.11,-56.82,3126,-6430,4213,-1,0,0
25.15,22.10,-56.82,3121,-6434,4223,-1,0,0
25.15,22.11,-56.84,3124,-6436,4206,-1,0,0
25.15,22.10,-56.85,3124,-6437,4195,-1,0,0
25.14,22.10,-56.85,3131,-6443,4188,-1,0,0
25.15,22.09,-56.85,3132,-6452,4198,-1,0,0
25.15,22.09,-56.86,3125,-6450,4186,0,0,0
25.14,22.08,-56.86,3119,-6437,4194,-1,0,0
25.14,22.08,-56.86,3119,-6441,4194,-1,0,0
25.14,22.07,-56.87,3125,-6444,4187,-1,0,0
25.13,22.07,-56.87,3123,-6440,4197,-1,0,0
25.13,22.06,-56.87,3109,-6446,4201,-1,-1,0
25.13,22.06,-56.87,3110,-6442,4194,-1,-1,0
25.13,22.06,-56.87,3109,-6439,4205,0,-1,-1
25.12,22.06,-56.87,3103,-6439,4196,-1,-1,-1
25.12,22.07,-56.88,3118,-6439,4204,0,0,-1
25.12,22.07,-56.88,3114,-6439,4210,-1,-1,0
25.12,22.07,-56.89,3113,-6447,4194,0,-1,-1
25.12,22.08,-56.89,3117,-6444,4183,0,-1,-1
25.12,22.08,-56.88,3106,-6444,4184,0,-1,-1
25.13,22.09,-56.88,3120,-6439,4191,0,-1,-1
25.14,22.11,-56.88,3120,-6435,4207,0,-1,-1
25.14,22.12,-56.88,3122,-6445,4199,0,-1,-1
25.15,22.13,-56.87,3129,-6446,4196,0,-1,-1
25.15,22.14,-56.86,3123,-6438,4195,0,-1,-1
25.15,22.15,-56.86,3127,-6434,4191,0,-1,-1
25.16,22.16,-56.85,3134,-6425,4200,0,-1,-1
25.16,22.17,-56.85,3123,-6433,4188,0,-1,-1
25.17,22.18,-56.85,3129,-6444,4193,0,-1,-1
25.18,22.19,-56.84,3124,-6452,4188,0,-1,-1
25.18,22.20,-56.83,3129,-6441,4191,0,-1,-1
25.19,22.21,-56.82,3144,-6425,4198,0,-1,-1
25.20,22.23,-56.81,3151,-6427,4198,0,-1,-1
25.19,22.24,-56.80,3147,-6424,4209,0,-1,0
25.19,22.24,-56.79,3147,-6434,4209,0,-1,0
25.20,22.25,-56.79,3144,-6431,4207,0,-1,-1
25.19,22.25,-56.79,3127,-6442,4192,0,-1,-1
25.19,22.25,-56.79,3130,-6443,4200,0,-1,-1
25.19,22.26,-56.79,3129,-6440,4208,0,-1,-1
25.19,22.26,-56.78,3142,-6428,4208,0,-1,0
25.19,22.26,-56.78,3142,-6422,4205,0,-1,0
25.20,22.27,-56.77,3145,-6424,4198,0,-1,0
25.19,22.28,-56.78,3138,-6426,4193,0,-1,0
25.19,22.28,-56.77,3135,-6420,4197,0,-1,-1
25.19,22.28,-56.76,3133,-6423,4202,0,-1,0
25.19,22.28,-56.75,3133,-6422,4205,0,-1,-1
25.19,22.29,-56.75,3141,-6422,4216,0,-1,-1
25.19,22.29,-56.75,3146,-6417,4213,0,-1,0
25.19,22.30,-56.75,3146,-6424,4214,0,-1,0
25.19,22.30,-56.75,3146,-6424,4216,0,-1,-1
25.19,22.30,-56.74,3147,-6420,4217,0,-1,0
25.19,22.30,-56.74,3145,-6417,4207,0,-1,-1
25.19,22.31,-56.74,3146,-6420,4207,0,-1,-1
25.19,22.31,-56.73,3141,-6419,4206,0,-1,-1
25.19,22.31,-56.72,3147,-6423,4205,0,-1,-1
25.19,22.32,-56.71,3160,-6419,4211,0,-1,0
25.20,22.32,-56.70,3156,-6417,4213,0,-1,0
25.19,22.32,-56.70,3150,-6418,4217,0,-1,0
25.19,22.33,-56.70,3147,-6422,4216,0,-1,0
25.19,22.33,-56.70,3158,-6419,4220,0,-1,-1
25.19,22.34,-56.70,3150,-6420,4208,0,-1,-1
25.20,22.34,-56.69,3158,-6422,4207,0,-1,0
25.19,22.34,-56.69,3157,-6422,4213,0,0,-1
25.19,22.34,-56.68,3157,-6422,4205,0,-1,0
25.19,22.34,-56.67,3150,-6423,4217,0,-1,-1
25.19,22.34,-56.67,3161,-6422,4210,0,-1,-1
25.19,22.34,-56.67,3157,-6416,4209,0,0,0
25.19,22.35,-56.66,3150,-6410,4208,0,-1,0
25.19,22.35,-56.65,3152,-6405,4215,0,-1,0
25.19,22.35,-56.65,3150,-6414,4213,0,-1,0
25.19,22.35,-56.65,3150,-6415,4208,0,-1,-1
25.19,22.35,-56.65,3153,-6415,4211,0,-1,0
25.19,22.35,-56.65,3156,-6413,4219,0,-1,0
25.19,22.35,-56.64,3154,-6410,4219,0,-1,0
25.19,22.35,-56.63,3148,-6411,4222,0,-1,0
25.18,22.35,-56.63,3151,-6418,4219,0,-1,-1
25.18,22.36,-56.63,3154,-6418,4219,0,-1,-1
25.19,22.36,-56.62,3164,-6418,4212,0,-1,-1
25.19,22.37,-56.62,3164,-6408,4205,0,0,-1
25.19,22.37,-56.61,3165,-6394,4206,0,-1,0
25.19,22.37,-56.61,3165,-6390,4212,-1,-1,0
25.19,22.37,-56.61,3160,-6400,4217,0,-1,0
25.18,22.37,-56.61,3152,-6412,4218,-1,-1,0
25.18,22.37,-56.61,3159,-6420,4208,0,-1,-1
25.18,22.37,-56.61,3148,-6427,4204,0,0,-1
