Yaw,Pitch,Roll,AX,AY,AZ,GX,GY,GZ
21.86,12.13,-44.36,1741,-5657,5800,0,-1,0
21.85,12.13,-44.35,1739,-5649,5798,0,-1,0
21.85,12.14,-44.34,1744,-5656,5804,0,-1,0
21.85,12.14,-44.33,1743,-5655,5812,0,-1,0
21.84,12.14,-44.33,1752,-5654,5806,0,-1,0
21.84,12.14,-44.32,1750,-5654,5796,0,-1,0
21.84,12.14,-44.30,1750,-5651,5794,0,0,0
21.84,12.15,-44.29,1750,-5659,5801,0,-1,0
21.84,12.15,-44.29,1751,-5656,5806,0,-1,0
21.83,12.15,-44.28,1738,-5659,5800,0,-1,0
21.83,12.15,-44.27,1742,-5661,5796,0,-1,0
21.84,12.16,-44.26,1754,-5657,5785,0,0,0
21.84,12.15,-44.25,1754,-5652,5783,0,0,0
21.83,12.14,-44.23,1742,-5642,5816,0,-1,0
21.83,12.14,-44.23,1746,-5654,5818,0,-1,-1
21.83,12.14,-44.22,1748,-5649,5824,0,0,0
21.83,12.13,-44.23,1743,-5648,5803,-1,0,0
21.83,12.14,-44.23,1739,-5644,5802,-1,0,0
21.83,12.13,-44.24,1738,-5656,5802,-1,0,-1
21.83,12.13,-44.25,1739,-5663,5807,-1,0,-1
21.83,12.12,-44.25,1734,-5663,5814,-1,-1,-1
21.83,12.13,-44.26,1737,-5657,5813,-1,0,-1
21.83,12.12,-44.26,1737,-5650,5802,-1,0,-1
21.84,12.12,-44.26,1743,-5644,5809,-1,0,-1
21.84,12.12,-44.26,1754,-5637,5805,-1,0,-1
21.85,12.12,-44.26,1747,-5650,5806,-1,0,-1
21.85,12.11,-44.27,1742,-5660,5807,-1,0,-1
21.84,12.10,-44.27,1738,-5667,5809,-1,0,-1
21.85,12.10,-44.28,1731,-5662,5804,-1,0,-1
21.85,12.10,-44.29,1724,-5651,5796,-1,0,-1
21.86,12.10,-44.30,1724,-5652,5799,-1,0,-1
21.86,12.10,-44.30,1737,-5657,5794,-1,0,-1
21.87,12.09,-44.31,1747,-5651,5804,-1,0,-1
21.87,12.09,-44.31,1733,-5647,5800,-1,0,-1
21.87,12.08,-44.32,1736,-5656,5795,-1,0,-1
21.87,12.08,-44.32,1737,-5656,5797,-1,0,-1
21.87,12.07,-44.33,1735,-5660,5801,-1,0,-1
21.88,12.07,-44.34,1729,-5655,5806,-1,0,-1
21.87,12.06,-44.34,1733,-5658,5807,-1,0,-1
21.88,12.06,-44.35,1733,-5658,5809,-1,0,-1
21.88,12.05,-44.36,1732,-5661,5798,-1,0,0
21.88,12.05,-44.37,1737,-5665,5805,-1,0,-1
21.88,12.04,-44.39,1732,-5672,5793,-1,0,-1
21.89,12.04,-44.39,1728,-5680,5786,-1,0,-1
21.89,12.03,-44.39,1725,-5672,5792,-1,0,-1
21.89,12.02,-44.39,1727,-5672,5798,-1,0,-1
21.90,12.02,-44.40,1729,-5671,5801,-1,0,-1
21.90,12.01,-44.40,1728,-5671,5810,-1,0,-1
21.90,12.00,-44.41,1730,-5675,5807,-1,0,-1
21.90,11.99,-44.42,1725,-5670,5803,-1,0,0
21.89,11.98,-44.43,1720,-5677,5808,-1,0,-1
21.89,11.97,-44.44,1715,-5676,5789,-1,0,-1
21.90,11.97,-44.45,1708,-5682,5788,-1,0,-1
21.90,11.96,-44.47,1717,-5682,5786,-1,0,-1
21.90,11.96,-44.48,1716,-5676,5777,-1,0,-1
21.90,11.95,-44.49,1715,-5669,5787,-1,0,-1
21.90,11.94,-44.50,1715,-5676,5783,-1,0,-1
21.90,11.94,-44.52,1720,-5683,5783,-1,0,0
21.91,11.93,-44.53,1716,-5686,5781,-1,0,-1
21.91,11.92,-44.54,1716,-5697,5786,-1,0,-1
21.91,11.91,-44.54,1714,-5695,5782,-1,0,-1
21.91,11.90,-44.55,1710,-5688,5774,-1,0,-1
21.92,11.89,-44.56,1704,-5675,5769,-1,0,-1
21.92,11.88,-44.58,1703,-5679,5771,-1,0,-1
21.92,11.87,-44.59,1701,-5689,5764,-1,0,0
21.92,11.86,-44.60,1699,-5692,5776,-1,0,-1
21.92,11.86,-44.60,1702,-5691,5774,-1,0,-1
21.92,11.85,-44.62,1699,-5685,5772,-1,0,-1
21.92,11.85,-44.63,1700,-5687,5768,-1,0,-1
21.92,11.84,-44.64,1705,-5688,5770,-1,0,-1
21.92,11.84,-44.65,1707,-5700,5768,-1,0,0
21.93,11.84,-44.67,1704,-5706,5766,-1,0,0
21.92,11.83,-44.67,1696,-5707,5767,-1,0,0
21.92,11.83,-44.68,1689,-5716,5756,-1,0,-1
21.92,11.83,-44.68,1690,-5712,5748,-1,0,-1
21.92,11.83,-44.68,1695,-5714,5762,0,-1,-1
21.93,11.85,-44.67,1709,-5699,5770,0,-1,-1
21.93,11.85,-44.66,1711,-5690,5767,0,-1,0
21.93,11.85,-44.66,1711,-5685,5762,-1,0,0
21.93,11.84,-44.66,1701,-5693,5766,0,0,0
21.93,11.84,-44.66,1706,-5692,5784,0,-1,0
21.93,11.84,-44.66,1696,-5702,5782,0,0,-1
21.93,11.84,-44.65,1693,-5706,5783,0,-1,-1
21.93,11.84,-44.65,1693,-5703,5778,0,-1,-1
21.92,11.85,-44.65,1695,-5699,5772,0,-1,-1
21.93,11.86,-44.65,1703,-5697,5767,0,-1,0
21.93,11.86,-44.64,1700,-5692,5775,0,-1,-1
21.93,11.87,-44.64,1703,-5696,5767,0,-1,0
21.93,11.88,-44.63,1709,-5708,5764,0,-1,0
21.93,11.88,-44.62,1707,-5706,5766,0,-1,0
21.93,11.88,-44.61,1701,-5698,5756,0,-1,0
21.93,11.89,-44.60,1700,-5688,5767,0,-1,0
21.93,11.90,-44.59,1701,-5693,5772,0,-1,0
21.93,11.90,-44.58,1714,-5698,5773,0,-1,0
21.93,11.90,-44.58,1713,-5690,5784,0,-1,0
21.92,11.91,-44.57,1714,-5684,5778,0,-1,0
21.93,11.91,-44.57,1713,-5681,5779,0,-1,-1
21.93,11.92,-44.56,1706,-5687,5775,0,-1,-1
21.93,11.93,-44.56,1705,-5696,5776,0,-1,-1
21.93,11.93,-44.56,1707,-5693,5781,0,-1,-1
21.93,11.93,-44.56,1708,-5692,5772,0,-1,0
21.93,11.94,-44.55,1709,-5686,5776,0,-1,0
21.93,11.93,-44.55,1710,-5679,5790,-1,0,0
21.92,11.93,-44.56,1725,-5694,5800,-1,0,0
21.92,11.93,-44.56,1722,-5690,5782,-1,0,0
21.92,11.92,-44.56,1709,-5694,5778,-1,-1,0
21.92,11.92,-44.56,1712,-5681,5786,-1,0,0
21.92,11.90,-44.57,1702,-5664,5783,-1,0,-1
21.91,11.91,-44.58,1700,-5677,5769,-1,-1,0
21.91,11.91,-44.59,1690,-5676,5781,-1,0,-1
21.90,11.91,-44.61,1717,-5703,5778,-1,-1,0
21.90,11.90,-44.62,1710,-5685,5785,-1,0,0
21.90,11.91,-44.63,1702,-5685,5782,-1,-1,-1
21.89,11.91,-44.64,1702,-5684,5774,-1,-1,0
21.89,11.92,-44.66,1720,-5678,5771,-1,0,-1
21.89,11.92,-44.67,1728,-5706,5767,-1,-1,0
21.89,11.93,-44.70,1729,-5704,5753,-1,0,0
21.88,11.92,-44.71,1725,-5698,5766,-1,-1,0
21.88,11.93,-44.72,1720,-5720,5751,-1,0,0
21.88,11.93,-44.73,1718,-5715,5767,-1,-1,0
21.87,11.92,-44.74,1709,-5712,5729,-1,0,0
21.87,11.92,-44.74,1703,-5715,5747,0,-1,0
21.87,11.94,-44.74,1729,-5711,5752,-1,-1,0
21.87,11.93,-44.73,1708,-5710,5742,0,-1,-1
21.87,11.94,-44.72,1736,-5677,5769,0,0,-1
21.87,11.93,-44.72,1704,-5714,5771,-1,-1,0
21.86,11.94,-44.71,1731,-5717,5752,0,0,0
21.86,11.93,-44.71,1720,-5708,5763,0,0,0
21.86,11.93,-44.70,1696,-5689,5765,0,-1,0
21.86,11.93,-44.71,1706,-5707,5741,-1,-1,-1
21.86,11.95,-44.70,1726,-5700,5783,0,-1,0
21.86,11.95,-44.69,1708,-5714,5763,0,-1,0
21.85,11.95,-44.67,1693,-5717,5742,0,-1,-1
21.86,11.96,-44.66,1714,-5697,5769,0,-1,-1
21.87,11.97,-44.63,1724,-5699,5766,0,-1,0
21.87,11.97,-44.62,1731,-5708,5749,0,-1,-1
21.87,11.98,-44.59,1729,-5697,5750,1,-1,0
21.87,11.98,-44.56,1722,-5682,5779,1,-1,0
21.87,11.99,-44.53,1723,-5674,5788,0,-1,0
21.87,12.00,-44.50,1724,-5673,5789,0,-1,0
21.87,12.00,-44.48,1724,-5674,5807,0,-1,0
21.87,12.00,-44.47,1711,-5677,5807,0,-1,0
21.86,12.00,-44.46,1713,-5671,5794,0,-1,0
21.87,12.01,-44.46,1721,-5665,5791,0,-1,0
21.86,12.02,-44.46,1722,-5672,5779,0,-1,0
21.86,12.03,-44.46,1732,-5677,5785,0,-1,0
21.86,12.03,-44.45,1737,-5682,5795,0,-1,0
21.86,12.04,-44.45,1740,-5671,5781,0,-1,0
21.86,12.05,-44.45,1739,-5676,5779,0,-1,0
21.86,12.04,-44.44,1727,-5679,5783,0,-1,0
21.86,12.05,-44.43,1737,-5683,5780,0,-1,0
21.85,12.06,-44.42,1729,-5673,5785,0,-1,0
21.85,12.05,-44.42,1724,-5680,5788,0,-1,0
21.85,12.06,-44.41,1724,-5680,5789,0,-1,-1
21.85,12.07,-44.40,1737,-5676,5780,0,-1,-1
21.85,12.07,-44.39,1739,-5671,5785,0,-1,0
21.85,12.08,-44.37,1745,-5669,5790,0,-1,0
21.85,12.08,-44.35,1741,-5657,5795,0,-1,0
21.85,12.08,-44.34,1731,-5653,5798,0,-1,0
21.84,12.07,-44.34,1728,-5666,5803,0,-1,0
21.84,12.08,-44.34,1731,-5665,5808,0,-1,0
21.84,12.08,-44.33,1731,-5667,5805,0,-1,0
21.84,12.09,-44.32,1730,-5659,5815,0,-1,0
21.84,12.10,-44.32,1745,-5656,5806,0,-1,-1
21.84,12.10,-44.32,1750,-5648,5801,-1,-1,0
21.84,12.11,-44.32,1753,-5652,5794,-1,-1,0
21.83,12.10,-44.32,1749,-5667,5800,0,-1,0
21.83,12.10,-44.32,1742,-5677,5797,0,0,0
21.83,12.10,-44.32,1730,-5679,5796,0,-1,0
21.82,12.10,-44.32,1726,-5679,5789,0,-1,0
21.82,12.10,-44.31,1725,-5676,5790,0,-1,-1
21.82,12.10,-44.29,1728,-5661,5795,0,-1,0
21.82,12.11,-44.28,1732,-5646,5799,0,-1,0
21.83,12.12,-44.27,1749,-5644,5811,0,-1,0
21.82,12.12,-44.26,1751,-5641,5822,0,-1,0
21.82,12.12,-44.25,1742,-5647,5812,0,-1,0
21.81,12.12,-44.25,1739,-5652,5805,0,-1,0
21.81,12.11,-44.25,1737,-5645,5802,0,-1,0
21.80,12.11,-44.25,1732,-5653,5806,-1,-1,0
21.80,12.12,-44.25,1741,-5661,5807,0,-1,0
21.80,12.12,-44.25,1737,-5655,5813,-1,-1,0
21.80,12.13,-44.26,1734,-5661,5802,0,-1,-1
21.80,12.13,-44.26,1737,-5667,5809,-1,-1,-1
21.81,12.13,-44.26,1740,-5663,5818,-1,0,-1
21.81,12.13,-44.26,1743,-5661,5817,-1,0,-1
21.81,12.12,-44.26,1749,-5651,5815,-1,0,-1
21.81,12.11,-44.26,1754,-5652,5809,-1,0,-1
21.81,12.10,-44.25,1738,-5648,5825,-1,0,0
21.81,12.09,-44.26,1725,-5650,5810,-1,0,0
21.81,12.08,-44.27,1724,-5649,5801,-1,0,-1
21.81,12.08,-44.27,1727,-5645,5794,-1,0,-1
21.82,12.07,-44.28,1727,-5645,5808,-1,0,-1
21.82,12.08,-44.29,1732,-5649,5799,-1,0,-1
21.83,12.08,-44.30,1735,-5652,5789,-1,0,-1
21.83,12.07,-44.32,1733,-5654,5785,-1,0,-1
21.83,12.07,-44.32,1731,-5667,5792,-1,0,-1
21.84,12.07,-44.33,1738,-5670,5798,-1,0,-1
21.84,12.07,-44.33,1739,-5676,5804,-1,0,-1
21.84,12.06,-44.34,1744,-5675,5802,-1,0,-1
21.84,12.05,-44.35,1735,-5669,5804,-1,0,-1
21.85,12.05,-44.35,1734,-5655,5804,-1,0,-1
21.85,12.05,-44.35,1735,-5655,5810,-1,0,-1
21.85,12.04,-44.36,1723,-5656,5808,-1,0,-1
21.85,12.03,-44.37,1730,-5670,5812,-1,0,-1
21.86,12.02,-44.38,1731,-5666,5804,-1,0,-1
21.86,12.02,-44.39,1726,-5671,5786,-1,0,-1
21.86,12.01,-44.41,1726,-5663,5787,-1,0,-1
21.87,12.01,-44.42,1729,-5672,5783,-1,0,-1
21.87,11.99,-44.43,1715,-5671,5783,-1,0,-1
21.87,11.99,-44.44,1720,-5675,5780,-1,0,-1
21.87,11.99,-44.45,1724,-5683,5776,-1,0,0
21.87,11.97,-44.46,1715,-5682,5780,-1,0,-1
21.87,11.96,-44.47,1720,-5680,5793,-1,0,-1
21.88,11.96,-44.48,1719,-5677,5784,-1,0,-1
21.88,11.95,-44.50,1714,-5676,5779,-1,0,-1
21.88,11.95,-44.50,1717,-5679,5792,-1,0,-1
21.88,11.93,-44.52,1716,-5681,5785,-1,0,0
21.88,11.91,-44.53,1705,-5692,5786,-1,0,0
21.88,11.90,-44.55,1699,-5691,5777,-1,0,-1
21.88,11.90,-44.56,1699,-5686,5776,-1,0,-1
21.88,11.89,-44.56,1692,-5689,5779,-1,0,-1
21.89,11.89,-44.57,1701,-5683,5774,-1,0,-1
21.89,11.88,-44.58,1701,-5685,5783,-1,0,-1
21.89,11.87,-44.59,1716,-5681,5787,-1,0,0
21.89,11.86,-44.60,1717,-5681,5789,-1,0,0
21.89,11.85,-44.61,1704,-5683,5781,-1,0,0
21.89,11.83,-44.64,1698,-5691,5786,-1,0,-1
21.89,11.82,-44.65,1696,-5693,5797,-1,0,0
21.89,11.81,-44.67,1682,-5699,5774,-2,0,-1
21.89,11.79,-44.70,1680,-5692,5784,-2,0,-1
21.89,11.78,-44.73,1682,-5712,5777,-2,0,-1
21.89,11.78,-44.78,1686,-5690,5799,-3,-1,0
21.89,11.78,-44.84,1682,-5707,5765,-2,0,-1
21.89,11.78,-44.88,1705,-5713,5764,-2,-1,0
21.88,11.77,-44.93,1693,-5705,5730,-2,0,-1
21.88,11.77,-44.96,1694,-5736,5757,-2,-2,0
21.87,11.77,-45.02,1697,-5729,5684,-1,1,0
21.87,11.76,-45.03,1685,-5734,5723,-1,-1,0
21.87,11.76,-45.06,1688,-5734,5719,-1,0,0
21.86,11.76,-45.09,1685,-5754,5735,-2,-1,0
21.86,11.76,-45.12,1702,-5743,5713,-1,0,0
21.85,11.76,-45.13,1679,-5765,5709,-1,-1,-1
21.85,11.77,-45.15,1673,-5751,5699,-1,-1,0
21.84,11.77,-45.16,1676,-5765,5695,0,-1,-1
21.84,11.78,-45.15,1674,-5758,5696,0,-1,-1
21.85,11.78,-45.15,1693,-5775,5718,0,-1,0
21.85,11.80,-45.15,1700,-5770,5704,0,-1,-1
21.86,11.80,-45.12,1714,-5758,5704,1,0,0
21.86,11.80,-45.10,1700,-5759,5716,1,-1,-1
21.86,11.80,-45.06,1689,-5744,5747,0,-1,-1
21.86,11.81,-45.04,1693,-5735,5724,0,-1,-1
21.87,11.82,-45.01,1713,-5731,5735,0,-1,-1
21.88,11.83,-44.99,1698,-5735,5740,0,-1,-1
21.88,11.83,-44.96,1690,-5726,5750,0,-1,-1
21.89,11.84,-44.95,1693,-5718,5750,0,-1,-1
21.89,11.85,-44.94,1707,-5716,5754,0,-1,0
21.89,11.85,-44.94,1700,-5716,5745,0,-1,0
21.89,11.86,-44.94,1690,-5724,5733,0,-1,0
21.88,11.86,-44.94,1688,-5722,5739,-1,-1,-1
21.88,11.87,-44.94,1696,-5730,5735,0,-1,-1
21.89,11.88,-44.93,1711,-5729,5733,0,-1,-1
21.89,11.89,-44.93,1717,-5728,5735,0,-1,0
21.89,11.91,-44.91,1717,-5726,5738,0,-1,0
21.89,11.91,-44.90,1720,-5724,5726,0,-1,0
21.89,11.92,-44.89,1726,-5722,5733,0,-1,0
21.88,11.92,-44.88,1721,-5722,5737,0,-1,0
21.88,11.92,-44.86,1717,-5733,5738,0,-1,0
21.87,11.92,-44.85,1705,-5735,5741,0,-1,0
21.88,11.92,-44.82,1694,-5725,5747,0,-1,-1
21.88,11.93,-44.81,1691,-5716,5754,0,-1,-1
21.88,11.94,-44.79,1703,-5705,5746,0,-1,-1
21.88,11.95,-44.77,1710,-5699,5747,0,-1,0
21.88,11.97,-44.76,1727,-5700,5762,0,-1,0
21.88,11.97,-44.75,1729,-5695,5770,0,-1,0
21.87,11.98,-44.74,1722,-5702,5770,0,-1,0
21.88,11.98,-44.73,1720,-5701,5777,0,-1,0
21.88,11.99,-44.72,1720,-5704,5776,0,-1,0
21.87,11.99,-44.71,1715,-5702,5771,0,-1,0
21.87,12.00,-44.71,1719,-5706,5771,0,-1,0
21.87,12.01,-44.71,1724,-5708,5765,0,-1,0
21.87,12.02,-44.71,1731,-5704,5763,0,-1,-1
21.87,12.02,-44.70,1729,-5709,5762,0,-1,0
21.88,12.03,-44.69,1732,-5711,5759,0,-1,0
21.87,12.04,-44.69,1730,-5706,5749,0,-1,0
21.87,12.04,-44.67,1734,-5702,5761,0,-1,0
21.87,12.04,-44.66,1731,-5691,5763,0,-1,0
21.87,12.04,-44.64,1728,-5685,5765,0,-1,0
21.86,12.04,-44.63,1733,-5683,5760,0,-1,0
21.86,12.05,-44.63,1728,-5681,5770,0,-1,0
21.86,12.05,-44.62,1724,-5682,5769,0,-1,0
21.86,12.05,-44.62,1719,-5691,5763,0,-1,0
21.86,12.06,-44.62,1728,-5691,5761,0,-1,0
21.86,12.06,-44.62,1727,-5691,5771,0,-1,-1
21.86,12.07,-44.61,1734,-5689,5768,0,-1,0
21.86,12.07,-44.61,1729,-5695,5762,0,-1,0
21.86,12.08,-44.60,1737,-5690,5765,0,-1,-1
21.86,12.08,-44.59,1741,-5686,5766,0,-1,0
21.86,12.09,-44.59,1735,-5686,5766,0,0,0
21.86,12.09,-44.59,1733,-5693,5775,0,-1,0
21.85,12.09,-44.58,1742,-5694,5776,0,-1,0
21.85,12.09,-44.57,1732,-5677,5771,0,-1,0
21.85,12.09,-44.57,1736,-5682,5772,0,-1,-1
21.86,12.10,-44.56,1741,-5681,5781,0,-1,-1
21.85,12.10,-44.55,1744,-5685,5787,0,-1,-1
21.85,12.11,-44.55,1748,-5680,5785,0,-1,-1
21.86,12.11,-44.54,1749,-5685,5778,0,-1,0
21.86,12.12,-44.54,1757,-5678,5772,0,0,0
21.86,12.11,-44.51,1752,-5670,5774,0,0,0
21.86,12.11,-44.51,1738,-5670,5775,0,-1,0
21.85,12.10,-44.51,1736,-5677,5773,0,-1,0
21.85,12.11,-44.50,1741,-5685,5772,0,-1,0
21.86,12.11,-44.49,1742,-5682,5770,0,-1,-1
21.86,12.12,-44.48,1739,-5683,5780,0,-1,0
21.86,12.12,-44.47,1741,-5684,5778,0,-1,0
21.85,12.12,-44.47,1743,-5673,5770,0,-1,0
21.85,12.13,-44.46,1743,-5664,5775,0,-1,0
21.85,12.13,-44.46,1746,-5671,5775,0,-1,0
21.84,12.13,-44.46,1745,-5683,5774,0,-1,0
21.84,12.13,-44.46,1735,-5688,5776,0,-1,0
21.83,12.13,-44.44,1723,-5690,5784,0,-1,0
21.83,12.12,-44.44,1722,-5682,5798,0,-1,0
21.83,12.12,-44.42,1729,-5677,5789,0,-1,-1
21.83,12.13,-44.41,1744,-5660,5787,0,-1,0
21.83,12.13,-44.40,1748,-5654,5791,0,-1,0
21.82,12.13,-44.39,1755,-5653,5791,0,0,0
21.82,12.12,-44.38,1748,-5661,5788,0,-1,0
21.81,12.12,-44.38,1751,-5666,5797,0,-1,0
21.80,12.12,-44.38,1731,-5663,5794,-1,0,0
21.79,12.11,-44.38,1723,-5662,5797,-1,-1,0
21.79,12.11,-44.40,1723,-5663,5796,-1,-1,0
21.79,12.12,-44.42,1739,-5659,5802,-1,-1,0
21.78,12.12,-44.44,1733,-5671,5799,-2,-1,0
21.77,12.13,-44.47,1754,-5661,5803,-1,0,0
21.75,12.13,-44.50,1736,-5676,5775,-1,-1,0
21.75,12.12,-44.53,1741,-5671,5774,-2,0,0
21.75,12.12,-44.56,1754,-5687,5789,-2,0,0
21.72,12.11,-44.60,1738,-5692,5767,-2,-1,0
21.73,12.11,-44.63,1743,-5698,5756,-1,0,-1
21.72,12.09,-44.66,1729,-5669,5753,-2,1,0
21.72,12.07,-44.68,1745,-5701,5778,-2,0,-1
21.72,12.06,-44.72,1733,-5691,5741,-1,1,0
21.72,12.04,-44.73,1733,-5687,5771,-2,0,-1
21.72,12.03,-44.77,1716,-5702,5759,-2,0,-1
21.72,12.01,-44.81,1709,-5708,5740,-2,0,-1
21.73,12.01,-44.83,1728,-5726,5744,-1,1,-1
21.72,11.99,-44.85,1717,-5704,5756,-1,-1,0
21.73,12.00,-44.87,1734,-5723,5768,-2,0,-1
21.73,11.98,-44.90,1715,-5732,5724,-1,0,-1
21.73,11.97,-44.91,1735,-5726,5737,-1,0,-1
21.73,11.96,-44.93,1728,-5712,5731,-1,0,-1
21.74,11.95,-44.94,1727,-5726,5738,-1,1,-1
21.74,11.93,-44.95,1700,-5730,5738,-1,0,-1
21.74,11.93,-44.97,1726,-5718,5730,-1,1,-1
21.75,11.91,-44.99,1716,-5734,5735,-1,0,-1
21.75,11.90,-44.99,1720,-5723,5738,-1,1,-1
21.75,11.90,-45.00,1711,-5714,5747,-1,0,-1
21.76,11.90,-45.02,1720,-5724,5747,-1,0,-1
21.76,11.89,-45.03,1701,-5734,5721,-1,0,-1
21.77,11.90,-45.04,1731,-5740,5709,-1,0,0
21.77,11.87,-45.03,1693,-5730,5725,-1,0,-1
21.78,11.87,-45.04,1697,-5729,5713,-1,0,-1
21.78,11.87,-45.05,1693,-5758,5706,0,-1,-1
21.79,11.87,-45.04,1703,-5766,5732,0,0,-1
21.80,11.87,-45.03,1703,-5759,5727,0,0,-1
21.81,11.88,-45.01,1720,-5747,5732,0,-1,-1
21.83,11.88,-45.00,1730,-5721,5722,0,0,-1
21.83,11.87,-44.98,1708,-5706,5725,0,0,-1
21.85,11.88,-44.97,1710,-5722,5721,-1,0,-1
21.85,11.87,-44.97,1710,-5738,5726,0,0,-1
21.86,11.87,-44.95,1709,-5744,5732,0,0,0
21.85,11.86,-44.94,1701,-5736,5752,0,0,0
21.85,11.84,-44.93,1684,-5730,5751,0,0,0
21.85,11.83,-44.93,1676,-5729,5739,-1,0,-1
21.86,11.84,-44.93,1690,-5722,5748,0,0,-1
21.87,11.84,-44.92,1692,-5708,5750,-1,0,-1
21.87,11.83,-44.92,1699,-5710,5769,-1,0,-1
21.87,11.84,-44.92,1700,-5723,5754,-1,0,-1
21.87,11.83,-44.94,1706,-5719,5758,-1,0,0
21.88,11.83,-44.95,1699,-5717,5756,-1,0,0
21.87,11.83,-44.96,1708,-5725,5740,-1,0,-1
21.87,11.82,-44.96,1707,-5727,5733,-1,0,-1
21.87,11.81,-44.98,1704,-5737,5740,-1,0,-1
21.88,11.81,-44.99,1701,-5741,5740,-1,0,-1
21.87,11.80,-45.00,1693,-5742,5742,-1,0,0
21.87,11.79,-45.00,1692,-5743,5737,-1,0,-1
21.88,11.79,-45.01,1697,-5740,5730,-1,0,-1
21.88,11.78,-45.01,1699,-5734,5730,-1,0,-1
21.88,11.78,-45.01,1693,-5727,5730,-1,0,-1
21.89,11.77,-45.01,1696,-5726,5735,-1,0,-1
21.88,11.77,-45.01,1687,-5725,5742,-1,0,-1
21.89,11.77,-45.02,1694,-5736,5735,-1,-1,0
21.88,11.77,-45.02,1692,-5735,5744,-1,-1,0
21.88,11.77,-45.02,1687,-5736,5748,-1,0,0
21.87,11.76,-45.03,1676,-5735,5737,-1,-1,-1
21.87,11.76,-45.03,1681,-5743,5746,-1,-1,-1
21.87,11.76,-45.03,1664,-5744,5740,-1,-1,-1
21.88,11.77,-45.03,1676,-5747,5734,0,-1,-1
21.89,11.78,-45.03,1684,-5741,5733,0,-1,-1
21.89,11.79,-45.03,1698,-5742,5731,0,-1,-1
21.89,11.80,-45.02,1707,-5739,5738,0,-1,0
21.89,11.81,-45.01,1698,-5730,5747,0,-1,0
21.89,11.82,-45.01,1702,-5736,5723,0,-1,0
21.89,11.83,-45.01,1702,-5741,5731,0,-1,0
21.89,11.84,-44.99,1695,-5741,5741,0,-1,-1
21.89,11.84,-44.99,1696,-5743,5742,0,-1,0
21.89,11.84,-44.97,1691,-5732,5742,0,-1,-1
21.89,11.85,-44.97,1684,-5729,5745,0,-1,0
21.89,11.85,-44.96,1687,-5722,5748,0,-1,-1
21.89,11.86,-44.95,1690,-5724,5742,0,-1,-1
21.90,11.87,-44.94,1702,-5721,5747,0,-1,-1
21.90,11.88,-44.93,1707,-5732,5744,0,-1,0
21.90,11.89,-44.92,1713,-5727,5752,0,-1,0
21.90,11.89,-44.91,1709,-5716,5741,0,-1,-1
21.90,11.90,-44.90,1709,-5709,5733,0,-1,0
21.90,11.91,-44.90,1713,-5716,5733,0,-1,0
21.89,11.91,-44.89,1706,-5721,5737,0,-1,0
21.90,11.90,-44.89,1701,-5733,5750,0,-1,0
21.89,11.91,-44.88,1692,-5731,5765,0,-1,0
21.89,11.91,-44.87,1688,-5732,5757,0,-1,-1
21.89,11.92,-44.86,1701,-5721,5760,0,-1,-1
21.90,11.94,-44.84,1714,-5720,5749,0,-1,-1
21.91,11.95,-44.83,1722,-5713,5759,0,-1,0
21.90,11.95,-44.82,1729,-5704,5757,0,-1,0
21.90,11.95,-44.81,1733,-5704,5750,0,-1,0
21.89,11.95,-44.81,1729,-5708,5748,0,-1,0
21.89,11.95,-44.80,1725,-5714,5754,0,-1,0
21.90,11.96,-44.79,1713,-5705,5755,0,-1,0
21.89,11.95,-44.78,1709,-5711,5754,0,-1,0
21.89,11.96,-44.78,1709,-5718,5754,0,-1,0
21.89,11.97,-44.78,1716,-5717,5746,0,-1,0
21.89,11.98,-44.77,1720,-5725,5747,0,-1,0
21.89,11.98,-44.76,1717,-5717,5756,0,-1,0
21.89,11.98,-44.75,1710,-5712,5748,0,-1,0
21.88,11.99,-44.75,1709,-5712,5753,0,-1,0
21.89,11.99,-44.74,1719,-5708,5751,0,-1,0
21.88,11.99,-44.73,1717,-5706,5755,0,-1,0
21.88,12.00,-44.72,1730,-5700,5751,0,-1,0
21.88,12.00,-44.72,1724,-5698,5751,0,-1,0
21.88,12.01,-44.71,1723,-5689,5760,0,-1,0
21.88,12.01,-44.71,1716,-5691,5768,0,-1,0
21.87,12.01,-44.70,1722,-5701,5781,0,-1,0
21.87,12.01,-44.69,1716,-5701,5780,0,-1,0
21.87,12.01,-44.68,1713,-5703,5772,0,-1,-1
21.87,12.02,-44.68,1714,-5699,5768,0,-1,-1
21.87,12.03,-44.67,1734,-5698,5765,0,-1,-1
21.87,12.04,-44.67,1745,-5694,5773,0,-1,0
21.87,12.05,-44.65,1743,-5689,5771,0,-1,0
21.87,12.04,-44.64,1735,-5679,5770,0,-1,0
21.86,12.04,-44.63,1725,-5682,5770,0,-1,0
21.87,12.04,-44.63,1724,-5694,5758,0,-1,0
21.86,12.05,-44.62,1719,-5692,5771,0,-1,0
21.86,12.05,-44.61,1726,-5692,5788,0,-1,-1
21.86,12.05,-44.60,1732,-5686,5795,0,-1,-1
21.87,12.07,-44.60,1740,-5688,5781,0,-1,0
21.86,12.07,-44.60,1746,-5682,5771,0,-1,0
21.87,12.08,-44.59,1741,-5684,5767,0,-1,0
21.86,12.08,-44.59,1733,-5693,5762,0,-1,0
21.85,12.08,-44.59,1733,-5697,5769,0,-1,0
21.85,12.08,-44.59,1730,-5701,5765,0,-1,0
21.85,12.07,-44.59,1726,-5700,5765,0,-1,0
21.85,12.08,-44.58,1727,-5692,5755,0,-1,-1
21.86,12.09,-44.57,1738,-5691,5761,0,-1,0
21.85,12.09,-44.56,1742,-5689,5772,0,-1,0
21.86,12.10,-44.55,1745,-5683,5772,0,-1,0
21.85,12.10,-44.54,1742,-5685,5775,0,-1,0
21.85,12.10,-44.54,1734,-5680,5776,0,-1,0
21.84,12.09,-44.54,1727,-5678,5782,0,-1,0
21.84,12.10,-44.54,1729,-5678,5782,0,-1,0
21.84,12.10,-44.53,1729,-5674,5789,0,-1,0
21.84,12.10,-44.53,1730,-5689,5797,0,-1,0
21.83,12.10,-44.53,1737,-5686,5789,0,-1,0
21.83,12.10,-44.53,1732,-5690,5789,0,-1,-1
21.83,12.11,-44.52,1739,-5689,5787,0,-1,0
21.83,12.11,-44.52,1746,-5694,5776,0,-1,0
21.83,12.11,-44.51,1745,-5691,5765,0,0,0
21.83,12.10,-44.49,1740,-5682,5772,0,0,0
21.83,12.10,-44.48,1745,-5670,5786,0,-1,0
21.82,12.10,-44.47,1747,-5666,5777,0,-1,0
21.82,12.10,-44.46,1744,-5667,5782,0,-1,0
21.82,12.10,-44.45,1741,-5670,5779,0,-1,0
21.81,12.11,-44.45,1742,-5675,5780,0,-1,0
21.81,12.11,-44.44,1739,-5670,5781,0,-1,0
21.80,12.11,-44.44,1740,-5666,5787,0,-1,0
21.80,12.12,-44.43,1742,-5671,5784,0,-1,0
21.80,12.12,-44.43,1747,-5672,5778,0,-1,0
21.80,12.12,-44.42,1744,-5676,5777,0,-1,0
21.80,12.12,-44.41,1742,-5681,5783,0,0,0
21.79,12.12,-44.39,1734,-5676,5793,0,-1,0
21.79,12.12,-44.38,1725,-5676,5782,0,-1,0
21.79,12.12,-44.38,1734,-5670,5787,0,-1,0
21.79,12.12,-44.37,1735,-5669,5788,0,-1,0
21.79,12.12,-44.36,1746,-5672,5778,0,0,-1
21.79,12.11,-44.34,1735,-5661,5815,0,-1,0
21.79,12.12,-44.34,1742,-5676,5807,0,-1,0
21.79,12.11,-44.33,1744,-5665,5816,0,0,0
21.79,12.11,-44.33,1741,-5658,5806,-1,-1,-1
21.79,12.11,-44.34,1740,-5651,5808,-1,0,-1
21.79,12.11,-44.35,1747,-5654,5800,-1,0,-1
21.80,12.11,-44.36,1747,-5669,5795,-1,0,-1
21.80,12.10,-44.37,1742,-5677,5790,-1,0,-1
21.80,12.10,-44.38,1743,-5687,5787,-1,0,0
21.80,12.10,-44.39,1731,-5682,5775,-1,0,-1
21.80,12.09,-44.39,1731,-5689,5780,0,0,-1
21.81,12.10,-44.38,1737,-5683,5785,-1,0,-1
21.82,12.09,-44.38,1742,-5673,5782,-1,0,-1
21.83,12.10,-44.39,1748,-5658,5796,-1,0,-1
21.83,12.09,-44.39,1750,-5654,5788,-1,0,-1
21.83,12.08,-44.40,1740,-5659,5792,-1,0,-1
21.83,12.08,-44.41,1742,-5660,5782,-1,0,-1
21.83,12.07,-44.42,1735,-5669,5779,-1,0,-1
21.83,12.07,-44.43,1730,-5667,5786,-1,0,-1
21.84,12.06,-44.45,1727,-5674,5788,-1,0,-1
21.84,12.06,-44.46,1728,-5678,5789,-1,0,-1
21.84,12.06,-44.48,1734,-5679,5787,-1,0,-1
21.85,12.05,-44.49,1732,-5680,5790,-1,0,-1
21.85,12.04,-44.50,1734,-5677,5782,-1,0,-1
21.85,12.03,-44.50,1725,-5673,5784,-1,0,-1
21.86,12.02,-44.50,1723,-5666,5786,-1,0,0
21.86,12.00,-44.52,1718,-5680,5791,-1,0,-1
21.86,11.99,-44.52,1723,-5672,5805,-1,0,-1
21.86,11.98,-44.53,1723,-5677,5795,-1,0,-1
21.86,11.97,-44.54,1724,-5687,5788,-1,0,-1
21.86,11.96,-44.56,1726,-5686,5790,-1,0,-1
21.87,11.95,-44.57,1724,-5685,5779,-1,0,-1
21.87,11.95,-44.59,1718,-5687,5786,-1,0,-1
21.88,11.94,-44.60,1724,-5695,5780,-1,0,-1
21.88,11.93,-44.61,1717,-5693,5765,-1,0,-1
21.88,11.92,-44.63,1720,-5693,5764,-1,0,-1
21.88,11.92,-44.64,1717,-5695,5773,-1,0,0
21.88,11.90,-44.65,1709,-5701,5782,-1,0,-1
21.88,11.89,-44.66,1709,-5701,5767,-1,0,-1
21.89,11.89,-44.66,1716,-5709,5763,-1,0,-1
21.89,11.88,-44.67,1715,-5706,5764,-1,0,-1
21.89,11.87,-44.67,1704,-5696,5761,-1,0,0
21.89,11.86,-44.68,1694,-5695,5765,-1,0,0
21.88,11.84,-44.70,1695,-5711,5767,-1,0,-1
21.88,11.84,-44.71,1691,-5715,5771,-1,0,-1
21.88,11.83,-44.72,1696,-5713,5780,-1,0,-1
21.89,11.83,-44.73,1709,-5707,5774,-1,0,-1
21.89,11.82,-44.74,1706,-5698,5771,-1,0,-1
21.89,11.81,-44.75,1707,-5697,5763,-1,0,0
21.89,11.81,-44.78,1716,-5710,5758,-1,0,-1
21.89,11.80,-44.79,1714,-5714,5767,-1,0,0
21.89,11.79,-44.81,1692,-5723,5763,-1,0,-1
21.89,11.77,-44.83,1681,-5728,5769,-1,0,-1
21.89,11.76,-44.85,1680,-5729,5775,-2,0,-1
21.89,11.75,-44.88,1663,-5722,5784,-2,-2,0
21.89,11.77,-44.94,1693,-5746,5712,-1,-1,-1
21.89,11.77,-44.95,1705,-5725,5734,-1,0,-1
21.89,11.76,-44.96,1683,-5720,5736,-1,0,0
21.89,11.77,-44.97,1688,-5728,5725,-1,-1,0
21.88,11.77,-44.98,1696,-5738,5735,-1,-1,-1
21.89,11.78,-44.98,1699,-5744,5741,0,-1,0
21.88,11.77,-44.98,1698,-5745,5741,0,-1,0
21.88,11.78,-44.97,1683,-5737,5737,0,-1,-1
21.89,11.78,-44.97,1681,-5733,5741,0,-1,0
21.88,11.78,-44.97,1687,-5740,5737,0,-1,-1
21.88,11.79,-44.96,1691,-5741,5745,0,0,0
21.88,11.79,-44.95,1686,-5742,5751,0,-1,0
21.88,11.80,-44.95,1687,-5735,5757,0,-1,-1
21.88,11.81,-44.94,1697,-5740,5741,0,-1,-1
21.88,11.81,-44.94,1704,-5738,5733,0,-1,-1
21.89,11.82,-44.92,1705,-5732,5740,0,-1,0
21.88,11.82,-44.92,1696,-5725,5742,0,-1,0
21.89,11.82,-44.91,1692,-5728,5742,0,-1,-1
21.89,11.83,-44.90,1703,-5725,5747,0,-1,-1
21.89,11.83,-44.89,1695,-5726,5756,0,-1,-1
21.89,11.83,-44.89,1697,-5734,5758,-1,-1,-1
21.89,11.83,-44.89,1692,-5728,5749,-1,-1,0
21.89,11.84,-44.90,1694,-5731,5742,-1,-1,0
21.88,11.84,-44.90,1697,-5736,5747,-1,-1,0
21.88,11.84,-44.90,1702,-5723,5754,0,0,0
21.89,11.84,-44.91,1693,-5729,5733,-1,-1,0
21.89,11.84,-44.91,1708,-5725,5734,0,-1,-1
21.89,11.85,-44.91,1709,-5720,5750,-1,-1,0
21.88,11.85,-44.91,1686,-5724,5740,0,0,0
21.88,11.85,-44.91,1692,-5714,5746,-1,-1,0
21.88,11.86,-44.93,1706,-5730,5752,-1,-1,0
21.88,11.87,-44.94,1723,-5736,5746,-1,-1,0
21.88,11.86,-44.93,1709,-5723,5763,0,0,0
21.87,11.86,-44.94,1699,-5729,5741,-1,-1,0
21.87,11.87,-44.95,1689,-5723,5739,-1,0,-1
21.86,11.87,-44.97,1711,-5718,5738,-1,-1,0
21.85,11.87,-44.97,1694,-5738,5724,0,-1,0
21.85,11.88,-44.97,1719,-5747,5766,0,-1,0
21.85,11.88,-44.97,1709,-5750,5739,-1,-1,0
21.85,11.88,-44.97,1694,-5747,5746,0,-1,-1
21.85,11.89,-44.97,1723,-5725,5733,-1,0,-1
21.86,11.90,-44.96,1723,-5745,5738,0,-1,0
21.85,11.91,-44.96,1723,-5732,5728,0,0,0
21.85,11.90,-44.95,1702,-5735,5736,0,-1,0
21.84,11.90,-44.94,1720,-5738,5729,0,0,0
21.85,11.90,-44.93,1709,-5733,5734,0,-1,0
21.84,11.90,-44.92,1699,-5732,5717,0,-1,-1
21.84,11.90,-44.90,1687,-5723,5738,0,-1,0
21.85,11.92,-44.89,1709,-5717,5757,0,-1,-1
21.85,11.92,-44.88,1717,-5727,5736,0,-1,-1
21.85,11.94,-44.87,1725,-5722,5728,0,-1,0
21.85,11.94,-44.85,1724,-5711,5752,0,-1,0
21.85,11.94,-44.84,1713,-5696,5752,0,-1,0
21.85,11.95,-44.82,1722,-5710,5749,0,-1,0
21.85,11.96,-44.80,1730,-5723,5753,0,-1,0
21.85,11.96,-44.79,1722,-5719,5762,0,-1,0
21.85,11.97,-44.77,1713,-5720,5757,0,-1,0
21.84,11.98,-44.76,1715,-5715,5759,0,-1,0
21.84,11.99,-44.74,1715,-5717,5760,0,-1,0
21.84,12.00,-44.72,1726,-5722,5772,0,-1,0
21.84,12.00,-44.70,1716,-5709,5762,0,-1,0
21.84,12.00,-44.69,1713,-5698,5772,0,-1,0
21.84,12.01,-44.67,1720,-5691,5782,0,-1,-1
21.85,12.02,-44.65,1732,-5695,5775,0,-1,0
21.85,12.03,-44.64,1743,-5691,5774,0,-1,0
21.84,12.03,-44.63,1739,-5685,5766,0,-1,0
21.84,12.03,-44.62,1733,-5684,5767,0,-1,0
21.83,12.03,-44.61,1723,-5689,5769,0,-1,0
21.83,12.03,-44.61,1723,-5688,5772,0,-1,0
21.83,12.04,-44.61,1719,-5690,5766,0,-1,-1
21.83,12.04,-44.60,1718,-5696,5759,0,-1,-1
21.83,12.05,-44.60,1729,-5690,5767,0,-1,0
21.83,12.05,-44.60,1724,-5696,5759,0,-1,0
21.83,12.05,-44.60,1731,-5693,5748,0,-1,0
21.83,12.06,-44.59,1729,-5694,5753,0,-1,0
21.83,12.06,-44.59,1728,-5690,5755,0,-1,0
21.83,12.07,-44.58,1735,-5699,5763,0,-1,0
21.83,12.07,-44.57,1735,-5692,5771,0,-1,0
21.83,12.07,-44.56,1727,-5690,5778,0,-1,0
21.82,12.06,-44.56,1725,-5684,5767,0,-1,0
21.82,12.07,-44.56,1729,-5680,5768,0,-1,0
21.82,12.08,-44.56,1733,-5689,5770,0,-1,-1
21.81,12.07,-44.55,1732,-5688,5778,0,-1,0
21.82,12.08,-44.54,1740,-5677,5780,0,0,0
21.82,12.08,-44.54,1737,-5673,5777,-1,-1,0
21.81,12.09,-44.54,1747,-5687,5776,0,-1,0
21.81,12.09,-44.54,1732,-5676,5776,0,-1,0
21.81,12.09,-44.53,1735,-5684,5782,0,-1,0
21.80,12.09,-44.53,1731,-5686,5782,0,-1,0
21.80,12.09,-44.53,1731,-5693,5777,0,0,-1
21.81,12.09,-44.52,1730,-5695,5776,0,0,-1
21.81,12.09,-44.50,1730,-5689,5779,0,-1,0
21.81,12.10,-44.49,1739,-5673,5772,0,-1,0
21.81,12.10,-44.49,1732,-5668,5772,0,-1,0
21.80,12.10,-44.47,1743,-5664,5788,0,-1,0
21.80,12.11,-44.46,1745,-5668,5783,0,-1,0
21.80,12.11,-44.45,1740,-5668,5791,0,-1,0
21.80,12.11,-44.44,1737,-5663,5786,0,-1,0
21.80,12.12,-44.43,1742,-5662,5796,0,-1,0
21.79,12.12,-44.43,1737,-5658,5786,0,-1,0
21.79,12.12,-44.42,1745,-5657,5793,0,-1,0
21.79,12.12,-44.41,1749,-5669,5787,0,-1,0
21.79,12.13,-44.42,1743,-5672,5781,0,-1,0
21.78,12.13,-44.41,1741,-5679,5784,0,-1,0
21.78,12.13,-44.41,1741,-5683,5787,0,-1,0
21.78,12.13,-44.40,1734,-5687,5781,0,-1,0
21.78,12.13,-44.38,1735,-5685,5780,0,0,-1
21.79,12.13,-44.36,1749,-5665,5782,0,0,-1
21.79,12.12,-44.34,1743,-5644,5807,-1,-1,0
21.79,12.12,-44.35,1749,-5646,5800,0,0,0
21.79,12.12,-44.35,1736,-5646,5815,-1,0,0
21.78,12.10,-44.35,1744,-5666,5797,-1,0,0
21.78,12.09,-44.36,1729,-5657,5797,-1,0,0
21.78,12.08,-44.37,1718,-5663,5791,-1,0,-1
21.78,12.09,-44.38,1727,-5665,5801,-1,0,-1
21.79,12.09,-44.39,1737,-5663,5803,-1,0,-1
21.80,12.09,-44.39,1739,-5668,5789,-1,0,-1
21.80,12.08,-44.40,1745,-5666,5784,-1,0,-1
21.80,12.08,-44.41,1743,-5659,5783,-1,0,0
21.80,12.07,-44.41,1736,-5665,5776,-1,0,0
21.80,12.06,-44.42,1727,-5666,5774,-1,0,-1
21.80,12.05,-44.44,1722,-5671,5781,-1,0,-1
21.80,12.04,-44.44,1727,-5683,5788,-1,0,-1
21.81,12.04,-44.45,1731,-5680,5788,-1,0,-1
21.82,12.04,-44.46,1730,-5679,5787,-1,0,-1
21.82,12.03,-44.47,1728,-5674,5785,-1,0,-1
21.82,12.02,-44.48,1731,-5667,5780,-1,0,-1
21.82,12.02,-44.48,1731,-5665,5787,-1,0,-1
21.82,12.01,-44.50,1727,-5678,5779,-1,0,-1
21.82,12.00,-44.51,1729,-5685,5784,-1,0,-1
21.83,12.00,-44.52,1731,-5684,5783,-1,0,-1
21.83,11.99,-44.53,1725,-5685,5792,-1,0,-1
21.83,11.98,-44.55,1733,-5684,5791,-1,0,-1
21.84,11.98,-44.56,1732,-5677,5772,-1,0,-1
21.84,11.98,-44.58,1731,-5664,5775,-1,0,-1
21.84,11.96,-44.60,1719,-5673,5780,-1,0,0
21.84,11.95,-44.62,1718,-5704,5771,-1,0,-1
21.84,11.93,-44.63,1716,-5714,5776,-1,0,0
21.83,11.92,-44.65,1695,-5715,5761,-1,0,-1
21.84,11.91,-44.65,1693,-5709,5759,-1,0,-1
21.85,11.92,-44.66,1711,-5705,5755,-1,0,-1
21.86,11.92,-44.66,1726,-5696,5769,-1,0,-1
21.87,11.91,-44.67,1726,-5697,5779,-1,0,-1
21.87,11.90,-44.69,1727,-5695,5767,-1,0,-1
21.87,11.89,-44.69,1714,-5686,5772,-1,0,0
21.86,11.88,-44.70,1715,-5699,5771,-1,0,0
21.86,11.86,-44.72,1711,-5707,5764,-1,0,-1
21.86,11.85,-44.73,1697,-5702,5765,-1,0,-1
21.86,11.85,-44.74,1699,-5700,5774,-1,0,-1
21.87,11.86,-44.76,1707,-5707,5767,-1,0,-1
21.87,11.86,-44.78,1714,-5724,5763,-1,0,-1
21.87,11.85,-44.80,1706,-5718,5747,-1,0,-1
21.88,11.85,-44.81,1707,-5719,5744,-1,0,-1
21.88,11.84,-44.82,1707,-5728,5744,-1,0,-1
21.87,11.83,-44.83,1699,-5717,5743,-1,0,0
21.88,11.82,-44.83,1702,-5708,5756,-1,0,-1
21.88,11.81,-44.84,1702,-5700,5761,-1,0,0
21.88,11.80,-44.84,1702,-5705,5769,-1,0,-1
21.88,11.79,-44.85,1692,-5706,5781,-1,0,-1
21.88,11.78,-44.86,1693,-5707,5780,-1,0,0
21.87,11.77,-44.88,1679,-5718,5772,-1,0,-1
21.88,11.76,-44.89,1677,-5721,5760,-1,0,-1
21.88,11.76,-44.91,1684,-5711,5769,-1,-1,-1
21.87,11.79,-44.95,1682,-5723,5748,-2,-2,-1
21.87,11.79,-44.98,1702,-5722,5734,-1,0,-1
21.88,11.80,-45.00,1700,-5722,5750,-1,-1,-1
21.87,11.80,-45.02,1698,-5739,5731,-1,-1,0
21.87,11.81,-45.04,1713,-5729,5726,-1,-1,0
21.86,11.80,-45.06,1688,-5754,5728,-1,-1,-1
21.86,11.81,-45.09,1689,-5745,5682,-1,-1,0
21.86,11.82,-45.10,1700,-5748,5709,-1,-1,-1
21.87,11.83,-45.10,1716,-5742,5734,-1,-1,0
21.86,11.83,-45.12,1679,-5767,5711,-1,-1,-1
21.86,11.85,-45.13,1707,-5763,5696,-1,-1,-1
21.86,11.85,-45.13,1717,-5758,5693,0,-1,0
21.86,11.86,-45.12,1711,-5773,5706,0,-1,0
21.85,11.86,-45.10,1701,-5774,5702,0,0,-1
21.86,11.86,-45.08,1691,-5757,5727,0,-1,-1
21.85,11.86,-45.05,1697,-5750,5726,0,-1,0
21.85,11.87,-45.04,1705,-5752,5726,1,-1,0
21.86,11.87,-45.00,1708,-5745,5715,1,0,0
21.85,11.87,-44.97,1696,-5739,5729,1,-1,0
21.86,11.88,-44.94,1698,-5729,5756,0,-1,0
21.85,11.88,-44.92,1697,-5725,5760,0,0,-1
21.86,11.89,-44.90,1689,-5721,5767,0,-1,-1
21.86,11.90,-44.88,1695,-5714,5759,0,-1,-1
21.87,11.91,-44.87,1699,-5702,5762,0,-1,-1
21.87,11.92,-44.87,1708,-5702,5760,-1,-1,-1
21.87,11.94,-44.87,1719,-5713,5756,-1,-1,0
21.87,11.95,-44.88,1724,-5723,5751,0,-1,0
21.86,11.95,-44.87,1716,-5728,5750,0,-1,0
21.85,11.95,-44.87,1705,-5735,5750,0,-1,0
21.86,11.95,-44.87,1706,-5738,5754,0,-1,-1
21.85,11.96,-44.86,1707,-5743,5750,0,-1,-1
21.86,11.97,-44.84,1712,-5734,5755,0,-1,-1
21.86,11.97,-44.83,1720,-5724,5760,0,-1,0
21.86,11.98,-44.81,1725,-5719,5753,0,-1,0
21.86,11.99,-44.80,1733,-5712,5751,0,-1,0
21.86,11.99,-44.79,1727,-5704,5748,0,-1,0
21.86,11.99,-44.77,1729,-5709,5749,0,-1,0
21.86,11.99,-44.76,1723,-5708,5765,0,-1,0
21.86,12.00,-44.75,1711,-5704,5768,0,-1,0
21.85,12.00,-44.74,1711,-5687,5773,0,-1,0
21.85,12.00,-44.74,1707,-5692,5770,-1,-1,0
21.85,12.01,-44.75,1716,-5694,5764,-1,-1,0
21.84,12.02,-44.75,1732,-5710,5759,0,-1,0
21.85,12.04,-44.74,1735,-5712,5751,0,-1,0
21.84,12.04,-44.74,1728,-5711,5742,0,-1,-1
21.84,12.04,-44.73,1726,-5707,5752,0,-1,-1
21.85,12.05,-44.73,1733,-5707,5733,0,-1,0
21.85,12.06,-44.71,1734,-5694,5746,0,-1,0
21.85,12.06,-44.70,1734,-5690,5758,0,-1,0
21.84,12.06,-44.70,1736,-5694,5754,0,-1,0
21.84,12.06,-44.68,1729,-5696,5760,0,-1,0
21.83,12.06,-44.68,1728,-5702,5765,0,-1,0
21.84,12.07,-44.67,1729,-5692,5768,0,-1,0
21.83,12.07,-44.67,1730,-5688,5752,0,-1,-1
21.84,12.08,-44.66,1732,-5689,5765,0,-1,-1
21.83,12.09,-44.66,1738,-5693,5768,0,-1,0
21.84,12.09,-44.65,1746,-5690,5768,0,-1,0
21.83,12.09,-44.65,1746,-5688,5754,0,-1,0
21.84,12.09,-44.65,1746,-5694,5756,0,-1,0
21.83,12.10,-44.65,1746,-5698,5760,0,-1,0
21.83,12.10,-44.64,1737,-5702,5761,0,-1,0
21.83,12.10,-44.63,1741,-5700,5764,0,-1,0
21.83,12.11,-44.63,1742,-5696,5766,0,-1,0
21.83,12.11,-44.62,1741,-5692,5765,0,-1,0
21.82,12.11,-44.62,1735,-5679,5759,0,-1,0
21.82,12.11,-44.61,1730,-5684,5774,0,-1,-1
21.82,12.12,-44.61,1734,-5683,5774,0,-1,0
21.82,12.12,-44.60,1735,-5680,5773,0,-1,0
21.82,12.12,-44.58,1735,-5680,5769,0,-1,0
21.82,12.13,-44.58,1746,-5694,5772,0,-1,0
21.82,12.13,-44.57,1741,-5689,5760,0,0,-1
21.82,12.11,-44.55,1718,-5686,5776,0,0,0
21.81,12.11,-44.55,1726,-5679,5761,-1,-1,0
21.82,12.12,-44.55,1737,-5679,5771,0,-1,-1
21.81,12.13,-44.54,1751,-5683,5785,0,-1,0
21.81,12.13,-44.54,1748,-5676,5775,0,-1,0
21.81,12.14,-44.54,1759,-5663,5782,-1,-1,0
21.81,12.14,-44.54,1761,-5661,5780,-1,-1,0
21.80,12.14,-44.54,1753,-5675,5775,0,-1,0
21.80,12.14,-44.54,1746,-5687,5775,0,-1,0
21.79,12.14,-44.54,1741,-5694,5783,0,-1,0
21.79,12.14,-44.53,1733,-5700,5792,0,-1,0
21.79,12.14,-44.52,1731,-5697,5779,0,-1,0
21.79,12.15,-44.51,1732,-5683,5775,0,-1,-1
21.79,12.14,-44.48,1742,-5675,5777,0,0,-1
21.79,12.14,-44.46,1744,-5666,5782,0,-1,0
21.79,12.15,-44.45,1751,-5673,5791,0,-1,0
21.79,12.14,-44.45,1746,-5664,5788,0,0,0
21.78,12.14,-44.44,1744,-5662,5791,0,0,0
21.79,12.14,-44.43,1741,-5675,5790,0,-1,0
21.78,12.14,-44.43,1740,-5671,5794,0,-1,0
21.78,12.14,-44.43,1737,-5659,5793,-1,-1,0
21.78,12.15,-44.44,1737,-5663,5789,-1,-1,0
21.78,12.15,-44.44,1746,-5664,5804,-1,0,0
21.78,12.14,-44.45,1748,-5671,5797,-1,0,-1
21.78,12.13,-44.47,1760,-5676,5804,-1,0,-1
21.77,12.12,-44.49,1747,-5683,5779,-1,0,-1
21.78,12.11,-44.51,1733,-5689,5772,-1,0,-1
21.78,12.10,-44.52,1733,-5686,5782,-1,0,-1
21.79,12.09,-44.54,1741,-5679,5775,-1,0,-1
21.79,12.08,-44.55,1735,-5671,5779,-1,0,-1
21.79,12.07,-44.57,1731,-5671,5787,-2,0,-1
21.80,12.07,-44.60,1746,-5673,5788,-1,0,-1
21.80,12.06,-44.61,1735,-5667,5792,-2,0,-1
21.80,12.05,-44.64,1729,-5689,5776,-2,0,-1
21.80,12.03,-44.67,1712,-5691,5775,-2,0,-1
21.81,12.03,-44.69,1725,-5688,5778,-2,0,-1
21.81,12.02,-44.72,1730,-5711,5761,-2,0,-1
21.81,12.02,-44.75,1740,-5713,5739,-1,0,-1
21.81,12.00,-44.75,1728,-5713,5759,-1,0,-1
21.82,12.00,-44.76,1733,-5712,5753,-1,0,-1
21.82,12.00,-44.77,1739,-5719,5739,-1,0,-1
21.83,11.99,-44.77,1736,-5709,5741,-1,0,-1
21.83,11.97,-44.77,1720,-5709,5748,-1,0,0
21.83,11.98,-44.78,1729,-5696,5754,-1,0,-1
21.83,11.97,-44.78,1724,-5699,5766,-1,0,-1
21.83,11.95,-44.80,1715,-5715,5758,-1,0,-1
21.83,11.95,-44.82,1706,-5712,5762,-1,0,-1
21.84,11.93,-44.82,1702,-5697,5778,-1,0,-1
21.82,11.91,-44.84,1687,-5703,5744,-1,0,-1
21.83,11.91,-44.87,1694,-5710,5744,-1,0,-1
21.83,11.90,-44.89,1695,-5704,5752,-2,0,0
21.84,11.90,-44.91,1704,-5733,5747,-1,0,-1
21.84,11.89,-44.93,1723,-5718,5764,-2,1,-1
21.84,11.88,-44.95,1708,-5734,5753,-1,0,0
21.84,11.87,-44.97,1715,-5712,5733,-2,0,-1
21.85,11.87,-45.00,1718,-5723,5742,-1,0,0
21.84,11.87,-45.04,1712,-5714,5753,-2,-1,0
21.82,11.87,-45.09,1715,-5751,5700,-2,0,-1
21.83,11.86,-45.10,1702,-5745,5717,-1,0,-1
21.83,11.84,-45.13,1693,-5765,5718,-1,0,0
21.82,11.83,-45.14,1687,-5750,5707,-1,0,0
21.82,11.83,-45.16,1696,-5752,5712,-1,0,-1
21.83,11.83,-45.18,1693,-5756,5714,-1,0,-1
21.83,11.83,-45.18,1706,-5753,5715,-1,0,0
21.83,11.83,-45.20,1712,-5766,5693,-1,0,-1
21.83,11.82,-45.20,1712,-5740,5729,-1,0,0
21.83,11.81,-45.21,1706,-5735,5714,-1,-1,0
21.83,11.81,-45.24,1700,-5769,5714,-1,0,0
21.83,11.81,-45.25,1709,-5776,5722,-1,0,0
21.82,11.80,-45.25,1697,-5772,5693,-1,0,0
21.82,11.79,-45.26,1691,-5762,5692,-1,-1,0
21.82,11.79,-45.25,1684,-5751,5699,0,0,-1
21.83,11.79,-45.26,1689,-5767,5700,-1,-1,-1
21.83,11.81,-45.26,1691,-5762,5700,0,-1,-1
21.83,11.80,-45.25,1699,-5775,5705,0,-1,-1
21.84,11.80,-45.22,1700,-5767,5694,0,0,-1
21.83,11.80,-45.21,1701,-5761,5702,0,-1,-1
21.84,11.80,-45.18,1701,-5762,5714,0,-1,0
21.84,11.81,-45.15,1700,-5756,5713,0,0,0
21.85,11.82,-45.13,1695,-5757,5716,0,-1,-1
21.85,11.81,-45.10,1695,-5747,5738,0,0,0
21.85,11.81,-45.08,1686,-5743,5740,0,0,0
21.85,11.81,-45.07,1684,-5726,5747,0,-1,0
21.85,11.81,-45.06,1688,-5724,5750,0,-1,-1
21.85,11.82,-45.05,1691,-5725,5742,0,-1,-1
21.85,11.83,-45.06,1692,-5724,5732,-1,-1,0
21.85,11.84,-45.06,1690,-5725,5736,-1,-1,-1
21.85,11.84,-45.06,1693,-5725,5748,-1,-1,0
21.85,11.85,-45.09,1701,-5730,5747,-1,-1,0
21.85,11.86,-45.09,1696,-5734,5745,-1,-1,-1
21.84,11.87,-45.12,1714,-5751,5726,-1,-1,0
21.84,11.87,-45.12,1702,-5743,5725,-1,-1,0
21.85,11.88,-45.13,1705,-5741,5725,-1,-1,-1
21.85,11.89,-45.14,1715,-5741,5728,-1,-1,0
21.85,11.90,-45.16,1723,-5753,5714,-1,-1,-1
21.85,11.89,-45.15,1685,-5745,5700,0,-1,0
21.84,11.91,-45.16,1710,-5749,5711,-1,-1,0
21.83,11.90,-45.17,1706,-5747,5714,-1,-1,0
21.84,11.91,-45.18,1711,-5759,5716,-1,-1,-1
21.83,11.91,-45.18,1698,-5761,5715,0,-1,0
21.83,11.93,-45.19,1713,-5759,5711,0,-1,-1
21.83,11.94,-45.18,1725,-5764,5713,0,-1,0
21.83,11.94,-45.16,1731,-5756,5715,0,-1,0
21.83,11.95,-45.14,1731,-5767,5706,0,-1,0
21.83,11.95,-45.12,1728,-5765,5707,0,0,0
21.83,11.94,-45.10,1738,-5761,5724,1,0,0
21.84,11.94,-45.06,1720,-5770,5737,1,0,0
21.83,11.93,-45.04,1713,-5748,5734,0,0,0
21.83,11.93,-45.01,1706,-5726,5753,0,0,-1
21.83,11.92,-44.99,1687,-5719,5739,0,-1,0
21.83,11.92,-44.99,1692,-5725,5746,0,-1,-1
21.83,11.93,-44.98,1695,-5704,5761,-1,-1,0
21.83,11.94,-44.99,1704,-5722,5772,-1,-1,-1
21.84,11.96,-45.01,1720,-5720,5761,-1,-1,-1
21.84,11.96,-45.02,1721,-5714,5739,-1,-1,-1
21.83,11.97,-45.04,1720,-5725,5745,-1,-1,0
21.83,11.98,-45.07,1734,-5734,5730,-1,-1,0
21.83,11.99,-45.09,1736,-5745,5726,-1,-1,0
21.82,11.99,-45.11,1725,-5754,5716,-1,-1,0
21.81,11.99,-45.12,1720,-5761,5714,-1,-1,0
21.80,11.99,-45.13,1715,-5772,5718,-1,-1,0
21.81,12.00,-45.14,1725,-5770,5718,0,0,-1
21.81,12.00,-45.13,1712,-5781,5705,0,-1,0
21.81,12.00,-45.12,1715,-5765,5689,0,0,-1
21.81,12.00,-45.11,1726,-5755,5705,0,0,0
21.81,12.00,-45.09,1723,-5745,5706,0,-1,0
21.81,11.99,-45.07,1725,-5735,5708,0,0,0
21.80,11.99,-45.06,1727,-5732,5742,0,-1,0
21.80,11.99,-45.05,1720,-5735,5703,0,-1,0
21.79,11.98,-45.04,1717,-5740,5736,0,-1,0
21.79,11.99,-45.03,1709,-5731,5729,0,-1,0
21.78,11.99,-45.02,1714,-5736,5724,0,-1,0
21.78,11.99,-45.02,1710,-5744,5718,0,-1,0
21.79,12.00,-45.01,1715,-5745,5736,0,-1,0
21.78,12.01,-44.99,1724,-5738,5737,0,-1,0
21.78,12.02,-44.97,1731,-5750,5732,0,-1,-1
21.79,12.02,-44.96,1725,-5745,5729,0,0,-1
21.79,12.02,-44.93,1726,-5732,5737,0,-1,0
21.79,12.03,-44.90,1726,-5713,5747,0,-1,0
21.78,12.04,-44.89,1734,-5713,5747,0,-1,0
21.79,12.04,-44.87,1732,-5712,5746,0,0,0
21.78,12.03,-44.86,1729,-5721,5748,0,-1,0
21.78,12.03,-44.84,1717,-5710,5753,0,-1,0
21.77,12.04,-44.83,1718,-5713,5748,0,-1,0
21.77,12.05,-44.83,1720,-5720,5748,0,-1,0
21.77,12.05,-44.82,1726,-5730,5763,0,-1,-1
21.78,12.05,-44.81,1738,-5718,5762,0,0,0
21.77,12.05,-44.81,1726,-5703,5753,0,-1,0
21.77,12.05,-44.81,1717,-5700,5761,-1,0,0
21.76,12.05,-44.82,1718,-5703,5768,-1,-1,0
21.77,12.04,-44.83,1716,-5701,5778,-1,-1,-1
21.76,12.06,-44.85,1742,-5715,5785,-1,-1,-1
21.77,12.07,-44.87,1743,-5702,5780,-2,0,0
21.76,12.07,-44.89,1748,-5691,5784,-2,-1,-1
21.77,12.08,-44.93,1732,-5699,5746,-2,-1,-1
21.76,12.09,-44.97,1750,-5688,5741,-2,-1,0
21.75,12.10,-45.00,1737,-5718,5721,-2,-1,0
21.75,12.10,-45.04,1755,-5726,5711,-2,0,0
21.74,12.10,-45.07,1735,-5742,5737,-2,-1,0
21.73,12.10,-45.11,1741,-5787,5706,-1,-1,0
21.72,12.09,-45.12,1726,-5777,5692,-1,-1,-1
21.72,12.11,-45.13,1718,-5772,5678,0,-1,-1
21.72,12.11,-45.12,1723,-5745,5685,0,-1,-1
21.73,12.13,-45.12,1765,-5749,5702,0,-1,-1
21.73,12.13,-45.10,1757,-5743,5705,0,0,0
21.73,12.12,-45.08,1765,-5739,5718,0,-1,0
21.72,12.12,-45.07,1771,-5719,5720,0,0,0
21.72,12.11,-45.05,1743,-5728,5726,0,0,0
21.71,12.10,-45.03,1729,-5731,5712,0,0,0
21.70,12.09,-45.02,1708,-5732,5719,0,-1,0
21.71,12.10,-44.99,1732,-5726,5734,0,-1,0
21.70,12.10,-44.99,1718,-5744,5727,0,-1,-1
21.70,12.11,-44.97,1734,-5738,5722,0,-1,0
21.70,12.11,-44.95,1739,-5748,5719,0,-1,-1
21.71,12.12,-44.93,1750,-5738,5707,1,0,-1
21.71,12.11,-44.88,1753,-5720,5731,1,0,0
21.71,12.11,-44.85,1748,-5711,5755,1,0,0
21.71,12.11,-44.83,1741,-5710,5743,0,0,0
21.71,12.10,-44.81,1737,-5715,5757,0,-1,0
21.70,12.10,-44.79,1747,-5711,5756,0,-1,0
21.70,12.11,-44.78,1735,-5707,5750,0,-1,0
21.70,12.10,-44.76,1711,-5697,5754,0,0,0
21.70,12.11,-44.76,1729,-5708,5762,-1,-1,-1
21.70,12.10,-44.76,1714,-5699,5767,0,-1,0
21.70,12.10,-44.76,1713,-5691,5776,-1,-1,-1
21.70,12.10,-44.78,1714,-5690,5776,-1,-1,-1
21.71,12.11,-44.80,1738,-5690,5779,-2,0,-1
21.72,12.10,-44.83,1737,-5685,5785,-2,0,-1
21.73,12.10,-44.88,1739,-5705,5747,-2,0,-1
21.72,12.08,-44.92,1747,-5715,5741,-2,0,0
21.72,12.07,-44.97,1733,-5730,5715,-2,0,-1
21.72,12.07,-45.00,1745,-5742,5726,-2,0,-1
21.72,12.07,-45.03,1741,-5731,5718,-2,0,-1
21.73,12.06,-45.04,1730,-5740,5706,-1,0,-1
21.73,12.06,-45.06,1737,-5749,5704,-1,0,-1
21.73,12.06,-45.06,1746,-5763,5712,0,0,-1
21.74,12.06,-45.06,1750,-5757,5717,0,0,-1
21.74,12.06,-45.05,1738,-5757,5716,0,0,-1
21.75,12.06,-45.03,1747,-5758,5713,1,0,-1
21.76,12.05,-45.00,1743,-5752,5723,0,0,-1
21.77,12.04,-44.97,1733,-5742,5719,0,0,-1
21.77,12.04,-44.94,1721,-5729,5737,0,0,-1
21.78,12.03,-44.92,1719,-5719,5745,0,0,-1
21.79,12.03,-44.90,1725,-5703,5754,0,0,-1
21.79,12.03,-44.89,1730,-5685,5758,0,0,-1
21.80,12.03,-44.88,1726,-5679,5764,-1,-1,-1
21.81,12.03,-44.89,1732,-5693,5775,-1,0,-1
21.80,12.03,-44.91,1729,-5703,5764,-1,0,0
21.80,12.02,-44.93,1722,-5721,5768,-1,0,0
21.80,12.02,-44.95,1726,-5728,5756,-1,0,-1
21.80,12.02,-44.96,1716,-5742,5737,-1,0,-1
21.80,12.01,-44.98,1714,-5741,5719,-1,0,-1
21.81,12.01,-44.99,1724,-5746,5722,-1,0,-1
21.82,12.01,-44.99,1721,-5743,5724,-1,0,-1
21.82,12.00,-45.00,1734,-5742,5723,-1,0,0
21.82,11.99,-45.00,1727,-5736,5734,-1,0,0
21.82,11.98,-45.00,1729,-5727,5732,-1,0,0
21.82,11.97,-45.00,1720,-5726,5738,-1,0,0
21.82,11.96,-45.01,1724,-5730,5739,-1,0,-1
21.82,11.95,-45.01,1714,-5730,5743,-1,0,-1
21.82,11.94,-45.01,1707,-5725,5746,-1,0,-1
21.82,11.93,-45.02,1709,-5728,5753,-1,0,-1
21.83,11.93,-45.03,1709,-5736,5752,-1,0,-1
21.83,11.92,-45.04,1711,-5734,5737,-1,0,-1
21.82,11.92,-45.06,1712,-5739,5728,-1,0,-1
21.83,11.92,-45.07,1710,-5739,5739,-1,0,-1
21.83,11.92,-45.07,1712,-5741,5731,-1,0,-1
21.83,11.91,-45.08,1716,-5741,5728,-1,0,-1
21.83,11.91,-45.09,1719,-5735,5722,-1,0,0
21.83,11.91,-45.10,1727,-5743,5717,-1,0,-1
21.83,11.90,-45.10,1725,-5743,5724,-1,0,-1
21.84,11.89,-45.11,1713,-5733,5722,-1,0,-1
21.84,11.88,-45.11,1704,-5736,5731,-1,0,-1
21.84,11.88,-45.12,1712,-5746,5725,-1,0,-1
21.84,11.87,-45.13,1704,-5748,5719,-1,0,-1
21.85,11.87,-45.13,1703,-5745,5725,-1,0,-1
21.85,11.87,-45.14,1702,-5746,5715,-1,0,-1
21.85,11.86,-45.14,1705,-5747,5714,-1,0,-1
21.85,11.86,-45.15,1698,-5746,5711,-1,0,-1
21.85,11.86,-45.15,1706,-5743,5708,-1,0,0
21.85,11.86,-45.15,1703,-5748,5718,0,-1,-1
21.85,11.86,-45.15,1705,-5748,5725,-1,-1,-1
21.85,11.87,-45.15,1706,-5750,5721,-1,-1,-1
21.86,11.88,-45.15,1707,-5755,5714,0,-1,-1
21.85,11.88,-45.15,1713,-5760,5722,0,-1,-1
21.85,11.89,-45.14,1718,-5751,5719,0,-1,0
21.85,11.88,-45.14,1709,-5746,5712,0,-1,0
21.85,11.89,-45.14,1705,-5744,5719,0,-1,0
21.85,11.89,-45.14,1706,-5743,5721,0,-1,0
21.85,11.90,-45.13,1701,-5745,5715,0,-1,-1
21.86,11.91,-45.11,1701,-5740,5719,0,-1,0
21.86,11.91,-45.11,1710,-5752,5726,0,-1,-1
21.86,11.92,-45.10,1716,-5747,5734,0,-1,0
21.86,11.93,-45.10,1711,-5750,5721,0,-1,0
21.86,11.93,-45.09,1709,-5743,5730,0,-1,0
21.86,11.94,-45.08,1718,-5744,5720,0,-1,0
21.86,11.94,-45.08,1718,-5742,5720,0,-1,0
21.86,11.95,-45.07,1715,-5747,5722,0,-1,-1
21.86,11.95,-45.06,1709,-5740,5727,0,-1,0
21.86,11.95,-45.05,1709,-5736,5718,0,-1,0
21.85,11.96,-45.04,1711,-5738,5720,0,-1,0
21.86,11.97,-45.04,1721,-5733,5731,0,-1,0
21.86,11.97,-45.02,1724,-5726,5738,0,-1,0
21.86,11.98,-45.01,1728,-5728,5735,0,-1,0
21.86,11.98,-45.00,1722,-5724,5734,0,-1,0
21.86,11.98,-45.00,1725,-5725,5733,0,-1,0
21.86,11.99,-44.99,1721,-5725,5739,0,-1,0
21.86,11.99,-44.99,1723,-5723,5737,0,-1,0
21.86,12.00,-44.99,1718,-5727,5738,0,-1,-1
21.86,12.00,-44.98,1719,-5725,5740,0,-1,0
21.86,12.01,-44.98,1719,-5736,5739,0,-1,-1
21.86,12.01,-44.98,1730,-5741,5731,0,-1,-1
21.86,12.03,-44.97,1734,-5741,5729,0,-1,-1
21.86,12.03,-44.96,1725,-5733,5729,0,-1,0
21.86,12.03,-44.95,1730,-5732,5730,0,-1,0
21.86,12.03,-44.94,1733,-5726,5742,0,-1,0
21.86,12.04,-44.93,1732,-5725,5734,0,-1,-1
21.86,12.04,-44.92,1737,-5717,5730,0,-1,0
21.86,12.05,-44.91,1737,-5714,5738,0,-1,0
21.86,12.06,-44.90,1737,-5713,5744,0,-1,0
21.86,12.06,-44.90,1732,-5715,5743,0,-1,0
21.85,12.05,-44.90,1725,-5724,5746,0,-1,0
21.85,12.06,-44.90,1720,-5720,5745,0,-1,0
21.86,12.07,-44.89,1725,-5726,5739,0,-1,0
21.85,12.07,-44.89,1726,-5730,5744,0,-1,-1
21.85,12.08,-44.89,1731,-5726,5733,0,-1,0
21.85,12.08,-44.88,1731,-5722,5737,0,-1,0
21.85,12.08,-44.88,1729,-5721,5734,0,-1,0
21.85,12.08,-44.87,1728,-5716,5731,0,-1,0
21.84,12.08,-44.87,1733,-5718,5744,0,-1,0
21.85,12.09,-44.86,1727,-5719,5746,0,-1,-1
21.85,12.10,-44.85,1736,-5726,5747,0,-1,0
21.85,12.09,-44.85,1736,-5721,5754,0,-1,0
21.84,12.09,-44.84,1734,-5714,5748,0,-1,0
21.84,12.09,-44.84,1733,-5704,5746,0,-1,0
21.84,12.09,-44.83,1728,-5711,5748,0,-1,0
21.84,12.10,-44.83,1728,-5719,5744,0,-1,-1
21.83,12.10,-44.83,1730,-5719,5755,0,-1,0
21.84,12.11,-44.82,1744,-5713,5761,0,-1,0
21.83,12.11,-44.82,1737,-5708,5749,-1,-1,-1
21.83,12.11,-44.81,1747,-5701,5751,0,-1,0
21.83,12.11,-44.82,1740,-5702,5748,0,-1,0
21.83,12.12,-44.81,1740,-5716,5740,0,-1,0
21.83,12.12,-44.81,1731,-5716,5740,0,-1,0
21.83,12.11,-44.81,1732,-5723,5741,0,0,-1
21.83,12.12,-44.80,1725,-5717,5734,0,-1,-1
21.83,12.13,-44.80,1735,-5718,5730,0,-1,-1
21.82,12.12,-44.78,1741,-5710,5736,0,-1,0
21.83,12.13,-44.78,1749,-5704,5739,0,-1,0
21.82,12.13,-44.77,1748,-5708,5743,0,-1,0
21.82,12.13,-44.77,1749,-5700,5747,0,-1,0
21.82,12.13,-44.76,1740,-5706,5755,0,-1,0
21.81,12.13,-44.76,1737,-5698,5761,0,-1,0
21.81,12.12,-44.76,1730,-5696,5755,0,-1,0
21.81,12.12,-44.76,1734,-5697,5756,-1,-1,0
21.80,12.13,-44.76,1734,-5701,5746,-1,-1,0
21.80,12.13,-44.76,1742,-5705,5748,-1,-1,0
21.80,12.14,-44.77,1745,-5712,5749,0,-1,0
21.80,12.14,-44.77,1744,-5717,5742,0,-1,0
21.80,12.14,-44.77,1742,-5710,5740,0,-1,0
21.79,12.14,-44.76,1742,-5711,5746,0,0,0
21.80,12.13,-44.75,1741,-5709,5746,0,-1,0
21.79,12.13,-44.74,1743,-5703,5739,0,0,0
21.79,12.14,-44.74,1752,-5696,5747,0,-1,0
21.79,12.14,-44.74,1756,-5682,5745,0,-1,0
21.78,12.14,-44.73,1756,-5680,5755,0,-1,0
21.78,12.13,-44.73,1738,-5687,5749,-1,-1,0
21.77,12.14,-44.74,1751,-5702,5762,0,-1,0
21.77,12.14,-44.74,1745,-5707,5757,-1,-1,0
21.76,12.13,-44.74,1747,-5711,5757,0,-1,0
21.77,12.14,-44.74,1736,-5706,5754,-1,-1,0
21.76,12.15,-44.74,1747,-5709,5748,0,-1,0
21.77,12.15,-44.74,1759,-5704,5754,0,-1,0
21.76,12.15,-44.73,1753,-5703,5755,0,-1,0
21.76,12.15,-44.73,1750,-5698,5757,0,0,0
21.75,12.14,-44.73,1747,-5697,5757,0,-1,0
21.75,12.14,-44.72,1742,-5694,5761,0,-1,0
21.75,12.14,-44.71,1741,-5687,5768,0,-1,0
21.75,12.14,-44.71,1737,-5690,5772,-1,0,-1
21.75,12.14,-44.72,1747,-5690,5768,-1,-1,-1
21.75,12.14,-44.72,1748,-5690,5762,-1,0,-1
21.76,12.14,-44.73,1744,-5688,5752,-1,0,-1
21.76,12.13,-44.74,1746,-5698,5740,-1,0,-1
21.75,12.13,-44.75,1739,-5705,5732,-1,0,0
21.76,12.12,-44.76,1739,-5708,5755,-1,0,-1
21.76,12.11,-44.76,1736,-5707,5761,-1,0,-1
21.76,12.10,-44.77,1745,-5709,5765,-1,0,-1
21.77,12.10,-44.78,1741,-5710,5759,-1,0,-1
21.77,12.09,-44.79,1736,-5701,5760,-1,0,-1
21.77,12.09,-44.80,1737,-5693,5741,-1,0,-1
21.78,12.09,-44.81,1749,-5685,5759,-1,0,-1
21.79,12.09,-44.82,1752,-5688,5762,-1,0,-1
21.78,12.07,-44.84,1741,-5706,5760,-1,0,0
21.78,12.05,-44.86,1742,-5728,5772,-1,0,0
21.78,12.04,-44.87,1715,-5724,5754,-1,1,-1
21.78,12.02,-44.89,1700,-5718,5754,-1,0,-1
21.79,12.00,-44.91,1708,-5706,5744,-2,0,-1
21.81,12.00,-44.94,1727,-5719,5742,-2,0,-1
21.82,11.99,-44.96,1735,-5702,5757,-2,1,-1
21.83,11.98,-44.99,1758,-5703,5767,-2,0,-1
21.83,11.96,-45.02,1758,-5714,5755,-2,1,0
21.83,11.93,-45.06,1725,-5714,5733,-2,0,0
21.82,11.91,-45.10,1726,-5713,5748,-2,1,0
21.82,11.88,-45.14,1707,-5725,5751,-2,0,0
21.81,11.87,-45.19,1698,-5735,5714,-2,1,-1
21.82,11.86,-45.22,1695,-5746,5741,-2,0,-1
21.81,11.87,-45.27,1698,-5729,5746,-3,-2,0
21.82,11.88,-45.33,1712,-5791,5706,-2,0,-1
21.81,11.88,-45.37,1736,-5782,5689,-1,0,-1
21.81,11.86,-45.41,1707,-5775,5698,-2,0,0
21.81,11.86,-45.43,1720,-5789,5685,-1,-1,-1
21.81,11.86,-45.46,1721,-5790,5663,-1,0,-1
21.82,11.85,-45.46,1717,-5774,5698,-1,1,0
21.81,11.82,-45.47,1695,-5766,5671,-1,0,0
21.82,11.83,-45.48,1728,-5762,5705,-1,0,0
21.81,11.80,-45.49,1705,-5790,5701,-1,0,-1
21.81,11.79,-45.49,1693,-5759,5688,-1,0,0
21.81,11.78,-45.50,1697,-5759,5721,-1,0,-1
21.81,11.78,-45.52,1683,-5790,5716,-2,-1,-1
21.81,11.79,-45.54,1703,-5785,5665,-1,0,-1
21.81,11.76,-45.54,1681,-5763,5713,-1,0,-1
21.82,11.78,-45.57,1689,-5796,5688,-1,-1,-1
21.82,11.78,-45.58,1706,-5794,5701,-1,0,0
21.82,11.77,-45.59,1705,-5781,5708,-1,0,-1
21.82,11.76,-45.60,1690,-5781,5679,-1,0,0
21.82,11.76,-45.61,1708,-5802,5684,-1,0,-1
21.82,11.75,-45.62,1701,-5801,5666,-1,0,-1
21.83,11.75,-45.61,1708,-5801,5679,0,0,-1
21.83,11.74,-45.61,1685,-5781,5680,-1,0,-1
21.84,11.75,-45.60,1701,-5786,5682,0,-1,-1
21.85,11.75,-45.59,1695,-5798,5678,0,-1,-1
21.85,11.76,-45.58,1707,-5806,5687,0,0,-1
21.86,11.76,-45.57,1700,-5791,5693,0,-1,-1
21.86,11.77,-45.55,1699,-5783,5679,0,-1,-1
21.86,11.77,-45.54,1697,-5780,5680,0,-1,0
21.87,11.78,-45.52,1701,-5783,5686,0,0,-1
21.87,11.77,-45.50,1689,-5783,5697,0,-1,-1
21.87,11.78,-45.49,1687,-5780,5706,0,-1,-1
21.88,11.79,-45.47,1688,-5775,5702,0,-1,-1
21.88,11.80,-45.45,1686,-5767,5702,0,-1,-1
21.89,11.81,-45.44,1701,-5759,5713,0,-1,-1
21.89,11.83,-45.43,1711,-5762,5710,0,-1,-1
21.90,11.84,-45.42,1723,-5763,5705,0,-1,0
21.89,11.85,-45.41,1717,-5762,5711,0,-1,0
21.89,11.86,-45.41,1714,-5776,5719,0,-1,0
21.89,11.86,-45.40,1711,-5777,5716,0,-1,0
21.89,11.87,-45.39,1703,-5784,5706,0,-1,0
21.88,11.87,-45.38,1696,-5777,5704,0,-1,0
21.89,11.88,-45.37,1698,-5774,5713,0,-1,-1
21.90,11.89,-45.35,1704,-5769,5713,0,-1,-1
21.90,11.90,-45.34,1723,-5763,5721,0,-1,-1
21.90,11.91,-45.33,1720,-5745,5716,0,-1,0
21.90,11.92,-45.31,1724,-5738,5712,0,-1,0
21.90,11.92,-45.30,1720,-5741,5724,0,-1,0
21.90,11.93,-45.29,1722,-5747,5719,0,-1,0
21.90,11.94,-45.29,1718,-5756,5714,0,-1,0
21.90,11.94,-45.28,1714,-5757,5718,0,-1,0
21.90,11.94,-45.28,1708,-5755,5708,0,-1,-1
21.90,11.95,-45.27,1705,-5753,5715,0,-1,-1
21.90,11.96,-45.27,1722,-5751,5714,0,-1,-1
21.91,11.97,-45.26,1732,-5753,5717,0,-1,0
21.90,11.98,-45.26,1737,-5749,5716,0,-1,0
21.91,11.98,-45.25,1741,-5756,5718,0,-1,0
21.91,11.99,-45.24,1734,-5746,5714,0,-1,0
21.91,11.99,-45.23,1730,-5742,5718,0,-1,0
21.91,11.99,-45.22,1725,-5736,5731,0,-1,0
21.91,12.00,-45.21,1728,-5744,5725,0,-1,0
21.91,12.00,-45.20,1726,-5741,5728,0,-1,0
21.91,12.00,-45.19,1725,-5740,5730,0,-1,0
21.91,12.00,-45.19,1729,-5743,5734,0,-1,-1
21.91,12.01,-45.18,1728,-5731,5724,0,-1,0
21.91,12.01,-45.18,1729,-5738,5721,0,-1,-1
21.91,12.02,-45.18,1733,-5743,5720,0,-1,0
21.91,12.02,-45.17,1731,-5737,5723,0,-1,-1
21.91,12.03,-45.16,1724,-5738,5736,0,-1,0
21.91,12.03,-45.15,1732,-5734,5735,0,-1,0
21.91,12.03,-45.15,1731,-5729,5733,0,-1,0
21.91,12.03,-45.14,1732,-5722,5728,0,-1,0
21.90,12.04,-45.14,1739,-5738,5718,0,-1,0
21.91,12.04,-45.13,1733,-5733,5739,0,-1,0
21.91,12.04,-45.13,1730,-5735,5738,0,-1,-1
21.91,12.05,-45.13,1739,-5743,5723,0,-1,-1
21.92,12.07,-45.12,1751,-5734,5714,0,-1,-1
21.92,12.06,-45.11,1753,-5721,5711,0,0,0
21.92,12.07,-45.10,1743,-5721,5728,0,-1,0
21.91,12.07,-45.10,1742,-5730,5725,0,-1,0
21.91,12.06,-45.09,1739,-5735,5724,0,-1,0
21.91,12.06,-45.09,1737,-5737,5718,0,0,0
21.91,12.06,-45.09,1733,-5733,5729,0,-1,0
21.91,12.07,-45.08,1740,-5729,5733,0,-1,-1
21.92,12.08,-45.08,1750,-5723,5733,0,-1,-1
21.92,12.08,-45.07,1746,-5716,5734,0,-1,0
21.92,12.08,-45.07,1750,-5722,5731,-1,-1,0
21.91,12.08,-45.07,1753,-5720,5734,0,0,0
21.91,12.08,-45.07,1751,-5726,5729,0,0,0
21.91,12.08,-45.07,1746,-5740,5731,0,-1,0
21.91,12.08,-45.06,1743,-5738,5731,0,-1,0
21.91,12.08,-45.05,1736,-5727,5739,0,-1,-1
21.92,12.08,-45.04,1744,-5727,5738,0,0,-1
21.92,12.07,-45.02,1743,-5716,5737,0,0,0
21.92,12.08,-45.02,1755,-5715,5730,0,-1,-1
21.92,12.08,-45.01,1750,-5714,5725,0,-1,0
21.92,12.08,-45.00,1752,-5713,5738,0,0,0
21.91,12.07,-44.99,1746,-5706,5740,-1,0,0
21.91,12.07,-44.99,1751,-5719,5751,0,-1,0
21.91,12.07,-44.99,1741,-5716,5743,-1,0,0
21.90,12.06,-44.99,1727,-5725,5730,0,-1,0
21.91,12.08,-45.00,1736,-5729,5729,0,-1,-1
21.91,12.08,-44.99,1739,-5731,5735,0,-1,0
21.91,12.07,-44.98,1740,-5722,5737,0,0,0
21.91,12.07,-44.98,1744,-5728,5739,-1,-1,0
21.91,12.08,-44.98,1757,-5726,5734,0,0,0
21.91,12.07,-44.98,1753,-5728,5736,-1,0,0
21.91,12.08,-44.98,1749,-5719,5735,0,-1,0
21.91,12.08,-44.97,1754,-5709,5743,0,-1,0
21.91,12.08,-44.96,1747,-5714,5745,0,-1,0
21.90,12.08,-44.96,1741,-5714,5751,0,-1,0
21.90,12.08,-44.96,1739,-5720,5752,0,0,0
21.90,12.08,-44.95,1738,-5723,5752,0,-1,0
21.90,12.08,-44.95,1740,-5721,5745,0,-1,0
21.90,12.08,-44.95,1739,-5723,5740,0,-1,0
21.90,12.09,-44.95,1746,-5719,5734,0,-1,0
21.89,12.08,-44.94,1748,-5717,5749,0,-1,0
21.89,12.08,-44.93,1745,-5715,5751,0,-1,0
21.89,12.09,-44.91,1747,-5712,5750,0,-1,0
21.89,12.09,-44.91,1755,-5713,5744,0,-1,0
21.89,12.09,-44.89,1751,-5712,5744,0,-1,0
21.89,12.08,-44.88,1753,-5702,5751,0,0,0
21.90,12.09,-44.87,1761,-5706,5755,0,-1,-1
21.89,12.10,-44.86,1766,-5710,5762,0,-1,0
21.90,12.10,-44.85,1750,-5704,5763,0,-1,0
21.89,12.10,-44.84,1737,-5702,5758,0,-1,0
21.89,12.10,-44.84,1739,-5696,5760,-1,-1,0
21.89,12.10,-44.84,1743,-5705,5758,0,-1,0
21.89,12.11,-44.84,1745,-5698,5756,0,-1,-1
21.89,12.11,-44.84,1756,-5692,5779,-1,0,0
21.90,12.11,-44.84,1759,-5673,5767,-1,0,-1
21.90,12.11,-44.84,1762,-5670,5761,-1,0,-1
21.90,12.10,-44.85,1756,-5687,5758,-1,0,0
21.91,12.10,-44.87,1753,-5708,5757,-1,0,-1
21.91,12.09,-44.88,1736,-5706,5761,-1,0,-1
21.91,12.08,-44.88,1733,-5715,5747,-1,0,-1
21.91,12.08,-44.89,1734,-5715,5748,-1,0,-1
21.92,12.08,-44.90,1736,-5724,5752,-1,0,-1
21.93,12.08,-44.90,1738,-5714,5747,-1,0,-1
21.94,12.08,-44.90,1746,-5706,5749,-1,0,-1
21.95,12.07,-44.90,1751,-5706,5751,-1,0,-1
21.95,12.08,-44.90,1755,-5699,5753,-1,0,-1
21.95,12.07,-44.91,1747,-5701,5744,-1,0,-1
21.95,12.06,-44.91,1743,-5708,5750,-1,0,0
21.96,12.06,-44.92,1737,-5702,5750,-1,0,-1
21.96,12.05,-44.93,1730,-5703,5743,-1,0,-1
21.96,12.05,-44.94,1737,-5702,5755,-1,0,-1
21.97,12.04,-44.95,1739,-5725,5747,-1,0,-1
21.97,12.04,-44.97,1743,-5734,5747,-1,0,-1
21.97,12.03,-44.99,1721,-5735,5747,-1,0,-1
21.97,12.02,-45.00,1722,-5732,5741,-1,0,-1
21.98,12.02,-45.01,1735,-5732,5735,-1,0,-1
21.98,12.01,-45.01,1736,-5729,5735,-1,0,-1
21.99,12.01,-45.01,1735,-5717,5733,-1,0,-1
22.00,12.01,-45.02,1748,-5714,5734,-1,0,-1
22.00,12.00,-45.02,1740,-5709,5737,-1,0,-1
22.00,11.98,-45.03,1741,-5710,5735,-1,0,0
22.00,11.97,-45.03,1729,-5715,5750,-1,0,0
22.00,11.96,-45.04,1718,-5717,5745,-1,0,-1
22.00,11.95,-45.05,1714,-5717,5753,-1,0,-1
22.01,11.95,-45.06,1716,-5724,5739,-1,0,-1
22.01,11.94,-45.08,1716,-5729,5738,-1,0,-1
22.02,11.94,-45.08,1723,-5731,5733,-1,0,-1
22.02,11.93,-45.09,1733,-5729,5734,-1,0,-1
22.03,11.93,-45.10,1733,-5731,5732,-1,0,-1
22.03,11.92,-45.11,1729,-5727,5730,-1,0,-1
22.03,11.92,-45.12,1723,-5730,5731,-1,0,-1
22.03,11.91,-45.12,1718,-5731,5734,-1,0,0
22.03,11.90,-45.13,1718,-5727,5731,-1,0,-1
22.03,11.89,-45.14,1715,-5731,5735,-1,0,-1
22.04,11.89,-45.15,1717,-5746,5739,-1,0,-1
22.05,11.89,-45.15,1712,-5741,5736,-1,0,-1
22.05,11.88,-45.16,1708,-5739,5727,-1,0,-1
22.06,11.88,-45.17,1708,-5737,5727,-1,0,-1
22.06,11.87,-45.18,1713,-5744,5733,-1,0,-1
22.06,11.87,-45.19,1715,-5741,5729,-1,0,0
22.06,11.86,-45.20,1709,-5746,5732,-1,0,-1
22.06,11.85,-45.21,1709,-5744,5737,-1,0,-1
22.07,11.85,-45.21,1715,-5748,5736,-1,0,-1
22.07,11.84,-45.22,1719,-5742,5731,-1,0,0
22.07,11.84,-45.23,1724,-5744,5728,-1,0,-1
22.08,11.84,-45.25,1722,-5739,5725,-1,0,0
22.07,11.83,-45.26,1719,-5751,5725,-1,0,0
22.07,11.82,-45.27,1708,-5765,5717,-1,0,-1
22.07,11.81,-45.28,1700,-5764,5716,-1,0,-1
22.07,11.80,-45.29,1696,-5760,5711,-1,0,-1
22.08,11.80,-45.30,1695,-5753,5702,-1,0,-1
22.08,11.81,-45.30,1697,-5757,5703,0,-1,-1
22.09,11.81,-45.30,1697,-5751,5697,-1,-1,0
22.08,11.82,-45.30,1707,-5748,5713,-1,-1,0
22.08,11.82,-45.30,1711,-5741,5731,-1,-1,0
22.08,11.83,-45.32,1711,-5759,5712,0,0,0
22.08,11.82,-45.31,1701,-5748,5721,-1,-1,0
22.08,11.82,-45.31,1694,-5757,5706,-1,0,-1
22.08,11.82,-45.31,1694,-5757,5717,-1,-1,-1
22.08,11.83,-45.31,1704,-5763,5721,0,-1,-1
22.08,11.83,-45.31,1706,-5760,5717,-1,-1,-1
22.09,11.85,-45.31,1707,-5760,5717,0,-1,-1
22.09,11.85,-45.31,1713,-5756,5716,0,-1,0
22.09,11.86,-45.31,1719,-5767,5710,0,-1,0
22.09,11.85,-45.30,1710,-5772,5710,0,0,0
22.10,11.86,-45.28,1713,-5758,5717,0,-1,-1
22.10,11.86,-45.27,1714,-5749,5727,0,-1,-1
22.10,11.87,-45.27,1726,-5743,5733,0,-1,0
22.10,11.87,-45.26,1722,-5746,5734,0,-1,0
22.10,11.88,-45.25,1718,-5746,5735,0,-1,0
22.10,11.88,-45.24,1714,-5747,5727,0,-1,0
22.10,11.89,-45.24,1714,-5753,5720,0,-1,-1
22.10,11.89,-45.24,1709,-5751,5715,0,-1,0
22.10,11.90,-45.24,1708,-5751,5713,0,-1,-1
22.11,11.91,-45.23,1713,-5750,5708,0,-1,-1
22.11,11.92,-45.23,1716,-5750,5715,0,-1,0
22.11,11.93,-45.22,1717,-5745,5712,0,-1,0
22.11,11.93,-45.22,1723,-5744,5720,0,-1,0
22.11,11.93,-45.21,1724,-5760,5722,0,-1,0
22.11,11.94,-45.20,1714,-5750,5725,0,-1,0
22.11,11.94,-45.19,1709,-5749,5717,0,-1,-1
22.11,11.94,-45.19,1714,-5735,5723,0,-1,-1
22.12,11.95,-45.18,1719,-5745,5730,0,-1,-1
22.11,11.96,-45.18,1720,-5753,5734,0,-1,-1
22.11,11.96,-45.18,1726,-5755,5733,0,-1,0
22.12,11.97,-45.17,1738,-5744,5726,0,-1,0
22.12,11.97,-45.16,1738,-5728,5728,0,0,0
22.11,11.97,-45.16,1728,-5724,5711,0,0,0
22.11,11.97,-45.16,1714,-5723,5710,0,-1,0
22.11,11.97,-45.15,1720,-5741,5719,0,-1,-1
22.11,11.98,-45.15,1722,-5744,5733,0,-1,0
22.11,11.98,-45.14,1729,-5737,5735,0,-1,0
22.12,11.99,-45.14,1730,-5738,5727,0,-1,-1
22.12,12.00,-45.13,1733,-5731,5729,0,-1,0
22.12,12.01,-45.12,1742,-5727,5732,0,-1,0
22.12,12.01,-45.12,1735,-5731,5736,0,-1,0
22.12,12.01,-45.11,1732,-5734,5740,0,-1,0
22.11,12.01,-45.11,1730,-5739,5737,0,-1,0
22.11,12.01,-45.11,1722,-5748,5730,0,-1,0
22.11,12.01,-45.11,1718,-5746,5733,0,-1,-1
22.11,12.02,-45.10,1722,-5736,5723,0,-1,-1
22.12,12.03,-45.08,1731,-5719,5732,0,-1,0
22.12,12.04,-45.07,1740,-5719,5728,0,-1,0
22.12,12.04,-45.06,1745,-5715,5731,0,-1,0
22.12,12.04,-45.06,1753,-5726,5745,0,-1,0
22.11,12.04,-45.05,1741,-5726,5746,0,0,0
22.11,12.03,-45.04,1735,-5729,5750,0,-1,0
22.10,12.03,-45.03,1729,-5730,5748,0,0,0
22.10,12.03,-45.03,1732,-5727,5745,-1,0,0
22.11,12.03,-45.04,1739,-5729,5736,-1,0,0
22.10,12.03,-45.05,1740,-5721,5746,-1,-1,0
22.10,12.03,-45.06,1742,-5727,5724,-1,-1,0
22.09,12.02,-45.07,1739,-5736,5729,-1,0,0
22.09,12.02,-45.07,1736,-5732,5735,-1,0,0
22.08,12.02,-45.08,1729,-5739,5739,-1,-1,0
22.08,12.02,-45.09,1738,-5732,5726,-1,0,0
22.08,12.02,-45.08,1735,-5725,5724,0,-1,0
22.08,12.02,-45.08,1742,-5721,5736,0,-1,0
22.08,12.02,-45.08,1727,-5730,5735,-1,0,0
22.07,12.02,-45.08,1732,-5728,5730,0,-1,0
22.07,12.02,-45.07,1736,-5720,5749,-1,-1,0
22.06,12.02,-45.08,1730,-5733,5741,0,-1,0
22.06,12.02,-45.07,1723,-5732,5741,0,0,0
22.06,12.02,-45.07,1725,-5732,5732,-1,-1,0
22.06,12.02,-45.07,1733,-5737,5728,0,-1,0
22.06,12.02,-45.06,1740,-5731,5740,0,-1,0
22.06,12.03,-45.05,1744,-5731,5744,0,-1,0
22.06,12.03,-45.04,1743,-5716,5742,0,-1,0
22.05,12.03,-45.04,1746,-5708,5737,0,-1,0
22.05,12.03,-45.04,1731,-5719,5737,0,-1,0
22.05,12.04,-45.03,1739,-5729,5744,0,-1,0
22.05,12.04,-45.01,1726,-5723,5739,0,-1,0
22.04,12.04,-45.00,1733,-5731,5733,0,-1,-1
22.04,12.05,-44.99,1741,-5720,5744,0,-1,0
22.05,12.06,-44.98,1750,-5713,5728,0,0,-1
22.05,12.05,-44.96,1742,-5702,5730,0,0,0
22.06,12.06,-44.95,1743,-5699,5749,0,-1,0
22.05,12.06,-44.94,1743,-5707,5758,0,-1,0
22.06,12.06,-44.93,1744,-5712,5751,0,-1,0
22.05,12.07,-44.92,1746,-5714,5754,0,-1,0
22.05,12.07,-44.91,1746,-5704,5754,0,-1,0
22.06,12.09,-44.90,1756,-5702,5757,0,-1,0
22.06,12.09,-44.89,1760,-5696,5759,0,-1,0
22.06,12.09,-44.88,1762,-5699,5756,0,-1,0
22.05,12.09,-44.88,1757,-5710,5750,0,-1,0
22.05,12.09,-44.88,1751,-5714,5750,0,-1,0
22.05,12.09,-44.87,1742,-5713,5744,0,0,-1
22.05,12.09,-44.87,1744,-5715,5745,0,-1,-1
22.06,12.10,-44.86,1750,-5701,5747,-1,0,-1
22.07,12.11,-44.86,1757,-5699,5755,-1,0,-1
22.08,12.11,-44.87,1766,-5698,5760,-1,0,-1
22.08,12.11,-44.87,1765,-5702,5757,-1,0,-1
22.08,12.10,-44.88,1759,-5700,5751,-1,0,-1
22.08,12.09,-44.88,1747,-5698,5760,-1,0,-1
22.09,12.08,-44.89,1738,-5688,5769,-1,0,-1
22.09,12.06,-44.91,1730,-5705,5765,-1,0,-1
22.09,12.05,-44.92,1741,-5709,5760,-1,0,-1
22.09,12.05,-44.95,1733,-5720,5750,-1,0,-1
22.09,12.04,-44.96,1726,-5724,5743,-1,0,-1
22.10,12.04,-44.98,1732,-5725,5750,-1,0,-1
22.11,12.04,-45.00,1733,-5740,5729,-1,0,-1
22.12,12.04,-45.01,1744,-5741,5721,-1,0,-1
22.12,12.03,-45.02,1750,-5741,5727,-1,0,-1
22.12,12.01,-45.02,1748,-5720,5737,-1,0,-1
22.13,12.00,-45.03,1734,-5716,5742,-1,0,-1
22.13,11.99,-45.04,1735,-5725,5743,-1,0,-1
22.13,11.98,-45.04,1737,-5727,5740,-1,0,-1
22.14,11.98,-45.05,1729,-5727,5753,-1,0,-1
22.14,11.97,-45.05,1716,-5723,5764,-1,0,-1
22.15,11.97,-45.07,1719,-5727,5753,-1,0,-1
22.15,11.97,-45.08,1727,-5731,5734,-1,0,-1
22.15,11.97,-45.10,1733,-5735,5724,-1,0,-1
22.16,11.96,-45.11,1733,-5735,5730,-1,0,-1
22.17,11.96,-45.12,1732,-5739,5730,-1,0,-1
22.18,11.95,-45.12,1729,-5738,5730,-1,0,-1
22.17,11.94,-45.13,1733,-5735,5722,-1,0,-1
22.18,11.93,-45.14,1726,-5735,5714,-1,0,-1
22.18,11.92,-45.15,1722,-5735,5721,-1,0,-1
22.19,11.92,-45.16,1723,-5746,5727,-1,0,-1
22.19,11.91,-45.16,1723,-5743,5732,-1,0,-1
22.19,11.90,-45.16,1715,-5739,5726,-1,0,-1
22.20,11.90,-45.17,1712,-5740,5736,-1,0,-1
22.21,11.90,-45.18,1720,-5739,5741,-1,0,-1
22.20,11.89,-45.19,1721,-5744,5739,-1,0,-1
22.21,11.88,-45.20,1709,-5745,5728,-1,0,-1
22.21,11.88,-45.21,1719,-5749,5733,-1,0,-1
22.22,11.88,-45.22,1716,-5744,5726,-1,0,-1
22.22,11.87,-45.22,1723,-5748,5729,-1,0,-1
22.23,11.87,-45.24,1727,-5739,5726,-1,0,-1
22.23,11.87,-45.25,1727,-5741,5717,-1,0,-1
22.23,11.86,-45.26,1723,-5748,5719,-1,0,0
22.23,11.85,-45.27,1718,-5755,5716,-1,0,0
22.23,11.84,-45.28,1716,-5754,5722,-1,0,-1
22.24,11.83,-45.29,1703,-5766,5719,-1,0,-1
22.24,11.83,-45.29,1702,-5773,5716,-1,0,-1
22.24,11.82,-45.29,1700,-5758,5713,-1,0,-1
22.25,11.82,-45.29,1706,-5755,5718,-1,0,-1
22.25,11.82,-45.30,1717,-5749,5707,-1,0,-1
22.25,11.82,-45.30,1721,-5745,5712,-1,0,0
22.26,11.81,-45.31,1712,-5746,5707,-1,0,0
22.26,11.80,-45.32,1719,-5758,5710,-1,0,0
22.26,11.79,-45.33,1703,-5758,5721,-1,0,0
22.25,11.78,-45.34,1693,-5757,5717,-1,0,-1
22.26,11.78,-45.35,1688,-5761,5717,-1,0,-1
22.26,11.78,-45.36,1695,-5766,5710,-1,0,-1
22.26,11.78,-45.37,1705,-5767,5715,-1,-1,-1
22.26,11.79,-45.38,1693,-5759,5729,-1,-2,0
22.26,11.81,-45.41,1719,-5781,5683,0,0,-1
22.26,11.80,-45.41,1715,-5769,5690,-1,0,0
22.27,11.80,-45.41,1709,-5773,5691,0,0,0
22.27,11.80,-45.40,1702,-5757,5705,-1,0,-1
22.27,11.80,-45.40,1710,-5766,5699,0,-1,0
22.27,11.80,-45.40,1704,-5765,5702,0,-1,0
22.26,11.79,-45.40,1699,-5769,5705,0,0,0
22.26,11.79,-45.39,1698,-5768,5707,-1,-1,-1
22.27,11.81,-45.40,1700,-5767,5696,-1,-1,-1
22.27,11.82,-45.40,1705,-5776,5696,0,-1,-1
