Yaw,Pitch,Roll,AX,AY,AZ,GX,GY,GZ
-108.30,38.69,-59.91,4988,-5515,3271,7,-2,-6
-108.14,38.86,-59.70,5054,-5488,3409,4,-4,-5
-108.00,38.98,-59.58,5071,-5588,3482,1,-1,-6
-107.85,39.06,-59.47,5094,-5564,3326,3,1,-4
-107.75,39.16,-59.34,5094,-5487,3264,4,-3,-4
-107.71,39.28,-59.23,5118,-5463,3364,2,-5,-4
-107.68,39.37,-59.19,5145,-5495,3400,0,-1,-3
-107.60,39.42,-59.14,5192,-5513,3315,0,0,-2
-107.64,39.46,-59.13,5222,-5515,3279,2,-3,0
-107.72,39.48,-59.12,5282,-5493,3331,2,-4,1
-107.79,39.49,-59.12,5335,-5432,3350,1,-1,1
-107.77,39.46,-59.07,5252,-5430,3367,0,0,0
-107.78,39.46,-59.08,5238,-5458,3326,-1,-1,0
-107.86,39.45,-59.14,5294,-5490,3223,0,-2,1
-107.96,39.43,-59.16,5298,-5484,3189,2,-2,2
-108.04,39.42,-59.14,5284,-5465,3231,3,-2,1
-108.11,39.39,-59.11,5283,-5463,3314,1,-3,1
-108.20,39.37,-59.13,5296,-5465,3302,1,-2,1
-108.25,39.36,-59.10,5290,-5444,3283,2,-2,1
-108.29,39.37,-59.06,5290,-5433,3317,2,-2,1
-108.33,39.37,-59.02,5274,-5434,3368,1,-2,0
-108.33,39.34,-59.00,5243,-5463,3352,0,0,0
-108.34,39.31,-58.98,5191,-5450,3294,1,0,0
-108.37,39.30,-58.96,5166,-5440,3275,1,-2,0
-108.43,39.31,-58.96,5165,-5467,3295,1,-3,0
-108.52,39.31,-58.97,5189,-5495,3316,1,-3,1
-108.61,39.27,-58.99,5205,-5499,3333,1,-2,2
-108.68,39.22,-58.99,5213,-5499,3319,1,-1,2
-108.76,39.18,-58.99,5208,-5505,3320,1,-2,2
-108.83,39.15,-59.01,5229,-5521,3340,0,-2,1
-108.89,39.11,-59.00,5206,-5526,3332,1,0,1
-108.91,39.05,-58.97,5184,-5502,3333,0,0,1
-108.92,39.02,-58.97,5188,-5506,3304,0,0,0
-108.91,39.00,-58.94,5158,-5538,3313,0,0,-1
-108.89,38.97,-58.90,5139,-5558,3298,1,1,0
-108.87,38.92,-58.85,5112,-5514,3276,1,1,1
-108.83,38.89,-58.80,5149,-5493,3308,0,-1,0
-108.85,38.87,-58.83,5209,-5595,3368,-2,0,0
-108.95,38.81,-58.90,5303,-5651,3337,-1,-1,4
-109.03,38.69,-58.91,5380,-5655,3240,2,5,5
-108.99,38.47,-58.77,5321,-5595,3235,4,6,6
-108.97,38.27,-58.63,5289,-5441,3251,3,4,6
-108.96,38.09,-58.54,5219,-5344,3318,1,4,5
-108.96,37.92,-58.51,5210,-5395,3416,-2,4,4
-108.97,37.75,-58.51,5166,-5492,3447,-2,5,3
-108.92,37.59,-58.48,5170,-5533,3432,-2,5,3
-108.77,37.45,-58.41,5145,-5580,3416,-2,9,0
-108.58,37.29,-58.33,5087,-5636,3451,-3,8,1
-108.37,37.09,-58.26,4993,-5663,3392,-3,12,1
-108.13,36.86,-58.16,4915,-5639,3350,-3,11,2
-107.90,36.67,-58.08,4953,-5628,3400,-3,10,1
-107.69,36.47,-58.00,4956,-5651,3492,-3,10,2
-107.49,36.23,-57.93,4854,-5599,3569,-4,10,3
-107.21,35.99,-57.86,4733,-5529,3598,-6,12,1
-107.00,35.82,-57.88,4761,-5539,3632,-8,7,0
-106.82,35.73,-57.96,4835,-5574,3664,-9,6,0
-106.63,35.62,-58.03,4826,-5647,3646,-8,9,-1
-106.37,35.45,-58.01,4768,-5709,3587,-5,10,0
-106.19,35.24,-57.98,4707,-5720,3568,-3,8,3
-106.10,35.03,-57.98,4655,-5627,3603,-4,6,4
-106.08,34.87,-58.06,4639,-5719,3697,-6,3,2
-106.12,34.76,-58.19,4743,-5887,3722,-5,2,1
-106.06,34.62,-58.24,4731,-5960,3596,-2,7,2
-105.89,34.43,-58.15,4670,-5921,3513,1,8,2
-105.77,34.24,-58.08,4674,-5820,3545,-2,6,4
-105.76,34.02,-58.11,4537,-5835,3615,-5,3,5
-105.92,33.84,-58.30,4619,-6011,3521,-5,4,5
-105.97,33.60,-58.35,4596,-6098,3441,1,6,6
-105.91,33.34,-58.22,4520,-6113,3479,5,6,5
-105.99,33.12,-58.14,4503,-6054,3510,3,2,6
-105.98,32.90,-58.03,4423,-6089,3538,4,4,4
-106.02,32.69,-57.88,4416,-6157,3605,8,3,5
-106.02,32.46,-57.66,4408,-6227,3652,9,3,7
-106.14,32.18,-57.41,4289,-6201,3626,13,0,10
-106.41,31.88,-57.15,4225,-6039,3648,15,-2,14
-106.77,31.59,-56.90,4181,-5967,3853,14,-6,14
-107.44,31.32,-56.84,4193,-6112,3983,11,-13,18
-108.19,31.00,-56.82,4288,-6092,3923,13,-10,20
-108.99,30.67,-56.75,4277,-6128,3878,17,-13,21
-109.75,30.32,-56.55,4261,-6067,3964,21,-11,22
-110.34,30.02,-56.26,4300,-5845,4090,18,-10,19
-110.89,29.76,-56.03,4186,-5755,4230,15,-11,17
-111.45,29.49,-55.89,4127,-5741,4280,12,-10,19
-112.25,29.25,-55.91,4142,-5737,4286,8,-19,20
-113.14,29.18,-56.11,4253,-5820,4114,8,-18,15
-113.89,29.06,-56.16,4407,-5770,4059,10,-16,20
-114.58,28.81,-56.15,4142,-5717,4076,9,-9,16
-114.92,28.62,-56.07,4122,-5545,4136,4,-6,13
-115.34,28.47,-56.21,4144,-5512,4035,-4,-3,11
-115.67,28.22,-56.40,3946,-5593,3817,-2,0,11
-115.99,27.94,-56.51,3751,-5643,3791,-1,1,11
-116.35,27.72,-56.67,3708,-5717,3838,-4,-5,10
-116.85,27.55,-56.90,3692,-5885,3767,0,-7,12
-117.31,27.26,-56.95,3605,-5890,3793,6,-3,15
-117.72,26.96,-56.92,3616,-5753,3835,5,-3,14
-118.09,26.69,-56.95,3545,-5682,3767,1,-2,13
-118.45,26.36,-57.00,3483,-5670,3743,2,0,14
-118.88,26.11,-57.11,3524,-5915,4069,-4,-9,11
-119.46,26.13,-57.48,3939,-6385,3953,-3,-11,7
-119.92,25.85,-57.52,3985,-6632,3689,14,1,20
-120.37,25.24,-57.18,3757,-6611,4062,17,-2,23
-120.85,24.84,-56.95,3886,-6470,4321,11,-7,19
-121.31,24.53,-56.83,4009,-6345,4357,7,-2,19
-121.66,24.08,-56.80,3739,-6312,4243,2,5,16
-121.95,23.73,-56.83,3521,-6397,4110,2,0,11
-122.41,23.48,-56.91,3408,-6527,4016,4,-8,13
-122.84,23.21,-56.90,3336,-6526,4069,6,-3,15
-123.23,22.83,-56.85,3170,-6466,4086,5,-1,14
-123.67,22.54,-56.84,3130,-6508,4031,6,-6,13
-124.09,22.35,-56.76,3203,-6552,4007,11,-9,13
-124.43,22.12,-56.54,3207,-6506,4076,15,-5,14
-124.70,21.81,-56.23,3047,-6464,4219,14,-5,13
-125.06,21.64,-56.00,3026,-6503,4460,12,-13,12
-125.43,21.51,-55.84,3081,-6407,4545,9,-8,11
-125.66,21.33,-55.65,2928,-6309,4564,8,-5,9
-125.96,21.29,-55.62,2896,-6403,4543,3,-12,6
-126.32,21.33,-55.66,2939,-6399,4377,6,-14,6
-126.49,21.36,-55.52,2947,-6138,4485,7,-7,4
-126.65,21.42,-55.50,2954,-6116,4705,-3,-12,2
-126.96,21.60,-55.76,3017,-6341,4662,-7,-14,-1
-127.21,21.79,-56.00,3118,-6468,4415,-2,-9,-1
-127.20,21.86,-55.98,3059,-6419,4426,2,-2,-2
-127.20,21.92,-55.96,3014,-6251,4589,-4,-5,-1
-127.29,22.05,-56.14,2959,-6197,4544,-8,-7,-4
-127.35,22.24,-56.38,2924,-6313,4400,-8,-7,-6
-127.38,22.47,-56.59,3011,-6441,4189,-5,-7,-7
-127.39,22.70,-56.70,3147,-6375,4140,-1,-6,-4
-127.36,22.89,-56.78,3173,-6207,4268,-6,-5,-6
-127.35,23.10,-57.01,3165,-6189,4308,-12,-5,-6
-127.47,23.29,-57.36,3040,-6255,4197,-12,-8,-6
-127.55,23.54,-57.71,3101,-6320,4074,-11,-7,-8
-127.60,23.82,-58.04,3196,-6390,4020,-11,-8,-8
-127.65,24.08,-58.34,3244,-6407,4015,-10,-7,-8
-127.64,24.36,-58.62,3246,-6396,4050,-12,-7,-10
-127.65,24.69,-58.99,3276,-6487,4016,-14,-8,-12
-127.67,25.07,-59.39,3433,-6567,3864,-13,-7,-11
-127.65,25.37,-59.73,3519,-6629,3709,-11,-4,-9
-127.70,25.60,-60.04,3595,-6697,3567,-8,-6,-6
-127.78,25.79,-60.27,3689,-6680,3518,-4,-5,-4
-127.80,25.94,-60.38,3698,-6563,3661,-4,-5,-4
-127.84,26.11,-60.55,3705,-6488,3705,-7,-6,-4
-127.88,26.31,-60.78,3737,-6457,3636,-8,-5,-5
-127.92,26.49,-61.00,3746,-6404,3555,-7,-4,-5
-127.94,26.64,-61.20,3741,-6365,3555,-8,-3,-4
-127.94,26.75,-61.39,3744,-6316,3491,-8,0,-5
-127.96,26.82,-61.58,3762,-6270,3526,-9,-1,-1
-128.04,26.86,-61.82,3767,-6283,3541,-10,0,-1
-128.15,26.87,-62.08,3808,-6341,3560,-11,-1,0
-128.36,26.88,-62.44,3860,-6431,3525,-13,-1,0
-128.51,26.87,-62.77,3962,-6471,3434,-12,2,1
-128.68,26.83,-63.09,3945,-6451,3380,-12,2,0
-128.79,26.81,-63.39,3910,-6352,3487,-15,2,0
-128.97,26.83,-63.85,3853,-6231,3498,-23,0,-1
-129.32,26.92,-64.60,3759,-6273,3376,-32,-4,-5
-129.74,27.16,-65.53,3937,-6668,3138,-30,-6,-8
-130.07,27.32,-66.28,4149,-6944,2829,-22,3,-3
-130.23,27.33,-66.73,4160,-7072,2582,-13,6,-1
-130.34,27.34,-67.01,3985,-6958,2608,-11,-1,-3
-130.56,27.61,-67.50,4062,-6840,2699,-20,-10,-10
-130.75,27.94,-68.09,4153,-7401,2483,-14,-2,-9
-130.64,27.93,-68.12,4132,-7625,1968,11,15,-2
-129.89,27.68,-67.25,4020,-7299,1885,32,25,0
-128.79,27.45,-65.97,3957,-6707,2398,31,19,0
-128.10,27.37,-65.12,3874,-6402,2786,19,6,-3
-127.55,27.39,-64.53,3962,-6217,2942,13,10,-4
-127.12,27.36,-64.16,4016,-6146,3165,3,6,-1
-126.94,27.42,-64.04,4084,-6357,3261,0,1,-3
-126.77,27.47,-63.95,4157,-6613,3167,3,4,-2
-126.48,27.42,-63.65,4139,-6715,3175,9,9,-1
-126.03,27.30,-63.17,4124,-6726,3347,12,11,-1
-125.60,27.17,-62.68,4012,-6629,3522,10,10,0
-125.19,27.00,-62.24,3769,-6581,3606,8,12,-2
-124.79,26.90,-61.84,3668,-6618,3606,8,8,-4
-124.34,26.91,-61.46,3785,-6612,3607,9,9,-5
-123.89,26.85,-61.02,3744,-6631,3707,9,8,-4
-123.52,26.82,-60.64,3786,-6690,3721,9,6,-3
-123.18,26.78,-60.27,3788,-6661,3729,10,6,-2
-122.87,26.67,-59.88,3747,-6601,3797,9,7,0
-122.60,26.53,-59.56,3719,-6509,3798,7,8,1
-122.32,26.35,-59.25,3579,-6407,3797,6,10,0
-122.04,26.17,-58.96,3501,-6389,3851,4,10,0
-121.80,25.99,-58.72,3508,-6531,3914,3,9,0
-121.64,25.85,-58.57,3441,-6837,3828,5,5,-2
-121.37,25.78,-58.24,3462,-6889,3692,15,7,-3
-120.98,25.58,-57.64,3435,-6695,3849,19,10,3
-120.64,25.31,-57.01,3289,-6461,4139,16,7,3
-120.47,25.15,-56.65,3215,-6506,4270,7,3,0
-120.37,25.10,-56.41,3274,-6854,4188,13,-1,-1
-120.16,25.02,-55.89,3476,-6933,3844,27,7,1
-119.41,24.78,-54.67,3440,-6597,3532,49,20,-3
-118.08,24.48,-52.73,3426,-5680,3687,61,29,-7
-116.38,24.45,-50.54,3177,-4966,4440,55,20,-27
-115.33,24.66,-49.08,2928,-5370,5740,21,-3,-7
-115.44,24.30,-48.83,2612,-4703,5257,3,0,15
-115.68,24.48,-48.88,2977,-4327,5077,-3,-17,0
-116.17,24.65,-49.29,3352,-4470,5366,-20,-14,13
-117.14,24.56,-50.35,3226,-4567,5470,-40,-19,18
-118.52,24.41,-51.94,3267,-4720,5121,-51,-19,24
-120.15,24.31,-53.75,3155,-5172,4817,-51,-29,20
-121.87,24.37,-55.58,3170,-5959,4583,-47,-32,15
-123.13,24.52,-57.08,3457,-6522,4038,-31,-20,5
-123.83,24.78,-57.96,3881,-6735,3543,-13,-11,1
-124.00,24.83,-58.17,3849,-6904,3601,1,-1,0
-124.14,24.77,-58.16,3808,-7008,4116,0,-4,6
-124.66,24.52,-58.40,3605,-6967,4298,-8,-9,15
-125.37,24.30,-58.85,3427,-6899,3979,-7,-9,10
-125.87,24.17,-59.14,3543,-6870,3805,-1,-8,10
-126.34,23.97,-59.30,3534,-6781,3846,-1,-6,12
-126.83,23.74,-59.49,3385,-6633,3830,-3,-6,12
-127.27,23.56,-59.69,3246,-6578,3824,-4,-7,8
-127.65,23.48,-59.91,3254,-6616,3818,-3,-7,5
-127.86,23.43,-60.03,3329,-6657,3857,-3,-2,3
-128.00,23.35,-60.15,3382,-6679,3852,-4,1,4
-128.25,23.18,-60.29,3325,-6698,3843,-4,-1,7
-128.56,22.98,-60.48,3184,-6757,3782,-6,-1,7
-128.87,22.85,-60.72,3159,-6776,3644,-6,-4,5
-129.15,22.77,-60.91,3266,-6763,3622,-4,-2,5
-129.35,22.65,-61.04,3255,-6733,3672,-4,-1,5
-129.55,22.54,-61.18,3143,-6729,3716,-6,0,3
-129.65,22.48,-61.33,3113,-6752,3652,-6,1,0
-129.73,22.42,-61.45,3122,-6764,3606,-5,1,1
-129.78,22.34,-61.56,3054,-6832,3538,-4,3,0
-129.85,22.25,-61.62,2982,-6798,3530,-2,-1,1
-129.98,22.25,-61.71,3059,-6758,3575,-4,-3,0
-130.07,22.25,-61.82,3209,-6814,3568,-3,-1,1
-130.16,22.18,-61.89,3176,-6839,3531,-2,1,2
-130.23,22.09,-61.94,3056,-6859,3522,-2,0,1
-130.28,22.08,-61.99,3097,-6881,3477,-1,0,0
-130.25,22.07,-61.98,3095,-6831,3538,0,1,-1
-130.19,22.10,-61.97,3094,-6812,3593,-2,0,-3
-130.13,22.13,-61.98,3092,-6803,3602,-1,1,-2
-130.05,22.19,-61.97,3106,-6781,3607,-1,0,-4
-129.95,22.28,-61.98,3159,-6824,3541,0,0,-4
-129.86,22.37,-61.95,3097,-6824,3515,1,-2,-5
-129.77,22.53,-61.93,3165,-6829,3466,2,-3,-6
-129.61,22.69,-61.82,3239,-6797,3526,4,-2,-5
-129.45,22.80,-61.71,3217,-6802,3581,3,-1,-5
-129.32,22.89,-61.60,3184,-6806,3523,4,-1,-4
-129.19,23.01,-61.45,3254,-6747,3577,6,-3,-3
-129.07,23.12,-61.28,3353,-6683,3673,5,-3,-2
-128.98,23.15,-61.13,3333,-6650,3742,3,0,0
-128.95,23.14,-61.06,3226,-6667,3775,0,-1,-1
-128.93,23.16,-61.05,3238,-6687,3710,0,-1,-2
-128.87,23.21,-61.02,3255,-6652,3692,1,-1,-2
-128.79,23.25,-60.97,3201,-6648,3735,0,0,-3
-128.73,23.31,-60.96,3097,-6670,3685,-1,-2,-5
-128.60,23.47,-60.92,3099,-6688,3650,2,-3,-7
-128.42,23.67,-60.82,3356,-6613,3670,4,-3,-6
-128.27,23.82,-60.68,3562,-6548,3837,3,-2,-2
-128.19,23.83,-60.61,3480,-6540,3918,-1,1,-1
-128.17,23.84,-60.63,3519,-6555,3834,-2,0,-1
-128.18,23.81,-60.67,3606,-6582,3820,-2,2,2
-128.20,23.69,-60.67,3495,-6609,3796,-2,4,3
-128.24,23.56,-60.70,3338,-6612,3741,-2,3,2
-128.27,23.49,-60.73,3248,-6605,3727,-2,1,0
-128.26,23.48,-60.76,3237,-6613,3707,-2,1,-2
-128.22,23.50,-60.78,3215,-6615,3680,-1,0,-3
-128.14,23.57,-60.78,3225,-6587,3748,-2,-1,-4
-128.07,23.66,-60.81,3290,-6606,3775,-3,0,-4
-128.02,23.71,-60.85,3316,-6621,3765,-3,0,-3
-128.02,23.75,-60.92,3368,-6623,3735,-3,-1,-1
-128.07,23.74,-60.99,3364,-6639,3710,-3,-1,0
-128.13,23.72,-61.07,3353,-6645,3673,-3,-1,1
-128.20,23.70,-61.14,3332,-6641,3679,-2,-1,0
-128.27,23.69,-61.20,3312,-6632,3683,-3,-1,1
-128.37,23.67,-61.29,3323,-6664,3637,-2,-2,0
-128.43,23.67,-61.35,3291,-6683,3637,-2,-2,0
-128.48,23.69,-61.42,3290,-6693,3619,-2,-3,-1
-128.54,23.72,-61.47,3306,-6682,3629,-1,-2,0
-128.59,23.74,-61.52,3291,-6684,3626,-2,-3,-1
-128.65,23.77,-61.58,3275,-6677,3631,-2,-3,-1
-128.71,23.81,-61.65,3274,-6689,3632,-3,-3,-2
-128.75,23.86,-61.71,3304,-6682,3616,-2,-3,-1
-128.77,23.91,-61.77,3304,-6658,3627,-3,-3,-2
-128.79,23.99,-61.84,3332,-6710,3573,-3,-2,-3
-128.79,24.05,-61.89,3309,-6732,3523,-1,-2,-3
-128.79,24.13,-61.93,3307,-6710,3527,-1,-4,-3
-128.82,24.22,-61.98,3369,-6707,3526,-1,-4,-2
-128.87,24.29,-62.04,3380,-6722,3503,-1,-4,-2
-128.91,24.36,-62.08,3385,-6724,3466,0,-4,-1
-128.94,24.43,-62.10,3391,-6703,3465,0,-4,-2
-128.94,24.52,-62.11,3429,-6708,3477,1,-3,-2
-128.93,24.59,-62.10,3439,-6707,3487,0,-3,-2
-128.95,24.66,-62.12,3467,-6707,3468,0,-3,-2
-128.93,24.72,-62.11,3466,-6672,3503,0,-2,-2
-128.91,24.76,-62.10,3466,-6671,3528,0,-1,-2
-128.88,24.81,-62.10,3453,-6661,3512,0,-1,-3
-128.81,24.87,-62.07,3461,-6655,3540,0,0,-3
-128.73,24.92,-62.05,3442,-6651,3530,-1,0,-3
-128.62,24.98,-62.00,3452,-6654,3485,1,1,-4
-128.46,25.09,-61.93,3482,-6635,3489,1,0,-5
-128.32,25.19,-61.86,3550,-6652,3521,1,0,-4
-128.15,25.28,-61.75,3573,-6641,3540,2,1,-4
-127.97,25.35,-61.64,3592,-6636,3549,2,1,-4
-127.79,25.41,-61.52,3581,-6612,3558,2,2,-4
-127.61,25.45,-61.41,3553,-6570,3615,1,3,-4
-127.43,25.49,-61.32,3524,-6546,3597,0,2,-5
-127.24,25.58,-61.23,3512,-6557,3591,1,3,-6
-127.00,25.67,-61.13,3492,-6556,3572,1,1,-7
-126.80,25.81,-61.03,3560,-6535,3593,1,-1,-6
-126.67,25.93,-60.97,3643,-6537,3624,1,-1,-4
-126.57,26.02,-60.92,3657,-6527,3604,1,-1,-4
-126.45,26.11,-60.86,3655,-6489,3609,1,-1,-3
-126.40,26.20,-60.83,3698,-6482,3642,1,-3,-3
-126.37,26.26,-60.81,3725,-6502,3661,0,-2,-1
-126.34,26.32,-60.77,3729,-6497,3651,2,-2,-2
-126.30,26.39,-60.71,3770,-6469,3678,2,-2,-1
-126.29,26.43,-60.68,3781,-6445,3676,1,-2,-1
-126.22,26.49,-60.63,3829,-6459,3669,0,0,-3
-126.11,26.52,-60.58,3845,-6468,3632,1,3,-2
-125.99,26.50,-60.48,3753,-6440,3654,1,3,-1
-125.91,26.46,-60.40,3634,-6411,3708,0,1,-1
-125.87,26.46,-60.37,3649,-6411,3777,-1,0,-1
-125.87,26.49,-60.40,3672,-6396,3788,-3,-1,-1
-125.86,26.50,-60.43,3635,-6423,3731,-2,0,-2
-125.87,26.52,-60.47,3598,-6418,3692,-1,-2,-2
-125.90,26.58,-60.52,3622,-6405,3723,-3,-3,-2
-125.95,26.65,-60.62,3686,-6434,3693,-3,-4,-1
-126.02,26.69,-60.72,3706,-6462,3653,-3,-2,0
-126.11,26.70,-60.81,3646,-6445,3626,-3,-4,0
-126.27,26.73,-60.94,3619,-6429,3648,-3,-6,0
-126.45,26.80,-61.12,3663,-6423,3637,-4,-8,0
-126.66,26.87,-61.31,3708,-6440,3638,-5,-8,1
-126.89,26.95,-61.55,3727,-6477,3553,-5,-8,0
-127.06,27.04,-61.71,3773,-6481,3535,-3,-6,0
-127.20,27.11,-61.86,3763,-6493,3513,-4,-6,-1
-127.35,27.18,-62.01,3742,-6502,3456,-3,-6,0
-127.50,27.25,-62.15,3722,-6483,3472,-3,-7,0
-127.67,27.34,-62.32,3759,-6503,3485,-4,-8,-1
-127.84,27.43,-62.51,3823,-6515,3432,-4,-7,0
-128.00,27.51,-62.67,3854,-6516,3413,-3,-6,0
-128.15,27.57,-62.83,3889,-6523,3390,-4,-6,0
-128.29,27.63,-62.99,3944,-6542,3358,-4,-5,0
-128.42,27.67,-63.13,3962,-6550,3356,-4,-4,1
-128.54,27.69,-63.26,3966,-6571,3342,-4,-3,1
-128.64,27.69,-63.37,3961,-6582,3289,-3,-2,0
-128.72,27.68,-63.47,3955,-6591,3259,-3,-1,1
-128.79,27.66,-63.55,3949,-6608,3253,-3,0,1
-128.86,27.61,-63.63,3918,-6619,3267,-3,1,1
-128.91,27.57,-63.70,3899,-6620,3222,-3,1,1
-128.95,27.53,-63.75,3876,-6609,3220,-2,1,0
-128.96,27.50,-63.77,3848,-6615,3225,-3,1,0
-128.97,27.47,-63.81,3823,-6642,3200,-1,1,0
-128.96,27.44,-63.81,3810,-6624,3226,-1,1,-1
-128.95,27.43,-63.82,3802,-6638,3220,-2,1,-1
-128.92,27.43,-63.83,3775,-6635,3168,-1,1,-1
-128.88,27.41,-63.79,3763,-6627,3209,1,1,-1
-128.80,27.44,-63.73,3833,-6582,3298,-1,1,-2
-128.76,27.46,-63.76,3909,-6627,3259,-2,2,-2
-128.67,27.43,-63.72,3894,-6649,3223,0,5,-1
-128.57,27.36,-63.65,3830,-6638,3265,-1,4,0
-128.52,27.30,-63.62,3755,-6632,3251,-1,2,-1
-128.50,27.26,-63.61,3735,-6598,3288,-1,1,-1
-128.48,27.24,-63.60,3737,-6585,3326,-1,1,0
-128.50,27.20,-63.61,3729,-6575,3373,-2,-1,1
-128.60,27.16,-63.69,3704,-6573,3343,-3,-2,1
-128.74,27.14,-63.80,3699,-6588,3287,-2,-3,1
-128.88,27.11,-63.88,3667,-6598,3299,-2,-5,2
-129.05,27.11,-64.00,3676,-6591,3324,-4,-6,2
-129.28,27.12,-64.19,3678,-6605,3251,-3,-7,1
-129.51,27.15,-64.37,3695,-6650,3185,-3,-7,1
-129.71,27.20,-64.51,3767,-6648,3186,-1,-8,1
-129.87,27.25,-64.61,3792,-6630,3221,-2,-7,1
-130.00,27.34,-64.75,3896,-6634,3176,-3,-6,0
-130.12,27.39,-64.86,3919,-6691,3113,-1,-4,0
-130.23,27.38,-64.92,3862,-6691,3140,-1,-3,1
-130.35,27.37,-65.01,3817,-6654,3154,-2,-4,1
-130.53,27.37,-65.15,3765,-6676,3147,-4,-6,1
-130.67,27.41,-65.29,3750,-6700,3022,-2,-4,0
-130.76,27.44,-65.36,3710,-6691,3031,-1,-5,-1
-130.84,27.51,-65.44,3755,-6692,3086,-2,-6,-1
-130.90,27.60,-65.52,3856,-6697,3100,-2,-5,-2
-130.94,27.68,-65.60,3910,-6689,3036,-2,-3,-2
-130.97,27.74,-65.66,3903,-6699,3014,-2,-3,-2
-131.01,27.80,-65.72,3859,-6707,2994,-1,-3,-2
-131.00,27.87,-65.74,3893,-6693,2993,0,-2,-3
-130.95,27.95,-65.75,3911,-6707,2983,-1,-1,-3
-130.91,28.02,-65.75,3914,-6681,3022,-1,-1,-2
-130.86,28.08,-65.76,3962,-6700,3034,-1,-1,-3
-130.80,28.12,-65.75,3959,-6695,3017,-1,1,-2
-130.73,28.14,-65.72,3947,-6716,3005,0,0,-2
-130.70,28.15,-65.69,3915,-6704,2994,0,0,-1
-130.67,28.16,-65.66,3905,-6662,3050,0,-1,-1
-130.67,28.17,-65.68,3902,-6649,3069,-2,-1,0
-130.71,28.18,-65.73,3901,-6651,3047,-2,-2,-1
-130.74,28.22,-65.78,3914,-6659,2999,-1,-2,-2
-130.72,28.26,-65.79,3927,-6662,2995,0,-1,-2
-130.70,28.30,-65.79,3928,-6663,3011,-1,-1,-2
-130.69,28.34,-65.81,3951,-6668,3009,-1,-1,-1
-130.68,28.36,-65.82,3947,-6667,2990,-1,-1,-1
-130.66,28.38,-65.82,3932,-6659,2979,0,-1,-1
-130.65,28.42,-65.82,3943,-6645,3003,-1,-1,-2
-130.62,28.46,-65.82,3963,-6654,3000,-1,-1,-2
-130.59,28.49,-65.82,3979,-6660,2998,-1,0,-2
-130.56,28.50,-65.81,3965,-6668,2969,0,0,-1
-130.52,28.53,-65.80,3951,-6665,2951,0,0,-2
-130.49,28.55,-65.78,3965,-6656,2962,0,-1,-1
-130.46,28.57,-65.76,3964,-6655,2974,0,0,-1
-130.43,28.59,-65.76,3957,-6687,2948,0,0,-1
-130.39,28.61,-65.72,3973,-6668,2974,1,0,-1
-130.35,28.64,-65.69,3987,-6658,2982,0,-1,-2
-130.29,28.66,-65.65,4006,-6650,2995,1,0,-1
-130.24,28.68,-65.61,4004,-6646,3017,0,0,-1
-130.21,28.69,-65.58,3989,-6649,2988,1,0,-1
-130.17,28.70,-65.53,3989,-6635,2996,1,0,-1
-130.11,28.71,-65.48,3993,-6627,3028,0,0,-1
-130.07,28.72,-65.44,3994,-6626,3012,0,0,-1
-130.03,28.73,-65.40,3974,-6615,3014,1,0,-1
-129.97,28.74,-65.36,3968,-6611,3016,1,0,-1
-129.92,28.75,-65.31,3961,-6608,3039,1,0,-1
-129.88,28.77,-65.27,3969,-6604,3059,0,0,-1
-129.85,28.78,-65.23,3983,-6598,3071,0,0,-1
-129.82,28.78,-65.21,3984,-6593,3075,0,0,-1
-129.80,28.79,-65.19,3987,-6606,3060,0,-1,-1
-129.78,28.80,-65.17,3990,-6604,3058,0,-1,-1
-129.76,28.81,-65.15,3988,-6598,3060,0,-1,-1
-129.75,28.83,-65.13,3990,-6600,3063,0,-1,-1
-129.74,28.83,-65.12,3987,-6594,3072,0,-1,-1
-129.73,28.85,-65.11,3989,-6592,3071,0,-1,-1
-129.74,28.86,-65.11,3995,-6595,3072,0,-1,-1
-129.74,28.86,-65.10,3996,-6587,3069,0,-1,-1
-129.73,28.87,-65.10,3989,-6586,3073,-1,-1,-1
-129.74,28.87,-65.10,4002,-6602,3050,0,-1,-1
-129.74,28.87,-65.09,4006,-6579,3087,-1,-1,0
-129.75,28.88,-65.10,4031,-6605,3068,-1,-1,0
-129.75,28.88,-65.09,4010,-6601,3052,0,-1,-1
-129.74,28.88,-65.08,3993,-6608,3053,0,-1,-1
-129.73,28.89,-65.06,4009,-6586,3070,0,-1,-1
-129.72,28.90,-65.05,4021,-6580,3084,-1,-1,0
-129.72,28.89,-65.05,4015,-6593,3057,0,0,-1
-129.70,28.90,-65.04,4005,-6595,3041,0,0,-1
-129.69,28.90,-65.01,3999,-6582,3051,0,0,-1
-129.66,28.91,-65.00,4001,-6583,3054,0,0,-1
-129.63,28.92,-64.97,3998,-6577,3063,0,0,-1
-129.62,28.91,-64.95,3985,-6578,3078,0,0,-1
-129.61,28.91,-64.93,3983,-6575,3085,0,-1,-1
-129.61,28.91,-64.92,3995,-6572,3085,0,-1,-1
-129.60,28.92,-64.91,4011,-6571,3091,0,-1,-1
-129.60,28.92,-64.92,4014,-6579,3082,0,-1,0
-129.59,28.93,-64.91,4007,-6575,3069,0,-1,-1
-129.59,28.93,-64.89,4015,-6566,3097,0,-1,-1
-129.57,28.94,-64.88,4021,-6568,3101,0,-1,-1
-129.56,28.94,-64.87,4024,-6565,3106,0,0,-1
-129.55,28.94,-64.86,4007,-6569,3093,-1,0,0
-129.55,28.94,-64.86,4000,-6573,3092,0,-1,0
-129.56,28.94,-64.86,3993,-6562,3082,-1,-1,0
-129.56,28.94,-64.86,4016,-6576,3097,0,-1,-1
-129.56,28.94,-64.86,4013,-6575,3084,-1,-1,-1
-129.56,28.96,-64.88,4021,-6591,3050,0,0,-1
-129.55,28.97,-64.86,4014,-6575,3076,0,-1,-1
-129.55,28.97,-64.86,4018,-6582,3074,0,-1,-1
-129.55,28.98,-64.85,4020,-6574,3089,0,-1,0
-129.54,28.98,-64.85,4029,-6568,3103,-1,0,-1
-129.54,28.98,-64.85,4028,-6572,3099,-1,0,-1
-129.52,28.98,-64.84,4018,-6575,3094,-1,0,-1
-129.52,28.97,-64.84,4007,-6576,3091,-1,0,-1
-129.51,28.97,-64.84,4014,-6576,3081,-1,0,-1
-129.47,28.97,-64.83,4011,-6576,3076,0,0,-1
-129.45,28.97,-64.81,4006,-6562,3090,-1,0,-1
-129.43,28.98,-64.81,4015,-6557,3102,-1,0,-1
-129.42,28.99,-64.82,4022,-6561,3094,-1,0,-1
-129.40,28.99,-64.82,4013,-6565,3071,-1,0,-1
-129.41,28.99,-64.83,4010,-6561,3075,-1,0,-1
-129.42,28.99,-64.84,4007,-6561,3081,-1,-1,0
-129.42,28.99,-64.85,4002,-6563,3080,-1,-1,0
-129.43,28.99,-64.88,4015,-6571,3081,-1,0,-1
-129.42,29.00,-64.88,4022,-6574,3076,-1,0,-1
-129.41,29.00,-64.88,4023,-6573,3084,-1,0,-1
-129.40,28.99,-64.88,4014,-6567,3095,-1,0,-1
-129.40,28.99,-64.90,4016,-6581,3083,-1,0,-1
-129.39,28.99,-64.89,4011,-6572,3097,-1,0,0
-129.39,29.00,-64.91,4032,-6588,3068,-1,0,-1
-129.36,29.01,-64.89,4024,-6566,3083,0,0,-1
-129.35,29.01,-64.89,4019,-6572,3095,-1,0,-1
-129.33,29.00,-64.89,4021,-6576,3091,-1,0,-1
-129.32,29.00,-64.89,4011,-6573,3085,-1,0,-1
-129.30,28.99,-64.88,4005,-6572,3065,-1,0,-1
-129.29,28.99,-64.88,4008,-6569,3083,-1,0,-1
-129.28,28.99,-64.89,4006,-6571,3080,-1,0,-1
-129.26,28.99,-64.89,4005,-6578,3074,-1,0,-1
-129.26,28.99,-64.88,4002,-6566,3082,-1,0,-1
-129.24,28.99,-64.87,4016,-6562,3103,-1,0,-1
-129.23,28.99,-64.88,4021,-6573,3105,-1,0,-1
-129.22,28.98,-64.88,4022,-6573,3081,-1,0,0
-129.20,28.97,-64.88,4015,-6559,3079,-1,0,-1
-129.20,28.97,-64.89,4016,-6556,3088,-1,0,-1
-129.20,28.97,-64.90,4011,-6566,3089,-1,0,-1
-129.19,28.97,-64.89,4010,-6570,3076,-1,0,-1
-129.18,28.97,-64.89,4018,-6569,3080,-1,0,-1
-129.16,28.97,-64.89,4017,-6577,3077,-1,0,-1
-129.17,28.97,-64.90,4011,-6567,3073,-1,0,0
-129.17,28.97,-64.91,3997,-6571,3048,-1,-1,-1
-129.16,28.97,-64.90,4007,-6562,3087,-1,0,0
-129.18,28.97,-64.93,4010,-6593,3049,-1,-1,-1
-129.16,28.97,-64.90,3987,-6571,3077,0,-1,-1
-129.16,28.99,-64.90,4001,-6573,3081,0,-1,-1
-129.16,29.00,-64.91,4011,-6566,3085,0,-1,0
-129.18,29.00,-64.92,4011,-6574,3071,0,-1,0
-129.20,29.01,-64.92,4015,-6574,3076,0,-1,-1
-129.21,29.02,-64.93,4019,-6584,3068,0,-1,-1
-129.22,29.03,-64.93,4017,-6575,3070,0,-1,0
-129.23,29.04,-64.93,4024,-6567,3078,0,-2,0
-129.24,29.05,-64.93,4025,-6564,3079,0,-1,-1
-129.24,29.06,-64.92,4030,-6574,3084,0,-1,-1
-129.24,29.07,-64.92,4026,-6572,3087,0,-1,0
-129.24,29.08,-64.91,4031,-6571,3077,0,-1,-1
-129.25,29.08,-64.91,4019,-6570,3066,0,-1,-1
-129.25,29.09,-64.91,4023,-6572,3065,0,-1,-1
-129.26,29.10,-64.91,4031,-6579,3068,0,-1,-1
-129.26,29.10,-64.90,4024,-6574,3066,0,-1,0
-129.26,29.11,-64.89,4035,-6560,3064,0,-1,-1
-129.26,29.12,-64.89,4026,-6560,3068,0,-1,0
-129.26,29.12,-64.87,4020,-6561,3072,0,-1,-1
-129.26,29.13,-64.87,4023,-6563,3084,0,-1,0
-129.27,29.13,-64.86,4035,-6560,3103,0,-1,0
-129.28,29.14,-64.87,4040,-6581,3076,0,-1,-1
-129.28,29.14,-64.85,4032,-6565,3073,1,-1,-1
-129.28,29.16,-64.83,4023,-6551,3084,0,-1,-1
-129.29,29.17,-64.84,4044,-6554,3088,0,-1,0
-129.28,29.17,-64.82,4052,-6557,3103,0,-1,0
-129.28,29.17,-64.81,4056,-6554,3107,0,-1,0
-129.28,29.17,-64.80,4037,-6555,3093,0,-1,-1
-129.29,29.17,-64.80,4031,-6554,3093,0,-1,0
-129.28,29.18,-64.79,4041,-6561,3089,0,-1,-1
-129.28,29.18,-64.78,4038,-6557,3093,0,-1,-1
-129.27,29.18,-64.76,4035,-6550,3101,0,-1,-1
-129.27,29.18,-64.75,4034,-6546,3100,0,-1,0
-129.27,29.19,-64.74,4029,-6543,3098,0,-1,-1
-129.27,29.19,-64.74,4040,-6548,3098,0,-1,-1
-129.27,29.20,-64.73,4045,-6550,3094,0,-1,0
-129.27,29.20,-64.73,4054,-6538,3114,-1,-1,0
-129.28,29.20,-64.73,4047,-6546,3110,-1,-1,0
-129.29,29.19,-64.74,4044,-6552,3091,0,-1,0
-129.30,29.19,-64.73,4040,-6545,3096,0,-1,0
-129.30,29.19,-64.73,4042,-6550,3096,-1,-1,0
-129.31,29.20,-64.74,4037,-6556,3080,0,-1,0
-129.31,29.19,-64.73,4035,-6552,3089,0,-1,0
-129.32,29.19,-64.72,4048,-6553,3093,0,-1,0
-129.32,29.19,-64.72,4056,-6544,3114,-1,0,0
-129.33,29.18,-64.73,4043,-6565,3079,-1,-1,-1
-129.34,29.18,-64.72,4030,-6552,3093,0,-1,-1
-129.34,29.18,-64.71,4025,-6551,3106,0,-1,0
-129.34,29.19,-64.72,4045,-6563,3104,0,-1,0
-129.34,29.20,-64.71,4063,-6551,3108,-1,-1,0
-129.34,29.20,-64.72,4050,-6545,3089,0,0,0
-129.34,29.19,-64.70,4043,-6537,3100,0,-1,0
-129.34,29.20,-64.71,4050,-6538,3107,-1,-1,0
-129.35,29.20,-64.72,4050,-6550,3084,0,0,0
-129.35,29.19,-64.71,4049,-6545,3090,0,0,0
-129.34,29.20,-64.71,4049,-6543,3101,0,0,-1
-129.34,29.19,-64.71,4043,-6550,3103,-1,0,0
-129.34,29.19,-64.72,4027,-6556,3094,-1,0,0
-129.35,29.18,-64.72,4021,-6554,3071,0,-1,0
-129.36,29.18,-64.72,4027,-6559,3083,0,-1,0
-129.37,29.18,-64.72,4036,-6544,3092,0,-1,0
-129.36,29.17,-64.72,4048,-6547,3117,-1,0,-1
-129.36,29.17,-64.72,4052,-6559,3099,0,0,-1
-129.35,29.17,-64.72,4042,-6547,3106,-1,0,-1
-129.34,29.17,-64.72,4028,-6548,3100,-1,0,-1
-129.32,29.16,-64.71,4029,-6532,3107,0,0,-1
-129.31,29.18,-64.70,4035,-6529,3105,-1,0,-1
-129.29,29.18,-64.69,4055,-6540,3122,-1,0,-1
-129.29,29.18,-64.70,4047,-6549,3111,-1,0,-1
-129.26,29.18,-64.70,4046,-6547,3085,0,0,-1
-129.25,29.19,-64.69,4027,-6534,3110,-1,0,-1
-129.25,29.19,-64.70,4043,-6536,3094,-1,0,-1
-129.24,29.19,-64.70,4050,-6541,3097,-1,0,-1
-129.25,29.18,-64.71,4049,-6552,3096,-1,0,0
-129.25,29.18,-64.71,4035,-6541,3099,-1,0,-1
-129.23,29.19,-64.72,4035,-6548,3094,-1,0,-1
-129.23,29.18,-64.72,4036,-6551,3106,-1,0,0
-129.22,29.19,-64.73,4042,-6553,3119,-1,0,-1
-129.21,29.19,-64.73,4046,-6567,3097,-1,0,-1
-129.21,29.19,-64.74,4047,-6556,3101,-1,0,-1
-129.19,29.19,-64.74,4035,-6549,3092,-1,0,-1
-129.19,29.19,-64.74,4044,-6548,3092,-1,0,-1
-129.17,29.19,-64.74,4054,-6546,3098,-1,0,-1
-129.16,29.19,-64.74,4054,-6543,3100,-1,0,-1
-129.14,29.19,-64.73,4056,-6544,3100,-1,0,-1
-129.12,29.19,-64.72,4046,-6553,3090,-1,0,-1
-129.10,29.19,-64.71,4051,-6555,3099,-1,0,-1
-129.10,29.18,-64.72,4043,-6563,3089,-1,0,-1
-129.08,29.19,-64.72,4048,-6557,3089,-1,0,-1
-129.08,29.18,-64.73,4036,-6557,3097,-1,0,-1
-129.08,29.19,-64.74,4054,-6554,3072,-1,0,-1
-129.08,29.18,-64.74,4033,-6546,3099,-1,0,0
-129.07,29.18,-64.74,4040,-6551,3105,-1,0,-1
-129.08,29.17,-64.75,4048,-6547,3106,-1,0,0
-129.08,29.17,-64.76,4046,-6557,3091,-1,0,-1
-129.07,29.17,-64.76,4044,-6551,3102,-1,0,0
-129.07,29.16,-64.77,4036,-6553,3101,-1,0,0
-129.06,29.16,-64.77,4034,-6560,3096,-1,0,-1
-129.06,29.15,-64.77,4037,-6560,3099,-1,0,-1
-129.05,29.15,-64.78,4036,-6557,3092,-1,0,-1
-129.05,29.14,-64.78,4032,-6560,3091,-1,0,-1
-129.05,29.14,-64.78,4027,-6552,3087,-1,0,-1
-129.05,29.14,-64.79,4022,-6559,3084,-1,0,-1
-129.05,29.14,-64.79,4027,-6561,3091,-1,0,-1
-129.05,29.14,-64.79,4030,-6562,3090,-1,0,0
-129.05,29.14,-64.80,4038,-6561,3083,-1,-1,0
-129.06,29.14,-64.81,4021,-6563,3057,-1,-1,0
-129.06,29.14,-64.80,4024,-6546,3080,0,-1,-1
-129.08,29.15,-64.82,4021,-6549,3077,-1,-1,0
-129.09,29.16,-64.83,4042,-6553,3078,0,-1,0
-129.10,29.16,-64.84,4032,-6560,3070,-1,-1,-1
-129.10,29.16,-64.84,4023,-6549,3066,0,-1,-1
-129.10,29.17,-64.84,4025,-6548,3093,-1,-1,-1
-129.10,29.19,-64.84,4031,-6565,3075,0,-1,-1
-129.11,29.19,-64.84,4034,-6560,3071,0,-1,0
-129.12,29.20,-64.85,4033,-6557,3071,0,-1,0
-129.14,29.21,-64.86,4038,-6560,3079,-1,-1,-1
-129.14,29.22,-64.86,4038,-6557,3056,0,-1,-1
-129.13,29.23,-64.85,4043,-6554,3070,0,-1,-1
-129.15,29.23,-64.86,4043,-6554,3071,0,-1,0
-129.15,29.24,-64.86,4040,-6545,3078,0,-1,-1
-129.14,29.25,-64.85,4058,-6557,3080,0,-1,-1
-129.15,29.26,-64.85,4038,-6565,3072,0,-1,0
-129.16,29.26,-64.86,4029,-6564,3070,0,-1,0
-129.18,29.27,-64.86,4036,-6560,3070,0,-1,0
-129.19,29.27,-64.86,4046,-6555,3071,0,-1,-1
-129.19,29.28,-64.86,4052,-6552,3069,0,-1,0
-129.20,29.29,-64.87,4055,-6543,3072,0,-1,-1
-129.21,29.30,-64.86,4056,-6547,3077,0,-1,0
-129.22,29.30,-64.86,4057,-6544,3080,0,-1,0
-129.22,29.31,-64.86,4054,-6549,3076,0,-1,-1
-129.22,29.32,-64.86,4070,-6547,3084,0,-1,0
-129.24,29.32,-64.87,4054,-6556,3076,-1,-1,0
-129.26,29.33,-64.87,4053,-6551,3058,0,-1,-1
-129.26,29.33,-64.86,4039,-6545,3077,0,-1,-1
-129.27,29.33,-64.87,4040,-6551,3065,0,-1,0
-129.28,29.34,-64.87,4054,-6547,3070,0,-1,0
-129.29,29.35,-64.87,4065,-6549,3079,0,-1,0
-129.30,29.35,-64.86,4065,-6546,3074,0,-1,0
-129.30,29.36,-64.85,4061,-6545,3070,0,-1,-1
-129.30,29.36,-64.85,4060,-6549,3075,0,-1,0
-129.32,29.36,-64.85,4055,-6543,3068,0,-1,0
-129.33,29.36,-64.85,4054,-6534,3071,0,-1,0
-129.33,29.37,-64.84,4064,-6543,3078,0,-1,0
-129.34,29.37,-64.84,4069,-6542,3073,0,-1,0
-129.34,29.37,-64.83,4076,-6543,3082,0,-1,0
-129.35,29.38,-64.82,4081,-6539,3078,0,-1,0
-129.35,29.38,-64.82,4076,-6538,3078,0,-1,0
-129.35,29.38,-64.81,4081,-6529,3092,0,-1,0
-129.36,29.39,-64.81,4080,-6538,3090,0,-1,0
-129.36,29.38,-64.80,4077,-6541,3076,0,-1,0
-129.36,29.39,-64.79,4055,-6542,3068,0,-1,0
-129.36,29.39,-64.78,4071,-6538,3099,0,-1,0
-129.37,29.39,-64.78,4074,-6539,3105,-1,-1,0
-129.38,29.38,-64.78,4085,-6545,3095,0,0,0
-129.40,29.36,-64.79,4063,-6544,3090,-1,-1,0
-129.41,29.37,-64.79,4061,-6546,3071,0,-1,0
-129.41,29.36,-64.78,4057,-6537,3093,0,-1,0
-129.42,29.36,-64.78,4065,-6535,3090,0,-1,0
-129.44,29.36,-64.79,4060,-6538,3078,0,-1,0
-129.44,29.36,-64.79,4067,-6536,3082,0,-1,0
-129.45,29.35,-64.78,4075,-6534,3091,0,-1,0
-129.44,29.35,-64.78,4062,-6539,3076,0,-1,-1
-129.45,29.35,-64.78,4071,-6538,3080,0,-1,0
-129.46,29.35,-64.78,4070,-6538,3085,-1,-1,0
-129.47,29.35,-64.79,4062,-6536,3087,-1,-1,0
-129.48,29.35,-64.79,4064,-6543,3093,0,-1,0
-129.48,29.35,-64.79,4067,-6541,3094,0,-1,0
-129.49,29.35,-64.80,4062,-6543,3076,-1,-1,0
-129.49,29.35,-64.80,4069,-6544,3088,-1,-1,-1
-129.48,29.34,-64.80,4066,-6543,3098,-1,0,0
-129.48,29.33,-64.80,4063,-6547,3099,-1,0,0
-129.50,29.33,-64.81,4057,-6547,3092,-1,0,0
-129.51,29.32,-64.82,4034,-6554,3067,-1,-1,0
-129.52,29.32,-64.83,4031,-6566,3049,0,-1,-1
-129.51,29.33,-64.81,4053,-6541,3091,0,-1,-1
-129.49,29.33,-64.80,4071,-6533,3103,-1,0,-1
-129.49,29.33,-64.81,4082,-6530,3105,-1,0,0
-129.51,29.32,-64.83,4071,-6550,3082,-1,0,-1
-129.49,29.31,-64.81,4049,-6538,3084,0,0,-1
-129.47,29.32,-64.81,4052,-6542,3090,-1,0,-1
-129.45,29.33,-64.81,4059,-6550,3083,0,0,-1
-129.44,29.33,-64.80,4054,-6532,3091,-1,0,-1
-129.43,29.33,-64.81,4054,-6542,3077,-1,0,-1
-129.43,29.33,-64.81,4047,-6545,3073,-1,0,-1
-129.42,29.33,-64.81,4055,-6534,3105,-1,0,0
-129.43,29.32,-64.83,4056,-6541,3087,-1,0,-1
-129.44,29.33,-64.85,4061,-6542,3062,-1,0,-1
-129.43,29.34,-64.85,4062,-6538,3071,-1,0,-1
-129.44,29.33,-64.86,4064,-6552,3067,-1,0,-1
-129.42,29.34,-64.86,4067,-6549,3071,-1,0,-1
-129.40,29.34,-64.85,4065,-6543,3088,-1,0,-1
-129.40,29.33,-64.85,4058,-6552,3080,-1,0,-1
-129.39,29.33,-64.86,4055,-6550,3080,-1,0,-1
-129.38,29.32,-64.86,4049,-6552,3065,-1,0,-1
-129.36,29.33,-64.86,4059,-6552,3068,-1,0,-1
-129.34,29.32,-64.85,4052,-6554,3080,-1,0,-1
-129.33,29.32,-64.84,4055,-6550,3080,-1,0,-1
-129.31,29.32,-64.84,4054,-6542,3070,-1,0,-1
-129.31,29.32,-64.85,4057,-6552,3061,-1,0,-1
-129.30,29.31,-64.84,4049,-6547,3080,-1,0,-1
-129.30,29.31,-64.85,4062,-6553,3076,-1,0,-1
-129.28,29.31,-64.84,4055,-6543,3081,-1,0,-1
-129.29,29.31,-64.85,4049,-6550,3068,-1,0,-1
-129.27,29.30,-64.84,4054,-6549,3089,-1,0,-1
-129.27,29.30,-64.85,4062,-6553,3082,-1,0,-1
-129.26,29.29,-64.85,4055,-6550,3080,-1,0,-1
-129.26,29.29,-64.85,4053,-6548,3081,-1,0,-1
-129.25,29.29,-64.86,4051,-6553,3078,-1,0,-1
-129.23,29.28,-64.85,4059,-6554,3079,-1,0,-1
-129.23,29.28,-64.86,4053,-6561,3069,-1,0,-1
-129.22,29.28,-64.86,4043,-6551,3084,-1,0,-1
-129.21,29.27,-64.85,4046,-6548,3089,-1,0,-1
-129.20,29.27,-64.85,4046,-6552,3083,-1,0,-1
-129.19,29.26,-64.86,4046,-6553,3077,-1,0,0
-129.20,29.25,-64.86,4043,-6564,3068,-1,0,-1
-129.20,29.25,-64.87,4036,-6561,3064,-1,0,-1
-129.20,29.25,-64.87,4031,-6567,3060,-1,0,-1
-129.20,29.24,-64.88,4033,-6565,3070,-1,0,-1
-129.21,29.24,-64.88,4044,-6557,3073,-1,-1,0
-129.22,29.24,-64.89,4050,-6564,3077,-1,0,0
-129.22,29.23,-64.90,4043,-6558,3093,-1,0,0
-129.23,29.23,-64.90,4057,-6566,3065,-1,0,-1
-129.23,29.23,-64.91,4034,-6553,3073,-1,-1,-1
-129.23,29.23,-64.92,4038,-6560,3070,-1,0,-1
-129.23,29.23,-64.92,4042,-6557,3066,-1,0,-1
-129.23,29.23,-64.91,4043,-6557,3077,0,-1,-1
-129.23,29.23,-64.91,4041,-6560,3082,-1,-1,0
-129.24,29.23,-64.91,4031,-6562,3064,0,-1,-1
-129.24,29.24,-64.92,4027,-6564,3064,0,-1,-1
-129.25,29.25,-64.93,4044,-6563,3070,-1,-1,-1
-129.24,29.25,-64.93,4047,-6563,3066,0,-1,-1
-129.24,29.26,-64.93,4045,-6557,3082,0,-1,-1
-129.25,29.27,-64.93,4045,-6557,3074,0,-1,-1
-129.26,29.27,-64.94,4043,-6563,3058,0,-1,-1
-129.27,29.28,-64.94,4043,-6560,3059,0,-1,0
-129.28,29.29,-64.95,4047,-6556,3060,0,-1,-1
-129.29,29.31,-64.96,4067,-6558,3062,0,-1,-1
-129.29,29.31,-64.95,4069,-6557,3063,0,-1,0
-129.30,29.32,-64.95,4063,-6551,3059,0,-1,0
-129.31,29.33,-64.96,4057,-6547,3065,-1,-1,0
-129.32,29.33,-64.96,4056,-6556,3063,0,-1,-1
-129.32,29.34,-64.96,4064,-6539,3078,0,-1,0
-129.32,29.35,-64.96,4066,-6545,3069,0,-1,-1
-129.33,29.35,-64.95,4078,-6541,3074,0,-1,0
-129.33,29.36,-64.96,4074,-6551,3059,-1,-1,-1
-129.34,29.36,-64.96,4064,-6545,3060,0,-1,-1
-129.34,29.38,-64.97,4059,-6549,3060,0,-1,-1
-129.36,29.38,-64.97,4059,-6552,3051,0,-1,0
-129.36,29.39,-64.96,4063,-6546,3066,0,-1,0
-129.37,29.39,-64.97,4069,-6549,3076,0,-1,0
-129.37,29.40,-64.97,4068,-6549,3065,0,-1,0
-129.39,29.40,-64.97,4061,-6549,3059,0,-1,-1
-129.39,29.40,-64.97,4059,-6544,3060,0,-1,0
-129.41,29.42,-64.98,4064,-6545,3050,0,-1,0
-129.41,29.42,-64.98,4066,-6541,3048,0,-1,0
-129.42,29.42,-64.98,4066,-6542,3055,0,-1,0
-129.44,29.43,-64.98,4065,-6546,3059,0,-1,0
-129.44,29.43,-64.98,4065,-6549,3052,0,-1,0
-129.44,29.43,-64.97,4070,-6543,3068,0,-1,0
-129.45,29.44,-64.97,4071,-6545,3070,0,-1,0
-129.45,29.45,-64.97,4073,-6549,3075,0,-1,0
-129.46,29.45,-64.97,4076,-6544,3070,0,-1,0
-129.46,29.45,-64.97,4075,-6549,3064,0,-1,-1
-129.46,29.46,-64.97,4083,-6549,3068,0,-1,-1
-129.46,29.46,-64.97,4086,-6548,3055,0,-1,-1
-129.46,29.47,-64.95,4090,-6533,3075,0,-1,0
-129.48,29.46,-64.97,4092,-6542,3063,-1,-1,0
-129.47,29.47,-64.95,4077,-6540,3065,0,-1,-1
-129.47,29.47,-64.95,4073,-6548,3060,0,-1,-1
-129.48,29.48,-64.95,4073,-6548,3065,0,-1,0
-129.48,29.48,-64.94,4085,-6551,3049,0,-1,0
-129.48,29.48,-64.94,4083,-6537,3052,0,-1,0
-129.49,29.49,-64.94,4076,-6540,3057,-1,-1,0
-129.50,29.49,-64.94,4081,-6542,3050,0,-1,0
-129.51,29.48,-64.94,4079,-6532,3067,0,-1,0
-129.52,29.49,-64.95,4078,-6546,3049,0,-1,0
-129.52,29.49,-64.95,4084,-6536,3058,0,-1,0
-129.53,29.49,-64.94,4080,-6538,3064,-1,-1,0
-129.54,29.49,-64.95,4069,-6542,3059,0,-1,0
-129.54,29.49,-64.94,4073,-6546,3061,0,-1,0
-129.55,29.49,-64.94,4081,-6543,3066,0,-1,0
-129.55,29.49,-64.94,4082,-6540,3071,0,-1,0
-129.56,29.49,-64.94,4080,-6546,3063,0,-1,0
-129.57,29.49,-64.94,4073,-6548,3064,0,-1,0
-129.58,29.49,-64.93,4079,-6540,3072,0,-1,0
-129.59,29.49,-64.94,4081,-6543,3067,0,-1,0
-129.58,29.49,-64.93,4080,-6541,3068,0,-1,0
-129.58,29.48,-64.92,4079,-6528,3074,0,-1,0
-129.60,29.49,-64.93,4070,-6534,3066,0,-1,0
-129.61,29.49,-64.93,4083,-6535,3065,0,-1,0
-129.62,29.48,-64.94,4087,-6541,3065,-1,-1,0
-129.64,29.48,-64.95,4088,-6553,3040,0,-1,0
-129.65,29.49,-64.96,4081,-6541,3056,0,-1,-1
-129.65,29.49,-64.95,4077,-6549,3049,0,-1,0
-129.65,29.49,-64.95,4079,-6541,3055,0,-1,0
-129.65,29.49,-64.94,4074,-6545,3058,0,-1,-1
-129.65,29.49,-64.94,4067,-6547,3051,0,-1,-1
-129.64,29.49,-64.94,4071,-6542,3061,0,0,-1
-129.63,29.50,-64.93,4089,-6542,3083,-1,0,0
-129.62,29.49,-64.92,4093,-6550,3075,-1,0,0
-129.61,29.48,-64.92,4080,-6546,3056,-1,0,-1
-129.60,29.47,-64.91,4064,-6536,3065,-1,0,-1
-129.59,29.47,-64.90,4068,-6538,3074,-1,0,-1
-129.58,29.46,-64.90,4077,-6546,3073,-1,0,-1
-129.56,29.46,-64.89,4079,-6541,3072,0,0,-1
-129.55,29.46,-64.89,4074,-6537,3075,-1,0,-1
-129.54,29.45,-64.89,4077,-6546,3069,-1,0,-1
-129.53,29.45,-64.89,4087,-6541,3080,-1,0,-1
-129.52,29.45,-64.89,4083,-6534,3073,-1,0,-1
-129.52,29.44,-64.90,4069,-6534,3065,-1,0,-1
-129.50,29.43,-64.90,4073,-6536,3064,-1,0,-1
-129.49,29.44,-64.89,4076,-6538,3073,-1,0,-1
-129.48,29.43,-64.89,4071,-6538,3059,-1,0,-1
-129.47,29.42,-64.89,4075,-6534,3066,-1,0,-1
-129.46,29.42,-64.90,4070,-6536,3074,-2,0,-1
-129.46,29.42,-64.92,4082,-6558,3042,-1,0,-1
-129.44,29.42,-64.91,4070,-6541,3066,-1,0,-1
-129.43,29.41,-64.91,4067,-6548,3062,-1,0,-1
-129.41,29.41,-64.89,4074,-6535,3077,-1,0,-1
-129.39,29.41,-64.90,4080,-6546,3066,-1,0,-1
-129.38,29.39,-64.89,4071,-6539,3070,-1,0,-1
-129.37,29.38,-64.89,4068,-6539,3068,-1,0,-1
-129.35,29.38,-64.89,4071,-6544,3069,-1,0,-1
-129.34,29.38,-64.89,4072,-6543,3071,-1,0,-1
-129.32,29.38,-64.89,4071,-6551,3052,-1,1,-1
-129.31,29.37,-64.88,4073,-6534,3064,-1,0,-1
-129.28,29.37,-64.88,4078,-6538,3070,-1,0,-1
-129.27,29.36,-64.88,4074,-6536,3058,-1,0,0
-129.26,29.35,-64.88,4062,-6538,3066,-1,0,0
-129.26,29.34,-64.89,4056,-6543,3061,-1,0,0
-129.25,29.34,-64.89,4068,-6544,3067,-1,0,-1
-129.25,29.33,-64.88,4069,-6546,3077,-1,0,0
-129.26,29.32,-64.90,4064,-6542,3071,-1,0,0
-129.25,29.32,-64.90,4067,-6548,3066,-1,0,-1
-129.24,29.32,-64.90,4070,-6553,3077,-1,0,-1
-129.24,29.30,-64.91,4062,-6546,3084,-1,0,0
-129.24,29.28,-64.92,4054,-6544,3080,-2,0,0
-129.25,29.28,-64.94,4055,-6558,3038,-1,0,-1
-129.23,29.28,-64.93,4042,-6557,3050,0,0,-1
-129.22,29.28,-64.93,4049,-6558,3056,-1,0,-1
-129.22,29.28,-64.94,4050,-6557,3062,-1,0,-1
-129.22,29.28,-64.94,4052,-6560,3044,-1,0,-1
-129.21,29.28,-64.94,4047,-6555,3062,-1,0,0
-129.22,29.28,-64.95,4056,-6556,3061,-1,-1,-1
-129.24,29.29,-64.96,4060,-6551,3064,-1,-1,0
-129.25,29.29,-64.97,4068,-6552,3054,-1,-1,0
-129.25,29.30,-64.97,4060,-6550,3045,0,-1,-1
-129.26,29.30,-64.98,4062,-6547,3056,0,-1,0
-129.27,29.31,-64.98,4059,-6549,3065,0,-1,0
-129.28,29.32,-64.99,4075,-6546,3060,0,-1,0
-129.28,29.32,-64.99,4073,-6538,3059,-1,-1,0
-129.29,29.32,-64.99,4073,-6545,3048,0,-1,0
-129.30,29.33,-65.00,4082,-6549,3044,-1,-1,-1
-129.29,29.35,-65.00,4087,-6549,3052,0,0,-1
-129.28,29.34,-64.99,4080,-6547,3056,0,-1,-1
-129.28,29.35,-64.99,4075,-6551,3044,0,-1,-1
-129.28,29.36,-64.99,4075,-6548,3043,0,-1,-1
-129.28,29.36,-64.99,4073,-6551,3042,-1,-1,-1
-129.29,29.37,-65.00,4087,-6558,3035,0,-1,-1
-129.28,29.37,-64.98,4081,-6544,3052,0,-1,0
-129.29,29.38,-64.99,4075,-6551,3050,0,-1,0
-129.30,29.38,-64.99,4072,-6541,3055,0,-1,0
-129.31,29.38,-65.00,4083,-6544,3047,0,-1,0
-129.31,29.39,-64.99,4087,-6537,3058,0,-1,0
-129.32,29.40,-65.00,4085,-6542,3035,0,-1,-1
-129.32,29.40,-64.99,4077,-6543,3037,0,-1,0
-129.32,29.41,-64.99,4075,-6546,3047,0,-1,0
-129.33,29.41,-64.99,4076,-6543,3049,0,-1,0
-129.34,29.42,-64.99,4085,-6545,3058,0,-1,0
-129.35,29.42,-65.00,4077,-6554,3044,0,-1,0
-129.35,29.42,-64.99,4076,-6552,3039,0,-1,-1
-129.35,29.42,-64.99,4077,-6558,3036,0,-1,0
-129.36,29.43,-64.99,4080,-6552,3026,0,-1,0
-129.37,29.44,-64.99,4079,-6545,3037,0,-1,0
-129.39,29.44,-64.99,4090,-6548,3037,0,-1,0
-129.39,29.45,-64.99,4088,-6549,3035,0,-1,0
-129.39,29.45,-64.98,4097,-6541,3045,0,-1,0
-129.40,29.45,-64.98,4086,-6546,3050,0,-1,0
-129.42,29.45,-64.99,4095,-6551,3044,0,-1,0
-129.43,29.45,-64.98,4087,-6543,3048,0,-1,0
-129.43,29.46,-64.99,4099,-6549,3027,0,-1,0
-129.42,29.46,-64.97,4087,-6535,3046,0,-1,0
-129.42,29.47,-64.97,4098,-6540,3058,0,-1,0
-129.42,29.47,-64.96,4105,-6537,3059,0,-1,0
-129.42,29.47,-64.96,4100,-6539,3045,0,-1,0
-129.41,29.47,-64.94,4091,-6540,3049,0,-1,0
-129.41,29.48,-64.93,4097,-6533,3055,0,-1,0
-129.41,29.48,-64.92,4098,-6534,3063,0,-1,0
-129.41,29.48,-64.92,4100,-6532,3057,0,-1,0
-129.41,29.48,-64.92,4099,-6529,3055,0,-1,0
-129.41,29.48,-64.92,4095,-6529,3059,0,-1,0
-129.40,29.48,-64.91,4100,-6536,3067,0,-1,0
-129.41,29.48,-64.90,4091,-6532,3072,0,-1,0
-129.41,29.48,-64.90,4089,-6531,3073,0,-1,0
-129.41,29.48,-64.89,4090,-6520,3070,0,0,0
-129.41,29.48,-64.89,4087,-6527,3052,0,0,0
-129.40,29.48,-64.89,4089,-6529,3056,0,0,0
-129.41,29.47,-64.89,4086,-6540,3051,-1,0,0
-129.40,29.48,-64.89,4089,-6541,3049,0,-1,0
-129.41,29.48,-64.89,4092,-6541,3042,0,-1,0
-129.42,29.47,-64.88,4094,-6527,3053,0,-1,0
-129.42,29.47,-64.88,4101,-6524,3079,-1,0,0
-129.42,29.47,-64.89,4097,-6545,3047,-1,0,-1
-129.41,29.47,-64.88,4094,-6537,3047,0,0,-1
-129.40,29.48,-64.87,4087,-6531,3071,0,-1,0
-129.41,29.48,-64.87,4094,-6536,3059,0,-1,0
-129.41,29.48,-64.87,4106,-6514,3071,0,0,0
-129.42,29.47,-64.87,4110,-6520,3088,-1,-1,0
-129.44,29.46,-64.89,4101,-6548,3061,-1,0,0
-129.45,29.46,-64.90,4099,-6542,3049,-1,0,0
-129.46,29.44,-64.91,4105,-6544,3057,-1,0,0
-129.48,29.43,-64.92,4085,-6541,3046,-1,0,0
-129.49,29.41,-64.91,4068,-6538,3040,0,0,0
-129.48,29.40,-64.91,4059,-6544,3046,0,0,0
-129.48,29.39,-64.91,4064,-6538,3057,-1,0,-1
-129.46,29.40,-64.89,4092,-6530,3066,0,0,-1
-129.43,29.40,-64.88,4090,-6527,3074,-1,0,-1
-129.43,29.40,-64.88,4067,-6533,3044,-1,0,-1
-129.41,29.40,-64.87,4065,-6523,3050,-1,0,-1
-129.40,29.40,-64.88,4071,-6521,3056,-1,-1,-1
-129.39,29.41,-64.87,4091,-6522,3068,0,0,-1
-129.37,29.41,-64.87,4084,-6521,3070,-1,0,-1
-129.37,29.42,-64.87,4087,-6532,3050,-1,0,-1
-129.36,29.42,-64.87,4102,-6523,3081,-1,0,-1
-129.35,29.42,-64.87,4096,-6526,3076,-1,0,0
-129.35,29.42,-64.88,4105,-6527,3084,-1,0,0
-129.34,29.41,-64.90,4085,-6541,3083,-2,0,-1
-129.34,29.41,-64.91,4087,-6550,3054,-1,0,-1
-129.32,29.41,-64.90,4082,-6536,3075,-1,0,-1
-129.30,29.42,-64.89,4094,-6531,3081,-1,0,-1
-129.27,29.42,-64.89,4098,-6537,3071,-1,0,-1
-129.25,29.42,-64.89,4087,-6544,3053,-1,1,-1
-129.23,29.41,-64.88,4079,-6539,3060,-1,1,-1
-129.22,29.41,-64.88,4072,-6542,3049,-1,0,-1
-129.21,29.40,-64.88,4085,-6544,3050,-1,0,0
-129.20,29.40,-64.88,4088,-6540,3060,-1,0,-1
-129.18,29.40,-64.88,4097,-6548,3057,-1,0,-1
-129.17,29.39,-64.88,4097,-6539,3056,-1,0,-1
-129.16,29.39,-64.87,4094,-6537,3073,-1,0,-1
-129.13,29.39,-64.87,4088,-6537,3063,-1,0,-1
-129.13,29.39,-64.87,4092,-6541,3059,-1,0,-1
-129.11,29.38,-64.86,4089,-6533,3069,-1,0,-1
-129.10,29.38,-64.86,4082,-6536,3057,-1,0,-1
-129.09,29.38,-64.86,4083,-6538,3062,-1,0,-1
-129.07,29.37,-64.86,4090,-6541,3059,-1,0,-1
-129.06,29.37,-64.87,4083,-6535,3056,-1,0,0
-129.06,29.36,-64.87,4074,-6536,3054,-1,0,-1
-129.06,29.36,-64.88,4078,-6531,3057,-1,0,0
-129.06,29.36,-64.89,4079,-6541,3057,-1,0,0
-129.05,29.36,-64.90,4084,-6548,3048,-1,0,-1
-129.04,29.35,-64.90,4070,-6545,3051,-1,0,-1
-129.05,29.34,-64.91,4070,-6545,3046,-1,0,-1
-129.04,29.35,-64.91,4078,-6539,3052,-1,0,-1
-129.03,29.35,-64.91,4074,-6544,3049,-1,0,-1
-129.03,29.34,-64.91,4077,-6552,3054,-1,0,-1
-129.02,29.34,-64.91,4073,-6548,3048,-1,0,-1
-129.02,29.33,-64.91,4060,-6543,3044,-1,0,0
-129.02,29.33,-64.92,4064,-6543,3052,-1,0,0
-129.02,29.33,-64.93,4058,-6550,3037,-1,0,-1
-129.02,29.33,-64.93,4061,-6547,3051,0,-1,0
-129.03,29.33,-64.93,4065,-6537,3054,0,-1,0
-129.04,29.34,-64.94,4081,-6545,3047,-1,-1,0
-129.06,29.33,-64.96,4063,-6556,3047,0,-1,0
-129.10,29.32,-64.97,4014,-6551,3055,0,-2,0
-129.15,29.31,-65.00,4054,-6544,3083,-1,-3,1
-129.22,29.31,-65.05,4121,-6518,3094,-2,-2,1
-129.33,29.27,-65.11,4094,-6519,3126,-2,-2,2
-129.43,29.26,-65.19,4125,-6562,3027,-1,-2,-1
-129.35,29.33,-65.17,4181,-6553,2973,1,1,-3
-129.21,29.39,-65.09,4183,-6564,2974,1,3,-3
-129.08,29.38,-65.00,4110,-6566,3006,0,3,-1
-129.03,29.35,-64.98,4060,-6583,3001,-2,2,-1
-128.99,29.34,-64.96,4012,-6594,2951,0,2,-1
-128.93,29.34,-64.91,3990,-6585,2963,1,1,-2
-128.86,29.35,-64.84,4015,-6556,3042,1,0,-1
-128.82,29.36,-64.78,4061,-6551,3091,1,0,-1
-128.79,29.35,-64.74,4054,-6552,3061,1,0,0
-128.77,29.36,-64.70,4054,-6527,3067,1,-1,0
-128.75,29.37,-64.67,4073,-6520,3077,1,-2,-1
-128.76,29.39,-64.65,4077,-6506,3109,1,-1,0
-128.75,29.40,-64.62,4099,-6507,3110,0,-1,-1
-128.73,29.41,-64.60,4093,-6494,3111,1,-1,-1
-128.72,29.41,-64.57,4086,-6501,3120,0,-1,-1
-128.69,29.42,-64.54,4084,-6500,3123,0,-1,0
-128.70,29.42,-64.54,4067,-6499,3132,-1,-1,0
-128.72,29.42,-64.55,4079,-6508,3126,-1,-1,0
-128.72,29.43,-64.56,4091,-6508,3108,-1,-1,0
-128.73,29.44,-64.57,4102,-6505,3096,-1,-1,0
-128.75,29.45,-64.58,4096,-6514,3095,-1,-1,0
-128.77,29.45,-64.60,4098,-6520,3091,0,-2,0
-128.81,29.45,-64.61,4086,-6522,3090,0,-2,0
-128.84,29.45,-64.63,4094,-6524,3097,-1,-1,0
-128.88,29.45,-64.66,4089,-6523,3081,-1,-1,0
-128.90,29.46,-64.67,4096,-6532,3053,0,-1,0
-128.91,29.46,-64.66,4086,-6525,3075,0,-1,0
-128.91,29.47,-64.67,4096,-6529,3078,0,-1,0
-128.92,29.47,-64.66,4107,-6522,3088,0,-1,0
-128.91,29.47,-64.65,4104,-6524,3084,0,0,0
-128.91,29.47,-64.64,4104,-6521,3079,0,-1,0
-128.90,29.47,-64.63,4087,-6522,3083,0,-1,0
-128.91,29.47,-64.62,4092,-6523,3085,0,0,0
-128.90,29.47,-64.61,4092,-6520,3082,0,-1,0
-128.89,29.48,-64.60,4097,-6513,3087,0,-1,0
-128.89,29.48,-64.59,4098,-6505,3082,0,-1,-1
-128.89,29.48,-64.59,4099,-6514,3083,0,0,0
-128.88,29.48,-64.58,4095,-6508,3083,0,-1,0
-128.89,29.48,-64.58,4091,-6509,3088,0,-1,0
-128.90,29.48,-64.58,4092,-6503,3089,0,-1,0
-128.91,29.47,-64.58,4089,-6505,3095,0,-1,0
-128.91,29.47,-64.58,4091,-6509,3093,-1,-1,0
-128.92,29.47,-64.59,4088,-6517,3094,0,-1,0
-128.93,29.47,-64.59,4097,-6513,3089,-1,-1,0
-128.93,29.47,-64.59,4105,-6511,3097,-1,-1,0
-128.94,29.47,-64.59,4101,-6515,3086,-1,-1,0
-128.95,29.47,-64.60,4098,-6521,3076,0,-1,0
-128.95,29.47,-64.60,4100,-6507,3101,-1,-1,0
-128.97,29.46,-64.62,4108,-6533,3089,-1,0,0
-128.96,29.46,-64.62,4101,-6536,3067,0,0,0
-128.96,29.46,-64.62,4087,-6524,3069,0,-1,-1
-128.96,29.46,-64.62,4091,-6523,3085,-1,0,0
-128.96,29.46,-64.63,4090,-6525,3083,-1,0,0
-128.96,29.45,-64.62,4095,-6524,3076,0,0,0
-128.96,29.45,-64.61,4089,-6517,3085,0,0,0
-128.97,29.44,-64.62,4071,-6522,3079,0,-1,0
-128.97,29.45,-64.62,4078,-6527,3075,0,-1,0
-128.97,29.45,-64.62,4099,-6517,3081,-1,-1,-1
-128.95,29.46,-64.61,4114,-6504,3110,-1,0,-1
-128.95,29.45,-64.61,4123,-6500,3113,-1,0,-1
-128.93,29.44,-64.61,4110,-6510,3100,-1,0,0
-128.93,29.44,-64.61,4089,-6514,3095,-1,0,-1
-128.90,29.44,-64.60,4099,-6513,3098,-1,1,-1
-128.87,29.44,-64.59,4092,-6512,3095,-1,1,-1
-128.85,29.43,-64.59,4084,-6510,3097,-1,0,-1
-128.84,29.43,-64.59,4084,-6521,3084,-1,0,-1
-128.82,29.43,-64.60,4084,-6518,3077,-1,1,-1
-128.80,29.43,-64.59,4083,-6523,3082,-1,0,-1
-128.77,29.43,-64.57,4088,-6510,3094,-1,0,-1
-128.77,29.42,-64.57,4064,-6517,3094,-1,0,0
-128.78,29.42,-64.60,4089,-6523,3077,-1,0,0
-128.77,29.42,-64.61,4101,-6517,3098,-1,0,0
-128.77,29.42,-64.62,4104,-6530,3085,-1,0,-1
-128.75,29.42,-64.61,4101,-6516,3092,0,0,-1
-128.73,29.42,-64.60,4101,-6521,3098,-1,0,-1
-128.72,29.42,-64.61,4101,-6518,3099,-1,0,-1
-128.70,29.42,-64.61,4090,-6521,3088,-1,1,-1
-128.68,29.41,-64.60,4079,-6517,3083,-1,0,-1
-128.67,29.42,-64.61,4089,-6520,3088,-1,0,-1
-128.65,29.41,-64.60,4098,-6528,3089,-1,1,-1
-128.63,29.40,-64.59,4087,-6518,3085,-1,1,-1
-128.62,29.40,-64.60,4077,-6521,3072,-1,0,-1
-128.60,29.39,-64.60,4078,-6523,3067,-1,0,-1
-128.59,29.39,-64.59,4081,-6524,3082,-1,0,-1
-128.58,29.39,-64.59,4081,-6528,3094,-1,0,0
-128.57,29.38,-64.60,4080,-6527,3083,-1,0,-1
-128.57,29.38,-64.60,4080,-6531,3086,-1,0,-1
-128.57,29.38,-64.60,4076,-6533,3080,-1,0,0
-128.56,29.38,-64.60,4067,-6534,3080,-1,0,0
-128.57,29.37,-64.62,4065,-6530,3081,-1,0,0
-128.58,29.37,-64.63,4079,-6517,3101,-1,-1,0
-128.58,29.38,-64.64,4102,-6526,3106,-1,-1,0
-128.59,29.37,-64.66,4100,-6522,3087,-1,0,0
-128.60,29.37,-64.67,4096,-6521,3085,-1,0,0
-128.60,29.37,-64.68,4106,-6529,3075,-1,0,-1
-128.59,29.37,-64.68,4086,-6518,3082,-1,0,-1
-128.59,29.37,-64.69,4089,-6532,3080,-1,0,0
-128.59,29.37,-64.69,4079,-6526,3076,-1,0,0
-128.58,29.37,-64.70,4071,-6524,3078,-1,0,-1
-128.59,29.37,-64.70,4079,-6532,3081,-1,0,-1
-128.58,29.37,-64.71,4092,-6539,3067,-1,0,-1
-128.58,29.37,-64.71,4078,-6539,3073,-1,0,0
-128.58,29.37,-64.71,4081,-6536,3068,-1,-1,0
-128.60,29.36,-64.72,4068,-6532,3071,-1,-1,0
-128.60,29.37,-64.73,4064,-6533,3071,-1,-1,0
-128.62,29.38,-64.74,4067,-6531,3058,0,-1,0
-128.64,29.38,-64.75,4079,-6546,3057,0,-1,-1
-128.64,29.39,-64.76,4088,-6537,3074,0,-1,0
-128.66,29.39,-64.76,4080,-6537,3073,0,-1,0
-128.66,29.40,-64.77,4087,-6540,3072,0,-1,0
-128.67,29.40,-64.77,4089,-6538,3063,0,-1,0
-128.66,29.41,-64.76,4091,-6528,3070,0,-1,-1
-128.66,29.42,-64.76,4093,-6523,3072,0,-1,-1
-128.67,29.43,-64.76,4101,-6527,3073,0,-1,-1
-128.66,29.43,-64.76,4091,-6523,3074,0,0,0
-128.66,29.43,-64.77,4089,-6538,3059,-1,-1,-1
-128.66,29.43,-64.77,4087,-6535,3056,0,0,-1
-128.66,29.44,-64.76,4084,-6530,3061,0,-1,-1
-128.66,29.45,-64.76,4082,-6535,3067,0,-1,0
-128.67,29.45,-64.76,4093,-6534,3060,0,-1,0
-128.66,29.47,-64.75,4115,-6517,3085,0,-1,-1
-128.64,29.47,-64.73,4124,-6545,3088,0,0,0
-128.61,29.47,-64.68,4215,-6487,3150,0,0,-1
-128.53,29.50,-64.66,4225,-6546,3074,-1,3,-2
-128.44,29.46,-64.60,4043,-6622,2912,3,4,-2
-128.37,29.42,-64.46,3943,-6637,2945,5,0,0
-128.39,29.40,-64.36,3837,-6578,3052,4,-5,1
-128.51,29.45,-64.37,3752,-6563,3074,4,-11,-1
-128.69,29.58,-64.43,3803,-6542,3127,3,-14,-1
-128.93,29.76,-64.57,3921,-6551,3134,3,-17,-1
-129.13,29.98,-64.69,4122,-6573,3110,4,-16,-1
-129.26,30.18,-64.75,4256,-6536,3101,4,-14,-2
-129.33,30.40,-64.78,4312,-6508,3049,4,-12,-3
-129.33,30.63,-64.78,4338,-6577,2974,6,-10,-5
-129.19,30.91,-64.67,4347,-6669,2898,8,-8,-9
-128.90,31.27,-64.47,4389,-6712,2868,10,-7,-13
-128.46,31.73,-64.15,4404,-6654,2910,13,-8,-17
-127.91,32.30,-63.78,4440,-6496,3053,12,-10,-21
-127.35,33.01,-63.49,4525,-6365,3113,9,-14,-22
-126.87,33.78,-63.33,4590,-6336,2973,11,-17,-24
-126.27,34.58,-62.96,4703,-6201,2919,17,-14,-25
-125.64,35.33,-62.50,4770,-6008,3049,16,-14,-22
-125.07,36.07,-62.16,4808,-5937,3092,11,-16,-23
-124.59,36.84,-61.95,4912,-5967,2983,11,-16,-22
-124.10,37.56,-61.68,5021,-5890,2929,14,-14,-21
-123.50,38.23,-61.22,5036,-5687,3047,14,-10,-21
-122.95,38.86,-60.83,5031,-5466,3202,9,-12,-20
-122.53,39.49,-60.65,5119,-5456,3250,6,-14,-18
-122.18,40.04,-60.50,5209,-5469,3230,7,-11,-15
-121.82,40.51,-60.27,5277,-5403,3275,7,-8,-15
-121.47,40.93,-60.04,5308,-5320,3319,4,-8,-13
-121.17,41.34,-59.91,5357,-5334,3271,3,-8,-13
-120.90,41.71,-59.79,5396,-5308,3234,4,-7,-10
-120.70,42.02,-59.69,5426,-5278,3221,3,-7,-9
-120.56,42.25,-59.65,5441,-5276,3216,1,-6,-6
-120.50,42.43,-59.71,5468,-5256,3201,-1,-6,-4
-120.50,42.56,-59.80,5502,-5235,3122,-1,-5,-2
-120.50,42.66,-59.87,5510,-5225,3052,-1,-4,-2
-120.52,42.73,-59.96,5575,-5245,2970,-1,-3,-1
-120.52,42.78,-59.98,5626,-5244,2945,0,-2,-1
-120.53,42.80,-59.99,5661,-5234,2975,0,-2,0
-120.54,42.81,-60.01,5687,-5205,2978,-1,-1,0
-120.55,42.82,-60.03,5671,-5176,2964,-1,0,0
-120.58,42.81,-60.07,5638,-5194,2967,-1,-2,-1
-120.57,42.87,-60.09,5687,-5213,2943,0,-1,-1
-120.52,42.92,-60.06,5698,-5195,2985,1,-2,-2
-120.48,42.98,-60.02,5675,-5171,3040,0,-2,-2
-120.45,43.05,-60.04,5672,-5157,3028,-1,-2,-2
-120.41,43.12,-60.06,5657,-5154,3011,-1,-2,-3
-120.37,43.20,-60.07,5690,-5207,3004,-1,-2,-3
-120.32,43.28,-60.07,5710,-5224,2980,0,-2,-3
-120.27,43.36,-60.05,5715,-5245,2968,1,-1,-3
-120.21,43.41,-60.00,5686,-5257,2959,1,-2,-2
-120.19,43.45,-59.96,5653,-5264,2913,2,-1,-2
-120.16,43.49,-59.90,5631,-5293,2864,4,-2,-2
-120.14,43.56,-59.82,5669,-5366,2821,6,-3,-2
-120.13,43.61,-59.73,5700,-5420,2912,6,-4,-1
-120.18,43.68,-59.71,5761,-5544,2862,7,-6,-1
-120.19,43.80,-59.63,5876,-5619,2772,12,-7,-3
-120.15,43.89,-59.34,5933,-5587,2851,18,-5,0
-120.13,43.92,-58.95,5937,-5514,2907,19,-5,2
-120.11,43.90,-58.47,5828,-5413,2986,22,-3,1
-120.07,43.88,-57.95,5774,-5208,3050,22,-3,3
-120.04,43.84,-57.42,5633,-5103,3206,21,-5,2
-120.08,43.85,-57.04,5719,-5153,3366,18,-9,3
-120.13,43.89,-56.72,5803,-5094,3389,19,-7,2
-120.16,43.90,-56.34,5861,-4859,3387,18,-6,6
-120.27,43.87,-56.06,5654,-4662,3408,16,-8,6
-120.55,43.84,-56.06,5400,-4756,3598,9,-19,9
-120.89,44.07,-56.47,5616,-5005,3396,7,-26,1
-120.98,44.49,-56.64,5980,-4978,2945,18,-17,-3
-120.87,44.65,-56.08,5940,-4655,2845,29,1,3
-121.09,44.32,-55.41,5844,-4001,3437,24,-6,26
-121.94,43.84,-55.63,5478,-3771,3691,9,-22,32
-122.92,43.47,-56.27,5483,-3802,3435,9,-22,36
-124.12,42.91,-57.03,5511,-4106,3228,11,-21,41
-125.36,42.19,-57.62,5505,-4438,3248,14,-20,42
-126.40,41.75,-58.21,5615,-5013,3083,15,-26,25
-126.93,41.79,-58.31,6083,-5503,2809,40,-26,17
-127.51,41.70,-57.95,5938,-5465,3351,43,-32,24
-128.33,41.57,-58.04,5851,-5123,4011,24,-47,31
-129.31,41.56,-58.87,5813,-5135,3613,17,-47,30
-130.19,41.51,-59.61,5660,-5254,3211,21,-40,26
-130.94,41.45,-60.14,5561,-5360,3088,20,-37,22
-131.60,41.42,-60.65,5531,-5533,3039,17,-36,19
-132.20,41.42,-61.22,5544,-5651,2944,15,-34,18
-132.74,41.35,-61.60,5519,-5710,2810,18,-24,16
-133.16,41.26,-61.72,5409,-5646,2866,18,-20,12
-133.50,41.23,-61.82,5272,-5492,2983,14,-20,10
-133.81,41.21,-62.01,5195,-5494,3071,9,-21,9
-134.10,41.22,-62.35,5299,-5607,3040,6,-19,8
-134.40,41.18,-62.68,5285,-5616,2977,4,-17,10
-134.69,41.13,-63.07,5322,-5541,2914,1,-17,9
-134.98,41.08,-63.57,5382,-5497,2909,-5,-17,9
-135.24,41.09,-64.25,5500,-5500,2822,-9,-19,9
-135.43,41.14,-64.96,5571,-5591,2689,-9,-16,5
-135.55,41.20,-65.55,5609,-5689,2594,-9,-12,3
-135.66,41.22,-66.02,5566,-5708,2481,-8,-8,3
-135.76,41.23,-66.47,5478,-5750,2411,-9,-9,2
-135.83,41.25,-66.91,5436,-5736,2346,-8,-7,2
-135.93,41.24,-67.35,5426,-5686,2320,-11,-8,4
-136.14,41.20,-68.06,5377,-5703,2178,-13,-15,7
-136.44,41.13,-68.98,5364,-5757,2070,-15,-20,11
-136.84,41.00,-70.07,5409,-5856,1963,-15,-24,13
-137.25,40.89,-71.25,5611,-5863,1902,-17,-30,16
-137.82,40.66,-72.78,5679,-5869,1890,-24,-38,23
-138.52,40.36,-74.77,5773,-6123,1842,-28,-51,25
-139.17,40.13,-76.88,5990,-6611,1696,-23,-55,20
-139.61,39.89,-78.09,5816,-7074,780,6,-16,11
-139.96,39.57,-77.60,5789,-6975,394,36,8,13
-140.44,39.09,-76.45,5479,-6383,770,39,4,17
-140.84,38.77,-75.82,5190,-5927,1217,24,-16,13
-141.14,38.60,-75.86,5137,-6107,1350,11,-19,10
-141.45,38.43,-76.00,5174,-6401,1260,12,-16,8
-141.66,38.29,-75.77,5507,-6704,1017,24,-2,8
-142.10,37.88,-74.76,5663,-6477,912,42,16,19
-142.74,37.22,-73.10,5157,-5918,1135,49,22,18
-143.24,36.74,-71.77,5003,-5309,1751,31,5,17
-143.73,36.35,-71.33,4842,-5252,2212,11,-13,18
-144.17,36.05,-71.53,5062,-5677,2199,3,-14,18
-144.66,35.66,-71.54,5260,-6111,1768,16,0,18
-145.31,35.05,-70.84,5041,-6210,1440,34,16,22
-145.90,34.47,-69.89,4668,-6002,2193,20,3,11
-146.14,34.34,-69.85,5135,-6157,2958,-5,-20,14
-146.63,33.98,-70.46,4950,-6595,2672,-8,-13,20
-147.19,33.51,-70.84,4807,-6837,2342,2,-7,18
-147.55,33.22,-70.81,4843,-6833,2376,9,-5,9
-147.81,33.06,-70.64,4758,-6693,2593,10,-8,8
-147.96,33.00,-70.44,4681,-6590,2481,11,-6,3
-147.99,33.07,-70.10,4599,-6666,2283,20,-6,-6
-147.75,33.39,-69.40,4626,-6596,2271,26,-1,-16
-147.30,33.87,-68.47,4783,-6337,2470,23,7,-18
-147.01,34.15,-67.59,4882,-5809,2648,17,10,-7
-146.90,34.19,-67.46,4737,-4216,2558,-25,1,3
-146.38,34.68,-67.72,3906,-5837,2638,12,-6,-28
-146.51,34.60,-67.29,4615,-6827,3123,10,5,18
-147.70,33.38,-66.81,4628,-6088,2654,15,26,43
-148.48,32.47,-65.92,4493,-5664,2179,27,37,16
-149.35,31.45,-64.72,4302,-5692,2594,27,27,33
-150.57,30.31,-64.16,3747,-5697,3370,15,-1,36
-151.43,29.55,-64.09,4071,-5605,3445,0,4,31
-152.56,28.48,-64.29,3572,-6020,3594,-4,-4,44
-153.35,27.98,-65.16,3428,-6572,3811,-17,-40,14
-153.48,28.19,-66.02,4484,-7362,3688,-6,-33,15
-154.12,27.79,-66.44,4675,-7320,3279,2,-8,30
-154.89,27.11,-66.53,4248,-7037,3155,3,-1,24
-155.46,26.63,-66.72,3791,-7115,3259,-5,-12,17
-155.93,26.32,-67.31,3437,-7102,3081,-12,-22,15
-156.24,26.14,-67.95,3451,-7231,2708,-7,-16,12
-156.61,25.87,-68.26,3376,-7322,2597,0,-11,12
-156.98,25.62,-68.55,3404,-7392,2762,-4,-14,13
-157.36,25.31,-68.96,3380,-7431,2776,-12,-11,14
-157.72,24.99,-69.64,3345,-7631,2408,-13,-15,15
-158.14,24.66,-70.23,3246,-7657,2021,-4,-15,16
-158.52,24.40,-70.52,3033,-7491,1910,4,-16,10
-158.75,24.33,-70.63,3064,-7162,1931,6,-16,6
-158.89,24.36,-70.79,3042,-6866,1994,6,-25,4
-158.98,24.49,-70.95,2978,-6665,2310,1,-30,3
-158.92,24.73,-71.59,2785,-6904,2610,-15,-41,-2
-158.65,25.11,-72.74,3165,-7449,2520,-22,-55,4
-158.65,25.24,-74.34,3858,-7859,2154,-23,-69,22
-158.81,25.17,-75.96,4435,-8052,1901,-20,-71,23
-158.88,25.12,-77.21,4892,-8166,1658,-10,-49,19
-159.07,24.97,-77.71,4681,-8304,1402,7,-20,12
-159.54,24.71,-77.57,4257,-8191,1065,24,-18,14
-160.18,24.44,-76.96,3881,-7935,889,37,-10,12
-161.07,24.06,-76.06,3416,-7361,1075,44,-17,17
-161.78,23.91,-75.26,3203,-6948,1689,32,-26,7
-162.07,23.98,-74.88,3207,-7086,2138,14,-22,0
-162.24,23.97,-74.92,3019,-6825,1994,3,-22,7
-162.25,24.10,-75.12,2791,-6886,1819,7,-29,-6
-162.29,24.26,-75.13,3124,-7195,1881,8,-19,2
-162.57,24.15,-74.85,3342,-7581,1691,14,8,2
-163.14,23.86,-74.05,3487,-7627,1187,37,22,10
-164.19,23.37,-72.59,3097,-7038,959,53,20,9
-165.21,23.09,-70.95,3088,-6292,1209,58,6,9
-166.21,22.87,-69.46,2986,-6010,1988,47,-2,8
-166.95,22.73,-68.34,3064,-6086,3040,25,-2,6
-167.34,22.53,-67.94,3184,-6345,3523,-1,4,8
-167.33,22.36,-68.15,3370,-6708,3246,-15,4,2
-167.28,22.24,-68.48,3633,-7075,2300,3,6,10
-167.98,21.72,-67.90,3296,-6837,1985,26,17,14
-168.42,21.54,-67.37,3116,-6935,2582,13,-6,1
-168.60,21.57,-67.25,3495,-7419,3283,1,-10,8
-168.92,21.26,-67.30,3387,-7704,3373,-2,8,13
-169.31,20.78,-67.11,3203,-7643,2984,6,22,8
-169.74,20.40,-66.74,2944,-7395,2735,15,4,9
-170.29,20.21,-66.37,2804,-7162,2835,19,-14,10
-170.69,20.20,-66.05,3059,-6988,3186,14,-14,7
-170.98,20.16,-65.83,3232,-7093,3651,3,-4,5
-171.05,20.14,-65.77,3462,-7210,3865,-3,0,3
-171.07,20.02,-65.83,3229,-7240,3595,-5,7,3
-171.17,19.83,-65.90,3113,-7297,3255,-2,3,5
-171.28,19.74,-65.91,3090,-7046,3034,3,-2,4
-171.33,19.81,-65.84,2891,-6875,3196,2,-9,-3
-171.23,20.00,-65.85,2853,-6734,3386,-3,-11,-5
-170.78,20.52,-65.98,2989,-6452,3024,-1,-14,-18
-170.15,21.30,-65.85,3120,-6524,2740,12,-11,-27
-169.30,22.37,-65.13,3141,-6885,2926,26,7,-49
-168.39,23.35,-63.80,3190,-7162,3586,25,28,-53
-167.65,23.95,-62.72,3576,-6928,4183,4,28,-26
-167.27,24.03,-62.74,3539,-5921,3997,-22,4,1
-166.65,24.12,-64.07,2956,-4353,3285,-65,-21,0
-165.36,25.07,-65.54,2175,-5116,3040,-26,-50,-40
-163.46,26.87,-66.69,3694,-6759,3346,-27,-53,-38
-162.75,27.45,-67.62,4290,-8175,3051,-8,-12,1
-163.30,26.73,-67.19,4457,-8510,2417,15,68,22
-164.98,24.84,-65.90,4148,-7509,1549,31,81,46
-167.20,22.81,-64.16,2848,-6506,1555,56,57,44
-168.94,21.43,-62.74,2076,-6083,2898,29,13,25
-170.24,20.55,-62.08,1907,-6398,4733,9,-9,34
-170.94,20.10,-62.57,2142,-6344,5454,-30,-33,19
-170.89,20.01,-63.63,2665,-6833,5023,-35,-13,13
-170.63,19.79,-64.83,2623,-7089,4052,-42,-1,6
-170.01,19.83,-66.15,2695,-7635,3022,-38,-6,-5
-169.53,20.03,-67.28,3075,-8165,2189,-18,-24,3
-169.47,20.17,-67.87,3225,-8441,1736,6,-19,5
-169.84,20.12,-67.66,3225,-8342,1939,24,-13,9
-170.50,19.97,-67.06,3120,-7840,2349,28,-11,11
-171.06,19.92,-66.57,2937,-7234,2803,18,-21,7
-171.34,20.07,-66.47,2885,-6829,3108,5,-29,4
-171.28,20.41,-66.64,2771,-6781,3040,2,-26,-5
-171.07,20.89,-66.76,2587,-6839,2929,4,-30,-11
-170.85,21.42,-67.10,2631,-6779,2937,-4,-44,-2
-170.48,22.02,-68.09,2798,-6768,3076,-23,-71,2
-169.77,22.77,-69.70,3116,-6908,3137,-32,-81,2
-168.82,23.44,-71.47,3525,-7199,3157,-39,-67,1
-167.75,23.86,-73.28,3878,-7517,3014,-45,-54,5
-166.83,24.08,-75.00,3918,-7836,2480,-30,-52,7
-166.04,24.41,-76.24,3772,-7983,1625,-11,-42,-6
-165.64,24.89,-76.53,3672,-8153,978,20,-24,-13
-165.98,25.29,-75.99,3563,-7976,857,40,-27,-10
-166.55,25.70,-75.31,3633,-7556,1226,36,-29,-5
-167.42,25.76,-74.65,3319,-7436,2081,25,-22,3
-168.02,25.73,-74.24,3292,-7517,2645,11,-7,-1
-168.21,25.58,-74.13,3411,-7304,2500,-11,10,5
-167.99,25.50,-74.41,3692,-7601,1588,3,-2,4
-168.53,25.40,-74.08,3949,-7745,696,38,-1,5
-170.46,25.05,-72.40,4186,-7225,741,74,24,24
-172.75,24.40,-70.36,3341,-6315,1651,51,19,4
-173.84,24.29,-69.22,3284,-6059,2560,23,-2,4
-174.49,24.15,-68.85,3419,-6016,3058,3,-8,11
-174.49,24.01,-69.05,3702,-6372,3198,-16,5,5
-174.00,23.84,-69.50,3906,-7028,3051,-23,11,3
-173.53,23.66,-70.16,3987,-7588,2565,-19,2,9
-173.51,23.32,-70.56,3744,-8019,2090,-2,4,11
-174.01,22.94,-70.46,3685,-8156,1841,15,5,13
-174.99,22.49,-69.91,3561,-8027,2014,26,3,16
-176.14,22.08,-69.19,3546,-7683,2399,26,2,15
-177.08,21.74,-68.56,3532,-7435,2750,18,3,11
-177.77,21.43,-68.15,3623,-7273,2893,11,5,12
-178.34,21.11,-67.83,3563,-7217,2823,11,9,10
-178.90,20.77,-67.41,3367,-7096,2638,15,13,10
-179.69,20.35,-66.81,2903,-6942,2469,22,12,8
179.56,20.10,-66.15,2880,-6696,2392,24,5,6
178.80,19.94,-65.50,2765,-6311,2580,21,1,5
178.19,19.86,-64.91,2538,-6061,3280,15,-2,-2
178.06,20.13,-64.28,2733,-6010,4040,12,9,-16
178.53,20.61,-63.79,2606,-6437,4523,-1,5,-31
179.60,21.54,-63.47,2544,-6920,4322,-2,8,-50
-178.98,22.61,-63.01,3042,-7111,3917,2,21,-50
-178.12,23.17,-62.53,3370,-6513,3590,-1,23,-18
-177.46,23.05,-62.89,2741,-4930,3146,-38,15,0
-176.11,23.71,-63.66,1945,-5196,3346,-28,-29,-45
-174.19,25.35,-64.64,3128,-6881,4306,-42,-54,-38
-173.10,25.63,-66.22,4276,-7612,3937,-44,-7,29
-172.95,24.84,-67.10,3977,-7592,2548,-18,34,12
-173.56,23.85,-66.41,4005,-7511,1551,29,77,24
-175.70,22.00,-64.89,3014,-7111,1401,54,59,48
-178.16,20.42,-63.16,2148,-6392,2498,47,26,25
-179.65,19.58,-61.72,2387,-6268,4035,32,27,25
179.06,18.47,-61.28,1640,-6269,5314,-15,-3,24
179.10,18.37,-61.82,2093,-6784,5291,-20,-14,1
179.44,18.45,-62.55,2687,-7228,4726,-26,-14,8
179.77,18.43,-63.33,2726,-7398,3658,-15,-3,4
179.84,18.33,-63.55,2604,-7541,3087,3,0,2
179.54,18.27,-63.60,2507,-7531,3140,4,-19,8
179.30,18.30,-63.78,2678,-7410,3331,-2,-18,8
179.10,18.29,-63.98,2696,-7344,3372,-1,-15,8
178.92,18.30,-64.15,2598,-7342,3251,1,-15,5
178.73,18.37,-64.33,2595,-7128,3123,0,-22,5
178.64,18.59,-64.56,2576,-7056,2999,2,-26,2
178.51,18.86,-64.82,2637,-6909,2870,2,-33,6
178.16,19.10,-65.01,2417,-6719,2844,8,-37,4
177.90,19.49,-65.28,2267,-6614,3240,-4,-49,3
178.07,20.00,-66.28,2277,-6750,3618,-27,-69,5
178.76,20.62,-68.01,2666,-6953,3762,-45,-82,10
179.98,21.16,-70.18,3034,-7244,3477,-52,-71,7
-178.57,21.56,-72.18,3398,-7533,2889,-43,-58,9
-177.26,21.90,-73.87,3463,-7773,2176,-31,-50,2
-176.06,22.34,-75.26,3219,-7777,1685,-26,-60,-6
-174.61,23.30,-76.52,3573,-8336,1127,-2,-63,-22
-175.30,23.59,-76.27,3851,-9155,1189,41,-6,9
-177.73,22.95,-74.91,3447,-8530,1613,41,18,16
-179.60,22.54,-73.72,3473,-7678,1877,34,12,10
178.86,22.28,-72.78,3248,-7478,2152,29,-1,8
177.61,22.08,-72.10,3219,-7467,1994,27,2,6
175.92,21.78,-70.97,3374,-7459,1693,50,19,11
173.49,21.16,-69.37,2986,-6930,1932,51,18,18
171.53,20.69,-68.16,2535,-6464,2496,32,0,9
170.35,20.57,-67.58,2601,-6527,2978,15,-12,5
169.72,20.46,-67.37,2872,-6754,3192,5,-4,8
169.51,20.28,-67.35,2819,-7035,3231,-3,3,3
169.66,20.21,-67.54,2880,-7462,3091,-7,-6,1
169.66,20.23,-67.73,3034,-7621,2593,5,-5,3
169.04,20.15,-67.40,3078,-7435,2496,20,-1,5
168.07,20.03,-66.81,2953,-7276,2841,20,0,4
167.39,19.95,-66.41,2925,-7225,3156,9,-4,3
166.91,19.87,-66.23,2987,-7187,3182,8,-3,6
166.38,19.69,-65.98,2784,-7149,3186,9,2,5
166.03,19.57,-65.78,2653,-7219,3256,5,-1,1
165.75,19.59,-65.66,2695,-7335,3254,6,-6,-1
165.51,19.68,-65.49,2914,-7342,3153,9,-1,-1
165.16,19.72,-65.17,3133,-7268,3118,13,2,-1
164.71,19.72,-64.76,3257,-7193,3165,14,4,1
164.22,19.63,-64.33,3164,-7086,3266,12,6,2
163.83,19.51,-63.95,3014,-7086,3376,10,6,1
163.52,19.43,-63.67,3118,-7020,3445,7,2,3
163.29,19.37,-63.50,3108,-6870,3333,5,4,2
163.19,19.31,-63.25,2896,-6918,3208,7,8,-3
163.00,19.31,-62.96,2945,-6892,2917,14,5,-1
162.34,19.23,-62.46,2828,-6723,2971,21,0,4
161.48,19.12,-61.91,2763,-6609,3473,16,-1,6
160.72,18.85,-61.46,2627,-6745,4231,7,3,9
160.44,18.56,-61.37,2743,-6783,4233,-3,6,8
160.35,18.26,-61.31,2548,-6824,3845,3,10,4
160.21,18.10,-61.19,2427,-6881,3809,3,3,1
160.10,18.01,-61.07,2338,-6908,4009,1,1,-1
160.18,18.09,-61.05,2335,-6624,4135,-6,-3,-7
160.65,18.48,-61.14,2368,-6663,3997,-4,-6,-19
161.16,19.16,-60.96,2359,-6833,3859,9,-6,-31
161.73,19.98,-60.46,2583,-6885,3863,11,6,-38
162.30,20.49,-59.82,2938,-6685,4048,7,13,-21
162.65,20.64,-59.59,3022,-6290,3974,-3,10,-6
162.94,20.52,-59.64,2788,-5842,3809,-10,7,2
163.42,20.58,-59.89,2736,-5998,3764,-12,-1,-8
163.88,20.61,-60.18,3088,-6495,3688,-9,7,4
163.82,20.17,-60.25,2941,-6760,3757,-1,13,12
163.57,19.60,-60.20,2734,-6775,3950,-2,14,14
163.42,19.15,-60.22,2707,-6614,4122,-6,7,11
163.34,18.75,-60.39,2769,-6611,4068,-7,10,15
162.98,18.05,-60.56,2545,-6561,3987,-7,9,24
162.73,17.43,-60.80,2254,-6586,4172,-13,4,14
162.86,17.17,-61.32,2485,-6941,4331,-22,-9,14
162.96,16.79,-62.12,2324,-7412,3923,-20,-4,18
163.06,16.44,-62.64,2123,-7578,3542,-9,-3,7
163.11,16.40,-62.89,2329,-7410,3549,-6,-5,2
163.31,16.44,-63.18,2322,-7309,3572,-10,-7,0
163.52,16.53,-63.47,2434,-7286,3479,-8,-7,0
163.65,16.50,-63.73,2410,-7299,3423,-7,-2,4
163.73,16.41,-63.98,2286,-7287,3418,-8,-3,3
163.93,16.39,-64.22,2207,-7236,3379,-8,-3,-2
164.22,16.53,-64.50,2412,-7277,3446,-10,-8,-1
164.47,16.54,-64.83,2477,-7350,3447,-10,-3,3
164.65,16.45,-65.09,2384,-7293,3418,-9,-1,2
164.88,16.43,-65.31,2343,-7273,3353,-8,0,-1
165.18,16.44,-65.50,2265,-7322,3267,-8,2,-2
165.45,16.45,-65.72,2295,-7476,3115,-6,-3,-1
165.49,16.41,-65.87,2509,-7509,2945,-1,-3,6
165.26,16.23,-65.92,2532,-7348,2981,0,-1,9
165.10,16.05,-66.02,2419,-7244,3163,-6,-5,7
165.15,16.00,-66.30,2340,-7377,3135,-8,-8,3
165.25,16.03,-66.54,2414,-7487,3008,-4,-7,1
165.19,16.03,-66.64,2495,-7568,2924,2,-6,3
164.85,15.97,-66.59,2430,-7549,2920,6,-6,5
164.36,15.92,-66.46,2424,-7412,2923,8,-9,5
163.81,15.87,-66.26,2280,-7213,2956,10,-5,4
163.35,15.84,-66.05,1990,-7218,3118,6,-9,0
163.08,15.96,-66.04,2139,-7365,3111,3,-13,-1
162.72,16.09,-66.00,2411,-7322,3116,6,-12,3
162.36,16.18,-65.89,2549,-7373,3296,5,-8,0
162.14,16.28,-65.80,2645,-7448,3368,4,-5,0
161.87,16.26,-65.68,2629,-7309,3279,5,-2,5
161.57,16.11,-65.56,2522,-7225,3279,4,2,5
161.28,15.99,-65.50,2443,-7197,3279,1,-4,5
161.07,15.89,-65.51,2429,-7196,3233,1,-2,7
160.75,15.71,-65.48,2269,-7146,3285,1,-2,7
160.57,15.57,-65.56,2144,-7226,3333,-4,-6,5
160.41,15.54,-65.70,2209,-7245,3261,-1,-10,5
160.15,15.52,-65.79,2259,-7180,3344,-2,-9,5
160.03,15.46,-65.94,2205,-7087,3430,-7,-7,5
160.12,15.40,-66.26,2104,-7058,3427,-13,-10,5
160.27,15.41,-66.75,2217,-7037,3318,-15,-17,6
160.45,15.43,-67.34,2221,-7028,3229,-18,-20,6
160.80,15.56,-68.03,2167,-7044,3211,-22,-22,2
161.47,15.76,-68.90,2213,-7227,3247,-31,-24,-1
162.60,16.03,-69.95,2368,-7693,3011,-32,-20,-3
163.74,16.22,-70.86,2528,-8165,2409,-19,-9,-2
164.02,16.25,-71.14,2707,-8268,1799,8,-1,5
163.04,16.07,-70.71,2622,-7979,1847,24,-1,8
161.72,15.87,-70.06,2446,-7683,2333,22,-1,9
160.59,15.64,-69.57,2218,-7461,2739,13,-4,7
160.00,15.52,-69.34,2302,-7309,2900,4,-2,5
159.77,15.42,-69.29,2489,-7316,2806,2,0,6
159.52,15.24,-69.26,2409,-7568,2665,2,1,6
159.27,15.03,-69.16,2277,-7827,2493,8,5,5
158.70,14.89,-68.84,2278,-7937,2410,18,2,3
157.75,14.74,-68.26,2263,-7615,2559,21,2,6
156.98,14.70,-67.81,2100,-7351,2983,10,-3,-2
156.93,14.81,-67.60,2099,-7358,3246,1,3,-7
157.18,14.94,-67.56,2217,-7401,3182,-2,4,-6
157.51,14.97,-67.53,2277,-7545,2910,2,12,-4
157.57,14.93,-67.28,2121,-7546,2804,9,9,-5
157.38,14.96,-66.96,2127,-7380,2961,9,2,-5
157.14,15.05,-66.70,2268,-7286,3224,7,1,-1
157.00,14.99,-66.48,2088,-7290,3390,2,6,-2
157.09,14.96,-66.37,2046,-7324,3294,2,6,-4
157.11,14.98,-66.23,2122,-7314,3189,5,2,-3
156.95,15.02,-66.03,2256,-7244,3250,6,2,0
156.76,14.94,-65.81,2191,-7229,3417,4,6,0
156.75,14.86,-65.68,2105,-7269,3464,0,4,0
156.77,14.84,-65.61,2020,-7310,3337,3,3,-3
156.73,14.89,-65.46,2068,-7315,3307,5,1,-4
156.65,14.97,-65.24,2098,-7317,3341,6,2,-5
156.56,15.04,-65.03,2214,-7280,3354,5,3,-3
156.47,15.01,-64.85,2210,-7154,3372,4,4,0
156.34,14.97,-64.70,2091,-7144,3464,3,1,-2
