Yaw,Pitch,Roll,AX,AY,AZ,GX,GY,GZ
22.96,19.48,-59.57,2766,-6761,3956,0,-1,0
22.96,19.49,-59.56,2760,-6762,3959,0,-1,-1
22.96,19.49,-59.56,2758,-6752,3962,0,-1,-1
22.96,19.49,-59.56,2761,-6750,3952,0,-1,-1
22.97,19.50,-59.56,2768,-6756,3958,0,-1,-1
22.97,19.50,-59.55,2769,-6760,3972,0,-1,-1
22.97,19.50,-59.55,2766,-6761,3966,0,-1,-1
22.96,19.50,-59.55,2770,-6761,3960,0,0,-1
22.96,19.50,-59.55,2766,-6771,3958,0,-1,0
22.97,19.50,-59.55,2764,-6756,3958,0,-1,-1
22.96,19.50,-59.54,2763,-6748,3964,0,-1,-1
22.97,19.50,-59.54,2765,-6747,3969,0,0,-1
22.97,19.51,-59.54,2771,-6756,3966,-1,-1,-1
22.98,19.52,-59.53,2785,-6772,3974,0,-1,-1
22.99,19.53,-59.51,2782,-6768,3965,0,0,-1
22.99,19.52,-59.51,2767,-6764,3955,0,0,-1
22.99,19.51,-59.51,2759,-6758,3962,0,0,-1
22.99,19.52,-59.51,2760,-6763,3964,0,-1,-1
22.99,19.52,-59.50,2761,-6767,3962,0,-1,-1
23.00,19.53,-59.50,2776,-6757,3960,0,-1,-1
23.01,19.54,-59.48,2786,-6751,3972,0,0,-1
23.01,19.54,-59.47,2792,-6749,3977,0,0,-1
23.02,19.54,-59.46,2785,-6745,3976,0,0,-1
23.03,19.54,-59.45,2793,-6740,3979,0,0,-1
23.03,19.54,-59.45,2783,-6745,3983,0,0,-1
23.02,19.54,-59.45,2761,-6740,3971,0,0,0
23.03,19.54,-59.44,2763,-6750,3969,0,0,-1
23.03,19.54,-59.44,2753,-6752,3968,0,-1,-1
23.02,19.54,-59.44,2760,-6753,3970,0,0,-1
23.03,19.54,-59.43,2767,-6752,3962,0,-1,-1
23.03,19.55,-59.42,2776,-6746,3971,0,-1,-1
23.04,19.55,-59.42,2785,-6743,3960,0,0,-1
23.04,19.56,-59.41,2790,-6742,3973,0,-1,0
23.04,19.55,-59.41,2790,-6743,3968,-1,0,0
23.02,19.54,-59.42,2780,-6739,3973,0,-1,0
23.02,19.54,-59.42,2780,-6743,3978,0,-1,0
23.01,19.54,-59.42,2772,-6743,3984,-1,-1,0
23.01,19.53,-59.42,2781,-6745,3976,-1,-1,0
23.00,19.53,-59.43,2791,-6745,3984,-1,0,0
22.99,19.52,-59.45,2781,-6760,3971,-1,0,0
22.98,19.51,-59.46,2773,-6757,3980,-1,-1,0
22.98,19.51,-59.47,2780,-6750,3977,-1,0,0
22.96,19.49,-59.50,2772,-6750,3965,-1,0,0
22.94,19.47,-59.52,2761,-6757,3961,-1,0,0
22.93,19.45,-59.54,2756,-6751,3965,-1,0,0
22.92,19.44,-59.56,2763,-6752,3965,-1,0,0
22.91,19.43,-59.59,2771,-6749,3968,-2,0,0
22.90,19.41,-59.61,2770,-6761,3960,-1,0,0
22.88,19.39,-59.64,2758,-6742,3971,-2,0,0
22.87,19.37,-59.68,2747,-6761,3947,-2,0,0
22.86,19.36,-59.71,2756,-6752,3972,-2,0,0
22.84,19.35,-59.77,2762,-6789,3935,-2,-1,0
22.82,19.33,-59.81,2747,-6781,3942,-2,0,0
22.81,19.32,-59.85,2756,-6766,3940,-2,0,0
22.79,19.30,-59.89,2737,-6792,3929,-2,-1,0
22.78,19.30,-59.92,2738,-6799,3926,-1,0,0
22.77,19.28,-59.95,2733,-6798,3926,-2,-1,0
22.76,19.27,-59.97,2768,-6785,3940,-1,0,0
22.74,19.25,-60.01,2723,-6814,3923,-2,0,0
22.74,19.25,-60.04,2754,-6824,3900,0,0,0
22.73,19.24,-60.04,2732,-6802,3916,-1,0,0
22.72,19.23,-60.06,2758,-6803,3908,-1,0,0
22.72,19.22,-60.06,2749,-6784,3917,-1,0,0
22.71,19.21,-60.07,2716,-6808,3904,-1,0,0
22.70,19.20,-60.09,2742,-6820,3917,-1,0,0
22.69,19.18,-60.10,2723,-6820,3913,-1,0,0
22.69,19.18,-60.11,2729,-6803,3909,0,0,-1
22.69,19.17,-60.11,2725,-6800,3916,-1,0,0
22.69,19.17,-60.12,2723,-6813,3888,-1,0,-1
22.70,19.17,-60.12,2730,-6789,3894,0,0,-1
22.70,19.17,-60.12,2726,-6804,3904,-1,0,-1
22.70,19.17,-60.13,2731,-6808,3896,-1,-1,-1
22.71,19.18,-60.13,2738,-6813,3905,0,0,-1
22.70,19.17,-60.13,2698,-6819,3897,-1,0,-1
22.70,19.17,-60.14,2708,-6828,3888,-1,-1,-1
22.70,19.17,-60.15,2703,-6817,3881,-1,-1,-1
22.71,19.19,-60.15,2717,-6820,3880,0,-1,-1
22.72,19.20,-60.15,2721,-6822,3884,0,-1,-1
22.73,19.21,-60.15,2733,-6821,3878,0,-1,-1
22.74,19.22,-60.15,2737,-6821,3880,0,-1,-1
22.75,19.23,-60.14,2740,-6822,3879,0,-1,-1
22.76,19.24,-60.13,2742,-6806,3888,0,-1,-1
22.77,19.25,-60.13,2736,-6812,3883,0,-1,-1
22.77,19.26,-60.11,2730,-6812,3889,0,-1,-1
22.78,19.27,-60.11,2740,-6816,3882,0,-1,-1
22.79,19.28,-60.09,2738,-6817,3892,0,-1,-1
22.80,19.29,-60.07,2727,-6816,3902,0,-1,-1
22.80,19.29,-60.07,2720,-6824,3877,0,-1,-1
22.80,19.29,-60.06,2720,-6823,3878,0,-1,-1
22.81,19.31,-60.05,2729,-6808,3888,0,-1,-1
22.82,19.32,-60.04,2742,-6802,3896,0,-1,-1
22.83,19.34,-60.02,2748,-6795,3887,0,-1,-1
22.84,19.34,-60.00,2751,-6790,3896,0,-1,-1
22.84,19.35,-59.99,2761,-6785,3914,0,-1,-1
22.85,19.36,-59.97,2764,-6788,3912,0,-1,-1
22.85,19.37,-59.96,2752,-6795,3914,0,-1,-1
22.86,19.38,-59.96,2750,-6801,3918,0,-1,-1
22.86,19.38,-59.95,2745,-6804,3917,0,-1,-1
22.86,19.39,-59.93,2741,-6800,3918,0,-1,-1
22.87,19.40,-59.93,2748,-6804,3909,0,-1,-1
22.87,19.41,-59.92,2754,-6804,3902,0,-1,-1
22.87,19.41,-59.92,2756,-6798,3896,0,-1,-1
22.88,19.42,-59.92,2759,-6800,3905,0,-1,-1
22.89,19.43,-59.90,2756,-6797,3921,0,-1,-1
22.89,19.44,-59.90,2752,-6789,3912,0,-1,-1
22.90,19.44,-59.89,2763,-6786,3918,0,-1,-1
22.90,19.46,-59.89,2761,-6795,3907,0,-1,-1
22.90,19.45,-59.88,2764,-6805,3915,0,-1,-1
22.91,19.47,-59.86,2764,-6795,3918,0,-1,-1
22.91,19.46,-59.85,2752,-6789,3923,0,-1,-1
22.91,19.47,-59.84,2748,-6790,3904,0,-1,-1
22.91,19.47,-59.84,2744,-6798,3904,0,-1,-1
22.91,19.47,-59.83,2748,-6801,3914,0,-1,-1
22.91,19.48,-59.81,2761,-6783,3919,0,-1,-1
22.92,19.49,-59.80,2771,-6779,3916,0,-1,-1
22.93,19.50,-59.79,2789,-6774,3914,0,0,-1
22.93,19.50,-59.77,2779,-6777,3928,0,-1,-1
22.93,19.51,-59.77,2777,-6776,3930,0,-1,-1
22.93,19.51,-59.76,2774,-6789,3941,0,-1,-1
22.93,19.52,-59.75,2762,-6786,3939,0,-1,0
22.93,19.52,-59.74,2760,-6778,3919,0,-1,-1
22.93,19.52,-59.74,2758,-6775,3904,0,-1,-1
22.94,19.53,-59.73,2765,-6783,3906,0,-1,-1
22.94,19.54,-59.73,2771,-6780,3900,0,-1,-1
22.94,19.55,-59.71,2774,-6775,3904,0,-1,-1
22.95,19.55,-59.70,2767,-6773,3906,0,-1,-1
22.95,19.56,-59.70,2772,-6779,3915,0,-1,-1
22.95,19.56,-59.67,2784,-6774,3933,0,-1,-1
22.95,19.56,-59.66,2767,-6767,3927,0,-1,-1
22.96,19.57,-59.64,2773,-6764,3922,0,-1,-1
22.96,19.58,-59.64,2787,-6758,3927,0,-1,-1
22.96,19.58,-59.63,2780,-6777,3932,0,-1,-1
22.97,19.59,-59.62,2791,-6770,3945,0,-1,-1
22.97,19.60,-59.61,2786,-6773,3937,0,-1,-1
22.97,19.60,-59.61,2779,-6776,3920,0,0,-1
22.97,19.60,-59.60,2768,-6774,3931,0,-1,-1
22.97,19.60,-59.59,2771,-6767,3932,0,-1,-1
22.98,19.61,-59.57,2774,-6762,3935,0,-1,-1
22.99,19.62,-59.56,2786,-6758,3923,0,-1,-1
22.98,19.63,-59.55,2789,-6756,3932,0,-1,-1
22.98,19.62,-59.54,2782,-6760,3938,0,-1,0
22.98,19.62,-59.53,2789,-6763,3944,0,-1,0
22.98,19.63,-59.52,2788,-6766,3944,0,-1,0
22.97,19.62,-59.51,2775,-6764,3946,0,-1,0
22.97,19.63,-59.50,2778,-6760,3944,0,-1,-1
22.98,19.63,-59.50,2785,-6757,3946,0,-1,-1
22.98,19.64,-59.49,2783,-6757,3943,0,-1,-1
22.97,19.63,-59.49,2785,-6756,3943,0,-1,0
22.97,19.64,-59.49,2781,-6756,3945,0,-1,-1
22.97,19.64,-59.48,2783,-6752,3956,0,-1,-1
22.98,19.64,-59.47,2777,-6748,3959,0,0,0
22.97,19.64,-59.47,2779,-6754,3945,0,-1,-1
22.98,19.64,-59.47,2781,-6754,3949,0,-1,-1
22.98,19.65,-59.46,2785,-6753,3942,0,-1,-1
22.98,19.65,-59.45,2790,-6753,3947,0,0,-1
22.98,19.65,-59.45,2791,-6749,3941,0,0,0
22.98,19.65,-59.45,2787,-6759,3948,0,-1,-1
22.98,19.65,-59.44,2793,-6766,3952,0,0,0
22.97,19.64,-59.44,2790,-6770,3940,0,-1,0
22.96,19.63,-59.44,2773,-6779,3930,0,-1,0
22.94,19.63,-59.44,2776,-6767,3937,0,-1,0
22.94,19.62,-59.43,2778,-6760,3947,0,-1,0
22.93,19.62,-59.42,2777,-6763,3957,0,-1,0
22.92,19.61,-59.42,2773,-6756,3940,0,0,0
22.92,19.60,-59.40,2780,-6736,3963,0,-1,0
22.91,19.61,-59.40,2774,-6753,3964,0,-1,-1
22.91,19.61,-59.39,2775,-6757,3964,0,0,-1
22.91,19.61,-59.38,2778,-6751,3964,0,-1,-1
22.91,19.60,-59.37,2775,-6743,3967,0,-1,-1
22.91,19.61,-59.36,2778,-6744,3973,0,-1,-1
22.91,19.62,-59.36,2781,-6745,3966,0,-1,-1
22.91,19.61,-59.36,2782,-6748,3973,0,-1,-1
22.91,19.61,-59.36,2787,-6747,3971,0,-1,0
22.91,19.62,-59.37,2784,-6761,3967,-1,-1,0
22.90,19.61,-59.38,2791,-6762,3973,-1,0,0
22.88,19.59,-59.39,2784,-6751,3988,-1,0,0
22.88,19.58,-59.41,2767,-6760,3980,-1,0,0
22.87,19.57,-59.43,2761,-6758,3959,-1,0,0
22.86,19.56,-59.45,2769,-6758,3950,-1,0,0
22.85,19.55,-59.47,2780,-6742,3958,-1,0,0
22.84,19.54,-59.50,2774,-6747,3961,-1,0,0
22.83,19.52,-59.53,2794,-6743,3971,-2,0,0
22.82,19.50,-59.56,2783,-6774,3963,-2,0,0
22.80,19.47,-59.60,2774,-6780,3941,-1,0,0
22.78,19.45,-59.62,2758,-6784,3937,-2,-1,0
22.76,19.42,-59.66,2767,-6782,3938,-1,1,1
22.73,19.39,-59.68,2754,-6768,3947,-2,-1,0
22.71,19.36,-59.72,2734,-6777,3922,-1,0,0
22.68,19.35,-59.77,2724,-6833,3925,-2,-2,0
22.66,19.34,-59.80,2774,-6801,3923,-1,0,0
22.65,19.31,-59.81,2745,-6782,3903,-1,0,0
22.63,19.30,-59.84,2741,-6819,3876,-1,-1,0
22.63,19.30,-59.85,2736,-6800,3858,0,0,0
22.63,19.29,-59.82,2744,-6766,3901,0,0,-1
22.64,19.29,-59.81,2719,-6760,3922,-1,0,-1
22.64,19.29,-59.81,2709,-6777,3925,-1,-1,-1
22.65,19.30,-59.82,2746,-6797,3924,-1,0,-1
22.65,19.29,-59.83,2727,-6795,3941,-1,0,-1
22.66,19.29,-59.85,2730,-6801,3913,-1,0,-1
22.66,19.29,-59.86,2722,-6776,3919,-1,0,-1
22.66,19.30,-59.89,2752,-6778,3916,-2,0,0
22.64,19.28,-59.93,2723,-6798,3904,-1,0,0
22.64,19.28,-59.95,2722,-6816,3907,-1,-1,0
22.63,19.27,-60.00,2756,-6828,3903,-1,0,0
22.62,19.26,-60.02,2745,-6833,3923,-1,1,0
22.61,19.25,-60.05,2753,-6829,3892,-1,-1,0
22.60,19.24,-60.08,2743,-6850,3857,-1,0,0
22.59,19.22,-60.09,2728,-6828,3862,0,0,0
22.59,19.22,-60.08,2729,-6822,3876,0,0,-1
22.58,19.21,-60.08,2736,-6835,3887,-1,0,0
22.58,19.20,-60.09,2728,-6843,3858,0,0,0
22.58,19.20,-60.07,2719,-6835,3869,0,0,-1
22.58,19.19,-60.06,2726,-6819,3891,-1,0,0
22.57,19.18,-60.05,2694,-6809,3891,0,-1,-1
22.58,19.19,-60.04,2712,-6811,3885,0,0,-1
22.60,19.21,-60.04,2729,-6808,3871,0,-1,-1
22.61,19.21,-60.02,2720,-6785,3903,0,0,-1
22.61,19.21,-60.03,2703,-6801,3898,-1,-1,-1
22.64,19.23,-60.02,2716,-6806,3911,-1,-1,-1
22.65,19.24,-60.03,2720,-6813,3909,-1,0,-1
22.65,19.25,-60.03,2709,-6818,3897,-1,-1,-1
22.67,19.27,-60.04,2730,-6816,3893,0,-1,-1
22.69,19.29,-60.04,2729,-6811,3892,-1,-1,-1
22.70,19.30,-60.04,2736,-6801,3884,0,-1,-1
22.71,19.32,-60.05,2743,-6800,3892,-1,-1,-1
22.72,19.34,-60.05,2747,-6809,3871,0,-1,-1
22.73,19.35,-60.05,2753,-6833,3873,0,-1,-1
22.75,19.37,-60.05,2754,-6838,3867,0,0,-1
22.75,19.37,-60.05,2742,-6841,3858,0,0,-1
22.75,19.37,-60.03,2731,-6839,3858,0,0,-1
22.76,19.37,-60.01,2730,-6830,3872,0,-1,-1
22.76,19.38,-60.00,2728,-6824,3881,0,-1,-1
22.77,19.39,-59.97,2750,-6815,3893,0,-1,-1
22.78,19.40,-59.95,2759,-6808,3898,0,-1,-1
22.78,19.41,-59.94,2763,-6805,3894,0,0,-1
22.78,19.41,-59.92,2760,-6796,3904,0,-1,-1
22.78,19.41,-59.90,2756,-6792,3910,0,-1,-1
22.78,19.42,-59.89,2754,-6785,3907,0,-1,-1
22.79,19.42,-59.87,2753,-6785,3905,0,-1,-1
22.80,19.43,-59.86,2756,-6792,3913,0,-1,-1
22.80,19.44,-59.86,2751,-6790,3908,0,-1,-1
22.81,19.44,-59.86,2748,-6791,3911,0,-1,-1
22.81,19.45,-59.85,2746,-6791,3917,0,-1,-1
22.82,19.46,-59.85,2747,-6795,3907,0,-1,-1
22.82,19.47,-59.85,2760,-6796,3904,0,-1,-1
22.82,19.48,-59.85,2757,-6798,3890,0,-1,-1
22.83,19.49,-59.84,2771,-6792,3899,0,-1,-1
22.82,19.49,-59.84,2766,-6788,3900,0,-1,0
22.82,19.49,-59.85,2767,-6798,3900,0,-1,-1
22.82,19.50,-59.85,2771,-6803,3916,0,-1,-1
22.82,19.50,-59.84,2772,-6800,3904,0,-1,0
22.82,19.50,-59.84,2759,-6804,3888,0,-1,0
22.81,19.49,-59.84,2751,-6803,3893,0,-1,0
22.80,19.49,-59.83,2744,-6797,3904,0,-1,0
22.80,19.49,-59.83,2751,-6804,3906,0,-1,0
22.80,19.50,-59.82,2768,-6790,3893,0,-1,-1
22.80,19.50,-59.81,2775,-6781,3902,0,-1,0
22.79,19.50,-59.80,2765,-6779,3900,0,0,-1
22.80,19.50,-59.78,2766,-6784,3910,0,-1,-1
22.81,19.51,-59.77,2766,-6782,3925,0,-1,-1
22.81,19.52,-59.76,2761,-6773,3921,0,-1,-1
22.82,19.53,-59.75,2775,-6783,3925,0,-1,-1
22.83,19.54,-59.75,2773,-6780,3919,0,-1,-1
22.84,19.55,-59.75,2777,-6782,3922,0,-1,-1
22.84,19.55,-59.74,2771,-6770,3909,0,-1,-1
22.84,19.55,-59.74,2765,-6763,3910,0,-1,-1
22.84,19.55,-59.74,2769,-6774,3912,0,-1,-1
22.85,19.57,-59.75,2765,-6793,3907,0,-1,-1
22.85,19.57,-59.74,2769,-6802,3912,0,-1,-1
22.85,19.58,-59.73,2763,-6795,3909,0,-1,-1
22.86,19.58,-59.72,2775,-6785,3921,0,0,-1
22.86,19.59,-59.71,2779,-6779,3916,0,-1,-1
22.87,19.60,-59.71,2786,-6780,3913,0,-1,-1
22.87,19.60,-59.70,2789,-6783,3919,0,-1,-1
22.87,19.61,-59.69,2793,-6782,3923,0,-1,-1
22.87,19.61,-59.68,2783,-6786,3909,0,-1,0
22.86,19.61,-59.68,2767,-6789,3907,0,-1,-1
22.87,19.62,-59.67,2761,-6791,3902,0,-1,-1
22.87,19.62,-59.66,2764,-6775,3890,0,-1,-1
22.87,19.63,-59.65,2772,-6766,3905,0,-1,-1
22.87,19.64,-59.64,2776,-6760,3914,0,-1,-1
22.88,19.65,-59.63,2782,-6761,3916,0,-1,-1
22.89,19.65,-59.61,2789,-6767,3929,0,-1,-1
22.88,19.65,-59.61,2791,-6765,3935,0,-1,-1
22.89,19.66,-59.59,2787,-6757,3934,0,-1,-1
22.88,19.66,-59.58,2771,-6756,3939,0,-1,-1
22.89,19.67,-59.58,2780,-6756,3930,0,-1,-1
22.89,19.67,-59.57,2783,-6765,3935,0,-1,-1
22.89,19.68,-59.57,2784,-6769,3938,0,-1,-1
22.90,19.69,-59.56,2783,-6777,3931,0,-1,-1
22.89,19.69,-59.56,2791,-6774,3918,0,-1,-1
22.90,19.69,-59.55,2794,-6767,3920,0,-1,-1
22.90,19.70,-59.54,2792,-6771,3919,0,0,-1
22.91,19.71,-59.53,2793,-6768,3921,0,-1,-1
22.91,19.70,-59.52,2792,-6763,3931,0,0,-1
22.91,19.70,-59.49,2787,-6748,3937,0,-1,-1
22.91,19.71,-59.48,2785,-6739,3935,0,-1,-1
22.92,19.71,-59.48,2788,-6745,3940,0,-1,-1
22.91,19.71,-59.47,2784,-6753,3933,0,0,-1
22.92,19.72,-59.45,2794,-6755,3953,0,-1,-1
22.93,19.72,-59.45,2794,-6756,3943,0,-1,-1
22.92,19.72,-59.44,2787,-6760,3937,0,0,-1
22.92,19.72,-59.43,2785,-6755,3949,0,-1,-1
22.93,19.73,-59.43,2791,-6757,3950,0,-1,-1
22.93,19.73,-59.42,2790,-6757,3950,0,-1,-1
22.93,19.73,-59.40,2791,-6751,3957,0,-1,-1
22.93,19.73,-59.39,2800,-6751,3957,0,-1,0
22.93,19.73,-59.39,2803,-6750,3956,0,0,0
22.93,19.73,-59.39,2796,-6744,3957,0,0,0
22.92,19.73,-59.39,2794,-6744,3950,0,-1,-1
22.93,19.73,-59.40,2803,-6752,3943,0,0,0
22.92,19.72,-59.39,2796,-6744,3947,0,-1,0
22.91,19.72,-59.38,2798,-6749,3951,0,-1,0
22.91,19.72,-59.38,2796,-6747,3943,0,-1,0
22.90,19.71,-59.38,2782,-6753,3950,0,-1,0
22.89,19.71,-59.38,2781,-6758,3947,0,-1,0
22.88,19.71,-59.38,2797,-6757,3944,0,-1,0
22.88,19.71,-59.39,2802,-6750,3958,0,-1,0
22.87,19.71,-59.39,2815,-6746,3977,-1,0,0
22.87,19.70,-59.39,2796,-6737,3981,-1,0,0
22.85,19.68,-59.41,2803,-6747,3960,-1,-1,0
22.85,19.67,-59.43,2796,-6747,3969,-1,0,0
22.83,19.65,-59.45,2784,-6755,3947,-1,0,0
22.82,19.64,-59.47,2776,-6747,3932,-1,0,0
22.80,19.62,-59.49,2768,-6745,3957,-2,0,0
22.79,19.61,-59.54,2767,-6792,3895,-1,0,0
22.79,19.60,-59.52,2780,-6754,3975,-1,0,0
22.77,19.58,-59.58,2798,-6787,3943,-2,0,0
22.75,19.55,-59.60,2753,-6790,3899,-1,0,0
22.73,19.53,-59.61,2798,-6757,3957,-1,0,1
22.70,19.50,-59.63,2767,-6739,3947,-2,-1,0
22.69,19.49,-59.66,2765,-6793,3899,0,1,0
22.67,19.47,-59.67,2791,-6788,3926,-1,-1,0
22.65,19.43,-59.67,2766,-6752,3950,-1,2,1
22.63,19.41,-59.71,2741,-6798,3898,-1,-2,-1
22.62,19.40,-59.70,2757,-6752,3961,-1,1,0
22.61,19.38,-59.74,2729,-6778,3916,-2,0,-1
22.60,19.37,-59.76,2739,-6802,3888,0,0,0
22.60,19.36,-59.76,2718,-6758,3939,-1,0,0
22.59,19.37,-59.79,2755,-6800,3916,-1,-1,-1
22.60,19.36,-59.80,2766,-6800,3900,-1,0,0
22.58,19.34,-59.81,2736,-6788,3920,-1,0,0
22.58,19.34,-59.81,2756,-6788,3913,-1,0,-1
22.58,19.32,-59.82,2739,-6788,3924,-2,0,0
22.57,19.32,-59.85,2743,-6793,3892,-1,0,0
22.57,19.32,-59.85,2752,-6787,3918,-1,-1,0
22.56,19.30,-59.86,2737,-6809,3907,-1,0,0
22.56,19.29,-59.88,2734,-6798,3907,-1,0,0
22.56,19.29,-59.89,2745,-6806,3929,-1,0,0
22.56,19.28,-59.89,2746,-6820,3909,-1,0,0
22.54,19.26,-59.92,2710,-6808,3894,-1,0,0
22.54,19.26,-59.91,2729,-6806,3905,-1,0,0
22.53,19.26,-59.94,2732,-6808,3891,-1,-1,0
22.54,19.26,-59.94,2748,-6819,3896,0,0,-1
22.54,19.24,-59.93,2707,-6792,3915,-1,0,0
22.54,19.25,-59.96,2733,-6817,3876,-1,-1,-1
22.53,19.24,-59.97,2727,-6818,3903,-1,-1,0
22.52,19.23,-60.00,2734,-6833,3869,0,1,0
22.52,19.22,-59.99,2732,-6804,3906,-1,-1,-1
22.51,19.22,-60.00,2710,-6817,3869,0,0,0
22.52,19.23,-60.00,2726,-6817,3889,0,-1,-1
22.53,19.24,-60.01,2737,-6822,3854,0,0,-1
22.53,19.23,-59.99,2728,-6797,3884,0,0,-1
22.53,19.24,-60.00,2731,-6791,3889,-1,-1,-1
22.54,19.25,-60.00,2719,-6805,3882,0,-1,-1
22.56,19.26,-60.01,2718,-6815,3882,0,-1,-1
22.57,19.27,-60.00,2738,-6813,3889,0,-1,-1
22.58,19.28,-60.00,2726,-6809,3895,-1,-1,-1
22.59,19.29,-60.00,2728,-6808,3869,0,0,-1
22.60,19.31,-59.99,2745,-6812,3881,0,-1,-1
22.62,19.33,-59.98,2743,-6813,3888,0,-1,-1
22.63,19.35,-59.98,2746,-6808,3885,0,-1,-1
22.64,19.35,-59.97,2745,-6811,3886,0,-1,-1
22.64,19.36,-59.96,2737,-6817,3890,0,-1,-1
22.65,19.37,-59.95,2742,-6827,3884,0,-1,-1
22.65,19.37,-59.95,2726,-6827,3875,0,0,-1
22.64,19.37,-59.95,2727,-6819,3871,0,-1,-1
22.65,19.38,-59.94,2737,-6818,3876,0,-1,-1
22.65,19.38,-59.92,2742,-6804,3892,0,-1,-1
22.65,19.39,-59.91,2757,-6798,3895,0,-1,-1
22.66,19.40,-59.91,2772,-6802,3900,0,-1,0
22.64,19.39,-59.90,2753,-6793,3892,0,-1,0
22.64,19.39,-59.88,2753,-6797,3897,0,0,0
22.63,19.37,-59.87,2725,-6785,3932,0,-1,-1
22.63,19.39,-59.88,2749,-6824,3894,0,-1,0
22.62,19.38,-59.87,2757,-6810,3916,0,-1,0
22.62,19.39,-59.85,2742,-6796,3916,0,-1,-1
22.62,19.39,-59.86,2729,-6810,3894,0,-1,-1
22.63,19.40,-59.85,2745,-6790,3893,0,-1,-1
22.64,19.41,-59.84,2757,-6777,3908,0,-1,-1
22.64,19.42,-59.84,2741,-6791,3896,0,-1,-1
22.65,19.43,-59.83,2744,-6792,3908,0,-1,-1
22.66,19.44,-59.81,2757,-6786,3913,0,0,-1
22.67,19.44,-59.81,2743,-6782,3918,0,-1,-1
22.67,19.45,-59.81,2745,-6781,3913,0,-1,-1
22.69,19.47,-59.80,2750,-6783,3913,0,-1,-1
22.70,19.49,-59.78,2763,-6783,3917,0,-1,-1
22.72,19.50,-59.77,2775,-6798,3914,0,-1,-1
22.73,19.52,-59.77,2774,-6793,3919,0,-1,-1
22.74,19.53,-59.76,2769,-6787,3919,0,0,-1
22.74,19.53,-59.75,2762,-6799,3912,0,-1,-1
22.75,19.55,-59.74,2762,-6795,3910,0,-1,-1
22.76,19.56,-59.72,2767,-6787,3915,0,-1,-1
22.77,19.57,-59.71,2767,-6793,3913,0,-1,-1
22.77,19.57,-59.70,2765,-6787,3917,0,-1,-1
22.78,19.58,-59.69,2772,-6788,3917,0,-1,-1
22.78,19.59,-59.68,2773,-6778,3917,0,-1,-1
22.78,19.59,-59.68,2775,-6778,3917,0,-1,-1
22.79,19.60,-59.67,2792,-6777,3925,0,-1,-1
22.78,19.60,-59.67,2772,-6784,3914,0,-1,-1
22.78,19.60,-59.66,2786,-6779,3931,0,-1,0
22.77,19.60,-59.66,2790,-6776,3929,0,-1,0
22.76,19.59,-59.67,2771,-6779,3908,0,-1,0
22.76,19.59,-59.67,2771,-6786,3921,0,-1,0
22.74,19.59,-59.67,2771,-6790,3922,0,-1,0
22.74,19.59,-59.68,2763,-6805,3903,0,-1,0
22.72,19.58,-59.68,2779,-6809,3900,0,-1,0
22.70,19.57,-59.66,2776,-6778,3918,0,-1,0
22.69,19.57,-59.65,2762,-6790,3913,0,-1,0
22.67,19.56,-59.65,2773,-6768,3931,0,-1,0
22.66,19.55,-59.65,2792,-6764,3934,-1,0,1
22.63,19.53,-59.66,2782,-6786,3918,0,-1,0
22.60,19.51,-59.66,2785,-6792,3938,-1,0,1
22.56,19.48,-59.67,2735,-6802,3914,0,-2,0
22.54,19.48,-59.67,2793,-6788,3932,0,0,1
22.50,19.43,-59.67,2719,-6767,3917,0,0,1
22.49,19.44,-59.67,2757,-6805,3913,1,-2,0
22.46,19.40,-59.64,2735,-6754,3935,0,0,0
22.46,19.40,-59.63,2769,-6802,3913,1,1,0
22.44,19.38,-59.60,2760,-6740,3956,0,-1,0
22.44,19.37,-59.59,2757,-6756,3961,0,1,0
22.43,19.38,-59.59,2783,-6788,3912,0,-1,-1
22.42,19.34,-59.56,2743,-6741,3982,0,1,1
22.40,19.34,-59.57,2752,-6805,3920,0,-2,0
22.39,19.33,-59.56,2738,-6748,3947,-1,1,0
22.37,19.32,-59.59,2742,-6802,3941,-1,-2,0
22.35,19.31,-59.61,2763,-6807,3915,0,0,0
22.33,19.28,-59.60,2743,-6759,3960,-1,0,0
22.31,19.28,-59.62,2739,-6819,3902,1,-1,0
22.28,19.25,-59.62,2691,-6747,3942,-1,-1,0
22.29,19.26,-59.62,2756,-6760,3973,-1,0,0
22.25,19.23,-59.65,2722,-6789,3898,-1,-1,0
22.24,19.20,-59.63,2687,-6769,3960,0,1,0
22.23,19.23,-59.68,2765,-6818,3901,-1,-2,0
22.20,19.19,-59.67,2739,-6822,3967,-1,0,1
22.18,19.16,-59.67,2698,-6782,3922,0,0,0
22.18,19.18,-59.69,2743,-6790,3895,-1,-1,-1
22.18,19.17,-59.67,2697,-6798,3908,0,-1,0
22.19,19.17,-59.64,2731,-6763,3909,1,2,-1
22.20,19.18,-59.61,2690,-6771,3933,-1,-3,-1
22.21,19.20,-59.61,2747,-6794,3945,1,0,0
22.21,19.21,-59.60,2675,-6794,3921,0,-2,-1
22.24,19.25,-59.56,2736,-6760,3940,2,1,-2
22.26,19.27,-59.56,2702,-6771,3939,-2,-3,-1
22.27,19.30,-59.56,2721,-6792,3888,2,0,-1
22.30,19.33,-59.52,2735,-6748,3978,-1,-2,-1
22.32,19.36,-59.54,2750,-6783,3918,0,-1,-2
22.34,19.39,-59.53,2765,-6774,3965,-1,-2,-1
22.36,19.42,-59.54,2780,-6814,3912,0,0,-1
22.37,19.42,-59.51,2758,-6788,3939,0,0,-1
22.39,19.44,-59.50,2759,-6776,3948,-1,0,-1
22.39,19.44,-59.51,2756,-6789,3908,0,0,0
22.39,19.43,-59.49,2725,-6773,3941,0,0,-1
22.38,19.43,-59.50,2735,-6806,3935,0,-1,-1
22.38,19.42,-59.50,2766,-6788,3969,-1,0,0
22.37,19.41,-59.50,2770,-6782,3946,0,0,0
22.36,19.39,-59.48,2764,-6754,3988,-1,0,0
22.35,19.38,-59.51,2776,-6798,3934,-1,-1,0
22.34,19.36,-59.49,2761,-6752,3958,0,1,0
22.34,19.35,-59.49,2744,-6759,3927,-1,-1,-1
22.34,19.34,-59.48,2722,-6746,3978,-1,1,0
22.32,19.32,-59.53,2736,-6789,3945,-1,-1,0
22.33,19.31,-59.51,2715,-6751,3976,0,1,-1
22.32,19.30,-59.53,2705,-6778,3950,-2,-1,-1
22.32,19.31,-59.55,2708,-6779,3919,0,0,-1
22.33,19.31,-59.55,2736,-6762,3951,-1,-1,-1
22.34,19.32,-59.57,2745,-6772,3952,-1,0,-1
22.33,19.31,-59.57,2727,-6756,3952,-1,-1,-1
22.34,19.32,-59.60,2734,-6780,3952,-1,0,-1
22.36,19.33,-59.62,2771,-6777,3940,-1,0,0
22.36,19.32,-59.62,2735,-6778,3910,-1,0,-1
22.37,19.33,-59.62,2742,-6772,3931,-1,0,-1
22.37,19.33,-59.63,2750,-6781,3931,-1,0,-1
22.39,19.34,-59.63,2758,-6785,3934,-1,1,-1
22.41,19.35,-59.63,2745,-6780,3933,-1,0,-1
22.43,19.36,-59.64,2746,-6785,3933,-1,0,-1
22.45,19.36,-59.64,2741,-6792,3933,-1,0,-1
22.47,19.37,-59.64,2722,-6791,3929,-1,0,-1
22.49,19.38,-59.64,2738,-6791,3912,-1,0,-1
22.51,19.39,-59.63,2751,-6783,3927,-1,0,-1
22.52,19.40,-59.63,2744,-6777,3928,-1,0,-1
22.53,19.41,-59.63,2756,-6782,3937,-1,0,-1
22.55,19.42,-59.64,2752,-6791,3928,-1,0,-1
22.56,19.43,-59.65,2763,-6794,3937,0,0,-1
22.56,19.43,-59.65,2755,-6800,3938,-1,0,-1
22.56,19.43,-59.65,2755,-6790,3941,-1,0,-1
22.57,19.43,-59.66,2752,-6790,3924,-1,0,-1
22.57,19.43,-59.67,2753,-6783,3924,-1,0,-1
22.57,19.42,-59.67,2753,-6779,3929,-1,0,-1
22.57,19.42,-59.67,2750,-6784,3932,-1,0,-1
22.57,19.42,-59.67,2758,-6797,3928,0,0,-1
22.57,19.41,-59.68,2743,-6791,3929,-1,-1,-1
22.57,19.41,-59.67,2747,-6787,3925,0,0,-1
22.57,19.41,-59.67,2753,-6777,3927,0,0,-1
22.57,19.41,-59.67,2754,-6785,3921,0,0,-1
22.58,19.41,-59.66,2762,-6782,3935,0,0,-1
22.59,19.42,-59.65,2753,-6776,3926,0,0,-1
22.58,19.41,-59.64,2741,-6778,3923,0,0,-1
22.58,19.41,-59.64,2743,-6783,3930,0,0,-1
22.59,19.42,-59.64,2736,-6790,3930,0,-1,-1
22.59,19.42,-59.64,2744,-6779,3928,0,-1,-1
22.59,19.43,-59.64,2751,-6777,3931,0,-1,-1
22.59,19.43,-59.64,2767,-6779,3930,-1,-1,0
22.58,19.43,-59.65,2761,-6776,3926,0,-1,0
22.58,19.42,-59.65,2761,-6775,3927,0,-1,0
22.57,19.42,-59.66,2761,-6784,3931,-1,-1,0
22.55,19.40,-59.67,2736,-6801,3916,0,-1,0
22.53,19.39,-59.68,2729,-6806,3925,0,-1,0
22.52,19.40,-59.68,2748,-6805,3925,0,-1,0
22.50,19.39,-59.69,2737,-6811,3914,0,-1,0
22.49,19.38,-59.69,2754,-6791,3927,0,-1,0
22.48,19.38,-59.69,2767,-6788,3919,0,-1,0
22.46,19.37,-59.69,2758,-6815,3912,0,-1,0
22.45,19.36,-59.68,2767,-6790,3934,0,0,0
22.42,19.34,-59.67,2729,-6784,3924,-1,-1,0
22.42,19.35,-59.68,2777,-6797,3896,0,-1,0
22.39,19.32,-59.64,2726,-6739,3983,0,-1,0
22.38,19.33,-59.66,2765,-6779,3931,0,-1,0
22.38,19.32,-59.64,2728,-6763,3967,0,-1,-1
22.36,19.32,-59.65,2735,-6785,3951,0,-1,0
22.35,19.32,-59.66,2768,-6767,3945,0,-1,0
22.35,19.31,-59.66,2689,-6784,3947,-1,-1,-1
22.34,19.32,-59.68,2758,-6791,3933,-1,-1,0
22.33,19.31,-59.69,2713,-6799,3912,0,-1,-1
22.33,19.32,-59.69,2722,-6785,3915,0,-1,-1
22.33,19.33,-59.68,2741,-6756,3943,-1,-2,-1
22.34,19.34,-59.70,2744,-6793,3893,0,-1,0
22.34,19.35,-59.69,2742,-6800,3906,0,-1,-1
22.35,19.36,-59.68,2775,-6792,3917,0,-1,-1
22.36,19.37,-59.66,2744,-6774,3950,0,-1,-1
22.37,19.38,-59.66,2755,-6798,3908,0,0,-1
22.38,19.39,-59.63,2763,-6778,3931,0,0,-1
22.40,19.41,-59.61,2737,-6779,3939,0,0,-1
22.42,19.42,-59.60,2747,-6766,3943,0,0,-1
22.44,19.44,-59.60,2750,-6778,3929,-1,0,-1
22.45,19.44,-59.60,2749,-6790,3923,0,-1,-1
22.46,19.46,-59.58,2755,-6774,3944,0,0,-1
22.47,19.47,-59.58,2750,-6770,3941,0,-1,-1
22.48,19.48,-59.57,2753,-6768,3930,0,-1,-1
22.50,19.50,-59.58,2768,-6771,3923,-1,-1,-1
22.50,19.50,-59.58,2762,-6781,3914,0,-1,-1
22.52,19.52,-59.57,2780,-6790,3931,0,-1,-1
22.52,19.52,-59.56,2777,-6787,3923,0,-1,-1
22.52,19.52,-59.55,2768,-6780,3922,0,-1,-1
22.52,19.53,-59.54,2766,-6784,3916,0,-1,-1
22.53,19.54,-59.54,2760,-6781,3917,0,-1,-1
22.53,19.54,-59.53,2764,-6776,3930,0,-1,-1
22.53,19.55,-59.51,2765,-6769,3935,0,0,-1
22.54,19.55,-59.49,2784,-6762,3948,0,-1,-1
22.55,19.56,-59.48,2785,-6757,3949,0,-1,-1
22.55,19.57,-59.47,2780,-6755,3941,0,-1,-1
22.56,19.58,-59.46,2781,-6755,3958,0,-1,-1
22.55,19.58,-59.45,2776,-6767,3956,0,-1,-1
22.56,19.58,-59.45,2771,-6778,3954,0,-1,-1
22.56,19.58,-59.44,2762,-6769,3938,0,-1,-1
22.56,19.59,-59.44,2757,-6766,3937,0,-1,-1
22.56,19.60,-59.42,2761,-6767,3942,0,-1,-1
22.57,19.61,-59.41,2776,-6758,3945,0,-1,-1
22.58,19.61,-59.40,2782,-6754,3948,0,0,-1
22.58,19.61,-59.39,2784,-6758,3949,0,0,-1
22.58,19.62,-59.37,2782,-6757,3953,0,0,-1
22.58,19.62,-59.35,2785,-6756,3966,0,0,-1
22.59,19.62,-59.35,2772,-6750,3962,0,-1,-1
22.59,19.63,-59.33,2785,-6742,3968,0,-1,-1
22.59,19.63,-59.32,2777,-6739,3975,0,-1,-1
22.59,19.63,-59.31,2778,-6753,3969,0,-1,-1
22.60,19.64,-59.30,2788,-6753,3975,0,-1,-1
22.60,19.65,-59.29,2778,-6748,3966,0,-1,-1
22.60,19.65,-59.29,2778,-6754,3959,0,-1,-1
22.61,19.66,-59.28,2782,-6752,3959,0,-1,-1
22.61,19.66,-59.27,2779,-6748,3969,0,-1,-1
22.61,19.66,-59.26,2781,-6742,3958,0,-1,-1
22.61,19.67,-59.24,2785,-6736,3967,0,-1,-1
22.62,19.68,-59.23,2789,-6730,3969,0,-1,-1
22.61,19.67,-59.23,2782,-6736,3969,0,-1,0
22.61,19.68,-59.22,2788,-6738,3963,0,-1,-1
22.61,19.68,-59.21,2782,-6738,3964,0,-1,-1
22.61,19.68,-59.20,2779,-6738,3967,0,-1,-1
22.61,19.68,-59.20,2778,-6742,3959,0,-1,-1
22.61,19.69,-59.20,2788,-6743,3967,0,-1,-1
22.62,19.69,-59.19,2794,-6737,3966,0,-1,-1
22.62,19.70,-59.18,2797,-6731,3959,0,-1,-1
22.63,19.71,-59.16,2799,-6734,3964,0,0,-1
22.63,19.71,-59.16,2800,-6729,3973,0,0,-1
22.64,19.71,-59.14,2791,-6730,3978,0,0,-1
22.64,19.71,-59.14,2792,-6739,3975,0,-1,-1
22.64,19.72,-59.14,2796,-6745,3967,0,-1,-1
22.65,19.72,-59.12,2796,-6741,3968,0,0,-1
22.65,19.73,-59.11,2800,-6730,3979,0,0,-1
22.65,19.73,-59.10,2794,-6727,3986,0,0,-1
22.65,19.72,-59.10,2779,-6719,3984,0,0,-1
22.65,19.73,-59.10,2786,-6727,3995,0,-1,-1
22.66,19.73,-59.09,2803,-6732,3997,0,0,-1
22.66,19.73,-59.09,2792,-6736,3982,0,0,-1
22.67,19.74,-59.07,2790,-6730,3988,0,-1,-1
22.67,19.74,-59.06,2799,-6724,3989,0,0,-1
22.68,19.74,-59.05,2803,-6717,3987,0,-1,-1
22.68,19.75,-59.05,2814,-6711,3988,0,0,-1
22.68,19.75,-59.05,2807,-6718,3994,0,0,0
22.67,19.74,-59.05,2800,-6729,3998,0,0,0
22.66,19.73,-59.06,2795,-6727,3996,-1,0,0
22.66,19.72,-59.07,2784,-6733,3983,-1,0,0
22.66,19.72,-59.07,2784,-6737,3979,-1,0,-1
22.66,19.71,-59.08,2790,-6736,3985,-1,0,-1
22.66,19.72,-59.08,2795,-6733,3992,0,0,-1
22.66,19.71,-59.08,2796,-6731,3994,-1,0,-1
22.66,19.71,-59.08,2799,-6724,3989,-1,0,0
22.66,19.70,-59.09,2802,-6723,3991,-1,0,0
22.66,19.70,-59.09,2800,-6722,3992,-1,0,0
22.65,19.69,-59.10,2802,-6720,3991,-1,0,0
22.65,19.69,-59.10,2797,-6722,3992,-1,0,0
22.65,19.68,-59.10,2791,-6728,3999,-1,0,0
22.65,19.68,-59.12,2786,-6734,3992,-1,0,-1
22.65,19.68,-59.14,2784,-6739,3983,-1,0,-1
22.65,19.67,-59.14,2798,-6737,3979,-1,0,0
22.65,19.67,-59.15,2790,-6739,3974,-1,0,-1
22.65,19.66,-59.16,2787,-6745,3963,-1,0,-1
22.65,19.66,-59.16,2792,-6739,3978,0,0,-1
22.65,19.65,-59.16,2794,-6734,3982,-1,0,0
22.65,19.65,-59.16,2784,-6735,3972,-1,0,-1
22.65,19.64,-59.17,2778,-6732,3974,-1,0,0
22.64,19.63,-59.17,2782,-6734,3980,-1,0,0
22.64,19.62,-59.18,2778,-6742,3991,-1,0,0
22.64,19.62,-59.19,2771,-6738,3993,-1,0,-1
22.63,19.61,-59.19,2777,-6738,3993,-1,0,0
22.63,19.60,-59.20,2779,-6737,3990,-1,0,0
22.62,19.58,-59.21,2768,-6740,3992,-1,0,0
22.61,19.58,-59.23,2776,-6737,4001,-1,0,0
22.60,19.56,-59.27,2762,-6749,3979,-1,0,0
22.59,19.54,-59.30,2767,-6747,3987,-2,0,0
22.57,19.52,-59.33,2785,-6751,3981,-2,0,0
22.56,19.50,-59.36,2770,-6758,3966,-1,0,0
22.55,19.49,-59.39,2774,-6760,3954,-2,0,0
22.54,19.48,-59.42,2764,-6765,3950,-1,0,0
22.53,19.46,-59.45,2748,-6783,3958,-1,0,0
22.51,19.45,-59.49,2782,-6795,3949,-1,0,0
22.50,19.42,-59.50,2764,-6756,3974,-2,1,0
22.47,19.39,-59.53,2750,-6761,3950,-2,0,0
22.45,19.38,-59.58,2774,-6751,3937,-2,0,1
22.43,19.34,-59.61,2723,-6770,3936,-2,0,0
22.41,19.33,-59.63,2758,-6793,3922,0,1,0
22.41,19.31,-59.64,2742,-6790,3921,-1,0,0
22.38,19.29,-59.66,2722,-6789,3927,-1,0,0
22.38,19.28,-59.67,2750,-6778,3927,0,0,-1
22.38,19.27,-59.68,2729,-6771,3931,-2,0,0
22.37,19.27,-59.71,2726,-6782,3917,-1,0,0
22.37,19.27,-59.71,2742,-6749,3940,-1,-1,-1
22.38,19.27,-59.73,2727,-6784,3914,-1,0,-1
22.37,19.27,-59.75,2711,-6800,3892,-1,0,-1
22.38,19.28,-59.76,2717,-6794,3919,-1,-1,-1
22.38,19.29,-59.77,2713,-6808,3906,-1,0,-1
22.39,19.29,-59.77,2708,-6802,3904,-1,-1,-1
22.40,19.31,-59.79,2735,-6809,3891,0,-1,-1
22.41,19.32,-59.78,2749,-6792,3906,-1,-1,-1
22.42,19.33,-59.78,2742,-6789,3895,0,0,-1
22.43,19.35,-59.77,2738,-6793,3897,0,-1,-1
22.44,19.36,-59.77,2742,-6803,3906,0,-1,-1
22.45,19.37,-59.76,2750,-6799,3919,0,-1,-1
22.47,19.39,-59.73,2750,-6780,3921,0,0,-1
22.47,19.39,-59.72,2746,-6779,3925,0,-1,-1
22.48,19.40,-59.71,2743,-6796,3913,0,-1,-1
22.50,19.42,-59.69,2749,-6801,3921,0,-1,-1
22.51,19.43,-59.68,2747,-6806,3920,0,-1,-1
22.51,19.44,-59.67,2746,-6801,3913,0,-1,-1
22.52,19.45,-59.65,2747,-6793,3925,0,-1,-1
22.53,19.46,-59.63,2755,-6782,3925,0,-1,-1
22.53,19.47,-59.62,2759,-6781,3923,0,-1,-1
22.54,19.48,-59.60,2769,-6771,3924,0,-1,-1
22.55,19.49,-59.59,2765,-6762,3926,0,-1,-1
22.55,19.49,-59.57,2766,-6765,3944,0,-1,-1
22.55,19.50,-59.56,2757,-6771,3934,0,-1,-1
22.56,19.51,-59.55,2762,-6776,3939,0,-1,-1
22.56,19.51,-59.55,2754,-6778,3942,0,-1,-1
22.56,19.52,-59.54,2755,-6772,3956,0,-1,-1
22.56,19.52,-59.53,2754,-6772,3959,0,-1,-1
22.57,19.53,-59.52,2761,-6772,3959,0,-1,-1
22.57,19.54,-59.52,2763,-6778,3945,0,-1,-1
22.57,19.54,-59.51,2779,-6770,3951,0,-1,-1
22.57,19.54,-59.51,2768,-6765,3947,0,-1,0
22.57,19.55,-59.51,2780,-6772,3943,0,-1,-1
22.57,19.55,-59.51,2773,-6761,3945,0,-1,0
22.57,19.55,-59.51,2776,-6770,3927,0,-1,0
22.57,19.56,-59.50,2788,-6770,3950,0,-1,0
22.56,19.55,-59.49,2766,-6765,3940,0,-1,0
22.55,19.54,-59.50,2767,-6772,3937,0,-1,0
22.55,19.54,-59.50,2750,-6774,3947,0,-1,0
22.54,19.55,-59.49,2754,-6783,3952,0,-1,-1
22.54,19.55,-59.49,2755,-6771,3951,0,-1,-1
22.54,19.56,-59.48,2778,-6765,3948,0,-1,-1
22.55,19.56,-59.47,2789,-6758,3961,0,0,-1
22.55,19.56,-59.46,2782,-6760,3955,0,0,-1
22.55,19.57,-59.44,2774,-6759,3966,0,-1,-1
22.56,19.57,-59.44,2765,-6761,3959,0,-1,-1
22.55,19.57,-59.43,2759,-6766,3955,0,-1,-1
22.56,19.58,-59.43,2759,-6764,3943,0,-1,-1
22.57,19.59,-59.43,2762,-6759,3944,0,-1,-1
22.57,19.60,-59.42,2769,-6754,3939,0,-1,-1
22.58,19.61,-59.42,2777,-6758,3941,0,-1,-1
22.59,19.62,-59.42,2785,-6762,3945,0,-1,-1
22.59,19.63,-59.41,2789,-6755,3943,0,-1,-1
22.59,19.63,-59.40,2784,-6748,3938,0,-1,-1
22.59,19.64,-59.39,2785,-6751,3948,0,0,-1
22.60,19.64,-59.38,2788,-6749,3955,0,-1,-1
22.60,19.65,-59.36,2784,-6751,3974,0,-1,-1
22.61,19.66,-59.35,2792,-6754,3974,0,-1,-1
22.61,19.66,-59.34,2775,-6754,3960,0,-1,-1
22.61,19.66,-59.33,2775,-6752,3949,0,-1,-1
22.62,19.67,-59.33,2786,-6755,3957,0,-1,-1
22.62,19.67,-59.31,2781,-6764,3954,0,-1,-1
22.62,19.68,-59.30,2786,-6762,3947,0,-1,-1
22.62,19.68,-59.28,2788,-6752,3962,0,0,-1
22.63,19.69,-59.27,2791,-6738,3964,0,-1,-1
22.62,19.69,-59.26,2790,-6743,3967,0,-1,-1
22.63,19.70,-59.25,2789,-6737,3962,0,-1,-1
22.63,19.70,-59.24,2789,-6732,3968,0,-1,0
22.63,19.70,-59.23,2788,-6733,3978,0,-1,-1
22.63,19.70,-59.23,2792,-6743,3980,0,-1,0
22.62,19.70,-59.23,2792,-6754,3970,0,-1,0
22.62,19.70,-59.22,2788,-6746,3980,0,0,0
22.61,19.69,-59.22,2781,-6734,3974,0,-1,0
22.61,19.70,-59.22,2784,-6744,3971,0,-1,0
22.60,19.69,-59.22,2781,-6745,3965,0,-1,0
22.59,19.69,-59.22,2779,-6743,3963,0,-1,0
22.59,19.69,-59.21,2787,-6748,3974,0,-1,0
22.58,19.69,-59.21,2788,-6749,3968,0,-1,0
22.58,19.69,-59.21,2800,-6737,3969,0,0,0
22.57,19.68,-59.22,2782,-6735,3967,0,-1,0
22.54,19.67,-59.23,2781,-6739,3963,0,-1,0
22.54,19.67,-59.22,2795,-6744,3970,0,-1,0
22.51,19.65,-59.23,2763,-6749,3961,0,-1,0
22.50,19.66,-59.24,2771,-6757,3968,0,-1,0
22.49,19.65,-59.24,2795,-6735,3994,-1,0,0
22.47,19.64,-59.26,2755,-6751,3933,0,-1,0
22.46,19.64,-59.26,2811,-6744,3970,0,-1,0
22.44,19.63,-59.25,2779,-6724,3967,0,-1,0
22.43,19.63,-59.25,2779,-6735,3976,0,-1,0
22.42,19.62,-59.26,2802,-6739,3987,0,-1,0
22.39,19.60,-59.27,2789,-6745,3979,-1,0,0
22.37,19.58,-59.28,2767,-6754,3951,-1,-1,0
22.36,19.57,-59.29,2774,-6764,3974,-1,-1,0
22.32,19.55,-59.32,2752,-6765,3953,-1,0,0
22.30,19.53,-59.32,2762,-6754,3950,0,-1,0
22.29,19.53,-59.33,2761,-6762,3941,0,-1,0
22.27,19.52,-59.32,2765,-6733,3968,0,0,0
22.25,19.52,-59.33,2797,-6766,3963,0,-2,0
22.25,19.51,-59.31,2775,-6734,3971,1,1,0
22.24,19.50,-59.31,2774,-6772,3949,0,-1,0
22.24,19.49,-59.28,2778,-6729,3985,0,0,0
22.24,19.49,-59.26,2764,-6688,4035,-1,0,-1
22.23,19.48,-59.29,2758,-6762,3948,0,0,0
22.23,19.48,-59.28,2758,-6733,3979,0,-1,-1
22.23,19.47,-59.29,2749,-6731,4025,-2,0,0
22.23,19.47,-59.33,2764,-6778,3960,-1,-1,-1
22.23,19.47,-59.34,2774,-6764,3961,-1,1,-1
22.23,19.46,-59.35,2727,-6765,3951,-1,-1,-1
22.24,19.46,-59.37,2761,-6757,3948,0,0,-1
22.24,19.47,-59.39,2769,-6775,3936,-1,-1,-1
22.24,19.45,-59.39,2780,-6753,3956,0,1,0
22.24,19.45,-59.40,2759,-6766,3966,-1,-1,-1
22.24,19.45,-59.42,2783,-6764,3965,-1,0,0
22.23,19.43,-59.45,2740,-6815,3915,-1,-1,0
22.22,19.42,-59.44,2787,-6754,3960,0,1,0
22.22,19.41,-59.44,2741,-6765,3964,-2,-1,-1
22.20,19.40,-59.49,2731,-6826,3884,0,0,0
22.21,19.40,-59.45,2764,-6758,3954,1,1,-1
22.22,19.41,-59.42,2743,-6714,3994,-1,-2,-1
22.26,19.45,-59.43,2711,-6754,3917,0,-1,-2
22.29,19.48,-59.42,2789,-6745,3930,0,0,-2
22.32,19.49,-59.40,2784,-6750,3964,0,0,-1
22.34,19.50,-59.39,2772,-6766,3965,-1,0,-1
22.37,19.52,-59.39,2800,-6768,3968,-1,1,-2
22.40,19.53,-59.37,2790,-6770,3944,0,1,-1
22.42,19.52,-59.35,2759,-6760,3949,0,1,-1
22.45,19.54,-59.34,2762,-6753,3964,-1,0,-1
22.46,19.54,-59.34,2753,-6744,3969,-1,0,-1
22.47,19.55,-59.35,2765,-6774,3946,-1,0,-1
22.48,19.55,-59.36,2767,-6787,3943,0,0,-1
22.48,19.55,-59.35,2768,-6779,3960,0,0,-1
22.49,19.56,-59.35,2776,-6770,3954,0,0,-1
22.49,19.55,-59.34,2771,-6761,3952,0,0,-1
22.49,19.55,-59.34,2783,-6762,3961,-1,0,0
22.48,19.54,-59.35,2774,-6771,3966,-1,0,0
22.48,19.53,-59.35,2774,-6763,3972,-1,0,0
22.48,19.53,-59.35,2771,-6766,3984,-1,0,0
22.47,19.51,-59.37,2763,-6765,3952,-1,0,0
22.45,19.49,-59.38,2761,-6746,3967,-1,0,0
22.45,19.50,-59.39,2762,-6749,3957,-1,0,0
22.45,19.49,-59.40,2781,-6740,3956,-1,0,0
22.45,19.49,-59.42,2774,-6748,3960,-1,0,0
22.44,19.48,-59.44,2761,-6776,3936,-1,0,0
22.43,19.47,-59.44,2752,-6770,3937,0,-1,0
22.42,19.47,-59.46,2747,-6772,3928,-1,-1,0
22.42,19.46,-59.45,2751,-6753,3951,0,0,0
22.41,19.45,-59.47,2730,-6776,3928,0,-1,-1
22.42,19.47,-59.45,2755,-6762,3941,0,-1,-1
22.43,19.49,-59.44,2758,-6745,3960,-1,-1,-1
22.44,19.50,-59.45,2752,-6772,3935,0,0,-1
22.45,19.51,-59.44,2759,-6768,3950,0,-1,-1
22.46,19.51,-59.42,2767,-6761,3959,0,0,-1
22.46,19.52,-59.41,2764,-6754,3965,0,-1,-1
22.48,19.53,-59.41,2766,-6757,3944,0,-1,-1
22.48,19.54,-59.39,2766,-6748,3949,0,-1,-1
22.49,19.55,-59.38,2767,-6750,3947,0,-1,-1
22.50,19.56,-59.37,2761,-6757,3954,0,-1,-1
22.51,19.57,-59.37,2766,-6762,3950,0,-1,-1
22.52,19.58,-59.36,2769,-6756,3960,0,0,-1
22.52,19.58,-59.34,2772,-6765,3963,0,0,-1
22.52,19.59,-59.33,2770,-6765,3961,0,-1,-1
22.53,19.60,-59.31,2778,-6752,3954,0,-1,-1
22.53,19.60,-59.30,2775,-6745,3945,0,-1,-1
22.54,19.61,-59.29,2770,-6744,3958,0,-1,-1
22.54,19.62,-59.27,2779,-6744,3972,0,-1,-1
22.54,19.62,-59.26,2778,-6745,3970,0,-1,-1
22.55,19.63,-59.25,2790,-6748,3979,0,-1,-1
22.54,19.63,-59.24,2782,-6740,3979,0,-1,-1
22.54,19.63,-59.24,2779,-6745,3959,0,-1,-1
22.54,19.64,-59.23,2786,-6745,3972,0,-1,-1
22.55,19.65,-59.22,2779,-6749,3966,0,-1,-1
22.54,19.64,-59.21,2774,-6748,3961,0,-1,-1
22.55,19.65,-59.20,2778,-6743,3969,0,-1,-1
22.55,19.66,-59.20,2778,-6748,3977,0,-1,-1
22.55,19.66,-59.19,2782,-6747,3976,0,-1,-1
22.55,19.67,-59.18,2783,-6746,3975,0,-1,-1
22.55,19.67,-59.18,2784,-6743,3981,0,-1,-1
22.55,19.67,-59.18,2783,-6747,3981,0,-1,-1
22.54,19.68,-59.17,2789,-6740,3982,0,-1,0
22.55,19.68,-59.16,2793,-6740,3982,0,-1,-1
22.54,19.69,-59.16,2792,-6745,3986,0,-1,-1
22.54,19.69,-59.16,2790,-6747,3978,0,-1,-1
22.54,19.69,-59.15,2797,-6737,3988,0,-1,-1
22.55,19.70,-59.14,2803,-6733,3988,0,-1,-1
22.55,19.71,-59.13,2797,-6725,3987,0,-1,-1
22.55,19.72,-59.13,2806,-6734,3991,0,-1,-1
22.55,19.72,-59.13,2798,-6732,3985,0,-1,-1
22.55,19.72,-59.12,2802,-6738,3983,0,-1,-1
22.55,19.73,-59.11,2799,-6739,3988,0,-1,-1
22.55,19.73,-59.10,2800,-6730,3988,0,-1,-1
22.56,19.74,-59.10,2787,-6726,3974,0,-1,-1
22.55,19.74,-59.09,2788,-6723,3975,0,-1,-1
22.56,19.74,-59.09,2795,-6730,3989,0,-1,-1
22.56,19.75,-59.09,2795,-6744,3980,0,-1,-1
22.56,19.75,-59.07,2802,-6736,3995,0,-1,-1
22.56,19.76,-59.07,2809,-6730,3995,0,-1,-1
22.56,19.76,-59.06,2807,-6729,3985,0,0,-1
22.57,19.77,-59.05,2804,-6722,3987,0,-1,-1
22.57,19.77,-59.04,2800,-6726,3995,0,-1,0
22.56,19.77,-59.04,2804,-6730,4007,0,-1,0
22.57,19.78,-59.04,2811,-6734,4003,0,-1,-1
22.56,19.77,-59.03,2798,-6731,4010,0,-1,0
22.56,19.77,-59.03,2793,-6725,3999,0,-1,0
22.55,19.76,-59.03,2789,-6729,4001,0,-1,-1
22.55,19.77,-59.03,2791,-6720,4010,0,-1,-1
22.56,19.77,-59.02,2804,-6715,4006,0,-1,-1
22.56,19.77,-59.02,2809,-6713,3999,0,-1,-1
22.56,19.78,-59.02,2812,-6724,3996,0,-1,-1
22.56,19.78,-59.02,2802,-6719,3989,0,-1,0
22.55,19.78,-59.03,2799,-6711,3988,0,-1,0
22.55,19.78,-59.03,2804,-6715,3995,0,-1,0
22.55,19.78,-59.03,2805,-6719,3996,0,-1,0
22.55,19.78,-59.04,2807,-6720,3997,-1,-1,-1
22.55,19.78,-59.04,2807,-6720,3994,-1,-1,-1
22.55,19.78,-59.05,2805,-6727,3996,-1,-1,-1
22.55,19.78,-59.05,2798,-6729,3990,-1,-1,-1
22.56,19.79,-59.06,2803,-6726,4003,0,-1,-1
22.56,19.79,-59.05,2799,-6723,3995,0,0,-1
22.56,19.79,-59.04,2805,-6719,4006,0,0,0
22.56,19.79,-59.04,2805,-6708,4009,0,0,-1
22.56,19.78,-59.03,2805,-6705,4005,0,0,0
22.55,19.78,-59.03,2809,-6710,4015,0,-1,-1
22.56,19.78,-59.02,2821,-6709,4017,0,0,-1
22.56,19.78,-59.03,2809,-6715,4008,-1,0,0
22.56,19.78,-59.03,2805,-6714,4008,-1,0,-1
22.56,19.78,-59.03,2806,-6711,4006,-1,0,-1
22.56,19.78,-59.03,2804,-6708,4001,0,-1,-1
22.56,19.78,-59.03,2806,-6706,3998,0,-1,-1
22.57,19.79,-59.03,2810,-6702,4003,0,-1,-1
22.57,19.79,-59.03,2808,-6699,4004,-1,-1,0
22.57,19.79,-59.03,2818,-6705,4010,0,0,0
22.57,19.79,-59.03,2816,-6703,4020,0,-1,0
22.57,19.79,-59.03,2815,-6706,4012,0,0,-1
22.57,19.79,-59.03,2806,-6706,4002,0,-1,-1
22.57,19.79,-59.03,2809,-6712,4009,0,0,-1
22.57,19.79,-59.03,2810,-6712,4013,0,0,-1
22.57,19.79,-59.03,2814,-6710,4011,0,0,-1
22.58,19.79,-59.02,2813,-6704,4012,0,0,-1
22.58,19.79,-59.02,2814,-6703,4012,0,0,-1
22.58,19.79,-59.02,2806,-6713,4028,-1,0,-1
22.58,19.79,-59.02,2809,-6716,4029,0,0,-1
22.58,19.79,-59.02,2805,-6709,4017,0,0,-1
22.58,19.79,-59.02,2812,-6710,4020,0,0,-1
22.58,19.79,-59.01,2819,-6707,4014,0,0,0
22.58,19.78,-59.01,2802,-6697,4019,-1,0,0
22.58,19.77,-59.01,2798,-6698,4013,-1,-1,-1
22.58,19.78,-59.01,2811,-6703,4023,-1,-1,0
22.58,19.78,-59.01,2816,-6701,4017,0,-1,0
22.58,19.78,-59.01,2823,-6697,4023,-1,-1,0
22.58,19.78,-59.01,2825,-6703,4033,0,-1,0
22.58,19.78,-59.01,2833,-6698,4038,-1,0,0
22.58,19.78,-59.02,2825,-6703,4028,-1,0,0
22.57,19.77,-59.03,2818,-6702,4026,-1,0,0
22.57,19.77,-59.03,2813,-6710,4024,-1,0,0
22.56,19.76,-59.03,2805,-6713,4014,-1,0,0
22.56,19.75,-59.04,2811,-6717,4021,-1,0,0
22.56,19.75,-59.04,2817,-6710,4018,-1,0,0
22.56,19.75,-59.04,2814,-6701,4029,-1,0,0
22.56,19.74,-59.04,2807,-6695,4032,-1,0,0
22.56,19.74,-59.05,2808,-6688,4024,-1,0,0
22.55,19.73,-59.06,2813,-6688,4025,-1,0,0
22.55,19.72,-59.06,2810,-6685,4026,-1,0,0
22.55,19.71,-59.08,2810,-6697,4010,-1,0,0
22.55,19.71,-59.09,2814,-6697,4002,-1,0,0
22.55,19.70,-59.09,2816,-6689,4023,-1,0,0
22.55,19.70,-59.11,2812,-6697,4011,-1,0,0
22.55,19.70,-59.12,2818,-6704,4015,-1,0,0
22.55,19.69,-59.14,2816,-6713,4023,-1,0,0
22.54,19.68,-59.15,2806,-6715,4022,-1,0,0
22.53,19.67,-59.17,2799,-6722,4017,-1,0,0
22.54,19.66,-59.18,2805,-6720,4011,-1,0,0
22.53,19.65,-59.19,2794,-6717,4008,-1,0,0
22.53,19.64,-59.20,2798,-6709,4004,-1,0,0
22.53,19.64,-59.21,2809,-6705,4021,-1,0,0
22.53,19.63,-59.22,2804,-6715,4014,-1,0,0
22.52,19.62,-59.23,2812,-6713,4033,-1,0,0
22.52,19.61,-59.25,2809,-6706,4027,-2,0,0
22.51,19.59,-59.27,2797,-6720,4007,-1,0,0
22.51,19.58,-59.28,2783,-6714,4006,-1,0,0
22.50,19.56,-59.30,2778,-6715,4006,-1,0,0
22.49,19.56,-59.32,2781,-6728,4000,-1,0,0
22.49,19.54,-59.34,2797,-6722,3999,-1,0,0
22.47,19.52,-59.37,2784,-6720,3996,-2,0,0
22.46,19.51,-59.41,2778,-6734,3975,-2,0,0
22.45,19.49,-59.43,2785,-6722,3987,-2,0,0
22.45,19.48,-59.47,2787,-6723,3999,-2,0,0
22.43,19.46,-59.52,2779,-6744,3989,-2,0,0
22.43,19.45,-59.55,2784,-6747,3978,-2,0,0
22.41,19.43,-59.58,2779,-6741,3983,-2,0,0
22.40,19.41,-59.62,2778,-6754,3958,-2,0,0
22.39,19.40,-59.65,2768,-6741,3976,-2,0,0
22.38,19.39,-59.69,2761,-6764,3965,-2,0,0
22.38,19.38,-59.71,2751,-6751,3966,-1,0,0
22.37,19.37,-59.74,2755,-6759,3945,-1,-1,0
22.38,19.38,-59.75,2765,-6775,3926,-1,-1,-1
22.38,19.38,-59.75,2773,-6762,3929,-1,0,-1
22.39,19.39,-59.75,2781,-6752,3937,-1,0,-1
22.40,19.40,-59.75,2781,-6752,3944,-1,-1,-1
22.41,19.41,-59.75,2778,-6761,3950,0,-1,-1
22.42,19.41,-59.74,2773,-6768,3949,0,0,-1
22.42,19.41,-59.74,2765,-6761,3951,0,0,-1
22.43,19.42,-59.72,2758,-6754,3968,0,-1,-1
22.44,19.43,-59.72,2758,-6756,3952,0,-1,-1
22.44,19.43,-59.71,2763,-6754,3958,0,-1,-1
22.45,19.44,-59.70,2767,-6752,3956,0,-1,-1
22.45,19.45,-59.69,2778,-6754,3960,0,-1,-1
22.46,19.46,-59.68,2770,-6752,3965,0,-1,-1
22.46,19.47,-59.67,2781,-6744,3963,0,-1,-1
22.46,19.47,-59.66,2775,-6750,3963,0,-1,-1
22.47,19.48,-59.65,2779,-6748,3965,0,-1,-1
22.47,19.49,-59.64,2781,-6751,3959,0,-1,-1
22.48,19.50,-59.63,2779,-6749,3956,0,-1,-1
22.49,19.51,-59.61,2783,-6746,3973,0,-1,-1
22.49,19.51,-59.61,2788,-6747,3981,0,-1,-1
22.49,19.52,-59.61,2783,-6746,3977,0,-1,-1
22.49,19.52,-59.60,2786,-6747,3966,0,-1,-1
22.50,19.53,-59.59,2770,-6746,3969,0,-1,0
22.49,19.53,-59.59,2777,-6748,3952,0,-1,-1
22.50,19.54,-59.57,2795,-6742,3971,0,-1,-1
22.51,19.55,-59.57,2792,-6738,3966,0,-1,-1
22.51,19.56,-59.55,2795,-6742,3965,0,0,-1
22.52,19.56,-59.54,2795,-6734,3970,0,-1,-1
22.52,19.57,-59.53,2795,-6728,3980,0,-1,0
22.52,19.57,-59.52,2794,-6730,3984,0,-1,0
22.52,19.58,-59.51,2797,-6733,3992,0,-1,0
22.52,19.57,-59.50,2796,-6727,3995,0,-1,-1
22.52,19.58,-59.50,2795,-6731,3991,0,-1,0
22.52,19.58,-59.50,2786,-6732,3989,0,-1,-1
22.52,19.59,-59.49,2795,-6731,3982,0,-1,-1
22.53,19.59,-59.49,2799,-6737,3979,0,-1,0
22.53,19.59,-59.48,2796,-6732,3980,0,-1,0
22.53,19.60,-59.47,2796,-6722,3977,0,-1,0
22.53,19.60,-59.47,2799,-6729,3987,0,-1,-1
22.53,19.61,-59.47,2798,-6735,3986,0,-1,0
22.53,19.61,-59.46,2801,-6734,3995,0,-1,-1
22.54,19.62,-59.45,2801,-6731,3994,0,-1,-1
22.54,19.62,-59.45,2796,-6719,3985,0,-1,-1
22.55,19.63,-59.44,2805,-6706,3987,0,0,0
22.55,19.63,-59.43,2807,-6709,3995,-1,-1,0
22.55,19.63,-59.43,2800,-6728,3997,0,-1,0
22.55,19.64,-59.42,2808,-6730,3996,0,-1,-1
22.55,19.64,-59.42,2794,-6738,3985,0,0,-1
22.55,19.63,-59.42,2786,-6731,3985,0,-1,0
22.55,19.64,-59.41,2791,-6730,3994,0,-1,-1
22.55,19.64,-59.39,2800,-6730,3993,0,-1,-1
22.56,19.65,-59.38,2807,-6726,4004,0,-1,-1
22.56,19.66,-59.37,2818,-6714,4004,0,-1,0
22.56,19.66,-59.35,2821,-6700,4003,0,-1,-1
22.56,19.66,-59.35,2817,-6705,3999,0,-1,0
22.57,19.67,-59.33,2815,-6709,4005,0,-1,0
22.57,19.67,-59.32,2812,-6712,3999,0,0,-1
22.57,19.67,-59.30,2805,-6707,4014,0,-1,0
22.56,19.67,-59.31,2807,-6709,4003,0,-1,0
22.56,19.67,-59.30,2807,-6714,4020,0,-1,0
22.55,19.67,-59.30,2809,-6713,4014,-1,-1,0
22.55,19.66,-59.30,2802,-6707,4019,-1,-1,0
22.55,19.67,-59.30,2806,-6709,4007,-1,-1,0
22.55,19.67,-59.30,2811,-6720,4002,0,0,0
22.55,19.67,-59.29,2809,-6711,3990,0,-1,0
22.55,19.67,-59.28,2816,-6704,3998,0,0,0
22.55,19.67,-59.27,2811,-6694,4011,0,-1,0
22.54,19.67,-59.28,2807,-6701,4009,0,-1,0
22.55,19.67,-59.27,2819,-6703,4030,0,-1,-1
22.55,19.67,-59.26,2816,-6710,4020,-1,0,0
22.55,19.67,-59.26,2810,-6719,4009,0,0,0
22.55,19.67,-59.26,2809,-6719,4008,0,-1,0
22.56,19.67,-59.25,2806,-6721,4014,0,-1,0
22.55,19.67,-59.25,2814,-6714,4013,0,-1,-1
22.56,19.68,-59.24,2816,-6712,4017,0,-1,-1
22.56,19.68,-59.24,2819,-6703,4020,-1,-1,-1
22.57,19.69,-59.23,2812,-6709,4007,0,0,-1
22.57,19.68,-59.22,2818,-6707,4013,0,0,0
22.58,19.69,-59.21,2813,-6696,4017,0,-1,-1
22.58,19.69,-59.21,2810,-6696,4013,-1,0,0
22.58,19.69,-59.21,2815,-6699,4004,-1,-1,-1
22.58,19.69,-59.21,2813,-6703,4014,-1,0,0
22.59,19.69,-59.21,2823,-6701,4015,-1,0,-1
22.59,19.70,-59.21,2822,-6698,4022,-1,-1,-1
22.60,19.70,-59.20,2827,-6691,4016,-1,0,-1
22.60,19.70,-59.20,2825,-6692,4018,-1,0,0
22.60,19.70,-59.20,2822,-6699,4019,-1,0,-1
22.60,19.70,-59.19,2813,-6699,4029,-1,0,0
22.60,19.70,-59.19,2811,-6706,4021,-1,0,0
22.60,19.69,-59.19,2802,-6708,4008,-1,0,-1
22.60,19.69,-59.19,2808,-6699,4018,-1,0,0
22.61,19.70,-59.19,2808,-6713,4006,0,0,-1
22.61,19.70,-59.18,2816,-6705,4008,0,0,-1
22.62,19.69,-59.17,2825,-6704,4027,0,0,-1
22.62,19.69,-59.16,2818,-6699,4032,-1,0,0
22.62,19.69,-59.16,2809,-6702,4025,-1,0,0
22.61,19.69,-59.16,2815,-6695,4035,-1,-1,0
22.61,19.68,-59.17,2813,-6692,4045,-1,-1,0
22.60,19.68,-59.17,2821,-6687,4058,-1,0,0
22.59,19.67,-59.18,2815,-6691,4053,-1,0,0
22.58,19.65,-59.21,2809,-6708,4051,-1,0,0
22.57,19.64,-59.23,2794,-6699,4034,-2,0,0
22.56,19.64,-59.26,2812,-6717,4015,-1,0,0
22.55,19.62,-59.29,2801,-6720,3997,-1,0,0
22.54,19.60,-59.31,2806,-6707,4013,-2,0,0
22.53,19.59,-59.34,2812,-6728,3999,-2,0,0
22.52,19.57,-59.35,2808,-6712,4015,-1,1,0
22.50,19.54,-59.38,2782,-6701,4002,-2,0,0
22.49,19.53,-59.40,2787,-6702,4004,-2,0,0
22.49,19.52,-59.44,2811,-6707,4003,-2,0,0
22.47,19.50,-59.46,2796,-6717,4010,-1,0,0
22.45,19.47,-59.48,2799,-6725,4010,-2,1,1
22.43,19.44,-59.52,2763,-6740,3977,-1,0,0
22.42,19.44,-59.55,2784,-6740,3992,-1,0,0
22.39,19.41,-59.58,2767,-6734,3971,-1,0,0
22.39,19.40,-59.61,2779,-6730,3981,-2,0,0
22.38,19.38,-59.62,2758,-6739,4001,-1,0,0
22.37,19.37,-59.67,2786,-6765,3941,-2,0,0
22.35,19.35,-59.67,2747,-6751,3971,0,1,0
22.34,19.34,-59.69,2766,-6755,3992,-3,-1,0
22.33,19.31,-59.71,2746,-6768,3947,0,1,0
22.32,19.30,-59.72,2760,-6738,3994,-2,-1,0
22.31,19.29,-59.74,2745,-6767,3960,-1,0,0
22.29,19.27,-59.76,2755,-6760,3958,-1,0,0
22.29,19.27,-59.78,2751,-6751,3983,-2,0,0
22.28,19.25,-59.79,2750,-6772,3959,-1,0,-1
22.28,19.25,-59.81,2774,-6762,3952,-1,-1,0
22.28,19.24,-59.81,2743,-6739,3977,-1,0,0
22.28,19.23,-59.83,2742,-6757,3948,-1,0,-1
22.29,19.24,-59.85,2745,-6781,3932,-1,0,-1
22.29,19.23,-59.85,2756,-6751,3977,-1,0,-1
22.30,19.24,-59.88,2734,-6756,3952,-2,0,-1
22.31,19.25,-59.89,2756,-6764,3951,-1,-1,-1
22.33,19.26,-59.91,2767,-6769,3962,-1,0,-1
22.33,19.26,-59.94,2740,-6782,3924,-1,-1,-1
22.34,19.27,-59.94,2765,-6756,3951,-1,0,-1
22.36,19.28,-59.95,2763,-6753,3948,-1,0,-1
22.37,19.29,-59.95,2762,-6776,3936,-1,0,-1
22.39,19.30,-59.96,2759,-6787,3930,-1,0,-1
22.40,19.30,-59.97,2765,-6787,3922,-1,0,-1
22.41,19.31,-59.97,2762,-6797,3915,-1,0,-1
22.42,19.31,-59.96,2763,-6794,3929,0,0,-1
22.43,19.32,-59.96,2768,-6787,3939,-1,0,-1
22.44,19.32,-59.95,2765,-6781,3930,0,0,-1
22.46,19.33,-59.94,2764,-6771,3935,0,0,-1
22.46,19.33,-59.93,2772,-6759,3951,-1,0,-1
22.47,19.34,-59.92,2756,-6763,3959,0,-1,-1
22.47,19.34,-59.92,2758,-6774,3952,0,-1,-1
22.48,19.35,-59.91,2761,-6773,3957,0,0,-1
22.50,19.36,-59.90,2764,-6771,3950,0,-1,-1
22.51,19.38,-59.89,2762,-6767,3940,0,-1,-1
22.52,19.39,-59.88,2775,-6755,3947,0,-1,-1
22.53,19.40,-59.87,2776,-6758,3951,0,-1,-1
22.54,19.41,-59.86,2771,-6755,3957,0,-1,-1
22.54,19.41,-59.86,2775,-6769,3957,0,-1,-1
22.55,19.42,-59.85,2770,-6770,3947,0,-1,-1
22.55,19.43,-59.85,2768,-6769,3942,0,-1,-1
22.55,19.43,-59.83,2761,-6762,3936,0,-1,-1
22.56,19.44,-59.83,2773,-6762,3930,0,-1,-1
22.56,19.45,-59.82,2775,-6765,3946,0,-1,-1
22.57,19.46,-59.80,2787,-6756,3955,0,-1,-1
22.58,19.47,-59.78,2779,-6754,3956,0,-1,-1
22.59,19.48,-59.77,2783,-6750,3956,0,-1,-1
22.59,19.48,-59.76,2789,-6752,3959,0,-1,-1
22.60,19.49,-59.75,2784,-6749,3952,0,-1,-1
22.60,19.50,-59.74,2786,-6740,3956,0,-1,-1
22.61,19.50,-59.72,2789,-6739,3971,0,-1,0
22.61,19.51,-59.72,2789,-6742,3972,0,-1,0
22.61,19.51,-59.72,2791,-6742,3975,0,-1,-1
22.62,19.52,-59.71,2792,-6747,3959,0,-1,-1
22.62,19.53,-59.71,2789,-6747,3961,0,-1,-1
22.62,19.54,-59.70,2798,-6739,3965,0,-1,-1
22.63,19.54,-59.69,2794,-6741,3967,0,-1,-1
22.63,19.55,-59.69,2791,-6739,3967,0,-1,0
22.63,19.54,-59.68,2792,-6739,3961,0,-1,0
22.63,19.55,-59.67,2794,-6731,3963,0,-1,0
22.64,19.56,-59.66,2801,-6728,3968,0,-1,0
22.64,19.57,-59.66,2804,-6723,3973,0,-1,0
22.65,19.57,-59.65,2799,-6729,3979,0,-1,-1
22.64,19.57,-59.64,2800,-6730,3983,0,-1,0
22.65,19.58,-59.64,2794,-6733,3975,-1,-1,0
22.65,19.58,-59.63,2789,-6732,3965,0,-1,-1
22.65,19.58,-59.62,2791,-6730,3974,0,-1,0
22.65,19.58,-59.62,2778,-6740,3971,0,-1,-1
22.65,19.59,-59.60,2799,-6739,3994,0,-1,-1
22.66,19.59,-59.60,2800,-6750,3980,0,-1,0
22.66,19.59,-59.59,2798,-6739,3974,0,-1,0
22.66,19.60,-59.58,2801,-6730,3979,0,-1,0
22.66,19.60,-59.57,2788,-6736,3974,0,-1,0
22.66,19.60,-59.56,2800,-6731,3975,0,-1,0
22.66,19.61,-59.56,2812,-6730,3981,0,-1,0
22.66,19.61,-59.55,2810,-6723,3986,0,-1,0
22.65,19.60,-59.55,2798,-6727,3982,0,-1,0
22.65,19.60,-59.54,2795,-6728,3983,0,-1,0
22.65,19.61,-59.53,2798,-6727,3986,0,-1,0
22.65,19.61,-59.52,2801,-6725,3985,0,-1,0
22.66,19.62,-59.52,2802,-6728,3978,0,-1,-1
22.66,19.62,-59.51,2804,-6726,3984,0,-1,0
22.67,19.63,-59.50,2803,-6723,3990,0,-1,-1
22.67,19.64,-59.49,2802,-6716,3990,0,-1,-1
22.67,19.64,-59.49,2810,-6729,3985,0,-1,-1
22.68,19.65,-59.49,2815,-6735,3981,0,-1,-1
22.69,19.65,-59.48,2815,-6736,3984,0,-1,-1
22.69,19.66,-59.47,2810,-6732,3998,0,-1,0
22.68,19.66,-59.47,2807,-6728,3985,0,-1,0
22.68,19.65,-59.46,2797,-6718,3991,0,-1,0
22.68,19.66,-59.46,2797,-6718,3986,0,-1,0
22.68,19.66,-59.45,2805,-6720,3987,0,-1,-1
22.69,19.67,-59.44,2816,-6726,3987,0,-1,0
22.69,19.68,-59.43,2819,-6746,3979,0,0,-1
22.70,19.68,-59.41,2824,-6726,4012,0,0,0
22.69,19.67,-59.40,2823,-6708,4014,0,0,0
22.69,19.67,-59.39,2823,-6693,4010,0,-1,0
22.68,19.67,-59.39,2821,-6707,4007,-1,-1,0
22.67,19.66,-59.39,2810,-6715,4013,0,0,0
22.66,19.65,-59.39,2796,-6719,4010,-1,0,0
22.65,19.65,-59.39,2793,-6714,4005,-1,-1,0
22.65,19.65,-59.40,2804,-6728,3994,-1,-1,0
22.65,19.65,-59.40,2804,-6744,3977,0,-1,0
22.64,19.65,-59.39,2809,-6721,3993,0,0,0
22.64,19.65,-59.38,2807,-6705,4004,-1,-1,0
22.63,19.65,-59.39,2807,-6714,3986,-1,-1,0
22.63,19.64,-59.39,2825,-6717,3997,0,0,0
22.62,19.64,-59.38,2812,-6706,4003,-1,0,0
22.61,19.63,-59.39,2807,-6714,4004,-1,-1,0
22.60,19.63,-59.39,2807,-6721,4000,-1,-1,0
22.58,19.62,-59.40,2803,-6721,3998,-1,-1,0
22.58,19.61,-59.40,2811,-6721,4002,0,-1,0
22.57,19.61,-59.39,2799,-6718,4020,-1,-1,0
22.57,19.61,-59.40,2800,-6738,3989,0,0,0
22.56,19.61,-59.39,2820,-6740,4002,0,-1,0
22.56,19.60,-59.38,2801,-6716,4014,0,0,0
22.57,19.61,-59.37,2797,-6733,3994,0,0,-1
22.57,19.60,-59.36,2786,-6717,4002,0,0,-1
22.58,19.62,-59.34,2806,-6702,4022,0,0,-1
22.59,19.62,-59.32,2795,-6706,4016,0,-1,-1
22.60,19.63,-59.31,2795,-6725,4023,0,-1,-1
22.61,19.63,-59.29,2808,-6712,4029,0,0,-1
22.61,19.63,-59.29,2800,-6706,4020,-1,-1,0
22.61,19.63,-59.29,2806,-6705,4013,-1,-1,0
22.61,19.64,-59.29,2813,-6709,4010,-1,0,0
22.61,19.64,-59.30,2816,-6711,4013,-1,0,0
22.62,19.64,-59.31,2824,-6714,4027,-1,0,0
22.60,19.62,-59.32,2806,-6720,4013,-1,0,0
22.60,19.61,-59.33,2809,-6721,4011,-1,0,0
22.59,19.60,-59.34,2811,-6719,4022,-1,0,0
22.59,19.59,-59.35,2795,-6697,4029,-1,0,0
22.57,19.58,-59.38,2813,-6726,4009,-2,-1,0
22.57,19.56,-59.39,2810,-6728,4009,-1,1,0
22.55,19.53,-59.41,2801,-6714,4031,-2,-1,0
22.54,19.51,-59.45,2821,-6724,4003,-1,1,0
22.53,19.49,-59.46,2781,-6726,3992,-2,0,-1
22.53,19.48,-59.47,2786,-6732,3991,-1,0,0
22.52,19.47,-59.49,2790,-6727,4011,-2,0,0
22.51,19.46,-59.53,2775,-6742,3953,0,0,-1
22.52,19.45,-59.52,2791,-6726,4002,-1,0,0
22.52,19.45,-59.54,2798,-6730,3989,-1,0,0
22.52,19.44,-59.55,2770,-6709,4002,-1,0,-1
22.51,19.43,-59.57,2797,-6739,3995,-2,0,0
22.51,19.41,-59.59,2765,-6707,4006,-2,0,0
22.51,19.42,-59.62,2772,-6741,3982,-2,-1,-1
22.53,19.42,-59.64,2788,-6743,3970,-1,0,0
22.53,19.42,-59.67,2795,-6750,3955,-1,0,0
22.53,19.41,-59.66,2774,-6720,3983,-1,0,-1
22.54,19.41,-59.69,2776,-6746,3982,-2,-1,-1
22.54,19.41,-59.72,2778,-6753,3968,-1,0,-1
22.55,19.41,-59.73,2784,-6747,3955,-1,0,-1
22.56,19.41,-59.74,2765,-6745,3960,-1,0,-1
22.56,19.41,-59.76,2761,-6760,3943,-1,0,-1
22.57,19.41,-59.77,2762,-6767,3938,-1,0,-1
22.58,19.41,-59.76,2767,-6763,3964,-1,0,-1
22.59,19.42,-59.76,2778,-6763,3973,-1,0,-1
22.60,19.43,-59.76,2777,-6758,3975,-1,0,-1
22.61,19.42,-59.75,2781,-6751,3973,-1,0,-1
22.62,19.42,-59.74,2779,-6740,3973,-1,0,-1
22.62,19.42,-59.75,2776,-6738,3970,-1,0,0
22.62,19.41,-59.76,2773,-6747,3970,-1,0,0
22.62,19.41,-59.77,2773,-6761,3975,-1,0,0
22.62,19.40,-59.78,2768,-6757,3970,-1,0,0
22.62,19.40,-59.80,2770,-6759,3958,-1,0,0
22.61,19.39,-59.82,2771,-6763,3952,-1,0,0
22.61,19.39,-59.84,2757,-6767,3936,-1,0,0
22.62,19.39,-59.84,2770,-6763,3944,-1,-1,-1
22.62,19.39,-59.85,2780,-6763,3952,-1,0,0
22.61,19.39,-59.86,2765,-6774,3933,-1,-1,0
22.62,19.39,-59.85,2767,-6766,3946,0,-1,0
22.62,19.39,-59.85,2762,-6755,3954,-1,-1,0
22.61,19.39,-59.85,2769,-6768,3941,0,-1,-1
22.63,19.41,-59.84,2784,-6767,3960,0,-1,-1
22.62,19.41,-59.83,2780,-6769,3961,0,0,-1
22.63,19.41,-59.83,2778,-6768,3955,0,0,-1
22.64,19.42,-59.82,2764,-6766,3947,0,-1,-1
22.64,19.42,-59.81,2770,-6757,3958,0,-1,-1
22.65,19.44,-59.79,2776,-6755,3966,0,-1,-1
22.66,19.44,-59.78,2774,-6756,3959,0,-1,-1
22.67,19.46,-59.77,2777,-6751,3955,0,-1,-1
22.68,19.47,-59.76,2793,-6743,3965,0,-1,-1
22.69,19.48,-59.74,2790,-6743,3968,0,-1,-1
22.70,19.50,-59.73,2786,-6751,3962,0,-1,-1
22.71,19.50,-59.72,2782,-6750,3974,0,-1,-1
22.71,19.51,-59.71,2773,-6748,3968,0,-1,-1
22.71,19.51,-59.70,2776,-6748,3965,0,-1,-1
22.71,19.52,-59.70,2777,-6746,3954,-1,-1,-1
22.72,19.53,-59.69,2786,-6752,3967,0,-1,-1
22.73,19.54,-59.67,2802,-6744,3972,0,-1,-1
22.73,19.54,-59.66,2788,-6743,3972,0,-1,-1
22.74,19.55,-59.65,2788,-6740,3971,0,-1,-1
22.74,19.55,-59.64,2792,-6742,3976,0,-1,-1
22.75,19.56,-59.63,2798,-6744,3972,0,-1,-1
22.75,19.57,-59.61,2801,-6745,3973,0,-1,0
22.76,19.57,-59.59,2805,-6727,3990,0,-1,0
22.75,19.58,-59.59,2800,-6717,3991,-1,-1,0
22.75,19.57,-59.59,2789,-6728,3994,0,-1,0
22.75,19.58,-59.59,2801,-6736,3984,-1,-1,0
22.74,19.58,-59.59,2794,-6744,3978,-1,-1,0
22.74,19.57,-59.59,2797,-6740,3974,0,-1,0
22.74,19.58,-59.60,2806,-6732,3970,-1,-1,0
22.74,19.59,-59.59,2811,-6713,3983,0,-1,0
22.74,19.60,-59.59,2821,-6714,3987,-1,-1,0
22.75,19.60,-59.60,2829,-6736,3964,-1,0,0
22.74,19.59,-59.60,2798,-6744,3979,-1,0,0
22.73,19.59,-59.61,2786,-6745,3986,-1,-1,0
22.73,19.59,-59.62,2792,-6748,3975,-1,-1,0
22.73,19.59,-59.62,2792,-6739,3966,0,-1,0
22.73,19.59,-59.62,2782,-6734,3958,0,0,-1
22.74,19.61,-59.62,2799,-6742,3958,-1,-1,-1
22.74,19.62,-59.61,2815,-6745,3975,0,-1,-1
22.75,19.62,-59.60,2825,-6751,3984,0,0,0
22.75,19.63,-59.59,2812,-6737,3984,0,0,0
22.75,19.63,-59.59,2805,-6732,3977,0,-1,-1
22.75,19.63,-59.58,2802,-6734,3967,0,-1,0
22.75,19.63,-59.57,2796,-6731,3975,0,-1,-1
22.75,19.63,-59.57,2797,-6737,3975,0,-1,-1
22.76,19.64,-59.56,2809,-6738,3984,0,-1,-1
22.76,19.64,-59.56,2817,-6744,3985,-1,-1,0
22.76,19.64,-59.56,2799,-6743,3977,0,-1,0
22.76,19.64,-59.56,2801,-6727,3976,-1,-1,0
22.76,19.65,-59.55,2811,-6721,3990,-1,-1,0
22.75,19.64,-59.55,2801,-6725,3982,-1,-1,0
22.75,19.64,-59.56,2795,-6719,3987,-1,-1,0
22.73,19.64,-59.57,2810,-6730,3981,0,-1,0
22.72,19.63,-59.56,2802,-6722,3995,-1,0,0
22.71,19.62,-59.57,2796,-6737,3963,0,-1,0
22.71,19.62,-59.57,2823,-6721,4016,-1,0,0
22.68,19.60,-59.57,2785,-6713,3996,-1,-1,0
22.68,19.61,-59.59,2823,-6744,3997,-1,-1,0
22.66,19.60,-59.59,2822,-6741,3991,-1,-1,0
22.65,19.59,-59.59,2802,-6733,3978,0,-1,0
22.63,19.57,-59.58,2781,-6719,3981,0,-1,0
22.63,19.58,-59.58,2802,-6727,3975,-1,-1,0
22.62,19.58,-59.59,2800,-6737,3957,0,0,0
22.61,19.57,-59.56,2806,-6729,3994,0,-1,0
22.61,19.56,-59.56,2792,-6736,3987,0,0,0
22.61,19.57,-59.56,2808,-6727,3981,-1,-1,0
22.60,19.56,-59.56,2776,-6743,3946,0,0,-1
22.59,19.56,-59.55,2801,-6723,3996,-1,-1,0
22.58,19.56,-59.57,2786,-6739,3953,0,0,0
22.58,19.55,-59.56,2795,-6729,3982,0,-1,0
22.58,19.56,-59.57,2829,-6731,3976,-1,0,0
22.57,19.55,-59.58,2771,-6728,3946,-1,-1,-1
22.58,19.57,-59.56,2830,-6734,3976,0,-1,0
22.58,19.57,-59.55,2789,-6726,3987,-1,-1,-1
22.59,19.58,-59.56,2794,-6734,3956,0,-1,-1
22.60,19.59,-59.53,2799,-6714,3972,0,-1,-1
22.60,19.58,-59.52,2786,-6722,3983,0,0,-1
22.61,19.60,-59.51,2786,-6737,3981,0,-1,-1
22.63,19.62,-59.50,2803,-6733,3989,0,-1,-1
22.64,19.63,-59.48,2804,-6723,3999,0,0,-1
22.66,19.64,-59.46,2803,-6711,4001,0,0,-1
22.68,19.66,-59.44,2819,-6715,4006,0,-1,-1
22.69,19.67,-59.42,2825,-6717,3993,0,0,-1
22.71,19.68,-59.40,2827,-6712,3999,0,0,-1
22.72,19.69,-59.39,2826,-6701,4010,0,0,-1
22.73,19.70,-59.38,2811,-6705,4019,-1,0,-1
22.73,19.69,-59.38,2803,-6719,3998,0,0,-1
22.74,19.70,-59.37,2805,-6724,4008,0,0,-1
22.75,19.70,-59.36,2809,-6728,3997,0,0,-1
22.75,19.70,-59.36,2796,-6729,3989,0,0,-1
22.76,19.70,-59.35,2807,-6723,3988,0,0,-1
22.76,19.71,-59.35,2823,-6716,3994,0,-1,-1
22.77,19.72,-59.33,2824,-6707,4004,0,0,-1
22.78,19.72,-59.32,2834,-6707,4003,0,0,-1
22.78,19.72,-59.30,2829,-6695,4017,0,0,0
22.78,19.72,-59.30,2829,-6704,4014,0,0,0
22.79,19.72,-59.29,2820,-6692,4026,0,0,-1
22.79,19.72,-59.28,2807,-6687,4021,-1,-1,-1
22.79,19.72,-59.28,2811,-6697,4007,-1,0,0
22.79,19.72,-59.28,2814,-6702,4013,-1,-1,-1
22.80,19.73,-59.27,2815,-6696,4015,0,-1,-1
22.81,19.73,-59.27,2820,-6706,4004,0,-1,-1
22.81,19.73,-59.26,2821,-6706,4005,0,0,0
22.82,19.74,-59.26,2824,-6703,4000,0,0,-1
22.82,19.74,-59.26,2820,-6699,4003,0,0,0
22.82,19.74,-59.26,2821,-6697,4001,-1,0,0
22.82,19.74,-59.25,2823,-6699,4012,-1,-1,0
22.82,19.75,-59.25,2829,-6699,4023,-1,0,0
22.82,19.74,-59.25,2823,-6701,4026,-1,0,0
22.82,19.74,-59.25,2819,-6689,4027,-1,0,0
22.82,19.74,-59.25,2812,-6688,4025,-1,0,-1
22.82,19.73,-59.25,2816,-6695,4008,-1,0,-1
22.84,19.74,-59.24,2829,-6693,4031,-1,0,-1
22.84,19.74,-59.24,2821,-6697,4023,-1,0,-1
22.84,19.73,-59.25,2820,-6703,4011,-1,0,0
22.84,19.72,-59.25,2809,-6703,4011,-1,0,-1
22.84,19.72,-59.25,2811,-6704,4013,-1,0,0
22.84,19.72,-59.25,2817,-6694,4026,-1,0,-1
22.85,19.71,-59.24,2819,-6695,4027,-1,0,-1
22.85,19.71,-59.25,2820,-6703,4016,-1,0,0
22.85,19.71,-59.26,2826,-6713,4008,-1,0,0
22.85,19.71,-59.26,2822,-6700,4015,-1,0,0
22.85,19.70,-59.26,2816,-6696,4010,-1,0,0
22.85,19.69,-59.27,2811,-6694,4021,-1,0,0
22.85,19.68,-59.28,2801,-6702,4023,-1,0,0
22.84,19.67,-59.29,2805,-6715,4022,-1,0,-1
22.85,19.67,-59.30,2806,-6720,4024,-1,0,-1
22.85,19.66,-59.30,2803,-6713,4023,-1,0,-1
22.86,19.66,-59.31,2811,-6712,4014,-1,0,-1
22.86,19.66,-59.31,2818,-6697,4017,-1,0,0
22.86,19.65,-59.32,2816,-6700,4020,-1,0,0
22.86,19.64,-59.33,2811,-6709,4011,-1,0,0
22.86,19.63,-59.34,2804,-6711,4020,-1,0,0
22.85,19.63,-59.36,2803,-6710,4005,-1,0,0
22.85,19.62,-59.37,2782,-6716,4001,-1,0,0
22.84,19.60,-59.38,2783,-6723,3996,-1,0,0
22.85,19.60,-59.39,2795,-6725,4009,-1,0,-1
22.86,19.60,-59.39,2803,-6722,4002,-1,0,0
22.85,19.59,-59.39,2801,-6722,3990,-1,0,-1
22.86,19.59,-59.40,2800,-6716,4005,-1,0,0
22.86,19.58,-59.40,2801,-6720,4008,-1,0,0
22.86,19.58,-59.40,2801,-6721,4010,-1,0,0
22.85,19.57,-59.41,2802,-6714,4017,-1,0,0
22.86,19.57,-59.42,2790,-6713,4010,-1,0,0
22.85,19.56,-59.43,2795,-6718,4009,-1,0,0
22.85,19.55,-59.44,2786,-6720,4008,-1,0,0
22.85,19.55,-59.45,2800,-6726,4008,-1,0,0
22.85,19.54,-59.47,2793,-6732,3997,-1,0,0
22.85,19.54,-59.47,2787,-6735,3992,-1,0,0
22.85,19.54,-59.48,2782,-6741,3976,-1,0,0
22.85,19.53,-59.49,2779,-6738,3975,-1,0,0
22.85,19.53,-59.48,2786,-6734,3982,-1,0,0
22.86,19.54,-59.48,2800,-6730,3982,-1,-1,0
22.86,19.54,-59.48,2795,-6726,3986,-1,0,-1
22.86,19.55,-59.48,2791,-6728,3985,-1,0,0
22.86,19.54,-59.48,2789,-6728,3991,-1,-1,0
22.86,19.54,-59.48,2782,-6724,3991,-1,-1,-1
22.86,19.55,-59.48,2786,-6726,3994,-1,-1,-1
22.87,19.55,-59.48,2797,-6722,3981,-1,0,-1
22.87,19.56,-59.48,2799,-6729,3990,0,-1,-1
22.87,19.56,-59.48,2796,-6729,3997,0,-1,-1
22.88,19.57,-59.47,2800,-6732,3990,0,-1,-1
22.89,19.58,-59.46,2800,-6721,3989,0,-1,-1
22.89,19.58,-59.46,2795,-6725,3989,0,-1,-1
22.89,19.59,-59.45,2798,-6720,3992,0,-1,-1
22.90,19.59,-59.44,2811,-6725,3987,0,-1,-1
22.90,19.60,-59.43,2808,-6718,3988,0,-1,0
22.90,19.60,-59.43,2805,-6717,3998,-1,-1,-1
22.91,19.61,-59.42,2802,-6718,3992,0,-1,-1
22.91,19.62,-59.43,2804,-6719,3982,0,-1,-1
22.92,19.63,-59.42,2807,-6721,3982,0,-1,-1
22.92,19.63,-59.42,2812,-6716,3993,0,-1,0
22.92,19.63,-59.41,2810,-6718,3999,0,-1,0
22.92,19.63,-59.41,2796,-6716,3996,-1,-1,-1
22.92,19.64,-59.41,2805,-6721,3999,0,-1,-1
22.92,19.64,-59.41,2807,-6724,3994,0,-1,-1
22.93,19.65,-59.40,2814,-6728,4001,0,-1,0
22.93,19.65,-59.40,2818,-6716,3996,0,-1,0
22.93,19.66,-59.39,2817,-6709,4001,0,-1,0
22.94,19.66,-59.39,2815,-6704,4011,-1,-1,0
22.94,19.66,-59.39,2825,-6711,4010,-1,-1,0
22.94,19.66,-59.39,2818,-6715,4003,-1,-1,0
22.93,19.66,-59.39,2809,-6706,3997,0,-1,0
22.93,19.66,-59.39,2796,-6718,4001,-1,0,0
22.93,19.65,-59.39,2791,-6724,3990,-1,0,0
22.93,19.66,-59.39,2803,-6721,4005,0,-1,-1
22.93,19.66,-59.39,2806,-6717,3994,0,0,-1
22.93,19.66,-59.38,2812,-6714,3991,0,-1,-1
22.94,19.67,-59.37,2807,-6711,4003,0,-1,-1
22.94,19.67,-59.36,2816,-6711,4005,0,-1,0
22.95,19.67,-59.35,2816,-6703,4012,0,0,0
22.95,19.67,-59.34,2823,-6699,4003,0,-1,0
22.95,19.68,-59.34,2814,-6697,4016,0,-1,0
22.95,19.68,-59.34,2813,-6703,4014,-1,-1,0
22.95,19.68,-59.33,2807,-6708,4014,0,-1,-1
22.95,19.68,-59.34,2813,-6706,4006,-1,-1,-1
22.96,19.69,-59.34,2815,-6715,4012,-1,-1,0
22.96,19.70,-59.34,2814,-6717,3995,-1,-1,0
22.96,19.70,-59.34,2814,-6726,3993,0,-1,-1
22.96,19.70,-59.34,2810,-6713,3992,0,-1,0
22.97,19.70,-59.33,2812,-6712,3990,0,-1,0
22.96,19.70,-59.32,2818,-6713,3998,0,-1,0
22.96,19.70,-59.32,2820,-6707,4002,0,0,0
22.97,19.71,-59.32,2824,-6703,4007,0,-1,0
22.97,19.71,-59.31,2818,-6699,4016,0,-1,0
22.97,19.71,-59.31,2816,-6705,4008,-1,-1,0
22.97,19.71,-59.31,2821,-6711,4005,-1,-1,0
22.98,19.72,-59.31,2817,-6708,4006,0,-1,-1
22.98,19.72,-59.30,2812,-6701,4006,0,-1,-1
22.98,19.73,-59.29,2806,-6705,4017,0,-1,-1
22.98,19.72,-59.29,2808,-6711,4010,-1,-1,-1
22.99,19.74,-59.28,2821,-6710,4017,0,-1,-1
22.99,19.74,-59.27,2823,-6710,4006,0,-1,-1
22.99,19.74,-59.27,2823,-6715,3997,0,-1,-1
22.99,19.74,-59.27,2814,-6708,3999,0,-1,-1
22.99,19.75,-59.25,2813,-6697,4004,0,-1,-1
23.00,19.75,-59.24,2813,-6692,4010,0,-1,-1
23.00,19.76,-59.23,2826,-6696,4008,0,-1,-1
23.01,19.77,-59.22,2827,-6702,4007,0,-1,0
23.01,19.77,-59.22,2833,-6703,4011,-1,-1,-1
23.01,19.77,-59.22,2819,-6703,4010,0,-1,-1
23.01,19.77,-59.22,2822,-6699,4015,0,-1,-1
23.01,19.77,-59.21,2832,-6696,4019,0,0,0
23.00,19.77,-59.21,2820,-6701,4014,-1,-1,0
22.99,19.76,-59.21,2821,-6702,4017,-1,-1,0
22.98,19.75,-59.22,2803,-6702,4015,-1,-1,0
22.96,19.74,-59.23,2827,-6713,4001,-1,-1,0
22.95,19.73,-59.24,2812,-6704,4006,-1,-1,0
22.93,19.72,-59.25,2814,-6706,4012,-1,-1,0
22.91,19.71,-59.26,2832,-6699,4012,-1,-1,0
22.89,19.70,-59.29,2830,-6709,4015,-1,-1,1
22.86,19.67,-59.31,2809,-6721,3993,-1,0,0
22.85,19.67,-59.31,2815,-6721,4013,0,-1,0
22.84,19.67,-59.31,2824,-6718,4033,-1,0,0
22.83,19.65,-59.32,2795,-6718,3999,0,0,0
22.82,19.64,-59.31,2804,-6701,4010,0,0,0
22.81,19.63,-59.32,2772,-6741,3969,0,-1,0
22.81,19.64,-59.29,2816,-6700,4017,0,0,0
22.81,19.64,-59.27,2787,-6693,4036,0,-1,-1
22.81,19.64,-59.26,2790,-6715,4008,0,-1,0
22.81,19.64,-59.26,2811,-6703,4006,0,0,0
22.80,19.64,-59.27,2814,-6707,4001,0,-1,0
22.81,19.64,-59.25,2821,-6692,4031,0,-1,0
22.80,19.64,-59.27,2813,-6706,4001,-1,-1,0
22.80,19.64,-59.26,2791,-6701,4009,0,-1,-1
22.80,19.64,-59.26,2816,-6706,4008,0,-1,0
22.80,19.64,-59.25,2803,-6703,4033,0,-1,0
22.79,19.64,-59.26,2804,-6736,3990,0,0,0
22.79,19.63,-59.25,2775,-6709,4019,-1,-1,-1
22.79,19.65,-59.25,2820,-6733,4026,-1,-1,-1
22.79,19.65,-59.25,2824,-6714,4012,0,0,0
22.79,19.64,-59.24,2811,-6701,4021,-1,0,0
22.79,19.64,-59.22,2798,-6709,4013,0,0,-1
22.79,19.64,-59.23,2821,-6709,4019,-1,-1,0
22.78,19.64,-59.23,2819,-6691,4036,-1,0,0
22.78,19.63,-59.23,2788,-6692,4051,-1,-1,0
22.78,19.63,-59.26,2830,-6719,4015,-1,0,0
22.78,19.62,-59.25,2823,-6687,4041,-1,0,0
22.77,19.61,-59.27,2794,-6710,4014,-1,0,-1
22.78,19.61,-59.28,2796,-6706,4000,-1,0,0
22.77,19.59,-59.30,2780,-6706,3997,-1,0,0
