Yaw,Pitch,Roll,AX,AY,AZ,GX,GY,GZ
20.39,11.64,-43.32,1668,-5568,5890,0,0,-1
20.39,11.64,-43.32,1665,-5561,5892,0,-1,0
20.39,11.64,-43.31,1665,-5563,5890,0,-1,0
20.38,11.65,-43.31,1669,-5571,5898,0,-1,0
20.38,11.65,-43.30,1664,-5580,5901,0,-1,0
20.37,11.66,-43.30,1666,-5576,5897,0,-1,0
20.38,11.66,-43.29,1661,-5574,5902,0,-1,0
20.37,11.66,-43.29,1663,-5572,5906,0,-1,-1
20.37,11.67,-43.28,1667,-5582,5896,0,-1,0
20.36,11.67,-43.28,1669,-5577,5895,0,-1,0
20.37,11.68,-43.27,1678,-5572,5894,0,-1,0
20.36,11.67,-43.26,1670,-5578,5899,0,-1,0
20.36,11.67,-43.26,1669,-5571,5902,0,-1,0
20.35,11.68,-43.25,1667,-5573,5893,0,-1,0
20.35,11.68,-43.25,1665,-5571,5891,0,-1,0
20.35,11.68,-43.24,1668,-5563,5894,0,-1,0
20.35,11.68,-43.24,1661,-5571,5903,0,-1,0
20.34,11.69,-43.24,1667,-5575,5899,0,-1,0
20.34,11.69,-43.23,1662,-5562,5892,0,-1,0
20.33,11.69,-43.22,1671,-5560,5895,0,-1,0
20.33,11.70,-43.22,1678,-5572,5895,0,-1,-1
20.33,11.70,-43.22,1669,-5563,5898,0,-1,0
20.33,11.71,-43.21,1681,-5588,5906,0,-1,0
20.33,11.71,-43.21,1676,-5563,5913,0,-1,0
20.32,11.71,-43.20,1662,-5566,5907,0,-1,-1
20.32,11.71,-43.20,1664,-5567,5905,0,-1,-1
20.32,11.73,-43.19,1671,-5570,5902,0,-1,-1
20.32,11.74,-43.18,1676,-5567,5901,0,-1,-1
20.32,11.74,-43.18,1681,-5562,5912,0,-1,-1
20.32,11.75,-43.17,1689,-5560,5922,0,-1,0
20.32,11.75,-43.17,1695,-5559,5921,0,-1,0
20.31,11.76,-43.16,1683,-5558,5910,0,-1,0
20.30,11.75,-43.15,1675,-5561,5908,0,-1,0
20.30,11.75,-43.14,1669,-5563,5909,0,-1,0
20.30,11.76,-43.14,1674,-5567,5909,0,-1,0
20.29,11.76,-43.13,1675,-5573,5910,0,-1,0
20.29,11.77,-43.12,1674,-5561,5907,0,-1,0
20.29,11.78,-43.11,1675,-5553,5899,0,-1,-1
20.29,11.78,-43.10,1678,-5544,5895,0,-1,0
20.28,11.79,-43.08,1687,-5539,5907,0,-1,0
20.28,11.80,-43.07,1693,-5541,5917,0,-1,0
20.27,11.80,-43.07,1686,-5546,5919,0,-1,0
20.27,11.81,-43.07,1691,-5552,5918,0,-1,0
20.26,11.81,-43.06,1689,-5558,5913,0,-1,0
20.26,11.82,-43.05,1692,-5543,5912,0,-1,0
20.26,11.83,-43.05,1688,-5544,5909,0,-1,0
20.26,11.84,-43.05,1701,-5541,5912,0,-1,0
20.25,11.84,-43.05,1700,-5557,5903,0,-1,0
20.24,11.85,-43.04,1699,-5560,5908,0,-1,0
20.25,11.85,-43.04,1685,-5559,5897,0,-1,-1
20.24,11.84,-43.03,1689,-5564,5887,0,0,-1
20.25,11.84,-43.00,1690,-5540,5906,0,-1,-1
20.25,11.85,-43.00,1700,-5538,5907,0,-1,-1
20.25,11.86,-42.99,1704,-5530,5906,0,-1,0
20.25,11.86,-42.97,1709,-5527,5914,0,-1,0
20.24,11.86,-42.97,1704,-5530,5925,0,0,0
20.24,11.85,-42.97,1694,-5527,5930,-1,-1,0
20.23,11.85,-42.97,1688,-5527,5920,-1,0,0
20.23,11.84,-42.98,1694,-5525,5921,-1,0,-1
20.24,11.84,-43.00,1690,-5539,5920,-1,0,-1
20.23,11.83,-43.01,1686,-5549,5920,-1,0,-1
20.24,11.83,-43.02,1690,-5549,5910,-1,0,-1
20.23,11.82,-43.03,1683,-5542,5908,-1,0,-1
20.23,11.82,-43.03,1689,-5536,5920,-1,0,-1
20.24,11.81,-43.03,1688,-5548,5934,-1,0,-1
20.24,11.79,-43.04,1686,-5546,5924,-1,0,-1
20.24,11.78,-43.05,1687,-5541,5926,-1,0,-1
20.24,11.77,-43.06,1687,-5540,5925,-1,0,-1
20.24,11.77,-43.07,1681,-5543,5913,-1,0,-1
20.24,11.76,-43.08,1676,-5542,5912,-1,0,-1
20.24,11.75,-43.10,1681,-5553,5908,-1,0,-1
20.24,11.74,-43.12,1685,-5552,5922,-1,0,-1
20.24,11.72,-43.14,1673,-5543,5928,-2,0,-1
20.24,11.70,-43.18,1668,-5561,5901,-2,0,-1
20.24,11.68,-43.21,1673,-5569,5918,-1,1,0
20.24,11.66,-43.24,1659,-5573,5903,-2,1,-1
20.24,11.64,-43.26,1655,-5580,5904,-1,0,-1
20.24,11.63,-43.29,1658,-5578,5920,-2,0,-1
20.25,11.61,-43.33,1653,-5578,5887,-2,0,-1
20.25,11.61,-43.36,1669,-5560,5887,-2,0,-1
20.24,11.59,-43.40,1654,-5568,5882,-2,0,-1
20.25,11.59,-43.44,1684,-5569,5896,-2,0,-1
20.24,11.59,-43.49,1669,-5589,5878,-2,-1,0
20.24,11.59,-43.53,1689,-5607,5878,-2,1,0
20.24,11.56,-43.56,1654,-5605,5845,-2,0,0
20.23,11.54,-43.59,1657,-5618,5882,-1,0,-1
20.22,11.53,-43.63,1628,-5644,5868,-2,0,0
20.22,11.53,-43.66,1646,-5613,5883,-2,0,0
20.22,11.53,-43.69,1649,-5634,5866,-2,0,-1
20.22,11.52,-43.72,1653,-5631,5856,-1,0,0
20.21,11.52,-43.74,1652,-5640,5880,-1,0,0
20.20,11.49,-43.75,1637,-5601,5835,-1,0,0
20.20,11.48,-43.78,1635,-5618,5876,-1,-1,-1
20.20,11.50,-43.81,1660,-5637,5816,-1,-1,-1
20.20,11.47,-43.81,1653,-5625,5826,0,1,0
20.19,11.44,-43.80,1608,-5597,5871,-1,0,0
20.18,11.44,-43.83,1611,-5609,5845,-1,-1,-1
20.19,11.45,-43.84,1624,-5623,5853,-1,-1,-1
20.19,11.46,-43.86,1636,-5664,5810,0,0,-1
20.20,11.45,-43.85,1639,-5637,5858,-1,0,-1
20.20,11.45,-43.87,1627,-5637,5844,-1,0,-1
20.21,11.45,-43.88,1639,-5655,5878,-1,0,-1
20.22,11.46,-43.90,1666,-5667,5842,-1,0,-1
20.22,11.44,-43.89,1644,-5627,5835,0,1,0
20.22,11.43,-43.89,1658,-5628,5862,-1,0,0
20.22,11.42,-43.91,1618,-5616,5844,-1,0,0
20.21,11.41,-43.93,1617,-5651,5823,-1,-1,0
20.21,11.41,-43.94,1630,-5638,5860,-1,0,-1
20.21,11.40,-43.96,1623,-5640,5862,-1,-1,-1
20.21,11.41,-43.99,1632,-5656,5835,-1,-1,-1
20.21,11.41,-44.00,1604,-5638,5842,-1,-1,0
20.20,11.44,-44.03,1643,-5668,5816,-1,-1,-1
20.20,11.43,-44.04,1632,-5643,5812,-1,0,-1
20.19,11.44,-44.05,1626,-5676,5810,0,-2,0
20.19,11.45,-44.04,1656,-5651,5808,0,-1,0
20.19,11.45,-44.03,1633,-5652,5820,0,-1,-1
20.19,11.46,-44.03,1651,-5687,5798,0,-1,-1
20.19,11.46,-44.00,1647,-5675,5826,0,0,-1
20.20,11.46,-43.98,1635,-5658,5825,1,0,-1
20.20,11.47,-43.94,1633,-5652,5845,1,-1,-1
20.21,11.48,-43.91,1640,-5669,5844,1,-1,-1
20.21,11.48,-43.88,1643,-5651,5833,1,-1,0
20.21,11.49,-43.84,1642,-5623,5845,1,-1,0
20.21,11.50,-43.83,1633,-5612,5845,0,-1,0
20.20,11.50,-43.80,1622,-5624,5845,0,-1,0
20.20,11.51,-43.79,1628,-5630,5842,0,-1,-1
20.20,11.53,-43.77,1643,-5629,5851,0,-1,0
20.20,11.55,-43.76,1645,-5625,5848,0,-1,-1
20.20,11.56,-43.75,1654,-5622,5852,0,-1,-1
20.20,11.58,-43.74,1658,-5618,5849,0,-1,-1
20.20,11.59,-43.74,1664,-5620,5848,0,-1,0
20.20,11.60,-43.73,1676,-5625,5846,0,-1,0
20.20,11.60,-43.71,1669,-5636,5859,0,-1,0
20.19,11.61,-43.70,1657,-5631,5866,0,-1,0
20.19,11.61,-43.69,1645,-5626,5847,0,-1,0
20.19,11.62,-43.67,1650,-5614,5850,0,-1,-1
20.19,11.63,-43.65,1653,-5601,5854,0,-1,0
20.19,11.64,-43.64,1662,-5608,5871,0,-1,-1
20.19,11.65,-43.62,1663,-5602,5870,0,-1,0
20.19,11.65,-43.61,1664,-5603,5859,0,-1,-1
20.19,11.66,-43.60,1661,-5597,5868,0,-1,-1
20.18,11.67,-43.59,1666,-5601,5875,0,-1,0
20.18,11.68,-43.59,1672,-5597,5875,0,-1,0
20.18,11.68,-43.58,1673,-5591,5876,0,-1,0
20.18,11.69,-43.57,1674,-5593,5874,0,-1,0
20.17,11.69,-43.57,1671,-5600,5875,0,-1,0
20.17,11.70,-43.56,1667,-5609,5858,0,-1,0
20.17,11.71,-43.56,1666,-5615,5873,0,-1,-1
20.17,11.71,-43.55,1671,-5609,5867,0,-1,-1
20.17,11.71,-43.54,1674,-5606,5871,0,-1,0
20.17,11.72,-43.52,1672,-5598,5870,0,-1,0
20.17,11.72,-43.51,1675,-5584,5863,0,-1,0
20.17,11.72,-43.50,1681,-5583,5865,0,-1,0
20.16,11.73,-43.49,1687,-5586,5872,0,-1,0
20.16,11.73,-43.48,1676,-5589,5886,0,-1,0
20.16,11.72,-43.48,1669,-5591,5890,0,-1,0
20.15,11.73,-43.48,1665,-5592,5884,0,-1,0
20.15,11.73,-43.47,1662,-5595,5884,0,-1,0
20.14,11.73,-43.46,1666,-5591,5873,0,-1,-1
20.14,11.74,-43.46,1670,-5581,5871,0,-1,-1
20.14,11.75,-43.46,1682,-5593,5875,0,-1,-1
20.14,11.75,-43.45,1678,-5595,5870,0,-1,0
20.14,11.76,-43.45,1688,-5608,5879,0,-1,0
20.14,11.75,-43.44,1685,-5593,5881,0,-1,0
20.14,11.75,-43.43,1674,-5590,5878,0,-1,-1
20.14,11.76,-43.42,1681,-5579,5883,0,-1,-1
20.14,11.76,-43.42,1693,-5584,5894,0,0,-1
20.14,11.76,-43.41,1694,-5581,5892,0,0,0
20.13,11.75,-43.39,1692,-5578,5895,0,0,0
20.14,11.76,-43.39,1690,-5584,5897,0,-1,0
20.13,11.75,-43.39,1680,-5582,5891,0,-1,0
20.13,11.75,-43.39,1681,-5580,5896,0,-1,0
20.13,11.75,-43.38,1683,-5577,5894,0,-1,0
20.13,11.75,-43.37,1685,-5572,5883,0,-1,0
20.13,11.76,-43.37,1685,-5574,5887,0,-1,0
20.12,11.75,-43.37,1687,-5586,5883,0,-1,0
20.12,11.75,-43.37,1688,-5586,5889,0,-1,0
20.12,11.76,-43.36,1684,-5577,5882,0,-1,0
20.11,11.75,-43.35,1691,-5575,5889,0,0,-1
20.12,11.75,-43.34,1690,-5566,5895,0,-1,0
20.12,11.76,-43.34,1693,-5572,5900,0,-1,0
20.12,11.76,-43.34,1695,-5573,5895,0,-1,0
20.11,11.76,-43.34,1686,-5574,5896,0,-1,0
20.11,11.76,-43.33,1687,-5577,5898,0,-1,0
20.11,11.75,-43.33,1678,-5576,5884,0,-1,0
20.11,11.75,-43.33,1671,-5577,5891,0,0,0
20.10,11.75,-43.33,1675,-5583,5890,0,-1,-1
20.10,11.75,-43.31,1683,-5566,5909,0,0,0
20.10,11.75,-43.30,1680,-5562,5902,0,0,-1
20.11,11.76,-43.29,1685,-5558,5909,0,-1,0
20.11,11.76,-43.28,1696,-5556,5913,0,-1,0
20.10,11.75,-43.28,1695,-5554,5902,0,0,0
20.10,11.74,-43.27,1687,-5549,5902,-1,0,0
20.10,11.74,-43.28,1682,-5545,5909,-1,0,0
20.09,11.73,-43.28,1678,-5554,5902,-1,-1,0
20.08,11.73,-43.30,1673,-5575,5878,-1,-1,0
20.08,11.73,-43.31,1683,-5590,5880,-1,-1,0
20.08,11.73,-43.31,1676,-5587,5891,0,-1,0
20.08,11.74,-43.31,1687,-5577,5896,-1,-1,-1
20.08,11.74,-43.31,1693,-5583,5886,0,-1,0
20.07,11.75,-43.31,1701,-5585,5880,0,0,0
20.07,11.74,-43.30,1705,-5570,5894,0,0,0
20.07,11.74,-43.28,1700,-5559,5895,0,-1,0
20.07,11.74,-43.27,1693,-5553,5892,0,0,0
20.07,11.73,-43.25,1688,-5549,5902,0,0,0
20.07,11.73,-43.24,1685,-5548,5908,0,-1,0
20.06,11.73,-43.24,1684,-5561,5910,0,-1,0
20.06,11.73,-43.23,1677,-5557,5915,0,-1,0
20.06,11.73,-43.22,1676,-5556,5908,0,-1,-1
20.05,11.74,-43.22,1682,-5549,5914,0,-1,0
20.06,11.74,-43.22,1688,-5551,5906,0,0,0
20.06,11.75,-43.22,1691,-5560,5898,0,-1,0
20.05,11.74,-43.21,1697,-5563,5901,0,0,0
20.05,11.74,-43.20,1684,-5554,5908,0,-1,0
20.05,11.74,-43.19,1680,-5550,5895,0,-1,0
20.05,11.74,-43.18,1689,-5549,5896,0,-1,0
20.05,11.75,-43.19,1697,-5555,5897,0,-1,0
20.05,11.75,-43.18,1694,-5547,5907,0,-1,0
20.05,11.76,-43.17,1698,-5544,5901,0,-1,0
20.05,11.76,-43.16,1697,-5546,5901,0,-1,0
20.04,11.76,-43.15,1697,-5553,5913,0,-1,0
20.03,11.75,-43.15,1690,-5557,5914,0,-1,0
20.04,11.76,-43.15,1692,-5557,5907,0,-1,-1
20.04,11.77,-43.14,1690,-5554,5924,0,-1,-1
20.04,11.77,-43.14,1699,-5555,5922,0,0,-1
20.04,11.77,-43.13,1701,-5544,5926,0,0,0
20.04,11.76,-43.14,1699,-5535,5920,-1,0,-1
20.05,11.76,-43.14,1697,-5540,5909,-1,0,-1
20.05,11.75,-43.15,1696,-5543,5913,-1,0,0
20.05,11.75,-43.16,1693,-5554,5913,-1,0,0
20.04,11.74,-43.16,1687,-5545,5918,-1,0,-1
20.05,11.74,-43.17,1682,-5547,5915,-1,0,-1
20.05,11.73,-43.18,1681,-5542,5913,-1,0,-1
20.06,11.74,-43.18,1687,-5539,5925,-1,0,-1
20.06,11.73,-43.18,1696,-5538,5927,-1,0,0
20.07,11.73,-43.19,1693,-5543,5924,-1,0,-1
20.06,11.72,-43.20,1694,-5553,5929,-1,0,0
20.07,11.72,-43.21,1687,-5571,5915,-1,0,-1
20.07,11.71,-43.21,1675,-5561,5919,-1,0,-1
20.07,11.69,-43.21,1667,-5553,5913,-1,0,-1
20.08,11.70,-43.21,1679,-5550,5905,-1,0,-1
20.09,11.70,-43.22,1692,-5543,5907,-1,0,-1
20.09,11.71,-43.21,1696,-5539,5907,-1,0,-1
20.09,11.70,-43.22,1697,-5542,5913,-1,0,-1
20.10,11.70,-43.23,1700,-5541,5911,-1,0,0
20.10,11.69,-43.23,1693,-5543,5919,-1,0,0
20.10,11.68,-43.25,1686,-5552,5916,-1,0,-1
20.09,11.66,-43.25,1680,-5556,5915,-1,0,-1
20.10,11.66,-43.26,1674,-5561,5907,-1,0,-1
20.11,11.66,-43.28,1678,-5563,5904,-1,0,-1
20.11,11.65,-43.29,1677,-5564,5897,-1,0,-1
20.11,11.64,-43.30,1679,-5566,5898,-1,0,-1
20.11,11.63,-43.31,1668,-5568,5895,-1,0,-1
20.12,11.62,-43.32,1673,-5567,5899,-1,0,-1
20.12,11.61,-43.33,1671,-5563,5905,-1,0,-1
20.12,11.60,-43.34,1671,-5555,5904,-1,0,0
20.12,11.59,-43.34,1666,-5554,5909,-1,0,-1
20.12,11.58,-43.37,1668,-5562,5907,-1,0,0
20.12,11.57,-43.38,1678,-5561,5915,-1,0,-1
20.12,11.55,-43.41,1663,-5567,5922,-2,1,-1
20.13,11.53,-43.44,1669,-5579,5912,-2,1,-1
20.13,11.51,-43.47,1662,-5569,5900,-2,1,-1
20.14,11.49,-43.50,1646,-5578,5897,-2,1,-1
20.14,11.49,-43.55,1652,-5594,5873,-2,0,-1
20.15,11.47,-43.57,1650,-5593,5875,-1,0,-1
20.16,11.46,-43.60,1664,-5588,5897,-2,1,-1
20.16,11.44,-43.63,1650,-5588,5897,-2,0,-1
20.15,11.45,-43.67,1650,-5586,5894,-3,-1,0
20.15,11.45,-43.73,1672,-5617,5863,-2,0,0
20.15,11.43,-43.76,1663,-5604,5868,-2,1,0
20.14,11.41,-43.79,1638,-5613,5865,-2,0,0
20.14,11.41,-43.83,1659,-5625,5851,-2,0,-1
20.15,11.41,-43.86,1651,-5636,5838,-2,0,-1
20.15,11.40,-43.88,1649,-5640,5826,-1,0,-1
20.15,11.39,-43.89,1639,-5631,5854,-1,0,-1
20.15,11.37,-43.91,1633,-5625,5834,-1,0,0
20.14,11.36,-43.93,1638,-5644,5839,-1,0,-1
20.14,11.36,-43.95,1629,-5638,5834,-1,0,0
20.14,11.36,-43.97,1655,-5634,5842,-1,0,-1
20.14,11.35,-43.97,1641,-5639,5834,-1,0,0
20.14,11.36,-43.97,1635,-5636,5835,0,0,-1
20.15,11.35,-43.97,1633,-5630,5834,-1,-1,-1
20.15,11.36,-43.96,1638,-5624,5850,0,-1,0
20.15,11.36,-43.96,1648,-5649,5842,0,0,-1
20.15,11.37,-43.97,1635,-5652,5832,0,0,-1
20.15,11.36,-43.96,1630,-5648,5826,0,-1,-1
20.16,11.37,-43.96,1635,-5645,5839,0,-1,-1
20.16,11.38,-43.95,1640,-5652,5846,0,-1,-1
20.17,11.39,-43.93,1637,-5646,5844,0,-1,0
20.16,11.39,-43.91,1634,-5646,5839,0,-1,-1
20.17,11.40,-43.90,1643,-5643,5844,0,-1,0
20.17,11.41,-43.88,1654,-5636,5841,0,-1,0
20.17,11.42,-43.86,1652,-5629,5845,0,-1,0
20.17,11.43,-43.83,1652,-5618,5864,0,-1,0
20.17,11.43,-43.81,1653,-5615,5864,0,-1,0
20.17,11.44,-43.80,1652,-5610,5866,0,-1,0
20.17,11.45,-43.79,1646,-5611,5865,0,-1,0
20.17,11.45,-43.77,1641,-5610,5876,0,-1,0
20.17,11.46,-43.76,1651,-5603,5879,0,-1,0
20.17,11.46,-43.75,1648,-5602,5880,0,-1,0
20.17,11.47,-43.74,1649,-5608,5874,0,-1,0
20.17,11.48,-43.74,1648,-5621,5869,0,-1,-1
20.18,11.49,-43.72,1646,-5612,5872,0,-1,0
20.18,11.49,-43.71,1657,-5604,5873,0,-1,-1
20.19,11.50,-43.70,1659,-5600,5877,0,-1,-1
20.18,11.51,-43.69,1662,-5601,5877,0,-1,-1
20.19,11.52,-43.68,1672,-5596,5872,0,-1,0
20.19,11.53,-43.67,1675,-5596,5872,0,-1,0
20.19,11.53,-43.67,1674,-5599,5864,0,-1,0
20.18,11.53,-43.66,1667,-5600,5872,0,-1,0
20.18,11.53,-43.65,1660,-5601,5868,0,-1,0
20.18,11.54,-43.64,1658,-5603,5873,0,-1,-1
20.18,11.54,-43.63,1658,-5603,5877,0,-1,-1
20.18,11.55,-43.63,1665,-5600,5877,0,-1,-1
20.18,11.56,-43.62,1663,-5598,5871,0,-1,0
20.19,11.56,-43.61,1668,-5589,5872,0,-1,0
20.18,11.56,-43.60,1677,-5587,5874,0,-1,0
20.19,11.57,-43.59,1671,-5586,5876,0,-1,0
20.19,11.57,-43.59,1674,-5592,5874,0,-1,0
20.18,11.57,-43.59,1670,-5590,5878,0,-1,0
20.19,11.58,-43.59,1673,-5590,5879,0,-1,0
20.18,11.58,-43.58,1670,-5588,5874,0,-1,0
20.18,11.58,-43.57,1666,-5572,5883,0,0,0
20.18,11.57,-43.57,1663,-5574,5886,-1,0,0
20.18,11.57,-43.58,1664,-5585,5893,-1,-1,0
20.17,11.57,-43.59,1663,-5603,5865,-1,-1,0
20.17,11.57,-43.59,1671,-5603,5867,0,-1,0
20.17,11.57,-43.59,1669,-5588,5874,0,0,-1
20.17,11.58,-43.58,1665,-5584,5872,0,-1,-1
20.18,11.59,-43.58,1685,-5577,5873,0,-1,-1
20.18,11.59,-43.57,1703,-5578,5882,0,0,0
20.17,11.59,-43.57,1691,-5577,5870,0,0,0
20.17,11.57,-43.56,1665,-5568,5902,-1,0,0
20.16,11.56,-43.58,1656,-5588,5893,-1,0,0
20.16,11.57,-43.59,1660,-5598,5886,-1,0,-1
20.16,11.57,-43.60,1661,-5601,5884,-1,-1,0
20.15,11.57,-43.61,1658,-5600,5889,-1,-1,0
20.15,11.58,-43.62,1666,-5588,5882,-1,0,0
20.15,11.58,-43.63,1673,-5583,5878,-1,-1,0
20.16,11.59,-43.66,1676,-5584,5883,-1,-1,0
20.15,11.60,-43.67,1682,-5596,5874,-1,-1,-1
20.14,11.58,-43.69,1674,-5592,5873,-1,-1,0
20.14,11.59,-43.70,1681,-5594,5880,-1,0,0
20.14,11.59,-43.73,1678,-5601,5873,-2,-1,0
20.13,11.59,-43.75,1683,-5614,5850,-1,-1,0
20.13,11.59,-43.76,1688,-5580,5880,-2,0,0
20.12,11.59,-43.80,1670,-5611,5860,-1,-1,0
20.12,11.60,-43.82,1687,-5620,5858,-1,-1,0
20.12,11.60,-43.83,1670,-5636,5847,-1,-1,0
20.12,11.60,-43.85,1665,-5612,5820,-1,0,-1
20.11,11.60,-43.85,1669,-5639,5851,-1,-1,0
20.11,11.61,-43.85,1688,-5626,5838,0,0,-1
20.12,11.60,-43.84,1669,-5609,5874,0,0,0
20.11,11.61,-43.84,1681,-5610,5838,0,-1,0
20.11,11.60,-43.83,1687,-5617,5835,0,0,0
20.11,11.59,-43.81,1691,-5619,5848,0,0,0
20.10,11.58,-43.80,1654,-5615,5842,0,0,0
20.10,11.59,-43.78,1666,-5624,5856,0,0,-1
20.11,11.59,-43.76,1663,-5620,5856,0,-1,-1
20.12,11.60,-43.73,1671,-5600,5862,0,-1,-1
20.13,11.61,-43.71,1664,-5605,5860,0,-1,-1
20.12,11.61,-43.69,1678,-5597,5868,0,-1,0
20.12,11.62,-43.67,1676,-5586,5873,0,-1,0
20.13,11.64,-43.65,1686,-5581,5883,0,-1,0
20.13,11.64,-43.64,1692,-5597,5866,0,-1,0
20.13,11.65,-43.62,1690,-5612,5871,1,-1,0
20.12,11.66,-43.59,1693,-5604,5883,1,-1,0
20.13,11.66,-43.56,1686,-5602,5874,0,-1,-1
20.14,11.67,-43.54,1696,-5593,5867,1,-1,0
20.14,11.67,-43.51,1691,-5583,5862,1,0,0
20.13,11.66,-43.48,1677,-5567,5870,0,0,0
20.13,11.66,-43.46,1671,-5575,5886,0,-1,0
20.13,11.67,-43.44,1679,-5566,5900,0,-1,0
20.13,11.66,-43.43,1666,-5563,5898,0,-1,-1
20.13,11.67,-43.41,1665,-5565,5900,0,-1,-1
20.14,11.68,-43.40,1676,-5562,5899,0,-1,-1
20.14,11.69,-43.39,1695,-5554,5897,0,-1,-1
20.15,11.69,-43.37,1707,-5557,5899,0,0,-1
20.15,11.70,-43.36,1706,-5553,5913,0,-1,0
20.14,11.70,-43.36,1708,-5567,5906,-1,-1,0
20.14,11.70,-43.37,1705,-5581,5915,0,-1,0
20.13,11.70,-43.36,1691,-5585,5895,0,-1,0
20.13,11.70,-43.35,1679,-5583,5889,0,-1,0
20.14,11.71,-43.34,1678,-5574,5891,0,-1,-1
20.14,11.72,-43.33,1692,-5565,5899,0,-1,0
20.14,11.72,-43.31,1706,-5564,5900,0,-1,0
20.14,11.72,-43.30,1695,-5553,5900,0,-1,0
20.14,11.72,-43.29,1701,-5550,5893,0,-1,0
20.14,11.72,-43.28,1703,-5547,5901,0,-1,0
20.13,11.72,-43.27,1698,-5549,5904,0,0,0
20.13,11.72,-43.26,1691,-5546,5916,0,0,0
20.13,11.72,-43.25,1687,-5539,5935,-1,-1,0
20.13,11.72,-43.26,1697,-5547,5940,-1,-1,-1
20.14,11.72,-43.27,1699,-5551,5918,-1,0,-1
20.14,11.72,-43.29,1694,-5560,5906,-1,0,-1
20.14,11.71,-43.30,1683,-5567,5896,-1,0,-1
20.15,11.71,-43.30,1683,-5566,5893,-1,0,0
20.15,11.70,-43.30,1684,-5552,5890,0,0,-1
20.15,11.70,-43.29,1682,-5542,5900,-1,0,-1
20.16,11.70,-43.30,1696,-5557,5900,0,0,-1
20.16,11.69,-43.30,1693,-5548,5909,-1,0,-1
20.16,11.68,-43.30,1692,-5553,5911,-1,0,-1
20.17,11.68,-43.30,1690,-5546,5920,-1,0,-1
20.18,11.67,-43.31,1690,-5550,5925,-1,0,-1
20.18,11.67,-43.32,1686,-5555,5919,-1,0,-1
20.18,11.66,-43.34,1690,-5552,5912,-1,0,-1
20.19,11.66,-43.35,1693,-5562,5895,-1,0,-1
20.19,11.65,-43.36,1689,-5571,5902,-1,0,-1
20.20,11.65,-43.37,1688,-5574,5898,-1,0,-1
20.20,11.64,-43.37,1680,-5570,5893,-1,0,-1
20.20,11.64,-43.39,1684,-5571,5891,-1,0,-1
20.21,11.63,-43.40,1689,-5568,5897,-1,0,-1
20.21,11.62,-43.41,1684,-5567,5894,-1,0,-1
20.22,11.62,-43.41,1685,-5565,5899,-1,0,-1
20.22,11.62,-43.42,1691,-5572,5904,-1,0,-1
20.22,11.61,-43.43,1688,-5572,5896,-1,0,-1
20.23,11.59,-43.43,1676,-5574,5893,-1,0,0
20.23,11.59,-43.45,1669,-5568,5892,-1,0,-1
20.23,11.58,-43.46,1668,-5573,5879,-1,0,-1
20.23,11.57,-43.47,1669,-5576,5881,-1,0,-1
20.24,11.57,-43.48,1672,-5576,5883,-1,0,-1
20.24,11.56,-43.48,1667,-5568,5882,-1,0,-1
20.24,11.57,-43.49,1680,-5571,5887,-1,0,-1
20.25,11.56,-43.51,1682,-5574,5883,-1,0,-1
20.26,11.56,-43.52,1681,-5581,5873,-1,0,-1
20.26,11.56,-43.53,1676,-5579,5882,-1,0,-1
20.26,11.55,-43.54,1671,-5590,5880,-1,0,-1
20.26,11.54,-43.55,1660,-5589,5874,-1,0,-1
20.26,11.53,-43.56,1652,-5602,5875,-1,0,-1
20.26,11.52,-43.57,1657,-5591,5873,-1,0,-1
20.27,11.51,-43.58,1659,-5595,5878,-1,0,-1
20.27,11.51,-43.58,1669,-5593,5875,-1,0,-1
20.28,11.51,-43.59,1666,-5587,5873,-1,0,-1
20.28,11.50,-43.60,1675,-5581,5887,-1,0,-1
20.28,11.49,-43.62,1673,-5590,5881,-1,0,-1
20.29,11.49,-43.62,1662,-5597,5881,-1,0,-1
20.29,11.48,-43.63,1661,-5592,5875,-1,0,0
20.28,11.46,-43.64,1660,-5591,5867,-1,0,0
20.29,11.46,-43.65,1660,-5589,5870,-1,0,-1
20.29,11.45,-43.67,1653,-5591,5871,-1,0,-1
20.29,11.44,-43.67,1647,-5597,5878,-1,0,-1
20.29,11.44,-43.69,1642,-5604,5872,-1,0,-1
20.29,11.44,-43.70,1642,-5609,5872,-1,0,-1
20.29,11.44,-43.71,1647,-5611,5868,-1,0,-1
20.30,11.43,-43.71,1639,-5607,5859,-1,0,-1
20.30,11.43,-43.71,1655,-5609,5866,-1,0,-1
20.30,11.42,-43.72,1652,-5601,5858,-1,0,-1
20.30,11.41,-43.71,1649,-5603,5881,-1,0,-1
20.30,11.40,-43.72,1651,-5599,5886,-1,0,-1
20.31,11.40,-43.73,1644,-5595,5890,-1,0,-1
20.31,11.39,-43.74,1645,-5592,5889,-1,0,0
20.31,11.39,-43.76,1639,-5596,5917,-2,-1,0
20.30,11.41,-43.82,1641,-5614,5870,-2,-1,0
20.30,11.41,-43.85,1651,-5606,5866,-2,0,0
20.30,11.42,-43.88,1647,-5620,5862,-1,-1,-1
20.30,11.42,-43.91,1646,-5615,5868,-2,0,-1
20.30,11.43,-43.94,1649,-5607,5851,-2,-1,0
20.29,11.43,-43.97,1639,-5632,5836,-2,-1,-1
20.29,11.45,-44.00,1651,-5623,5811,-1,-1,0
20.29,11.44,-44.02,1642,-5638,5852,-2,-1,0
20.28,11.45,-44.05,1645,-5663,5820,-1,-1,0
20.28,11.46,-44.07,1664,-5657,5819,-1,0,0
20.28,11.46,-44.07,1669,-5665,5853,0,0,0
20.27,11.46,-44.07,1656,-5668,5819,-1,-1,0
20.27,11.46,-44.07,1668,-5656,5798,0,0,0
20.27,11.46,-44.05,1653,-5652,5820,0,-1,-1
20.27,11.46,-44.04,1657,-5646,5811,0,0,0
20.27,11.47,-44.01,1653,-5655,5844,1,-1,-1
20.28,11.47,-43.99,1659,-5644,5834,0,-1,-1
20.28,11.48,-43.96,1650,-5631,5840,0,-1,-1
20.29,11.49,-43.94,1659,-5621,5841,0,-1,-1
20.30,11.50,-43.92,1667,-5616,5853,0,-1,-1
20.30,11.50,-43.90,1659,-5612,5841,0,-1,0
20.30,11.51,-43.88,1656,-5612,5863,0,-1,0
20.30,11.52,-43.86,1661,-5610,5868,0,-1,0
20.30,11.52,-43.84,1659,-5618,5866,0,-1,0
20.30,11.52,-43.83,1646,-5630,5847,0,-1,-1
20.30,11.53,-43.82,1647,-5626,5849,0,-1,-1
20.30,11.55,-43.80,1663,-5619,5852,0,-1,-1
20.31,11.56,-43.79,1675,-5617,5871,0,-1,-1
20.31,11.57,-43.78,1681,-5619,5864,0,-1,-1
20.31,11.58,-43.76,1686,-5610,5862,0,-1,0
20.31,11.58,-43.75,1684,-5599,5866,0,-1,0
20.31,11.58,-43.73,1682,-5601,5860,0,-1,0
20.30,11.58,-43.72,1673,-5608,5862,0,-1,0
20.30,11.58,-43.71,1674,-5597,5866,0,-1,0
20.30,11.58,-43.69,1660,-5603,5873,0,-1,0
20.30,11.59,-43.69,1664,-5605,5875,0,-1,0
20.30,11.59,-43.69,1663,-5602,5866,0,-1,-1
20.31,11.59,-43.68,1669,-5596,5867,0,0,0
20.31,11.60,-43.67,1669,-5601,5868,0,-1,-1
20.31,11.60,-43.66,1665,-5592,5875,0,-1,0
20.31,11.60,-43.66,1667,-5591,5864,0,-1,-1
20.31,11.61,-43.65,1670,-5593,5864,0,-1,0
20.31,11.62,-43.65,1675,-5591,5868,0,-1,0
20.31,11.62,-43.64,1689,-5591,5871,0,0,0
20.30,11.62,-43.64,1679,-5593,5874,0,0,0
20.31,11.61,-43.63,1685,-5594,5885,-1,0,0
20.30,11.61,-43.63,1675,-5596,5881,-1,0,0
20.30,11.61,-43.63,1671,-5602,5879,0,-1,0
20.30,11.61,-43.63,1677,-5599,5879,0,-1,-1
20.30,11.61,-43.63,1680,-5596,5875,0,-1,-1
20.31,11.62,-43.63,1685,-5599,5877,0,-1,-1
20.30,11.63,-43.63,1682,-5595,5875,0,-1,0
20.30,11.63,-43.62,1684,-5603,5878,0,-1,0
20.30,11.64,-43.61,1677,-5599,5884,0,-1,0
20.29,11.64,-43.61,1681,-5593,5885,0,-1,0
20.30,11.64,-43.61,1684,-5596,5888,0,-1,0
20.30,11.65,-43.60,1692,-5591,5884,0,-1,0
20.30,11.66,-43.59,1696,-5591,5878,0,-1,0
20.30,11.65,-43.59,1694,-5591,5874,0,-1,0
20.30,11.66,-43.58,1689,-5595,5878,0,-1,0
20.30,11.66,-43.58,1690,-5588,5867,0,-1,0
20.29,11.66,-43.57,1679,-5582,5872,0,-1,0
20.29,11.66,-43.57,1684,-5580,5877,0,-1,0
20.29,11.67,-43.57,1684,-5591,5881,0,-1,0
20.29,11.68,-43.56,1696,-5587,5882,0,-1,0
20.29,11.68,-43.56,1688,-5577,5870,0,-1,-1
20.29,11.69,-43.55,1693,-5572,5878,0,-1,0
20.30,11.70,-43.55,1696,-5575,5890,0,-1,0
20.29,11.70,-43.54,1697,-5582,5889,0,0,0
20.29,11.70,-43.53,1689,-5580,5881,0,-1,0
20.29,11.70,-43.53,1690,-5579,5883,0,-1,0
20.29,11.70,-43.52,1688,-5585,5883,0,-1,0
20.29,11.70,-43.51,1690,-5585,5886,0,0,-1
20.29,11.70,-43.49,1686,-5589,5884,0,0,-1
20.30,11.70,-43.48,1688,-5582,5889,0,0,0
20.30,11.70,-43.47,1690,-5576,5884,0,-1,0
20.29,11.70,-43.47,1696,-5571,5886,0,-1,0
20.29,11.70,-43.46,1693,-5566,5893,0,0,0
20.29,11.70,-43.46,1687,-5570,5888,0,-1,0
20.29,11.70,-43.46,1687,-5571,5886,0,-1,0
20.29,11.70,-43.45,1693,-5572,5895,0,-1,0
20.29,11.71,-43.45,1693,-5577,5888,0,-1,-1
20.29,11.72,-43.45,1692,-5583,5893,0,-1,-1
20.29,11.72,-43.45,1697,-5585,5892,0,-1,0
20.29,11.72,-43.44,1694,-5586,5902,0,-1,0
20.29,11.72,-43.43,1685,-5579,5897,0,0,0
20.29,11.72,-43.42,1692,-5570,5885,0,0,0
20.29,11.72,-43.41,1691,-5571,5882,0,-1,0
20.29,11.72,-43.39,1688,-5560,5877,0,-1,0
20.29,11.72,-43.39,1690,-5567,5892,0,-1,0
20.28,11.72,-43.37,1691,-5563,5910,0,-1,0
20.28,11.72,-43.36,1685,-5561,5911,0,-1,0
20.28,11.72,-43.35,1689,-5568,5901,0,-1,-1
20.28,11.74,-43.35,1688,-5571,5892,0,-1,0
20.28,11.74,-43.35,1683,-5569,5893,0,-1,0
20.28,11.74,-43.34,1688,-5556,5900,0,-1,0
20.28,11.74,-43.33,1699,-5552,5907,0,0,0
20.28,11.73,-43.33,1695,-5555,5911,0,0,0
20.28,11.73,-43.33,1687,-5560,5912,-1,0,-1
20.28,11.72,-43.33,1692,-5560,5923,-1,0,0
20.28,11.72,-43.35,1703,-5562,5922,-1,0,-1
20.28,11.69,-43.37,1693,-5559,5923,-1,0,-1
20.28,11.68,-43.38,1682,-5563,5925,-2,1,-1
20.28,11.66,-43.41,1678,-5560,5917,-2,1,-1
20.29,11.63,-43.45,1701,-5561,5935,-3,1,-1
20.29,11.62,-43.51,1686,-5577,5892,-2,0,-1
20.29,11.59,-43.55,1685,-5592,5891,-1,1,0
20.29,11.57,-43.58,1683,-5582,5904,-3,0,-1
20.28,11.56,-43.64,1680,-5599,5889,-2,0,0
20.28,11.54,-43.69,1685,-5593,5871,-3,1,0
20.27,11.52,-43.74,1690,-5598,5878,-2,0,0
20.26,11.50,-43.78,1674,-5619,5842,-2,0,0
20.25,11.48,-43.82,1650,-5599,5840,-1,1,0
20.24,11.47,-43.85,1642,-5607,5864,-2,-1,0
20.24,11.47,-43.89,1667,-5634,5880,-2,0,-1
20.23,11.46,-43.93,1659,-5639,5863,-2,0,0
20.22,11.46,-43.96,1675,-5612,5856,-2,0,0
20.22,11.44,-43.99,1650,-5633,5856,-1,0,0
20.22,11.45,-44.03,1643,-5641,5789,-2,-1,-1
20.21,11.43,-44.05,1643,-5610,5795,-1,1,-1
20.22,11.43,-44.05,1643,-5668,5824,-1,-1,0
20.22,11.43,-44.08,1639,-5654,5790,0,0,-1
20.23,11.43,-44.05,1653,-5623,5875,-1,-1,0
20.24,11.43,-44.09,1639,-5665,5772,0,0,-1
20.25,11.44,-44.06,1695,-5634,5848,0,-1,0
20.25,11.44,-44.06,1659,-5632,5790,0,0,-1
20.27,11.43,-44.03,1638,-5616,5852,0,0,-1
20.28,11.44,-44.04,1657,-5611,5835,-1,0,-1
20.29,11.44,-44.04,1660,-5663,5859,0,0,-1
20.29,11.44,-44.03,1659,-5663,5830,0,0,-1
20.30,11.43,-44.02,1631,-5653,5834,0,0,-1
20.31,11.44,-44.01,1629,-5641,5837,0,-1,-1
20.32,11.45,-44.01,1644,-5644,5825,0,-1,-1
20.34,11.46,-43.99,1656,-5642,5835,0,0,-1
20.35,11.47,-43.98,1668,-5633,5843,0,0,-1
20.35,11.46,-43.96,1684,-5619,5848,0,0,0
20.35,11.46,-43.95,1681,-5625,5859,-1,0,0
20.36,11.46,-43.95,1677,-5632,5864,0,0,0
20.36,11.44,-43.94,1662,-5628,5865,0,0,-1
20.36,11.43,-43.94,1645,-5624,5860,0,0,-1
20.36,11.42,-43.93,1630,-5612,5851,-1,0,-1
20.37,11.41,-43.94,1638,-5618,5839,-1,0,-1
20.37,11.41,-43.94,1641,-5619,5847,-1,0,-1
20.38,11.41,-43.95,1650,-5618,5849,-1,0,-1
20.38,11.42,-43.96,1655,-5624,5846,-1,0,-1
20.38,11.42,-43.97,1655,-5639,5841,-1,0,-1
20.38,11.41,-43.98,1649,-5630,5843,-1,0,-1
20.38,11.40,-44.00,1648,-5630,5836,-1,0,-1
20.39,11.40,-44.00,1655,-5637,5838,-1,0,0
20.39,11.40,-44.01,1653,-5642,5827,-1,0,0
20.39,11.40,-44.01,1648,-5643,5843,-1,0,0
20.38,11.39,-44.02,1644,-5644,5828,-1,-1,0
20.38,11.39,-44.02,1641,-5650,5836,-1,0,0
20.38,11.39,-44.02,1641,-5642,5839,0,-1,-1
20.39,11.40,-44.02,1640,-5638,5828,0,-1,-1
20.39,11.41,-44.02,1640,-5638,5824,0,-1,-1
20.40,11.42,-44.01,1648,-5638,5821,0,0,0
20.39,11.41,-44.00,1649,-5640,5835,0,-1,-1
20.40,11.42,-43.99,1644,-5635,5849,0,-1,-1
20.40,11.42,-43.99,1642,-5639,5844,0,-1,-1
20.41,11.43,-43.98,1646,-5642,5846,0,-1,-1
20.41,11.44,-43.97,1650,-5635,5848,0,-1,-1
20.41,11.45,-43.96,1653,-5639,5852,0,-1,-1
20.41,11.45,-43.95,1656,-5636,5840,0,-1,0
20.41,11.46,-43.93,1656,-5630,5849,0,-1,0
20.42,11.46,-43.93,1655,-5628,5857,0,-1,-1
20.42,11.47,-43.92,1650,-5629,5866,0,-1,-1
20.41,11.47,-43.91,1647,-5627,5861,0,-1,0
20.42,11.48,-43.90,1655,-5635,5848,0,-1,-1
20.42,11.48,-43.89,1656,-5629,5849,0,-1,-1
20.42,11.49,-43.89,1660,-5632,5853,0,-1,-1
20.42,11.50,-43.89,1660,-5632,5857,0,-1,-1
20.43,11.50,-43.88,1666,-5634,5854,0,-1,-1
20.43,11.51,-43.87,1665,-5623,5857,0,-1,0
20.43,11.52,-43.86,1664,-5614,5853,0,-1,0
20.43,11.52,-43.85,1661,-5609,5845,0,-1,0
20.43,11.52,-43.85,1658,-5615,5846,0,-1,0
20.43,11.53,-43.84,1665,-5615,5843,0,-1,0
20.43,11.54,-43.84,1672,-5617,5848,0,0,0
20.43,11.54,-43.83,1679,-5621,5853,0,-1,-1
20.44,11.55,-43.82,1679,-5611,5861,0,-1,0
20.44,11.55,-43.81,1672,-5604,5856,0,-1,-1
20.43,11.55,-43.80,1672,-5595,5853,0,-1,-1
20.44,11.56,-43.80,1679,-5595,5852,0,-1,0
20.44,11.57,-43.79,1677,-5607,5857,0,-1,0
20.44,11.57,-43.79,1664,-5610,5851,0,-1,0
20.44,11.57,-43.78,1667,-5614,5862,0,-1,0
20.43,11.57,-43.77,1660,-5605,5860,0,-1,0
20.44,11.58,-43.76,1663,-5605,5854,0,-1,-1
20.44,11.58,-43.76,1671,-5597,5860,0,-1,0
20.44,11.59,-43.75,1671,-5602,5863,0,-1,0
20.44,11.59,-43.74,1674,-5603,5871,0,-1,0
20.44,11.59,-43.73,1680,-5600,5859,0,-1,0
20.44,11.60,-43.73,1674,-5607,5857,0,-1,0
20.44,11.60,-43.72,1680,-5603,5868,0,-1,0
20.44,11.60,-43.71,1682,-5599,5867,0,-1,0
20.44,11.61,-43.71,1679,-5598,5871,0,-1,0
20.43,11.61,-43.71,1673,-5605,5872,0,-1,0
20.43,11.61,-43.70,1673,-5608,5872,0,-1,0
20.43,11.61,-43.69,1669,-5597,5870,0,-1,0
20.43,11.61,-43.69,1670,-5602,5878,0,-1,0
20.43,11.62,-43.69,1684,-5610,5863,0,0,0
20.43,11.63,-43.68,1684,-5607,5858,0,-1,0
20.43,11.63,-43.68,1689,-5609,5861,0,-1,0
20.43,11.63,-43.66,1689,-5595,5863,0,-1,0
20.43,11.64,-43.65,1681,-5593,5862,0,-1,0
20.43,11.64,-43.64,1690,-5592,5864,0,-1,0
20.43,11.65,-43.64,1683,-5592,5871,0,-1,0
20.43,11.64,-43.64,1687,-5600,5865,0,-1,0
20.43,11.65,-43.63,1679,-5600,5871,0,-1,0
20.42,11.65,-43.62,1686,-5587,5872,0,-1,0
20.43,11.65,-43.61,1685,-5586,5884,0,-1,0
20.43,11.66,-43.61,1684,-5590,5883,0,-1,-1
20.43,11.66,-43.60,1687,-5591,5874,0,-1,0
20.43,11.67,-43.60,1691,-5591,5880,0,-1,0
20.43,11.67,-43.59,1691,-5598,5886,0,-1,0
20.43,11.67,-43.59,1687,-5600,5875,0,-1,0
20.43,11.68,-43.58,1691,-5594,5868,0,-1,0
20.43,11.68,-43.57,1691,-5586,5873,0,-1,0
20.43,11.68,-43.56,1692,-5579,5874,0,-1,0
20.43,11.69,-43.56,1689,-5582,5872,0,-1,0
20.43,11.69,-43.56,1696,-5589,5883,0,-1,0
20.43,11.70,-43.55,1690,-5586,5878,0,-1,0
20.43,11.70,-43.55,1691,-5583,5881,0,-1,0
20.44,11.71,-43.53,1697,-5575,5881,0,-1,0
20.43,11.71,-43.52,1694,-5567,5883,0,-1,0
20.43,11.71,-43.52,1688,-5578,5880,0,-1,0
20.42,11.70,-43.52,1677,-5581,5886,0,0,0
20.43,11.71,-43.50,1678,-5574,5887,0,-1,-1
20.43,11.72,-43.50,1688,-5575,5882,0,-1,0
20.43,11.72,-43.49,1701,-5570,5883,0,-1,0
20.43,11.72,-43.49,1700,-5562,5868,0,0,-1
20.44,11.73,-43.47,1712,-5575,5873,0,-1,0
20.43,11.73,-43.47,1705,-5567,5875,0,0,0
20.43,11.73,-43.46,1693,-5580,5884,0,-1,0
20.43,11.73,-43.45,1700,-5591,5893,0,-1,0
20.43,11.73,-43.45,1698,-5593,5889,0,-1,0
20.43,11.73,-43.44,1694,-5585,5886,0,0,-1
20.43,11.74,-43.43,1688,-5575,5878,0,-1,-1
20.43,11.74,-43.42,1693,-5575,5875,0,-1,0
20.43,11.74,-43.41,1698,-5573,5881,0,0,0
20.43,11.74,-43.38,1697,-5559,5884,0,0,0
20.44,11.75,-43.37,1698,-5563,5902,0,-1,0
20.43,11.75,-43.36,1703,-5563,5895,0,-1,0
20.43,11.75,-43.34,1702,-5559,5895,0,-1,0
20.43,11.75,-43.33,1703,-5554,5894,0,-1,0
20.42,11.76,-43.32,1702,-5550,5892,0,-1,0
20.42,11.76,-43.31,1704,-5549,5889,0,-1,0
20.41,11.75,-43.31,1693,-5556,5886,0,-1,0
20.41,11.76,-43.31,1698,-5564,5906,0,-1,0
20.41,11.76,-43.31,1697,-5568,5909,0,-1,0
20.41,11.76,-43.31,1703,-5567,5902,-1,0,0
20.41,11.75,-43.31,1704,-5566,5898,-1,0,-1
20.41,11.75,-43.31,1701,-5562,5890,-1,0,-1
20.42,11.74,-43.32,1699,-5550,5891,-1,0,-1
20.42,11.73,-43.32,1697,-5541,5902,-1,0,0
20.42,11.73,-43.32,1698,-5543,5915,-1,0,-1
20.42,11.72,-43.33,1698,-5547,5916,-1,0,-1
20.43,11.72,-43.34,1701,-5555,5924,-1,0,-1
20.43,11.71,-43.35,1691,-5556,5917,-1,0,-1
20.44,11.70,-43.36,1683,-5560,5900,-1,0,-1
20.45,11.70,-43.37,1687,-5557,5898,-1,0,-1
20.45,11.69,-43.38,1682,-5560,5906,-1,0,-1
20.45,11.69,-43.39,1689,-5559,5897,-1,0,-1
20.45,11.68,-43.41,1694,-5566,5890,-1,0,-1
20.46,11.67,-43.42,1694,-5563,5891,-1,0,0
20.46,11.66,-43.42,1687,-5564,5896,-1,0,-1
20.46,11.65,-43.43,1684,-5567,5889,-1,0,-1
20.47,11.63,-43.44,1679,-5569,5896,-1,0,-1
20.47,11.63,-43.45,1685,-5567,5895,-1,0,-1
20.47,11.62,-43.47,1684,-5571,5894,-1,0,-1
20.48,11.61,-43.48,1685,-5579,5896,-1,0,-1
20.48,11.61,-43.49,1681,-5581,5899,-1,0,-1
20.48,11.59,-43.51,1671,-5581,5887,-1,0,-1
20.49,11.59,-43.52,1674,-5583,5888,-1,0,-1
20.49,11.58,-43.54,1680,-5589,5900,-1,0,-1
20.49,11.57,-43.55,1670,-5589,5894,-1,0,-1
20.50,11.56,-43.55,1669,-5581,5889,-1,0,-1
20.50,11.55,-43.57,1675,-5579,5882,-1,0,0
20.50,11.54,-43.59,1671,-5579,5861,-1,0,0
20.50,11.53,-43.60,1661,-5586,5861,-1,0,-1
20.51,11.52,-43.61,1668,-5596,5881,-1,0,-1
20.51,11.50,-43.62,1661,-5587,5882,-1,0,-1
20.51,11.50,-43.64,1661,-5584,5885,-1,0,-1
20.52,11.49,-43.65,1669,-5592,5873,-1,0,-1
20.52,11.49,-43.67,1676,-5600,5857,-1,0,-1
20.52,11.48,-43.68,1667,-5598,5870,-1,0,0
20.52,11.47,-43.69,1663,-5601,5868,-1,0,0
20.52,11.45,-43.71,1657,-5612,5858,-1,0,-1
20.53,11.45,-43.73,1651,-5619,5859,-1,0,-1
20.53,11.43,-43.74,1643,-5616,5862,-1,0,-1
20.53,11.43,-43.75,1642,-5609,5861,-1,0,-1
20.54,11.42,-43.76,1648,-5594,5870,-1,0,-1
20.54,11.42,-43.76,1646,-5595,5861,-1,0,-1
20.54,11.41,-43.78,1654,-5607,5864,-1,0,-1
20.55,11.40,-43.78,1664,-5608,5871,-1,0,0
20.55,11.39,-43.79,1655,-5602,5875,-1,0,0
20.55,11.38,-43.80,1639,-5602,5872,-1,0,0
20.55,11.37,-43.81,1630,-5613,5864,-1,0,-1
20.55,11.37,-43.84,1634,-5614,5852,-1,0,-1
20.55,11.36,-43.84,1633,-5607,5877,-1,-1,0
20.54,11.38,-43.89,1632,-5623,5849,-2,-1,-1
20.54,11.38,-43.90,1653,-5632,5844,-1,0,0
20.54,11.37,-43.91,1633,-5633,5861,-1,0,-1
20.54,11.37,-43.92,1639,-5634,5839,-1,0,-1
20.55,11.38,-43.93,1639,-5631,5848,-1,-1,-1
20.55,11.38,-43.93,1644,-5638,5847,0,0,0
20.55,11.38,-43.93,1636,-5629,5841,0,0,0
20.55,11.38,-43.92,1651,-5615,5855,-1,-1,-1
20.55,11.38,-43.92,1645,-5621,5860,-1,0,0
20.54,11.38,-43.93,1657,-5649,5856,-1,-1,0
20.54,11.38,-43.93,1643,-5653,5815,0,0,0
20.53,11.37,-43.94,1617,-5589,5855,-1,-2,0
20.52,11.40,-43.95,1629,-5589,5886,-1,-3,-1
20.52,11.43,-43.97,1654,-5624,5844,-1,-1,-1
20.55,11.45,-43.97,1675,-5648,5827,0,0,-1
20.56,11.45,-43.96,1686,-5660,5838,0,0,-1
20.56,11.45,-43.95,1674,-5648,5838,0,0,0
20.56,11.44,-43.93,1651,-5621,5853,0,-1,0
20.55,11.45,-43.92,1659,-5625,5847,0,-1,0
20.54,11.45,-43.92,1621,-5630,5820,0,-1,0
20.54,11.46,-43.90,1642,-5620,5863,0,-2,0
20.55,11.49,-43.90,1657,-5644,5872,0,-1,-1
20.56,11.49,-43.87,1659,-5618,5880,0,0,-1
20.56,11.49,-43.86,1651,-5602,5859,0,0,-1
20.57,11.51,-43.86,1667,-5606,5847,0,-1,-1
20.57,11.50,-43.85,1667,-5613,5854,0,0,0
20.57,11.50,-43.85,1666,-5616,5861,-1,0,0
20.56,11.50,-43.87,1654,-5618,5861,-1,-1,0
20.56,11.52,-43.88,1674,-5625,5858,-1,-1,0
20.56,11.51,-43.88,1654,-5613,5862,-1,0,0
20.57,11.51,-43.88,1659,-5623,5850,-1,-1,-1
20.57,11.52,-43.90,1645,-5604,5840,-1,-1,0
20.56,11.52,-43.92,1655,-5620,5856,-1,-1,-1
20.56,11.53,-43.93,1678,-5635,5846,-1,-1,0
20.56,11.53,-43.94,1663,-5639,5843,-1,-1,0
20.56,11.53,-43.94,1659,-5616,5851,-1,-1,0
20.56,11.54,-43.96,1657,-5619,5842,-1,-1,-1
20.56,11.55,-43.97,1676,-5620,5856,-1,-1,-1
20.56,11.55,-43.98,1670,-5638,5837,-1,0,0
20.56,11.56,-43.98,1681,-5634,5837,-1,-1,0
20.56,11.56,-43.98,1674,-5644,5833,0,-1,0
20.55,11.55,-43.97,1668,-5634,5829,0,-1,0
20.55,11.54,-43.97,1660,-5635,5847,0,0,-1
20.55,11.54,-43.97,1662,-5637,5858,-1,-1,0
20.55,11.55,-43.96,1676,-5637,5828,0,-1,0
20.56,11.55,-43.93,1661,-5606,5849,0,-1,-1
20.56,11.56,-43.93,1667,-5619,5841,0,-1,-1
20.57,11.56,-43.93,1687,-5610,5866,0,0,0
20.57,11.56,-43.92,1682,-5601,5864,-1,0,-1
20.56,11.56,-43.92,1681,-5605,5867,0,-1,0
20.56,11.57,-43.93,1666,-5612,5850,-1,-1,0
20.56,11.56,-43.93,1676,-5608,5840,-1,0,-1
20.56,11.56,-43.93,1649,-5619,5853,-1,-1,0
20.55,11.57,-43.95,1668,-5636,5845,-1,-1,-1
20.56,11.57,-43.94,1662,-5624,5847,-1,-1,-1
20.55,11.58,-43.95,1670,-5632,5831,0,-1,0
20.55,11.59,-43.94,1671,-5642,5828,0,-1,0
20.55,11.59,-43.93,1680,-5645,5823,0,0,0
20.55,11.59,-43.92,1681,-5634,5811,0,0,0
20.55,11.58,-43.89,1673,-5637,5829,0,-1,-1
20.55,11.59,-43.86,1681,-5631,5838,1,0,0
20.56,11.59,-43.83,1685,-5622,5860,0,-1,0
20.55,11.59,-43.81,1675,-5612,5857,0,-1,0
20.55,11.59,-43.78,1670,-5594,5869,0,0,0
20.55,11.59,-43.76,1664,-5592,5865,0,-1,-1
20.55,11.60,-43.74,1667,-5600,5880,0,-1,0
20.55,11.60,-43.73,1664,-5602,5881,0,-1,0
20.55,11.60,-43.73,1662,-5610,5864,0,-1,0
20.55,11.61,-43.72,1674,-5609,5861,0,-1,-1
20.55,11.62,-43.72,1680,-5598,5857,0,0,0
20.55,11.61,-43.71,1664,-5580,5878,-1,-1,0
20.54,11.63,-43.72,1682,-5597,5873,-1,-1,0
20.55,11.64,-43.72,1694,-5602,5875,0,-1,0
20.55,11.64,-43.71,1687,-5594,5867,0,0,0
20.54,11.63,-43.72,1671,-5598,5862,0,-1,0
20.54,11.64,-43.71,1690,-5607,5869,0,-1,0
20.54,11.64,-43.71,1685,-5612,5877,0,0,0
20.54,11.65,-43.71,1686,-5622,5862,0,-1,0
20.54,11.65,-43.71,1691,-5614,5863,0,-1,0
20.54,11.66,-43.70,1689,-5609,5863,0,-1,0
20.54,11.66,-43.68,1682,-5604,5858,0,0,0
20.53,11.65,-43.67,1685,-5598,5850,0,0,0
20.53,11.65,-43.66,1673,-5595,5853,0,-1,0
20.53,11.65,-43.64,1675,-5602,5872,0,-1,0
20.53,11.65,-43.63,1675,-5602,5878,0,-1,0
20.53,11.66,-43.61,1679,-5589,5881,0,-1,0
20.53,11.67,-43.60,1684,-5576,5882,0,-1,0
20.53,11.67,-43.59,1687,-5573,5878,0,-1,0
20.53,11.68,-43.57,1696,-5572,5868,0,0,0
20.54,11.68,-43.55,1699,-5587,5894,0,0,0
20.53,11.68,-43.54,1694,-5595,5917,0,-1,0
20.53,11.68,-43.53,1682,-5599,5893,0,0,0
20.53,11.68,-43.53,1671,-5597,5881,0,-1,-1
20.53,11.69,-43.53,1682,-5590,5874,0,-1,0
20.54,11.70,-43.51,1690,-5583,5879,0,-1,-1
20.54,11.71,-43.50,1694,-5574,5877,0,-1,0
20.54,11.71,-43.49,1701,-5574,5890,0,-1,0
20.54,11.70,-43.47,1707,-5567,5898,0,0,0
20.54,11.71,-43.46,1698,-5571,5895,0,-1,0
20.53,11.70,-43.45,1699,-5567,5908,0,0,0
20.53,11.70,-43.44,1688,-5568,5908,0,-1,0
20.53,11.70,-43.44,1683,-5570,5900,0,-1,0
20.52,11.71,-43.43,1686,-5571,5891,0,-1,0
20.52,11.71,-43.43,1697,-5578,5896,0,-1,0
20.52,11.72,-43.43,1696,-5581,5880,0,-1,0
20.52,11.72,-43.43,1699,-5577,5882,0,-1,0
20.52,11.73,-43.43,1693,-5589,5877,0,-1,0
20.52,11.73,-43.42,1697,-5583,5877,0,-1,0
20.52,11.73,-43.41,1696,-5577,5877,0,0,0
20.52,11.73,-43.40,1695,-5575,5887,0,-1,0
20.52,11.73,-43.38,1704,-5571,5887,0,0,0
20.52,11.73,-43.36,1700,-5563,5895,0,-1,0
20.52,11.73,-43.36,1696,-5555,5895,0,-1,0
20.51,11.73,-43.35,1698,-5554,5897,0,-1,0
20.51,11.74,-43.36,1698,-5563,5904,-1,-1,0
20.51,11.74,-43.36,1696,-5570,5909,0,-1,0
20.51,11.74,-43.36,1695,-5575,5899,-1,0,0
20.51,11.73,-43.36,1682,-5574,5883,-1,0,-1
20.52,11.73,-43.36,1689,-5564,5895,-1,0,-1
20.52,11.74,-43.37,1710,-5572,5896,-1,0,-1
20.52,11.73,-43.37,1708,-5568,5891,-1,0,-1
20.53,11.72,-43.37,1699,-5564,5891,-1,0,0
20.53,11.72,-43.37,1702,-5562,5903,-1,0,-1
20.53,11.72,-43.37,1702,-5567,5912,-1,0,-1
20.54,11.71,-43.38,1701,-5570,5899,-1,0,-1
20.55,11.72,-43.38,1703,-5568,5910,-1,0,-1
20.55,11.71,-43.38,1698,-5561,5912,-1,0,-1
20.55,11.70,-43.38,1693,-5546,5906,-1,0,-1
20.55,11.70,-43.39,1694,-5549,5892,-1,0,-1
20.55,11.69,-43.41,1691,-5562,5877,-1,0,-1
20.56,11.69,-43.42,1688,-5566,5886,-1,0,-1
20.57,11.68,-43.42,1688,-5568,5888,-1,0,-1
20.57,11.68,-43.43,1688,-5565,5898,-1,0,-1
20.58,11.68,-43.43,1686,-5562,5895,-1,0,-1
20.58,11.68,-43.44,1699,-5557,5902,-1,0,-1
20.58,11.67,-43.45,1698,-5557,5896,-1,0,-1
20.59,11.66,-43.46,1695,-5565,5905,-1,0,-1
20.60,11.65,-43.47,1692,-5570,5901,-1,0,-1
20.59,11.64,-43.47,1690,-5570,5901,-1,0,-1
20.60,11.63,-43.48,1681,-5569,5896,-1,0,-1
20.60,11.62,-43.49,1676,-5576,5879,-1,0,-1
20.61,11.62,-43.50,1681,-5578,5881,-1,0,-1
20.61,11.61,-43.51,1669,-5579,5882,-1,0,-1
20.62,11.61,-43.51,1672,-5583,5886,-1,0,-1
20.62,11.61,-43.53,1690,-5577,5888,-1,0,-1
20.63,11.60,-43.53,1690,-5579,5884,-1,0,-1
20.64,11.59,-43.54,1691,-5579,5884,-1,0,-1
20.64,11.59,-43.55,1687,-5579,5889,-1,0,-1
20.64,11.57,-43.56,1676,-5584,5890,-1,0,-1
20.64,11.56,-43.58,1679,-5591,5879,-1,0,-1
20.64,11.56,-43.59,1674,-5597,5889,-1,0,-1
20.64,11.54,-43.61,1670,-5598,5879,-1,0,-1
20.65,11.54,-43.62,1668,-5599,5877,-1,0,-1
20.66,11.53,-43.64,1671,-5596,5874,-1,0,-1
20.66,11.52,-43.65,1674,-5596,5870,-1,0,-1
20.66,11.52,-43.65,1673,-5601,5876,-1,0,-1
20.66,11.50,-43.67,1674,-5592,5880,-1,0,-1
20.67,11.49,-43.68,1669,-5594,5876,-1,0,-1
20.67,11.47,-43.69,1663,-5591,5870,-1,0,-1
20.67,11.46,-43.70,1660,-5593,5876,-1,0,-1
20.68,11.44,-43.72,1657,-5587,5891,-2,0,-1
20.68,11.43,-43.75,1648,-5602,5865,-1,0,-1
20.68,11.41,-43.77,1643,-5592,5868,-2,1,-1
20.68,11.40,-43.80,1635,-5594,5880,-2,-1,0
20.67,11.42,-43.86,1647,-5619,5856,-2,-1,-1
20.67,11.40,-43.89,1648,-5628,5863,-1,1,-1
20.68,11.39,-43.91,1643,-5632,5865,-2,0,-1
20.68,11.40,-43.95,1662,-5612,5856,-2,-1,-1
20.69,11.41,-43.98,1650,-5628,5854,-1,0,-1
20.69,11.40,-44.00,1649,-5640,5847,-1,-1,0
20.69,11.41,-44.02,1668,-5633,5819,-1,0,-1
20.69,11.40,-44.03,1655,-5641,5826,-1,-1,0
20.68,11.41,-44.04,1657,-5638,5844,-1,-1,0
20.68,11.41,-44.05,1649,-5642,5831,-1,0,-1
20.68,11.41,-44.06,1652,-5655,5822,0,0,-1
20.69,11.41,-44.05,1658,-5648,5829,-1,0,-1
20.69,11.41,-44.06,1642,-5651,5827,0,0,-1
20.68,11.41,-44.06,1638,-5665,5834,0,-1,-1
20.69,11.42,-44.05,1643,-5657,5842,0,-1,-1
20.69,11.42,-44.04,1651,-5639,5847,0,-1,-1
20.70,11.43,-44.03,1652,-5637,5849,0,-1,0
20.69,11.44,-44.01,1652,-5635,5838,0,-1,0
20.70,11.44,-44.01,1660,-5637,5835,0,0,0
20.70,11.44,-43.99,1659,-5627,5856,0,0,0
20.70,11.44,-43.99,1649,-5634,5851,-1,-1,0
20.69,11.44,-43.98,1642,-5639,5857,0,-1,0
20.70,11.44,-43.98,1634,-5636,5842,0,-1,-1
20.70,11.44,-43.97,1628,-5633,5852,0,0,-1
20.71,11.45,-43.97,1644,-5634,5841,0,-1,-1
20.71,11.47,-43.96,1665,-5620,5851,0,-1,-1
20.72,11.48,-43.95,1672,-5618,5853,0,-1,0
20.71,11.49,-43.95,1682,-5628,5845,0,-1,-1
20.72,11.49,-43.94,1674,-5626,5840,0,0,0
20.72,11.49,-43.93,1662,-5623,5852,0,-1,0
20.72,11.48,-43.91,1648,-5627,5855,0,-1,0
20.71,11.49,-43.90,1657,-5634,5851,0,-1,0
20.72,11.50,-43.89,1654,-5631,5866,0,-1,0
20.72,11.51,-43.88,1666,-5634,5850,0,-1,0
20.72,11.51,-43.88,1664,-5626,5847,0,-1,-1
20.72,11.53,-43.87,1670,-5626,5847,0,-1,-1
20.72,11.54,-43.86,1671,-5624,5849,0,-1,0
20.72,11.54,-43.84,1674,-5629,5854,0,-1,0
20.72,11.54,-43.83,1678,-5623,5849,0,-1,0
20.72,11.55,-43.82,1673,-5616,5847,0,-1,0
20.72,11.55,-43.80,1674,-5608,5856,0,-1,0
20.72,11.56,-43.80,1672,-5602,5871,0,-1,0
20.72,11.57,-43.79,1677,-5602,5860,0,-1,0
20.72,11.57,-43.79,1677,-5621,5847,0,-1,-1
20.72,11.57,-43.78,1679,-5621,5868,0,-1,0
20.72,11.58,-43.76,1659,-5610,5865,0,-1,0
20.72,11.58,-43.76,1660,-5610,5866,0,-1,-1
20.72,11.59,-43.75,1666,-5607,5859,0,-1,-1
20.72,11.60,-43.75,1677,-5609,5862,0,-1,0
20.72,11.61,-43.73,1683,-5605,5871,0,-1,0
20.72,11.62,-43.73,1690,-5606,5864,0,-1,0
20.72,11.62,-43.72,1691,-5599,5854,0,0,0
20.72,11.63,-43.71,1687,-5593,5856,0,-1,0
20.72,11.63,-43.70,1682,-5600,5860,0,-1,0
20.72,11.63,-43.70,1681,-5604,5870,0,-1,0
20.71,11.63,-43.68,1685,-5603,5879,0,-1,-1
20.72,11.65,-43.67,1695,-5603,5881,0,-1,0
20.72,11.65,-43.66,1693,-5605,5879,0,-1,0
20.72,11.65,-43.66,1676,-5599,5875,0,-1,0
20.71,11.64,-43.65,1675,-5594,5880,0,-1,0
20.71,11.65,-43.64,1671,-5596,5875,0,-1,0
20.71,11.65,-43.64,1676,-5598,5878,0,-1,0
20.71,11.65,-43.63,1684,-5597,5878,0,-1,-1
20.71,11.66,-43.63,1693,-5591,5880,0,-1,-1
20.72,11.66,-43.63,1701,-5583,5893,0,0,-1
20.72,11.66,-43.63,1691,-5577,5886,-1,0,0
20.72,11.66,-43.64,1699,-5583,5874,-1,-1,0
20.72,11.66,-43.65,1697,-5589,5873,-1,0,0
20.71,11.65,-43.67,1685,-5607,5869,-1,0,0
20.70,11.63,-43.67,1666,-5601,5880,-1,0,0
20.70,11.63,-43.68,1664,-5610,5880,-1,-1,0
20.69,11.63,-43.69,1668,-5623,5842,0,0,-1
20.70,11.63,-43.68,1658,-5608,5846,0,0,-1
20.70,11.63,-43.67,1672,-5595,5876,-1,-1,-1
20.70,11.64,-43.67,1685,-5585,5879,-1,-1,0
20.70,11.65,-43.67,1709,-5590,5879,0,-1,0
20.70,11.64,-43.67,1712,-5596,5869,0,0,0
20.70,11.64,-43.66,1694,-5580,5866,0,0,0
20.69,11.63,-43.66,1687,-5575,5866,-1,-1,0
20.69,11.63,-43.66,1682,-5587,5881,-1,-1,0
20.69,11.63,-43.66,1674,-5604,5872,-1,0,-1
20.70,11.64,-43.67,1682,-5613,5867,-1,-1,-1
20.70,11.64,-43.67,1683,-5605,5881,-1,-1,0
20.70,11.65,-43.67,1688,-5597,5873,-1,-1,-1
20.69,11.65,-43.68,1694,-5605,5855,0,-1,0
20.70,11.66,-43.67,1695,-5598,5849,0,0,-1
20.71,11.67,-43.66,1702,-5598,5856,0,0,0
20.70,11.66,-43.65,1689,-5586,5863,0,0,0
20.70,11.66,-43.64,1689,-5599,5868,0,-1,0
20.69,11.66,-43.63,1687,-5592,5877,0,0,0
20.70,11.67,-43.62,1680,-5586,5880,0,-1,0
20.69,11.67,-43.61,1685,-5580,5880,0,-1,0
20.69,11.67,-43.61,1685,-5591,5873,0,-1,0
20.68,11.67,-43.60,1677,-5590,5875,0,-1,0
20.69,11.69,-43.59,1687,-5599,5871,0,-1,-1
20.69,11.68,-43.57,1692,-5589,5875,0,0,-1
20.69,11.68,-43.55,1678,-5582,5891,0,-1,-1
20.70,11.68,-43.54,1686,-5587,5880,0,-1,0
20.70,11.69,-43.53,1690,-5584,5884,0,-1,0
20.70,11.69,-43.52,1691,-5579,5879,0,-1,0
20.70,11.70,-43.51,1697,-5583,5877,0,-1,0
20.70,11.70,-43.50,1700,-5578,5877,0,-1,0
20.69,11.70,-43.50,1690,-5571,5886,0,0,0
20.69,11.70,-43.49,1685,-5573,5888,0,-1,0
20.69,11.70,-43.49,1687,-5583,5878,0,0,-1
20.70,11.70,-43.48,1685,-5576,5891,0,-1,0
20.69,11.71,-43.48,1682,-5579,5874,0,-1,0
20.69,11.72,-43.47,1690,-5583,5873,0,-1,0
20.68,11.72,-43.45,1695,-5587,5881,0,-1,0
20.68,11.72,-43.44,1687,-5582,5892,0,0,0
20.68,11.72,-43.43,1681,-5574,5892,0,-1,0
20.68,11.72,-43.42,1683,-5577,5893,0,-1,0
20.68,11.72,-43.42,1683,-5568,5900,0,-1,0
20.67,11.72,-43.41,1689,-5561,5912,0,-1,0
20.67,11.72,-43.40,1696,-5555,5916,0,-1,-1
20.68,11.73,-43.41,1700,-5551,5912,-1,0,-1
20.69,11.74,-43.41,1710,-5554,5900,-1,0,-1
20.68,11.73,-43.42,1710,-5557,5896,-1,0,0
20.69,11.73,-43.43,1708,-5558,5899,-1,0,0
20.69,11.71,-43.44,1689,-5571,5892,-1,0,0
20.69,11.71,-43.45,1687,-5585,5892,-1,0,-1
20.69,11.69,-43.45,1675,-5584,5898,-1,0,-1
20.69,11.69,-43.46,1672,-5587,5890,-1,0,-1
20.71,11.70,-43.46,1689,-5577,5886,-1,0,-1
20.72,11.69,-43.46,1695,-5569,5885,-1,0,-1
20.72,11.69,-43.47,1708,-5563,5876,-1,0,-1
20.73,11.68,-43.47,1708,-5564,5890,-1,0,0
20.73,11.67,-43.48,1699,-5557,5903,-1,0,0
20.73,11.66,-43.49,1689,-5554,5899,-1,0,-1
20.73,11.65,-43.51,1687,-5576,5893,-1,0,-1
20.73,11.64,-43.53,1684,-5590,5882,-1,0,-1
20.74,11.64,-43.54,1677,-5594,5879,-1,0,-1
20.73,11.64,-43.54,1677,-5591,5892,-1,0,-1
20.75,11.64,-43.55,1678,-5598,5893,-1,0,-1
20.75,11.63,-43.57,1682,-5600,5874,-1,0,-1
20.76,11.64,-43.57,1693,-5602,5882,-1,0,-1
20.76,11.63,-43.58,1687,-5610,5875,-1,0,-1
20.76,11.62,-43.58,1682,-5594,5879,0,0,0
20.76,11.60,-43.57,1673,-5580,5885,-1,0,-1
20.76,11.61,-43.58,1676,-5572,5872,-1,0,-1
20.76,11.60,-43.59,1672,-5572,5878,-1,0,-1
20.77,11.59,-43.59,1669,-5580,5878,-1,0,0
20.77,11.58,-43.61,1672,-5591,5883,-1,0,-1
20.77,11.57,-43.62,1665,-5597,5897,-1,0,-1
20.78,11.57,-43.63,1658,-5598,5877,-1,0,-1
20.78,11.57,-43.65,1667,-5592,5874,-1,0,-1
20.79,11.57,-43.66,1684,-5597,5864,-1,0,-1
20.80,11.57,-43.67,1681,-5608,5863,-1,0,-1
20.80,11.56,-43.68,1675,-5610,5873,-1,0,-1
20.80,11.55,-43.69,1676,-5609,5876,-1,0,0
20.80,11.54,-43.69,1683,-5606,5878,-1,0,-1
20.80,11.54,-43.69,1679,-5614,5878,-1,0,-1
20.80,11.52,-43.70,1670,-5615,5870,-1,0,-1
20.81,11.51,-43.71,1670,-5611,5873,-1,0,-1
20.81,11.50,-43.71,1675,-5602,5876,-1,0,0
20.81,11.50,-43.73,1669,-5603,5874,-1,0,-1
20.81,11.49,-43.73,1658,-5600,5874,-1,0,-1
20.81,11.48,-43.75,1653,-5607,5866,-1,0,-1
20.82,11.47,-43.77,1654,-5615,5864,-1,0,-1
20.82,11.46,-43.77,1653,-5609,5865,-1,0,-1
20.81,11.45,-43.78,1648,-5601,5855,-1,0,0
20.82,11.45,-43.80,1643,-5597,5856,-1,0,-1
20.82,11.44,-43.81,1650,-5613,5863,-1,0,-1
20.82,11.44,-43.82,1653,-5621,5867,-1,0,-1
20.83,11.43,-43.83,1665,-5619,5891,-1,0,-1
20.83,11.41,-43.84,1651,-5603,5891,-1,0,-1
20.83,11.41,-43.86,1647,-5608,5869,-1,0,-1
20.84,11.40,-43.88,1653,-5612,5869,-1,0,-1
20.84,11.39,-43.90,1660,-5608,5882,-1,0,0
20.83,11.41,-43.95,1657,-5618,5860,-2,-1,0
20.83,11.40,-43.99,1653,-5635,5836,-2,0,-1
20.82,11.38,-44.00,1628,-5632,5836,-1,0,0
20.83,11.37,-44.02,1632,-5629,5823,-1,0,-1
20.83,11.37,-44.04,1621,-5629,5844,-1,0,-1
20.83,11.38,-44.06,1622,-5648,5807,-1,-1,0
20.83,11.38,-44.06,1633,-5639,5847,-1,0,-1
20.83,11.38,-44.07,1638,-5634,5838,-1,-1,0
20.83,11.39,-44.08,1653,-5646,5842,-1,-1,0
20.83,11.40,-44.10,1660,-5650,5826,-1,-1,0
20.83,11.39,-44.10,1666,-5650,5816,-1,0,0
20.82,11.39,-44.10,1654,-5662,5838,0,-1,0
20.82,11.39,-44.11,1646,-5659,5817,-1,-1,0
20.81,11.39,-44.11,1630,-5656,5812,0,0,-1
20.82,11.39,-44.09,1640,-5624,5867,-1,-1,-1
20.82,11.41,-44.10,1651,-5653,5844,-1,-1,-1
20.82,11.42,-44.10,1660,-5650,5823,0,0,0
20.82,11.42,-44.09,1659,-5613,5815,0,0,0
20.82,11.41,-44.09,1634,-5633,5850,0,-1,0
20.82,11.42,-44.09,1645,-5635,5854,-1,-1,-1
20.83,11.44,-44.10,1655,-5647,5809,0,-1,-1
20.82,11.44,-44.09,1663,-5651,5831,0,-1,0
20.82,11.45,-44.08,1654,-5647,5820,0,0,-1
20.82,11.45,-44.07,1649,-5643,5837,0,-1,0
20.83,11.46,-44.07,1652,-5644,5845,0,-1,-1
20.83,11.47,-44.07,1662,-5663,5832,0,-1,0
20.83,11.47,-44.04,1668,-5662,5827,0,-1,-1
20.84,11.48,-44.03,1659,-5659,5841,0,-1,-1
20.84,11.48,-44.01,1653,-5646,5826,0,-1,-1
20.84,11.49,-43.99,1659,-5641,5839,0,-1,-1
20.85,11.50,-43.97,1675,-5638,5843,0,-1,-1
20.85,11.50,-43.95,1669,-5637,5835,0,-1,0
20.85,11.50,-43.92,1661,-5622,5849,0,-1,-1
20.85,11.50,-43.90,1655,-5614,5864,0,-1,0
20.86,11.52,-43.89,1672,-5613,5849,0,-1,0
20.86,11.53,-43.88,1674,-5612,5844,0,-1,0
20.86,11.54,-43.86,1670,-5604,5865,0,-1,0
20.86,11.54,-43.86,1666,-5608,5853,0,-1,-1
20.86,11.55,-43.85,1675,-5622,5865,0,-1,0
20.86,11.56,-43.85,1682,-5627,5855,0,-1,-1
20.86,11.56,-43.84,1673,-5626,5853,0,-1,0
20.86,11.57,-43.84,1662,-5619,5847,0,-1,0
20.87,11.57,-43.84,1669,-5617,5841,0,-1,-1
20.87,11.58,-43.83,1681,-5623,5853,0,-1,0
20.86,11.58,-43.83,1690,-5628,5862,0,-1,0
20.87,11.58,-43.82,1678,-5617,5863,0,-1,0
20.87,11.59,-43.81,1686,-5613,5867,0,-1,0
20.87,11.59,-43.81,1676,-5611,5855,0,-1,0
20.87,11.59,-43.81,1678,-5615,5854,0,0,-1
20.87,11.59,-43.81,1674,-5611,5869,-1,-1,0
20.86,11.59,-43.80,1680,-5616,5870,0,-1,0
20.86,11.59,-43.81,1667,-5628,5854,0,0,0
20.86,11.59,-43.80,1663,-5627,5849,0,-1,0
20.86,11.59,-43.80,1660,-5625,5844,0,-1,-1
20.86,11.61,-43.79,1672,-5611,5851,0,-1,-1
20.87,11.61,-43.78,1676,-5608,5859,0,-1,-1
20.86,11.61,-43.76,1679,-5604,5859,0,-1,0
20.87,11.62,-43.75,1684,-5605,5859,0,-1,0
20.86,11.63,-43.74,1684,-5606,5854,0,-1,0
20.86,11.62,-43.74,1684,-5600,5861,0,-1,0
20.86,11.62,-43.73,1679,-5599,5869,0,-1,0
20.86,11.63,-43.71,1675,-5605,5871,0,0,0
20.85,11.63,-43.71,1668,-5606,5870,-1,-1,0
20.86,11.63,-43.71,1682,-5616,5866,0,-1,0
20.85,11.63,-43.70,1670,-5613,5871,0,-1,-1
20.85,11.64,-43.69,1672,-5610,5874,0,-1,-1
20.86,11.64,-43.68,1678,-5613,5867,0,-1,-1
20.86,11.65,-43.67,1688,-5605,5862,0,0,-1
20.86,11.65,-43.66,1687,-5598,5854,0,-1,-1
20.86,11.66,-43.64,1688,-5589,5867,0,0,0
20.86,11.65,-43.63,1693,-5595,5878,0,0,0
20.86,11.66,-43.61,1696,-5593,5871,0,0,0
20.86,11.65,-43.60,1688,-5578,5882,0,-1,0
20.86,11.65,-43.59,1673,-5580,5886,-1,-1,0
20.85,11.65,-43.60,1672,-5584,5888,0,-1,0
20.85,11.66,-43.59,1675,-5582,5881,0,-1,-1
20.86,11.67,-43.59,1684,-5585,5873,0,-1,0
20.85,11.67,-43.59,1691,-5591,5868,0,-1,-1
20.86,11.68,-43.59,1697,-5592,5857,0,-1,0
20.86,11.69,-43.59,1703,-5585,5868,0,-1,0
20.86,11.69,-43.58,1699,-5585,5869,0,-1,0
20.85,11.69,-43.57,1690,-5590,5870,0,0,0
20.85,11.69,-43.56,1684,-5585,5880,0,-1,0
20.85,11.69,-43.55,1683,-5583,5877,0,0,0
20.85,11.69,-43.53,1686,-5586,5876,0,-1,0
20.85,11.69,-43.52,1692,-5576,5875,0,-1,0
20.86,11.70,-43.52,1694,-5581,5877,0,0,-1
20.86,11.70,-43.50,1686,-5575,5888,0,-1,0
20.85,11.70,-43.50,1699,-5589,5880,0,-1,0
20.85,11.70,-43.49,1692,-5578,5887,0,0,0
20.85,11.70,-43.49,1683,-5572,5881,0,0,0
20.85,11.70,-43.49,1681,-5574,5880,-1,-1,0
20.85,11.70,-43.49,1692,-5584,5869,0,-1,-1
20.85,11.70,-43.49,1689,-5592,5878,0,0,0
20.84,11.70,-43.48,1686,-5584,5878,0,-1,0
20.85,11.72,-43.48,1702,-5571,5880,0,-1,0
20.84,11.72,-43.47,1707,-5564,5873,0,-1,0
20.85,11.72,-43.45,1718,-5567,5872,0,0,0
20.84,11.72,-43.44,1710,-5563,5885,0,-1,0
20.85,11.73,-43.44,1705,-5572,5899,0,-1,0
20.83,11.72,-43.44,1693,-5578,5907,0,-1,0
20.83,11.72,-43.43,1694,-5585,5901,0,-1,0
20.83,11.72,-43.42,1688,-5583,5898,0,-1,0
20.83,11.72,-43.42,1684,-5573,5893,0,-1,0
20.83,11.73,-43.41,1687,-5565,5885,0,-1,-1
20.83,11.73,-43.39,1691,-5557,5884,0,-1,-1
20.83,11.74,-43.38,1702,-5550,5897,0,-1,0
20.83,11.74,-43.38,1707,-5553,5897,0,-1,0
20.83,11.74,-43.37,1701,-5552,5888,0,-1,0
20.82,11.74,-43.36,1696,-5552,5897,0,0,0
20.82,11.73,-43.35,1695,-5555,5909,-1,0,-1
20.82,11.74,-43.36,1695,-5556,5899,-1,-1,-1
20.83,11.74,-43.37,1700,-5556,5897,-1,0,-1
20.83,11.73,-43.38,1705,-5566,5897,-1,0,-1
20.83,11.74,-43.39,1706,-5583,5901,-1,0,-1
20.84,11.74,-43.40,1695,-5578,5897,-1,0,-1
20.84,11.73,-43.41,1689,-5582,5880,-1,0,-1
20.84,11.73,-43.41,1694,-5576,5887,0,0,-1
20.85,11.73,-43.40,1704,-5576,5898,0,0,-1
20.87,11.74,-43.39,1702,-5565,5903,0,0,-1
20.87,11.73,-43.39,1703,-5553,5904,-1,0,-1
20.88,11.72,-43.38,1704,-5547,5906,-1,0,-1
20.88,11.72,-43.40,1700,-5558,5909,-1,0,0
20.88,11.70,-43.41,1688,-5568,5906,-1,0,0
20.88,11.69,-43.43,1676,-5567,5907,-1,0,-1
20.89,11.68,-43.45,1670,-5574,5904,-1,0,-1
20.89,11.67,-43.47,1684,-5573,5905,-1,0,-1
20.90,11.67,-43.49,1692,-5578,5893,-1,0,-1
20.90,11.65,-43.50,1684,-5581,5888,-1,1,-1
20.90,11.64,-43.53,1684,-5593,5884,-1,0,-1
20.91,11.63,-43.54,1703,-5601,5869,-1,0,-1
20.91,11.61,-43.55,1689,-5596,5889,-1,1,-1
20.92,11.59,-43.56,1674,-5589,5902,-1,1,-1
20.92,11.57,-43.59,1682,-5591,5888,-2,1,-1
20.93,11.55,-43.61,1678,-5580,5906,-2,1,-1
20.92,11.52,-43.64,1672,-5588,5901,-2,1,-1
20.92,11.51,-43.67,1676,-5581,5871,-1,1,0
20.92,11.49,-43.71,1658,-5578,5897,-2,0,-1
20.91,11.50,-43.78,1661,-5602,5876,-3,-1,0
20.92,11.50,-43.82,1682,-5611,5862,-2,1,0
20.91,11.48,-43.85,1656,-5616,5872,-2,-1,0
20.90,11.47,-43.90,1660,-5620,5837,-2,1,-1
20.90,11.45,-43.93,1637,-5649,5847,-1,-1,0
20.90,11.45,-43.95,1671,-5628,5808,-1,0,-1
20.91,11.43,-43.96,1654,-5644,5861,-1,1,-1
20.90,11.42,-43.97,1643,-5643,5836,-1,-1,-1
20.90,11.42,-43.97,1666,-5622,5846,-1,0,0
20.91,11.41,-43.98,1644,-5648,5833,-1,-1,-1
20.91,11.41,-43.98,1666,-5608,5844,-1,0,0
20.91,11.41,-44.00,1662,-5630,5863,-1,0,-1
20.92,11.42,-44.02,1667,-5631,5812,-1,0,-1
20.93,11.39,-44.02,1655,-5622,5856,-1,1,-1
20.93,11.39,-44.04,1646,-5646,5852,-1,-1,-1
20.93,11.39,-44.05,1651,-5646,5851,-1,0,-1
20.93,11.39,-44.07,1649,-5650,5828,-1,0,-1
20.93,11.38,-44.07,1634,-5646,5833,0,0,-1
20.95,11.39,-44.08,1642,-5638,5844,-1,0,-1
20.95,11.39,-44.08,1643,-5652,5828,-1,0,-1
20.95,11.40,-44.09,1665,-5652,5829,-1,0,0
20.95,11.38,-44.09,1659,-5655,5831,0,0,0
20.95,11.37,-44.09,1655,-5657,5827,-1,0,-1
20.96,11.37,-44.09,1647,-5655,5843,-1,0,-1
20.96,11.36,-44.11,1638,-5657,5827,-1,0,-1
20.96,11.36,-44.10,1631,-5651,5836,-1,0,-1
20.96,11.35,-44.11,1626,-5655,5835,-1,0,-1
20.96,11.35,-44.12,1632,-5664,5835,-1,0,-1
20.97,11.36,-44.13,1638,-5661,5823,-1,-1,-1
20.97,11.36,-44.14,1633,-5662,5819,-1,-1,-1
20.97,11.36,-44.13,1634,-5658,5819,0,-1,-1
20.97,11.36,-44.13,1638,-5661,5812,0,0,-1
20.97,11.36,-44.12,1642,-5655,5813,0,0,-1
20.98,11.37,-44.11,1640,-5652,5830,0,-1,-1
20.99,11.37,-44.10,1647,-5651,5835,0,0,-1
20.99,11.37,-44.09,1646,-5648,5828,0,-1,0
20.99,11.38,-44.08,1642,-5647,5839,0,-1,0
20.99,11.38,-44.07,1634,-5642,5846,0,-1,0
20.99,11.38,-44.05,1635,-5638,5841,0,-1,0
20.99,11.39,-44.04,1635,-5636,5847,0,-1,-1
20.99,11.40,-44.03,1639,-5642,5837,0,-1,-1
21.00,11.42,-44.02,1646,-5640,5843,0,-1,0
20.99,11.42,-44.02,1637,-5641,5838,0,-1,-1
20.99,11.43,-44.00,1643,-5643,5853,0,-1,0
20.99,11.43,-43.99,1644,-5638,5841,0,-1,-1
21.00,11.45,-43.98,1652,-5638,5840,0,-1,-1
21.00,11.46,-43.97,1664,-5636,5841,0,-1,-1
21.01,11.47,-43.96,1669,-5630,5845,0,-1,0
21.00,11.47,-43.94,1667,-5624,5853,0,-1,-1
21.01,11.48,-43.93,1671,-5637,5857,0,-1,0
21.01,11.49,-43.92,1662,-5630,5864,0,-1,-1
21.01,11.50,-43.92,1669,-5631,5857,0,-1,-1
21.01,11.50,-43.91,1665,-5627,5853,0,-1,0
21.01,11.50,-43.90,1661,-5630,5844,0,0,0
21.01,11.51,-43.89,1655,-5624,5834,0,-1,0
21.01,11.51,-43.88,1654,-5622,5838,0,-1,0
21.01,11.51,-43.88,1656,-5628,5846,0,-1,0
21.01,11.52,-43.87,1662,-5625,5850,0,-1,0
21.01,11.53,-43.86,1664,-5618,5851,0,-1,-1
21.02,11.54,-43.86,1666,-5612,5845,0,-1,-1
21.02,11.55,-43.85,1674,-5603,5858,0,-1,-1
21.02,11.55,-43.84,1675,-5612,5850,0,-1,0
21.01,11.55,-43.84,1676,-5610,5852,0,-1,0
21.01,11.56,-43.84,1672,-5624,5858,0,-1,0
21.00,11.55,-43.84,1665,-5628,5858,0,0,0
21.01,11.56,-43.83,1664,-5640,5851,0,-1,-1
21.01,11.56,-43.83,1661,-5639,5851,0,-1,0
21.01,11.57,-43.82,1661,-5621,5836,0,-1,-1
21.01,11.57,-43.81,1659,-5611,5842,0,-1,-1
21.01,11.58,-43.80,1672,-5606,5856,0,-1,-1
21.02,11.59,-43.79,1692,-5606,5862,0,-1,0
21.01,11.59,-43.79,1685,-5603,5860,0,0,0
21.02,11.59,-43.78,1683,-5590,5861,-1,0,0
21.02,11.59,-43.78,1678,-5590,5871,-1,-1,0
21.01,11.59,-43.79,1679,-5600,5854,-1,-1,0
21.01,11.59,-43.79,1674,-5604,5865,-1,-1,0
21.01,11.59,-43.80,1672,-5612,5872,-1,0,0
21.01,11.58,-43.81,1659,-5609,5865,-1,0,-1
21.00,11.58,-43.82,1669,-5623,5859,-1,-1,0
21.00,11.58,-43.83,1681,-5621,5861,-1,0,0
21.00,11.58,-43.85,1680,-5635,5849,-1,0,-1
21.00,11.58,-43.86,1677,-5615,5851,-1,-1,0
20.99,11.57,-43.87,1678,-5602,5890,-2,0,0
20.98,11.57,-43.90,1656,-5612,5831,-1,-1,0
20.97,11.57,-43.93,1667,-5581,5873,-1,0,0
20.97,11.58,-43.97,1693,-5616,5837,-2,-2,-1
20.96,11.58,-43.99,1725,-5636,5826,0,1,0
20.95,11.56,-44.00,1654,-5630,5860,-1,-1,0
20.95,11.55,-44.01,1653,-5625,5807,-1,0,-1
20.94,11.57,-44.02,1651,-5656,5835,-1,-2,-1
20.95,11.57,-44.03,1672,-5663,5838,0,0,0
20.94,11.58,-44.02,1675,-5667,5840,0,-1,0
20.95,11.59,-44.02,1675,-5647,5826,0,-1,-1
20.96,11.59,-44.01,1683,-5664,5826,0,0,-1
20.96,11.60,-43.99,1693,-5643,5816,1,0,-1
20.97,11.60,-43.96,1696,-5625,5839,0,0,0
20.96,11.59,-43.93,1678,-5614,5827,1,0,0
20.96,11.59,-43.90,1672,-5621,5835,1,-1,-1
20.96,11.59,-43.87,1674,-5621,5843,0,-1,0
20.97,11.61,-43.85,1680,-5622,5852,1,-1,-1
20.97,11.61,-43.82,1677,-5616,5861,1,-1,0
20.97,11.62,-43.79,1670,-5597,5855,0,-1,0
20.97,11.63,-43.78,1677,-5587,5853,0,-1,0
20.98,11.65,-43.76,1687,-5603,5854,0,-1,-1
20.99,11.66,-43.74,1686,-5608,5861,0,-1,0
20.98,11.66,-43.73,1681,-5609,5874,0,-1,0
20.99,11.66,-43.71,1684,-5611,5875,0,-1,0
20.98,11.67,-43.70,1694,-5599,5863,0,-1,0
20.99,11.67,-43.70,1690,-5596,5857,0,-1,0
20.98,11.68,-43.69,1691,-5594,5857,0,-1,0
20.99,11.68,-43.68,1696,-5591,5865,0,-1,0
20.99,11.68,-43.67,1688,-5593,5876,0,-1,0
20.99,11.69,-43.66,1693,-5597,5872,0,0,0
20.98,11.68,-43.66,1682,-5597,5865,0,-1,0
20.98,11.68,-43.65,1685,-5607,5869,0,-1,0
20.98,11.68,-43.65,1676,-5605,5866,0,0,-1
20.98,11.68,-43.64,1674,-5599,5868,0,-1,-1
20.99,11.68,-43.63,1685,-5593,5870,0,0,-1
20.99,11.68,-43.62,1698,-5587,5886,0,-1,0
20.99,11.68,-43.62,1692,-5583,5876,0,-1,0
20.98,11.69,-43.62,1705,-5580,5878,0,-1,0
20.98,11.69,-43.61,1696,-5584,5884,0,-1,0
20.97,11.69,-43.61,1686,-5587,5871,0,-1,0
20.97,11.69,-43.60,1685,-5595,5866,0,-1,0
20.97,11.70,-43.59,1688,-5598,5869,0,-1,0
20.97,11.70,-43.59,1691,-5606,5868,0,-1,0
20.96,11.71,-43.58,1691,-5612,5866,0,-1,0
20.97,11.71,-43.56,1691,-5590,5874,0,-1,0
20.96,11.71,-43.54,1692,-5587,5880,0,-1,0
20.96,11.72,-43.53,1704,-5585,5865,0,-1,0
20.96,11.72,-43.52,1705,-5581,5861,0,-1,0
20.96,11.73,-43.50,1701,-5575,5871,0,-1,0
20.95,11.72,-43.48,1693,-5569,5894,0,0,0
20.95,11.73,-43.47,1688,-5572,5905,0,-1,0
20.95,11.72,-43.45,1683,-5570,5901,0,-1,0
20.96,11.73,-43.45,1686,-5563,5904,-1,-1,-1
20.96,11.73,-43.45,1693,-5554,5900,-1,0,0
20.96,11.73,-43.47,1694,-5558,5891,-1,0,-1
20.96,11.73,-43.48,1700,-5567,5888,-1,0,0
20.96,11.73,-43.48,1717,-5588,5882,0,0,-1
20.97,11.72,-43.48,1703,-5591,5887,-1,0,-1
20.97,11.71,-43.49,1678,-5583,5878,-1,0,-1
20.97,11.71,-43.48,1685,-5574,5893,-1,0,-1
20.98,11.71,-43.49,1699,-5575,5889,-1,0,-1
20.99,11.71,-43.48,1688,-5575,5888,-1,0,-1
21.00,11.70,-43.49,1697,-5574,5881,-1,0,-1
21.01,11.70,-43.50,1703,-5570,5897,-1,0,-1
21.02,11.70,-43.51,1701,-5582,5889,-1,0,-1
21.01,11.69,-43.51,1691,-5576,5900,-1,0,-1
21.01,11.67,-43.52,1678,-5574,5893,-1,0,-1
21.02,11.66,-43.53,1664,-5573,5893,-1,0,-1
21.02,11.66,-43.55,1675,-5576,5886,-1,0,-1
21.03,11.66,-43.56,1681,-5591,5878,-1,0,-1
21.03,11.65,-43.56,1681,-5593,5879,-1,0,-1
21.04,11.65,-43.57,1690,-5584,5873,-1,0,-1
21.05,11.66,-43.58,1701,-5573,5875,-1,0,-1
21.05,11.64,-43.59,1691,-5569,5878,-1,0,-1
21.06,11.64,-43.60,1691,-5571,5880,-1,0,-1
21.05,11.63,-43.61,1688,-5589,5891,-1,0,-1
21.06,11.62,-43.62,1683,-5598,5884,-1,0,-1
21.06,11.60,-43.63,1665,-5601,5875,-1,0,-1
21.06,11.60,-43.64,1660,-5594,5865,-1,0,-1
21.07,11.59,-43.64,1661,-5590,5851,-1,0,-1
21.07,11.59,-43.65,1668,-5588,5865,-1,0,-1
21.08,11.59,-43.66,1684,-5593,5872,-1,0,-1
21.08,11.58,-43.66,1688,-5591,5884,-1,0,-1
21.08,11.58,-43.67,1691,-5597,5875,-1,0,-1
21.09,11.57,-43.68,1675,-5593,5880,-1,0,-1
21.09,11.56,-43.69,1684,-5594,5878,-1,0,-1
21.10,11.55,-43.70,1675,-5593,5876,-1,0,-1
21.10,11.54,-43.71,1669,-5592,5878,-1,0,-1
21.10,11.54,-43.72,1665,-5601,5874,-1,0,0
21.10,11.53,-43.73,1668,-5601,5879,-1,0,-1
21.10,11.53,-43.75,1673,-5611,5877,-1,0,-1
21.10,11.52,-43.76,1666,-5609,5877,-1,0,-1
21.11,11.52,-43.77,1664,-5616,5869,-1,0,-1
21.11,11.51,-43.78,1672,-5615,5860,-1,0,-1
21.11,11.50,-43.79,1671,-5617,5854,-1,0,-1
21.12,11.49,-43.79,1664,-5612,5849,-1,0,-1
21.12,11.49,-43.80,1663,-5617,5853,-1,0,-1
21.12,11.48,-43.81,1663,-5613,5861,-1,0,-1
21.12,11.48,-43.81,1667,-5613,5873,-1,0,0
21.11,11.46,-43.82,1656,-5617,5869,-1,0,0
21.12,11.46,-43.83,1658,-5619,5861,-1,0,-1
21.12,11.45,-43.84,1652,-5616,5857,-1,0,-1
21.12,11.44,-43.86,1648,-5611,5847,-1,0,-1
21.12,11.44,-43.86,1655,-5618,5837,-1,0,-1
21.13,11.44,-43.88,1661,-5628,5850,-1,0,0
21.13,11.43,-43.88,1648,-5622,5852,-1,0,-1
21.13,11.43,-43.89,1650,-5629,5853,-1,0,-1
21.14,11.43,-43.90,1661,-5627,5852,-1,0,-1
21.14,11.42,-43.90,1657,-5627,5838,-1,0,-1
21.14,11.42,-43.91,1654,-5624,5845,-1,0,-1
21.14,11.42,-43.92,1649,-5619,5850,-1,0,-1
21.14,11.42,-43.92,1655,-5622,5850,-1,0,-1
21.14,11.41,-43.92,1647,-5627,5854,-1,0,-1
21.15,11.41,-43.92,1650,-5631,5864,-1,0,0
21.15,11.42,-43.93,1653,-5632,5865,-1,-1,0
21.14,11.43,-43.94,1652,-5629,5852,-1,-1,-1
21.14,11.43,-43.94,1651,-5628,5840,0,0,-1
21.14,11.43,-43.94,1651,-5629,5852,-1,-1,0
21.14,11.43,-43.93,1651,-5632,5853,0,0,-1
21.15,11.44,-43.93,1643,-5633,5851,0,-1,-1
21.14,11.44,-43.93,1643,-5640,5850,0,-1,-1
21.14,11.44,-43.92,1644,-5637,5861,0,-1,0
21.15,11.46,-43.91,1651,-5631,5864,0,-1,-1
21.15,11.47,-43.90,1652,-5614,5857,0,-1,-1
21.15,11.48,-43.89,1657,-5607,5857,0,-1,-1
21.15,11.48,-43.89,1660,-5616,5853,0,-1,0
21.15,11.48,-43.88,1661,-5628,5862,0,-1,0
21.15,11.48,-43.88,1653,-5643,5854,0,-1,0
21.14,11.49,-43.87,1644,-5645,5848,0,-1,-1
21.15,11.49,-43.86,1639,-5636,5848,0,-1,-1
21.15,11.50,-43.85,1652,-5628,5844,0,-1,-1
21.16,11.51,-43.84,1657,-5614,5849,0,0,-1
21.16,11.51,-43.82,1672,-5612,5858,0,-1,-1
21.16,11.52,-43.82,1681,-5605,5862,0,0,0
21.16,11.52,-43.81,1681,-5605,5866,-1,-1,0
21.16,11.52,-43.81,1676,-5610,5860,-1,-1,0
21.15,11.51,-43.81,1669,-5616,5858,-1,-1,0
21.16,11.52,-43.81,1658,-5616,5854,0,-1,0
21.15,11.52,-43.81,1658,-5613,5860,0,-1,0
21.15,11.53,-43.81,1662,-5627,5863,0,-1,-1
21.16,11.54,-43.82,1666,-5626,5850,0,-1,-1
21.16,11.54,-43.82,1671,-5625,5848,0,-1,0
21.16,11.55,-43.81,1673,-5629,5846,0,-1,0
21.16,11.56,-43.80,1679,-5632,5849,0,-1,0
21.16,11.56,-43.79,1680,-5623,5859,0,0,0
21.16,11.55,-43.79,1673,-5606,5854,0,0,0
21.16,11.55,-43.78,1667,-5600,5845,0,-1,0
21.16,11.56,-43.77,1670,-5602,5850,0,0,0
21.16,11.55,-43.77,1670,-5608,5862,0,0,0
21.15,11.55,-43.77,1662,-5603,5879,0,0,0
21.15,11.55,-43.77,1657,-5605,5870,-1,-1,0
21.15,11.55,-43.77,1653,-5614,5870,-1,-1,-1
21.15,11.55,-43.79,1667,-5615,5854,-1,-1,-1
21.15,11.55,-43.79,1674,-5609,5871,-1,-1,0
21.15,11.55,-43.80,1668,-5610,5867,-1,0,0
21.14,11.55,-43.81,1676,-5616,5847,-1,-1,0
21.14,11.55,-43.82,1683,-5612,5860,-1,0,0
21.14,11.54,-43.83,1661,-5626,5844,-1,-1,-1
21.14,11.55,-43.84,1682,-5628,5843,-1,0,-1
21.13,11.54,-43.85,1670,-5620,5847,-1,-1,0
21.12,11.55,-43.85,1665,-5637,5846,0,-1,0
21.13,11.55,-43.85,1678,-5617,5872,-1,0,-1
21.12,11.54,-43.86,1662,-5610,5853,-1,-1,0
21.12,11.56,-43.87,1678,-5622,5865,-1,-1,0
21.11,11.55,-43.88,1674,-5630,5851,-1,0,0
21.10,11.54,-43.88,1669,-5623,5849,-1,-1,0
21.10,11.54,-43.89,1667,-5634,5844,-1,0,0
21.10,11.55,-43.90,1670,-5630,5856,-1,-1,0
21.09,11.55,-43.90,1672,-5628,5840,0,0,-1
21.10,11.54,-43.90,1667,-5614,5867,-1,0,0
21.09,11.55,-43.91,1654,-5631,5815,0,-1,0
21.09,11.54,-43.91,1652,-5612,5872,-1,0,0
21.08,11.55,-43.93,1666,-5628,5857,-1,-1,0
21.09,11.55,-43.94,1689,-5625,5866,-1,0,0
21.08,11.56,-43.96,1684,-5626,5852,-1,-1,0
21.07,11.56,-43.98,1672,-5627,5854,-2,-1,0
21.06,11.57,-44.00,1695,-5623,5823,-1,-1,0
21.06,11.56,-44.01,1694,-5604,5851,-1,-1,0
21.04,11.55,-44.03,1670,-5607,5832,-1,0,0
21.03,11.55,-44.07,1680,-5629,5821,-1,-1,0
21.01,11.54,-44.09,1659,-5649,5818,-1,0,0
21.00,11.54,-44.10,1637,-5682,5772,0,-1,0
21.00,11.53,-44.08,1623,-5614,5805,0,0,-1
21.01,11.55,-44.07,1634,-5632,5811,0,-2,-1
21.02,11.57,-44.06,1670,-5680,5788,1,-1,-1
21.05,11.59,-44.02,1704,-5678,5791,1,0,-1
21.07,11.60,-43.96,1700,-5648,5805,2,0,-1
21.08,11.61,-43.90,1702,-5615,5851,1,-1,0
21.08,11.62,-43.86,1702,-5611,5858,1,-1,0
21.07,11.62,-43.82,1699,-5611,5870,1,0,0
21.08,11.62,-43.77,1678,-5603,5859,1,-1,0
21.07,11.61,-43.74,1662,-5591,5872,1,-1,0
21.07,11.61,-43.71,1662,-5596,5887,0,-1,-1
