Yaw,Pitch,Roll,AX,AY,AZ,GX,GY,GZ
23.82,13.64,-47.88,1952,-5981,5400,0,-1,-1
23.81,13.64,-47.88,1942,-5987,5400,0,-1,0
23.81,13.64,-47.88,1948,-5993,5394,0,-1,0
23.81,13.64,-47.88,1947,-5996,5402,0,-1,0
23.81,13.65,-47.88,1956,-5996,5401,0,-1,-1
23.81,13.65,-47.88,1958,-5999,5398,0,-1,-1
23.81,13.65,-47.88,1957,-6001,5394,0,0,-1
23.81,13.66,-47.87,1959,-5985,5394,0,0,0
23.81,13.66,-47.86,1958,-5985,5387,0,-1,0
23.81,13.66,-47.85,1955,-5979,5397,0,-1,0
23.80,13.65,-47.85,1959,-5978,5398,0,-1,0
23.80,13.65,-47.84,1943,-5979,5412,0,-1,0
23.80,13.66,-47.83,1938,-5980,5417,0,-1,0
23.79,13.65,-47.84,1941,-5980,5404,0,-1,-1
23.80,13.67,-47.84,1947,-5980,5400,0,-1,0
23.79,13.66,-47.84,1940,-5971,5390,0,-1,-1
23.79,13.66,-47.83,1939,-5971,5400,0,-1,0
23.79,13.67,-47.83,1954,-5986,5403,0,-1,0
23.79,13.67,-47.83,1954,-5992,5404,0,-1,0
23.79,13.67,-47.82,1956,-5996,5403,0,0,-1
23.79,13.67,-47.81,1954,-5986,5395,0,-1,0
23.79,13.68,-47.80,1952,-5980,5400,0,-1,0
23.79,13.68,-47.80,1954,-5980,5400,0,-1,0
23.79,13.68,-47.79,1958,-5974,5405,0,-1,0
23.79,13.68,-47.78,1961,-5971,5408,0,-1,0
23.78,13.68,-47.77,1956,-5962,5417,0,0,0
23.78,13.68,-47.76,1949,-5962,5411,0,-1,0
23.78,13.68,-47.76,1937,-5966,5405,-1,-1,0
23.77,13.67,-47.77,1944,-5979,5406,0,-1,-1
23.77,13.68,-47.76,1955,-5977,5408,0,-1,-1
23.78,13.69,-47.76,1961,-5979,5415,0,-1,0
23.78,13.69,-47.75,1958,-5976,5412,0,-1,-1
23.78,13.69,-47.75,1970,-5965,5407,0,-1,-1
23.78,13.71,-47.75,1975,-5960,5403,0,-1,0
23.78,13.70,-47.75,1976,-5970,5396,0,-1,0
23.78,13.70,-47.75,1971,-5981,5402,0,0,0
23.77,13.70,-47.75,1958,-5992,5411,0,0,0
23.77,13.69,-47.74,1951,-5987,5415,0,0,0
23.77,13.70,-47.73,1947,-5971,5409,0,-1,-1
23.77,13.70,-47.72,1945,-5973,5404,0,-1,-1
23.77,13.71,-47.72,1963,-5966,5401,0,-1,-1
23.77,13.71,-47.72,1972,-5976,5409,0,-1,0
23.77,13.72,-47.72,1978,-5977,5421,0,0,0
23.76,13.71,-47.71,1966,-5972,5420,-1,-1,0
23.77,13.71,-47.71,1964,-5964,5421,0,0,0
23.77,13.71,-47.71,1961,-5963,5430,-1,-1,0
23.77,13.71,-47.71,1971,-5968,5419,0,0,0
23.76,13.70,-47.71,1962,-5965,5414,-1,-1,0
23.76,13.71,-47.72,1966,-5972,5408,0,-1,0
23.75,13.71,-47.72,1966,-5971,5399,0,-1,0
23.74,13.71,-47.73,1957,-5980,5394,0,-1,0
23.74,13.70,-47.72,1960,-5981,5409,0,0,0
23.74,13.70,-47.72,1959,-5980,5401,0,-1,-1
23.75,13.71,-47.71,1968,-5973,5396,0,-1,-1
23.75,13.72,-47.70,1971,-5965,5407,0,-1,0
23.75,13.72,-47.69,1971,-5964,5406,0,-1,0
23.74,13.72,-47.68,1969,-5963,5416,0,0,0
23.74,13.72,-47.68,1958,-5949,5419,0,0,0
23.73,13.71,-47.68,1961,-5956,5420,0,-1,0
23.73,13.72,-47.68,1964,-5965,5411,0,-1,0
23.73,13.72,-47.67,1958,-5962,5414,0,-1,0
23.73,13.72,-47.67,1950,-5962,5411,0,-1,-1
23.73,13.73,-47.67,1960,-5964,5404,0,-1,-1
23.73,13.73,-47.67,1953,-5965,5403,0,-1,-1
23.73,13.73,-47.67,1958,-5963,5411,0,-1,0
23.73,13.74,-47.66,1969,-5961,5414,0,-1,0
23.73,13.74,-47.65,1967,-5961,5407,0,0,0
23.73,13.74,-47.65,1973,-5979,5418,0,-1,0
23.72,13.73,-47.64,1959,-5974,5426,0,0,0
23.72,13.74,-47.64,1956,-5968,5423,0,-1,-1
23.73,13.74,-47.63,1956,-5964,5423,0,-1,-1
23.73,13.75,-47.61,1964,-5956,5421,0,-1,0
23.73,13.75,-47.60,1967,-5952,5422,0,0,0
23.72,13.74,-47.60,1961,-5952,5425,0,-1,0
23.72,13.75,-47.60,1968,-5962,5441,0,-1,0
23.72,13.75,-47.59,1973,-5966,5438,0,-1,0
23.72,13.75,-47.58,1974,-5961,5431,0,-1,0
23.72,13.75,-47.57,1967,-5953,5425,0,-1,-1
23.72,13.76,-47.57,1964,-5952,5412,0,-1,0
23.72,13.76,-47.57,1970,-5950,5420,0,-1,0
23.72,13.77,-47.57,1977,-5953,5420,0,-1,0
23.71,13.77,-47.57,1972,-5961,5422,0,-1,0
23.70,13.76,-47.57,1966,-5958,5431,0,0,0
23.70,13.75,-47.57,1952,-5963,5420,0,0,-1
23.70,13.76,-47.57,1949,-5963,5424,0,0,-1
23.71,13.75,-47.57,1962,-5959,5425,0,0,-1
23.71,13.76,-47.57,1968,-5952,5419,0,0,-1
23.71,13.75,-47.57,1969,-5945,5422,-1,0,-1
23.71,13.75,-47.57,1974,-5951,5419,-1,0,-1
23.71,13.75,-47.57,1971,-5948,5435,0,0,-1
23.72,13.75,-47.57,1970,-5951,5439,-1,0,-1
23.71,13.74,-47.58,1967,-5945,5442,-1,0,0
23.72,13.74,-47.58,1965,-5948,5433,-1,0,0
23.71,13.73,-47.59,1962,-5949,5427,-1,0,-1
23.71,13.72,-47.61,1963,-5961,5434,-1,0,-1
23.72,13.71,-47.62,1954,-5961,5440,-1,0,-1
23.71,13.71,-47.66,1955,-5965,5420,-1,0,-1
23.72,13.70,-47.67,1949,-5966,5420,-1,0,-1
23.73,13.70,-47.70,1971,-5963,5426,-2,0,-1
23.74,13.69,-47.73,1963,-5977,5405,-1,1,-1
23.75,13.68,-47.75,1972,-5964,5403,-1,0,-1
23.74,13.66,-47.77,1958,-5954,5422,-2,0,0
23.74,13.66,-47.81,1976,-5956,5412,-2,0,-1
23.74,13.65,-47.85,1963,-5976,5395,-2,0,0
23.73,13.62,-47.87,1946,-5968,5395,-2,1,0
23.72,13.61,-47.90,1933,-5985,5402,-2,0,0
23.72,13.60,-47.94,1934,-6003,5403,-2,0,-1
23.72,13.59,-47.97,1946,-5996,5415,-2,0,0
23.72,13.59,-48.01,1938,-6009,5378,-2,0,-1
23.72,13.59,-48.04,1960,-5993,5390,-2,0,0
23.71,13.59,-48.08,1936,-6006,5387,-2,-1,0
23.71,13.59,-48.12,1973,-6034,5355,-1,0,-1
23.70,13.57,-48.13,1944,-6014,5369,-1,0,0
23.70,13.56,-48.14,1951,-6040,5358,-1,0,0
23.69,13.54,-48.14,1939,-6003,5369,-1,1,0
23.70,13.54,-48.16,1943,-6032,5369,-1,-1,0
23.70,13.52,-48.15,1926,-6008,5390,-1,1,0
23.69,13.51,-48.16,1935,-6039,5394,-1,-1,0
23.69,13.51,-48.17,1937,-6010,5371,-1,1,-1
23.69,13.49,-48.18,1908,-6026,5383,-1,0,-1
23.69,13.50,-48.19,1929,-6016,5349,-1,-1,-1
23.70,13.51,-48.20,1936,-6015,5382,-1,0,0
23.70,13.50,-48.21,1947,-6022,5371,-1,0,-1
23.70,13.49,-48.21,1923,-6019,5384,-1,0,0
23.69,13.48,-48.23,1914,-6009,5371,-1,0,-1
23.69,13.48,-48.25,1942,-6015,5375,-1,0,-1
23.69,13.47,-48.27,1917,-6044,5370,-1,-1,0
23.68,13.47,-48.28,1941,-6023,5352,-1,0,0
23.69,13.46,-48.28,1930,-6021,5356,-1,0,-1
23.69,13.46,-48.28,1932,-6011,5383,-1,0,0
23.69,13.46,-48.30,1925,-6019,5365,-1,0,-1
23.68,13.47,-48.33,1936,-6033,5332,-1,-1,0
23.68,13.46,-48.33,1937,-6045,5374,-1,0,-1
23.68,13.46,-48.35,1937,-6038,5354,-1,0,0
23.68,13.45,-48.35,1903,-6047,5354,-1,0,-1
23.67,13.45,-48.37,1916,-6046,5329,0,-1,-1
23.68,13.46,-48.36,1922,-6026,5352,0,-1,0
23.68,13.47,-48.36,1926,-6045,5346,0,-1,-1
23.68,13.48,-48.35,1923,-6039,5333,0,-1,0
23.69,13.49,-48.34,1937,-6057,5317,0,-1,-1
23.71,13.50,-48.32,1943,-6047,5351,0,-1,-1
23.70,13.50,-48.30,1928,-6037,5349,1,-1,-1
23.71,13.51,-48.27,1928,-6026,5358,0,-1,-1
23.71,13.51,-48.26,1931,-6033,5351,0,-1,-1
23.71,13.51,-48.23,1931,-6034,5367,1,-1,0
23.71,13.52,-48.21,1923,-6031,5373,0,-1,-1
23.71,13.53,-48.18,1922,-6023,5370,0,-1,-1
23.71,13.53,-48.17,1923,-6026,5371,0,-1,-1
23.72,13.55,-48.15,1929,-6018,5377,0,-1,-1
23.73,13.56,-48.13,1941,-6017,5366,0,-1,-1
23.73,13.57,-48.11,1946,-6023,5355,1,-1,0
23.73,13.58,-48.08,1948,-6018,5378,1,-1,0
23.72,13.58,-48.05,1944,-6002,5379,0,-1,0
23.72,13.59,-48.03,1940,-6001,5385,0,-1,0
23.72,13.60,-48.01,1946,-6014,5368,0,-1,0
23.72,13.61,-47.99,1954,-6014,5373,1,-1,0
23.72,13.61,-47.97,1948,-6005,5389,0,-1,0
23.71,13.61,-47.95,1937,-5998,5387,0,-1,0
23.71,13.62,-47.95,1933,-6003,5389,0,-1,0
23.71,13.63,-47.93,1940,-5999,5394,0,-1,0
23.71,13.63,-47.92,1928,-5998,5390,0,-1,-1
23.71,13.64,-47.91,1938,-6000,5394,0,-1,-1
23.71,13.65,-47.90,1952,-6001,5387,0,-1,0
23.72,13.66,-47.89,1948,-5996,5390,0,-1,-1
23.71,13.66,-47.88,1954,-5989,5391,0,-1,0
23.71,13.67,-47.88,1950,-5992,5385,0,-1,0
23.71,13.67,-47.87,1961,-5988,5375,0,-1,0
23.70,13.67,-47.86,1957,-5993,5373,0,-1,0
23.70,13.68,-47.86,1956,-6000,5374,0,-1,0
23.70,13.68,-47.85,1955,-6001,5396,0,-1,-1
23.70,13.69,-47.83,1951,-5998,5383,0,-1,0
23.69,13.69,-47.82,1947,-5993,5379,0,-1,0
23.69,13.69,-47.81,1950,-5993,5392,0,-1,0
23.69,13.70,-47.80,1957,-5992,5387,0,-1,0
23.69,13.71,-47.79,1966,-5989,5390,0,-1,0
23.69,13.71,-47.78,1966,-5982,5392,0,-1,0
23.69,13.71,-47.77,1966,-5981,5396,0,-1,0
23.68,13.71,-47.76,1956,-5982,5384,0,-1,0
23.69,13.72,-47.75,1956,-5981,5386,0,-1,0
23.68,13.72,-47.74,1956,-5979,5399,0,-1,0
23.68,13.72,-47.73,1952,-5980,5399,0,-1,0
23.68,13.72,-47.73,1960,-5990,5403,0,-1,-1
23.68,13.72,-47.71,1965,-5980,5416,0,-1,0
23.68,13.73,-47.70,1967,-5972,5401,0,-1,-1
23.68,13.74,-47.70,-258,-258,-258,0,-2,-258
23.68,13.75,-47.69,1975,-5984,5397,0,-1,0
23.67,13.74,-47.69,1965,-5988,5411,0,-1,0
23.67,13.74,-47.68,1961,-5982,5416,0,-1,0
23.67,13.74,-47.67,1961,-5977,5414,0,-1,0
23.67,13.74,-47.66,1956,-5978,5408,0,-1,0
23.66,13.74,-47.65,1955,-5974,5404,0,-1,0
23.67,13.75,-47.63,1958,-5963,5415,0,-1,-1
23.67,13.75,-47.62,1958,-5960,5415,0,-1,0
23.66,13.75,-47.62,1965,-5965,5427,0,-1,-1
23.67,13.76,-47.61,1973,-5964,5415,0,-1,0
23.66,13.76,-47.61,1959,-5967,5407,0,-1,0
23.66,13.76,-47.60,1954,-5965,5413,0,-1,0
23.66,13.76,-47.60,1959,-5972,5418,0,-1,0
23.65,13.76,-47.60,1965,-5973,5415,0,-1,0
23.65,13.76,-47.60,1970,-5975,5417,0,-1,0
23.65,13.77,-47.60,1967,-5980,5400,0,-1,0
23.64,13.77,-47.60,1968,-5980,5399,0,-1,-1
23.65,13.77,-47.59,1964,-5982,5391,0,-1,-1
23.64,13.77,-47.59,1965,-5968,5400,0,-1,0
23.64,13.78,-47.57,1974,-5965,5402,0,-1,0
23.64,13.78,-47.56,1973,-5966,5398,0,-1,0
23.64,13.78,-47.56,1979,-5975,5413,0,-1,0
23.63,13.78,-47.55,1974,-5965,5424,0,-1,0
23.63,13.78,-47.55,1964,-5969,5418,0,-1,-1
23.63,13.78,-47.54,1964,-5965,5417,0,-1,0
23.63,13.79,-47.54,1963,-5971,5413,0,-1,0
23.63,13.79,-47.53,1973,-5973,5415,0,-1,-1
23.63,13.80,-47.53,1969,-5964,5411,0,-1,-1
23.63,13.80,-47.52,1973,-5962,5404,0,-1,0
23.63,13.80,-47.52,1967,-5974,5394,0,-1,0
23.62,13.80,-47.51,1970,-5971,5395,0,-1,0
23.62,13.80,-47.51,1961,-5969,5398,0,-1,0
23.61,13.80,-47.50,1965,-5966,5406,0,-1,0
23.61,13.80,-47.49,1963,-5958,5415,0,-1,0
23.61,13.81,-47.48,1970,-5958,5419,0,-1,0
23.61,13.81,-47.48,1971,-5957,5414,0,-1,0
23.61,13.81,-47.47,1970,-5955,5413,0,-1,0
23.60,13.81,-47.47,1965,-5955,5412,0,-1,0
23.61,13.82,-47.46,1969,-5960,5427,0,-1,0
23.60,13.83,-47.46,1967,-5972,5430,0,-1,0
23.60,13.82,-47.45,1972,-5970,5422,0,-1,0
23.60,13.83,-47.44,1979,-5961,5419,0,-1,-1
23.60,13.83,-47.43,1974,-5956,5422,0,-1,0
23.59,13.83,-47.42,1959,-5952,5423,0,-1,0
23.59,13.82,-47.41,1958,-5950,5434,0,-1,0
23.58,13.83,-47.40,1957,-5957,5426,0,-1,0
23.58,13.83,-47.40,1969,-5957,5422,0,-1,0
23.58,13.83,-47.38,1971,-5949,5440,0,-1,0
23.57,13.83,-47.38,1975,-5949,5434,0,-1,-1
23.58,13.84,-47.37,1976,-5943,5441,0,-1,0
23.57,13.85,-47.37,1974,-5950,5428,0,-1,-1
23.58,13.85,-47.36,1978,-5945,5433,0,-1,0
23.57,13.85,-47.37,1983,-5944,5439,0,-1,0
23.57,13.85,-47.37,1982,-5951,5443,-1,0,0
23.57,13.85,-47.37,1975,-5956,5432,-1,0,0
23.56,13.84,-47.38,1976,-5965,5419,0,0,0
23.56,13.83,-47.38,1963,-5957,5419,0,0,-1
23.56,13.83,-47.38,1968,-5949,5415,0,0,-1
23.56,13.83,-47.38,1971,-5938,5429,-1,0,-1
23.57,13.83,-47.38,1980,-5944,5424,-1,0,-1
23.57,13.83,-47.38,1983,-5948,5434,-1,0,-1
23.57,13.83,-47.39,1983,-5944,5443,-1,0,0
23.57,13.82,-47.40,1980,-5950,5439,-1,0,0
23.57,13.81,-47.41,1973,-5952,5433,-1,0,-1
23.57,13.81,-47.42,1965,-5956,5433,-1,0,-1
23.56,13.81,-47.43,1967,-5964,5428,-1,0,-1
23.56,13.80,-47.44,1970,-5966,5427,-1,0,-1
23.57,13.80,-47.45,1972,-5973,5421,-1,0,-1
23.57,13.79,-47.45,1971,-5975,5421,-1,0,-1
23.57,13.79,-47.46,1966,-5970,5414,-1,0,-1
23.56,13.78,-47.47,1970,-5970,5414,-1,0,-1
23.57,13.78,-47.46,1971,-5953,5417,0,0,-1
23.56,13.77,-47.47,1961,-5941,5425,-1,0,-1
23.57,13.76,-47.48,1966,-5944,5430,-1,0,-1
23.57,13.75,-47.51,1971,-5965,5430,-1,0,-1
23.57,13.73,-47.52,1964,-5969,5435,-1,1,-1
23.56,13.71,-47.56,1943,-5973,5424,-1,0,-1
23.57,13.70,-47.58,1946,-5970,5435,-2,0,-1
23.57,13.70,-47.62,1950,-5981,5417,-2,0,-1
23.58,13.69,-47.65,1969,-5973,5415,-2,1,-1
23.58,13.67,-47.68,1945,-5989,5398,-2,0,-1
23.57,13.67,-47.72,1957,-5989,5388,-1,0,0
23.57,13.65,-47.74,1943,-5978,5397,-2,0,-1
23.56,13.64,-47.78,1949,-5987,5376,-1,0,0
23.55,13.62,-47.81,1925,-5989,5392,-2,0,-1
23.55,13.64,-47.85,1944,-6003,5388,-2,-2,-1
23.55,13.63,-47.89,1944,-6014,5389,-1,1,-1
23.54,13.62,-47.91,1938,-6008,5383,-2,-1,-1
23.55,13.62,-47.93,1934,-6024,5369,-1,0,0
23.54,13.61,-47.96,1946,-6027,5367,-1,0,-1
23.54,13.61,-47.98,1953,-6018,5365,-1,0,0
23.52,13.58,-48.00,1932,-6027,5373,-1,0,0
23.52,13.58,-48.04,1950,-6044,5369,-1,-1,0
23.51,13.57,-48.05,1941,-6027,5382,-1,0,0
23.50,13.55,-48.07,1926,-6027,5372,-1,0,0
23.49,13.54,-48.09,1931,-6010,5362,-1,0,0
23.49,13.52,-48.11,1907,-6008,5361,-2,0,-1
23.48,13.52,-48.14,1936,-6014,5349,-1,0,0
23.48,13.52,-48.17,1907,-6014,5348,-1,-1,0
23.47,13.52,-48.20,1931,-6029,5374,-2,-1,-1
23.46,13.52,-48.25,1919,-6043,5342,-1,0,0
23.46,13.51,-48.26,1912,-6020,5358,-1,0,0
23.45,13.52,-48.30,1922,-6051,5338,-2,-2,0
23.45,13.53,-48.33,1924,-6061,5317,-1,0,-1
23.44,13.52,-48.33,1906,-6065,5315,-1,-1,-1
23.44,13.52,-48.35,1938,-6068,5317,0,0,-1
23.44,13.52,-48.34,1912,-6038,5334,-1,-1,-1
23.44,13.54,-48.36,1935,-6080,5310,-1,-1,-1
23.44,13.54,-48.36,1941,-6061,5315,0,0,0
23.43,13.53,-48.35,1914,-6058,5324,0,0,0
23.44,13.54,-48.34,1925,-6053,5325,0,-1,-1
23.43,13.54,-48.33,1929,-6048,5329,0,-1,-1
23.43,13.54,-48.32,1920,-6061,5343,0,-1,0
23.44,13.55,-48.31,1930,-6076,5323,0,-1,-1
23.44,13.55,-48.29,1914,-6066,5338,0,-1,-1
23.45,13.57,-48.27,1933,-6057,5332,0,-1,-1
23.45,13.57,-48.26,1944,-6061,5344,0,-1,-1
23.46,13.59,-48.25,1937,-6051,5327,1,-1,-1
23.46,13.59,-48.22,1924,-6045,5320,1,-1,-1
23.46,13.61,-48.21,1934,-6045,5330,0,-1,-1
23.47,13.62,-48.18,1942,-6035,5357,1,-1,-1
23.47,13.63,-48.15,1955,-6038,5364,1,-1,0
23.47,13.64,-48.13,1954,-6037,5365,1,-1,0
23.47,13.64,-48.10,1951,-6039,5353,0,-1,0
23.46,13.64,-48.09,1954,-6027,5360,0,-1,0
23.46,13.65,-48.06,1942,-6024,5367,0,-1,0
23.45,13.65,-48.05,1940,-6030,5356,0,-1,0
23.45,13.66,-48.02,1943,-6028,5354,1,-1,0
23.45,13.67,-48.00,1941,-6019,5365,1,-1,0
23.44,13.68,-47.97,1950,-6018,5370,1,-1,0
23.44,13.68,-47.95,1949,-6009,5384,0,-1,0
23.45,13.69,-47.93,1946,-6012,5386,0,-1,0
23.44,13.69,-47.92,1940,-6008,5393,0,-1,-1
23.44,13.70,-47.91,1952,-6006,5386,0,-1,-1
23.44,13.71,-47.90,1956,-6006,5389,0,-1,0
23.44,13.71,-47.90,1959,-5997,5380,0,0,0
23.43,13.71,-47.90,1944,-6010,5373,0,-1,0
23.43,13.71,-47.89,1951,-6007,5374,0,-1,0
23.42,13.71,-47.89,1943,-6013,5374,0,-1,0
23.42,13.71,-47.89,1944,-6011,5374,0,-1,0
23.42,13.71,-47.89,1946,-6016,5374,0,-1,-1
23.42,13.71,-47.89,1947,-6009,5373,0,-1,-1
23.42,13.72,-47.89,1960,-6000,5380,0,-1,0
23.42,13.73,-47.88,1968,-5997,5377,0,-1,0
23.42,13.73,-47.88,1964,-5988,5382,0,-1,-1
23.41,13.73,-47.88,1959,-6006,5379,0,-1,0
23.40,13.73,-47.89,1949,-6016,5374,0,-1,0
23.40,13.73,-47.89,1956,-6025,5376,0,-1,0
23.39,13.73,-47.88,1945,-6024,5366,0,-1,0
23.39,13.73,-47.88,1940,-6025,5354,0,-1,-1
23.40,13.74,-47.86,1945,-6016,5364,0,-1,-1
23.39,13.75,-47.85,1957,-6007,5360,0,-1,0
23.39,13.76,-47.84,1965,-6005,5370,0,-1,0
23.39,13.76,-47.82,1967,-5997,5371,0,-1,0
23.39,13.77,-47.80,1976,-5987,5374,0,-1,0
23.38,13.77,-47.78,1964,-5979,5381,0,-1,0
23.37,13.77,-47.77,1967,-5982,5380,0,-1,0
23.37,13.76,-47.75,1957,-6000,5364,1,0,-1
23.37,13.75,-47.71,1950,-5987,5407,1,-1,0
23.36,13.76,-47.70,1944,-5988,5403,0,-1,0
23.37,13.77,-47.70,1950,-5991,5393,0,-1,-1
23.37,13.78,-47.70,1955,-5991,5384,0,-1,-1
23.36,13.79,-47.69,1960,-5997,5378,0,-1,0
23.37,13.79,-47.68,1962,-6005,5384,0,-1,-1
23.36,13.79,-47.66,1962,-5988,5394,0,-1,0
23.36,13.79,-47.65,1961,-5983,5385,0,-1,0
23.35,13.78,-47.63,1956,-5982,5391,0,-1,0
23.35,13.78,-47.62,1961,-5977,5395,0,-1,0
23.35,13.78,-47.61,1966,-5976,5404,0,-1,0
23.34,13.78,-47.60,1961,-5975,5410,0,-1,0
23.34,13.78,-47.61,1959,-5982,5408,0,-1,0
23.34,13.79,-47.60,1958,-5981,5400,0,-1,-1
23.34,13.79,-47.60,1960,-5984,5400,0,-1,0
23.33,13.80,-47.60,1965,-5975,5395,0,-1,0
23.33,13.80,-47.59,1960,-5976,5392,0,-1,0
23.32,13.80,-47.59,1967,-5979,5400,0,-1,0
23.33,13.81,-47.58,1970,-5978,5402,0,-1,0
23.32,13.81,-47.57,1966,-5969,5391,0,-1,0
23.32,13.80,-47.56,1960,-5971,5396,0,-1,-1
23.32,13.81,-47.56,1970,-5968,5394,0,-1,0
23.31,13.81,-47.55,1977,-5962,5406,0,-1,0
23.31,13.81,-47.54,1968,-5969,5405,0,-1,0
23.31,13.82,-47.54,1969,-5982,5408,0,-1,-1
23.31,13.81,-47.53,1963,-5980,5419,0,-1,0
23.30,13.81,-47.53,1961,-5977,5408,0,-1,-1
23.30,13.82,-47.52,1962,-5971,5402,0,-1,-1
23.31,13.83,-47.52,1965,-5968,5404,0,-1,-1
23.31,13.83,-47.51,1962,-5969,5411,0,-1,0
23.30,13.83,-47.49,1965,-5962,5408,0,-1,0
23.29,13.82,-47.49,1970,-5966,5410,0,0,0
23.29,13.82,-47.48,1965,-5972,5420,0,-1,0
23.29,13.82,-47.47,1964,-5972,5418,0,-1,0
23.28,13.82,-47.46,1958,-5962,5415,0,-1,0
23.28,13.83,-47.46,1966,-5956,5412,0,-1,-1
23.29,13.84,-47.46,1969,-5949,5409,0,-1,0
23.28,13.85,-47.45,1977,-5949,5415,0,-1,0
23.27,13.85,-47.45,1980,-5962,5414,0,-1,0
23.27,13.85,-47.46,1970,-5970,5411,0,-1,0
23.25,13.84,-47.45,1965,-5976,5412,0,-1,0
23.25,13.84,-47.44,1958,-5979,5407,0,-1,0
23.25,13.84,-47.43,1956,-5971,5410,0,-1,0
23.25,13.85,-47.41,1964,-5967,5417,0,-1,-1
23.25,13.85,-47.39,1968,-5960,5415,0,-1,-1
23.25,13.85,-47.37,1977,-5948,5423,0,-1,0
23.24,13.86,-47.36,1978,-5941,5430,0,-1,0
23.24,13.86,-47.36,1983,-5939,5425,0,-1,0
23.23,13.85,-47.35,1966,-5939,5430,0,-1,0
23.23,13.85,-47.35,1960,-5942,5435,0,-1,0
23.22,13.85,-47.36,1964,-5959,5429,0,-1,0
23.21,13.85,-47.35,1962,-5962,5444,0,-1,0
23.21,13.85,-47.35,1960,-5966,5442,0,-1,-1
23.21,13.86,-47.36,1964,-5960,5436,0,-1,-1
23.21,13.87,-47.36,1976,-5960,5423,0,-1,0
23.20,13.87,-47.36,1978,-5966,5416,0,-1,0
23.20,13.86,-47.35,1978,-5953,5425,0,0,0
23.20,13.85,-47.34,1979,-5945,5432,0,0,0
23.19,13.85,-47.35,1980,-5933,5437,-1,0,0
23.20,13.84,-47.36,1991,-5936,5425,-1,0,-1
23.19,13.83,-47.38,1977,-5936,5425,-1,0,0
23.19,13.82,-47.39,1974,-5947,5421,-1,0,-1
23.19,13.81,-47.41,1964,-5946,5425,-1,0,-1
23.19,13.81,-47.43,1967,-5958,5417,-1,0,-1
23.19,13.81,-47.45,1964,-5954,5421,-1,0,-1
23.20,13.80,-47.46,1964,-5955,5413,-1,0,-1
23.20,13.80,-47.48,1971,-5961,5413,-1,0,-1
23.20,13.80,-47.49,1981,-5970,5415,-1,0,-1
23.21,13.80,-47.49,1972,-5975,5422,-1,0,-1
23.20,13.79,-47.50,1957,-5977,5420,-1,0,-1
23.20,13.78,-47.51,1960,-5975,5412,0,0,-1
23.20,13.78,-47.51,1957,-5974,5402,-1,0,-1
23.21,13.77,-47.51,1956,-5966,5414,0,0,-1
23.20,13.77,-47.51,1956,-5964,5417,-1,0,-1
23.20,13.76,-47.52,-258,-258,-258,-2,-258,-258
23.20,13.76,-47.53,1954,-5982,5421,-1,0,0
23.19,13.74,-47.54,1941,-5977,5418,-1,0,-1
23.20,13.74,-47.55,1946,-5976,5414,-1,0,-1
23.20,13.74,-47.55,1955,-5973,5413,-1,0,-1
23.21,13.74,-47.56,1961,-5967,5411,-1,0,-1
23.21,13.73,-47.57,1964,-5965,5400,-1,0,0
23.20,13.72,-47.59,1955,-5969,5404,-1,0,-1
23.20,13.71,-47.61,1960,-5977,5425,-1,0,0
23.21,13.70,-47.63,1947,-5984,5418,-1,0,-1
23.20,13.68,-47.65,1948,-5989,5411,-1,0,-1
23.20,13.67,-47.68,1948,-5987,5400,-1,0,-1
23.21,13.67,-47.70,1953,-5983,5392,-1,0,-1
23.21,13.66,-47.72,1961,-5978,5414,-2,0,0
23.20,13.66,-47.76,1958,-5988,5402,-2,0,0
23.20,13.65,-47.79,1943,-5988,5396,-1,0,-1
23.19,13.64,-47.83,1942,-5981,5392,-2,-1,0
23.18,13.65,-47.88,1952,-6014,5359,-2,0,-1
23.18,13.64,-47.91,1948,-6026,5353,-1,0,-1
23.18,13.63,-47.92,1925,-6009,5344,-1,0,-1
23.18,13.63,-47.92,1936,-5995,5356,-1,-1,-1
23.18,13.64,-47.95,1949,-6006,5354,-1,-1,-1
23.18,13.65,-47.96,1960,-6030,5343,0,0,0
23.18,13.63,-47.95,1959,-6041,5352,0,0,0
23.18,13.62,-47.94,1948,-6025,5370,0,0,0
23.17,13.61,-47.94,1940,-6017,5374,0,0,-1
23.17,13.60,-47.94,1930,-6019,5366,0,0,-1
23.18,13.60,-47.94,1932,-6018,5362,0,0,-1
23.18,13.60,-47.93,1932,-6022,5364,0,0,-1
23.18,13.60,-47.92,1943,-6017,5381,0,0,-1
23.17,13.59,-47.92,1932,-6001,5389,0,0,-1
23.18,13.60,-47.93,1940,-6008,5384,-1,-1,-1
23.18,13.60,-47.94,1940,-6015,5366,-1,0,-1
23.17,13.59,-47.94,1942,-6018,5359,0,-1,0
23.17,13.59,-47.94,1934,-6010,5367,0,0,-1
23.17,13.59,-47.94,1933,-6002,5379,0,0,0
23.17,13.59,-47.94,1937,-6005,5369,0,-1,0
23.16,13.59,-47.94,1943,-6012,5359,0,0,0
23.16,13.58,-47.95,1937,-6018,5374,0,0,0
23.16,13.58,-47.95,1933,-6018,5373,0,-1,0
23.15,13.58,-47.94,1932,-6019,5379,0,-1,-1
23.16,13.59,-47.95,1932,-6023,5357,0,-1,-1
23.15,13.59,-47.94,1932,-6018,5354,0,-1,-1
23.16,13.60,-47.94,1940,-6018,5347,0,-1,0
23.15,13.60,-47.93,1944,-6020,5358,0,-1,-1
23.15,13.61,-47.91,1935,-6010,5381,0,-1,0
23.15,13.61,-47.91,1928,-6012,5369,0,-1,-1
23.15,13.62,-47.90,1929,-6006,5371,0,-1,-1
23.15,13.63,-47.89,1931,-6007,5362,0,-1,-1
23.15,13.63,-47.89,1943,-6006,5373,0,-1,0
23.15,13.64,-47.87,1950,-6009,5387,0,-1,-1
23.16,13.65,-47.87,1953,-6010,5383,0,-1,0
23.15,13.65,-47.86,1951,-6009,5378,0,-1,-1
23.15,13.66,-47.85,1956,-6020,5362,0,-1,-1
23.16,13.66,-47.84,1953,-6008,5368,0,-1,0
23.14,13.65,-47.83,1940,-6001,5373,0,-1,0
23.15,13.66,-47.82,1934,-5996,5387,0,-1,0
23.14,13.66,-47.82,1935,-6005,5377,0,-1,-1
23.14,13.67,-47.81,1943,-6005,5384,0,-1,0
23.14,13.67,-47.80,1945,-5995,5391,0,-1,0
23.14,13.67,-47.79,1950,-5992,5398,0,-1,-1
23.13,13.68,-47.79,1956,-5994,5390,0,-1,-1
23.14,13.70,-47.78,1960,-5994,5387,0,-1,0
23.14,13.69,-47.77,1952,-5993,5395,0,-1,0
23.13,13.70,-47.78,1945,-5988,5399,0,-1,0
23.12,13.69,-47.78,1945,-6002,5389,0,-1,0
23.12,13.70,-47.78,1941,-6009,5379,0,-1,0
23.11,13.69,-47.77,1943,-6023,5379,0,0,0
23.11,13.69,-47.77,1936,-6007,5382,0,-1,-1
23.11,13.69,-47.76,1930,-6004,5374,0,-1,-1
23.11,13.70,-47.75,1935,-5990,5377,0,-1,-1
23.12,13.71,-47.74,1953,-5991,5380,0,-1,0
23.11,13.71,-47.73,1961,-5987,5389,0,-1,0
23.11,13.72,-47.73,1964,-5983,5395,0,-1,0
23.10,13.71,-47.72,1956,-5981,5392,0,-1,0
23.10,13.72,-47.73,1954,-5987,5390,0,-1,0
23.09,13.71,-47.73,1951,-6000,5392,0,-1,0
23.09,13.72,-47.73,1951,-6001,5394,0,-1,0
23.08,13.72,-47.73,1950,-5998,5400,0,-1,0
23.08,13.72,-47.73,1952,-5996,5391,0,-1,0
23.08,13.73,-47.73,1948,-6000,5375,0,-1,-1
23.08,13.73,-47.72,1951,-5994,5378,0,-1,0
23.07,13.72,-47.72,1955,-5987,5383,0,-1,0
23.07,13.73,-47.71,1956,-5984,5386,0,-1,0
23.07,13.72,-47.70,1952,-5982,5378,0,0,0
23.06,13.72,-47.70,1957,-5981,5389,0,-1,0
23.06,13.72,-47.69,1960,-5983,5397,0,-1,0
23.05,13.72,-47.69,1954,-5984,5391,0,-1,0
23.05,13.72,-47.69,1945,-5980,5386,0,-1,0
23.05,13.73,-47.69,1951,-5976,5389,0,-1,0
23.04,13.73,-47.70,1955,-5986,5382,0,-1,0
23.04,13.74,-47.70,1961,-5990,5376,0,-1,0
23.04,13.75,-47.70,1973,-5999,5385,0,-1,0
23.04,13.75,-47.69,1958,-5986,5396,0,-1,0
23.04,13.75,-47.68,1955,-5988,5388,0,-1,0
23.03,13.75,-47.67,1952,-5987,5388,0,-1,-1
23.03,13.76,-47.66,1959,-5990,5402,0,-1,0
23.03,13.76,-47.65,1960,-5980,5400,0,-1,-1
23.03,13.76,-47.64,1959,-5980,5409,0,-1,0
23.03,13.76,-47.63,1962,-5976,5407,0,-1,0
23.02,13.76,-47.63,1957,-5973,5402,0,-1,0
23.01,13.75,-47.63,1951,-5972,5402,0,-1,0
23.01,13.75,-47.63,1952,-5974,5409,0,-1,0
23.01,13.76,-47.63,1957,-5988,5415,0,-1,-1
23.01,13.76,-47.63,1968,-5988,5419,0,-1,0
23.00,13.76,-47.63,1963,-5989,5416,0,-1,-1
23.00,13.77,-47.64,1969,-5980,5390,0,-1,0
23.00,13.77,-47.64,1967,-5971,5389,0,-1,0
23.00,13.77,-47.64,1967,-5980,5392,0,-1,0
22.99,13.76,-47.64,1964,-5985,5397,0,0,0
22.98,13.76,-47.65,1961,-5989,5393,0,0,0
22.97,13.75,-47.65,1954,-5995,5399,0,-1,0
22.96,13.75,-47.65,1946,-6001,5379,0,-1,0
22.96,13.75,-47.63,1945,-5989,5392,0,-1,-1
22.96,13.76,-47.62,1942,-5975,5393,0,-1,-1
22.97,13.77,-47.61,1956,-5969,5388,0,-1,0
22.96,13.78,-47.60,1963,-5969,5399,0,-1,0
22.96,13.78,-47.60,1969,-5969,5405,0,-1,0
22.96,13.79,-47.59,1973,-5980,5420,0,-1,0
22.95,13.78,-47.59,1955,-5977,5410,0,-1,0
22.95,13.78,-47.59,1951,-5973,5400,0,-1,0
22.94,13.78,-47.58,1953,-5974,5397,0,-1,0
22.94,13.80,-47.58,1962,-5975,5393,0,-1,0
22.93,13.80,-47.57,1967,-5988,5405,0,-1,0
22.94,13.80,-47.57,1966,-5984,5419,0,-1,0
22.93,13.81,-47.57,1967,-5984,5408,0,-1,0
22.93,13.81,-47.58,1970,-5985,5403,0,-1,0
22.92,13.81,-47.57,1963,-5982,5407,0,-1,0
22.93,13.81,-47.56,1963,-5969,5401,0,-1,-1
22.92,13.82,-47.55,1959,-5970,5396,0,-1,-1
22.93,13.83,-47.55,1974,-5972,5412,0,-1,0
22.92,13.83,-47.54,1976,-5975,5425,0,-1,0
22.92,13.83,-47.54,1970,-5968,5420,0,-1,0
22.91,13.83,-47.53,1965,-5976,5403,0,-1,0
22.91,13.84,-47.53,1962,-5977,5416,0,-1,0
22.90,13.83,-47.52,1957,-5978,5410,0,-1,0
22.89,13.83,-47.52,1965,-5974,5413,0,-1,0
22.89,13.84,-47.51,1971,-5971,5412,0,-1,0
22.89,13.83,-47.50,1973,-5984,5412,0,0,0
22.88,13.84,-47.48,1969,-5980,5417,0,-1,0
22.88,13.85,-47.48,1981,-5975,5406,0,-1,0
22.88,13.85,-47.47,1978,-5973,5419,0,-1,0
22.88,13.85,-47.46,1982,-5962,5422,0,-1,0
22.88,13.86,-47.45,1984,-5974,5422,0,-1,0
22.87,13.86,-47.44,1982,-5965,5429,0,0,0
22.87,13.85,-47.43,1958,-5957,5415,0,-1,0
22.86,13.85,-47.43,1957,-5955,5424,0,-1,-1
22.86,13.86,-47.42,1963,-5955,5432,0,-1,-1
22.87,13.86,-47.41,1969,-5954,5429,0,-1,-1
22.86,13.86,-47.41,1972,-5951,5434,0,-1,0
22.87,13.87,-47.41,1983,-5947,5424,-1,-1,0
22.86,13.87,-47.42,1988,-5943,5419,-1,0,0
22.86,13.86,-47.42,1986,-5950,5421,0,0,0
22.85,13.86,-47.43,1978,-5963,5425,-1,0,0
22.85,13.85,-47.44,1973,-5977,5412,0,0,-1
22.85,13.84,-47.43,1970,-5974,5417,0,0,-1
22.85,13.85,-47.43,1970,-5978,5417,0,-1,-1
22.85,13.85,-47.43,1969,-5974,5417,0,0,-1
22.86,13.85,-47.42,1972,-5962,5413,0,0,-1
22.86,13.86,-47.41,1974,-5951,5417,0,0,-1
22.86,13.85,-47.41,1984,-5948,5418,0,0,-1
22.87,13.85,-47.41,1989,-5953,5422,0,0,0
22.86,13.84,-47.42,1979,-5957,5423,-1,0,0
22.86,13.83,-47.42,1968,-5960,5428,-1,0,-1
22.86,13.84,-47.43,1958,-5970,5419,-1,0,-1
22.85,13.83,-47.44,1959,-5978,5417,-1,0,-1
22.85,13.83,-47.45,1968,-5972,5413,-1,0,-1
22.85,13.83,-47.46,1969,-5970,5421,-1,-1,-1
22.85,13.83,-47.48,1975,-5976,5408,-1,0,-1
22.85,13.82,-47.49,1980,-5990,5414,0,0,0
22.85,13.82,-47.49,1968,-5982,5409,0,0,0
22.85,13.81,-47.49,1960,-5977,5390,0,0,-1
22.84,13.81,-47.48,1956,-5972,5398,0,0,-1
22.85,13.81,-47.48,1961,-5972,5399,0,0,-1
22.85,13.80,-47.48,1967,-5968,5414,0,0,-1
22.85,13.80,-47.47,1973,-5953,5420,-1,0,-1
22.85,13.80,-47.48,1968,-5956,5415,-1,0,0
22.85,13.79,-47.49,1968,-5957,5414,-1,0,-1
22.85,13.79,-47.50,1961,-5961,5409,-1,0,-1
22.84,13.78,-47.51,1953,-5964,5411,-1,0,-1
22.84,13.78,-47.52,1947,-5974,5405,-1,0,-1
22.84,13.77,-47.53,1953,-5971,5407,-1,0,-1
22.84,13.77,-47.54,1953,-5974,5403,-1,0,-1
22.84,13.76,-47.54,1956,-5976,5395,-1,0,-1
22.84,13.76,-47.55,1956,-5974,5407,-1,0,-1
22.83,13.74,-47.56,1952,-5981,5404,-1,0,0
22.83,13.74,-47.56,1948,-5982,5401,0,0,0
22.83,13.73,-47.57,1952,-5981,5400,-1,0,-1
22.83,13.73,-47.58,1949,-5982,5398,-1,0,-1
22.83,13.73,-47.59,1956,-5981,5403,0,0,-1
22.83,13.72,-47.59,1953,-5976,5410,-1,0,-1
22.82,13.71,-47.60,1956,-5969,5412,-1,0,0
22.82,13.71,-47.61,1961,-5978,5409,-1,0,0
22.81,13.70,-47.62,1946,-5978,5411,-1,0,0
22.81,13.68,-47.63,1939,-5982,5403,-1,0,-1
22.82,13.68,-47.64,1937,-5982,5408,-1,0,-1
22.82,13.68,-47.65,1947,-5982,5405,-1,0,-1
22.82,13.68,-47.65,1955,-5975,5413,-1,0,-1
22.82,13.67,-47.67,1962,-5974,5405,-1,0,-1
22.82,13.66,-47.69,1961,-5974,5399,-1,0,0
22.82,13.65,-47.71,1958,-5986,5399,-1,0,0
22.81,13.63,-47.73,1944,-5998,5396,-1,0,0
22.80,13.62,-47.74,1929,-6012,5392,-1,0,0
22.80,13.61,-47.76,1917,-6013,5390,-1,0,-1
22.79,13.60,-47.76,1918,-6010,5390,-1,0,-1
22.80,13.60,-47.77,1932,-6008,5390,-1,-1,-1
22.80,13.60,-47.77,1939,-6000,5393,0,0,-1
22.80,13.60,-47.77,1943,-5991,5383,0,0,0
22.80,13.60,-47.77,1941,-5994,5385,0,0,0
22.79,13.59,-47.77,1941,-5993,5397,0,-1,0
22.78,13.59,-47.78,1930,-5994,5386,0,0,0
22.78,13.59,-47.78,1929,-5998,5386,-1,-1,0
22.78,13.59,-47.79,1926,-5993,5387,0,-1,0
22.77,13.59,-47.79,1933,-6000,5404,0,-1,0
22.77,13.60,-47.80,1930,-6009,5412,-1,-1,0
22.77,13.61,-47.81,1930,-6019,5387,0,-1,-1
22.77,13.61,-47.81,1933,-6019,5383,0,-1,-1
22.77,13.63,-47.81,1949,-6023,5368,0,-1,-1
22.77,13.63,-47.80,1951,-6012,5366,0,-1,0
22.77,13.63,-47.79,1943,-6004,5375,0,-1,0
22.77,13.63,-47.77,1942,-5994,5384,0,0,0
22.77,13.63,-47.76,1948,-5986,5390,0,-1,0
22.76,13.63,-47.76,1944,-5999,5385,0,-1,0
22.76,13.63,-47.76,1943,-6006,5392,0,-1,0
22.76,13.63,-47.76,1934,-6003,5398,0,-1,-1
22.75,13.64,-47.76,1933,-5998,5389,0,-1,-1
22.75,13.64,-47.77,1933,-5999,5385,-1,-1,-1
22.75,13.65,-47.78,1942,-6002,5380,0,-1,-1
22.75,13.66,-47.78,1946,-5996,5378,0,-1,0
22.74,13.66,-47.78,1947,-6006,5376,0,-1,-1
22.74,13.66,-47.78,1942,-6008,5383,0,-1,0
22.74,13.66,-47.77,1946,-6005,5390,0,-1,0
22.73,13.66,-47.76,1943,-6000,5383,0,-1,0
22.74,13.67,-47.76,1946,-5997,5382,0,-1,0
22.73,13.67,-47.75,1952,-5991,5378,0,-1,0
22.73,13.67,-47.74,1950,-5996,5387,0,-1,0
22.73,13.68,-47.73,1954,-5994,5397,0,-1,0
22.72,13.68,-47.72,1940,-5995,5389,0,-1,-1
22.73,13.68,-47.72,1941,-5992,5388,0,-1,0
22.72,13.68,-47.72,1943,-5990,5386,0,-1,-1
22.72,13.69,-47.72,1954,-5993,5381,0,-1,-1
22.73,13.70,-47.72,1956,-5997,5386,0,-1,-1
22.72,13.70,-47.71,1958,-5991,5389,0,-1,0
22.72,13.71,-47.71,1947,-5987,5383,0,-1,0
22.71,13.71,-47.71,1949,-5985,5382,0,-1,0
22.71,13.72,-47.70,1950,-5982,5392,0,-1,0
22.70,13.71,-47.69,1945,-5989,5393,0,-1,0
22.70,13.71,-47.68,1954,-5986,5410,0,-1,0
22.70,13.72,-47.68,1957,-5985,5414,0,-1,-1
22.70,13.73,-47.67,1960,-5984,5412,0,-1,-1
22.70,13.73,-47.67,1959,-5972,5406,0,-1,0
22.70,13.74,-47.67,1962,-5959,5411,-1,-1,0
22.70,13.74,-47.67,1969,-5975,5416,-1,-1,0
22.69,13.74,-47.67,1960,-5987,5405,0,-1,0
22.68,13.74,-47.68,1940,-5999,5402,0,-1,0
22.68,13.74,-47.68,1943,-5988,5405,0,-1,-1
22.68,13.73,-47.68,1942,-5976,5396,0,-1,-1
22.68,13.74,-47.67,1941,-5967,5389,0,-1,-1
22.68,13.74,-47.67,1950,-5973,5390,0,-1,-1
22.68,13.75,-47.66,1963,-5972,5409,0,-1,0
22.68,13.75,-47.66,1966,-5965,5406,0,-1,0
22.67,13.75,-47.66,1960,-5965,5405,0,0,0
22.67,13.75,-47.66,1954,-5971,5404,0,-1,0
22.67,13.75,-47.66,1961,-5977,5400,0,-1,-1
22.66,13.75,-47.66,1965,-5972,5412,0,-1,0
22.67,13.76,-47.66,1965,-5981,5409,0,-1,0
22.66,13.76,-47.67,1958,-5977,5396,0,-1,0
22.66,13.75,-47.67,1956,-5977,5398,0,-1,0
22.65,13.75,-47.67,1958,-5983,5395,0,-1,0
22.65,13.76,-47.67,1962,-5980,5393,0,-1,0
22.65,13.76,-47.67,1965,-5979,5395,0,-1,0
22.65,13.76,-47.67,1965,-5977,5399,0,-1,0
22.65,13.76,-47.66,1967,-5966,5406,0,-1,0
22.65,13.76,-47.65,1974,-5960,5410,0,-1,0
22.64,13.76,-47.65,1975,-5965,5411,0,-1,0
22.64,13.76,-47.65,1974,-5965,5406,0,-1,0
22.64,13.76,-47.66,1972,-5969,5405,-1,-1,0
22.63,13.76,-47.66,1967,-5974,5399,-1,-1,0
22.63,13.76,-47.67,1963,-5980,5392,0,-1,-1
22.63,13.76,-47.67,1959,-5985,5388,0,-1,0
22.63,13.77,-47.67,1957,-5986,5391,0,-1,0
22.63,13.77,-47.67,1961,-5978,5404,0,-1,-1
22.63,13.77,-47.66,1969,-5970,5405,0,-1,0
22.62,13.77,-47.66,1968,-5964,5401,0,-1,0
22.62,13.77,-47.66,1958,-5962,5399,0,-1,0
22.61,13.77,-47.66,1964,-5983,5404,0,-1,0
22.60,13.77,-47.65,1955,-5972,5409,0,-1,0
22.60,13.77,-47.65,1947,-5969,5396,0,-1,0
22.60,13.77,-47.65,1951,-5955,5411,0,-1,-1
22.60,13.78,-47.65,1960,-5962,5412,0,-1,-1
22.60,13.79,-47.65,1969,-5965,5418,0,-1,0
22.60,13.78,-47.64,1969,-5971,5415,0,-1,0
22.60,13.79,-47.64,1974,-5976,5406,0,-1,0
22.60,13.79,-47.64,1970,-5970,5399,0,-1,0
22.59,13.79,-47.63,1971,-5964,5407,0,0,0
22.59,13.79,-47.63,1966,-5956,5410,0,-1,0
22.59,13.79,-47.63,1965,-5960,5404,0,-1,0
22.58,13.80,-47.63,1969,-5965,5410,0,-1,0
22.58,13.80,-47.63,1973,-5970,5413,0,-1,0
22.59,13.80,-47.62,1966,-5962,5416,0,-1,0
22.58,13.81,-47.62,1974,-5944,5421,-1,-1,-1
22.58,13.81,-47.62,1977,-5955,5416,-1,-1,-1
22.58,13.81,-47.63,1975,-5964,5409,0,-1,0
22.57,13.81,-47.64,1979,-5970,5411,-1,-1,0
22.57,13.81,-47.64,1972,-5975,5424,0,-1,0
22.56,13.80,-47.64,1962,-5977,5407,0,-1,0
22.56,13.80,-47.63,1958,-5971,5408,0,-1,0
22.56,13.81,-47.62,1961,-5970,5408,0,-1,-1
22.56,13.81,-47.62,1964,-5960,5412,0,-1,-1
22.56,13.81,-47.61,1981,-5959,5403,0,-1,0
22.56,13.81,-47.59,1978,-5949,5412,0,0,0
22.56,13.81,-47.59,1973,-5945,5411,0,-1,0
22.56,13.81,-47.59,1980,-5956,5414,0,-1,0
22.55,13.81,-47.59,1978,-5956,5424,0,-1,0
22.55,13.81,-47.59,1967,-5956,5418,0,-1,0
22.54,13.81,-47.58,1969,-5952,5431,0,-1,-1
22.55,13.82,-47.59,1982,-5954,5428,-1,-1,-1
22.55,13.83,-47.59,1978,-5958,5422,0,-1,-1
22.54,13.83,-47.59,1991,-5958,5419,-1,-1,0
22.54,13.83,-47.60,1994,-5956,5425,-1,0,0
22.54,13.82,-47.60,1988,-5965,5427,-1,0,0
22.54,13.82,-47.61,1979,-5972,5423,0,0,-1
22.54,13.81,-47.60,1964,-5967,5419,0,0,-1
22.54,13.80,-47.60,1959,-5961,5421,0,0,-1
22.54,13.80,-47.60,1961,-5955,5427,-1,0,-1
22.54,13.80,-47.60,1974,-5952,5416,-1,0,-1
22.54,13.79,-47.60,1973,-5954,5427,-1,0,-1
22.54,13.79,-47.61,1974,-5947,5424,-1,0,0
22.54,13.78,-47.62,1971,-5947,5428,-1,0,-1
22.54,13.78,-47.63,1961,-5947,5421,-1,0,-1
22.54,13.77,-47.64,1962,-5962,5417,-1,0,-1
22.54,13.77,-47.66,1969,-5979,5410,-1,0,-1
22.55,13.78,-47.67,1968,-5976,5392,-1,0,-1
22.55,13.78,-47.67,1969,-5963,5394,-1,0,-1
22.55,13.77,-47.67,1970,-5954,5409,-1,0,-1
22.56,13.77,-47.68,1972,-5958,5413,-1,0,0
22.55,13.76,-47.69,1965,-5965,5407,-1,0,-1
22.55,13.75,-47.68,1965,-5957,5421,-1,0,0
22.55,13.74,-47.69,1952,-5963,5414,-1,0,-1
22.56,13.75,-47.70,1957,-5966,5415,-1,0,-1
22.56,13.74,-47.71,1959,-5967,5416,-1,0,-1
22.56,13.74,-47.71,1965,-5963,5409,-1,0,-1
22.57,13.73,-47.72,1966,-5961,5420,-1,0,0
22.56,13.73,-47.72,1964,-5956,5415,-1,0,0
22.56,13.72,-47.74,1955,-5963,5409,-1,0,-1
22.56,13.71,-47.76,1960,-5985,5415,-1,0,-1
22.56,13.70,-47.76,1960,-5977,5422,-1,0,-1
22.56,13.70,-47.76,1958,-5971,5411,-1,0,-1
22.57,13.69,-47.77,1967,-5958,5427,-1,0,-1
22.57,13.69,-47.78,1964,-5959,5410,-1,0,-1
22.57,13.68,-47.80,1962,-5958,5409,-1,0,-1
22.57,13.66,-47.82,1966,-5962,5414,-2,0,0
22.56,13.64,-47.85,1955,-5982,5420,-2,0,0
22.56,13.62,-47.87,1945,-5986,5421,-2,1,-1
22.56,13.61,-47.90,1935,-5993,5402,-2,0,-1
22.56,13.60,-47.93,1939,-5990,5397,-1,0,-1
22.56,13.60,-47.95,1945,-5996,5396,-2,0,-1
22.57,13.58,-47.97,1942,-5975,5393,-2,1,-1
22.57,13.57,-48.00,1943,-5981,5379,-2,-1,-1
22.58,13.58,-48.03,1952,-5988,5413,-2,-1,0
22.56,13.58,-48.09,1957,-5997,5377,-2,0,-1
22.57,13.57,-48.12,1939,-6015,5367,-1,0,-1
22.56,13.56,-48.14,1941,-6006,5384,-2,0,0
22.55,13.56,-48.17,1946,-6030,5379,-2,-1,0
22.55,13.56,-48.20,1958,-6024,5366,-1,0,0
22.56,13.56,-48.21,1952,-6022,5361,-1,0,0
22.55,13.54,-48.24,1933,-6034,5344,-1,-1,-1
22.55,13.54,-48.25,1937,-6040,5348,-1,0,0
22.54,13.53,-48.26,1925,-6039,5336,-1,0,-1
22.55,13.53,-48.26,1932,-6019,5359,0,0,0
22.54,13.53,-48.26,1923,-6028,5353,0,-1,0
22.54,13.54,-48.26,1937,-6034,5345,0,-1,-1
22.55,13.54,-48.25,1951,-6029,5346,0,0,0
22.55,13.53,-48.23,1942,-6009,5368,0,0,0
22.55,13.53,-48.22,1931,-6015,5386,0,-1,0
22.54,13.52,-48.22,1923,-6024,5366,0,-1,0
22.54,13.53,-48.21,1936,-6015,5364,0,-1,0
22.54,13.52,-48.19,1929,-6016,5363,0,0,-1
22.54,13.52,-48.18,1915,-6020,5372,0,-1,-1
22.54,13.53,-48.18,1922,-6019,5387,0,-1,-1
22.54,13.53,-48.17,1922,-6024,5381,0,-1,-1
22.54,13.53,-48.16,1921,-6012,5378,0,-1,-1
22.55,13.54,-48.16,1920,-6008,5371,0,-1,-1
22.55,13.55,-48.16,1939,-6012,5368,0,-1,-1
22.55,13.56,-48.15,1951,-6007,5367,0,-1,0
22.55,13.57,-48.15,1956,-6021,5366,0,-1,-1
22.55,13.57,-48.14,1957,-6023,5362,0,-1,0
22.56,13.58,-48.13,1948,-6005,5357,0,-1,0
22.55,13.58,-48.11,1936,-6003,5364,0,-1,0
22.55,13.58,-48.10,1936,-6009,5364,0,-1,0
22.55,13.58,-48.10,1935,-6008,5372,0,-1,0
22.54,13.58,-48.09,1936,-6007,5379,0,-1,0
22.55,13.59,-48.07,1940,-6006,5379,0,-1,-1
22.54,13.59,-48.06,1944,-6000,5387,0,-1,-1
22.55,13.61,-48.05,1950,-6003,5389,0,-1,-1
22.55,13.61,-48.04,1957,-5990,5395,0,-1,0
22.55,13.62,-48.04,1959,-5992,5396,0,-1,0
22.55,13.63,-48.03,1956,-5997,5391,0,-1,0
22.55,13.64,-48.03,1957,-6002,5382,0,-1,0
22.54,13.63,-48.03,1950,-6013,5372,0,-1,0
22.53,13.63,-48.02,1938,-6015,5377,0,-1,0
22.54,13.63,-48.01,1929,-6011,5379,0,-1,-1
22.54,13.63,-48.00,1933,-6000,5376,0,-1,-1
22.54,13.64,-47.98,1946,-5986,5387,0,-1,-1
22.55,13.66,-47.97,1956,-5984,5375,0,-1,-1
22.54,13.66,-47.97,1963,-5985,5384,0,-1,0
22.55,13.66,-47.96,1959,-5980,5395,0,-1,0
22.54,13.66,-47.94,1950,-5971,5403,0,-1,0
22.53,13.65,-47.94,1953,-5977,5393,0,-1,0
22.53,13.66,-47.93,1951,-5982,5397,0,-1,0
22.53,13.66,-47.93,1953,-5988,5396,-1,-1,0
22.53,13.66,-47.93,1953,-5993,5391,0,-1,0
22.52,13.67,-47.94,1955,-5992,5402,-1,-1,-1
22.53,13.68,-47.94,1954,-6001,5395,0,-1,-1
22.53,13.68,-47.94,1955,-5997,5385,0,-1,-1
22.53,13.68,-47.94,1960,-5997,5386,0,-1,0
22.53,13.68,-47.93,1968,-5991,5390,0,-1,0
22.53,13.68,-47.92,1958,-6000,5388,0,-1,0
22.52,13.68,-47.91,1962,-5989,5387,0,-1,0
22.52,13.68,-47.90,1951,-5984,5389,0,-1,0
22.52,13.68,-47.89,1956,-5973,5399,0,-1,0
22.52,13.69,-47.88,1959,-5969,5413,0,-1,0
22.51,13.68,-47.88,1953,-5969,5409,-1,-1,0
22.51,13.69,-47.89,1962,-5986,5396,0,-1,0
22.51,13.69,-47.88,1958,-5986,5402,0,-1,0
22.50,13.69,-47.88,1947,-5989,5396,0,-1,-1
22.51,13.70,-47.87,1949,-5981,5402,0,-1,-1
22.51,13.70,-47.87,1957,-5981,5397,0,-1,-1
22.51,13.71,-47.86,1962,-5978,5389,0,-1,0
22.51,13.70,-47.86,1965,-5972,5394,0,-1,0
22.50,13.70,-47.86,1961,-5972,5386,0,0,0
22.50,13.70,-47.86,1962,-5975,5400,-1,-1,0
22.50,13.70,-47.86,1960,-5988,5401,-1,0,-1
22.50,13.70,-47.86,1964,-6001,5392,-1,-1,0
22.50,13.70,-47.87,1972,-5989,5398,0,-1,0
22.50,13.71,-47.86,1979,-5980,5398,0,-1,0
22.49,13.70,-47.86,1958,-5979,5400,0,0,0
22.49,13.70,-47.86,1965,-5977,5386,-1,-1,0
22.49,13.70,-47.87,1960,-5977,5393,-1,-1,0
22.48,13.69,-47.87,1959,-5981,5405,0,-1,0
22.48,13.70,-47.87,1960,-5996,5402,0,-1,-1
22.48,13.70,-47.86,1949,-5978,5411,0,0,-1
22.48,13.70,-47.86,1943,-5975,5435,-1,-1,-1
22.48,13.70,-47.87,1954,-5966,5417,-1,-1,0
22.48,13.71,-47.88,1966,-5962,5390,-1,-1,0
22.47,13.70,-47.89,1979,-5978,5398,-1,0,0
22.47,13.70,-47.90,1976,-5989,5395,0,0,0
22.46,13.69,-47.90,1965,-5988,5409,-1,0,0
22.45,13.68,-47.91,1941,-6009,5399,-1,-1,0
22.44,13.67,-47.92,1948,-6000,5390,-1,0,0
22.44,13.68,-47.92,1940,-6001,5394,-1,-1,-1
22.44,13.68,-47.93,1938,-5994,5392,-1,-1,-1
22.44,13.69,-47.94,1946,-5976,5358,-1,-1,-1
22.45,13.71,-47.94,1977,-5989,5375,0,-1,-1
22.45,13.70,-47.92,2000,-5960,5417,-1,0,0
22.45,13.70,-47.93,1965,-5972,5398,-1,-1,0
22.44,13.70,-47.95,1969,-5985,5371,-1,0,0
22.43,13.70,-47.95,1964,-5976,5383,0,-1,0
22.42,13.70,-47.95,1968,-5984,5413,-1,-1,0
22.41,13.69,-47.97,1941,-6005,5389,-1,-1,0
22.40,13.70,-47.97,1943,-5994,5373,0,-1,-1
22.41,13.71,-47.97,1952,-5999,5390,-1,-1,-1
22.41,13.72,-47.98,1961,-5988,5402,0,-1,-1
22.41,13.73,-47.97,1970,-5994,5393,0,-1,-1
22.41,13.74,-47.96,1982,-5990,5378,0,-1,0
22.41,13.73,-47.95,1972,-5984,5381,0,-1,0
22.40,13.73,-47.94,1971,-5987,5381,0,-1,0
22.40,13.73,-47.93,1962,-5987,5389,0,0,0
22.39,13.73,-47.92,1966,-5989,5392,0,-1,0
22.39,13.73,-47.91,1973,-5984,5402,0,-1,0
22.38,13.72,-47.90,1955,-5984,5400,0,0,0
22.38,13.72,-47.90,1944,-5971,5384,0,0,0
22.38,13.72,-47.88,1958,-5973,5412,0,-1,0
22.37,13.72,-47.89,1947,-5981,5398,-1,-1,-1
22.37,13.72,-47.89,1960,-5979,5374,0,-1,-1
22.37,13.73,-47.89,1959,-5988,5390,0,-1,0
22.37,13.74,-47.90,1954,-5984,5399,0,-1,0
22.37,13.75,-47.90,1966,-5971,5407,-1,-1,0
22.36,13.75,-47.92,1965,-5977,5394,-1,-1,0
22.35,13.76,-47.93,1970,-5980,5392,0,-1,0
22.34,13.76,-47.93,1985,-5976,5380,0,-1,0
22.34,13.76,-47.93,1971,-5983,5393,-1,0,0
22.34,13.76,-47.93,1971,-5973,5398,-1,-1,0
22.34,13.76,-47.94,1967,-5979,5404,-1,-1,0
22.34,13.76,-47.96,1977,-6002,5409,-1,0,-1
22.34,13.75,-47.97,1961,-6000,5384,-1,0,-1
22.34,13.76,-47.98,1990,-6008,5397,0,-1,-1
22.35,13.74,-47.97,1975,-5990,5397,-1,0,0
22.34,13.74,-47.98,1981,-5992,5385,-1,0,-1
22.35,13.72,-47.98,1960,-5997,5374,0,0,-1
22.35,13.72,-47.98,1967,-5991,5382,-1,0,-1
22.36,13.72,-47.97,1956,-5993,5386,0,0,-1
22.36,13.71,-47.97,1965,-5997,5393,-1,0,-1
22.37,13.71,-47.97,1958,-5996,5373,0,0,-1
22.38,13.71,-47.96,1972,-5964,5393,-1,0,-1
22.38,13.71,-47.97,1958,-5953,5404,-1,0,-1
22.39,13.71,-47.99,1976,-5972,5401,-2,0,-1
22.39,13.70,-48.01,1971,-5995,5386,-1,0,-1
22.39,13.70,-48.02,1962,-6003,5394,-1,0,-1
22.39,13.69,-48.04,1951,-6014,5366,-1,0,-1
22.40,13.69,-48.06,1940,-6022,5353,-1,-1,-1
22.41,13.70,-48.05,1953,-6024,5344,0,-1,-1
22.41,13.70,-48.03,1953,-6009,5344,0,-1,-1
22.43,13.72,-48.01,1965,-5999,5358,0,-1,-1
22.43,13.73,-47.99,1981,-5990,5382,0,0,-1
22.44,13.73,-47.97,1989,-5991,5390,0,0,-1
22.44,13.71,-47.96,1988,-5994,5382,0,0,0
22.44,13.70,-47.95,1975,-5989,5392,0,0,0
22.44,13.69,-47.93,1959,-5979,5398,0,0,0
22.43,13.68,-47.92,1950,-5977,5405,0,0,0
22.43,13.68,-47.92,1940,-5977,5402,-1,0,-1
22.44,13.68,-47.93,1945,-5982,5403,-1,-1,-1
22.44,13.68,-47.94,1952,-5990,5406,-1,-1,-1
22.44,13.69,-47.95,1953,-6003,5396,-1,-1,-1
22.44,13.68,-47.96,1951,-6001,5388,-1,0,-1
22.45,13.69,-47.97,1955,-5988,5377,-1,0,-1
22.44,13.69,-47.98,1964,-5978,5377,-1,0,-1
22.44,13.68,-47.98,1964,-5981,5388,-1,0,0
22.45,13.68,-47.99,1964,-5987,5389,-1,0,0
22.44,13.67,-47.99,1964,-5993,5401,-1,0,0
22.44,13.66,-47.99,1956,-5995,5415,-1,0,0
22.44,13.65,-47.99,1947,-5994,5410,-1,0,-1
22.44,13.64,-48.00,1940,-5995,5405,-1,0,-1
22.44,13.64,-48.00,1946,-5988,5393,-1,0,-1
22.45,13.64,-48.00,1947,-5988,5399,-1,0,-1
22.45,13.63,-48.01,1952,-5991,5396,-1,0,-1
22.45,13.62,-48.01,1945,-5989,5400,-1,0,0
22.45,13.62,-48.03,1956,-5994,5397,-1,0,-1
22.45,13.62,-48.04,1958,-6004,5387,-1,0,0
22.44,13.61,-48.05,1947,-6005,5384,-1,0,0
22.44,13.60,-48.05,1943,-6003,5382,-1,0,0
22.44,13.59,-48.06,1940,-6002,5378,-1,0,0
22.44,13.59,-48.08,1944,-6005,5374,-1,0,0
22.44,13.59,-48.08,1947,-6012,5370,-1,0,0
22.44,13.59,-48.09,1948,-6005,5375,-1,0,0
22.44,13.59,-48.09,1950,-6006,5377,-1,-1,-1
22.44,13.59,-48.10,1947,-6013,5376,-1,-1,-1
22.44,13.59,-48.10,1948,-6009,5369,0,-1,-1
22.44,13.59,-48.09,1951,-6006,5359,0,-1,0
22.44,13.59,-48.09,1940,-5992,5364,0,0,0
22.44,13.59,-48.09,1938,-5994,5378,-1,-1,0
22.44,13.59,-48.09,1933,-6003,5377,-1,-1,0
22.44,13.58,-48.10,1939,-6017,5384,0,-1,-1
22.43,13.58,-48.09,1942,-6015,5390,0,-1,-1
22.44,13.59,-48.09,1944,-6008,5391,0,-1,-1
22.44,13.60,-48.08,1945,-6005,5393,0,-1,-1
22.45,13.61,-48.08,1961,-5997,5383,0,-1,-1
22.45,13.62,-48.08,1960,-5995,5378,0,-1,0
22.45,13.62,-48.08,1960,-5998,5376,0,-1,0
22.44,13.62,-48.08,1954,-6005,5379,0,-1,0
22.44,13.62,-48.07,1941,-6013,5368,0,-1,0
22.44,13.62,-48.07,1937,-6014,5364,0,-1,-1
22.44,13.63,-48.05,1946,-6013,5372,0,-1,-1
22.45,13.64,-48.04,1950,-6006,5381,0,-1,-1
22.45,13.64,-48.03,1955,-5994,5380,0,-1,-1
22.46,13.65,-48.02,1965,-5988,5389,0,-1,0
22.45,13.65,-48.02,1963,-5986,5394,0,-1,0
22.45,13.65,-48.01,1955,-5984,5401,0,-1,0
22.44,13.65,-48.00,1953,-5993,5399,0,-1,0
22.44,13.65,-48.01,1955,-6002,5383,0,-1,0
22.44,13.66,-48.00,1950,-6007,5386,0,-1,0
22.44,13.66,-48.00,1954,-6003,5388,0,-1,-1
22.44,13.66,-48.00,1951,-6005,5385,0,-1,-1
22.44,13.67,-48.00,1951,-6000,5386,0,-1,-1
22.44,13.68,-48.00,1966,-6002,5386,0,-1,-1
22.44,13.68,-48.00,1961,-5995,5379,0,-1,0
22.44,13.68,-47.99,1960,-6000,5395,0,-1,0
22.44,13.68,-47.98,1952,-5991,5398,0,-1,0
22.43,13.68,-47.97,1950,-5989,5394,0,-1,-1
22.44,13.68,-47.95,1954,-5988,5405,0,-1,-1
22.44,13.69,-47.95,1960,-5984,5415,0,-1,0
22.44,13.69,-47.94,1966,-5981,5409,0,-1,0
22.44,13.70,-47.94,1962,-5986,5403,0,-1,0
22.43,13.70,-47.94,1958,-5980,5398,0,-1,0
22.43,13.70,-47.93,1964,-5987,5397,0,-1,0
22.43,13.70,-47.92,1962,-5986,5394,0,-1,0
22.43,13.71,-47.92,1959,-5987,5388,0,-1,-1
22.43,13.71,-47.92,1959,-5982,5388,0,-1,0
22.43,13.71,-47.91,1962,-5984,5395,0,-1,0
22.43,13.72,-47.91,1964,-5981,5385,0,-1,0
22.43,13.72,-47.91,1965,-5980,5392,0,-1,0
22.42,13.72,-47.90,1964,-5980,5396,0,-1,0
22.42,13.72,-47.89,1967,-5981,5399,0,-1,0
22.43,13.72,-47.89,1965,-5987,5399,0,-1,-1
22.42,13.72,-47.89,1968,-5996,5398,0,-1,0
22.42,13.73,-47.88,1969,-5990,5401,0,-1,0
22.42,13.72,-47.88,1955,-5985,5403,-1,-1,0
22.41,13.72,-47.89,1953,-5978,5403,0,-1,0
22.41,13.72,-47.89,1954,-5979,5393,0,-1,0
22.40,13.72,-47.88,1970,-5979,5395,0,-1,0
22.41,13.73,-47.88,1968,-5977,5404,0,-1,0
22.40,13.73,-47.87,1966,-5970,5407,0,-1,0
22.41,13.74,-47.87,1973,-5981,5411,0,-1,-1
22.40,13.73,-47.86,1967,-5982,5405,0,-1,0
22.40,13.73,-47.86,1967,-5982,5398,0,-1,0
22.40,13.74,-47.86,1962,-5988,5397,0,-1,0
22.39,13.73,-47.86,1959,-5992,5397,0,-1,0
22.39,13.73,-47.86,1954,-5996,5384,0,-1,0
22.39,13.73,-47.84,1958,-5986,5395,0,-1,-1
22.39,13.73,-47.85,1958,-5985,5396,0,-1,0
22.39,13.74,-47.83,1962,-5974,5394,0,-1,0
22.39,13.74,-47.82,1964,-5971,5397,0,-1,0
22.39,13.75,-47.81,1964,-5971,5400,0,-1,0
22.38,13.75,-47.81,1965,-5968,5403,0,-1,0
22.38,13.75,-47.82,1965,-5971,5405,0,-1,0
22.37,13.75,-47.81,1963,-5977,5406,0,-1,0
22.37,13.75,-47.81,1961,-5977,5407,0,-1,0
22.37,13.76,-47.81,1964,-5971,5404,0,-1,0
22.37,13.76,-47.81,1971,-5979,5410,0,-1,0
22.36,13.76,-47.81,1972,-5977,5407,0,-1,0
22.36,13.77,-47.81,1977,-5984,5404,0,-1,0
22.36,13.77,-47.82,1980,-5989,5401,0,-1,0
22.35,13.77,-47.81,1977,-5982,5391,0,-1,0
22.34,13.76,-47.80,1972,-5967,5406,0,0,0
22.34,13.76,-47.79,1969,-5959,5417,0,-1,0
22.33,13.76,-47.79,1967,-5952,5417,0,-1,0
22.33,13.76,-47.79,1968,-5946,5423,-1,-1,0
22.32,13.77,-47.79,1986,-5970,5415,-1,-1,0
22.31,13.76,-47.80,1988,-5967,5418,-1,0,0
22.30,13.75,-47.81,1960,-5976,5402,-1,-1,0
22.30,13.75,-47.81,1975,-5976,5407,0,-1,0
22.29,13.75,-47.81,1968,-5961,5415,-1,-1,0
22.29,13.75,-47.83,1952,-5979,5396,-1,0,-1
22.28,13.75,-47.84,1963,-5978,5381,-1,-1,0
22.28,13.76,-47.84,1963,-5971,5411,-1,-1,-1
22.28,13.77,-47.85,1966,-5990,5399,-1,-1,0
22.27,13.77,-47.85,1991,-5975,5392,0,-1,0
22.27,13.77,-47.85,1973,-5969,5413,-1,-1,0
22.26,13.77,-47.86,1973,-5987,5391,-1,-1,0
22.26,13.76,-47.86,1979,-5982,5398,0,0,-1
22.27,13.76,-47.85,1971,-5969,5423,-1,0,0
22.27,13.75,-47.86,1984,-5963,5415,-1,0,0
22.27,13.74,-47.86,1970,-5961,5416,-1,0,-1
22.27,13.72,-47.87,1960,-5977,5392,-1,0,-1
22.27,13.72,-47.88,1965,-5977,5403,-1,0,-1
22.27,13.71,-47.88,1962,-5989,5412,-1,0,-1
22.28,13.71,-47.89,1963,-5989,5417,-1,0,-1
22.29,13.71,-47.89,1969,-5975,5392,-1,0,-1
22.30,13.70,-47.88,1968,-5953,5412,-1,0,-1
22.31,13.70,-47.90,1963,-5972,5408,-1,0,-1
22.32,13.70,-47.92,1975,-5967,5399,-1,0,-1
22.31,13.69,-47.94,1975,-5974,5401,-1,0,-1
22.31,13.68,-47.96,1967,-5992,5403,-1,0,-1
22.32,13.66,-47.97,1959,-5997,5402,-1,1,-1
22.32,13.65,-47.99,1937,-5988,5383,-1,0,-1
22.33,13.65,-48.01,1937,-6003,5381,-1,0,-1
22.34,13.65,-48.03,1961,-5997,5397,-1,0,-1
22.34,13.64,-48.03,1956,-5973,5401,-1,0,0
22.35,13.63,-48.05,1960,-5994,5369,-1,0,-1
22.35,13.63,-48.07,1965,-5989,5382,-1,0,-1
22.35,13.61,-48.08,1961,-5993,5390,-1,0,0
22.35,13.60,-48.08,1950,-5990,5376,-1,0,-1
22.35,13.60,-48.09,1947,-5989,5393,-1,0,0
22.35,13.59,-48.11,1948,-6017,5378,-1,0,-1
22.35,13.58,-48.11,1945,-5994,5387,-1,0,-1
22.36,13.57,-48.12,1937,-5993,5405,-2,0,-1
22.36,13.58,-48.15,1946,-6023,5376,-1,-1,-1
22.37,13.59,-48.17,1953,-6018,5361,-1,0,-1
22.36,13.58,-48.18,1954,-6016,5362,-1,0,-1
22.37,13.57,-48.18,1947,-6006,5357,-1,0,-1
22.37,13.57,-48.18,1939,-6006,5357,0,0,-1
22.38,13.57,-48.18,1962,-6005,5355,0,0,-1
22.38,13.57,-48.17,1948,-5989,5383,-1,0,-1
22.38,13.56,-48.17,1945,-6000,5381,-1,0,-1
22.39,13.56,-48.17,1937,-6014,5387,-1,0,-1
22.39,13.56,-48.17,1933,-6021,5390,0,0,-1
22.39,13.55,-48.17,1933,-6015,5384,-1,0,-1
22.40,13.55,-48.16,1934,-6000,5385,0,0,-1
22.40,13.55,-48.16,1941,-5995,5391,-1,0,-1
22.40,13.56,-48.16,1946,-6003,5387,-1,0,-1
22.41,13.56,-48.16,1955,-6003,5374,0,0,-1
22.42,13.56,-48.15,1946,-5997,5388,-1,0,-1
22.42,13.55,-48.15,1946,-5995,5392,-1,0,-1
22.42,13.55,-48.15,1947,-6003,5383,-1,0,-1
22.42,13.54,-48.15,1940,-6003,5388,-1,0,-1
22.41,13.53,-48.16,1941,-6001,5393,-1,0,-1
22.42,13.53,-48.16,1938,-6006,5395,-1,0,-1
22.43,13.52,-48.17,1938,-6008,5381,-1,0,-1
22.43,13.52,-48.18,1938,-6008,5373,-1,0,-1
22.43,13.51,-48.19,1942,-6008,5380,-1,0,-1
22.43,13.51,-48.19,1938,-6013,5369,-1,0,0
22.42,13.51,-48.20,1943,-5999,5367,-1,0,0
22.43,13.51,-48.20,1937,-5991,5373,-1,0,-1
22.43,13.51,-48.21,1936,-6000,5373,-1,-1,0
22.43,13.51,-48.21,1943,-6013,5374,-1,0,-1
22.43,13.51,-48.22,1946,-6026,5373,0,0,-1
22.44,13.52,-48.21,1948,-6019,5379,0,-1,-1
22.44,13.52,-48.21,1943,-6017,5384,0,0,-1
22.44,13.53,-48.21,1947,-6019,5378,0,-1,-1
22.44,13.53,-48.21,1947,-6023,5376,0,-1,-1
22.44,13.53,-48.20,1947,-6020,5370,0,-1,-1
22.44,13.53,-48.20,1942,-6022,5375,0,-1,-1
22.45,13.54,-48.19,1934,-6018,5367,0,-1,-1
22.46,13.54,-48.18,1939,-6016,5365,0,-1,-1
22.46,13.55,-48.16,1939,-6009,5371,0,-1,-1
22.47,13.56,-48.15,1947,-5996,5372,0,-1,-1
22.47,13.56,-48.14,1951,-5992,5382,0,-1,-1
22.48,13.57,-48.13,1950,-5989,5394,0,-1,-1
22.47,13.57,-48.12,1957,-5997,5389,0,0,0
22.48,13.57,-48.12,1952,-5997,5391,0,-1,0
22.47,13.57,-48.12,1943,-5994,5384,0,-1,0
22.48,13.58,-48.12,1945,-6002,5383,-1,-1,0
22.48,13.58,-48.12,1954,-6009,5380,0,-1,-1
22.47,13.59,-48.12,1956,-6012,5394,0,-1,-1
22.48,13.59,-48.12,1953,-6011,5388,0,-1,-1
22.48,13.60,-48.11,1954,-6007,5383,0,-1,-1
22.49,13.61,-48.11,1955,-6005,5370,0,-1,-1
22.48,13.61,-48.10,1947,-6002,5372,0,-1,-1
22.49,13.61,-48.09,1951,-6000,5392,0,0,0
22.48,13.61,-48.07,1948,-5990,5402,0,-1,0
22.49,13.61,-48.06,1952,-5994,5402,0,0,-1
22.49,13.62,-48.05,1962,-5988,5397,0,-1,0
22.49,13.62,-48.05,1962,-5991,5396,0,-1,0
22.49,13.62,-48.04,1953,-5987,5397,0,-1,0
22.49,13.63,-48.04,1954,-5980,5401,0,-1,-1
22.49,13.63,-48.04,1955,-5984,5391,0,-1,0
22.49,13.63,-48.03,1955,-5987,5391,0,-1,0
22.49,13.63,-48.03,1954,-5990,5394,0,-1,-1
22.49,13.64,-48.03,1957,-5996,5392,0,-1,-1
22.49,13.64,-48.02,1956,-5999,5393,0,-1,-1
22.50,13.64,-48.02,1963,-5998,5400,0,-1,0
22.50,13.64,-48.02,1959,-5996,5390,0,-1,0
22.49,13.65,-48.01,1959,-5986,5392,0,-1,0
22.49,13.65,-48.01,1960,-5984,5388,0,-1,0
22.49,13.65,-48.01,1965,-5985,5392,0,0,0
22.50,13.65,-48.00,1959,-5993,5393,0,-1,0
22.49,13.66,-48.00,1966,-5993,5396,0,-1,0
22.49,13.66,-48.00,1964,-5991,5399,0,-1,-1
22.49,13.66,-47.99,1965,-5977,5389,0,-1,0
22.50,13.67,-47.98,1963,-5969,5393,0,-1,0
22.49,13.66,-47.98,1961,-5975,5388,0,0,0
22.49,13.66,-47.98,1958,-5988,5389,-1,-1,0
22.49,13.67,-47.98,1963,-5989,5411,0,-1,0
22.49,13.67,-47.98,1959,-5989,5402,0,-1,-1
22.49,13.67,-47.97,1965,-5987,5405,0,-1,-1
22.49,13.68,-47.96,1967,-5976,5406,0,-1,-1
22.50,13.68,-47.95,1975,-5965,5398,0,-1,-1
22.50,13.69,-47.95,1975,-5966,5397,-1,-1,0
22.50,13.69,-47.96,1973,-5978,5393,-1,-1,0
22.49,13.69,-47.96,1971,-5984,5396,-1,0,0
22.49,13.68,-47.96,1963,-5995,5394,0,0,0
22.49,13.68,-47.96,1953,-5988,5392,0,0,0
22.49,13.68,-47.96,1953,-5983,5385,0,-1,-1
22.50,13.69,-47.95,1955,-5982,5387,0,-1,-1
22.50,13.70,-47.94,1971,-5977,5398,0,-1,-1
22.51,13.70,-47.93,1977,-5970,5405,0,-1,0
22.51,13.70,-47.93,1977,-5965,5409,0,0,0
22.51,13.70,-47.92,1976,-5962,5415,-1,-1,0
22.50,13.69,-47.92,1963,-5966,5415,0,0,0
22.50,13.69,-47.92,1961,-5966,5413,0,0,0
22.50,13.69,-47.91,1958,-5964,5412,-1,-1,0
22.50,13.70,-47.92,1968,-5973,5405,-1,-1,-1
22.50,13.70,-47.92,1964,-5976,5404,-1,-1,-1
22.50,13.70,-47.92,1961,-5973,5401,0,-1,0
22.50,13.71,-47.92,1972,-5981,5401,0,-1,-1
22.50,13.72,-47.91,1973,-5980,5406,0,-1,0
22.50,13.72,-47.90,1976,-5977,5399,0,0,0
22.50,13.71,-47.89,1968,-5969,5404,0,-1,0
22.49,13.71,-47.88,1968,-5974,5401,0,0,0
22.49,13.71,-47.86,1965,-5954,5399,0,-1,0
22.50,13.71,-47.85,1961,-5955,5396,0,-1,0
22.49,13.72,-47.85,1964,-5955,5406,0,-1,0
22.49,13.72,-47.85,1970,-5965,5416,-1,-1,0
22.49,13.71,-47.85,1964,-5968,5419,-1,0,0
22.49,13.71,-47.86,1967,-5964,5411,-1,-1,0
22.48,13.71,-47.86,1974,-5972,5398,-1,-1,0
22.48,13.72,-47.86,1972,-5974,5406,0,-1,0
22.48,13.72,-47.86,1967,-5976,5403,0,-1,0
22.48,13.73,-47.86,1968,-5976,5401,0,-1,0
22.47,13.73,-47.85,1974,-5984,5394,0,-1,0
22.48,13.73,-47.84,1979,-5970,5409,0,-1,0
22.48,13.74,-47.83,1982,-5961,5410,0,0,0
22.48,13.74,-47.82,1983,-5961,5405,0,-1,0
22.48,13.74,-47.81,1977,-5961,5420,0,-1,-1
22.49,13.74,-47.80,1981,-5969,5422,0,0,-1
22.49,13.74,-47.78,1980,-5953,5436,0,-1,-1
22.49,13.74,-47.78,1968,-5947,5424,0,-1,0
22.49,13.74,-47.78,1969,-5947,5423,-1,-1,0
22.49,13.75,-47.78,1969,-5965,5412,0,-1,0
22.49,13.75,-47.78,1968,-5969,5421,0,0,-1
22.49,13.75,-47.77,1976,-5965,5423,-1,-1,-1
22.50,13.76,-47.77,1988,-5950,5428,-1,0,-1
22.50,13.76,-47.77,1989,-5954,5415,-1,0,-1
22.50,13.75,-47.77,1976,-5952,5413,-1,0,-1
22.50,13.76,-47.78,1984,-5964,5422,-1,0,-1
22.51,13.75,-47.78,1980,-5965,5413,-1,0,-1
22.51,13.75,-47.79,1965,-5976,5404,-1,0,-1
22.51,13.75,-47.79,1962,-5972,5412,-1,0,-1
22.52,13.74,-47.79,1968,-5974,5411,-1,0,-1
22.53,13.74,-47.79,1967,-5969,5407,0,0,-1
22.53,13.75,-47.79,1970,-5961,5397,-1,0,-1
22.54,13.75,-47.79,1978,-5954,5410,-1,0,-1
22.54,13.74,-47.79,1975,-5954,5415,-1,0,-1
22.55,13.74,-47.80,1985,-5949,5415,-1,0,-1
22.55,13.73,-47.80,1971,-5947,5419,-1,0,-1
22.55,13.73,-47.80,1967,-5955,5421,-1,0,-1
22.55,13.72,-47.81,1965,-5955,5429,-1,0,-1
22.56,13.73,-47.82,1966,-5960,5414,-1,0,-1
22.56,13.73,-47.83,1974,-5969,5415,-1,0,-1
22.56,13.72,-47.84,1979,-5967,5416,-1,0,-1
22.56,13.71,-47.86,1967,-5974,5405,-1,0,-1
22.57,13.71,-47.86,1970,-5979,5398,-1,0,-1
22.58,13.71,-47.87,1965,-5981,5400,-1,0,-1
22.58,13.71,-47.87,1972,-5973,5395,-1,0,-1
22.59,13.71,-47.86,1973,-5963,5399,-1,0,-1
22.59,13.70,-47.87,1963,-5957,5405,-1,0,-1
22.59,13.69,-47.86,1967,-5960,5410,-1,0,-1
22.60,13.69,-47.87,1976,-5955,5401,-1,0,0
22.59,13.68,-47.87,1971,-5954,5409,-1,0,0
22.60,13.67,-47.88,1965,-5962,5408,-1,0,-1
22.60,13.67,-47.90,1966,-5970,5413,-1,0,-1
22.60,13.66,-47.90,1967,-5971,5421,-1,0,-1
22.60,13.66,-47.92,1959,-5978,5410,-1,0,-1
22.61,13.66,-47.93,1959,-5978,5400,-1,0,-1
22.61,13.66,-47.94,1970,-5981,5396,-1,0,-1
22.62,13.66,-47.95,1974,-5978,5385,-1,0,-1
22.62,13.65,-47.95,1971,-5982,5394,-1,0,-1
22.63,13.65,-47.96,1976,-5977,5400,-1,0,-1
22.63,13.63,-47.96,1960,-5977,5400,-1,0,-1
22.63,13.63,-47.97,1958,-5978,5402,-1,0,-1
22.63,13.62,-47.98,1952,-5979,5410,-1,0,-1
22.63,13.61,-47.99,1956,-5977,5409,-1,0,-1
22.63,13.60,-47.98,1950,-5970,5408,-1,0,-1
22.64,13.59,-47.99,1953,-5967,5398,-1,0,0
22.64,13.59,-48.01,1945,-5967,5386,-1,0,-1
22.64,13.58,-48.02,1946,-5978,5396,-1,0,-1
22.63,13.57,-48.03,1955,-5982,5403,-1,0,-1
22.64,13.57,-48.04,1958,-5992,5407,-1,0,-1
22.64,13.57,-48.05,1959,-5989,5402,-1,0,-1
22.65,13.57,-48.06,1959,-5985,5401,-1,0,-1
22.66,13.57,-48.07,1959,-5977,5387,-1,0,0
22.65,13.56,-48.08,1954,-5978,5390,-1,0,-1
22.65,13.54,-48.10,1946,-5996,5388,-1,0,0
22.65,13.53,-48.11,1944,-6014,5387,-1,0,-1
22.65,13.52,-48.12,1936,-6015,5397,-1,0,0
22.65,13.52,-48.12,1930,-6015,5389,-1,0,-1
22.65,13.51,-48.13,1918,-6005,5384,-1,0,-1
22.66,13.52,-48.13,1934,-6004,5375,-1,-1,-1
22.66,13.52,-48.13,1943,-5999,5373,0,0,-1
22.67,13.53,-48.13,1954,-5986,5387,-1,0,-1
22.67,13.53,-48.13,1951,-5978,5389,-1,0,0
22.67,13.52,-48.12,1949,-5986,5385,-1,0,0
22.67,13.52,-48.12,1943,-5989,5386,0,0,0
22.66,13.51,-48.12,1936,-5999,5388,-1,-1,0
22.67,13.52,-48.12,1932,-6004,5381,0,-1,-1
22.67,13.53,-48.13,1932,-6001,5383,-1,-1,-1
22.67,13.53,-48.13,1941,-6004,5373,-1,-1,-1
22.68,13.54,-48.13,1948,-6003,5371,0,-1,-1
22.67,13.54,-48.13,1951,-6006,5375,0,-1,-1
22.68,13.55,-48.12,1947,-6002,5374,0,-1,-1
22.68,13.56,-48.11,1943,-6004,5374,0,-1,-1
22.69,13.56,-48.10,1953,-5998,5379,0,-1,-1
22.69,13.56,-48.09,1949,-5984,5378,0,-1,0
22.69,13.57,-48.07,1950,-5978,5395,0,-1,0
22.69,13.57,-48.07,1954,-5985,5388,-1,-1,0
22.69,13.57,-48.06,1950,-5989,5391,0,0,0
22.69,13.57,-48.06,1930,-5985,5389,-1,-1,0
22.69,13.58,-48.06,1930,-5983,5384,0,-1,-1
22.70,13.58,-48.06,1936,-5985,5384,-1,-1,-1
22.70,13.59,-48.06,1942,-5993,5382,0,-1,-1
22.70,13.59,-48.05,1951,-5991,5377,0,-1,-1
22.71,13.61,-48.05,1953,-5990,5382,0,-1,-1
22.70,13.61,-48.04,1953,-5985,5386,0,-1,0
22.70,13.61,-48.03,1955,-5988,5385,0,0,0
22.70,13.60,-48.02,1950,-5992,5397,0,0,0
22.70,13.60,-48.02,1952,-5993,5398,0,-1,0
22.71,13.60,-48.01,1947,-5995,5390,0,-1,-1
22.71,13.61,-48.00,1951,-5987,5399,0,-1,-1
22.71,13.62,-48.00,1949,-5985,5398,0,-1,-1
22.71,13.61,-47.99,1949,-5986,5397,0,-1,0
22.71,13.61,-48.00,1947,-5978,5400,0,-1,0
22.71,13.61,-48.00,1945,-5978,5397,-1,-1,0
22.71,13.62,-48.00,1944,-5990,5401,-1,-1,-1
22.71,13.62,-48.00,1946,-5999,5399,0,-1,-1
22.71,13.61,-47.99,1946,-5997,5412,0,0,-1
22.71,13.62,-47.98,1952,-5984,5401,0,-1,-1
22.72,13.63,-47.97,1959,-5967,5408,-1,-1,-1
22.72,13.63,-47.97,1967,-5964,5398,0,-1,0
22.72,13.64,-47.98,1970,-5975,5401,-1,-1,0
22.71,13.63,-47.97,1967,-5981,5412,-1,0,0
22.71,13.62,-47.98,1954,-5991,5402,-1,0,0
22.70,13.62,-47.98,1944,-5998,5394,0,-1,-1
22.71,13.62,-47.98,1949,-6003,5400,0,-1,-1
22.71,13.63,-47.97,1947,-5997,5405,0,-1,-1
22.72,13.64,-47.96,1958,-5985,5397,0,-1,-1
22.72,13.65,-47.95,1972,-5977,5392,0,-1,-1
22.72,13.65,-47.95,1977,-5974,5402,0,0,0
22.72,13.65,-47.94,1974,-5974,5408,0,0,0
22.71,13.64,-47.92,1962,-5966,5413,0,-1,0
22.71,13.65,-47.92,1962,-5966,5410,0,-1,0
22.71,13.65,-47.91,1955,-5977,5422,0,-1,0
22.71,13.64,-47.92,1952,-5974,5425,0,-1,0
22.71,13.65,-47.91,1957,-5979,5431,-1,-1,-1
22.71,13.65,-47.91,1966,-5977,5424,-1,-1,-1
22.71,13.66,-47.91,1962,-5975,5410,-1,-1,-1
22.72,13.66,-47.91,1969,-5978,5410,-1,-1,-1
22.72,13.67,-47.91,1974,-5988,5405,0,-1,-1
22.72,13.67,-47.90,1969,-5982,5407,0,0,-1
22.72,13.66,-47.89,1964,-5969,5408,0,0,-1
22.73,13.67,-47.88,1965,-5959,5400,0,0,0
22.72,13.67,-47.87,1975,-5950,5405,0,-1,0
22.72,13.67,-47.86,1969,-5949,5409,0,0,0
22.72,13.67,-47.86,1968,-5967,5415,0,-1,-1
22.73,13.67,-47.86,1967,-5964,5430,-1,0,0
22.72,13.67,-47.87,1959,-5970,5415,-1,-1,-1
22.73,13.67,-47.86,1957,-5970,5411,-1,-1,-1
22.73,13.68,-47.87,1965,-5965,5411,-1,-1,-1
22.74,13.69,-47.87,1977,-5968,5412,0,-1,-1
22.74,13.69,-47.86,1969,-5967,5402,0,0,-1
22.73,13.69,-47.86,1973,-5964,5403,0,0,0
22.73,13.69,-47.86,1972,-5967,5403,0,0,0
22.74,13.69,-47.86,1968,-5972,5406,0,0,-1
22.74,13.69,-47.84,1961,-5970,5407,0,0,0
22.74,13.69,-47.84,1962,-5966,5414,0,-1,-1
22.74,13.69,-47.83,1965,-5963,5420,0,-1,-1
22.74,13.69,-47.83,1969,-5965,5419,-1,-1,-1
22.74,13.70,-47.83,1977,-5961,5414,-1,-1,-1
22.74,13.70,-47.83,1975,-5966,5408,-1,-1,-1
22.75,13.71,-47.83,1977,-5969,5410,0,0,0
22.75,13.71,-47.82,1973,-5955,5411,0,0,0
22.75,13.71,-47.82,1968,-5963,5409,-1,-1,0
22.75,13.71,-47.82,1965,-5967,5405,0,-1,-1
22.74,13.71,-47.82,1968,-5970,5406,0,-1,0
22.75,13.71,-47.81,1974,-5969,5408,0,-1,-1
22.75,13.72,-47.81,1974,-5967,5411,0,-1,-1
22.75,13.73,-47.80,1979,-5959,5415,0,-1,-1
22.75,13.72,-47.80,1973,-5950,5410,0,0,0
22.75,13.72,-47.80,1978,-5942,5411,-1,-1,0
22.75,13.73,-47.80,1974,-5948,5417,-1,-1,0
22.74,13.72,-47.80,1974,-5956,5418,-1,0,0
22.74,13.73,-47.81,1973,-5984,5408,0,-1,0
22.74,13.73,-47.80,1972,-5978,5421,0,-1,0
22.75,13.73,-47.79,1961,-5977,5414,0,-1,-1
22.75,13.74,-47.78,1963,-5964,5416,0,-1,-1
22.76,13.75,-47.76,1975,-5953,5411,0,-1,-1
22.76,13.76,-47.75,1987,-5950,5411,0,-1,0
22.76,13.76,-47.75,1992,-5952,5416,0,0,0
22.76,13.76,-47.74,1994,-5948,5428,0,-1,0
22.76,13.76,-47.73,1985,-5943,5429,0,0,0
22.76,13.75,-47.73,1968,-5948,5436,-1,0,0
22.76,13.75,-47.73,1967,-5949,5441,-1,-1,-1
22.76,13.75,-47.74,1966,-5958,5436,-1,-1,-1
22.76,13.76,-47.75,1974,-5965,5433,-1,0,-1
22.76,13.76,-47.76,1983,-5962,5419,-1,0,-1
22.76,13.76,-47.77,1977,-5966,5417,-1,0,-1
22.77,13.75,-47.78,1978,-5968,5410,-1,0,-1
22.77,13.76,-47.78,1980,-5960,5418,-1,0,-1
22.77,13.75,-47.77,1978,-5962,5411,-1,0,-1
22.78,13.74,-47.77,1979,-5950,5408,0,0,-1
22.78,13.74,-47.76,1977,-5945,5416,-1,0,-1
22.78,13.73,-47.76,1979,-5946,5423,-1,0,0
22.78,13.73,-47.76,1970,-5946,5425,-1,0,-1
22.79,13.73,-47.78,1969,-5951,5421,-1,0,-1
22.78,13.72,-47.79,1966,-5958,5417,-1,0,-1
22.79,13.72,-47.80,1964,-5964,5409,-1,0,-1
22.79,13.71,-47.81,1964,-5958,5400,-1,0,-1
22.80,13.72,-47.82,1967,-5960,5411,-1,0,-1
22.80,13.72,-47.83,1970,-5965,5401,-1,0,-1
22.81,13.72,-47.84,1984,-5981,5400,-1,0,-1
22.81,13.71,-47.84,1975,-5975,5421,-1,0,-1
22.80,13.70,-47.85,1967,-5980,5408,-1,0,-1
22.81,13.69,-47.85,1966,-5974,5410,-1,0,-1
22.81,13.69,-47.85,1972,-5972,5418,-1,0,-1
22.82,13.69,-47.85,1974,-5975,5420,-1,0,-1
22.82,13.69,-47.86,1974,-5971,5410,-1,0,-1
22.83,13.68,-47.86,1975,-5969,5415,-1,0,0
22.83,13.68,-47.87,1973,-5955,5406,-1,0,-1
22.83,13.67,-47.88,1972,-5962,5402,-1,0,-1
22.83,13.66,-47.90,1955,-5968,5395,-1,0,-1
22.83,13.65,-47.91,1951,-5979,5399,-1,0,-1
22.84,13.65,-47.91,1962,-5977,5416,-1,0,-1
22.84,13.65,-47.92,1969,-5975,5414,-1,0,-1
22.84,13.65,-47.92,1967,-5975,5414,-1,0,-1
22.85,13.64,-47.93,1964,-5964,5406,-1,0,-1
22.85,13.63,-47.94,1966,-5962,5407,-1,0,-1
22.85,13.63,-47.95,1964,-5973,5407,-1,0,0
22.85,13.62,-47.96,1961,-5986,5408,-1,0,0
22.85,13.60,-47.98,1951,-5991,5404,-1,0,-1
22.85,13.59,-47.99,1941,-5982,5411,-1,0,-1
22.85,13.58,-48.00,1935,-5986,5408,-1,0,-1
22.85,13.57,-48.01,1937,-5985,5400,-1,0,-1
22.86,13.57,-48.02,1951,-5985,5402,-1,0,-1
22.87,13.58,-48.04,1953,-5983,5401,-1,0,-1
22.87,13.57,-48.06,1963,-5995,5387,-1,0,-1
22.87,13.56,-48.07,1959,-5987,5387,-1,0,-1
22.87,13.55,-48.07,1949,-5983,5396,-1,0,0
22.87,13.53,-48.08,1942,-5983,5403,-1,0,-1
22.87,13.53,-48.09,1947,-5985,5404,-1,0,-1
22.87,13.52,-48.11,1945,-5994,5407,-1,0,-1
22.87,13.52,-48.12,1945,-6006,5385,-1,0,-1
22.87,13.51,-48.13,1939,-5997,5387,-1,0,-1
22.87,13.51,-48.15,1936,-5997,5396,-1,0,-1
22.87,13.50,-48.16,1935,-5998,5378,-1,0,-1
22.88,13.51,-48.16,1944,-6005,5385,-1,0,-1
22.88,13.51,-48.16,1949,-6006,5383,-1,0,-1
22.88,13.51,-48.16,1958,-6000,5372,0,0,0
22.89,13.52,-48.16,1951,-5993,5385,-1,-1,-1
22.89,13.52,-48.16,1949,-5999,5391,0,0,-1
22.89,13.51,-48.16,1946,-6000,5392,0,0,-1
22.89,13.52,-48.15,1946,-6006,5392,0,-1,0
22.89,13.52,-48.15,1941,-6001,5393,0,-1,0
22.89,13.52,-48.14,1937,-5993,5394,0,-1,0
22.90,13.53,-48.14,1940,-6005,5380,0,-1,-1
22.90,13.53,-48.13,1943,-6003,5386,0,-1,-1
22.90,13.54,-48.13,1942,-6002,5380,0,-1,-1
22.91,13.54,-48.11,1946,-5996,5378,0,-1,-1
22.91,13.55,-48.10,1957,-5991,5390,0,-1,-1
22.92,13.56,-48.09,1960,-5990,5390,0,-1,0
22.92,13.57,-48.08,1960,-5993,5385,0,-1,0
22.92,13.58,-48.07,1956,-5991,5389,0,-1,0
22.92,13.58,-48.05,1959,-5982,5397,0,-1,-1
22.92,13.58,-48.04,1950,-5985,5402,0,-1,0
22.92,13.58,-48.03,1944,-5985,5399,0,-1,0
22.92,13.59,-48.02,1941,-5982,5400,0,-1,0
22.92,13.58,-48.02,1942,-5984,5396,0,-1,0
22.91,13.59,-48.01,1945,-5988,5403,0,-1,0
22.91,13.60,-48.01,1948,-5991,5395,0,-1,0
22.92,13.60,-48.01,1950,-5985,5399,0,-1,0
22.91,13.61,-48.00,1961,-5981,5392,0,-1,0
22.92,13.61,-48.00,1965,-5982,5393,0,-1,0
22.91,13.62,-48.00,1964,-5989,5381,0,-1,0
22.92,13.61,-47.99,1954,-5996,5389,0,-1,0
22.91,13.62,-47.99,1953,-5989,5394,0,-1,0
22.90,13.61,-47.99,1944,-5994,5400,-1,-1,0
22.90,13.61,-47.99,1946,-5992,5385,0,0,0
22.90,13.61,-47.99,1940,-6005,5382,0,-1,0
22.90,13.61,-47.99,1941,-6000,5388,0,-1,-1
22.90,13.62,-47.98,1940,-5990,5392,0,-1,-1
22.90,13.62,-47.98,1952,-5971,5397,0,-1,0
22.90,13.62,-47.98,1951,-5980,5394,-1,0,0
22.90,13.62,-47.99,1959,-5985,5384,-1,0,-1
22.90,13.62,-48.00,1963,-5978,5401,-1,-1,0
22.89,13.61,-47.99,1948,-5969,5416,-1,0,0
22.88,13.62,-48.01,1958,-5981,5402,-1,-1,0
22.87,13.60,-48.02,1939,-5981,5400,-1,0,0
22.87,13.61,-48.02,1955,-5985,5397,-1,-1,0
22.87,13.61,-48.03,1937,-5989,5386,-1,-1,-1
22.87,13.63,-48.05,1960,-6022,5399,-1,-1,-1
22.87,13.64,-48.05,1971,-6010,5389,0,-1,-1
22.87,13.64,-48.04,1962,-6006,5378,0,-1,-1
22.87,13.64,-48.04,1961,-6002,5362,0,-1,0
22.88,13.65,-48.02,1954,-5993,5371,0,-1,-1
22.88,13.65,-48.00,1974,-5993,5386,0,-1,0
22.88,13.66,-47.99,1968,-5999,5381,0,-1,0
22.87,13.65,-47.98,1954,-6006,5378,0,-1,0
22.87,13.66,-47.96,1959,-5989,5396,0,0,0
22.87,13.66,-47.93,1949,-5978,5409,0,-1,0
22.87,13.65,-47.92,1943,-5979,5400,0,-1,0
22.87,13.66,-47.91,1956,-5991,5403,0,-1,-1
22.87,13.66,-47.89,1950,-5980,5420,0,-1,0
22.87,13.67,-47.89,1945,-5988,5414,0,-1,-1
22.87,13.68,-47.89,1951,-5989,5405,0,-1,0
22.86,13.68,-47.88,1958,-5984,5413,0,-1,0
22.87,13.69,-47.87,1963,-5983,5404,0,-1,0
22.87,13.70,-47.86,1966,-5978,5409,0,-1,0
22.87,13.71,-47.85,1969,-5981,5395,0,-1,0
22.87,13.71,-47.84,1969,-5969,5409,0,-1,0
22.87,13.71,-47.83,1964,-5974,5417,0,-1,0
22.87,13.71,-47.82,1961,-5977,5423,0,-1,-1
22.86,13.72,-47.81,1961,-5976,5419,0,-1,-1
22.86,13.72,-47.80,1962,-5980,5413,0,-1,-1
22.87,13.73,-47.80,1965,-5982,5409,0,-1,0
22.87,13.73,-47.79,1968,-5969,5409,0,-1,0
22.87,13.73,-47.78,1964,-5958,5404,0,-1,0
22.86,13.74,-47.77,1967,-5962,5402,0,-1,0
22.86,13.74,-47.77,1966,-5973,5411,0,-1,0
22.85,13.73,-47.77,1966,-5977,5410,0,-1,0
22.86,13.74,-47.75,1972,-5968,5417,0,-1,0
22.85,13.74,-47.74,1966,-5968,5413,0,-1,-1
22.86,13.75,-47.73,1969,-5958,5434,0,-1,0
22.86,13.75,-47.72,1970,-5958,5425,0,-1,0
22.85,13.76,-47.72,1973,-5955,5426,0,-1,0
22.85,13.75,-47.72,1975,-5958,5419,0,-1,0
22.84,13.75,-47.72,1959,-5975,5417,-1,-1,0
22.83,13.75,-47.72,1961,-5986,5419,0,-1,0
22.84,13.75,-47.71,1943,-5983,5412,0,-1,-1
22.84,13.75,-47.70,1948,-5981,5408,0,-1,-1
22.84,13.76,-47.69,1958,-5969,5413,0,-1,-1
22.85,13.77,-47.69,1980,-5965,5415,0,-1,0
22.84,13.77,-47.69,1986,-5962,5420,-1,0,0
22.83,13.76,-47.70,1993,-5962,5420,-1,0,0
22.83,13.75,-47.69,1974,-5950,5438,-1,0,0
22.82,13.74,-47.71,1952,-5957,5428,-1,-1,0
