Yaw,Pitch,Roll,AX,AY,AZ,GX,GY,GZ
161.34,-176.33,-112.50,-541,-7772,-3224,-1,0,-1
161.33,-176.32,-112.50,-544,-7773,-3227,0,0,0
161.33,-176.33,-112.51,-537,-7772,-3230,0,0,-1
161.33,-176.33,-112.50,-535,-7769,-3222,0,0,-1
161.34,-176.33,-112.50,-530,-7767,-3217,0,0,0
161.33,-176.33,-112.50,-533,-7770,-3217,-1,-1,0
161.34,-176.33,-112.49,-535,-7773,-3212,-1,-1,0
161.33,-176.33,-112.50,-544,-7774,-3220,-1,-1,0
161.33,-176.33,-112.51,-546,-7773,-3224,-1,-1,0
161.33,-176.33,-112.51,-548,-7776,-3223,0,0,0
161.33,-176.33,-112.51,-549,-7770,-3226,0,-1,0
161.33,-176.33,-112.51,-541,-7777,-3227,0,0,-1
161.33,-176.33,-112.51,-548,-7783,-3236,0,-1,0
161.33,-176.33,-112.51,-542,-7779,-3229,0,-1,0
161.33,-176.32,-112.50,-542,-7786,-3217,0,0,0
161.33,-176.32,-112.50,-542,-7776,-3213,-1,0,0
161.33,-176.32,-112.50,-535,-7772,-3207,-1,0,-1
161.32,-176.32,-112.51,-536,-7771,-3220,-1,-1,0
161.33,-176.33,-112.51,-530,-7771,-3228,-1,-1,0
161.33,-176.33,-112.51,-537,-7776,-3234,0,0,-1
161.33,-176.33,-112.51,-533,-7771,-3232,0,-1,-1
161.32,-176.32,-112.51,-541,-7764,-3230,-1,-1,0
161.32,-176.32,-112.51,-538,-7767,-3230,-1,-1,0
161.32,-176.32,-112.52,-540,-7765,-3239,-1,-1,0
161.31,-176.32,-112.52,-538,-7766,-3243,-1,-1,0
161.30,-176.31,-112.53,-545,-7769,-3241,0,-1,0
161.31,-176.31,-112.52,-548,-7759,-3234,0,-1,0
161.31,-176.31,-112.52,-543,-7767,-3224,0,-1,0
161.31,-176.31,-112.52,-543,-7770,-3218,0,-1,0
161.31,-176.31,-112.52,-549,-7780,-3219,-1,-1,0
161.30,-176.30,-112.52,-544,-7776,-3221,-1,-1,0
161.30,-176.30,-112.52,-541,-7767,-3219,-1,-1,0
161.29,-176.30,-112.53,-542,-7764,-3233,-1,-1,0
161.29,-176.30,-112.53,-543,-7769,-3233,0,-1,0
161.30,-176.30,-112.53,-539,-7770,-3236,0,-1,-1
161.30,-176.30,-112.52,-534,-7768,-3219,0,0,0
161.30,-176.30,-112.52,-548,-7770,-3219,-1,0,-1
161.30,-176.30,-112.52,-551,-7767,-3226,0,-1,0
161.30,-176.30,-112.52,-542,-7771,-3215,-1,-1,0
161.30,-176.30,-112.52,-543,-7765,-3222,0,-1,0
161.29,-176.29,-112.52,-538,-7756,-3221,-1,-1,0
161.29,-176.29,-112.53,-541,-7764,-3224,-1,0,0
161.29,-176.29,-112.53,-548,-7770,-3244,-1,-1,0
161.28,-176.29,-112.53,-553,-7770,-3232,-1,-1,0
161.28,-176.28,-112.54,-550,-7775,-3236,0,-1,0
161.28,-176.28,-112.54,-543,-7771,-3234,0,-1,0
161.27,-176.28,-112.54,-545,-7770,-3228,0,-1,0
161.27,-176.28,-112.54,-548,-7767,-3230,-1,-1,0
161.27,-176.27,-112.54,-552,-7762,-3229,0,-1,0
161.27,-176.27,-112.54,-555,-7767,-3232,0,-1,0
161.27,-176.26,-112.54,-550,-7771,-3229,0,-1,0
161.27,-176.26,-112.54,-554,-7769,-3227,0,-1,0
161.27,-176.26,-112.54,-559,-7771,-3230,-1,-1,0
161.26,-176.26,-112.54,-554,-7774,-3232,0,-1,0
161.26,-176.26,-112.54,-554,-7769,-3247,0,-1,0
161.26,-176.25,-112.54,-546,-7767,-3234,0,-1,0
161.26,-176.25,-112.54,-542,-7764,-3231,-1,-1,0
161.26,-176.25,-112.54,-545,-7771,-3236,-1,-1,0
161.26,-176.25,-112.54,-541,-7776,-3228,0,-1,0
161.26,-176.25,-112.54,-544,-7777,-3223,-1,-1,0
161.26,-176.25,-112.54,-550,-7771,-3241,0,-1,0
161.26,-176.25,-112.54,-549,-7763,-3226,0,-1,0
161.26,-176.25,-112.54,-553,-7774,-3230,0,-1,-1
161.26,-176.25,-112.54,-546,-7769,-3234,0,-1,0
161.26,-176.25,-112.53,-548,-7770,-3224,0,-1,-1
161.26,-176.24,-112.54,-551,-7764,-3228,0,-1,0
161.26,-176.24,-112.53,-553,-7760,-3227,0,-1,0
161.26,-176.24,-112.53,-558,-7773,-3228,0,-1,-1
161.28,-176.25,-112.52,-555,-7783,-3232,0,-1,-1
161.28,-176.25,-112.52,-555,-7779,-3228,0,-1,-1
161.28,-176.24,-112.51,-557,-7770,-3219,0,-1,0
161.29,-176.25,-112.50,-553,-7764,-3212,0,-1,0
161.29,-176.24,-112.50,-548,-7769,-3217,0,-1,-1
161.30,-176.25,-112.49,-547,-7774,-3227,0,-1,-1
161.30,-176.25,-112.49,-550,-7775,-3233,0,-1,-1
161.30,-176.25,-112.49,-553,-7772,-3226,0,-1,-1
161.32,-176.25,-112.48,-552,-7772,-3221,0,0,-1
161.32,-176.25,-112.48,-553,-7776,-3220,0,0,-1
161.32,-176.26,-112.48,-546,-7780,-3220,-1,0,-1
161.32,-176.26,-112.48,-547,-7773,-3211,-1,0,-1
161.32,-176.26,-112.48,-549,-7768,-3209,-1,0,-1
161.32,-176.26,-112.48,-550,-7769,-3211,-1,0,0
161.32,-176.26,-112.48,-551,-7771,-3219,0,0,-1
161.32,-176.27,-112.49,-548,-7774,-3235,-1,0,-1
161.31,-176.26,-112.49,-554,-7780,-3230,0,-1,-1
161.31,-176.26,-112.49,-561,-7779,-3227,0,-1,-1
161.32,-176.27,-112.49,-554,-7770,-3219,0,0,-1
161.32,-176.27,-112.49,-546,-7771,-3226,-1,0,-1
161.32,-176.27,-112.49,-547,-7778,-3240,0,0,-1
161.32,-176.27,-112.49,-550,-7775,-3234,0,0,0
161.32,-176.27,-112.49,-547,-7772,-3222,0,0,-1
161.33,-176.28,-112.48,-546,-7768,-3213,-1,0,-1
161.32,-176.28,-112.49,-544,-7763,-3219,-1,0,-1
161.32,-176.28,-112.49,-540,-7762,-3222,-1,0,0
161.33,-176.29,-112.49,-539,-7762,-3229,-1,0,-1
161.33,-176.29,-112.49,-540,-7759,-3219,-1,0,0
161.33,-176.29,-112.49,-539,-7756,-3217,-1,0,0
161.32,-176.29,-112.50,-538,-7763,-3225,-1,0,0
161.32,-176.29,-112.50,-542,-7766,-3217,0,0,-1
161.32,-176.29,-112.50,-541,-7769,-3220,-1,0,-1
161.32,-176.29,-112.50,-539,-7776,-3224,-1,0,0
161.32,-176.30,-112.50,-535,-7770,-3226,-1,0,-1
161.32,-176.30,-112.51,-535,-7771,-3226,-1,0,0
161.32,-176.30,-112.51,-534,-7767,-3237,-1,0,0
161.32,-176.30,-112.52,-532,-7770,-3233,-1,0,0
161.31,-176.30,-112.52,-538,-7770,-3223,-1,0,-1
161.31,-176.30,-112.52,-545,-7764,-3222,-1,0,-1
161.31,-176.30,-112.52,-539,-7774,-3223,-1,0,0
161.31,-176.30,-112.52,-542,-7773,-3227,0,0,0
161.31,-176.30,-112.52,-542,-7767,-3227,0,0,-1
161.31,-176.30,-112.52,-550,-7776,-3222,-1,0,-1
161.32,-176.31,-112.51,-540,-7779,-3217,-1,0,-1
161.32,-176.31,-112.52,-531,-7775,-3217,-1,0,0
161.32,-176.31,-112.52,-540,-7772,-3225,-1,0,0
161.32,-176.31,-112.52,-541,-7766,-3210,-1,0,0
161.31,-176.31,-112.53,-543,-7766,-3211,-1,0,-1
161.31,-176.31,-112.53,-546,-7771,-3237,0,0,0
161.31,-176.31,-112.53,-548,-7770,-3234,0,0,-1
161.31,-176.31,-112.53,-549,-7770,-3225,0,0,0
161.31,-176.31,-112.52,-547,-7769,-3214,-1,0,-1
161.31,-176.31,-112.52,-552,-7776,-3208,-1,0,-1
161.30,-176.31,-112.53,-547,-7770,-3216,-1,0,-1
161.30,-176.31,-112.53,-547,-7766,-3216,-1,0,-1
161.31,-176.32,-112.52,-542,-7763,-3221,-1,0,-1
161.31,-176.32,-112.52,-546,-7768,-3212,-1,0,0
161.31,-176.32,-112.52,-542,-7772,-3217,-1,0,-1
161.31,-176.32,-112.52,-537,-7765,-3218,-1,0,0
161.31,-176.32,-112.52,-534,-7765,-3220,-1,0,0
161.31,-176.32,-112.52,-536,-7766,-3209,-1,0,0
161.31,-176.32,-112.52,-541,-7774,-3211,-1,0,0
161.31,-176.32,-112.52,-542,-7771,-3214,-1,0,0
161.31,-176.32,-112.52,-547,-7777,-3218,0,0,-1
161.31,-176.32,-112.52,-544,-7775,-3226,0,0,0
161.31,-176.32,-112.52,-542,-7769,-3221,0,0,0
161.30,-176.31,-112.53,-543,-7777,-3230,-1,0,-1
161.30,-176.31,-112.53,-540,-7778,-3219,-1,0,-1
161.31,-176.32,-112.52,-533,-7774,-3216,-1,0,0
161.30,-176.32,-112.53,-537,-7773,-3226,-1,-1,-1
161.31,-176.32,-112.53,-535,-7767,-3226,0,-1,0
161.30,-176.32,-112.52,-537,-7764,-3211,-1,0,0
161.30,-176.32,-112.52,-542,-7764,-3218,0,0,-1
161.30,-176.32,-112.53,-545,-7761,-3218,0,0,0
161.30,-176.32,-112.53,-544,-7765,-3219,-1,0,-1
161.30,-176.32,-112.53,-545,-7770,-3230,-1,0,0
161.30,-176.32,-112.54,-546,-7769,-3236,-1,-1,0
161.30,-176.32,-112.54,-544,-7766,-3227,-1,0,0
161.29,-176.31,-112.54,-545,-7764,-3228,-1,0,0
161.29,-176.31,-112.54,-540,-7763,-3227,0,0,-1
161.29,-176.31,-112.54,-540,-7766,-3226,0,-1,0
161.29,-176.31,-112.53,-541,-7769,-3221,0,0,0
161.29,-176.31,-112.53,-550,-7762,-3230,0,0,0
161.29,-176.31,-112.53,-556,-7766,-3224,-1,0,-1
161.29,-176.31,-112.53,-552,-7763,-3228,-1,0,-1
161.28,-176.30,-112.54,-555,-7768,-3238,0,-1,0
161.28,-176.30,-112.54,-550,-7769,-3242,0,-1,0
161.29,-176.31,-112.53,-546,-7770,-3231,0,-1,0
161.29,-176.31,-112.53,-540,-7769,-3220,0,0,-1
161.29,-176.30,-112.53,-540,-7774,-3225,-1,0,0
161.29,-176.31,-112.53,-541,-7777,-3234,-1,-1,0
161.28,-176.30,-112.54,-539,-7769,-3228,-1,-1,0
161.28,-176.30,-112.54,-539,-7766,-3233,-1,-1,0
161.28,-176.30,-112.54,-540,-7760,-3233,-1,0,-1
161.28,-176.30,-112.54,-538,-7763,-3236,-1,-1,0
161.28,-176.30,-112.54,-541,-7764,-3226,0,0,0
161.28,-176.30,-112.54,-542,-7766,-3224,0,0,0
161.28,-176.30,-112.54,-544,-7772,-3208,-1,0,0
161.28,-176.30,-112.54,-538,-7779,-3218,-1,0,-1
161.28,-176.30,-112.54,-537,-7779,-3224,-1,-1,-1
161.28,-176.30,-112.54,-537,-7777,-3213,-1,0,0
161.28,-176.30,-112.54,-534,-7776,-3215,-1,0,0
161.28,-176.30,-112.54,-531,-7772,-3215,-1,0,-1
161.28,-176.30,-112.54,-540,-7769,-3208,-1,0,0
161.28,-176.30,-112.54,-539,-7775,-3212,0,-1,0
161.28,-176.30,-112.54,-536,-7774,-3217,0,-1,0
161.28,-176.30,-112.53,-533,-7769,-3219,-1,-1,0
161.28,-176.30,-112.54,-535,-7766,-3222,-1,-1,0
161.27,-176.30,-112.54,-542,-7771,-3223,-1,0,0
161.27,-176.30,-112.54,-548,-7773,-3243,-1,0,0
161.27,-176.30,-112.54,-543,-7770,-3231,-1,0,0
161.27,-176.30,-112.54,-546,-7773,-3231,0,-1,0
161.27,-176.30,-112.54,-538,-7769,-3233,0,0,-1
161.27,-176.30,-112.54,-537,-7766,-3224,-1,0,0
161.27,-176.30,-112.55,-533,-7766,-3233,-1,0,0
161.26,-176.29,-112.55,-538,-7760,-3227,-1,0,0
161.26,-176.29,-112.55,-537,-7762,-3237,0,-1,0
161.26,-176.29,-112.55,-539,-7770,-3237,0,-1,0
161.26,-176.29,-112.55,-532,-7770,-3236,0,-1,0
161.26,-176.29,-112.55,-530,-7769,-3232,-1,0,0
161.26,-176.29,-112.56,-536,-7770,-3226,-1,-1,0
161.25,-176.29,-112.56,-546,-7764,-3234,-1,-1,0
161.25,-176.29,-112.56,-547,-7766,-3237,0,-1,-1
161.25,-176.29,-112.56,-551,-7771,-3234,0,-1,-1
161.25,-176.29,-112.56,-551,-7768,-3232,-1,-1,0
161.25,-176.29,-112.56,-551,-7775,-3232,-1,-1,-1
161.25,-176.29,-112.56,-551,-7771,-3235,0,-1,0
161.25,-176.28,-112.56,-550,-7774,-3230,0,-1,0
161.25,-176.28,-112.55,-551,-7769,-3221,0,-1,-1
161.26,-176.28,-112.55,-544,-7765,-3228,0,-1,-1
161.26,-176.28,-112.55,-546,-7763,-3225,0,-1,0
161.26,-176.28,-112.54,-544,-7757,-3226,0,-1,0
161.27,-176.28,-112.53,-545,-7756,-3226,0,-1,-1
161.28,-176.29,-112.53,-540,-7762,-3215,0,-1,-1
161.29,-176.29,-112.52,-540,-7776,-3220,0,-1,-1
161.29,-176.29,-112.52,-543,-7768,-3223,0,-1,0
161.29,-176.28,-112.52,-543,-7770,-3215,0,-1,0
161.29,-176.28,-112.52,-549,-7769,-3216,0,-1,0
161.29,-176.28,-112.51,-553,-7765,-3217,-1,0,-1
161.29,-176.28,-112.51,-553,-7771,-3226,0,-1,-1
161.29,-176.28,-112.51,-551,-7778,-3224,0,-1,-1
161.30,-176.28,-112.50,-554,-7771,-3207,0,-1,0
161.30,-176.28,-112.49,-549,-7760,-3205,0,0,0
161.30,-176.28,-112.49,-550,-7769,-3204,-1,0,-1
161.30,-176.29,-112.50,-538,-7780,-3220,-1,0,-1
161.30,-176.29,-112.50,-538,-7773,-3212,0,0,-1
161.31,-176.30,-112.49,-540,-7772,-3212,0,0,-1
161.32,-176.30,-112.49,-539,-7775,-3208,0,0,-1
161.32,-176.30,-112.49,-538,-7770,-3211,-1,0,-1
161.31,-176.30,-112.49,-534,-7774,-3225,-1,0,-1
161.32,-176.31,-112.49,-537,-7779,-3221,-1,0,-1
161.31,-176.30,-112.49,-535,-7774,-3221,-1,0,0
161.31,-176.30,-112.50,-541,-7776,-3217,-1,0,0
161.31,-176.30,-112.50,-545,-7778,-3227,-1,0,-1
161.31,-176.31,-112.51,-542,-7778,-3222,-1,0,-1
161.30,-176.31,-112.51,-544,-7775,-3221,-1,0,0
161.30,-176.31,-112.51,-548,-7779,-3223,0,0,-1
161.31,-176.31,-112.50,-541,-7772,-3218,0,0,0
161.31,-176.32,-112.51,-536,-7775,-3225,-1,0,-1
161.30,-176.32,-112.51,-541,-7773,-3217,-1,0,-1
161.31,-176.32,-112.51,-538,-7770,-3223,-1,0,-1
161.31,-176.32,-112.52,-542,-7768,-3224,-1,0,-1
161.30,-176.32,-112.52,-545,-7767,-3229,-1,0,-1
161.31,-176.32,-112.52,-544,-7769,-3219,0,0,-1
161.31,-176.33,-112.51,-532,-7769,-3217,-1,0,0
161.30,-176.33,-112.52,-536,-7771,-3233,-1,0,0
161.30,-176.33,-112.52,-538,-7776,-3232,-1,0,0
161.30,-176.33,-112.52,-551,-7771,-3227,-1,0,-1
161.29,-176.33,-112.53,-548,-7765,-3222,-1,0,-1
161.29,-176.33,-112.53,-538,-7768,-3218,0,0,0
161.29,-176.32,-112.52,-539,-7768,-3214,0,0,0
161.29,-176.32,-112.52,-539,-7768,-3219,-1,0,-1
161.30,-176.33,-112.52,-541,-7769,-3216,0,0,0
161.30,-176.33,-112.52,-543,-7767,-3210,-1,0,-1
161.30,-176.33,-112.52,-538,-7768,-3215,-1,0,0
161.30,-176.33,-112.52,-538,-7768,-3214,0,0,0
161.30,-176.33,-112.52,-542,-7768,-3215,0,0,0
161.30,-176.33,-112.51,-544,-7777,-3215,-1,0,-1
161.30,-176.33,-112.51,-536,-7788,-3222,0,0,-1
161.30,-176.33,-112.51,-538,-7792,-3214,-1,0,-1
161.30,-176.33,-112.51,-535,-7783,-3217,-1,-1,0
161.30,-176.34,-112.52,-536,-7767,-3217,-1,0,0
161.30,-176.34,-112.52,-545,-7765,-3221,-1,0,0
161.29,-176.33,-112.52,-547,-7769,-3224,-1,0,-1
161.29,-176.33,-112.53,-548,-7779,-3224,0,0,0
161.29,-176.33,-112.52,-549,-7774,-3227,0,0,-1
161.29,-176.33,-112.52,-551,-7766,-3218,0,0,-1
161.29,-176.33,-112.52,-546,-7768,-3226,-1,0,-1
161.29,-176.33,-112.53,-541,-7766,-3214,-1,0,-1
161.30,-176.34,-112.52,-540,-7776,-3215,-1,0,-1
161.30,-176.34,-112.52,-540,-7778,-3224,-1,-1,-1
161.30,-176.34,-112.52,-535,-7766,-3222,0,0,0
161.30,-176.34,-112.52,-535,-7769,-3225,0,0,0
161.30,-176.34,-112.52,-536,-7774,-3228,-1,0,-1
161.30,-176.34,-112.52,-543,-7775,-3211,-1,0,-1
161.30,-176.34,-112.52,-537,-7775,-3225,-1,0,0
161.30,-176.34,-112.52,-528,-7776,-3223,0,-1,0
161.30,-176.34,-112.52,-539,-7767,-3222,-1,0,-1
161.29,-176.34,-112.53,-550,-7766,-3224,-1,0,0
161.29,-176.34,-112.53,-551,-7777,-3239,0,0,-1
161.29,-176.34,-112.53,-546,-7775,-3231,0,0,0
161.29,-176.34,-112.53,-536,-7772,-3224,0,0,-1
161.29,-176.34,-112.52,-536,-7776,-3225,-1,0,-1
161.29,-176.34,-112.52,-534,-7785,-3222,-1,-1,0
161.29,-176.34,-112.53,-543,-7778,-3222,-1,0,0
161.29,-176.34,-112.53,-541,-7769,-3229,-1,0,0
161.29,-176.34,-112.53,-540,-7767,-3223,-1,0,-1
161.29,-176.34,-112.53,-541,-7771,-3223,-1,0,-1
161.29,-176.34,-112.53,-535,-7775,-3231,-1,0,-1
161.29,-176.34,-112.53,-529,-7781,-3233,-1,0,0
161.28,-176.34,-112.53,-538,-7776,-3222,-1,0,0
161.28,-176.33,-112.53,-539,-7771,-3222,-1,0,0
161.28,-176.34,-112.53,-539,-7773,-3220,0,0,0
161.28,-176.34,-112.53,-536,-7769,-3222,-1,0,0
161.28,-176.34,-112.53,-539,-7780,-3225,-1,0,0
161.28,-176.34,-112.54,-540,-7783,-3231,-1,0,-1
161.28,-176.34,-112.54,-534,-7771,-3223,-1,0,-1
161.28,-176.34,-112.54,-531,-7767,-3225,-1,0,0
161.28,-176.34,-112.54,-537,-7765,-3230,0,-1,0
161.28,-176.34,-112.53,-540,-7756,-3215,0,0,0
161.28,-176.34,-112.53,-540,-7765,-3211,-1,0,-1
161.28,-176.34,-112.53,-541,-7775,-3222,-1,-1,-1
161.28,-176.34,-112.53,-542,-7781,-3216,-1,-1,0
161.28,-176.34,-112.53,-540,-7780,-3213,-1,-1,0
161.28,-176.33,-112.53,-543,-7773,-3216,-1,0,0
161.28,-176.33,-112.53,-549,-7771,-3221,-1,0,0
161.27,-176.33,-112.53,-557,-7770,-3228,-1,0,0
161.27,-176.33,-112.53,-552,-7774,-3222,0,0,0
161.27,-176.32,-112.53,-552,-7776,-3224,0,-1,0
161.27,-176.32,-112.52,-547,-7772,-3221,0,-1,-1
161.28,-176.32,-112.52,-545,-7767,-3218,-1,0,-1
161.28,-176.33,-112.52,-536,-7764,-3223,-1,0,-1
161.28,-176.32,-112.52,-539,-7761,-3227,-1,0,0
161.27,-176.32,-112.53,-538,-7763,-3221,-1,0,0
161.28,-176.32,-112.52,-534,-7769,-3220,0,-1,0
161.28,-176.32,-112.52,-536,-7769,-3221,0,-1,-1
161.28,-176.32,-112.52,-531,-7769,-3228,0,-1,0
161.28,-176.32,-112.52,-535,-7776,-3223,-1,-1,0
161.28,-176.32,-112.52,-539,-7772,-3214,-1,-1,0
161.28,-176.32,-112.52,-553,-7777,-3221,-1,0,-1
161.28,-176.32,-112.52,-550,-7776,-3227,-1,0,0
161.28,-176.32,-112.52,-552,-7769,-3223,0,-1,0
161.28,-176.32,-112.52,-550,-7774,-3232,0,-1,0
161.28,-176.32,-112.52,-546,-7774,-3224,0,-1,0
161.28,-176.31,-112.51,-547,-7767,-3223,-1,-1,-1
161.28,-176.32,-112.52,-542,-7776,-3218,-1,-1,-1
161.28,-176.32,-112.52,-546,-7775,-3226,-1,-1,0
161.27,-176.31,-112.52,-546,-7776,-3219,0,0,-1
161.28,-176.31,-112.52,-539,-7772,-3218,0,-1,-1
161.28,-176.31,-112.52,-535,-7769,-3209,-1,-1,-1
161.28,-176.31,-112.52,-533,-7769,-3208,-1,-1,0
161.29,-176.32,-112.51,-534,-7763,-3215,-1,0,0
161.28,-176.32,-112.52,-536,-7770,-3234,0,0,0
161.27,-176.31,-112.52,-537,-7780,-3229,-1,0,0
161.27,-176.31,-112.52,-544,-7776,-3225,-1,0,0
161.27,-176.31,-112.52,-544,-7775,-3221,-1,0,0
161.27,-176.31,-112.52,-539,-7771,-3223,-1,0,0
161.26,-176.31,-112.53,-540,-7774,-3225,-1,0,0
161.26,-176.31,-112.53,-541,-7773,-3228,-1,-1,0
161.26,-176.30,-112.53,-536,-7766,-3214,0,0,0
161.26,-176.30,-112.53,-531,-7759,-3223,0,0,0
161.25,-176.30,-112.54,-545,-7769,-3232,-1,0,0
161.25,-176.30,-112.54,-552,-7779,-3238,-1,-1,0
161.25,-176.30,-112.54,-550,-7765,-3237,0,-1,-1
161.25,-176.30,-112.54,-542,-7754,-3230,0,0,-1
161.25,-176.30,-112.53,-540,-7767,-3232,0,0,-1
161.25,-176.30,-112.53,-536,-7773,-3224,-1,-1,0
161.24,-176.29,-112.54,-547,-7774,-3223,-1,-1,0
161.24,-176.29,-112.55,-553,-7768,-3226,-1,0,0
161.23,-176.29,-112.55,-553,-7764,-3240,-1,0,0
161.23,-176.29,-112.55,-556,-7769,-3239,0,0,-1
161.24,-176.29,-112.54,-552,-7772,-3226,0,0,-1
161.24,-176.29,-112.54,-555,-7774,-3227,0,-1,0
161.24,-176.28,-112.53,-555,-7776,-3222,0,-1,0
161.24,-176.28,-112.53,-551,-7773,-3221,-1,-1,0
161.24,-176.28,-112.53,-554,-7773,-3223,0,-1,-1
161.24,-176.28,-112.53,-551,-7772,-3220,0,-1,-1
161.25,-176.28,-112.52,-551,-7772,-3217,0,-1,-1
161.25,-176.28,-112.52,-548,-7777,-3220,0,-1,-1
161.25,-176.28,-112.52,-544,-7779,-3224,0,0,-1
161.26,-176.29,-112.51,-538,-7776,-3229,0,-1,-1
161.26,-176.29,-112.51,-544,-7774,-3218,0,-1,0
161.26,-176.29,-112.51,-551,-7768,-3228,0,-1,-1
161.26,-176.28,-112.50,-554,-7771,-3219,0,-1,-1
161.26,-176.28,-112.50,-547,-7770,-3218,-1,0,-1
161.26,-176.28,-112.50,-550,-7769,-3220,0,0,-1
161.26,-176.28,-112.50,-546,-7769,-3212,0,0,0
161.26,-176.28,-112.50,-550,-7774,-3218,-1,0,-1
161.27,-176.29,-112.50,-549,-7773,-3217,0,0,-1
161.27,-176.29,-112.50,-547,-7766,-3219,-1,0,-1
161.27,-176.29,-112.50,-543,-7767,-3217,-1,0,-1
161.27,-176.29,-112.50,-541,-7774,-3226,-1,0,-1
161.27,-176.29,-112.50,-543,-7772,-3225,-1,0,0
161.27,-176.30,-112.51,-542,-7775,-3225,-1,0,-1
161.27,-176.30,-112.51,-543,-7775,-3231,-1,0,-1
161.27,-176.30,-112.51,-543,-7777,-3229,0,0,-1
161.27,-176.30,-112.51,-542,-7774,-3224,0,0,-1
161.28,-176.31,-112.50,-547,-7766,-3221,-1,0,0
161.28,-176.31,-112.50,-545,-7774,-3210,-1,0,0
161.28,-176.31,-112.50,-550,-7774,-3218,-1,0,-1
161.28,-176.31,-112.50,-549,-7777,-3230,-1,0,-1
161.27,-176.31,-112.51,-540,-7776,-3223,-1,0,-1
161.28,-176.31,-112.50,-539,-7777,-3220,0,0,-1
161.28,-176.31,-112.50,-548,-7770,-3225,0,0,-1
161.28,-176.31,-112.50,-549,-7764,-3217,0,0,-1
161.28,-176.31,-112.50,-550,-7763,-3213,-1,0,-1
161.29,-176.32,-112.50,-547,-7767,-3209,-1,0,-1
161.28,-176.32,-112.50,-549,-7771,-3209,-1,0,0
161.28,-176.32,-112.50,-544,-7767,-3216,-1,0,0
161.28,-176.32,-112.51,-545,-7765,-3215,-1,0,0
161.27,-176.32,-112.51,-544,-7761,-3218,-1,0,-1
161.27,-176.32,-112.52,-541,-7769,-3235,-1,0,-1
161.27,-176.33,-112.52,-539,-7776,-3249,0,-1,-1
161.28,-176.33,-112.51,-536,-7774,-3239,0,0,-1
161.28,-176.33,-112.51,-541,-7777,-3221,0,0,0
161.28,-176.33,-112.51,-542,-7780,-3215,0,0,-1
161.28,-176.33,-112.51,-542,-7787,-3219,-1,0,0
161.28,-176.33,-112.51,-537,-7778,-3216,-1,0,-1
161.28,-176.33,-112.51,-538,-7771,-3219,-1,0,-1
161.28,-176.33,-112.51,-544,-7765,-3218,-1,0,0
161.28,-176.34,-112.52,-541,-7764,-3215,-1,0,-1
161.28,-176.34,-112.52,-540,-7771,-3223,-1,0,-1
161.28,-176.34,-112.52,-539,-7773,-3224,-1,0,-1
161.28,-176.34,-112.52,-542,-7771,-3224,0,0,-1
161.28,-176.34,-112.52,-538,-7769,-3213,-1,0,0
161.28,-176.34,-112.52,-532,-7774,-3216,-1,0,-1
161.28,-176.35,-112.52,-539,-7774,-3230,-1,0,-1
161.28,-176.35,-112.52,-537,-7776,-3237,0,0,0
161.28,-176.34,-112.52,-537,-7776,-3223,0,0,-1
161.28,-176.34,-112.52,-539,-7776,-3216,0,0,-1
161.28,-176.34,-112.52,-542,-7777,-3217,-1,0,0
161.28,-176.34,-112.52,-540,-7778,-3219,-1,0,-1
161.29,-176.35,-112.51,-538,-7773,-3216,-1,0,-1
161.28,-176.35,-112.52,-541,-7777,-3213,-1,0,-1
161.28,-176.35,-112.52,-542,-7776,-3218,-1,0,0
161.28,-176.35,-112.52,-540,-7774,-3217,-1,0,-1
161.28,-176.35,-112.52,-535,-7770,-3225,0,0,0
161.28,-176.35,-112.52,-539,-7771,-3230,-1,0,0
161.28,-176.35,-112.52,-541,-7772,-3223,-1,0,0
161.28,-176.35,-112.52,-538,-7768,-3231,-1,0,-1
161.27,-176.35,-112.53,-537,-7771,-3238,0,0,-1
161.28,-176.35,-112.52,-531,-7771,-3228,-1,0,0
161.27,-176.35,-112.53,-533,-7773,-3232,-1,0,0
161.27,-176.35,-112.53,-540,-7778,-3234,-1,0,-1
161.27,-176.35,-112.53,-542,-7770,-3238,0,0,0
161.26,-176.34,-112.53,-543,-7765,-3232,0,0,0
161.26,-176.35,-112.53,-539,-7769,-3214,-1,0,-1
161.27,-176.35,-112.53,-536,-7772,-3218,-1,0,-1
161.27,-176.35,-112.53,-538,-7775,-3221,-1,0,-1
161.27,-176.35,-112.54,-532,-7769,-3224,-1,0,0
161.26,-176.35,-112.54,-532,-7764,-3219,-1,-1,0
161.26,-176.35,-112.54,-543,-7770,-3221,-1,0,0
161.26,-176.35,-112.54,-546,-7767,-3218,-1,0,0
161.26,-176.34,-112.53,-545,-7773,-3220,0,0,0
161.26,-176.34,-112.53,-544,-7775,-3224,0,0,-1
161.26,-176.34,-112.53,-544,-7772,-3216,0,-1,0
161.26,-176.34,-112.53,-536,-7766,-3208,-1,0,0
161.26,-176.35,-112.53,-537,-7771,-3205,-1,0,0
161.26,-176.34,-112.53,-539,-7767,-3216,-1,0,0
161.25,-176.34,-112.54,-533,-7759,-3229,-1,-1,0
161.25,-176.34,-112.54,-538,-7761,-3234,0,0,0
161.25,-176.34,-112.54,-538,-7768,-3229,-1,0,-1
161.25,-176.34,-112.54,-534,-7773,-3230,-1,0,0
161.25,-176.34,-112.54,-534,-7773,-3224,0,0,0
161.25,-176.34,-112.54,-542,-7769,-3223,-1,-1,0
161.25,-176.34,-112.53,-544,-7771,-3211,-1,0,0
161.25,-176.34,-112.54,-548,-7773,-3216,-1,0,0
161.25,-176.34,-112.54,-543,-7779,-3222,-1,0,-1
161.25,-176.34,-112.54,-543,-7780,-3229,0,-1,0
161.24,-176.33,-112.53,-546,-7775,-3218,0,-1,0
161.25,-176.33,-112.53,-534,-7764,-3217,-1,0,0
161.25,-176.33,-112.53,-536,-7768,-3223,-1,0,0
161.23,-176.33,-112.54,-538,-7776,-3233,-1,0,0
161.23,-176.33,-112.54,-538,-7772,-3237,-1,-1,0
161.23,-176.33,-112.54,-542,-7771,-3237,0,-1,0
161.23,-176.33,-112.54,-542,-7766,-3230,0,0,-1
161.23,-176.33,-112.54,-542,-7775,-3231,-1,0,-1
161.23,-176.33,-112.54,-535,-7773,-3237,-1,0,0
161.23,-176.33,-112.55,-534,-7770,-3238,-1,0,0
161.23,-176.32,-112.55,-546,-7765,-3239,0,-1,0
161.22,-176.32,-112.54,-544,-7769,-3229,0,0,0
161.22,-176.32,-112.54,-549,-7775,-3229,-1,0,0
161.22,-176.32,-112.55,-551,-7773,-3229,-1,0,-1
161.22,-176.32,-112.55,-548,-7775,-3232,0,-1,0
161.22,-176.32,-112.55,-545,-7775,-3231,-1,0,0
161.22,-176.31,-112.55,-544,-7776,-3229,-1,0,0
161.22,-176.31,-112.55,-551,-7774,-3235,0,-1,0
161.21,-176.31,-112.55,-551,-7767,-3232,0,-1,0
161.21,-176.31,-112.55,-551,-7766,-3225,0,0,0
161.21,-176.31,-112.55,-553,-7774,-3226,-1,0,-1
161.21,-176.31,-112.55,-548,-7774,-3225,-1,-1,-1
161.21,-176.31,-112.55,-544,-7772,-3226,-1,-1,-1
161.21,-176.30,-112.55,-543,-7761,-3224,-1,-1,0
161.21,-176.30,-112.55,-545,-7758,-3224,-1,0,0
161.19,-176.30,-112.57,-552,-7763,-3241,0,0,0
161.20,-176.30,-112.56,-551,-7757,-3239,0,-1,0
161.20,-176.30,-112.56,-552,-7759,-3239,-1,0,0
161.20,-176.30,-112.56,-554,-7767,-3235,-1,0,-1
161.20,-176.30,-112.56,-551,-7768,-3221,-1,0,-1
161.20,-176.30,-112.56,-547,-7766,-3220,-1,0,-1
161.20,-176.30,-112.56,-539,-7768,-3219,-1,0,0
161.20,-176.30,-112.56,-544,-7769,-3227,-1,-1,0
161.20,-176.30,-112.56,-547,-7774,-3231,0,-1,0
161.20,-176.30,-112.56,-547,-7773,-3233,0,-1,0
161.20,-176.30,-112.56,-541,-7768,-3232,0,-1,-1
161.20,-176.30,-112.56,-542,-7769,-3228,0,-1,0
161.19,-176.29,-112.55,-550,-7770,-3223,0,-1,0
161.20,-176.29,-112.55,-546,-7762,-3220,0,-1,0
161.21,-176.29,-112.54,-549,-7772,-3223,0,-1,-1
161.20,-176.28,-112.54,-555,-7768,-3231,0,-1,-1
161.20,-176.28,-112.54,-554,-7779,-3237,0,-1,-1
161.21,-176.28,-112.53,-549,-7778,-3238,0,-1,-1
161.22,-176.28,-112.52,-543,-7775,-3223,0,-1,-1
161.22,-176.28,-112.52,-540,-7773,-3218,0,-1,0
161.23,-176.29,-112.51,-552,-7770,-3216,0,-1,-1
161.23,-176.29,-112.51,-551,-7768,-3221,0,-1,-1
161.23,-176.28,-112.50,-542,-7776,-3224,0,-1,0
161.25,-176.29,-112.50,-541,-7775,-3222,0,-1,-1
161.25,-176.29,-112.50,-548,-7772,-3209,0,-1,-1
161.25,-176.29,-112.49,-548,-7770,-3205,-1,0,-1
161.25,-176.29,-112.49,-545,-7781,-3207,-1,0,0
161.25,-176.29,-112.49,-543,-7779,-3217,0,0,-1
161.25,-176.29,-112.49,-542,-7785,-3227,0,0,-1
161.25,-176.30,-112.49,-539,-7781,-3230,0,0,-1
161.25,-176.30,-112.49,-546,-7772,-3222,-1,0,-1
161.25,-176.30,-112.50,-539,-7775,-3235,0,0,0
161.25,-176.30,-112.50,-542,-7774,-3232,-1,0,0
161.25,-176.30,-112.50,-550,-7774,-3231,-1,0,-1
161.24,-176.30,-112.50,-551,-7772,-3228,-1,0,-1
161.24,-176.30,-112.51,-551,-7764,-3227,-1,0,-1
161.25,-176.31,-112.50,-549,-7766,-3223,-1,0,-1
161.24,-176.31,-112.51,-549,-7768,-3227,0,0,-1
161.25,-176.31,-112.51,-545,-7767,-3225,0,0,-1
161.25,-176.31,-112.51,-540,-7774,-3223,0,0,-1
161.25,-176.31,-112.51,-539,-7776,-3227,-1,0,-1
161.25,-176.32,-112.51,-538,-7771,-3223,-1,0,0
161.25,-176.32,-112.51,-537,-7767,-3225,-1,0,0
161.24,-176.31,-112.52,-540,-7767,-3219,-1,0,0
161.24,-176.31,-112.52,-543,-7767,-3226,-1,0,0
-179.75,-10.66,13.50,-258,-258,-258,-258,-258,-258
161.24,-176.32,-112.52,-540,-7774,-3236,0,-1,-1
161.24,-176.32,-112.52,-533,-7770,-3220,0,0,-1
161.24,-176.32,-112.52,-537,-7776,-3221,0,0,-1
161.25,-176.32,-112.51,-539,-7771,-3219,-1,0,-1
161.25,-176.33,-112.51,-539,-7775,-3209,-1,0,-1
161.26,-176.33,-112.51,-535,-7775,-3228,0,0,-1
161.26,-176.33,-112.51,-537,-7762,-3238,0,-1,-1
161.26,-176.33,-112.51,-536,-7772,-3227,0,-1,-1
161.27,-176.34,-112.51,-534,-7773,-3226,0,-1,-1
161.27,-176.34,-112.50,-534,-7771,-3218,0,-1,-1
161.28,-176.34,-112.50,-536,-7774,-3211,0,-1,-1
161.28,-176.34,-112.50,-543,-7772,-3214,0,-1,0
161.28,-176.34,-112.49,-541,-7771,-3210,-1,-1,0
161.28,-176.34,-112.49,-541,-7769,-3216,-1,-1,-1
161.28,-176.34,-112.50,-540,-7767,-3219,-1,-1,-1
161.28,-176.34,-112.50,-542,-7767,-3221,0,0,-1
161.28,-176.34,-112.50,-544,-7768,-3223,0,0,-1
161.28,-176.35,-112.50,-543,-7767,-3226,0,0,-1
161.28,-176.34,-112.50,-547,-7773,-3227,0,0,0
161.27,-176.34,-112.50,-542,-7772,-3229,-1,0,0
161.27,-176.35,-112.51,-538,-7769,-3221,-1,0,0
161.26,-176.35,-112.51,-541,-7767,-3223,-1,0,0
161.26,-176.35,-112.51,-537,-7771,-3226,0,0,0
161.26,-176.35,-112.51,-540,-7773,-3220,0,-1,-1
161.27,-176.35,-112.51,-540,-7770,-3222,-1,0,-1
161.27,-176.35,-112.51,-538,-7770,-3233,0,0,0
161.26,-176.35,-112.52,-544,-7767,-3231,-1,-1,0
161.25,-176.34,-112.52,-540,-7771,-3218,0,-1,0
161.25,-176.34,-112.52,-537,-7768,-3216,0,-1,0
161.25,-176.34,-112.52,-545,-7769,-3239,0,-1,0
161.25,-176.34,-112.52,-552,-7765,-3235,0,-1,0
161.25,-176.34,-112.52,-549,-7768,-3216,-1,-1,0
161.25,-176.34,-112.52,-546,-7774,-3215,-1,0,0
161.25,-176.34,-112.52,-545,-7781,-3226,0,0,0
161.25,-176.34,-112.52,-544,-7779,-3224,0,0,0
161.25,-176.33,-112.51,-538,-7768,-3214,0,0,0
161.26,-176.34,-112.51,-538,-7766,-3213,0,0,-1
161.26,-176.34,-112.51,-544,-7774,-3211,-1,0,-1
161.25,-176.34,-112.51,-546,-7776,-3217,-1,-1,0
161.24,-176.33,-112.52,-542,-7778,-3221,-1,-1,0
161.24,-176.33,-112.52,-543,-7774,-3218,-1,-1,0
161.24,-176.33,-112.52,-540,-7766,-3217,-1,-1,0
161.24,-176.33,-112.53,-539,-7765,-3220,-1,0,0
161.23,-176.33,-112.53,-547,-7770,-3217,0,-1,-1
161.23,-176.33,-112.53,-544,-7776,-3232,0,-1,0
161.24,-176.33,-112.52,-540,-7776,-3228,0,-1,0
161.24,-176.33,-112.52,-541,-7767,-3229,0,-1,0
161.24,-176.33,-112.52,-540,-7770,-3221,0,0,0
161.24,-176.33,-112.52,-542,-7775,-3216,-1,0,0
161.23,-176.32,-112.52,-539,-7766,-3224,-1,0,0
161.23,-176.33,-112.53,-548,-7771,-3226,0,-1,0
161.23,-176.32,-112.53,-547,-7771,-3233,-1,-1,-1
161.23,-176.33,-112.53,-539,-7768,-3238,0,0,0
161.23,-176.32,-112.53,-538,-7764,-3235,0,-1,0
161.23,-176.32,-112.53,-538,-7766,-3223,-1,-1,0
161.22,-176.32,-112.53,-548,-7771,-3217,-1,-1,0
161.22,-176.31,-112.53,-548,-7760,-3219,-1,-1,0
161.22,-176.31,-112.53,-556,-7763,-3224,-1,0,0
161.22,-176.31,-112.53,-553,-7766,-3226,0,-1,0
161.22,-176.31,-112.53,-551,-7767,-3225,0,-1,0
161.21,-176.30,-112.53,-546,-7763,-3236,0,-1,-1
161.21,-176.30,-112.53,-543,-7767,-3231,0,-1,0
161.22,-176.31,-112.53,-539,-7766,-3227,0,-1,0
161.22,-176.31,-112.53,-541,-7769,-3230,0,-1,-1
161.22,-176.31,-112.52,-547,-7771,-3232,0,-1,-1
161.23,-176.31,-112.52,-546,-7770,-3216,0,-1,-1
161.23,-176.31,-112.51,-545,-7767,-3223,0,-1,-1
161.24,-176.31,-112.51,-541,-7773,-3226,0,-1,-1
161.24,-176.31,-112.50,-542,-7772,-3217,0,-1,-1
161.25,-176.31,-112.49,-540,-7767,-3218,0,-1,-1
161.25,-176.31,-112.49,-540,-7770,-3219,0,-1,-1
161.26,-176.31,-112.48,-541,-7764,-3223,0,-1,0
161.27,-176.31,-112.48,-545,-7769,-3220,0,-1,-1
161.27,-176.31,-112.47,-546,-7769,-3222,0,-1,-1
161.28,-176.32,-112.47,-541,-7772,-3229,0,0,-1
161.28,-176.32,-112.47,-540,-7779,-3225,0,0,-1
161.28,-176.32,-112.47,-540,-7770,-3229,0,0,-1
161.28,-176.32,-112.47,-533,-7768,-3221,-1,0,0
161.28,-176.32,-112.47,-542,-7768,-3220,-1,0,-1
161.28,-176.32,-112.47,-544,-7777,-3214,0,0,-1
161.28,-176.33,-112.47,-541,-7772,-3218,0,0,-1
161.28,-176.33,-112.47,-548,-7770,-3221,0,0,-1
161.29,-176.33,-112.47,-540,-7768,-3213,0,0,-1
161.29,-176.34,-112.47,-536,-7766,-3209,0,0,-1
161.29,-176.34,-112.47,-536,-7775,-3216,-1,0,0
161.28,-176.34,-112.47,-541,-7782,-3227,-1,-1,0
161.27,-176.34,-112.48,-545,-7782,-3227,-1,-1,-1
161.27,-176.34,-112.48,-542,-7768,-3227,-1,0,-1
161.27,-176.34,-112.49,-542,-7760,-3224,-1,0,-1
161.28,-176.34,-112.49,-541,-7757,-3228,-1,0,-1
161.27,-176.35,-112.50,-533,-7763,-3235,-1,0,-1
161.28,-176.35,-112.50,-539,-7767,-3230,0,0,-1
161.28,-176.35,-112.50,-537,-7776,-3223,-1,0,-1
161.28,-176.35,-112.50,-540,-7769,-3218,-1,-1,0
161.28,-176.35,-112.50,-536,-7764,-3209,-1,0,0
161.27,-176.35,-112.51,-538,-7767,-3214,-1,0,0
161.27,-176.36,-112.51,-541,-7770,-3227,-1,0,-1
161.27,-176.36,-112.51,-539,-7775,-3222,-1,0,-1
161.27,-176.36,-112.51,-527,-7771,-3228,0,0,-1
161.27,-176.36,-112.51,-530,-7772,-3227,0,0,0
161.27,-176.36,-112.51,-534,-7763,-3215,-1,-1,0
161.26,-176.35,-112.51,-537,-7766,-3211,-1,0,0
161.26,-176.36,-112.52,-542,-7770,-3231,-1,0,-1
161.25,-176.35,-112.52,-539,-7772,-3238,0,-1,-1
161.26,-176.36,-112.52,-538,-7772,-3231,0,0,-1
161.26,-176.36,-112.52,-538,-7768,-3221,0,-1,-1
161.26,-176.36,-112.52,-543,-7771,-3218,-1,0,0
161.26,-176.36,-112.52,-543,-7767,-3224,-1,-1,0
161.25,-176.35,-112.52,-546,-7772,-3224,-1,-1,0
161.26,-176.36,-112.52,-540,-7767,-3222,0,-1,-1
161.26,-176.36,-112.52,-536,-7764,-3224,0,0,0
161.26,-176.36,-112.52,-543,-7766,-3222,0,-1,-1
161.26,-176.36,-112.52,-543,-7763,-3220,0,0,0
161.26,-176.36,-112.52,-543,-7766,-3222,0,-1,0
161.26,-176.36,-112.52,-544,-7763,-3221,0,-1,0
161.26,-176.36,-112.52,-542,-7772,-3227,0,0,0
161.26,-176.36,-112.52,-535,-7769,-3225,0,-1,-1
161.26,-176.36,-112.52,-531,-7770,-3225,0,0,-1
161.26,-176.36,-112.52,-531,-7770,-3230,0,0,0
161.26,-176.36,-112.52,-533,-7771,-3223,0,0,0
161.26,-176.36,-112.52,-542,-7773,-3226,0,-1,-1
161.26,-176.36,-112.52,-543,-7779,-3229,-1,-1,-1
161.26,-176.36,-112.52,-534,-7769,-3227,0,-1,-1
161.25,-176.36,-112.52,-534,-7768,-3227,-1,0,0
161.26,-176.36,-112.51,-538,-7775,-3226,0,-1,0
161.26,-176.36,-112.51,-540,-7771,-3226,0,0,0
161.26,-176.36,-112.51,-534,-7766,-3222,-1,0,-1
161.26,-176.36,-112.52,-532,-7774,-3226,-1,0,-1
161.26,-176.37,-112.52,-542,-7770,-3231,-1,-1,0
161.25,-176.36,-112.52,-533,-7762,-3231,0,-1,0
161.25,-176.36,-112.52,-535,-7766,-3229,-1,0,0
161.25,-176.36,-112.52,-545,-7769,-3224,-1,-1,0
161.25,-176.36,-112.52,-541,-7768,-3241,0,-1,-1
161.25,-176.36,-112.52,-537,-7766,-3239,0,-1,0
161.25,-176.36,-112.52,-532,-7760,-3229,0,0,0
161.25,-176.36,-112.52,-539,-7764,-3224,0,0,-1
161.25,-176.36,-112.52,-536,-7767,-3218,-1,0,-1
161.26,-176.37,-112.52,-531,-7766,-3218,-1,0,-1
161.26,-176.37,-112.53,-524,-7764,-3218,0,-1,0
161.26,-176.37,-112.53,-521,-7764,-3229,0,-1,0
161.26,-176.37,-112.53,-530,-7763,-3228,-1,-1,0
161.25,-176.37,-112.53,-533,-7767,-3235,0,0,0
161.25,-176.37,-112.53,-531,-7772,-3234,0,-1,0
161.26,-176.37,-112.53,-534,-7764,-3232,0,-1,0
161.24,-176.36,-112.53,-539,-7763,-3235,0,-1,0
161.24,-176.36,-112.53,-545,-7772,-3239,0,-1,0
161.24,-176.35,-112.54,-543,-7768,-3241,-1,-1,0
161.24,-176.36,-112.54,-540,-7765,-3237,-1,0,0
161.24,-176.35,-112.54,-543,-7760,-3229,0,-1,0
161.24,-176.35,-112.54,-544,-7757,-3222,0,0,0
161.24,-176.35,-112.54,-542,-7761,-3228,0,0,0
161.23,-176.35,-112.54,-539,-7767,-3223,-1,0,0
161.23,-176.35,-112.54,-541,-7783,-3237,0,-1,0
161.23,-176.35,-112.54,-541,-7785,-3235,0,-1,0
161.23,-176.35,-112.54,-539,-7773,-3224,0,-1,0
161.23,-176.34,-112.54,-541,-7765,-3217,0,-1,0
161.23,-176.34,-112.53,-542,-7771,-3220,0,-1,0
161.23,-176.34,-112.53,-544,-7772,-3232,0,-1,0
161.23,-176.34,-112.53,-540,-7772,-3232,0,-1,0
161.23,-176.34,-112.53,-546,-7770,-3234,-1,-1,-1
161.23,-176.34,-112.54,-544,-7765,-3228,0,-1,0
161.23,-176.34,-112.54,-543,-7767,-3237,0,-1,0
161.23,-176.34,-112.54,-539,-7766,-3233,0,-1,0
161.23,-176.34,-112.54,-540,-7776,-3228,0,-1,0
161.22,-176.33,-112.54,-544,-7772,-3226,0,-1,0
161.22,-176.33,-112.54,-549,-7772,-3232,0,-1,0
161.23,-176.33,-112.53,-543,-7773,-3222,0,-1,0
161.23,-176.33,-112.53,-535,-7773,-3222,0,-1,0
161.23,-176.33,-112.53,-536,-7768,-3223,-1,-1,0
161.22,-176.33,-112.54,-531,-7772,-3239,0,-1,-1
161.23,-176.33,-112.53,-532,-7764,-3228,0,-1,0
161.23,-176.33,-112.53,-542,-7768,-3230,0,-1,0
161.23,-176.33,-112.53,-539,-7774,-3231,0,-1,-1
161.24,-176.33,-112.52,-540,-7771,-3216,-1,-1,0
161.23,-176.33,-112.53,-538,-7772,-3220,-1,-1,0
161.23,-176.33,-112.53,-541,-7778,-3230,-1,-1,0
161.23,-176.33,-112.53,-543,-7769,-3224,-1,-1,0
161.22,-176.32,-112.53,-551,-7769,-3225,-1,-1,-1
161.23,-176.32,-112.53,-553,-7767,-3236,0,-1,0
161.23,-176.32,-112.53,-551,-7766,-3230,0,-1,0
161.23,-176.32,-112.52,-552,-7766,-3223,0,-1,0
161.23,-176.32,-112.52,-547,-7757,-3222,0,-1,-1
161.23,-176.32,-112.51,-549,-7770,-3230,0,-1,-1
161.23,-176.31,-112.52,-549,-7775,-3233,-1,-1,-1
161.23,-176.32,-112.52,-543,-7766,-3234,0,-1,-1
161.24,-176.31,-112.51,-541,-7765,-3225,0,-1,0
161.24,-176.31,-112.51,-543,-7768,-3223,0,-1,-1
161.24,-176.32,-112.51,-544,-7774,-3222,0,-1,-1
161.25,-176.32,-112.51,-545,-7773,-3225,0,-1,-1
161.25,-176.32,-112.50,-549,-7773,-3223,0,-1,-1
161.26,-176.32,-112.49,-545,-7770,-3213,0,-1,0
161.26,-176.32,-112.49,-549,-7766,-3204,0,-1,0
161.26,-176.31,-112.49,-555,-7768,-3212,0,-1,-1
161.26,-176.31,-112.48,-553,-7765,-3222,0,-1,0
161.26,-176.31,-112.48,-555,-7771,-3235,0,-1,0
161.26,-176.31,-112.48,-551,-7769,-3235,0,0,0
161.26,-176.31,-112.47,-550,-7774,-3217,0,0,0
161.26,-176.31,-112.47,-547,-7769,-3211,0,-1,0
161.26,-176.31,-112.47,-552,-7768,-3213,0,0,0
161.26,-176.30,-112.47,-552,-7770,-3207,0,0,0
161.26,-176.30,-112.47,-547,-7780,-3209,0,0,0
161.26,-176.31,-112.47,-545,-7780,-3213,0,-1,-1
161.26,-176.31,-112.47,-549,-7771,-3222,-1,-1,-1
161.26,-176.31,-112.47,-549,-7768,-3211,-1,-1,-1
161.26,-176.31,-112.47,-545,-7774,-3223,0,0,-1
161.27,-176.31,-112.47,-545,-7778,-3214,-1,0,-1
161.27,-176.32,-112.47,-543,-7773,-3221,-1,0,-1
161.27,-176.32,-112.48,-537,-7762,-3232,0,0,-1
161.27,-176.32,-112.48,-541,-7776,-3224,0,0,0
161.27,-176.32,-112.48,-540,-7788,-3226,0,-1,0
161.27,-176.32,-112.48,-545,-7784,-3228,0,-1,-1
161.27,-176.32,-112.48,-540,-7767,-3229,0,0,0
161.27,-176.33,-112.48,-540,-7760,-3208,0,0,-1
161.27,-176.32,-112.47,-539,-7776,-3209,0,0,-1
161.28,-176.33,-112.47,-537,-7786,-3204,-1,0,-1
161.28,-176.33,-112.47,-537,-7788,-3217,-1,0,-1
161.27,-176.33,-112.48,-535,-7777,-3211,-1,0,0
161.27,-176.33,-112.48,-533,-7759,-3211,-1,0,0
161.26,-176.33,-112.49,-547,-7768,-3218,-1,0,0
161.26,-176.33,-112.49,-548,-7778,-3227,0,0,-1
161.26,-176.33,-112.49,-547,-7772,-3218,0,0,-1
161.26,-176.34,-112.49,-535,-7758,-3214,0,0,-1
161.27,-176.35,-112.48,-531,-7760,-3207,0,0,0
161.26,-176.34,-112.49,-538,-7771,-3216,0,0,0
161.26,-176.34,-112.49,-545,-7791,-3218,-1,-1,0
161.26,-176.34,-112.49,-545,-7792,-3217,-1,0,-1
161.26,-176.34,-112.49,-544,-7775,-3224,-1,0,-1
161.26,-176.34,-112.49,-536,-7763,-3227,-1,-1,-1
161.26,-176.35,-112.49,-532,-7754,-3222,0,0,-1
161.26,-176.35,-112.50,-539,-7757,-3221,-1,0,0
161.26,-176.35,-112.50,-541,-7777,-3228,-1,-1,0
161.26,-176.35,-112.50,-540,-7778,-3224,0,-1,-1
161.26,-176.35,-112.50,-540,-7768,-3222,0,0,-1
161.26,-176.35,-112.50,-541,-7768,-3226,-1,0,-1
161.26,-176.36,-112.51,-545,-7769,-3225,-1,0,-1
161.26,-176.35,-112.51,-551,-7773,-3219,0,0,-1
161.26,-176.35,-112.50,-547,-7773,-3220,0,-1,0
161.26,-176.35,-112.50,-543,-7773,-3224,0,0,0
161.26,-176.35,-112.50,-542,-7772,-3223,-1,0,0
161.26,-176.35,-112.50,-528,-7772,-3226,-1,-1,0
161.26,-176.35,-112.50,-530,-7770,-3229,0,-1,0
161.25,-176.35,-112.50,-539,-7770,-3218,-1,0,-1
161.25,-176.35,-112.50,-542,-7765,-3220,0,0,-1
161.25,-176.35,-112.51,-539,-7770,-3224,-1,0,-1
161.26,-176.35,-112.50,-535,-7776,-3229,0,0,-1
161.25,-176.35,-112.51,-539,-7777,-3228,0,-1,0
161.26,-176.35,-112.50,-538,-7774,-3224,0,-1,0
161.26,-176.35,-112.50,-542,-7767,-3219,0,-1,0
161.25,-176.35,-112.50,-536,-7766,-3218,0,0,0
161.25,-176.35,-112.50,-529,-7762,-3232,-1,0,0
161.25,-176.35,-112.50,-537,-7772,-3231,-1,-1,-1
161.25,-176.35,-112.50,-540,-7771,-3224,0,-1,0
161.25,-176.35,-112.50,-538,-7762,-3217,0,-1,0
161.25,-176.35,-112.50,-542,-7767,-3226,0,0,-1
161.25,-176.35,-112.50,-536,-7779,-3228,-1,-1,-1
161.26,-176.35,-112.50,-534,-7775,-3230,-1,-1,0
161.25,-176.34,-112.50,-532,-7759,-3226,-1,-1,0
161.25,-176.34,-112.50,-538,-7755,-3232,-1,-1,0
161.25,-176.34,-112.50,-535,-7768,-3250,0,-1,0
161.25,-176.33,-112.49,-545,-7781,-3242,0,-1,0
161.24,-176.30,-112.48,-544,-7782,-3246,0,-1,0
161.25,-176.29,-112.45,-557,-7765,-3226,0,-1,0
161.26,-176.28,-112.44,-555,-7760,-3203,0,-1,0
161.26,-176.28,-112.43,-550,-7768,-3203,0,-1,0
161.26,-176.27,-112.43,-553,-7775,-3204,0,-1,0
161.26,-176.27,-112.43,-554,-7779,-3213,0,-1,0
161.26,-176.27,-112.42,-555,-7771,-3210,0,-1,0
161.26,-176.27,-112.43,-555,-7766,-3210,-1,0,-1
161.26,-176.27,-112.43,-548,-7766,-3197,-1,0,0
161.26,-176.27,-112.43,-549,-7771,-3207,-1,0,-1
161.26,-176.27,-112.43,-556,-7777,-3218,-1,0,-1
161.26,-176.28,-112.44,-553,-7778,-3215,0,0,-1
161.25,-176.27,-112.44,-565,-7767,-3215,-1,0,-1
161.25,-176.28,-112.45,-563,-7774,-3217,-1,0,-1
161.25,-176.28,-112.45,-551,-7771,-3216,-1,0,-1
161.25,-176.28,-112.45,-549,-7754,-3214,0,0,0
161.25,-176.28,-112.45,-554,-7762,-3211,0,0,0
161.25,-176.28,-112.45,-552,-7774,-3211,0,-1,-1
161.25,-176.28,-112.45,-551,-7778,-3220,0,-1,-1
161.26,-176.28,-112.45,-541,-7786,-3234,0,-1,0
161.25,-176.26,-112.44,-544,-7784,-3229,0,-1,0
161.25,-176.25,-112.43,-556,-7773,-3221,0,-1,0
161.24,-176.23,-112.42,-563,-7759,-3209,0,-1,0
161.24,-176.23,-112.42,-555,-7760,-3208,0,-1,-1
161.25,-176.23,-112.41,-550,-7774,-3212,0,-1,-1
161.25,-176.23,-112.41,-545,-7776,-3216,0,-1,0
161.26,-176.23,-112.40,-549,-7776,-3206,0,-1,-1
161.26,-176.23,-112.40,-551,-7764,-3200,-1,-1,-1
161.26,-176.23,-112.40,-548,-7758,-3201,-1,-1,0
161.26,-176.23,-112.41,-551,-7765,-3205,-1,0,-1
161.26,-176.24,-112.41,-556,-7770,-3204,-1,0,-1
161.26,-176.24,-112.42,-552,-7772,-3205,-1,0,-1
161.26,-176.25,-112.42,-555,-7777,-3215,-1,0,-1
161.26,-176.25,-112.43,-552,-7776,-3216,-1,0,0
161.25,-176.24,-112.44,-551,-7771,-3197,-1,0,0
161.24,-176.24,-112.45,-569,-7778,-3212,-1,0,0
161.24,-176.24,-112.45,-562,-7770,-3213,0,0,-1
161.25,-176.25,-112.44,-555,-7770,-3201,0,0,-1
161.25,-176.25,-112.45,-550,-7778,-3212,0,0,-1
161.25,-176.25,-112.45,-549,-7781,-3211,-1,-1,0
161.24,-176.25,-112.45,-559,-7785,-3211,-1,-1,0
161.24,-176.25,-112.45,-555,-7790,-3225,-1,-1,0
161.24,-176.24,-112.45,-561,-7786,-3226,-1,-1,0
161.23,-176.24,-112.45,-557,-7767,-3214,0,-1,0
161.24,-176.24,-112.45,-558,-7753,-3205,0,0,-1
161.24,-176.24,-112.44,-555,-7761,-3209,0,0,-1
161.24,-176.25,-112.44,-553,-7788,-3214,0,-1,-1
161.25,-176.25,-112.43,-549,-7795,-3217,0,-1,0
161.25,-176.24,-112.44,-548,-7775,-3212,-1,-1,-1
161.25,-176.24,-112.44,-549,-7764,-3208,-1,-1,0
161.25,-176.24,-112.44,-548,-7763,-3211,0,-1,0
161.25,-176.24,-112.44,-549,-7765,-3222,0,0,-1
161.26,-176.25,-112.43,-547,-7776,-3219,0,0,-1
161.26,-176.25,-112.43,-544,-7784,-3215,0,-1,-1
161.26,-176.25,-112.43,-544,-7784,-3213,0,-1,0
161.26,-176.25,-112.43,-551,-7777,-3211,-1,-1,0
161.26,-176.25,-112.43,-551,-7770,-3205,-1,-1,-1
161.26,-176.25,-112.43,-553,-7772,-3220,0,0,-1
161.26,-176.25,-112.43,-557,-7773,-3215,0,0,-1
161.27,-176.26,-112.42,-558,-7769,-3201,0,0,-1
161.28,-176.26,-112.42,-557,-7774,-3200,0,0,-1
161.28,-176.27,-112.42,-555,-7781,-3206,-1,0,-1
161.28,-176.27,-112.42,-555,-7779,-3211,-1,0,-1
161.28,-176.27,-112.42,-556,-7774,-3210,-1,0,-1
161.28,-176.28,-112.43,-549,-7763,-3212,-1,0,-1
161.29,-176.28,-112.43,-546,-7761,-3218,0,0,-1
161.29,-176.28,-112.43,-550,-7769,-3215,0,0,-1
161.29,-176.28,-112.43,-553,-7777,-3212,0,0,-1
161.29,-176.29,-112.43,-554,-7777,-3210,0,0,-1
161.29,-176.29,-112.42,-553,-7777,-3205,0,0,-1
161.29,-176.29,-112.42,-552,-7774,-3203,-1,0,0
161.28,-176.28,-112.42,-558,-7775,-3207,-1,0,0
161.28,-176.29,-112.43,-554,-7774,-3208,-1,0,-1
161.28,-176.29,-112.43,-554,-7778,-3214,-1,0,-1
161.28,-176.29,-112.43,-541,-7785,-3204,-1,0,0
161.28,-176.29,-112.43,-547,-7772,-3198,-1,0,0
161.27,-176.29,-112.44,-547,-7765,-3201,-1,0,-1
161.27,-176.29,-112.44,-553,-7766,-3209,-1,0,-1
161.27,-176.30,-112.45,-551,-7769,-3217,0,-1,-1
161.27,-176.30,-112.45,-544,-7759,-3221,0,-1,0
161.27,-176.30,-112.45,-544,-7769,-3221,0,0,-1
161.27,-176.30,-112.45,-539,-7776,-3219,-1,0,-1
161.27,-176.30,-112.45,-546,-7776,-3213,-1,0,0
161.26,-176.30,-112.46,-542,-7774,-3207,-1,0,0
161.26,-176.30,-112.46,-548,-7775,-3206,-1,0,0
161.26,-176.30,-112.46,-546,-7777,-3213,-1,0,-1
161.26,-176.30,-112.46,-542,-7778,-3224,-1,0,-1
161.26,-176.31,-112.46,-540,-7772,-3215,0,0,-1
161.26,-176.31,-112.46,-541,-7772,-3219,0,-1,0
161.26,-176.31,-112.46,-540,-7771,-3225,-1,0,0
161.26,-176.30,-112.46,-545,-7768,-3219,0,0,-1
161.26,-176.30,-112.46,-541,-7772,-3217,-1,0,-1
161.25,-176.31,-112.47,-540,-7774,-3228,-1,-1,0
161.25,-176.31,-112.47,-542,-7769,-3227,-1,0,0
161.25,-176.31,-112.47,-545,-7765,-3220,-1,0,0
161.25,-176.31,-112.48,-535,-7772,-3220,-1,0,-1
161.25,-176.31,-112.48,-539,-7776,-3214,-1,0,0
161.25,-176.31,-112.48,-548,-7777,-3218,-1,-1,0
161.24,-176.30,-112.48,-549,-7773,-3212,-1,-1,0
161.24,-176.30,-112.48,-550,-7775,-3213,-1,0,0
161.23,-176.30,-112.48,-545,-7773,-3221,-1,0,0
161.24,-176.30,-112.48,-532,-7767,-3222,0,-1,0
161.23,-176.30,-112.48,-543,-7773,-3235,-1,0,0
161.24,-176.29,-112.47,-547,-7769,-3220,0,-1,0
161.24,-176.30,-112.47,-541,-7767,-3212,0,0,0
161.24,-176.30,-112.47,-545,-7771,-3221,-1,-1,0
161.24,-176.29,-112.47,-549,-7767,-3223,-1,-1,0
161.24,-176.29,-112.47,-544,-7760,-3232,0,-1,0
161.24,-176.29,-112.47,-543,-7765,-3229,0,-1,-1
161.24,-176.29,-112.47,-545,-7765,-3213,-1,0,0
161.24,-176.29,-112.47,-554,-7765,-3207,-1,-1,0
161.22,-176.28,-112.48,-557,-7766,-3214,-1,-1,0
161.22,-176.28,-112.48,-551,-7766,-3219,-1,-1,0
161.22,-176.28,-112.48,-552,-7768,-3218,-1,-1,0
161.22,-176.28,-112.48,-544,-7773,-3216,-1,-1,-1
161.22,-176.28,-112.48,-551,-7776,-3218,0,-1,0
161.22,-176.28,-112.48,-550,-7774,-3217,0,0,-1
161.22,-176.28,-112.48,-548,-7770,-3223,-1,0,-1
161.22,-176.29,-112.49,-542,-7765,-3226,-1,0,-1
161.22,-176.29,-112.49,-545,-7770,-3226,-1,-1,-1
161.22,-176.29,-112.49,-551,-7767,-3221,0,-1,0
161.22,-176.29,-112.49,-547,-7763,-3217,-1,0,-1
161.22,-176.29,-112.49,-548,-7773,-3216,-1,0,-1
161.22,-176.29,-112.49,-544,-7775,-3213,-1,-1,-1
161.23,-176.30,-112.48,-536,-7766,-3217,0,-1,0
161.22,-176.29,-112.49,-540,-7778,-3222,-1,-1,0
161.22,-176.29,-112.49,-543,-7775,-3221,-1,-1,0
161.22,-176.29,-112.49,-540,-7774,-3224,-1,0,-1
161.22,-176.29,-112.50,-539,-7774,-3232,-1,0,-1
161.22,-176.29,-112.50,-545,-7773,-3235,-1,0,-1
161.22,-176.29,-112.50,-547,-7771,-3227,0,0,0
161.22,-176.29,-112.50,-543,-7771,-3224,0,-1,-1
161.22,-176.30,-112.50,-545,-7776,-3218,0,-1,-1
161.22,-176.30,-112.49,-545,-7774,-3212,-1,-1,0
161.22,-176.29,-112.49,-546,-7772,-3216,-1,-1,0
161.22,-176.29,-112.50,-543,-7764,-3220,-1,-1,0
161.22,-176.29,-112.49,-546,-7776,-3214,-1,-1,0
161.22,-176.29,-112.49,-546,-7774,-3221,-1,-1,-1
161.22,-176.29,-112.50,-539,-7777,-3219,-1,-1,0
161.22,-176.29,-112.50,-538,-7778,-3218,0,-1,0
161.22,-176.29,-112.49,-537,-7783,-3215,0,-1,0
161.22,-176.29,-112.49,-544,-7775,-3206,-1,-1,0
161.22,-176.28,-112.49,-547,-7776,-3213,-1,-1,0
161.22,-176.28,-112.49,-547,-7773,-3228,-1,-1,0
161.21,-176.28,-112.50,-554,-7770,-3224,-1,-1,0
161.21,-176.28,-112.50,-555,-7771,-3226,0,-1,-1
161.20,-176.28,-112.50,-555,-7773,-3234,0,-1,0
161.21,-176.27,-112.50,-554,-7768,-3218,-1,-1,0
161.21,-176.27,-112.50,-550,-7773,-3222,-1,-1,0
161.21,-176.27,-112.49,-549,-7781,-3215,0,-1,0
161.20,-176.27,-112.49,-549,-7776,-3210,-1,-1,0
161.20,-176.27,-112.49,-547,-7774,-3209,-1,-1,0
161.20,-176.27,-112.49,-541,-7769,-3215,-1,-1,0
161.20,-176.27,-112.50,-542,-7775,-3216,-1,-1,0
161.20,-176.27,-112.50,-546,-7773,-3213,0,-1,0
161.20,-176.27,-112.49,-541,-7774,-3216,-1,-1,0
161.20,-176.26,-112.49,-549,-7767,-3211,-1,-1,0
161.20,-176.26,-112.49,-553,-7768,-3209,-1,-1,0
161.20,-176.26,-112.50,-554,-7765,-3210,-1,-1,0
161.20,-176.26,-112.50,-557,-7769,-3218,-1,-1,0
161.19,-176.25,-112.50,-554,-7772,-3219,-1,-1,0
161.19,-176.25,-112.49,-547,-7765,-3220,0,-1,0
161.19,-176.24,-112.49,-557,-7766,-3219,0,-1,0
161.19,-176.24,-112.49,-553,-7774,-3223,0,-1,-1
161.19,-176.24,-112.49,-548,-7779,-3224,-1,-1,0
161.20,-176.24,-112.49,-545,-7776,-3224,-1,-1,0
161.20,-176.24,-112.49,-548,-7770,-3216,-1,-1,0
161.20,-176.24,-112.48,-548,-7768,-3219,-1,-1,0
161.19,-176.23,-112.49,-551,-7767,-3220,-1,-1,-1
161.20,-176.24,-112.48,-554,-7770,-3232,0,-1,-1
161.21,-176.23,-112.47,-554,-7775,-3223,0,-1,-1
161.22,-176.24,-112.47,-547,-7775,-3219,0,-1,-1
161.24,-176.24,-112.45,-541,-7768,-3204,0,-1,-1
161.24,-176.24,-112.44,-541,-7762,-3207,0,-1,-1
161.25,-176.24,-112.44,-542,-7764,-3205,0,-1,-1
161.25,-176.25,-112.44,-538,-7772,-3206,0,-1,0
161.26,-176.25,-112.43,-550,-7769,-3206,0,0,0
161.25,-176.24,-112.43,-555,-7773,-3209,0,0,-1
161.26,-176.25,-112.43,-546,-7779,-3210,0,0,-1
161.26,-176.26,-112.43,-543,-7779,-3217,0,0,-1
161.26,-176.26,-112.43,-547,-7774,-3209,-1,0,-1
161.26,-176.26,-112.43,-548,-7774,-3204,0,0,-1
161.27,-176.26,-112.43,-547,-7774,-3207,-1,0,0
161.26,-176.26,-112.44,-542,-7779,-3222,-1,0,-1
161.25,-176.26,-112.44,-553,-7778,-3224,-1,0,-1
161.26,-176.27,-112.45,-555,-7777,-3216,-1,0,-1
161.26,-176.28,-112.44,-551,-7783,-3214,0,0,-1
161.26,-176.28,-112.44,-552,-7781,-3209,-1,0,-1
161.26,-176.28,-112.44,-552,-7784,-3204,-1,0,-1
161.26,-176.28,-112.45,-556,-7780,-3210,-1,0,-1
161.25,-176.28,-112.45,-550,-7775,-3207,-1,0,0
161.25,-176.28,-112.45,-553,-7770,-3213,-1,0,0
161.25,-176.28,-112.46,-557,-7771,-3209,-1,0,-1
161.25,-176.28,-112.46,-556,-7774,-3213,0,0,-1
161.25,-176.28,-112.46,-551,-7774,-3217,0,0,-1
161.25,-176.28,-112.46,-550,-7774,-3207,-1,0,0
161.25,-176.28,-112.46,-547,-7783,-3209,0,0,-1
161.26,-176.29,-112.46,-547,-7776,-3198,-1,0,0
161.25,-176.28,-112.46,-543,-7774,-3204,-1,0,-1
161.25,-176.29,-112.46,-549,-7768,-3217,-1,0,-1
161.25,-176.29,-112.47,-549,-7774,-3222,-1,0,-1
161.25,-176.29,-112.47,-549,-7772,-3219,-1,-1,-1
161.25,-176.29,-112.47,-549,-7779,-3221,0,0,-1
161.25,-176.29,-112.47,-544,-7777,-3225,-1,-1,0
161.25,-176.29,-112.47,-543,-7776,-3217,-1,-1,0
161.25,-176.29,-112.47,-539,-7773,-3224,-1,-1,0
161.25,-176.29,-112.47,-544,-7772,-3226,-1,-1,-1
161.24,-176.29,-112.47,-545,-7772,-3225,0,-1,0
161.25,-176.29,-112.47,-539,-7764,-3213,0,-1,0
161.25,-176.29,-112.46,-545,-7768,-3211,0,0,-1
161.25,-176.30,-112.47,-547,-7778,-3219,-1,0,-1
161.25,-176.30,-112.47,-539,-7781,-3213,-1,-1,-1
161.25,-176.30,-112.47,-547,-7774,-3221,-1,-1,0
161.25,-176.30,-112.48,-547,-7771,-3214,-1,-1,0
161.24,-176.29,-112.48,-549,-7766,-3217,-1,0,0
161.23,-176.30,-112.49,-547,-7765,-3225,-1,0,-1
161.23,-176.30,-112.49,-545,-7776,-3239,-1,0,-1
161.24,-176.30,-112.49,-545,-7775,-3227,0,-1,-1
161.24,-176.30,-112.49,-538,-7775,-3221,-1,0,-1
161.24,-176.30,-112.49,-540,-7770,-3209,-1,0,-1
161.24,-176.31,-112.49,-534,-7772,-3216,-1,0,-1
161.24,-176.32,-112.49,-529,-7774,-3218,0,0,-1
161.24,-176.32,-112.49,-535,-7768,-3213,-1,0,0
161.23,-176.31,-112.50,-544,-7773,-3226,0,0,-1
161.23,-176.31,-112.50,-548,-7773,-3220,-1,0,0
161.23,-176.32,-112.50,-548,-7779,-3220,-1,0,-1
161.23,-176.32,-112.50,-538,-7777,-3225,-1,0,0
161.23,-176.32,-112.50,-547,-7767,-3232,-1,-1,0
161.22,-176.31,-112.51,-544,-7762,-3222,-1,0,0
161.22,-176.31,-112.51,-543,-7766,-3212,-1,0,-1
161.22,-176.31,-112.52,-544,-7768,-3225,-1,0,-1
161.22,-176.32,-112.52,-549,-7768,-3234,0,0,-1
161.22,-176.32,-112.52,-545,-7764,-3236,0,0,0
161.22,-176.31,-112.52,-537,-7763,-3219,0,0,0
161.23,-176.32,-112.52,-539,-7773,-3223,-1,0,-1
161.22,-176.32,-112.52,-544,-7775,-3224,-1,0,-1
161.22,-176.32,-112.52,-547,-7774,-3220,-1,-1,-1
161.22,-176.31,-112.52,-544,-7773,-3217,0,-1,0
161.22,-176.31,-112.52,-546,-7768,-3212,-1,-1,0
161.22,-176.31,-112.52,-548,-7765,-3216,-1,0,0
161.21,-176.31,-112.52,-551,-7771,-3213,-1,0,-1
161.22,-176.31,-112.51,-553,-7775,-3214,-1,0,0
161.22,-176.31,-112.51,-551,-7773,-3219,-1,-1,0
161.22,-176.31,-112.51,-550,-7772,-3209,-1,-1,0
161.22,-176.31,-112.51,-549,-7769,-3209,-1,-1,-1
161.20,-176.30,-112.52,-552,-7758,-3214,-1,0,0
161.20,-176.30,-112.52,-553,-7764,-3221,-1,-1,0
161.20,-176.30,-112.52,-538,-7771,-3223,0,-1,0
161.20,-176.30,-112.52,-544,-7772,-3221,-1,-1,0
161.20,-176.30,-112.52,-543,-7771,-3220,-1,-1,0
161.20,-176.30,-112.52,-541,-7767,-3220,-1,0,0
161.20,-176.30,-112.53,-540,-7773,-3218,-1,0,-1
161.20,-176.30,-112.53,-545,-7773,-3223,-1,-1,0
161.19,-176.30,-112.53,-543,-7766,-3221,-1,-1,-1
161.19,-176.30,-112.53,-541,-7761,-3220,-1,-1,0
161.19,-176.30,-112.53,-540,-7758,-3220,0,-1,0
161.19,-176.30,-112.53,-544,-7753,-3219,0,-1,0
161.20,-176.30,-112.53,-542,-7762,-3219,0,0,-1
161.20,-176.30,-112.53,-547,-7770,-3224,-1,-1,0
161.19,-176.30,-112.53,-548,-7767,-3227,-1,-1,0
161.19,-176.30,-112.53,-542,-7767,-3229,-1,-1,0
161.19,-176.30,-112.54,-544,-7765,-3235,-1,-1,0
161.17,-176.29,-112.55,-542,-7757,-3240,-1,0,0
161.17,-176.29,-112.56,-540,-7769,-3238,-1,-1,-1
161.18,-176.30,-112.56,-539,-7775,-3237,0,-1,0
161.17,-176.29,-112.55,-542,-7769,-3236,0,-1,0
161.17,-176.29,-112.55,-544,-7767,-3232,0,-1,0
161.17,-176.29,-112.55,-544,-7770,-3221,-1,0,0
161.17,-176.29,-112.55,-541,-7772,-3222,-1,-1,0
161.17,-176.29,-112.55,-543,-7767,-3226,-1,-1,0
161.16,-176.28,-112.56,-547,-7754,-3230,-1,-1,0
161.16,-176.28,-112.55,-549,-7759,-3226,0,-1,0
161.16,-176.28,-112.56,-544,-7771,-3229,0,-1,0
161.16,-176.28,-112.56,-540,-7770,-3225,-1,-1,0
161.17,-176.28,-112.55,-539,-7766,-3226,-1,-1,0
161.17,-176.28,-112.55,-547,-7763,-3234,-1,-1,0
161.16,-176.27,-112.56,-549,-7768,-3235,0,-1,0
161.16,-176.27,-112.55,-551,-7765,-3228,-1,-1,0
161.16,-176.27,-112.56,-547,-7763,-3228,-1,-1,0
161.15,-176.27,-112.56,-553,-7765,-3232,0,-1,0
161.15,-176.26,-112.56,-552,-7769,-3231,0,-1,0
161.16,-176.26,-112.55,-557,-7770,-3227,0,-1,0
161.15,-176.26,-112.55,-565,-7775,-3229,0,-1,0
161.15,-176.25,-112.54,-558,-7770,-3226,0,-1,0
161.15,-176.24,-112.54,-553,-7769,-3228,0,-1,0
161.15,-176.24,-112.54,-555,-7774,-3227,0,-1,0
161.14,-176.24,-112.55,-558,-7778,-3222,0,-1,0
161.14,-176.23,-112.54,-558,-7774,-3229,0,-1,0
161.15,-176.23,-112.54,-550,-7768,-3230,0,-1,0
161.15,-176.23,-112.54,-557,-7766,-3228,0,-1,-1
161.16,-176.23,-112.53,-555,-7768,-3228,0,-1,-1
161.16,-176.23,-112.53,-556,-7763,-3230,0,-1,-1
161.17,-176.23,-112.52,-556,-7762,-3226,0,-1,-1
161.18,-176.23,-112.51,-550,-7764,-3222,0,-1,-1
161.19,-176.23,-112.50,-546,-7772,-3217,0,-1,0
161.20,-176.23,-112.49,-554,-7769,-3219,0,-1,-1
161.20,-176.23,-112.49,-556,-7763,-3217,0,-1,-1
161.21,-176.23,-112.48,-560,-7769,-3220,0,-1,-1
161.21,-176.23,-112.48,-554,-7768,-3226,0,-1,-1
161.21,-176.24,-112.48,-561,-7767,-3214,0,-1,-1
161.22,-176.23,-112.47,-552,-7768,-3209,0,-1,-1
161.22,-176.23,-112.47,-548,-7773,-3218,-1,0,-1
161.22,-176.24,-112.48,-552,-7772,-3231,-1,0,-1
161.22,-176.24,-112.48,-551,-7769,-3231,0,0,0
161.22,-176.24,-112.48,-550,-7763,-3222,0,0,-1
161.22,-176.25,-112.47,-552,-7768,-3212,-1,0,-1
161.22,-176.25,-112.47,-558,-7773,-3214,-1,0,-1
161.22,-176.25,-112.47,-552,-7778,-3221,-1,0,-1
161.22,-176.25,-112.48,-549,-15362,-258,-1,0,0
161.21,-176.24,-112.48,-548,-7774,-3218,-1,0,0
161.21,-176.25,-112.49,-549,-7770,-3222,-1,0,-1
161.21,-176.25,-112.49,-549,-7770,-3222,-1,0,-1
161.21,-176.25,-112.49,-549,-7765,-3217,0,0,-1
161.23,-176.26,-112.48,-548,-7773,-3218,0,0,-1
161.23,-176.26,-112.48,-541,-7770,-3210,-1,0,-1
161.23,-176.27,-112.48,-542,-7769,-3205,-1,0,-1
161.23,-176.27,-112.48,-540,-7777,-3210,-1,0,0
161.23,-176.27,-112.48,-544,-7783,-3220,0,0,-1
161.23,-176.27,-112.48,-544,-7771,-3214,-1,0,0
161.22,-176.27,-112.49,-544,-7774,-3218,-1,0,-1
161.24,-176.28,-112.48,-545,-7782,-3219,-1,-1,-1
161.23,-176.28,-112.49,-549,-7787,-3224,0,-1,-1
161.24,-176.28,-112.48,-552,-7784,-3225,0,-1,-1
161.24,-176.28,-112.48,-546,-7777,-3215,0,-1,0
161.24,-176.28,-112.47,-543,-7767,-3202,0,-1,0
161.24,-176.28,-112.47,-548,-7767,-3204,-1,0,-1
161.25,-176.29,-112.47,-546,-7770,-3214,-1,0,-1
161.25,-176.29,-112.47,-544,-7771,-3221,0,-1,-1
161.25,-176.29,-112.47,-548,-7768,-3211,0,-1,-1
161.25,-176.29,-112.47,-550,-7771,-3213,0,0,-1
161.25,-176.29,-112.47,-545,-7767,-3215,-1,0,-1
161.25,-176.29,-112.47,-546,-7769,-3220,-1,0,-1
161.25,-176.30,-112.47,-546,-7772,-3223,-1,0,-1
161.25,-176.30,-112.47,-542,-7770,-3221,-1,0,0
161.25,-176.30,-112.48,-542,-7769,-3221,-1,0,0
161.25,-176.30,-112.48,-550,-7769,-3220,-1,0,-1
161.25,-176.30,-112.48,-552,-7767,-3219,-1,0,-1
161.24,-176.30,-112.49,-553,-7766,-3223,-1,0,-1
161.24,-176.30,-112.49,-545,-7765,-3219,-1,0,0
161.25,-176.30,-112.48,-537,-7767,-3219,-1,0,0
161.24,-176.31,-112.49,-536,-7773,-3227,0,0,0
161.24,-176.31,-112.49,-537,-7771,-3226,-1,0,0
161.24,-176.30,-112.50,-539,-7765,-3228,-1,0,-1
161.23,-176.31,-112.50,-551,-7774,-3226,-1,0,-1
161.23,-176.31,-112.50,-546,-7776,-3225,-1,0,-1
161.23,-176.31,-112.50,-546,-7778,-3224,-1,0,-1
161.23,-176.31,-112.50,-546,-7778,-3227,-1,0,-1
161.23,-176.31,-112.51,-545,-7772,-3230,-1,-1,0
161.23,-176.31,-112.51,-544,-7766,-3225,0,0,0
161.22,-176.30,-112.51,-543,-7763,-3226,-1,0,-1
161.23,-176.31,-112.51,-541,-7767,-3227,-1,0,0
161.22,-176.31,-112.52,-540,-7769,-3235,-1,0,0
161.22,-176.31,-112.52,-541,-7761,-3229,0,0,0
161.22,-176.31,-112.51,-543,-7764,-3227,0,0,-1
161.23,-176.31,-112.51,-537,-7776,-3226,-1,0,-1
161.23,-176.32,-112.51,-534,-7778,-3219,-1,-1,-1
161.23,-176.31,-112.51,-537,-7777,-3221,-1,-1,0
161.22,-176.31,-112.52,-544,-7767,-3212,-1,0,0
161.22,-176.31,-112.52,-545,-7770,-3218,-1,0,0
161.21,-176.31,-112.53,-551,-7771,-3223,-1,0,-1
161.20,-176.30,-112.53,-542,-7768,-3235,0,-1,-1
161.21,-176.31,-112.53,-535,-7759,-3218,0,-1,0
161.21,-176.31,-112.52,-545,-7769,-3221,0,0,0
161.21,-176.31,-112.52,-541,-7770,-3218,-1,0,0
161.21,-176.31,-112.53,-539,-7775,-3224,-1,0,-1
161.21,-176.31,-112.53,-535,-7773,-3231,-1,-1,0
161.21,-176.31,-112.53,-532,-7762,-3220,-1,-1,0
161.19,-176.30,-112.54,-534,-7760,-3223,-1,-1,0
161.20,-176.30,-112.54,-540,-7768,-3216,-1,0,0
161.20,-176.30,-112.53,-541,-7773,-3215,-1,-1,-1
161.20,-176.30,-112.54,-535,-7772,-3221,-1,-1,0
161.20,-176.30,-112.53,-532,-7770,-3225,-1,-1,0
161.19,-176.30,-112.54,-537,-7765,-3231,-1,-1,0
161.18,-176.29,-112.54,-543,-7764,-3233,-1,0,0
161.18,-176.29,-112.55,-549,-7765,-3241,-1,-1,0
161.18,-176.29,-112.56,-551,-7761,-3246,-1,-1,0
161.18,-176.29,-112.56,-547,-7768,-3241,0,-1,0
161.18,-176.29,-112.55,-545,-7758,-3227,0,-1,0
161.18,-176.28,-112.55,-542,-7758,-3222,-1,-1,0
161.18,-176.28,-112.55,-548,-7756,-3222,-1,-1,0
161.17,-176.28,-112.55,-542,-7763,-3219,-1,-1,0
161.17,-176.28,-112.55,-539,-7770,-3220,-1,-1,-1
161.17,-176.28,-112.55,-539,-7771,-3222,-1,-1,0
161.17,-176.28,-112.55,-546,-7764,-3219,-1,-1,0
161.17,-176.27,-112.55,-551,-7765,-3232,0,-1,0
161.17,-176.27,-112.55,-541,-7770,-3210,-1,0,0
161.16,-176.27,-112.55,-551,-7774,-3225,-1,-1,0
161.16,-176.26,-112.55,-556,-7777,-3231,-1,-1,0
161.16,-176.26,-112.55,-555,-7772,-3232,0,-1,0
161.16,-176.26,-112.55,-549,-7766,-3229,-1,-1,0
161.16,-176.26,-112.55,-551,-7757,-3227,-1,-1,0
161.16,-176.25,-112.55,-549,-7765,-3224,-1,-1,0
161.15,-176.26,-112.56,-551,-7768,-3234,-1,-1,0
161.15,-176.25,-112.56,-552,-7769,-3237,-1,-1,0
161.15,-176.25,-112.55,-543,-7769,-3230,-1,-1,0
161.15,-176.25,-112.56,-542,-7773,-3231,-1,-1,0
161.15,-176.25,-112.55,-541,-7773,-3226,0,-1,0
161.15,-176.25,-112.55,-540,-7777,-3227,-1,0,-1
161.15,-176.25,-112.56,-548,-7776,-3236,-1,-1,0
161.15,-176.24,-112.55,-547,-7767,-3243,0,-1,0
161.15,-176.24,-112.55,-551,-7761,-3236,0,-1,0
161.15,-176.24,-112.55,-558,-7767,-3230,0,-1,-1
161.16,-176.24,-112.54,-557,-7777,-3228,0,-1,-1
161.16,-176.24,-112.54,-557,-7773,-3236,0,-1,-1
161.16,-176.24,-112.54,-556,-7765,-3237,0,-1,0
161.16,-176.24,-112.54,-550,-7771,-3237,-1,-1,0
161.16,-176.24,-112.54,-556,-7767,-3239,0,-1,0
161.16,-176.24,-112.54,-566,-7764,-3234,-1,-1,-1
161.16,-176.24,-112.54,-568,-7767,-3237,0,-1,-1
161.17,-176.24,-112.54,-561,-7769,-3239,0,-1,-1
161.17,-176.24,-112.53,-553,-7772,-3224,0,-1,-1
161.18,-176.24,-112.52,-551,-7775,-3207,0,-1,-1
161.19,-176.25,-112.52,-545,-7777,-3210,-1,-1,-1
161.19,-176.25,-112.52,-545,-7777,-3208,-1,-1,-1
161.19,-176.25,-112.52,-544,-7769,-3220,-1,-1,-1
161.19,-176.25,-112.52,-548,-7766,-3213,0,0,0
161.20,-176.25,-112.51,-555,-7771,-3216,0,0,-1
161.20,-176.26,-112.52,-549,-7772,-3225,-1,0,-1
161.20,-176.26,-112.52,-538,-7771,-3232,0,-1,-1
161.20,-176.26,-112.52,-539,-7764,-3227,0,-1,-1
161.21,-176.27,-112.52,-542,-7760,-3218,-1,0,-1
161.21,-176.27,-112.52,-541,-7768,-3221,-1,0,-1
161.21,-176.27,-112.52,-552,-7772,-3230,0,-1,-1
161.22,-176.27,-112.51,-558,-7769,-3226,0,-1,-1
161.22,-176.27,-112.51,-555,-7765,-3224,0,-1,-1
161.22,-176.27,-112.51,-554,-7764,-3219,0,0,-1
161.22,-176.28,-112.51,-554,-7777,-3215,0,0,-1
161.22,-176.28,-112.51,-546,-7770,-3212,-1,0,0
161.22,-176.28,-112.51,-548,-7775,-3217,-1,-1,0
161.22,-176.27,-112.50,-545,-7778,-3210,0,-1,-1
161.22,-176.27,-112.50,-552,-7771,-3206,-1,0,0
161.23,-176.28,-112.50,-550,-7771,-3208,-1,0,-1
161.23,-176.28,-112.50,-548,-7771,-3214,-1,0,-1
161.23,-176.28,-112.50,-548,-7770,-3218,-1,0,-1
161.23,-176.29,-112.50,-543,-7776,-3224,0,0,-1
161.23,-176.29,-112.50,-549,-7771,-3215,-1,-1,0
161.23,-176.29,-112.50,-550,-7767,-3218,-1,0,-1
161.23,-176.29,-112.50,-542,-7763,-3216,-1,0,-1
161.24,-176.29,-112.50,-543,-7767,-3223,0,0,-1
161.24,-176.29,-112.50,-543,-7767,-3224,-1,0,-1
161.24,-176.30,-112.51,-542,-7772,-3232,-1,0,-1
161.24,-176.30,-112.51,-541,-7772,-3226,0,0,-1
161.24,-176.30,-112.51,-541,-7770,-3237,0,-1,-1
161.24,-176.30,-112.51,-541,-7771,-3230,0,0,-1
161.24,-176.30,-112.51,-538,-7775,-3232,-1,0,-1
161.24,-176.30,-112.51,-538,-7772,-3234,0,-1,-1
161.25,-176.31,-112.50,-537,-7773,-3228,-1,0,-1
161.25,-176.31,-112.50,-543,-7776,-3228,-1,0,-1
161.25,-176.31,-112.50,-547,-7777,-3229,0,-1,-1
161.25,-176.31,-112.50,-545,-7768,-3235,0,0,0
161.25,-176.31,-112.50,-547,-7768,-3217,0,0,-1
161.25,-176.31,-112.50,-552,-7772,-3225,0,0,-1
161.25,-176.31,-112.50,-549,-7778,-3225,-1,-1,-1
161.25,-176.31,-112.50,-547,-7774,-3221,-1,0,0
161.24,-176.31,-112.51,-550,-7773,-3219,-1,0,0
161.24,-176.31,-112.51,-550,-7779,-3219,-1,0,0
161.24,-176.31,-112.52,-551,-7774,-3233,-1,0,-1
161.24,-176.31,-112.52,-545,-7768,-3235,0,0,-1
161.24,-176.31,-112.52,-551,-7772,-3235,0,0,0
161.24,-176.31,-112.51,-546,-7768,-3217,0,0,0
161.24,-176.31,-112.51,-547,-7769,-3217,-1,0,-1
161.24,-176.31,-112.51,-545,-7775,-3221,-1,0,-1
161.23,-176.32,-112.52,-544,-7772,-3230,0,0,-1
161.23,-176.32,-112.52,-548,-7766,-3223,-1,0,0
161.24,-176.32,-112.52,-544,-7763,-3221,-1,0,-1
161.24,-176.32,-112.52,-540,-7771,-3227,0,0,-1
161.24,-176.32,-112.52,-539,-7769,-3227,-1,0,-1
161.24,-176.32,-112.52,-539,-7769,-3223,-1,-1,-1
161.24,-176.32,-112.52,-543,-7769,-3212,0,0,0
161.24,-176.32,-112.52,-542,-7770,-3212,-1,0,0
161.23,-176.32,-112.52,-539,-7773,-3221,-1,0,0
161.23,-176.32,-112.53,-542,-7769,-3221,-1,0,-1
161.23,-176.32,-112.53,-542,-7769,-3235,-1,0,-1
161.23,-176.32,-112.53,-541,-7771,-3238,0,0,-1
161.23,-176.32,-112.53,-539,-7775,-3228,-1,0,-1
161.23,-176.33,-112.53,-539,-7779,-3227,-1,0,0
161.22,-176.32,-112.53,-543,-7776,-3226,-1,0,0
161.22,-176.32,-112.53,-534,-7775,-3219,-1,0,0
161.22,-176.32,-112.53,-538,-7777,-3220,-1,-1,0
161.22,-176.32,-112.54,-542,-7773,-3220,-1,0,0
161.22,-176.32,-112.54,-537,-7761,-3212,-1,-1,-1
161.22,-176.32,-112.53,-531,-7761,-3216,-1,-1,0
161.22,-176.32,-112.53,-541,-7765,-3211,-1,-1,0
161.22,-176.32,-112.53,-542,-7767,-3212,-1,0,0
161.21,-176.32,-112.54,-545,-7774,-3220,-1,0,0
161.21,-176.31,-112.53,-545,-7775,-3224,0,-1,0
161.21,-176.31,-112.53,-534,-7764,-3229,0,-1,0
161.21,-176.32,-112.54,-535,-7769,-3227,-1,0,0
161.21,-176.31,-112.54,-543,-7766,-3231,-1,-1,0
161.21,-176.31,-112.54,-549,-7769,-3219,-1,0,0
161.20,-176.31,-112.54,-549,-7772,-3230,-1,-1,-1
161.20,-176.31,-112.54,-545,-7771,-3228,-1,-1,-1
161.20,-176.30,-112.54,-547,-7767,-3230,0,-1,0
161.20,-176.30,-112.54,-548,-7770,-3227,-1,0,-1
161.20,-176.30,-112.54,-545,-7772,-3230,-1,-1,0
161.20,-176.30,-112.54,-541,-7762,-3217,0,-1,0
161.20,-176.30,-112.53,-533,-7761,-3212,0,-1,-1
161.20,-176.30,-112.53,-541,-7768,-3224,-1,-1,-1
161.20,-176.30,-112.54,-542,-7779,-3230,-1,-1,0
161.20,-176.30,-112.54,-550,-7779,-3231,-1,-1,0
161.19,-176.29,-112.54,-550,-7770,-3228,-1,-1,0
161.19,-176.29,-112.54,-549,-7767,-3216,-1,-1,0
161.18,-176.29,-112.55,-547,-7764,-3217,-1,-1,0
161.18,-176.29,-112.55,-546,-7764,-3223,-1,-1,0
161.18,-176.29,-112.55,-546,-7772,-3230,0,0,0
161.19,-176.29,-112.54,-542,-7771,-3225,0,-1,-1
161.19,-176.28,-112.54,-546,-7769,-3223,0,-1,0
161.19,-176.28,-112.54,-549,-7774,-3225,-1,-1,0
161.18,-176.28,-112.54,-551,-7770,-3217,-1,-1,0
161.18,-176.28,-112.54,-551,-7764,-3226,-1,-1,0
161.17,-176.28,-112.54,-546,-7766,-3230,-1,-1,0
161.18,-176.27,-112.54,-545,-7760,-3226,0,-1,0
161.17,-176.28,-112.54,-543,-7768,-3235,0,-1,0
161.18,-176.27,-112.54,-545,-7768,-3233,-1,-1,0
161.17,-176.27,-112.55,-543,-7767,-3232,-1,-1,0
161.17,-176.27,-112.55,-552,-7772,-3221,-1,-1,0
161.16,-176.27,-112.55,-548,-7777,-3223,-1,-1,0
161.16,-176.26,-112.55,-546,-7775,-3228,-1,-1,0
161.16,-176.26,-112.55,-545,-7770,-3239,-1,-1,-1
161.16,-176.26,-112.55,-542,-7769,-3236,0,-1,0
161.16,-176.26,-112.55,-547,-7772,-3233,-1,-1,0
161.16,-176.26,-112.55,-546,-7767,-3226,-1,-1,0
161.15,-176.26,-112.56,-553,-7774,-3232,-1,0,-1
161.16,-176.25,-112.55,-556,-7776,-3232,-1,-1,0
161.16,-176.25,-112.55,-557,-7772,-3229,-1,-1,-1
161.15,-176.25,-112.55,-559,-7771,-3226,0,-1,-1
161.16,-176.25,-112.55,-555,-7768,-3230,0,-1,-1
161.16,-176.25,-112.55,-558,-7766,-3227,0,-1,-1
161.16,-176.25,-112.54,-549,-7762,-3230,0,-1,0
161.17,-176.25,-112.53,-549,-7760,-3228,0,-1,-1
161.17,-176.25,-112.53,-550,-7766,-3227,0,-1,0
161.17,-176.25,-112.53,-552,-7762,-3223,0,-1,-1
161.17,-176.24,-112.53,-553,-7764,-3231,0,-1,-1
161.17,-176.24,-112.53,-551,-7764,-3233,0,-1,-1
161.18,-176.25,-112.53,-552,-7762,-3229,0,-1,-1
161.18,-176.25,-112.52,-551,-7765,-3220,0,-1,0
161.18,-176.24,-112.51,-552,-7773,-3223,0,-1,-1
161.19,-176.25,-112.51,-544,-7769,-3220,-1,-1,0
161.19,-176.25,-112.51,-545,-7774,-3235,-1,-1,0
161.19,-176.25,-112.51,-547,-7765,-3235,0,-1,-1
161.19,-176.25,-112.51,-541,-7760,-3227,0,0,-1
161.20,-176.26,-112.51,-542,-7766,-3220,0,0,-1
161.21,-176.27,-112.50,-539,-7770,-3217,-1,0,-1
161.20,-176.26,-112.51,-546,-7764,-3226,-1,-1,0
161.20,-176.26,-112.51,-545,-7768,-3226,-1,-1,0
161.20,-176.26,-112.51,-548,-7774,-3234,-1,0,0
161.19,-176.26,-112.52,-552,-7771,-3238,-1,0,-1
161.19,-176.26,-112.52,-550,-7770,-3229,0,0,-1
161.19,-176.26,-112.52,-545,-7763,-3240,0,0,-1
161.20,-176.27,-112.51,-545,-7766,-3228,0,0,-1
161.20,-176.27,-112.51,-548,-7771,-3227,-1,0,-1
161.20,-176.27,-112.51,-548,-7773,-3212,-1,0,-1
161.20,-176.27,-112.51,-550,-7773,-3207,-1,-1,-1
161.20,-176.27,-112.51,-543,-7770,-3212,-1,0,0
161.20,-176.27,-112.51,-538,-7769,-3210,-1,0,0
161.20,-176.27,-112.52,-541,-7772,-3222,-1,0,0
161.20,-176.28,-112.51,-545,-7777,-3215,-1,0,-1
161.20,-176.27,-112.52,-548,-7773,-3228,-1,0,-1
161.20,-176.27,-112.52,-551,-7771,-3227,0,-1,-1
161.20,-176.28,-112.51,-551,-7761,-3216,0,0,0
161.20,-176.27,-112.51,-550,-7771,-3220,-1,-1,0
161.20,-176.27,-112.51,-549,-7765,-3222,-1,0,-1
161.20,-176.27,-112.52,-548,-7767,-3230,-1,0,-1
161.20,-176.27,-112.52,-543,-7768,-3232,0,-1,-1
161.20,-176.28,-112.51,-547,-7772,-3219,0,-1,-1
161.20,-176.28,-112.51,-554,-7765,-3221,0,0,-1
161.20,-176.28,-112.51,-548,-7767,-3231,-1,0,-1
161.21,-176.28,-112.51,-542,-7777,-3233,0,-1,-1
161.21,-176.28,-112.51,-544,-7774,-3221,0,-1,0
161.20,-176.28,-112.51,-535,-7769,-3225,0,-1,0
161.20,-176.28,-112.51,-547,-7764,-3233,0,-1,-1
161.21,-176.28,-112.51,-544,-7767,-3223,-1,0,-1
161.22,-176.29,-112.51,-539,-7768,-3222,-1,0,-1
161.21,-176.29,-112.51,-537,-7764,-3219,0,0,-1
161.21,-176.29,-112.51,-539,-7764,-3217,0,-1,0
161.22,-176.29,-112.51,-547,-7761,-3212,-1,0,0
161.21,-176.29,-112.51,-548,-7761,-3220,-1,0,-1
161.21,-176.29,-112.51,-544,-7762,-3223,-1,-1,-1
161.22,-176.29,-112.51,-544,-7763,-3218,0,0,-1
161.22,-176.29,-112.51,-547,-7766,-3219,0,-1,-1
161.22,-176.29,-112.51,-547,-7774,-3214,-1,0,-1
161.22,-176.29,-112.51,-546,-7777,-3215,-1,0,-1
161.22,-176.29,-112.51,-550,-7769,-3217,-1,0,-1
161.22,-176.29,-112.51,-547,-7766,-3220,-1,0,-1
161.22,-176.30,-112.52,-539,-7763,-3219,-1,0,-1
161.21,-176.29,-112.52,-546,-7759,-3240,0,0,0
161.21,-176.30,-112.52,-545,-7764,-3229,0,0,0
161.21,-176.29,-112.51,-543,-7764,-3218,-1,0,-1
161.21,-176.30,-112.52,-543,-7771,-3227,-1,0,-1
161.21,-176.30,-112.53,-542,-7772,-3226,-1,-1,-1
161.21,-176.30,-112.53,-542,-7771,-3224,-1,-1,0
161.21,-176.30,-112.53,-535,-7767,-3210,-1,0,0
161.20,-176.30,-112.53,-540,-7768,-3214,-1,0,0
161.20,-176.30,-112.53,-542,-7771,-3228,-1,0,-1
161.20,-176.30,-112.53,-546,-7772,-3231,0,-1,-1
161.20,-176.30,-112.53,-546,-7767,-3225,0,0,-1
161.20,-176.30,-112.53,-549,-7766,-3223,-1,0,0
161.20,-176.30,-112.53,-542,-7771,-3224,-1,0,-1
161.20,-176.30,-112.53,-545,-7772,-3217,-1,0,0
161.20,-176.30,-112.53,-540,-7774,-3224,-1,0,0
161.20,-176.30,-112.53,-536,-7773,-3215,-1,-1,0
161.20,-176.30,-112.53,-538,-7769,-3212,-1,0,0
161.20,-176.30,-112.53,-539,-7769,-3216,0,-1,-1
161.21,-176.30,-112.53,-536,-7775,-3221,-1,-1,0
161.21,-176.30,-112.53,-537,-7772,-3217,-1,-1,0
161.21,-176.30,-112.53,-533,-7772,-3222,0,-1,0
161.21,-176.30,-112.52,-538,-7767,-3213,-1,-1,0
161.19,-176.29,-112.53,-539,-7773,-3214,-1,0,0
161.19,-176.29,-112.53,-551,-7766,-3231,-1,0,0
161.19,-176.29,-112.53,-546,-7769,-3240,0,-1,-1
161.19,-176.29,-112.53,-546,-7768,-3226,0,-1,0
161.19,-176.29,-112.53,-546,-7766,-3221,0,0,-1
161.19,-176.29,-112.53,-540,-7767,-3224,-1,0,0
161.20,-176.30,-112.53,-539,-7774,-3235,-1,0,-1
161.20,-176.30,-112.53,-538,-7776,-3234,-1,-1,0
161.19,-176.29,-112.53,-537,-7766,-3231,-1,-1,0
161.19,-176.30,-112.54,-539,-7767,-3238,0,-1,0
161.19,-176.29,-112.53,-539,-7775,-3229,-1,-1,-1
161.20,-176.30,-112.53,-539,-7774,-3229,0,-1,-1
161.20,-176.30,-112.53,-538,-7772,-3222,0,-1,0
161.20,-176.30,-112.53,-535,-7761,-3221,-1,-1,0
161.20,-176.30,-112.53,-537,-7764,-3216,-1,-1,0
161.20,-176.30,-112.53,-537,-7764,-3220,-1,-1,0
161.19,-176.29,-112.53,-535,-7765,-3227,-1,-1,0
161.19,-176.29,-112.53,-539,-7761,-3222,-1,-1,0
161.19,-176.29,-112.53,-545,-7761,-3212,-1,-1,-1
161.19,-176.29,-112.53,-538,-7767,-3211,-1,-1,0
161.19,-176.29,-112.53,-536,-7772,-3213,-1,-1,0
161.19,-176.29,-112.53,-535,-7769,-3212,-1,-1,0
161.19,-176.29,-112.53,-541,-7765,-3214,-1,-1,0
161.19,-176.29,-112.53,-543,-7767,-3214,-1,0,0
161.19,-176.30,-112.53,-535,-7772,-3227,-1,0,-1
161.19,-176.29,-112.54,-537,-7771,-3248,-1,-1,-1
161.19,-176.29,-112.54,-533,-7765,-3245,0,-1,0
161.19,-176.29,-112.54,-538,-7762,-3234,0,-1,0
161.19,-176.29,-112.53,-545,-7770,-3227,0,-1,0
161.19,-176.29,-112.53,-543,-7780,-3222,-1,0,-1
161.19,-176.29,-112.54,-541,-7777,-3225,-1,0,0
161.18,-176.28,-112.54,-542,-7772,-3229,-1,-1,0
161.17,-176.28,-112.54,-550,-7771,-3225,-1,-1,0
161.17,-176.28,-112.55,-551,-7767,-3226,-1,0,0
161.17,-176.28,-112.55,-549,-7763,-3234,-1,-1,-1
161.17,-176.28,-112.55,-543,-7761,-3229,0,-1,0
161.17,-176.28,-112.55,-549,-7767,-3223,0,-1,0
161.17,-176.28,-112.54,-549,-7770,-3227,0,-1,0
161.17,-176.28,-112.54,-543,-7779,-3219,-1,-1,0
161.17,-176.28,-112.54,-538,-7781,-3221,-1,0,0
161.17,-176.28,-112.54,-536,-7772,-3226,-1,-1,0
161.17,-176.28,-112.54,-543,-7763,-3226,-1,-1,0
161.17,-176.28,-112.54,-540,-7775,-3233,-1,-1,0
161.17,-176.28,-112.55,-538,-7778,-3237,-1,-1,0
161.17,-176.28,-112.55,-535,-7781,-3238,-1,-1,0
161.17,-176.28,-112.55,-541,-7783,-3238,0,-1,0
161.17,-176.28,-112.54,-542,-7775,-3233,-1,-1,0
161.17,-176.27,-112.54,-551,-7774,-3217,-1,-1,0
161.17,-176.27,-112.54,-555,-7769,-3222,-1,-1,0
161.16,-176.26,-112.54,-549,-7768,-3230,0,-1,-1
161.16,-176.26,-112.54,-553,-7771,-3226,0,-1,0
161.17,-176.26,-112.54,-549,-7768,-3226,0,-1,-1
161.17,-176.26,-112.53,-549,-7763,-3214,-1,-1,-1
161.17,-176.27,-112.54,-545,-7771,-3224,0,-1,-1
161.17,-176.27,-112.54,-550,-7771,-3236,0,-1,-1
161.17,-176.27,-112.54,-547,-7775,-3232,0,-1,-1
161.18,-176.27,-112.53,-542,-7774,-3233,0,-1,-1
161.19,-176.27,-112.52,-541,-7765,-3237,0,-1,-1
161.19,-176.27,-112.52,-540,-7767,-3235,0,-1,-1
161.19,-176.27,-112.52,-541,-7766,-3233,0,-1,-1
161.20,-176.27,-112.52,-540,-7758,-3224,0,-1,-1
161.20,-176.27,-112.52,-543,-7761,-3227,0,0,-1
161.20,-176.27,-112.52,-543,-7763,-3224,-1,-1,-1
161.20,-176.28,-112.52,-537,-7762,-3219,0,-1,-1
161.20,-176.28,-112.52,-536,-7768,-3211,0,0,-1
161.21,-176.29,-112.51,-537,-7775,-3216,0,0,-1
161.21,-176.29,-112.51,-543,-7778,-3227,0,0,-1
161.21,-176.29,-112.51,-544,-7779,-3217,-1,0,-1
161.21,-176.29,-112.51,-544,-7776,-3212,-1,0,-1
161.20,-176.29,-112.51,-542,-7773,-3216,-1,0,-1
161.20,-176.29,-112.51,-541,-7769,-3215,0,0,-1
161.21,-176.29,-112.51,-540,-7765,-3217,0,0,-1
161.22,-176.29,-112.50,-541,-7768,-3214,0,0,-1
161.22,-176.30,-112.51,-542,-7773,-3210,-1,0,-1
161.22,-176.30,-112.51,-545,-7773,-3216,-1,-1,0
161.21,-176.29,-112.51,-545,-7773,-3224,-1,-1,0
161.21,-176.29,-112.51,-549,-7770,-3218,-1,-1,0
161.21,-176.29,-112.51,-556,-7774,-3224,0,0,0
161.21,-176.29,-112.51,-550,-7766,-3224,0,0,-1
161.21,-176.29,-112.51,-552,-7768,-3224,-1,0,-1
161.21,-176.29,-112.51,-557,-7770,-3225,0,0,-1
161.21,-176.29,-112.50,-551,-7775,-3224,0,-1,-1
161.21,-176.29,-112.50,-549,-7773,-3226,0,0,-1
161.21,-176.29,-112.50,-545,-7764,-3223,-1,0,0
161.21,-176.30,-112.51,-548,-7766,-3226,-1,0,-1
161.21,-176.30,-112.51,-550,-7766,-3216,-1,0,-1
161.21,-176.30,-112.51,-547,-7769,-3220,-1,0,0
161.21,-176.30,-112.51,-545,-7773,-3220,-1,0,-1
161.22,-176.30,-112.51,-540,-7772,-3225,0,0,0
161.22,-176.30,-112.51,-539,-7763,-3217,-1,0,0
161.22,-176.30,-112.51,-538,-7769,-3216,0,-1,0
161.22,-176.30,-112.51,-535,-7772,-3220,-1,0,0
161.22,-176.30,-112.51,-535,-7764,-3224,-1,0,-1
161.22,-176.30,-112.51,-537,-7769,-3222,-1,0,-1
161.22,-176.30,-112.51,-538,-7768,-3226,0,-1,-1
161.22,-176.30,-112.51,-543,-7764,-3220,0,0,-1
161.22,-176.31,-112.50,-542,-7766,-3214,0,0,-1
161.22,-176.31,-112.50,-544,-7768,-3215,-1,0,-1
161.22,-176.31,-112.50,-543,-7773,-3222,-1,0,0
161.22,-176.31,-112.51,-539,-7774,-3227,-1,0,-1
161.22,-176.31,-112.51,-537,-7774,-3225,0,-1,-1
161.22,-176.31,-112.51,-539,-7764,-3206,-1,0,0
161.22,-176.31,-112.51,-542,-7767,-3222,0,0,0
161.22,-176.31,-112.51,-542,-7765,-3221,-1,-1,0
161.22,-176.31,-112.51,-543,-7771,-3221,-1,0,-1
161.22,-176.31,-112.51,-535,-7770,-3222,-1,-1,0
161.22,-176.31,-112.51,-529,-7770,-3224,0,-1,0
161.22,-176.31,-112.51,-538,-7772,-3215,-1,0,0
161.22,-176.31,-112.51,-536,-7775,-3221,0,0,0
161.21,-176.31,-112.51,-539,-7770,-3221,-1,-1,0
161.21,-176.31,-112.51,-538,-7774,-3224,-1,-1,0
161.21,-176.31,-112.51,-537,-7771,-3220,-1,0,-1
161.21,-176.31,-112.51,-535,-7768,-3227,-1,-1,0
161.21,-176.31,-112.52,-534,-7773,-3238,0,-1,0
161.21,-176.31,-112.51,-533,-7772,-3219,0,-1,-1
161.22,-176.32,-112.51,-542,-7769,-3217,0,0,-1
161.22,-176.32,-112.51,-539,-7780,-3222,-1,0,-1
161.22,-176.32,-112.51,-539,-7782,-3231,-1,-1,-1
161.21,-176.31,-112.52,-547,-7776,-3233,-1,-1,0
161.21,-176.31,-112.52,-544,-7766,-3234,-1,-1,0
161.21,-176.31,-112.52,-548,-7770,-3238,-1,0,0
161.20,-176.31,-112.52,-543,-7772,-3232,-1,0,0
161.20,-176.31,-112.52,-543,-7771,-3233,0,0,-1
161.20,-176.31,-112.52,-542,-7775,-3226,0,-1,-1
161.21,-176.31,-112.52,-545,-7775,-3229,0,-1,-1
