Yaw,Pitch,Roll,AX,AY,AZ,GX,GY,GZ
24.09,12.16,-43.59,1729,-5591,5861,0,-1,0
24.09,12.17,-43.58,1726,-5595,5853,0,-1,0
24.09,12.17,-43.58,1728,-5596,5852,0,-1,0
24.09,12.18,-43.57,1722,-5594,5846,0,-1,-1
24.09,12.18,-43.56,1727,-5587,5851,0,-1,-1
24.09,12.19,-43.56,1740,-5605,5851,0,-1,0
24.08,12.18,-43.53,1733,-5590,5859,0,0,0
24.09,12.19,-43.52,1731,-5592,5874,0,-1,0
24.09,12.19,-43.51,1735,-5585,5883,0,-1,-1
24.09,12.20,-43.51,1736,-5592,5875,0,-1,0
24.08,12.19,-43.49,1736,-5582,5874,0,-1,0
24.08,12.20,-43.49,1732,-5583,5872,0,-1,0
24.08,12.20,-43.48,1734,-5578,5861,0,-1,0
24.08,12.21,-43.48,1736,-5587,5860,0,-1,0
24.07,12.20,-43.48,1732,-5579,5870,0,-1,0
24.07,12.22,-43.47,1733,-5589,5868,0,-1,0
24.07,12.22,-43.47,1727,-5593,5882,0,-1,-1
24.07,12.22,-43.46,1735,-5587,5876,0,-1,0
24.07,12.23,-43.45,1742,-5582,5867,0,-1,-1
24.07,12.23,-43.44,1743,-5576,5872,0,-1,0
24.07,12.23,-43.44,1743,-5569,5862,0,-1,0
24.06,12.23,-43.43,1738,-5567,5852,0,-1,0
24.06,12.23,-43.42,1734,-5572,5855,0,-1,0
24.05,12.22,-43.41,1733,-5575,5865,0,-1,0
24.05,12.22,-43.40,1736,-5579,5870,0,-1,0
24.05,12.23,-43.40,1744,-5574,5875,0,0,-1
24.05,12.23,-43.39,1737,-5568,5872,0,-1,-1
24.06,12.24,-43.38,1752,-5561,5871,0,-1,0
24.06,12.25,-43.38,1752,-5563,5879,0,-1,0
24.05,12.24,-43.37,1746,-5566,5883,0,-1,0
24.04,12.24,-43.38,1745,-5588,5882,0,-1,0
24.04,12.25,-43.37,1741,-5589,5890,0,-1,0
24.03,12.24,-43.37,1727,-5588,5875,0,-1,-1
24.03,12.24,-43.36,1727,-5585,5873,0,-1,-1
24.04,12.25,-43.34,1741,-5575,5874,0,-1,-1
24.04,12.26,-43.33,1750,-5571,5870,0,0,-1
24.04,12.26,-43.31,1757,-5559,5876,0,-1,0
24.04,12.26,-43.30,1757,-5556,5877,0,-1,0
24.03,12.27,-43.29,1762,-5553,5882,0,0,0
24.03,12.26,-43.28,1751,-5556,5883,0,-1,0
24.02,12.26,-43.28,1740,-5557,5886,0,-1,0
24.02,12.26,-43.27,1734,-5557,5881,0,-1,0
24.02,12.26,-43.27,1733,-5559,5888,0,-1,0
24.01,12.27,-43.26,1740,-5555,5895,0,-1,0
24.01,12.27,-43.27,1745,-5564,5880,0,-1,-1
24.01,12.28,-43.27,1743,-5569,5875,0,-1,0
24.00,12.28,-43.27,1739,-5567,5865,0,-1,0
24.00,12.27,-43.25,1738,-5558,5878,0,-1,0
24.00,12.28,-43.25,1742,-5553,5892,0,-1,0
24.00,12.28,-43.24,1745,-5554,5885,0,-1,0
23.99,12.28,-43.23,1747,-5550,5892,0,-1,0
23.99,12.28,-43.23,1744,-5546,5903,-1,0,0
23.98,12.27,-43.23,1742,-5551,5903,-1,0,-1
23.98,12.26,-43.24,1736,-5560,5886,-1,0,-1
23.98,12.26,-43.26,1736,-5563,5881,-1,0,-1
23.98,12.25,-43.26,1739,-5557,5886,-1,0,-1
23.98,12.25,-43.27,1731,-5557,5879,-1,0,-1
23.99,12.25,-43.27,1743,-5566,5885,-1,0,-1
23.99,12.25,-43.28,1741,-5562,5900,-1,0,-1
23.99,12.24,-43.28,1735,-5570,5885,-1,0,-1
23.99,12.24,-43.29,1743,-5564,5890,-1,0,-1
24.00,12.24,-43.30,1743,-5558,5881,-1,0,-1
24.00,12.24,-43.31,1742,-5558,5876,-1,0,-1
24.00,12.23,-43.32,1744,-5560,5881,-1,0,-1
24.00,12.22,-43.32,1744,-5565,5885,-1,0,-1
24.00,12.21,-43.34,1740,-5574,5878,-1,0,-1
24.00,12.21,-43.35,1739,-5574,5880,-1,0,-1
24.00,12.20,-43.35,1739,-5561,5885,-1,0,-1
24.01,12.19,-43.36,1735,-5559,5874,-1,0,-1
24.00,12.19,-43.37,1731,-5562,5868,-1,0,-1
24.00,12.18,-43.38,1732,-5570,5879,-1,0,-1
24.00,12.17,-43.40,1730,-5574,5871,-1,0,-1
24.00,12.16,-43.40,1730,-5576,5873,-1,0,-1
24.01,12.16,-43.41,1732,-5564,5883,-1,0,-1
24.01,12.15,-43.42,1735,-5563,5872,-1,0,-1
24.01,12.15,-43.43,1741,-5566,5872,-1,0,-1
24.01,12.14,-43.44,1741,-5566,5878,-1,0,-1
24.01,12.13,-43.46,1738,-5573,5877,-1,0,0
24.01,12.11,-43.47,1728,-5572,5875,-1,0,0
24.00,12.10,-43.48,1717,-5573,5869,-1,0,0
24.00,12.09,-43.51,1709,-5598,5858,-1,0,-1
24.01,12.08,-43.52,1713,-5598,5872,-1,0,-1
24.01,12.06,-43.53,1707,-5588,5875,-1,0,-1
24.01,12.06,-43.54,1712,-5588,5874,-1,0,-1
24.01,12.04,-43.55,1719,-5590,5869,-1,0,-1
24.02,12.03,-43.58,1730,-5592,5885,-1,1,-1
24.03,12.01,-43.60,1719,-5583,5881,-2,1,-1
24.02,11.99,-43.63,1728,-5589,5859,-1,0,0
24.02,11.98,-43.65,1732,-5593,5876,-2,1,-1
24.02,11.95,-43.69,1718,-5613,5865,-2,1,0
24.01,11.93,-43.73,1697,-5599,5861,-2,0,-1
24.01,11.91,-43.76,1684,-5604,5885,-2,1,-1
24.01,11.91,-43.82,1697,-5616,5852,-2,0,-1
24.01,11.89,-43.86,1691,-5633,5831,-2,0,-1
24.00,11.90,-43.90,1685,-5637,5819,-2,-1,0
24.00,11.90,-43.93,1705,-5645,5810,-1,1,-1
23.99,11.87,-43.95,1673,-5655,5824,-2,0,0
23.98,11.88,-43.98,1702,-5652,5814,-1,-1,0
23.97,11.87,-44.00,1687,-5638,5824,-1,-2,0
23.97,11.89,-44.03,1713,-5646,5778,-1,0,-1
23.95,11.88,-44.04,1682,-5638,5802,-1,0,0
23.94,11.88,-44.04,1679,-5643,5809,-1,-1,0
23.94,11.88,-44.05,1696,-5645,5821,-1,0,0
23.94,11.88,-44.06,1684,-5672,5802,0,-1,-1
23.94,11.89,-44.06,1675,-5657,5827,-1,-1,-1
23.93,11.88,-44.06,1653,-5670,5805,0,-1,-1
23.94,11.89,-44.04,1685,-5638,5838,0,-1,-1
23.94,11.91,-44.05,1688,-5655,5821,-1,-1,-1
23.94,11.91,-44.04,1699,-5652,5808,0,0,0
23.94,11.91,-44.03,1696,-5663,5786,0,-1,0
23.94,11.91,-44.02,1706,-5649,5805,0,0,0
23.94,11.92,-44.00,1699,-5648,5814,0,-1,0
23.93,11.92,-43.97,1682,-5651,5808,1,-1,0
23.93,11.92,-43.96,1679,-5656,5801,0,-1,-1
23.93,11.94,-43.93,1693,-5654,5819,1,-1,-1
23.94,11.95,-43.90,1689,-5643,5836,1,-1,0
23.93,11.96,-43.88,1681,-5628,5831,0,-1,-1
23.94,11.98,-43.86,1689,-5612,5823,1,-1,-1
23.94,12.00,-43.83,1704,-5611,5841,0,-1,0
23.94,12.02,-43.82,1709,-5607,5842,0,-1,0
23.93,12.02,-43.80,1711,-5612,5842,0,-1,0
23.93,12.03,-43.79,1702,-5623,5828,0,-1,0
23.93,12.05,-43.78,1718,-5636,5848,0,-1,0
23.92,12.06,-43.77,1721,-5628,5850,0,-1,0
23.93,12.07,-43.75,1725,-5630,5830,0,-1,-1
23.93,12.08,-43.73,1728,-5612,5830,0,-1,-1
23.93,12.09,-43.71,1728,-5605,5841,0,-1,0
23.93,12.10,-43.70,1730,-5611,5836,0,-1,0
23.93,12.10,-43.69,1730,-5619,5849,0,-1,0
23.92,12.10,-43.68,1725,-5612,5836,0,-1,0
23.92,12.11,-43.67,1718,-5621,5837,0,-1,0
23.91,12.11,-43.66,1711,-5622,5832,0,-1,-1
23.91,12.12,-43.64,1717,-5616,5834,0,-1,-1
23.92,12.13,-43.63,1715,-5606,5836,0,-1,-1
23.91,12.13,-43.62,1723,-5601,5845,0,-1,-1
23.92,12.14,-43.61,1736,-5600,5838,0,-1,0
23.91,12.14,-43.60,1735,-5598,5850,0,-1,0
23.91,12.15,-43.59,1736,-5590,5860,0,-1,0
23.91,12.16,-43.58,1732,-5594,5862,0,-1,0
23.90,12.16,-43.57,1734,-5596,5865,0,-1,0
23.90,12.16,-43.57,1736,-5594,5859,0,-1,0
23.89,12.16,-43.57,1728,-5599,5855,0,-1,-1
23.89,12.17,-43.57,1726,-5595,5852,0,-1,0
23.89,12.18,-43.56,1729,-5607,5851,0,-1,-1
23.89,12.18,-43.55,1737,-5608,5864,0,-1,0
23.89,12.18,-43.54,1738,-5607,5859,0,-1,-1
23.89,12.19,-43.53,1734,-5597,5854,0,-1,-1
23.89,12.19,-43.52,1734,-5592,5850,0,-1,-1
23.89,12.19,-43.50,1739,-5587,5845,0,-1,0
23.89,12.19,-43.49,1735,-5586,5846,0,0,0
23.88,12.17,-43.48,1735,-5586,5857,0,0,0
23.88,12.17,-43.47,1737,-5585,5869,0,-1,0
23.88,12.17,-43.47,1731,-5591,5860,0,0,-1
23.88,12.17,-43.47,1722,-5597,5856,0,-1,0
23.87,12.17,-43.47,1723,-5608,5845,0,-1,0
23.86,12.17,-43.47,1725,-5602,5851,0,-1,-1
23.87,12.17,-43.46,1729,-5595,5863,0,-1,0
23.86,12.18,-43.46,1731,-5593,5862,0,-1,0
23.86,12.19,-43.45,1745,-5591,5866,0,-1,0
23.86,12.19,-43.44,1739,-5595,5878,0,0,0
23.86,12.18,-43.43,1739,-5589,5882,0,-1,0
23.85,12.17,-43.43,1727,-5584,5870,0,-1,0
23.84,12.17,-43.42,1726,-5577,5872,0,-1,0
23.84,12.18,-43.42,1725,-5574,5875,0,-1,0
23.83,12.18,-43.42,1733,-5586,5863,0,-1,0
23.83,12.18,-43.42,1746,-5601,5867,0,-1,-1
23.83,12.18,-43.40,1727,-5588,5874,0,-1,0
23.83,12.19,-43.40,1717,-5587,5857,0,-1,0
23.82,12.19,-43.40,1722,-5595,5847,0,-1,-1
23.82,12.19,-43.40,1727,-5596,5849,0,-1,0
23.82,12.19,-43.39,1729,-5593,5851,0,-1,0
23.81,12.20,-43.37,1729,-5590,5858,0,-1,-1
23.81,12.19,-43.36,1730,-5579,5864,0,0,0
23.82,12.19,-43.34,1737,-5576,5867,0,0,0
23.81,12.19,-43.33,1732,-5572,5867,0,-1,0
23.81,12.19,-43.33,1730,-5572,5863,0,-1,0
23.81,12.19,-43.32,1737,-5578,5878,0,-1,0
23.79,12.19,-43.31,1729,-5577,5881,0,-1,0
23.79,12.19,-43.31,1725,-5594,5872,0,-1,0
23.78,12.19,-43.30,1719,-5590,5885,0,-1,0
23.78,12.19,-43.30,1722,-5587,5863,0,-1,0
23.78,12.20,-43.29,1725,-5585,5861,0,-1,0
23.78,12.20,-43.28,1736,-5575,5867,0,-1,-1
23.77,12.21,-43.26,1740,-5569,5870,0,-1,0
23.78,12.21,-43.25,1746,-5563,5870,0,-1,0
23.77,12.22,-43.24,1741,-5559,5876,0,-1,0
23.76,12.21,-43.23,1743,-5555,5884,0,0,0
23.76,12.21,-43.22,1730,-5565,5891,0,-1,0
23.76,12.22,-43.21,1735,-5572,5891,0,-1,0
23.75,12.21,-43.20,1726,-5569,5877,0,-1,0
23.75,12.22,-43.20,1725,-5581,5873,0,-1,-1
23.75,12.22,-43.20,1737,-5572,5874,0,0,-1
23.75,12.23,-43.19,1734,-5566,5886,0,-1,-1
23.75,12.24,-43.18,1742,-5572,5873,0,-1,0
23.75,12.24,-43.17,1743,-5565,5885,0,-1,0
23.75,12.25,-43.15,1744,-5558,5878,0,-1,-1
23.75,12.25,-43.14,1749,-5559,5884,0,-1,0
23.74,12.25,-43.13,1750,-5554,5884,0,-1,0
23.74,12.25,-43.12,1750,-5556,5885,0,-1,0
23.75,12.26,-43.11,1757,-5558,5887,0,0,-1
23.75,12.25,-43.08,1744,-5548,5909,0,-1,0
23.74,12.25,-43.08,1748,-5549,5896,0,-1,0
23.74,12.26,-43.08,1745,-5554,5890,0,-1,0
23.74,12.26,-43.08,1739,-5559,5895,0,-1,-1
23.73,12.26,-43.08,1744,-5562,5896,-1,0,-1
23.74,12.26,-43.08,1745,-5552,5890,-1,-1,-1
23.73,12.25,-43.09,1749,-5550,5886,-1,0,0
23.73,12.25,-43.10,1747,-5549,5891,-1,0,-1
23.73,12.24,-43.11,1753,-5555,5892,-1,0,0
3.27,4.10,-45.42,-258,-258,-258,-258,-258,-258
23.73,12.21,-43.12,1733,-5547,5905,-1,0,-1
23.73,12.20,-43.15,1734,-5549,5886,-1,0,-1
23.73,12.20,-43.17,1743,-5558,5879,-1,0,-1
23.74,12.18,-43.18,1736,-5556,5897,-1,0,-1
23.73,12.17,-43.20,1745,-5584,5863,-1,0,0
23.73,12.15,-43.22,1723,-5581,5858,-1,0,0
23.72,12.15,-43.23,1716,-5587,5866,0,0,0
23.72,12.15,-43.22,1710,-5577,5879,0,-1,-1
23.72,12.15,-43.22,1714,-5583,5871,0,-1,-1
23.73,12.15,-43.21,1724,-5569,5890,0,0,-1
23.73,12.16,-43.21,1732,-5568,5893,0,0,-1
23.73,12.15,-43.21,1733,-5558,5890,0,0,-1
23.74,12.15,-43.21,1740,-5562,5888,-1,0,-1
23.74,12.13,-43.22,1728,-5573,5884,-1,0,0
23.73,12.12,-43.23,1715,-5574,5884,-1,0,-1
23.73,12.11,-43.25,1704,-5584,5882,-1,0,-1
23.72,12.10,-43.26,1706,-5584,5880,-1,0,-1
23.73,12.09,-43.26,1708,-5585,5889,-1,0,-1
23.73,12.08,-43.27,1719,-5580,5887,-1,0,-1
23.74,12.08,-43.28,1725,-5575,5887,-1,0,-1
23.74,12.07,-43.30,1728,-5580,5880,-1,0,-1
23.74,12.06,-43.32,1732,-5579,5867,-1,1,-1
23.75,12.04,-43.35,1727,-5584,5870,-2,0,-1
23.74,12.03,-43.38,1722,-5583,5871,-1,0,-1
23.75,12.01,-43.40,1730,-5582,5899,-1,1,-1
23.73,11.97,-43.43,1695,-5591,5864,-2,0,0
23.73,11.96,-43.46,1698,-5596,5851,-1,0,-1
23.73,11.95,-43.49,1690,-5605,5875,-2,0,-1
23.73,11.94,-43.51,1699,-5603,5863,-1,1,-1
23.73,11.92,-43.55,1685,-5607,5865,-2,0,-1
23.73,11.92,-43.59,1691,-5610,5846,-2,0,-1
23.72,11.92,-43.63,1696,-5622,5849,-2,-1,0
23.73,11.92,-43.66,1716,-5637,5831,-1,0,-1
23.72,11.90,-43.68,1686,-5622,5813,-1,0,0
23.72,11.89,-43.69,1703,-5623,5840,-1,0,-1
23.71,11.87,-43.70,1684,-5641,5845,-1,0,0
23.70,11.85,-43.71,1686,-5630,5834,-1,0,0
23.70,11.84,-43.72,1665,-5638,5849,-1,-1,-1
23.69,11.85,-43.75,1663,-5634,5844,-2,-2,-1
23.69,11.86,-43.77,1698,-5652,5821,-1,0,0
23.69,11.86,-43.77,1688,-5646,5825,0,-1,0
23.68,11.85,-43.78,1676,-5638,5803,0,-1,-1
23.68,11.85,-43.77,1668,-5623,5834,-1,-1,-1
23.69,11.86,-43.77,1682,-5631,5841,0,-1,-1
23.68,11.86,-43.78,1681,-5635,5844,-1,-1,-1
23.69,11.87,-43.77,1687,-5632,5837,0,-1,-1
23.68,11.87,-43.77,1686,-5631,5832,0,-1,0
23.68,11.88,-43.77,1695,-5650,5823,0,-1,-1
23.67,11.88,-43.76,1693,-5644,5831,0,-1,0
23.68,11.89,-43.75,1688,-5641,5823,0,-1,-1
23.67,11.89,-43.73,1685,-5633,5832,0,-1,-1
23.68,11.91,-43.72,1683,-5629,5828,0,-1,0
23.67,11.91,-43.72,1694,-5627,5829,0,-1,0
23.67,11.92,-43.71,1688,-5628,5829,0,-1,0
23.67,11.93,-43.70,1688,-5626,5827,0,-1,0
23.67,11.93,-43.68,1694,-5628,5837,0,-1,0
23.67,11.94,-43.67,1701,-5627,5844,0,-1,0
23.66,11.94,-43.66,1693,-5621,5848,0,-1,-1
23.66,11.96,-43.65,1693,-5622,5840,0,-1,-1
23.66,11.96,-43.64,1707,-5618,5843,0,-1,0
23.66,11.97,-43.64,1708,-5624,5836,0,-1,0
23.65,11.98,-43.63,1703,-5632,5824,0,-1,0
23.65,11.98,-43.63,1708,-5640,5825,0,-1,0
23.65,11.99,-43.62,1713,-5644,5833,0,-1,0
23.65,12.00,-43.61,1702,-5636,5830,0,-1,-1
23.64,12.00,-43.60,1699,-5627,5835,0,-1,-1
23.64,12.01,-43.58,1702,-5612,5831,0,-1,0
23.64,12.02,-43.56,1700,-5604,5843,0,-1,0
23.64,12.03,-43.55,1710,-5599,5841,0,-1,0
23.64,12.03,-43.55,1720,-5608,5850,0,-1,0
23.64,12.03,-43.53,1706,-5600,5861,0,-1,0
23.63,12.03,-43.52,1700,-5608,5846,0,-1,0
23.63,12.03,-43.52,1698,-5611,5846,0,-1,0
23.62,12.04,-43.52,1701,-5604,5847,0,-1,-1
23.62,12.05,-43.51,1705,-5607,5851,0,-1,0
23.62,12.06,-43.51,1713,-5614,5854,0,-1,-1
23.61,12.07,-43.50,1717,-5619,5849,0,-1,0
23.62,12.07,-43.50,1725,-5614,5850,0,-1,0
23.61,12.07,-43.49,1717,-5622,5848,0,-1,0
23.61,12.08,-43.48,1723,-5614,5843,0,-1,0
23.60,12.08,-43.47,1716,-5608,5843,0,-1,-1
23.60,12.09,-43.46,1722,-5603,5847,0,-1,0
23.60,12.10,-43.45,1729,-5603,5858,0,-1,0
23.60,12.10,-43.44,1728,-5600,5859,0,-1,0
23.59,12.11,-43.43,1731,-5598,5853,0,-1,0
23.59,12.11,-43.42,1721,-5593,5863,0,-1,0
23.59,12.11,-43.42,1718,-5601,5869,0,-1,0
23.58,12.12,-43.41,1714,-5598,5859,0,-1,0
23.58,12.12,-43.41,1716,-5602,5854,0,-1,-1
23.57,12.12,-43.40,1713,-5597,5856,0,-1,0
23.57,12.13,-43.40,1715,-5584,5853,0,-1,-1
23.56,12.14,-43.39,1714,-5585,5853,0,-1,0
23.56,12.15,-43.39,1729,-5595,5865,0,-1,0
23.56,12.15,-43.37,1729,-5588,5868,0,-1,0
23.56,12.15,-43.37,1722,-5593,5868,0,-1,0
23.55,12.15,-43.36,1723,-5586,5866,0,-1,0
23.56,12.15,-43.35,1727,-5580,5871,0,-1,-1
23.55,12.16,-43.34,1726,-5586,5862,0,-1,0
23.56,12.17,-43.33,1726,-5587,5872,0,-1,-1
23.55,12.16,-43.33,1728,-5587,5874,0,-1,0
23.55,12.17,-43.32,1734,-5584,5869,0,-1,0
23.54,12.17,-43.31,1727,-5584,5863,0,-1,0
23.53,12.17,-43.31,1720,-5575,5866,0,-1,0
23.53,12.17,-43.30,1723,-5583,5863,0,-1,0
23.52,12.18,-43.30,1731,-5591,5866,0,-1,0
23.52,12.18,-43.30,1727,-5584,5869,0,-1,0
23.52,12.18,-43.28,1731,-5587,5860,0,0,-1
23.53,12.17,-43.26,1734,-5575,5880,0,-1,0
23.53,12.18,-43.26,1739,-5565,5875,0,-1,0
23.52,12.17,-43.25,1732,-5562,5883,0,-1,0
23.51,12.17,-43.25,1734,-5576,5885,0,-1,0
23.50,12.17,-43.24,1728,-5587,5886,0,-1,0
23.50,12.16,-43.24,1720,-5592,5887,0,-1,0
23.50,12.16,-43.24,1719,-5585,5876,0,-1,0
23.49,12.16,-43.24,1715,-5574,5862,0,-1,0
23.49,12.17,-43.23,1724,-5563,5866,0,-1,0
23.48,12.17,-43.22,1738,-5572,5866,0,-1,0
23.48,12.18,-43.21,1752,-5568,5872,0,-1,0
23.47,12.17,-43.20,1733,-5560,5875,0,-1,0
23.47,12.17,-43.19,1723,-5560,5878,0,-1,0
23.46,12.17,-43.19,1719,-5556,5883,0,-1,0
23.45,12.17,-43.18,1727,-5561,5895,0,-1,0
23.45,12.18,-43.18,1726,-5561,5881,0,-1,0
23.44,12.18,-43.18,1724,-5568,5878,0,-1,0
23.43,12.17,-43.19,1719,-5566,5893,0,0,0
23.41,12.16,-43.19,1719,-5568,5891,0,-1,0
23.41,12.16,-43.19,1723,-5578,5884,0,-1,0
23.41,12.17,-43.20,1722,-5590,5862,0,-1,0
23.40,12.16,-43.19,1718,-5575,5884,0,0,0
23.39,12.16,-43.20,1725,-5570,5877,-1,-1,0
23.39,12.16,-43.21,1735,-5572,5879,-1,0,0
23.38,12.16,-43.22,1740,-5561,5875,-1,-1,0
23.37,12.15,-43.22,1739,-5558,5896,-1,-1,0
23.35,12.15,-43.24,1747,-5547,5875,-1,0,0
23.34,12.14,-43.27,1727,-5568,5873,-1,-1,0
23.32,12.14,-43.29,1709,-5558,5883,-1,0,0
23.31,12.14,-43.33,1727,-5581,5899,-2,-2,0
23.28,12.14,-43.36,1736,-5604,5881,-1,-1,0
23.27,12.13,-43.38,1719,-5569,5874,-2,-1,-1
23.26,12.12,-43.41,1708,-5597,5821,-1,0,0
23.25,12.13,-43.44,1730,-5617,5838,-1,-2,0
23.25,12.13,-43.44,1728,-5593,5842,0,0,0
23.25,12.13,-43.45,1749,-5626,5881,-1,0,-1
23.24,12.10,-43.46,1707,-5616,5847,0,0,-1
23.25,12.09,-43.45,1727,-5614,5871,-1,1,-1
23.25,12.07,-43.46,1720,-5595,5828,-1,0,0
23.25,12.05,-43.45,1731,-5621,5875,0,1,-1
23.25,12.03,-43.46,1745,-5612,5836,-1,0,0
23.24,11.98,-43.45,1703,-5600,5838,0,1,-1
23.25,11.96,-43.44,1689,-5605,5840,0,1,0
23.24,11.94,-43.44,1680,-5592,5835,0,0,0
23.25,11.92,-43.42,1677,-5564,5893,-1,0,-1
23.25,11.92,-43.44,1667,-5603,5850,-1,-1,-1
23.26,11.92,-43.44,1698,-5589,5864,-1,0,-1
23.26,11.90,-43.44,1671,-5568,5896,-1,0,-1
23.27,11.92,-43.46,1701,-5570,5867,-2,-1,-1
23.27,11.92,-43.49,1703,-5595,5825,-1,0,-1
23.27,11.92,-43.50,1707,-5597,5865,-1,0,0
23.26,11.92,-43.52,1697,-5608,5867,-2,-1,0
23.26,11.90,-43.55,1709,-5629,5851,-1,0,-1
23.26,11.89,-43.56,1677,-5636,5866,-1,0,-1
23.26,11.89,-43.60,1682,-5648,5831,-1,-1,-1
23.26,11.89,-43.60,1703,-5633,5828,-1,0,-1
23.27,11.88,-43.61,1685,-5649,5841,-1,0,-1
23.27,11.87,-43.61,1683,-5622,5815,0,0,-1
23.28,11.87,-43.62,1693,-5626,5831,-1,0,-1
23.29,11.86,-43.61,1702,-5625,5883,-1,0,-1
23.29,11.86,-43.64,1713,-5628,5839,-1,0,-1
23.28,11.84,-43.65,1685,-5603,5839,-1,1,0
23.28,11.84,-43.66,1692,-5624,5867,-1,-1,-1
23.28,11.82,-43.68,1682,-5603,5831,-1,1,0
23.26,11.80,-43.70,1671,-5632,5845,-1,0,-1
23.27,11.79,-43.71,1659,-5626,5840,-1,0,-1
23.26,11.80,-43.75,1671,-5631,5846,-2,-1,0
23.26,11.80,-43.77,1664,-5646,5840,-1,0,-1
23.26,11.79,-43.78,1666,-5643,5829,-1,0,-1
23.26,11.80,-43.80,1681,-5635,5822,-1,-1,-1
23.27,11.80,-43.81,1680,-5654,5837,-1,0,-1
23.27,11.81,-43.82,1696,-5661,5819,-1,0,-1
23.28,11.80,-43.83,1690,-5645,5821,-1,0,-1
23.27,11.79,-43.84,1682,-5629,5816,0,0,-1
23.27,11.79,-43.84,1669,-5629,5811,-1,0,-1
23.27,11.79,-43.85,1672,-5663,5816,0,-1,-1
23.27,11.78,-43.84,1673,-5647,5840,0,0,0
23.27,11.78,-43.84,1659,-5653,5843,0,0,-1
23.28,11.78,-43.84,1668,-5661,5831,-1,-1,-1
23.28,11.78,-43.85,1669,-5661,5826,0,0,-1
23.28,11.78,-43.85,1677,-5647,5836,0,0,-1
23.29,11.77,-43.84,1672,-5644,5830,-1,0,-1
23.28,11.76,-43.84,1663,-5642,5824,0,0,0
23.28,11.76,-43.84,1667,-5645,5835,0,-1,0
23.27,11.76,-43.84,1668,-5641,5841,0,-1,0
23.27,11.77,-43.84,1679,-5647,5836,0,-1,0
23.27,11.77,-43.84,1669,-5661,5818,0,-1,-1
23.27,11.77,-43.84,1662,-5661,5807,0,-1,-1
23.26,11.77,-43.83,1660,-5652,5803,0,-1,0
23.26,11.78,-43.83,1667,-5649,5810,0,-1,0
23.26,11.79,-43.82,1667,-5648,5817,0,-1,-1
23.26,11.80,-43.81,1669,-5650,5829,0,-1,-1
23.26,11.82,-43.80,1681,-5641,5825,0,-1,-1
23.26,11.83,-43.78,1681,-5633,5819,0,-1,-1
23.26,11.83,-43.77,1693,-5639,5815,0,-1,-1
23.27,11.85,-43.76,1698,-5641,5831,0,-1,-1
23.26,11.85,-43.75,1686,-5636,5840,0,-1,-1
23.26,11.85,-43.73,1677,-5638,5838,0,-1,-1
23.26,11.86,-43.72,1680,-5633,5847,0,-1,-1
23.26,11.87,-43.71,1679,-5644,5840,0,-1,-1
23.26,11.88,-43.70,1681,-5641,5836,0,-1,-1
23.26,11.88,-43.69,1687,-5637,5841,0,-1,-1
23.26,11.89,-43.67,1692,-5629,5845,0,-1,-1
23.27,11.90,-43.66,1703,-5623,5837,0,-1,-1
23.26,11.91,-43.65,1696,-5623,5850,0,-1,0
23.26,11.91,-43.64,1696,-5626,5849,0,-1,-1
23.26,11.92,-43.63,1696,-5625,5849,0,-1,0
23.26,11.92,-43.62,1694,-5618,5852,0,-1,-1
23.26,11.92,-43.62,1702,-5617,5852,0,-1,0
23.26,11.92,-43.62,1699,-5615,5852,0,-1,0
23.25,11.92,-43.62,1702,-5625,5849,0,-1,-1
23.25,11.93,-43.63,1701,-5632,5848,-1,-1,0
23.24,11.93,-43.63,1706,-5631,5847,0,-1,0
23.24,11.92,-43.64,1694,-5633,5840,-1,-1,-1
23.23,11.93,-43.64,1695,-5629,5821,0,-1,0
23.23,11.93,-43.65,1702,-5627,5828,0,-1,0
23.23,11.93,-43.65,1698,-5626,5845,0,-1,-1
23.22,11.94,-43.65,1713,-5625,5849,-1,-1,0
23.21,11.93,-43.65,1687,-5614,5825,0,-1,0
23.21,11.94,-43.65,1692,-5624,5826,0,-1,0
23.20,11.95,-43.64,1706,-5617,5831,0,0,0
23.20,11.94,-43.63,1698,-5616,5841,0,-1,0
23.20,11.95,-43.63,1701,-5619,5829,0,-1,0
23.20,11.95,-43.63,1699,-5621,5845,0,-1,-1
23.19,11.95,-43.62,1698,-5615,5840,0,-1,0
23.19,11.95,-43.62,1697,-5634,5829,0,-1,0
23.18,11.96,-43.61,1701,-5628,5840,0,-1,0
23.18,11.96,-43.59,1707,-5618,5840,0,-1,0
23.18,11.97,-43.58,1701,-5621,5831,0,-1,0
23.17,11.98,-43.57,1709,-5634,5833,0,-1,-1
23.17,11.99,-43.55,1714,-5630,5832,0,-1,0
23.17,11.99,-43.53,1707,-5621,5841,1,-1,0
23.17,12.00,-43.51,1702,-5615,5858,0,-1,0
23.17,12.00,-43.49,1698,-5611,5861,0,-1,0
23.16,12.00,-43.46,1695,-5601,5856,0,-1,0
23.15,12.00,-43.45,1699,-5590,5862,0,-1,0
23.15,12.00,-43.44,1694,-5588,5861,0,-1,0
23.14,12.01,-43.44,1693,-5588,5860,0,-1,0
23.14,12.02,-43.43,1707,-5602,5858,0,-1,0
23.13,12.02,-43.42,1702,-5596,5858,0,-1,0
23.13,12.03,-43.41,1696,-5599,5848,0,-1,-1
23.13,12.05,-43.41,1716,-5592,5855,0,-1,0
23.13,12.06,-43.41,1727,-5592,5853,0,-1,0
23.12,12.06,-43.41,1729,-5598,5851,0,-1,0
23.12,12.07,-43.40,1728,-5594,5859,0,-1,0
23.11,12.07,-43.40,1715,-5612,5861,0,-1,0
23.10,12.06,-43.39,1705,-5619,5858,0,-1,0
23.09,12.06,-43.38,1702,-5612,5863,0,-1,0
23.09,12.07,-43.37,1704,-5600,5853,0,-1,-1
23.09,12.07,-43.35,1710,-5600,5859,0,-1,-1
23.09,12.07,-43.32,1711,-5588,5876,0,-1,0
23.10,12.07,-43.30,1727,-5580,5886,0,-1,0
23.09,12.08,-43.29,1738,-5581,5871,0,-1,0
23.09,12.08,-43.28,1726,-5571,5870,0,-1,0
23.09,12.08,-43.27,1723,-5568,5877,0,-1,0
23.08,12.08,-43.26,1719,-5574,5885,0,-1,0
23.07,12.08,-43.26,1717,-5579,5883,0,-1,0
23.07,12.08,-43.26,1708,-5590,5868,0,-1,0
23.07,12.08,-43.26,1714,-5590,5864,0,-1,0
23.06,12.09,-43.26,1705,-5586,5866,0,-1,0
23.06,12.09,-43.26,1719,-5584,5868,0,-1,0
23.05,12.10,-43.26,1723,-5602,5859,0,-1,0
23.05,12.10,-43.24,1727,-5593,5866,0,0,0
23.04,12.09,-43.23,1708,-5588,5876,0,0,0
23.04,12.09,-43.21,1707,-5579,5887,0,-1,0
23.04,12.09,-43.20,1722,-5576,5886,0,-1,0
23.04,12.10,-43.20,1724,-5571,5867,0,-1,0
23.03,12.10,-43.19,1721,-5564,5876,0,-1,0
23.02,12.09,-43.17,1724,-5565,5884,0,-1,0
23.01,12.09,-43.17,1714,-5567,5886,0,-1,0
23.01,12.10,-43.17,1715,-5577,5888,0,-1,-1
23.02,12.10,-43.17,1716,-5577,5873,0,-1,0
23.01,12.10,-43.16,1714,-5580,5881,0,-1,0
23.01,12.11,-43.15,1711,-5580,5874,0,-1,-1
23.01,12.10,-43.13,1716,-5569,5881,0,0,0
23.00,12.11,-43.13,1718,-5567,5881,0,-1,0
23.00,12.11,-43.12,1716,-5573,5865,0,-1,0
23.00,12.11,-43.11,1718,-5558,5869,0,-1,0
22.99,12.12,-43.10,1728,-5566,5870,0,-1,0
22.99,12.12,-43.08,1719,-5564,5890,0,-1,0
22.98,12.11,-43.07,1709,-5573,5894,0,-1,0
22.98,12.11,-43.07,1714,-5573,5886,0,-1,-1
22.98,12.12,-43.06,1730,-5566,5894,0,-1,0
22.98,12.12,-43.05,1731,-5569,5887,0,-1,-1
22.97,12.13,-43.03,1725,-5554,5890,0,-1,0
22.96,12.13,-43.03,1729,-5558,5895,0,-1,0
22.96,12.13,-43.03,1723,-5545,5909,0,-1,0
22.96,12.13,-43.03,1722,-5543,5904,0,-1,-1
22.96,12.13,-43.03,1730,-5553,5905,0,-1,-1
22.96,12.13,-43.03,1737,-5549,5902,0,0,-1
22.96,12.13,-43.03,1735,-5553,5901,-1,0,-1
22.96,12.12,-43.03,1739,-5553,5900,-1,0,-1
22.96,12.12,-43.03,1729,-5541,5897,-1,0,0
22.96,12.12,-43.05,1726,-5553,5890,-1,0,-1
22.96,12.11,-43.06,1724,-5554,5895,-1,0,-1
22.96,12.10,-43.07,1721,-5565,5896,-1,0,-1
22.96,12.09,-43.08,1722,-5573,5901,-1,0,-1
22.96,12.09,-43.09,1715,-5566,5888,-1,0,-1
22.97,12.08,-43.10,1713,-5560,5879,-1,0,-1
22.97,12.08,-43.11,1716,-5559,5879,-1,0,-1
22.98,12.07,-43.12,1719,-5563,5881,-1,0,-1
22.97,12.06,-43.13,1722,-5574,5883,-1,0,-1
22.97,12.04,-43.14,1713,-5568,5885,-1,0,-1
22.97,12.04,-43.14,1711,-5565,5887,-1,0,-1
22.97,12.03,-43.15,1716,-5562,5883,-1,0,0
22.97,12.02,-43.16,1707,-5558,5883,-1,0,-1
22.97,12.01,-43.17,1703,-5561,5894,-1,0,-1
22.97,12.01,-43.19,1703,-5574,5889,-1,0,-1
22.97,12.00,-43.19,1703,-5577,5884,-1,0,-1
22.97,11.99,-43.21,1700,-5582,5884,-1,0,-1
22.97,11.99,-43.23,1705,-5588,5872,-1,0,-1
22.98,11.99,-43.24,1704,-5583,5872,-1,0,-1
22.98,11.98,-43.25,1701,-5580,5870,-1,0,-1
22.98,11.97,-43.26,1707,-5583,5878,-1,0,-1
22.98,11.96,-43.26,1707,-5579,5882,-1,0,-1
22.98,11.95,-43.27,1711,-5575,5884,-1,0,-1
22.98,11.94,-43.28,1697,-5576,5886,-1,0,-1
22.98,11.92,-43.30,1693,-5584,5888,-1,0,-1
22.97,11.91,-43.32,1693,-5595,5884,-1,0,-1
22.97,11.90,-43.34,1688,-5593,5879,-1,0,-1
22.97,11.88,-43.36,1685,-5600,5867,-1,0,-1
22.97,11.88,-43.38,1690,-5599,5858,-1,0,-1
22.97,11.87,-43.39,1685,-5603,5848,-1,0,-1
22.97,11.87,-43.41,1684,-5611,5847,-1,0,-1
22.97,11.86,-43.43,1685,-5616,5854,-1,0,-1
22.97,11.85,-43.44,1694,-5610,5858,-1,0,-1
22.97,11.84,-43.45,1682,-5607,5845,-1,0,0
22.97,11.83,-43.46,1681,-5599,5854,-1,0,0
22.96,11.83,-43.48,1674,-5607,5850,-1,-1,-1
22.96,11.82,-43.48,1689,-5609,5861,-1,0,-1
22.96,11.81,-43.50,1683,-5607,5864,-1,0,-1
22.96,11.81,-43.52,1674,-5613,5864,-1,0,-1
22.96,11.80,-43.53,1670,-5616,5864,-1,0,-1
22.96,11.80,-43.55,1677,-5616,5861,-1,0,-1
22.96,11.79,-43.57,1671,-5621,5845,-1,0,-1
22.95,11.78,-43.57,1676,-5619,5857,-1,0,0
22.95,11.77,-43.58,1673,-5615,5852,-1,0,0
22.95,11.76,-43.60,1670,-5627,5848,-1,0,0
22.94,11.76,-43.61,1668,-5635,5833,-1,-1,0
22.94,11.76,-43.62,1662,-5634,5834,0,-1,-1
22.94,11.76,-43.62,1670,-5631,5845,0,-1,-1
22.94,11.76,-43.62,1673,-5632,5835,0,-1,-1
22.94,11.77,-43.62,1684,-5623,5833,0,-1,-1
22.94,11.78,-43.62,1692,-5626,5840,0,-1,-1
22.94,11.78,-43.62,1681,-5629,5835,0,-1,0
22.93,11.78,-43.62,1673,-5631,5838,0,-1,0
22.93,11.78,-43.62,1668,-5625,5835,0,-1,0
22.92,11.78,-43.62,1665,-5629,5827,0,-1,-1
22.92,11.79,-43.62,1668,-5642,5832,0,-1,-1
22.92,11.79,-43.61,1672,-5636,5845,0,-1,-1
22.92,11.79,-43.60,1676,-5625,5840,0,-1,-1
22.92,11.80,-43.60,1674,-5617,5842,0,-1,-1
22.92,11.82,-43.59,1686,-5614,5850,0,-1,-1
22.92,11.82,-43.58,1687,-5616,5851,0,-1,0
22.92,11.83,-43.57,1685,-5612,5853,0,-1,0
22.91,11.83,-43.56,1676,-5613,5854,0,-1,0
22.91,11.83,-43.55,1669,-5616,5853,0,-1,0
22.91,11.84,-43.55,1682,-5623,5849,0,-1,0
22.90,11.83,-43.56,1684,-5632,5853,0,-1,0
22.90,11.84,-43.56,1683,-5635,5849,0,-1,0
22.90,11.84,-43.55,1686,-5617,5855,0,-1,-1
22.89,11.85,-43.55,1693,-5621,5851,0,-1,0
22.90,11.85,-43.55,1688,-5624,5842,0,-1,-1
22.89,11.85,-43.55,1687,-5625,5847,0,-1,0
22.88,11.85,-43.55,1685,-5624,5839,0,-1,0
22.88,11.85,-43.53,1683,-5619,5851,0,0,0
22.88,11.85,-43.52,1685,-5612,5869,-1,-1,0
22.87,11.85,-43.53,1678,-5598,5876,-1,0,0
22.86,11.85,-43.54,1677,-5604,5864,-1,-1,0
22.86,11.85,-43.55,1678,-5618,5873,-1,0,-1
22.85,11.86,-43.56,1698,-5609,5864,-1,-1,0
22.84,11.85,-43.57,1661,-5608,5853,-1,0,0
22.84,11.86,-43.59,1691,-5607,5864,-1,-1,-1
22.83,11.87,-43.62,1673,-5620,5842,-1,-2,0
22.83,11.88,-43.64,1707,-5600,5840,-1,0,-1
22.82,11.88,-43.66,1679,-5641,5828,-1,-1,0
22.81,11.89,-43.67,1698,-5621,5804,0,-1,-1
22.81,11.88,-43.66,1688,-5597,5850,-1,0,0
22.80,11.89,-43.68,1691,-5649,5817,0,-1,0
22.79,11.88,-43.68,1680,-5642,5821,0,0,0
22.79,11.89,-43.67,1702,-5628,5852,0,-1,0
22.77,11.88,-43.66,1702,-5648,5826,0,-1,-1
22.78,11.88,-43.64,1698,-5635,5824,1,0,0
22.78,11.88,-43.62,1694,-5612,5845,0,0,0
22.77,11.87,-43.61,1663,-5596,5850,-1,-1,0
22.76,11.87,-43.61,1684,-5624,5816,0,-1,0
22.76,11.86,-43.59,1672,-5622,5877,0,-1,0
22.75,11.86,-43.59,1667,-5605,5870,0,0,-1
22.76,11.87,-43.58,1679,-5592,5877,-1,-2,-1
22.75,11.88,-43.60,1701,-5605,5843,-1,-1,0
22.75,11.88,-43.60,1685,-5624,5851,0,-1,0
22.73,11.88,-43.60,1685,-5608,5838,0,-1,0
22.74,11.88,-43.60,1692,-5604,5853,-1,-1,-1
22.73,11.88,-43.60,1677,-5638,5838,0,-1,0
22.73,11.88,-43.60,1679,-5633,5845,0,0,-1
22.73,11.88,-43.59,1679,-5637,5845,0,-1,0
22.72,11.88,-43.58,1671,-5608,5867,0,-1,0
22.71,11.88,-43.58,1664,-5617,5833,0,-1,0
22.71,11.88,-43.57,1694,-5624,5860,0,-1,-1
22.71,11.89,-43.56,1699,-5617,5859,0,-1,0
22.71,11.89,-43.56,1714,-5614,5842,0,-1,0
22.70,11.89,-43.55,1700,-5619,5847,0,0,-1
22.70,11.88,-43.54,1698,-5623,5845,0,-1,0
22.70,11.89,-43.52,1678,-5602,5849,0,-1,0
22.69,11.89,-43.53,1691,-5596,5864,-1,-1,0
22.68,11.89,-43.53,1700,-5617,5842,0,-1,0
22.68,11.90,-43.52,1689,-5613,5851,0,-1,0
22.68,11.90,-43.51,1686,-5618,5862,-1,-1,-1
22.66,11.90,-43.52,1688,-5612,5843,0,-1,0
22.66,11.91,-43.50,1691,-5618,5842,0,-1,0
22.66,11.91,-43.49,1682,-5610,5838,0,-1,0
22.65,11.93,-43.48,1702,-5619,5841,1,-1,0
22.64,11.92,-43.44,1693,-5601,5868,1,-1,0
22.64,11.93,-43.42,1678,-5602,5848,1,-1,0
22.64,11.95,-43.38,1691,-5606,5844,1,-1,-1
22.64,11.96,-43.35,1707,-5597,5853,1,-1,0
22.64,11.96,-43.31,1703,-5584,5866,1,-1,0
22.64,11.97,-43.28,1702,-5588,5872,1,-1,0
22.63,11.97,-43.24,1702,-5576,5880,1,-1,0
22.63,11.98,-43.21,1698,-5576,5888,0,-1,0
22.63,11.97,-43.19,1704,-5574,5897,1,-1,0
22.62,11.98,-43.17,1701,-5573,5898,0,-1,0
22.62,11.98,-43.17,1694,-5577,5882,0,-1,0
22.62,11.98,-43.15,1691,-5577,5907,0,-1,0
22.62,11.98,-43.15,1705,-5575,5903,0,-1,0
22.61,11.99,-43.15,1707,-5578,5898,0,-1,0
22.61,11.99,-43.14,1707,-5572,5894,0,-1,0
22.60,11.99,-43.14,1709,-5565,5892,0,-1,0
22.60,11.99,-43.15,1694,-5561,5903,-1,0,0
22.59,11.98,-43.16,1708,-5562,5881,-1,-1,0
22.59,11.99,-43.18,1704,-5570,5881,-1,0,-1
22.59,11.99,-43.19,1708,-5560,5911,-1,0,0
22.58,11.99,-43.22,1712,-5562,5874,-1,-1,0
22.57,11.98,-43.24,1704,-5584,5852,-1,-1,-1
22.57,12.00,-43.26,1736,-5574,5868,0,-1,0
22.55,11.99,-43.29,1697,-5568,5870,-2,-1,0
22.54,11.99,-43.32,1697,-5584,5832,0,-1,0
22.53,11.99,-43.32,1716,-5566,5895,-1,-1,0
22.52,11.99,-43.35,1701,-5631,5841,0,-1,0
22.52,11.99,-43.35,1726,-5605,5866,-1,0,0
22.52,11.98,-43.35,1701,-5585,5867,-1,0,0
22.51,11.99,-43.36,1686,-5598,5866,0,-1,0
22.50,11.99,-43.37,1702,-5598,5864,-1,0,-1
22.51,11.98,-43.37,1715,-5607,5876,-1,0,-1
22.51,11.97,-43.38,1725,-5602,5855,-1,0,0
22.50,11.96,-43.39,1714,-5619,5856,0,0,-1
22.50,11.95,-43.38,1699,-5603,5843,0,0,-1
22.51,11.92,-43.36,1694,-5589,5873,0,1,-1
22.50,11.92,-43.36,1690,-5590,5852,0,-1,-1
22.51,11.91,-43.34,1679,-5593,5830,0,0,-1
22.52,11.91,-43.32,1680,-5593,5838,0,0,-1
22.53,11.92,-43.30,1686,-5585,5873,0,-1,-1
22.53,11.92,-43.29,1696,-5578,5883,0,-1,-1
22.55,11.92,-43.28,1696,-5579,5879,0,0,-1
22.55,11.92,-43.28,1700,-5573,5878,0,0,-1
22.55,11.92,-43.28,1707,-5587,5862,0,0,-1
22.56,11.92,-43.28,1703,-5583,5879,0,0,-1
22.56,11.91,-43.27,1697,-5574,5882,-1,0,-1
22.56,11.91,-43.28,1695,-5580,5884,-1,0,-1
22.56,11.91,-43.29,1700,-5593,5880,-1,0,-1
22.56,11.91,-43.30,1709,-5599,5880,-1,0,-1
22.57,11.91,-43.31,1706,-5598,5883,-1,0,-1
22.57,11.90,-43.32,1696,-5596,5878,-1,0,-1
22.57,11.89,-43.32,1692,-5591,5887,-1,0,-1
22.57,11.89,-43.33,1693,-5596,5889,-1,0,-1
22.57,11.87,-43.34,1680,-5592,5884,-1,0,-1
22.57,11.86,-43.35,1681,-5590,5884,-1,0,-1
22.57,11.84,-43.36,1680,-5587,5883,-1,0,-1
22.57,11.83,-43.38,1674,-5587,5893,-1,0,-1
22.57,11.81,-43.40,1674,-5602,5887,-1,0,-1
22.57,11.80,-43.43,1666,-5594,5896,-2,0,-1
22.58,11.78,-43.46,1667,-5593,5874,-2,0,-1
22.58,11.78,-43.49,1681,-5603,5883,-2,0,-1
22.58,11.76,-43.53,1683,-5588,5891,-2,0,0
22.57,11.76,-43.59,1671,-5624,5843,-2,-1,-1
22.56,11.75,-43.64,1679,-5642,5826,-2,0,0
22.54,11.72,-43.67,1663,-5633,5857,-2,0,0
22.55,11.72,-43.68,1689,-5608,5876,-1,0,-1
22.53,11.71,-43.73,1658,-5614,5887,-2,-2,0
22.52,11.73,-43.79,1667,-5658,5778,-1,0,-1
22.53,11.71,-43.79,1674,-5623,5848,-1,0,-1
22.52,11.71,-43.83,1682,-5647,5800,-2,-1,0
22.52,11.70,-43.85,1695,-5666,5827,0,1,-1
22.51,11.68,-43.86,1658,-5666,5848,-1,0,0
22.50,11.67,-43.88,1654,-5671,5777,0,0,0
22.50,11.67,-43.88,1667,-5645,5837,-1,0,-1
22.49,11.66,-43.88,1633,-5647,5814,0,-1,0
22.48,11.66,-43.89,1640,-5674,5797,0,-1,0
22.49,11.66,-43.87,1637,-5647,5795,0,-1,-1
22.50,11.67,-43.86,1671,-5640,5806,0,0,-1
22.50,11.67,-43.84,1663,-5647,5844,0,-1,-1
22.50,11.68,-43.84,1662,-5659,5809,0,-1,-1
22.51,11.69,-43.82,1652,-5650,5814,0,-1,-1
22.51,11.70,-43.81,1662,-5648,5822,0,-1,-1
22.51,11.70,-43.80,1673,-5647,5847,0,-1,0
22.51,11.71,-43.79,1675,-5651,5832,0,-1,0
22.50,11.71,-43.77,1656,-5637,5833,0,-1,0
22.49,11.72,-43.76,1663,-5622,5828,0,-1,0
22.49,11.73,-43.76,1657,-5642,5816,0,-1,-1
22.49,11.74,-43.74,1662,-5656,5828,0,-1,0
22.49,11.75,-43.73,1655,-5661,5828,0,-1,-1
22.49,11.76,-43.72,1654,-5659,5823,0,-1,-1
22.50,11.77,-43.70,1671,-5646,5833,0,-1,-1
22.50,11.79,-43.69,1681,-5628,5824,0,-1,-1
22.51,11.80,-43.67,1688,-5621,5835,0,-1,-1
22.50,11.79,-43.66,1683,-5621,5838,0,-1,0
22.49,11.80,-43.65,1676,-5624,5849,0,-1,0
22.49,11.80,-43.64,1674,-5635,5851,0,-1,0
22.49,11.80,-43.63,1670,-5642,5844,0,-1,-1
22.48,11.81,-43.63,1671,-5631,5835,0,-1,-1
22.48,11.81,-43.62,1672,-5629,5844,0,-1,-1
22.48,11.82,-43.61,1677,-5627,5854,0,-1,-1
22.48,11.82,-43.61,1678,-5617,5840,0,-1,-1
22.48,11.83,-43.61,1679,-5617,5837,0,-1,-1
22.48,11.83,-43.61,1689,-5616,5840,0,-1,0
22.47,11.83,-43.60,1685,-5624,5846,0,-1,0
22.47,11.83,-43.60,1678,-5630,5843,0,-1,0
22.46,11.84,-43.60,1676,-5625,5838,0,-1,0
22.46,11.84,-43.58,1683,-5622,5838,0,-1,0
22.46,11.84,-43.57,1682,-5612,5850,0,-1,0
22.46,11.85,-43.57,1674,-5617,5848,0,-1,0
22.45,11.84,-43.56,1676,-5618,5858,0,-1,0
22.44,11.84,-43.55,1672,-5616,5856,0,-1,0
22.44,11.84,-43.55,1670,-5624,5846,0,-1,0
22.44,11.85,-43.55,1671,-5617,5849,0,-1,-1
22.43,11.86,-43.54,1690,-5619,5845,0,-1,0
22.44,11.87,-43.53,1690,-5615,5846,0,-1,-1
22.44,11.88,-43.52,1699,-5610,5852,0,-1,0
22.44,11.89,-43.52,1696,-5607,5852,0,-1,0
22.43,11.89,-43.52,1697,-5620,5846,0,-1,0
22.42,11.89,-43.51,1689,-5617,5852,0,-1,0
22.41,11.88,-43.50,1676,-5615,5857,0,-1,0
22.41,11.89,-43.50,1669,-5615,5845,0,-1,0
22.40,11.89,-43.49,1675,-5618,5846,0,-1,0
22.41,11.90,-43.49,1687,-5618,5851,0,-1,-1
22.40,11.90,-43.47,1696,-5603,5853,0,-1,0
22.40,11.90,-43.46,1697,-5594,5861,0,-1,0
22.40,11.91,-43.46,1700,-5599,5862,0,-1,0
22.39,11.91,-43.46,1701,-5596,5872,-1,0,0
22.39,11.90,-43.46,1691,-5599,5862,-1,-1,0
22.38,11.90,-43.47,1688,-5594,5848,0,0,0
22.36,11.89,-43.49,1693,-5613,5855,-1,-1,0
22.36,11.88,-43.49,1683,-5596,5839,-1,0,0
22.35,11.88,-43.50,1688,-5615,5847,0,-1,0
22.34,11.89,-43.50,1683,-5604,5874,-1,-1,0
22.34,11.89,-43.51,1676,-5615,5858,0,-1,0
22.33,11.89,-43.52,1682,-5617,5843,0,-1,-1
22.33,11.89,-43.52,1692,-5627,5828,0,-1,0
22.33,11.90,-43.51,1698,-5632,5819,0,-1,-1
22.33,11.90,-43.50,1704,-5613,5860,0,-1,0
22.33,11.90,-43.48,1704,-5592,5857,0,-1,0
22.32,11.91,-43.47,1703,-5602,5850,0,-1,0
22.31,11.90,-43.47,1692,-5614,5844,0,-1,0
22.31,11.90,-43.45,1692,-5604,5844,0,-1,0
22.31,11.90,-43.43,1694,-5606,5838,1,0,-1
22.30,11.89,-43.41,1677,-5587,5886,0,-1,0
22.30,11.90,-43.40,1680,-5596,5860,0,-1,0
22.30,11.91,-43.40,1683,-5607,5855,0,-1,-1
22.30,11.91,-43.38,1682,-5597,5853,0,-1,-1
22.30,11.93,-43.37,1694,-5595,5842,0,-1,-1
22.31,11.93,-43.35,1700,-5599,5864,0,-1,-1
22.30,11.93,-43.34,1706,-5600,5872,0,-1,0
22.30,11.94,-43.33,1710,-5598,5864,0,-1,0
22.30,11.94,-43.32,1700,-5587,5862,0,-1,0
22.29,11.94,-43.30,1700,-5579,5864,0,0,0
22.29,11.93,-43.28,1688,-5581,5878,0,-1,0
22.28,11.93,-43.27,1694,-5587,5889,0,-1,0
22.28,11.93,-43.27,1686,-5597,5881,0,-1,0
22.27,11.94,-43.27,1687,-5589,5879,0,-1,0
22.27,11.93,-43.27,1687,-5579,5884,0,-1,-1
22.27,11.94,-43.27,1688,-5576,5876,0,-1,0
22.26,11.95,-43.27,1699,-5575,5882,0,-1,0
22.25,11.95,-43.27,1703,-5577,5880,0,-1,0
22.24,11.94,-43.27,1698,-5587,5873,0,-1,0
22.24,11.94,-43.27,1693,-5595,5870,0,-1,0
22.23,11.95,-43.26,1695,-5591,5867,0,-1,-1
22.23,11.95,-43.26,1703,-5584,5894,0,-1,0
22.22,11.95,-43.25,1697,-5581,5887,0,-1,0
22.22,11.96,-43.25,1704,-5582,5860,0,-1,0
22.21,11.97,-43.24,1715,-5589,5867,0,-1,0
22.20,11.97,-43.23,1710,-5585,5859,0,0,0
22.20,11.96,-43.21,1700,-5588,5880,0,-1,0
22.20,11.96,-43.20,1693,-5593,5881,0,-1,0
22.20,11.96,-43.18,1677,-5583,5878,0,-1,0
22.19,11.96,-43.16,1684,-5578,5871,0,-1,0
22.19,11.96,-43.14,1691,-5573,5875,1,-1,0
22.19,11.97,-43.10,1698,-5563,5870,1,-1,0
22.19,11.98,-43.08,1709,-5555,5891,1,-1,0
22.18,11.98,-43.06,1705,-5540,5899,0,-1,0
22.17,11.98,-43.04,1696,-5540,5904,0,-1,0
22.17,11.98,-43.04,1712,-5551,5922,0,-1,0
22.17,11.98,-43.04,1701,-5545,5923,0,0,0
22.17,11.97,-43.04,1692,-5554,5910,-1,0,-1
22.17,11.97,-43.05,1698,-5565,5903,-1,0,-1
22.17,11.97,-43.07,1708,-5563,5891,-1,0,-1
22.17,11.96,-43.07,1698,-5568,5896,-1,0,-1
22.16,11.95,-43.08,1698,-5576,5905,-1,0,-1
22.17,11.95,-43.09,1697,-5573,5887,0,0,-1
22.17,11.93,-43.09,1699,-5572,5888,-1,0,-1
22.18,11.93,-43.09,1699,-5567,5890,-1,0,-1
22.18,11.91,-43.10,1701,-5557,5896,-1,0,-1
22.18,11.91,-43.11,1696,-5561,5910,-1,0,-1
22.18,11.90,-43.12,1696,-5561,5906,-1,0,-1
22.18,11.88,-43.14,1694,-5566,5897,-1,0,-1
22.18,11.87,-43.15,1687,-5564,5897,-1,0,-1
22.18,11.86,-43.18,1690,-5581,5895,-1,0,-1
22.18,11.86,-43.19,1689,-5582,5884,-1,0,-1
22.18,11.85,-43.21,1690,-5574,5882,-1,0,-1
22.19,11.85,-43.22,1688,-5580,5883,-1,0,-1
22.19,11.84,-43.24,1690,-5583,5875,-1,0,-1
22.19,11.84,-43.24,1686,-5581,5874,-1,0,-1
22.19,11.83,-43.25,1683,-5575,5877,-1,0,-1
22.20,11.82,-43.25,1693,-5585,5883,-1,0,-1
22.20,11.81,-43.26,1683,-5577,5897,-1,0,-1
22.20,11.79,-43.27,1673,-5586,5892,-1,0,-1
22.20,11.79,-43.29,1670,-5595,5881,-1,0,-1
22.20,11.78,-43.29,1682,-5594,5884,-1,0,-1
22.21,11.78,-43.30,1676,-5592,5887,-1,0,-1
22.21,11.76,-43.32,1666,-5584,5869,-1,0,-1
22.20,11.74,-43.34,1664,-5581,5876,-1,0,-1
22.21,11.73,-43.37,1671,-5589,5876,-1,0,-1
22.20,11.72,-43.39,1671,-5603,5862,-1,0,0
22.20,11.72,-43.41,1668,-5613,5854,-1,0,-1
22.20,11.71,-43.42,1657,-5609,5875,-1,0,-1
22.20,11.71,-43.43,1660,-5612,5864,-1,0,-1
22.21,11.70,-43.44,1678,-5620,5852,-1,0,-1
22.21,11.70,-43.45,1694,-5627,5858,-1,0,-1
22.20,11.68,-43.45,1671,-5610,5863,-1,0,0
22.19,11.66,-43.46,1664,-5607,5848,-1,0,0
22.19,11.65,-43.47,1651,-5605,5871,-1,0,-1
22.19,11.64,-43.48,1655,-5605,5865,-1,0,0
22.18,11.62,-43.49,1630,-5604,5844,0,0,-1
22.19,11.61,-43.49,1640,-5614,5868,-1,0,-1
22.19,11.61,-43.49,1650,-5613,5877,-1,0,-1
22.19,11.60,-43.51,1640,-5616,5886,-1,0,-1
22.20,11.61,-43.54,1649,-5613,5884,-2,-1,-1
22.19,11.62,-43.58,1654,-5609,5847,-2,-1,0
22.19,11.63,-43.62,1686,-5625,5830,-1,0,0
22.17,11.61,-43.64,1653,-5637,5830,-1,0,-1
22.17,11.59,-43.64,1657,-5633,5836,-1,1,-1
22.17,11.57,-43.65,1636,-5630,5863,-1,0,-1
22.17,11.57,-43.67,1651,-5652,5865,-1,0,-1
22.16,11.55,-43.69,1632,-5654,5837,-1,0,0
22.16,11.55,-43.70,1624,-5643,5850,-1,0,-1
22.16,11.55,-43.72,1634,-5640,5857,-1,-1,0
22.15,11.57,-43.75,1638,-5650,5814,-1,-1,-1
22.14,11.57,-43.75,1643,-5655,5823,0,-1,0
22.15,11.58,-43.74,1642,-5652,5825,0,-1,-1
22.15,11.58,-43.74,1657,-5648,5825,0,-1,-1
22.15,11.58,-43.73,1653,-5630,5833,0,-1,0
22.14,11.58,-43.72,1643,-5626,5834,0,-1,-1
22.15,11.59,-43.71,1643,-5616,5833,0,-1,-1
22.14,11.59,-43.71,1635,-5642,5840,0,-1,-1
22.14,11.60,-43.71,1648,-5645,5845,0,-1,-1
22.14,11.61,-43.70,1640,-5637,5826,0,-1,-1
22.14,11.61,-43.70,1634,-5627,5829,0,-1,-1
22.15,11.63,-43.70,1639,-5635,5831,0,-1,-1
22.15,11.65,-43.68,1654,-5640,5826,0,-1,-1
22.15,11.66,-43.68,1661,-5640,5838,0,-1,-1
22.14,11.67,-43.67,1658,-5643,5830,0,-1,0
22.14,11.68,-43.65,1663,-5637,5835,0,-1,0
22.14,11.69,-43.64,1669,-5640,5840,1,-1,0
22.14,11.70,-43.62,1665,-5628,5851,0,-1,0
22.13,11.70,-43.59,1662,-5622,5852,0,-1,0
22.13,11.71,-43.58,1660,-5614,5857,0,-1,-1
22.13,11.72,-43.56,1667,-5622,5849,0,-1,0
22.13,11.73,-43.54,1669,-5618,5859,0,-1,0
22.13,11.74,-43.52,1669,-5617,5862,0,-1,0
22.13,11.76,-43.51,1669,-5608,5868,0,-1,-1
22.13,11.77,-43.50,1673,-5593,5859,0,-1,-1
22.12,11.78,-43.49,1673,-5594,5856,0,-1,0
22.13,11.79,-43.48,1684,-5594,5858,0,-1,0
22.12,11.80,-43.48,1676,-5607,5859,0,-1,-1
22.12,11.80,-43.47,1677,-5624,5875,0,-1,0
22.11,11.80,-43.47,1657,-5624,5860,0,-1,-1
22.11,11.80,-43.47,1657,-5627,5850,0,-1,-1
22.11,11.81,-43.46,1669,-5626,5854,0,-1,-1
22.11,11.82,-43.45,1682,-5619,5859,0,-1,-1
22.11,11.83,-43.44,1690,-5608,5867,0,-1,0
22.11,11.84,-43.43,1689,-5603,5851,0,-1,0
22.10,11.83,-43.41,1690,-5605,5871,0,-1,0
22.10,11.84,-43.41,1690,-5604,5866,0,-1,0
22.10,11.83,-43.40,1689,-5603,5867,0,-1,0
22.09,11.83,-43.38,1676,-5601,5876,0,-1,0
22.08,11.83,-43.38,1665,-5596,5872,0,-1,0
22.08,11.84,-43.37,1670,-5597,5872,0,-1,-1
22.08,11.84,-43.36,1675,-5599,5885,0,-1,0
22.07,11.85,-43.36,1685,-5603,5885,0,-1,0
22.07,11.85,-43.36,1683,-5605,5872,0,-1,0
22.06,11.85,-43.35,1684,-5605,5874,0,-1,0
22.07,11.86,-43.35,1687,-5603,5874,0,-1,0
22.07,11.87,-43.34,1685,-5587,5863,0,-1,0
22.06,11.87,-43.32,1679,-5582,5868,0,-1,0
22.05,11.88,-43.31,1684,-5578,5870,0,-1,0
22.05,11.88,-43.31,1693,-5593,5874,0,-1,0
22.05,11.89,-43.29,1700,-5590,5893,0,-1,0
22.04,11.89,-43.28,1693,-5590,5885,0,-1,0
22.04,11.89,-43.28,1688,-5594,5886,0,-1,0
22.04,11.90,-43.27,1689,-5591,5882,0,-1,-1
22.04,11.90,-43.25,1692,-5589,5859,0,0,-1
22.04,11.89,-43.23,1687,-5577,5891,0,-1,0
22.03,11.90,-43.22,1697,-5582,5878,0,-1,0
22.03,11.90,-43.21,1698,-5580,5886,0,-1,0
22.02,11.90,-43.21,1687,-5586,5880,0,-1,0
22.02,11.91,-43.19,1693,-5577,5888,0,-1,0
22.02,11.91,-43.20,1689,-5574,5875,0,-1,-1
22.02,11.91,-43.19,1689,-5576,5893,0,-1,-1
22.01,11.92,-43.18,1695,-5577,5893,0,-1,0
22.02,11.92,-43.18,1692,-5581,5880,0,-1,0
22.01,11.92,-43.17,1691,-5573,5890,0,-1,0
22.01,11.93,-43.17,1695,-5577,5888,0,-1,0
22.01,11.93,-43.16,1702,-5571,5895,0,-1,0
22.00,11.92,-43.15,1693,-5570,5887,0,-1,0
21.99,11.92,-43.14,1691,-5570,5902,0,-1,0
21.99,11.92,-43.14,1684,-5578,5889,0,-1,0
21.99,11.92,-43.14,1688,-5573,5892,0,-1,0
21.98,11.92,-43.13,1684,-5571,5883,0,-1,0
21.98,11.91,-43.11,1701,-5562,5885,0,0,0
21.98,11.91,-43.11,1690,-5566,5899,0,-1,-1
21.98,11.91,-43.10,1700,-5564,5903,0,-1,0
21.97,11.91,-43.10,1695,-5564,5893,-1,0,-1
21.97,11.91,-43.10,1693,-5561,5886,0,-1,0
21.96,11.92,-43.11,1693,-5575,5888,0,-1,0
21.96,11.92,-43.11,1691,-5582,5882,0,-1,0
21.95,11.92,-43.10,1682,-5578,5888,0,-1,0
21.95,11.92,-43.09,1687,-5579,5884,0,-1,-1
21.95,11.93,-43.08,1693,-5576,5892,0,-1,0
21.95,11.93,-43.07,1697,-5571,5896,0,-1,0
21.94,11.93,-43.06,1695,-5555,5899,0,-1,0
21.94,11.93,-43.05,1701,-5561,5892,0,-1,0
21.94,11.94,-43.04,1699,-5551,5899,0,-1,0
21.92,11.94,-43.03,1692,-5547,5902,0,-1,0
21.92,11.93,-43.02,1690,-5547,5896,0,-1,0
21.91,11.93,-43.02,1688,-5557,5897,0,-1,0
21.91,11.94,-43.02,1689,-5565,5900,0,-1,0
21.90,11.94,-43.01,1696,-5569,5914,0,-1,0
21.90,11.94,-43.01,1701,-5567,5901,0,-1,0
21.90,11.94,-43.00,1705,-5578,5894,0,0,-1
21.90,11.94,-42.98,1688,-5568,5908,0,-1,0
21.89,11.94,-42.98,1702,-5563,5889,0,-1,0
21.89,11.94,-42.96,1700,-5548,5891,0,-1,0
21.89,11.94,-42.95,1696,-5545,5884,0,-1,0
21.89,11.95,-42.93,1710,-5547,5907,0,-1,0
21.88,11.95,-42.92,1703,-5537,5912,0,-1,0
21.87,11.95,-42.91,1690,-5544,5909,0,-1,0
21.87,11.94,-42.90,1685,-5543,5931,0,-1,0
21.87,11.95,-42.89,1688,-5550,5926,0,-1,-1
21.87,11.95,-42.88,1687,-5552,5922,0,-1,-1
21.87,11.95,-42.88,1691,-5554,5917,0,-1,-1
21.86,11.95,-42.86,1695,-5551,5918,0,-1,0
21.86,11.96,-42.86,1703,-5553,5911,0,-1,0
21.85,11.96,-42.85,1706,-5548,5910,0,-1,0
21.85,11.97,-42.85,1699,-5553,5910,0,-1,0
21.84,11.97,-42.84,1696,-5550,5911,0,-1,-1
21.85,11.97,-42.82,1706,-5542,5921,0,-1,-1
21.85,11.97,-42.82,1700,-5530,5923,0,0,-1
21.85,11.97,-42.82,1701,-5517,5916,-1,0,-1
21.84,11.96,-42.83,1704,-5522,5914,-1,0,0
21.85,11.96,-42.84,1708,-5528,5920,-1,0,-1
21.84,11.95,-42.85,1695,-5540,5923,-1,0,-1
21.85,11.94,-42.86,1700,-5542,5931,-1,0,-1
21.85,11.94,-42.87,1697,-5544,5924,-1,0,-1
21.85,11.93,-42.87,1692,-5541,5911,-1,0,-1
21.84,11.91,-42.88,1689,-5539,5911,-1,0,-1
21.85,11.91,-42.90,1694,-5540,5919,-1,0,-1
21.85,11.90,-42.91,1699,-5538,5903,-1,0,-1
21.84,11.89,-42.92,1696,-5543,5906,-1,0,-1
21.85,11.89,-42.93,1703,-5553,5918,-1,0,-1
21.85,11.88,-42.94,1689,-5556,5915,-1,0,-1
21.85,11.88,-42.95,1684,-5551,5913,-1,0,-1
21.86,11.88,-42.95,1688,-5544,5907,-1,0,-1
21.85,11.88,-42.97,1703,-5550,5899,-1,0,-1
21.85,11.86,-42.99,1697,-5553,5904,-1,0,-1
21.85,11.85,-43.00,1691,-5553,5903,-1,0,-1
21.85,11.84,-43.02,1677,-5564,5897,-1,0,-1
21.84,11.83,-43.04,1666,-5582,5893,-1,0,-1
21.84,11.82,-43.04,1656,-5580,5885,-1,0,-1
21.85,11.81,-43.05,1655,-5558,5885,-1,0,-1
21.85,11.80,-43.05,1664,-5559,5889,-1,0,-1
21.85,11.79,-43.06,1677,-5563,5889,-1,0,-1
21.85,11.79,-43.07,1688,-5557,5899,-1,0,-1
21.85,11.79,-43.08,1685,-5558,5899,-1,0,-1
21.85,11.77,-43.09,1689,-5554,5895,-1,0,-1
21.85,11.77,-43.10,1672,-5565,5892,-1,0,0
21.84,11.75,-43.11,1666,-5576,5892,-1,0,-1
21.84,11.75,-43.13,1666,-5579,5888,-1,0,-1
21.84,11.74,-43.14,1664,-5580,5884,-1,0,-1
21.84,11.73,-43.16,1667,-5583,5883,-1,0,-1
21.84,11.72,-43.18,1662,-5585,5872,-1,0,-1
21.84,11.72,-43.19,1670,-5589,5875,-1,0,-1
21.84,11.71,-43.20,1660,-5584,5877,-1,0,-1
21.84,11.70,-43.21,1659,-5582,5870,-1,0,-1
21.84,11.69,-43.21,1660,-5581,5876,-1,0,-1
21.84,11.69,-43.22,1667,-5584,5879,-1,0,-1
21.84,11.68,-43.23,1665,-5582,5883,-1,0,-1
21.84,11.66,-43.24,1660,-5576,5888,-1,0,0
21.84,11.66,-43.25,1663,-5577,5888,-1,0,-1
21.84,11.64,-43.28,1660,-5591,5888,-1,0,-1
21.83,11.63,-43.30,1639,-5594,5885,-1,0,0
21.83,11.62,-43.33,1641,-5597,5877,-1,0,-1
21.83,11.61,-43.35,1634,-5602,5879,-1,0,-1
21.83,11.60,-43.37,1644,-5609,5881,-1,0,-1
21.83,11.59,-43.39,1635,-5603,5867,-1,0,-1
21.82,11.57,-43.41,1635,-5588,5877,-1,0,0
21.82,11.57,-43.45,1650,-5626,5860,-2,0,0
21.81,11.56,-43.48,1649,-5616,5865,-1,0,0
21.80,11.55,-43.49,1655,-5617,5889,-1,-1,0
21.79,11.56,-43.53,1649,-5605,5861,-1,-1,0
21.78,11.54,-43.54,1638,-5595,5871,-1,0,0
21.77,11.54,-43.58,1645,-5607,5877,-2,-2,0
21.74,11.55,-43.63,1643,-5647,5821,-1,-2,0
21.74,11.56,-43.65,1660,-5643,5835,-1,1,0
21.71,11.52,-43.67,1619,-5637,5823,-1,-1,0
21.70,11.54,-43.67,1673,-5675,5845,0,-1,0
21.69,11.52,-43.67,1615,-5683,5794,1,0,0
21.69,11.50,-43.62,1621,-5605,5846,1,1,-1
21.68,11.50,-43.61,1621,-5618,5817,0,-2,0
21.68,11.49,-43.58,1612,-5619,5844,1,0,0
21.69,11.50,-43.56,1629,-5629,5877,0,-1,-1
21.69,11.50,-43.55,1608,-5593,5853,0,0,-1
21.70,11.51,-43.53,1624,-5603,5878,0,-1,-1
21.70,11.52,-43.53,1629,-5627,5839,0,-1,-1
21.71,11.53,-43.52,1627,-5595,5861,0,-1,-1
21.71,11.55,-43.52,1620,-5598,5866,0,-1,-1
21.70,11.57,-43.52,1628,-5613,5847,0,-2,-1
21.71,11.59,-43.52,1639,-5626,5841,0,-1,-1
21.71,11.60,-43.53,1657,-5628,5850,0,-1,-1
21.71,11.62,-43.52,1660,-5637,5844,0,-1,-1
21.71,11.62,-43.51,1658,-5627,5845,0,-1,-1
21.71,11.63,-43.50,1661,-5632,5857,0,-1,-1
21.71,11.63,-43.48,1662,-5618,5862,0,-1,0
21.71,11.63,-43.47,1653,-5616,5849,0,-1,-1
21.71,11.63,-43.45,1635,-5619,5855,0,-1,-1
21.70,11.64,-43.44,1644,-5603,5864,0,-1,-1
21.71,11.65,-43.44,1654,-5615,5870,0,-1,-1
21.70,11.66,-43.43,1662,-5619,5856,0,-1,-1
21.70,11.67,-43.41,1656,-5609,5862,0,-1,0
21.70,11.67,-43.40,1649,-5592,5868,0,-1,-1
21.70,11.68,-43.39,1652,-5596,5861,0,-1,-1
21.70,11.69,-43.37,1656,-5598,5869,0,-1,-1
21.70,11.70,-43.36,1654,-5602,5878,0,-1,-1
21.69,11.70,-43.35,1660,-5599,5882,0,-1,0
21.69,11.72,-43.34,1669,-5595,5883,0,-1,0
21.69,11.73,-43.33,1670,-5592,5877,0,-1,0
21.69,11.74,-43.32,1672,-5600,5871,0,-1,0
21.69,11.74,-43.31,1664,-5595,5866,0,-1,0
21.69,11.75,-43.30,1663,-5589,5866,0,-1,0
21.68,11.75,-43.28,1671,-5578,5873,0,-1,-1
21.68,11.76,-43.27,1664,-5580,5880,0,-1,-1
21.68,11.77,-43.26,1662,-5582,5878,0,-1,0
21.68,11.77,-43.26,1673,-5592,5881,0,-1,0
21.67,11.78,-43.25,1673,-5589,5886,0,-1,0
21.67,11.78,-43.24,1663,-5595,5874,0,-1,-1
21.67,11.80,-43.24,1675,-5596,5877,0,-1,-1
21.67,11.81,-43.23,1677,-5600,5878,0,-1,-1
21.67,11.81,-43.22,1677,-5589,5881,0,-1,0
21.66,11.81,-43.21,1673,-5578,5870,0,-1,0
21.66,11.81,-43.21,1671,-5577,5868,0,-1,0
21.65,11.81,-43.21,1677,-5582,5874,0,-1,0
21.64,11.81,-43.20,1669,-5594,5881,0,-1,0
21.64,11.82,-43.19,1672,-5586,5887,0,-1,0
21.65,11.83,-43.19,1681,-5581,5881,0,-1,-1
21.64,11.83,-43.19,1681,-5583,5874,0,-1,0
21.64,11.83,-43.18,1685,-5585,5870,0,-1,-1
21.64,11.83,-43.17,1683,-5584,5886,0,0,0
21.64,11.82,-43.16,1682,-5582,5891,0,0,0
21.63,11.82,-43.16,1676,-5576,5889,0,-1,0
21.63,11.81,-43.16,1673,-5582,5885,0,-1,0
21.62,11.82,-43.16,1670,-5586,5880,0,-1,0
21.62,11.82,-43.14,1669,-5579,5882,0,-1,-1
21.62,11.82,-43.12,1676,-5568,5875,0,-1,-1
21.62,11.83,-43.11,1688,-5555,5900,0,-1,0
21.62,11.84,-43.09,1690,-5557,5892,0,-1,0
21.61,11.84,-43.09,1699,-5559,5895,0,-1,0
21.61,11.85,-43.08,1688,-5557,5894,0,-1,0
21.60,11.84,-43.06,1674,-5564,5895,0,-1,0
21.60,11.85,-43.06,1673,-5568,5897,0,-1,-1
21.60,11.85,-43.06,1678,-5559,5898,0,-1,0
21.60,11.85,-43.05,1685,-5554,5896,0,-1,0
21.59,11.86,-43.05,1696,-5555,5894,0,-1,0
21.59,11.87,-43.05,1693,-5566,5888,0,-1,0
21.59,11.87,-43.05,1684,-5572,5885,0,-1,0
21.58,11.87,-43.04,1680,-5573,5895,0,-1,0
21.58,11.88,-43.03,1684,-5567,5885,0,-1,0
21.58,11.88,-43.02,1687,-5564,5889,0,-1,-1
21.58,11.87,-43.00,1691,-5558,5903,0,0,0
21.58,11.87,-42.99,1692,-5547,5913,0,-1,0
21.57,11.88,-42.99,1688,-5550,5899,0,-1,0
21.56,11.88,-42.98,1690,-5551,5902,0,-1,0
21.56,11.88,-42.98,1683,-5558,5905,0,-1,0
21.55,11.88,-42.97,1675,-5555,5910,0,-1,0
21.55,11.88,-42.96,1679,-5555,5903,0,-1,0
21.54,11.89,-42.96,1681,-5561,5905,0,-1,0
21.54,11.89,-42.95,1679,-5559,5911,0,-1,0
21.54,11.89,-42.95,1689,-5556,5907,0,-1,-1
21.54,11.90,-42.93,1688,-5554,5894,0,-1,0
21.53,11.89,-42.92,1687,-5546,5903,0,-1,0
21.52,11.90,-42.92,1694,-5557,5900,0,-1,0
21.52,11.91,-42.90,1702,-5555,5914,0,-1,0
21.52,11.90,-42.89,1683,-5549,5906,0,-1,0
21.51,11.91,-42.88,1680,-5542,5909,0,-1,0
21.51,11.91,-42.87,1686,-5539,5911,0,-1,-1
21.51,11.91,-42.86,1692,-5543,5905,0,-1,0
21.51,11.92,-42.84,1689,-5542,5907,0,-1,0
21.50,11.93,-42.81,1695,-5531,5927,0,-1,0
21.49,11.93,-42.80,1694,-5523,5933,0,-1,0
21.49,11.93,-42.79,1688,-5524,5914,0,-1,0
21.48,11.92,-42.79,1685,-5533,5911,0,-1,0
21.47,11.93,-42.79,1684,-5539,5918,0,-1,0
21.47,11.93,-42.78,1686,-5529,5948,0,0,-1
21.47,11.93,-42.78,1690,-5523,5947,-1,-1,-1
21.47,11.92,-42.79,1700,-5526,5932,-1,0,-1
21.47,11.92,-42.79,1705,-5520,5918,-1,0,-1
21.47,11.91,-42.79,1700,-5519,5927,-1,0,-1
21.47,11.90,-42.80,1689,-5524,5930,-1,0,0
21.47,11.89,-42.82,1686,-5536,5930,-1,0,-1
21.46,11.88,-42.84,1682,-5550,5928,-1,0,-1
21.46,11.87,-42.85,1674,-5562,5906,-1,0,-1
21.47,11.87,-42.85,1675,-5566,5908,-1,0,-1
21.48,11.87,-42.85,1684,-5541,5904,0,0,-1
21.48,11.87,-42.85,1687,-5530,5921,-1,0,-1
21.48,11.87,-42.86,1695,-5521,5908,-1,0,-1
21.48,11.86,-42.88,1700,-5539,5907,-1,0,-1
21.48,11.84,-42.89,1692,-5539,5910,-1,0,0
21.48,11.83,-42.90,1681,-5542,5907,-1,0,-1
21.47,11.81,-42.93,1677,-5550,5895,-1,0,-1
21.47,11.81,-42.94,1672,-5556,5906,-1,0,-1
21.47,11.79,-42.96,1674,-5553,5907,-1,0,-1
21.48,11.79,-42.98,1674,-5553,5912,-1,0,-1
21.48,11.78,-42.99,1680,-5560,5895,-1,0,-1
21.48,11.77,-43.01,1677,-5559,5900,-1,0,-1
21.48,11.76,-43.03,1677,-5566,5897,-1,0,-1
21.48,11.74,-43.05,1675,-5570,5886,-1,0,-1
21.48,11.73,-43.06,1672,-5583,5876,-1,0,-1
21.47,11.72,-43.07,1668,-5566,5886,-1,0,-1
21.48,11.71,-43.08,1664,-5557,5898,-1,0,-1
21.48,11.71,-43.09,1664,-5561,5886,-1,0,-1
21.48,11.70,-43.10,1672,-5574,5898,-1,0,-1
21.48,11.69,-43.11,1665,-5574,5908,-1,0,-1
21.48,11.69,-43.12,1658,-5566,5903,-1,0,-1
21.48,11.68,-43.14,1653,-5573,5898,-1,0,-1
21.48,11.67,-43.15,1651,-5573,5886,-1,0,-1
21.47,11.67,-43.16,1655,-5579,5881,-1,0,-1
21.48,11.66,-43.16,1653,-5584,5880,-1,0,-1
21.47,11.65,-43.17,1651,-5588,5878,0,0,-1
21.47,11.65,-43.18,1660,-5585,5885,-1,0,-1
21.48,11.64,-43.18,1652,-5583,5874,-1,0,-1
21.48,11.64,-43.19,1653,-5575,5893,-1,0,-1
21.48,11.64,-43.20,1653,-5576,5883,-1,0,-1
21.48,11.64,-43.20,1652,-5577,5887,-1,0,-1
21.48,11.63,-43.22,1648,-5573,5892,-1,-1,-1
21.48,11.62,-43.24,1652,-5581,5885,-1,0,-1
21.47,11.62,-43.26,1650,-5584,5884,-1,0,-1
21.48,11.61,-43.27,1654,-5596,5889,-1,0,-1
21.48,11.60,-43.28,1643,-5595,5878,-1,0,-1
21.47,11.60,-43.30,1632,-5592,5884,-1,0,-1
21.47,11.58,-43.32,1633,-5589,5886,-1,0,-1
21.46,11.57,-43.33,1627,-5597,5877,-1,0,-1
21.47,11.57,-43.35,1634,-5606,5877,-1,0,-1
21.46,11.55,-43.36,1637,-5601,5872,-1,0,-1
21.46,11.56,-43.37,1644,-5597,5868,-1,0,-1
21.46,11.55,-43.37,1642,-5595,5875,-1,0,-1
21.46,11.55,-43.38,1645,-5598,5880,-1,-1,-1
21.45,11.55,-43.40,1649,-5601,5869,-1,-1,0
21.45,11.56,-43.40,1653,-5609,5863,0,-1,0
21.44,11.55,-43.41,1648,-5611,5862,0,0,0
21.44,11.55,-43.42,1644,-5629,5870,-1,-1,0
21.43,11.55,-43.42,1626,-5626,5856,0,-1,-1
21.43,11.55,-43.43,1623,-5638,5845,0,-1,-1
21.43,11.56,-43.42,1635,-5629,5850,0,-1,-1
21.44,11.57,-43.41,1644,-5614,5860,0,-1,-1
21.44,11.57,-43.40,1645,-5592,5867,0,-1,-1
21.44,11.58,-43.40,1658,-5591,5872,0,-1,0
21.44,11.59,-43.39,1671,-5592,5868,0,-1,0
21.43,11.59,-43.39,1663,-5599,5868,0,-1,0
21.43,11.59,-43.37,1650,-5602,5872,0,-1,0
21.42,11.59,-43.36,1644,-5599,5876,0,-1,0
21.42,11.59,-43.36,1639,-5603,5878,0,-1,-1
21.42,11.60,-43.36,1645,-5602,5887,0,-1,-1
21.42,11.61,-43.35,1644,-5604,5884,0,-1,-1
21.42,11.62,-43.35,1649,-5603,5876,0,-1,-1
21.42,11.64,-43.34,1655,-5603,5875,0,-1,-1
21.42,11.65,-43.32,1656,-5606,5874,0,-1,-1
21.41,11.65,-43.30,1661,-5592,5879,0,-1,0
21.41,11.66,-43.29,1657,-5586,5879,0,-1,0
21.41,11.67,-43.27,1662,-5580,5880,0,-1,0
21.41,11.68,-43.26,1669,-5581,5889,0,-1,0
21.40,11.67,-43.26,1661,-5586,5887,0,-1,-1
21.40,11.67,-43.24,1665,-5591,5900,0,-1,0
21.40,11.68,-43.23,1657,-5585,5901,0,-1,-1
21.40,11.68,-43.23,1648,-5585,5896,0,-1,-1
21.39,11.68,-43.24,1647,-5586,5879,0,-1,-1
21.40,11.69,-43.23,1664,-5583,5885,0,-1,-1
21.40,11.70,-43.24,1669,-5591,5878,0,-1,0
21.39,11.69,-43.24,1668,-5587,5879,-1,-1,0
21.39,11.69,-43.25,1658,-5582,5884,-1,-1,0
21.38,11.70,-43.26,1676,-5595,5885,0,-1,0
21.37,11.69,-43.26,1673,-5575,5902,-1,0,0
21.36,11.69,-43.27,1667,-5581,5887,-1,-1,0
21.36,11.68,-43.27,1655,-5581,5890,0,-1,0
21.35,11.68,-43.28,1658,-5596,5880,-1,-1,0
21.35,11.68,-43.29,1657,-5599,5873,0,0,0
21.35,11.69,-43.29,1675,-5588,5899,0,-1,0
21.33,11.68,-43.30,1661,-5582,5884,-1,-1,0
21.32,11.68,-43.31,1652,-5593,5848,0,-1,-1
21.32,11.68,-43.31,1649,-5601,5871,-1,-1,0
21.31,11.69,-43.31,1662,-5603,5879,0,-1,0
21.31,11.68,-43.30,1662,-5597,5886,0,-1,0
21.31,11.69,-43.30,1673,-5603,5863,0,-1,0
21.31,11.70,-43.29,1675,-5602,5886,0,-1,0
21.30,11.71,-43.29,1682,-5601,5886,0,-1,0
21.30,11.70,-43.27,1669,-5586,5874,0,0,0
21.29,11.69,-43.27,1651,-5574,5873,0,-1,-1
21.29,11.71,-43.27,1671,-5580,5878,0,-1,0
21.28,11.72,-43.27,1673,-5601,5878,0,-1,0
21.28,11.71,-43.25,1645,-5609,5879,0,-1,0
21.27,11.71,-43.24,1647,-5592,5886,0,-1,-1
21.27,11.72,-43.22,1655,-5587,5886,0,-1,-1
21.27,11.73,-43.20,1666,-5599,5870,1,-1,0
21.27,11.74,-43.18,1668,-5582,5882,1,-1,0
21.27,11.75,-43.16,1672,-5561,5891,0,-1,0
21.27,11.76,-43.15,1673,-5562,5911,0,-1,0
21.26,11.76,-43.14,1680,-5566,5890,0,-1,0
21.25,11.76,-43.13,1675,-5575,5879,0,-1,0
21.26,11.77,-43.10,1682,-5575,5884,0,-1,0
21.25,11.77,-43.10,1679,-5565,5892,0,-1,0
21.25,11.78,-43.09,1673,-5569,5894,0,-1,0
21.25,11.79,-43.07,1670,-5572,5904,0,-1,0
21.24,11.80,-43.06,1672,-5572,5896,0,-1,0
21.24,11.80,-43.05,1670,-5567,5896,0,-1,0
21.24,11.81,-43.04,1679,-5560,5911,0,-1,0
21.23,11.81,-43.03,1676,-5551,5910,0,-1,0
21.23,11.81,-43.03,1685,-5561,5911,0,-1,0
21.22,11.81,-43.02,1678,-5559,5905,0,-1,0
21.22,11.81,-43.02,1671,-5563,5913,0,-1,0
21.21,11.81,-43.02,1673,-5547,5913,0,-1,0
21.21,11.82,-43.02,1682,-5561,5910,0,-1,0
21.20,11.83,-43.02,1690,-5566,5909,0,-1,0
21.20,11.83,-43.02,1690,-5567,5902,0,-1,0
21.20,11.83,-43.03,1679,-5555,5905,0,-1,0
21.19,11.83,-43.03,1679,-5567,5894,0,-1,0
21.19,11.84,-43.02,1684,-5569,5899,0,-1,0
21.19,11.84,-43.02,1674,-5565,5892,0,-1,0
21.18,11.84,-43.00,1674,-5564,5890,0,-1,0
21.18,11.84,-43.00,1677,-5560,5898,0,-1,0
21.17,11.84,-42.99,1676,-5562,5910,0,-1,0
21.17,11.85,-42.98,1677,-5556,5902,0,-1,0
21.17,11.85,-42.96,1687,-5560,5903,0,-1,-1
21.17,11.85,-42.96,1684,-5550,5904,0,0,-1
21.17,11.85,-42.94,1683,-5547,5916,0,-1,0
21.16,11.85,-42.93,1679,-5551,5917,0,-1,0
21.16,11.85,-42.92,1670,-5554,5926,0,-1,-1
21.15,11.85,-42.92,1670,-5556,5931,0,-1,0
21.15,11.86,-42.91,1668,-5547,5911,0,-1,0
21.15,11.86,-42.90,1677,-5541,5910,0,-1,0
21.15,11.87,-42.89,1684,-5551,5908,0,-1,-1
21.15,11.88,-42.89,1691,-5551,5919,0,-1,0
21.14,11.88,-42.88,1688,-5546,5926,0,-1,0
21.14,11.88,-42.87,1693,-5544,5926,0,-1,-1
21.14,11.88,-42.87,1695,-5549,5929,0,-1,0
21.14,11.89,-42.86,1691,-5550,5930,0,-1,0
21.14,11.89,-42.86,1679,-5549,5922,0,-1,-1
21.14,11.89,-42.86,1688,-5547,5927,0,-1,-1
21.14,11.89,-42.85,1693,-5540,5934,0,0,-1
21.14,11.88,-42.85,1687,-5541,5921,0,0,0
21.14,11.87,-42.86,1683,-5537,5922,-1,0,-1
21.13,11.87,-42.87,1681,-5545,5909,-1,0,-1
21.13,11.86,-42.87,1684,-5547,5909,-1,0,-1
21.13,11.86,-42.88,1681,-5540,5913,-1,0,-1
21.14,11.85,-42.88,1685,-5534,5911,-1,0,-1
21.14,11.85,-42.88,1685,-5534,5927,-1,0,-1
21.14,11.85,-42.89,1687,-5541,5921,-1,0,-1
21.14,11.84,-42.90,1679,-5549,5923,-1,0,-1
21.14,11.84,-42.90,1680,-5555,5922,-1,0,-1
21.14,11.83,-42.92,1684,-5562,5918,-1,0,-1
21.14,11.83,-42.93,1683,-5561,5918,-1,0,-1
21.14,11.82,-42.94,1683,-5563,5910,-1,0,-1
21.14,11.82,-42.94,1677,-5550,5911,-1,0,-1
21.14,11.81,-42.95,1680,-5540,5917,-1,0,-1
21.14,11.80,-42.95,1676,-5549,5913,-1,0,-1
21.14,11.80,-42.96,1686,-5562,5916,-1,0,-1
21.14,11.78,-42.97,1676,-5563,5907,-1,0,-1
21.14,11.77,-42.98,1674,-5561,5904,-1,0,-1
21.15,11.77,-43.00,1676,-5558,5901,-1,0,-1
21.15,11.77,-43.01,1676,-5556,5903,-1,0,-1
21.15,11.76,-43.03,1676,-5565,5889,-1,0,-1
21.14,11.75,-43.04,1671,-5563,5899,-1,0,-1
21.14,11.73,-43.06,1670,-5561,5906,-1,0,0
21.14,11.72,-43.08,1669,-5561,5916,-1,1,-1
21.14,11.70,-43.11,1655,-5569,5908,-1,0,-1
21.13,11.68,-43.13,1654,-5578,5899,-1,0,-1
21.14,11.67,-43.15,1652,-5579,5916,-1,0,-1
21.14,11.65,-43.17,1653,-5580,5898,-1,0,-1
21.13,11.64,-43.20,1653,-5574,5906,-1,0,0
21.13,11.63,-43.23,1652,-5580,5889,-2,0,-1
21.13,11.60,-43.27,1646,-5583,5870,-2,0,0
21.12,11.60,-43.29,1647,-5601,5882,-1,-1,-1
21.12,11.58,-43.33,1659,-5601,5877,-2,1,0
21.11,11.56,-43.36,1639,-5589,5897,-2,-1,-1
21.10,11.58,-43.42,1650,-5599,5869,-2,-2,0
21.09,11.56,-43.46,1663,-5566,5845,-2,1,0
21.07,11.56,-43.51,1643,-5626,5833,-1,-1,0
21.06,11.56,-43.53,1654,-5615,5862,-2,0,0
21.05,11.55,-43.56,1634,-5624,5856,-1,0,0
21.04,11.53,-43.60,1628,-5637,5871,-1,0,0
21.04,11.54,-43.64,1651,-5642,5855,-2,-1,0
21.02,11.54,-43.67,1640,-5644,5854,-1,0,-1
21.02,11.53,-43.70,1641,-5648,5803,-1,0,0
21.02,11.51,-43.69,1632,-5653,5852,-1,0,0
21.01,11.50,-43.70,1650,-5611,5817,-1,0,0
21.00,11.47,-43.71,1631,-5638,5846,-1,0,0
20.99,11.46,-43.73,1643,-5647,5837,-1,0,0
20.99,11.44,-43.73,1635,-5641,5821,0,0,0
20.98,11.42,-43.72,1590,-5618,5836,0,0,0
20.97,11.41,-43.71,1599,-5613,5821,0,0,0
20.96,11.40,-43.72,1601,-5618,5862,-1,-1,0
20.97,11.41,-43.72,1609,-5645,5866,0,0,-1
20.96,11.42,-43.73,1611,-5641,5833,-1,-2,0
20.96,11.43,-43.75,1631,-5630,5859,0,-1,0
20.96,11.43,-43.76,1610,-5642,5828,-1,0,-1
20.96,11.45,-43.77,1648,-5648,5843,-1,-2,0
20.96,11.45,-43.78,1625,-5632,5834,0,0,-1
20.95,11.46,-43.77,1631,-5642,5854,-1,-2,0
20.94,11.47,-43.78,1638,-5666,5817,0,0,-1
20.95,11.47,-43.77,1618,-5634,5846,0,-1,-1
20.94,11.48,-43.78,1632,-5652,5825,-1,-2,0
20.93,11.49,-43.79,1651,-5653,5846,0,0,-1
20.93,11.48,-43.78,1647,-5634,5841,0,0,-1
20.93,11.48,-43.77,1624,-5640,5811,1,-1,0
20.93,11.49,-43.74,1608,-5635,5827,0,-1,0
20.93,11.50,-43.72,1625,-5636,5827,1,-1,-1
20.93,11.51,-43.70,1612,-5643,5851,0,-1,-1
20.93,11.52,-43.68,1618,-5666,5843,1,-1,-1
20.94,11.53,-43.65,1632,-5661,5861,1,-1,-1
20.94,11.55,-43.63,1631,-5650,5846,1,-1,-1
20.95,11.56,-43.61,1630,-5637,5847,1,-1,-1
20.96,11.58,-43.57,1640,-5616,5845,1,-1,-1
20.96,11.60,-43.56,1646,-5607,5855,0,-1,-1
20.96,11.62,-43.54,1664,-5609,5855,0,-1,-1
20.96,11.63,-43.52,1664,-5618,5865,0,-1,-1
20.95,11.63,-43.51,1657,-5613,5864,0,-1,0
20.95,11.63,-43.50,1639,-5623,5874,0,-1,-1
20.94,11.63,-43.50,1640,-5613,5869,0,-1,0
20.95,11.63,-43.50,1637,-5618,5861,0,-1,-1
20.95,11.64,-43.49,1637,-5606,5865,0,-1,-1
20.95,11.66,-43.49,1654,-5602,5856,0,-1,-1
20.96,11.67,-43.50,1665,-5605,5864,-1,-1,-1
20.95,11.68,-43.50,1683,-5598,5865,0,-1,0
20.95,11.67,-43.50,1672,-5608,5875,0,0,0
20.94,11.68,-43.50,1680,-5614,5863,-1,-1,0
20.93,11.66,-43.51,1651,-5603,5890,-1,0,0
20.91,11.66,-43.52,1623,-5617,5888,-1,-2,0
20.91,11.67,-43.54,1650,-5633,5851,-1,-1,0
20.91,11.68,-43.54,1665,-5607,5867,0,0,0
20.91,11.68,-43.56,1643,-5626,5848,-1,-1,0
20.89,11.69,-43.57,1671,-5603,5851,0,0,0
20.89,11.68,-43.57,1674,-5600,5896,-1,-1,0
20.88,11.68,-43.59,1667,-5620,5795,0,0,0
20.88,11.69,-43.58,1674,-5617,5877,-1,-2,0
20.86,11.68,-43.59,1658,-5628,5799,1,1,0
20.86,11.67,-43.57,1657,-5618,5858,0,-1,0
20.84,11.66,-43.57,1657,-5616,5873,0,0,0
20.84,11.67,-43.57,1660,-5622,5859,0,0,-1
20.83,11.66,-43.57,1654,-5637,5849,0,-1,0
20.83,11.67,-43.56,1662,-5619,5879,-1,-1,0
20.82,11.66,-43.57,1640,-5608,5827,1,0,-1
20.83,11.67,-43.53,1659,-5606,5870,-1,-2,-1
20.82,11.68,-43.54,1645,-5609,5825,0,0,-1
20.84,11.70,-43.53,1686,-5637,5844,0,-1,-1
20.83,11.70,-43.50,1666,-5583,5861,0,-1,0
20.83,11.70,-43.49,1652,-5587,5837,0,-1,-1
20.83,11.71,-43.48,1668,-5611,5855,0,-1,-1
20.83,11.72,-43.47,1652,-5624,5857,0,-1,-1
20.83,11.73,-43.45,1654,-5634,5845,1,-1,0
20.83,11.74,-43.43,1665,-5621,5840,1,-1,-1
20.83,11.75,-43.40,1673,-5623,5854,1,-1,-1
20.83,11.76,-43.36,1661,-5614,5864,1,-1,-1
20.83,11.77,-43.33,1661,-5604,5853,1,-1,-1
20.83,11.77,-43.29,1671,-5595,5848,1,-1,-1
20.83,11.77,-43.24,1684,-5579,5866,1,0,0
20.83,11.77,-43.20,1675,-5569,5900,1,-1,0
20.83,11.77,-43.18,1679,-5566,5905,0,0,0
20.83,11.78,-43.17,1680,-5577,5913,0,-1,-1
20.83,11.79,-43.14,1682,-5582,5904,0,-1,0
20.82,11.80,-43.12,1679,-5580,5890,0,-1,0
20.81,11.79,-43.11,1671,-5568,5895,0,-1,0
20.81,11.80,-43.09,1664,-5557,5903,0,-1,0
20.81,11.80,-43.08,1667,-5560,5903,0,-1,0
20.81,11.81,-43.08,1678,-5571,5910,0,-1,-1
20.80,11.82,-43.06,1682,-5575,5901,0,-1,0
20.81,11.82,-43.05,1694,-5573,5897,0,0,-1
20.81,11.82,-43.02,1689,-5564,5909,0,-1,0
20.81,11.83,-43.02,1694,-5554,5903,0,-1,-1
20.81,11.82,-43.01,1683,-5560,5889,0,-1,0
20.80,11.83,-43.01,1681,-5561,5907,0,-1,0
20.79,11.82,-43.00,1674,-5567,5910,0,-1,0
20.79,11.83,-43.00,1677,-5574,5910,0,-1,0
20.78,11.82,-43.00,1673,-5573,5897,0,-1,0
20.78,11.83,-42.99,1667,-5567,5890,0,-1,0
20.78,11.83,-42.98,1669,-5559,5895,0,-1,0
20.77,11.83,-42.97,1672,-5559,5909,0,-1,0
20.77,11.84,-42.97,1689,-5557,5910,0,-1,0
20.77,11.84,-42.96,1684,-5557,5912,0,-1,0
20.77,11.84,-42.96,1692,-5554,5907,0,-1,0
20.76,11.84,-42.95,1688,-5548,5914,0,-1,0
20.75,11.84,-42.94,1681,-5546,5917,0,-1,0
20.74,11.84,-42.94,1687,-5559,5910,0,-1,0
20.74,11.85,-42.94,1685,-5555,5913,0,-1,0
20.74,11.84,-42.94,1677,-5567,5894,0,-1,0
20.73,11.85,-42.93,1676,-5565,5905,0,-1,-1
20.73,11.86,-42.93,1687,-5569,5908,0,-1,0
20.73,11.86,-42.92,1692,-5562,5908,0,-1,-1
20.73,11.86,-42.91,1685,-5558,5905,0,-1,-1
20.73,11.87,-42.90,1689,-5550,5903,0,-1,0
20.72,11.87,-42.89,1691,-5548,5903,0,0,0
20.72,11.87,-42.87,1689,-5547,5904,0,-1,-1
20.72,11.87,-42.86,1688,-5541,5898,0,-1,0
20.71,11.87,-42.84,1696,-5540,5918,0,-1,0
20.71,11.87,-42.84,1693,-5540,5919,0,-1,0
20.71,11.88,-42.84,1692,-5540,5917,0,-1,0
20.70,11.89,-42.84,1688,-5543,5913,0,-1,0
20.70,11.88,-42.83,1681,-5537,5914,0,-1,-1
20.70,11.88,-42.83,1689,-5535,5907,0,0,-1
20.70,11.88,-42.84,1690,-5533,5914,0,0,-1
20.69,11.88,-42.84,1691,-5539,5921,-1,0,-1
20.69,11.87,-42.85,1689,-5545,5928,0,0,-1
20.69,11.86,-42.85,1685,-5544,5927,-1,0,-1
20.70,11.86,-42.85,1694,-5543,5917,0,0,-1
20.70,11.85,-42.86,1688,-5538,5906,-1,0,-1
20.69,11.84,-42.86,1681,-5528,5910,-1,0,-1
20.69,11.83,-42.88,1687,-5547,5915,-1,0,-1
20.70,11.82,-42.89,1683,-5551,5928,-1,0,-1
20.70,11.81,-42.90,1678,-5553,5919,-1,0,-1
20.70,11.80,-42.92,1676,-5552,5912,-1,0,-1
20.71,11.80,-42.93,1680,-5544,5905,-1,0,-1
20.71,11.79,-42.93,1681,-5543,5897,-1,0,-1
20.71,11.79,-42.94,1679,-5545,5911,-1,0,-1
20.72,11.78,-42.95,1682,-5554,5909,0,0,-1
20.71,11.77,-42.96,1674,-5560,5911,-1,0,-1
20.71,11.76,-42.96,1673,-5562,5916,-1,0,-1
20.71,11.75,-42.98,1664,-5569,5915,-1,0,-1
20.71,11.74,-42.98,1655,-5570,5905,-1,0,-1
20.71,11.73,-42.98,1658,-5566,5908,-1,0,-1
20.72,11.74,-42.99,1669,-5562,5906,-1,0,-1
20.72,11.73,-43.00,1669,-5556,5914,-1,0,-1
20.72,11.72,-43.01,1675,-5547,5915,-1,0,-1
20.72,11.72,-43.02,1674,-5554,5912,-1,0,-1
20.72,11.71,-43.03,1671,-5552,5910,-1,0,-1
20.72,11.70,-43.04,1663,-5559,5911,-1,0,-1
20.72,11.70,-43.05,1664,-5562,5908,-1,0,-1
20.71,11.69,-43.06,1654,-5563,5909,-1,0,-1
20.72,11.68,-43.08,1654,-5575,5895,-1,0,-1
20.71,11.67,-43.10,1655,-5586,5901,-1,0,-1
20.72,11.66,-43.10,1645,-5581,5909,-1,0,-1
20.71,11.66,-43.12,1646,-5589,5898,-1,0,-1
20.72,11.65,-43.13,1648,-5588,5901,-1,0,-1
20.72,11.64,-43.14,1655,-5588,5895,-1,0,-1
20.72,11.64,-43.14,1659,-5575,5889,-1,0,-1
20.73,11.63,-43.15,1665,-5571,5896,-1,0,-1
20.72,11.63,-43.15,1669,-5568,5905,-1,0,0
20.72,11.62,-43.16,1665,-5575,5907,-1,0,-1
20.72,11.60,-43.18,1651,-5580,5904,-1,0,0
20.72,11.59,-43.19,1644,-5584,5896,-1,0,-1
20.72,11.58,-43.20,1642,-5585,5885,-1,0,-1
20.71,11.58,-43.22,1648,-5591,5884,-1,0,-1
20.72,11.58,-43.23,1646,-5592,5879,-1,0,-1
20.72,11.57,-43.24,1650,-5593,5888,-1,0,-1
20.72,11.57,-43.25,1649,-5588,5888,-1,0,-1
20.72,11.57,-43.25,1648,-5588,5891,-1,0,-1
20.72,11.55,-43.26,1643,-5592,5892,-1,0,0
20.72,11.55,-43.28,1646,-5598,5879,-1,0,0
20.71,11.54,-43.28,1640,-5593,5882,0,0,0
20.71,11.54,-43.29,1640,-5581,5875,-1,0,0
20.71,11.54,-43.30,1650,-5603,5872,0,0,-1
20.71,11.53,-43.30,1646,-5598,5875,0,0,-1
20.71,11.53,-43.31,1641,-5596,5875,0,-1,-1
20.71,11.53,-43.31,1639,-5594,5876,-1,-1,-1
20.70,11.54,-43.31,1644,-5597,5868,0,-1,-1
20.70,11.54,-43.31,1649,-5593,5871,0,-1,-1
20.70,11.54,-43.31,1641,-5598,5876,0,-1,-1
20.70,11.54,-43.31,1632,-5594,5874,0,-1,0
20.70,11.54,-43.31,1636,-5604,5868,0,-1,-1
20.70,11.55,-43.31,1632,-5604,5872,0,-1,-1
