Yaw,Pitch,Roll,AX,AY,AZ,GX,GY,GZ
23.84,21.67,-60.65,3056,-6731,3780,-1,-1,0
23.84,21.68,-60.66,3062,-6738,3771,0,-1,-1
23.83,21.67,-60.66,3065,-6737,3766,0,-1,-1
23.84,21.68,-60.65,3063,-6723,3779,0,-1,0
23.84,21.68,-60.64,3072,-6722,3788,0,-1,-1
23.84,21.69,-60.64,3081,-6715,3778,0,-1,0
23.84,21.69,-60.64,3076,-6713,3777,0,-1,0
23.83,21.68,-60.64,3073,-6713,3782,0,-1,0
23.83,21.69,-60.64,3077,-6716,3792,-1,-1,0
23.83,21.69,-60.64,3079,-6719,3783,-1,0,0
23.83,21.69,-60.64,3073,-6722,3779,0,-1,-1
23.83,21.69,-60.64,3067,-6716,3786,0,-1,0
23.83,21.69,-60.64,3083,-6732,3798,-1,-1,0
23.83,21.69,-60.65,3072,-6729,3790,-1,-1,-1
23.83,21.69,-60.65,3078,-6735,3779,0,-1,0
23.83,21.69,-60.64,3061,-6730,3793,0,-1,-1
23.83,21.69,-60.64,3063,-6725,3786,0,-1,-1
23.83,21.69,-60.62,3066,-6720,3783,0,-1,0
23.83,21.70,-60.62,3071,-6708,3788,0,-1,-1
23.84,21.70,-60.61,3078,-6707,3792,0,-1,0
23.84,21.71,-60.61,3090,-6707,3794,0,-1,0
23.83,21.71,-60.61,3082,-6705,3802,-1,0,0
23.83,21.71,-60.61,3081,-6711,3798,-1,0,0
23.83,21.70,-60.61,3060,-6715,3789,-1,-1,0
23.82,21.70,-60.62,3065,-6724,3774,-1,-1,0
23.83,21.70,-60.63,3068,-6728,3773,-1,-1,-1
23.82,21.70,-60.63,3075,-6732,3765,0,-1,0
23.82,21.71,-60.62,3078,-6733,3776,0,-1,0
23.82,21.71,-60.62,3070,-6723,3777,0,-1,0
23.82,21.71,-60.61,3079,-6716,3775,0,-1,0
23.82,21.71,-60.60,3076,-6708,3795,0,-1,0
23.82,21.72,-60.59,3080,-6713,3791,0,-1,0
23.82,21.72,-60.59,3080,-6708,3784,0,-1,0
23.82,21.72,-60.60,3077,-6711,3782,-1,-1,0
23.82,21.73,-60.60,3078,-6712,3785,0,-1,0
23.82,21.72,-60.60,3068,-6716,3787,0,-1,0
23.81,21.73,-60.60,3081,-6727,3771,0,-1,0
23.80,21.72,-60.60,3076,-6717,3778,0,-1,0
23.80,21.72,-60.59,3079,-6708,3791,0,0,0
23.79,21.71,-60.60,3076,-6718,3797,-1,-1,-1
23.78,21.71,-60.60,3070,-6725,3786,0,-1,0
23.78,21.70,-60.60,3058,-6723,3787,0,-1,0
23.77,21.70,-60.60,3063,-6719,3785,0,-1,0
23.77,21.70,-60.59,3079,-6717,3783,0,-1,0
23.76,21.70,-60.59,3082,-6706,3794,0,-1,0
23.75,21.70,-60.59,3082,-6712,3793,-1,-1,0
23.75,21.69,-60.59,3090,-6720,3792,0,-1,0
23.74,21.68,-60.59,3090,-6719,3793,0,-1,0
23.73,21.68,-60.59,3078,-6715,3800,0,0,0
23.71,21.66,-60.59,3035,-6715,3796,-1,-1,0
23.70,21.66,-60.61,3040,-6731,3777,0,-1,0
23.70,21.66,-60.62,3056,-6732,3778,0,-1,0
23.69,21.66,-60.61,3061,-6728,3791,0,-1,0
23.69,21.66,-60.60,3072,-6720,3793,0,-1,0
23.69,21.67,-60.59,3081,-6698,3794,0,-1,0
23.68,21.67,-60.60,3082,-6695,3798,-1,-1,0
23.68,21.67,-60.60,3085,-6701,3790,-1,-1,0
23.67,21.67,-60.61,3083,-6708,3785,-1,-1,0
23.67,21.67,-60.61,3103,-6705,3792,-1,-1,0
23.65,21.66,-60.62,3073,-6708,3784,-1,0,0
23.65,21.65,-60.64,3070,-6716,3774,-1,-1,0
23.64,21.65,-60.64,3076,-6727,3776,0,-1,-1
23.64,21.65,-60.64,3063,-6721,3790,-1,0,0
23.64,21.64,-60.65,3058,-6736,3771,-1,0,-1
23.65,21.66,-60.66,3062,-6730,3749,0,0,-1
23.66,21.66,-60.65,3068,-6723,3775,0,0,-1
23.67,21.66,-60.63,3061,-6711,3795,0,0,-1
23.68,21.67,-60.62,3063,-6708,3798,-1,0,-1
23.69,21.67,-60.62,3064,-6697,3796,-1,0,-1
23.71,21.68,-60.62,3074,-6706,3802,-1,0,-1
23.72,21.69,-60.63,3084,-6715,3788,-1,0,-1
23.74,21.70,-60.63,3087,-6719,3793,-1,0,-1
23.74,21.69,-60.64,3088,-6723,3792,-1,0,-1
23.76,21.70,-60.64,3083,-6728,3785,-1,0,-1
23.76,21.70,-60.65,3077,-6732,3771,-1,0,-1
23.77,21.70,-60.65,3078,-6735,3775,-1,0,-1
23.78,21.70,-60.65,3069,-6729,3772,-1,0,-1
23.78,21.70,-60.66,3073,-6727,3769,-1,0,-1
23.79,21.70,-60.66,3083,-6727,3775,-1,0,-1
23.80,21.70,-60.65,3088,-6712,3772,0,0,-1
23.81,21.71,-60.64,3079,-6706,3778,-1,0,-1
23.82,21.71,-60.65,3084,-6718,3771,-1,0,-1
23.82,21.70,-60.65,3083,-6713,3777,-1,0,-1
23.83,21.70,-60.64,3070,-6715,3785,-1,0,-1
23.83,21.69,-60.65,3073,-6716,3782,-1,0,-1
23.84,21.69,-60.65,3071,-6724,3792,-1,0,-1
23.84,21.69,-60.66,3071,-6722,3782,-1,0,-1
23.85,21.69,-60.66,3070,-6727,3779,-1,0,-1
23.85,21.68,-60.66,3065,-6724,3791,-1,0,-1
23.86,21.68,-60.66,3084,-6732,3782,-1,0,-1
23.86,21.67,-60.66,3071,-6722,3778,-1,0,-1
23.87,21.67,-60.66,3068,-6715,3778,-1,0,-1
23.88,21.68,-60.65,3074,-6708,3780,-1,0,-1
23.89,21.68,-60.66,3083,-6711,3777,-1,0,-1
23.89,21.67,-60.66,3082,-6712,3773,-1,0,0
23.89,21.67,-60.67,3073,-6717,3772,-1,0,-1
23.89,21.66,-60.67,3070,-6718,3775,-1,0,-1
23.89,21.65,-60.67,3057,-6717,3776,-1,0,-1
23.89,21.64,-60.67,3054,-6720,3776,-1,0,-1
23.90,21.64,-60.67,3057,-6722,3792,-1,0,0
23.90,21.64,-60.68,3070,-6726,3773,-1,0,-1
23.90,21.63,-60.68,3067,-6727,3772,-1,0,-1
23.91,21.63,-60.67,3066,-6725,3772,-1,0,-1
23.91,21.62,-60.67,3056,-6729,3772,-1,0,-1
23.91,21.62,-60.68,3060,-6724,3781,-1,0,-1
23.92,21.62,-60.68,3070,-6721,3783,-1,0,-1
23.93,21.62,-60.68,3076,-6726,3772,-1,0,-1
23.93,21.61,-60.68,3073,-6725,3777,-1,0,0
23.93,21.60,-60.69,3072,-6726,3786,-1,0,0
23.93,21.59,-60.69,3056,-6721,3774,-1,0,-1
23.93,21.59,-60.70,3057,-6733,3766,-1,0,-1
23.93,21.59,-60.70,3049,-6731,3772,-1,0,-1
23.93,21.58,-60.70,3049,-6732,3769,-1,0,-1
23.93,21.58,-60.70,3049,-6739,3760,-1,0,-1
23.93,21.58,-60.70,3045,-6738,3763,0,0,-1
23.94,21.57,-60.69,3056,-6732,3769,-1,0,0
23.94,21.58,-60.69,3057,-6717,3772,-1,0,-1
23.94,21.57,-60.70,3063,-6716,3771,-1,0,-1
23.95,21.57,-60.70,3060,-6729,3779,-1,0,-1
23.94,21.57,-60.71,3060,-6737,3779,-1,0,0
23.95,21.57,-60.71,3052,-6727,3782,-1,0,-1
23.95,21.57,-60.71,3051,-6724,3769,0,0,-1
23.95,21.58,-60.71,3053,-6725,3762,0,0,-1
23.95,21.58,-60.70,3047,-6726,3766,0,-1,-1
23.95,21.58,-60.70,3058,-6726,3781,0,-1,-1
23.96,21.59,-60.70,3058,-6735,3782,0,-1,-1
23.96,21.59,-60.69,3054,-6727,3780,0,-1,-1
23.96,21.60,-60.69,3053,-6730,3775,0,-1,-1
23.96,21.60,-60.69,3057,-6728,3769,0,-1,-1
23.97,21.61,-60.68,3065,-6731,3772,0,-1,-1
23.97,21.62,-60.68,3068,-6728,3777,0,-1,0
23.97,21.62,-60.68,3060,-6717,3779,0,-1,0
23.97,21.62,-60.68,3061,-6722,3773,0,-1,0
23.96,21.62,-60.69,3058,-6732,3781,0,-1,0
23.97,21.63,-60.69,3053,-6734,3765,0,-1,-1
23.96,21.63,-60.68,3055,-6729,3767,0,-1,-1
23.97,21.64,-60.68,3068,-6719,3775,0,-1,0
23.97,21.64,-60.67,3077,-6712,3773,0,-1,-1
23.97,21.65,-60.67,3090,-6711,3781,0,-1,0
23.97,21.65,-60.67,3087,-6719,3784,0,-1,0
23.97,21.65,-60.66,3071,-6723,3789,0,-1,0
23.97,21.65,-60.66,3064,-6728,3788,0,-1,0
23.97,21.65,-60.66,3059,-6729,3783,0,-1,-1
23.97,21.66,-60.67,3063,-6725,3786,0,-1,0
23.96,21.65,-60.66,3061,-6731,3783,0,-1,-1
23.96,21.66,-60.66,3073,-6726,3783,0,-1,0
23.96,21.67,-60.65,3077,-6724,3781,0,-1,0
23.96,21.67,-60.65,3074,-6716,3790,0,-1,0
23.96,21.67,-60.65,3069,-6717,3793,0,-1,0
23.96,21.68,-60.64,3073,-6707,3782,0,-1,0
23.96,21.67,-60.64,3070,-6709,3789,0,-1,0
23.95,21.68,-60.64,3077,-6700,3788,-1,-1,-1
23.96,21.68,-60.64,3083,-6705,3792,0,-1,0
23.96,21.69,-60.64,3080,-6710,3792,-1,-1,0
23.96,21.68,-60.64,3076,-6716,3783,0,-1,0
23.95,21.68,-60.64,3067,-6724,3798,-1,-1,0
23.95,21.69,-60.64,3073,-6730,3780,0,-1,0
23.95,21.68,-60.64,3067,-6738,3781,0,-1,0
23.95,21.69,-60.63,3070,-6728,3783,0,-1,0
23.95,21.69,-60.63,3069,-6717,3785,0,-1,-1
23.95,21.70,-60.62,3083,-6713,3790,0,-1,0
23.94,21.69,-60.62,3066,-6715,3783,-1,-1,-1
23.95,21.70,-60.62,3084,-6716,3788,0,-1,0
23.95,21.70,-60.62,3075,-6713,3794,-1,-1,-1
23.95,21.70,-60.62,3067,-6725,3788,0,-1,-1
23.94,21.70,-60.62,3080,-6723,3789,0,-1,0
23.94,21.70,-60.62,3073,-6709,3794,-1,-1,0
23.95,21.70,-60.62,3078,-6716,3778,0,-1,0
23.94,21.70,-60.63,3079,-6722,3776,0,-1,-1
23.94,21.71,-60.63,3070,-6725,3771,0,-1,0
23.94,21.71,-60.62,3074,-6725,3772,0,-1,0
23.94,21.70,-60.61,3082,-6715,3781,0,-1,0
23.94,21.70,-60.60,3072,-6709,3796,0,-1,-1
23.93,21.70,-60.61,3068,-6720,3796,0,-1,0
23.94,21.71,-60.61,3078,-6713,3797,-1,0,0
23.94,21.70,-60.61,3076,-6718,3780,0,0,0
23.94,21.70,-60.60,3079,-6724,3786,-1,0,0
23.92,21.69,-60.62,3061,-6733,3758,0,0,0
23.91,21.69,-60.61,3062,-6726,3771,0,-1,0
23.91,21.68,-60.60,3065,-6717,3786,0,-1,-1
23.91,21.68,-60.60,3072,-6720,3798,-1,0,0
23.91,21.68,-60.62,3066,-6734,3792,-1,-1,0
23.90,21.68,-60.61,3093,-6723,3773,0,-1,0
23.90,21.68,-60.60,3073,-6704,3804,-1,0,0
23.90,21.68,-60.61,3089,-6710,3792,-1,-1,0
23.89,21.67,-60.62,3072,-6721,3800,-1,-1,0
23.89,21.67,-60.63,3094,-6725,3787,0,-1,0
23.87,21.65,-60.62,3050,-6722,3809,-1,0,-1
23.87,21.65,-60.64,3072,-6747,3758,0,0,0
23.86,21.64,-60.63,3049,-6729,3772,0,0,0
23.86,21.64,-60.63,3065,-6728,3769,0,-1,-1
23.86,21.65,-60.63,3073,-6721,3778,0,0,0
23.85,21.65,-60.64,3076,-6729,3775,0,-1,0
23.85,21.65,-60.62,3087,-6715,3791,0,0,0
23.84,21.64,-60.61,3048,-6702,3806,-1,-1,0
23.84,21.64,-60.63,3082,-6726,3759,-1,-1,0
23.83,21.64,-60.62,3063,-6713,3792,0,-1,0
23.83,21.64,-60.64,3087,-6742,3786,-1,0,0
23.82,21.63,-60.63,3057,-6712,3769,0,-1,0
23.82,21.64,-60.65,3073,-6719,3781,-1,-1,-1
23.81,21.64,-60.67,3066,-6732,3755,0,-1,0
23.80,21.64,-60.66,3063,-6730,3769,0,-1,0
23.80,21.64,-60.67,3060,-6728,3775,-1,-1,0
23.79,21.64,-60.68,3063,-6744,3759,0,-1,0
23.79,21.64,-60.67,3055,-6733,3762,0,-1,0
23.79,21.64,-60.67,3061,-6722,3767,0,-1,0
23.78,21.65,-60.67,3053,-6708,3773,0,-1,0
23.77,21.66,-60.67,3064,-6711,3784,0,-1,0
23.77,21.66,-60.68,3080,-6721,3785,0,-1,0
23.77,21.66,-60.68,3084,-6726,3780,0,-1,0
23.77,21.67,-60.67,3076,-6726,3782,0,-1,-1
23.77,21.67,-60.66,3081,-6726,3780,0,-1,-1
23.78,21.68,-60.66,3079,-6720,3783,0,-1,0
23.77,21.68,-60.66,3078,-6719,3778,0,-1,0
23.77,21.68,-60.66,3074,-6717,3783,0,-1,-1
23.78,21.68,-60.66,3080,-6711,3784,0,0,0
23.77,21.68,-60.67,3077,-6712,3795,-1,0,-1
23.78,21.68,-60.67,3086,-6724,3788,-1,0,-1
23.79,21.69,-60.67,3105,-6728,3775,-1,0,-1
23.79,21.69,-60.67,3082,-6720,3787,-1,0,-1
23.80,21.69,-60.66,3057,-6719,3795,-1,0,-1
23.81,21.69,-60.66,3053,-6726,3784,-1,0,-1
23.83,21.70,-60.66,3064,-6736,3773,-1,0,-1
23.84,21.71,-60.66,3078,-6735,3777,0,0,-1
23.86,21.71,-60.65,3081,-6722,3783,0,0,-1
23.87,21.72,-60.65,3084,-6711,3791,-1,0,-1
23.87,21.71,-60.64,3077,-6715,3780,-1,0,-1
23.88,21.71,-60.65,3072,-6718,3779,-1,0,-1
23.88,21.71,-60.66,3063,-6724,3768,-1,0,-1
23.89,21.71,-60.65,3067,-6725,3775,-1,0,-1
23.90,21.72,-60.65,3087,-6719,3775,-1,0,-1
23.91,21.72,-60.65,3086,-6705,3781,-1,0,-1
23.92,21.72,-60.65,3084,-6697,3795,-1,0,-1
23.93,21.72,-60.65,3093,-6717,3786,-1,0,-1
23.94,21.72,-60.66,3091,-6725,3776,-1,0,-1
23.93,21.71,-60.66,3073,-6735,3773,-1,0,-1
23.94,21.71,-60.66,3076,-6738,3770,0,0,-1
23.94,21.70,-60.66,3066,-6730,3788,-1,0,-1
23.95,21.70,-60.66,3063,-6725,3783,-1,0,-1
23.96,21.70,-60.65,3062,-6721,3774,-1,0,-1
23.96,21.70,-60.65,3072,-6715,3776,-1,0,-1
23.97,21.70,-60.65,3075,-6708,3784,-1,0,-1
23.98,21.70,-60.65,3081,-6703,3787,-1,0,-1
23.99,21.69,-60.65,3082,-6697,3776,-1,0,-1
24.00,21.69,-60.65,3073,-6722,3767,-1,0,-1
24.01,21.68,-60.66,3085,-6727,3767,-1,0,-1
24.01,21.67,-60.66,3079,-6713,3789,-1,0,-1
24.02,21.67,-60.66,3073,-6709,3797,-1,1,-1
24.02,21.66,-60.66,3063,-6731,3779,-1,0,-1
24.03,21.65,-60.67,3091,-6734,3779,-1,0,0
24.03,21.64,-60.68,3057,-6746,3760,-2,0,-1
24.03,21.63,-60.70,3071,-6755,3751,0,0,0
24.02,21.62,-60.70,3042,-6741,3761,-1,0,-1
24.02,21.61,-60.69,3083,-6720,3779,0,0,0
24.02,21.60,-60.70,3044,-6726,3782,-1,0,-1
24.03,21.60,-60.71,3059,-6721,3777,-1,0,0
24.03,21.60,-60.71,3056,-6730,3769,-1,0,-1
24.04,21.60,-60.72,3070,-6741,3767,-1,0,-1
24.03,21.59,-60.72,3065,-6730,3764,0,0,-1
24.03,21.58,-60.71,3046,-6720,3784,-1,0,0
24.03,21.58,-60.71,3045,-6725,3777,-1,0,-1
24.04,21.59,-60.72,3057,-6735,3779,-1,0,0
24.03,21.58,-60.72,3054,-6731,3771,-1,0,-1
24.03,21.58,-60.72,3048,-6739,3771,0,0,-1
24.04,21.58,-60.71,3048,-6734,3779,0,0,-1
24.04,21.58,-60.71,3051,-6733,3763,0,0,-1
24.04,21.58,-60.71,3054,-6730,3774,0,0,-1
24.04,21.58,-60.71,3039,-6731,3766,0,-1,-1
24.04,21.58,-60.71,3051,-6732,3766,0,-1,-1
24.05,21.59,-60.70,3051,-6729,3772,0,-1,-1
24.05,21.59,-60.70,3055,-6728,3778,0,-1,-1
24.04,21.59,-60.71,3048,-6728,3777,0,-1,0
24.05,21.60,-60.71,3048,-6727,3766,-1,-1,-1
24.04,21.60,-60.71,3057,-6727,3774,0,-1,0
24.05,21.61,-60.71,3057,-6743,3768,0,-1,-1
24.05,21.61,-60.70,3063,-6740,3768,0,-1,0
24.05,21.61,-60.69,3052,-6723,3777,0,-1,0
24.05,21.62,-60.68,3048,-6722,3785,0,-1,-1
24.05,21.63,-60.68,3050,-6720,3780,0,-1,-1
24.05,21.64,-60.68,3056,-6731,3780,0,-1,-1
24.05,21.65,-60.67,3072,-6731,3788,0,-1,-1
24.06,21.66,-60.66,3079,-6724,3788,0,-1,0
24.06,21.67,-60.65,3075,-6707,3790,0,-1,0
24.06,21.68,-60.64,3086,-6713,3797,0,-1,0
24.06,21.68,-60.64,3080,-6722,3794,0,-1,0
24.05,21.68,-60.65,3074,-6726,3779,0,-1,0
24.05,21.68,-60.65,3068,-6726,3786,0,-1,0
24.04,21.68,-60.65,3058,-6727,3780,0,-1,0
24.04,21.68,-60.65,3052,-6727,3770,0,-1,0
24.04,21.69,-60.64,3054,-6725,3770,0,-1,0
24.04,21.69,-60.64,3066,-6717,3783,0,-1,0
24.04,21.70,-60.63,3076,-6712,3791,0,-1,0
24.03,21.70,-60.63,3069,-6711,3774,0,-1,0
24.03,21.71,-60.63,3075,-6712,3783,0,-1,0
24.03,21.71,-60.63,3076,-6702,3787,0,-1,0
24.03,21.72,-60.63,3088,-6714,3785,0,-1,0
24.02,21.71,-60.63,3074,-6721,3780,0,-1,-1
24.02,21.72,-60.63,3081,-6719,3780,0,-1,0
24.02,21.72,-60.63,3073,-6720,3777,0,-1,0
24.02,21.72,-60.63,3073,-6723,3764,0,-1,0
24.01,21.72,-60.63,3071,-6722,3767,0,-1,0
24.01,21.73,-60.64,3072,-6727,3779,0,-1,0
24.01,21.72,-60.63,3065,-6732,3778,0,-1,0
24.01,21.73,-60.62,3079,-6719,3787,0,-1,0
24.00,21.72,-60.61,3076,-6714,3798,0,-1,0
24.00,21.72,-60.61,3072,-6711,3801,0,-1,0
24.00,21.73,-60.62,3072,-6706,3787,-1,-1,0
24.00,21.73,-60.62,3086,-6715,3767,0,-1,0
23.99,21.73,-60.61,3087,-6712,3784,0,-1,0
23.99,21.73,-60.61,3077,-6707,3794,-1,0,0
23.99,21.73,-60.62,3071,-6711,3779,-1,-1,0
23.98,21.73,-60.63,3077,-6728,3765,-1,-1,0
23.98,21.73,-60.64,3080,-6734,3765,0,-1,0
23.97,21.73,-60.63,3069,-6732,3767,0,-1,0
23.97,21.73,-60.63,3057,-6719,3780,0,-1,0
23.97,21.73,-60.63,3071,-6717,3782,0,-1,-1
23.97,21.73,-60.62,3071,-6712,3790,0,-1,0
23.97,21.74,-60.62,3085,-6716,3795,0,-1,0
23.97,21.74,-60.62,3073,-6721,3792,0,-1,0
23.97,21.74,-60.62,3086,-6720,3800,0,-1,0
23.96,21.74,-60.61,3073,-6718,3799,-1,0,-1
23.96,21.74,-60.61,3067,-6727,3780,0,-1,-1
23.96,21.74,-60.61,3079,-6719,3782,0,-1,0
23.96,21.74,-60.61,3073,-6716,3792,0,-1,0
23.95,21.73,-60.60,3060,-6706,3796,0,-1,0
23.95,21.73,-60.61,3070,-6721,3788,0,-1,0
23.94,21.74,-60.59,3076,-6710,3799,0,-1,0
23.95,21.74,-60.60,3085,-6738,3765,-1,0,-1
23.96,21.74,-60.59,3060,-6755,3728,1,0,-1
23.95,21.75,-60.55,3078,-6706,3805,1,-2,0
23.94,21.74,-60.54,3065,-6666,3867,-2,-1,0
23.95,21.76,-60.58,3094,-6695,3789,-2,-1,-1
23.94,21.76,-60.59,3116,-6712,3771,0,0,0
23.93,21.75,-60.59,3083,-6723,3779,-1,0,-1
23.93,21.74,-60.59,3073,-6733,3764,0,0,0
23.92,21.73,-60.58,3057,-6712,3813,0,-1,0
23.92,21.74,-60.60,3069,-6727,3783,-1,-1,-1
23.92,21.75,-60.60,3070,-6737,3756,0,0,-1
23.91,21.74,-60.59,3062,-6719,3773,0,-1,0
23.90,21.74,-60.57,3061,-6689,3799,0,-1,0
23.90,21.75,-60.59,3089,-6703,3802,-1,-1,0
23.90,21.75,-60.60,3097,-6717,3789,-1,-1,0
23.89,21.75,-60.59,3094,-6725,3772,0,-1,0
23.89,21.75,-60.58,3074,-6712,3795,0,-1,0
23.89,21.75,-60.58,3072,-6702,3792,0,-1,0
23.88,21.75,-60.59,3067,-6712,3789,-1,-1,0
23.88,21.76,-60.60,3077,-6727,3773,0,-1,0
23.87,21.75,-60.60,3079,-6728,3781,0,-1,0
23.86,21.75,-60.60,3083,-6725,3780,0,-1,0
23.85,21.75,-60.59,3066,-6717,3775,0,-1,0
23.84,21.74,-60.59,3067,-6726,3772,0,-1,0
23.84,21.75,-60.58,3080,-6711,3782,0,-1,0
23.83,21.75,-60.58,3077,-6708,3789,0,-1,0
23.83,21.75,-60.57,3081,-6701,3793,0,-1,0
23.83,21.75,-60.57,3075,-6708,3799,0,-1,0
23.82,21.75,-60.58,3083,-6712,3796,-1,-1,0
23.81,21.75,-60.58,3081,-6715,3798,0,-1,0
23.81,21.75,-60.58,3080,-6709,3795,-1,-1,0
23.81,21.75,-60.59,3083,-6711,3783,-1,-1,0
23.79,21.75,-60.59,3084,-6719,3778,0,-1,0
23.79,21.75,-60.60,3078,-6734,3783,-1,-1,0
23.79,21.75,-60.61,3076,-6743,3760,0,-1,0
23.78,21.75,-60.60,3063,-6728,3758,0,-1,0
23.78,21.75,-60.59,3078,-6726,3776,0,-1,0
23.77,21.75,-60.58,3072,-6711,3783,0,-1,0
23.77,21.76,-60.58,3088,-6701,3794,0,-1,0
23.77,21.76,-60.58,3086,-6698,3799,-1,-1,-1
23.78,21.76,-60.59,3097,-6704,3790,-1,0,-1
23.79,21.76,-60.61,3082,-6729,3778,-1,0,-1
23.79,21.77,-60.60,3090,-6729,3770,0,0,-1
23.80,21.77,-60.59,3071,-6721,3784,0,0,-1
23.80,21.77,-60.59,3070,-6712,3785,-1,0,-1
23.81,21.77,-60.59,3069,-6713,3790,-1,0,-1
23.82,21.78,-60.59,3081,-6718,3793,-1,0,-1
23.84,21.78,-60.60,3086,-6719,3786,-1,0,-1
23.84,21.79,-60.60,3099,-6721,3786,0,0,-1
23.85,21.79,-60.59,3094,-6706,3796,-1,0,-1
23.86,21.78,-60.59,3095,-6701,3776,-1,0,-1
23.87,21.79,-60.60,3095,-6700,3779,-1,0,-1
23.87,21.79,-60.60,3088,-6706,3772,-1,0,-1
23.87,21.78,-60.60,3081,-6716,3775,-1,0,-1
23.88,21.78,-60.60,3082,-6719,3776,-1,0,-1
23.88,21.78,-60.60,3077,-6723,3780,-1,0,-1
23.88,21.78,-60.61,3067,-6720,3766,-1,0,-1
23.89,21.78,-60.61,3070,-6728,3765,0,0,-1
23.89,21.78,-60.61,3065,-6719,3770,-1,0,-1
23.90,21.78,-60.60,3085,-6720,3781,0,0,-1
23.90,21.78,-60.60,3089,-6712,3787,-1,0,-1
23.90,21.77,-60.61,3097,-6704,3787,-1,0,0
23.90,21.76,-60.61,3087,-6711,3783,-1,0,-1
23.91,21.76,-60.61,3082,-6714,3782,-1,0,0
23.92,21.75,-60.62,3063,-6716,3790,-1,0,-1
23.92,21.75,-60.62,3075,-6719,3778,-1,0,-1
23.93,21.75,-60.63,3082,-6723,3772,-1,0,-1
23.94,21.75,-60.63,3092,-6725,3775,-1,1,0
23.93,21.73,-60.63,3068,-6723,3766,-1,1,-1
23.95,21.73,-60.63,3105,-6728,3768,0,0,0
23.95,21.71,-60.61,3084,-6719,3815,-2,1,-1
23.93,21.67,-60.63,3039,-6744,3754,-1,0,0
23.93,21.66,-60.63,3112,-6713,3745,0,0,-1
23.92,21.65,-60.62,3069,-6717,3789,-1,1,0
23.90,21.62,-60.62,3051,-6719,3770,-1,0,0
23.90,21.61,-60.63,3067,-6734,3746,0,0,0
23.90,21.60,-60.60,3074,-6727,3840,-1,0,0
23.87,21.56,-60.63,3057,-6702,3774,-1,1,0
23.88,21.55,-60.64,3032,-6727,3802,-2,0,-1
23.86,21.53,-60.68,3042,-6755,3762,-1,0,0
23.86,21.52,-60.67,3043,-6736,3767,0,0,-1
23.84,21.49,-60.64,3042,-6698,3830,0,1,1
23.83,21.47,-60.69,3003,-6752,3791,-3,-1,-2
23.83,21.48,-60.71,3030,-6758,3735,1,0,0
23.84,21.48,-60.69,3043,-6751,3791,-1,0,0
23.83,21.46,-60.69,3037,-6735,3766,-1,-1,-1
23.84,21.47,-60.70,3020,-6755,3767,-1,0,0
23.84,21.47,-60.71,3055,-6738,3765,0,0,-1
23.84,21.46,-60.70,3026,-6726,3778,-1,-1,-1
23.84,21.47,-60.71,3026,-6718,3774,-1,-1,-1
23.85,21.48,-60.73,3029,-6755,3753,-1,0,-1
23.86,21.48,-60.74,3022,-6765,3738,0,0,-1
23.87,21.50,-60.73,3057,-6742,3767,-1,-1,-1
23.87,21.50,-60.74,3031,-6711,3777,0,0,-1
23.88,21.51,-60.74,3023,-6701,3789,-1,-1,-1
23.89,21.52,-60.78,3035,-6732,3747,-1,-1,-1
23.90,21.54,-60.79,3074,-6758,3748,-1,-1,-1
23.91,21.55,-60.79,3052,-6763,3750,0,0,-1
23.91,21.55,-60.78,3035,-6753,3750,0,-1,-1
23.91,21.56,-60.77,3053,-6734,3781,0,-1,-1
23.92,21.58,-60.78,3069,-6726,3780,-1,-1,-1
23.93,21.59,-60.77,3076,-6734,3770,0,-1,-1
23.93,21.59,-60.76,3056,-6729,3773,0,-1,-1
23.93,21.60,-60.74,3063,-6734,3778,0,-1,0
23.93,21.60,-60.73,3057,-6717,3797,-1,0,0
23.92,21.58,-60.74,3022,-6731,3778,0,-1,0
23.91,21.59,-60.75,3069,-6764,3765,0,-1,0
23.90,21.58,-60.73,3050,-6720,3771,1,0,0
23.91,21.59,-60.73,3056,-6746,3744,-1,-1,0
23.89,21.58,-60.73,3055,-6733,3758,1,-1,0
23.91,21.60,-60.72,3100,-6745,3771,-1,0,-1
23.89,21.58,-60.72,3022,-6768,3730,1,0,0
23.88,21.58,-60.69,3036,-6724,3785,0,-2,0
23.88,21.59,-60.69,3064,-6678,3824,-1,-1,0
23.87,21.59,-60.71,3031,-6707,3792,-1,-2,-1
23.88,21.61,-60.73,3063,-6747,3777,-1,-1,0
23.88,21.62,-60.75,3073,-6746,3765,-1,-1,-1
23.88,21.62,-60.75,3083,-6734,3774,0,-1,0
23.87,21.61,-60.74,3045,-6708,3805,-1,-1,0
23.87,21.62,-60.77,3039,-6740,3764,-1,-1,-1
23.88,21.63,-60.78,3059,-6769,3724,0,-1,-1
23.88,21.63,-60.76,3048,-6763,3737,1,-1,0
23.87,21.64,-60.74,3045,-6736,3762,1,-1,0
23.88,21.66,-60.72,3064,-6708,3793,0,-1,0
23.88,21.67,-60.71,3061,-6718,3777,0,-1,-1
23.89,21.68,-60.70,3086,-6733,3757,0,-1,0
23.89,21.69,-60.68,3081,-6725,3769,0,-1,0
23.89,21.69,-60.67,3066,-6720,3783,0,-1,0
23.88,21.70,-60.66,3065,-6723,3808,0,-1,0
23.88,21.70,-60.66,3069,-6727,3798,-1,-1,0
23.89,21.71,-60.66,3068,-6730,3784,0,-1,0
23.88,21.71,-60.66,3074,-6728,3775,0,-1,0
23.89,21.72,-60.66,3069,-6725,3772,0,-1,0
23.88,21.72,-60.66,3074,-6729,3770,0,-1,0
23.88,21.72,-60.66,3074,-6727,3769,0,-1,0
23.88,21.73,-60.65,3077,-6725,3769,0,-1,0
23.88,21.73,-60.65,3085,-6718,3775,0,-1,0
23.88,21.74,-60.65,3082,-6722,3775,0,-1,0
23.87,21.74,-60.65,3080,-6719,3781,0,-1,0
23.87,21.74,-60.65,3081,-6717,3781,0,-1,0
23.87,21.74,-60.64,3075,-6717,3786,0,-1,0
23.86,21.74,-60.65,3076,-6729,3780,-1,-1,0
23.87,21.75,-60.65,3078,-6728,3779,0,-1,0
23.86,21.74,-60.65,3068,-6726,3773,0,-1,0
23.86,21.75,-60.65,3078,-6724,3781,0,-1,0
23.86,21.75,-60.64,3068,-6711,3791,-1,-1,0
23.86,21.75,-60.64,3075,-6710,3795,0,-1,0
23.85,21.74,-60.65,3061,-6726,3789,-1,-1,-1
23.85,21.75,-60.65,3068,-6728,3778,0,-1,0
23.85,21.75,-60.65,3064,-6726,3783,0,-1,-1
23.85,21.76,-60.64,3076,-6720,3782,0,-1,-1
23.85,21.76,-60.63,3084,-6710,3777,0,-1,-1
23.85,21.77,-60.63,3100,-6699,3777,0,-1,0
23.86,21.77,-60.62,3099,-6700,3778,0,-1,0
23.85,21.77,-60.62,3093,-6717,3784,0,-1,0
23.85,21.77,-60.63,3075,-6721,3778,0,-1,0
23.85,21.77,-60.63,3066,-6726,3771,0,0,0
23.84,21.76,-60.63,3060,-6725,3772,0,-1,0
23.84,21.77,-60.63,3069,-6721,3778,0,-1,-1
23.84,21.78,-60.62,3072,-6720,3782,0,-1,0
23.84,21.78,-60.62,3088,-6719,3778,0,-1,0
23.84,21.78,-60.62,3095,-6715,3782,0,-1,0
23.84,21.79,-60.63,3088,-6716,3777,0,-1,0
23.83,21.78,-60.62,3082,-6716,3781,0,-1,0
23.83,21.79,-60.62,3082,-6712,3780,0,-1,0
23.83,21.79,-60.61,3079,-6713,3794,0,-1,0
23.82,21.78,-60.61,3081,-6716,3796,0,-1,0
23.83,21.79,-60.61,3092,-6718,3788,0,-1,0
23.82,21.79,-60.61,3081,-6720,3788,0,-1,0
23.82,21.80,-60.61,3082,-6726,3781,0,-1,0
23.82,21.79,-60.61,3070,-6725,3775,0,-1,0
23.81,21.79,-60.61,3070,-6727,3780,0,-1,0
23.81,21.79,-60.60,3071,-6714,3778,0,-1,-1
23.81,21.80,-60.60,3077,-6708,3781,0,-1,0
23.80,21.80,-60.60,3076,-6710,3772,0,-1,-1
23.81,21.81,-60.59,3088,-6710,3778,0,-1,0
23.81,21.81,-60.59,3083,-6711,3790,0,-1,-1
23.81,21.81,-60.59,3085,-6708,3784,-1,-1,-1
23.81,21.81,-60.59,3093,-6702,3788,0,-1,0
23.80,21.81,-60.59,3076,-6706,3795,-1,-1,0
23.80,21.81,-60.60,3077,-6719,3780,-1,-1,0
23.80,21.81,-60.60,3078,-6725,3772,0,-1,0
23.79,21.81,-60.59,3077,-6719,3781,0,-1,0
23.79,21.81,-60.58,3076,-6714,3793,0,-1,0
23.78,21.81,-60.58,3076,-6710,3794,-1,-1,0
23.77,21.80,-60.59,3079,-6717,3777,-1,-1,0
23.77,21.81,-60.60,3092,-6723,3758,0,-1,0
23.75,21.80,-60.59,3094,-6714,3776,0,-1,0
23.74,21.79,-60.59,3084,-6700,3785,0,-1,0
23.73,21.78,-60.59,3083,-6699,3799,-1,-1,0
23.72,21.77,-60.62,3081,-6720,3771,-1,0,0
23.71,21.77,-60.63,3073,-6725,3761,0,0,0
23.70,21.75,-60.64,3080,-6734,3765,-1,-1,0
23.68,21.74,-60.64,3085,-6704,3794,-1,0,0
23.67,21.73,-60.66,3063,-6735,3783,-1,-1,0
23.65,21.72,-60.68,3061,-6742,3735,0,-1,0
23.64,21.72,-60.66,3085,-6718,3771,1,-1,0
23.63,21.70,-60.64,3031,-6686,3839,-2,1,0
23.65,21.70,-60.68,3082,-6715,3784,-2,0,-1
23.66,21.70,-60.69,3120,-6744,3758,0,1,0
23.66,21.68,-60.69,3069,-6729,3773,-1,0,-1
23.65,21.67,-60.70,3093,-6721,3756,0,1,0
23.65,21.65,-60.69,3052,-6709,3799,-2,0,-1
23.65,21.64,-60.70,3055,-6736,3799,-1,0,-1
23.66,21.62,-60.72,3036,-6745,3761,-1,2,0
23.66,21.61,-60.72,3054,-6738,3784,-1,-1,0
23.65,21.59,-60.73,3033,-6741,3800,-2,1,0
23.67,21.60,-60.76,3077,-6752,3735,0,0,-1
23.65,21.57,-60.74,3031,-6749,3768,0,0,0
23.66,21.58,-60.75,3085,-6729,3758,-1,1,-1
23.65,21.56,-60.73,3052,-6725,3789,-1,0,0
23.64,21.54,-60.74,3001,-6731,3785,-1,0,0
23.67,21.56,-60.77,3132,-6745,3735,-1,1,-1
23.64,21.51,-60.73,2972,-6710,3804,-1,0,0
23.66,21.53,-60.76,3113,-6731,3765,0,1,0
23.63,21.49,-60.76,2998,-6716,3794,-3,-1,-1
23.62,21.48,-60.80,3041,-6753,3772,-1,0,0
23.64,21.50,-60.82,3082,-6745,3751,-1,0,-1
23.62,21.46,-60.81,2991,-6740,3787,-2,0,0
23.62,21.46,-60.85,3029,-6761,3742,0,-1,-1
23.63,21.47,-60.86,3029,-6771,3750,-1,0,-1
23.63,21.47,-60.85,2995,-6764,3755,-1,-1,-1
23.65,21.48,-60.85,3044,-6776,3739,0,0,-1
23.65,21.49,-60.83,3015,-6710,3784,-1,-1,-1
23.68,21.51,-60.84,3040,-6741,3745,-1,0,-1
23.68,21.51,-60.84,3041,-6747,3760,-1,-1,-1
23.69,21.52,-60.84,3061,-6747,3785,0,0,-1
23.71,21.53,-60.85,3040,-6747,3747,-1,0,-1
23.72,21.54,-60.85,3068,-6748,3757,0,0,-1
23.74,21.55,-60.85,3051,-6751,3768,-1,0,-1
23.75,21.56,-60.85,3039,-6748,3739,0,0,-1
23.76,21.57,-60.84,3041,-6734,3762,-1,-1,-1
23.78,21.58,-60.86,3051,-6758,3761,-1,-1,-1
23.79,21.60,-60.86,3067,-6770,3750,0,0,-1
23.80,21.60,-60.84,3072,-6760,3745,0,0,-1
23.81,21.60,-60.82,3072,-6734,3768,0,0,-1
23.82,21.60,-60.81,3048,-6736,3764,0,0,-1
23.82,21.60,-60.80,3055,-6728,3769,0,0,-1
23.83,21.61,-60.78,3065,-6727,3783,-1,0,-1
23.84,21.61,-60.78,3063,-6721,3783,-1,0,-1
23.83,21.60,-60.78,3050,-6722,3779,-1,0,-1
23.84,21.61,-60.79,3053,-6736,3764,-1,0,-1
23.84,21.61,-60.80,3042,-6744,3754,-1,0,-1
23.84,21.60,-60.81,3057,-6755,3752,-1,0,0
23.84,21.60,-60.80,3047,-6749,3760,0,0,-1
23.84,21.60,-60.80,3050,-6749,3760,0,0,-1
23.84,21.60,-60.79,3050,-6741,3749,0,0,-1
23.84,21.60,-60.79,3063,-6739,3755,0,0,-1
23.85,21.60,-60.79,3064,-6724,3756,0,0,0
23.85,21.60,-60.79,3067,-6738,3764,-1,-1,0
23.84,21.60,-60.79,3064,-6744,3757,-1,0,-1
23.84,21.60,-60.79,3058,-6742,3749,0,0,0
23.84,21.59,-60.79,3040,-6745,3746,0,0,-1
23.84,21.59,-60.79,3037,-6734,3759,0,-1,-1
23.84,21.59,-60.78,3037,-6731,3766,0,-1,-1
23.84,21.59,-60.78,3044,-6736,3769,0,-1,-1
23.85,21.60,-60.77,3041,-6737,3771,0,-1,-1
23.84,21.60,-60.77,3037,-6733,3767,0,-1,-1
23.85,21.61,-60.77,3044,-6725,3762,0,-1,-1
23.85,21.62,-60.77,3058,-6721,3772,0,-1,0
23.85,21.62,-60.77,3060,-6734,3770,-1,-1,-1
23.85,21.63,-60.78,3060,-6747,3757,0,-1,0
23.86,21.63,-60.77,3051,-6737,3768,0,-1,-1
23.85,21.63,-60.77,3050,-6743,3763,0,-1,-1
23.85,21.64,-60.76,3057,-6740,3761,0,-1,0
23.85,21.65,-60.76,3064,-6742,3760,0,-1,-1
23.86,21.66,-60.76,3071,-6749,3761,0,-1,-1
23.86,21.67,-60.75,3064,-6747,3772,0,-1,0
23.86,21.67,-60.74,3058,-6734,3769,0,-1,0
23.86,21.68,-60.73,3057,-6724,3769,0,-1,0
23.85,21.68,-60.72,3056,-6720,3774,0,-1,-1
23.85,21.69,-60.72,3067,-6722,3776,0,-1,0
23.85,21.70,-60.72,3075,-6724,3768,0,-1,0
23.86,21.71,-60.72,3076,-6726,3766,0,-1,0
23.85,21.70,-60.71,3071,-6721,3772,0,-1,0
23.84,21.71,-60.72,3072,-6722,3783,-1,-1,0
23.84,21.71,-60.72,3075,-6733,3774,0,-1,0
23.84,21.71,-60.72,3057,-6734,3764,0,-1,0
23.83,21.71,-60.72,3062,-6732,3759,0,-1,0
23.83,21.72,-60.71,3074,-6730,3761,0,-1,0
23.82,21.72,-60.72,3066,-6723,3765,0,-1,0
23.83,21.72,-60.72,3080,-6731,3759,0,-1,-1
23.82,21.72,-60.71,3073,-6718,3766,0,-1,0
23.83,21.73,-60.70,3075,-6716,3764,0,-1,0
23.82,21.73,-60.70,3073,-6712,3769,0,-1,0
23.82,21.74,-60.69,3070,-6720,3786,-1,-1,0
23.82,21.74,-60.69,3073,-6724,3775,0,-1,0
23.81,21.74,-60.69,3072,-6725,3777,0,-1,0
23.81,21.74,-60.70,3073,-6727,3779,0,-1,0
23.81,21.74,-60.69,3075,-6730,3776,-1,-1,0
23.81,21.74,-60.69,3080,-6732,3764,0,-1,0
23.80,21.74,-60.69,3069,-6724,3765,0,-1,0
23.80,21.74,-60.69,3067,-6718,3775,0,-1,0
23.80,21.74,-60.69,3061,-6720,3784,-1,-1,0
23.80,21.75,-60.69,3063,-6727,3785,0,-1,0
23.79,21.75,-60.68,3074,-6717,3778,0,-1,0
23.79,21.75,-60.67,3075,-6707,3790,0,-1,0
23.79,21.75,-60.67,3087,-6718,3788,-1,-1,0
23.79,21.76,-60.67,3096,-6724,3774,0,-1,-1
23.79,21.76,-60.67,3090,-6716,3769,0,0,0
23.80,21.77,-60.67,3098,-6715,3783,0,-1,0
23.79,21.77,-60.67,3088,-6717,3784,-1,-1,0
23.79,21.76,-60.67,3088,-6723,3777,0,0,0
23.77,21.76,-60.68,3059,-6734,3766,-1,-1,-1
23.78,21.76,-60.68,3068,-6744,3765,0,-1,0
23.78,21.77,-60.67,3070,-6735,3762,0,-1,-1
23.78,21.77,-60.67,3071,-6719,3765,0,-1,0
23.77,21.77,-60.66,3081,-6715,3783,0,-1,0
23.77,21.78,-60.66,3085,-6713,3780,-1,-1,0
23.78,21.78,-60.66,3084,-6722,3770,0,-1,0
23.77,21.78,-60.66,3089,-6717,3773,0,-1,0
23.77,21.78,-60.66,3081,-6711,3781,0,-1,0
23.77,21.78,-60.66,3078,-6722,3780,0,0,0
23.77,21.78,-60.66,3076,-6723,3770,-1,-1,0
23.76,21.78,-60.66,3074,-6725,3764,0,-1,0
23.76,21.78,-60.67,3077,-6724,3766,0,-1,0
23.76,21.78,-60.67,3080,-6726,3775,0,-1,0
23.75,21.78,-60.67,3076,-6729,3771,0,-1,0
23.75,21.78,-60.66,3071,-6727,3766,0,-1,-1
23.76,21.79,-60.65,3074,-6718,3761,0,-1,-1
23.76,21.79,-60.64,3071,-6708,3766,0,-1,-1
23.75,21.79,-60.64,3078,-6711,3774,0,-1,0
23.75,21.80,-60.64,3087,-6712,3778,0,-1,0
23.75,21.80,-60.64,3088,-6710,3774,0,-1,0
23.75,21.80,-60.64,3090,-6713,3779,-1,-1,0
23.75,21.81,-60.64,3092,-6708,3771,0,-1,0
23.74,21.80,-60.65,3066,-6706,3779,-1,-1,0
23.74,21.80,-60.66,3073,-6723,3775,-1,-1,0
23.74,21.80,-60.67,3079,-6733,3765,-1,-1,-1
23.73,21.80,-60.67,3078,-6738,3764,0,0,0
23.73,21.80,-60.67,3090,-6736,3748,0,-1,0
23.73,21.80,-60.66,3082,-6722,3765,0,-1,0
23.72,21.81,-60.65,3083,-6719,3774,0,-1,0
23.72,21.81,-60.65,3080,-6723,3769,0,-1,0
23.71,21.81,-60.64,3089,-6728,3785,0,-1,0
23.71,21.81,-60.64,3096,-6712,3789,0,-1,0
23.70,21.80,-60.63,3087,-6711,3784,-1,-1,0
23.69,21.80,-60.64,3092,-6706,3781,0,-1,0
23.69,21.80,-60.63,3081,-6711,3795,0,-1,0
23.68,21.80,-60.63,3089,-6714,3788,0,-1,0
23.68,21.80,-60.64,3089,-6720,3773,-1,-1,0
23.67,21.79,-60.66,3090,-6735,3763,0,-1,0
23.66,21.79,-60.65,3085,-6732,3762,0,-1,0
23.65,21.78,-60.64,3068,-6720,3767,0,-1,0
23.64,21.78,-60.64,3082,-6714,3769,0,-1,0
23.63,21.78,-60.64,3078,-6707,3776,0,-1,0
23.62,21.77,-60.63,3062,-6709,3791,0,-1,0
23.61,21.78,-60.63,3070,-6702,3779,-1,-1,0
23.61,21.78,-60.64,3083,-6707,3779,0,-1,0
23.61,21.78,-60.65,3104,-6713,3782,0,-1,0
23.60,21.79,-60.65,3092,-6717,3766,0,-1,0
23.60,21.78,-60.66,3091,-6715,3752,0,-1,0
23.59,21.78,-60.65,3094,-6711,3773,0,-1,0
23.59,21.79,-60.67,3097,-6723,3777,-1,-1,0
23.57,21.77,-60.68,3081,-6736,3770,-1,-1,0
23.56,21.77,-60.68,3066,-6747,3771,0,-1,0
23.55,21.76,-60.67,3058,-6724,3777,0,-1,0
23.55,21.76,-60.67,3056,-6715,3789,-1,-1,-1
23.55,21.76,-60.67,3067,-6712,3781,-1,-1,-1
23.56,21.77,-60.68,3082,-6723,3779,0,-1,-1
23.57,21.78,-60.67,3101,-6715,3787,0,0,-1
23.58,21.78,-60.66,3086,-6704,3795,-1,0,-1
23.58,21.78,-60.66,3080,-6704,3792,-1,0,-1
23.58,21.78,-60.68,3080,-6719,3779,-1,0,-1
23.60,21.78,-60.67,3067,-6710,3776,-1,0,-1
23.60,21.78,-60.67,3069,-6709,3781,-1,0,-1
23.61,21.79,-60.67,3083,-6716,3788,-1,0,-1
23.62,21.79,-60.68,3082,-6719,3782,-1,0,-1
23.62,21.79,-60.69,3084,-6728,3771,-1,0,-1
23.62,21.79,-60.69,3088,-6728,3764,-1,0,-1
23.63,21.79,-60.69,3079,-6728,3758,-1,0,-1
23.63,21.78,-60.69,3073,-6725,3760,0,0,-1
23.65,21.79,-60.68,3074,-6724,3768,0,0,-1
23.66,21.80,-60.68,3076,-6720,3763,-1,0,-1
23.66,21.80,-60.68,3090,-6718,3762,-1,0,-1
23.67,21.80,-60.68,3087,-6706,3774,-1,0,0
23.67,21.80,-60.68,3106,-6699,3784,-1,0,-1
23.67,21.79,-60.69,3082,-6707,3782,-1,0,0
23.67,21.79,-60.70,3096,-6723,3773,-1,0,-1
23.67,21.78,-60.70,3069,-6732,3771,-1,0,-1
23.67,21.78,-60.71,3066,-6731,3758,-1,0,-1
23.67,21.77,-60.71,3068,-6731,3764,-1,0,-1
23.68,21.77,-60.70,3065,-6723,3760,-1,0,-1
23.68,21.77,-60.71,3073,-6735,3749,-1,0,-1
23.69,21.77,-60.70,3087,-6728,3760,0,0,-1
23.69,21.76,-60.69,3080,-6709,3785,0,0,-1
23.69,21.76,-60.69,3076,-6708,3788,-1,0,-1
23.70,21.76,-60.70,3069,-6710,3781,-1,0,-1
23.70,21.75,-60.71,3084,-6722,3767,-1,0,-1
23.71,21.76,-60.71,3087,-6726,3772,-1,0,-1
23.71,21.75,-60.71,3079,-6732,3776,-1,0,0
23.70,21.74,-60.72,3073,-6732,3770,-1,0,-1
23.70,21.73,-60.72,3067,-6734,3782,-1,0,-1
23.70,21.73,-60.72,3066,-6734,3785,-1,0,-1
23.71,21.73,-60.72,3076,-6734,3764,0,0,-1
23.71,21.73,-60.71,3059,-6720,3770,-1,-1,0
23.71,21.73,-60.71,3084,-6716,3770,0,0,0
23.71,21.72,-60.72,3075,-6722,3786,-1,0,0
23.69,21.70,-60.72,3056,-6725,3790,-1,0,0
23.69,21.69,-60.73,3062,-6735,3785,-1,0,-1
23.70,21.70,-60.73,3058,-6734,3770,-1,0,-1
23.71,21.70,-60.72,3066,-6725,3761,0,0,-1
23.72,21.70,-60.71,3071,-6714,3776,-1,0,-1
23.72,21.69,-60.72,3086,-6716,3781,-1,0,-1
23.72,21.68,-60.73,3087,-6735,3766,-1,0,0
23.72,21.67,-60.74,3064,-6744,3771,-1,0,0
23.72,21.66,-60.73,3047,-6738,3782,-1,0,0
23.71,21.64,-60.73,3037,-6732,3787,-1,0,-1
23.71,21.63,-60.74,3033,-6740,3755,-1,0,-1
23.71,21.63,-60.74,3033,-6734,3753,0,0,-1
23.72,21.64,-60.74,3054,-6741,3768,-1,0,-1
23.72,21.63,-60.73,3054,-6730,3771,0,0,0
23.72,21.63,-60.74,3040,-6734,3767,-1,-1,0
23.72,21.64,-60.74,3104,-6721,3780,0,0,0
23.73,21.64,-60.73,3069,-6722,3798,-2,0,-1
23.72,21.63,-60.75,3042,-6756,3726,0,0,0
23.71,21.63,-60.73,3063,-6702,3794,-1,-1,0
23.71,21.63,-60.74,3058,-6722,3782,-1,-1,-1
23.70,21.63,-60.75,3057,-6737,3762,0,-1,0
23.71,21.64,-60.76,3070,-6754,3771,-1,-1,-1
23.70,21.63,-60.75,3046,-6750,3760,0,-1,0
23.70,21.64,-60.75,3049,-6734,3766,0,-1,0
23.70,21.64,-60.75,3054,-6732,3759,-1,-1,0
23.70,21.64,-60.75,3059,-6740,3749,0,-1,-1
23.71,21.65,-60.75,3052,-6743,3751,0,-1,-1
23.71,21.66,-60.73,3060,-6728,3767,0,-1,-1
23.71,21.67,-60.72,3066,-6721,3775,0,-1,0
23.71,21.68,-60.73,3067,-6734,3772,0,-1,0
23.70,21.68,-60.73,3073,-6736,3760,0,-1,0
23.70,21.68,-60.72,3076,-6729,3766,0,-1,0
23.70,21.69,-60.72,3065,-6731,3769,0,-1,0
23.69,21.69,-60.73,3061,-6721,3771,0,-1,0
23.69,21.70,-60.72,3061,-6726,3769,0,-1,0
23.69,21.70,-60.72,3061,-6733,3764,0,-1,-1
23.69,21.71,-60.72,3056,-6729,3773,0,-1,0
23.68,21.71,-60.71,3063,-6720,3774,0,-1,0
23.69,21.72,-60.69,3083,-6715,3786,0,-1,0
23.68,21.72,-60.70,3066,-6722,3777,-1,-1,-1
23.68,21.72,-60.70,3081,-6737,3769,0,-1,0
23.68,21.73,-60.70,3073,-6728,3763,0,-1,-1
23.68,21.73,-60.69,3077,-6726,3761,0,-1,0
23.68,21.73,-60.69,3069,-6724,3776,0,-1,0
23.67,21.73,-60.68,3064,-6722,3777,0,-1,0
23.67,21.73,-60.70,3062,-6733,3765,-1,-1,0
23.66,21.73,-60.70,3074,-6737,3772,0,-1,0
23.66,21.73,-60.69,3070,-6726,3771,0,-1,0
23.66,21.74,-60.69,3078,-6720,3779,0,-1,0
23.65,21.74,-60.68,3080,-6715,3784,0,-1,0
23.66,21.74,-60.68,3084,-6716,3774,0,-1,0
23.66,21.75,-60.69,3088,-6714,3767,0,-1,0
23.65,21.75,-60.69,3086,-6724,3768,0,-1,0
23.65,21.74,-60.69,3077,-6723,3759,0,-1,0
23.64,21.74,-60.69,3072,-6723,3757,0,-1,0
23.62,21.73,-60.69,3088,-6689,3769,0,-1,2
23.57,21.68,-60.67,2953,-6641,3859,-2,-2,-2
23.65,21.77,-60.78,3131,-6811,3777,-3,0,-2
23.67,21.77,-60.79,3081,-6837,3657,1,0,-2
23.67,21.77,-60.71,3101,-6770,3682,3,1,1
23.64,21.74,-60.63,3052,-6653,3816,0,-2,0
23.63,21.75,-60.65,3073,-6658,3862,-2,-1,0
23.64,21.76,-60.69,3088,-6717,3790,-1,-1,-1
23.63,21.75,-60.69,3070,-6742,3753,0,0,0
23.62,21.75,-60.68,3066,-6743,3769,0,-1,0
23.63,21.76,-60.68,3077,-6733,3767,0,-1,0
23.62,21.75,-60.68,3068,-6717,3768,0,0,0
23.63,21.76,-60.68,3067,-6713,3756,-1,-1,-1
23.63,21.77,-60.69,3068,-6734,3750,0,-1,-1
23.63,21.77,-60.68,3096,-6738,3768,0,-1,0
23.62,21.77,-60.66,3091,-6736,3787,0,-1,0
23.62,21.76,-60.66,3079,-6719,3786,0,-1,0
23.62,21.77,-60.66,3070,-6709,3772,0,-1,0
23.61,21.77,-60.65,3073,-6704,3781,0,-1,0
23.62,21.77,-60.65,3084,-6712,3788,0,-1,-1
23.62,21.78,-60.65,3093,-6721,3785,-1,-1,0
23.62,21.78,-60.66,3098,-6721,3770,-1,0,0
23.61,21.78,-60.66,3088,-6732,3771,-1,-1,0
23.61,21.78,-60.66,3082,-6726,3769,0,-1,0
23.60,21.78,-60.66,3071,-6723,3774,0,-1,0
23.61,21.78,-60.66,3086,-6725,3795,0,-1,0
23.60,21.78,-60.66,3078,-6729,3789,-1,-1,0
23.60,21.79,-60.66,3094,-6727,3775,0,-1,0
23.60,21.78,-60.66,3076,-6725,3772,-1,-1,-1
23.60,21.78,-60.66,3086,-6723,3766,0,-1,0
23.60,21.79,-60.66,3074,-6717,3765,0,-1,-1
23.60,21.80,-60.65,3076,-6722,3761,0,-1,-1
23.60,21.80,-60.65,3083,-6719,3768,0,-1,0
23.60,21.80,-60.64,3086,-6710,3777,0,-1,0
23.60,21.80,-60.63,3081,-6704,3794,0,-1,0
23.59,21.80,-60.63,3086,-6705,3789,0,-1,0
23.59,21.81,-60.63,3085,-6711,3774,0,-1,0
23.59,21.81,-60.64,3095,-6715,3768,0,-1,0
23.58,21.80,-60.64,3082,-6709,3769,0,-1,0
23.58,21.81,-60.64,3092,-6706,3770,0,-1,0
23.58,21.81,-60.63,3090,-6711,3776,0,-1,0
23.58,21.82,-60.64,3089,-6717,3775,-1,-1,0
23.58,21.82,-60.64,3101,-6712,3765,0,-1,0
23.57,21.82,-60.63,3091,-6719,3772,0,-1,0
23.56,21.81,-60.64,3084,-6717,3763,0,-1,0
23.56,21.81,-60.64,3077,-6722,3778,0,-1,0
23.56,21.81,-60.63,3089,-6719,3771,0,-1,0
23.55,21.82,-60.63,3093,-6710,3777,0,-1,0
23.55,21.81,-60.62,3084,-6709,3781,0,-1,0
23.55,21.82,-60.62,3089,-6711,3777,0,-1,0
23.54,21.81,-60.63,3082,-6707,3766,0,-1,0
23.53,21.82,-60.62,3097,-6706,3774,0,-1,0
23.53,21.82,-60.62,3089,-6699,3792,-1,-1,0
23.52,21.82,-60.63,3090,-6705,3795,-1,-1,0
23.52,21.82,-60.64,3095,-6720,3786,-1,-1,0
23.52,21.81,-60.64,3087,-6717,3771,0,-1,0
23.52,21.81,-60.64,3078,-6719,3763,0,-1,0
23.52,21.82,-60.64,3084,-6722,3759,0,-1,0
23.51,21.81,-60.65,3078,-6728,3773,0,-1,0
23.51,21.81,-60.65,3083,-6733,3771,0,-1,0
23.51,21.82,-60.64,3078,-6732,3762,0,-1,0
23.50,21.82,-60.63,3080,-6723,3760,0,-1,0
23.50,21.82,-60.62,3081,-6701,3778,0,-1,0
23.50,21.82,-60.61,3082,-6694,3791,-1,-1,0
23.50,21.82,-60.63,3090,-6692,3777,-1,-1,-1
23.51,21.83,-60.64,3107,-6713,3764,-1,0,0
23.51,21.83,-60.64,3100,-6712,3778,-1,0,0
23.50,21.82,-60.64,3083,-6722,3772,-1,0,-1
23.51,21.82,-60.66,3085,-6724,3779,-1,0,-1
23.52,21.82,-60.66,3083,-6726,3766,-1,0,-1
23.53,21.83,-60.65,3081,-6721,3769,0,0,-1
23.53,21.83,-60.65,3082,-6720,3774,0,0,-1
23.53,21.83,-60.65,3092,-6719,3781,-1,0,-1
23.54,21.83,-60.64,3083,-6712,3778,-1,0,-1
23.55,21.83,-60.64,3091,-6713,3778,-1,-1,-1
23.54,21.82,-60.64,3073,-6707,3781,-1,0,-1
23.55,21.83,-60.65,3089,-6710,3785,-1,0,0
23.55,21.82,-60.65,3078,-6720,3787,-1,0,-1
23.55,21.82,-60.66,3096,-6731,3765,-1,0,-1
23.56,21.82,-60.66,3091,-6728,3766,-1,0,-1
23.57,21.82,-60.66,3088,-6726,3772,-1,0,-1
23.57,21.81,-60.66,3087,-6720,3776,-1,0,-1
23.57,21.81,-60.66,3080,-6725,3771,-1,0,-1
23.57,21.80,-60.67,3077,-6732,3766,-1,0,-1
23.58,21.81,-60.66,3081,-6726,3769,0,0,0
23.58,21.80,-60.66,3083,-6715,3777,-1,0,-1
23.58,21.80,-60.66,3087,-6719,3776,-1,0,-1
23.59,21.80,-60.66,3087,-6718,3769,-1,0,-1
23.60,21.81,-60.67,3096,-6719,3769,-1,0,-1
23.60,21.80,-60.67,3096,-6723,3775,-1,0,-1
23.60,21.80,-60.68,3088,-6727,3774,-1,0,0
23.59,21.79,-60.68,3082,-6735,3767,-1,0,0
23.59,21.77,-60.69,3060,-6735,3758,-1,0,-1
23.59,21.77,-60.70,3062,-6727,3758,-1,0,0
23.59,21.77,-60.69,3065,-6729,3773,-1,0,-1
23.60,21.77,-60.69,3075,-6728,3770,-1,0,-1
23.60,21.77,-60.70,3078,-6730,3767,-1,0,-1
23.60,21.76,-60.69,3084,-6723,3778,-1,0,0
23.61,21.76,-60.69,3085,-6715,3770,-1,0,0
23.60,21.75,-60.70,3069,-6723,3785,-1,0,0
23.61,21.75,-60.70,3076,-6724,3784,-1,0,0
23.61,21.74,-60.70,3059,-6725,3776,-1,0,-1
23.60,21.73,-60.71,3068,-6731,3772,-1,0,0
23.60,21.72,-60.71,3057,-6729,3770,-1,0,-1
23.60,21.72,-60.72,3073,-6728,3771,-1,0,-1
23.61,21.72,-60.72,3067,-6729,3767,-1,0,0
23.61,21.71,-60.73,3074,-6738,3771,-1,0,-1
23.61,21.70,-60.74,3072,-6734,3767,-1,0,0
23.61,21.69,-60.73,3073,-6731,3768,-1,0,-1
23.61,21.68,-60.72,3060,-6724,3768,0,0,-1
23.62,21.68,-60.72,3062,-6726,3765,-1,0,0
23.62,21.68,-60.72,3068,-6717,3766,-1,0,-1
23.62,21.67,-60.73,3070,-6727,3781,-1,0,-1
23.61,21.66,-60.74,3066,-6729,3761,-1,0,0
23.62,21.66,-60.74,3071,-6729,3754,-1,0,0
23.62,21.66,-60.75,3075,-6736,3756,-1,0,0
23.61,21.66,-60.76,3063,-6747,3757,-1,0,0
23.61,21.66,-60.76,3058,-6741,3764,0,-1,0
23.61,21.65,-60.77,3060,-6738,3764,-1,-1,-1
23.61,21.66,-60.78,3061,-6747,3748,-1,-1,0
23.62,21.67,-60.78,3068,-6757,3742,0,-1,-1
23.62,21.67,-60.77,3060,-6744,3757,0,-1,-1
23.62,21.67,-60.76,3056,-6735,3763,0,-1,-1
23.62,21.68,-60.76,3054,-6727,3764,0,-1,-1
23.61,21.68,-60.76,3054,-6728,3758,0,-1,-1
23.62,21.69,-60.76,3058,-6732,3764,0,-1,0
23.62,21.70,-60.75,3069,-6734,3758,0,-1,-1
23.62,21.71,-60.74,3080,-6729,3761,0,-1,0
23.62,21.71,-60.74,3078,-6723,3766,0,-1,0
23.62,21.71,-60.74,3072,-6726,3769,0,-1,0
23.61,21.71,-60.73,3063,-6721,3775,0,-1,0
23.61,21.72,-60.74,3060,-6720,3761,0,-1,0
23.61,21.72,-60.74,3068,-6727,3758,0,-1,0
23.61,21.73,-60.74,3070,-6729,3769,0,-1,0
23.61,21.73,-60.73,3075,-6723,3769,0,-1,0
23.61,21.74,-60.73,3086,-6718,3778,0,-1,0
23.61,21.75,-60.72,3085,-6717,3774,0,-1,0
23.61,21.75,-60.71,3085,-6715,3780,0,-1,0
23.61,21.75,-60.72,3087,-6716,3776,0,-1,0
23.60,21.75,-60.71,3071,-6720,3780,0,-1,0
23.59,21.75,-60.72,3071,-6727,3772,0,-1,0
23.59,21.75,-60.72,3067,-6722,3769,0,-1,0
23.59,21.75,-60.72,3051,-6725,3769,-1,-1,0
23.59,21.76,-60.72,3078,-6730,3768,0,-1,0
23.58,21.76,-60.71,3073,-6727,3779,0,-1,0
23.58,21.76,-60.71,3073,-6727,3764,0,-1,0
23.58,21.77,-60.71,3082,-6721,3763,0,-1,-1
23.59,21.77,-60.71,3090,-6718,3761,0,-1,0
23.58,21.77,-60.70,3084,-6720,3768,0,-1,0
23.58,21.78,-60.70,3084,-6727,3777,0,-1,0
23.57,21.77,-60.70,3084,-6720,3785,0,-1,0
23.58,21.78,-60.71,3081,-6717,3777,-1,-1,0
23.57,21.78,-60.71,3081,-6719,3766,0,-1,0
23.57,21.77,-60.71,3072,-6717,3768,0,-1,0
23.57,21.77,-60.71,3078,-6725,3771,0,-1,0
23.57,21.77,-60.71,3075,-6726,3765,0,-1,0
23.56,21.78,-60.71,3077,-6725,3774,0,-1,0
23.56,21.78,-60.70,3069,-6721,3769,0,-1,0
23.55,21.77,-60.69,3070,-6714,3771,0,-1,0
23.55,21.78,-60.69,3072,-6717,3777,0,-1,0
23.56,21.78,-60.69,3087,-6720,3775,0,-1,0
23.55,21.78,-60.69,3083,-6710,3775,0,-1,0
23.55,21.79,-60.68,3093,-6703,3787,-1,-1,0
23.55,21.79,-60.69,3084,-6705,3783,-1,-1,0
23.55,21.79,-60.69,3098,-6714,3782,0,-1,0
23.54,21.78,-60.69,3080,-6720,3773,-1,-1,-1
23.54,21.79,-60.70,3091,-6726,3764,0,-1,0
23.54,21.79,-60.69,3071,-6726,3768,-1,-1,-1
23.54,21.78,-60.69,3073,-6732,3766,0,-1,0
23.54,21.79,-60.69,3073,-6740,3770,0,-1,-1
23.54,21.79,-60.68,3082,-6727,3774,0,-1,0
23.54,21.79,-60.67,3085,-6718,3784,0,-1,0
23.54,21.80,-60.67,3091,-6715,3785,0,-1,0
23.53,21.79,-60.67,3086,-6714,3783,0,-1,0
23.53,21.79,-60.67,3090,-6726,3776,0,0,0
23.54,21.80,-60.67,3081,-6721,3775,0,-1,0
23.53,21.80,-60.67,3076,-6722,3775,0,-1,0
23.53,21.79,-60.67,3076,-6719,3774,0,-1,0
23.53,21.79,-60.67,3070,-6716,3764,-1,-1,0
23.52,21.80,-60.68,3070,-6723,3756,0,-1,0
23.52,21.79,-60.68,3074,-6730,3757,0,-1,0
23.51,21.80,-60.68,3077,-6722,3760,0,-1,-1
23.52,21.81,-60.67,3086,-6717,3765,0,-1,-1
23.52,21.81,-60.67,3094,-6709,3763,0,-1,0
23.52,21.81,-60.67,3096,-6715,3773,0,-1,0
23.52,21.81,-60.66,3088,-6704,3781,0,-1,0
23.52,21.82,-60.66,3086,-6710,3782,-1,-1,0
23.51,21.81,-60.67,3081,-6719,3777,-1,-1,0
23.51,21.81,-60.67,3073,-6727,3775,0,-1,0
23.50,21.80,-60.66,3062,-6720,3776,0,-1,0
23.51,21.81,-60.66,3071,-6723,3777,0,-1,0
23.50,21.81,-60.67,3078,-6721,3772,0,-1,-1
23.50,21.82,-60.66,3098,-6714,3772,0,-1,0
23.49,21.81,-60.66,3088,-6712,3781,-1,-1,-1
23.50,21.82,-60.66,3106,-6723,3766,0,-1,0
23.50,21.82,-60.66,3081,-6724,3765,0,-1,-1
23.49,21.82,-60.65,3087,-6719,3767,0,-1,0
23.49,21.83,-60.64,3082,-6706,3781,0,-1,0
23.49,21.83,-60.64,3085,-6706,3788,-1,-1,0
23.49,21.84,-60.64,3093,-6716,3766,0,-1,0
23.48,21.84,-60.65,3094,-6721,3756,0,-1,0
23.48,21.83,-60.65,3098,-6715,3774,0,0,0
23.46,21.82,-60.65,3086,-6711,3774,-1,-1,0
23.45,21.81,-60.66,3079,-6717,3777,0,-1,0
23.44,21.81,-60.66,3079,-6723,3783,-1,-1,0
23.44,21.80,-60.67,3095,-6734,3770,0,0,0
23.42,21.79,-60.67,3075,-6735,3769,0,-1,0
23.42,21.79,-60.65,3073,-6720,3776,0,-1,0
23.41,21.79,-60.65,3082,-6707,3800,0,-1,0
23.40,21.78,-60.66,3079,-6717,3783,-1,-1,0
23.38,21.78,-60.66,3079,-6724,3757,0,-1,0
23.37,21.78,-60.65,3080,-6706,3775,0,-1,0
23.37,21.78,-60.65,3090,-6698,3811,-1,-1,0
23.36,21.77,-60.65,3074,-6703,3804,-1,0,0
23.35,21.76,-60.67,3070,-6712,3777,-1,-1,0
23.34,21.76,-60.69,3074,-6714,3780,0,-1,0
23.33,21.76,-60.70,3059,-6720,3766,-1,-1,0
23.32,21.75,-60.70,3070,-6727,3771,0,-1,0
23.32,21.75,-60.70,3065,-6736,3782,-1,-1,-1
23.34,21.76,-60.70,3090,-6743,3776,-1,0,-1
23.34,21.76,-60.70,3064,-6743,3758,0,0,-1
23.35,21.77,-60.70,3074,-6741,3746,0,-1,-1
23.36,21.78,-60.68,3078,-6727,3768,0,-1,-1
23.37,21.79,-60.67,3085,-6712,3784,-1,0,-1
23.38,21.80,-60.67,3084,-6712,3775,-1,0,-1
23.39,21.80,-60.67,3101,-6716,3776,0,-1,-1
23.40,21.80,-60.66,3093,-6709,3784,-1,0,-1
23.40,21.80,-60.67,3092,-6715,3779,-1,0,-1
23.41,21.80,-60.67,3079,-6713,3780,-1,0,-1
23.41,21.81,-60.67,3090,-6716,3768,-1,0,-1
23.43,21.81,-60.68,3096,-6724,3768,-1,0,-1
23.44,21.82,-60.69,3097,-6732,3766,-1,0,-1
23.44,21.81,-60.69,3095,-6733,3760,-1,0,-1
23.44,21.81,-60.69,3086,-6734,3767,-1,0,-1
23.44,21.81,-60.68,3082,-6732,3768,-1,0,-1
23.44,21.81,-60.68,3077,-6731,3762,0,0,-1
23.45,21.80,-60.68,3072,-6727,3771,0,0,-1
23.45,21.81,-60.67,3073,-6723,3775,-1,-1,-1
23.45,21.80,-60.68,3078,-6722,3777,-1,0,-1
23.46,21.81,-60.68,3092,-6719,3777,-1,0,0
23.46,21.81,-60.68,3090,-6722,3770,-1,0,-1
23.47,21.81,-60.68,3093,-6721,3768,-1,0,0
23.47,21.80,-60.68,3079,-6716,3774,-1,0,-1
23.47,21.80,-60.68,3090,-6719,3772,-1,0,-1
23.48,21.80,-60.68,3083,-6721,3776,-1,0,-1
23.48,21.80,-60.68,3093,-6722,3766,-1,0,-1
23.49,21.79,-60.69,3094,-6719,3767,-1,0,-1
23.49,21.79,-60.69,3089,-6725,3767,-1,0,-1
23.49,21.79,-60.68,3085,-6715,3771,-1,0,-1
23.49,21.78,-60.69,3077,-6724,3771,-1,0,-1
23.49,21.78,-60.70,3062,-6730,3767,-1,0,-1
23.49,21.76,-60.70,3062,-6728,3765,-1,0,-1
23.49,21.77,-60.69,3082,-6721,3770,-1,0,-1
23.50,21.76,-60.69,3080,-6720,3769,-1,0,-1
23.50,21.76,-60.69,3082,-6711,3771,-1,0,-1
23.50,21.75,-60.70,3074,-6708,3776,-1,0,-1
23.50,21.75,-60.71,3077,-6712,3774,-1,0,-1
23.51,21.74,-60.71,3079,-6719,3767,-1,0,0
23.50,21.73,-60.72,3073,-6723,3756,-1,0,0
23.50,21.72,-60.72,3069,-6717,3769,-1,0,0
23.50,21.71,-60.73,3063,-6719,3777,-1,0,0
23.50,21.70,-60.74,3071,-6733,3755,-1,0,-1
23.50,21.69,-60.74,3061,-6726,3758,-1,0,-1
23.51,21.69,-60.73,3067,-6731,3763,-1,0,-1
23.51,21.68,-60.73,3061,-6734,3766,-1,0,-1
23.51,21.67,-60.74,3060,-6726,3767,-1,0,-1
23.51,21.66,-60.74,3067,-6719,3774,-1,0,-1
23.52,21.66,-60.74,3063,-6728,3776,-1,0,-1
23.52,21.65,-60.75,3054,-6732,3758,0,0,0
23.52,21.64,-60.73,3056,-6722,3779,-1,0,-1
23.52,21.64,-60.74,3067,-6728,3765,-1,0,0
23.51,21.63,-60.74,3053,-6718,3784,-1,0,0
23.51,21.62,-60.76,3063,-6739,3744,-1,0,-1
23.52,21.63,-60.77,3065,-6755,3735,0,0,0
23.51,21.62,-60.75,3047,-6738,3765,0,-1,0
23.49,21.60,-60.75,3051,-6725,3776,-1,-1,0
23.50,21.60,-60.76,3049,-6737,3770,-1,0,0
23.48,21.59,-60.77,3021,-6750,3751,-1,-1,0
23.49,21.60,-60.78,3070,-6754,3739,0,0,0
23.47,21.58,-60.76,3019,-6743,3776,0,-1,0
23.47,21.59,-60.78,3052,-6752,3759,-1,-1,-1
23.47,21.60,-60.77,3047,-6732,3759,0,-1,-1
23.48,21.61,-60.76,3046,-6719,3772,0,-1,-1
23.48,21.62,-60.76,3053,-6720,3770,0,-1,-1
23.49,21.63,-60.76,3085,-6715,3788,-1,-1,-1
23.49,21.64,-60.77,3072,-6729,3762,-1,0,0
23.49,21.64,-60.77,3064,-6733,3761,0,-1,0
23.49,21.65,-60.77,3065,-6721,3772,-1,-1,-1
23.49,21.65,-60.79,3053,-6736,3754,-1,-1,-1
23.49,21.66,-60.79,3061,-6746,3748,0,-1,-1
23.49,21.67,-60.78,3056,-6748,3754,0,-1,-1
23.49,21.68,-60.78,3059,-6743,3743,0,-1,-1
23.50,21.69,-60.76,3059,-6733,3762,0,-1,-1
23.49,21.70,-60.74,3067,-6715,3774,0,-1,0
23.50,21.71,-60.74,3075,-6718,3771,0,-1,-1
23.50,21.72,-60.73,3084,-6725,3761,0,-1,-1
23.50,21.73,-60.72,3076,-6720,3766,0,-1,0
23.50,21.73,-60.71,3075,-6711,3768,0,-1,0
23.49,21.74,-60.70,3064,-6708,3783,0,-1,0
23.49,21.74,-60.70,3077,-6708,3787,0,-1,0
23.49,21.74,-60.71,3070,-6729,3782,-1,-1,-1
23.48,21.75,-60.71,3069,-6744,3764,0,-1,0
23.48,21.75,-60.71,3061,-6748,3758,0,-1,-1
23.48,21.75,-60.70,3074,-6743,3763,0,-1,0
23.47,21.76,-60.70,3066,-6728,3770,0,-1,0
23.47,21.76,-60.69,3068,-6722,3767,0,-1,0
23.47,21.77,-60.68,3065,-6720,3756,0,-1,0
23.47,21.77,-60.68,3081,-6712,3761,0,-1,0
23.47,21.78,-60.67,3076,-6701,3775,0,-1,0
23.46,21.78,-60.67,3080,-6706,3779,0,-1,0
23.46,21.78,-60.68,3075,-6708,3774,-1,-1,0
23.46,21.78,-60.69,3081,-6719,3763,-1,-1,0
23.46,21.78,-60.69,3074,-6729,3760,-1,-1,0
23.45,21.78,-60.70,3077,-6722,3769,0,-1,0
23.45,21.78,-60.70,3074,-6720,3767,0,-1,0
23.45,21.78,-60.69,3078,-6724,3778,0,-1,0
23.45,21.78,-60.68,3075,-6719,3790,0,-1,0
23.45,21.78,-60.68,3082,-6730,3790,-1,-1,-1
23.45,21.79,-60.68,3084,-6727,3777,0,-1,0
23.44,21.79,-60.68,3077,-6721,3777,0,-1,0
23.44,21.79,-60.68,3079,-6714,3769,0,-1,0
23.44,21.79,-60.68,3075,-6713,3773,-1,-1,0
23.43,21.79,-60.68,3089,-6712,3781,0,-1,0
23.43,21.79,-60.69,3077,-6720,3781,-1,-1,-1
23.43,21.79,-60.69,3088,-6724,3769,0,-1,0
23.42,21.79,-60.69,3072,-6714,3774,-1,-1,0
23.42,21.79,-60.69,3075,-6729,3767,0,-1,0
23.42,21.79,-60.69,3082,-6733,3763,0,-1,-1
23.43,21.80,-60.69,3086,-6742,3757,0,-1,-1
23.43,21.80,-60.69,3088,-6741,3753,0,-1,0
23.42,21.79,-60.68,3081,-6729,3774,0,-1,0
23.41,21.79,-60.68,3077,-6726,3779,0,-1,0
23.40,21.79,-60.68,3068,-6722,3780,0,-1,0
23.40,21.79,-60.68,3072,-6717,3779,-1,-1,0
23.41,21.79,-60.68,3087,-6730,3779,-1,-1,-1
23.40,21.80,-60.68,3099,-6731,3773,0,-1,0
23.41,21.80,-60.68,3098,-6727,3764,0,-1,0
23.40,21.81,-60.68,3092,-6723,3759,0,-1,0
23.40,21.80,-60.69,3087,-6722,3767,0,-1,0
23.39,21.80,-60.69,3082,-6732,3765,-1,-1,0
23.39,21.80,-60.70,3078,-6732,3756,0,-1,0
23.39,21.80,-60.69,3075,-6726,3762,0,-1,0
23.38,21.80,-60.69,3075,-6723,3764,0,-1,0
23.38,21.81,-60.68,3081,-6716,3770,0,-1,-1
23.38,21.81,-60.68,3078,-6715,3771,0,-1,0
23.38,21.81,-60.68,3083,-6721,3771,0,-1,0
23.38,21.82,-60.67,3083,-6709,3772,0,-1,0
23.37,21.82,-60.68,3099,-6710,3778,0,-1,0
23.37,21.82,-60.67,3082,-6714,3776,-1,-1,-1
23.37,21.82,-60.67,3096,-6721,3768,0,-1,0
23.36,21.82,-60.66,3083,-6722,3767,0,-1,0
23.36,21.83,-60.66,3092,-6724,3766,0,-1,0
23.36,21.83,-60.65,3106,-6724,3784,0,-1,0
23.36,21.83,-60.65,3109,-6706,3793,0,-1,0
23.35,21.83,-60.65,3080,-6708,3791,-1,0,0
23.34,21.82,-60.67,3079,-6722,3779,-1,-1,-1
23.33,21.81,-60.68,3081,-6723,3750,0,0,0
23.33,21.81,-60.68,3089,-6728,3756,0,-1,0
23.31,21.80,-60.67,3082,-6720,3770,0,-1,0
23.31,21.80,-60.68,3071,-6713,3769,-1,-1,0
23.31,21.81,-60.68,3101,-6718,3756,0,-1,0
23.29,21.80,-60.68,3091,-6712,3771,0,-1,0
23.29,21.79,-60.67,3085,-6712,3767,0,0,0
23.27,21.78,-60.65,3073,-6688,3794,0,-1,0
23.27,21.77,-60.66,3071,-6701,3823,-2,0,0
23.27,21.78,-60.70,3119,-6727,3772,-1,-2,0
23.25,21.76,-60.71,3096,-6744,3744,0,0,1
23.22,21.73,-60.72,3075,-6733,3756,0,-1,0
23.20,21.73,-60.74,3123,-6738,3759,-1,0,0
23.18,21.70,-60.76,3071,-6751,3744,-1,0,1
23.16,21.68,-60.75,3078,-6755,3741,0,0,0
23.16,21.67,-60.73,3084,-6733,3784,0,-1,0
23.11,21.63,-60.72,3008,-6686,3811,-1,0,1
23.12,21.64,-60.75,3057,-6723,3798,-1,-1,-1
23.10,21.62,-60.77,3058,-6698,3763,0,0,1
23.10,21.62,-60.76,3034,-6703,3818,-1,-1,-1
23.10,21.60,-60.79,3025,-6729,3777,-2,2,-1
23.13,21.63,-60.84,3080,-6763,3733,-1,-2,-1
23.10,21.60,-60.82,3034,-6733,3781,0,0,0
23.13,21.62,-60.85,3091,-6763,3740,-2,0,-1
23.12,21.60,-60.85,3054,-6770,3741,1,1,1
23.13,21.60,-60.85,3035,-6758,3735,-2,-1,-2
23.13,21.60,-60.84,3038,-6759,3754,1,0,0
23.14,21.61,-60.83,3049,-6732,3773,-2,0,-2
23.16,21.62,-60.85,3042,-6771,3724,0,0,-1
23.16,21.63,-60.83,3041,-6742,3744,1,-1,-1
23.19,21.66,-60.80,3111,-6705,3791,-1,0,-1
23.21,21.66,-60.80,3062,-6703,3806,-1,0,-1
23.22,21.67,-60.82,3104,-6722,3745,0,0,0
23.22,21.66,-60.81,3069,-6714,3783,-1,0,-1
23.23,21.67,-60.85,3115,-6758,3747,-1,1,0
23.23,21.65,-60.85,3051,-6754,3741,0,0,-1
23.22,21.63,-60.83,3042,-6738,3759,-1,0,0
23.24,21.65,-60.85,3068,-6745,3746,-1,0,-1
23.23,21.63,-60.86,3029,-6759,3733,0,0,-1
23.24,21.64,-60.84,3046,-6764,3749,0,0,-1
23.24,21.63,-60.84,3067,-6742,3753,0,-1,-1
23.25,21.64,-60.85,3074,-6749,3751,-1,0,-1
23.26,21.64,-60.83,3083,-6724,3762,0,0,-1
23.26,21.63,-60.83,3053,-6723,3773,-1,0,-1
23.26,21.63,-60.83,3077,-6709,3760,-1,-1,-1
23.26,21.63,-60.83,3055,-6724,3776,-1,1,-1
23.27,21.63,-60.83,3057,-6749,3774,-1,-1,0
23.27,21.63,-60.85,3090,-6738,3763,-1,0,-1
23.27,21.62,-60.85,3054,-6740,3784,-2,0,0
23.27,21.61,-60.88,3067,-6756,3712,-1,0,-1
23.27,21.60,-60.88,3050,-6757,3742,0,0,0
23.27,21.60,-60.87,3033,-6740,3745,-1,-1,-1
23.29,21.62,-60.88,3083,-6742,3743,0,0,0
23.28,21.60,-60.86,3023,-6720,3794,-1,-1,-1
23.29,21.61,-60.87,3050,-6726,3746,0,-1,-1
23.31,21.63,-60.88,3067,-6758,3748,-1,0,-1
23.31,21.63,-60.89,3059,-6765,3741,0,0,-1
23.31,21.62,-60.88,3049,-6741,3745,0,0,-1
23.32,21.63,-60.88,3062,-6712,3764,-1,-1,-1
23.33,21.64,-60.90,3062,-6731,3757,-1,-1,-1
23.34,21.65,-60.91,3085,-6765,3744,-1,0,-1
23.36,21.66,-60.90,3084,-6760,3741,-1,0,-1
23.36,21.65,-60.89,3053,-6754,3745,0,0,-1
23.35,21.64,-60.89,3035,-6735,3755,0,-1,0
23.35,21.64,-60.88,3052,-6728,3776,-1,-1,0
23.35,21.64,-60.89,3048,-6735,3767,-1,-1,-1
23.35,21.64,-60.89,3064,-6747,3748,0,0,-1
23.36,21.64,-60.89,3060,-6740,3744,0,0,-1
23.37,21.64,-60.88,3072,-6748,3754,-1,0,-1
23.37,21.64,-60.87,3058,-6739,3755,0,0,-1
23.37,21.64,-60.86,3061,-6728,3770,-1,0,0
23.37,21.63,-60.87,-1,-1,-1,-1,0,-1
23.38,21.64,-60.87,3056,-6729,3751,-1,0,0
23.37,21.64,-60.88,3054,-6732,3757,0,0,-1
23.38,21.64,-60.87,3055,-6726,3769,-1,-1,-1
23.37,21.64,-60.88,3064,-6734,3770,-1,-1,-1
23.38,21.64,-60.89,3066,-6740,3759,-1,-1,0
23.37,21.64,-60.89,3051,-6747,3739,-1,-1,-1
23.38,21.64,-60.89,3063,-6749,3746,0,-1,0
23.38,21.65,-60.89,3060,-6758,3756,0,-1,-1
23.38,21.65,-60.88,3061,-6752,3753,0,-1,0
23.38,21.66,-60.87,3055,-6739,3767,0,-1,-1
23.38,21.66,-60.88,3053,-6744,3745,0,-1,-1
23.39,21.67,-60.88,3060,-6744,3743,0,-1,-1
23.39,21.67,-60.86,3058,-6748,3754,0,-1,-1
23.39,21.68,-60.85,3062,-6743,3760,0,-1,0
23.39,21.69,-60.85,3074,-6731,3769,0,-1,0
23.39,21.69,-60.84,3065,-6731,3767,0,-1,-1
23.39,21.70,-60.85,3065,-6741,3745,0,-1,0
23.38,21.70,-60.84,3064,-6735,3743,0,-1,0
23.38,21.71,-60.84,3065,-6726,3756,0,-1,0
23.38,21.71,-60.83,3067,-6723,3762,0,-1,-1
23.38,21.72,-60.83,3067,-6733,3759,0,-1,0
23.38,21.72,-60.84,3072,-6740,3752,0,-1,0
23.38,21.73,-60.84,3078,-6752,3752,0,-1,0
23.37,21.72,-60.83,3061,-6750,3750,0,-1,0
23.36,21.72,-60.83,3057,-6739,3753,0,-1,0
23.36,21.72,-60.83,3053,-6735,3750,0,-1,0
23.36,21.73,-60.83,3063,-6734,3748,0,-1,-1
23.36,21.74,-60.81,3075,-6733,3763,0,-1,0
23.36,21.74,-60.82,3073,-6735,3763,0,-1,-1
23.35,21.74,-60.81,3071,-6732,3760,0,-1,0
23.35,21.74,-60.80,3062,-6731,3764,0,-1,0
23.35,21.75,-60.80,3076,-6730,3761,0,-1,-1
23.35,21.75,-60.81,3083,-6725,3758,0,-1,0
23.35,21.76,-60.80,3082,-6729,3772,0,-1,0
23.35,21.76,-60.80,3081,-6726,3769,0,-1,0
23.35,21.76,-60.79,3076,-6728,3772,0,-1,0
23.34,21.76,-60.79,3081,-6730,3765,0,-1,0
23.34,21.76,-60.79,3080,-6731,3760,0,-1,0
23.33,21.76,-60.79,3072,-6726,3770,0,-1,0
23.33,21.76,-60.79,3072,-6730,3762,-1,-1,0
23.34,21.77,-60.80,3081,-6742,3749,-1,-1,0
23.34,21.77,-60.81,3085,-6740,3742,0,-1,0
23.33,21.77,-60.80,3087,-6742,3745,0,-1,0
23.32,21.76,-60.79,3066,-6726,3746,0,-1,0
23.32,21.77,-60.79,3073,-6721,3750,0,-1,0
23.32,21.77,-60.79,3073,-6727,3759,-1,-1,0
23.32,21.77,-60.81,3070,-6740,3753,0,-1,-1
23.31,21.77,-60.80,3069,-6736,3759,0,-1,-1
23.31,21.78,-60.79,3084,-6728,3774,0,-1,0
23.31,21.78,-60.79,3088,-6718,3779,-1,-1,-1
23.31,21.78,-60.80,3088,-6720,3764,-1,-1,0
23.31,21.79,-60.80,3103,-6735,3753,0,-1,-1
23.31,21.79,-60.80,3086,-6723,3759,0,-1,0
23.30,21.78,-60.79,3082,-6728,3768,-1,-1,0
23.31,21.79,-60.79,3082,-6733,3765,0,-1,0
23.31,21.79,-60.80,3083,-6741,3753,0,-1,0
23.30,21.78,-60.80,3075,-6737,3750,0,-1,0
23.30,21.78,-60.79,3072,-6730,3749,0,-1,0
23.30,21.79,-60.79,3077,-6726,3757,0,-1,0
23.30,21.79,-60.78,3083,-6721,3753,0,-1,0
23.30,21.79,-60.78,3084,-6718,3759,0,-1,0
23.29,21.79,-60.78,3082,-6716,3765,-1,-1,0
23.29,21.79,-60.78,3090,-6726,3763,0,-1,0
23.29,21.79,-60.78,3085,-6730,3768,0,-1,0
23.29,21.79,-60.78,3086,-6728,3772,0,-1,0
23.29,21.80,-60.78,3086,-6728,3769,0,-1,0
23.28,21.79,-60.78,3085,-6727,3769,0,-1,0
23.28,21.80,-60.78,3093,-6729,3760,0,-1,0
23.28,21.80,-60.78,3083,-6731,3764,0,-1,0
23.28,21.80,-60.78,3080,-6732,3764,0,-1,0
23.28,21.80,-60.78,3075,-6732,3771,0,-1,-1
23.28,21.80,-60.78,3099,-6731,3762,0,-1,0
23.28,21.80,-60.77,3075,-6726,3766,0,-1,0
23.27,21.80,-60.76,3070,-6718,3769,0,-1,0
23.26,21.80,-60.75,3058,-6713,3778,0,-1,-1
23.27,21.81,-60.76,3072,-6714,3779,0,-1,0
23.26,21.81,-60.76,3093,-6714,3781,0,-1,0
23.26,21.81,-60.75,3080,-6717,3783,-1,-1,0
23.26,21.81,-60.76,3091,-6731,3768,0,-1,0
23.25,21.81,-60.76,3077,-6737,3762,0,-1,0
23.25,21.81,-60.75,3083,-6731,3769,0,-1,-1
23.25,21.81,-60.75,3090,-6719,3774,0,-1,0
23.25,21.81,-60.74,3089,-6727,3777,0,-1,0
23.24,21.81,-60.75,3082,-6730,3765,0,-1,0
23.24,21.81,-60.75,3083,-6730,3757,0,-1,0
23.24,21.82,-60.74,3093,-6728,3774,0,-1,0
23.23,21.81,-60.74,3085,-6719,3778,-1,-1,0
23.23,21.81,-60.74,3085,-6715,3768,-1,-1,0
23.22,21.81,-60.75,3081,-6715,3743,0,-1,0
23.21,21.81,-60.75,3080,-6719,3753,0,-1,0
23.20,21.80,-60.75,3082,-6723,3765,-1,-1,0
23.20,21.80,-60.76,3089,-6724,3759,-1,-1,0
23.19,21.80,-60.76,3083,-6727,3758,0,-1,0
23.19,21.80,-60.76,3080,-6726,3756,0,-1,0
23.18,21.80,-60.76,3078,-6719,3768,0,-1,0
23.18,21.80,-60.76,3085,-6715,3769,0,-1,0
23.17,21.79,-60.76,3073,-6724,3769,0,-1,0
23.17,21.79,-60.76,3077,-6730,3760,0,-1,0
23.15,21.79,-60.76,3064,-6731,3762,0,-1,0
23.15,21.80,-60.76,3076,-6729,3770,0,-1,0
23.14,21.80,-60.76,3076,-6722,3761,0,-1,0
23.14,21.80,-60.75,3094,-6716,3766,0,-1,0
23.14,21.81,-60.76,3094,-6714,3776,-1,-1,-1
23.14,21.81,-60.76,3101,-6719,3770,-1,-1,0
23.14,21.80,-60.76,3080,-6730,3761,0,-1,0
23.13,21.80,-60.76,3067,-6730,3768,0,-1,0
23.12,21.80,-60.77,3074,-6726,3773,-1,0,0
23.13,21.79,-60.78,3070,-6731,3762,-1,0,-1
23.13,21.79,-60.78,3067,-6738,3744,0,0,-1
23.12,21.79,-60.77,3081,-6730,3756,0,-1,0
23.12,21.80,-60.77,3083,-6727,3781,-1,-1,-1
23.13,21.80,-60.76,3088,-6725,3781,-1,0,-1
23.14,21.80,-60.76,3079,-6718,3779,0,0,-1
23.15,21.80,-60.75,3075,-6713,3777,-1,0,-1
23.15,21.81,-60.75,3087,-6711,3776,-1,-1,-1
23.16,21.81,-60.75,3094,-6713,3780,-1,0,-1
23.17,21.81,-60.75,3095,-6721,3780,-1,0,-1
23.17,21.81,-60.75,3090,-6725,3770,-1,0,-1
23.17,21.81,-60.76,3084,-6737,3764,-1,0,-1
23.17,21.80,-60.77,3080,-6737,3756,-1,0,-1
23.18,21.80,-60.77,3074,-6738,3757,-1,0,-1
23.18,21.81,-60.77,3081,-6738,3756,-1,0,-1
23.19,21.81,-60.78,3087,-6741,3749,0,0,-1
23.19,21.81,-60.76,3074,-6721,3753,0,0,-1
23.19,21.81,-60.75,3090,-6712,3773,0,0,0
23.20,21.80,-60.76,3083,-6714,3770,-1,0,-1
23.21,21.81,-60.76,3093,-6717,3762,-1,0,0
23.20,21.80,-60.76,3078,-6719,3772,-1,0,-1
23.21,21.80,-60.76,3076,-6720,3760,-1,0,-1
23.21,21.80,-60.77,3081,-6727,3763,-1,0,-1
23.21,21.79,-60.77,3086,-6732,3760,-1,0,-1
23.22,21.79,-60.78,3085,-6734,3757,-1,0,-1
23.22,21.79,-60.78,3085,-6739,3758,-1,0,-1
23.22,21.79,-60.78,3076,-6725,3760,-1,0,-1
23.22,21.78,-60.77,3084,-6725,3758,0,0,-1
23.23,21.78,-60.77,3072,-6721,3753,-1,0,-1
23.22,21.78,-60.77,3077,-6726,3763,0,0,-1
23.23,21.78,-60.77,3086,-6722,3769,-1,0,-1
23.24,21.78,-60.77,3087,-6723,3773,-1,0,-1
23.24,21.78,-60.77,3099,-6720,3767,-1,0,-1
23.23,21.77,-60.77,3085,-6725,3767,-1,0,0
23.24,21.77,-60.77,3085,-6724,3767,-1,0,0
23.24,21.76,-60.78,3076,-6726,3765,-1,0,0
23.24,21.75,-60.79,3075,-6727,3764,-1,0,-1
23.24,21.75,-60.79,3079,-6726,3757,-1,0,0
23.24,21.75,-60.79,3081,-6724,3759,-1,0,0
23.24,21.74,-60.79,3070,-6724,3764,-1,0,-1
23.24,21.73,-60.79,3065,-6731,3767,-1,0,0
23.24,21.72,-60.79,3057,-6730,3770,-1,0,-1
23.24,21.71,-60.79,3060,-6743,3760,-1,0,-1
23.24,21.71,-60.79,3062,-6734,3769,0,0,-1
23.25,21.71,-60.79,3071,-6732,3771,-1,0,-1
23.26,21.71,-60.78,3092,-6730,3772,-1,0,-1
23.26,21.70,-60.79,3090,-6737,3769,-1,0,0
23.26,21.69,-60.79,3077,-6737,3756,-1,0,-1
23.25,21.68,-60.79,3074,-6736,3755,-1,0,0
23.25,21.67,-60.79,3068,-6738,3773,-1,0,0
23.25,21.67,-60.80,3062,-6741,3760,-1,0,0
23.25,21.67,-60.81,3057,-6747,3753,-1,0,-1
23.26,21.67,-60.81,3063,-6741,3751,0,0,0
23.25,21.66,-60.81,3065,-6728,3771,0,0,0
23.25,21.66,-60.80,3074,-6728,3771,-1,0,0
23.26,21.67,-60.80,3079,-6724,3782,-1,0,0
23.26,21.66,-60.81,3072,-6726,3768,-1,0,-1
23.26,21.66,-60.81,3064,-6728,3760,-1,0,0
23.25,21.65,-60.81,3058,-6723,3767,-1,0,0
23.25,21.65,-60.82,3064,-6734,3762,-1,0,0
23.25,21.64,-60.82,3060,-6732,3754,-1,0,0
23.25,21.65,-60.82,3057,-6735,3751,0,0,-1
23.25,21.64,-60.82,3048,-6734,3760,0,0,-1
23.25,21.65,-60.82,3057,-6737,3755,0,-1,-1
23.25,21.65,-60.81,3053,-6744,3757,0,-1,-1
23.25,21.65,-60.81,3058,-6742,3768,0,-1,-1
23.26,21.65,-60.80,3053,-6735,3766,0,-1,-1
23.26,21.66,-60.80,3054,-6727,3764,0,-1,-1
23.26,21.66,-60.79,3053,-6722,3769,0,-1,-1
23.26,21.66,-60.80,3065,-6726,3770,0,-1,-1
23.26,21.67,-60.80,3067,-6728,3765,0,-1,-1
23.26,21.68,-60.80,3062,-6729,3762,0,-1,0
23.26,21.68,-60.80,3063,-6733,3763,0,-1,0
23.26,21.69,-60.80,3056,-6738,3756,0,-1,-1
23.26,21.69,-60.79,3057,-6740,3758,0,-1,0
23.26,21.70,-60.79,3058,-6734,3760,0,-1,0
23.26,21.70,-60.78,3068,-6735,3766,0,-1,0
23.26,21.71,-60.78,3070,-6733,3771,0,-1,0
23.26,21.72,-60.78,3080,-6742,3758,0,-1,0
23.26,21.72,-60.77,3068,-6740,3759,0,-1,-1
23.26,21.72,-60.77,3064,-6741,3759,0,-1,0
23.25,21.72,-60.76,3059,-6726,3761,0,-1,0
23.25,21.73,-60.76,3069,-6725,3762,0,-1,0
23.25,21.74,-60.76,3076,-6729,3757,0,-1,0
23.25,21.74,-60.76,3079,-6740,3754,0,-1,0
23.25,21.75,-60.76,3080,-6731,3749,0,-1,0
23.25,21.75,-60.75,3081,-6727,3760,0,-1,0
23.24,21.74,-60.75,3069,-6727,3762,-1,-1,0
23.23,21.74,-60.76,3065,-6732,3767,0,-1,0
23.23,21.75,-60.76,3068,-6732,3753,0,-1,-1
23.24,21.76,-60.76,3079,-6734,3765,0,-1,0
23.24,21.76,-60.76,3076,-6734,3767,0,-1,0
23.23,21.76,-60.76,3087,-6730,3765,0,-1,0
23.23,21.76,-60.76,3093,-6730,3776,0,-1,0
23.23,21.77,-60.76,3089,-6722,3763,0,-1,0
23.23,21.77,-60.75,3086,-6719,3765,0,-1,0
23.22,21.77,-60.76,3081,-6726,3763,-1,-1,0
23.22,21.77,-60.76,3071,-6730,3750,0,-1,0
23.22,21.77,-60.76,3075,-6725,3760,0,-1,0
23.21,21.77,-60.76,3067,-6731,3762,-1,-1,-1
23.22,21.78,-60.76,3082,-6731,3765,0,-1,0
23.21,21.77,-60.75,3078,-6722,3774,0,-1,-1
23.21,21.78,-60.74,3075,-6729,3773,0,-1,0
23.21,21.78,-60.74,3081,-6727,3769,0,-1,0
23.21,21.79,-60.74,3075,-6721,3774,0,-1,0
23.20,21.78,-60.74,3081,-6716,3774,0,-1,0
23.20,21.78,-60.74,3083,-6718,3772,0,-1,0
23.19,21.78,-60.74,3080,-6713,3769,0,-1,0
23.20,21.79,-60.74,3081,-6724,3774,0,-1,0
23.19,21.78,-60.74,3074,-6724,3778,-1,-1,0
23.19,21.78,-60.74,3075,-6727,3769,-1,-1,0
23.19,21.78,-60.75,3083,-6732,3759,-1,-1,0
23.19,21.79,-60.75,3084,-6739,3754,0,-1,0
23.18,21.78,-60.75,3086,-6739,3747,0,-1,0
23.18,21.78,-60.75,3083,-6727,3747,0,-1,0
23.18,21.79,-60.74,3086,-6717,3761,0,-1,0
23.18,21.79,-60.74,3088,-6707,3764,0,-1,0
23.18,21.79,-60.73,3085,-6709,3781,0,-1,0
23.18,21.80,-60.73,3094,-6717,3776,-1,-1,0
23.18,21.80,-60.73,3099,-6713,3780,-1,-1,0
23.18,21.79,-60.73,3083,-6718,3776,-1,-1,-1
23.17,21.79,-60.73,3084,-6719,3784,0,0,0
23.18,21.79,-60.74,3083,-6718,3773,-1,-1,-1
23.16,21.78,-60.75,3080,-6735,3762,-1,-1,0
23.16,21.79,-60.76,3095,-6745,3757,0,-1,0
23.15,21.78,-60.75,3070,-6739,3759,0,-1,0
23.15,21.78,-60.74,3066,-6731,3759,0,-1,-1
23.16,21.79,-60.73,3077,-6721,3761,0,-1,0
23.15,21.79,-60.73,3080,-6720,3769,-1,-1,-1
23.15,21.79,-60.74,3088,-6728,3761,0,-1,0
23.15,21.79,-60.73,3093,-6717,3773,0,-1,0
23.16,21.80,-60.72,3101,-6716,3782,-1,-1,0
23.15,21.79,-60.72,3082,-6726,3769,0,-1,0
23.14,21.78,-60.72,3080,-6728,3759,0,-1,0
23.13,21.77,-60.72,3081,-6708,3777,0,-1,0
23.12,21.76,-60.72,3082,-6720,3790,-1,0,0
23.12,21.76,-60.73,3079,-6736,3752,-1,-1,0
23.09,21.74,-60.73,3086,-6748,3762,0,0,0
23.08,21.73,-60.73,3077,-6736,3765,0,-1,0
23.07,21.72,-60.72,3114,-6716,3787,-1,0,0
23.05,21.69,-60.74,3056,-6754,3764,-2,1,0
23.03,21.68,-60.75,3066,-6744,3714,2,-2,0
23.02,21.67,-60.71,3102,-6735,3812,-1,1,0
23.00,21.64,-60.72,3038,-6698,3766,0,-1,0
22.99,21.63,-60.73,3031,-6734,3766,0,-1,0
22.98,21.63,-60.71,3069,-6716,3806,-1,-1,0
22.96,21.61,-60.73,3061,-6711,3767,-1,0,0
22.92,21.58,-60.74,3013,-6737,3766,0,-1,0
22.92,21.59,-60.74,3058,-6742,3763,-1,0,0
22.90,21.58,-60.75,3065,-6725,3785,0,-1,1
22.88,21.55,-60.76,2985,-6749,3783,-1,-1,-1
22.89,21.57,-60.79,3043,-6769,3712,-1,0,0
22.88,21.57,-60.77,3085,-6713,3757,0,-2,0
22.87,21.57,-60.75,3032,-6720,3789,0,0,0
22.89,21.58,-60.77,3037,-6727,3760,-1,-1,-1
22.88,21.60,-60.77,3067,-6706,3752,1,-2,1
22.88,21.60,-60.76,3033,-6677,3852,-2,-2,-1
22.89,21.62,-60.82,3055,-6738,3774,-2,1,0
22.89,21.62,-60.86,3052,-6761,3712,0,-2,-1
22.89,21.63,-60.85,3066,-6768,3751,0,-1,0
22.90,21.65,-60.85,3068,-6750,3759,-1,-1,-1
22.90,21.66,-60.86,3065,-6736,3754,0,-1,0
22.90,21.67,-60.87,3066,-6738,3749,0,-1,-1
22.91,21.67,-60.86,3070,-6747,3744,0,-1,-1
22.91,21.68,-60.86,3073,-6757,3734,0,-1,-1
22.91,21.69,-60.85,3073,-6754,3746,0,-1,0
22.91,21.70,-60.84,3080,-6745,3757,0,-1,-1
22.91,21.71,-60.83,3074,-6732,3764,0,-1,-1
22.91,21.71,-60.81,3067,-6718,3772,0,-1,-1
22.92,21.72,-60.80,3076,-6714,3783,0,-1,-1
22.92,21.73,-60.81,3068,-6716,3792,-1,-1,-1
22.94,21.74,-60.82,3085,-6734,3764,-1,0,-1
22.95,21.74,-60.82,3070,-6735,3764,0,0,-1
22.95,21.74,-60.82,3065,-6735,3761,-1,0,-1
22.96,21.74,-60.81,3065,-6738,3763,-1,0,-1
22.97,21.76,-60.81,3077,-6745,3760,-1,0,-1
22.97,21.76,-60.81,3077,-6745,3760,-1,0,-1
23.00,21.77,-60.80,3090,-6736,3760,0,0,-1
23.02,21.78,-60.79,3096,-6737,3758,0,0,-1
23.02,21.78,-60.78,3084,-6724,3759,0,0,-1
23.02,21.78,-60.78,3071,-6726,3765,-1,0,-1
23.03,21.78,-60.79,3064,-6731,3764,-1,0,-1
23.03,21.78,-60.79,3068,-6740,3775,-1,0,-1
23.03,21.78,-60.78,3079,-6745,3773,-1,0,-1
23.04,21.79,-60.78,3089,-6735,3762,-1,0,-1
