Yaw,Pitch,Roll,AX,AY,AZ,GX,GY,GZ
-162.87,14.19,-48.52,2172,-6072,5345,10,-14,-4
-162.83,14.56,-48.32,2101,-5975,5496,7,-23,-2
-162.85,15.06,-48.28,2393,-5935,5574,3,-28,3
-162.92,15.49,-48.31,2457,-5791,5393,6,-24,5
-163.05,15.97,-48.41,2446,-5857,5523,-2,-38,3
-163.14,16.58,-48.62,2534,-6173,5224,7,-34,4
-163.19,17.15,-48.48,2775,-6108,5073,20,-30,3
-163.31,17.61,-48.09,2883,-5775,5150,16,-23,4
-163.36,17.93,-47.88,2785,-5582,5123,9,-15,0
-163.41,18.20,-47.87,2798,-5446,5149,-1,-18,3
-163.56,18.42,-48.06,2832,-5607,5035,1,-16,8
-163.84,18.39,-48.12,2884,-5559,4969,3,-6,12
-164.28,18.20,-48.14,2847,-5382,5158,2,-7,20
-164.79,17.80,-48.64,2749,-5068,4785,-21,3,21
-165.34,17.33,-49.13,2665,-5083,5073,-13,-2,25
-165.92,16.90,-49.87,2794,-5066,5460,-37,-5,24
-166.35,16.46,-51.15,2866,-5621,4879,-35,4,25
-167.13,15.69,-51.98,2587,-6118,4876,-18,3,34
-168.02,14.86,-52.66,2197,-6443,5134,-23,1,30
-168.68,14.22,-53.40,2054,-6867,4791,-17,2,23
-169.32,13.63,-53.76,1988,-6882,4779,-5,1,24
-169.98,13.11,-54.06,1781,-6735,4931,-12,-6,22
-170.48,12.77,-54.52,1544,-6813,4841,-12,-12,15
-170.85,12.63,-54.99,1518,-6878,4730,-11,-15,13
-171.18,12.54,-55.42,1544,-6740,4708,-13,-17,13
-171.50,12.47,-55.96,1560,-6707,4626,-16,-18,14
-171.80,12.46,-56.63,1581,-6866,4429,-17,-23,12
-172.10,12.48,-57.19,1673,-7095,4110,-8,-23,13
-172.43,12.45,-57.40,1743,-7057,3639,8,-14,11
-172.80,12.34,-57.19,1659,-6868,3777,12,-10,10
-173.10,12.28,-56.97,1578,-6874,3970,11,-12,6
-173.28,12.33,-56.71,1637,-6947,3942,15,-6,1
-173.37,12.33,-56.25,1668,-7032,3988,20,5,-3
-173.46,12.20,-55.60,1532,-7035,4211,22,9,-2
-173.69,12.05,-55.00,1359,-6857,4540,19,-3,1
-173.82,12.10,-54.58,1269,-6764,4808,11,-9,-1
-173.88,12.27,-54.43,1135,-6820,4794,5,-14,-4
-173.82,12.55,-54.32,1230,-6853,4612,10,-15,-8
-173.58,12.97,-54.00,1425,-6701,4666,13,-7,-14
-173.17,13.45,-53.63,1486,-6610,4906,8,-8,-21
-172.61,14.06,-53.41,1759,-6451,4977,3,-7,-22
-172.03,14.62,-53.30,1838,-6294,5098,-5,-9,-21
-171.37,15.30,-53.49,1888,-6371,4943,-8,-14,-24
-170.65,16.04,-53.57,2124,-6347,4822,-3,-10,-24
-170.00,16.71,-53.64,2139,-6296,4892,-7,-14,-22
-169.36,17.37,-53.89,2222,-6255,4832,-12,-14,-20
-168.68,18.05,-54.24,2200,-6311,4751,-14,-16,-23
-167.91,18.82,-54.57,2357,-6463,4600,-9,-16,-26
-167.08,19.66,-54.71,2686,-6549,4476,-4,-11,-27
-166.35,20.37,-54.67,2770,-6428,4439,-1,-9,-25
-165.58,21.12,-54.65,2856,-6308,4493,-5,-11,-27
-164.73,21.96,-54.81,3032,-6332,4470,-10,-16,-27
-163.86,22.84,-54.98,3397,-6299,4424,-7,-12,-27
-163.05,23.61,-55.16,3648,-6403,4400,-9,-10,-22
-162.40,24.24,-55.31,3854,-6455,4384,-7,-9,-18
-161.87,24.71,-55.46,3958,-6389,4335,-6,-3,-13
-161.44,25.03,-55.56,3948,-6226,4274,-8,0,-12
-161.07,25.28,-55.69,3892,-6054,4162,-7,0,-9
-160.74,25.51,-55.85,3817,-5892,4118,-10,-2,-8
-160.38,25.79,-56.12,3796,-5910,4082,-12,-5,-9
-160.07,26.03,-56.41,3786,-6035,4038,-10,-3,-7
-159.79,26.25,-56.73,3926,-6236,4050,-12,-6,-4
-159.69,26.31,-57.02,3903,-6302,3889,-6,-1,2
-159.72,26.25,-57.19,3696,-6200,3851,-5,-1,1
-159.73,26.25,-57.41,3686,-6123,4020,-9,-7,3
-159.76,26.23,-57.81,3619,-6080,3990,-12,-6,5
-159.79,26.22,-58.29,3602,-6166,4047,-15,-12,5
-159.81,26.20,-58.94,3542,-6263,3908,-18,-10,6
-159.80,26.20,-59.59,3431,-6349,3709,-16,-11,2
-159.72,26.29,-60.17,3553,-6564,3754,-14,-13,2
-159.65,26.37,-60.70,3676,-6688,3746,-14,-12,2
-159.56,26.46,-61.08,3783,-6786,3609,-7,-4,0
-159.52,26.53,-61.32,3692,-6805,3535,-5,-9,-1
-159.44,26.68,-61.51,3724,-6936,3478,0,-10,-3
-159.42,26.82,-61.65,3800,-6821,3472,-1,-14,2
-159.41,26.97,-61.80,3721,-6750,3348,3,-12,-2
-159.32,27.18,-61.83,3821,-6465,3303,4,-9,-2
-159.24,27.37,-61.84,3743,-6113,3515,-4,-12,-3
-158.96,27.64,-62.28,3727,-6168,3648,-19,-12,-6
-158.56,27.96,-63.00,3834,-6369,3458,-20,-17,-5
-158.20,28.27,-63.68,3978,-6633,3147,-14,-14,-5
-158.00,28.45,-64.12,4027,-6796,2980,-7,-9,-1
-157.89,28.61,-64.44,4114,-6681,3129,-6,-14,1
-157.75,28.78,-64.96,4134,-6703,3304,-14,-18,0
-157.55,28.98,-65.55,4131,-6756,3236,-13,-18,-1
-157.33,29.19,-66.04,4041,-6781,2904,-6,-12,-4
-157.13,29.44,-66.28,4082,-6717,2831,-2,-15,-4
-157.01,29.62,-66.60,4122,-6511,2939,-8,-16,2
-156.80,29.82,-67.19,4121,-6611,2970,-13,-20,-2
-156.56,30.06,-67.73,4188,-6747,2777,-8,-16,-1
-156.38,30.26,-68.09,4230,-6789,2643,-4,-14,-4
-156.27,30.39,-68.22,4275,-6570,2547,0,-3,-1
-156.17,30.46,-68.31,4200,-6618,2662,-5,-1,-2
-156.10,30.46,-68.47,4113,-6451,2623,-8,-3,-1
-156.00,30.49,-68.73,3957,-6514,2654,-10,-3,-1
-155.79,30.60,-69.14,4084,-6560,2537,-12,-7,-3
-155.61,30.65,-69.44,3859,-6423,2398,-9,3,-3
-155.36,30.78,-69.77,4035,-6562,2635,-18,-7,-5
-155.10,30.84,-70.27,4200,-6726,2414,-15,1,0
-155.00,30.81,-70.57,4065,-6692,2259,-7,1,-2
-154.86,30.86,-70.77,4222,-6723,2346,-10,2,-1
-154.69,30.89,-71.03,4237,-6826,2393,-15,1,-4
-154.52,30.91,-71.33,4169,-6855,2201,-10,7,-2
-154.38,30.91,-71.55,4269,-6975,2205,-11,2,-3
-154.25,30.91,-71.77,4232,-6937,2097,-10,7,-2
-154.15,30.92,-71.95,4116,-6763,2075,-8,-2,-3
-153.94,31.03,-72.21,4307,-6851,2240,-11,-2,-4
-153.80,31.08,-72.51,4346,-6886,2182,-9,0,-2
-153.65,31.16,-72.71,4279,-6782,2085,-7,-2,-3
-153.54,31.22,-72.88,4297,-6923,2094,-5,-4,-3
-153.46,31.28,-72.92,4516,-6933,1954,3,4,-2
-153.45,31.32,-72.72,4365,-6789,2027,2,3,-2
-153.48,31.30,-72.62,4204,-6867,2013,3,1,-3
-153.48,31.34,-72.39,4383,-6713,2130,5,4,0
-153.46,31.38,-72.25,4241,-6512,2198,0,1,-4
-153.34,31.47,-72.27,4236,-6670,2266,-6,0,-5
-153.20,31.55,-72.41,4421,-6843,2265,-6,0,-4
-153.06,31.63,-72.47,4449,-6786,2199,-3,3,-4
-152.97,31.65,-72.50,4333,-6677,2157,-6,5,-2
-152.89,31.67,-72.60,4280,-6657,2303,-8,-1,-2
-152.75,31.74,-72.89,4350,-6865,2241,-8,-5,-2
-152.69,31.76,-73.08,4485,-6950,2000,-2,-1,0
-152.75,31.74,-72.89,4467,-7085,1792,11,8,-2
-152.99,31.64,-72.20,4468,-7108,1768,25,12,0
-153.35,31.47,-71.26,4358,-6629,1911,24,14,3
-153.61,31.37,-70.59,4193,-6519,2312,14,0,1
-153.86,31.27,-70.40,4302,-6787,2514,8,-12,6
-154.11,31.18,-70.29,4573,-6870,2223,15,-4,8
-154.62,30.88,-69.66,4474,-6775,1926,31,11,11
-155.28,30.52,-68.66,4307,-6412,2448,27,7,9
-155.67,30.28,-68.22,4205,-6187,2958,2,-4,8
-155.82,30.15,-68.41,4236,-6376,2804,-5,-6,7
-156.00,30.00,-68.59,4250,-6640,2576,2,-4,7
-156.26,29.80,-68.55,4287,-6718,2454,6,1,8
-156.60,29.56,-68.29,4178,-6595,2473,10,4,8
-156.96,29.30,-68.01,4061,-6486,2676,7,1,8
-157.22,29.11,-67.88,4033,-6399,2733,3,1,8
-157.46,28.90,-67.90,3962,-6428,2816,-3,-2,7
-157.58,28.76,-68.13,4045,-6568,2806,-7,-6,6
-157.69,28.64,-68.44,4107,-6780,2721,-6,-5,7
-157.80,28.50,-68.64,4099,-6973,2627,-2,-1,4
-157.92,28.37,-68.72,4132,-7085,2621,-1,0,4
-158.07,28.23,-68.71,4138,-7103,2602,2,3,4
-158.25,28.06,-68.60,4042,-7071,2580,3,4,4
-158.47,27.86,-68.41,3931,-7012,2605,5,7,4
-158.72,27.65,-68.18,3832,-6916,2676,5,6,5
-158.99,27.40,-67.96,3664,-6859,2719,4,7,5
-159.28,27.11,-67.81,3527,-6797,2783,1,4,7
-159.51,26.88,-67.77,3470,-6813,2787,1,3,5
-159.72,26.69,-67.73,3488,-6922,2903,1,-1,6
-159.92,26.53,-67.72,3533,-7032,2887,1,-2,4
-160.11,26.41,-67.68,3567,-7053,2829,5,-5,5
-160.28,26.35,-67.58,3635,-6992,2917,5,-5,3
-160.42,26.30,-67.56,3694,-6893,2874,3,-5,4
-160.54,26.26,-67.53,3724,-6798,2885,3,-6,3
-160.62,26.26,-67.54,3795,-6797,2921,0,-6,3
-160.70,26.23,-67.60,3795,-6861,2831,2,-5,3
-160.80,26.20,-67.61,3826,-6923,2789,4,-4,3
-160.91,26.17,-67.50,3829,-6892,2800,5,-1,2
-161.02,26.12,-67.39,3760,-6937,2848,3,-1,2
-161.12,26.05,-67.31,3739,-6928,2800,3,1,1
-161.22,25.98,-67.18,3655,-6953,2836,3,3,0
-161.28,25.94,-67.04,3615,-7024,2851,4,2,0
-161.42,25.84,-66.87,3624,-7012,2843,6,3,3
-161.58,25.71,-66.69,3561,-6973,2892,4,4,2
-161.72,25.61,-66.51,3458,-6892,2877,5,3,0
-161.78,25.59,-66.34,3494,-6831,2901,5,1,-1
-161.79,25.63,-66.22,3515,-6930,2984,3,-1,-2
-161.85,25.61,-66.08,3590,-6959,2993,5,2,0
-161.92,25.57,-65.89,3644,-6933,3102,3,2,0
-161.98,25.52,-65.82,3618,-6965,3081,2,2,1
-162.04,25.49,-65.70,3556,-6956,3092,5,0,-1
-162.10,25.48,-65.59,3603,-6932,3112,1,-2,0
-162.08,25.52,-65.55,3584,-7040,2904,6,2,-3
-162.10,25.57,-65.25,3569,-7082,3007,11,1,-5
-162.09,25.71,-64.90,3660,-7141,3207,11,-2,-6
-162.07,25.84,-64.51,3744,-7083,3174,15,2,-6
-162.10,25.97,-64.04,3786,-7198,3318,14,0,-7
-162.32,25.94,-63.44,4233,-7197,3399,21,7,9
-162.78,25.58,-62.72,3683,-6772,3175,21,20,-1
-163.01,25.49,-61.85,3560,-6644,3383,25,8,-4
-163.30,25.37,-61.04,3714,-6452,3521,23,12,6
-163.72,25.03,-60.34,3119,-6209,3572,16,13,-3
-163.73,25.05,-59.73,3418,-6275,3561,17,9,-5
-164.02,24.92,-59.03,3278,-6277,3724,21,6,-2
-164.25,24.77,-58.44,3262,-5914,3710,14,12,3
-164.47,24.62,-57.90,2947,-5633,3993,9,0,-3
-164.43,24.70,-57.71,3113,-5655,4028,-1,1,-5
-164.35,24.74,-57.80,3144,-5791,3954,-6,-4,1
-164.42,24.71,-57.98,3255,-6044,4107,-5,-10,5
-164.68,24.57,-58.09,3596,-6048,4110,1,-2,14
-164.91,24.33,-58.35,3383,-6241,4350,-15,-6,7
-164.93,24.17,-59.03,3663,-6522,4102,-20,-1,12
-165.23,23.81,-59.46,3635,-6788,3973,-6,1,16
-165.66,23.39,-59.54,3368,-6661,3824,2,4,11
-165.86,23.18,-59.65,3226,-6592,3769,-6,-2,5
-166.00,23.01,-59.93,3086,-6560,3804,-8,-4,7
-166.04,22.97,-60.27,3131,-6581,3724,-8,-8,4
-166.09,22.93,-60.43,3146,-6501,3513,0,-1,2
-166.02,23.06,-60.38,3117,-6292,3629,-1,-7,-6
-165.77,23.22,-60.81,3091,-6381,3578,-20,-5,0
-165.74,23.15,-61.40,2934,-6437,3644,-16,-13,6
-165.68,23.16,-62.08,3316,-6327,3689,-24,-11,9
-165.53,23.08,-62.92,3408,-6361,3566,-28,-3,6
-165.45,22.93,-63.75,3413,-6392,3447,-28,-7,11
-165.33,22.77,-64.75,3181,-6637,3206,-30,-6,5
-165.26,22.67,-65.66,3278,-6838,3203,-27,-13,11
-165.26,22.54,-66.43,3410,-6973,3029,-16,-11,10
-165.37,22.39,-66.89,3416,-7033,3000,-11,-6,9
-165.46,22.25,-67.29,3336,-6999,2999,-10,-8,8
-165.51,22.12,-67.79,3258,-6994,3031,-17,-7,10
-165.62,21.93,-68.34,3126,-6960,3265,-21,-15,8
-165.36,21.98,-69.24,3253,-7187,3013,-30,-11,2
-165.16,21.92,-70.08,3227,-7432,2637,-21,-7,6
-165.06,21.86,-70.64,3237,-7515,2426,-13,-1,2
-165.02,21.75,-70.92,3242,-7452,2414,-10,6,3
-164.98,21.60,-71.21,3032,-7353,2426,-15,5,1
-164.87,21.51,-71.60,3046,-7379,2400,-17,6,3
-164.80,21.37,-71.97,2882,-7362,2300,-14,4,-1
-164.66,21.36,-72.30,2866,-7479,2260,-12,2,-2
-164.55,21.34,-72.57,2836,-7584,2316,-10,1,-2
-164.42,21.35,-72.86,2979,-7540,2263,-12,2,-1
-164.32,21.33,-73.09,2928,-7548,2166,-7,2,-1
-164.22,21.34,-73.24,2911,-7568,2101,-5,2,-3
-164.09,21.40,-73.33,2932,-7593,2215,-6,0,-4
-163.96,21.44,-73.56,2912,-7733,2195,-9,-1,-3
-163.81,21.52,-73.75,2949,-7839,2123,-5,-2,-6
-163.65,21.65,-73.84,3031,-7860,2029,-1,0,-5
-163.55,21.73,-73.80,2927,-7894,1939,3,2,-8
-163.32,21.99,-73.57,2996,-7872,1870,10,4,-13
-163.19,22.21,-73.19,3070,-7839,2020,12,4,-8
-163.17,22.34,-72.68,2995,-7737,2238,14,7,-10
-163.08,22.52,-72.22,3082,-7592,2413,11,3,-9
-162.94,22.74,-71.78,3280,-7383,2408,11,9,-11
-162.75,22.94,-71.26,3479,-7136,2360,11,17,-9
-162.79,22.91,-70.68,3269,-7071,2614,11,17,-2
-162.91,22.79,-70.33,3098,-6994,2895,0,7,-1
-162.90,22.76,-70.29,3140,-6973,2903,-4,2,-2
-162.81,22.80,-70.32,3252,-6957,2786,-4,3,-2
-162.76,22.80,-70.35,3270,-6999,2712,-2,4,0
-162.77,22.77,-70.39,3162,-6958,2708,-4,-2,0
-162.68,22.84,-70.59,3224,-6964,2714,-8,-8,-1
-162.56,22.93,-70.91,3292,-7060,2588,-8,-8,0
-162.54,22.94,-71.16,3317,-7091,2473,-5,-6,3
-162.59,22.88,-71.40,3308,-7106,2466,-6,-8,6
-162.67,22.78,-71.72,3350,-7177,2435,-8,-9,7
-162.74,22.68,-72.05,3386,-7191,2359,-7,-7,7
-162.89,22.51,-72.32,3281,-7205,2324,-8,-5,8
-163.03,22.33,-72.62,3256,-7313,2309,-8,-7,8
-163.16,22.17,-72.92,3267,-7459,2245,-7,-4,7
-163.32,21.97,-73.11,3221,-7562,2179,-3,-1,7
-163.51,21.76,-73.20,3150,-7627,2178,-1,0,7
-163.70,21.57,-73.24,3068,-7553,2224,-2,0,5
-163.83,21.43,-73.35,3027,-7544,2229,-4,-2,4
-163.92,21.31,-73.46,2994,-7578,2169,-3,-1,3
-164.00,21.20,-73.53,3002,-7609,2143,-2,1,3
-164.10,21.09,-73.54,2946,-7592,2154,-1,2,2
-164.15,21.02,-73.53,2924,-7578,2219,-2,2,0
-164.15,20.99,-73.53,2917,-7548,2222,-2,3,-2
-164.11,21.00,-73.53,2883,-7526,2186,-2,3,-3
-164.07,21.01,-73.52,2848,-7532,2148,0,2,-3
-164.03,21.05,-73.47,2865,-7538,2165,0,2,-3
-163.97,21.09,-73.45,2909,-7557,2103,0,1,-4
-163.91,21.15,-73.38,2973,-7517,2127,2,2,-3
-163.87,21.21,-73.27,2975,-7445,2203,1,1,-3
-163.80,21.28,-73.21,3023,-7422,2213,1,1,-3
-163.73,21.35,-73.15,3057,-7382,2230,1,1,-3
-163.69,21.40,-73.10,3063,-7373,2233,1,0,-3
-163.64,21.46,-73.06,3091,-7370,2246,1,0,-2
-163.60,21.49,-73.05,3109,-7398,2224,0,0,-1
-163.59,21.51,-73.01,3115,-7423,2229,1,0,-1
-163.60,21.51,-72.97,3101,-7415,2216,2,0,0
-163.63,21.50,-72.90,3090,-7392,2250,1,0,0
-163.65,21.50,-72.85,3079,-7387,2259,1,0,-1
-163.66,21.50,-72.79,3075,-7380,2272,1,1,-1
-163.69,21.48,-72.73,3026,-7363,2272,1,0,0
-163.72,21.47,-72.66,3020,-7349,2287,2,0,0
-163.73,21.47,-72.58,3033,-7376,2277,2,2,-1
-163.73,21.48,-72.44,3077,-7406,2265,4,5,-1
-163.79,21.44,-72.26,3023,-7301,2363,3,3,-1
-163.81,21.44,-72.15,2973,-7261,2405,1,1,-1
-163.80,21.46,-72.10,2927,-7367,2411,1,-2,-2
-163.79,21.50,-72.03,2969,-7435,2472,3,-2,-2
-163.78,21.53,-71.96,2932,-7419,2494,0,0,-3
-163.70,21.62,-71.96,2942,-7407,2486,0,-3,-4
-163.59,21.74,-71.99,2977,-7374,2497,-2,-4,-4
-163.47,21.86,-72.07,3032,-7361,2436,-3,-4,-4
-163.36,21.96,-72.15,3092,-7329,2375,-2,-3,-3
-163.27,22.05,-72.21,3138,-7280,2409,-3,-4,-2
-163.17,22.13,-72.30,3195,-7257,2433,-4,-4,-2
-163.08,22.20,-72.44,3214,-7269,2386,-5,-3,-2
-163.00,22.25,-72.60,3225,-7304,2316,-5,-3,-1
-162.95,22.27,-72.74,3211,-7317,2293,-5,-3,0
-162.90,22.29,-72.87,3204,-7329,2288,-4,-3,0
-162.87,22.29,-73.01,3193,-7334,2280,-5,-3,0
-162.84,22.29,-73.19,3165,-7373,2233,-5,-3,0
-162.80,22.30,-73.35,3175,-7412,2195,-5,-3,0
-162.79,22.28,-73.49,3157,-7423,2189,-4,-3,1
-162.77,22.28,-73.63,3152,-7421,2164,-5,-3,0
-162.75,22.26,-73.76,3128,-7442,2105,-3,-3,0
-162.74,22.26,-73.87,3118,-7453,2099,-3,-3,0
-162.73,22.26,-73.97,3140,-7493,2059,-3,-2,-1
-162.70,22.27,-74.03,3157,-7503,2049,-1,-1,-1
-162.68,22.29,-74.06,3168,-7501,2046,-1,-1,-1
-162.66,22.31,-74.05,3171,-7472,2060,0,0,-1
-162.62,22.35,-74.05,3189,-7450,2072,0,0,-2
-162.60,22.36,-74.02,3213,-7460,2082,0,1,-1
-162.59,22.38,-73.98,3200,-7438,2089,1,1,-1
-162.58,22.39,-73.93,3187,-7412,2106,1,1,-1
-162.57,22.39,-73.88,3176,-7419,2106,1,1,-1
-162.57,22.40,-73.82,3170,-7414,2112,1,1,-2
-162.56,22.42,-73.75,3185,-7398,2140,1,1,-1
-162.57,22.43,-73.68,3162,-7388,2156,1,1,-1
-162.57,22.43,-73.64,3166,-7384,2168,1,0,-1
-162.59,22.43,-73.60,3149,-7360,2187,0,0,0
-162.59,22.43,-73.58,3172,-7361,2200,0,0,0
-162.60,22.43,-73.57,3176,-7373,2204,0,0,0
-162.60,22.42,-73.56,3169,-7371,2191,0,0,0
-162.61,22.42,-73.56,3138,-7363,2169,0,-1,-1
-162.61,22.42,-73.55,3168,-7357,2197,0,-1,0
-162.61,22.42,-73.55,3167,-7370,2167,-1,0,-1
-162.62,22.41,-73.54,3163,-7375,2179,0,0,-1
-162.62,22.41,-73.53,3148,-7376,2190,-1,-1,-1
-162.62,22.41,-73.54,3153,-7381,2169,-1,-1,-1
-162.62,22.41,-73.55,3146,-7380,2177,0,-1,0
-162.62,22.42,-73.56,3153,-7381,2158,-1,-2,0
-162.62,22.42,-73.58,3155,-7384,2142,0,-2,0
-162.62,22.44,-73.58,3156,-7376,2148,0,-2,0
-162.61,22.45,-73.60,3168,-7380,2146,0,-2,-1
-162.62,22.47,-73.60,3157,-7375,2149,0,-2,0
-162.63,22.47,-73.61,3146,-7373,2153,0,-3,0
-162.63,22.48,-73.62,3166,-7374,2179,-1,-3,0
-162.63,22.50,-73.64,3188,-7396,2159,-1,-2,0
-162.62,22.50,-73.66,3188,-7408,2137,0,-1,0
-162.63,22.50,-73.66,3173,-7391,2143,0,-1,0
-162.63,22.51,-73.65,3157,-7380,2158,0,-2,-1
-162.63,22.52,-73.66,3154,-7381,2155,0,-2,-1
-162.62,22.54,-73.66,3172,-7379,2151,0,-2,-1
-162.61,22.56,-73.66,3167,-7363,2140,0,-2,-1
-162.59,22.60,-73.65,3198,-7358,2160,0,-2,-1
-162.59,22.61,-73.66,3203,-7370,2156,0,-2,-1
-162.58,22.64,-73.64,3216,-7383,2165,0,-2,-1
-162.57,22.65,-73.64,3199,-7389,2175,0,-2,-1
-162.56,22.67,-73.64,3201,-7391,2150,0,-2,-1
-162.55,22.69,-73.65,3213,-7385,2144,0,-1,-1
-162.55,22.69,-73.64,3204,-7374,2145,0,-1,-1
-162.55,22.71,-73.63,3214,-7368,2142,0,-1,-1
-162.54,22.72,-73.62,3211,-7369,2157,0,-1,-1
-162.53,22.74,-73.62,3193,-7376,2148,0,-1,-1
-162.52,22.76,-73.62,3193,-7384,2138,0,-2,-1
-162.52,22.77,-73.60,3201,-7383,2153,0,-2,-1
-162.51,22.80,-73.60,3212,-7377,2169,0,-2,-1
-162.50,22.81,-73.59,3210,-7366,2170,0,-2,-1
-162.49,22.83,-73.58,3228,-7362,2178,0,-2,-1
-162.49,22.85,-73.58,3225,-7362,2160,0,-1,-1
-162.47,22.87,-73.58,3229,-7363,2163,0,-1,-1
-162.46,22.88,-73.58,3230,-7356,2159,0,-1,-1
-162.46,22.89,-73.58,3227,-7353,2168,0,-1,-1
-162.45,22.90,-73.59,3238,-7360,2158,0,-1,-1
-162.46,22.90,-73.58,3227,-7365,2168,0,-1,-1
-162.45,22.92,-73.58,3247,-7365,2170,0,-1,-1
-162.44,22.92,-73.59,3235,-7369,2143,0,-1,-1
-162.44,22.93,-73.57,3245,-7352,2160,0,-1,-1
-162.45,22.93,-73.58,3238,-7363,2147,-1,-1,0
-162.45,22.93,-73.57,3239,-7378,2150,0,-1,-1
-162.45,22.94,-73.57,3240,-7371,2168,0,-1,0
-162.46,22.93,-73.58,3226,-7375,2152,0,-1,0
-162.46,22.94,-73.57,3235,-7370,2161,0,-1,-1
-162.46,22.94,-73.57,3238,-7364,2163,0,-1,-1
-162.46,22.95,-73.57,3231,-7357,2152,0,-1,-1
-162.47,22.95,-73.56,3235,-7356,2152,0,-1,-1
-162.47,22.95,-73.56,3227,-7357,2151,0,-1,0
-162.47,22.95,-73.55,3232,-7351,2156,0,-1,-1
-162.47,22.96,-73.55,3242,-7346,2166,0,-1,0
-162.47,22.96,-73.55,3238,-7350,2169,-1,-1,0
-162.48,22.95,-73.57,3222,-7354,2155,-1,-1,0
-162.48,22.95,-73.58,3225,-7356,2147,-1,-1,0
-162.48,22.95,-73.60,3217,-7357,2139,0,-1,0
-162.49,22.95,-73.59,3226,-7355,2158,0,-1,0
-162.49,22.95,-73.60,3233,-7355,2158,0,-1,0
-162.49,22.95,-73.61,3232,-7364,2160,-1,-1,-1
-162.49,22.96,-73.63,3237,-7365,2148,-1,-1,0
-162.49,22.96,-73.65,3260,-7359,2151,-1,-1,0
-162.48,22.97,-73.66,3257,-7351,2147,-1,-1,0
-162.48,22.97,-73.67,3251,-7343,2137,-1,-1,0
-162.48,22.97,-73.68,3254,-7341,2141,-1,-1,0
-162.48,22.96,-73.69,3260,-7339,2146,-1,-1,0
-162.48,22.96,-73.72,3251,-7368,2118,-1,-1,0
-162.48,22.95,-73.73,3246,-7374,2132,-1,-1,0
-162.48,22.95,-73.75,3229,-7377,2146,-1,-1,0
-162.48,22.95,-73.78,3237,-7383,2131,-1,-1,0
-162.48,22.95,-73.81,3240,-7375,2117,-1,-1,0
-162.48,22.95,-73.82,3250,-7362,2141,-1,-1,0
-162.48,22.94,-73.85,3231,-7358,2123,-1,-1,0
-162.46,22.95,-73.88,3250,-7349,2130,-1,-1,0
-162.46,22.94,-73.91,3245,-7356,2131,-2,-1,0
-162.45,22.94,-73.95,3249,-7355,2130,-2,0,0
-162.45,22.92,-73.99,3251,-7358,2117,-2,0,0
-162.44,22.91,-74.04,3243,-7380,2104,-2,0,0
-162.44,22.90,-74.08,3255,-7378,2105,-2,0,0
-162.43,22.89,-74.13,3238,-7391,2068,-2,0,0
-162.42,22.88,-74.16,3225,-7378,2091,-2,0,0
-162.42,22.87,-74.20,3213,-7374,2075,-2,0,0
-162.41,22.87,-74.23,3205,-7389,2054,-1,-1,-1
-162.40,22.87,-74.26,3222,-7392,2063,-1,-1,-1
-162.38,22.87,-74.30,3227,-7397,2062,-2,0,-1
-162.37,22.88,-74.32,3241,-7408,2064,-1,0,-1
-162.35,22.88,-74.35,3233,-7400,2058,-2,0,0
-162.35,22.87,-74.36,3241,-7389,2072,-1,0,0
-162.33,22.88,-74.40,3234,-7398,2053,-2,0,-1
-162.33,22.87,-74.41,3246,-7402,2036,-1,0,0
-162.32,22.87,-74.42,3221,-7398,2060,-1,0,0
-162.32,22.86,-74.44,3212,-7394,2056,-1,0,-1
-162.31,22.86,-74.47,3230,-7396,2054,-2,0,-1
-162.30,22.86,-74.50,3221,-7404,2032,-1,0,0
-162.29,22.85,-74.51,3235,-7406,2046,-1,0,0
-162.29,22.84,-74.53,3208,-7400,2023,-1,0,0
-162.29,22.84,-74.56,3216,-7407,2023,-1,-1,0
-162.28,22.83,-74.57,3226,-7410,2035,-1,0,0
-162.28,22.83,-74.60,3230,-7403,2038,-1,0,0
-162.28,22.83,-74.61,3231,-7399,2048,-1,0,0
-162.27,22.82,-74.65,3222,-7412,2018,-2,-1,-1
-162.26,22.82,-74.68,3240,-7407,2026,-1,0,0
-162.25,22.81,-74.72,3217,-7413,1998,-2,0,0
-162.24,22.81,-74.74,3217,-7417,1987,-1,0,-1
-162.23,22.81,-74.76,3225,-7417,1992,-1,0,-1
-162.22,22.81,-74.78,3228,-7414,1988,-1,-1,-1
-162.21,22.82,-74.79,3220,-7403,2001,-1,-1,-1
-162.20,22.82,-74.81,3203,-7395,1985,-1,-1,-1
-162.20,22.82,-74.82,3209,-7396,2005,-1,-1,0
-162.18,22.84,-74.85,3225,-7418,1975,0,-1,-1
-162.18,22.85,-74.84,3233,-7414,1998,0,-1,-1
-162.18,22.85,-74.84,3205,-7418,1983,0,-1,-1
-162.17,22.86,-74.85,3205,-7418,1974,0,-2,-1
-162.17,22.87,-74.85,3221,-7418,1987,0,-1,-1
-162.17,22.88,-74.84,3225,-7412,1989,0,-1,-1
-162.16,22.90,-74.84,3225,-7410,1982,0,-1,-1
-162.16,22.91,-74.82,3229,-7396,1985,0,-2,-1
-162.15,22.93,-74.82,3245,-7397,1980,0,-1,-1
-162.14,22.95,-74.80,3223,-7398,1980,1,-1,-1
-162.15,22.96,-74.78,3228,-7387,2000,1,-2,-1
-162.14,22.98,-74.77,3232,-7388,2008,0,-2,-1
-162.14,23.00,-74.76,3240,-7395,2009,0,-2,-1
-162.13,23.01,-74.76,3249,-7398,2012,0,-2,-1
-162.13,23.02,-74.75,3241,-7397,2017,0,-2,-1
-162.13,23.03,-74.75,3251,-7402,2021,0,-2,-1
-162.13,23.05,-74.75,3254,-7399,2022,0,-1,-1
-162.12,23.06,-74.75,3252,-7398,2016,0,-1,-1
-162.12,23.07,-74.75,3252,-7399,2007,0,-1,-1
-162.11,23.08,-74.75,3253,-7392,2001,0,-1,-1
-162.11,23.09,-74.74,3268,-7390,2023,0,-1,0
-162.11,23.10,-74.74,3274,-7410,2003,0,-1,-1
-162.10,23.11,-74.73,3271,-7403,2020,0,-1,-1
-162.10,23.11,-74.72,3256,-7390,2027,0,-1,-1
-162.10,23.13,-74.72,3254,-7384,2027,0,-1,-1
-162.09,23.13,-74.72,3261,-7384,2019,-1,-1,-1
-162.09,23.14,-74.73,3273,-7395,2011,0,-1,-1
-162.08,23.15,-74.73,3268,-7397,2005,0,-1,-1
-162.09,23.15,-74.73,3263,-7392,2000,0,-1,0
-162.09,23.16,-74.73,3265,-7377,2006,0,-1,0
-162.09,23.16,-74.74,3274,-7385,1996,-1,-1,-1
-162.08,23.17,-74.75,3276,-7397,1992,0,-1,-1
-162.08,23.17,-74.76,3266,-7405,1992,0,-1,-1
-162.08,23.18,-74.76,3269,-7403,1999,0,-1,-1
-162.07,23.19,-74.76,3266,-7394,2001,0,-1,-1
-162.07,23.19,-74.76,3274,-7390,2005,0,-1,0
-162.07,23.19,-74.76,3273,-7393,2004,0,-1,-1
-162.07,23.19,-74.76,3273,-7387,2005,0,-1,-1
-162.07,23.20,-74.76,3262,-7394,2007,0,-1,-1
-162.07,23.20,-74.76,3278,-7396,2011,0,-1,-1
-162.06,23.21,-74.76,3273,-7396,1998,0,0,-1
-162.07,23.21,-74.75,3270,-7385,2007,0,-1,0
-162.08,23.20,-74.75,3265,-7377,2005,-1,-1,0
-162.08,23.20,-74.75,3278,-7398,1996,0,-1,-1
-162.08,23.21,-74.75,3275,-7394,2011,0,-1,0
-162.09,23.20,-74.74,3256,-7385,2004,0,-1,0
-162.10,23.20,-74.73,3252,-7375,2000,0,-1,-1
-162.10,23.20,-74.74,3259,-7381,2006,0,-1,0
-162.10,23.20,-74.74,3270,-7389,2002,0,-1,0
-162.10,23.21,-74.75,3272,-7388,2002,0,-1,-1
-162.10,23.21,-74.75,3276,-7379,2006,-1,-1,-1
-162.09,23.21,-74.76,3274,-7393,1995,0,-1,-1
-162.09,23.22,-74.77,3279,-7393,1997,0,-1,-1
-162.09,23.22,-74.77,3279,-7385,2006,0,-1,0
-162.09,23.22,-74.77,3276,-7386,2012,-1,-1,0
-162.09,23.23,-74.77,3277,-7388,2009,0,-1,0
-162.09,23.23,-74.78,3281,-7393,2012,0,-1,0
-162.09,23.23,-74.78,3274,-7388,2004,-1,-1,-1
-162.09,23.24,-74.79,3273,-7388,1990,0,-1,-1
-162.09,23.24,-74.80,3281,-7390,1979,0,-1,0
-162.09,23.25,-74.80,3284,-7395,1994,0,-1,-1
-162.08,23.25,-74.81,3288,-7392,1985,0,-1,-1
-162.09,23.26,-74.80,3272,-7395,1978,0,-1,-1
-162.09,23.26,-74.79,3278,-7396,1996,0,-1,-1
-162.09,23.26,-74.79,3281,-7398,1983,0,-1,-1
-162.09,23.27,-74.79,3301,-7400,1982,0,-1,-1
-162.09,23.27,-74.77,3285,-7388,1990,0,-1,-1
-162.09,23.27,-74.76,3278,-7391,1992,0,-1,-1
-162.09,23.27,-74.76,3271,-7396,1986,0,-1,-1
-162.09,23.28,-74.76,3277,-7395,1991,0,-1,-1
-162.09,23.29,-74.75,3283,-7386,1992,0,-1,-1
-162.09,23.29,-74.74,3288,-7372,1993,0,0,-1
-162.08,23.29,-74.74,3288,-7371,1998,0,0,-1
-162.08,23.30,-74.73,3286,-7380,2002,0,0,-1
-162.09,23.30,-74.72,3284,-7381,2009,0,-1,-1
-162.08,23.30,-74.72,3286,-7387,2014,0,-1,-1
-162.08,23.31,-74.73,3287,-7392,2010,0,-1,-1
-162.08,23.31,-74.73,3297,-7384,2001,0,-1,0
-162.09,23.31,-74.72,3290,-7375,2004,0,-1,0
-162.09,23.31,-74.73,3290,-7368,1996,0,-1,0
-162.08,23.31,-74.73,3297,-7376,2008,-1,-1,-1
-162.08,23.31,-74.74,3301,-7381,2010,-1,0,-1
-162.07,23.31,-74.75,3296,-7387,2000,-1,0,-1
-162.06,23.31,-74.77,3297,-7387,1998,-1,0,-1
-162.05,23.31,-74.79,3293,-7382,2006,-1,0,-1
-162.05,23.30,-74.80,3293,-7375,2006,-2,0,0
-162.03,23.30,-74.82,3286,-7368,1995,-1,0,-1
-162.02,23.30,-74.84,3295,-7365,2012,-2,1,-1
-162.01,23.29,-74.87,3282,-7394,1974,-2,0,-1
-161.99,23.29,-74.88,3300,-7396,1973,-1,1,-1
-161.99,23.29,-74.89,3280,-7393,1994,-2,1,-1
-161.97,23.28,-74.92,3269,-7392,1962,-2,0,-1
-161.96,23.28,-74.94,3276,-7393,1968,-1,0,0
-161.96,23.27,-74.96,3285,-7395,1979,-1,0,0
-161.95,23.27,-74.98,3304,-7394,1992,-1,0,-1
-161.95,23.25,-74.99,3296,-7383,1990,-1,0,0
-161.94,23.25,-75.02,3279,-7379,1980,-2,0,0
-161.94,23.24,-75.05,3281,-7388,1984,-2,0,0
-161.93,23.23,-75.08,3276,-7405,1962,-1,0,0
-161.92,23.23,-75.09,3282,-7403,1963,-1,0,0
-161.92,23.21,-75.12,3274,-7413,1961,-2,0,-1
-161.91,23.21,-75.14,3285,-7419,1947,-1,0,0
-161.91,23.20,-75.16,3272,-7397,1963,-1,0,0
-161.90,23.20,-75.19,3270,-7407,1946,-2,0,0
-161.89,23.20,-75.22,3269,-7409,1931,-1,-1,0
-161.88,23.20,-75.24,3282,-7409,1942,-1,0,0
-161.87,23.19,-75.27,3283,-7402,1940,-1,0,-1
-161.87,23.18,-75.30,3258,-7405,1941,-2,-1,0
-161.85,23.18,-75.34,3280,-7414,1927,-2,0,-1
-161.85,23.17,-75.36,3273,-7402,1931,-2,0,0
-161.85,23.16,-75.39,3287,-7423,1907,-1,0,0
-161.85,23.16,-75.39,3289,-7413,1933,-1,0,0
-161.85,23.15,-75.42,3262,-7422,1907,-1,0,0
-161.84,23.15,-75.43,3266,-7433,1894,-1,0,0
-161.85,23.14,-75.44,3257,-7435,1914,-1,0,0
-161.85,23.14,-75.45,3258,-7438,1912,0,0,0
-161.85,23.13,-75.44,3267,-7430,1919,-1,-1,0
-161.85,23.13,-75.45,3275,-7412,1921,-1,0,0
-161.84,23.13,-75.46,3276,-7421,1902,-1,0,-1
-161.84,23.14,-75.46,3260,-7424,1892,0,0,-1
-161.83,23.15,-75.45,3267,-7411,1905,0,-1,-1
-161.84,23.14,-75.44,3248,-7420,1901,0,-1,-1
-161.84,23.15,-75.43,3256,-7422,1905,0,-1,-1
-161.83,23.16,-75.42,3252,-7424,1908,0,-1,-1
-161.84,23.16,-75.41,3261,-7416,1914,0,-1,-1
-161.84,23.17,-75.40,3264,-7406,1916,0,-1,-1
-161.84,23.18,-75.39,3266,-7399,1934,0,-1,-1
-161.84,23.19,-75.38,3257,-7414,1919,0,-1,-1
-161.83,23.20,-75.38,3273,-7410,1925,0,-1,-1
-161.83,23.21,-75.37,3283,-7402,1935,0,-1,0
-161.84,23.21,-75.36,3301,-7416,1932,0,-1,-1
-161.84,23.22,-75.34,3294,-7414,1942,0,-1,-1
-161.84,23.23,-75.33,3280,-7403,1940,0,-1,-1
-161.84,23.23,-75.32,3273,-7394,1930,0,-1,-1
-161.83,23.25,-75.33,3267,-7392,1924,0,-1,-1
-161.83,23.25,-75.32,3256,-7394,1933,0,-2,-1
-161.83,23.27,-75.33,3268,-7403,1919,0,-2,-1
-161.82,23.28,-75.33,3271,-7406,1933,0,-2,-1
-161.82,23.29,-75.34,3272,-7408,1921,0,-1,-1
-161.81,23.30,-75.35,3291,-7414,1912,0,-2,-1
-161.80,23.32,-75.35,3304,-7418,1931,0,-1,-1
-161.80,23.32,-75.35,3298,-7417,1926,0,-1,-1
-161.79,23.33,-75.34,3302,-7407,1920,0,-1,-1
-161.79,23.34,-75.34,3297,-7403,1931,0,-1,-1
-161.80,23.34,-75.34,3291,-7410,1929,0,-1,-1
-161.80,23.34,-75.34,3294,-7399,1926,0,-1,0
-161.80,23.35,-75.34,3276,-7397,1935,0,-1,-1
-161.80,23.35,-75.33,3286,-7399,1936,0,-1,-1
-161.80,23.35,-75.34,3275,-7402,1910,0,-1,-1
-161.80,23.36,-75.34,3289,-7400,1933,0,-1,-1
-161.79,23.37,-75.34,3290,-7402,1933,0,-1,-1
-161.79,23.39,-75.33,3312,-7405,1938,0,-1,-1
-161.79,23.39,-75.32,3307,-7404,1935,0,-1,-1
-161.79,23.40,-75.32,3297,-7396,1925,0,-1,-1
-161.79,23.40,-75.32,3286,-7386,1928,0,-1,-1
-161.79,23.41,-75.32,3292,-7386,1932,0,-1,-1
-161.78,23.42,-75.33,3300,-7393,1917,0,-1,-1
-161.79,23.42,-75.32,3297,-7386,1922,0,-1,-1
-161.78,23.44,-75.32,3301,-7390,1922,0,-1,-1
-161.78,23.44,-75.32,3301,-7397,1909,0,-1,-1
-161.78,23.45,-75.32,3303,-7406,1921,0,-1,-1
-161.78,23.46,-75.31,3312,-7403,1925,0,-1,-1
-161.79,23.45,-75.30,3304,-7402,1923,0,-1,-1
-161.79,23.46,-75.29,3301,-7398,1932,0,-1,-1
-161.79,23.46,-75.29,3305,-7390,1932,0,-1,-1
-161.80,23.47,-75.27,3303,-7392,1933,0,-1,-1
-161.79,23.47,-75.27,3312,-7392,1937,0,-1,-1
-161.79,23.48,-75.27,3308,-7395,1934,0,-1,-1
-161.78,23.49,-75.27,3322,-7397,1935,0,-1,-1
-161.79,23.49,-75.27,3298,-7401,1926,0,-1,-1
-161.78,23.50,-75.27,3313,-7382,1932,0,-1,-1
-161.78,23.50,-75.27,3312,-7384,1935,-1,-1,0
-161.78,23.51,-75.28,3321,-7399,1923,0,-1,-1
-161.78,23.51,-75.27,3319,-7396,1927,0,-1,0
-161.78,23.51,-75.27,3302,-7398,1915,0,-1,-1
-161.78,23.52,-75.27,3306,-7391,1919,0,-1,-1
-161.78,23.53,-75.27,3320,-7400,1927,0,-1,-1
-161.78,23.53,-75.25,3315,-7398,1918,0,-1,-1
-161.78,23.53,-75.24,3307,-7385,1916,0,-1,-1
-161.78,23.54,-75.23,3319,-7376,1933,0,-1,-1
-161.78,23.54,-75.23,3322,-7383,1923,0,-1,-1
-161.78,23.55,-75.22,3314,-7389,1923,0,-1,-1
-161.79,23.55,-75.20,3322,-7392,1933,0,-1,-1
-161.79,23.55,-75.20,3319,-7391,1939,0,-1,-1
-161.79,23.55,-75.19,3316,-7389,1941,0,-1,-1
-161.80,23.55,-75.19,3323,-7384,1951,0,-1,0
-161.79,23.56,-75.20,3324,-7382,1948,0,-1,0
-161.80,23.56,-75.19,3319,-7384,1943,0,-1,0
-161.80,23.56,-75.19,3327,-7385,1940,0,-1,0
-161.80,23.55,-75.19,3315,-7388,1937,0,-1,0
-161.81,23.55,-75.21,3305,-7394,1927,-1,-1,-1
-161.81,23.56,-75.21,3333,-7397,1935,0,0,-1
-161.80,23.56,-75.20,3319,-7393,1932,0,0,-1
-161.80,23.56,-75.20,3319,-7391,1926,0,0,-1
-161.81,23.56,-75.19,3330,-7390,1933,-1,0,0
-161.81,23.56,-75.19,3334,-7407,1930,0,0,-1
-161.81,23.56,-75.17,3332,-7398,1938,0,1,0
-161.82,23.54,-75.17,3307,-7388,1939,-1,-1,-1
-161.83,23.54,-75.15,3318,-7378,1951,0,0,0
-161.83,23.53,-75.15,3327,-7379,1954,-1,0,0
-161.83,23.53,-75.14,3332,-7372,1943,0,0,0
-161.84,23.52,-75.14,3308,-7381,1949,-1,-1,0
-161.84,23.52,-75.15,3328,-7383,1939,-1,0,0
-161.85,23.51,-75.16,3324,-7374,1963,-1,-1,0
-161.85,23.51,-75.15,3323,-7368,1962,-1,1,0
-161.86,23.49,-75.17,3299,-7377,1954,-1,-1,0
-161.86,23.48,-75.20,3301,-7362,1973,-1,-1,0
-161.85,23.48,-75.24,3311,-7354,1963,-2,-1,0
-161.85,23.46,-75.29,3308,-7379,1945,-2,-1,0
-161.84,23.45,-75.32,3333,-7364,1954,-2,0,0
-161.85,23.43,-75.39,3298,-7400,1916,-2,-1,0
-161.85,23.41,-75.43,3335,-7401,1920,-2,0,0
-161.86,23.38,-75.46,3279,-7416,1907,-2,0,0
-161.85,23.37,-75.51,3312,-7433,1881,-1,0,0
-161.86,23.36,-75.51,3265,-7416,1902,-1,0,0
-161.84,23.37,-75.53,3336,-7409,1903,-1,1,-1
-161.84,23.35,-75.55,3287,-7416,1892,-2,0,0
-161.82,23.36,-75.56,3305,-7424,1877,0,0,0
-161.84,23.34,-75.56,3283,-7425,1880,-1,-1,-1
-161.83,23.34,-75.57,3296,-7414,1906,-1,0,0
-161.82,23.35,-75.57,3288,-7388,1920,-1,0,0
-161.82,23.34,-75.60,3310,-7413,1885,-1,0,0
-161.82,23.33,-75.61,3275,-7412,1900,-1,0,-1
-161.82,23.33,-75.61,3292,-7407,1882,0,1,0
-161.82,23.32,-75.63,3272,-7410,1894,-2,-1,0
-161.81,23.32,-75.64,3290,-7407,1886,-1,0,-1
-161.81,23.32,-75.66,3288,-7416,1881,-1,-1,-1
-161.80,23.32,-75.66,3304,-7401,1892,-1,0,0
-161.79,23.32,-75.66,3267,-7419,1885,-1,0,-1
-161.78,23.33,-75.67,3297,-7421,1883,-1,0,-1
-161.78,23.33,-75.67,3294,-7421,1891,-1,0,-1
-161.78,23.33,-75.67,3286,-7414,1879,-1,0,-1
-161.77,23.33,-75.66,3292,-7414,1881,-1,0,-1
-161.76,23.33,-75.66,3297,-7411,1880,0,0,-1
-161.75,23.34,-75.65,3296,-7408,1890,0,0,-1
-161.75,23.35,-75.64,3276,-7409,1886,0,0,-1
-161.73,23.36,-75.63,3289,-7410,1899,0,0,-1
-161.73,23.36,-75.63,3295,-7416,1886,-1,0,-1
-161.73,23.36,-75.62,3305,-7425,1895,0,0,-1
-161.72,23.37,-75.62,3290,-7421,1895,0,0,-1
-161.73,23.36,-75.62,3286,-7416,1894,-1,0,0
-161.73,23.36,-75.62,3281,-7412,1889,-1,0,-1
-161.72,23.36,-75.62,3286,-7410,1894,-1,0,-1
-161.73,23.36,-75.63,3279,-7416,1895,-1,-1,-1
-161.72,23.36,-75.63,3289,-7412,1882,-1,-1,-1
-161.71,23.36,-75.65,3299,-7415,1881,-1,-1,-1
-161.70,23.37,-75.66,3301,-7421,1869,0,0,-1
-161.70,23.38,-75.66,3304,-7411,1873,0,0,-1
-161.69,23.38,-75.66,3301,-7410,1866,0,0,-1
-161.68,23.39,-75.66,3307,-7412,1862,0,0,-1
-161.68,23.39,-75.65,3293,-7409,1871,0,0,-1
-161.68,23.39,-75.66,3277,-7406,1876,0,-1,-1
-161.68,23.39,-75.65,3281,-7402,1878,0,-1,-1
-161.68,23.40,-75.65,3283,-7412,1867,0,-1,-1
-161.68,23.41,-75.65,3284,-7412,1867,0,-1,-1
-161.68,23.42,-75.65,3286,-7409,1864,0,-2,-1
-161.68,23.42,-75.65,3295,-7404,1887,0,-1,-1
-161.68,23.43,-75.65,3313,-7420,1883,0,-1,-1
-161.68,23.44,-75.64,3313,-7415,1888,0,-1,-1
-161.69,23.43,-75.64,3302,-7412,1883,0,-1,-1
-161.68,23.44,-75.63,3296,-7409,1878,0,-1,-1
-161.68,23.45,-75.63,3307,-7409,1881,0,-1,-1
-161.68,23.46,-75.63,3302,-7405,1873,0,-1,-1
-161.68,23.46,-75.62,3307,-7394,1884,0,-1,-1
-161.68,23.47,-75.61,3308,-7389,1890,0,-1,-1
-161.68,23.48,-75.61,3315,-7380,1904,-1,-1,-1
-161.67,23.49,-75.62,3313,-7402,1888,0,-1,-1
-161.66,23.50,-75.62,3321,-7405,1889,0,-1,-1
-161.67,23.50,-75.62,3321,-7407,1884,0,-1,0
-161.67,23.51,-75.63,3318,-7408,1878,0,-1,0
-161.66,23.51,-75.63,3309,-7414,1876,0,-1,-1
-161.67,23.52,-75.64,3309,-7426,1877,0,-1,-1
-161.66,23.52,-75.64,3319,-7407,1878,0,-1,-1
-161.66,23.53,-75.64,3309,-7424,1882,0,-1,-1
-161.66,23.53,-75.64,3310,-7414,1883,0,-1,-1
-161.66,23.54,-75.62,3316,-7414,1880,0,-1,-1
-161.65,23.55,-75.62,3329,-7400,1876,0,-1,-1
-161.66,23.55,-75.61,3331,-7387,1888,0,0,-1
-161.66,23.55,-75.60,3326,-7386,1894,-1,-1,0
-161.66,23.55,-75.60,3332,-7401,1890,0,-1,-1
-161.67,23.55,-75.57,3324,-7391,1910,0,-1,0
-161.68,23.55,-75.57,3307,-7392,1886,0,-1,-1
-161.68,23.55,-75.56,3312,-7382,1896,0,-1,-1
-161.67,23.57,-75.56,3322,-7390,1905,0,-1,-1
-161.68,23.57,-75.56,3320,-7396,1900,0,-1,-1
-161.68,23.57,-75.56,3322,-7405,1891,0,-1,-1
-161.68,23.58,-75.55,3322,-7401,1896,0,-1,-1
-161.68,23.58,-75.56,3323,-7409,1889,0,-1,-1
-161.68,23.58,-75.55,3318,-7404,1898,0,-1,-1
-161.68,23.58,-75.55,3329,-7410,1902,0,-1,0
-161.69,23.58,-75.55,3333,-7409,1885,0,-1,0
-161.69,23.58,-75.54,3321,-7400,1895,0,-1,0
-161.69,23.58,-75.54,3320,-7394,1909,-1,-1,0
-161.68,23.59,-75.55,3331,-7389,1899,-1,-1,-1
-161.68,23.59,-75.57,3327,-7406,1900,-1,-1,0
-161.68,23.59,-75.58,3329,-7411,1888,-1,-1,0
-161.68,23.59,-75.58,3344,-7385,1916,-1,-1,0
-161.68,23.59,-75.59,3321,-7390,1885,0,-1,0
-161.69,23.58,-75.59,3312,-7376,1913,-2,-1,0
-161.68,23.58,-75.62,3340,-7386,1863,-1,-1,0
-161.70,23.57,-75.62,3328,-7394,1872,0,-1,0
-161.69,23.58,-75.62,3329,-7401,1892,-1,-1,0
-161.70,23.57,-75.63,3332,-7401,1872,-1,-1,-1
-161.70,23.57,-75.63,3328,-7395,1893,0,-1,0
-161.70,23.57,-75.63,3323,-7410,1882,0,-1,0
-161.71,23.57,-75.64,3339,-7408,1863,0,0,-1
-161.71,23.57,-75.63,3324,-7396,1884,-1,0,-1
-161.71,23.58,-75.62,3326,-7401,1862,0,0,0
-161.71,23.57,-75.62,3300,-7405,1839,0,-1,-1
-161.71,23.58,-75.60,3330,-7397,1867,1,0,-1
-161.73,23.58,-75.56,3325,-7378,1916,0,0,0
-161.72,23.59,-75.57,3308,-7399,1876,0,-1,-1
-161.73,23.59,-75.54,3319,-7393,1897,0,-1,-1
-161.73,23.60,-75.53,3339,-7393,1900,0,-1,-1
-161.73,23.61,-75.52,3321,-7394,1886,0,-1,-1
-161.74,23.61,-75.50,3323,-7379,1901,0,-1,-1
-161.73,23.62,-75.49,3319,-7380,1906,0,-1,-1
-161.73,23.62,-75.50,3328,-7383,1903,0,-1,0
-161.73,23.63,-75.50,3320,-7386,1901,0,-1,-1
-161.73,23.63,-75.49,3336,-7389,1921,0,-1,-1
-161.74,23.63,-75.49,3324,-7385,1902,-1,-1,0
-161.74,23.63,-75.49,3337,-7404,1902,0,-1,-1
-161.75,23.63,-75.49,3322,-7396,1910,0,0,0
-161.75,23.62,-75.49,3312,-7402,1881,0,-1,-1
-161.75,23.62,-75.50,3315,-7399,1888,-1,-1,0
-161.75,23.62,-75.50,3337,-7388,1891,0,-1,0
-161.75,23.62,-75.50,3310,-7388,1906,-1,-1,0
-161.76,23.61,-75.52,3337,-7397,1890,0,0,0
-161.77,23.61,-75.51,3315,-7384,1922,-1,-1,0
-161.77,23.60,-75.52,3345,-7408,1885,1,0,0
-161.79,23.59,-75.51,3317,-7370,1930,-1,-1,0
-161.78,23.59,-75.54,3344,-7402,1897,0,-1,0
-161.79,23.59,-75.53,3321,-7376,1929,-1,-1,0
-161.80,23.58,-75.55,3333,-7421,1873,0,0,0
-161.80,23.57,-75.54,3333,-7421,1887,-1,0,0
-161.81,23.55,-75.55,3329,-7398,1902,-1,0,0
-161.82,23.54,-75.56,3277,-7418,1854,0,-1,0
-161.82,23.54,-75.55,3331,-7401,1929,-1,-1,0
-161.83,23.53,-75.56,3338,-7386,1906,-1,0,0
-161.84,23.52,-75.56,3304,-7384,1898,0,0,0
-161.84,23.51,-75.57,3290,-7387,1892,-1,-1,-1
-161.83,23.52,-75.57,3361,-7373,1943,-1,0,0
-161.82,23.51,-75.62,3341,-7402,1876,-2,-1,-1
-161.82,23.51,-75.61,3323,-7397,1898,0,0,0
-161.82,23.49,-75.63,3317,-7410,1898,-2,0,0
-161.82,23.49,-75.66,3316,-7404,1861,0,-1,0
-161.82,23.48,-75.67,3303,-7411,1872,-1,0,-1
-161.81,23.48,-75.68,3318,-7396,1877,-1,-1,0
-161.80,23.48,-75.69,3316,-7411,1869,-1,0,-1
-161.80,23.49,-75.70,3308,-7416,1842,0,-1,-1
-161.79,23.49,-75.69,3293,-7409,1869,0,0,-1
-161.78,23.50,-75.71,3319,-7419,1852,-1,-1,-1
-161.77,23.51,-75.71,3326,-7423,1863,0,1,-1
-161.76,23.50,-75.69,3320,-7418,1895,-1,0,-1
-161.75,23.51,-75.71,3321,-7423,1844,0,0,-1
-161.75,23.51,-75.70,3334,-7407,1873,-1,0,-1
-161.74,23.51,-75.69,3319,-7394,1879,0,1,-1
-161.74,23.51,-75.69,3317,-7396,1874,-1,0,-1
-161.73,23.52,-75.69,3331,-7395,1874,-1,0,-1
-161.73,23.51,-75.69,3311,-7392,1885,-1,0,-1
-161.72,23.51,-75.70,3280,-7399,1859,-1,0,-1
-161.71,23.52,-75.71,3308,-7398,1862,-1,-1,-1
-161.70,23.52,-75.72,3319,-7403,1879,-1,0,-1
-161.70,23.52,-75.73,3317,-7422,1859,-1,0,-1
-161.68,23.53,-75.73,3317,-7421,1874,-1,0,-1
-161.68,23.53,-75.74,3312,-7412,1864,-1,0,-1
-161.68,23.53,-75.73,3314,-7409,1861,0,0,-1
-161.67,23.54,-75.73,3310,-7408,1865,-1,0,-1
-161.67,23.54,-75.73,3309,-7408,1855,0,0,-1
-161.66,23.54,-75.73,3320,-7405,1867,0,0,-1
-161.66,23.55,-75.72,3318,-7406,1870,0,0,-1
-161.66,23.55,-75.72,3325,-7410,1869,0,0,-1
-161.66,23.55,-75.70,3330,-7406,1882,0,0,-1
-161.65,23.55,-75.69,3325,-7400,1878,0,0,-1
-161.65,23.55,-75.67,3319,-7387,1894,0,0,-1
-161.65,23.56,-75.67,3310,-7383,1886,-1,0,-1
-161.65,23.56,-75.67,3305,-7388,1882,-1,0,-1
-161.65,23.56,-75.68,3314,-7392,1870,-1,-1,-1
-161.65,23.56,-75.68,3317,-7393,1874,-1,0,0
-161.64,23.56,-75.68,3313,-7398,1869,-1,-1,-1
-161.64,23.56,-75.69,3321,-7402,1879,-1,-1,0
-161.64,23.56,-75.71,3314,-7400,1874,-1,-1,-1
-161.64,23.56,-75.71,3316,-7401,1890,-1,0,0
-161.64,23.56,-75.71,3326,-7399,1880,-1,0,0
-161.64,23.55,-75.71,3320,-7405,1872,0,0,0
-161.64,23.55,-75.71,3314,-7395,1887,0,0,0
-161.65,23.55,-75.71,3309,-7387,1878,0,0,-1
-161.65,23.55,-75.71,3311,-7401,1881,0,0,-1
-161.65,23.55,-75.71,3303,-7411,1870,0,-1,-1
-161.65,23.55,-75.70,3316,-7412,1861,0,-1,-1
-161.64,23.56,-75.70,3323,-7402,1868,0,-1,-1
-161.64,23.56,-75.69,3329,-7394,1874,0,-1,-1
-161.64,23.57,-75.69,3331,-7393,1875,0,-1,-1
-161.63,23.58,-75.69,3332,-7389,1877,0,-1,-1
-161.64,23.58,-75.68,3332,-7391,1879,0,-1,0
-161.64,23.58,-75.68,3318,-7391,1878,0,-1,0
-161.65,23.57,-75.69,3316,-7396,1876,0,-1,0
-161.66,23.57,-75.69,3305,-7396,1875,0,-1,0
-161.66,23.58,-75.69,3304,-7397,1882,0,-1,0
-161.66,23.58,-75.70,3306,-7404,1882,0,-1,-1
-161.65,23.58,-75.71,3311,-7419,1865,0,-1,-1
-161.65,23.59,-75.71,3316,-7415,1870,0,-1,-1
-161.64,23.60,-75.72,3314,-7410,1860,0,-1,-1
-161.64,23.61,-75.70,3320,-7399,1865,0,-1,-1
-161.63,23.62,-75.70,3341,-7398,1870,0,-1,-1
-161.63,23.63,-75.69,3347,-7404,1869,0,-1,-1
-161.64,23.63,-75.68,3339,-7394,1879,0,0,-1
-161.64,23.63,-75.67,3323,-7405,1870,0,-1,-1
-161.64,23.63,-75.67,3328,-7395,1880,0,-1,-1
-161.64,23.64,-75.67,3334,-7400,1876,0,-1,-1
-161.63,23.65,-75.66,3332,-7400,1867,0,-1,-1
-161.64,23.65,-75.66,3328,-7396,1861,0,-1,-1
-161.64,23.65,-75.65,3330,-7388,1879,0,-1,-1
-161.63,23.66,-75.65,3328,-7382,1885,0,-1,-1
-161.63,23.67,-75.65,3326,-7390,1880,0,-1,-1
-161.63,23.68,-75.65,3341,-7399,1878,0,-1,-1
-161.63,23.68,-75.64,3341,-7401,1875,0,-1,-1
-161.64,23.68,-75.63,3333,-7395,1886,0,-1,0
-161.64,23.68,-75.62,3329,-7397,1883,0,-1,-1
-161.64,23.68,-75.62,3333,-7381,1886,0,-1,-1
-161.65,23.69,-75.61,3326,-7386,1886,0,-1,-1
-161.65,23.69,-75.61,3339,-7389,1877,0,-1,-1
-161.65,23.70,-75.60,3340,-7395,1878,0,-1,-1
-161.65,23.70,-75.60,3331,-7386,1888,0,-1,-1
-161.65,23.70,-75.60,3331,-7381,1889,0,-1,-1
-161.64,23.71,-75.60,3336,-7376,1897,0,-1,-1
-161.65,23.71,-75.59,3346,-7381,1900,0,-1,0
-161.65,23.71,-75.59,3353,-7394,1895,0,-1,-1
-161.65,23.71,-75.59,3343,-7398,1888,0,-1,0
-161.65,23.71,-75.59,3333,-7402,1878,0,-1,0
-161.66,23.71,-75.59,3342,-7391,1896,0,-1,0
-161.66,23.71,-75.59,3344,-7396,1900,0,-1,0
-161.67,23.71,-75.59,3338,-7400,1884,0,-1,0
-161.67,23.71,-75.59,3343,-7402,1875,0,-1,-1
-161.67,23.72,-75.59,3354,-7394,1877,0,-1,-1
-161.67,23.72,-75.58,3362,-7395,1878,0,0,0
-161.67,23.72,-75.58,3349,-7396,1867,0,-1,-1
-161.68,23.72,-75.56,3379,-7390,1903,0,0,0
-161.68,23.72,-75.55,3348,-7385,1889,0,-1,-1
-161.69,23.72,-75.55,3346,-7384,1878,0,-1,0
-161.69,23.72,-75.55,3357,-7397,1881,-1,-1,0
-161.69,23.72,-75.55,3351,-7388,1882,0,-1,0
-161.70,23.72,-75.53,3336,-7368,1900,0,-1,-1
-161.71,23.72,-75.52,3344,-7371,1909,-1,-1,0
-161.70,23.72,-75.53,3346,-7393,1880,0,-1,-1
-161.71,23.72,-75.52,3342,-7392,1899,0,-1,0
-161.71,23.72,-75.52,3315,-7395,1876,0,-1,-1
-161.72,23.72,-75.50,3333,-7377,1907,0,-1,-1
-161.71,23.73,-75.50,3349,-7383,1904,0,-1,-1
-161.72,23.72,-75.49,3341,-7392,1900,0,-1,-1
-161.72,23.73,-75.49,3344,-7390,1894,0,-1,-1
-161.72,23.74,-75.48,3340,-7384,1894,0,-1,-1
-161.73,23.74,-75.47,3332,-7392,1901,0,-1,-1
-161.73,23.74,-75.46,3335,-7392,1889,0,-1,-1
-161.74,23.74,-75.45,3351,-7384,1891,0,-1,-1
-161.73,23.75,-75.44,3359,-7373,1910,0,-1,-1
-161.74,23.75,-75.44,3345,-7378,1906,0,-1,-1
-161.74,23.75,-75.43,3353,-7376,1913,-1,-1,-1
-161.73,23.76,-75.45,3343,-7384,1897,0,-1,-1
-161.73,23.76,-75.45,3344,-7382,1900,0,0,-1
-161.73,23.76,-75.44,3342,-7382,1899,0,-1,0
-161.73,23.76,-75.45,3353,-7379,1902,-1,-1,0
-161.74,23.75,-75.46,3359,-7382,1906,-1,-1,0
-161.75,23.74,-75.47,3341,-7392,1899,-1,-1,0
-161.75,23.74,-75.49,3334,-7386,1891,-1,-1,0
-161.76,23.73,-75.50,3352,-7389,1887,0,-1,0
-161.77,23.72,-75.50,3337,-7386,1894,-1,0,0
-161.78,23.71,-75.52,3347,-7398,1876,1,-1,0
-161.79,23.71,-75.50,3349,-7372,1912,-1,-1,0
-161.80,23.70,-75.51,3318,-7400,1907,0,-1,0
-161.79,23.70,-75.51,3346,-7378,1888,0,-1,-1
-161.80,23.70,-75.51,3347,-7385,1917,0,0,0
-161.81,23.69,-75.51,3327,-7397,1875,0,-1,0
-161.82,23.68,-75.50,3330,-7389,1901,1,0,0
-161.84,23.67,-75.50,3303,-7389,1913,-1,-2,0
-161.84,23.67,-75.51,3337,-7389,1890,0,0,0
-161.84,23.66,-75.51,3331,-7387,1934,-1,-2,0
-161.83,23.67,-75.53,3347,-7390,1882,-1,-1,0
-161.83,23.67,-75.55,3334,-7383,1892,-1,-1,0
-161.84,23.65,-75.56,3333,-7384,1899,-1,-1,0
-161.83,23.65,-75.58,3380,-7395,1919,-2,0,0
-161.83,23.64,-75.59,3318,-7391,1886,-1,0,0
-161.83,23.63,-75.63,3340,-7427,1888,-1,-1,0
-161.85,23.61,-75.62,3330,-7398,1902,-1,0,0
-161.83,23.61,-75.65,3341,-7406,1876,-1,0,0
-161.85,23.59,-75.65,3307,-7416,1871,-1,0,0
-161.84,23.59,-75.66,3324,-7393,1890,-1,0,-1
-161.83,23.59,-75.68,3322,-7430,1857,-2,0,-1
-161.83,23.59,-75.67,3335,-7412,1864,1,1,0
-161.83,23.59,-75.64,3327,-7411,1902,-1,0,-1
-161.82,23.59,-75.65,3338,-7393,1871,-1,0,0
-161.83,23.58,-75.65,3320,-7375,1869,0,0,-1
-161.83,23.58,-75.63,3332,-7393,1899,-1,0,0
-161.83,23.57,-75.65,3342,-7414,1879,0,0,-1
-161.83,23.57,-75.63,3342,-7404,1901,-1,0,-1
-161.84,23.56,-75.65,3316,-7404,1863,-1,0,0
-161.85,23.55,-75.64,3297,-7394,1881,0,0,-1
-161.84,23.55,-75.65,3321,-7368,1898,-1,0,0
-161.83,23.55,-75.68,3313,-7411,1870,-2,0,-1
-161.82,23.55,-75.68,3341,-7414,1867,0,0,-1
-161.83,23.55,-75.67,3323,-7381,1893,-1,0,-1
-161.81,23.55,-75.68,3297,-7401,1880,-1,0,-1
-161.80,23.56,-75.70,3317,-7419,1875,-1,-1,-1
-161.79,23.56,-75.69,3336,-7401,1881,0,0,0
-161.78,23.56,-75.69,3326,-7403,1881,-1,0,-1
-161.77,23.57,-75.70,3307,-7407,1867,-1,0,-1
-161.76,23.58,-75.70,3323,-7393,1889,-1,0,-1
-161.76,23.58,-75.70,3339,-7386,1888,-1,0,-1
-161.75,23.58,-75.71,3320,-7394,1875,-1,0,-1
-161.74,23.58,-75.72,3319,-7401,1867,-1,0,-1
-161.74,23.58,-75.73,3319,-7402,1868,-1,0,-1
-161.73,23.59,-75.73,3337,-7403,1888,-1,0,-1
-161.73,23.58,-75.73,3318,-7407,1885,-1,0,0
-161.73,23.58,-75.74,3324,-7425,1852,0,0,-1
-161.73,23.58,-75.74,3340,-7426,1842,0,0,-1
-161.73,23.57,-75.73,3316,-7412,1847,0,0,0
-161.74,23.57,-75.72,3315,-7399,1867,0,0,-1
-161.73,23.58,-75.72,3319,-7395,1873,0,0,-1
-161.73,23.58,-75.71,3324,-7394,1878,0,0,-1
-161.73,23.58,-75.71,3327,-7398,1875,0,0,-1
-161.73,23.59,-75.69,3321,-7396,1871,0,0,-1
-161.73,23.58,-75.69,3320,-7402,1884,0,0,-1
-161.73,23.59,-75.68,3320,-7403,1888,0,0,-1
-161.73,23.59,-75.68,3320,-7407,1877,0,0,-1
-161.72,23.59,-75.68,3322,-7399,1878,0,-1,-1
-161.72,23.59,-75.68,3322,-7398,1887,0,-1,-1
-161.72,23.59,-75.68,3314,-7392,1880,0,-1,-1
-161.72,23.60,-75.69,3329,-7394,1879,-1,-1,-1
-161.72,23.60,-75.70,3328,-7404,1867,-1,-1,-1
-161.71,23.61,-75.70,3340,-7401,1873,0,-1,-1
-161.70,23.62,-75.71,3326,-7395,1867,0,-1,-1
-161.70,23.62,-75.70,3334,-7390,1884,0,-1,0
-161.70,23.62,-75.71,3339,-7392,1882,-1,-1,0
-161.70,23.62,-75.71,3329,-7403,1867,0,-1,-1
-161.70,23.63,-75.71,3331,-7401,1872,0,-1,-1
-161.71,23.62,-75.71,3319,-7405,1871,0,-1,-1
-161.70,23.63,-75.72,3325,-7409,1858,0,-1,-1
-161.69,23.64,-75.72,3334,-7415,1853,0,-1,-1
-161.70,23.64,-75.71,3332,-7410,1867,0,-1,-1
-161.69,23.65,-75.71,3334,-7401,1868,0,-1,-1
-161.69,23.67,-75.70,3339,-7392,1875,0,-1,-1
-161.68,23.67,-75.69,3340,-7390,1879,0,-1,-1
-161.68,23.67,-75.70,3333,-7393,1873,0,-1,-1
-161.68,23.68,-75.69,3339,-7398,1879,0,-1,-1
-161.68,23.68,-75.70,3336,-7397,1870,0,-1,0
-161.69,23.67,-75.70,3336,-7405,1855,0,-1,0
-161.69,23.68,-75.71,3343,-7399,1868,0,-1,0
-161.69,23.68,-75.71,3343,-7395,1867,0,-1,-1
-161.68,23.69,-75.71,3339,-7392,1876,0,-1,-1
-161.68,23.70,-75.71,3338,-7392,1873,0,-1,-1
-161.68,23.70,-75.70,3341,-7387,1875,0,-1,-1
-161.68,23.71,-75.70,3334,-7384,1872,0,-1,-1
-161.68,23.71,-75.69,3329,-7388,1884,0,-1,-1
-161.68,23.71,-75.70,3350,-7392,1863,0,-1,0
-161.68,23.72,-75.69,3359,-7396,1869,0,-1,-1
-161.68,23.71,-75.68,3346,-7398,1883,0,-1,0
-161.69,23.72,-75.68,3338,-7391,1885,0,-1,0
-161.69,23.72,-75.69,3342,-7399,1879,0,-1,0
-161.69,23.72,-75.69,3333,-7397,1872,0,-1,0
-161.70,23.71,-75.69,3327,-7393,1866,0,-1,0
-161.70,23.72,-75.69,3341,-7388,1876,0,-1,-1
-161.69,23.72,-75.68,3342,-7383,1875,0,-1,-1
-161.69,23.73,-75.69,3347,-7390,1871,0,-1,-1
-161.68,23.73,-75.69,3344,-7389,1868,0,-1,-1
-161.68,23.74,-75.68,3346,-7395,1859,0,-1,-1
-161.69,23.74,-75.67,3345,-7399,1866,0,-1,-1
-161.69,23.74,-75.67,3343,-7403,1870,0,-1,-1
-161.69,23.74,-75.67,3350,-7397,1866,0,-1,-1
-161.69,23.74,-75.67,3353,-7390,1875,0,-1,-1
-161.69,23.75,-75.66,3346,-7387,1880,0,-1,0
-161.69,23.75,-75.66,3347,-7389,1882,0,-1,-1
-161.69,23.76,-75.65,3353,-7385,1887,0,-1,-1
-161.69,23.76,-75.66,3347,-7387,1877,0,-1,-1
-161.68,23.77,-75.66,3347,-7383,1887,0,-1,-1
-161.68,23.77,-75.66,3358,-7375,1882,0,-1,0
-161.68,23.77,-75.67,3353,-7392,1874,0,-1,-1
-161.69,23.77,-75.66,3359,-7396,1880,0,-1,-1
-161.69,23.77,-75.66,3346,-7399,1874,0,-1,-1
-161.69,23.78,-75.66,3342,-7397,1868,0,-1,-1
-161.69,23.79,-75.65,3344,-7393,1876,0,-1,-1
-161.68,23.80,-75.64,3350,-7390,1883,0,-1,-1
-161.68,23.80,-75.64,3360,-7390,1877,0,-1,-1
-161.68,23.80,-75.63,3353,-7382,1883,0,-1,-1
-161.68,23.81,-75.62,3360,-7381,1883,0,-1,-1
-161.68,23.81,-75.62,3364,-7385,1890,0,-1,-1
-161.68,23.81,-75.61,3363,-7383,1879,0,-1,-1
-161.69,23.82,-75.60,3356,-7380,1877,0,-1,-1
-161.69,23.82,-75.60,3357,-7384,1876,0,-1,-1
-161.69,23.82,-75.60,3353,-7382,1884,0,-1,-1
-161.69,23.82,-75.60,3348,-7390,1885,0,-1,-1
-161.69,23.83,-75.59,3352,-7386,1895,0,-1,-1
-161.69,23.83,-75.58,3359,-7384,1884,0,-1,-1
-161.69,23.84,-75.59,3365,-7377,1887,0,-1,-1
-161.69,23.84,-75.58,3361,-7382,1890,0,-1,-1
-161.69,23.84,-75.58,3368,-7377,1902,0,-1,0
-161.70,23.84,-75.58,3346,-7380,1881,0,-1,-1
-161.70,23.84,-75.57,3349,-7375,1878,0,-1,0
-161.71,23.84,-75.57,3345,-7379,1882,0,-1,0
-161.71,23.84,-75.57,3356,-7386,1876,0,-1,0
-161.71,23.84,-75.58,3361,-7394,1873,0,-1,0
-161.71,23.84,-75.57,3354,-7392,1878,0,-1,0
-161.73,23.83,-75.57,3349,-7398,1882,0,-1,-1
-161.73,23.83,-75.56,3347,-7390,1889,0,-1,0
-161.73,23.84,-75.55,3357,-7381,1883,0,0,-1
-161.73,23.84,-75.54,3360,-7377,1881,0,0,-1
-161.73,23.84,-75.53,3359,-7379,1892,0,0,-1
-161.74,23.84,-75.52,3366,-7381,1899,0,0,-1
-161.73,23.85,-75.52,3367,-7386,1894,0,0,0
-161.75,23.84,-75.51,3364,-7370,1894,0,-1,0
-161.75,23.83,-75.51,3358,-7372,1892,0,-1,0
-161.76,23.83,-75.51,3359,-7374,1902,-1,-1,0
-161.76,23.82,-75.51,3363,-7375,1911,0,-1,0
-161.78,23.81,-75.51,3347,-7378,1896,0,-1,0
-161.77,23.81,-75.52,3344,-7370,1896,-1,-1,0
-161.78,23.81,-75.53,3339,-7378,1889,-1,-1,0
-161.77,23.81,-75.54,3353,-7393,1872,0,-1,-1
-161.78,23.80,-75.54,3362,-7388,1881,-1,0,0
-161.78,23.80,-75.53,3378,-7388,1876,0,0,0
-161.79,23.79,-75.53,3365,-7385,1874,0,-1,0
-161.81,23.79,-75.51,3366,-7352,1906,-1,0,0
-161.81,23.77,-75.53,3345,-7381,1875,0,-1,0
-161.81,23.77,-75.52,3372,-7374,1902,0,0,0
-161.82,23.77,-75.49,3360,-7374,1902,0,0,0
-161.84,23.76,-75.48,3346,-7361,1913,0,-1,0
-161.84,23.76,-75.48,3348,-7346,1925,-1,0,-1
-161.83,23.76,-75.49,3340,-7374,1913,-1,-1,-1
-161.82,23.77,-75.49,3358,-7365,1936,-1,0,0
-161.81,23.76,-75.52,3354,-7391,1903,-1,0,-1
-161.81,23.76,-75.52,3353,-7387,1897,-1,0,0
-161.80,23.76,-75.54,3350,-7379,1893,-1,0,0
-161.80,23.76,-75.55,3357,-7382,1895,-1,0,-1
-161.79,23.76,-75.56,3354,-7379,1889,-1,0,-1
-161.78,23.76,-75.58,3366,-7394,1885,-1,0,-1
-161.77,23.77,-75.59,3366,-7394,1879,-1,0,-1
-161.76,23.76,-75.60,3372,-7395,1871,-1,0,0
-161.76,23.76,-75.60,3371,-7386,1872,-1,0,0
-161.76,23.76,-75.61,3367,-7383,1880,-1,0,0
-161.76,23.76,-75.61,3364,-7386,1876,-1,0,0
-161.76,23.75,-75.61,3361,-7389,1891,-1,0,0
-161.76,23.74,-75.61,3349,-7388,1894,-1,0,-1
-161.76,23.74,-75.61,3345,-7391,1897,-1,0,0
-161.75,23.74,-75.62,3345,-7384,1876,-1,0,-1
-161.75,23.74,-75.62,3355,-7377,1890,-1,0,-1
-161.75,23.73,-75.63,3354,-7380,1886,-1,0,0
-161.74,23.73,-75.64,3366,-7395,1880,-1,0,-1
-161.74,23.73,-75.64,3369,-7391,1885,-1,0,0
-161.74,23.72,-75.64,3359,-7384,1907,-1,0,0
-161.74,23.71,-75.65,3357,-7378,1890,-1,0,-1
-161.74,23.70,-75.65,3350,-7391,1866,-1,0,0
-161.74,23.69,-75.65,3341,-7372,1889,-1,0,0
-161.74,23.69,-75.66,3346,-7388,1896,-1,0,0
-161.75,23.68,-75.67,3331,-7389,1879,-1,0,0
-161.75,23.67,-75.67,3352,-7384,1905,-1,0,0
-161.74,23.67,-75.69,3347,-7390,1880,-1,0,-1
-161.74,23.66,-75.71,3345,-7399,1870,-1,0,0
-161.73,23.66,-75.70,3336,-7397,1883,-1,0,0
-161.74,23.65,-75.71,3334,-7383,1887,-1,0,0
-161.73,23.66,-75.71,3345,-7381,1890,-1,0,0
-161.73,23.65,-75.72,3348,-7389,1887,-1,0,0
-161.73,23.65,-75.72,3354,-7389,1869,-1,0,0
-161.73,23.64,-75.72,3352,-7393,1878,-1,0,0
-161.73,23.63,-75.73,3352,-7396,1870,-1,0,0
-161.73,23.63,-75.74,3333,-7386,1881,-1,0,0
-161.73,23.63,-75.74,3335,-7379,1882,-1,-1,0
-161.73,23.62,-75.76,3335,-7380,1874,-1,-1,0
-161.73,23.62,-75.77,3341,-7401,1861,-1,0,0
-161.72,23.63,-75.77,3353,-7402,1874,-1,0,0
-161.73,23.62,-75.77,3345,-7395,1879,-1,0,0
-161.72,23.62,-75.77,3348,-7391,1877,-1,0,0
-161.72,23.62,-75.77,3346,-7398,1867,-1,0,-1
-161.72,23.62,-75.77,3343,-7392,1864,0,0,-1
-161.72,23.62,-75.76,3329,-7384,1869,0,0,-1
-161.73,23.62,-75.75,3329,-7388,1872,0,0,-1
-161.72,23.63,-75.74,3339,-7379,1887,0,0,-1
-161.72,23.63,-75.74,3343,-7386,1877,0,-1,-1
-161.72,23.63,-75.75,3340,-7395,1870,0,0,-1
-161.72,23.63,-75.74,3349,-7383,1867,0,0,0
-161.72,23.63,-75.74,3350,-7381,1872,0,0,0
-161.72,23.63,-75.73,3347,-7377,1883,-1,0,0
-161.72,23.63,-75.73,3344,-7382,1882,-1,-1,0
-161.71,23.64,-75.74,3347,-7381,1874,-1,-1,0
-161.71,23.64,-75.74,3343,-7381,1877,-1,-1,-1
-161.71,23.64,-75.75,3345,-7394,1872,-1,-1,-1
-161.71,23.64,-75.75,3340,-7393,1869,-1,-1,0
-161.71,23.65,-75.76,3352,-7398,1879,0,-1,-1
-161.70,23.65,-75.76,3354,-7400,1880,-1,-1,-1
-161.70,23.66,-75.76,3361,-7400,1876,-1,-1,0
-161.71,23.65,-75.75,3350,-7395,1876,0,-1,0
-161.71,23.65,-75.75,3343,-7391,1872,0,-1,0
-161.71,23.65,-75.75,3337,-7388,1864,0,-1,0
-161.71,23.65,-75.76,3335,-7385,1873,0,-1,-1
-161.71,23.66,-75.76,3337,-7399,1873,0,-1,-1
-161.71,23.66,-75.76,3340,-7399,1878,0,-1,-1
-161.70,23.66,-75.76,3324,-7390,1872,-1,-1,-1
-161.70,23.66,-75.77,3349,-7404,1865,0,-1,-1
-161.70,23.68,-75.76,3384,-7395,1880,0,0,0
-161.70,23.67,-75.77,3359,-7410,1856,-1,-1,0
-161.71,23.66,-75.76,3373,-7399,1894,0,0,0
-161.73,23.64,-75.77,3350,-7381,1883,0,-2,0
-161.74,23.64,-75.78,3365,-7370,1892,-1,-1,0
-161.74,23.63,-75.81,3351,-7361,1868,-1,-1,0
-161.76,23.62,-75.81,3317,-7393,1883,0,-1,0
-161.76,23.61,-75.84,3360,-7383,1864,-1,-1,0
-161.76,23.61,-75.84,3354,-7408,1900,0,-1,0
-161.76,23.61,-75.86,3346,-7411,1852,-1,0,0
-161.76,23.61,-75.86,3341,-7419,1872,0,-1,-1
-161.75,23.62,-75.86,3362,-7408,1864,0,-1,0
-161.76,23.62,-75.84,3326,-7354,1889,0,0,0
-161.76,23.62,-75.85,3351,-7374,1877,-2,-2,-1
-161.76,23.61,-75.85,3354,-7376,1853,0,0,0
-161.75,23.62,-75.85,3359,-7387,1874,-1,-1,0
-161.76,23.61,-75.86,3363,-7402,1831,0,0,0
-161.76,23.61,-75.86,3347,-7414,1846,0,-1,-1
-161.76,23.61,-75.85,3363,-7416,1875,0,1,0
-161.78,23.59,-75.86,3311,-7400,1828,-1,-1,0
-161.80,23.59,-75.83,3344,-7400,1890,1,-1,-1
-161.80,23.59,-75.82,3333,-7366,1870,-1,0,0
-161.79,23.59,-75.83,3356,-7403,1836,0,-1,0
-161.80,23.59,-75.81,3337,-7361,1899,-1,0,0
-161.79,23.59,-75.83,3374,-7410,1855,0,0,-1
-161.80,23.58,-75.81,3346,-7402,1859,0,0,0
-161.79,23.59,-75.80,3358,-7397,1881,0,0,-1
-161.79,23.59,-75.80,3322,-7396,1858,-1,0,0
-161.79,23.59,-75.79,3362,-7375,1858,0,0,-1
-161.80,23.58,-75.78,3329,-7387,1868,-1,-1,0
-161.81,23.58,-75.78,3327,-7384,1895,0,0,0
-161.80,23.58,-75.77,3346,-7388,1902,-1,-1,-1
-161.82,23.57,-75.78,3315,-7398,1856,1,-1,0
-161.81,23.58,-75.77,3355,-7399,1857,0,0,0
-161.83,23.57,-75.75,3339,-7384,1898,0,-1,0
-161.83,23.57,-75.74,3318,-7353,1913,-1,0,0
-161.82,23.58,-75.77,3346,-7415,1841,0,-2,-1
-161.82,23.58,-75.73,3350,-7392,1900,0,0,0
-161.82,23.58,-75.75,3318,-7423,1846,0,-1,-1
-161.81,23.59,-75.73,3351,-7394,1889,0,0,-1
-161.81,23.60,-75.72,3349,-7396,1899,-1,-1,-1
-161.82,23.59,-75.72,3342,-7394,1859,0,0,-1
-161.82,23.60,-75.69,3338,-7385,1882,0,0,-1
-161.81,23.61,-75.70,3334,-7395,1868,0,-1,-1
-161.80,23.62,-75.68,3357,-7386,1894,0,0,-1
-161.80,23.62,-75.67,3338,-7379,1906,-1,-1,-1
-161.80,23.63,-75.68,3347,-7397,1889,0,-1,-1
-161.79,23.64,-75.68,3362,-7393,1883,0,-1,-1
-161.78,23.65,-75.67,3368,-7402,1879,0,0,-1
-161.79,23.65,-75.64,3356,-7373,1891,0,0,-1
-161.78,23.66,-75.64,3342,-7382,1869,0,-1,-1
-161.78,23.67,-75.63,3333,-7384,1875,0,0,-1
-161.78,23.68,-75.61,3349,-7381,1902,0,-1,-1
-161.77,23.69,-75.60,3372,-7392,1893,0,-1,-1
-161.76,23.71,-75.59,3377,-7387,1902,0,0,-1
-161.76,23.71,-75.58,3369,-7374,1905,0,0,-1
-161.75,23.72,-75.57,3365,-7373,1900,0,0,-1
-161.75,23.72,-75.57,3367,-7371,1909,-1,0,0
-161.75,23.72,-75.57,3361,-7381,1902,0,-1,-1
-161.75,23.73,-75.57,3346,-7368,1912,0,-1,0
-161.74,23.72,-75.59,3342,-7372,1899,-1,-1,-1
-161.75,23.72,-75.59,3350,-7380,1908,-1,-1,-1
-161.74,23.72,-75.60,3351,-7393,1895,0,-1,0
-161.74,23.73,-75.61,3346,-7392,1884,-1,-1,-1
-161.73,23.73,-75.61,3376,-7375,1900,0,0,-1
-161.73,23.74,-75.61,3359,-7383,1906,-1,-1,0
-161.73,23.74,-75.61,3365,-7388,1872,0,-1,-1
-161.74,23.74,-75.61,3373,-7364,1901,-1,-1,0
-161.73,23.74,-75.62,3361,-7394,1875,0,0,0
-161.74,23.74,-75.61,3372,-7384,1878,0,0,0
-161.74,23.73,-75.59,3367,-7373,1909,-1,0,-1
-161.74,23.73,-75.59,3356,-7380,1901,0,0,0
-161.74,23.73,-75.59,3363,-7366,1908,-1,0,0
-161.74,23.73,-75.58,3370,-7364,1907,-1,0,-1
-161.74,23.73,-75.59,3359,-7377,1902,-1,0,0
-161.74,23.73,-75.60,3358,-7385,1900,-1,0,-1
-161.74,23.72,-75.60,3358,-7379,1904,-1,0,-1
-161.72,23.73,-75.61,3364,-7371,1915,-1,0,-1
-161.71,23.73,-75.61,3364,-7367,1919,-1,0,-1
-161.71,23.73,-75.62,3366,-7372,1911,-1,0,0
-161.70,23.73,-75.63,3371,-7392,1889,-1,0,-1
-161.69,23.73,-75.64,3369,-7397,1887,-1,0,-1
-161.69,23.72,-75.64,3351,-7383,1886,-1,0,-1
-161.69,23.72,-75.63,3351,-7376,1882,-1,0,-1
-161.68,23.72,-75.65,3361,-7384,1878,-1,0,-1
-161.67,23.73,-75.64,3364,-7380,1880,-1,0,-1
-161.66,23.73,-75.64,3364,-7374,1893,-1,0,-1
-161.66,23.73,-75.64,3361,-7370,1889,-1,0,-1
-161.64,23.74,-75.65,3376,-7369,1895,-1,0,0
-161.64,23.74,-75.66,3376,-7383,1884,-1,0,0
-161.64,23.73,-75.67,3363,-7386,1875,-1,0,0
-161.63,23.73,-75.68,3365,-7384,1888,-1,0,0
-161.63,23.73,-75.69,3368,-7388,1890,-1,0,0
-161.63,23.72,-75.70,3368,-7377,1894,-1,0,0
-161.63,23.71,-75.71,3349,-7371,1892,-1,0,0
-161.62,23.71,-75.73,3353,-7392,1877,-1,0,0
-161.62,23.70,-75.75,3366,-7401,1873,-1,0,0
-161.61,23.70,-75.75,3351,-7393,1895,-1,0,0
-161.61,23.69,-75.77,3368,-7406,1864,-1,-1,-1
-161.61,23.69,-75.76,3378,-7379,1899,-1,0,0
-161.61,23.68,-75.79,3377,-7381,1849,-1,0,0
-161.62,23.66,-75.78,3368,-7378,1865,0,0,0
-161.62,23.65,-75.79,3374,-7372,1880,-1,0,0
-161.64,23.63,-75.80,3335,-7383,1864,-1,-1,0
-161.65,23.63,-75.81,3354,-7378,1871,0,0,-1
-161.65,23.62,-75.80,3378,-7376,1896,-1,0,0
-161.66,23.60,-75.81,3322,-7410,1872,-1,0,-1
-161.65,23.61,-75.82,3353,-7399,1834,0,0,0
-161.65,23.61,-75.80,3343,-7382,1886,-1,0,0
-161.65,23.60,-75.81,3339,-7397,1852,-1,0,-1
-161.64,23.61,-75.81,3360,-7381,1884,0,-1,0
-161.64,23.61,-75.82,3345,-7390,1865,-1,0,0
-161.63,23.61,-75.83,3359,-7393,1869,-1,0,-1
-161.63,23.61,-75.83,3349,-7396,1871,-1,0,-1
-161.63,23.61,-75.83,3349,-7398,1868,0,0,0
-161.62,23.62,-75.84,3354,-7402,1847,-1,0,-1
-161.61,23.62,-75.83,3348,-7400,1858,0,0,-1
-161.61,23.62,-75.82,3339,-7396,1871,0,0,-1
-161.61,23.63,-75.81,3339,-7386,1871,0,-1,-1
-161.61,23.63,-75.81,3343,-7376,1863,0,-1,-1
-161.61,23.63,-75.81,3330,-7378,1862,0,-1,-1
-161.61,23.63,-75.81,3336,-7386,1867,-1,-1,-1
-161.60,23.64,-75.81,3352,-7394,1881,0,-1,-1
-161.60,23.64,-75.80,3352,-7392,1885,0,-1,-1
-161.59,23.65,-75.80,3348,-7401,1865,0,-1,-1
-161.59,23.65,-75.81,3353,-7396,1870,-1,-1,-1
-161.58,23.66,-75.81,3353,-7381,1875,0,-1,-1
-161.58,23.66,-75.80,3351,-7384,1872,-1,-1,-1
-161.58,23.67,-75.80,3345,-7381,1879,0,-1,-1
-161.57,23.67,-75.81,3346,-7380,1879,-1,-1,-1
-161.57,23.68,-75.82,3343,-7383,1872,-1,-1,0
-161.56,23.68,-75.82,3353,-7395,1864,-1,-1,0
-161.56,23.68,-75.83,3356,-7399,1868,0,-1,0
-161.56,23.69,-75.83,3360,-7394,1869,0,-1,-1
-161.56,23.69,-75.83,3353,-7391,1872,0,-1,0
-161.56,23.69,-75.83,3347,-7385,1868,0,-1,0
-161.57,23.69,-75.83,3348,-7372,1874,0,-1,0
-161.56,23.69,-75.84,3345,-7383,1861,-1,-1,0
-161.56,23.69,-75.85,3347,-7388,1856,0,0,0
-161.56,23.69,-75.86,3357,-7416,1851,0,-1,-1
-161.56,23.69,-75.85,3368,-7412,1867,0,-1,-1
-161.56,23.70,-75.84,3371,-7394,1890,-1,-1,0
-161.58,23.68,-75.84,3357,-7357,1887,0,-1,0
-161.58,23.68,-75.85,3363,-7368,1889,-1,-1,0
-161.58,23.68,-75.87,3373,-7373,1881,-1,0,-1
-161.58,23.68,-75.87,3356,-7398,1826,0,-1,0
-161.58,23.68,-75.85,3355,-7395,1860,0,0,0
-161.58,23.68,-75.86,3343,-7380,1861,-1,-1,-1
-161.58,23.68,-75.86,3358,-7416,1853,0,-1,0
-161.60,23.68,-75.84,3369,-7375,1891,0,-1,0
-161.59,23.69,-75.85,3373,-7393,1856,-1,-1,-1
-161.59,23.69,-75.84,3375,-7369,1864,0,0,0
-161.59,23.69,-75.84,3352,-7369,1879,-1,-1,-1
-161.59,23.70,-75.85,3360,-7394,1844,0,-1,0
-161.59,23.69,-75.83,3348,-7379,1901,-1,-1,0
-161.59,23.69,-75.85,3356,-7400,1848,0,0,-1
-161.61,23.68,-75.83,3343,-7397,1888,0,-1,0
-161.61,23.68,-75.84,3356,-7403,1870,-1,-1,0
-161.60,23.69,-75.84,3357,-7401,1864,0,-1,0
-161.59,23.69,-75.84,3349,-7386,1862,0,-1,-1
-161.60,23.70,-75.83,3353,-7378,1874,0,-1,0
-161.59,23.70,-75.84,3360,-7382,1856,-1,0,-1
-161.58,23.71,-75.84,3367,-7375,1857,-1,-1,-1
-161.57,23.72,-75.84,3382,-7375,1874,0,-1,0
-161.57,23.72,-75.84,3370,-7390,1877,-1,-1,-1
-161.56,23.73,-75.85,3390,-7395,1851,0,0,0
-161.58,23.72,-75.84,3349,-7385,1873,-1,-1,0
-161.57,23.72,-75.85,3366,-7393,1846,0,-1,0
-161.57,23.73,-75.84,3386,-7374,1861,0,-1,0
-161.58,23.73,-75.82,3360,-7380,1859,0,0,-1
-161.58,23.73,-75.82,3343,-7384,1857,0,0,-1
-161.57,23.74,-75.81,3355,-7385,1866,0,-1,-1
-161.57,23.74,-75.80,3363,-7384,1864,0,-1,-1
-161.57,23.75,-75.79,3356,-7392,1864,0,-1,-1
-161.57,23.76,-75.78,3346,-7378,1870,0,-1,0
-161.57,23.77,-75.78,3381,-7379,1877,0,-1,-1
-161.55,23.78,-75.78,3400,-7392,1869,0,0,-1
-161.55,23.79,-75.76,3386,-7397,1856,0,0,-1
-161.55,23.79,-75.74,3364,-7383,1857,0,0,-1
-161.56,23.79,-75.73,3373,-7371,1869,0,-1,-1
-161.56,23.79,-75.73,3368,-7377,1879,0,-1,0
-161.56,23.79,-75.72,3357,-7378,1875,0,-1,0
-161.56,23.79,-75.73,3364,-7376,1874,0,-1,0
-161.55,23.80,-75.74,3356,-7375,1860,0,-1,-1
-161.56,23.79,-75.74,3343,-7371,1873,0,-2,0
-161.56,23.80,-75.76,3392,-7360,1896,-1,-2,0
-161.53,23.82,-75.78,3430,-7393,1873,-1,0,-1
-161.51,23.83,-75.78,3416,-7407,1840,0,2,-1
-161.52,23.82,-75.74,3361,-7398,1849,0,1,-1
-161.52,23.83,-75.71,3359,-7393,1867,0,0,-1
-161.52,23.83,-75.70,3364,-7387,1880,0,-1,-1
-161.54,23.83,-75.69,3356,-7378,1887,0,-1,0
-161.54,23.83,-75.68,3365,-7386,1895,0,-1,0
-161.54,23.83,-75.69,3366,-7373,1890,0,-1,0
-161.54,23.83,-75.70,3386,-7368,1899,-1,-1,0
-161.53,23.84,-75.70,3419,-7369,1895,0,0,0
-161.53,23.84,-75.71,3380,-7370,1891,-1,-1,0
-161.53,23.83,-75.73,3390,-7390,1864,-1,-1,0
-161.53,23.83,-75.73,3411,-7371,1888,-1,0,0
-161.52,23.83,-75.75,3376,-7378,1883,-1,-1,0
-161.53,23.82,-75.76,3380,-7381,1877,0,-1,0
-161.52,23.83,-75.78,3378,-7390,1848,-1,-1,-1
-161.51,23.83,-75.78,3385,-7387,1839,0,0,0
-161.52,23.83,-75.76,3367,-7374,1861,0,-1,0
-161.52,23.83,-75.76,3382,-7379,1853,0,-1,0
-161.52,23.84,-75.75,3402,-7374,1862,0,0,-1
-161.53,23.83,-75.72,3387,-7365,1883,0,0,-1
-161.54,23.83,-75.70,3379,-7367,1871,0,0,-1
-161.53,23.84,-75.70,3381,-7375,1881,0,0,-1
-161.53,23.84,-75.68,3396,-7369,1903,0,0,0
-161.54,23.82,-75.67,3356,-7373,1911,-1,0,0
-161.54,23.82,-75.68,3360,-7379,1889,-1,0,0
-161.54,23.82,-75.68,3357,-7376,1887,-1,0,0
-161.53,23.82,-75.68,3370,-7366,1887,-1,0,-1
-161.53,23.82,-75.69,3361,-7363,1902,-1,-1,-1
-161.51,23.83,-75.71,3370,-7367,1891,-1,0,-1
-161.50,23.83,-75.73,3383,-7374,1892,-1,0,-1
-161.49,23.83,-75.74,3394,-7383,1878,-1,0,0
-161.48,23.83,-75.76,3397,-7387,1873,-1,0,-1
-161.47,23.83,-75.77,3401,-7389,1886,-1,0,0
-161.46,23.83,-75.78,3400,-7383,1866,-1,0,0
-161.46,23.83,-75.78,3386,-7371,1873,-1,0,0
-161.46,23.83,-75.79,3382,-7380,1873,-1,0,0
-161.46,23.82,-75.79,3380,-7380,1877,-1,0,0
-161.46,23.82,-75.79,3369,-7384,1879,-1,0,0
-161.46,23.82,-75.79,3384,-7385,1872,-1,0,0
-161.45,23.81,-75.79,3368,-7390,1871,-1,0,-1
-161.45,23.82,-75.79,3374,-7381,1872,0,0,-1
-161.44,23.82,-75.78,3388,-7373,1883,-1,0,-1
-161.44,23.82,-75.78,3389,-7378,1862,-1,0,-1
-161.43,23.82,-75.78,3379,-7381,1852,0,0,0
-161.44,23.81,-75.77,3372,-7381,1866,-1,0,-1
-161.43,23.81,-75.77,3376,-7382,1864,-1,0,0
-161.43,23.81,-75.78,3373,-7386,1863,-1,0,0
-161.44,23.80,-75.78,3369,-7381,1872,-1,0,0
-161.43,23.80,-75.78,3375,-7370,1882,-1,0,0
-161.42,23.80,-75.81,3372,-7366,1871,-1,0,0
-161.42,23.79,-75.82,3368,-7367,1885,-1,0,0
-161.41,23.79,-75.84,3374,-7367,1875,-2,0,0
-161.41,23.78,-75.87,3370,-7381,1844,-1,-1,0
-161.40,23.78,-75.89,3390,-7386,1844,-1,0,0
-161.40,23.77,-75.91,3375,-7383,1866,-1,0,0
-161.40,23.76,-75.92,3355,-7384,1837,-1,0,0
-161.41,23.75,-75.94,3375,-7384,1859,-1,-1,0
-161.41,23.73,-75.98,3356,-7383,1837,-2,-1,0
-161.41,23.73,-75.98,3360,-7390,1829,0,0,0
-161.42,23.72,-75.98,3363,-7380,1872,-2,-1,0
-161.41,23.72,-76.00,3364,-7397,1840,-1,0,0
-161.42,23.71,-76.00,3403,-7405,1830,0,0,0
-161.43,23.69,-75.98,3355,-7384,1879,-1,1,0
-161.43,23.69,-76.00,3362,-7406,1817,0,-1,0
-161.45,23.68,-75.97,3351,-7380,1878,0,0,0
-161.45,23.67,-75.99,3347,-7389,1842,-1,-1,0
-161.45,23.67,-75.99,3330,-7400,1850,0,-1,0
-161.45,23.67,-75.99,3351,-7396,1845,-1,-1,0
-161.45,23.67,-75.99,3344,-7400,1841,-1,-1,-1
-161.45,23.68,-75.99,3358,-7383,1838,0,-1,0
-161.45,23.68,-75.98,3364,-7368,1872,-1,-1,-1
-161.44,23.69,-75.99,3364,-7389,1837,0,0,0
-161.44,23.69,-75.99,3355,-7393,1850,0,0,0
-161.44,23.69,-75.98,3352,-7397,1848,0,-1,-1
-161.44,23.69,-75.98,3363,-7400,1845,0,-1,-1
-161.44,23.69,-75.97,3358,-7402,1855,0,-1,-1
-161.43,23.70,-75.98,3362,-7401,1853,-1,-1,-1
-161.43,23.71,-75.97,3356,-7406,1847,0,-1,-1
-161.43,23.71,-75.97,3362,-7397,1846,0,-1,0
-161.43,23.71,-75.98,3347,-7386,1843,0,-1,0
-161.43,23.71,-75.97,3359,-7374,1864,0,-1,0
-161.43,23.72,-75.98,3367,-7379,1860,-1,-1,0
-161.43,23.72,-75.98,3365,-7398,1853,0,-1,0
-161.43,23.72,-75.98,3367,-7408,1851,-1,-1,-1
-161.43,23.72,-75.98,3363,-7411,1845,-1,0,-1
-161.43,23.72,-75.98,3359,-7402,1849,0,0,-1
-161.42,23.73,-75.97,3356,-7395,1844,0,-1,-1
-161.41,23.74,-75.96,3355,-7386,1847,0,-1,-1
-161.41,23.74,-75.96,3361,-7379,1854,0,-1,-1
-161.40,23.75,-75.96,3363,-7372,1858,0,-1,-1
-161.39,23.76,-75.96,3381,-7376,1857,-1,-1,-1
-161.39,23.76,-75.96,3384,-7391,1855,0,-1,0
-161.40,23.76,-75.96,3374,-7389,1854,0,-1,0
-161.40,23.76,-75.96,3376,-7388,1856,0,-1,0
-161.40,23.76,-75.96,3369,-7388,1857,0,-1,0
-161.40,23.76,-75.96,3356,-7385,1852,0,-1,0
-161.40,23.76,-75.96,3349,-7379,1849,-1,-1,-1
-161.40,23.77,-75.97,3364,-7386,1844,-1,-1,-1
-161.39,23.77,-75.97,3368,-7400,1845,0,-1,-1
-161.39,23.78,-75.98,3376,-7402,1838,0,-1,-1
-161.38,23.79,-75.97,3370,-7396,1842,0,-1,-1
-161.38,23.80,-75.97,3383,-7389,1839,0,-1,0
-161.38,23.80,-75.96,3380,-7381,1851,0,-1,-1
-161.38,23.80,-75.96,3383,-7377,1850,-1,-1,0
-161.37,23.80,-75.96,3389,-7382,1852,0,-1,0
-161.37,23.81,-75.95,3377,-7382,1864,-1,-1,0
-161.38,23.80,-75.96,3371,-7385,1860,0,-1,0
-161.37,23.81,-75.96,3359,-7385,1861,-1,-1,-1
-161.37,23.81,-75.96,3363,-7391,1852,0,-1,-1
-161.37,23.81,-75.97,3371,-7393,1848,-1,-1,-1
-161.36,23.82,-75.97,3386,-7391,1854,0,-1,-1
-161.36,23.82,-75.97,3388,-7383,1851,-1,-1,-1
-161.35,23.83,-75.97,3384,-7383,1842,0,-1,-1
-161.35,23.83,-75.97,3387,-7383,1843,-1,-1,-1
-161.35,23.83,-75.98,3381,-7379,1850,-1,-1,0
-161.35,23.83,-75.98,3393,-7382,1858,-1,0,0
-161.35,23.83,-75.98,3378,-7387,1848,0,-1,0
-161.35,23.83,-75.97,3380,-7380,1845,0,0,0
-161.35,23.83,-75.97,3384,-7385,1849,0,-1,0
-161.36,23.83,-75.96,3378,-7383,1849,0,-1,0
-161.36,23.83,-75.96,3363,-7380,1851,-1,-1,0
-161.36,23.83,-75.96,3376,-7378,1847,0,-1,-1
-161.36,23.83,-75.96,3368,-7381,1838,-1,0,-1
-161.35,23.84,-75.96,3370,-7372,1844,0,-1,0
-161.35,23.84,-75.97,3378,-7375,1849,-1,-1,-1
-161.35,23.84,-75.97,3385,-7386,1848,-1,-1,-1
-161.34,23.85,-75.97,3390,-7396,1839,0,0,-1
-161.34,23.85,-75.96,3376,-7388,1839,0,0,-1
-161.34,23.85,-75.95,3372,-7377,1838,0,-1,-1
-161.34,23.86,-75.95,3377,-7372,1858,0,-1,-1
-161.34,23.86,-75.94,3376,-7377,1852,0,-1,-1
-161.34,23.87,-75.94,3389,-7386,1840,0,-1,-1
-161.33,23.87,-75.93,3396,-7378,1855,0,0,-1
-161.33,23.87,-75.93,3389,-7377,1863,0,0,0
-161.34,23.87,-75.93,3387,-7377,1852,0,-1,0
-161.35,23.86,-75.93,3364,-7369,1842,0,-1,0
-161.34,23.87,-75.92,3375,-7380,1852,0,0,-1
-161.34,23.87,-75.92,3378,-7392,1849,0,-1,0
-161.34,23.87,-75.92,3388,-7396,1844,0,-1,0
-161.35,23.87,-75.91,3379,-7375,1859,0,-1,0
-161.35,23.87,-75.91,3375,-7367,1852,-1,-1,0
-161.35,23.87,-75.92,3379,-7378,1842,0,-1,0
-161.34,23.88,-75.92,3384,-7391,1857,-1,-1,-1
-161.34,23.89,-75.92,3397,-7382,1834,0,0,0
-161.34,23.88,-75.91,3378,-7369,1858,0,-1,-1
-161.35,23.88,-75.90,3387,-7363,1871,-1,-1,0
-161.35,23.88,-75.91,3392,-7371,1860,0,-1,0
-161.36,23.87,-75.90,3382,-7378,1863,-1,0,0
-161.35,23.87,-75.90,3377,-7381,1867,0,0,0
-161.36,23.87,-75.89,3375,-7394,1871,0,-1,0
-161.37,23.87,-75.89,3385,-7389,1865,0,0,0
-161.37,23.87,-75.89,3366,-7402,1841,0,-1,-1
-161.37,23.87,-75.88,3384,-7398,1859,0,-1,0
-161.39,23.86,-75.86,3385,-7395,1858,0,0,0
-161.38,23.87,-75.86,3393,-7382,1862,0,-1,0
-161.39,23.86,-75.85,3397,-7359,1872,0,0,0
-161.41,23.85,-75.83,3389,-7382,1895,-1,-1,0
-161.41,23.85,-75.84,3379,-7367,1866,-1,0,0
-161.42,23.83,-75.84,3357,-7376,1879,-1,-1,0
-161.42,23.83,-75.86,3365,-7370,1848,-1,-1,0
-161.44,23.80,-75.86,3352,-7382,1905,-1,0,0
-161.43,23.80,-75.89,3387,-7384,1835,-2,-1,0
-161.44,23.79,-75.89,3363,-7384,1865,0,0,0
-161.43,23.79,-75.92,3407,-7390,1855,-2,0,0
-161.44,23.77,-75.93,3379,-7387,1824,0,1,0
-161.46,23.75,-75.91,3346,-7363,1886,-2,-1,0
-161.46,23.74,-75.95,3372,-7396,1804,0,0,0
-161.45,23.74,-75.94,3384,-7381,1875,-1,0,0
-161.46,23.73,-75.95,3369,-7376,1815,-1,1,-1
-161.47,23.72,-75.93,3349,-7384,1902,0,-1,0
-161.46,23.72,-75.95,3368,-7409,1843,-1,0,-1
-161.46,23.72,-75.93,3370,-7385,1858,0,0,-1
-161.44,23.73,-75.95,3373,-7405,1866,-1,0,-1
-161.45,23.72,-75.94,3348,-7386,1825,0,0,-1
-161.44,23.73,-75.92,3365,-7392,1882,-1,0,0
-161.42,23.74,-75.93,3381,-7388,1834,-1,0,-1
-161.42,23.74,-75.91,3369,-7369,1868,0,0,0
-161.42,23.73,-75.94,3338,-7378,1853,-1,-1,0
-161.42,23.73,-75.95,3359,-7390,1822,-1,0,0
-161.41,23.73,-75.95,3374,-7412,1855,0,-1,-1
-161.41,23.74,-75.94,3399,-7389,1860,-1,1,0
-161.41,23.73,-75.94,3353,-7382,1872,-1,-1,-1
-161.39,23.74,-75.96,3377,-7375,1843,0,0,0
-161.38,23.74,-75.97,3380,-7373,1856,-1,0,-1
-161.37,23.74,-75.98,3367,-7390,1848,-1,0,-1
-161.36,23.74,-76.00,3357,-7391,1826,-1,0,-1
-161.36,23.73,-76.00,3348,-7401,1849,-1,0,-1
-161.35,23.74,-76.01,3362,-7398,1850,-1,0,-1
