Yaw,Pitch,Roll,AX,AY,AZ,GX,GY,GZ
-155.90,27.09,-80.95,3793,-7337,1149,0,-1,-1
-155.89,27.10,-80.94,3791,-7329,1157,0,-1,-1
-155.89,27.10,-80.94,3803,-7323,1159,0,0,-1
-155.88,27.11,-80.94,3800,-7325,1154,0,0,-1
-155.87,27.12,-80.93,3813,-7325,1157,0,0,-1
-155.88,27.12,-80.92,3821,-7324,1158,0,0,0
-155.88,27.12,-80.92,3819,-7315,1175,0,0,0
-155.88,27.12,-80.91,3806,-7311,1176,0,0,0
-155.89,27.11,-80.91,3791,-7305,1180,0,-1,0
-155.89,27.11,-80.91,3786,-7310,1188,0,-1,0
-155.90,27.10,-80.90,3785,-7314,1180,0,-1,0
-155.89,27.11,-80.91,3794,-7310,1179,-1,-1,0
-155.89,27.11,-80.93,3799,-7321,1180,-1,-1,-1
-155.88,27.12,-80.93,3811,-7318,1167,-1,-1,-1
-155.87,27.12,-80.94,3814,-7311,1162,0,-1,0
-155.87,27.12,-80.94,3812,-7313,1157,-1,-1,0
-155.88,27.11,-80.94,3801,-7318,1159,0,-1,0
-155.88,27.11,-80.94,3804,-7328,1158,0,-1,0
-155.89,27.11,-80.93,3799,-7333,1171,0,-1,0
-155.89,27.11,-80.92,3795,-7330,1164,0,0,-1
-155.89,27.11,-80.91,3796,-7319,1183,0,0,-1
-155.90,27.11,-80.90,3802,-7318,1186,0,0,-1
-155.89,27.12,-80.90,3800,-7322,1173,-1,0,-1
-155.89,27.12,-80.90,3806,-7320,1175,0,0,0
-155.89,27.12,-80.89,3797,-7311,1190,0,0,0
-155.89,27.12,-80.89,3796,-7312,1191,-1,-1,0
-155.90,27.11,-80.89,3797,-7316,1187,0,-1,0
-155.89,27.12,-80.90,3791,-7312,1181,-1,-1,0
-155.90,27.11,-80.91,3786,-7322,1171,-1,-1,-1
-155.90,27.11,-80.91,3789,-7323,1160,0,0,-1
-155.89,27.12,-80.90,3796,-7320,1159,0,0,0
-155.89,27.12,-80.90,3799,-7326,1162,-1,-1,-1
-155.88,27.12,-80.91,3812,-7322,1158,0,0,0
-155.88,27.12,-80.91,3808,-7324,1156,0,0,0
-155.89,27.12,-80.90,3804,-7318,1164,0,0,0
-155.90,27.11,-80.91,3797,-7312,1169,0,-1,0
-155.90,27.11,-80.91,3795,-7319,1162,0,-1,0
-155.90,27.11,-80.91,3790,-7316,1165,0,0,0
-155.90,27.11,-80.90,3790,-7312,1174,-1,-1,0
-155.90,27.11,-80.91,3796,-7318,1178,-1,-1,-1
-155.90,27.11,-80.91,3805,-7329,1173,-1,-1,-1
-155.90,27.11,-80.91,3803,-7331,1166,0,0,-1
-155.90,27.11,-80.91,3811,-7325,1167,0,0,-1
-155.90,27.11,-80.90,3804,-7321,1170,0,-1,0
-155.90,27.11,-80.90,3802,-7327,1164,0,0,-1
-155.90,27.11,-80.90,3806,-7323,1170,0,0,-1
-155.90,27.11,-80.89,3802,-7318,1179,0,0,0
-155.90,27.11,-80.89,3804,-7317,1180,0,-1,0
-155.90,27.11,-80.89,3801,-7314,1177,-1,-1,0
-155.90,27.11,-80.89,3802,-7318,1174,0,0,0
-155.90,27.11,-80.89,3796,-7310,1180,-1,-1,-1
-155.89,27.12,-80.90,3805,-7307,1172,-1,-1,0
-155.90,27.11,-80.91,3803,-7316,1163,0,-1,-1
-155.90,27.11,-80.91,3810,-7318,1168,0,-1,0
-155.90,27.11,-80.91,3798,-7313,1166,0,0,-1
-155.90,27.12,-80.90,3804,-7318,1173,0,-1,-1
-155.90,27.12,-80.90,3807,-7317,1166,0,-1,-1
-155.89,27.13,-80.89,3806,-7315,1178,0,0,-1
-155.89,27.13,-80.88,3809,-7314,1176,0,0,-1
-155.89,27.13,-80.88,3809,-7310,1172,0,0,-1
-155.89,27.13,-80.87,3796,-7296,1181,0,-1,0
-155.90,27.12,-80.87,3791,-7304,1185,-1,-1,0
-155.90,27.12,-80.87,3799,-7311,1180,-1,-1,0
-155.90,27.13,-80.88,3806,-7313,1184,-1,-1,-1
-155.90,27.12,-80.88,3804,-7308,1182,-1,-1,0
-155.90,27.12,-80.89,3798,-7306,1182,-1,-1,0
-155.89,27.12,-80.89,3800,-7313,1179,-1,-1,0
-155.89,27.12,-80.90,3794,-7316,1183,-1,0,0
-155.90,27.12,-80.90,3793,-7317,1176,-1,0,-1
-155.90,27.11,-80.91,3800,-7317,1173,-1,0,-1
-155.89,27.12,-80.91,3808,-7320,1169,-1,0,-1
-155.89,27.12,-80.91,3811,-7329,1163,-1,0,-1
-155.87,27.13,-80.91,3807,-7321,1166,0,0,-1
-155.88,27.13,-80.90,3800,-7320,1171,-1,0,-1
-155.87,27.13,-80.90,3804,-7313,1171,-1,0,-1
-155.88,27.13,-80.90,3801,-7305,1180,-1,0,0
-155.87,27.13,-80.91,3800,-7313,1168,-1,0,0
-155.88,27.12,-80.91,3791,-7317,1160,-1,0,0
-155.87,27.13,-80.92,3798,-7318,1160,-1,0,0
-155.87,27.12,-80.93,3795,-7315,1158,-1,0,-1
-155.87,27.12,-80.94,3801,-7319,1160,-1,-1,-1
-155.86,27.13,-80.95,3808,-7324,1156,0,0,-1
-155.85,27.14,-80.95,3816,-7320,1160,-1,0,-1
-155.85,27.13,-80.95,3804,-7323,1139,0,0,-1
-155.85,27.13,-80.94,3816,-7324,1160,0,0,-1
-155.85,27.13,-80.93,3810,-7331,1177,0,0,-1
-155.86,27.12,-80.93,3812,-7336,1171,-1,0,0
-155.86,27.13,-80.92,3808,-7324,1187,-1,0,-1
-155.85,27.13,-80.93,3807,-7322,1170,-1,0,-1
-155.85,27.13,-80.93,3812,-7325,1168,-1,0,-1
-155.85,27.13,-80.93,3793,-7305,1175,-1,0,0
-155.85,27.12,-80.93,3779,-7301,1180,-1,0,-1
-155.85,27.13,-80.94,3798,-7307,1169,-1,0,-1
-155.84,27.13,-80.94,3804,-7301,1167,-1,0,0
-155.84,27.13,-80.94,3806,-7303,1172,-1,0,0
-155.84,27.12,-80.95,3805,-7314,1160,-1,0,0
-155.84,27.13,-80.96,3804,-7325,1149,-1,0,-1
-155.84,27.13,-80.96,3804,-7324,1152,0,0,0
-155.84,27.12,-80.97,3794,-7316,1158,-1,0,0
-155.84,27.12,-80.96,3809,-7314,1165,-1,0,0
-155.84,27.12,-80.96,3809,-7324,1167,0,0,-1
-155.84,27.12,-80.96,3806,-7326,1168,-1,0,-1
-155.84,27.12,-80.95,3804,-7323,1177,-1,0,-1
-155.84,27.12,-80.95,3800,-7324,1172,-1,0,-1
-155.84,27.12,-80.95,3796,-7322,1171,-1,0,-1
-155.83,27.12,-80.95,3799,-7318,1171,-1,0,-1
-155.84,27.12,-80.95,3800,-7312,1167,-1,0,0
-155.83,27.12,-80.95,3796,-7315,1160,-1,0,0
-155.84,27.11,-80.95,3802,-7316,1160,-1,0,0
-155.85,27.11,-80.95,3797,-7324,1158,-1,0,0
-155.84,27.10,-80.95,3804,-7322,1161,-1,0,0
-155.84,27.10,-80.95,3799,-7324,1167,-1,0,-1
-155.84,27.10,-80.95,3797,-7320,1177,-1,0,-1
-155.85,27.10,-80.95,3792,-7322,1167,-1,0,-1
-155.84,27.11,-80.95,3803,-7321,1165,-1,0,-1
-155.83,27.11,-80.96,3803,-7323,1157,-1,0,-1
-155.84,27.10,-80.96,3803,-7313,1164,-1,0,0
-155.83,27.11,-80.96,3804,-7315,1167,-1,0,0
-155.84,27.10,-80.96,3796,-7307,1164,-1,0,0
-155.84,27.10,-80.96,3797,-7308,1176,-1,0,0
-155.85,27.09,-80.96,3801,-7306,1174,-1,0,0
-155.85,27.09,-80.96,3794,-7324,1166,-1,0,-1
-155.85,27.09,-80.96,3803,-7335,1175,-1,0,0
-155.85,27.09,-80.96,3798,-7322,1168,-1,0,-1
-155.85,27.09,-80.96,3788,-7320,1173,-1,0,-1
-155.84,27.09,-80.97,3800,-7323,1170,-1,0,-1
-155.83,27.10,-80.97,3813,-7319,1149,0,0,0
-155.83,27.10,-80.97,3817,-7315,1156,-1,0,0
-155.83,27.10,-80.97,3819,-7324,1169,-1,0,0
-155.85,27.08,-80.96,3780,-7317,1170,0,0,0
-155.85,27.08,-80.96,3786,-7309,1175,0,0,0
-155.86,27.07,-80.96,3776,-7312,1180,-1,0,-1
-155.86,27.07,-80.97,3772,-7307,1170,-1,-1,-1
-155.85,27.08,-80.97,3788,-7312,1160,0,0,-1
-155.85,27.08,-80.97,3799,-7313,1173,-1,-1,-1
-155.84,27.08,-80.98,3790,-7326,1154,-1,-1,-1
-155.83,27.09,-80.98,3789,-7320,1155,-1,-1,-1
-155.83,27.09,-80.98,3803,-7310,1172,-1,-1,0
-155.83,27.09,-80.99,3804,-7326,1162,-1,-1,0
-155.83,27.09,-80.99,3814,-7324,1169,0,-1,0
-155.84,27.08,-80.99,3794,-7334,1145,0,0,-1
-155.84,27.08,-80.99,3797,-7331,1152,-1,0,0
-155.84,27.08,-80.99,3792,-7338,1149,0,0,0
-155.85,27.07,-80.98,3779,-7334,1148,0,-1,-1
-155.85,27.07,-80.97,3780,-7331,1137,0,-1,-1
-155.85,27.08,-80.97,3788,-7323,1149,0,-1,-1
-155.84,27.09,-80.96,3797,-7319,1162,0,-1,-1
-155.84,27.10,-80.96,3800,-7312,1173,0,-1,-1
-155.84,27.10,-80.95,3807,-7315,1174,0,-1,-1
-155.84,27.10,-80.95,3800,-7321,1168,0,0,-1
-155.84,27.10,-80.95,3800,-7322,1162,0,-1,0
-155.84,27.10,-80.94,3798,-7321,1169,0,-1,0
-155.84,27.10,-80.94,3799,-7321,1174,-1,-1,0
-155.85,27.10,-80.94,3797,-7318,1178,0,-1,0
-155.85,27.09,-80.94,3789,-7321,1178,0,-1,0
-155.86,27.09,-80.93,3785,-7322,1176,0,-1,0
-155.86,27.09,-80.93,3777,-7325,1168,0,-1,-1
-155.86,27.09,-80.94,3790,-7326,1163,0,-1,-1
-155.86,27.09,-80.93,3797,-7331,1171,0,-1,-1
-155.85,27.10,-80.93,3799,-7332,1164,0,-1,-1
-155.85,27.11,-80.92,3804,-7327,1169,0,-1,-1
-155.85,27.10,-80.93,3791,-7314,1163,0,-1,-1
-155.85,27.11,-80.93,3797,-7306,1165,0,-1,0
-155.86,27.10,-80.92,3796,-7313,1164,0,-1,0
-155.86,27.10,-80.92,3800,-7301,1176,-1,-1,0
-155.86,27.10,-80.92,3800,-7312,1169,0,-1,0
-155.86,27.10,-80.91,3794,-7319,1189,0,-1,0
-155.86,27.10,-80.92,3789,-7317,1174,-1,-1,-1
-155.86,27.10,-80.92,3790,-7318,1169,0,-1,-1
-155.86,27.11,-80.92,3789,-7319,1171,0,-1,-1
-155.86,27.11,-80.93,3788,-7322,1162,0,-1,-1
-155.85,27.11,-80.93,3802,-7323,1157,0,-1,-1
-155.85,27.11,-80.92,3802,-7315,1165,0,-1,0
-155.85,27.12,-80.92,3811,-7316,1170,0,-1,-1
-155.85,27.12,-80.92,3810,-7321,1167,0,-1,-1
-155.84,27.13,-80.92,3807,-7321,1169,0,-1,-1
-155.84,27.13,-80.92,3805,-7313,1170,0,-1,-1
-155.84,27.13,-80.92,3794,-7311,1167,0,-1,-1
-155.85,27.12,-80.91,3799,-7309,1169,0,-1,0
-155.84,27.13,-80.91,3794,-7313,1175,0,-1,0
-155.85,27.12,-80.91,3794,-7309,1176,0,-1,0
-155.85,27.12,-80.92,3797,-7311,1167,-1,-1,-1
-155.85,27.12,-80.93,3798,-7320,1159,-1,-1,0
-155.85,27.12,-80.93,3796,-7313,1153,-1,-1,0
-155.85,27.12,-80.94,3800,-7320,1154,-1,-1,0
-155.84,27.12,-80.95,3800,-7322,1151,-1,-1,0
-155.85,27.12,-80.95,3800,-7331,1154,0,-1,-1
-155.84,27.12,-80.94,3807,-7328,1168,0,0,-1
-155.84,27.12,-80.94,3792,-7320,1162,0,0,-1
-155.85,27.12,-80.94,3799,-7315,1167,0,-1,0
-155.85,27.12,-80.93,3805,-7320,1173,0,-1,0
-155.85,27.12,-80.93,3810,-7310,1177,0,0,0
-155.85,27.12,-80.92,3803,-7316,1166,0,0,-1
-155.84,27.14,-80.92,3804,-7320,1168,0,0,-1
-155.85,27.13,-80.92,3791,-7304,1180,0,-1,-1
-155.84,27.14,-80.92,3791,-7306,1178,-1,-1,-1
-155.84,27.14,-80.92,3812,-7316,1179,-1,-1,0
-155.84,27.13,-80.94,3820,-7343,1129,0,0,0
-155.85,27.12,-80.92,3803,-7316,1186,-1,-1,0
-155.85,27.12,-80.93,3807,-7321,1172,-1,-1,0
-155.86,27.11,-80.93,3803,-7310,1167,0,0,0
-155.88,27.10,-80.93,3775,-7325,1172,0,-1,0
-155.87,27.10,-80.95,3791,-7322,1175,-1,-1,-1
-155.87,27.10,-80.95,3799,-7331,1166,0,0,0
-155.88,27.09,-80.95,3780,-7313,1187,-1,-2,-1
-155.88,27.10,-80.96,3829,-7312,1178,-1,0,0
-155.88,27.10,-80.95,3797,-7337,1186,0,-1,-1
-155.86,27.10,-80.97,3837,-7312,1148,-2,0,0
-155.89,27.08,-80.95,3769,-7314,1173,0,0,0
-155.90,27.07,-80.96,3790,-7280,1169,-1,-1,0
-155.89,27.08,-80.95,3780,-7292,1185,-1,0,-1
-155.90,27.07,-80.95,3776,-7313,1176,0,-1,-1
-155.90,27.07,-80.95,3759,-7322,1155,0,-1,0
-155.88,27.08,-80.97,3798,-7325,1162,-1,-1,-1
-155.88,27.09,-80.97,3784,-7327,1158,0,-1,-1
-155.86,27.10,-80.97,3839,-7346,1159,-1,-1,-1
-155.86,27.11,-80.97,3817,-7328,1132,1,0,0
-155.87,27.11,-80.94,3808,-7301,1171,0,-1,-1
-155.86,27.12,-80.94,3821,-7323,1154,0,0,-1
-155.86,27.13,-80.92,3801,-7334,1158,0,0,-1
-155.87,27.12,-80.90,3783,-7327,1174,0,-1,-1
-155.87,27.13,-80.90,3802,-7319,1174,0,-1,-1
-155.86,27.13,-80.90,3810,-7319,1176,0,-1,-1
-155.87,27.13,-80.89,3801,-7318,1178,0,-1,-1
-155.86,27.14,-80.89,3795,-7306,1179,0,-1,-1
-155.86,27.14,-80.89,3793,-7304,1186,0,-1,-1
-155.86,27.14,-80.89,3799,-7307,1174,-1,-1,-1
-155.86,27.14,-80.89,3808,-7310,1173,0,-1,0
-155.86,27.14,-80.89,3808,-7314,1173,-1,0,-1
-155.86,27.14,-80.90,3797,-7315,1170,-1,-1,0
-155.86,27.14,-80.90,3798,-7318,1168,0,-1,0
-155.86,27.14,-80.91,3808,-7321,1157,0,-1,-1
-155.86,27.14,-80.91,3804,-7321,1145,0,0,-1
-155.86,27.14,-80.90,3800,-7314,1161,0,0,0
-155.87,27.14,-80.89,3796,-7315,1171,0,-1,-1
-155.87,27.14,-80.89,3805,-7316,1170,-1,0,-1
-155.87,27.14,-80.89,3806,-7312,1179,0,0,-1
-155.86,27.14,-80.89,3808,-7320,1169,-1,0,-1
-155.85,27.15,-80.88,3804,-7319,1177,-1,0,-1
-155.85,27.15,-80.89,3803,-7313,1170,-1,0,-1
-155.85,27.15,-80.89,3802,-7306,1174,-1,0,-1
-155.85,27.15,-80.89,3801,-7308,1172,-1,0,0
-155.85,27.15,-80.90,3797,-7308,1177,-1,0,0
-155.84,27.14,-80.92,3802,-7317,1173,-1,0,-1
-155.84,27.14,-80.92,3796,-7318,1165,-1,0,-1
-155.83,27.15,-80.93,3799,-7318,1174,-1,0,0
-155.83,27.14,-80.94,3799,-7322,1168,-1,0,-1
-155.82,27.15,-80.94,3801,-7331,1163,-1,0,-1
-155.82,27.15,-80.94,3816,-7332,1160,0,0,-1
-155.82,27.16,-80.93,3809,-7322,1162,-1,0,-1
-155.82,27.16,-80.92,3801,-7308,1166,-1,0,-1
-155.81,27.16,-80.93,3806,-7304,1170,-1,0,-1
-155.81,27.16,-80.93,3806,-7312,1167,-1,0,0
-155.81,27.16,-80.93,3808,-7316,1174,-1,0,-1
-155.81,27.16,-80.93,3814,-7317,1184,-1,0,-1
-155.81,27.15,-80.92,3799,-7307,1182,-1,0,0
-155.81,27.15,-80.93,3806,-7314,1183,-1,0,-1
-155.80,27.15,-80.93,3812,-7318,1166,-1,0,-1
-155.80,27.15,-80.93,3805,-7319,1163,-1,0,-1
-155.79,27.16,-80.94,3814,-7313,1164,-1,0,-1
-155.79,27.16,-80.94,3810,-7313,1167,-1,0,0
-155.79,27.16,-80.94,3805,-7310,1165,-1,0,0
-155.80,27.15,-80.94,3799,-7315,1169,-1,0,0
-155.80,27.15,-80.94,3802,-7316,1166,-1,0,-1
-155.79,27.15,-80.94,3805,-7322,1169,-1,0,-1
-155.79,27.15,-80.94,3808,-7319,1170,-1,0,-1
-155.78,27.15,-80.94,3807,-7311,1178,-1,0,0
-155.79,27.15,-80.95,3808,-7309,1175,-1,0,-1
-155.79,27.15,-80.95,3806,-7308,1171,0,0,0
-155.79,27.15,-80.95,3797,-7311,1171,-1,0,0
-155.79,27.14,-80.95,3804,-7316,1161,-1,0,0
-155.80,27.13,-80.95,3807,-7323,1155,-1,0,0
-155.80,27.13,-80.95,3800,-7326,1168,-1,0,0
-155.80,27.13,-80.95,3797,-7325,1171,-1,0,-1
-155.80,27.13,-80.95,3796,-7327,1158,-1,0,-1
-155.80,27.13,-80.95,3804,-7328,1157,-1,0,-1
-155.78,27.14,-80.96,3807,-7318,1161,-1,0,-1
-155.78,27.14,-80.96,3818,-7316,1156,-1,0,-1
-155.78,27.14,-80.96,3810,-7317,1162,0,0,-1
-155.78,27.14,-80.96,3795,-7311,1169,-1,0,-1
-155.78,27.13,-80.96,3800,-7314,1168,-1,0,0
-155.79,27.13,-80.96,3799,-7314,1167,0,0,0
-155.79,27.13,-80.96,3798,-7319,1162,-1,0,0
-155.80,27.12,-80.96,3787,-7306,1177,-1,0,0
-155.80,27.12,-80.96,3800,-7313,1169,-1,0,0
-155.80,27.12,-80.96,3797,-7316,1170,-1,0,-1
-155.79,27.11,-80.98,3802,-7321,1140,-1,0,0
-155.80,27.11,-80.97,3782,-7313,1176,-1,0,0
-155.79,27.11,-80.98,3797,-7321,1147,-1,-1,-1
-155.79,27.11,-80.99,3793,-7316,1147,-1,0,0
-155.80,27.11,-80.99,3806,-7312,1156,-1,0,0
-155.80,27.10,-80.99,3799,-7313,1153,-1,0,-1
-155.80,27.10,-80.99,3808,-7331,1156,-1,0,-1
-155.80,27.10,-80.98,3801,-7322,1165,0,0,0
-155.79,27.11,-80.98,3790,-7315,1176,-1,0,-1
-155.79,27.11,-80.98,3793,-7322,1155,-1,0,-1
-155.79,27.11,-80.99,3793,-7320,1157,-1,0,-1
-155.78,27.11,-80.99,-258,-258,-258,-1,0,-2
-155.78,27.11,-80.99,3806,-7313,1156,-1,0,-1
-155.78,27.11,-80.99,3810,-7310,1152,0,0,0
-155.78,27.11,-80.99,3799,-7308,1155,0,0,0
-155.79,27.10,-80.99,3801,-7323,1153,0,0,0
-155.80,27.10,-80.98,3787,-7320,1156,-1,-1,0
-155.80,27.10,-80.98,3789,-7319,1171,0,-1,0
-155.80,27.10,-80.98,3794,-7331,1158,0,0,0
-155.80,27.10,-80.98,3793,-7324,1159,0,-1,-1
-155.80,27.10,-80.98,3794,-7317,1159,0,-1,-1
-155.80,27.10,-80.97,3797,-7312,1162,0,-1,0
-155.81,27.10,-80.96,3793,-7313,1172,0,-1,-1
-155.80,27.11,-80.95,3799,-7321,1179,0,-1,-1
-155.81,27.10,-80.95,3796,-7323,1175,0,-1,-1
-155.80,27.11,-80.94,3793,-7323,1168,0,-1,-1
-155.81,27.10,-80.94,3800,-7311,1161,0,-1,0
-155.80,27.11,-80.94,3800,-7321,1166,0,-1,-1
-155.81,27.11,-80.94,3794,-7316,1175,0,-1,0
-155.81,27.11,-80.93,3788,-7319,1164,0,-1,-1
-155.81,27.11,-80.94,3787,-7321,1162,0,-1,-1
-155.81,27.11,-80.93,3791,-7319,1155,0,-1,-1
-155.81,27.12,-80.94,3799,-7319,1154,0,-1,-1
-155.80,27.12,-80.93,3803,-7316,1169,0,-1,-1
-155.80,27.12,-80.94,3803,-7318,1159,0,-1,0
-155.81,27.13,-80.93,3804,-7315,1176,0,-1,0
-155.81,27.12,-80.93,3800,-7320,1165,0,-1,0
-155.81,27.12,-80.92,3794,-7323,1168,0,-1,-1
-155.82,27.12,-80.92,3792,-7320,1174,0,-1,0
-155.81,27.13,-80.92,3798,-7317,1175,0,-1,-1
-155.81,27.13,-80.92,3796,-7318,1172,0,-1,-1
-155.81,27.13,-80.93,3794,-7311,1172,0,-1,-1
-155.81,27.13,-80.92,3802,-7311,1165,0,-1,-1
-155.80,27.14,-80.93,3804,-7314,1170,0,-1,-1
-155.80,27.14,-80.93,3811,-7319,1165,0,-1,-1
-155.80,27.14,-80.93,3818,-7310,1161,0,-1,0
-155.80,27.14,-80.93,3809,-7320,1151,0,-1,0
-155.80,27.14,-80.94,3811,-7318,1161,0,-1,-1
-155.80,27.14,-80.94,3797,-7320,1158,-1,-1,0
-155.80,27.14,-80.94,3801,-7312,1165,0,-1,0
-155.80,27.14,-80.94,3800,-7307,1165,-1,-1,0
-155.80,27.15,-80.94,3810,-7316,1158,-1,-1,0
-155.80,27.15,-80.94,3815,-7326,1170,0,-1,-1
-155.79,27.15,-80.94,3811,-7328,1175,-1,-1,-1
-155.80,27.15,-80.94,3804,-7323,1167,0,-1,0
-155.81,27.14,-80.93,3798,-7316,1184,0,-1,0
-155.82,27.13,-80.93,3789,-7324,1169,-1,-1,0
-155.81,27.14,-80.93,3791,-7322,1169,0,-1,-1
-155.82,27.14,-80.93,3787,-7320,1169,0,-1,-1
-155.81,27.15,-80.93,3814,-7321,1182,0,-1,-1
-155.81,27.15,-80.92,3796,-7305,1200,-1,-1,0
-155.81,27.15,-80.93,3820,-7314,1175,0,-1,-1
-155.80,27.15,-80.93,3795,-7309,1180,-1,-1,-1
-155.79,27.16,-80.93,3816,-7305,1183,-1,0,-1
-155.80,27.16,-80.93,3787,-7310,1175,0,-1,-1
-155.80,27.16,-80.93,3792,-7300,1188,-1,-1,0
-155.81,27.15,-80.93,3794,-7316,1170,0,-1,0
-155.81,27.15,-80.94,3797,-7319,1170,0,-1,0
-155.81,27.15,-80.94,3802,-7327,1168,-1,-1,-1
-155.81,27.15,-80.95,3806,-7330,1159,0,-1,-1
-155.81,27.15,-80.94,3802,-7323,1146,-1,-1,-1
-155.81,27.15,-80.94,3804,-7319,1143,0,-1,-1
-155.80,27.16,-80.93,3802,-7311,1160,0,-1,0
-155.80,27.17,-80.93,3800,-7303,1166,0,-1,-1
-155.80,27.17,-80.93,3812,-7310,1170,0,-1,0
-155.80,27.17,-80.93,3815,-7328,1174,0,-1,-1
-155.79,27.17,-80.93,3810,-7325,1167,0,-1,0
-155.80,27.17,-80.92,3800,-7329,1169,0,-1,-1
-155.80,27.17,-80.92,3798,-7319,1169,0,-1,-1
-155.80,27.18,-80.92,3801,-7309,1168,-1,-1,-1
-155.80,27.18,-80.92,3796,-7302,1172,0,-1,-1
-155.80,27.17,-80.92,3790,-7311,1170,-1,-1,-1
-155.80,27.18,-80.93,3795,-7314,1166,0,-1,0
-155.80,27.17,-80.93,3803,-7314,1165,-1,-1,0
-155.80,27.18,-80.93,3807,-7315,1168,0,-1,0
-155.80,27.17,-80.93,3805,-7321,1161,0,-1,-1
-155.81,27.17,-80.92,3802,-7328,1157,0,-1,0
-155.80,27.18,-80.92,3805,-7317,1165,0,-1,-1
-155.80,27.18,-80.91,3805,-7319,1176,0,0,-1
-155.81,27.18,-80.90,3798,-7315,1178,0,-1,-1
-155.81,27.18,-80.90,3806,-7309,1178,0,0,-1
-155.80,27.19,-80.89,3804,-7311,1183,0,0,-1
-155.80,27.19,-80.89,3801,-7312,1168,0,-1,-1
-155.80,27.19,-80.89,3800,-7312,1173,0,-1,-1
-155.80,27.19,-80.89,3799,-7309,1170,0,-1,0
-155.80,27.19,-80.90,3800,-7303,1177,-1,-1,0
-155.80,27.19,-80.90,3803,-7305,1174,-1,-1,0
-155.80,27.19,-80.91,3802,-7305,1170,-1,-1,0
-155.80,27.19,-80.91,3805,-7306,1164,0,-1,0
-155.80,27.19,-80.91,3804,-7314,1153,0,-1,0
-155.80,27.19,-80.91,3806,-7321,1156,0,-1,-1
-155.80,27.19,-80.91,3803,-7319,1164,0,0,-1
-155.80,27.19,-80.91,3805,-7316,1163,0,-1,-1
-155.80,27.19,-80.90,3798,-7310,1177,0,0,-1
-155.80,27.19,-80.90,3809,-7304,1181,0,-1,0
-155.81,27.18,-80.89,3805,-7310,1179,0,-1,-1
-155.81,27.19,-80.89,3806,-7313,1180,0,-1,0
-155.82,27.18,-80.89,3795,-1,-1,0,-1,0
-155.82,27.18,-80.89,3795,-7311,1177,0,-1,-1
-155.81,27.19,-80.89,3801,-7315,1174,0,-1,-1
-155.81,27.19,-80.89,3806,-7312,1179,-1,-1,-1
-155.80,27.20,-80.89,3807,-7316,1166,0,-1,-1
-155.80,27.20,-80.89,3808,-7313,1171,0,-1,-1
-155.81,27.19,-80.89,3812,-7304,1172,0,-1,0
-155.80,27.20,-80.89,3817,-7308,1164,-1,-1,0
-155.80,27.20,-80.90,3819,-7312,1151,0,-1,0
-155.81,27.19,-80.89,3818,-7312,1157,0,-1,0
-155.82,27.19,-80.89,3811,-7315,1178,0,-1,0
-155.82,27.19,-80.88,3807,-7315,1183,0,-1,0
-155.83,27.18,-80.88,3795,-7322,1183,0,-1,-1
-155.83,27.18,-80.88,3806,-7321,1178,-1,0,-1
-155.82,27.19,-80.88,3809,-7311,1178,0,0,-1
-155.81,27.20,-80.88,3812,-7306,1177,-1,-1,-1
-155.81,27.20,-80.88,3809,-7302,1178,-1,-1,0
-155.81,27.20,-80.89,3815,-7303,1174,-1,0,0
-155.81,27.20,-80.89,3807,-7307,1166,-1,0,0
-155.81,27.19,-80.90,3808,-7313,1160,-1,0,0
-155.81,27.19,-80.91,3794,-7314,1159,-1,0,-1
-155.80,27.19,-80.91,3804,-7309,1175,-1,0,0
-155.80,27.19,-80.92,3800,-7314,1160,-1,-1,-1
-155.80,27.19,-80.93,3800,-7318,1149,-1,-1,-1
-155.80,27.19,-80.93,3819,-7328,1161,-1,0,-1
-155.79,27.19,-80.93,3807,-7326,1166,-1,0,-1
-155.80,27.19,-80.92,3800,-7319,1158,-1,0,-1
-155.79,27.19,-80.92,3809,-7325,1168,-1,0,-1
-155.79,27.19,-80.93,3814,-7326,1153,-1,0,-1
-155.79,27.19,-80.92,3816,-7323,1159,0,0,0
-155.79,27.20,-80.92,3820,-7316,1175,-1,0,0
-155.79,27.19,-80.92,3814,-7312,1181,-1,0,0
-155.80,27.18,-80.92,3803,-7314,1176,-1,0,0
-155.80,27.18,-80.92,3799,-7315,1168,-1,0,-1
-155.80,27.18,-80.92,3805,-7319,1161,0,0,0
-155.80,27.18,-80.92,3799,-7316,1171,-1,0,-1
-155.80,27.18,-80.94,3803,-7312,1160,-1,0,-1
-155.80,27.18,-80.93,3801,-7297,1179,-1,-1,0
-155.80,27.17,-80.94,3786,-7312,1167,-1,0,0
-155.80,27.16,-80.95,3804,-7318,1175,-1,-1,0
-155.81,27.15,-80.95,3807,-7327,1158,-1,0,-1
-155.80,27.16,-80.95,3825,-7333,1164,-1,0,0
-155.80,27.16,-80.96,3799,-7334,1150,0,0,0
-155.80,27.16,-80.96,3818,-7318,1160,-1,-1,0
-155.80,27.15,-80.96,3801,-7328,1178,-1,0,0
-155.80,27.16,-80.98,3812,-7322,1135,0,0,0
-155.83,27.13,-80.95,3784,-7318,1174,-1,0,0
-155.83,27.13,-80.97,3810,-7324,1159,-1,-1,0
-155.84,27.12,-80.96,3783,-7332,1167,0,0,0
-155.85,27.11,-80.95,3791,-7309,1185,-1,0,0
-155.85,27.11,-80.95,3792,-7334,1180,-1,-1,-1
-155.84,27.11,-80.96,3796,-7314,1167,-1,0,0
-155.85,27.11,-80.95,3797,-7306,1188,0,-1,-1
-155.84,27.11,-80.96,3797,-7303,1175,-1,0,0
-155.84,27.11,-80.96,3792,-7298,1166,0,0,0
-155.84,27.11,-80.96,3790,-7304,1172,-1,0,-1
-155.84,27.11,-80.96,3788,-7320,1167,0,0,0
-155.84,27.10,-80.97,3810,-7330,1162,-1,-1,-1
-155.83,27.11,-80.98,3801,-7338,1157,-1,0,-1
-155.83,27.11,-80.98,3789,-7332,1148,0,0,-1
-155.83,27.11,-80.98,3786,-7321,1154,-1,-1,-1
-155.82,27.12,-80.98,3795,-7326,1154,-1,0,-1
-155.82,27.12,-80.98,3799,-7323,1142,-1,0,-1
-155.81,27.13,-80.98,3798,-7322,1142,0,0,-1
-155.80,27.14,-80.98,3800,-7305,1155,-1,0,-1
-155.80,27.14,-80.98,3808,-7314,1159,0,0,-1
-155.80,27.14,-80.97,3798,-7306,1163,0,0,-1
-155.80,27.14,-80.97,3796,-7304,1172,-1,0,0
-155.80,27.14,-80.97,3808,-7314,1168,0,0,-1
-155.80,27.14,-80.97,3793,-7325,1168,0,0,0
-155.80,27.14,-80.97,3794,-7314,1167,-1,-1,-1
-155.79,27.15,-80.97,3793,-7313,1175,-1,-1,-1
-155.79,27.15,-80.97,3797,-7317,1171,-1,0,-1
-155.79,27.15,-80.97,3800,-7315,1169,-1,-1,-1
-155.79,27.15,-80.97,3797,-7316,1169,0,-1,0
-155.80,27.15,-80.96,3804,-7313,1161,0,-1,0
-155.80,27.14,-80.96,3803,-7311,1162,0,-1,0
-155.80,27.14,-80.96,3798,-7320,1161,0,-1,0
-155.81,27.14,-80.96,3801,-7324,1162,0,0,0
-155.81,27.14,-80.95,3796,-7332,1152,0,-1,-1
-155.81,27.14,-80.96,3792,-7328,1157,0,-1,-1
-155.81,27.14,-80.95,3792,-7316,1155,0,-1,-1
-155.81,27.14,-80.95,3793,-7315,1148,0,-1,-1
-155.80,27.15,-80.95,3801,-7314,1164,0,-1,-1
-155.81,27.15,-80.94,3804,-7313,1169,0,-1,-1
-155.81,27.15,-80.95,3808,-7314,1171,0,-1,-1
-155.81,27.15,-80.95,3801,-7319,1159,0,-1,0
-155.81,27.15,-80.94,3800,-7313,1171,0,-1,0
-155.81,27.15,-80.94,3794,-7312,1171,0,-1,0
-155.81,27.15,-80.94,3796,-7311,1166,0,-1,0
-155.81,27.16,-80.93,3804,-7319,1169,0,-1,-1
-155.81,27.16,-80.93,3805,-7319,1170,0,-1,0
-155.81,27.16,-80.93,3803,-7321,1161,0,-1,-1
-155.81,27.16,-80.93,3806,-7318,1155,0,-1,-1
-155.81,27.16,-80.94,3809,-7313,1162,0,-1,0
-155.81,27.16,-80.93,3803,-7316,1165,0,-1,-1
-155.81,27.16,-80.93,3805,-7314,1163,0,-1,0
-155.81,27.16,-80.92,3794,-7312,1161,0,-1,-1
-155.81,27.17,-80.93,3799,-7319,1171,0,-1,-1
-155.81,27.17,-80.92,3805,-7325,1173,0,-1,-1
-155.81,27.17,-80.93,3806,-7317,1166,0,-1,-1
-155.81,27.17,-80.93,3807,-7316,1166,0,-1,0
-155.81,27.17,-80.92,3809,-7312,1160,0,-1,0
-155.81,27.18,-80.93,3809,-7314,1162,0,-1,0
-155.81,27.18,-80.93,3807,-7322,1162,0,-1,-1
-155.82,27.17,-80.92,3810,-7321,1172,0,-1,0
-155.81,27.18,-80.92,3804,-7313,1171,0,-1,-1
-155.82,27.17,-80.92,3804,-7316,1176,0,-1,0
-158.82,174.54,177.45,-1,-1,-1,-1,-1,-1
-155.82,27.17,-80.92,3797,-7316,1174,0,-1,-1
-155.82,27.17,-80.92,3799,-7316,1172,0,-1,-1
-155.81,27.18,-80.92,3816,-7320,1176,-1,-1,0
-155.81,27.18,-80.91,3815,-7320,1183,0,-1,-1
-155.81,27.18,-80.92,3811,-7323,1176,0,-1,0
-155.81,27.18,-80.92,3810,-7332,1165,0,-1,-1
-155.82,27.18,-80.91,3813,-7328,1171,0,-1,0
-155.81,27.18,-80.91,3808,-7325,1173,0,-1,-1
-155.82,27.19,-80.90,3805,-7313,1174,0,-1,-1
-155.82,27.19,-80.91,3809,-7312,1174,0,-1,-1
-155.82,27.19,-80.90,3806,-7307,1173,0,-1,-1
-155.81,27.19,-80.90,3807,-7307,1179,0,-1,-1
-155.81,27.20,-80.91,3813,-7310,1168,0,-1,-1
-155.81,27.20,-80.91,3809,-7315,1159,0,-1,0
-155.81,27.20,-80.90,3805,-7317,1160,0,-1,0
-155.82,27.19,-80.90,3800,-7316,1162,0,-1,0
-155.82,27.19,-80.90,3799,-7320,1163,0,-1,-1
-155.82,27.19,-80.90,3804,-7328,1158,0,-1,-1
-155.82,27.19,-80.91,3806,-7324,1161,0,-1,-1
-155.82,27.19,-80.91,3807,-7322,1168,0,-1,-1
-155.82,27.19,-80.90,3806,-7321,1178,0,-1,-1
-155.82,27.19,-80.90,3803,-7316,1180,-1,-1,-1
-155.81,27.20,-80.91,3804,-7313,1170,0,-1,0
-155.83,27.19,-80.90,3798,-7315,1169,0,-1,0
-155.82,27.19,-80.91,3801,-7314,1166,0,-1,0
-155.82,27.19,-80.91,3804,-7312,1171,0,-1,-1
-155.82,27.19,-80.91,3811,-7312,1179,0,-1,0
-155.82,27.19,-80.90,3803,-7314,1184,0,-1,0
-155.82,27.19,-80.91,3809,-7319,1166,-1,-1,0
-155.83,27.19,-80.91,3801,-7319,1163,0,-1,0
-155.83,27.19,-80.91,3798,-7319,1173,0,-1,0
-155.84,27.18,-80.91,3795,-7309,1180,0,-1,-1
-155.84,27.18,-80.91,3801,-7307,1164,0,0,0
-155.83,27.18,-80.91,3805,-7323,1155,0,-1,-1
-155.83,27.19,-80.90,3807,-7319,1166,0,-1,-1
-155.83,27.19,-80.90,3802,-7312,1174,0,-1,-1
-155.83,27.19,-80.90,3801,-7311,1171,0,-1,-1
-155.82,27.20,-80.91,3811,-7310,1164,-1,-1,-1
-155.82,27.20,-80.91,3808,-7307,1155,0,-1,-1
-155.82,27.20,-80.91,3808,-7304,1159,0,-1,0
-155.82,27.20,-80.91,3813,-7309,1165,-1,-1,0
-155.82,27.19,-80.91,3808,-7304,1170,-1,-1,0
-155.83,27.19,-80.92,3807,-7315,1163,-1,-1,0
-155.84,27.18,-80.92,3798,-7321,1160,0,-1,0
-155.84,27.18,-80.92,3799,-7321,1169,0,-1,-1
-155.83,27.19,-80.92,3804,-7324,1172,0,-1,-1
-155.84,27.19,-80.91,3805,-7322,1182,0,-1,-1
-155.83,27.19,-80.91,3803,-7318,1166,0,0,-1
-155.83,27.20,-80.90,3810,-7315,1166,0,-1,-1
-155.83,27.20,-80.90,3808,-7304,1174,0,-1,-1
-155.84,27.20,-80.89,3804,-7303,1175,0,-1,0
-155.84,27.20,-80.89,3805,-7305,1184,0,-1,0
-155.84,27.19,-80.89,3802,-7301,1187,-1,-1,0
-155.84,27.19,-80.89,3798,-7309,1180,-1,-1,0
-155.84,27.19,-80.90,3795,-7313,1176,0,-1,0
-155.85,27.19,-80.90,3795,-7314,1183,-1,-1,0
-155.84,27.19,-80.91,3799,-7317,1185,-1,-1,0
-155.84,27.18,-80.92,3806,-7319,1166,0,-1,0
-155.84,27.19,-80.92,3805,-7318,1166,0,-1,0
-155.84,27.19,-80.91,3808,-7318,1159,0,-1,-1
-155.84,27.19,-80.92,3815,-7314,1161,0,-1,0
-155.85,27.19,-80.91,3819,-7317,1168,0,-1,0
-155.85,27.18,-80.91,3802,-7317,1170,0,-1,0
-155.85,27.19,-80.90,3804,-7323,1158,0,0,0
-155.86,27.18,-80.89,3794,-7315,1179,0,-1,0
-155.86,27.18,-80.89,3790,-7312,1175,0,-1,-1
-155.87,27.18,-80.89,3791,-7312,1175,0,-1,-1
-155.86,27.18,-80.88,3803,-7311,1178,0,-1,-1
-155.85,27.20,-80.89,3809,-7308,1163,0,-1,-1
-155.84,27.20,-80.89,3818,-7309,1163,0,-1,-1
-155.84,27.20,-80.89,3810,-7305,1167,0,-1,0
-155.84,27.20,-80.91,3807,-7315,1164,-1,-1,0
-155.85,27.19,-80.91,3809,-7321,1163,0,-1,0
-155.85,27.19,-80.91,3797,-7318,1158,0,-1,0
-155.86,27.19,-80.90,3789,-7323,1163,0,-1,0
-155.87,27.18,-80.90,3792,-7322,1166,0,-1,-1
-155.86,27.19,-80.91,3798,-7320,1170,0,-1,-1
-155.86,27.19,-80.90,3810,-7321,1174,0,-1,-1
-155.85,27.20,-80.90,3814,-7317,1177,0,-1,-1
-155.85,27.20,-80.90,3818,-7310,1188,-1,0,-1
-155.85,27.20,-80.90,3813,-7312,1193,-1,-1,-1
-155.85,27.20,-80.90,3817,-7308,1182,-1,-1,0
-155.85,27.20,-80.89,3811,-7308,1174,-1,0,0
-155.85,27.20,-80.91,3809,-7310,1168,-1,-1,0
-155.85,27.20,-80.92,3806,-7315,1170,-1,0,-1
-155.85,27.19,-80.92,3799,-7317,1172,-1,-1,-1
-155.84,27.20,-80.92,3802,-7321,1167,-1,-1,-1
-155.84,27.20,-80.93,3796,-7318,1170,-1,-1,-1
-155.84,27.20,-80.93,3811,-7318,1167,-1,0,-1
-155.83,27.20,-80.93,3809,-7325,1156,-1,0,-1
-155.84,27.20,-80.93,3809,-7322,1160,0,0,0
-155.84,27.20,-80.92,3808,-7314,1169,-1,0,-1
-155.83,27.20,-80.93,3809,-7314,1168,-1,0,-1
-155.84,27.20,-80.92,3804,-7318,1169,-1,0,-1
-155.83,27.20,-80.93,3808,-7321,1157,-1,0,0
-155.84,27.19,-80.92,3808,-7312,1161,-1,0,0
-155.84,27.19,-80.93,3800,-7310,1170,-1,0,-1
-155.84,27.19,-80.93,3809,-7318,1168,-1,0,0
-155.84,27.18,-80.94,3809,-7312,1171,-1,-1,0
-155.84,27.18,-80.94,3822,-7307,1172,-1,0,0
-155.85,27.17,-80.94,3806,-7318,1171,0,0,0
-155.85,27.17,-80.95,3804,-7314,1177,-1,0,-1
-155.86,27.16,-80.95,3796,-7305,1170,-1,0,0
-155.86,27.16,-80.96,3793,-7318,1160,-1,0,-1
-155.85,27.15,-80.97,3772,-7312,1153,-1,0,-1
-155.84,27.16,-80.97,3812,-7293,1161,0,0,0
-155.84,27.16,-80.98,3791,-7313,1154,-1,-1,-1
-155.83,27.16,-81.00,3809,-7341,1132,0,-1,-1
-155.83,27.17,-80.99,3804,-7329,1156,-1,-1,0
-155.82,27.17,-80.99,3814,-7322,1142,-1,0,-1
-155.82,27.17,-80.99,3810,-7309,1153,0,-1,0
-155.83,27.17,-80.99,3791,-7307,1150,0,0,0
-155.83,27.17,-80.99,3805,-7314,1160,-1,0,-1
-155.83,27.17,-80.98,3808,-7335,1149,0,0,-1
-155.83,27.17,-80.97,3797,-7339,1157,0,0,-1
-155.83,27.18,-80.97,3803,-7326,1160,-1,-1,-1
-155.81,27.18,-80.97,3805,-7321,1154,0,0,-1
-155.81,27.19,-80.97,3813,-7306,1167,-1,-1,-1
-155.80,27.19,-80.98,3812,-7296,1165,-1,0,-1
-155.81,27.20,-80.97,3807,-7294,1176,-1,0,0
-155.81,27.19,-80.97,3800,-7300,1167,0,0,0
-155.82,27.18,-80.97,3797,-7315,1163,-1,0,0
-155.82,27.18,-80.96,3799,-7324,1164,0,0,0
-155.82,27.18,-80.97,3811,-7332,1157,-1,0,0
-155.82,27.18,-80.97,3803,-7329,1164,0,0,-1
-155.81,27.18,-80.97,3804,-7327,1162,-1,0,-1
-155.81,27.19,-80.97,3805,-7321,1157,-1,0,-1
-155.80,27.20,-80.97,3807,-7315,1153,-1,0,-1
-155.80,27.20,-80.97,3816,-7319,1161,-1,0,-1
-155.80,27.20,-80.97,3823,-7320,1162,-1,0,0
-155.80,27.19,-80.97,3815,-7323,1167,-1,0,0
-155.80,27.19,-80.97,3803,-7319,1158,0,-1,0
-155.81,27.18,-80.97,3798,-7318,1160,-1,0,0
-155.81,27.18,-80.97,3803,-7311,1156,-1,0,0
-155.81,27.18,-80.97,3798,-7314,1151,0,0,-1
-155.82,27.17,-80.97,3793,-7318,1171,-1,0,-1
-155.82,27.17,-80.97,3796,-7318,1168,-1,-1,-1
-155.81,27.18,-80.98,3798,-7323,1160,-1,0,-1
-155.81,27.18,-80.98,3808,-7323,1149,-1,0,-1
-155.80,27.18,-80.98,3807,-7321,1154,-1,0,-1
-155.80,27.19,-80.98,3802,-7315,1172,0,0,0
-155.80,27.18,-80.98,3795,-7322,1167,-1,0,0
-155.81,27.17,-80.97,3800,-7312,1172,-1,0,0
-155.81,27.17,-80.97,3797,-7317,1164,-1,0,0
-155.81,27.17,-80.98,3799,-7316,1164,-1,-1,-1
-155.81,27.17,-80.98,3794,-7316,1161,0,0,0
-155.81,27.17,-80.98,3800,-7318,1166,0,-1,0
-155.82,27.16,-80.98,3804,-7312,1174,0,-1,0
-155.82,27.16,-80.98,3797,-7319,1166,-1,-1,0
-155.83,27.16,-80.98,3784,-7324,1153,0,-1,-1
-155.82,27.16,-80.97,3792,-7321,1172,0,-1,-1
-155.82,27.17,-80.97,3796,-7324,1173,0,-1,-1
-155.82,27.17,-80.96,3803,-7315,1181,0,-1,-1
-155.82,27.17,-80.97,3791,-7318,1167,0,-1,-1
-155.82,27.18,-80.96,3810,-7316,1162,-1,-1,0
-155.83,27.17,-80.96,3817,-7322,1159,0,-1,0
-155.83,27.17,-80.95,3806,-7316,1167,0,-1,0
-155.83,27.17,-80.95,3800,-7311,1168,0,-1,0
-155.84,27.17,-80.95,3801,-7325,1163,0,-1,-1
-155.83,27.17,-80.95,3804,-7322,1157,0,-1,-1
-155.84,27.18,-80.95,3801,-7320,1154,0,-1,-1
-155.83,27.18,-80.95,3802,-7319,1157,0,-1,-1
-155.83,27.18,-80.94,3799,-7315,1170,0,-1,-1
-155.83,27.18,-80.93,3805,-7308,1174,0,-1,0
-155.83,27.18,-80.94,3811,-7308,1172,0,-1,0
-155.83,27.18,-80.94,3804,-7315,1156,0,-1,0
-155.84,27.18,-80.94,3807,-7312,1161,0,-1,0
-155.84,27.18,-80.93,3810,-7310,1168,0,-1,0
-155.84,27.18,-80.93,3803,-7321,1173,0,-1,-1
-155.84,27.18,-80.93,3802,-7319,1178,0,-1,-1
-155.84,27.19,-80.93,3805,-7322,1171,0,-1,-1
-155.83,27.19,-80.93,3802,-7314,1167,-1,-1,-1
-155.83,27.19,-80.94,3804,-7316,1164,-1,-1,0
-155.83,27.19,-80.94,3811,-7318,1167,0,-1,0
-155.84,27.19,-80.94,3800,-7319,1165,0,-1,0
-155.85,27.18,-80.93,3796,-7317,1175,0,-1,0
-155.85,27.18,-80.93,3793,-7319,1162,0,-1,0
-155.85,27.18,-80.94,3800,-7324,1158,-1,-1,-1
-155.85,27.18,-80.93,3809,-7321,1158,0,-1,-1
-155.84,27.19,-80.93,3813,-7310,1166,0,-1,0
-155.84,27.19,-80.93,3805,-7320,1171,0,-1,-1
-155.84,27.20,-80.93,3813,-7320,1172,0,-1,0
-155.84,27.19,-80.93,3810,-7317,1169,0,-1,0
-155.84,27.20,-80.93,3814,-7313,1177,0,-1,-1
-155.84,27.19,-80.93,3809,-7313,1174,0,-1,-1
-155.84,27.20,-80.93,3820,-7315,1161,0,-1,-1
-155.84,27.20,-80.93,3816,-7315,1167,0,-1,0
-155.84,27.20,-80.93,3816,-7314,1166,0,-1,-1
-155.84,27.20,-80.93,3811,-7311,1176,-1,-1,0
-155.84,27.20,-80.94,3809,-7324,1150,0,-1,-1
-155.85,27.20,-80.93,3806,-7322,1154,0,-1,0
-155.84,27.20,-80.94,3807,-7325,1162,0,-1,-1
-155.84,27.20,-80.93,3803,-7314,1165,0,-1,-1
-155.84,27.21,-80.92,3804,-7312,1182,0,-1,-1
-155.84,27.21,-80.92,3809,-7316,1176,-1,-1,-1
-155.84,27.21,-80.92,3804,-7310,1179,0,0,-1
-155.85,27.20,-80.92,3798,-7312,1184,-1,-1,-1
-155.85,27.20,-80.92,3802,-7310,1186,0,-1,0
-155.85,27.20,-80.92,3802,-7308,1181,-1,-1,0
-155.85,27.20,-80.92,3800,-7310,1170,-1,-1,0
-155.85,27.20,-80.93,3811,-7310,1173,-1,-1,0
-155.85,27.20,-80.93,3807,-7322,1169,-1,-1,0
-155.86,27.19,-80.93,3804,-7322,1164,0,-1,-1
-155.86,27.19,-80.93,3807,-7320,1162,0,-1,0
-155.85,27.20,-80.94,3813,-7315,1162,-1,-1,-1
-155.85,27.20,-80.94,3819,-7318,1166,0,0,-1
-155.85,27.20,-80.93,3828,-7322,1158,0,0,0
-155.85,27.19,-80.93,3808,-7327,1155,0,0,-1
-155.87,27.19,-80.92,3800,-7317,1172,0,0,0
-155.87,27.18,-80.92,3788,-7310,1176,0,-1,0
-155.88,27.18,-80.91,3796,-7316,1173,0,-1,-1
-155.87,27.19,-80.91,3802,-7312,1179,0,0,-1
-155.87,27.19,-80.90,3810,-7311,1186,-1,-1,-1
-155.86,27.20,-80.91,3816,-7315,1184,-1,-1,-1
-155.86,27.20,-80.91,3822,-7324,1178,-1,-1,-1
-155.86,27.20,-80.91,3813,-7316,1166,-1,0,0
-155.86,27.19,-80.92,3804,-7311,1159,0,-1,0
-155.86,27.19,-80.92,3805,-7306,1161,-1,-1,0
-155.86,27.19,-80.92,3816,-7314,1159,-1,-1,0
-155.86,27.19,-80.92,3816,-7325,1164,0,-1,0
-155.86,27.19,-80.93,3814,-7329,1159,0,-1,0
-155.86,27.19,-80.93,3812,-7323,1157,0,0,-1
-155.86,27.19,-80.93,3808,-7316,1154,0,-1,0
-155.86,27.19,-80.92,3809,-7307,1160,0,0,-1
-155.86,27.19,-80.92,3807,-7306,1168,0,0,-1
-155.86,27.19,-80.92,3810,-7305,1165,0,0,-1
-155.86,27.20,-80.92,3808,-7314,1165,-1,0,-1
-155.85,27.20,-80.92,3818,-7318,1164,0,-1,0
-155.85,27.20,-80.92,3824,-7317,1166,-1,0,0
-155.85,27.20,-80.93,3822,-7310,1161,-1,-1,0
-155.85,27.20,-80.93,3814,-7309,1166,0,-1,0
-155.86,27.19,-80.93,3799,-7311,1162,-1,-1,0
-155.86,27.19,-80.93,3808,-7315,1161,-1,0,0
-155.86,27.19,-80.94,3805,-7319,1159,0,-1,0
-155.86,27.19,-80.94,3808,-7320,1145,0,0,0
-155.87,27.18,-80.93,3805,-7324,1157,0,0,-1
-155.87,27.19,-80.92,3797,-7313,1161,0,0,0
-155.87,27.19,-80.92,3792,-7304,1172,0,-1,-1
-155.87,27.19,-80.92,3802,-7315,1165,-1,-1,-1
-155.86,27.20,-80.91,3805,-7316,1162,0,0,-1
-155.86,27.20,-80.91,3814,-7316,1164,0,0,-1
-155.86,27.20,-80.91,3814,-7316,1168,0,0,-1
-155.85,27.21,-80.91,3816,-7314,1168,-1,-1,0
-155.86,27.20,-80.91,3814,-7315,1168,-1,-1,0
-155.86,27.20,-80.92,3820,-7317,1169,0,-1,0
-155.86,27.20,-80.91,3809,-7312,1175,0,-1,0
-155.86,27.20,-80.92,3808,-7311,1173,-1,-1,0
-155.86,27.20,-80.92,3810,-7314,1168,-1,-1,0
-155.86,27.20,-80.93,3809,-7315,1166,-1,-1,0
-155.85,27.20,-80.93,3814,-7322,1164,-1,-1,0
-155.85,27.20,-80.93,3815,-7314,1155,0,0,-1
-155.85,27.20,-80.93,3811,-7310,1167,-1,-1,-1
-155.85,27.20,-80.93,3812,-7308,1166,-1,0,-1
-155.85,27.21,-80.93,3816,-7310,1158,-1,0,-1
-155.85,27.21,-80.93,3808,-7313,1159,0,0,0
-155.85,27.20,-80.93,3808,-7311,1164,0,0,-1
-155.85,27.20,-80.93,3805,-7312,1164,-1,0,-1
-155.85,27.20,-80.93,3805,-7310,1170,-1,0,-1
-155.85,27.20,-80.93,3805,-7310,1172,-1,-1,-1
-155.84,27.21,-80.93,3799,-7313,1170,-1,0,-1
-155.85,27.20,-80.93,3804,-7308,1175,-1,0,-1
-155.84,27.21,-80.94,3804,-7303,1167,-1,0,-1
-155.84,27.21,-80.94,3810,-7304,1175,-1,0,0
-155.84,27.21,-80.94,3814,-7315,1167,-1,0,-1
-155.83,27.21,-80.95,3809,-7308,1168,-1,0,0
-155.84,27.20,-80.95,3806,-7314,1159,-1,0,-1
-155.83,27.21,-80.96,3806,-7313,1158,-1,0,-1
-155.84,27.20,-80.96,3808,-7314,1164,-1,0,-1
-155.83,27.21,-80.94,3810,-7314,1167,0,0,-1
-155.83,27.21,-80.94,3803,-7320,1171,0,0,-1
-155.83,27.21,-80.93,3802,-7316,1183,-1,0,-1
-155.82,27.22,-80.93,3814,-7318,1170,-1,0,-1
-155.82,27.22,-80.94,3835,-7314,1153,0,0,-1
-155.82,27.22,-80.94,3812,-7309,1169,-1,0,0
-155.82,27.21,-80.94,3827,-7312,1163,0,0,0
-155.83,27.20,-80.94,3801,-7308,1189,-1,0,0
-155.83,27.20,-80.94,3804,-7315,1171,-1,0,0
-155.85,27.18,-80.94,3798,-7305,1182,0,0,0
-155.84,27.18,-80.95,3803,-7310,1192,-1,-1,0
-155.83,27.19,-80.97,3808,-7303,1153,-1,0,0
-155.85,27.17,-80.96,3759,-7307,1175,-1,0,0
-155.85,27.17,-80.97,3822,-7313,1163,-1,-1,-1
-155.85,27.16,-80.98,3783,-7339,1148,-1,0,-1
-155.85,27.16,-80.99,3823,-7330,1151,-1,0,0
-155.86,27.15,-80.99,3811,-7317,1159,-1,0,-1
-155.85,27.15,-81.01,3789,-7326,1128,-1,-1,0
-155.87,27.13,-80.99,3795,-7300,1157,0,0,0
-155.87,27.14,-80.99,3811,-7296,1173,-1,-1,0
-155.86,27.13,-81.01,3821,-7343,1140,0,0,0
-155.88,27.13,-80.99,3777,-7318,1167,0,0,0
-155.87,27.14,-80.99,3809,-7319,1171,-1,-1,-1
-155.87,27.13,-80.99,3776,-7317,1144,0,0,-1
-155.87,27.14,-80.99,3806,-7328,1164,-1,-1,-1
-155.85,27.14,-80.99,3796,-7298,1176,-1,0,-1
-155.85,27.14,-80.99,3795,-7310,1167,0,-1,0
-155.86,27.14,-80.99,3805,-7320,1177,-1,0,0
-155.86,27.14,-80.98,3802,-7309,1170,-1,0,0
-155.85,27.15,-80.99,3810,-7327,1160,-1,-1,-1
-155.84,27.15,-80.99,3812,-7331,1159,0,0,-1
-155.85,27.15,-80.98,3794,-7331,1184,-1,0,-1
-155.84,27.15,-80.99,3795,-7324,1173,-1,0,-1
-155.84,27.15,-80.99,3798,-7314,1166,-1,0,-1
-155.84,27.15,-80.99,3809,-7322,1156,-1,0,-1
-155.84,27.15,-80.99,3807,-7320,1162,-1,0,0
-155.84,27.15,-80.99,3811,-7322,1152,0,0,0
-155.84,27.15,-80.99,3809,-7314,1155,-1,0,0
-155.83,27.15,-80.99,3808,-7324,1154,-1,0,-1
-155.83,27.16,-81.00,3804,-7314,1145,0,0,-1
-155.84,27.15,-80.99,3795,-7308,1165,-1,0,0
-155.84,27.15,-80.99,3793,-7303,1162,-1,-1,0
-155.83,27.15,-81.00,3807,-7322,1148,-1,0,0
-155.83,27.15,-81.00,3807,-7325,1148,-1,0,0
-155.84,27.14,-81.00,3791,-7323,1148,0,0,0
-155.84,27.14,-81.00,3795,-7320,1163,-1,-1,0
-155.84,27.14,-81.00,3799,-7319,1157,-1,0,-1
-155.84,27.14,-81.01,3798,-7312,1146,-1,0,-1
-155.83,27.15,-81.01,3807,-7307,1140,-1,0,-1
-155.82,27.15,-81.01,3795,-7303,1148,0,0,-1
-155.82,27.16,-81.00,3810,-7305,1148,0,0,-1
-155.82,27.16,-81.00,3806,-7312,1150,0,0,-1
-155.82,27.16,-81.00,3808,-7316,1154,0,0,0
-155.82,27.16,-81.00,3804,-7323,1160,0,-1,0
-155.83,27.15,-80.99,3801,-7325,1164,0,-1,0
-155.83,27.15,-80.98,3792,-7317,1162,0,-1,-1
-155.83,27.15,-80.98,3792,-7319,1163,0,-1,-1
-155.84,27.15,-80.99,3791,-7321,1149,0,-1,0
-155.83,27.16,-80.98,3799,-7325,1162,0,-1,-1
-155.83,27.16,-80.98,3804,-7321,1166,0,-1,-1
-155.83,27.16,-80.99,3803,-7319,1163,-1,-1,-1
-155.83,27.16,-80.98,3804,-7322,1161,0,-1,0
-155.83,27.16,-80.98,3807,-7312,1159,0,-1,0
-155.84,27.15,-80.99,3813,-7324,1142,0,-1,0
-155.85,27.15,-80.98,3814,-7336,1150,0,-1,0
-155.85,27.15,-80.98,3814,-7323,1165,-1,-1,0
-155.87,27.13,-80.97,3784,-7313,1179,0,-1,0
-155.87,27.13,-80.98,3803,-7308,1198,-1,-1,0
-155.87,27.12,-80.99,3780,-7331,1137,0,0,0
-155.88,27.12,-80.98,3792,-7314,1172,-2,-1,-1
-155.88,27.12,-81.00,3787,-7334,1148,0,-1,0
-155.88,27.12,-81.00,3809,-7297,1172,-1,0,0
-155.89,27.11,-81.00,3767,-7309,1166,-1,-1,-1
-155.88,27.11,-81.02,3804,-7324,1137,0,0,0
-155.89,27.11,-80.99,3784,-7315,1179,-1,-1,0
-155.88,27.11,-81.01,3802,-7319,1132,0,-1,-1
-155.90,27.10,-81.00,3788,-7317,1165,0,-1,0
-155.89,27.11,-81.01,3808,-7314,1132,0,-1,-1
-155.90,27.11,-81.00,3801,-7328,1165,-1,-1,-1
-155.90,27.10,-80.99,3780,-7325,1148,0,0,0
-155.89,27.11,-80.99,3806,-7333,1175,-1,-1,-1
-155.89,27.12,-81.00,3819,-7336,1139,0,0,0
-155.88,27.13,-80.98,3816,-7323,1170,-1,-1,-1
-155.89,27.12,-80.99,3788,-7325,1151,0,0,-1
-155.88,27.13,-80.99,3812,-7308,1164,-1,-1,-1
-155.88,27.13,-80.99,3800,-7311,1185,0,-1,0
-155.88,27.13,-80.99,3805,-7315,1156,-1,0,0
-155.89,27.12,-80.99,3815,-7317,1171,0,-1,0
-155.88,27.12,-81.01,3818,-7326,1149,-1,-1,-1
-155.90,27.11,-81.00,3780,-7312,1171,-1,0,0
-155.89,27.11,-81.02,3816,-7321,1149,-1,-1,0
-155.91,27.10,-81.00,3787,-7319,1187,0,-1,-1
-155.90,27.10,-81.02,3803,-7316,1135,-1,-1,0
-155.91,27.10,-81.01,3788,-7322,1166,0,0,-1
-155.90,27.10,-81.02,3808,-7327,1144,-1,-1,0
-155.90,27.10,-81.01,3794,-7314,1180,0,0,0
-155.90,27.10,-81.02,3796,-7329,1158,-1,-1,-1
-155.91,27.09,-81.01,3796,-7310,1140,0,0,-1
-155.92,27.09,-81.00,3783,-7315,1188,-1,-1,-1
-155.91,27.10,-81.02,3805,-7321,1137,0,0,-1
-155.91,27.10,-81.00,3806,-7340,1158,0,-1,0
-155.91,27.10,-81.00,3781,-7337,1145,0,-1,-1
-155.91,27.11,-81.00,3782,-7325,1167,0,-1,-1
-155.89,27.12,-81.00,3802,-7337,1150,0,-1,-1
-155.88,27.13,-81.00,3810,-7317,1166,0,-1,-1
-155.87,27.15,-81.00,3810,-7312,1169,-1,0,-1
-155.86,27.15,-80.99,3805,-7321,1150,0,0,-1
-155.86,27.16,-80.99,3808,-7325,1156,0,0,-1
-155.86,27.16,-80.99,3801,-7310,1153,0,-1,-1
-155.85,27.16,-80.99,3811,-7311,1165,-1,0,-1
-155.85,27.16,-80.99,3804,-7306,1163,-1,-1,-1
-155.85,27.16,-81.00,3806,-7310,1164,-1,-1,0
-155.85,27.16,-81.00,3808,-7319,1161,0,-1,-1
-155.85,27.17,-81.00,3812,-7316,1168,-1,-1,-1
-155.85,27.17,-81.00,3795,-7319,1158,0,0,-1
-155.85,27.17,-80.99,3803,-7322,1167,-1,-1,-1
-155.84,27.17,-81.00,3808,-7322,1164,0,0,-1
-155.84,27.18,-80.99,3802,-7313,1161,0,0,-1
-155.84,27.18,-80.98,3812,-7316,1164,-1,0,-1
-155.83,27.18,-80.98,3822,-7324,1161,0,0,-1
-155.84,27.18,-80.98,3818,-7322,1161,0,-1,0
-155.84,27.18,-80.98,3812,-7329,1157,0,-1,0
-155.85,27.18,-80.97,3809,-7324,1169,0,0,0
-155.85,27.18,-80.97,3799,-7317,1177,-1,0,-1
-155.85,27.18,-80.96,3799,-7311,1169,0,-1,0
-155.85,27.18,-80.96,3798,-7308,1174,0,-1,0
-155.85,27.18,-80.96,3805,-7315,1165,-1,-1,-1
-155.84,27.18,-80.96,3814,-7315,1165,0,-1,-1
-155.84,27.18,-80.96,3817,-7313,1168,0,-1,-1
-155.84,27.18,-80.96,3813,-7310,1171,0,-1,-1
-155.84,27.19,-80.96,3818,-7316,1170,-1,-1,0
-155.84,27.18,-80.96,3816,-7322,1168,-1,-1,0
-155.84,27.18,-80.96,3808,-7316,1155,0,0,0
-155.86,27.17,-80.96,3806,-7315,1166,0,0,0
-155.86,27.18,-80.95,3804,-7320,1164,0,0,0
-155.86,27.18,-80.95,3805,-7323,1164,0,-1,-1
-155.86,27.18,-80.95,3800,-7322,1166,0,-1,-1
-155.86,27.18,-80.95,3808,-7321,1159,0,-1,-1
-155.86,27.18,-80.94,3808,-7320,1154,0,0,-1
-155.85,27.19,-80.94,3818,-7306,1165,0,-1,0
-155.85,27.19,-80.94,3813,-7305,1170,0,-1,-1
-155.86,27.19,-80.93,3810,-7311,1171,0,0,0
-155.86,27.18,-80.93,3799,-7303,1174,0,-1,0
-155.86,27.18,-80.92,3797,-7310,1174,0,-1,-1
-155.86,27.18,-80.93,3795,-7314,1176,-1,-1,-1
-155.86,27.18,-80.93,3804,-7319,1164,-1,-1,-1
-155.86,27.18,-80.94,3805,-7318,1167,-1,0,-1
-155.85,27.18,-80.94,3810,-7315,1171,-1,-1,0
-155.85,27.19,-80.94,3817,-7309,1168,-1,0,-1
-155.85,27.18,-80.95,3814,-7321,1161,-1,0,0
-155.85,27.18,-80.95,3814,-7321,1161,-1,0,0
-155.85,27.18,-80.94,3810,-7317,1172,0,0,0
-155.85,27.18,-80.94,3809,-7312,1185,-1,0,0
-155.86,27.18,-80.93,3805,-7301,1186,-1,0,-1
-155.85,27.18,-80.94,3801,-7306,1179,-1,0,-1
-155.85,27.18,-80.93,3803,-7307,1173,-1,0,-1
-155.85,27.18,-80.94,3805,-7303,1173,-1,0,-1
-155.84,27.19,-80.94,3813,-7299,1174,-1,0,-1
-155.83,27.19,-80.95,3821,-7309,1172,-1,0,0
-155.83,27.19,-80.96,3819,-7306,1173,-1,0,0
-155.83,27.19,-80.97,3820,-7312,1161,-1,0,0
-155.83,27.19,-80.98,3815,-7314,1153,-1,-1,0
-155.83,27.19,-80.98,3807,-7329,1148,-1,0,-1
-155.82,27.19,-80.98,3804,-7322,1155,-1,0,0
-155.83,27.18,-80.98,3807,-7319,1154,0,0,-1
-155.82,27.19,-80.97,3809,-7322,1165,-1,0,-1
-155.81,27.20,-80.98,3828,-7320,1162,0,0,-1
-155.81,27.20,-80.97,3819,-7320,1154,0,0,-1
-155.81,27.20,-80.96,3808,-7313,1150,0,0,-1
-155.81,27.20,-80.96,3796,-7309,1160,0,0,-1
-155.82,27.20,-80.96,3811,-7308,1172,-1,0,0
-155.82,27.20,-80.96,3806,-7308,1166,-1,0,-1
-155.81,27.20,-80.96,3815,-7313,1167,-1,0,-1
-155.81,27.20,-80.96,3812,-7311,1159,-1,0,0
-155.81,27.20,-80.96,3805,-7315,1162,-1,0,0
-155.82,27.19,-80.96,3804,-7319,1164,-1,0,0
-155.82,27.19,-80.95,3806,-7304,1161,-1,0,-1
-155.81,27.19,-80.95,3805,-7309,1164,-1,0,-1
-155.81,27.19,-80.95,3817,-7313,1160,-1,0,-1
-155.81,27.20,-80.96,3823,-7317,1162,-1,0,-1
-155.80,27.20,-80.96,3822,-7318,1167,-1,0,0
-155.80,27.20,-80.96,3826,-7314,1170,-1,0,0
-155.80,27.20,-80.96,3825,-7316,1166,-1,0,0
-155.81,27.19,-80.96,3815,-7312,1162,-1,0,0
-155.80,27.19,-80.96,3809,-7313,1164,-1,0,0
-155.80,27.19,-80.96,3809,-7315,1162,-1,0,-1
-155.80,27.19,-80.97,3812,-7317,1163,-1,0,0
-155.80,27.19,-80.96,3804,-7317,1161,-1,0,0
-155.80,27.19,-80.97,3813,-7321,1155,-1,0,0
-155.80,27.19,-80.97,3820,-7323,1160,-1,0,-1
-155.80,27.19,-80.97,3805,-7328,1159,-1,0,0
-155.80,27.19,-80.97,3798,-7326,1169,-1,0,-1
-155.81,27.18,-80.97,3800,-7321,1162,-1,0,-1
-155.80,27.19,-80.97,3811,-7317,1155,-1,0,-1
-155.80,27.18,-80.96,3812,-7313,1163,-1,0,-1
-155.79,27.19,-80.97,3811,-7318,1163,-1,0,-1
-155.79,27.19,-80.97,3801,-7319,1161,-1,0,-1
-155.79,27.19,-80.98,3809,-7320,1153,-1,0,0
-155.79,27.18,-80.98,3802,-7316,1156,-1,0,-1
-155.79,27.18,-80.98,3807,-7308,1162,-1,0,0
-155.80,27.18,-80.99,3800,-7309,1159,-1,0,0
-155.79,27.18,-80.99,3802,-7316,1160,-1,0,-1
-155.79,27.18,-80.99,3806,-7321,1151,-1,0,-1
-155.79,27.18,-80.99,3810,-7319,1159,-1,0,-1
-155.78,27.18,-81.00,3807,-7322,1158,-1,0,-1
-155.79,27.18,-81.00,3816,-7325,1151,-1,0,0
-155.78,27.18,-81.00,3816,-7325,1144,-1,0,0
-155.79,27.18,-81.00,3808,-7319,1160,-1,0,0
-155.79,27.17,-81.01,3802,-7313,1150,-1,0,0
-155.79,27.17,-81.00,3799,-7313,1153,0,0,0
-155.80,27.16,-81.00,3803,-7311,1159,-1,0,0
-155.79,27.17,-81.00,3808,-7327,1157,0,0,-1
-155.79,27.17,-81.00,3801,-7327,1146,-1,0,-1
-155.79,27.17,-81.00,3802,-7324,1160,-1,-1,-1
-155.79,27.17,-81.00,3802,-7321,1158,0,-1,-1
-155.79,27.17,-81.00,3803,-7310,1153,0,0,0
-155.79,27.17,-81.00,3806,-7308,1149,0,0,-1
-155.79,27.17,-81.00,3806,-7309,1150,0,0,0
-155.79,27.17,-80.99,3791,-7313,1144,0,0,0
-155.79,27.17,-80.99,3800,-7315,1151,0,-1,0
-155.79,27.17,-80.99,3816,-7320,1150,0,-1,-1
-155.79,27.18,-80.99,3819,-7318,1155,0,-1,-1
-155.78,27.18,-80.98,3817,-7313,1158,0,-1,-1
-155.78,27.19,-80.98,3811,-7306,1165,0,-1,-1
-155.79,27.18,-80.97,3811,-7304,1174,0,-1,0
-155.79,27.18,-80.97,3810,-7308,1155,0,-1,0
-155.79,27.18,-80.98,3810,-7317,1152,0,-1,0
-155.79,27.19,-80.97,3808,-7314,1167,0,-1,0
-155.79,27.18,-80.98,3813,-7313,1180,0,-1,0
-155.79,27.18,-80.97,3802,-7316,1170,0,-1,-1
-155.79,27.19,-80.98,3801,-7318,1160,0,-1,-1
-155.79,27.19,-80.97,3804,-7320,1155,0,-1,-1
-155.79,27.19,-80.97,3804,-7312,1162,0,-1,0
-155.79,27.19,-80.97,3800,-7312,1161,0,-1,0
-155.80,27.18,-80.96,3800,-7309,1166,0,-1,0
-155.80,27.19,-80.97,3814,-7319,1165,0,-1,0
-155.80,27.19,-80.96,3803,-7321,1160,0,0,0
-155.80,27.19,-80.96,3796,-7320,1168,0,-1,-1
-155.80,27.19,-80.96,3793,-7315,1168,0,-1,-1
-155.80,27.19,-80.95,3806,-7314,1168,0,-1,-1
-155.80,27.19,-80.95,3801,-7309,1167,0,-1,-1
-155.80,27.19,-80.96,3809,-7307,1163,0,-1,-1
-155.80,27.19,-80.96,3807,-7306,1161,0,-1,0
-155.80,27.20,-80.95,3811,-7305,1164,0,-1,0
-155.81,27.19,-80.95,3812,-7312,1158,0,-1,0
-155.80,27.19,-80.96,3798,-7311,1160,-1,-1,0
-155.81,27.19,-80.97,3807,-7310,1156,0,-1,0
-155.80,27.19,-80.96,3805,-7311,1154,0,-1,0
-155.81,27.19,-80.97,3801,-7310,1152,0,-1,-1
-155.81,27.19,-80.97,3804,-7315,1159,0,-1,-1
-155.80,27.19,-80.96,3806,-7319,1165,0,-1,-1
-155.81,27.19,-80.96,3805,-7312,1163,0,0,-1
-155.81,27.19,-80.96,3806,-7305,1165,-1,0,0
-155.81,27.19,-80.96,3803,-7305,1158,0,0,0
-155.81,27.19,-80.95,3800,-7301,1180,-1,0,-1
-155.81,27.19,-80.95,3800,-7312,1164,-1,0,-1
-155.81,27.19,-80.95,3814,-7311,1176,0,-1,-1
-155.80,27.20,-80.96,3814,-7309,1171,-1,-1,-1
-155.80,27.20,-80.97,3819,-7310,1164,0,-1,0
-155.80,27.20,-80.97,3809,-7300,1182,-1,-1,0
-155.80,27.19,-80.98,3817,-7310,1146,0,-1,0
-155.81,27.18,-80.98,3796,-7312,1164,-1,-1,0
-155.82,27.17,-80.99,3788,-7329,1146,0,-1,0
-155.83,27.17,-80.97,3787,-7319,1155,0,0,-1
-155.83,27.17,-80.97,3788,-7326,1165,-1,-1,-1
-155.82,27.17,-80.98,3803,-7326,1161,0,-1,-1
-155.82,27.18,-80.97,3805,-7319,1166,0,-1,-1
-155.81,27.19,-80.97,3819,-7318,1156,0,0,-1
-155.80,27.20,-80.96,3828,-7316,1163,0,0,-1
-155.81,27.20,-80.96,3824,-7300,1171,-1,-1,0
-155.81,27.19,-80.96,3815,-7299,1167,0,0,0
-155.82,27.19,-80.96,3803,-7300,1166,-1,-1,0
-155.82,27.18,-80.97,3806,-7314,1158,-1,-1,0
-155.82,27.18,-80.97,3801,-7321,1156,0,-1,0
-155.83,27.18,-80.98,3801,-7318,1159,-1,-1,-1
-155.82,27.18,-80.98,3802,-7318,1160,-1,-1,-1
-155.81,27.19,-80.98,3809,-7322,1161,-1,-1,-1
-155.81,27.19,-80.98,3810,-7322,1144,0,0,-1
-155.81,27.19,-80.97,3811,-7313,1158,0,0,-1
-155.81,27.19,-80.97,3810,-7313,1172,0,0,-1
-155.81,27.20,-80.96,3818,-7318,1167,0,0,0
-155.82,27.19,-80.96,3811,-7322,1158,0,0,0
-155.82,27.19,-80.95,3807,-7317,1166,0,-1,0
-155.82,27.19,-80.95,3807,-7322,1172,0,-1,-1
-155.82,27.19,-80.95,3804,-7317,1166,-1,-1,-1
-155.82,27.19,-80.95,3812,-7311,1162,0,-1,0
-155.82,27.19,-80.95,3811,-7313,1171,-1,-1,0
-155.81,27.20,-80.96,3814,-7311,1166,-1,-1,0
-155.81,27.19,-80.97,3823,-7322,1155,0,-1,0
-155.81,27.20,-80.96,3813,-7322,1165,0,-1,0
-155.82,27.19,-80.96,3808,-7317,1159,0,-1,0
-155.82,27.19,-80.96,3811,-7325,1162,0,-1,-1
-155.81,27.20,-80.95,3813,-7322,1154,0,0,-1
-155.81,27.20,-80.95,3812,-7315,1161,0,0,-1
-155.82,27.20,-80.94,3809,-7318,1163,0,0,-1
-155.82,27.20,-80.94,3808,-7310,1168,0,0,0
-155.82,27.20,-80.94,3804,-7307,1173,0,0,0
-155.82,27.20,-80.92,3804,-7306,1174,0,-1,0
-155.82,27.20,-80.92,3803,-7303,1169,0,-1,0
-155.83,27.20,-80.93,3808,-7301,1167,-1,-1,0
-155.82,27.20,-80.94,3802,-7307,1166,-1,-1,0
-155.82,27.20,-80.94,3806,-7312,1163,-1,-1,0
-155.82,27.20,-80.94,3808,-7313,1154,0,-1,0
-155.82,27.20,-80.94,3811,-7314,1167,0,-1,-1
-155.82,27.20,-80.94,3807,-7317,1170,0,-1,-1
-155.81,27.21,-80.94,3819,-7318,1170,-1,-1,-1
-155.81,27.21,-80.94,3814,-7323,1160,0,0,0
-155.82,27.20,-80.94,3807,-7316,1149,0,-1,0
-155.82,27.20,-80.94,3801,-7311,1155,-1,-1,0
-155.82,27.20,-80.94,3805,-7305,1170,-1,0,0
-155.82,27.20,-80.94,3800,-7300,1168,-1,0,-1
-155.82,27.19,-80.95,3801,-7306,1173,-1,0,-1
-155.82,27.20,-80.95,3805,-7312,1169,-1,-1,-1
-155.81,27.20,-80.95,3818,-7314,1179,-1,0,-1
-155.81,27.21,-80.95,3813,-7304,1188,-1,0,-1
-155.80,27.21,-80.96,3823,-7300,1171,-1,0,0
-155.80,27.20,-80.96,3820,-7314,1164,-1,0,-1
-155.79,27.21,-80.97,3811,-7314,1158,-1,0,0
-155.80,27.20,-80.97,3797,-7311,1160,-1,0,-1
-155.79,27.21,-80.97,3801,-7310,1158,-1,0,-1
-155.79,27.20,-80.98,3805,-7310,1161,-1,0,-1
-155.79,27.21,-80.98,3806,-7319,1152,-1,0,-1
-155.78,27.21,-80.98,3816,-7312,1150,-1,0,-1
-155.79,27.20,-80.98,3806,-7317,1153,-1,0,-1
-155.78,27.21,-80.98,3816,-7306,1157,-1,0,0
-155.78,27.20,-80.98,3811,-7328,1159,-1,0,-1
-155.77,27.21,-80.99,3831,-7331,1148,-1,0,0
-155.78,27.20,-80.98,3811,-7316,1167,-1,0,-1
-155.77,27.21,-80.99,3813,-7308,1168,-1,0,-1
-155.77,27.21,-80.99,3806,-7314,1156,-1,0,-1
-155.77,27.20,-81.00,3826,-7316,1151,-1,0,0
-155.78,27.19,-80.99,3799,-7298,1169,-1,0,0
-155.78,27.19,-81.00,3824,-7289,1167,-1,-1,0
-155.78,27.19,-81.01,3832,-7303,1176,-1,0,0
-155.78,27.18,-81.02,3808,-7323,1133,0,0,-1
-155.79,27.18,-81.01,3796,-7305,1163,0,0,0
-155.79,27.16,-81.02,3820,-7315,1160,-1,-1,0
-155.79,27.16,-81.03,3791,-7312,1142,0,0,0
-155.81,27.15,-81.02,3806,-7315,1171,-1,-1,0
-155.81,27.15,-81.03,3793,-7328,1135,0,1,-1
-155.80,27.15,-81.03,3816,-7332,1156,-1,-1,0
-155.80,27.15,-81.04,3793,-7347,1130,0,0,-1
-155.81,27.14,-81.02,3792,-7315,1170,-1,0,-1
-155.80,27.15,-81.02,3808,-7303,1169,-1,0,0
-155.80,27.15,-81.02,3793,-7310,1142,-1,0,-1
-155.79,27.16,-81.02,3797,-7306,1151,-1,0,-1
-155.79,27.16,-81.01,3791,-7301,1172,0,0,-1
-155.78,27.17,-81.01,3796,-7305,1166,-1,0,-1
-155.77,27.18,-81.01,3818,-7309,1159,-1,0,-1
-155.77,27.17,-81.01,3813,-7308,1172,-1,0,0
-155.77,27.17,-81.01,3788,-7308,1168,-1,0,-1
-155.77,27.17,-81.02,3786,-7307,1160,-1,0,0
-155.77,27.17,-81.02,3789,-7302,1163,-1,0,-1
-155.77,27.17,-81.03,3808,-7316,1153,-1,-1,0
-155.77,27.17,-81.03,3812,-7329,1151,-1,0,-1
-155.76,27.17,-81.03,3815,-7324,1156,-1,0,-1
-155.75,27.17,-81.04,3821,-7323,1153,-1,0,-1
-155.76,27.17,-81.04,3814,-7323,1144,0,0,-1
-155.76,27.17,-81.03,3803,-7304,1156,0,0,0
-155.76,27.17,-81.03,3815,-7310,1162,-1,0,0
-155.76,27.16,-81.03,3821,-7316,1149,0,0,0
-155.77,27.16,-81.02,3800,-7304,1171,0,0,0
-155.77,27.16,-81.02,3794,-7309,1180,-1,-1,-1
-155.78,27.15,-81.02,3793,-7308,1173,-1,0,0
-155.78,27.15,-81.02,3788,-7317,1161,-1,0,-1
-155.77,27.16,-81.03,3793,-7313,1164,-1,0,-1
-155.76,27.17,-81.03,3801,-7306,1161,-1,0,-1
-155.76,27.17,-81.03,3802,-7307,1157,-1,0,-1
-155.75,27.17,-81.03,3817,-7309,1158,-1,0,-1
-155.75,27.17,-81.04,3830,-7321,1146,-1,0,-1
-155.75,27.17,-81.03,3819,-7322,1136,0,0,0
-155.75,27.17,-81.03,3809,-7321,1133,0,0,0
-155.75,27.17,-81.03,3813,-7322,1143,0,0,0
-155.75,27.17,-81.03,3811,-7325,1137,0,0,0
-155.75,27.17,-81.02,3809,-7331,1152,0,0,0
-155.75,27.17,-81.02,3804,-7336,1145,0,0,0
-155.76,27.17,-81.01,3802,-7325,1165,0,-1,-1
-155.76,27.17,-81.01,3800,-7323,1148,0,-1,-1
-155.75,27.17,-81.01,3797,-7313,1163,0,-1,-1
-155.76,27.17,-81.01,3800,-7312,1156,0,-1,-1
-155.76,27.17,-81.01,3798,-7308,1153,0,-1,0
-155.76,27.17,-81.01,3806,-7316,1152,0,-1,0
-155.77,27.17,-81.00,3795,-7317,1156,0,-1,0
-155.77,27.16,-81.00,3796,-7318,1146,0,-1,-1
-155.76,27.17,-81.00,3805,-7315,1145,0,-1,-1
-155.77,27.17,-81.00,3807,-7309,1142,0,-1,-1
-155.77,27.18,-81.00,3809,-7321,1152,0,-1,-1
-155.76,27.18,-81.00,3816,-7323,1152,0,-1,-1
-155.77,27.18,-80.99,3807,-7315,1170,0,-1,-1
-155.76,27.18,-80.99,3805,-7312,1165,0,-1,-1
-155.77,27.18,-80.99,3808,-7307,1165,0,-1,-1
-155.76,27.19,-80.98,3806,-7309,1164,0,-1,0
-155.76,27.19,-80.98,3801,-7311,1172,0,-1,-1
-155.77,27.18,-80.98,3801,-7314,1165,0,-1,0
-155.76,27.19,-80.98,3800,-7314,1166,0,-1,-1
-155.76,27.19,-80.98,3803,-7316,1163,0,-1,0
-155.77,27.18,-80.98,3805,-7317,1161,-1,-1,0
-155.77,27.18,-80.99,3800,-7317,1163,0,-1,0
-155.77,27.18,-80.99,3804,-7318,1167,-1,-1,0
-155.77,27.18,-80.99,3807,-7321,1166,-1,-1,0
-155.77,27.18,-80.99,3796,-7318,1159,0,-1,-1
-155.76,27.19,-81.01,3805,-7314,1153,0,-1,0
-155.76,27.19,-81.00,3811,-7322,1150,-1,-1,-1
-155.76,27.19,-81.00,3821,-7313,1158,0,-1,0
-155.76,27.19,-81.00,3826,-7325,1158,0,-1,-1
-155.76,27.19,-80.99,3814,-7321,1155,0,-1,0
-155.76,27.19,-80.99,3804,-7315,1160,0,-1,-1
-155.76,27.19,-80.99,3802,-7311,1162,0,-1,0
-155.76,27.19,-80.99,3804,-7310,1160,0,-1,-1
-155.77,27.19,-80.99,3806,-7309,1163,0,-1,-1
-155.76,27.20,-80.99,3814,-7312,1163,0,-1,-1
-155.75,27.20,-81.00,3819,-7314,1157,0,-1,-1
-155.75,27.20,-81.00,3822,-7313,1166,-1,-1,-1
-155.75,27.21,-81.00,3821,-7316,1159,0,-1,0
-155.75,27.20,-81.00,3813,-7318,1148,0,-1,-1
-155.76,27.20,-80.99,3808,-7317,1150,0,-1,0
-155.76,27.20,-80.99,3808,-7318,1166,-1,-1,-1
-155.76,27.20,-80.99,3809,-7314,1172,0,-1,-1
-155.76,27.21,-80.99,3808,-7313,1163,-1,-1,-1
-155.76,27.21,-80.99,3810,-7315,1169,0,-1,-1
-155.75,27.21,-80.99,3807,-7313,1177,-1,-1,-1
-155.75,27.21,-80.99,3807,-7308,1170,-1,-1,0
-155.75,27.21,-80.99,3806,-7308,1165,-1,-1,0
-155.75,27.21,-81.00,3809,-7309,1153,-1,-1,0
-155.75,27.21,-81.01,3811,-7313,1155,0,-1,0
-155.75,27.21,-81.01,3801,-7312,1155,-1,-1,0
-155.75,27.21,-81.01,3802,-7317,1149,-1,-1,-1
-155.75,27.20,-81.01,3803,-7309,1147,0,-1,0
-155.76,27.20,-81.01,3804,-7316,1152,0,-1,-1
-155.76,27.20,-81.01,3808,-7318,1154,-1,-1,0
-155.76,27.20,-81.01,3814,-7325,1158,0,0,-1
-155.76,27.20,-81.01,3797,-7318,1153,0,-1,0
-155.76,27.20,-81.00,3800,-7315,1160,0,0,-1
-155.76,27.20,-81.00,3803,-7318,1153,0,-1,-1
-155.76,27.21,-81.00,3812,-7313,1160,0,-1,-1
-155.76,27.21,-80.99,3814,-7313,1164,0,-1,-1
-155.76,27.21,-80.99,3818,-7311,1168,0,0,-1
-155.76,27.21,-80.99,3816,-7309,1159,0,0,0
-155.76,27.21,-80.99,3806,-7306,1150,-1,-1,0
-155.76,27.20,-81.00,3807,-7313,1152,-1,-1,0
-155.76,27.20,-81.00,3809,-7311,1155,0,-1,0
-155.76,27.20,-81.00,3813,-7317,1161,0,-1,0
-155.77,27.20,-80.99,3809,-7317,1160,0,0,-1
-155.77,27.20,-80.99,3814,-7315,1170,-1,-1,-1
-155.76,27.21,-80.99,3816,-7317,1159,0,-1,-1
-155.76,27.21,-80.98,3818,-7314,1162,0,-1,-1
-155.76,27.21,-80.99,3813,-7312,1157,0,-1,0
-155.76,27.21,-80.99,3811,-7309,1170,0,-1,0
-155.77,27.20,-80.99,3814,-7307,1166,0,-1,0
-155.77,27.20,-80.99,3810,-7311,1168,0,-1,0
-155.77,27.20,-80.99,3807,-7308,1161,0,-1,-1
-155.77,27.20,-80.99,3805,-7308,1160,0,0,-1
-155.76,27.21,-80.99,3807,-7308,1163,0,-1,-1
-155.76,27.21,-80.98,3815,-7310,1166,0,-1,-1
-155.75,27.22,-80.99,3819,-7310,1159,0,-1,-1
-155.76,27.22,-80.98,3815,-7307,1174,0,-1,0
-155.76,27.22,-80.98,3819,-7309,1171,0,-1,0
-155.77,27.21,-80.99,3806,-7317,1161,0,-1,0
-155.77,27.21,-80.98,3811,-7323,1158,0,-1,0
-155.78,27.20,-80.98,3798,-7318,1170,0,-1,0
-155.78,27.20,-80.98,3792,-7314,1162,0,-1,-1
-155.77,27.21,-80.98,3804,-7314,1160,0,-1,-1
-155.77,27.21,-80.98,3807,-7319,1160,0,-1,-1
-155.77,27.22,-80.97,3811,-7315,1159,0,-1,-1
-155.76,27.23,-80.97,3823,-7311,1162,0,-1,-1
-155.76,27.23,-80.96,3819,-7300,1161,0,0,-1
-155.76,27.23,-80.96,3809,-7303,1162,-1,0,-1
-155.76,27.23,-80.96,3802,-7306,1171,-1,0,-1
-155.76,27.23,-80.96,3801,-7310,1174,-1,0,-1
-155.75,27.23,-80.96,3819,-7321,1170,-1,0,-1
-155.74,27.24,-80.97,3823,-7314,1188,-1,0,0
-155.74,27.24,-80.97,3842,-7314,1194,-1,0,0
-155.74,27.22,-80.98,3803,-7306,1179,-2,1,0
-155.72,27.23,-81.01,3818,-7309,1168,-1,0,-1
-155.73,27.22,-81.01,3801,-7298,1175,-1,0,0
-155.73,27.21,-81.03,3801,-7301,1147,-1,0,-1
-155.73,27.21,-81.04,3795,-7308,1143,-1,0,0
-155.73,27.20,-81.05,3818,-7327,1154,0,-1,0
-155.73,27.20,-81.06,3819,-7325,1157,-2,0,0
-155.73,27.19,-81.06,3816,-7318,1138,0,0,-1
-155.73,27.19,-81.06,3800,-7325,1145,-1,-1,0
-155.73,27.19,-81.06,3824,-7309,1163,-1,0,0
-155.74,27.18,-81.07,3807,-7315,1132,0,0,0
-155.75,27.17,-81.05,3778,-7309,1156,-1,0,0
-155.75,27.17,-81.06,3811,-7316,1157,-1,0,0
-155.75,27.17,-81.06,3801,-7342,1152,0,0,-1
-155.75,27.16,-81.05,3786,-7319,1149,-1,0,0
-155.74,27.17,-81.05,3831,-7332,1180,-1,0,-1
-155.76,27.16,-81.05,3768,-7307,1155,0,0,-1
-155.74,27.17,-81.06,3818,-7313,1149,-1,0,0
-155.76,27.16,-81.04,3759,-7291,1161,-1,0,-1
-155.75,27.17,-81.05,3803,-7301,1144,0,0,-1
-155.75,27.17,-81.05,3804,-7321,1139,0,0,-1
-155.74,27.17,-81.04,3820,-7338,1145,-1,0,-1
-155.74,27.18,-81.04,3806,-7346,1153,0,-1,-1
-155.73,27.19,-81.05,3827,-7326,1174,-1,0,-1
-155.73,27.19,-81.04,3804,-7322,1166,-1,0,-1
-155.73,27.19,-81.04,3787,-7312,1156,-1,0,-1
-155.72,27.19,-81.04,3803,-7308,1162,-1,0,-1
-155.72,27.19,-81.04,3797,-7305,1158,-1,0,-1
-155.72,27.19,-81.03,3797,-7314,1170,-1,0,-1
-155.72,27.19,-81.03,3803,-7321,1164,0,0,-1
-155.71,27.20,-81.03,3804,-7319,1169,-1,0,-1
-155.70,27.21,-81.04,3807,-7325,1157,-1,0,-1
-155.69,27.21,-81.03,3816,-7313,1159,0,0,-1
-155.69,27.21,-81.03,3814,-7304,1164,-1,0,-1
-155.68,27.22,-81.04,3834,-7311,1148,-1,0,0
-155.68,27.22,-81.04,3833,-7315,1139,0,0,0
-155.68,27.22,-81.03,3816,-7318,1137,-1,0,0
-155.69,27.21,-81.03,3816,-7321,1145,0,0,0
-155.70,27.20,-81.02,3809,-7324,1150,0,0,0
-155.70,27.20,-81.02,3801,-7324,1151,0,0,-1
-155.70,27.20,-81.02,3801,-7316,1150,0,0,-1
-155.70,27.20,-81.03,3812,-7313,1141,-1,0,-1
-155.69,27.20,-81.03,3805,-7305,1143,0,0,-1
-155.69,27.20,-81.03,3808,-7313,1146,-1,0,-1
-155.69,27.20,-81.03,3813,-7319,1152,-1,0,-1
-155.69,27.21,-81.03,3814,-7316,1159,-1,0,0
-155.69,27.20,-81.03,3819,-7310,1167,-1,0,-1
-155.69,27.20,-81.03,3812,-7311,1160,-1,0,0
-155.69,27.21,-81.03,3796,-7310,1153,-1,0,-1
-155.69,27.20,-81.04,3794,-7304,1154,-1,0,0
-155.69,27.20,-81.04,3806,-7309,1154,-1,0,-1
-155.68,27.20,-81.05,3812,-7317,1151,-1,0,0
-155.68,27.20,-81.04,3814,-7322,1151,-1,0,-1
-155.68,27.21,-81.05,3817,-7318,1147,-1,0,-1
-155.68,27.20,-81.06,3811,-7316,1137,0,0,0
-155.68,27.20,-81.06,3798,-7315,1143,-1,0,0
-155.68,27.19,-81.07,3803,-7321,1143,-1,0,0
-155.68,27.20,-81.07,3821,-7330,1140,-1,0,-1
-155.68,27.19,-81.08,3797,-7333,1140,0,-1,-1
-155.68,27.19,-81.08,3809,-7330,1143,0,-1,0
-155.68,27.19,-81.07,3812,-7313,1175,-1,0,0
-155.68,27.20,-81.08,3808,-7324,1139,-1,-1,-1
-155.68,27.20,-81.08,3818,-7318,1147,0,0,0
-155.69,27.19,-81.07,3798,-7325,1147,0,-1,0
-155.68,27.19,-81.07,3804,-7310,1149,0,-1,0
-155.70,27.18,-81.07,3814,-7299,1152,-1,0,0
-155.70,27.18,-81.08,3797,-7328,1150,0,-2,0
-155.69,27.19,-81.10,3831,-7308,1164,-1,0,-1
-155.69,27.18,-81.10,3810,-7312,1162,-1,-1,-1
-155.69,27.18,-81.11,3781,-7296,1133,-1,0,0
-155.70,27.17,-81.10,3756,-7276,1191,-1,-1,-1
-155.69,27.17,-81.11,3805,-7302,1148,-1,-1,0
-155.71,27.17,-81.10,3781,-7290,1162,1,0,-1
-155.70,27.17,-81.11,3761,-7320,1142,-2,-1,0
-155.69,27.18,-81.12,3829,-7340,1138,0,-1,-1
-155.70,27.18,-81.11,3804,-7326,1160,-1,-1,0
-155.68,27.19,-81.13,3825,-7334,1127,-1,-1,-1
-155.68,27.19,-81.12,3818,-7335,1157,0,-1,0
-155.67,27.20,-81.12,3832,-7303,1158,-1,0,-1
-155.67,27.20,-81.12,3811,-7311,1154,0,-1,-1
-155.67,27.20,-81.11,3820,-7284,1144,0,0,0
-155.68,27.19,-81.09,3792,-7318,1150,-1,-1,-1
-155.68,27.19,-81.10,3791,-7317,1129,0,-1,0
-155.68,27.20,-81.09,3808,-7320,1153,0,-1,0
-155.68,27.20,-81.10,3814,-7348,1156,-1,-1,-1
-155.68,27.20,-81.11,3829,-7333,1141,0,-1,-1
-155.67,27.21,-81.10,3807,-7304,1172,-1,-1,0
-155.67,27.21,-81.09,3806,-7306,1149,-1,-1,-1
-155.66,27.22,-81.09,3810,-7313,1155,0,0,-1
-155.68,27.21,-81.08,3810,-7297,1152,-1,-1,0
-155.67,27.21,-81.08,3812,-7319,1145,0,0,-1
-155.67,27.22,-81.08,3811,-7321,1163,0,-1,0
-155.67,27.22,-81.07,3821,-7316,1162,0,-1,0
-155.67,27.22,-81.08,3807,-7315,1142,-1,-1,-1
-155.67,27.22,-81.08,3821,-7306,1154,0,-1,0
-155.67,27.22,-81.07,3805,-7302,1145,0,0,0
-155.67,27.22,-81.07,3802,-7306,1153,-1,-1,-1
-155.66,27.23,-81.08,3828,-7313,1149,0,-1,-1
-155.67,27.22,-81.08,3828,-7318,1138,0,0,0
-155.67,27.22,-81.07,3808,-7321,1149,0,-1,0
-155.67,27.22,-81.07,3802,-7312,1146,0,-1,0
-155.67,27.23,-81.08,3809,-7323,1124,0,-1,-1
-155.67,27.23,-81.07,3812,-7321,1131,0,-1,-1
-155.67,27.23,-81.06,3821,-7315,1152,0,0,0
-155.67,27.23,-81.05,3820,-7313,1150,0,-1,-1
-155.67,27.23,-81.04,3822,-7314,1160,0,0,-1
-155.67,27.24,-81.03,3811,-7313,1169,0,0,-1
-155.68,27.23,-81.03,3809,-7316,1157,0,-1,-1
-155.67,27.24,-81.02,3813,-7305,1163,0,-1,0
-155.68,27.23,-81.02,3810,-7306,1162,0,-1,0
-155.68,27.24,-81.03,3809,-7305,1160,-1,-1,0
-155.68,27.23,-81.03,3805,-7308,1163,-1,-1,0
-155.68,27.23,-81.04,3813,-7308,1175,-1,-1,0
-155.69,27.23,-81.05,3816,-7317,1163,-1,-1,0
-155.68,27.23,-81.05,3819,-7323,1159,-1,-1,0
-155.68,27.23,-81.05,3813,-7320,1160,0,-1,-1
-155.68,27.23,-81.05,3818,-7322,1145,-1,-1,-1
-155.68,27.23,-81.06,3816,-7328,1139,-1,-1,-1
-155.67,27.23,-81.06,3817,-7322,1144,0,-1,-1
-155.67,27.24,-81.06,3814,-7315,1151,0,-1,0
-155.68,27.23,-81.06,3813,-7311,1147,0,-1,0
-155.68,27.23,-81.06,3813,-7309,1149,0,0,0
-155.68,27.23,-81.05,3812,-7314,1156,0,-1,0
-155.68,27.23,-81.05,3813,-7321,1159,0,0,0
-155.68,27.23,-81.05,3815,-7323,1162,0,-1,-1
-155.68,27.23,-81.05,3811,-7316,1162,0,-1,-1
-155.68,27.23,-81.05,3808,-7318,1159,0,-1,0
-155.68,27.23,-81.05,3814,-7318,1155,0,-1,-1
-155.68,27.24,-81.05,3816,-7310,1148,-1,-1,0
-155.68,27.24,-81.05,3821,-7310,1149,0,0,-1
-155.67,27.24,-81.05,3819,-7303,1154,-1,-1,-1
-155.67,27.24,-81.05,3824,-7304,1152,-1,-1,0
-155.67,27.24,-81.05,3815,-7315,1145,0,-1,-1
-155.68,27.23,-81.05,3822,-7319,1158,0,-1,0
-155.68,27.23,-81.05,3808,-7319,1154,0,-1,0
-155.69,27.23,-81.05,3803,-7318,1158,-1,-1,-1
-155.68,27.23,-81.06,3812,-7313,1160,-1,-1,-1
-155.68,27.24,-81.05,3816,-7321,1154,0,0,-1
-155.68,27.24,-81.04,3816,-7312,1167,0,0,-1
-155.68,27.24,-81.04,3828,-7318,1174,0,-1,-1
-155.68,27.24,-81.03,3830,-7310,1164,0,0,-1
-155.68,27.24,-81.03,3823,-7313,1161,0,-1,0
-155.68,27.24,-81.03,3814,-7313,1150,0,-1,0
-155.69,27.23,-81.03,3808,-7319,1145,0,0,0
-155.69,27.24,-81.03,3814,-7316,1150,0,0,-1
-155.69,27.24,-81.03,3810,-7315,1158,0,0,0
-155.69,27.24,-81.03,3810,-7315,1163,-1,-1,-1
-155.68,27.24,-81.03,3814,-7311,1160,0,-1,0
-155.69,27.24,-81.03,3821,-7306,1158,-1,-1,0
-155.68,27.24,-81.04,3819,-7305,1155,-1,-1,0
-155.68,27.24,-81.04,3819,-7309,1156,-1,0,0
-155.68,27.24,-81.04,3814,-7303,1152,-1,0,0
-155.68,27.24,-81.04,3810,-7304,1147,0,-1,0
-155.69,27.23,-81.04,3809,-7314,1149,0,-1,-1
-155.69,27.24,-81.04,3809,-7316,1157,0,-1,-1
-155.68,27.24,-81.04,3817,-7319,1153,0,-1,-1
-155.68,27.24,-81.03,3817,-7314,1155,0,0,-1
-155.68,27.25,-81.03,3816,-7315,1159,0,-1,-1
-155.68,27.25,-81.03,3813,-7301,1164,0,-1,0
-155.69,27.24,-81.03,3805,-7300,1160,-1,-1,0
-155.69,27.24,-81.03,3802,-7300,1167,0,-1,0
-155.69,27.24,-81.03,3801,-7303,1163,-1,-1,0
-155.70,27.23,-81.03,3797,-7310,1158,-1,-1,0
-155.70,27.23,-81.04,3817,-7324,1154,-1,-1,0
-155.70,27.22,-81.05,3807,-7324,1156,0,-1,0
-155.70,27.23,-81.04,3804,-7315,1155,0,-1,-1
-155.69,27.23,-81.04,3808,-7315,1158,-1,-1,-1
-155.69,27.24,-81.05,3813,-7309,1145,0,0,-1
-155.68,27.24,-81.05,3817,-7306,1145,0,0,-1
-155.68,27.25,-81.03,3822,-7310,1150,0,0,-1
-155.69,27.24,-81.03,3822,-7311,1151,0,0,0
-155.69,27.24,-81.03,3826,-7308,1157,-1,0,0
-155.69,27.24,-81.02,3817,-7298,1167,-1,0,0
-155.69,27.24,-81.03,3809,-7302,1159,-1,0,0
-155.69,27.23,-81.04,3802,-7307,1157,-1,-1,0
-155.68,27.24,-81.05,3809,-7305,1164,-1,0,0
-155.68,27.23,-81.07,3813,-7314,1153,-1,0,-1
-155.68,27.23,-81.08,3814,-7322,1148,-1,0,-1
-155.67,27.24,-81.09,3813,-7318,1146,-1,-1,-1
-155.66,27.24,-81.10,3821,-7321,1138,-1,0,-1
-155.66,27.24,-81.10,3823,-7322,1138,-1,0,-1
-155.65,27.25,-81.10,3829,-7318,1145,-1,0,0
-155.65,27.25,-81.10,3822,-7320,1141,-1,0,0
-155.65,27.24,-81.10,3813,-7318,1138,-1,0,0
-155.66,27.24,-81.09,3808,-7324,1147,0,0,-1
-155.66,27.23,-81.09,3804,-7316,1151,0,0,-1
-155.66,27.23,-81.08,3813,-7315,1172,-1,0,0
-155.66,27.24,-81.08,3821,-7323,1169,-1,0,-1
-155.65,27.24,-81.08,3825,-7320,1164,-1,0,-1
-155.65,27.24,-81.09,3819,-7321,1155,-1,0,0
-155.64,27.24,-81.10,3813,-7314,1141,-1,0,0
-155.65,27.24,-81.11,3815,-7307,1145,-1,0,0
-155.65,27.24,-81.10,3815,-7312,1146,-1,0,0
-155.64,27.24,-81.11,3817,-7320,1144,-1,0,-1
-155.64,27.23,-81.12,3822,-7316,1139,-1,0,0
-155.63,27.24,-81.11,3831,-7315,1146,-1,0,-1
-155.63,27.24,-81.11,3827,-7320,1143,-1,0,0
-155.64,27.24,-81.11,3820,-7320,1136,0,0,0
-155.64,27.24,-81.10,3820,-7315,1151,0,0,-1
-155.64,27.24,-81.09,3824,-7309,1152,-1,0,-1
-155.64,27.24,-81.09,3812,-7310,1163,-1,0,0
-155.64,27.23,-81.09,3806,-7308,1156,-1,0,0
-155.65,27.23,-81.10,3812,-7309,1151,-1,0,0
-155.64,27.23,-81.10,3813,-7311,1161,-1,0,0
-155.64,27.23,-81.10,3816,-7313,1153,-1,0,0
-155.64,27.22,-81.11,3807,-7314,1137,-1,0,-1
-155.63,27.23,-81.12,3807,-7287,1181,0,-1,0
-155.62,27.23,-81.17,3803,-7319,1116,-2,-1,-1
-155.61,27.23,-81.18,3820,-7318,1124,-1,0,0
-155.61,27.23,-81.18,3822,-7328,1130,-1,0,-1
-155.61,27.23,-81.19,3824,-7327,1128,-1,0,0
-155.61,27.23,-81.18,3796,-7321,1139,-1,0,-1
-155.60,27.23,-81.19,3810,-7310,1147,-1,0,-1
-155.60,27.23,-81.19,3813,-7324,1143,-1,0,-1
-155.60,27.23,-81.20,3825,-7318,1133,-1,0,0
-155.60,27.22,-81.20,3819,-7321,1149,-1,0,-1
-155.60,27.22,-81.20,3829,-7303,1157,-1,0,0
-155.61,27.22,-81.20,3812,-7315,1154,-1,-1,0
-155.60,27.21,-81.21,3812,-7332,1136,-1,0,0
-155.62,27.20,-81.21,3804,-7312,1129,0,0,0
-155.62,27.20,-81.21,3789,-7310,1140,-1,0,-1
-155.62,27.19,-81.21,3795,-7308,1148,0,0,0
-155.62,27.19,-81.22,3807,-7341,1121,-1,0,-1
-155.61,27.20,-81.23,3820,-7333,1128,-1,0,-1
-155.62,27.19,-81.22,3778,-7310,1116,0,-1,-1
-155.61,27.20,-81.22,3816,-7303,1151,-1,0,-1
-155.60,27.20,-81.23,3811,-7320,1131,-1,0,-1
-155.60,27.20,-81.25,3808,-7327,1111,0,0,0
-155.60,27.20,-81.23,3793,-7310,1132,-1,0,0
-155.61,27.19,-81.24,3808,-7321,1127,-1,0,-1
-155.60,27.20,-81.24,3823,-7314,1142,0,0,0
-155.60,27.20,-81.23,3798,-7313,1147,-1,0,0
-155.60,27.19,-81.24,3807,-7314,1132,-1,0,0
-155.60,27.19,-81.25,3808,-7327,1126,-1,0,-1
-155.60,27.19,-81.25,3809,-7322,1119,0,0,0
-155.60,27.19,-81.25,3803,-7326,1118,0,-1,-1
-155.60,27.19,-81.25,3812,-7323,1113,-1,0,-1
-155.60,27.19,-81.24,3811,-7319,1121,0,0,-1
-155.59,27.20,-81.24,3821,-7316,1111,0,0,-1
-155.60,27.20,-81.23,3812,-7317,1126,0,0,-1
-155.59,27.20,-81.23,3803,-7313,1124,0,0,0
-155.60,27.20,-81.22,3806,-7316,1128,0,-1,0
-155.60,27.20,-81.23,3815,-7317,1130,0,-1,0
-155.60,27.20,-81.22,3820,-7308,1131,0,0,0
-155.60,27.20,-81.22,3810,-7315,1127,0,0,-1
-155.60,27.20,-81.21,3807,-7319,1130,0,-1,-1
-155.60,27.20,-81.21,3799,-7325,1129,0,-1,0
-155.60,27.20,-81.21,3816,-7313,1155,0,-1,0
-155.60,27.20,-81.24,3805,-7322,1114,-1,-1,-1
-155.60,27.20,-81.23,3808,-7326,1119,0,0,0
-155.60,27.20,-81.23,3811,-7324,1128,0,-1,-1
-155.60,27.20,-81.23,3807,-7329,1122,0,-1,-1
-155.60,27.20,-81.23,3810,-7327,1123,0,-1,-1
-155.60,27.21,-81.22,3808,-7325,1127,0,-1,-1
-155.59,27.22,-81.22,3817,-7325,1131,-1,0,-1
-155.58,27.22,-81.22,3820,-7329,1127,-1,-1,-1
-155.58,27.23,-81.23,3832,-7317,1132,0,-1,0
-155.59,27.22,-81.21,3807,-7308,1152,0,-1,0
