Yaw,Pitch,Roll,AX,AY,AZ,GX,GY,GZ
-127.89,25.44,-60.83,3562,-6537,3638,-1,-1,-1
-127.89,25.44,-60.84,3565,-6549,3631,0,0,-1
-127.88,25.44,-60.83,3566,-6537,3644,-1,0,-1
-127.87,25.45,-60.84,3571,-6539,3641,-1,0,-1
-127.86,25.44,-60.83,3572,-6540,3644,-1,0,-1
-127.84,25.44,-60.83,3572,-6538,3655,-1,0,-1
-127.83,25.44,-60.83,3565,-6535,3651,-1,0,-1
-127.81,25.44,-60.82,3569,-6537,3644,-1,0,-1
-127.78,25.44,-60.81,3555,-6530,3630,-1,0,-1
-127.76,25.43,-60.81,3553,-6526,3658,-1,0,-1
-127.74,25.44,-60.81,3551,-6534,3660,-1,0,-1
-127.72,25.44,-60.81,3555,-6536,3656,-1,0,-1
-127.71,25.44,-60.81,3561,-6530,3655,-1,0,-1
-127.71,25.44,-60.82,3567,-6527,3656,-1,0,-1
-127.70,25.45,-60.83,3566,-6527,3659,-1,0,-1
-127.70,25.45,-60.84,3558,-6530,3649,-1,0,-1
-127.71,25.45,-60.87,3561,-6533,3628,-1,0,-1
-127.72,25.45,-60.89,3570,-6534,3630,-1,0,-1
-127.71,25.45,-60.90,3573,-6537,3642,-1,0,-1
-127.72,25.46,-60.92,3571,-6541,3622,-1,-1,-1
-127.73,25.46,-60.93,3567,-6537,3640,-1,0,-1
-127.73,25.46,-60.94,3560,-6543,3634,-1,-1,-1
-127.73,25.46,-60.95,3569,-6546,3648,-1,0,-1
-127.73,25.46,-60.97,3579,-6556,3627,-1,0,-1
-127.73,25.46,-60.99,3572,-6551,3618,-1,0,-1
-127.73,25.46,-60.99,3568,-6551,3623,-1,0,-1
-127.74,25.45,-61.00,3563,-6552,3627,-1,0,-1
-127.73,25.45,-61.01,3559,-6555,3610,-1,0,-1
-127.73,25.45,-61.02,3550,-6553,3599,0,0,-1
-127.73,25.46,-61.02,3557,-6554,3602,0,0,-1
-127.73,25.46,-61.02,3554,-6552,3601,0,0,-1
-127.71,25.46,-61.01,3548,-6548,3616,0,0,-1
-127.71,25.46,-61.00,3552,-6547,3616,0,0,-1
-127.70,25.46,-61.00,3561,-6554,3612,0,-1,-1
-127.70,25.46,-60.99,3562,-6551,3619,0,0,-1
-127.69,25.47,-60.98,3564,-6553,3621,0,-1,-1
-127.69,25.47,-60.98,3566,-6547,3615,0,-1,-1
-127.67,25.48,-60.97,3569,-6546,3616,0,-1,-1
-127.67,25.49,-60.96,3572,-6540,3637,0,-1,0
-127.68,25.49,-60.96,3574,-6551,3616,0,-1,-1
-127.68,25.49,-60.95,3559,-6544,3630,0,-1,-1
-127.67,25.50,-60.94,3562,-6549,3630,0,-1,-1
-127.67,25.50,-60.93,3565,-6537,3634,0,-1,0
-127.67,25.50,-60.93,3559,-6539,3629,0,-1,0
-127.68,25.50,-60.93,3567,-6540,3626,0,-1,-1
-127.68,25.50,-60.92,3572,-6533,3625,0,-1,0
-127.67,25.50,-60.91,3571,-6530,3629,0,-1,0
-127.68,25.50,-60.90,3567,-6529,3640,0,-1,0
-127.68,25.51,-60.90,3571,-6529,3642,0,-1,-1
-127.67,25.51,-60.90,3578,-6537,3643,0,-1,-1
-127.67,25.52,-60.90,3575,-6538,3643,0,-1,0
-127.68,25.52,-60.89,3565,-6534,3639,0,-1,-1
-127.67,25.52,-60.89,3566,-6539,3633,0,-1,-1
-127.68,25.53,-60.89,3577,-6535,3634,0,-1,0
-127.68,25.53,-60.88,3580,-6537,3636,0,-1,-1
-127.68,25.53,-60.88,3576,-6536,3647,0,-1,-1
-127.68,25.53,-60.88,3574,-6533,3642,0,-1,-1
-127.67,25.54,-60.88,3571,-6537,3627,0,-1,-1
-127.67,25.54,-60.87,3578,-6535,3632,0,-1,-1
-127.67,25.54,-60.87,3576,-6529,3643,-1,-1,0
-127.68,25.54,-60.88,3579,-6544,3633,0,-1,0
-127.69,25.54,-60.88,3566,-6539,3637,0,-1,-1
-127.69,25.55,-60.88,3571,-6539,3636,0,-1,-1
-127.70,25.55,-60.88,3572,-6535,3648,0,-1,0
-127.70,25.56,-60.88,3583,-6534,3647,0,-1,0
-127.71,25.56,-60.88,3583,-6531,3643,0,-1,0
-127.72,25.55,-60.88,3576,-6536,3648,0,-1,0
-127.72,25.55,-60.88,3586,-6523,3665,-1,-1,0
-127.72,25.55,-60.88,3583,-6536,3638,-1,-1,0
-127.74,25.55,-60.89,3587,-6540,3635,-1,-1,0
-127.75,25.55,-60.91,3584,-6520,3646,-1,-1,0
-127.74,25.56,-60.91,3606,-6526,3675,-1,-1,-1
-127.75,25.57,-60.92,3606,-6522,3668,-1,0,-1
-127.75,25.57,-60.93,3585,-6540,3632,0,0,-1
-127.73,25.58,-60.93,3583,-6552,3594,-1,0,-1
-127.68,25.60,-60.92,3611,-6556,3590,0,1,-2
-127.60,25.61,-60.89,3637,-6593,3582,0,2,-2
-127.49,25.63,-60.82,3632,-6569,3570,1,3,-3
-127.37,25.64,-60.75,3601,-6562,3576,0,2,-3
-127.23,25.66,-60.67,3616,-6554,3584,1,2,-3
-127.10,25.68,-60.58,3613,-6558,3606,1,3,-3
-126.96,25.69,-60.49,3587,-6579,3588,2,2,-3
-126.80,25.73,-60.39,3631,-6537,3591,2,3,-3
-126.61,25.77,-60.26,3633,-6506,3585,2,3,-4
-126.40,25.82,-60.13,3641,-6524,3598,3,4,-5
-126.16,25.87,-59.98,3639,-6507,3661,1,4,-5
-125.92,25.94,-59.87,3630,-6531,3634,1,4,-6
-125.65,26.02,-59.73,3664,-6513,3613,3,5,-7
-125.29,26.13,-59.51,3704,-6503,3665,4,5,-9
-124.85,26.26,-59.22,3798,-6468,3740,5,6,-9
-124.39,26.37,-58.93,3831,-6433,3792,4,8,-9
-123.92,26.48,-58.66,3776,-6441,3721,4,8,-11
-123.36,26.61,-58.33,3772,-6418,3738,6,10,-12
-122.83,26.73,-58.00,3748,-6352,3879,3,8,-11
-122.33,26.84,-57.75,3748,-6353,3920,2,9,-11
-121.83,26.92,-57.49,3778,-6346,3932,3,10,-10
-121.30,26.99,-57.18,3807,-6308,4008,3,11,-10
-120.77,27.03,-56.89,3765,-6283,4043,1,12,-11
-120.27,27.06,-56.64,3701,-6268,4001,2,10,-10
-119.76,27.11,-56.37,3682,-6214,4066,3,8,-8
-119.44,27.19,-56.21,3687,-6162,4048,1,7,-8
-119.01,27.20,-55.96,3624,-6113,4091,3,8,-7
-118.70,27.22,-55.75,3600,-6059,4255,1,2,-5
-118.51,27.30,-55.66,3686,-6086,4291,0,0,-5
-118.39,27.42,-55.60,3784,-6101,4303,0,0,-5
-118.19,27.47,-55.49,3794,-6089,4295,2,2,-3
-118.05,27.54,-55.41,3790,-6036,4197,2,2,-5
-117.79,27.59,-55.24,3758,-5959,4206,3,3,-5
-117.57,27.64,-55.06,3750,-5934,4289,2,1,-5
-117.40,27.72,-54.97,3737,-6057,4370,-1,0,-6
-117.23,27.87,-54.93,3824,-6298,4357,2,0,-8
-116.89,27.96,-54.68,4007,-6281,4432,4,6,-6
-116.53,27.94,-54.41,3956,-6247,4441,3,7,-5
-116.24,27.91,-54.21,3958,-6167,4315,3,7,-3
-116.10,27.80,-54.03,3943,-6135,4319,5,3,2
-116.09,27.69,-53.89,4071,-6259,4499,3,2,3
-116.08,27.40,-53.75,4020,-6064,4400,3,11,9
-115.81,27.09,-53.42,3759,-5689,4277,8,13,-2
-115.45,26.94,-53.05,3771,-5362,4414,3,10,2
-115.40,26.71,-53.05,3378,-4883,4422,-12,4,4
-115.38,26.74,-53.36,3093,-4790,4096,-15,-1,-10
-115.26,27.09,-53.67,3194,-4971,3898,-13,-5,-14
-115.02,27.53,-53.91,3423,-5054,3682,-9,-4,-16
-114.83,27.88,-53.97,3576,-5193,4012,-5,-5,-9
-114.87,28.13,-54.20,3641,-5331,4574,-17,-13,-5
-115.29,28.48,-54.91,3871,-5800,4678,-22,-18,-4
-115.93,28.78,-55.76,4167,-6382,4564,-22,-17,-1
-116.46,29.03,-56.49,4502,-6742,4133,-13,-12,0
-116.78,29.08,-56.75,4729,-6621,3947,2,-1,6
-116.95,28.94,-56.79,4499,-6315,4184,-6,-1,7
-117.08,28.82,-57.02,4241,-6176,4035,-9,4,0
-117.01,28.70,-57.11,4106,-6233,3951,-3,7,0
-116.86,28.52,-57.06,3916,-6228,3921,-1,11,0
-116.62,28.36,-56.95,3813,-6204,3934,-1,8,-2
-116.53,28.27,-56.93,3681,-6259,3980,-3,3,-1
-116.53,28.21,-57.00,3620,-6287,3908,-4,1,-2
-116.47,28.18,-57.04,3681,-6333,3776,0,3,-2
-116.40,28.13,-56.95,3778,-6310,3836,4,2,1
-116.24,27.98,-56.76,3703,-6147,4007,1,6,1
-116.25,27.90,-56.79,3656,-6203,3993,-3,-1,-1
-116.37,27.89,-56.88,3756,-6292,3953,-1,-4,2
-116.49,27.86,-56.90,3802,-6286,3894,2,-2,2
-116.53,27.79,-56.85,3839,-6216,3923,3,1,3
-116.63,27.71,-56.84,3789,-6152,4003,-1,-3,2
-116.71,27.72,-56.87,3803,-6134,4007,0,-2,0
-116.74,27.72,-56.89,3841,-6169,4003,0,-1,0
-116.81,27.67,-56.89,3838,-6170,4001,0,0,3
-116.90,27.60,-56.91,3769,-6147,3981,0,-2,2
-117.00,27.59,-56.95,3846,-6132,3973,0,-2,2
-117.10,27.55,-56.97,3873,-6093,4043,0,-2,3
-117.20,27.49,-56.99,3868,-6034,4116,-3,-2,3
-117.35,27.44,-57.12,3895,-6104,4084,-4,-2,2
-117.51,27.39,-57.26,3941,-6145,3947,-2,-1,3
-117.63,27.29,-57.27,3765,-6055,3976,1,-1,4
-117.74,27.23,-57.31,3608,-6099,4096,-4,-4,1
-117.97,27.24,-57.47,3577,-6220,3961,-1,-7,1
-118.16,27.28,-57.51,3597,-6266,3957,3,-7,1
-118.24,27.30,-57.46,3637,-6239,4007,3,-4,0
-118.35,27.29,-57.43,3576,-6209,4064,1,-6,1
-118.55,27.34,-57.54,3584,-6120,4068,-3,-7,1
-118.77,27.42,-57.73,3607,-6157,4039,-6,-8,-1
-119.02,27.55,-57.98,3697,-6218,3915,-5,-10,-1
-119.21,27.73,-58.16,3796,-6262,3842,-2,-9,-3
-119.31,27.93,-58.28,3946,-6243,3854,-2,-8,-3
-119.43,28.13,-58.43,4124,-6246,3894,-4,-7,-2
-119.53,28.26,-58.59,4112,-6194,3852,-5,-5,-3
-119.60,28.41,-58.74,4180,-6218,3807,-4,-4,-2
-119.71,28.50,-58.89,4199,-6209,3745,-3,-5,-1
-119.81,28.58,-59.02,4245,-6249,3748,-4,-3,0
-119.90,28.59,-59.13,4217,-6265,3677,-3,-1,0
-119.96,28.58,-59.21,4214,-6229,3739,-4,0,1
-120.03,28.54,-59.34,4140,-6287,3700,-5,1,1
-120.13,28.49,-59.48,4072,-6315,3618,-4,-1,1
-120.24,28.44,-59.59,3992,-6319,3597,-3,0,2
-120.35,28.40,-59.67,3957,-6261,3673,-3,-3,2
-120.49,28.39,-59.80,3970,-6277,3714,-5,-3,1
-120.59,28.38,-59.95,3964,-6285,3686,-4,0,0
-120.62,28.35,-60.00,3920,-6276,3746,-4,0,0
-120.66,28.31,-60.10,3893,-6248,3728,-5,1,0
-120.72,28.27,-60.23,3880,-6271,3709,-6,0,1
-120.80,28.24,-60.37,3849,-6323,3621,-5,1,0
-120.82,28.21,-60.45,3839,-6304,3647,-5,1,-1
-120.83,28.19,-60.57,3857,-6356,3652,-7,2,-1
-120.87,28.16,-60.71,3842,-6412,3545,-5,1,-1
-120.92,28.11,-60.82,3819,-6423,3539,-5,1,1
-120.99,28.09,-60.96,3813,-6394,3520,-5,-1,-1
-121.08,28.12,-61.10,3862,-6389,3531,-5,-2,0
-121.16,28.13,-61.22,3914,-6392,3605,-5,-2,0
-121.31,28.14,-61.38,4001,-6407,3655,-7,-3,2
-121.51,28.09,-61.59,3955,-6378,3551,-7,-1,2
-121.60,28.08,-61.74,3971,-6311,3577,-6,-1,0
-121.68,28.11,-61.94,4048,-6326,3543,-9,0,-1
-121.77,28.10,-62.14,4021,-6400,3477,-7,1,1
-121.91,28.07,-62.34,3971,-6449,3418,-8,-1,0
-122.09,28.05,-62.60,4052,-6517,3341,-7,-1,2
-122.26,27.97,-62.78,3943,-6483,3352,-7,1,2
-122.34,27.94,-62.96,3972,-6534,3327,-8,2,-1
-122.35,27.89,-63.08,3950,-6531,3299,-5,3,0
-122.35,27.86,-63.17,3924,-6556,3330,-6,2,-1
-122.43,27.81,-63.33,3945,-6589,3172,-5,2,1
-122.45,27.83,-63.44,3938,-6613,3091,-3,0,-2
-122.44,27.90,-63.50,4018,-6692,3052,-1,1,-3
-122.30,27.94,-63.43,4050,-6661,3076,2,0,-3
-122.27,28.08,-63.42,4181,-6822,2942,4,-3,-4
-122.03,28.22,-63.13,4293,-6708,2841,15,1,-3
-121.60,28.30,-62.60,4219,-6558,2943,18,5,-6
-120.89,28.41,-61.91,4194,-6537,3168,19,7,-10
-120.34,28.49,-61.28,3969,-6675,3220,20,2,-6
-119.88,28.68,-60.63,3963,-6602,3352,25,-4,-9
-119.70,28.92,-60.11,4033,-6479,3944,12,-15,-1
-119.59,28.93,-59.86,3824,-6271,3894,5,2,-2
-119.38,28.96,-59.65,3744,-6243,3629,7,2,-6
-119.04,29.10,-59.33,3765,-6208,3666,9,0,-8
-118.80,29.19,-59.08,3625,-6080,3809,3,-1,-5
-118.58,29.32,-58.97,3627,-6193,3669,1,1,-11
-118.21,29.54,-58.73,3803,-6299,3542,9,1,-11
-117.89,29.69,-58.35,3844,-6266,3626,12,0,-7
-117.49,29.78,-57.92,3796,-6163,3788,10,3,-7
-117.16,29.87,-57.59,3740,-6074,3889,6,0,-7
-116.96,29.98,-57.41,3788,-6037,3911,3,-1,-6
-116.76,30.06,-57.25,3833,-6083,3924,3,1,-6
-116.58,30.08,-57.05,3975,-6082,4002,4,2,-1
-116.42,29.96,-56.84,3976,-5993,4126,3,5,1
-116.28,29.81,-56.67,3856,-5875,4214,0,5,0
-116.21,29.73,-56.66,3812,-5853,4161,-5,2,-1
-116.24,29.71,-56.77,3865,-5939,4024,-3,-1,-1
-116.31,29.69,-56.84,3922,-6061,3965,-1,-1,1
-116.46,29.65,-56.92,3927,-6060,3896,0,-4,1
-116.62,29.70,-57.00,4082,-6003,3899,-1,-6,1
-116.79,29.76,-57.10,4234,-5995,3904,-1,-6,3
-117.00,29.76,-57.21,4282,-5983,3891,-1,-5,3
-117.14,29.79,-57.28,4370,-5923,3864,0,-4,2
-117.24,29.82,-57.34,4407,-5898,3942,-2,-3,2
-117.35,29.81,-57.42,4406,-5918,3947,-2,-2,2
-117.46,29.78,-57.50,4368,-5893,3951,-3,-2,3
-117.57,29.77,-57.63,4358,-5949,3924,-4,-2,2
-117.70,29.76,-57.77,4344,-5984,3898,-4,-1,2
-117.78,29.70,-57.87,4264,-5985,3928,-4,1,1
-117.83,29.66,-57.98,4231,-6033,3877,-6,1,0
-117.86,29.61,-58.11,4250,-6080,3816,-4,2,1
-117.88,29.51,-58.17,4180,-6104,3848,-4,4,2
-117.90,29.41,-58.26,4105,-6108,3818,-5,3,1
-117.92,29.33,-58.34,4046,-6097,3793,-4,2,1
-117.97,29.28,-58.44,4045,-6088,3858,-5,0,1
-118.15,29.17,-58.64,3952,-6133,3822,-9,0,3
-118.29,29.12,-58.87,4000,-6165,3698,-7,0,1
-118.40,29.07,-59.05,4012,-6236,3667,-5,1,1
-118.50,28.95,-59.13,3905,-6255,3766,-3,0,3
-118.61,28.84,-59.23,3936,-6239,3779,-5,1,3
-118.73,28.75,-59.37,3964,-6260,3677,-5,1,2
-118.81,28.69,-59.49,3954,-6254,3642,-4,0,0
-118.85,28.68,-59.60,3989,-6255,3671,-5,0,-1
-118.88,28.66,-59.70,3973,-6250,3661,-5,1,0
-118.88,28.65,-59.80,3937,-6284,3657,-5,1,-2
-118.89,28.64,-59.90,3959,-6333,3619,-4,1,-1
-118.89,28.64,-59.98,4034,-6325,3616,-4,1,-1
-118.89,28.62,-60.05,4034,-6307,3608,-4,2,0
-118.89,28.57,-60.14,3992,-6316,3586,-4,2,0
-118.92,28.53,-60.22,3965,-6324,3582,-4,1,0
-118.94,28.50,-60.29,4003,-6366,3560,-3,1,0
-118.92,28.46,-60.32,4057,-6387,3569,-2,3,1
-118.91,28.37,-60.33,3994,-6360,3552,-2,3,1
-118.90,28.29,-60.35,3954,-6332,3554,-2,2,0
-118.87,28.26,-60.38,3983,-6365,3593,-2,2,0
-118.83,28.22,-60.37,3970,-6366,3587,-1,3,0
-118.78,28.11,-60.35,3926,-6334,3571,-1,4,1
-118.68,28.05,-60.32,3890,-6334,3548,0,3,-2
-118.51,28.02,-60.22,3959,-6501,3500,1,7,-2
-118.29,27.87,-60.08,3804,-6592,3345,5,8,0
-118.08,27.81,-59.86,3758,-6529,3519,5,2,-2
-117.95,27.80,-59.74,3684,-6421,3578,1,1,-3
-117.83,27.84,-59.64,3724,-6347,3541,2,1,-3
-117.69,27.89,-59.53,3735,-6359,3520,4,0,-4
-117.54,27.95,-59.35,3756,-6323,3648,5,-1,-3
-117.38,28.01,-59.16,3891,-6283,3809,4,0,-2
-117.23,28.01,-58.99,3970,-6270,3838,4,2,0
-117.19,27.97,-58.89,3977,-6242,3831,2,0,1
-117.21,27.92,-58.82,3925,-6233,3817,3,0,2
-117.22,27.86,-58.73,3891,-6182,3866,3,-1,2
-117.21,27.85,-58.64,3947,-6191,3826,3,0,0
-117.16,27.82,-58.53,3961,-6212,3833,3,1,1
-117.16,27.75,-58.44,3951,-6255,3830,3,0,2
-117.22,27.69,-58.35,3919,-6270,3815,5,-1,3
-117.28,27.63,-58.25,3891,-6288,3815,5,-2,3
-117.33,27.57,-58.13,3832,-6267,3814,6,-2,2
-117.38,27.54,-57.98,3786,-6238,3857,6,-3,2
-117.50,27.51,-57.89,3752,-6234,3906,5,-5,3
-117.64,27.48,-57.81,3759,-6217,3969,5,-5,3
-117.77,27.45,-57.73,3761,-6193,4035,3,-6,3
-117.86,27.47,-57.70,3793,-6203,3979,3,-4,1
-117.98,27.45,-57.66,3787,-6159,4006,2,-4,2
-118.09,27.43,-57.63,3804,-6133,4061,1,-4,2
-118.26,27.41,-57.68,3804,-6156,4075,-1,-5,3
-118.48,27.38,-57.78,3781,-6192,4011,-1,-5,4
-118.69,27.34,-57.87,3778,-6191,3954,0,-5,3
-118.89,27.34,-57.95,3799,-6196,3927,-1,-6,3
-119.09,27.34,-58.04,3852,-6142,3891,0,-5,3
-119.23,27.36,-58.09,3862,-6140,3916,-1,-5,1
-119.33,27.39,-58.14,3879,-6174,3915,0,-3,1
-119.44,27.38,-58.16,3881,-6198,3963,0,-4,3
-119.59,27.37,-58.25,3900,-6191,3929,-2,-3,2
-119.75,27.34,-58.33,3837,-6211,3874,-2,-3,2
-119.90,27.32,-58.41,3740,-6210,3851,-1,-4,1
-120.04,27.36,-58.47,3744,-6213,3898,-1,-6,1
-120.23,27.38,-58.59,3745,-6257,3926,-3,-6,2
-120.45,27.39,-58.74,3792,-6284,3838,-2,-5,2
-120.63,27.40,-58.84,3843,-6250,3840,-2,-5,3
-120.83,27.40,-58.97,3816,-6232,3863,-4,-6,2
-121.08,27.41,-59.16,3779,-6263,3822,-5,-6,2
-121.32,27.43,-59.37,3768,-6330,3744,-4,-6,2
-121.53,27.44,-59.52,3818,-6318,3728,-2,-5,2
-121.70,27.45,-59.64,3869,-6307,3779,-4,-4,1
-121.83,27.49,-59.81,3901,-6340,3731,-6,-3,0
-121.96,27.50,-59.96,3895,-6385,3647,-3,-2,1
-122.08,27.47,-60.05,3855,-6352,3632,-2,-2,1
-122.17,27.49,-60.16,3919,-6361,3667,-4,-2,0
-122.27,27.49,-60.28,3916,-6394,3635,-4,-1,1
-122.37,27.47,-60.39,3862,-6430,3559,-3,-1,0
-122.43,27.45,-60.46,3836,-6444,3543,-1,-1,0
-122.51,27.44,-60.51,3836,-6447,3571,-1,-2,0
-122.57,27.46,-60.56,3871,-6463,3540,-1,-2,0
-122.60,27.47,-60.59,3882,-6467,3528,0,-1,0
-122.59,27.45,-60.56,3831,-6438,3575,0,-1,-1
-122.58,27.44,-60.55,3848,-6427,3605,0,0,0
-122.55,27.44,-60.53,3858,-6421,3623,0,1,-1
-122.49,27.44,-60.50,3868,-6418,3608,0,2,-2
-122.40,27.45,-60.47,3833,-6423,3551,0,2,-2
-122.32,27.45,-60.41,3771,-6442,3542,1,1,-2
-122.25,27.45,-60.35,3783,-6419,3599,1,0,-1
-122.22,27.46,-60.32,3815,-6415,3610,0,0,-1
-122.18,27.47,-60.28,3842,-6391,3623,1,0,-1
-122.12,27.47,-60.22,3854,-6368,3657,1,0,-1
-122.07,27.47,-60.17,3843,-6360,3675,0,0,-1
-122.05,27.47,-60.15,3836,-6368,3653,0,0,-1
-122.02,27.48,-60.13,3834,-6378,3643,0,0,-1
-121.99,27.48,-60.09,3810,-6379,3666,1,-1,-1
-121.99,27.48,-60.08,3798,-6377,3680,0,-1,0
-122.01,27.49,-60.08,3788,-6366,3672,0,-2,0
-122.03,27.50,-60.08,3800,-6361,3672,0,-2,0
-122.04,27.52,-60.07,3834,-6364,3694,0,-1,-1
-122.03,27.53,-60.07,3859,-6365,3702,-1,-1,-1
-122.03,27.54,-60.07,3858,-6368,3676,-1,0,-1
-122.01,27.55,-60.06,3848,-6354,3667,0,0,-1
-121.97,27.57,-60.04,3841,-6357,3668,0,0,-2
-121.93,27.59,-60.03,3844,-6365,3660,0,0,-2
-121.88,27.61,-60.00,3856,-6366,3661,0,0,-2
-121.83,27.62,-59.96,3860,-6361,3676,0,1,-1
-121.80,27.63,-59.95,3843,-6361,3668,0,0,-1
-121.75,27.65,-59.93,3841,-6350,3661,0,0,-1
-121.72,27.67,-59.91,3822,-6338,3677,0,-1,-1
-121.70,27.69,-59.89,3837,-6338,3701,0,-1,-1
-121.69,27.69,-59.89,3846,-6341,3690,-1,-1,-1
-121.69,27.70,-59.90,3855,-6351,3672,-1,0,-1
-121.68,27.70,-59.89,3846,-6346,3674,0,0,-1
-121.66,27.70,-59.88,3861,-6340,3713,-1,0,-1
-121.66,27.70,-59.90,3872,-6347,3693,-1,0,-1
-121.64,27.70,-59.92,3868,-6350,3674,-1,0,-1
-121.62,27.69,-59.91,3867,-6352,3691,-1,1,-1
-121.59,27.68,-59.91,3878,-6352,3688,-1,1,-1
-121.54,27.68,-59.90,3871,-6348,3684,-1,1,-1
-121.50,27.67,-59.89,3870,-6343,3691,-1,1,-1
-121.48,27.65,-59.90,3861,-6342,3696,-2,1,-1
-121.47,27.64,-59.93,3858,-6366,3670,-2,1,-1
-121.45,27.62,-59.95,3846,-6369,3633,-1,1,-1
-121.41,27.61,-59.94,3825,-6370,3646,-1,1,-1
-121.38,27.60,-59.93,3829,-6364,3666,-1,0,-1
-121.38,27.58,-59.95,3832,-6365,3674,-1,0,0
-121.39,27.57,-59.97,3822,-6369,3659,-2,0,-1
-121.39,27.58,-59.99,3834,-6376,3642,0,0,-1
-121.36,27.58,-59.97,3826,-6349,3669,-1,0,-1
-121.37,27.57,-59.97,3825,-6354,3685,-1,0,0
-121.36,27.56,-59.98,3830,-6361,3689,-1,0,-1
-121.36,27.56,-59.99,3844,-6362,3671,-1,0,-1
-121.33,27.57,-59.98,3841,-6354,3687,-1,0,-1
-121.31,27.56,-59.98,3843,-6358,3684,-1,0,-1
-121.30,27.56,-59.99,3859,-6359,3682,-1,0,-1
-121.28,27.55,-59.99,3864,-6358,3676,-1,1,-1
-121.27,27.54,-60.00,3847,-6363,3673,-1,0,-1
-121.27,27.54,-60.02,3844,-6369,3657,-1,0,-1
-121.26,27.53,-60.02,3835,-6371,3652,-1,0,0
-121.25,27.52,-60.02,3828,-6358,3668,-1,0,-1
-121.26,27.53,-60.03,3835,-6358,3677,-1,0,-1
-121.26,27.53,-60.05,3823,-6366,3653,-1,0,-1
-121.27,27.53,-60.06,3795,-6370,3645,-1,-1,0
-121.28,27.54,-60.06,3801,-6373,3649,-1,-1,-1
-121.30,27.54,-60.07,3815,-6363,3669,-1,-1,0
-121.32,27.55,-60.09,3827,-6378,3644,-1,-1,-1
-121.33,27.57,-60.11,3826,-6366,3641,0,-1,-1
-121.36,27.59,-60.12,3837,-6366,3651,-1,-2,-1
-121.37,27.61,-60.13,3848,-6364,3655,0,-1,-1
-121.37,27.63,-60.13,3860,-6361,3665,0,-1,-1
-121.38,27.65,-60.14,3866,-6356,3658,0,-1,-1
-121.38,27.66,-60.14,3862,-6360,3649,0,-1,-1
-121.39,27.67,-60.14,3856,-6364,3648,0,-1,-1
-121.39,27.69,-60.14,3852,-6365,3638,0,-1,-1
-121.40,27.70,-60.15,3850,-6359,3641,0,-1,-1
-121.40,27.72,-60.14,3858,-6372,3649,0,-1,-1
-121.39,27.72,-60.13,3855,-6373,3647,0,-1,-1
-121.40,27.73,-60.13,3853,-6363,3646,0,-1,0
-121.43,27.74,-60.13,3859,-6366,3646,0,-1,0
-121.44,27.74,-60.12,3864,-6360,3655,0,-1,0
-121.48,27.75,-60.14,3863,-6362,3642,0,-1,0
-121.49,27.75,-60.14,3855,-6357,3646,0,-1,0
-121.52,27.75,-60.14,3848,-6356,3643,0,-1,0
-121.54,27.77,-60.14,3875,-6358,3651,0,-1,0
-121.56,27.77,-60.14,3871,-6356,3662,0,-1,0
-121.58,27.77,-60.15,3880,-6369,3637,0,-1,0
-121.56,27.78,-60.12,3866,-6360,3644,0,-1,-1
-121.57,27.80,-60.12,3869,-6367,3635,0,-1,-1
-121.58,27.81,-60.11,3876,-6363,3640,0,-1,-1
-121.58,27.82,-60.09,3877,-6357,3658,0,-1,-1
-121.58,27.83,-60.08,3867,-6358,3667,0,-1,-1
-121.57,27.83,-60.05,3863,-6354,3673,0,-1,-1
-121.57,27.84,-60.05,3863,-6353,3655,0,-1,-1
-121.58,27.85,-60.04,3868,-6342,3657,0,-1,0
-121.59,27.86,-60.04,3871,-6343,3661,0,-1,-1
-121.59,27.87,-60.03,3883,-6343,3672,0,-1,0
-121.60,27.87,-60.02,3877,-6349,3667,0,-1,0
-121.60,27.88,-60.01,3878,-6345,3675,0,-1,-1
-121.60,27.89,-60.00,3887,-6333,3692,0,-1,-1
-121.60,27.90,-59.99,3892,-6339,3670,0,-1,0
-121.61,27.90,-59.99,3884,-6340,3656,0,-1,-1
-121.60,27.92,-59.98,3888,-6334,3666,0,-1,-1
-121.61,27.92,-59.98,3893,-6346,3662,0,-1,-1
-121.60,27.93,-59.96,3896,-6334,3661,0,0,0
-121.61,27.92,-59.97,3879,-6346,3660,-1,-1,0
-121.61,27.93,-59.96,3885,-6336,3660,0,-1,0
-121.62,27.93,-59.95,3888,-6329,3675,0,-1,0
-121.62,27.93,-59.95,3888,-6348,3661,0,-1,0
-121.63,27.93,-59.94,3885,-6348,3650,0,-1,0
-121.65,27.92,-59.94,3878,-6337,3666,0,-1,0
-121.66,27.91,-59.93,3873,-6337,3662,0,-1,0
-121.68,27.90,-59.93,3885,-6333,3661,0,-1,0
-121.70,27.89,-59.93,3884,-6333,3656,0,-1,0
-121.73,27.88,-59.94,3869,-6339,3659,0,-1,0
-121.75,27.87,-59.94,3863,-6344,3662,0,-1,0
-121.78,27.87,-59.94,3868,-6344,3673,0,-1,0
-121.79,27.85,-59.93,3873,-6340,3666,0,-1,0
-121.81,27.86,-59.93,3877,-6336,3666,0,-1,0
-121.84,27.85,-59.94,3872,-6344,3663,0,-1,0
-121.87,27.85,-59.96,3868,-6347,3667,0,-1,0
-121.90,27.85,-59.97,3868,-6348,3654,0,-1,0
-121.91,27.87,-59.96,3871,-6346,3656,0,-1,0
-121.93,27.88,-59.97,3887,-6347,3663,0,-1,0
-121.93,27.88,-59.97,3887,-6339,3671,0,-1,0
-121.94,27.89,-59.98,3891,-6357,3648,-1,-1,-1
-121.92,27.90,-59.96,3896,-6340,3642,0,0,-1
-121.88,27.92,-59.94,3921,-6339,3655,0,0,-1
-121.85,27.92,-59.91,3885,-6332,3682,0,0,0
-121.87,27.91,-59.92,3868,-6337,3682,-1,-1,-1
-121.87,27.92,-59.93,3878,-6348,3633,0,-1,0
-121.88,27.92,-59.92,3882,-6336,3657,0,-1,0
-121.90,27.91,-59.92,3874,-6329,3684,0,-1,1
-121.95,27.89,-59.93,3854,-6334,3679,-1,-1,0
-122.00,27.87,-59.95,3854,-6324,3689,-1,-1,1
-122.04,27.86,-59.97,3881,-6313,3709,-1,-1,1
-122.09,27.83,-60.01,3891,-6315,3708,-2,-1,1
-122.13,27.82,-60.05,3888,-6323,3668,-2,0,0
-122.15,27.80,-60.08,3876,-6333,3649,-1,0,0
-122.16,27.79,-60.11,3856,-6342,3639,-2,0,0
-122.17,27.78,-60.14,3856,-6358,3620,-1,0,-1
-122.18,27.78,-60.15,3855,-6355,3636,-1,-1,0
-122.21,27.78,-60.18,3857,-6365,3643,-1,-1,0
-122.23,27.78,-60.20,3868,-6367,3637,-1,-1,0
-122.24,27.77,-60.22,3857,-6373,3633,-2,-1,0
-122.28,27.77,-60.26,3856,-6382,3607,-1,-1,0
-122.30,27.77,-60.26,3855,-6363,3614,0,-1,0
-122.34,27.78,-60.29,3858,-6379,3621,-1,-1,0
-122.37,27.78,-60.31,3842,-6387,3613,0,-1,0
-122.39,27.79,-60.31,3857,-6381,3614,0,-1,-1
-122.39,27.81,-60.31,3862,-6370,3627,0,-1,-1
-122.38,27.82,-60.31,3874,-6367,3637,0,-1,-1
-122.38,27.84,-60.31,3878,-6360,3637,-1,-1,-1
-122.38,27.85,-60.32,3895,-6360,3637,-1,0,-1
-122.36,27.86,-60.32,3896,-6366,3633,-1,0,-1
-122.35,27.86,-60.32,3892,-6369,3636,-1,0,-1
-122.33,27.87,-60.33,3884,-6366,3630,-1,0,-1
-122.32,27.88,-60.33,3875,-6373,3626,-1,0,-1
-122.32,27.89,-60.33,3888,-6370,3631,0,0,-1
-122.28,27.89,-60.32,3901,-6371,3630,-1,0,-1
-122.26,27.89,-60.31,3895,-6366,3636,-1,0,-1
-122.26,27.89,-60.30,3896,-6363,3638,-1,0,-1
-122.24,27.87,-60.30,3886,-6363,3634,-1,0,0
-122.23,27.86,-60.29,3880,-6352,3647,-1,0,0
-122.24,27.86,-60.31,3892,-6364,3622,-1,0,-1
-122.22,27.85,-60.31,3886,-6360,3626,-1,0,-1
-122.20,27.85,-60.30,3872,-6362,3633,-1,0,-1
-122.19,27.84,-60.30,3877,-6362,3659,-1,0,0
-122.17,27.83,-60.31,3884,-6360,3656,-1,0,-1
-122.16,27.82,-60.32,3878,-6372,3623,-1,0,-1
-122.15,27.82,-60.32,3879,-6373,3619,-1,0,-1
-122.13,27.81,-60.32,3865,-6376,3628,-1,0,0
-122.12,27.79,-60.32,3860,-6378,3630,-1,0,-1
-122.13,27.78,-60.33,3857,-6368,3623,-1,0,-1
-122.12,27.78,-60.34,3857,-6368,3632,-1,0,-1
-122.11,27.78,-60.35,3874,-6370,3631,-1,0,-1
-122.09,27.78,-60.34,3864,-6368,3631,-1,0,-1
-122.07,27.77,-60.35,3865,-6366,3635,-1,0,-1
-122.07,27.76,-60.36,3858,-6376,3615,-1,0,-1
-122.06,27.76,-60.36,3856,-6375,3626,-1,0,-1
-122.05,27.75,-60.38,3857,-6368,3624,-1,0,-1
-122.04,27.75,-60.38,3869,-6362,3626,-1,0,-1
-122.02,27.74,-60.38,3865,-6377,3629,-2,0,-1
-122.02,27.73,-60.40,3863,-6381,3610,-1,0,-1
-122.00,27.72,-60.40,3842,-6372,3617,-1,0,-1
-122.00,27.71,-60.41,3854,-6378,3622,-1,0,0
-122.00,27.70,-60.42,3856,-6380,3619,-1,0,0
-122.00,27.69,-60.43,3856,-6377,3608,-1,0,0
-122.00,27.68,-60.43,3837,-6382,3597,-1,0,0
-122.01,27.69,-60.44,3841,-6383,3593,-1,-1,0
-122.00,27.68,-60.44,3839,-6388,3609,0,-1,-1
-122.02,27.68,-60.45,3833,-6389,3601,0,-1,0
-122.03,27.69,-60.45,3831,-6384,3605,0,-1,-1
-122.05,27.69,-60.46,3838,-6386,3602,0,-1,-1
-122.04,27.71,-60.45,3848,-6389,3608,0,-1,-1
-122.05,27.72,-60.46,3861,-6388,3617,0,-1,-1
-122.05,27.73,-60.45,3865,-6392,3623,0,-1,-1
-122.05,27.74,-60.45,3863,-6382,3625,0,-1,-1
-122.07,27.75,-60.45,3854,-6373,3631,0,-1,-1
-122.07,27.76,-60.46,3859,-6376,3623,0,-1,-1
-122.09,27.77,-60.47,3860,-6383,3606,-1,-1,-1
-122.10,27.78,-60.48,3863,-6379,3594,0,-1,-1
-122.10,27.80,-60.47,3858,-6379,3606,0,-1,-1
-122.12,27.81,-60.47,3868,-6376,3608,0,-1,-1
-122.13,27.81,-60.47,3861,-6373,3615,0,-1,0
-122.13,27.82,-60.48,3871,-6369,3610,0,-1,0
-122.17,27.83,-60.48,3860,-6378,3601,0,-1,0
-122.18,27.84,-60.49,3857,-6371,3601,0,-1,0
-122.20,27.85,-60.49,3869,-6364,3611,0,-2,0
-122.23,27.85,-60.50,3880,-6372,3605,0,-1,0
-122.24,27.86,-60.50,3883,-6373,3602,0,-1,-1
-122.24,27.86,-60.49,3876,-6376,3604,0,-1,0
-122.25,27.87,-60.50,3875,-6372,3592,0,-1,0
-122.26,27.87,-60.50,3878,-6362,3599,0,-1,0
-122.27,27.89,-60.50,3885,-6368,3598,0,-1,-1
-122.27,27.89,-60.49,3885,-6379,3598,0,-1,-1
-122.27,27.89,-60.48,3873,-6382,3592,0,-1,0
-122.28,27.89,-60.48,3866,-6379,3600,0,-1,0
-122.30,27.90,-60.47,3866,-6375,3612,0,-1,0
-122.31,27.90,-60.48,3879,-6391,3590,0,-1,-1
-122.30,27.91,-60.46,3882,-6376,3601,0,-1,-1
-122.31,27.92,-60.46,3891,-6378,3600,0,-1,0
-122.32,27.92,-60.45,3887,-6372,3598,0,-1,0
-122.32,27.92,-60.44,3882,-6367,3599,0,-1,0
-122.32,27.93,-60.43,3883,-6374,3604,0,-1,0
-122.32,27.93,-60.41,3878,-6363,3612,0,-1,-1
-122.32,27.94,-60.40,3888,-6370,3605,0,-1,0
-122.31,27.94,-60.39,3886,-6367,3604,0,-1,0
-122.32,27.95,-60.38,3876,-6364,3605,0,-1,-1
-122.31,27.95,-60.37,3883,-6361,3612,0,-1,-1
-122.32,27.96,-60.36,3884,-6369,3617,0,-1,0
-122.32,27.96,-60.35,3886,-6363,3627,0,-1,0
-122.33,27.96,-60.33,3887,-6357,3619,0,-1,-1
-122.33,27.97,-60.33,3897,-6353,3630,0,-1,0
-122.34,27.97,-60.32,3890,-6358,3623,0,-1,0
-122.35,27.97,-60.32,3895,-6353,3619,0,-1,0
-122.35,27.98,-60.32,3898,-6355,3632,0,-1,0
-122.36,27.99,-60.31,3910,-6355,3633,0,-1,0
-122.37,27.99,-60.31,3905,-6353,3631,0,-1,0
-122.39,27.99,-60.32,3897,-6355,3598,0,-1,0
-122.38,27.99,-60.30,3888,-6343,3620,0,-1,-1
-122.39,28.00,-60.30,3893,-6353,3626,0,-1,0
-122.39,28.01,-60.30,3898,-6359,3615,0,-1,0
-122.40,28.01,-60.29,3903,-6358,3615,0,-1,0
-122.40,28.01,-60.29,3903,-6357,3626,0,-1,0
-122.40,28.02,-60.28,3898,-6353,3640,0,-1,0
-122.41,28.01,-60.27,3900,-6350,3640,0,-1,0
-122.40,28.00,-60.26,3906,-6353,3637,0,0,0
-122.39,28.01,-60.25,3903,-6347,3625,0,0,-1
-122.39,28.00,-60.25,3902,-6353,3620,0,0,0
-122.39,28.00,-60.24,3905,-6354,3620,0,0,0
-122.39,27.99,-60.23,3898,-6355,3629,0,0,0
-122.40,27.99,-60.24,3892,-6357,3621,0,0,0
-122.39,27.99,-60.23,3893,-6353,3626,0,-1,0
-122.40,27.98,-60.23,3878,-6353,3635,-1,-1,0
-122.41,27.98,-60.23,3878,-6355,3630,0,-1,0
-122.42,27.97,-60.23,3881,-6359,3625,0,-1,0
-122.42,27.97,-60.23,3903,-6350,3637,0,0,0
-122.43,27.96,-60.23,3902,-6343,3637,-1,0,0
-122.45,27.96,-60.25,3897,-6356,3630,-1,0,0
-122.45,27.95,-60.25,3895,-6347,3630,-1,0,0
-122.44,27.94,-60.25,3885,-6344,3641,-1,0,0
-122.45,27.93,-60.26,3893,-6355,3639,-1,0,0
-122.44,27.91,-60.27,3903,-6358,3626,-1,0,0
-122.44,27.90,-60.27,3896,-6359,3628,-1,0,0
-122.44,27.88,-60.28,3871,-6353,3623,-1,0,0
-122.43,27.87,-60.29,3871,-6357,3637,-2,0,0
-122.45,27.85,-60.32,3878,-6367,3622,-2,0,0
-122.45,27.84,-60.33,3869,-6369,3605,-1,0,0
-122.46,27.83,-60.34,3862,-6364,3623,-1,0,0
-122.47,27.82,-60.36,3852,-6374,3617,-1,-1,0
-122.50,27.81,-60.37,3851,-6380,3598,-1,-1,0
-122.53,27.81,-60.39,3841,-6386,3588,0,-1,0
-122.56,27.82,-60.40,3844,-6374,3610,0,-2,-1
-122.56,27.84,-60.41,3884,-6368,3637,-1,-1,-1
-122.57,27.85,-60.43,3883,-6367,3616,-1,-1,-1
-122.55,27.85,-60.42,3875,-6368,3632,-1,-1,-1
-122.56,27.87,-60.44,3878,-6363,3610,-1,-1,-1
-122.54,27.88,-60.44,3887,-6365,3595,-1,0,-1
-122.52,27.89,-60.43,3889,-6361,3605,-1,0,-1
-122.50,27.90,-60.44,3886,-6374,3577,-1,0,-1
-122.48,27.91,-60.43,3886,-6373,3595,0,0,-1
-122.46,27.93,-60.42,3896,-6371,3605,-1,0,-1
-122.45,27.93,-60.42,3903,-6367,3608,-1,0,-1
-122.43,27.93,-60.42,3906,-6366,3603,-1,0,-1
-122.42,27.92,-60.41,3897,-6367,3596,0,0,-1
-122.40,27.92,-60.40,3887,-6368,3605,0,0,-1
-122.39,27.92,-60.39,3877,-6369,3614,-1,0,0
-122.38,27.91,-60.39,3869,-6366,3614,-1,0,-1
-122.37,27.90,-60.39,3868,-6363,3602,-1,0,-1
-122.36,27.90,-60.39,3881,-6369,3602,-1,0,-1
-122.34,27.89,-60.38,3870,-6368,3598,0,0,-1
-122.32,27.89,-60.37,3869,-6362,3611,-1,0,-1
-122.31,27.89,-60.38,3875,-6368,3613,-1,0,-1
-122.29,27.89,-60.37,3893,-6373,3620,-1,0,-1
-122.27,27.89,-60.37,3894,-6372,3620,-1,0,0
-122.26,27.87,-60.37,3879,-6369,3617,-1,0,-1
-122.26,27.87,-60.37,3876,-6355,3615,-1,0,-1
-122.26,27.86,-60.38,3877,-6361,3626,-1,0,0
-122.27,27.85,-60.40,3885,-6361,3629,-1,0,0
-122.26,27.84,-60.40,3888,-6367,3626,-1,0,0
-122.26,27.84,-60.41,3868,-6366,3608,-1,0,-1
-122.25,27.83,-60.41,3871,-6371,3625,-1,0,-1
-122.26,27.83,-60.42,3870,-6374,3621,-1,0,0
-122.25,27.82,-60.43,3874,-6372,3623,-1,0,-1
-122.23,27.82,-60.43,3884,-6380,3617,-1,0,-1
-122.23,27.81,-60.43,3877,-6383,3619,-1,0,-1
-122.21,27.80,-60.43,3878,-6381,3619,-1,0,0
-122.20,27.79,-60.44,3884,-6376,3617,-1,0,0
-122.21,27.79,-60.46,3868,-6375,3600,-1,0,0
-122.21,27.77,-60.46,3864,-6379,3588,-1,0,-1
-122.20,27.77,-60.47,3869,-6379,3603,-1,0,0
-122.19,27.76,-60.47,3866,-6372,3611,-1,0,0
-122.19,27.75,-60.47,3855,-6372,3611,-1,0,0
-122.19,27.74,-60.48,3853,-6371,3614,-1,0,0
-122.19,27.73,-60.49,3850,-6375,3614,-1,0,0
-122.20,27.72,-60.49,3856,-6379,3618,-1,0,0
-122.22,27.71,-60.51,3848,-6383,3609,-1,-1,0
-122.22,27.71,-60.52,3859,-6385,3601,-1,0,0
-122.22,27.70,-60.52,3851,-6380,3624,-1,0,0
-122.24,27.70,-60.54,3854,-6395,3603,-1,-1,0
-122.25,27.69,-60.55,3843,-6385,3599,0,-1,-1
-122.25,27.70,-60.55,3852,-6383,3607,-1,-1,0
-122.26,27.70,-60.56,3851,-6389,3598,-1,-1,-1
-122.26,27.71,-60.56,3827,-6392,3596,0,-1,-1
-122.28,27.71,-60.56,3849,-6391,3622,0,-1,0
-122.30,27.71,-60.58,3848,-6400,3603,-1,-1,0
-122.33,27.71,-60.60,3856,-6396,3587,0,-1,0
-122.35,27.71,-60.61,3861,-6394,3595,-1,-1,0
-122.36,27.71,-60.61,3834,-6384,3608,0,-1,0
-122.40,27.71,-60.62,3862,-6388,3635,-1,-2,0
-122.45,27.70,-60.66,3860,-6408,3598,-1,-1,1
-122.51,27.68,-60.67,3821,-6406,3573,0,-1,0
-122.55,27.67,-60.67,3791,-6401,3578,0,-2,0
-122.62,27.69,-60.71,3805,-6426,3541,1,-3,0
-122.68,27.70,-60.71,3839,-6401,3585,1,-3,1
-122.77,27.71,-60.74,3867,-6379,3615,-1,-3,1
-122.84,27.72,-60.77,3905,-6387,3637,-1,-2,0
-122.86,27.72,-60.79,3916,-6389,3607,0,0,0
-122.83,27.71,-60.77,3904,-6389,3584,0,0,0
-122.81,27.71,-60.75,3893,-6376,3607,-1,0,-1
-122.80,27.72,-60.76,3855,-6391,3564,-1,-1,-1
-122.79,27.73,-60.76,3869,-6407,3597,0,0,-1
-122.79,27.73,-60.77,3868,-6423,3561,-1,0,-1
-122.77,27.73,-60.74,3835,-6403,3558,0,0,-1
-122.77,27.74,-60.75,3813,-6407,3551,0,-2,-1
-122.81,27.75,-60.76,3838,-6405,3578,0,-2,0
-122.84,27.76,-60.77,3873,-6398,3601,0,-1,0
-122.86,27.75,-60.78,3859,-6412,3552,0,-1,0
-122.87,27.76,-60.77,3850,-6399,3572,0,-1,0
-122.89,27.76,-60.78,3843,-6390,3587,0,-2,0
-122.91,27.78,-60.79,3877,-6404,3595,0,-1,0
-122.91,27.78,-60.78,3893,-6388,3601,0,-1,0
-122.92,27.78,-60.79,3873,-6400,3565,0,-1,-1
-122.93,27.78,-60.78,3867,-6394,3578,-1,-1,-1
-122.94,27.79,-60.80,3845,-6391,3569,0,-1,-1
-122.96,27.80,-60.81,3866,-6398,3563,0,-2,0
-123.00,27.81,-60.82,3862,-6398,3576,-1,-2,0
-123.02,27.84,-60.84,3855,-6423,3533,0,-2,-1
-123.03,27.85,-60.82,3847,-6403,3554,1,-2,-1
-123.05,27.87,-60.82,3856,-6394,3573,0,-2,-1
-123.07,27.90,-60.83,3874,-6399,3559,0,-2,-1
-123.08,27.93,-60.82,3886,-6395,3575,0,-2,-1
-123.09,27.95,-60.82,3900,-6391,3590,0,-1,-1
-123.08,27.97,-60.81,3919,-6381,3604,0,-1,-1
-123.08,27.97,-60.81,3923,-6388,3595,0,-1,-1
-123.08,27.98,-60.80,3911,-6383,3565,0,-1,-1
-123.08,28.00,-60.80,3915,-6395,3559,0,-1,-1
-123.05,28.01,-60.79,3929,-6393,3572,0,0,-1
-123.03,28.01,-60.76,3909,-6394,3574,0,0,-1
-123.02,28.02,-60.75,3901,-6390,3565,0,0,-1
-123.01,28.02,-60.74,3903,-6393,3566,0,0,-1
-122.99,28.02,-60.72,3900,-6396,3560,0,0,-1
-122.98,28.02,-60.70,3880,-6389,3568,0,-1,-1
-122.97,28.03,-60.68,3880,-6392,3557,0,-1,-1
-122.96,28.04,-60.65,3903,-6389,3567,1,-1,-1
-122.96,28.04,-60.63,3900,-6380,3583,0,-1,0
-122.97,28.05,-60.63,3905,-6382,3563,0,-1,0
-122.95,28.05,-60.60,3894,-6365,3588,0,-1,-1
-122.96,28.06,-60.59,3885,-6365,3592,0,-1,0
-122.96,28.06,-60.58,3909,-6365,3601,0,-1,0
-122.94,28.06,-60.55,3907,-6358,3601,0,-1,0
-122.94,28.06,-60.54,3899,-6358,3606,0,-1,0
-122.93,28.06,-60.53,3907,-6356,3625,0,-1,-1
-122.93,28.06,-60.52,3896,-6360,3615,0,0,0
-122.93,28.05,-60.52,3890,-6366,3599,0,0,-1
-122.93,28.06,-60.51,3898,-6363,3588,0,-1,-1
-122.93,28.06,-60.51,3908,-6367,3602,0,-1,-1
-122.92,28.06,-60.50,3908,-6372,3600,0,0,0
-122.92,28.06,-60.50,3908,-6363,3607,0,-1,0
-122.93,28.06,-60.50,3923,-6356,3609,0,0,0
-122.92,28.05,-60.49,3928,-6355,3618,-1,0,0
-122.93,28.03,-60.50,3919,-6367,3608,-1,0,0
-122.93,28.01,-60.51,3902,-6367,3599,-1,0,0
-122.93,28.00,-60.51,3917,-6363,3609,-1,0,0
-122.93,27.96,-60.52,3908,-6367,3606,-2,1,0
-122.92,27.93,-60.52,3901,-6375,3598,-1,1,0
-122.91,27.90,-60.52,3891,-6372,3604,-1,1,0
-122.91,27.87,-60.54,3885,-6390,3591,-1,1,0
-122.90,27.84,-60.55,3887,-6388,3577,-1,1,0
-122.88,27.81,-60.53,3877,-6387,3587,-1,1,0
-122.88,27.79,-60.54,3857,-6395,3563,-1,0,0
-122.88,27.78,-60.55,3853,-6398,3575,-1,0,0
-122.89,27.77,-60.55,3846,-6401,3573,0,0,0
-122.88,27.76,-60.54,3824,-6401,3563,0,0,0
-122.89,27.76,-60.54,3807,-6397,3556,0,-1,0
-122.93,27.76,-60.55,3803,-6392,3570,0,-2,0
-122.97,27.79,-60.56,3825,-6381,3583,0,-3,-1
-122.98,27.82,-60.56,3864,-6368,3606,0,-2,-1
-122.96,27.87,-60.56,3884,-6366,3610,0,-1,-1
-122.97,27.88,-60.56,3895,-6369,3612,0,-1,-1
-122.97,27.91,-60.56,3892,-6357,3628,-1,-1,-1
-122.98,27.92,-60.57,3896,-6361,3626,-1,-1,-1
-122.95,27.94,-60.56,3898,-6369,3620,-1,0,-1
-122.94,27.95,-60.56,3901,-6375,3599,-1,0,-1
-122.92,27.96,-60.56,3893,-6370,3592,-1,0,-1
-122.91,27.97,-60.56,3899,-6368,3601,-1,0,-1
-122.89,27.98,-60.56,3914,-6372,3593,-1,0,-1
-122.87,27.98,-60.56,3928,-6369,3606,-1,0,-1
-122.85,27.99,-60.56,3918,-6379,3586,-1,0,-1
-122.83,27.99,-60.55,3908,-6377,3586,0,0,-1
-122.80,27.98,-60.54,3880,-6384,3580,-1,0,-1
-122.79,27.98,-60.54,3874,-6380,3594,-1,0,0
-122.80,27.97,-60.54,3879,-6382,3602,-1,-1,0
-122.80,27.96,-60.54,3887,-6377,3606,0,0,0
-122.80,27.95,-60.54,3891,-6375,3607,-1,0,0
-122.81,27.93,-60.55,3896,-6370,3625,-1,0,0
-122.82,27.91,-60.56,3889,-6352,3634,-2,0,0
-122.81,27.90,-60.58,3888,-6372,3592,-1,1,-1
-122.79,27.89,-60.59,3878,-6382,3571,-1,0,-1
-122.76,27.88,-60.56,3902,-6352,3634,0,0,-1
-122.76,27.87,-60.58,3936,-6387,3683,-3,0,1
-122.79,27.81,-60.61,3907,-6392,3585,-1,2,0
-122.77,27.78,-60.62,3915,-6434,3531,0,1,0
-122.79,27.72,-60.60,3808,-6445,3495,1,1,1
-122.85,27.66,-60.59,3733,-6464,3496,1,-2,1
-122.91,27.65,-60.57,3836,-6442,3537,2,-2,2
-122.98,27.61,-60.57,3815,-6444,3545,1,-2,1
-123.05,27.57,-60.55,3799,-6475,3487,3,-1,2
-123.12,27.52,-60.49,3769,-6433,3545,3,-3,2
-123.19,27.51,-60.45,3798,-6361,3629,2,-4,2
-123.31,27.49,-60.44,3815,-6357,3679,1,-4,2
-123.46,27.45,-60.46,3826,-6357,3701,1,-4,3
-123.57,27.43,-60.47,3836,-6323,3746,0,-4,3
-123.71,27.42,-60.54,3809,-6341,3660,-1,-4,1
-123.82,27.42,-60.57,3825,-6361,3660,0,-3,1
-123.93,27.41,-60.62,3814,-6376,3658,-1,-4,2
-124.06,27.38,-60.66,3790,-6339,3691,-1,-4,2
-124.24,27.37,-60.77,3762,-6355,3707,-3,-5,2
-124.39,27.39,-60.90,3832,-6369,3642,-3,-4,1
-124.54,27.40,-61.02,3828,-6393,3575,-3,-4,1
-124.69,27.41,-61.13,3815,-6414,3572,-2,-4,2
-124.84,27.41,-61.25,3799,-6406,3587,-3,-5,1
-124.98,27.45,-61.38,3872,-6424,3568,-3,-4,1
-125.09,27.46,-61.49,3898,-6426,3568,-4,-2,1
-125.21,27.47,-61.63,3872,-6455,3498,-4,-2,0
-125.28,27.50,-61.73,3871,-6464,3442,-3,-2,-1
-125.34,27.52,-61.82,3857,-6479,3448,-3,-1,-1
-125.37,27.54,-61.89,3867,-6500,3453,-3,-1,-1
-125.40,27.56,-61.96,3870,-6511,3413,-2,-1,-1
-125.41,27.57,-62.00,3813,-6517,3374,-2,-1,-1
-125.45,27.58,-62.05,3785,-6511,3369,-1,-2,-1
-125.48,27.62,-62.09,3820,-6499,3412,-2,-2,-1
-125.50,27.65,-62.13,3871,-6519,3405,-1,-1,-1
-125.51,27.66,-62.14,3855,-6515,3403,0,-1,-1
-125.52,27.68,-62.15,3844,-6501,3417,-1,-2,-1
-125.53,27.70,-62.17,3859,-6505,3424,-1,-2,-1
-125.54,27.72,-62.18,3859,-6520,3404,0,-1,-1
-125.53,27.73,-62.17,3858,-6498,3412,0,-1,-1
-125.53,27.75,-62.18,3876,-6491,3423,-1,-1,-1
-125.52,27.77,-62.19,3868,-6495,3409,0,0,-1
-125.51,27.77,-62.19,3870,-6500,3405,0,-1,-1
-125.51,27.78,-62.18,3879,-6500,3398,0,-1,-1
-125.49,27.79,-62.16,3892,-6496,3415,0,-1,-1
-125.49,27.80,-62.16,3876,-6502,3399,0,-1,-1
-125.48,27.81,-62.15,3878,-6500,3392,0,-1,-1
-125.47,27.81,-62.12,3873,-6495,3398,0,-1,-1
-125.46,27.82,-62.11,3884,-6509,3386,1,-1,-1
-125.43,27.84,-62.07,3879,-6488,3416,1,-1,-1
-125.41,27.85,-62.04,3884,-6486,3428,0,-1,-1
-125.39,27.85,-62.01,3890,-6482,3426,1,0,-1
-125.36,27.87,-61.97,3904,-6474,3428,1,0,-1
-125.32,27.87,-61.93,3887,-6466,3443,0,0,-1
-125.29,27.87,-61.89,3872,-6464,3444,1,0,-1
-125.28,27.87,-61.86,3857,-6467,3436,1,-1,-1
-125.25,27.89,-61.83,3868,-6459,3444,1,-1,-1
-125.22,27.90,-61.80,3877,-6450,3466,0,0,-1
-125.20,27.91,-61.78,3896,-6451,3460,0,0,-1
-125.17,27.92,-61.76,3890,-6449,3460,0,0,-1
-125.15,27.93,-61.73,3887,-6450,3458,0,0,-1
-125.13,27.94,-61.71,3891,-6444,3475,0,-1,-1
-125.11,27.94,-61.70,3874,-6451,3460,0,-1,-1
-125.11,27.95,-61.69,3872,-6454,3469,0,-1,-1
-125.11,27.96,-61.68,3878,-6440,3474,0,-1,-1
-125.11,27.97,-61.67,3897,-6432,3488,0,-1,-1
-125.10,27.97,-61.66,3888,-6434,3493,0,-1,0
-125.10,27.98,-61.67,3895,-6453,3471,0,-1,-1
-125.10,27.99,-61.66,3889,-6440,3467,0,-1,-1
-125.10,28.01,-61.65,3898,-6440,3475,0,-1,-1
-125.09,28.01,-61.66,3913,-6445,3483,0,-1,-1
-125.10,28.02,-61.66,3914,-6443,3478,-1,-1,-1
-125.10,28.02,-61.66,3907,-6439,3467,0,-1,0
-125.10,28.02,-61.66,3899,-6441,3456,0,-1,-1
-125.08,28.03,-61.65,3902,-6437,3462,0,0,-1
-125.08,28.03,-61.65,3902,-6442,3470,0,-1,0
-125.08,28.03,-61.64,3892,-6440,3468,0,-1,-1
-125.08,28.04,-61.63,3895,-6436,3466,0,-1,-1
-125.07,28.04,-61.62,3899,-6438,3464,0,-1,0
-125.07,28.04,-61.61,3903,-6445,3469,0,-1,0
-125.07,28.03,-61.61,3905,-6454,3458,0,0,0
-125.06,28.03,-61.59,3902,-6436,3467,0,0,0
-125.05,28.03,-61.57,3909,-6437,3473,0,0,0
-125.03,28.02,-61.55,3905,-6436,3472,0,0,0
-125.02,28.02,-61.54,3905,-6433,3468,0,0,-1
-125.00,28.03,-61.52,3910,-6432,3473,0,0,-1
-124.98,28.01,-61.49,3913,-6425,3485,0,0,0
-124.97,28.00,-61.48,3912,-6424,3500,-1,0,0
-124.95,28.00,-61.48,3913,-6432,3466,0,0,-1
-124.93,27.99,-61.45,3898,-6435,3477,0,0,-1
-124.90,27.97,-61.43,3887,-6431,3491,0,0,-1
-124.87,27.97,-61.40,3890,-6413,3512,0,0,-1
-124.86,27.96,-61.38,3892,-6415,3522,0,0,0
-124.85,27.95,-61.38,3896,-6424,3500,0,0,0
-124.83,27.94,-61.36,3892,-6425,3502,0,0,0
-124.84,27.92,-61.36,3877,-6429,3502,0,0,0
-124.83,27.91,-61.35,3894,-6425,3489,0,0,0
-124.79,27.91,-61.32,3893,-6422,3497,0,1,-1
-124.77,27.89,-61.31,3890,-6423,3516,0,0,-1
-124.75,27.88,-61.30,3888,-6434,3528,-1,0,-1
-124.73,27.87,-61.29,3886,-6429,3525,-1,1,0
-124.71,27.85,-61.28,3867,-6431,3520,-1,1,0
-124.69,27.83,-61.27,3870,-6420,3515,0,0,0
-124.68,27.82,-61.26,3873,-6423,3515,-1,0,0
-124.68,27.81,-61.25,3874,-6431,3526,-1,0,0
-124.67,27.79,-61.26,3866,-6436,3522,-1,0,0
-124.67,27.77,-61.25,3864,-6438,3513,-1,0,0
-124.68,27.76,-61.26,3849,-6437,3511,-1,0,0
-124.71,27.75,-61.28,3853,-6456,3490,-1,-1,0
-124.70,27.75,-61.28,3852,-6439,3497,0,-1,-1
-124.68,27.76,-61.25,3884,-6409,3557,0,0,-1
-124.66,27.75,-61.23,3887,-6406,3565,-1,0,0
-124.64,27.74,-61.23,3893,-6421,3575,-1,1,0
-124.63,27.72,-61.23,3874,-6428,3548,-1,1,0
-124.60,27.69,-61.23,3847,-6429,3527,-1,1,0
-124.61,27.67,-61.25,3822,-6442,3508,-1,0,0
-124.62,27.66,-61.27,3866,-6449,3510,-1,0,-1
-124.58,27.65,-61.25,3894,-6443,3531,-1,1,0
-124.58,27.59,-61.24,3855,-6424,3532,-1,1,1
-124.60,27.55,-61.26,3792,-6433,3514,-1,0,0
-124.61,27.55,-61.27,3793,-6460,3468,0,0,-1
-124.59,27.55,-61.24,3781,-6425,3517,0,-1,-1
-124.58,27.56,-61.25,3819,-6439,3533,-1,-1,0
-124.61,27.57,-61.27,3801,-6439,3501,0,-1,-1
-124.61,27.57,-61.27,3790,-6434,3522,0,-1,-1
-124.61,27.59,-61.26,3801,-6435,3551,0,-2,-1
-124.62,27.61,-61.26,3831,-6410,3568,0,-2,-1
-124.62,27.63,-61.26,3871,-6415,3580,-1,-1,-1
-124.62,27.64,-61.27,3892,-6434,3564,-1,0,-1
-124.61,27.65,-61.29,3896,-6440,3533,-1,0,-1
-124.58,27.65,-61.28,3861,-6425,3541,-1,0,-1
-124.58,27.66,-61.29,3854,-6438,3525,-1,-1,-1
-124.57,27.68,-61.31,3866,-6442,3524,-1,0,-1
-124.57,27.69,-61.31,3866,-6437,3542,-1,0,-1
-124.56,27.68,-61.33,3865,-6448,3528,-1,0,-1
-124.56,27.68,-61.35,3847,-6442,3526,-1,0,-1
-124.56,27.69,-61.36,3847,-6450,3509,-1,0,-1
-124.55,27.69,-61.37,3863,-6447,3511,-1,0,-1
-124.55,27.68,-61.38,3860,-6441,3512,-1,0,-1
-124.56,27.68,-61.41,3852,-6451,3518,-1,0,0
-124.58,27.67,-61.43,3848,-6451,3507,-1,0,0
-124.58,27.66,-61.45,3868,-6452,3515,-1,0,0
-124.58,27.66,-61.45,3875,-6443,3529,-1,0,0
-124.59,27.65,-61.47,3867,-6443,3501,-1,0,0
-124.59,27.64,-61.48,3834,-6447,3488,-1,0,0
-124.60,27.62,-61.49,3827,-6452,3488,-1,0,-1
-124.60,27.62,-61.51,3825,-6461,3477,-1,0,-1
-124.59,27.63,-61.51,3840,-6459,3477,-1,0,0
-124.60,27.62,-61.52,3840,-6461,3494,-1,0,0
-124.61,27.61,-61.54,3843,-6468,3486,-1,0,0
-124.62,27.60,-61.54,3826,-6455,3495,-1,-1,0
-124.64,27.59,-61.56,3821,-6460,3488,-1,-1,0
-124.63,27.60,-61.56,3828,-6452,3502,-1,-1,0
-124.65,27.60,-61.57,3835,-6460,3492,-1,-1,0
-124.66,27.61,-61.59,3833,-6462,3479,-1,-1,-1
-124.66,27.61,-61.59,3818,-6461,3476,-1,-1,-1
-124.67,27.64,-61.60,3830,-6458,3483,-1,-1,-1
-124.68,27.65,-61.61,3848,-6455,3481,0,-1,-1
-124.69,27.66,-61.61,3849,-6444,3492,0,-1,-1
-124.68,27.68,-61.61,3859,-6454,3491,0,-1,-1
-124.69,27.69,-61.62,3853,-6455,3493,0,-1,-1
-124.70,27.71,-61.62,3861,-6462,3491,0,-1,-1
-124.72,27.71,-61.63,3848,-6457,3479,0,-1,-1
-124.73,27.73,-61.64,3852,-6467,3466,0,-1,-1
-124.72,27.74,-61.63,3860,-6461,3472,0,-1,-1
-124.72,27.75,-61.63,3867,-6468,3487,0,-1,-1
-124.72,27.76,-61.62,3864,-6459,3485,0,-1,-1
-124.73,27.77,-61.63,3865,-6465,3476,-1,-1,-1
-124.72,27.78,-61.62,3867,-6453,3475,0,-1,-1
-124.72,27.79,-61.61,3863,-6446,3490,0,-1,-1
-124.72,27.79,-61.61,3871,-6465,3486,0,-1,-1
-124.72,27.80,-61.61,3870,-6452,3482,0,-1,-1
-124.72,27.81,-61.59,3867,-6450,3482,0,-1,-1
-124.72,27.81,-61.59,3866,-6451,3486,0,-1,-1
-124.72,27.81,-61.59,3866,-6460,3483,0,-1,0
-124.73,27.82,-61.58,3875,-6455,3500,0,-1,-1
-124.73,27.83,-61.58,3875,-6455,3490,0,-1,-1
-124.72,27.84,-61.57,3872,-6458,3499,0,-1,-1
-124.73,27.84,-61.57,3874,-6453,3494,0,-1,-1
-124.73,27.84,-61.56,3876,-6447,3487,0,-1,-1
-124.73,27.85,-61.56,3885,-6447,3491,0,-1,-1
-124.73,27.86,-61.56,3882,-6452,3485,0,-1,0
-124.74,27.86,-61.56,3869,-6448,3482,0,-1,0
-124.73,27.87,-61.55,3870,-6431,3487,0,-1,-1
-124.74,27.87,-61.55,3867,-6438,3483,0,-1,-1
-124.74,27.88,-61.54,3874,-6447,3482,0,-1,-1
-124.74,27.88,-61.53,3879,-6445,3490,0,-1,-1
-124.74,27.89,-61.53,3877,-6442,3481,0,-1,0
-124.75,27.90,-61.52,3875,-6432,3486,0,-1,-1
-124.76,27.90,-61.52,3893,-6438,3483,0,-1,0
-124.75,27.91,-61.51,3888,-6428,3488,0,-1,0
-124.75,27.91,-61.50,3893,-6433,3489,0,-1,0
-124.75,27.91,-61.49,3888,-6435,3495,0,-1,0
-124.76,27.92,-61.49,3885,-6439,3481,0,-1,-1
-124.76,27.91,-61.48,3879,-6445,3486,0,-1,0
-124.76,27.92,-61.47,3880,-6436,3487,0,-1,0
-124.77,27.92,-61.46,3886,-6436,3497,0,-1,-1
-124.76,27.94,-61.46,3899,-6438,3504,0,-1,0
-124.76,27.94,-61.45,3895,-6437,3505,0,-1,0
-124.76,27.94,-61.44,3892,-6436,3484,0,-1,0
-124.76,27.95,-61.43,3887,-6437,3486,0,-1,0
-124.76,27.94,-61.42,3888,-6427,3499,0,-1,0
-124.77,27.95,-61.42,3885,-6426,3502,0,-1,0
-124.76,27.95,-61.40,3883,-6428,3496,0,-1,0
-124.77,27.95,-61.39,3881,-6427,3495,0,-1,0
-124.77,27.95,-61.39,3876,-6426,3504,0,-1,0
-124.78,27.95,-61.39,3884,-6441,3490,0,-1,-1
-124.77,27.96,-61.37,3879,-6426,3490,0,-1,-1
-124.77,27.96,-61.36,3885,-6425,3500,0,-1,-1
-124.78,27.97,-61.35,3896,-6426,3518,0,-1,0
-124.77,27.97,-61.34,3896,-6419,3509,0,-1,0
-124.78,27.97,-61.33,3899,-6417,3513,0,-1,0
-124.77,27.97,-61.33,3891,-6423,3504,0,-1,0
-124.78,27.97,-61.32,3887,-6420,3518,0,-1,0
-124.79,27.97,-61.32,3898,-6425,3513,0,-1,0
-124.79,27.97,-61.31,3894,-6420,3513,0,-1,0
-124.79,27.97,-61.30,3889,-6421,3519,0,-1,-1
-124.79,27.98,-61.29,3897,-6431,3514,0,-1,0
-124.79,27.97,-61.28,3896,-6419,3524,0,-1,0
-124.80,27.97,-61.28,3899,-6418,3515,0,-1,0
-124.79,27.97,-61.27,3899,-6418,3519,0,0,0
-124.81,27.96,-61.28,3901,-6429,3509,-1,0,0
-124.82,27.95,-61.27,3887,-6423,3502,0,0,0
-124.81,27.94,-61.26,3885,-6412,3521,0,-1,0
-124.82,27.94,-61.26,3892,-6417,3524,0,-1,0
-124.82,27.93,-61.25,3894,-6416,3528,0,0,0
-124.84,27.92,-61.26,3894,-6431,3512,-1,0,0
-124.84,27.91,-61.26,3890,-6424,3500,0,0,0
-124.83,27.91,-61.25,3877,-6410,3521,0,-1,0
-124.84,27.90,-61.25,3887,-6423,3522,0,-1,0
-124.83,27.90,-61.24,3886,-6426,3515,0,-1,0
-124.84,27.89,-61.23,3879,-6422,3527,0,0,0
-124.86,27.87,-61.23,3865,-6419,3518,-1,0,0
-124.86,27.87,-61.24,3872,-6420,3512,0,0,0
-124.87,27.86,-61.25,3871,-6424,3514,-1,0,0
-124.88,27.85,-61.25,3881,-6431,3516,0,0,0
-124.88,27.84,-61.24,3879,-6428,3532,-1,0,0
-124.88,27.84,-61.24,3877,-6422,3541,-1,0,0
-124.88,27.83,-61.24,3871,-6429,3528,-1,0,0
-124.88,27.82,-61.24,3876,-6433,3529,-1,0,0
-124.87,27.82,-61.24,3883,-6431,3534,0,0,0
-124.88,27.81,-61.24,3886,-6432,3533,-1,0,0
-124.88,27.81,-61.25,3866,-6442,3504,-1,0,0
-124.89,27.80,-61.25,3854,-6438,3501,0,-1,-1
-124.89,27.81,-61.25,3861,-6427,3503,0,-1,-1
-124.88,27.82,-61.24,3880,-6419,3525,0,0,-1
-124.85,27.82,-61.23,3892,-6411,3551,0,0,0
-124.85,27.81,-61.23,3888,-6417,3547,-1,0,-1
-124.84,27.81,-61.24,3871,-6413,3533,0,0,-1
-124.84,27.81,-61.24,3875,-6415,3543,-1,0,0
-124.84,27.80,-61.25,3893,-6422,3534,-1,0,-1
-124.80,27.80,-61.25,3908,-6412,3555,-2,1,-1
-124.77,27.78,-61.25,3898,-6431,3557,-2,2,0
-124.76,27.75,-61.27,3892,-6447,3524,-2,1,0
-124.76,27.72,-61.29,3902,-6436,3551,-2,1,1
-124.77,27.67,-61.31,3852,-6444,3504,-2,1,0
-124.78,27.64,-61.34,3882,-6489,3469,0,1,0
-124.77,27.59,-61.33,3857,-6433,3501,-1,2,0
-124.78,27.55,-61.34,3815,-6481,3474,-2,0,0
-124.79,27.53,-61.34,3804,-6457,3435,1,0,0
-124.78,27.50,-61.30,3783,-6433,3505,-1,-1,0
-124.81,27.50,-61.32,3837,-6439,3518,0,0,1
-124.81,27.47,-61.32,3788,-6432,3551,-2,0,0
-124.83,27.47,-61.33,3766,-6464,3446,1,0,-1
-124.80,27.49,-61.30,3801,-6434,3528,0,-2,-1
-124.82,27.51,-61.31,3823,-6439,3540,0,-1,-1
-124.81,27.52,-61.30,3818,-6425,3533,0,-1,-1
-124.79,27.54,-61.30,3856,-6446,3550,-1,-1,-1
-124.78,27.56,-61.30,3854,-6431,3534,-1,0,-1
-124.77,27.58,-61.31,3830,-6423,3537,-1,-1,-1
-124.75,27.61,-61.31,3848,-6435,3552,-1,-1,-1
-124.75,27.62,-61.32,3863,-6433,3556,-1,-1,-1
-124.72,27.64,-61.32,3868,-6438,3548,-1,0,-1
-124.69,27.65,-61.31,3870,-6443,3533,0,0,-1
-124.68,27.66,-61.31,3855,-6439,3533,-1,0,-1
-124.67,27.66,-61.32,3854,-6447,3528,-1,0,-1
-124.66,27.67,-61.33,3852,-6445,3522,-1,0,-1
-124.67,27.66,-61.34,3855,-6450,3513,-1,0,-1
-124.67,27.66,-61.35,3855,-6443,3516,-1,0,-1
-124.67,27.66,-61.36,3850,-6437,3515,-1,-1,0
-124.68,27.66,-61.38,3844,-6447,3511,-1,0,0
-124.70,27.66,-61.40,3844,-6450,3505,-1,0,0
-124.71,27.66,-61.42,3852,-6453,3495,-1,0,0
-124.71,27.65,-61.43,3851,-6458,3497,-1,0,0
-124.72,27.65,-61.44,3837,-6448,3498,-1,0,0
-124.73,27.65,-61.46,3844,-6450,3494,-1,-1,0
-124.74,27.65,-61.47,3846,-6442,3510,-1,-1,0
-124.76,27.65,-61.49,3852,-6455,3485,-1,-1,0
-124.77,27.65,-61.50,3843,-6449,3484,-1,-1,-1
-124.77,27.66,-61.50,3839,-6457,3483,0,-1,-1
-124.77,27.66,-61.50,3833,-6461,3493,0,-1,-1
-124.78,27.67,-61.49,3843,-6457,3495,0,-1,-1
-124.77,27.68,-61.50,3841,-6457,3491,0,-1,-1
-124.78,27.68,-61.50,3836,-6450,3494,0,-1,-1
-124.78,27.70,-61.50,3851,-6450,3497,0,-1,-1
-124.78,27.70,-61.50,3857,-6460,3501,0,-1,-1
-124.77,27.71,-61.49,3857,-6456,3509,0,-1,-1
-124.77,27.72,-61.49,3858,-6457,3516,0,-1,-1
-124.77,27.73,-61.48,3864,-6456,3509,0,-1,-1
-124.76,27.74,-61.48,3863,-6457,3501,0,-1,-1
-124.77,27.73,-61.47,3852,-6445,3501,0,-1,-1
-124.77,27.74,-61.46,3858,-6450,3512,0,-1,-1
-124.76,27.75,-61.45,3864,-6453,3507,0,-1,0
-124.75,27.75,-61.44,3855,-6440,3514,0,-1,0
-124.76,27.76,-61.44,3857,-6439,3504,0,-1,-1
-124.76,27.76,-61.44,3857,-6440,3518,0,-1,0
-124.77,27.76,-61.44,3867,-6456,3507,-1,-1,0
-124.77,27.77,-61.44,3862,-6445,3502,0,-1,-1
-124.77,27.77,-61.43,3864,-6433,3515,0,-1,-1
-124.77,27.79,-61.42,3875,-6433,3513,0,-1,0
-124.77,27.78,-61.42,3878,-6434,3520,0,-1,0
-124.77,27.79,-61.42,3870,-6443,3507,0,-1,-1
-124.78,27.79,-61.42,3861,-6444,3496,0,-1,-1
-124.78,27.80,-61.41,3868,-6436,3507,0,-1,-1
-124.77,27.81,-61.41,3874,-6436,3524,0,-1,-1
-124.78,27.81,-61.41,3875,-6435,3501,0,-1,-1
-124.78,27.82,-61.41,3874,-6431,3503,0,-1,-1
-124.78,27.82,-61.41,3878,-6438,3509,0,-1,-1
-124.79,27.82,-61.41,3881,-6436,3505,0,-1,-1
-124.78,27.83,-61.40,3873,-6438,3503,0,-1,-1
-124.78,27.84,-61.40,3873,-6437,3504,0,-1,-1
-124.79,27.84,-61.39,3872,-6440,3502,0,-1,0
-124.79,27.84,-61.39,3868,-6444,3507,0,-1,0
-124.79,27.84,-61.39,3864,-6440,3513,0,-1,0
-124.79,27.84,-61.39,3863,-6439,3512,0,-1,-1
-124.80,27.85,-61.38,3875,-6436,3513,0,-1,0
-124.79,27.85,-61.38,3878,-6430,3522,-1,-1,0
-124.80,27.85,-61.39,3884,-6445,3504,0,0,-1
-124.79,27.86,-61.37,3874,-6432,3510,0,-1,-1
-124.79,27.87,-61.37,3878,-6430,3509,0,-1,-1
-124.79,27.87,-61.37,3884,-6429,3511,0,-1,-1
-124.79,27.87,-61.37,3890,-6426,3509,0,-1,-1
-124.79,27.88,-61.36,3887,-6431,3497,0,-1,0
-124.79,27.88,-61.36,3886,-6428,3502,0,-1,-1
-124.78,27.88,-61.35,3883,-6424,3502,0,-1,0
-124.79,27.89,-61.36,3884,-6431,3502,0,-1,0
-124.79,27.89,-61.34,3883,-6425,3504,0,-1,0
-124.78,27.90,-61.34,3885,-6426,3519,0,-1,0
-124.79,27.89,-61.33,3882,-6429,3509,0,-1,0
-124.78,27.90,-61.33,3879,-6427,3503,0,-1,0
-124.79,27.90,-61.32,3883,-6430,3515,0,-1,0
-124.80,27.90,-61.31,3874,-6427,3513,0,-1,0
-124.80,27.90,-61.30,3876,-6427,3517,0,-1,0
-124.80,27.91,-61.30,3879,-6432,3515,0,-1,0
-124.80,27.90,-61.29,3881,-6425,3518,0,-1,0
-124.80,27.91,-61.28,3888,-6427,3516,0,-1,-1
-124.81,27.92,-61.28,3889,-6428,3510,0,-1,0
-124.80,27.92,-61.28,3882,-6416,3517,0,-1,0
-124.81,27.91,-61.28,3890,-6431,3513,0,-1,0
-124.82,27.92,-61.28,3885,-6428,3514,0,-1,-1
-124.81,27.92,-61.27,3882,-6430,3520,0,-1,0
-124.82,27.92,-61.27,3881,-6427,3506,0,-1,0
-124.83,27.92,-61.27,3884,-6429,3504,0,-1,0
-124.83,27.93,-61.26,3879,-6424,3509,0,-1,0
-124.83,27.93,-61.25,3877,-6418,3515,0,-1,0
-124.85,27.93,-61.26,3883,-6425,3514,0,-1,0
-124.85,27.93,-61.26,3891,-6428,3510,0,-1,0
-124.86,27.93,-61.25,3892,-6427,3510,0,-1,0
-124.86,27.94,-61.25,3894,-6420,3521,0,-1,0
-124.86,27.94,-61.24,3894,-6421,3527,0,-1,0
-124.88,27.93,-61.24,3885,-6421,3516,0,-1,0
-124.89,27.93,-61.24,3888,-6415,3519,0,-1,0
-124.88,27.94,-61.23,3902,-6417,3530,0,-1,0
-124.89,27.94,-61.23,3895,-6425,3520,0,0,0
-124.89,27.93,-61.23,3890,-6422,3517,0,0,0
-124.89,27.92,-61.22,3892,-6414,3518,0,0,0
-124.90,27.92,-61.21,3884,-6414,3526,0,0,0
-124.90,27.90,-61.21,3874,-6420,3528,0,0,0
-124.90,27.90,-61.20,3881,-6421,3522,0,-1,0
-124.90,27.89,-61.19,3901,-6412,3552,0,0,0
-124.92,27.88,-61.20,3899,-6433,3528,-1,0,0
-124.93,27.87,-61.20,3879,-6421,3524,0,0,0
-124.94,27.86,-61.20,3869,-6420,3518,0,-1,0
-124.94,27.85,-61.19,3884,-6420,3531,0,-1,0
-124.96,27.84,-61.20,3882,-6428,3540,-1,0,0
-124.97,27.82,-61.20,3877,-6423,3542,0,0,0
-124.98,27.80,-61.20,3863,-6415,3523,0,0,0
-124.99,27.80,-61.20,3856,-6412,3524,0,-1,0
-125.00,27.79,-61.20,3853,-6421,3530,0,-1,0
-125.02,27.78,-61.20,3863,-6427,3536,0,-1,0
-125.02,27.78,-61.20,3868,-6427,3539,-1,0,0
-125.02,27.76,-61.20,3852,-6433,3516,0,0,0
-125.03,27.76,-61.20,3849,-6436,3514,0,-1,0
-125.03,27.77,-61.21,3846,-6436,3507,0,-1,-1
-125.03,27.77,-61.21,3866,-6419,3520,0,0,-1
-125.00,27.78,-61.19,3887,-6409,3542,-1,0,-1
-124.99,27.78,-61.18,3869,-6420,3535,0,0,-1
-124.96,27.78,-61.17,3855,-6430,3522,0,0,-1
-124.95,27.79,-61.15,3852,-6428,3530,0,-1,-1
-124.92,27.80,-61.14,3860,-6430,3541,-1,-1,-1
-124.91,27.81,-61.14,3865,-6417,3538,-1,0,-1
-124.90,27.81,-61.14,3871,-6407,3550,0,0,-1
-124.91,27.80,-61.14,3866,-6418,3547,-1,0,-1
-124.89,27.80,-61.13,3870,-6411,3542,0,0,-1
-124.88,27.82,-61.13,3880,-6409,3556,-1,-1,-1
-124.88,27.82,-61.13,3891,-6408,3571,-1,0,0
-124.89,27.81,-61.15,3890,-6397,3558,-1,0,-1
-124.88,27.81,-61.15,3881,-6408,3543,-1,0,-1
-124.86,27.81,-61.14,3871,-6405,3543,-1,0,-1
-124.85,27.81,-61.15,3878,-6407,3550,-1,0,0
-124.85,27.81,-61.16,3882,-6409,3552,-1,0,-1
-124.84,27.82,-61.17,3877,-6419,3534,-1,0,-1
-124.83,27.81,-61.18,3883,-6421,3528,-1,0,-1
-124.81,27.80,-61.18,3872,-6423,3541,-1,0,-1
-124.80,27.80,-61.19,3869,-6431,3533,-1,0,-1
-124.81,27.79,-61.21,3862,-6432,3530,-1,0,0
-124.82,27.78,-61.23,3884,-6421,3559,-2,0,0
-124.82,27.76,-61.25,3885,-6430,3546,-2,1,0
-124.82,27.74,-61.27,3888,-6444,3537,-2,1,0
-124.81,27.71,-61.28,3848,-6439,3487,-1,1,0
-124.82,27.71,-61.30,3798,-6453,3449,-1,0,-1
-124.83,27.71,-61.30,3830,-6447,3484,0,-1,0
-124.85,27.69,-61.31,3876,-6440,3529,-1,0,0
-124.87,27.68,-61.32,3833,-6440,3486,0,0,-1
-124.86,27.69,-61.32,3810,-6422,3511,0,-1,-1
-124.88,27.71,-61.33,3847,-6447,3514,0,-1,0
-124.90,27.71,-61.33,3873,-6451,3509,0,-1,0
-124.90,27.71,-61.33,3870,-6433,3519,-1,-1,0
-124.90,27.71,-61.33,3862,-6421,3528,-1,-1,-1
-124.89,27.72,-61.34,3869,-6429,3526,-1,0,-1
-124.87,27.72,-61.33,3879,-6421,3538,-1,0,-1
-124.86,27.72,-61.33,3872,-6426,3533,-1,0,-1
-124.84,27.73,-61.33,3864,-6432,3525,-1,0,-1
-124.82,27.73,-61.33,3871,-6436,3518,-1,0,-1
-124.81,27.73,-61.33,3869,-6439,3511,-1,0,-1
-124.79,27.73,-61.33,3860,-6443,3520,-1,0,-1
-124.80,27.72,-61.34,3848,-6445,3511,-1,0,0
-124.80,27.72,-61.35,3842,-6448,3496,-1,-1,0
-124.81,27.72,-61.36,3851,-6438,3500,-1,-1,0
-124.82,27.72,-61.37,3853,-6438,3512,-1,-1,0
-124.83,27.72,-61.37,3867,-6446,3510,-1,0,0
-124.84,27.71,-61.39,3862,-6445,3518,-1,-1,0
-124.86,27.71,-61.41,3876,-6458,3501,-1,0,0
-124.86,27.70,-61.41,3877,-6435,3511,-1,0,0
-124.86,27.70,-61.43,3878,-6444,3507,-1,0,-1
-124.84,27.69,-61.42,3877,-6443,3491,0,0,0
-124.82,27.68,-61.41,3895,-6450,3512,-1,1,0
-124.81,27.66,-61.39,3880,-6447,3516,-1,1,0
-124.80,27.64,-61.40,3826,-6453,3482,-1,0,-1
-124.80,27.64,-61.40,3830,-6472,3490,0,0,0
-124.81,27.63,-61.40,3832,-6459,3485,-1,-1,-1
-124.81,27.62,-61.40,3847,-6444,3517,-1,-1,0
-124.82,27.62,-61.41,3801,-6454,3483,0,0,0
-124.82,27.62,-61.40,3776,-6440,3494,0,-2,-1
-124.85,27.64,-61.41,3809,-6443,3506,0,-2,0
-124.89,27.66,-61.43,3849,-6448,3513,0,-2,0
-124.92,27.66,-61.45,3853,-6447,3501,0,-1,0
-124.94,27.67,-61.45,3838,-6436,3502,0,-2,0
-124.97,27.69,-61.47,3840,-6436,3495,0,-2,-1
-124.98,27.71,-61.47,3860,-6440,3505,0,-1,-1
-124.99,27.73,-61.48,3883,-6454,3512,-1,-1,-1
-125.00,27.74,-61.48,3884,-6448,3493,0,-1,-1
-124.99,27.76,-61.47,3876,-6454,3494,0,-1,-1
-124.99,27.77,-61.47,3878,-6453,3497,0,-1,-1
-124.97,27.78,-61.46,3876,-6449,3487,0,-1,-1
-124.97,27.79,-61.45,3871,-6445,3498,0,-1,-1
-124.96,27.80,-61.44,3867,-6449,3499,0,-1,-1
-124.96,27.81,-61.44,3873,-6448,3497,0,-1,-1
-124.95,27.81,-61.42,3878,-6440,3504,0,-1,-1
-124.95,27.83,-61.42,3885,-6438,3500,0,-1,0
-124.95,27.83,-61.40,3879,-6429,3510,0,-1,-1
-124.95,27.83,-61.40,3872,-6431,3518,0,-1,0
-124.95,27.84,-61.38,3884,-6422,3508,0,-1,0
-124.96,27.84,-61.38,3883,-6425,3510,0,-1,0
-124.96,27.85,-61.37,3879,-6431,3515,0,-1,0
-124.96,27.85,-61.36,3872,-6430,3514,0,-1,-1
-124.96,27.86,-61.36,3880,-6431,3515,0,-1,-1
-124.95,27.87,-61.35,3887,-6427,3521,0,-1,0
-124.96,27.87,-61.35,3899,-6427,3521,-1,-1,0
-124.96,27.88,-61.35,3887,-6419,3511,0,-1,-1
-124.96,27.88,-61.35,3874,-6419,3515,0,-1,-1
-124.97,27.89,-61.34,3878,-6423,3514,0,-1,-1
-124.96,27.89,-61.33,3879,-6422,3518,0,-1,0
-124.97,27.90,-61.32,3877,-6433,3524,0,-1,0
-124.98,27.90,-61.33,3869,-6434,3508,0,-1,0
-124.98,27.91,-61.33,3874,-6436,3516,0,-1,-1
-124.99,27.90,-61.32,3880,-6435,3516,0,-1,0
-124.99,27.91,-61.33,3883,-6438,3499,0,-1,-1
-125.00,27.91,-61.32,3883,-6435,3502,0,-1,-1
-124.99,27.92,-61.32,3889,-6435,3504,0,-1,0
-124.99,27.92,-61.32,3885,-6427,3498,0,-1,-1
-125.00,27.92,-61.32,3883,-6423,3503,0,-1,-1
-124.99,27.92,-61.31,3884,-6423,3500,0,-1,-1
-124.99,27.93,-61.30,3889,-6425,3513,0,-1,-1
-124.99,27.93,-61.29,3881,-6430,3511,0,0,-1
-124.98,27.93,-61.29,3882,-6424,3520,0,-1,-1
-124.99,27.93,-61.29,3880,-6425,3503,0,-1,-1
-124.99,27.94,-61.28,3890,-6431,3508,0,-1,0
-124.99,27.94,-61.27,3890,-6416,3517,0,-1,0
-124.99,27.94,-61.27,3884,-6428,3506,0,-1,-1
-125.00,27.95,-61.27,3880,-6417,3511,0,-1,-1
-124.99,27.95,-61.26,3886,-6415,3527,0,-1,-1
-125.00,27.96,-61.25,3886,-6422,3531,0,-1,0
-125.01,27.95,-61.25,3883,-6423,3514,0,-1,0
-125.00,27.95,-61.24,3873,-6414,3516,0,-1,0
-125.01,27.95,-61.24,3873,-6413,3514,0,-1,0
-125.02,27.96,-61.24,3884,-6418,3513,0,-1,-1
-125.02,27.96,-61.24,3900,-6423,3519,0,-1,0
-125.01,27.96,-61.23,3892,-6419,3515,0,-1,0
-125.02,27.97,-61.23,3893,-6420,3512,0,-1,0
-125.02,27.97,-61.23,3896,-6427,3517,0,-1,-1
-125.02,27.97,-61.23,3896,-6426,3516,0,-1,0
-125.02,27.97,-61.21,3889,-6420,3516,0,-1,0
-125.02,27.97,-61.21,3884,-6420,3522,0,-1,0
-125.02,27.98,-61.20,3893,-6420,3521,0,-1,0
-125.02,27.97,-61.19,3889,-6418,3528,0,-1,0
-125.03,27.97,-61.19,3889,-6413,3523,0,-1,0
-125.03,27.97,-61.18,3890,-6411,3529,0,-1,-1
-125.03,27.97,-61.18,3888,-6413,3524,0,-1,0
-125.04,27.98,-61.16,3895,-6404,3539,0,-1,0
-125.04,27.97,-61.16,3910,-6400,3540,0,-1,0
-125.04,27.96,-61.15,3904,-6417,3541,-1,0,0
-125.05,27.95,-61.16,3896,-6427,3509,0,0,0
-125.06,27.94,-61.15,3876,-6405,3515,0,-1,0
-125.06,27.94,-61.14,3886,-6407,3527,0,-1,0
-125.08,27.94,-61.14,3885,-6419,3525,0,-1,0
-125.08,27.94,-61.14,3886,-6424,3525,0,-1,0
-125.09,27.93,-61.13,3882,-6417,3532,0,-1,0
-125.09,27.93,-61.13,3882,-6419,3536,0,-1,0
-125.10,27.93,-61.13,3883,-6418,3540,-1,-1,0
-125.10,27.92,-61.13,3893,-6419,3530,0,0,0
-125.11,27.92,-61.13,3894,-6405,3531,-1,0,0
-125.11,27.91,-61.13,3884,-6406,3528,0,-1,0
-125.11,27.91,-61.13,3889,-6418,3532,0,0,0
-125.11,27.91,-61.12,3880,-6413,3536,0,0,0
-125.11,27.91,-61.12,3887,-6417,3544,0,0,0
-125.11,27.91,-61.12,3878,-6419,3528,0,-1,-1
-125.11,27.91,-61.12,3885,-6416,3530,0,0,-1
-125.11,27.91,-61.12,3891,-6412,3534,0,0,-1
-125.08,27.91,-61.11,3898,-6408,3550,-1,0,-1
-125.08,27.92,-61.10,3888,-6415,3534,0,0,-1
-125.05,27.92,-61.09,3882,-6404,3543,0,0,-1
-125.05,27.92,-61.08,3873,-6408,3536,0,-1,-1
-125.04,27.92,-61.08,3877,-6409,3554,0,-1,-1
-125.04,27.93,-61.08,3884,-6404,3553,-1,0,0
-125.06,27.92,-61.09,3886,-6411,3541,-1,0,-1
-125.05,27.93,-61.09,3886,-6403,3549,0,0,-1
-125.03,27.94,-61.08,3885,-6404,3558,-1,-1,-1
-125.04,27.94,-61.09,3898,-6410,3562,-1,0,0
-125.03,27.93,-61.10,3901,-6404,3557,-1,0,-1
-125.01,27.93,-61.09,3895,-6401,3547,-1,0,-1
-125.01,27.92,-61.11,3884,-6415,3528,-1,0,-1
-125.01,27.92,-61.11,3880,-6408,3532,-1,0,-1
-125.00,27.92,-61.12,3884,-6413,3531,-1,0,-1
-124.99,27.92,-61.13,3882,-6416,3518,-1,0,-1
-124.98,27.91,-61.13,3883,-6424,3531,-1,0,-1
-124.98,27.90,-61.14,3883,-6427,3527,-1,0,-1
-124.97,27.90,-61.15,3873,-6422,3520,-1,0,-1
-124.97,27.90,-61.15,3874,-6417,3529,-1,0,-1
-124.96,27.89,-61.16,3876,-6422,3524,-1,0,0
-124.97,27.88,-61.17,3875,-6420,3517,-1,0,0
-124.96,27.88,-61.17,3871,-6422,3523,-1,0,-1
-124.97,27.88,-61.18,3869,-6418,3529,-1,0,-1
-124.96,27.87,-61.19,3877,-6427,3526,-1,0,0
-124.96,27.86,-61.19,3887,-6423,3532,-1,0,0
-124.96,27.85,-61.20,3884,-6422,3536,-1,0,0
-124.95,27.84,-61.21,3883,-6433,3531,-1,0,-1
-124.94,27.84,-61.21,3880,-6430,3510,-1,0,-1
-124.93,27.83,-61.22,3857,-6424,3525,-1,0,-1
-124.94,27.82,-61.23,3860,-6435,3513,-1,0,-1
-124.93,27.82,-61.23,3869,-6426,3514,-1,0,-1
-124.93,27.81,-61.23,3867,-6426,3514,-1,0,0
-124.93,27.80,-61.24,3850,-6430,3504,-1,0,0
-124.95,27.79,-61.26,3852,-6430,3511,-1,-1,0
-124.98,27.79,-61.28,3854,-6433,3518,-1,-1,0
-124.99,27.79,-61.29,3859,-6425,3518,-1,-1,0
-124.99,27.79,-61.30,3869,-6431,3524,-1,-1,0
-124.99,27.78,-61.30,3874,-6428,3521,-1,0,0
-125.00,27.78,-61.31,3874,-6426,3526,-1,0,0
-124.99,27.78,-61.32,3877,-6437,3509,-1,0,-1
-125.00,27.77,-61.33,3874,-6439,3514,-1,0,0
-124.99,27.77,-61.33,3870,-6431,3512,-1,0,-1
-124.99,27.77,-61.34,3870,-6442,3497,-1,0,-1
-124.98,27.76,-61.34,3854,-6442,3497,-1,0,0
-124.98,27.75,-61.34,3847,-6441,3507,-1,0,0
-124.99,27.75,-61.34,3849,-6442,3511,-1,0,0
-125.00,27.75,-61.37,3857,-6456,3487,-1,-1,-1
-125.00,27.75,-61.36,3843,-6448,3492,0,-1,-1
-125.01,27.76,-61.37,3849,-6448,3483,0,-1,-1
-125.03,27.76,-61.38,3862,-6445,3486,0,-1,0
-125.03,27.77,-61.38,3866,-6439,3500,0,-1,0
-125.04,27.78,-61.38,3861,-6434,3494,0,-1,0
-125.06,27.78,-61.39,3856,-6439,3493,0,-1,0
-125.07,27.79,-61.39,3863,-6433,3502,0,-1,0
-125.07,27.80,-61.39,3875,-6439,3503,0,-1,-1
-125.08,27.81,-61.39,3870,-6431,3497,0,-1,-1
-125.08,27.82,-61.38,3873,-6430,3507,0,-1,-1
-125.07,27.82,-61.37,3877,-6430,3497,0,-1,-1
-125.07,27.83,-61.37,3880,-6429,3501,0,-1,-1
-125.07,27.84,-61.37,3890,-6429,3504,0,-1,-1
-125.06,27.84,-61.36,3876,-6428,3501,0,-1,-1
-125.07,27.85,-61.36,3867,-6438,3512,0,-1,0
-125.06,27.86,-61.35,3872,-6431,3513,0,-1,-1
-125.07,27.86,-61.35,3878,-6429,3513,0,-1,-1
-125.08,27.86,-61.34,3873,-6423,3512,0,-1,0
-125.08,27.87,-61.34,3870,-6431,3516,0,-1,0
-125.09,27.87,-61.35,3869,-6432,3500,0,-1,-1
-125.09,27.88,-61.34,3878,-6426,3510,0,-1,-1
-125.10,27.89,-61.33,3889,-6426,3520,0,-1,0
-125.11,27.89,-61.33,3879,-6417,3532,0,-1,0
-125.11,27.89,-61.33,3889,-6428,3522,0,-1,-1
-125.11,27.90,-61.32,3885,-6425,3519,0,-1,0
-125.12,27.90,-61.32,3880,-6429,3514,0,-1,-1
-125.11,27.91,-61.32,3887,-6426,3515,0,-1,0
-125.12,27.92,-61.32,3890,-6423,3503,0,-1,0
-125.13,27.92,-61.32,3888,-6425,3510,0,-1,-1
-125.12,27.92,-61.32,3891,-6425,3504,0,-1,0
-125.13,27.93,-61.31,3890,-6427,3501,0,-1,-1
-125.14,27.93,-61.31,3879,-6425,3500,0,-1,0
-125.14,27.93,-61.30,3885,-6428,3511,0,-1,0
-125.15,27.93,-61.30,3884,-6433,3523,0,-1,0
-125.15,27.93,-61.30,3881,-6423,3522,0,-1,0
-125.16,27.94,-61.29,3877,-6425,3507,0,-1,0
-125.16,27.94,-61.29,3888,-6424,3519,0,-1,0
-125.17,27.94,-61.28,3888,-6418,3522,0,-1,0
-125.18,27.95,-61.28,3897,-6426,3499,0,-1,0
-125.18,27.95,-61.27,3890,-6405,3517,0,-1,0
-125.18,27.96,-61.27,3894,-6414,3534,0,-1,0
-125.20,27.96,-61.28,3884,-6418,3513,0,-1,0
-125.19,27.96,-61.27,3885,-6421,3511,0,-1,-1
-125.19,27.97,-61.26,3887,-6420,3503,0,-1,0
-125.18,27.97,-61.26,3889,-6418,3514,0,-1,-1
-125.19,27.97,-61.26,3893,-6420,3513,0,-1,0
-125.18,27.97,-61.24,3906,-6422,3534,0,0,0
-125.18,27.96,-61.23,3904,-6422,3531,0,0,0
-125.17,27.95,-61.23,3899,-6413,3541,-1,0,0
-125.19,27.93,-61.23,3903,-6417,3539,0,0,0
-125.16,27.92,-61.21,3922,-6416,3549,0,1,0
-125.17,27.90,-61.22,3919,-6425,3548,-2,0,1
-125.20,27.87,-61.25,3905,-6431,3514,-1,1,0
-125.20,27.83,-61.25,3872,-6436,3486,-1,1,-1
-125.18,27.80,-61.23,3824,-6420,3507,-1,1,0
-125.22,27.79,-61.26,3843,-6450,3486,-1,-1,0
-125.23,27.78,-61.25,3838,-6441,3503,0,0,0
-125.21,27.77,-61.24,3855,-6451,3514,0,0,0
-125.23,27.74,-61.23,3891,-6449,3552,0,0,1
-125.25,27.71,-61.22,3861,-6443,3506,0,1,1
-125.26,27.68,-61.20,3874,-6446,3550,1,0,1
-125.30,27.64,-61.20,3912,-6439,3603,-1,-1,1
-125.32,27.59,-61.19,3941,-6406,3682,-1,2,2
-125.35,27.48,-61.22,3893,-6417,3600,-4,3,2
-125.35,27.41,-61.26,3800,-6384,3462,-1,3,-1
-125.27,27.43,-61.24,3781,-6408,3498,-2,1,-3
-125.20,27.41,-61.22,3832,-6430,3571,-1,3,0
-125.16,27.37,-61.23,3761,-6429,3569,-3,2,-1
-125.10,27.39,-61.23,3770,-6430,3533,-1,1,-2
-125.06,27.38,-61.26,3789,-6457,3502,-2,2,-1
-125.07,27.35,-61.28,3740,-6491,3527,-2,-1,-1
-125.10,27.33,-61.32,3787,-6473,3511,0,1,0
-125.11,27.32,-61.34,3765,-6447,3550,-3,-1,0
-125.18,27.32,-61.42,3828,-6508,3474,-1,0,0
-125.18,27.30,-61.41,3812,-6454,3534,-1,0,0
-125.18,27.31,-61.45,3846,-6480,3529,-2,0,-1
-125.19,27.28,-61.47,3783,-6482,3513,-2,0,0
-125.24,27.26,-61.52,3729,-6470,3511,-2,-2,0
-125.30,27.27,-61.57,3788,-6473,3495,-1,-2,0
-125.31,27.29,-61.61,3818,-6447,3561,-3,-2,-1
-125.36,27.33,-61.69,3865,-6514,3473,-2,0,-1
-125.37,27.32,-61.70,3819,-6516,3468,-1,-1,0
-125.40,27.31,-61.72,3824,-6488,3492,-1,-1,0
-125.41,27.33,-61.75,3821,-6469,3511,-2,-1,-1
-125.42,27.35,-61.79,3857,-6493,3506,-2,-1,-1
-125.43,27.35,-61.82,3846,-6513,3482,-2,1,0
-125.41,27.33,-61.82,3804,-6484,3470,-1,1,-1
-125.39,27.33,-61.84,3767,-6482,3444,-2,0,-2
-125.37,27.36,-61.87,3792,-6508,3441,-2,0,-1
-125.35,27.36,-61.88,3780,-6521,3411,-1,1,-2
-125.26,27.39,-61.84,3828,-6511,3444,0,1,-2
-125.20,27.38,-61.81,3822,-6472,3531,-2,0,-1
-125.20,27.38,-61.84,3817,-6499,3445,-1,0,-1
-125.16,27.38,-61.83,3769,-6474,3458,-1,0,-1
-125.18,27.39,-61.86,3763,-6525,3441,-1,-2,-1
-125.20,27.39,-61.87,3770,-6515,3424,1,-1,-1
-125.20,27.39,-61.85,3777,-6483,3482,0,-1,0
-125.21,27.40,-61.85,3830,-6487,3502,-1,-1,0
-125.25,27.40,-61.89,3807,-6505,3455,-1,-2,-1
-125.27,27.42,-61.91,3796,-6499,3431,0,-2,-1
-125.29,27.44,-61.92,3818,-6510,3440,0,-1,-1
-125.29,27.45,-61.91,3828,-6508,3459,-1,-1,-1
-125.30,27.48,-61.92,3817,-6509,3432,0,-1,-1
-125.30,27.49,-61.91,3814,-6495,3454,0,-1,-1
-125.31,27.51,-61.91,3826,-6492,3469,0,-2,-1
-125.31,27.54,-61.90,3848,-6499,3460,0,-1,-1
-125.29,27.55,-61.88,3866,-6487,3485,0,-1,-1
-125.29,27.55,-61.88,3858,-6486,3478,0,-1,-1
-125.29,27.56,-61.87,3845,-6477,3469,0,0,-1
-125.27,27.56,-61.87,3841,-6476,3462,0,-1,-1
-125.27,27.58,-61.86,3847,-6477,3472,0,-1,-1
-125.28,27.58,-61.85,3857,-6468,3511,0,-1,-1
-125.26,27.59,-61.84,3871,-6469,3519,-1,0,-1
-125.26,27.59,-61.85,3856,-6471,3495,-1,0,-1
-125.25,27.59,-61.85,3837,-6456,3474,-1,0,-1
-125.25,27.58,-61.86,3831,-6464,3485,-1,-1,-1
-125.27,27.58,-61.87,3836,-6464,3499,-1,-1,0
-125.28,27.58,-61.89,3841,-6486,3475,-2,0,-1
-125.29,27.58,-61.91,3839,-6484,3459,-1,0,-1
-125.29,27.58,-61.92,3821,-6480,3457,-1,-1,-1
-125.30,27.59,-61.94,3822,-6485,3451,-1,-1,0
-125.32,27.60,-61.95,3830,-6478,3461,-1,-1,0
-125.36,27.61,-61.98,3841,-6479,3462,-1,-1,0
-125.38,27.61,-62.01,3838,-6490,3431,-1,-1,0
-125.41,27.63,-62.03,3827,-6499,3421,-1,-2,-1
-125.43,27.65,-62.05,3827,-6502,3413,0,-2,-1
-125.44,27.68,-62.06,3848,-6505,3429,0,-2,-1
-125.44,27.69,-62.05,3861,-6492,3441,0,-1,-1
-125.46,27.70,-62.05,3870,-6494,3444,0,-1,0
-125.47,27.72,-62.06,3860,-6491,3433,0,-1,-1
-125.48,27.73,-62.06,3857,-6487,3435,0,-1,-1
-125.48,27.75,-62.06,3869,-6492,3440,0,-1,-1
-125.47,27.77,-62.04,3884,-6491,3441,0,-1,-1
-125.48,27.79,-62.05,3886,-6487,3435,0,-1,-1
-125.47,27.80,-62.03,3885,-6485,3440,0,-1,-1
-125.48,27.80,-62.02,3867,-6478,3449,0,-1,0
-125.49,27.81,-62.03,3876,-6484,3444,0,-1,0
-125.51,27.81,-62.02,3871,-6473,3437,0,-1,0
-125.52,27.82,-62.03,3871,-6483,3414,0,-1,-1
-125.52,27.84,-62.03,3873,-6482,3405,0,-1,-1
-125.53,27.85,-62.01,3866,-6469,3426,0,-2,0
-125.55,27.86,-62.01,3876,-6469,3421,0,-2,0
-125.55,27.88,-62.00,3875,-6461,3430,0,-1,0
-125.57,27.89,-62.00,3870,-6464,3428,0,-1,-1
-125.58,27.90,-62.00,3878,-6469,3425,0,-1,-1
-125.59,27.92,-62.00,3892,-6463,3441,0,-1,0
-125.61,27.93,-62.00,3896,-6473,3439,0,-1,0
-125.62,27.94,-62.00,3905,-6473,3448,0,-1,0
-125.62,27.95,-62.00,3897,-6458,3436,0,-1,-1
-125.64,27.96,-62.01,3888,-6467,3444,0,-1,0
-125.64,27.96,-62.00,3887,-6467,3440,0,-1,0
-125.66,27.97,-62.01,3890,-6468,3437,0,-1,-1
-125.66,27.99,-62.00,3903,-6459,3437,0,-1,0
-125.67,27.99,-62.01,3910,-6461,3427,0,-1,-1
-125.67,28.00,-62.01,3900,-6462,3423,0,-1,0
-125.68,28.01,-62.00,3904,-6456,3423,0,-1,0
-125.69,28.02,-62.01,3903,-6455,3436,0,-1,0
-125.71,28.02,-62.02,3899,-6461,3422,0,-1,0
-125.73,28.03,-62.02,3900,-6454,3428,0,-1,0
-125.75,28.03,-62.03,3895,-6452,3434,0,-1,0
-125.76,28.04,-62.03,3892,-6465,3424,0,-1,0
-125.78,28.04,-62.04,3899,-6461,3423,0,-1,0
-125.79,28.05,-62.04,3897,-6457,3426,-1,-1,0
-125.81,28.06,-62.06,3903,-6461,3405,0,-1,0
-125.83,28.07,-62.07,3897,-6461,3414,-1,-1,-1
-125.83,28.07,-62.07,3906,-6468,3422,0,-1,0
-125.84,28.08,-62.08,3906,-6469,3423,0,-1,0
-125.86,28.08,-62.08,3899,-6464,3416,0,-1,0
-125.87,28.08,-62.09,3895,-6458,3414,0,-1,0
-125.88,28.09,-62.09,3906,-6463,3420,-1,-1,-1
-125.89,28.11,-62.11,3923,-6471,3406,0,-1,-1
-125.88,28.11,-62.10,3923,-6478,3407,0,-1,-1
-125.88,28.11,-62.10,3917,-6471,3413,0,0,-1
-125.87,28.12,-62.09,3919,-6467,3419,0,0,-1
