Yaw,Pitch,Roll,AX,AY,AZ,GX,GY,GZ
-128.53,28.48,-63.79,3953,-6543,3202,0,-1,0
-128.52,28.49,-63.79,3957,-6536,3202,0,-1,0
-128.53,28.49,-63.79,3957,-6539,3199,0,-1,0
-128.53,28.49,-63.78,3954,-6536,3205,0,-1,0
-128.54,28.49,-63.78,3958,-6542,3201,0,-1,0
-128.54,28.49,-63.78,3967,-6536,3206,0,-1,0
-128.55,28.49,-63.79,3958,-6545,3200,0,-1,0
-128.55,28.49,-63.79,3956,-6544,3202,0,-1,0
-128.55,28.49,-63.79,3952,-6546,3204,0,-1,0
-128.55,28.49,-63.79,3951,-6544,3211,0,-1,0
-128.55,28.49,-63.78,3956,-6544,3219,0,-1,0
-128.56,28.48,-63.79,3955,-6545,3211,-1,-1,0
-128.57,28.49,-63.79,3954,-6541,3209,0,-1,-1
-128.57,28.49,-63.79,3956,-6539,3216,0,-1,-1
-128.57,28.49,-63.79,3965,-6553,3216,0,-1,0
-128.57,28.49,-63.79,3957,-6544,3217,0,-1,0
-128.57,28.49,-63.79,3961,-6542,3204,0,-1,0
-128.58,28.49,-63.79,3951,-6547,3199,0,-1,0
-128.58,28.49,-63.79,3959,-6547,3193,0,-1,-1
-128.59,28.49,-63.79,3960,-6549,3200,-1,-1,0
-128.59,28.49,-63.78,3961,-6552,3208,0,-1,0
-128.59,28.49,-63.79,3957,-6545,3211,0,-1,0
-128.59,28.49,-63.79,3956,-6543,3212,0,-1,0
-128.59,28.50,-63.79,3957,-6549,3208,0,-1,0
-128.60,28.49,-63.78,3952,-6547,3209,0,-1,0
-128.60,28.49,-63.78,3952,-6547,3214,0,-1,0
-128.61,28.49,-63.79,3951,-6545,3212,0,-1,0
-128.61,28.49,-63.79,3955,-6547,3214,0,-1,0
-128.61,28.49,-63.79,3959,-6551,3204,0,-1,0
-128.62,28.49,-63.79,3954,-6546,3192,0,-1,0
-128.62,28.49,-63.79,3956,-6549,3194,0,-1,0
-128.63,28.49,-63.79,3957,-6549,3212,0,-1,0
-128.62,28.49,-63.79,3967,-6545,3204,0,-1,0
-128.63,28.50,-63.80,3964,-6553,3205,0,-1,0
-128.63,28.50,-63.80,3954,-6551,3204,0,-1,-1
-128.63,28.49,-63.79,3956,-6549,3203,0,-1,0
-128.63,28.49,-63.79,3966,-6546,3218,0,-1,0
-128.65,28.48,-63.78,3951,-6557,3219,0,-1,0
-128.69,28.45,-63.78,3924,-6547,3183,0,-1,0
-128.72,28.44,-63.79,3919,-6537,3201,0,-2,0
-128.76,28.44,-63.81,3937,-6528,3223,-1,-2,0
-128.81,28.44,-63.85,3952,-6549,3213,-1,-2,0
-128.85,28.44,-63.88,3975,-6550,3209,0,-1,0
-128.87,28.44,-63.89,3974,-6549,3208,-1,-1,0
-128.89,28.44,-63.92,3973,-6551,3210,-1,-1,0
-128.90,28.44,-63.93,3961,-6558,3184,-1,-1,0
-128.92,28.44,-63.95,3953,-6567,3173,-1,0,-1
-128.93,28.44,-63.96,3947,-6566,3180,-1,0,-1
-128.93,28.43,-63.97,3953,-6569,3190,-1,0,0
-128.94,28.43,-63.98,3953,-6575,3190,-1,0,0
-128.94,28.42,-63.96,3976,-6569,3201,0,0,0
-128.97,28.38,-63.95,3973,-6618,3182,1,0,1
-128.99,28.32,-63.91,3931,-6607,3147,2,0,1
-128.99,28.28,-63.85,3896,-6586,3146,2,-1,1
-129.00,28.25,-63.79,3888,-6587,3163,2,-1,1
-129.04,28.20,-63.75,3846,-6587,3172,2,-1,2
-129.11,28.15,-63.73,3843,-6597,3168,2,-3,2
-129.21,28.10,-63.71,3859,-6579,3210,2,-3,3
-129.32,28.04,-63.72,3856,-6587,3189,1,-3,3
-129.43,27.99,-63.71,3879,-6590,3184,3,-3,3
-129.50,27.93,-63.66,3915,-6585,3227,2,-2,3
-129.58,27.87,-63.64,3921,-6599,3212,2,-1,3
-129.66,27.79,-63.62,3868,-6582,3212,2,-1,3
-129.74,27.73,-63.60,3847,-6564,3270,1,-2,3
-129.84,27.67,-63.61,3838,-6558,3266,1,-2,2
-129.90,27.63,-63.60,3872,-6524,3292,1,-1,2
-129.94,27.59,-63.59,3909,-6510,3335,0,-1,2
-130.00,27.55,-63.61,3925,-6527,3332,-1,0,1
-130.04,27.51,-63.62,3921,-6521,3310,-1,-1,1
-130.07,27.49,-63.63,3903,-6532,3288,-1,0,1
-130.08,27.46,-63.62,3894,-6552,3307,-1,0,1
-130.10,27.46,-63.64,3862,-6570,3255,-1,0,0
-130.10,27.45,-63.64,3840,-6575,3261,-1,0,0
-130.12,27.44,-63.66,3827,-6578,3254,-1,0,0
-130.15,27.43,-63.69,3809,-6581,3257,-2,-1,0
-130.18,27.44,-63.74,3818,-6596,3238,-2,-1,0
-130.20,27.44,-63.77,3831,-6613,3237,-1,-1,0
-130.23,27.44,-63.79,3824,-6611,3232,-1,-1,0
-130.26,27.45,-63.83,3819,-6613,3230,-1,-1,-1
-130.27,27.46,-63.85,3827,-6620,3230,-1,-1,-1
-130.27,27.48,-63.87,3835,-6623,3240,-1,-1,-1
-130.29,27.48,-63.89,3839,-6618,3230,-1,-1,-1
-130.31,27.48,-63.92,3844,-6619,3222,-1,-1,0
-130.32,27.49,-63.94,3831,-6615,3226,-1,-1,0
-130.34,27.49,-63.97,3837,-6629,3201,-1,0,-1
-130.33,27.50,-63.97,3831,-6627,3203,-1,-1,-1
-130.32,27.52,-63.98,3841,-6625,3206,-1,0,-1
-130.31,27.53,-63.97,3835,-6624,3213,-1,0,-1
-130.30,27.53,-63.97,3830,-6623,3206,-1,0,-1
-130.29,27.54,-63.97,3832,-6635,3197,0,0,-1
-130.28,27.54,-63.96,3828,-6632,3200,0,0,-1
-130.27,27.54,-63.96,3824,-6626,3206,0,0,-1
-130.27,27.54,-63.95,3829,-6629,3200,0,0,-1
-130.26,27.55,-63.95,3830,-6625,3193,0,0,-1
-130.25,27.55,-63.94,3839,-6628,3206,0,0,-1
-130.24,27.55,-63.92,3840,-6619,3219,0,0,-1
-130.22,27.56,-63.90,3845,-6616,3217,0,0,-1
-130.20,27.56,-63.88,3847,-6613,3234,0,0,-1
-130.18,27.58,-63.87,3852,-6605,3230,0,0,-1
-130.17,27.58,-63.86,3850,-6612,3220,0,0,-1
-130.15,27.58,-63.85,3844,-6606,3217,0,0,-1
-130.14,27.59,-63.84,3844,-6603,3221,0,0,-1
-130.13,27.58,-63.83,3835,-6595,3227,0,0,-1
-130.12,27.59,-63.82,3842,-6612,3223,0,0,-1
-130.12,27.59,-63.82,3839,-6604,3220,0,0,-1
-130.11,27.59,-63.80,3837,-6593,3234,0,-1,-1
-130.11,27.59,-63.80,3839,-6604,3233,0,-1,0
-130.12,27.59,-63.80,3836,-6600,3224,0,-1,0
-130.13,27.59,-63.80,3839,-6596,3230,0,-1,0
-130.12,27.59,-63.80,3843,-6599,3223,0,-1,0
-130.12,27.59,-63.80,3838,-6598,3230,0,-1,-1
-130.13,27.59,-63.80,3842,-6603,3228,0,-1,0
-130.13,27.59,-63.80,3844,-6597,3230,-1,-1,0
-130.13,27.60,-63.81,3856,-6597,3237,0,-1,0
-130.13,27.60,-63.81,3853,-6604,3237,0,0,0
-130.13,27.59,-63.81,3841,-6599,3233,0,-1,0
-130.14,27.60,-63.82,3845,-6606,3229,-1,-1,-1
-130.14,27.60,-63.82,3845,-6602,3227,0,-1,0
-130.15,27.60,-63.82,3850,-6605,3223,0,-1,0
-130.15,27.60,-63.81,3846,-6598,3237,0,-1,0
-130.16,27.59,-63.82,3845,-6596,3238,0,-1,0
-130.17,27.59,-63.82,3846,-6601,3224,0,-1,0
-130.18,27.59,-63.83,3848,-6597,3226,-1,-1,0
-130.18,27.60,-63.83,3847,-6597,3211,0,0,-1
-130.17,27.60,-63.82,3849,-6595,3229,0,-1,-1
-130.16,27.60,-63.82,3844,-6610,3229,0,0,-1
-130.16,27.60,-63.82,3844,-6611,3230,0,0,-1
-130.16,27.60,-63.81,3840,-6604,3230,0,0,-1
-130.16,27.60,-63.81,3837,-6601,3224,0,0,-1
-130.15,27.61,-63.81,3841,-6609,3221,0,0,-1
-130.16,27.60,-63.81,3840,-6604,3221,0,0,0
-130.16,27.60,-63.81,3840,-6603,3226,0,-1,0
-130.16,27.60,-63.80,3837,-6596,3231,0,-1,0
-130.17,27.59,-63.81,3835,-6597,3223,0,-1,0
-130.17,27.60,-63.81,3839,-6601,3228,0,0,0
-130.16,27.60,-63.80,3838,-6595,3227,0,-1,0
-130.17,27.59,-63.81,3845,-6598,3224,-1,-1,0
-130.17,27.59,-63.81,3858,-6603,3230,0,-1,0
-130.18,27.59,-63.82,3856,-6608,3238,0,-1,0
-130.19,27.59,-63.82,3848,-6610,3229,-1,0,-1
-130.19,27.59,-63.82,3847,-6607,3231,0,0,0
-130.19,27.59,-63.82,3844,-6602,3232,-1,-1,0
-130.19,27.59,-63.83,3844,-6616,3220,0,0,-1
-130.19,27.59,-63.82,3839,-6602,3229,0,-1,-1
-130.19,27.59,-63.82,3842,-6607,3233,0,0,0
-130.20,27.59,-63.83,3836,-6604,3227,0,0,0
-130.20,27.58,-63.82,3833,-6607,3226,0,0,0
-130.19,27.58,-63.82,3835,-6595,3238,-1,0,0
-130.19,27.58,-63.82,3850,-6596,3230,0,0,0
-130.19,27.58,-63.81,3847,-6588,3236,-1,0,0
-130.19,27.57,-63.82,3836,-6601,3236,-1,0,0
-130.19,27.57,-63.81,3831,-6599,3234,0,0,-1
-130.18,27.57,-63.81,3838,-6593,3235,0,0,-1
-130.17,27.57,-63.80,3831,-6596,3242,-1,0,-1
-130.17,27.57,-63.81,3826,-6597,3235,-1,0,-1
-130.17,27.57,-63.81,3831,-6603,3230,-1,0,-1
-130.17,27.57,-63.81,3830,-6611,3236,-1,0,0
-130.18,27.56,-63.82,3832,-6605,3228,-1,-1,0
-130.18,27.56,-63.83,3836,-6604,3235,-1,-1,0
-130.18,27.56,-63.83,3843,-6602,3228,-1,-1,-1
-130.19,27.57,-63.84,3852,-6606,3232,-1,0,0
-130.19,27.56,-63.84,3847,-6601,3238,-1,-1,0
-130.20,27.56,-63.86,3851,-6614,3217,-1,0,-1
-130.19,27.57,-63.85,3843,-6603,3234,-1,0,-1
-130.19,27.57,-63.87,3840,-6610,3224,-1,0,0
-130.21,27.56,-63.87,3840,-6604,3229,-1,0,0
-130.20,27.56,-63.88,3843,-6606,3221,-1,0,-1
-130.20,27.57,-63.89,3834,-6618,3209,-1,0,-1
-130.19,27.57,-63.88,3835,-6618,3215,-1,0,-1
-130.18,27.57,-63.88,3831,-6614,3222,-1,0,-1
-130.18,27.56,-63.89,3822,-6616,3217,-1,0,-1
-130.18,27.57,-63.89,3836,-6619,3215,-1,0,-1
-130.18,27.57,-63.90,3839,-6607,3218,-1,0,-1
-130.18,27.57,-63.90,3845,-6609,3220,-1,0,-1
-130.17,27.56,-63.90,3843,-6611,3221,-1,0,-1
-130.16,27.56,-63.90,3836,-6610,3225,-1,0,-1
-130.16,27.56,-63.89,3833,-6606,3228,-1,0,-1
-130.15,27.56,-63.90,3834,-6608,3230,-1,0,-1
-130.15,27.56,-63.90,3842,-6609,3228,-1,0,-1
-130.14,27.56,-63.90,3843,-6608,3232,-1,0,-1
-130.14,27.57,-63.91,3847,-6603,3234,-1,0,-1
-130.13,27.56,-63.92,3837,-6608,3222,-1,0,-1
-130.13,27.56,-63.93,3843,-6610,3212,-1,0,0
-130.15,27.56,-63.95,3837,-6603,3219,-1,-1,0
-130.15,27.56,-63.96,3842,-6610,3206,-1,0,0
-130.16,27.56,-63.97,3838,-6603,3214,-1,-1,-1
-130.16,27.56,-63.98,3832,-6617,3212,-1,-1,0
-130.17,27.56,-63.99,3834,-6614,3213,-1,-1,0
-130.18,27.56,-64.00,3845,-6618,3214,-1,0,-1
-130.18,27.56,-64.01,3839,-6613,3212,-1,0,-1
-130.19,27.56,-64.02,3836,-6619,3207,-1,0,-1
-130.19,27.56,-64.03,3835,-6622,3194,-1,0,0
-130.20,27.56,-64.04,3831,-6625,3190,-1,-1,0
-130.21,27.55,-64.06,3835,-6624,3192,-1,-1,0
-130.21,27.56,-64.06,3830,-6630,3196,-1,-1,-1
-130.22,27.56,-64.07,3825,-6624,3196,0,-1,0
-130.23,27.55,-64.07,3822,-6620,3194,-1,-1,0
-130.24,27.56,-64.08,3824,-6620,3187,0,-1,0
-130.25,27.56,-64.09,3827,-6615,3193,0,-1,0
-130.26,27.56,-64.09,3835,-6621,3190,0,-1,0
-130.27,27.56,-64.10,3839,-6627,3192,0,-1,0
-130.27,27.56,-64.10,3837,-6627,3195,0,-1,0
-130.28,27.57,-64.10,3835,-6617,3201,0,-1,-1
-130.29,27.57,-64.10,3835,-6618,3202,0,-1,0
-130.29,27.57,-64.10,3841,-6620,3194,0,-1,0
-130.30,27.57,-64.10,3844,-6626,3200,0,-1,0
-130.30,27.57,-64.10,3851,-6628,3199,0,-1,-1
-130.29,27.58,-64.08,3851,-6618,3210,0,-1,-1
-130.29,27.59,-64.08,3849,-6613,3202,0,-1,0
-130.29,27.59,-64.08,3839,-6618,3196,0,-1,0
-130.29,27.59,-64.07,3839,-6620,3194,0,-1,0
-130.30,27.59,-64.07,3842,-6621,3203,0,-1,0
-130.30,27.59,-64.06,3845,-6622,3204,0,-1,0
-130.30,27.59,-64.05,3843,-6617,3198,0,-1,-1
-130.30,27.60,-64.05,3840,-6628,3195,0,-1,0
-130.30,27.60,-64.05,3838,-6624,3202,0,-1,0
-130.30,27.60,-64.05,3832,-6622,3203,0,-1,0
-130.31,27.60,-64.04,3841,-6622,3210,0,-1,0
-130.32,27.60,-64.05,3839,-6615,3204,0,-1,0
-130.33,27.61,-64.05,3838,-6617,3197,0,-1,0
-130.34,27.61,-64.05,3843,-6617,3196,0,-1,0
-130.34,27.61,-64.05,3849,-6619,3199,0,-1,0
-130.35,27.61,-64.05,3855,-6622,3193,0,-1,0
-130.36,27.61,-64.05,3842,-6615,3196,0,-1,0
-130.36,27.61,-64.05,3842,-6625,3193,0,-1,0
-130.37,27.61,-64.06,3840,-6619,3191,0,-1,0
-130.38,27.61,-64.05,3848,-6615,3195,0,-1,0
-130.39,27.61,-64.06,3848,-6614,3203,0,-1,0
-130.39,27.62,-64.06,3847,-6617,3189,0,-1,0
-130.40,27.62,-64.06,3844,-6610,3189,0,-1,0
-130.40,27.62,-64.06,3853,-6615,3200,0,-1,0
-130.40,27.62,-64.05,3846,-6608,3206,0,-1,0
-130.41,27.62,-64.07,3846,-6625,3191,0,-1,0
-130.41,27.62,-64.06,3842,-6612,3200,0,-1,-1
-130.41,27.63,-64.05,3846,-6613,3208,0,-1,0
-130.42,27.63,-64.04,3844,-6615,3211,0,-1,0
-130.42,27.63,-64.04,3849,-6610,3208,0,-1,0
-130.43,27.63,-64.04,3851,-6614,3204,0,-1,0
-130.43,27.63,-64.03,3852,-6612,3205,0,-1,0
-130.43,27.63,-64.04,3851,-6614,3196,0,-1,-1
-130.44,27.63,-64.04,3848,-6609,3204,0,-1,0
-130.44,27.63,-64.04,3851,-6613,3199,0,-1,-1
-130.44,27.63,-64.03,3848,-6615,3194,0,0,-1
-130.43,27.64,-64.03,3844,-6621,3198,0,0,-1
-130.43,27.63,-64.02,3843,-6617,3207,0,-1,0
-130.42,27.64,-64.01,3850,-6615,3206,0,-1,0
-130.43,27.64,-64.01,3850,-6607,3200,0,-1,0
-130.44,27.64,-64.01,3849,-6608,3202,0,-1,0
-130.43,27.64,-64.01,3847,-6615,3205,0,-1,0
-130.44,27.64,-64.01,3847,-6612,3189,0,-1,0
-130.45,27.64,-64.01,3843,-6611,3194,0,-1,0
-130.45,27.63,-64.00,3845,-6607,3208,0,-1,0
-130.47,27.62,-64.01,3838,-6612,3207,0,-1,0
-130.49,27.62,-64.01,3850,-6589,3225,0,-1,0
-130.50,27.61,-64.01,3867,-6599,3224,-1,0,0
-130.52,27.60,-64.03,3859,-6617,3189,-1,0,0
-130.52,27.59,-64.03,3854,-6599,3182,0,0,0
-130.52,27.59,-64.03,3863,-6595,3208,-1,-1,0
-130.52,27.60,-64.03,3866,-6613,3200,0,0,0
-130.52,27.59,-64.02,3837,-6620,3184,0,0,-1
-130.50,27.59,-64.00,3804,-6625,3182,0,0,-1
-130.48,27.59,-63.98,3801,-6620,3208,0,-1,-1
-130.49,27.59,-63.98,3830,-6611,3217,0,-1,0
-130.49,27.57,-63.97,3846,-6605,3232,0,-1,0
-130.50,27.57,-63.97,3842,-6603,3214,0,-1,0
-130.51,27.57,-63.97,3842,-6602,3214,0,-1,0
-130.52,27.57,-63.97,3843,-6604,3224,0,-1,0
-130.52,27.57,-63.97,3853,-6605,3225,0,0,0
-130.52,27.57,-63.97,3852,-6604,3219,-1,0,-1
-130.51,27.57,-63.97,3845,-6601,3219,-1,0,-1
-130.50,27.57,-63.97,3837,-6603,3209,-1,0,-1
-130.50,27.57,-63.98,3839,-6615,3215,-1,0,-1
-130.50,27.57,-63.98,3838,-6616,3203,-1,0,-1
-130.49,27.58,-63.98,3846,-6611,3207,-1,0,-1
-130.49,27.58,-63.99,3833,-6606,3213,-1,0,0
-130.50,27.58,-64.00,3836,-6620,3206,-1,0,0
-130.51,27.57,-64.00,3836,-6619,3192,-1,0,0
-130.51,27.57,-64.01,3828,-6610,3197,-1,-1,0
-130.52,27.57,-64.01,3853,-6610,3202,0,0,0
-130.52,27.57,-64.01,3847,-6610,3212,-1,0,-1
-130.51,27.57,-64.02,3840,-6625,3194,-1,0,-1
-130.51,27.57,-64.02,3825,-6613,3206,-1,0,-1
-130.50,27.56,-64.02,3836,-6614,3222,-1,0,-1
-130.51,27.56,-64.03,3832,-6615,3226,-1,0,-1
-130.50,27.56,-64.03,3833,-6612,3228,-1,0,-1
-130.51,27.56,-64.04,3844,-6606,3217,-1,0,0
-130.52,27.55,-64.06,3849,-6609,3219,-1,0,0
-130.52,27.55,-64.07,3853,-6609,3213,-1,0,-1
-130.51,27.55,-64.08,3861,-6611,3213,-1,0,-1
-130.49,27.56,-64.08,3854,-6623,3202,-1,0,-1
-130.46,27.56,-64.09,3839,-6634,3185,-1,1,-1
-130.45,27.56,-64.09,3829,-6637,3183,-1,0,-1
-130.42,27.56,-64.10,3837,-6641,3174,-1,1,-1
-130.39,27.56,-64.09,3833,-6628,3186,-1,0,-1
-130.38,27.56,-64.09,3841,-6640,3175,-1,0,-1
-130.37,27.55,-64.08,3834,-6631,3181,0,0,-1
-130.35,27.56,-64.07,3843,-6618,3215,-1,0,-1
-130.36,27.55,-64.08,3834,-6624,3198,0,0,-1
-130.35,27.55,-64.07,3830,-6623,3197,0,0,0
-130.35,27.54,-64.07,3825,-6612,3213,-1,0,0
-130.35,27.53,-64.08,3835,-6608,3217,-1,-1,0
-130.35,27.53,-64.08,3832,-6604,3223,-1,0,-1
-130.35,27.53,-64.08,3824,-6610,3216,-1,0,0
-130.35,27.53,-64.09,3819,-6614,3210,-1,0,-1
-130.36,27.53,-64.10,3818,-6620,3197,-1,0,0
-130.36,27.54,-64.11,3823,-6641,3185,0,-1,-1
-130.36,27.54,-64.11,3813,-6634,3196,-1,-1,-1
-130.38,27.53,-64.12,3812,-6628,3201,-1,-1,0
-130.39,27.53,-64.12,3824,-6626,3199,-1,-1,0
-130.40,27.54,-64.13,3826,-6620,3192,0,-1,0
-130.41,27.54,-64.13,3823,-6623,3189,0,-1,0
-130.42,27.55,-64.14,3825,-6621,3188,0,-1,0
-130.43,27.56,-64.14,3819,-6630,3197,0,-1,0
-130.45,27.55,-64.14,3821,-6625,3199,0,-1,0
-130.47,27.57,-64.15,3846,-6617,3211,0,-1,0
-130.48,27.58,-64.15,3850,-6620,3199,0,-1,0
-130.48,27.58,-64.15,3854,-6622,3187,0,-1,0
-130.50,27.59,-64.15,3851,-6619,3198,0,-1,0
-130.51,27.59,-64.16,3839,-6621,3205,0,-1,0
-130.53,27.59,-64.18,3844,-6632,3188,0,-1,0
-130.54,27.60,-64.17,3842,-6628,3172,0,-1,0
-130.54,27.60,-64.17,3844,-6622,3190,0,-1,0
-130.54,27.60,-64.17,3845,-6611,3192,0,-1,0
-130.55,27.61,-64.18,3843,-6617,3172,0,-1,0
-130.57,27.61,-64.18,3842,-6619,3175,0,-1,0
-130.57,27.61,-64.18,3838,-6622,3171,0,-1,0
-130.59,27.61,-64.18,3840,-6628,3178,0,-1,0
-130.60,27.61,-64.18,3842,-6629,3178,0,-1,0
-130.60,27.61,-64.18,3837,-6623,3187,0,-1,0
-130.61,27.61,-64.18,3841,-6620,3200,0,-1,0
-130.62,27.62,-64.18,3848,-6620,3194,0,-1,0
-130.61,27.62,-64.18,3850,-6616,3188,0,-1,0
-130.62,27.62,-64.17,3853,-6625,3191,0,-1,0
-130.62,27.62,-64.17,3846,-6625,3185,0,-1,0
-130.62,27.62,-64.17,3845,-6624,3177,0,-1,-1
-130.62,27.63,-64.16,3833,-6619,3181,0,-1,0
-130.62,27.63,-64.15,3838,-6614,3190,0,-1,0
-130.62,27.63,-64.15,3855,-6622,3195,0,-1,-1
-130.61,27.63,-64.14,3850,-6611,3199,0,-1,0
-130.62,27.62,-64.14,3851,-6626,3186,0,-1,0
-130.62,27.63,-64.13,3842,-6615,3182,0,-1,-1
-130.62,27.63,-64.12,3836,-6614,3193,0,-1,0
-130.62,27.64,-64.12,3850,-6613,3203,0,-1,0
-130.62,27.64,-64.12,3850,-6612,3201,0,-1,0
-130.62,27.63,-64.11,3850,-6614,3202,0,-1,0
-130.62,27.63,-64.11,3839,-6619,3198,0,-1,0
-130.63,27.63,-64.11,3851,-6619,3195,0,-1,-1
-130.62,27.64,-64.09,3857,-6613,3197,0,-1,0
-130.63,27.64,-64.09,3857,-6617,3198,0,-1,0
-130.62,27.64,-64.08,3853,-6608,3199,0,-1,0
-130.63,27.65,-64.09,3854,-6610,3200,0,-1,0
-130.64,27.64,-64.08,3851,-6615,3194,0,-1,0
-130.64,27.64,-64.08,3852,-6614,3190,0,-1,0
-130.65,27.65,-64.08,3853,-6611,3182,0,-1,0
-130.65,27.65,-64.08,3849,-6616,3189,0,-1,0
-130.66,27.64,-64.08,3850,-6614,3188,0,-1,0
-130.66,27.64,-64.07,3856,-6606,3196,0,-1,0
-130.68,27.64,-64.08,3847,-6618,3200,0,-1,0
-130.68,27.64,-64.08,3850,-6616,3198,0,-1,0
-130.69,27.63,-64.08,3859,-6606,3216,-1,-1,0
-130.70,27.63,-64.09,3862,-6618,3207,0,-1,0
-130.70,27.63,-64.08,3849,-6608,3204,0,0,-1
-130.70,27.63,-64.08,3849,-6610,3197,0,0,-1
-130.69,27.64,-64.08,3857,-6611,3196,0,-1,0
-130.69,27.64,-64.07,3862,-6617,3201,0,0,0
-130.69,27.63,-64.06,3854,-6620,3199,0,0,0
-130.69,27.63,-64.05,3834,-6612,3203,0,-1,0
-130.70,27.62,-64.05,3839,-6613,3200,0,-1,0
-130.69,27.62,-64.04,3842,-6613,3215,0,-1,0
-130.70,27.62,-64.04,3845,-6619,3211,0,-1,0
-130.70,27.62,-64.04,3841,-6615,3209,0,0,0
-130.69,27.62,-64.02,3848,-6605,3214,0,0,0
-130.70,27.61,-64.02,3848,-6605,3225,-1,0,0
-130.70,27.61,-64.02,3847,-6607,3214,-1,0,0
-130.70,27.61,-64.03,3848,-6616,3195,-1,0,-1
-130.69,27.61,-64.02,3844,-6614,3208,0,0,-1
-130.69,27.61,-64.02,3844,-6622,3206,0,0,-1
-130.69,27.60,-64.02,3837,-6613,3209,0,-1,0
-130.69,27.60,-64.02,3838,-6610,3206,0,0,0
-130.70,27.60,-64.02,3834,-6607,3208,-1,-1,0
-130.71,27.60,-64.03,3838,-6606,3204,-1,-1,0
-130.72,27.59,-64.04,3843,-6613,3216,-1,-1,0
-130.73,27.59,-64.06,3852,-6616,3211,-1,0,0
-130.72,27.60,-64.06,3855,-6619,3211,-1,0,-1
-130.73,27.60,-64.07,3843,-6617,3201,-1,0,-1
-130.73,27.59,-64.07,3832,-6616,3196,-1,0,-1
-130.73,27.59,-64.08,3840,-6618,3199,-1,0,-1
-130.72,27.59,-64.08,3838,-6619,3201,-1,0,-1
-130.73,27.59,-64.09,3833,-6624,3197,-1,0,0
-130.73,27.59,-64.10,3844,-6618,3187,-1,0,0
-130.73,27.58,-64.10,3839,-6619,3188,-1,0,0
-130.75,27.58,-64.12,3834,-6626,3183,-1,0,0
-130.76,27.58,-64.13,3838,-6612,3192,-1,0,0
-130.76,27.58,-64.14,3841,-6618,3199,-1,0,-1
-130.76,27.58,-64.15,3843,-6626,3191,-1,0,-1
-130.76,27.58,-64.16,3840,-6624,3191,-1,0,0
-130.77,27.57,-64.17,3838,-6623,3194,-1,0,-1
-130.77,27.57,-64.18,3839,-6621,3199,-1,0,-1
-130.77,27.57,-64.19,3837,-6629,3194,-1,0,-1
-130.76,27.57,-64.19,3834,-6633,3196,-1,0,-1
-130.76,27.56,-64.20,3831,-6625,3182,-1,0,-1
-130.77,27.56,-64.21,3836,-6629,3193,-1,-1,0
-130.78,27.56,-64.22,3834,-6627,3196,-1,0,0
-130.79,27.55,-64.24,3841,-6636,3187,-1,0,-1
-130.79,27.55,-64.25,3848,-6633,3186,-1,0,0
-130.79,27.55,-64.26,3838,-6630,3195,-1,-1,0
-130.80,27.55,-64.27,3842,-6630,3190,-1,0,0
-130.81,27.55,-64.29,3834,-6630,3188,-1,-1,0
-130.82,27.54,-64.30,3829,-6631,3184,-1,0,0
-130.82,27.54,-64.31,3830,-6629,3197,-1,0,0
-130.83,27.54,-64.33,3836,-6641,3186,-1,0,-1
-130.85,27.54,-64.35,3840,-6643,3175,-1,0,0
-130.86,27.53,-64.37,3836,-6644,3168,-1,0,0
-130.87,27.54,-64.39,3838,-6639,3162,-1,0,0
-130.88,27.53,-64.40,3836,-6641,3167,-1,-1,0
-130.90,27.53,-64.42,3830,-6647,3160,-1,-1,0
-130.90,27.53,-64.43,3834,-6644,3148,-1,-1,-1
-130.90,27.54,-64.44,3832,-6645,3143,-1,-1,-1
-130.91,27.54,-64.45,3834,-6645,3137,-1,-1,-1
-130.92,27.54,-64.45,3825,-6649,3139,-1,-1,-1
-130.92,27.54,-64.46,3825,-6652,3141,0,-1,-1
-130.93,27.54,-64.46,3824,-6651,3146,0,-1,0
-130.93,27.54,-64.47,3833,-6648,3147,0,-1,0
-130.95,27.54,-64.47,3836,-6635,3152,0,-1,0
-130.95,27.55,-64.46,3858,-6650,3137,0,-1,-1
-130.93,27.56,-64.45,3856,-6640,3146,0,-1,-1
-130.92,27.57,-64.43,3845,-6649,3155,0,-1,-1
-130.92,27.57,-64.43,3838,-6643,3146,0,-1,-1
-130.92,27.57,-64.42,3828,-6645,3152,0,-1,0
-130.92,27.57,-64.41,3821,-6646,3148,0,-1,-1
-130.93,27.57,-64.41,3828,-6643,3144,0,-1,-1
-130.92,27.58,-64.39,3833,-6640,3147,0,-1,-1
-130.90,27.59,-64.38,3852,-6635,3163,0,-1,-1
-130.90,27.60,-64.37,3853,-6633,3167,0,-1,-1
-130.89,27.61,-64.35,3856,-6637,3168,0,-1,-1
-130.89,27.60,-64.34,3849,-6640,3166,0,-1,0
-130.89,27.60,-64.34,3837,-6636,3158,0,-1,0
-130.89,27.61,-64.33,3850,-6631,3157,0,-1,0
-130.88,27.61,-64.32,3846,-6631,3164,0,-1,0
-130.88,27.61,-64.30,3846,-6622,3176,0,-1,0
-130.89,27.61,-64.30,3853,-6626,3175,0,-1,0
-130.90,27.62,-64.30,3845,-6620,3180,0,-1,0
-130.90,27.62,-64.29,3838,-6622,3181,0,-1,0
-130.91,27.62,-64.29,3846,-6626,3186,0,-1,0
-130.92,27.62,-64.29,3846,-6625,3179,0,-1,0
-130.93,27.62,-64.29,3850,-6625,3179,0,-1,0
-130.94,27.62,-64.29,3861,-6639,3169,0,-1,0
-130.94,27.62,-64.29,3857,-6625,3173,0,-1,-1
-130.94,27.63,-64.28,3855,-6638,3173,0,-1,0
-130.95,27.63,-64.29,3849,-6639,3173,0,-1,0
-130.95,27.64,-64.28,3842,-6637,3176,0,-1,0
-130.95,27.64,-64.28,3836,-6626,3178,0,-1,0
-130.97,27.63,-64.28,3842,-6635,3181,0,-1,0
-130.97,27.63,-64.28,3849,-6631,3175,0,-1,0
-130.97,27.63,-64.28,3848,-6630,3177,0,-1,0
-130.98,27.63,-64.27,3851,-6625,3174,0,-1,-1
-130.98,27.63,-64.27,3855,-6625,3175,0,-1,-1
-130.97,27.64,-64.26,3852,-6627,3179,0,-1,0
-130.97,27.63,-64.25,3848,-6620,3187,0,-1,-1
-130.96,27.64,-64.25,3853,-6624,3181,0,0,0
-130.96,27.63,-64.24,3849,-6628,3182,0,0,-1
-130.96,27.63,-64.23,3847,-6633,3173,0,0,-1
-130.95,27.63,-64.22,3844,-6632,3173,0,0,-1
-130.95,27.63,-64.21,3843,-6621,3184,0,-1,0
-130.95,27.63,-64.20,3849,-6628,3191,0,-1,0
-130.94,27.63,-64.20,3846,-6628,3190,0,0,0
-130.94,27.63,-64.18,3849,-6621,3187,0,0,0
-130.93,27.63,-64.17,3850,-6616,3194,0,-1,0
-130.94,27.63,-64.17,3850,-6614,3196,0,-1,0
-130.94,27.62,-64.16,3858,-6618,3207,0,0,0
-130.94,27.62,-64.16,3860,-6621,3195,-1,-1,0
-130.94,27.62,-64.16,3864,-6622,3185,0,0,0
-130.94,27.62,-64.16,3855,-6614,3184,0,0,-1
-130.94,27.62,-64.16,3855,-6615,3194,0,-1,0
-130.93,27.62,-64.16,3849,-6616,3197,0,-1,0
-130.95,27.61,-64.16,3845,-6624,3195,-1,0,0
-130.96,27.60,-64.17,3836,-6619,3187,-1,-1,0
-130.97,27.60,-64.18,3846,-6622,3189,-1,-1,0
-130.97,27.60,-64.18,3853,-6628,3184,-1,0,0
-130.99,27.60,-64.20,3850,-6633,3181,-1,0,0
-130.99,27.59,-64.20,3839,-6635,3170,-1,0,0
-131.00,27.59,-64.21,3830,-6635,3170,0,-1,0
-131.00,27.58,-64.20,3829,-6630,3184,0,-1,0
-131.01,27.58,-64.21,3840,-6633,3191,-1,-1,0
-131.01,27.58,-64.21,3852,-6625,3192,-1,0,0
-131.01,27.58,-64.22,3854,-6621,3187,-1,0,-1
-131.00,27.57,-64.21,3846,-6624,3187,0,0,-1
-131.00,27.57,-64.21,3832,-6627,3187,0,0,-1
-131.00,27.57,-64.21,3833,-6632,3171,0,0,-1
-131.00,27.57,-64.21,3822,-6627,3166,0,0,-1
-130.99,27.57,-64.21,3842,-6624,3184,0,0,-1
-130.99,27.57,-64.21,3845,-6624,3186,-1,0,0
-131.00,27.56,-64.22,3837,-6628,3187,-1,-1,0
-131.00,27.57,-64.23,3841,-6636,3173,0,0,-1
-131.00,27.56,-64.23,3835,-6627,3199,-1,-1,-1
-131.01,27.57,-64.23,3851,-6628,3194,-1,-1,0
-131.01,27.57,-64.24,3855,-6627,3203,-1,0,-1
-131.00,27.57,-64.24,3855,-6625,3194,-1,0,-1
-131.00,27.57,-64.24,3844,-6627,3187,-1,0,-1
-131.00,27.57,-64.26,3836,-6634,3177,-1,0,-1
-131.00,27.57,-64.27,3833,-6640,3169,-1,0,-1
-131.00,27.56,-64.27,3837,-6639,3177,-1,0,-1
-130.99,27.56,-64.27,3839,-6633,3191,-1,0,-1
-130.99,27.57,-64.27,3843,-6638,3188,-1,0,-1
-130.99,27.56,-64.28,3843,-6640,3176,-1,0,-1
-130.98,27.57,-64.28,3848,-6632,3175,-1,0,-1
-130.98,27.56,-64.28,3840,-6626,3177,-1,0,-1
-130.97,27.56,-64.28,3837,-6633,3167,-1,0,-1
-130.97,27.56,-64.29,3840,-6630,3175,-1,0,-1
-130.97,27.56,-64.30,3840,-6628,3183,-1,0,-1
-130.95,27.56,-64.30,3851,-6631,3187,-1,0,-1
-130.95,27.56,-64.31,3842,-6634,3180,-1,0,-1
-130.95,27.56,-64.31,3848,-6633,3175,-1,0,-1
-130.95,27.56,-64.32,3837,-6632,3175,-1,0,-1
-130.96,27.55,-64.34,3839,-6641,3175,-1,0,-1
-130.95,27.55,-64.35,3842,-6629,3183,-1,0,-1
-130.94,27.56,-64.35,3841,-6629,3189,-1,0,-1
-130.95,27.55,-64.37,3837,-6636,3180,-1,0,0
-130.95,27.54,-64.38,3835,-6633,3180,-1,0,-1
-130.95,27.54,-64.40,3837,-6638,3167,-1,0,-1
-130.95,27.54,-64.41,3838,-6640,3163,-1,0,-1
-130.96,27.54,-64.42,3838,-6644,3166,-1,0,-1
-130.97,27.53,-64.44,3842,-6647,3160,-1,0,-1
-130.97,27.53,-64.45,3836,-6648,3159,-1,0,-1
-130.98,27.53,-64.47,3833,-6644,3154,-1,0,-1
-130.99,27.53,-64.49,3833,-6649,3154,-1,-1,-1
-130.99,27.53,-64.50,3838,-6648,3151,-1,0,0
-130.99,27.53,-64.51,3835,-6642,3148,-1,0,-1
-130.99,27.53,-64.51,3830,-6647,3155,-1,0,-1
-131.00,27.52,-64.52,3827,-6644,3150,-1,0,-1
-130.99,27.53,-64.52,3827,-6645,3146,-1,0,-1
-130.99,27.53,-64.52,3827,-6653,3140,0,0,-1
-130.99,27.53,-64.53,3825,-6654,3148,-1,-1,-1
-130.99,27.53,-64.53,3838,-6651,3149,0,0,0
-130.99,27.53,-64.52,3838,-6648,3161,-1,-1,-1
-131.00,27.53,-64.53,3840,-6654,3152,0,-1,-1
-130.99,27.54,-64.51,3831,-6638,3156,0,-1,-1
-131.00,27.54,-64.52,3830,-6648,3157,0,-1,0
-131.00,27.54,-64.51,3831,-6644,3146,0,-1,0
-131.01,27.54,-64.52,3833,-6647,3131,0,-1,-1
-131.00,27.55,-64.51,3839,-6637,3137,0,-1,0
-131.00,27.56,-64.50,3851,-6632,3134,0,-1,0
-131.00,27.56,-64.49,3842,-6630,3148,0,-1,0
-131.00,27.56,-64.49,3846,-6633,3148,0,-1,0
-131.02,27.56,-64.49,3845,-6638,3159,0,-1,0
-131.01,27.56,-64.49,3846,-6639,3157,0,-1,0
-131.02,27.57,-64.49,3842,-6643,3156,0,-1,-1
-131.01,27.57,-64.48,3842,-6639,3169,0,-1,0
-131.02,27.57,-64.47,3836,-6639,3158,0,-1,0
-131.02,27.57,-64.47,3836,-6643,3164,0,-1,0
-131.02,27.57,-64.47,3844,-6642,3155,0,-1,0
-131.02,27.57,-64.46,3845,-6643,3166,0,-1,0
-131.03,27.57,-64.46,3838,-6635,3157,0,-1,0
-131.03,27.58,-64.45,3843,-6633,3170,0,-1,0
-131.03,27.58,-64.45,3848,-6634,3163,0,-1,0
-131.03,27.58,-64.44,3853,-6640,3158,0,-1,0
-131.03,27.58,-64.44,3849,-6640,3157,0,-1,-1
-131.03,27.58,-64.43,3846,-6630,3175,0,-1,-1
-131.02,27.59,-64.42,3845,-6633,3169,0,-1,0
-131.03,27.59,-64.42,3851,-6643,3160,0,-1,-1
-131.03,27.59,-64.42,3848,-6636,3165,0,-1,0
-131.02,27.60,-64.41,3844,-6627,3164,0,-1,0
-131.02,27.59,-64.41,3839,-6626,3171,0,-1,-1
-131.02,27.60,-64.40,3836,-6636,3167,0,-1,0
-131.02,27.60,-64.40,3837,-6636,3164,0,-1,0
-131.02,27.60,-64.40,3836,-6633,3167,0,-1,0
-131.02,27.60,-64.40,3842,-6633,3173,0,-1,-1
-131.02,27.60,-64.40,3846,-6633,3174,0,-1,-1
-131.03,27.61,-64.40,3844,-6630,3176,0,-1,0
-131.02,27.60,-64.40,3846,-6634,3163,0,-1,0
-131.03,27.61,-64.40,3850,-6634,3171,0,-1,0
-131.03,27.61,-64.40,3845,-6631,3170,0,-1,0
-131.04,27.60,-64.40,3846,-6627,3172,0,-1,-1
-131.04,27.61,-64.40,3839,-6628,3163,0,-1,-1
-131.04,27.61,-64.40,3846,-6636,3168,0,-1,-1
-131.03,27.61,-64.39,3848,-6636,3174,0,0,0
-131.03,27.61,-64.39,3848,-6637,3168,-1,-1,0
-131.04,27.60,-64.39,3849,-6642,3165,0,-1,0
-131.04,27.61,-64.38,3845,-6639,3166,0,-1,-1
-131.03,27.61,-64.38,3848,-6643,3175,0,0,-1
-131.03,27.61,-64.37,3837,-6633,3171,0,-1,0
-131.03,27.61,-64.37,3841,-6634,3176,0,-1,0
-131.04,27.60,-64.37,3838,-6633,3177,0,-1,0
-131.04,27.61,-64.36,3846,-6629,3175,0,0,-1
-131.02,27.61,-64.36,3844,-6631,3174,0,0,0
-131.02,27.61,-64.36,3851,-6632,3170,0,0,-1
-131.02,27.61,-64.36,3847,-6630,3156,0,-1,0
-131.02,27.61,-64.35,3841,-6631,3171,0,-1,0
-131.03,27.61,-64.35,3854,-6631,3159,0,-1,0
-131.02,27.61,-64.34,3851,-6627,3172,0,-1,0
-131.02,27.61,-64.34,3860,-6630,3168,0,0,0
-131.02,27.61,-64.35,3850,-6626,3157,0,0,0
-131.02,27.61,-64.34,3849,-6623,3154,0,0,0
-131.02,27.61,-64.34,3856,-6629,3151,0,0,-1
-131.02,27.61,-64.34,3846,-6618,3156,0,0,0
-131.03,27.60,-64.35,3846,-6628,3157,0,-1,0
-131.03,27.61,-64.34,3851,-6628,3166,0,-1,0
-131.03,27.60,-64.33,3849,-6624,3163,0,0,0
-131.04,27.59,-64.34,3840,-6624,3166,-1,-1,0
-131.05,27.59,-64.35,3841,-6640,3156,0,-1,0
-131.04,27.60,-64.34,3847,-6632,3178,0,-1,-1
-131.04,27.59,-64.34,3849,-6634,3189,0,0,0
-131.05,27.59,-64.34,3846,-6635,3191,-1,0,0
-131.06,27.58,-64.35,3846,-6638,3172,-1,0,0
-131.06,27.58,-64.35,3837,-6629,3176,-1,0,0
-131.08,27.57,-64.37,3846,-6636,3165,-1,0,0
-131.08,27.57,-64.37,3845,-6638,3167,-1,0,0
-131.08,27.57,-64.37,3847,-6639,3158,-1,-1,0
-131.09,27.57,-64.39,3839,-6638,3163,-1,0,-1
-131.09,27.57,-64.38,3842,-6625,3176,-1,0,-1
-131.09,27.57,-64.40,3852,-6629,3183,-1,0,0
-131.09,27.57,-64.40,3844,-6629,3175,-1,0,-1
-131.08,27.57,-64.39,3834,-6631,3165,0,0,-1
-131.07,27.57,-64.38,3837,-6623,3180,0,0,-1
-131.07,27.57,-64.38,3841,-6628,3179,-1,0,-1
-131.06,27.57,-64.38,3837,-6636,3169,-1,0,-1
-131.06,27.57,-64.38,3835,-6636,3166,0,0,-1
-131.05,27.57,-64.37,3835,-6629,3176,-1,0,0
-131.06,27.56,-64.38,3840,-6630,3171,-1,-1,0
-131.06,27.56,-64.38,3842,-6626,3167,-1,0,0
-131.07,27.56,-64.39,3844,-6630,3176,0,0,0
-131.07,27.56,-64.39,3844,-6627,3180,-1,0,-1
-131.07,27.56,-64.40,3850,-6632,3172,0,0,-1
-131.07,27.56,-64.40,3839,-6627,3183,-1,0,-1
-131.07,27.55,-64.41,3828,-6641,3171,-1,0,0
-131.08,27.55,-64.42,3827,-6641,3168,-1,0,-1
-131.07,27.55,-64.42,3830,-6640,3164,-1,0,-1
-131.07,27.54,-64.42,3832,-6632,3168,-1,0,-1
-131.07,27.54,-64.44,3836,-6633,3153,-1,0,-1
-131.06,27.54,-64.45,3838,-6642,3153,-1,0,-1
-131.05,27.55,-64.45,3846,-6646,3146,-1,0,-1
-131.05,27.54,-64.45,3837,-6638,3157,-1,0,-1
-131.03,27.55,-64.45,3847,-6643,3167,-1,0,-1
-131.02,27.55,-64.44,3838,-6646,3175,-1,0,-1
-131.01,27.54,-64.44,3832,-6639,3170,-1,0,-1
-131.02,27.54,-64.46,3835,-6643,3166,-1,0,-1
-131.00,27.54,-64.45,3834,-6637,3171,-1,0,-1
-130.99,27.54,-64.45,3834,-6639,3175,-1,0,-1
-130.99,27.54,-64.46,3832,-6643,3165,-1,0,-1
-130.98,27.54,-64.47,3835,-6643,3163,-1,0,-1
-130.98,27.54,-64.48,3834,-6636,3158,-1,0,0
-130.98,27.54,-64.50,3835,-6633,3152,-1,0,-1
-130.98,27.53,-64.51,3835,-6632,3173,-1,0,0
-130.99,27.53,-64.52,3837,-6650,3160,-1,0,-1
-130.99,27.53,-64.53,3834,-6643,3157,-1,0,-1
-130.99,27.54,-64.55,3837,-6646,3159,-1,0,-1
-131.00,27.53,-64.56,3839,-6648,3152,-1,0,0
-131.00,27.53,-64.58,3846,-6648,3149,-1,0,-1
-131.00,27.53,-64.60,3846,-6647,3139,-1,0,-1
-131.02,27.53,-64.62,3840,-6646,3136,-1,0,-1
-131.01,27.53,-64.63,3848,-6657,3141,-1,0,-1
-131.01,27.53,-64.63,3844,-6655,3142,-1,0,-1
-131.02,27.53,-64.65,3836,-6657,3131,-1,0,-1
-131.01,27.53,-64.66,3828,-6652,3134,-1,0,-1
-131.01,27.53,-64.66,3822,-6664,3128,-1,0,-1
-131.01,27.53,-64.66,3828,-6662,3128,0,-1,0
-131.03,27.53,-64.67,3839,-6655,3132,-1,-1,0
-131.04,27.53,-64.67,3833,-6660,3135,-1,-1,0
-131.06,27.53,-64.69,3835,-6656,3126,-1,-1,0
-131.05,27.53,-64.69,3833,-6656,3132,0,-1,0
-131.06,27.53,-64.69,3836,-6655,3127,0,-1,0
-131.07,27.53,-64.69,3832,-6653,3123,0,-1,0
-131.06,27.54,-64.69,3842,-6660,3122,0,-1,-1
-131.07,27.54,-64.68,3838,-6657,3133,0,-1,0
-131.07,27.54,-64.68,3839,-6666,3121,0,-1,-1
-131.07,27.55,-64.68,3846,-6656,3120,0,-1,-1
-131.06,27.55,-64.67,3842,-6655,3131,0,-1,-1
-131.06,27.55,-64.66,3843,-6660,3142,0,-1,0
-131.07,27.56,-64.66,3845,-6652,3138,0,-1,0
-131.06,27.56,-64.65,3849,-6654,3121,0,0,-1
-131.05,27.56,-64.64,3840,-6663,3115,0,0,-1
-131.03,27.57,-64.62,3834,-6653,3127,0,0,-1
-131.01,27.57,-64.61,3837,-6650,3129,0,0,-1
-131.01,27.57,-64.61,3839,-6656,3116,0,-1,-1
-130.99,27.58,-64.59,3834,-6647,3123,0,-1,-1
-130.98,27.58,-64.57,3836,-6649,3141,0,-1,0
-130.98,27.58,-64.55,3839,-6639,3156,0,-1,0
-130.98,27.58,-64.54,3835,-6639,3164,0,-1,0
-130.98,27.58,-64.53,3840,-6639,3171,0,-1,0
-130.98,27.58,-64.53,3844,-6638,3166,0,-1,0
-130.98,27.58,-64.53,3856,-6637,3161,0,-1,0
-130.98,27.59,-64.52,3845,-6629,3159,0,-1,0
-130.98,27.60,-64.52,3843,-6635,3159,0,-1,0
-130.99,27.60,-64.53,3851,-6631,3164,0,-1,0
-131.00,27.60,-64.53,3849,-6640,3154,0,-1,0
-131.01,27.60,-64.54,3841,-6649,3153,-1,-1,0
-131.02,27.61,-64.55,3844,-6650,3137,0,-1,-1
-131.02,27.61,-64.55,3840,-6637,3150,0,-1,0
-131.02,27.61,-64.55,3847,-6646,3145,0,-1,0
-131.04,27.61,-64.55,3855,-6647,3140,0,-1,0
-131.04,27.61,-64.56,3847,-6649,3140,0,-1,0
-131.06,27.61,-64.56,3841,-6644,3136,0,-1,0
-131.05,27.61,-64.56,3848,-6646,3143,0,-1,0
-131.06,27.61,-64.56,3844,-6647,3145,0,-1,0
-131.06,27.61,-64.55,3854,-6649,3146,0,-1,-1
-131.05,27.61,-64.54,3845,-6649,3141,0,-1,-1
-131.05,27.61,-64.54,3843,-6645,3146,0,-1,-1
-131.04,27.61,-64.52,3841,-6641,3154,0,-1,0
-131.04,27.61,-64.52,3848,-6641,3152,0,-1,0
-131.03,27.61,-64.50,3856,-6642,3159,0,0,-1
-131.02,27.61,-64.49,3851,-6641,3155,0,0,0
-131.01,27.60,-64.48,3846,-6643,3158,0,0,-1
-131.01,27.60,-64.47,3858,-6642,3152,0,0,0
-131.01,27.59,-64.47,3865,-6647,3135,0,0,0
-130.98,27.58,-64.43,3876,-6631,3167,1,0,0
-130.97,27.57,-64.41,3840,-6634,3170,-1,0,-1
-130.93,27.57,-64.39,3878,-6662,3148,0,2,-1
-130.84,27.56,-64.32,3857,-6637,3184,0,3,-1
-130.79,27.53,-64.27,3806,-6624,3187,0,1,-1
-130.72,27.53,-64.23,3847,-6624,3233,-1,2,-1
-130.66,27.52,-64.20,3865,-6621,3203,-1,3,-1
-130.57,27.49,-64.14,3820,-6607,3197,0,3,-2
-130.50,27.48,-64.10,3840,-6614,3216,-1,3,-1
-130.43,27.46,-64.08,3819,-6606,3219,-2,2,-2
-130.38,27.46,-64.07,3843,-6668,3154,-1,3,-2
-130.29,27.45,-64.02,3818,-6637,3180,0,2,-2
-130.22,27.45,-63.98,3800,-6640,3192,0,2,-2
-130.12,27.47,-63.93,3820,-6638,3171,0,2,-3
-130.00,27.49,-63.85,3843,-6661,3161,1,3,-2
-129.88,27.50,-63.77,3827,-6646,3152,2,2,-2
-129.77,27.51,-63.67,3799,-6612,3234,1,2,-2
-129.69,27.53,-63.62,3832,-6616,3247,1,1,-2
-129.61,27.53,-63.57,3807,-6599,3229,0,1,-2
-129.52,27.56,-63.49,3829,-6607,3218,2,1,-2
-129.41,27.58,-63.40,3836,-6589,3247,2,1,-2
-129.35,27.58,-63.31,3792,-6554,3316,1,0,-1
-129.30,27.60,-63.27,3813,-6553,3319,0,0,-1
-129.27,27.61,-63.24,3790,-6563,3308,0,-1,-1
-129.24,27.63,-63.20,3821,-6547,3330,1,0,-1
-129.22,27.63,-63.16,3846,-6534,3357,0,-1,-1
-129.20,27.64,-63.15,3871,-6521,3377,-1,0,-1
-129.18,27.64,-63.15,3844,-6512,3391,-1,0,0
-129.21,27.64,-63.18,3841,-6505,3413,-2,-1,0
-129.25,27.64,-63.24,3850,-6520,3395,-3,-1,0
-129.28,27.65,-63.29,3822,-6532,3344,-2,0,-1
-129.31,27.65,-63.34,3827,-6532,3345,-2,-2,0
-129.37,27.65,-63.41,3852,-6542,3348,-3,-1,0
-129.44,27.66,-63.51,3882,-6562,3293,-3,-1,0
-129.52,27.64,-63.61,3851,-6549,3288,-4,-2,1
-129.62,27.64,-63.73,3840,-6547,3292,-4,-3,1
-129.73,27.65,-63.86,3888,-6576,3268,-5,-2,0
-129.80,27.66,-63.98,3884,-6587,3218,-4,-1,0
-129.85,27.67,-64.07,3859,-6608,3207,-3,-1,0
-129.93,27.67,-64.18,3840,-6630,3192,-3,-2,0
-130.01,27.68,-64.28,3831,-6609,3202,-4,-2,0
-130.09,27.69,-64.39,3851,-6625,3185,-4,-2,0
-130.16,27.70,-64.49,3870,-6633,3165,-4,-1,0
-130.23,27.70,-64.59,3863,-6658,3129,-3,-1,-1
-130.27,27.72,-64.68,3892,-6658,3097,-3,-1,-1
-130.28,27.73,-64.73,3895,-6678,3092,-3,0,-1
-130.29,27.74,-64.78,3895,-6699,3043,-2,0,-1
-130.28,27.75,-64.80,3901,-6690,3053,-2,1,-1
-130.25,27.76,-64.81,3893,-6702,3060,-1,1,-1
-130.22,27.75,-64.79,3870,-6685,3075,0,1,-1
-130.19,27.75,-64.78,3878,-6673,3086,0,0,-1
-130.16,27.74,-64.76,3836,-6678,3072,0,1,-1
-130.14,27.73,-64.73,3830,-6667,3075,1,0,-1
-130.09,27.74,-64.69,3839,-6657,3101,0,1,-1
-130.05,27.74,-64.66,3852,-6657,3123,0,1,-1
-130.01,27.73,-64.62,3848,-6645,3118,0,1,-1
-129.96,27.74,-64.58,3835,-6633,3137,0,0,-1
-129.92,27.75,-64.55,3849,-6637,3132,0,0,-1
-129.89,27.75,-64.52,3843,-6625,3156,0,0,-1
-129.88,27.76,-64.51,3836,-6619,3146,0,-1,-1
-129.87,27.78,-64.50,3860,-6626,3153,0,-1,-1
-129.85,27.79,-64.48,3867,-6640,3139,1,-1,-1
-129.81,27.81,-64.43,3860,-6635,3146,1,-1,-1
-129.79,27.83,-64.40,3854,-6615,3161,1,-1,-1
-129.80,27.83,-64.39,3855,-6601,3179,0,-2,0
-129.82,27.84,-64.39,3859,-6608,3177,0,-2,0
-129.82,27.86,-64.39,3876,-6606,3169,0,-2,0
-129.84,27.87,-64.38,3874,-6593,3193,0,-2,-1
-129.85,27.89,-64.39,3885,-6601,3188,0,-2,0
-129.88,27.90,-64.39,3875,-6588,3196,-1,-2,0
-129.90,27.91,-64.42,3887,-6598,3183,-1,-2,0
-129.92,27.93,-64.44,3891,-6605,3179,0,-2,0
-129.95,27.94,-64.45,3889,-6614,3168,-1,-1,-1
-129.97,27.95,-64.47,3892,-6604,3159,-1,-1,0
-129.99,27.96,-64.50,3896,-6614,3167,-1,-1,0
-130.02,27.96,-64.52,3889,-6619,3149,-1,-1,0
-130.04,27.97,-64.54,3888,-6623,3152,-1,-1,0
-130.07,27.97,-64.56,3894,-6632,3134,-1,-1,0
-130.09,27.98,-64.58,3890,-6626,3125,0,-1,0
-130.11,27.99,-64.59,3886,-6619,3128,0,-1,-1
-130.12,28.00,-64.60,3900,-6622,3136,-1,-1,0
-130.14,28.01,-64.61,3901,-6632,3129,0,-1,0
-130.15,28.01,-64.62,3902,-6633,3125,0,-1,-1
-130.15,28.02,-64.62,3893,-6629,3119,0,-1,-1
-130.15,28.03,-64.61,3901,-6635,3120,0,-1,-1
-130.14,28.03,-64.60,3912,-6622,3129,0,-1,0
-130.15,28.04,-64.60,3901,-6623,3128,-1,-1,0
-130.17,28.04,-64.61,3902,-6635,3109,0,-1,-1
-130.15,28.05,-64.58,3907,-6614,3130,0,-1,-1
-130.15,28.05,-64.58,3912,-6622,3131,0,-1,0
-130.15,28.06,-64.56,3916,-6620,3130,0,-1,0
-130.14,28.07,-64.56,3914,-6619,3138,0,-1,-1
-130.15,28.07,-64.54,3904,-6611,3152,0,-1,-1
-130.14,28.07,-64.53,3901,-6609,3143,0,-1,-1
-130.14,28.08,-64.53,3907,-6607,3147,0,-1,-1
-130.13,28.09,-64.53,3917,-6612,3150,0,-1,-1
-130.12,28.10,-64.51,3915,-6599,3160,0,-1,-1
-130.11,28.10,-64.51,3914,-6602,3158,-1,-1,-1
-130.11,28.11,-64.51,3920,-6608,3148,0,-1,-1
-130.12,28.11,-64.51,3913,-6605,3139,0,-1,-1
-130.12,28.11,-64.51,3908,-6611,3133,0,-1,-1
-130.12,28.12,-64.51,3910,-6611,3132,0,-1,-1
-130.11,28.12,-64.50,3918,-6608,3136,0,-1,0
-130.12,28.13,-64.50,3909,-6605,3142,0,-1,-1
-130.11,28.13,-64.50,3914,-6608,3135,0,-1,-1
-130.11,28.14,-64.49,3905,-6609,3136,0,-1,-1
-130.12,28.14,-64.49,3903,-6610,3143,0,-1,0
-130.11,28.14,-64.49,3911,-6603,3129,0,-1,0
-130.12,28.14,-64.49,3912,-6595,3143,-1,-1,0
-130.12,28.15,-64.50,3924,-6601,3127,0,-1,-1
-130.11,28.15,-64.49,3919,-6584,3142,0,-1,-1
-130.12,28.16,-64.49,3921,-6595,3157,-1,-1,0
-130.11,28.16,-64.49,3923,-6600,3160,-1,-1,0
-130.11,28.16,-64.49,3932,-6602,3153,0,0,-1
-130.11,28.16,-64.49,3923,-6603,3144,-1,0,-1
-130.12,28.17,-64.49,3919,-6606,3132,-1,-1,-1
-130.12,28.17,-64.50,3918,-6605,3130,-1,-1,-1
-130.12,28.17,-64.50,3924,-6597,3142,-1,0,-1
-130.10,28.17,-64.49,3926,-6597,3140,0,0,-1
-130.11,28.17,-64.50,3911,-6598,3140,-1,0,-1
-130.11,28.18,-64.50,3911,-6602,3140,-1,-1,-1
-130.12,28.17,-64.51,3918,-6604,3134,-1,-1,0
-130.12,28.18,-64.53,3924,-6609,3136,-1,0,0
-130.12,28.18,-64.53,3924,-6603,3142,-1,0,0
-130.12,28.18,-64.53,3922,-6598,3141,-1,-1,0
-130.13,28.18,-64.54,3922,-6596,3150,-1,-1,0
-130.13,28.18,-64.55,3926,-6604,3146,-1,0,-1
-130.13,28.18,-64.56,3926,-6608,3141,-1,0,-1
-130.14,28.18,-64.56,3919,-6603,3137,-1,0,-1
-130.14,28.18,-64.57,3917,-6604,3137,-1,0,-1
-130.14,28.18,-64.58,3918,-6596,3142,-1,-1,0
-130.15,28.18,-64.59,3922,-6600,3125,-1,0,-1
-130.16,28.18,-64.60,3919,-6599,3132,-1,0,0
-130.17,28.17,-64.63,3919,-6612,3117,-1,-1,0
-130.18,28.17,-64.64,3916,-6613,3106,-1,0,-1
-130.18,28.18,-64.65,3911,-6619,3107,-1,-1,-1
-130.18,28.18,-64.65,3912,-6619,3101,-1,-1,-1
-130.19,28.18,-64.66,3919,-6622,3096,0,-1,-1
-130.19,28.18,-64.66,3926,-6615,3117,-1,0,0
-130.20,28.18,-64.67,3931,-6610,3123,-1,0,0
-130.20,28.17,-64.67,3925,-6608,3107,-1,0,-1
-130.19,28.18,-64.67,3921,-6611,3099,-1,0,-1
-130.20,28.17,-64.67,3912,-6618,3101,-1,0,-1
-130.18,28.18,-64.67,3921,-6613,3104,0,0,-1
-130.17,28.18,-64.67,3922,-6611,3106,-1,0,-1
-130.15,28.18,-64.66,3917,-6619,3112,0,0,-1
-130.15,28.18,-64.66,3915,-6619,3125,0,0,-1
-130.14,28.19,-64.65,3920,-6617,3114,0,0,0
-130.15,28.18,-64.66,3923,-6616,3122,-1,0,0
-130.15,28.18,-64.66,3912,-6608,3118,-1,0,0
-130.15,28.17,-64.65,3917,-6595,3133,-1,0,0
-130.15,28.17,-64.66,3919,-6612,3140,-1,0,-1
-130.16,28.17,-64.68,3916,-6609,3131,-1,0,-1
-130.16,28.17,-64.68,3911,-6611,3118,-1,0,-1
-130.15,28.17,-64.69,3911,-6608,3122,-1,0,-1
-130.15,28.16,-64.69,3917,-6605,3138,-1,0,-1
-130.15,28.16,-64.71,3910,-6620,3134,-2,0,-1
-130.15,28.16,-64.72,3921,-6624,3114,-1,0,-1
-130.15,28.16,-64.73,3915,-6621,3100,-1,0,-1
-130.16,28.16,-64.75,3924,-6618,3110,-1,0,0
-130.16,28.16,-64.76,3924,-6614,3113,-1,0,0
-130.17,28.15,-64.78,3918,-6618,3105,-1,0,0
-130.18,28.14,-64.79,3911,-6618,3102,-1,0,-1
-130.17,28.14,-64.81,3911,-6617,3107,-1,0,-1
-130.18,28.13,-64.82,3912,-6619,3113,-1,0,0
-130.18,28.13,-64.84,3913,-6625,3096,-1,0,-1
-130.18,28.13,-64.85,3919,-6622,3090,-1,0,-1
-130.17,28.14,-64.87,3932,-6618,3091,-1,0,-1
-130.17,28.14,-64.88,3928,-6622,3102,-1,0,-1
-130.17,28.13,-64.89,3924,-6622,3096,-1,0,-1
-130.17,28.13,-64.90,3916,-6632,3091,-1,0,-1
-130.17,28.13,-64.91,3910,-6632,3096,-1,0,-1
-130.17,28.12,-64.92,3911,-6648,3092,-1,0,-1
-130.17,28.12,-64.94,3907,-6642,3084,-1,0,-1
-130.18,28.12,-64.95,3901,-6642,3081,-1,0,-1
-130.18,28.11,-64.96,3900,-6643,3080,-1,0,-1
-130.18,28.11,-64.97,3909,-6634,3083,-1,0,0
-130.18,28.11,-64.99,3911,-6631,3090,-1,0,0
-130.20,28.10,-65.01,3916,-6637,3078,-1,0,-1
-130.20,28.11,-65.01,3919,-6627,3082,-1,0,-1
-130.20,28.10,-65.02,3909,-6627,3080,-1,0,0
-130.20,28.10,-65.03,3911,-6632,3084,-1,0,-1
-130.20,28.10,-65.04,3907,-6636,3081,-1,0,-1
-130.19,28.10,-65.04,3906,-6640,3076,-1,0,-1
-130.20,28.09,-65.04,3890,-6647,3077,-1,0,-1
-130.19,28.09,-65.05,3894,-6641,3081,-1,0,0
-130.20,28.09,-65.05,3894,-6638,3073,-1,0,-1
-130.20,28.10,-65.06,3896,-6644,3066,0,0,-1
-130.20,28.10,-65.06,3894,-6643,3077,-1,-1,-1
-130.21,28.10,-65.06,3898,-6649,3064,0,-1,-1
-130.20,28.10,-65.06,3899,-6652,3075,0,-1,0
-130.21,28.11,-65.07,3903,-6648,3062,0,-1,0
-130.22,28.11,-65.07,3910,-6644,3063,0,-1,0
-130.22,28.11,-65.07,3915,-6641,3067,0,-1,0
-130.23,28.12,-65.07,3922,-6647,3063,0,-1,-1
-130.22,28.13,-65.06,3921,-6637,3070,0,-1,-1
-130.22,28.13,-65.06,3926,-6642,3071,0,-1,-1
-130.22,28.14,-65.06,3919,-6646,3075,0,-1,-1
-130.22,28.14,-65.05,3914,-6641,3070,0,-1,0
-130.22,28.14,-65.04,3912,-6636,3078,0,-1,0
-130.23,28.14,-65.04,3912,-6642,3059,0,-1,-1
-130.22,28.16,-65.03,3914,-6632,3075,0,-1,-1
-130.19,28.17,-65.01,3927,-6636,3076,0,-1,-1
-130.19,28.17,-64.99,3927,-6633,3095,0,-1,-1
-130.18,28.18,-64.97,3937,-6629,3096,0,-1,-1
-130.17,28.18,-64.96,3924,-6629,3092,0,-1,-1
-130.16,28.19,-64.95,3917,-6627,3082,0,-1,-1
-130.17,28.19,-64.94,3922,-6623,3087,0,-1,-1
-130.16,28.20,-64.93,3925,-6628,3087,0,-1,-1
-130.16,28.19,-64.92,3923,-6628,3083,0,-1,-1
-130.15,28.20,-64.91,3924,-6617,3093,0,-1,0
-130.16,28.20,-64.90,3919,-6616,3106,0,-1,0
-130.16,28.21,-64.89,3925,-6622,3100,0,-1,-1
-130.15,28.21,-64.89,3926,-6624,3097,0,-1,-1
-130.16,28.21,-64.88,3916,-6629,3093,0,-1,0
-130.15,28.22,-64.87,3920,-6627,3091,0,-1,0
-130.16,28.22,-64.87,3919,-6632,3089,0,-1,0
-130.16,28.21,-64.86,3914,-6627,3095,0,-1,0
-130.16,28.22,-64.85,3925,-6625,3094,0,-1,-1
-130.15,28.22,-64.84,3927,-6624,3103,0,-1,-1
-130.16,28.22,-64.83,3922,-6607,3113,0,-1,0
-130.17,28.23,-64.84,3923,-6616,3098,0,-1,0
-130.16,28.23,-64.83,3927,-6616,3084,0,-1,-1
-130.15,28.24,-64.82,3925,-6615,3095,0,-1,-1
-130.15,28.24,-64.81,3927,-6615,3111,0,-1,0
-130.15,28.25,-64.81,3936,-6613,3119,0,-1,-1
-130.15,28.25,-64.80,3927,-6619,3103,0,-1,-1
-130.14,28.25,-64.79,3924,-6622,3098,0,-1,-1
-130.13,28.25,-64.78,3924,-6617,3101,0,-1,-1
-130.14,28.25,-64.77,3924,-6617,3100,0,-1,0
-130.13,28.25,-64.76,3930,-6617,3094,0,-1,0
-130.13,28.25,-64.75,3926,-6614,3094,0,-1,-1
-130.13,28.26,-64.75,3930,-6618,3106,0,-1,0
-130.13,28.26,-64.74,3931,-6615,3111,0,-1,0
-130.13,28.25,-64.73,3928,-6613,3107,0,-1,0
-130.12,28.25,-64.72,3934,-6611,3118,0,-1,0
-130.13,28.26,-64.72,3933,-6605,3121,0,-1,0
-130.13,28.26,-64.72,3935,-6605,3125,-1,0,-1
-130.12,28.25,-64.72,3933,-6608,3118,-1,0,0
-130.12,28.25,-64.72,3925,-6607,3102,-1,0,-1
-130.12,28.25,-64.72,3925,-6607,3108,0,-1,-1
-130.12,28.25,-64.72,3928,-6612,3110,0,0,0
-130.12,28.25,-64.72,3927,-6589,3132,-1,-1,0
-130.14,28.26,-64.74,3936,-6606,3097,-1,0,0
-130.13,28.25,-64.73,3930,-6594,3108,0,-1,0
-130.13,28.25,-64.73,3927,-6603,3116,-1,-1,0
-130.15,28.25,-64.75,3929,-6612,3117,-1,-1,0
-130.14,28.25,-64.74,3937,-6610,3116,-1,0,0
-130.14,28.25,-64.75,3931,-6611,3115,-1,0,0
-130.15,28.24,-64.75,3932,-6612,3110,-1,0,-1
-130.14,28.24,-64.76,3935,-6612,3111,-1,0,0
-130.14,28.24,-64.76,3936,-6618,3100,-1,0,-1
-130.14,28.24,-64.77,3932,-6615,3100,-1,0,-1
-130.15,28.23,-64.78,3931,-6616,3104,-1,0,0
-130.15,28.23,-64.79,3935,-6617,3108,-1,0,0
-130.17,28.22,-64.80,3922,-6621,3098,-1,0,0
-130.20,28.21,-64.82,3908,-6627,3068,-1,-1,0
-130.20,28.21,-64.83,3923,-6622,3083,-1,0,-1
-130.19,28.22,-64.83,3951,-6622,3107,-1,0,-1
-130.17,28.22,-64.82,3952,-6597,3143,-1,0,-1
-130.17,28.21,-64.82,3924,-6593,3152,-1,0,0
-130.19,28.19,-64.84,3912,-6610,3128,-1,0,0
-130.19,28.18,-64.86,3943,-6591,3143,-2,0,0
-130.21,28.17,-64.88,3962,-6590,3152,-2,0,0
-130.26,28.14,-64.95,3922,-6603,3109,-3,1,0
-130.30,28.11,-65.01,3924,-6638,3066,-2,0,0
-130.32,28.09,-65.04,3901,-6611,3081,-2,0,0
-130.34,28.08,-65.09,3888,-6646,3075,-2,0,-1
-130.35,28.08,-65.13,3925,-6634,3079,-2,1,-1
-130.33,28.09,-65.17,3906,-6638,3070,-2,0,-1
-130.33,28.09,-65.19,3918,-6648,3059,-2,1,-1
-130.33,28.07,-65.22,3908,-6645,3063,-2,0,0
-130.36,28.06,-65.27,3881,-6650,3064,-3,0,0
-130.40,28.05,-65.33,3883,-6666,3044,-2,0,0
-130.46,28.03,-65.39,3867,-6653,3048,-3,-1,0
-130.51,28.02,-65.44,3888,-6674,3012,-1,-1,0
-130.56,28.01,-65.49,3902,-6658,3047,-2,-1,0
-130.62,27.99,-65.54,3875,-6655,3029,-2,-2,0
-130.68,27.99,-65.61,3880,-6682,2999,-2,-1,0
-130.72,27.98,-65.66,3891,-6674,3013,-2,0,0
-130.77,27.97,-65.72,3903,-6699,2959,-2,-1,0
-130.78,27.97,-65.74,3904,-6699,2970,-1,0,0
-130.79,27.98,-65.78,3886,-6710,2949,-1,0,-1
-130.76,27.99,-65.76,3900,-6715,2964,0,1,-1
-130.74,27.99,-65.76,3881,-6690,2974,-1,0,-1
-130.73,28.01,-65.76,3878,-6710,2964,0,-1,-1
-130.71,28.02,-65.75,3882,-6677,2984,0,-1,-1
-130.71,28.02,-65.74,3891,-6693,2993,-1,-1,-1
-130.71,28.02,-65.73,3907,-6691,2993,0,0,-1
-130.69,28.03,-65.71,3907,-6681,3011,0,0,-1
-130.68,28.03,-65.69,3896,-6671,3011,0,-1,-1
-130.66,28.04,-65.68,3917,-6665,3018,0,-1,-1
-130.65,28.05,-65.67,3936,-6669,3032,0,0,-1
-130.62,28.05,-65.65,3927,-6665,3036,0,0,-1
-130.60,28.05,-65.64,3914,-6665,3019,0,0,-1
-130.59,28.06,-65.64,3907,-6659,3022,-1,0,-1
-130.57,28.06,-65.63,3904,-6658,3023,-1,0,-1
-130.56,28.07,-65.63,3895,-6660,3018,0,0,-1
-130.55,28.07,-65.61,3894,-6659,3017,0,0,-1
-130.54,28.08,-65.61,3894,-6662,3015,0,0,-1
-130.52,28.09,-65.60,3891,-6674,3012,0,-1,-1
-130.52,28.10,-65.59,3885,-6672,2998,0,-1,-1
-130.52,28.11,-65.59,3888,-6673,3002,0,-1,-1
-130.51,28.12,-65.58,3903,-6663,3004,0,-1,-1
-130.52,28.13,-65.57,3912,-6674,3001,0,-1,-1
-130.51,28.15,-65.56,3925,-6664,3008,0,-1,-1
-130.51,28.16,-65.55,3911,-6659,3028,0,-1,-1
-130.51,28.17,-65.54,3918,-6667,3019,0,-1,0
-130.52,28.17,-65.54,3912,-6664,3015,0,-1,0
-130.53,28.18,-65.54,3910,-6664,3009,0,-1,-1
-130.53,28.19,-65.53,3915,-6663,3010,0,-1,-1
-130.52,28.20,-65.51,3925,-6655,3018,0,-1,-1
-130.51,28.21,-65.50,3924,-6653,3020,0,-1,-1
-130.52,28.22,-65.48,3923,-6654,3017,0,-1,-1
-130.50,28.23,-65.47,3930,-6651,3006,0,-1,-1
-130.50,28.24,-65.45,3932,-6654,3015,0,-1,0
-130.50,28.25,-65.44,3924,-6652,3017,0,-1,-1
-130.49,28.25,-65.42,3912,-6650,3017,0,-1,-1
-130.49,28.26,-65.41,3925,-6642,3019,0,-1,-1
-130.48,28.27,-65.39,3938,-6649,3026,0,-1,0
-130.48,28.28,-65.38,3940,-6646,3027,0,-1,0
-130.47,28.28,-65.36,3938,-6636,3038,0,-1,0
-130.48,28.29,-65.36,3941,-6638,3036,0,-1,-1
-130.49,28.29,-65.35,3943,-6638,3032,0,-1,0
-130.48,28.29,-65.33,3936,-6627,3054,0,-1,0
-130.50,28.30,-65.34,3943,-6643,3037,0,-1,-1
-130.50,28.31,-65.33,3949,-6634,3051,0,-1,-1
-130.49,28.31,-65.32,3951,-6634,3069,0,-1,0
-130.50,28.32,-65.33,3951,-6642,3064,-1,-1,0
-130.50,28.31,-65.33,3947,-6642,3044,0,-1,-1
-130.50,28.32,-65.33,3941,-6639,3042,0,-1,0
-130.50,28.31,-65.33,3932,-6634,3038,-1,0,-1
-130.51,28.32,-65.34,3936,-6648,3038,-1,0,-1
-130.51,28.31,-65.34,3938,-6651,3044,-1,0,-1
-130.50,28.32,-65.34,3941,-6660,3028,0,0,-1
-130.49,28.32,-65.34,3937,-6648,3037,0,0,-1
-130.48,28.33,-65.32,3950,-6639,3051,0,0,-1
-130.48,28.32,-65.32,3942,-6639,3049,-1,0,0
-130.49,28.32,-65.32,3935,-6641,3044,0,-1,0
-130.49,28.31,-65.32,3938,-6634,3051,-1,-1,0
-130.50,28.31,-65.33,3943,-6631,3052,-1,0,0
-130.51,28.31,-65.34,3944,-6627,3050,-1,0,0
-130.52,28.31,-65.36,3938,-6631,3048,-1,-1,0
-130.53,28.29,-65.37,3943,-6632,3056,-1,0,0
-130.54,28.29,-65.39,3948,-6631,3066,-2,0,0
-130.57,28.28,-65.42,3946,-6637,3066,-2,0,0
-130.59,28.28,-65.46,3946,-6656,3015,-1,0,0
-130.60,28.27,-65.48,3938,-6648,3017,-1,-1,0
-130.61,28.27,-65.50,3932,-6650,3018,-1,0,0
-130.62,28.27,-65.52,3928,-6670,3015,-1,0,-1
-130.63,28.26,-65.53,3921,-6669,3002,-1,0,-1
-130.63,28.26,-65.54,3910,-6662,2999,-1,0,-1
-130.64,28.26,-65.55,3921,-6665,2987,0,-1,-1
-130.64,28.27,-65.55,3926,-6659,3005,-1,-1,0
-130.64,28.26,-65.56,3936,-6667,3001,0,0,0
-130.64,28.26,-65.55,3935,-6657,3011,0,-1,0
-130.65,28.27,-65.56,3931,-6652,3002,-1,-1,0
-130.66,28.26,-65.56,3939,-6649,3013,0,-1,0
-130.66,28.26,-65.57,3936,-6649,3018,-1,-1,0
-130.68,28.26,-65.58,3928,-6653,3022,-1,-1,0
-130.69,28.26,-65.59,3934,-6658,3016,-1,-1,-1
-130.68,28.26,-65.59,3933,-6667,3009,-1,0,-1
-130.68,28.26,-65.59,3927,-6667,3005,-1,0,-1
-130.69,28.25,-65.60,3922,-6662,3010,-1,0,-1
-130.68,28.26,-65.60,3933,-6662,3005,-1,0,-1
-130.68,28.27,-65.61,3937,-6667,2998,-1,0,-1
-130.68,28.27,-65.62,3918,-6662,3002,-1,0,0
-130.70,28.26,-65.63,3925,-6685,2980,-1,-1,0
-130.69,28.27,-65.62,3928,-6678,2985,0,-1,-1
-130.67,28.28,-65.60,3937,-6670,2997,0,-1,-1
-130.65,28.29,-65.58,3938,-6656,3007,0,0,-1
-130.63,28.29,-65.56,3934,-6658,3007,0,0,-1
-130.61,28.29,-65.53,3920,-6656,3013,0,0,-1
-130.60,28.30,-65.52,3927,-6658,3015,0,0,-1
-130.58,28.30,-65.51,3934,-6651,3026,0,0,-1
-130.57,28.31,-65.49,3944,-6638,3034,0,-1,-1
-130.56,28.31,-65.49,3944,-6643,3027,0,-1,-1
-130.56,28.32,-65.48,3936,-6646,3029,0,-1,0
-130.56,28.32,-65.48,3937,-6650,3031,-1,-1,-1
-130.56,28.32,-65.49,3943,-6651,3036,-1,-1,-1
-130.56,28.32,-65.49,3943,-6648,3035,-1,-1,-1
-130.56,28.32,-65.49,3945,-6639,3036,-1,0,-1
-130.56,28.32,-65.50,3939,-6647,3037,-1,0,-1
-130.57,28.32,-65.51,3932,-6648,3021,-1,0,0
-130.58,28.32,-65.52,3926,-6643,3014,-1,0,-1
-130.58,28.32,-65.52,3939,-6643,3013,-1,0,-1
-130.57,28.33,-65.53,3948,-6653,3017,-1,0,-1
-130.58,28.32,-65.54,3946,-6659,3013,-1,0,-1
-130.58,28.32,-65.55,3941,-6649,3012,-1,0,-1
-130.58,28.32,-65.56,3939,-6650,3017,-1,0,-1
-130.58,28.32,-65.57,3943,-6653,3017,-1,0,0
-130.59,28.31,-65.58,3943,-6650,3024,-1,0,0
-130.59,28.31,-65.59,3948,-6656,3010,-1,0,-1
-130.57,28.31,-65.59,3945,-6646,3016,-1,0,-1
-130.56,28.31,-65.59,3938,-6651,3022,-1,0,-1
-130.55,28.31,-65.59,3936,-6654,3019,-1,0,-1
-130.55,28.31,-65.60,3936,-6653,3003,-1,0,0
-130.55,28.30,-65.61,3940,-6646,3008,-1,0,-1
-130.55,28.30,-65.62,3945,-6653,2998,-1,0,-1
-130.54,28.29,-65.63,3948,-6651,3009,-1,0,-1
-130.53,28.29,-65.64,3931,-6651,3015,-1,0,-1
-130.54,28.28,-65.65,3927,-6667,3006,-2,0,-1
-130.54,28.27,-65.68,3928,-6669,2994,-1,0,-1
-130.54,28.27,-65.69,3933,-6669,2995,-1,0,-1
-130.55,28.26,-65.71,3929,-6674,2996,-1,0,-1
-130.54,28.26,-65.72,3923,-6666,2997,-1,0,-1
-130.54,28.26,-65.73,3927,-6663,2993,-1,0,-1
-130.54,28.25,-65.75,3929,-6666,2998,-1,0,0
-130.55,28.25,-65.77,3935,-6677,2989,-1,0,-1
-130.56,28.24,-65.78,3929,-6668,2987,-1,0,0
-130.57,28.24,-65.80,3922,-6666,2994,-1,0,0
-130.58,28.23,-65.82,3925,-6679,2991,-1,0,-1
-130.58,28.23,-65.84,3924,-6673,2974,-1,0,0
-130.59,28.22,-65.85,3919,-6679,2983,-1,0,0
-130.60,28.22,-65.87,3929,-6682,2956,-1,0,-1
-130.61,28.21,-65.88,3912,-6677,2970,-1,0,-1
-130.61,28.22,-65.88,3912,-6688,2951,0,0,-1
-130.61,28.22,-65.88,3903,-6682,2958,0,-1,-1
-130.61,28.22,-65.88,3911,-6681,2956,0,-1,-1
-130.62,28.23,-65.88,3906,-6678,2960,0,-1,-1
-130.62,28.23,-65.89,3912,-6683,2954,0,-1,-1
-130.62,28.24,-65.88,3916,-6681,2951,0,-1,-1
-130.61,28.25,-65.86,3924,-6677,2958,0,-1,-1
-130.61,28.26,-65.85,3918,-6672,2960,0,-1,-1
-130.60,28.27,-65.83,3927,-6679,2969,0,-1,-1
-130.59,28.29,-65.81,3940,-6678,2982,1,-1,-1
-130.58,28.30,-65.79,3947,-6674,2985,1,-1,-1
-130.58,28.30,-65.77,3939,-6674,2984,1,-1,-1
-130.56,28.31,-65.74,3937,-6673,2985,1,-1,-1
-130.57,28.32,-65.72,3933,-6676,2977,1,-1,-1
-130.56,28.33,-65.70,3936,-6663,2991,1,-1,0
-130.54,28.33,-65.67,3942,-6654,3010,1,-1,-1
-130.54,28.34,-65.65,3940,-6653,3010,1,-1,-1
-130.55,28.35,-65.63,3954,-6651,3010,1,-1,0
-130.54,28.35,-65.61,3946,-6647,3023,0,-1,0
-130.55,28.36,-65.61,3949,-6658,3011,0,-1,0
-130.55,28.36,-65.59,3946,-6648,3019,0,-1,0
-130.54,28.37,-65.57,3951,-6654,3020,0,-1,0
-130.55,28.37,-65.57,3949,-6649,3022,0,-1,0
-130.55,28.37,-65.57,3944,-6646,3018,0,-1,0
-130.56,28.37,-65.57,3944,-6648,3007,0,-1,0
-130.56,28.38,-65.56,3947,-6642,3007,0,-1,0
-130.56,28.38,-65.56,3947,-6644,3006,0,-1,0
-130.57,28.38,-65.56,3952,-6644,3018,0,-1,0
-130.58,28.38,-65.56,3947,-6648,3007,0,-1,-1
-130.57,28.39,-65.55,3949,-6646,3015,0,-1,0
-130.58,28.39,-65.55,3945,-6643,3009,0,-1,0
-130.58,28.39,-65.56,3954,-6643,3004,0,-1,0
-130.59,28.40,-65.56,3957,-6643,3012,0,-1,0
-130.59,28.39,-65.55,3949,-6643,3018,0,-1,-1
-130.59,28.40,-65.55,3943,-6640,3013,-1,-1,0
-130.60,28.39,-65.56,3944,-6648,2999,-1,-1,0
-130.60,28.40,-65.56,3949,-6647,3005,0,-1,-1
-130.60,28.40,-65.56,3944,-6642,3005,0,-1,-1
-130.61,28.40,-65.57,3952,-6647,3006,0,-1,-1
-130.61,28.40,-65.56,3944,-6645,3012,0,-1,0
-130.61,28.40,-65.57,3962,-6657,3010,-1,0,-1
-130.59,28.41,-65.55,3985,-6642,3041,-1,0,-1
-130.57,28.41,-65.55,3963,-6648,3033,-1,0,-1
-130.57,28.39,-65.56,3944,-6646,3015,-1,0,0
-130.58,28.39,-65.57,3931,-6640,2997,-1,0,-1
-130.57,28.39,-65.57,3939,-6642,2997,-1,0,-1
-130.56,28.39,-65.57,3955,-6647,3002,-1,0,-1
-130.54,28.39,-65.57,3962,-6649,2999,-1,1,-1
-130.52,28.39,-65.57,3947,-6645,2998,-1,1,-1
-130.51,28.38,-65.57,3940,-6649,3004,-1,0,-1
-130.51,28.38,-65.58,3945,-6650,3009,-1,0,-1
-130.50,28.37,-65.59,3955,-6650,3014,-1,0,-1
-130.49,28.37,-65.59,3942,-6654,3022,-1,0,-1
-130.48,28.36,-65.60,3936,-6652,3016,-1,0,-1
-130.48,28.36,-65.60,3936,-6651,3007,-1,0,-1
-130.47,28.34,-65.61,3940,-6647,3016,-1,0,0
-130.48,28.34,-65.63,3951,-6652,3012,-2,0,-1
-130.48,28.33,-65.65,3950,-6652,3010,-1,0,-1
-130.48,28.33,-65.67,3947,-6656,3003,-1,0,-1
-130.48,28.33,-65.68,3953,-6658,3002,-1,0,0
-130.48,28.32,-65.70,3953,-6659,2998,-1,0,0
-130.49,28.32,-65.71,3942,-6660,3004,-1,0,0
-130.48,28.32,-65.74,3953,-6672,2970,-1,0,-1
-130.47,28.32,-65.74,3944,-6666,2975,-1,0,-1
-130.46,28.31,-65.74,3926,-6672,2964,-1,0,-1
-130.45,28.31,-65.74,3915,-6670,2962,-1,0,0
-130.47,28.30,-65.75,3903,-6664,2978,-1,-1,0
-130.50,28.29,-65.76,3906,-6664,2987,-1,-1,0
-130.53,28.28,-65.78,3920,-6668,2969,0,-1,0
-130.56,28.29,-65.80,3925,-6668,2977,0,-2,0
-130.58,28.29,-65.81,3931,-6669,2975,0,-1,0
-130.61,28.29,-65.82,3933,-6671,2981,0,-1,0
-130.62,28.30,-65.81,3933,-6668,2992,0,-1,0
-130.62,28.31,-65.81,3936,-6672,2997,0,-1,0
-130.63,28.31,-65.81,3939,-6666,2985,0,-1,0
-130.62,28.32,-65.79,3942,-6672,2982,0,-1,-1
-130.62,28.32,-65.79,3943,-6671,2985,0,-1,-1
-130.61,28.33,-65.78,3944,-6676,2971,0,-1,-1
-130.62,28.33,-65.77,3939,-6670,2968,0,-1,-1
-130.60,28.34,-65.75,3944,-6666,2965,0,-1,-1
-130.59,28.35,-65.72,3944,-6671,2979,1,-1,-1
-130.57,28.35,-65.70,3947,-6655,2991,1,-1,-1
-130.56,28.36,-65.68,3960,-6663,2999,0,0,-1
-130.52,28.38,-65.65,3963,-6674,2979,1,0,-1
-130.48,28.38,-65.60,3948,-6655,2995,0,0,-1
-130.46,28.38,-65.58,3954,-6661,3002,0,0,-1
-130.43,28.37,-65.55,3948,-6647,3022,0,0,0
-130.42,28.35,-65.53,3939,-6650,3011,0,0,0
-130.41,28.33,-65.49,3929,-6641,3014,1,0,0
-130.43,28.32,-65.49,3929,-6631,3044,0,-1,1
-130.48,28.29,-65.51,3938,-6645,3035,0,-1,1
-130.51,28.27,-65.50,3938,-6637,3048,-1,-1,1
-130.54,28.26,-65.52,3954,-6640,3023,-1,-1,0
-130.55,28.25,-65.53,3979,-6661,3022,-1,1,-1
-130.51,28.24,-65.51,3952,-6672,3000,0,2,-1
-130.47,28.22,-65.48,3910,-6659,3011,0,1,-1
-130.46,28.20,-65.46,3865,-6639,3029,0,0,0
-130.49,28.19,-65.47,3864,-6629,3042,-1,-1,0
-130.53,28.19,-65.49,3895,-6647,3039,0,-2,0
-130.55,28.18,-65.49,3908,-6636,3069,0,-1,1
-130.62,28.16,-65.52,3896,-6637,3035,-1,-2,1
-130.69,28.14,-65.56,3890,-6639,3037,-1,-2,1
-130.75,28.12,-65.60,3911,-6632,3062,-1,-2,1
-130.83,28.10,-65.65,3914,-6664,3033,-1,-2,1
-130.91,28.07,-65.70,3886,-6651,3048,-2,-2,1
-131.02,28.04,-65.79,3892,-6680,2998,-2,-2,1
-131.11,28.02,-65.85,3911,-6664,3007,-1,-2,1
-131.20,28.00,-65.92,3908,-6656,3036,-3,-2,1
-131.29,27.99,-66.02,3910,-6702,2969,-2,-1,1
-131.37,27.97,-66.09,3907,-6696,2936,-2,-2,0
-131.42,27.98,-66.15,3917,-6689,2939,-2,-1,0
-131.44,27.99,-66.20,3926,-6702,2935,-2,-1,-1
-131.47,28.00,-66.23,3932,-6713,2948,-1,-1,0
-131.49,27.99,-66.25,3916,-6716,2948,-1,-1,0
-131.51,27.99,-66.28,3905,-6737,2910,-1,0,0
-131.52,27.98,-66.30,3888,-6743,2883,-1,0,-1
-131.51,27.98,-66.29,3863,-6748,2872,0,0,-1
-131.49,27.99,-66.28,3865,-6745,2873,0,0,-1
-131.45,28.01,-66.24,3874,-6730,2887,1,0,-1
-131.41,28.02,-66.20,3884,-6727,2900,1,0,-1
-131.35,28.04,-66.14,3889,-6719,2933,1,0,-1
-131.30,28.05,-66.09,3906,-6705,2985,1,0,-1
-131.26,28.06,-66.04,3927,-6696,2987,1,0,-1
-131.22,28.07,-66.01,3935,-6693,2996,1,0,-1
-131.17,28.08,-65.96,3935,-6693,2999,0,0,-1
-131.13,28.08,-65.92,3934,-6687,3018,0,0,-1
-131.10,28.09,-65.90,3929,-6687,3004,0,0,-1
-131.05,28.11,-65.88,3927,-6676,3013,0,0,-1
-131.02,28.11,-65.86,3919,-6675,3013,-1,0,-1
-130.99,28.11,-65.85,3916,-6673,3007,-1,0,-1
-130.97,28.12,-65.84,3904,-6669,3006,-1,0,-1
-130.96,28.12,-65.84,3895,-6664,2999,-1,0,-1
-130.96,28.12,-65.85,3900,-6670,2992,-1,0,-1
-130.97,28.12,-65.87,3914,-6670,2994,-1,0,-1
-130.97,28.12,-65.88,3909,-6674,2992,-1,0,-1
-130.97,28.12,-65.89,3906,-6671,2987,-1,0,-1
-130.99,28.11,-65.91,3910,-6686,2977,-1,0,0
-131.00,28.11,-65.93,3908,-6688,2972,-1,0,-1
-131.00,28.11,-65.94,3912,-6684,2978,-1,0,-1
-131.00,28.11,-65.97,3918,-6695,2975,-1,0,-1
-131.00,28.11,-65.98,3913,-6699,2977,-1,0,-1
-131.01,28.10,-66.00,3912,-6700,2961,-1,0,-1
-131.01,28.10,-66.01,3913,-6700,2959,-1,0,-1
-131.01,28.10,-66.02,3909,-6701,2960,-1,0,-1
-131.01,28.09,-66.02,3906,-6698,2950,-1,0,-1
-131.01,28.09,-66.03,3901,-6693,2961,-1,0,-1
-131.02,28.09,-66.05,3907,-6709,2940,0,0,-1
-131.01,28.09,-66.04,3903,-6691,2962,0,0,-1
-131.01,28.09,-66.04,3906,-6698,2957,-1,0,-1
-131.01,28.10,-66.04,3896,-6695,2954,-1,-1,-1
-131.01,28.10,-66.04,3900,-6699,2947,0,-1,0
-131.02,28.10,-66.05,3913,-6691,2953,0,-1,0
-131.02,28.11,-66.05,3913,-6690,2949,0,-1,-1
-131.01,28.11,-66.03,3915,-6692,2958,0,-1,-1
-131.02,28.12,-66.03,3924,-6695,2963,0,-1,0
-131.02,28.12,-66.03,3914,-6694,2967,0,-1,0
-131.03,28.12,-66.03,3910,-6694,2964,0,-1,0
-131.02,28.13,-66.02,3912,-6694,2959,0,-1,0
-131.03,28.13,-66.02,3914,-6700,2955,0,-1,-1
-131.02,28.13,-66.01,3921,-6692,2945,0,-1,-1
-131.01,28.14,-66.00,3923,-6687,2963,0,-1,-1
-131.01,28.14,-65.99,3919,-6689,2958,0,-1,0
-131.00,28.14,-65.98,3925,-6687,2953,0,-1,0
-131.01,28.14,-65.97,3919,-6683,2962,0,-1,-1
-131.01,28.14,-65.97,3924,-6687,2970,0,-1,-1
-130.99,28.15,-65.97,3925,-6681,2965,0,0,-1
-130.99,28.15,-65.96,3912,-6674,2979,0,-1,0
-131.00,28.16,-65.96,3913,-6687,2968,0,-1,-1
-130.98,28.16,-65.94,3912,-6680,2982,0,-1,-1
-130.98,28.16,-65.94,3923,-6685,2976,0,0,-1
-130.96,28.17,-65.93,3925,-6683,2975,0,-1,-1
-130.97,28.17,-65.92,3923,-6675,2973,0,-1,0
-130.97,28.17,-65.92,3919,-6677,2957,0,-1,-1
-130.97,28.17,-65.92,3918,-6679,2955,0,-1,-1
-130.96,28.18,-65.91,3918,-6683,2960,0,-1,0
-130.95,28.18,-65.90,3916,-6692,2968,0,-1,0
-130.96,28.18,-65.90,3914,-6688,2971,0,-1,0
-130.95,28.18,-65.89,3917,-6685,2982,0,-1,-1
-130.95,28.18,-65.88,3915,-6690,2977,0,-1,-1
-130.95,28.18,-65.87,3907,-6688,2979,0,-1,0
-130.95,28.18,-65.87,3911,-6685,2967,0,-1,0
-130.96,28.18,-65.86,3911,-6674,2973,0,-1,0
-130.95,28.18,-65.85,3917,-6671,2983,0,-1,0
-130.94,28.18,-65.84,3923,-6678,2991,0,-1,0
-130.94,28.18,-65.83,3925,-6681,2988,0,-1,-1
-130.93,28.19,-65.82,3921,-6680,2984,0,0,-1
-130.93,28.19,-65.81,3926,-6676,2992,0,-1,0
-130.93,28.19,-65.81,3924,-6675,2983,0,-1,0
-130.92,28.19,-65.81,3934,-6669,2982,0,-1,0
-130.93,28.19,-65.80,3924,-6669,2985,0,-1,0
-130.93,28.19,-65.80,3923,-6681,2972,0,-1,-1
-130.92,28.19,-65.79,3917,-6662,2984,0,-1,-1
-130.92,28.19,-65.79,3924,-6670,2992,0,-1,0
-130.91,28.19,-65.78,3918,-6670,3002,0,-1,0
-130.92,28.18,-65.78,3919,-6675,2999,0,-1,0
-130.92,28.18,-65.78,3915,-6679,2995,0,-1,0
-130.93,28.18,-65.78,3917,-6682,2985,0,0,0
-130.93,28.19,-65.78,3930,-6679,2990,0,-1,0
-130.93,28.18,-65.77,3931,-6670,2987,0,0,0
-130.93,28.18,-65.77,3925,-6668,2989,-1,0,0
-130.93,28.18,-65.78,3913,-6679,2980,0,0,-1
-130.92,28.18,-65.77,3910,-6677,2986,0,0,-1
-130.93,28.18,-65.77,3911,-6673,2986,0,-1,0
-130.93,28.18,-65.77,3923,-6669,2991,0,0,0
-130.93,28.18,-65.77,3924,-6674,2995,0,-1,0
-130.92,28.18,-65.76,3922,-6682,2981,0,0,-1
-130.92,28.18,-65.75,3921,-6671,2981,0,0,-1
-130.91,28.18,-65.74,3935,-6668,3003,0,0,-1
-130.90,28.18,-65.73,3936,-6659,3010,-1,0,-1
-130.88,28.18,-65.73,3929,-6664,2999,0,0,-1
-130.88,28.18,-65.72,3920,-6668,2997,0,0,-1
-130.86,28.19,-65.72,3917,-6660,2992,0,0,-1
-130.86,28.18,-65.71,3920,-6660,2994,0,0,-1
-130.84,28.18,-65.70,3922,-6653,3018,-1,0,0
-130.85,28.18,-65.71,3913,-6671,2995,-1,0,-1
-130.84,28.18,-65.71,3925,-6669,2988,0,0,-1
-130.83,28.18,-65.71,3915,-6662,3000,-1,0,-1
-130.84,28.18,-65.72,3918,-6669,2996,-1,0,-1
-130.83,28.17,-65.71,3930,-6669,2999,-1,0,0
-130.83,28.17,-65.71,3925,-6669,3008,-1,0,0
-130.80,28.16,-65.69,3933,-6676,3001,0,1,-1
-130.77,28.16,-65.68,3931,-6678,2990,0,1,-1
-130.76,28.14,-65.66,3919,-6665,3007,-1,1,0
-130.75,28.13,-65.66,3929,-6672,3010,-1,0,0
-130.73,28.13,-65.66,3933,-6694,2991,-1,1,-1
-130.70,28.11,-65.63,3930,-6679,3002,0,1,-1
-130.68,28.09,-65.61,3913,-6680,3018,0,1,0
-130.66,28.07,-65.59,3909,-6692,2988,0,1,-1
-130.62,28.06,-65.56,3908,-6667,3019,-1,1,-1
-130.58,28.05,-65.54,3896,-6672,2998,0,1,-1
-130.55,28.04,-65.51,3906,-6684,3001,0,1,-1
-130.51,28.03,-65.48,3902,-6632,3067,0,0,0
-130.53,28.02,-65.49,3897,-6667,3026,-1,0,0
-130.50,28.01,-65.47,3882,-6656,3026,0,1,-1
-130.48,28.00,-65.46,3880,-6647,3034,0,0,-1
-130.47,27.99,-65.45,3868,-6667,3028,-1,0,-1
-130.46,27.99,-65.45,3882,-6663,3030,-1,0,0
-130.48,27.98,-65.47,3871,-6656,3023,-1,-1,0
-130.49,27.99,-65.49,3867,-6648,3036,-1,-1,-1
-130.50,27.99,-65.50,3872,-6658,3030,-1,0,-1
-130.50,28.00,-65.51,3887,-6662,3016,-1,0,-1
-130.50,28.00,-65.52,3890,-6657,3029,-1,-1,-1
-130.51,28.01,-65.55,3907,-6655,3035,-1,-1,-1
-130.52,28.02,-65.57,3908,-6660,3025,-1,-1,-1
-130.52,28.03,-65.59,3911,-6667,3021,-1,-1,-1
-130.53,28.03,-65.61,3898,-6663,3022,-1,-1,-1
-130.53,28.04,-65.62,3898,-6668,3026,-1,-1,-1
-130.55,28.04,-65.63,3899,-6676,3007,-1,-1,-1
-130.55,28.05,-65.64,3895,-6680,2995,-1,-1,-1
-130.56,28.05,-65.66,3899,-6681,2988,-1,-1,-1
-130.56,28.06,-65.67,3899,-6674,2978,-1,-1,-1
-130.57,28.07,-65.67,3907,-6685,2974,0,-1,-1
-130.57,28.08,-65.68,3906,-6685,2976,0,-1,-1
-130.58,28.08,-65.67,3906,-6680,2992,0,-1,0
-130.58,28.08,-65.67,3908,-6675,2986,0,-1,0
-130.57,28.09,-65.66,3915,-6687,2999,0,-1,-1
-130.56,28.10,-65.65,3923,-6681,2991,0,-1,-1
-130.55,28.11,-65.63,3915,-6671,2997,0,-1,-1
-130.55,28.11,-65.62,3912,-6676,3006,0,-1,-1
-130.53,28.12,-65.60,3913,-6675,3008,0,-1,-1
-130.52,28.12,-65.58,3913,-6671,3005,0,-1,-1
-130.51,28.12,-65.57,3906,-6665,3008,0,-1,-1
-130.49,28.13,-65.54,3910,-6659,3035,0,-1,-1
-130.48,28.14,-65.53,3905,-6649,3031,0,-1,-1
-130.48,28.14,-65.53,3908,-6668,3020,0,-1,-1
-130.48,28.14,-65.52,3909,-6665,3021,0,-1,-1
-130.48,28.15,-65.51,3919,-6667,3031,0,-1,-1
-130.48,28.15,-65.51,3914,-6661,3037,0,-1,0
-130.48,28.15,-65.51,3907,-6662,3030,0,-1,0
-130.49,28.15,-65.51,3912,-6659,3020,0,-1,0
-130.50,28.16,-65.51,3915,-6661,3019,0,-1,0
-130.51,28.16,-65.51,3919,-6665,3020,0,-1,0
-130.51,28.17,-65.52,3923,-6661,3013,0,-1,0
-130.52,28.17,-65.52,3921,-6662,3006,0,-1,-1
-130.53,28.18,-65.53,3932,-6667,3002,0,-1,0
-130.54,28.17,-65.53,3927,-6659,3013,-1,-1,0
-130.54,28.18,-65.54,3930,-6675,2993,0,-1,-1
-130.55,28.18,-65.54,3923,-6665,3006,0,-1,-1
-130.55,28.18,-65.53,3919,-6671,3004,0,-1,-1
-130.54,28.19,-65.53,3928,-6664,3007,0,-1,-1
-130.54,28.19,-65.52,3923,-6660,3009,0,-1,-1
-130.53,28.20,-65.51,3915,-6658,3014,0,-1,0
-130.53,28.19,-65.50,3912,-6660,3012,0,-1,-1
-130.52,28.19,-65.49,3920,-6658,3021,0,-1,-1
-130.52,28.19,-65.48,3923,-6648,3032,0,-1,0
-130.52,28.20,-65.47,3925,-6651,3025,0,-1,0
-130.52,28.20,-65.46,3923,-6648,3031,0,-1,0
-130.51,28.20,-65.45,3930,-6657,3039,0,-1,0
-130.51,28.20,-65.43,3925,-6653,3039,0,0,-1
-130.50,28.20,-65.42,3921,-6649,3028,0,0,-1
-130.49,28.20,-65.42,3919,-6649,3039,0,-1,-1
-130.49,28.20,-65.42,3921,-6658,3030,0,0,-1
-130.49,28.20,-65.40,3918,-6651,3033,0,-1,0
-130.50,28.20,-65.41,3921,-6648,3026,0,-1,0
-130.50,28.20,-65.41,3925,-6655,3030,0,-1,0
-130.51,28.20,-65.40,3924,-6646,3033,0,-1,0
-130.51,28.20,-65.40,3932,-6646,3041,-1,-1,0
-130.51,28.20,-65.40,3927,-6656,3016,0,0,-1
-130.50,28.20,-65.39,3919,-6646,3027,0,-1,-1
-130.50,28.20,-65.39,3923,-6654,3028,0,-1,0
-130.51,28.20,-65.39,3923,-6656,3030,0,-1,0
-130.51,28.20,-65.39,3922,-6657,3027,0,0,0
-130.51,28.20,-65.39,3910,-6648,3024,0,-1,0
-130.51,28.19,-65.38,3917,-6651,3029,0,-1,-1
-130.51,28.20,-65.38,3918,-6652,3037,0,0,0
-130.51,28.19,-65.38,3918,-6646,3040,-1,0,0
-130.51,28.20,-65.38,3916,-6653,3031,0,0,-1
-130.51,28.19,-65.37,3917,-6657,3042,0,0,-1
-130.51,28.19,-65.37,3927,-6662,3050,0,0,0
-130.51,28.19,-65.37,3924,-6661,3053,-1,0,0
-130.51,28.19,-65.38,3930,-6662,3039,0,0,0
-130.51,28.19,-65.37,3928,-6650,3043,0,0,0
-130.51,28.19,-65.38,3931,-6655,3028,-1,0,-1
-130.50,28.19,-65.38,3925,-6649,3036,0,0,-1
-130.50,28.18,-65.37,3921,-6655,3036,-1,0,0
-130.49,28.18,-65.37,3920,-6649,3028,0,0,-1
-130.49,28.18,-65.36,3911,-6651,3017,0,0,-1
-130.49,28.18,-65.36,3899,-6643,3037,0,-1,0
-130.50,28.18,-65.37,3907,-6661,3039,-1,-1,-1
-130.49,28.18,-65.36,3927,-6653,3039,0,0,-1
-130.47,28.18,-65.34,3933,-6646,3047,0,0,-1
-130.47,28.17,-65.34,3921,-6639,3057,-1,-1,0
-130.48,28.17,-65.34,3916,-6639,3062,-1,0,0
-130.48,28.17,-65.34,3924,-6644,3054,-1,0,0
-130.47,28.16,-65.35,3921,-6667,3024,0,0,-1
-130.46,28.16,-65.34,3923,-6642,3037,0,0,-1
-130.45,28.16,-65.34,3910,-6636,3057,-1,0,-1
-130.46,28.15,-65.36,3925,-6650,3057,-1,0,0
-130.47,28.14,-65.36,3932,-6647,3051,-1,0,0
-130.47,28.13,-65.38,3943,-6657,3055,-1,0,0
-130.46,28.12,-65.37,3918,-6652,3027,-1,0,0
-130.46,28.10,-65.37,3903,-6661,3032,-1,0,0
-130.47,28.09,-65.38,3909,-6655,3041,-1,0,0
-130.48,28.08,-65.39,3953,-6671,3065,-1,0,0
-130.49,28.04,-65.41,3906,-6672,3013,-1,1,0
-130.49,28.02,-65.43,3890,-6667,3020,-1,0,0
-130.51,28.02,-65.45,3877,-6663,2995,-1,0,-1
-130.51,28.01,-65.46,3893,-6676,3022,-1,0,0
-130.51,28.00,-65.46,3921,-6654,3028,-1,0,0
-130.50,27.98,-65.46,3902,-6665,3036,-1,0,-1
-130.50,27.99,-65.48,3874,-6661,3008,-1,0,-1
-130.50,27.98,-65.49,3873,-6665,3022,-1,0,-1
-130.49,27.98,-65.50,3899,-6681,3028,-1,0,-1
-130.48,27.98,-65.50,3872,-6643,3045,-2,0,-1
-130.48,28.00,-65.53,3859,-6663,3008,-1,0,-1
-130.49,28.00,-65.54,3848,-6666,3003,-1,-1,-1
-130.48,28.02,-65.56,3892,-6671,3013,-1,-1,-1
-130.47,28.03,-65.56,3913,-6666,3036,-1,0,-1
-130.49,28.03,-65.58,3915,-6670,3026,-1,-1,0
-130.49,28.03,-65.59,3906,-6670,3015,-1,-1,0
-130.51,28.04,-65.61,3901,-6669,3017,-1,-1,0
-130.52,28.04,-65.62,3913,-6664,3026,-1,-1,0
-130.53,28.04,-65.63,3930,-6680,3026,-1,0,-1
-130.53,28.04,-65.65,3927,-6678,3019,-1,0,-1
-130.52,28.04,-65.64,3907,-6666,3011,-1,0,-1
-130.51,28.05,-65.65,3912,-6668,2994,-1,0,-1
-130.51,28.06,-65.66,3909,-6677,2991,-1,0,-1
-130.50,28.06,-65.66,3901,-6676,2986,-1,0,-1
-130.48,28.06,-65.66,3898,-6684,2987,0,0,-1
-130.47,28.06,-65.65,3890,-6676,2998,0,0,-1
-130.48,28.05,-65.65,3890,-6691,2990,-1,0,-1
-130.46,28.06,-65.65,3890,-6685,2989,0,0,-1
-130.47,28.06,-65.64,3891,-6691,2994,0,-1,-1
-130.46,28.07,-65.63,3892,-6689,3003,0,-1,0
-130.47,28.07,-65.63,3897,-6681,3006,0,-1,-1
-130.46,28.07,-65.62,3909,-6673,3004,0,-1,-1
-130.45,28.08,-65.60,3913,-6667,3011,0,-1,-1
-130.43,28.09,-65.58,3914,-6663,3025,0,-1,-1
-130.42,28.09,-65.57,3913,-6662,3017,0,-1,-1
-130.41,28.10,-65.55,3914,-6667,3014,0,-1,-1
-130.40,28.11,-65.54,3907,-6656,3011,0,-1,-1
-130.40,28.12,-65.53,3915,-6667,3010,0,-1,-1
-130.39,28.13,-65.53,3917,-6666,3015,0,-1,-1
-130.38,28.13,-65.51,3924,-6662,3018,0,-1,-1
-130.38,28.14,-65.50,3914,-6661,3021,0,-1,0
-130.39,28.14,-65.50,3918,-6660,3028,0,-1,0
-130.40,28.14,-65.50,3909,-6658,3031,0,-1,0
-130.39,28.14,-65.49,3916,-6661,3028,0,-1,0
-130.39,28.15,-65.48,3919,-6655,3025,0,-1,0
-130.40,28.15,-65.49,3916,-6658,3026,0,-1,0
