Yaw,Pitch,Roll,AX,AY,AZ,GX,GY,GZ
-157.14,26.36,-80.13,3698,-7361,1268,0,-1,-1
-157.13,26.37,-80.13,3692,-7359,1264,0,-1,-1
-157.14,26.37,-80.12,3693,-7357,1268,0,-1,-1
-157.14,26.37,-80.11,3699,-7345,1268,0,0,-1
-157.13,26.38,-80.10,3703,-7351,1274,-1,0,-1
-157.13,26.39,-80.10,3709,-7352,1265,0,0,-1
-157.13,26.39,-80.08,3714,-7342,1290,-1,0,0
-157.14,26.37,-80.09,3707,-7356,1269,0,0,-1
-157.14,26.37,-80.08,3703,-7341,1284,-1,0,0
-157.16,26.35,-80.08,3688,-7343,1307,-1,-1,0
-157.16,26.35,-80.10,3705,-7345,1290,-1,-1,0
-157.15,26.35,-80.11,3682,-7352,1271,-1,0,-1
-157.15,26.35,-80.11,3677,-7346,1287,-1,-1,-1
-157.15,26.35,-80.13,3681,-7356,1279,-1,0,-1
-157.14,26.35,-80.14,3701,-7348,1291,-1,-1,-1
-157.13,26.36,-80.15,3704,-7356,1278,-1,0,-1
-157.11,26.37,-80.16,3718,-7363,1260,-1,0,-1
-157.11,26.37,-80.16,3713,-7354,1270,-1,0,0
-157.11,26.37,-80.15,3715,-7359,1259,-1,-1,0
-157.11,26.36,-80.17,3697,-7362,1248,-1,0,0
-157.12,26.36,-80.16,3704,-7344,1278,0,0,0
-157.13,26.35,-80.15,3687,-7349,1282,-1,0,0
-157.14,26.34,-80.15,3679,-7357,1278,0,0,0
-157.14,26.34,-80.14,3695,-7357,1303,0,0,0
-157.14,26.34,-80.14,3677,-7358,1297,-1,0,-1
-157.14,26.34,-80.14,3681,-7359,1286,-1,0,-1
-157.13,26.34,-80.14,3682,-7341,1286,-1,0,-1
-157.12,26.35,-80.15,3693,-7347,1288,-1,-1,-1
-157.11,26.36,-80.17,3722,-7365,1266,-1,0,-1
-157.11,26.36,-80.16,3712,-7363,1269,0,0,-1
-157.11,26.36,-80.16,3714,-7354,1260,0,0,0
-157.12,26.35,-80.15,3706,-7356,1273,0,0,0
-157.13,26.34,-80.15,3691,-7348,1282,-1,0,0
-157.14,26.33,-80.14,3676,-7348,1282,0,0,0
-157.14,26.33,-80.15,3690,-7349,1279,-1,0,-1
-157.13,26.34,-80.15,3686,-7353,1283,0,0,-1
-157.13,26.34,-80.14,3702,-7358,1283,-1,-1,-1
-157.12,26.35,-80.14,3710,-7357,1282,0,0,-1
-157.11,26.36,-80.14,3707,-7347,1284,-1,0,-1
-157.11,26.35,-80.15,3700,-7347,1289,-1,0,-1
-157.11,26.36,-80.15,3698,-7342,1284,-1,0,0
-157.11,26.35,-80.15,3693,-7342,1265,-1,0,0
-157.11,26.35,-80.15,3683,-7338,1260,0,0,0
-157.12,26.34,-80.16,3692,-7347,1268,-1,0,0
-157.13,26.33,-80.16,3690,-7364,1270,0,0,0
-157.13,26.32,-80.16,3685,-7364,1270,-1,0,0
-157.14,26.32,-80.16,3662,-7362,1257,0,0,-1
-157.13,26.32,-80.17,3676,-7352,1273,-1,-1,-1
-157.12,26.33,-80.17,3689,-7353,1285,-1,0,-1
-157.12,26.33,-80.16,3687,-7352,1276,-1,0,-1
-157.12,26.33,-80.16,3691,-7364,1269,0,0,-1
-157.12,26.33,-80.15,3689,-7349,1273,0,0,-1
-157.12,26.33,-80.15,3695,-7347,1278,-1,0,0
-157.12,26.33,-80.15,3695,-7350,1276,0,0,0
-157.12,26.33,-80.15,3688,-7348,1275,-1,0,0
-157.12,26.32,-80.16,3689,-7353,1280,0,0,0
-157.12,26.32,-80.16,3691,-7345,1282,-1,0,0
-157.12,26.32,-80.16,3689,-7349,1279,-1,-1,0
-157.12,26.32,-80.17,3689,-7355,1272,-1,0,-1
-157.12,26.32,-80.17,3687,-7358,1278,-1,-1,-1
-157.12,26.32,-80.17,3691,-7363,1280,-1,0,0
-157.13,26.32,-80.17,3687,-7358,1269,-1,0,0
-157.13,26.32,-80.17,3698,-7356,1268,0,-1,0
-157.13,26.32,-80.17,3702,-7360,1267,-1,0,0
-157.12,26.31,-80.18,3698,-7363,1262,0,0,-1
-157.13,26.32,-80.17,3702,-7363,1269,0,0,0
-157.13,26.31,-80.17,3683,-7363,1270,0,0,0
-157.14,26.31,-80.16,3679,-7364,1287,0,-1,-1
-157.14,26.31,-80.16,3676,-7360,1282,0,-1,-1
-157.13,26.31,-80.15,3686,-7352,1280,0,-1,-1
-157.13,26.31,-80.15,3691,-7346,1294,0,0,-1
-157.13,26.32,-80.15,3693,-7345,1291,-1,-1,0
-157.13,26.32,-80.15,3692,-7351,1294,-1,-1,0
-157.14,26.32,-80.15,3691,-7357,1278,0,-1,0
-157.13,26.32,-80.15,3694,-7355,1273,0,-1,-1
-157.14,26.32,-80.14,3698,-7363,1268,0,-1,-1
-157.14,26.32,-80.15,3701,-7361,1264,0,-1,-1
-157.13,26.33,-80.14,3697,-7358,1267,0,-1,-1
-157.13,26.33,-80.14,3690,-7352,1270,0,-1,0
-157.14,26.32,-80.15,3686,-7354,1278,0,-1,0
-157.14,26.32,-80.14,3695,-7362,1281,0,-1,0
-157.15,26.32,-80.13,3694,-7358,1288,0,-1,-1
-157.14,26.33,-80.13,3686,-7352,1283,0,-1,-1
-157.14,26.33,-80.13,3690,-7351,1290,0,-1,-1
-157.14,26.33,-80.12,3701,-7348,1290,0,-1,0
-157.14,26.33,-80.12,3704,-7362,1277,0,-1,-1
-157.14,26.33,-80.12,3692,-7361,1287,0,-1,0
-157.14,26.34,-80.12,3689,-7360,1284,0,-1,-1
-157.14,26.34,-80.12,3692,-7362,1284,0,-1,-1
-157.14,26.34,-80.12,3691,-7356,1279,0,-1,0
-157.15,26.33,-80.11,3689,-7354,1284,0,-1,-1
-157.14,26.34,-80.11,3695,-7348,1281,0,-1,-1
-157.14,26.35,-80.12,3702,-7361,1276,0,-1,0
-157.13,26.35,-80.11,3705,-7355,1286,-1,-1,-1
-157.13,26.35,-80.11,3698,-7360,1283,0,-1,0
-157.13,26.35,-80.11,3697,-7356,1281,0,-1,-1
-157.14,26.35,-80.11,3693,-7359,1285,0,-1,-1
-157.14,26.35,-80.11,3689,-7361,1282,0,-1,0
-157.14,26.35,-80.11,3693,-7363,1276,0,-1,0
-157.15,26.35,-80.11,3698,-7356,1277,0,-1,0
-157.14,26.35,-80.11,3701,-7356,1279,0,-1,-1
-157.14,26.36,-80.11,3707,-7355,1283,0,-1,-1
-157.14,26.36,-80.11,3703,-7352,1284,0,-1,0
-157.14,26.35,-80.11,3694,-7344,1279,0,-1,0
-157.14,26.36,-80.11,3699,-7348,1292,-1,-1,0
-157.14,26.36,-80.12,3693,-7340,1285,-1,-1,-1
-157.14,26.36,-80.12,3693,-7339,1282,-1,-1,0
-157.14,26.36,-80.12,3700,-7337,1277,-1,-1,0
-157.14,26.36,-80.14,3699,-7360,1266,-1,-1,-1
-157.14,26.35,-80.14,3700,-7370,1262,0,-1,0
-157.14,26.35,-80.14,3689,-7358,1266,0,-1,0
-157.15,26.35,-80.13,3689,-7351,1270,0,-1,-1
-157.15,26.35,-80.14,3698,-7350,1273,0,-1,-1
-157.14,26.36,-80.13,3702,-7348,1266,0,0,-1
-157.14,26.37,-80.12,3698,-7350,1278,0,-1,-1
-157.13,26.37,-80.12,3701,-7350,1279,0,0,-1
-157.14,26.37,-80.11,3702,-7349,1290,0,-1,0
-157.14,26.37,-80.11,3705,-7345,1279,0,-1,0
-157.15,26.37,-80.11,3701,-7336,1281,0,-1,0
-157.15,26.37,-80.11,3699,-7348,1287,0,-1,0
-157.15,26.37,-80.11,3693,-7345,1282,-1,-1,0
-157.14,26.37,-80.12,3698,-7343,1269,-1,-1,0
-157.14,26.36,-80.14,3693,-7350,1264,-1,-1,0
-157.14,26.36,-80.14,3698,-7350,1270,-1,-1,0
-157.14,26.37,-80.15,3705,-7352,1263,-1,-1,-1
-157.13,26.37,-80.15,3711,-7353,1263,0,-1,-1
-157.13,26.37,-80.15,3709,-7354,1261,0,-1,-1
-157.13,26.38,-80.15,3708,-7356,1263,0,-1,-1
-157.13,26.37,-80.15,3703,-7354,1271,0,0,0
-157.14,26.37,-80.15,3702,-7349,1276,0,-1,0
-157.14,26.37,-80.15,3698,-7346,1273,0,-1,0
-157.15,26.36,-80.14,3688,-7352,1273,0,-1,0
-157.15,26.36,-80.14,3696,-7351,1276,0,-1,-1
-157.15,26.36,-80.14,3686,-7344,1282,0,-1,-1
-157.15,26.36,-80.14,3702,-7353,1278,-1,-1,-1
-157.14,26.37,-80.14,3704,-7361,1268,0,0,-1
-157.14,26.37,-80.14,3715,-7365,1283,-1,-1,-1
-157.15,26.37,-80.12,3699,-7359,1278,0,0,0
-157.14,26.38,-80.13,3705,-7341,1289,0,-1,-1
-157.15,26.37,-80.13,3707,-7344,1298,-1,0,0
-157.16,26.36,-80.13,3676,-7343,1284,0,-1,0
-157.16,26.36,-80.14,3710,-7347,1282,-1,0,0
-157.16,26.36,-80.14,3684,-7352,1297,-1,-1,0
-157.16,26.36,-80.16,3716,-7361,1273,0,-1,0
-157.17,26.35,-80.14,3701,-7361,1300,-1,-1,0
-157.17,26.34,-80.18,3710,-7378,1238,-1,-1,0
-157.18,26.34,-80.14,3703,-7348,1294,0,0,0
-157.17,26.34,-80.17,3691,-7357,1249,-1,-1,0
-157.19,26.33,-80.16,3696,-7371,1260,0,-1,0
-157.19,26.33,-80.15,3689,-7352,1286,0,0,0
-157.19,26.33,-80.16,3705,-7352,1279,-1,-1,-1
-157.20,26.32,-80.15,3690,-7343,1274,0,0,0
-157.21,26.31,-80.15,3672,-7352,1296,-1,-1,0
-157.19,26.32,-80.18,3712,-7355,1248,-1,-1,-1
-157.21,26.31,-80.14,3658,-7345,1324,0,0,0
-157.22,26.30,-80.17,3695,-7356,1275,-2,-2,0
-157.21,26.30,-80.18,3664,-7366,1274,0,0,0
-157.20,26.30,-80.20,3704,-7370,1287,-1,-1,-1
-157.23,26.28,-80.20,3661,-7352,1284,0,-1,0
-157.20,26.30,-80.22,3737,-7355,1302,-1,-1,0
-157.21,26.28,-80.24,3680,-7376,1249,-1,1,-1
-157.23,26.27,-80.21,3675,-7356,1298,0,-2,0
-157.22,26.27,-80.25,3708,-7339,1240,-1,0,0
-157.23,26.26,-80.25,3659,-7365,1278,-1,-1,-1
-157.22,26.27,-80.26,3683,-7360,1231,0,-1,0
-157.23,26.26,-80.25,3675,-7361,1277,0,0,-1
-157.22,26.27,-80.26,3701,-7384,1238,-1,-1,0
-157.23,26.26,-80.25,3674,-7375,1250,1,0,-1
-157.23,26.27,-80.24,3706,-7369,1274,-1,-1,-1
-157.22,26.28,-80.24,3698,-7384,1248,0,0,-1
-157.22,26.28,-80.21,3684,-7362,1262,0,-1,-1
-157.22,26.29,-80.20,3685,-7359,1279,0,0,-1
-157.21,26.30,-80.20,3695,-7358,1273,-1,0,-1
-157.21,26.30,-80.20,3695,-7358,1254,0,0,-1
-157.21,26.30,-80.20,3694,-7352,1275,0,-1,-1
-157.21,26.31,-80.19,3705,-7360,1273,-1,0,-1
-157.21,26.31,-80.18,3687,-7353,1293,-1,0,-1
-157.20,26.31,-80.18,3680,-7348,1300,-1,-1,-1
-157.19,26.32,-80.20,3683,-7347,1291,-1,0,-1
-157.19,26.32,-80.19,3683,-7351,1293,-1,0,-1
-157.17,26.33,-80.20,3680,-7352,1291,-1,-1,-1
-157.16,26.34,-80.20,3696,-7358,1273,-1,0,-1
-157.16,26.34,-80.20,3698,-7362,1272,-1,0,-1
-157.16,26.34,-80.21,3708,-7359,1271,-1,0,0
-157.15,26.34,-80.21,3707,-7362,1254,0,0,-1
-157.16,26.35,-80.20,3696,-7361,1275,0,0,-1
-157.16,26.34,-80.20,3694,-7364,1260,0,0,-1
-157.16,26.34,-80.19,3686,-7364,1260,0,0,-1
-157.16,26.34,-80.18,3689,-7367,1260,0,0,-1
-157.17,26.34,-80.17,3696,-7364,1264,0,0,-1
-157.17,26.34,-80.17,3690,-7363,1267,0,0,-1
-157.17,26.34,-80.16,3693,-7361,1272,0,0,-1
-157.16,26.35,-80.16,3697,-7360,1260,0,0,-1
-157.17,26.35,-80.14,3710,-7354,1295,-1,0,-1
-157.17,26.35,-80.14,3699,-7345,1306,-1,0,-1
-157.16,26.35,-80.14,3699,-7342,1292,-1,0,-1
-157.15,26.35,-80.15,3711,-7349,1272,-1,0,0
-157.16,26.35,-80.15,3710,-7345,1274,0,0,0
-157.16,26.35,-80.14,3696,-7333,1293,0,0,0
-157.16,26.34,-80.14,3705,-7340,1280,-1,-1,0
-157.17,26.34,-80.15,3700,-7344,1283,-1,0,0
-157.17,26.34,-80.15,3681,-7349,1277,-1,-1,0
-157.17,26.34,-80.16,3682,-7355,1271,-1,0,0
-157.16,26.33,-80.18,3690,-7354,1265,-1,-1,0
-157.16,26.33,-80.19,3689,-7362,1253,-1,0,-1
-157.16,26.33,-80.19,3701,-7360,1257,-1,0,0
-157.15,26.33,-80.20,3709,-7369,1256,-1,0,-1
-157.15,26.34,-80.19,3712,-7374,1257,0,0,-1
-157.15,26.34,-80.18,3710,-7372,1260,0,0,-1
-157.15,26.34,-80.18,3699,-7368,1260,0,0,-1
-157.15,26.35,-80.16,3708,-7360,1270,0,0,-1
-157.15,26.35,-80.16,3702,-7355,1275,0,0,-1
-157.15,26.35,-80.16,3695,-7344,1280,-1,0,0
-157.15,26.34,-80.15,3686,-7347,1277,0,0,0
-157.16,26.34,-80.15,3695,-7352,1283,-1,0,0
-157.16,26.33,-80.16,3685,-7361,1279,-1,0,0
-157.17,26.32,-80.15,3685,-7365,1283,-1,0,0
-157.16,26.33,-80.16,3690,-7368,1276,-1,0,-1
-157.17,26.32,-80.16,3688,-7363,1277,-1,0,-1
-157.15,26.33,-80.17,3690,-7356,1263,-1,0,-1
-157.15,26.33,-80.18,3700,-7354,1263,-1,0,0
-157.15,26.33,-80.18,3700,-7351,1257,-1,0,0
-157.16,26.32,-80.18,3699,-7360,1270,-1,0,0
-157.15,26.33,-80.19,3700,-7351,1268,-1,0,0
-157.16,26.32,-80.18,3694,-7359,1273,0,-1,0
-157.16,26.32,-80.17,3687,-7360,1276,0,0,0
-157.16,26.32,-80.17,3695,-7358,1284,-1,-1,0
-157.16,26.32,-80.17,3698,-7359,1279,0,0,-1
-157.17,26.32,-80.16,3684,-7353,1284,0,-1,-1
-157.17,26.32,-80.16,3685,-7349,1278,0,-1,-1
-157.17,26.32,-80.16,3689,-7351,1273,0,-1,-1
-157.17,26.32,-80.16,3693,-7354,1276,0,-1,-1
-157.16,26.33,-80.15,3695,-7350,1278,0,-1,-1
-157.16,26.33,-80.15,3699,-7354,1277,0,-1,-1
-157.16,26.33,-80.15,3698,-7353,1267,0,-1,-1
-157.16,26.33,-80.16,3698,-7356,1266,0,-1,0
-157.16,26.33,-80.15,3689,-7364,1275,0,-1,0
-157.17,26.33,-80.15,3691,-7364,1276,0,-1,0
-157.17,26.33,-80.16,3691,-7361,1277,0,-1,-1
-157.17,26.33,-80.16,3683,-7366,1277,0,-1,0
-157.17,26.33,-80.16,3692,-7366,1278,0,-1,-1
-157.16,26.34,-80.16,3698,-7364,1279,0,-1,-1
-157.17,26.34,-80.15,3704,-7367,1266,0,-1,-1
-157.17,26.34,-80.15,3702,-7370,1270,0,-1,-1
-157.17,26.34,-80.14,3700,-7368,1270,0,-1,0
-157.17,26.34,-80.14,3701,-7360,1283,0,-1,-1
-157.17,26.34,-80.14,3692,-7352,1274,0,-1,-1
-157.17,26.34,-80.14,3691,-7349,1277,0,-1,-1
-157.17,26.34,-80.14,3686,-7345,1271,0,-1,-1
-157.17,26.35,-80.13,3694,-7341,1279,-1,-1,0
-157.17,26.35,-80.14,3700,-7352,1288,0,-1,0
-157.17,26.35,-80.14,3696,-7356,1287,-1,-1,0
-157.17,26.34,-80.14,3683,-7355,1281,-1,-1,0
-157.17,26.35,-80.15,3685,-7351,1270,0,-1,-1
-157.16,26.35,-80.15,3695,-7346,1275,-1,-1,-1
-157.16,26.36,-80.16,3708,-7351,1276,-1,-1,-1
-157.15,26.37,-80.16,3712,-7363,1263,0,-1,-1
-157.15,26.37,-80.16,3710,-7355,1261,0,0,-1
-157.15,26.37,-80.15,3709,-7356,1266,0,-1,0
-157.16,26.36,-80.14,3705,-7348,1266,0,0,0
-157.16,26.36,-80.14,3686,-7345,1286,0,-1,0
-157.17,26.36,-80.13,3683,-7344,1294,0,-1,0
-157.17,26.36,-80.13,3690,-7355,1291,0,-1,0
-157.18,26.35,-80.13,3690,-7355,1291,0,-1,-1
-157.18,26.35,-80.13,3691,-7357,1292,-1,-1,-1
-157.17,26.36,-80.13,3691,-7356,1286,-1,-1,-1
-157.17,26.36,-80.14,3691,-7358,1279,-1,-1,-1
-157.16,26.36,-80.15,3698,-7352,1269,-1,-1,0
-157.16,26.36,-80.17,3693,-7351,1277,-1,-1,0
-157.16,26.36,-80.18,3703,-7365,1263,-1,-1,0
-157.16,26.35,-80.18,3702,-7369,1267,0,-1,0
-157.16,26.36,-80.19,3710,-7373,1259,0,-1,-1
-157.16,26.36,-80.18,3706,-7367,1280,0,-1,-1
-157.16,26.36,-80.18,3709,-7359,1272,0,0,0
-157.17,26.36,-80.17,3702,-7360,1268,0,-1,-1
-157.17,26.36,-80.15,3700,-7353,1276,0,0,0
-157.17,26.36,-80.15,3698,-7346,1288,0,-1,-1
-157.17,26.36,-80.14,3687,-7340,1293,0,-1,-1
-157.17,26.36,-80.14,3691,-7343,1296,-1,-1,-1
-157.17,26.36,-80.14,3688,-7347,1292,-1,-1,-1
-157.16,26.37,-80.16,3700,-7351,1285,-1,-1,0
-157.16,26.37,-80.16,3698,-7351,1286,-1,-1,0
-157.17,26.36,-80.16,3700,-7346,1282,-1,-1,0
-157.16,26.37,-80.16,3704,-7354,1280,0,-1,-1
-157.16,26.37,-80.16,3699,-7349,1268,0,0,-1
-157.16,26.37,-80.16,3698,-7353,1273,-1,-1,-1
-157.16,26.37,-80.17,3704,-7359,1272,0,-1,-1
-157.16,26.37,-80.17,3707,-7364,1272,-1,-1,0
-157.16,26.37,-80.17,3702,-7357,1272,0,-1,0
-157.16,26.37,-80.17,3703,-7360,1275,0,-1,0
-157.17,26.37,-80.16,3702,-7354,1285,0,-1,0
-157.17,26.37,-80.16,3691,-7350,1275,0,0,0
-157.17,26.37,-80.16,3690,-7341,1275,0,0,-1
-157.17,26.37,-80.16,3696,-7344,1273,-1,-1,-1
-157.17,26.37,-80.16,3699,-7341,1269,0,-1,-1
-157.16,26.37,-80.16,3705,-7346,1271,-1,-1,-1
-157.16,26.38,-80.16,3712,-7341,1265,-1,0,0
-157.16,26.38,-80.16,3708,-7342,1262,-1,-1,0
-157.15,26.38,-80.17,3713,-7347,1266,0,-1,0
-157.15,26.38,-80.17,3707,-7351,1257,-1,-1,0
-157.16,26.38,-80.17,3715,-7351,1263,0,0,0
-157.16,26.38,-80.17,3706,-7346,1278,-1,-1,0
-157.16,26.37,-80.17,3701,-7338,1267,-1,-1,0
-157.16,26.38,-80.17,3704,-7350,1265,0,-1,0
-157.16,26.37,-80.17,3691,-7356,1272,0,-1,0
-157.16,26.37,-80.18,3690,-7343,1270,0,-1,-1
-157.17,26.37,-80.17,3692,-7347,1280,0,-1,-1
-157.16,26.38,-80.17,3700,-7343,1274,0,-1,-1
-157.16,26.38,-80.17,3699,-7345,1268,0,0,-1
-157.16,26.38,-80.17,3707,-7351,1271,0,0,-1
-157.16,26.38,-80.16,3705,-7349,1270,0,-1,0
-157.16,26.38,-80.16,3709,-7355,1263,0,0,0
-157.17,26.38,-80.16,3704,-7350,1271,0,-1,0
-157.17,26.38,-80.17,3702,-7346,1260,-1,-1,0
-157.17,26.38,-80.17,3691,-7343,1277,0,-1,0
-157.17,26.37,-80.17,3701,-7346,1276,-1,-1,-1
-157.17,26.38,-80.17,3705,-7346,1283,-1,-1,0
-157.16,26.38,-80.17,3713,-7350,1273,0,-1,-1
-157.16,26.38,-80.17,3711,-7344,1277,0,-1,-1
-157.16,26.39,-80.17,3708,-7345,1268,-1,-1,-1
-157.16,26.38,-80.17,3710,-7348,1268,0,-1,-1
-157.16,26.39,-80.18,3714,-7353,1263,0,0,0
-157.16,26.38,-80.17,3711,-7346,1278,0,-1,0
-157.16,26.39,-80.16,3704,-7355,1278,-1,-1,0
-157.16,26.39,-80.17,3705,-7360,1279,0,-1,0
-157.16,26.39,-80.17,3694,-7356,1274,0,-1,-1
-157.16,26.39,-80.16,3702,-7357,1278,0,-1,-1
-157.17,26.39,-80.15,3694,-7347,1284,0,-1,-1
-157.16,26.39,-80.16,3702,-7349,1280,-1,-1,0
-157.16,26.39,-80.17,3708,-7358,1278,0,-1,-1
-157.16,26.39,-80.17,3703,-7358,1275,0,-1,0
-157.17,26.38,-80.17,3692,-7355,1274,0,-1,0
-157.17,26.38,-80.16,3684,-7360,1281,0,-1,-1
-157.18,26.38,-80.16,3693,-7363,1277,0,-1,-1
-157.17,26.38,-80.16,3702,-7361,1272,0,-1,-1
-157.16,26.39,-80.17,3707,-7361,1264,0,0,-1
-157.16,26.40,-80.16,3710,-7359,1272,0,0,-1
-157.16,26.40,-80.15,3712,-7349,1279,0,0,-1
-157.16,26.40,-80.15,3711,-7343,1288,0,0,-1
-157.16,26.40,-80.14,3706,-7346,1289,-1,-1,0
-157.16,26.40,-80.14,3707,-7343,1291,-1,-1,0
-157.16,26.39,-80.15,3692,-7341,1291,-1,0,0
-157.16,26.39,-80.17,3697,-7353,1273,-1,-1,0
-157.16,26.39,-80.18,3704,-7354,1266,-1,0,0
-157.16,26.39,-80.18,3702,-7349,1285,-1,0,0
-157.15,26.38,-80.20,3721,-7362,1273,-1,0,0
-157.16,26.37,-80.20,3697,-7355,1274,-1,0,0
-157.16,26.37,-80.20,3719,-7367,1292,-2,-1,0
-157.16,26.36,-80.22,3714,-7376,1237,0,1,0
-157.19,26.34,-80.18,3688,-7352,1301,-1,-1,-1
-157.18,26.34,-80.21,3700,-7380,1250,-1,0,0
-157.18,26.34,-80.20,3700,-7361,1264,0,0,0
-157.19,26.33,-80.18,3691,-7329,1307,-1,0,-1
-157.17,26.34,-80.22,3696,-7352,1260,-2,-1,-1
-157.18,26.34,-80.20,3703,-7325,1291,0,0,0
-157.18,26.33,-80.22,3700,-7353,1260,-2,-1,0
-157.19,26.31,-80.21,3682,-7339,1257,1,1,0
-157.21,26.31,-80.22,3680,-7360,1283,-1,-2,0
-157.20,26.31,-80.23,3686,-7344,1273,-1,1,0
-157.21,26.30,-80.22,3670,-7363,1275,-1,-2,-1
-157.19,26.31,-80.23,3711,-7338,1288,-1,0,0
-157.18,26.30,-80.26,3689,-7389,1228,-1,0,-1
-157.18,26.31,-80.24,3706,-7355,1242,0,0,0
-157.20,26.29,-80.23,3668,-7342,1285,-1,-1,0
-157.19,26.30,-80.26,3700,-7380,1239,-1,-1,-1
-157.20,26.30,-80.23,3698,-7376,1273,0,0,0
-157.21,26.29,-80.24,3685,-7372,1259,-1,-1,-1
-157.21,26.29,-80.23,3686,-7357,1275,-1,0,-1
-157.21,26.29,-80.23,3687,-7360,1269,0,-1,-1
-157.20,26.29,-80.23,3684,-7368,1257,0,0,-1
-157.20,26.30,-80.22,3685,-7352,1279,-1,-1,0
-157.21,26.29,-80.22,3684,-7353,1267,-1,0,-1
-157.19,26.30,-80.23,3690,-7355,1270,0,0,-1
-157.18,26.30,-80.24,3703,-7385,1236,-1,-1,-1
-157.19,26.30,-80.24,3694,-7362,1258,0,-1,0
-157.19,26.30,-80.23,3705,-7328,1298,-1,-1,0
-157.20,26.29,-80.26,3715,-7344,1258,-1,-1,0
-157.22,26.27,-80.25,3682,-7339,1276,0,0,0
-157.22,26.26,-80.26,3679,-7354,1270,-1,-1,0
-157.23,26.25,-80.26,3685,-7369,1277,0,0,0
-157.23,26.25,-80.26,3668,-7358,1266,-1,0,-1
-157.24,26.24,-80.26,3670,-7386,1260,-1,-1,0
-157.24,26.23,-80.27,3681,-7385,1256,0,-1,-1
-157.24,26.24,-80.26,3679,-7365,1282,-1,0,0
-157.24,26.23,-80.28,3676,-7369,1243,-1,-1,0
-157.24,26.23,-80.29,3718,-7375,1269,-1,0,0
-157.25,26.21,-80.29,3688,-7365,1237,0,0,0
-157.26,26.21,-80.29,3729,-7363,1280,-1,-1,0
-157.30,26.17,-80.29,3665,-7352,1261,0,0,0
-157.30,26.17,-80.28,3668,-7340,1298,-1,0,0
-157.31,26.15,-80.31,3657,-7372,1239,-1,-1,-1
-157.32,26.16,-80.29,3696,-7367,1293,0,0,0
-157.32,26.15,-80.29,3643,-7375,1282,-1,-1,-1
-157.30,26.16,-80.32,3685,-7381,1250,-1,0,-1
-157.30,26.17,-80.30,3657,-7360,1281,-1,-1,-1
-157.28,26.17,-80.32,3685,-7357,1228,0,0,0
-157.29,26.17,-80.30,3670,-7362,1274,0,-1,-1
-157.28,26.18,-80.31,3682,-7367,1240,0,0,0
-157.30,26.17,-80.29,3658,-7366,1267,0,-1,-1
-157.28,26.18,-80.29,3687,-7383,1256,0,0,-1
-157.29,26.19,-80.28,3678,-7366,1261,0,0,-1
-157.28,26.20,-80.27,3674,-7371,1254,0,-1,-1
-157.27,26.21,-80.25,3671,-7363,1266,0,0,-1
-157.26,26.22,-80.24,3676,-7349,1279,-1,-1,-1
-157.25,26.23,-80.24,3680,-7361,1275,0,-1,-1
-157.24,26.24,-80.24,3691,-7363,1274,-1,-1,-1
-157.24,26.25,-80.24,3692,-7358,1266,0,0,-1
-157.23,26.25,-80.24,3682,-7352,1265,-1,0,-1
-157.24,26.25,-80.24,3685,-7349,1275,0,0,-1
-157.24,26.25,-80.24,3683,-7358,1276,-1,-1,-1
-157.23,26.26,-80.24,3692,-7361,1266,-1,-1,-1
-157.22,26.26,-80.24,3690,-7367,1267,-1,-1,-1
-157.22,26.26,-80.25,3685,-7371,1256,-1,-1,-1
-157.22,26.26,-80.25,3683,-7368,1242,0,-1,-1
-157.22,26.26,-80.24,3695,-7356,1249,0,-1,0
-157.22,26.27,-80.24,3701,-7353,1259,0,0,0
-157.22,26.27,-80.23,3696,-7355,1263,0,-1,-1
-157.22,26.28,-80.22,3702,-7357,1265,0,0,-1
-157.22,26.28,-80.22,3684,-7358,1261,0,-1,-1
-157.22,26.28,-80.21,3683,-7364,1262,0,-1,-1
-157.22,26.28,-80.21,3683,-7354,1266,0,-1,-1
-157.21,26.29,-80.21,3689,-7353,1267,0,-1,-1
-157.21,26.29,-80.21,3688,-7348,1275,-1,-1,-1
-157.21,26.29,-80.21,3681,-7352,1271,0,-1,-1
-157.20,26.30,-80.22,3691,-7359,1268,-1,-1,-1
-157.20,26.30,-80.22,3698,-7364,1267,0,-1,-1
-157.20,26.30,-80.22,3699,-7355,1272,-1,-1,-1
-157.19,26.31,-80.22,3695,-7357,1279,-1,-1,-1
-157.19,26.31,-80.23,3700,-7362,1270,-1,-1,-1
-157.18,26.31,-80.23,3695,-7360,1269,0,-1,-1
-157.18,26.31,-80.24,3696,-7359,1264,-1,-1,0
-157.18,26.31,-80.24,3692,-7362,1264,0,-1,-1
-157.19,26.31,-80.24,3688,-7369,1258,0,-1,-1
-157.18,26.32,-80.24,3687,-7359,1268,-1,-1,-1
-157.18,26.32,-80.25,3690,-7356,1263,-1,-1,-1
-157.18,26.32,-80.24,3696,-7355,1264,0,-1,-1
-157.18,26.32,-80.24,3705,-7351,1263,0,-1,0
-157.18,26.32,-80.25,3695,-7371,1261,0,-1,-1
-157.18,26.32,-80.24,3707,-7367,1259,0,-1,-1
-157.18,26.32,-80.24,3700,-7357,1267,0,-1,0
-157.18,26.32,-80.23,3699,-7352,1268,0,-1,-1
-157.18,26.32,-80.23,3699,-7355,1266,0,-1,-1
-157.18,26.33,-80.24,3698,-7351,1266,-1,-1,-1
-157.17,26.33,-80.24,3701,-7359,1266,-1,-1,-1
-157.17,26.33,-80.24,3697,-7354,1265,-1,-1,-1
-157.16,26.34,-80.24,3699,-7352,1259,-1,-1,0
-157.16,26.34,-80.25,3701,-7361,1263,-1,-1,0
-157.17,26.33,-80.25,3701,-7361,1264,-1,-1,0
-157.16,26.34,-80.26,3700,-7355,1267,0,-1,0
-157.17,26.33,-80.26,3700,-7360,1265,-1,-1,-1
-157.16,26.34,-80.26,3694,-7364,1265,0,-1,-1
-157.17,26.33,-80.26,3687,-7363,1246,0,-1,-1
-157.16,26.34,-80.27,3694,-7365,1258,0,-1,-1
-157.16,26.35,-80.26,3705,-7360,1268,0,-1,-1
-157.16,26.35,-80.26,3700,-7354,1267,0,-1,0
-157.16,26.34,-80.26,3698,-7356,1259,-1,-1,-1
-157.16,26.35,-80.26,3691,-7353,1264,0,0,-1
-157.16,26.34,-80.25,3689,-7351,1277,0,-1,-1
-157.16,26.35,-80.26,3692,-7351,1284,-1,-1,-1
-157.16,26.34,-80.26,3692,-7350,1273,0,-1,-1
-157.16,26.35,-80.26,3697,-7354,1278,0,-1,-1
-157.16,26.35,-80.26,3693,-7356,1280,-1,-1,0
-157.16,26.34,-80.26,3701,-7347,1279,-1,-1,0
-157.16,26.35,-80.27,3704,-7360,1272,0,-1,-1
-157.16,26.35,-80.27,3705,-7360,1264,0,-1,0
-157.16,26.35,-80.26,3702,-7355,1264,0,-1,-1
-157.15,26.36,-80.26,3700,-7358,1260,-1,-1,-1
-157.15,26.36,-80.26,3709,-7360,1270,0,-1,-1
-157.15,26.36,-80.26,3707,-7356,1269,0,-1,-1
-157.15,26.36,-80.26,3711,-7351,1261,0,-1,0
-157.16,26.36,-80.25,3712,-7350,1261,0,-1,0
-157.16,26.36,-80.25,3699,-7350,1262,-1,-1,0
-157.16,26.36,-80.25,3699,-7355,1262,-1,-1,-1
-157.16,26.35,-80.26,3691,-7356,1256,0,-1,-1
-157.16,26.36,-80.26,3696,-7353,1262,-1,-1,-1
-157.15,26.36,-80.26,3698,-7361,1265,-1,-1,-1
-157.14,26.37,-80.26,3705,-7358,1270,-1,-1,-1
-157.15,26.37,-80.25,3703,-7353,1269,0,-1,-1
-157.14,26.38,-80.26,3706,-7347,1269,-1,-1,0
-157.14,26.37,-80.27,3701,-7349,1264,-1,-1,0
-157.14,26.37,-80.27,3701,-7361,1260,-1,-1,0
-157.15,26.36,-80.26,3698,-7359,1266,-1,-1,0
-157.15,26.36,-80.26,3696,-7359,1256,0,-1,0
-157.15,26.36,-80.27,3700,-7359,1266,0,-1,0
-157.15,26.36,-80.27,3690,-7359,1266,0,-1,0
-157.16,26.36,-80.26,3696,-7352,1275,-1,-1,-1
-157.15,26.37,-80.26,3689,-7354,1264,0,0,-1
-157.15,26.37,-80.25,3696,-7349,1264,0,0,0
-157.15,26.37,-80.25,3701,-7347,1254,0,0,-1
-157.15,26.37,-80.25,3713,-7347,1267,-1,-1,0
-157.15,26.37,-80.24,3719,-7363,1268,0,0,0
-157.15,26.37,-80.24,3700,-7352,1276,-1,0,0
-157.16,26.36,-80.24,3688,-7352,1258,0,0,-1
-157.16,26.37,-80.23,3692,-7351,1278,0,-1,-1
-157.16,26.37,-80.22,3688,-7345,1283,0,-1,0
-157.16,26.37,-80.22,3692,-7337,1293,-1,-1,-1
-157.15,26.38,-80.23,3688,-7351,1286,-1,-1,-1
-157.16,26.37,-80.23,3697,-7359,1264,0,-1,0
-157.15,26.38,-80.23,3728,-7380,1263,0,0,-1
-157.15,26.38,-80.23,3738,-7367,1265,0,0,0
-157.17,26.36,-80.22,3689,-7351,1276,0,-1,0
-157.18,26.36,-80.22,3708,-7331,1291,-1,-1,0
-157.17,26.36,-80.23,3712,-7348,1272,-1,0,0
-157.20,26.34,-80.22,3667,-7356,1250,0,0,0
-157.21,26.34,-80.20,3658,-7342,1286,0,-1,0
-157.20,26.34,-80.22,3681,-7358,1277,0,-1,0
-157.20,26.34,-80.21,3677,-7364,1296,0,-1,-1
-157.19,26.35,-80.23,3711,-7387,1274,-1,-1,-1
-157.19,26.35,-80.22,3699,-7367,1268,0,0,0
-157.18,26.36,-80.22,3712,-7333,1291,-1,-1,-1
-157.16,26.37,-80.24,3739,-7330,1262,-1,0,-1
-157.16,26.37,-80.24,3709,-7327,1255,-1,0,0
-157.15,26.37,-80.26,3731,-7356,1234,0,0,0
-157.17,26.35,-80.25,3714,-7358,1253,-1,0,0
-157.19,26.33,-80.24,3675,-7347,1244,0,-1,0
-157.18,26.34,-80.25,3703,-7351,1266,-1,0,-1
-157.18,26.34,-80.25,3698,-7375,1245,0,0,-1
-157.20,26.33,-80.23,3678,-7350,1267,-1,0,0
-157.19,26.33,-80.25,3673,-7364,1252,-1,-1,-1
-157.19,26.34,-80.24,3687,-7356,1282,-1,0,-1
-157.18,26.34,-80.24,3702,-7354,1261,0,-1,-1
-157.18,26.34,-80.23,3684,-7368,1262,0,0,-1
-157.18,26.35,-80.22,3692,-7338,1286,0,-1,-1
-157.17,26.36,-80.23,3744,-7359,1281,-1,0,-1
-157.17,26.36,-80.22,3704,-7352,1269,-1,1,-1
-157.17,26.35,-80.21,3689,-7355,1264,0,0,-1
-157.17,26.35,-80.22,3693,-7346,1255,-1,-1,-1
-157.16,26.36,-80.22,3707,-7331,1273,0,0,0
-157.17,26.36,-80.20,3686,-7336,1294,-1,-1,0
-157.17,26.35,-80.22,3714,-7351,1269,-1,-1,0
-157.16,26.35,-80.22,3694,-7357,1267,-1,0,-1
-157.16,26.35,-80.23,3695,-7353,1265,-1,0,-1
-157.17,26.35,-80.23,3706,-7363,1272,0,0,0
-157.17,26.34,-80.22,3693,-7358,1270,-1,0,-1
-157.16,26.35,-80.23,3703,-7364,1270,-1,0,-1
-157.15,26.36,-80.22,3704,-7346,1269,0,0,-1
-157.15,26.36,-80.21,3710,-7339,1268,0,0,-1
-157.15,26.36,-80.21,3701,-7353,1268,-1,0,-1
-157.15,26.36,-80.21,3710,-7358,1264,0,0,-1
-157.15,26.36,-80.21,3690,-7349,1274,0,0,-1
-157.15,26.36,-80.20,3688,-7347,1268,-1,0,-1
-157.15,26.36,-80.20,3695,-7350,1269,-1,-1,-1
-157.14,26.36,-80.21,3707,-7353,1263,-1,0,-1
-157.14,26.36,-80.21,3698,-7347,1262,-1,0,-1
-157.14,26.36,-80.21,3691,-7336,1278,-1,0,0
-157.14,26.36,-80.21,3697,-7335,1283,-1,-1,0
-157.14,26.36,-80.23,3702,-7350,1260,-1,0,0
-157.13,26.36,-80.24,3707,-7360,1255,-1,0,0
-157.14,26.35,-80.25,3701,-7362,1261,-1,0,0
-157.14,26.35,-80.25,3698,-7365,1254,-1,0,0
-157.14,26.34,-80.25,3695,-7361,1255,-1,0,0
-157.14,26.34,-80.25,3696,-7355,1269,-1,0,0
-157.14,26.34,-80.25,3699,-7359,1269,-1,0,-1
-157.14,26.34,-80.25,3702,-7362,1258,0,0,0
-157.14,26.34,-80.24,3704,-7358,1266,0,0,-1
-157.14,26.34,-80.24,3709,-7359,1271,-1,0,-1
-157.14,26.34,-80.24,3696,-7354,1280,0,0,-1
-157.15,26.34,-80.23,3692,-7353,1282,-1,0,0
-157.15,26.33,-80.23,3700,-7347,1286,-1,0,0
-157.15,26.33,-80.23,3701,-7351,1271,0,0,0
-157.16,26.32,-80.23,3691,-7357,1273,0,0,0
-157.16,26.32,-80.22,3687,-7351,1277,-1,-1,0
-157.16,26.32,-80.22,3688,-7359,1263,-1,0,0
-157.16,26.32,-80.23,3687,-7352,1263,-1,-1,0
-157.16,26.32,-80.24,3697,-7356,1261,-1,0,0
-157.16,26.31,-80.24,3700,-7359,1267,-1,0,-1
-157.17,26.31,-80.23,3693,-7353,1274,0,0,0
-157.16,26.31,-80.23,3693,-7356,1263,-1,0,0
-157.17,26.31,-80.23,3688,-7358,1256,0,0,-1
-157.17,26.31,-80.23,3689,-7356,1267,0,0,-1
-157.17,26.31,-80.23,3688,-7365,1273,0,-1,-1
-157.17,26.31,-80.22,3688,-7358,1281,-1,-1,-1
-157.17,26.31,-80.23,3694,-7350,1272,-1,-1,-1
-157.16,26.32,-80.22,3690,-7344,1274,0,-1,0
-157.16,26.32,-80.22,3687,-7342,1285,-1,-1,0
-157.16,26.32,-80.22,3687,-7342,1279,0,-1,-1
-157.16,26.32,-80.22,3682,-7340,1282,-1,-1,0
-157.17,26.31,-80.22,3691,-7348,1273,0,-1,0
-157.17,26.31,-80.22,3694,-7350,1268,0,-1,0
-157.18,26.31,-80.23,3695,-7355,1251,0,-1,0
-157.17,26.32,-80.22,3699,-7359,1260,0,-1,0
-157.18,26.31,-80.22,3690,-7359,1267,0,-1,-1
-157.17,26.32,-80.22,3691,-7364,1270,0,-1,-1
-157.17,26.32,-80.22,3692,-7369,1270,0,-1,-1
-157.17,26.32,-80.21,3696,-7357,1272,0,-1,-1
-157.17,26.33,-80.20,3702,-7349,1276,0,-1,-1
-157.16,26.34,-80.20,3708,-7349,1274,0,-1,-1
-157.17,26.33,-80.19,3711,-7354,1277,0,-1,-1
-157.17,26.33,-80.19,3704,-7355,1278,0,-1,0
-157.17,26.33,-80.19,3697,-7351,1272,0,-1,0
-157.17,26.33,-80.19,3695,-7353,1283,0,-1,0
-157.17,26.33,-80.19,3688,-7354,1284,0,-1,0
-157.17,26.33,-80.19,3692,-7358,1285,-1,-1,-1
-157.17,26.33,-80.20,3691,-7358,1272,-1,-1,-1
-157.17,26.33,-80.21,3696,-7352,1259,-1,-1,0
-157.17,26.34,-80.22,3694,-7354,1270,-1,-1,-1
-157.16,26.34,-80.22,3709,-7357,1268,0,-1,0
-157.16,26.34,-80.22,3707,-7359,1264,0,-1,-1
-157.17,26.34,-80.22,3708,-7362,1268,0,-1,0
-157.16,26.34,-80.21,3703,-7364,1261,0,-1,0
-157.17,26.34,-80.21,3706,-7354,1265,0,-1,0
-157.17,26.34,-80.20,3699,-7352,1263,0,-1,-1
-157.16,26.34,-80.21,3694,-7345,1270,0,-1,0
-157.17,26.35,-80.20,3706,-7353,1265,0,-1,-1
-157.17,26.34,-80.20,3696,-7347,1274,0,-1,0
-157.17,26.35,-80.19,3694,-7342,1280,-1,-1,0
-157.17,26.34,-80.19,3691,-7351,1287,-1,-1,0
-157.17,26.35,-80.20,3698,-7352,1286,-1,-1,-1
-157.16,26.35,-80.21,3703,-7350,1272,0,-1,-1
-157.17,26.35,-80.20,3697,-7360,1281,-1,-1,-1
-157.17,26.35,-80.20,3705,-7358,1272,0,-1,0
-157.16,26.35,-80.21,3709,-7356,1263,-1,-1,0
-157.16,26.35,-80.21,3709,-7363,1276,0,-1,-1
-157.16,26.35,-80.21,3702,-7359,1267,0,-1,-1
-157.17,26.35,-80.21,3694,-7356,1270,0,-1,-1
-157.16,26.36,-80.20,3704,-7349,1274,0,-1,0
-157.16,26.36,-80.20,3706,-7346,1270,-1,-1,-1
-157.16,26.36,-80.20,3699,-7344,1261,0,-1,0
-157.16,26.36,-80.20,3699,-7344,1275,-1,-1,0
-157.16,26.36,-80.20,3698,-7344,1285,0,-1,0
-157.17,26.35,-80.21,3701,-7346,1288,-1,-1,0
-157.17,26.35,-80.21,3700,-7352,1277,0,-1,0
-157.17,26.35,-80.21,3711,-7352,1270,-1,-1,-1
-157.17,26.35,-80.21,3705,-7358,1261,0,-1,-1
-157.16,26.36,-80.22,3708,-7353,1266,0,-1,0
-157.16,26.36,-80.20,3711,-7346,1267,0,-1,-1
-157.16,26.36,-80.20,3711,-7352,1268,-1,-1,-1
-157.15,26.37,-80.21,3719,-7356,1272,0,0,0
-157.16,26.36,-80.20,3700,-7353,1269,0,-1,0
-157.16,26.36,-80.20,3693,-7347,1271,0,-1,0
-157.16,26.36,-80.20,3696,-7349,1268,-1,-1,-1
-157.16,26.37,-80.21,3693,-7341,1263,0,-1,-1
-157.16,26.37,-80.21,3698,-7349,1256,-1,-1,-1
-157.16,26.37,-80.21,3702,-7351,1263,-1,-1,-1
-157.16,26.37,-80.21,3699,-7345,1266,0,-1,-1
-157.16,26.37,-80.21,3709,-7351,1265,0,-1,0
-157.16,26.37,-80.21,3712,-7348,1261,0,-1,0
-157.16,26.36,-80.21,3704,-7347,1261,-1,-1,0
-157.16,26.36,-80.21,3699,-7356,1269,0,-1,0
-157.16,26.36,-80.21,3694,-7353,1262,0,-1,0
-157.17,26.36,-80.20,3696,-7361,1262,0,-1,-1
-157.17,26.36,-80.20,3700,-7353,1266,0,0,0
-157.17,26.36,-80.20,3698,-7351,1274,-1,-1,-1
-157.17,26.37,-80.20,3706,-7351,1278,-1,-1,0
-157.17,26.37,-80.20,3705,-7348,1272,0,0,0
-157.17,26.36,-80.21,3703,-7347,1274,-1,-1,0
-157.17,26.36,-80.21,3705,-7344,1269,-1,0,0
-157.17,26.35,-80.21,3710,-7364,1263,0,-1,0
-157.19,26.34,-80.21,3708,-7360,1269,0,0,0
-157.19,26.34,-80.21,3692,-7359,1265,0,-1,0
-157.20,26.34,-80.19,3684,-7348,1273,0,0,0
-157.20,26.34,-80.19,3699,-7342,1282,-1,-1,0
-157.20,26.34,-80.19,3691,-7358,1267,0,0,-1
-157.20,26.34,-80.18,3680,-7341,1286,0,0,-1
-157.20,26.35,-80.18,3684,-7344,1291,0,-1,-1
-157.19,26.36,-80.18,3700,-7359,1299,-1,-1,-1
-157.18,26.36,-80.18,3699,-7355,1286,-1,-1,-1
-157.18,26.36,-80.19,3693,-7342,1280,0,-1,-1
-157.18,26.36,-80.19,3700,-7334,1287,-1,-1,0
-157.18,26.36,-80.20,3701,-7339,1263,-1,-1,0
-157.18,26.36,-80.21,3704,-7341,1259,-1,-1,0
-157.18,26.35,-80.22,3705,-7356,1249,-1,-1,0
-157.18,26.35,-80.22,3706,-7364,1236,0,0,-1
-157.18,26.36,-80.21,3711,-7366,1258,0,0,-1
-157.18,26.36,-80.21,3711,-7363,1250,0,0,-1
-157.18,26.36,-80.20,3709,-7357,1271,0,0,-1
-157.18,26.36,-80.19,3705,-7348,1269,0,0,-1
-157.18,26.37,-80.18,3703,-7332,1272,0,0,-1
-157.18,26.37,-80.17,3709,-7335,1273,0,0,-1
-157.18,26.37,-80.17,3702,-7337,1270,0,-1,0
-157.18,26.37,-80.17,3703,-7345,1271,-1,-1,0
-157.18,26.37,-80.18,3704,-7359,1274,-1,-1,0
-157.18,26.37,-80.18,3699,-7363,1263,0,-1,-1
-157.18,26.37,-80.18,3693,-7349,1279,-1,-1,-1
-157.17,26.37,-80.20,3713,-7357,1258,-1,-1,0
-157.17,26.37,-80.20,3702,-7365,1242,0,0,-1
-157.18,26.37,-80.19,3721,-7362,1267,0,0,-1
-157.18,26.37,-80.19,3720,-7350,1277,-1,0,0
-157.18,26.36,-80.18,3704,-7328,1292,-1,-1,0
-157.18,26.35,-80.21,3706,-7351,1272,-1,0,0
-157.19,26.35,-80.21,3705,-7352,1258,0,0,0
-157.20,26.34,-80.20,3687,-7329,1276,-1,0,0
-157.19,26.33,-80.23,3691,-7356,1259,-1,-1,-1
-157.19,26.34,-80.23,3710,-7327,1274,-1,0,0
-157.18,26.34,-80.25,3705,-7357,1281,-2,-1,-1
-157.16,26.34,-80.28,3711,-7361,1220,-1,0,0
-157.19,26.32,-80.27,3667,-7363,1254,0,-1,0
-157.17,26.33,-80.29,3730,-7353,1260,-2,0,0
-157.19,26.31,-80.29,3673,-7366,1257,0,0,-1
-157.20,26.30,-80.30,3691,-7352,1238,-1,0,0
-157.20,26.30,-80.28,3678,-7350,1258,-1,0,-1
-157.20,26.29,-80.30,3688,-7355,1241,-1,0,0
-157.19,26.30,-80.29,3711,-7367,1252,0,0,0
-157.21,26.29,-80.27,3671,-7340,1271,0,-1,0
-157.19,26.30,-80.30,3698,-7350,1226,-1,0,-1
-157.21,26.29,-80.26,3667,-7335,1270,0,0,-1
-157.20,26.30,-80.27,3680,-7351,1279,-1,-1,0
-157.20,26.30,-80.27,3692,-7357,1265,0,0,-1
-157.20,26.30,-80.26,3686,-7356,1261,0,0,-1
-157.19,26.31,-80.25,3678,-7361,1248,0,-1,-1
-157.18,26.32,-80.25,3695,-7362,1252,0,0,-1
-157.18,26.32,-80.24,3683,-7358,1270,-1,0,-1
-157.16,26.34,-80.24,3692,-7353,1271,-1,0,-1
-157.16,26.34,-80.23,3699,-7348,1271,-1,0,-1
-157.15,26.35,-80.23,3697,-7337,1267,0,0,-1
-157.14,26.35,-80.24,3702,-7345,1269,-1,0,-1
-157.14,26.35,-80.24,3699,-7348,1271,-1,0,-1
-157.13,26.36,-80.24,3712,-7353,1263,-1,0,-1
-157.13,26.36,-80.24,3704,-7360,1270,-1,0,-1
-157.13,26.36,-80.24,3705,-7359,1277,-1,0,-1
-157.13,26.35,-80.24,3699,-7359,1260,-1,0,0
-157.13,26.35,-80.24,3696,-7353,1260,0,0,0
-157.13,26.35,-80.24,3701,-7352,1261,-1,-1,0
-157.13,26.35,-80.25,3696,-7358,1257,-1,-1,0
-157.13,26.35,-80.25,3698,-7356,1249,-1,0,0
-157.13,26.35,-80.25,3701,-7358,1260,-1,0,0
-157.13,26.35,-80.25,3703,-7354,1269,-1,0,0
-157.14,26.34,-80.25,3704,-7360,1262,-1,0,-1
-157.14,26.34,-80.25,3708,-7361,1265,0,0,0
-157.14,26.34,-80.24,3690,-7353,1268,0,0,0
-157.14,26.34,-80.23,3692,-7352,1266,-1,0,-1
-157.14,26.34,-80.22,3690,-7357,1270,-1,0,-1
-157.14,26.34,-80.23,3693,-7355,1269,-1,0,-1
-157.14,26.34,-80.22,3695,-7350,1268,0,0,-1
-157.14,26.34,-80.22,3699,-7351,1264,-1,0,-1
-157.14,26.34,-80.22,3694,-7346,1272,-1,0,-1
-157.14,26.34,-80.22,3700,-7348,1262,-1,0,0
-157.14,26.34,-80.23,3693,-7345,1270,-1,0,0
-157.14,26.33,-80.22,3691,-7353,1262,-1,0,0
-157.14,26.33,-80.23,3684,-7351,1265,-1,0,0
-157.15,26.33,-80.23,3688,-7350,1268,-1,-1,0
-157.14,26.33,-80.23,3695,-7358,1274,-1,0,-1
-157.14,26.33,-80.23,3695,-7359,1278,0,0,0
-157.14,26.33,-80.23,3695,-7358,1272,-1,0,-1
-157.14,26.33,-80.22,3698,-7360,1284,-1,0,0
-157.14,26.33,-80.23,3697,-7361,1265,-1,-1,-1
-157.14,26.33,-80.22,3694,-7352,1269,0,0,0
-157.14,26.32,-80.23,3700,-7348,1268,-1,0,0
-157.15,26.32,-80.23,3694,-7359,1263,0,0,0
-157.16,26.32,-80.22,3692,-7361,1265,0,0,0
-157.16,26.32,-80.22,3693,-7364,1263,0,-1,-1
-157.15,26.32,-80.22,3693,-7361,1277,0,-1,-1
-157.14,26.33,-80.21,3694,-7365,1270,0,-1,-1
-157.14,26.33,-80.21,3699,-7359,1275,0,0,-1
-157.14,26.34,-80.21,3703,-7350,1272,-1,-1,-1
-157.14,26.34,-80.21,3699,-7345,1271,0,0,0
-157.14,26.34,-80.21,3711,-7350,1272,-1,-1,0
-157.14,26.34,-80.21,3703,-7349,1276,0,-1,0
-157.14,26.33,-80.21,3697,-7352,1276,0,-1,0
-157.15,26.33,-80.20,3689,-7353,1282,0,-1,0
-157.16,26.33,-80.20,3688,-7365,1273,0,-1,0
-157.15,26.33,-80.21,3693,-7374,1269,0,-1,-1
-157.14,26.34,-80.21,3693,-7373,1267,0,-1,-1
-157.14,26.34,-80.21,3697,-7362,1272,0,-1,-1
-157.14,26.34,-80.21,3703,-7349,1261,-1,0,-1
-157.14,26.35,-80.20,3704,-7352,1260,0,0,-1
-157.14,26.35,-80.20,3706,-7351,1263,-1,0,0
-157.14,26.35,-80.20,3694,-7357,1261,0,-1,0
-157.14,26.35,-80.20,3701,-7354,1268,0,-1,0
-157.14,26.34,-80.20,3691,-7354,1266,-1,-1,0
-157.15,26.34,-80.20,3691,-7347,1270,0,-1,0
-157.15,26.34,-80.20,3696,-7350,1287,-1,-1,0
-157.15,26.33,-80.20,3682,-7357,1263,-1,-1,-1
-157.15,26.33,-80.20,3691,-7368,1269,0,-1,-1
-157.15,26.34,-80.21,3694,-7357,1274,0,0,-1
-157.15,26.34,-80.21,3679,-7360,1264,-1,-1,-1
-157.14,26.34,-80.22,3683,-7360,1252,0,-1,-1
-157.14,26.35,-80.21,3697,-7342,1280,0,-1,0
-157.13,26.35,-80.23,3706,-7362,1261,-1,0,-1
-157.13,26.35,-80.23,3726,-7361,1275,-1,-1,-1
-157.13,26.35,-80.23,3722,-7361,1272,-1,0,0
-157.13,26.35,-80.23,3707,-7348,1276,-1,-1,0
-157.14,26.34,-80.24,3698,-7345,1271,0,-1,0
-157.14,26.34,-80.24,3701,-7329,1293,-1,0,0
-157.13,26.34,-80.25,3682,-7337,1247,0,0,0
-157.15,26.33,-80.25,3671,-7351,1269,-1,-1,0
-157.13,26.34,-80.29,3724,-7389,1214,0,-1,-1
-157.14,26.34,-80.25,3700,-7352,1277,0,0,0
-157.15,26.33,-80.26,3691,-7360,1249,0,-1,0
-157.13,26.34,-80.26,3700,-7349,1256,0,-1,-1
-157.14,26.34,-80.25,3703,-7351,1275,-1,0,-1
-157.13,26.35,-80.24,3693,-7352,1254,0,0,-1
-157.14,26.35,-80.24,3693,-7349,1258,0,-1,-1
-157.14,26.35,-80.23,3691,-7346,1280,0,-1,-1
-157.13,26.35,-80.24,3701,-7356,1281,-1,-1,0
-157.13,26.35,-80.24,3700,-7363,1270,0,-1,-1
-157.13,26.35,-80.24,3698,-7358,1261,-1,-1,-1
-157.13,26.35,-80.24,3685,-7353,1261,0,-1,0
-157.13,26.35,-80.25,3688,-7352,1264,-1,-1,0
-157.13,26.36,-80.25,3697,-7351,1251,-1,-1,-1
-157.13,26.36,-80.26,3699,-7364,1250,0,-1,-1
-157.12,26.37,-80.26,3734,-7367,1230,0,0,-1
-157.12,26.37,-80.25,3704,-7377,1242,0,0,-1
-157.13,26.36,-80.22,3727,-7344,1273,0,0,0
-157.14,26.36,-80.22,3723,-7355,1257,0,0,0
-157.17,26.34,-80.21,3685,-7365,1245,0,-1,0
-157.16,26.34,-80.21,3681,-7350,1265,0,-1,0
-157.16,26.34,-80.20,3720,-7345,1282,0,-1,-1
-157.19,26.32,-80.19,3675,-7342,1305,-1,-1,0
-157.17,26.33,-80.23,3686,-7363,1235,0,-1,0
-157.17,26.33,-80.21,3725,-7384,1254,-1,0,-1
-157.20,26.32,-80.15,3680,-7311,1311,1,1,0
-157.20,26.32,-80.16,3680,-7335,1316,-1,-1,0
-157.19,26.33,-80.16,3703,-7317,1306,-1,0,0
-157.20,26.31,-80.18,3685,-7331,1298,-2,-1,0
-157.18,26.32,-80.21,3699,-7357,1264,0,-1,-1
-157.18,26.32,-80.21,3717,-7348,1260,-1,-1,0
-157.19,26.31,-80.21,3693,-7365,1280,0,-2,-1
-157.19,26.31,-80.23,3699,-7357,1236,-1,0,0
-157.19,26.31,-80.22,3694,-7363,1272,0,-1,-1
-157.18,26.32,-80.22,3722,-7371,1253,0,-1,-1
-157.18,26.33,-80.19,3708,-7371,1275,0,-1,-1
-157.19,26.34,-80.18,3704,-7355,1277,0,0,-1
-157.18,26.34,-80.17,3680,-7351,1284,0,-1,-1
-157.18,26.35,-80.16,3698,-7354,1276,0,-1,-1
-157.18,26.36,-80.15,3690,-7341,1287,0,-1,-1
-157.18,26.36,-80.14,3695,-7330,1303,-1,-1,-1
-157.16,26.37,-80.16,3700,-7343,1284,-1,-1,-1
-157.16,26.37,-80.16,3703,-7343,1270,-1,-1,0
-157.16,26.37,-80.18,3702,-7353,1273,-1,-1,-1
-157.15,26.37,-80.19,3698,-7350,1269,-1,-1,0
-157.16,26.37,-80.19,3704,-7355,1276,-1,-1,-1
-157.16,26.37,-80.19,3689,-7335,1314,-2,-1,0
-157.13,26.37,-80.25,3704,-7363,1253,-1,-1,-1
-157.13,26.37,-80.25,3708,-7365,1245,0,0,-1
-157.13,26.38,-80.25,3708,-7354,1267,-1,-1,-1
-157.13,26.38,-80.25,3711,-7360,1263,0,-1,-1
-157.13,26.39,-80.24,3709,-7354,1276,0,0,-1
-157.13,26.39,-80.24,3699,-7356,1274,0,0,-1
-157.13,26.39,-80.23,3704,-7358,1273,0,0,-1
-157.13,26.38,-80.23,3700,-7365,1267,0,0,-1
-157.13,26.38,-80.23,3690,-7362,1275,0,0,-1
-157.13,26.39,-80.22,3691,-7349,1270,-1,-1,-1
-157.13,26.38,-80.22,3703,-7345,1273,0,-1,0
-157.13,26.39,-80.22,3707,-7345,1274,-1,-1,-1
-157.12,26.40,-80.22,3711,-7345,1259,-1,-1,-1
-157.12,26.40,-80.22,3720,-7351,1270,0,0,0
-157.12,26.39,-80.23,3707,-7350,1271,-1,-1,0
-157.12,26.39,-80.23,3704,-7354,1271,-1,-1,0
-157.13,26.39,-80.24,3697,-7356,1265,-1,-1,0
-157.13,26.38,-80.24,3696,-7352,1267,-1,0,0
-157.13,26.38,-80.24,3689,-7352,1266,-1,0,-1
-157.13,26.38,-80.24,3701,-7358,1271,-1,0,-1
-157.12,26.38,-80.25,3701,-7356,1266,-1,0,-1
-157.12,26.38,-80.25,3702,-7361,1270,-1,0,-1
-157.12,26.38,-80.25,3711,-7363,1268,-1,0,-1
-157.11,26.39,-80.26,3710,-7355,1258,-1,0,-1
-157.10,26.39,-80.26,3716,-7353,1254,-1,0,-1
-157.10,26.39,-80.26,3715,-7346,1266,-1,0,0
-157.10,26.39,-80.26,3712,-7344,1258,-1,0,0
-157.10,26.39,-80.26,3707,-7347,1271,-1,0,0
-157.11,26.38,-80.26,3703,-7352,1262,-1,0,0
-157.11,26.38,-80.27,3697,-7354,1257,-1,-1,0
-157.10,26.38,-80.27,3706,-7353,1258,-1,0,0
-157.10,26.38,-80.28,3701,-7352,1262,-1,0,-1
-157.10,26.38,-80.28,3705,-7355,1263,-1,0,-1
-157.09,26.39,-80.28,3702,-7360,1242,-1,0,-1
-157.08,26.39,-80.28,3728,-7365,1245,0,0,-1
-157.08,26.40,-80.27,3728,-7368,1249,0,0,-1
-157.09,26.39,-80.25,3716,-7351,1264,0,0,0
-157.09,26.38,-80.25,3712,-7353,1253,-1,0,0
-157.10,26.38,-80.25,3705,-7361,1253,0,0,-1
-157.10,26.38,-80.24,3686,-7348,1277,0,0,0
-157.10,26.38,-80.24,3695,-7351,1284,-1,0,-1
-157.09,26.38,-80.25,3708,-7350,1281,-1,0,-1
-157.09,26.38,-80.25,3704,-7358,1260,-1,0,-1
-157.08,26.38,-80.25,3706,-7350,1267,-1,-1,-1
-157.08,26.38,-80.25,3714,-7340,1277,-1,0,-1
-157.08,26.38,-80.27,3708,-7339,1261,-1,0,0
-157.09,26.37,-80.28,3705,-7353,1259,-1,-1,0
-157.08,26.38,-80.29,3712,-7356,1245,-1,0,0
-157.09,26.37,-80.29,3691,-7357,1258,-1,0,0
-157.09,26.36,-80.29,3700,-7356,1252,-1,0,0
-157.09,26.36,-80.30,3703,-7360,1273,-1,-1,0
-157.07,26.37,-80.33,3697,-7369,1236,-1,0,-1
-157.07,26.37,-80.32,3699,-7361,1244,0,0,-1
-157.07,26.37,-80.32,3703,-7358,1246,-1,0,-1
-157.06,26.37,-80.32,3705,-7356,1251,-1,0,-1
-157.07,26.37,-80.31,3695,-7346,1259,-1,0,0
-157.06,26.37,-80.32,3707,-7345,1257,-1,0,0
-157.07,26.36,-80.31,3692,-7340,1258,-1,0,0
-157.07,26.36,-80.32,3685,-7347,1256,-1,0,0
-157.08,26.35,-80.31,3693,-7359,1259,0,0,0
-157.09,26.34,-80.32,3693,-7350,1277,-1,-1,0
-157.08,26.34,-80.34,3684,-7363,1248,-1,0,-1
-157.07,26.35,-80.34,3683,-7361,1245,-1,0,-1
-157.07,26.35,-80.35,3695,-7366,1241,-1,0,-1
-157.07,26.35,-80.35,3702,-7368,1248,-1,0,-1
-157.06,26.35,-80.35,3704,-7369,1250,-1,0,0
-157.06,26.35,-80.36,3713,-7359,1255,-1,0,0
-157.06,26.35,-80.36,3706,-7365,1255,-1,0,0
-157.06,26.35,-80.36,3701,-7364,1249,-1,0,0
-157.07,26.34,-80.35,3686,-7359,1254,-1,0,0
-157.07,26.33,-80.35,3686,-7353,1248,-1,0,0
-157.07,26.33,-80.35,3689,-7357,1249,-1,0,0
-157.08,26.33,-80.35,3685,-7357,1251,-1,-1,-1
-157.08,26.33,-80.36,3689,-7361,1246,-1,0,-1
-157.07,26.33,-80.36,3689,-7358,1246,-1,-1,-1
-157.07,26.34,-80.36,3695,-7355,1258,-1,-1,-1
-157.07,26.34,-80.36,3700,-7357,1252,-1,-1,-1
-157.07,26.34,-80.36,3697,-7349,1254,-1,0,0
-157.07,26.34,-80.36,3704,-7356,1247,0,0,0
-157.07,26.34,-80.36,3696,-7360,1248,0,0,0
-157.08,26.33,-80.35,3697,-7357,1250,0,0,0
-157.08,26.33,-80.35,3693,-7352,1249,0,-1,0
-157.07,26.34,-80.35,3691,-7365,1256,0,-1,-1
-157.08,26.33,-80.35,3688,-7367,1249,0,-1,-1
-157.08,26.34,-80.34,3692,-7358,1250,0,-1,-1
-157.07,26.34,-80.34,3697,-7356,1256,0,-1,-1
-157.07,26.34,-80.34,3699,-7357,1257,0,-1,0
-157.07,26.35,-80.33,3706,-7357,1257,0,-1,-1
-157.07,26.35,-80.33,3694,-7360,1254,0,-1,0
-157.07,26.35,-80.33,3703,-7351,1250,0,-1,0
-157.06,26.35,-80.35,3699,-7352,1253,-1,-1,0
-157.07,26.34,-80.37,3701,-7365,1235,0,0,-1
-157.07,26.34,-80.36,3689,-7355,1255,-1,-1,-1
-157.07,26.35,-80.35,3690,-7361,1249,0,-1,-1
-157.07,26.35,-80.35,3699,-7352,1253,0,-1,-1
-157.06,26.36,-80.35,3701,-7354,1253,0,-1,-1
-157.06,26.36,-80.35,3704,-7351,1253,0,-1,-1
-157.06,26.36,-80.36,3707,-7347,1241,-1,-1,0
-157.06,26.36,-80.35,3704,-7350,1250,0,0,0
-157.06,26.36,-80.35,3700,-7349,1256,0,-1,0
-157.06,26.36,-80.35,3684,-7351,1259,0,0,0
-157.07,26.35,-80.35,3689,-7353,1245,-1,-1,0
-157.06,26.36,-80.35,3695,-7354,1253,0,-1,-1
-157.06,26.36,-80.35,3708,-7348,1258,-1,-1,0
-157.06,26.36,-80.35,3713,-7366,1243,0,0,-1
-157.05,26.37,-80.35,3705,-7360,1249,-1,-1,0
-157.06,26.36,-80.35,3702,-7350,1250,0,-1,0
-157.06,26.37,-80.34,3704,-7357,1248,0,-1,0
-157.06,26.37,-80.35,3697,-7352,1244,0,-1,0
-157.06,26.37,-80.35,3694,-7355,1248,-1,-1,-1
-157.06,26.37,-80.35,3696,-7353,1251,0,-1,-1
-157.05,26.37,-80.35,3702,-7357,1254,-1,-1,-1
-157.06,26.37,-80.35,3705,-7358,1257,-1,-1,-1
-157.06,26.37,-80.35,3705,-7359,1252,0,-1,-1
-157.05,26.37,-80.35,3697,-7354,1246,0,-1,0
-157.05,26.37,-80.34,3698,-7353,1254,0,-1,-1
-157.05,26.37,-80.34,3701,-7357,1252,0,-1,-1
-157.05,26.38,-80.35,3702,-7362,1244,0,-1,-1
-157.05,26.38,-80.34,3698,-7356,1245,0,-1,-1
-157.05,26.38,-80.34,3709,-7350,1242,0,-1,-1
-157.05,26.38,-80.34,3704,-7349,1257,0,-1,-1
-157.04,26.39,-80.34,3708,-7349,1259,0,-1,-1
-157.05,26.39,-80.34,3710,-7344,1247,0,-1,0
-157.05,26.39,-80.34,3712,-7342,1245,0,0,0
-157.05,26.38,-80.34,3707,-7353,1258,0,-1,0
-157.05,26.39,-80.34,3710,-7353,1254,0,-1,0
-157.05,26.39,-80.34,3700,-7357,1247,0,-1,-1
-157.04,26.39,-80.35,3698,-7354,1249,0,-1,0
-157.04,26.40,-80.34,3704,-7353,1260,0,-1,-1
-157.04,26.40,-80.34,3709,-7346,1267,-1,-1,0
-157.04,26.40,-80.34,3714,-7360,1260,0,0,-1
-157.04,26.40,-80.33,3711,-7357,1262,0,0,0
-157.05,26.39,-80.33,3701,-7360,1265,0,-1,-1
-157.05,26.39,-80.32,3698,-7359,1266,0,0,-1
-157.05,26.39,-80.32,3696,-7360,1265,-1,-1,-1
-157.05,26.39,-80.32,3701,-7355,1270,-1,-1,-1
-157.05,26.39,-80.32,3694,-7345,1266,0,0,0
-157.05,26.39,-80.32,3695,-7352,1270,-1,0,0
-157.06,26.39,-80.32,3703,-7350,1259,-1,0,0
-157.05,26.39,-80.33,3706,-7367,1232,-1,-1,-1
-157.05,26.39,-80.33,3720,-7357,1235,0,-1,0
-157.05,26.39,-80.33,3717,-7360,1250,-1,0,0
-157.05,26.39,-80.33,3704,-7359,1247,-1,-1,0
-157.06,26.38,-80.34,3697,-7357,1236,0,-1,0
-157.07,26.37,-80.33,3711,-7353,1264,-1,-1,0
-157.08,26.37,-80.33,3704,-7356,1256,-1,0,0
-157.07,26.37,-80.34,3695,-7378,1220,0,-1,-1
-157.08,26.37,-80.33,3707,-7347,1269,-1,-1,0
-157.08,26.36,-80.34,3704,-7362,1249,0,-1,-1
-157.08,26.37,-80.32,3706,-7346,1277,0,0,0
-157.08,26.37,-80.33,3699,-7354,1249,-1,-1,0
-157.08,26.37,-80.33,3704,-7335,1250,0,-1,-1
-157.08,26.37,-80.33,3706,-7341,1250,-1,0,0
-157.09,26.36,-80.33,3683,-7337,1237,0,-1,0
-157.09,26.36,-80.33,3706,-7344,1255,0,0,0
-157.10,26.35,-80.32,3677,-7350,1255,-1,0,-1
-157.10,26.35,-80.33,3689,-7363,1244,-1,-1,0
-157.09,26.36,-80.34,3699,-7371,1232,0,-1,-1
-157.09,26.36,-80.34,3692,-7361,1242,0,-1,-1
-157.08,26.37,-80.35,3695,-7359,1240,-1,-1,-1
-157.07,26.38,-80.35,3717,-7351,1235,0,-1,-1
-157.06,26.39,-80.34,3710,-7353,1232,0,-1,-1
-157.06,26.40,-80.34,3723,-7366,1227,0,0,-1
-157.06,26.40,-80.33,3725,-7366,1236,0,0,-1
-157.06,26.40,-80.31,3711,-7355,1250,0,-1,-1
-157.06,26.40,-80.31,3709,-7351,1245,0,-1,0
-157.07,26.40,-80.30,3704,-7347,1264,0,-1,0
-157.08,26.40,-80.29,3692,-7340,1274,0,-1,0
-157.07,26.40,-80.30,3693,-7340,1270,-1,-1,0
-157.08,26.40,-80.30,3697,-7339,1258,-1,-1,-1
-157.07,26.40,-80.30,3699,-7340,1255,-1,-1,-1
-157.06,26.41,-80.32,3697,-7338,1252,-1,-1,-1
-157.05,26.41,-80.33,3703,-7348,1245,-1,0,-1
-157.05,26.41,-80.34,3710,-7346,1244,-1,0,-1
-157.05,26.41,-80.35,3713,-7350,1249,-1,0,0
-157.04,26.41,-80.35,3713,-7358,1247,-1,0,0
-157.04,26.41,-80.35,3709,-7365,1247,-1,0,0
-157.04,26.40,-80.36,3704,-7365,1244,-1,0,-1
-157.05,26.40,-80.35,3700,-7364,1252,-1,0,-1
-157.04,26.41,-80.35,3709,-7361,1267,0,0,-1
-157.04,26.41,-80.34,3699,-7358,1271,-1,0,-1
-157.04,26.41,-80.35,3713,-7354,1255,-1,0,-1
-157.04,26.41,-80.34,3716,-7362,1251,0,0,-1
-157.03,26.41,-80.34,3708,-7353,1251,-1,0,-1
-157.04,26.41,-80.34,3703,-7348,1247,-1,0,-1
-157.03,26.41,-80.35,3693,-7351,1241,-1,0,-1
-157.03,26.41,-80.35,3704,-7351,1246,-1,0,-1
-157.03,26.41,-80.35,3700,-7348,1238,-1,0,-1
-157.02,26.41,-80.36,3707,-7348,1242,-1,0,-1
-157.02,26.41,-80.36,3707,-7357,1244,0,0,0
-157.02,26.41,-80.36,3709,-7358,1252,-1,0,0
-157.02,26.40,-80.36,3714,-7359,1241,-1,0,0
-157.02,26.40,-80.36,3707,-7360,1243,-1,0,-1
-157.02,26.41,-80.36,3710,-7362,1252,-1,0,-1
-157.02,26.40,-80.36,3710,-7360,1243,-1,0,0
-157.02,26.40,-80.36,3706,-7353,1251,-1,0,0
-157.03,26.40,-80.36,3705,-7348,1245,-1,0,0
-157.03,26.40,-80.35,3701,-7345,1250,-1,0,0
-157.03,26.39,-80.36,3696,-7352,1256,-1,0,-1
-157.02,26.39,-80.36,3707,-7357,1251,-1,0,0
-157.02,26.39,-80.36,3706,-7356,1247,-1,0,-1
-157.02,26.40,-80.36,3718,-7358,1245,-1,0,-1
-157.00,26.40,-80.37,3720,-7353,1245,-1,0,-1
-157.01,26.40,-80.37,3720,-7350,1246,-1,0,0
-157.01,26.40,-80.37,3708,-7349,1243,-1,0,0
-157.01,26.40,-80.37,3712,-7344,1245,-1,0,0
-157.01,26.39,-80.37,3717,-7355,1247,-1,0,0
-157.02,26.38,-80.37,3708,-7357,1244,0,0,0
-157.02,26.38,-80.37,3699,-7359,1246,-1,-1,0
-157.02,26.38,-80.37,3699,-7362,1264,-1,0,-1
-157.02,26.38,-80.37,3699,-7358,1277,-1,0,-1
-157.01,26.39,-80.37,3705,-7361,1256,-1,0,-1
-157.00,26.39,-80.38,3716,-7358,1248,-1,0,-1
-157.00,26.39,-80.38,3714,-7354,1249,0,0,0
-157.01,26.38,-80.38,3704,-7352,1254,-1,0,0
-157.00,26.38,-80.39,3722,-7367,1227,-1,0,0
-157.01,26.37,-80.39,3709,-7358,1234,0,0,0
-157.03,26.36,-80.38,3677,-7345,1261,-1,0,0
-157.03,26.36,-80.38,3696,-7345,1258,-1,-1,0
-157.03,26.35,-80.40,3688,-7352,1241,-1,0,0
-157.03,26.34,-80.41,3704,-7367,1245,-1,-1,0
-157.03,26.35,-80.42,3711,-7367,1231,-1,0,0
-157.04,26.33,-80.41,3681,-7354,1251,0,-1,0
-157.04,26.33,-80.42,3707,-7350,1255,-1,-1,0
-157.03,26.33,-80.43,3704,-7352,1246,-1,0,0
-157.04,26.33,-80.44,3699,-7365,1225,-1,0,-1
-157.04,26.33,-80.44,3719,-7366,1230,-1,-1,0
-157.05,26.31,-80.44,3680,-7361,1224,0,0,0
-157.05,26.31,-80.43,3697,-7355,1246,-1,-1,-1
-157.04,26.32,-80.44,3691,-7357,1244,0,0,-1
-157.04,26.32,-80.43,3670,-7345,1240,0,0,-1
-157.03,26.33,-80.43,3680,-7348,1248,-1,0,-1
-157.02,26.34,-80.43,3693,-7351,1245,-1,-1,-1
-157.01,26.35,-80.43,3698,-7364,1240,0,-1,-1
-157.01,26.36,-80.41,3713,-7357,1250,0,-1,-1
-157.01,26.36,-80.41,3719,-7362,1250,0,0,-1
-157.01,26.36,-80.41,3713,-7367,1233,0,0,-1
-157.00,26.36,-80.41,3715,-7357,1237,-1,0,0
-157.01,26.36,-80.40,3703,-7349,1257,0,0,0
-157.01,26.36,-80.40,3695,-7350,1253,0,0,-1
-157.01,26.36,-80.39,3698,-7357,1243,0,0,-1
-157.01,26.36,-80.39,3702,-7366,1245,0,-1,-1
-157.02,26.36,-80.38,3699,-7371,1243,0,-1,0
-157.02,26.36,-80.38,3700,-7363,1250,0,-1,0
-157.02,26.36,-80.37,3695,-7363,1263,0,-1,0
-157.02,26.36,-80.37,3697,-7358,1261,0,-1,0
-157.02,26.37,-80.37,3694,-7344,1264,0,-1,0
-157.03,26.36,-80.36,3702,-7343,1260,0,-1,0
-157.03,26.36,-80.36,3703,-7357,1258,0,-1,-1
-157.03,26.37,-80.34,3706,-7361,1261,0,-1,0
-157.03,26.37,-80.35,3695,-7357,1256,0,-1,-1
-157.02,26.38,-80.35,3697,-7358,1245,-1,-1,-1
-157.01,26.38,-80.35,3697,-7362,1248,0,-1,-1
-157.01,26.39,-80.35,3696,-7349,1244,-1,-1,-1
-157.01,26.39,-80.35,3711,-7348,1249,-1,-1,-1
-157.00,26.39,-80.35,3719,-7344,1256,-1,0,0
-157.00,26.40,-80.35,3722,-7356,1240,-1,-1,0
-157.01,26.38,-80.34,3720,-7362,1255,0,0,0
-157.03,26.38,-80.34,3694,-7360,1260,-1,-1,0
-157.03,26.37,-80.34,3688,-7355,1256,0,-1,0
-157.03,26.38,-80.34,3686,-7356,1253,-1,-1,-1
-157.03,26.38,-80.35,3692,-7354,1252,0,-1,-1
-157.01,26.39,-80.35,3690,-7359,1252,-1,-1,-1
-157.01,26.39,-80.35,3698,-7362,1247,0,-1,-1
-157.00,26.40,-80.35,3713,-7365,1255,-1,-1,-1
-157.00,26.40,-80.35,3725,-7367,1253,0,0,0
-157.00,26.40,-80.35,3712,-7355,1253,-1,-1,0
-157.00,26.40,-80.36,3709,-7353,1241,0,-1,0
-157.00,26.40,-80.35,3702,-7347,1259,-1,0,0
-157.01,26.39,-80.35,3696,-7353,1243,-1,-1,0
-157.01,26.39,-80.35,3700,-7357,1248,-1,-1,0
-157.01,26.39,-80.36,3696,-7354,1253,0,-1,-1
-157.01,26.39,-80.36,3707,-7342,1253,-1,-1,0
-157.01,26.39,-80.36,3706,-7349,1248,0,-1,-1
-157.00,26.40,-80.36,3702,-7356,1243,-1,-1,-1
-157.00,26.40,-80.37,3700,-7352,1249,-1,-1,-1
-157.00,26.40,-80.37,3705,-7361,1240,-1,-1,-1
-157.00,26.40,-80.37,3705,-7360,1246,0,-1,-1
-157.00,26.40,-80.36,3712,-7356,1245,0,-1,0
-157.00,26.40,-80.37,3713,-7361,1240,0,-1,-1
-157.00,26.40,-80.37,3709,-7365,1248,0,-1,0
-157.01,26.40,-80.35,3708,-7357,1258,0,0,-1
-157.01,26.40,-80.35,3698,-7352,1262,0,-1,-1
-157.00,26.41,-80.35,3711,-7345,1261,0,-1,0
-157.01,26.40,-80.35,3699,-7342,1268,0,-1,-1
-157.01,26.40,-80.35,3702,-7354,1261,-1,-1,-1
-157.01,26.40,-80.35,3703,-7356,1245,0,-1,0
-157.01,26.40,-80.35,3701,-7351,1255,0,-1,0
-157.01,26.40,-80.35,3700,-7345,1252,-1,-1,0
-157.01,26.40,-80.35,3704,-7348,1251,0,-1,0
-157.00,26.41,-80.36,3714,-7352,1244,-1,-1,-1
-157.00,26.41,-80.36,3715,-7354,1250,-1,0,0
-157.01,26.40,-80.36,3707,-7361,1239,0,0,0
-157.01,26.40,-80.36,3708,-7363,1238,0,-1,0
-157.01,26.40,-80.36,3705,-7361,1252,0,-1,0
-157.02,26.39,-80.36,3710,-7347,1260,0,-1,0
-157.03,26.39,-80.34,3705,-7345,1274,-1,-1,-1
-157.02,26.40,-80.35,3711,-7350,1247,0,0,0
-157.03,26.39,-80.34,3703,-7351,1258,0,-1,0
-157.03,26.39,-80.34,3708,-7365,1240,0,-1,-1
-157.03,26.40,-80.33,3708,-7351,1256,0,-1,0
-157.03,26.39,-80.34,3703,-7366,1252,-1,-1,-1
-157.02,26.40,-80.35,3709,-7355,1257,0,0,0
-157.02,26.40,-80.35,3708,-7360,1249,0,-1,0
-157.03,26.39,-80.34,3705,-7354,1249,-1,-1,0
-157.03,26.39,-80.36,3704,-7365,1235,0,-1,0
-157.04,26.39,-80.35,3700,-7331,1274,-1,-1,0
-157.04,26.38,-80.36,3712,-7351,1254,-1,0,0
-157.05,26.36,-80.36,3673,-7357,1244,0,-1,0
-157.04,26.37,-80.38,3738,-7350,1248,-1,-1,0
-157.06,26.35,-80.37,3665,-7360,1263,0,0,0
-157.04,26.36,-80.39,3715,-7351,1244,-1,-1,-1
-157.05,26.36,-80.38,3692,-7347,1257,0,0,0
-157.05,26.36,-80.39,3706,-7342,1263,-1,-1,-1
-157.04,26.36,-80.39,3686,-7355,1255,0,0,-1
-157.04,26.36,-80.39,3712,-7363,1250,-1,-2,-1
-157.04,26.37,-80.40,3707,-7361,1226,0,0,0
-157.05,26.37,-80.39,3702,-7360,1242,-1,-1,-1
-157.03,26.38,-80.40,3728,-7367,1234,0,-1,-1
-157.04,26.37,-80.38,3705,-7353,1243,0,-1,-1
-157.03,26.39,-80.38,3713,-7353,1239,0,0,-1
-157.02,26.40,-80.37,3701,-7358,1237,0,0,-1
-157.03,26.40,-80.36,3704,-7346,1254,0,-1,0
-157.03,26.40,-80.36,3696,-7360,1250,0,-1,-1
-157.02,26.40,-80.35,3696,-7359,1259,0,-1,-1
-157.02,26.40,-80.35,3709,-7364,1256,0,-1,0
-157.02,26.40,-80.35,3705,-7364,1250,0,0,-1
-157.02,26.40,-80.35,3709,-7361,1249,-1,-1,0
-157.03,26.41,-80.34,3719,-7347,1246,0,0,-1
-157.02,26.41,-80.35,3708,-7358,1232,-1,-1,-1
-157.01,26.42,-80.34,3727,-7334,1242,0,-1,0
-157.03,26.40,-80.34,3695,-7355,1261,-1,-1,0
-157.04,26.40,-80.34,3714,-7350,1237,0,0,0
-157.05,26.39,-80.33,3698,-7363,1250,0,0,-1
-157.04,26.39,-80.34,3713,-7344,1256,-1,0,0
-157.04,26.40,-80.34,3696,-7350,1245,0,-1,-1
-157.04,26.39,-80.33,3712,-7340,1260,-1,-1,0
-157.03,26.40,-80.35,3711,-7368,1240,-1,-1,-1
-157.03,26.40,-80.35,3690,-7336,1240,0,0,0
-157.04,26.40,-80.34,3690,-7352,1257,0,-1,-1
-157.03,26.40,-80.35,3704,-7351,1248,-1,0,-1
-157.03,26.40,-80.35,3706,-7355,1254,0,0,-1
-157.02,26.41,-80.35,3714,-7356,1251,-1,0,-1
-157.02,26.41,-80.35,3699,-7359,1249,0,0,-1
-157.01,26.41,-80.34,3707,-7351,1259,-1,0,-1
-157.00,26.42,-80.35,3711,-7350,1254,-1,0,-1
-157.00,26.42,-80.35,3700,-7342,1253,-1,0,-1
-156.99,26.42,-80.36,3706,-7344,1247,-1,0,-1
-156.99,26.43,-80.36,3713,-7344,1245,0,0,-1
-156.99,26.43,-80.35,3710,-7346,1244,-1,0,-1
-156.99,26.43,-80.36,3702,-7351,1233,-1,0,-1
-156.98,26.43,-80.36,3711,-7352,1244,-1,0,-1
-156.97,26.43,-80.37,3714,-7348,1244,-1,0,-1
-156.97,26.44,-80.37,3713,-7350,1244,-1,0,-1
-156.96,26.44,-80.37,3716,-7353,1239,-1,0,-1
-156.96,26.44,-80.36,3710,-7351,1229,0,0,-1
-156.96,26.45,-80.36,3710,-7349,1233,-1,0,-1
-156.96,26.45,-80.36,3716,-7356,1249,0,0,0
-156.96,26.45,-80.35,3716,-7360,1249,0,0,-1
-156.96,26.45,-80.35,3714,-7354,1258,-1,0,-1
-156.96,26.45,-80.35,3708,-7350,1266,-1,0,0
-156.97,26.44,-80.35,3701,-7352,1266,-1,0,-1
-156.97,26.44,-80.35,3701,-7346,1264,-1,0,0
-156.96,26.45,-80.35,3712,-7344,1255,-1,0,0
-156.96,26.44,-80.35,3715,-7346,1256,-1,0,0
-156.96,26.44,-80.35,3709,-7347,1246,-1,0,0
-156.95,26.44,-80.36,3719,-7357,1242,-1,0,0
-156.95,26.44,-80.36,3722,-7351,1241,-1,0,0
-156.95,26.44,-80.37,3712,-7353,1238,-1,0,-1
-156.95,26.44,-80.37,3717,-7354,1234,0,0,0
-156.96,26.43,-80.38,3703,-7356,1239,-1,0,0
-156.96,26.43,-80.37,3719,-7349,1244,-1,0,0
-156.96,26.43,-80.37,3716,-7350,1243,0,0,-1
-156.97,26.42,-80.37,3705,-7354,1250,0,0,0
-156.97,26.42,-80.37,3705,-7345,1257,-1,0,-1
-156.96,26.43,-80.37,3706,-7351,1261,-1,0,-1
-156.96,26.43,-80.36,3706,-7348,1262,-1,0,-1
-156.96,26.43,-80.37,3707,-7340,1254,-1,0,0
-156.96,26.43,-80.37,3707,-7345,1244,-1,0,0
-156.97,26.42,-80.37,3708,-7336,1246,-1,0,0
-156.97,26.42,-80.37,3710,-7347,1247,-1,0,0
-156.97,26.41,-80.37,3715,-7355,1243,-1,0,0
-156.98,26.41,-80.37,3722,-7356,1243,-1,0,0
-156.98,26.40,-80.37,3714,-7350,1253,-1,0,0
-156.99,26.39,-80.38,3706,-7355,1243,-1,-1,0
-157.00,26.38,-80.38,3704,-7356,1259,0,-1,0
-157.00,26.38,-80.40,3703,-7359,1223,-1,0,0
-157.00,26.37,-80.40,3706,-7349,1246,-1,-1,0
-157.01,26.36,-80.39,3685,-7337,1262,0,0,0
-157.01,26.36,-80.40,3688,-7340,1236,-1,0,0
-157.00,26.36,-80.42,3712,-7371,1244,-1,-1,-1
-156.99,26.36,-80.43,3726,-7358,1234,-1,1,0
-157.01,26.35,-80.42,3679,-7356,1233,0,-1,0
-157.00,26.36,-80.43,3735,-7347,1246,-2,-1,0
-157.00,26.35,-80.44,3712,-7367,1207,0,1,0
-157.02,26.33,-80.43,3697,-7342,1243,-1,-1,0
-157.03,26.32,-80.44,3676,-7343,1217,-1,0,0
-157.04,26.31,-80.44,3683,-7366,1245,-1,-1,0
-157.03,26.32,-80.44,3716,-7349,1241,0,0,0
-157.06,26.30,-80.43,3663,-7370,1247,-1,-1,-1
-157.04,26.31,-80.45,3713,-7367,1229,-1,0,0
-157.06,26.30,-80.40,3699,-7384,1204,2,1,0
-157.08,26.29,-80.37,3666,-7354,1261,-1,-1,0
-157.07,26.30,-80.36,3708,-7350,1277,0,0,0
-157.08,26.29,-80.35,3671,-7343,1250,0,0,0
-157.08,26.29,-80.36,3703,-7352,1261,-1,-1,-1
-157.08,26.29,-80.35,3666,-7363,1251,0,0,0
-157.09,26.29,-80.34,3682,-7335,1258,0,-1,-1
-157.08,26.30,-80.34,3690,-7363,1238,0,0,-1
-157.08,26.30,-80.34,3682,-7357,1242,0,-1,-1
-157.08,26.31,-80.33,3678,-7356,1261,0,-1,-1
-157.06,26.32,-80.33,3694,-7348,1267,-1,-1,-1
-157.06,26.32,-80.33,3686,-7363,1250,0,-1,-1
-157.06,26.33,-80.33,3705,-7359,1263,-1,-1,-1
-157.05,26.33,-80.33,3702,-7358,1252,-1,0,-1
-157.05,26.33,-80.33,3701,-7344,1245,0,-1,-1
-157.05,26.34,-80.33,3710,-7364,1254,0,-1,0
-157.05,26.34,-80.32,3702,-7355,1250,-1,0,0
-157.04,26.34,-80.33,3714,-7367,1230,0,-1,-1
-157.04,26.34,-80.33,3707,-7374,1230,0,0,-1
-157.05,26.35,-80.32,3689,-7347,1260,0,-1,0
-157.04,26.35,-80.32,3696,-7347,1256,-1,-1,-1
-157.04,26.36,-80.31,3697,-7353,1255,0,0,-1
-157.03,26.37,-80.31,3702,-7355,1243,0,-1,-1
-157.03,26.37,-80.31,3705,-7364,1252,0,-1,-1
-157.03,26.37,-80.30,3708,-7356,1257,0,0,-1
-157.03,26.37,-80.29,3696,-7349,1264,0,-1,-1
-157.03,26.38,-80.29,3694,-7345,1268,-1,-1,-1
-157.03,26.38,-80.29,3693,-7345,1267,0,-1,-1
-157.03,26.38,-80.29,3697,-7359,1262,-1,-1,-1
-157.02,26.39,-80.29,3696,-7359,1263,-1,-1,0
-157.02,26.39,-80.29,3704,-7360,1256,0,-1,-1
-157.02,26.39,-80.30,3718,-7362,1261,0,-1,-1
-157.02,26.39,-80.29,3724,-7355,1254,-1,-1,0
-157.01,26.40,-80.29,3718,-7360,1243,0,-1,0
-157.01,26.40,-80.30,3716,-7353,1239,-1,-1,0
-157.01,26.40,-80.31,3718,-7351,1243,0,0,-1
-157.01,26.40,-80.30,3711,-7345,1257,0,-1,0
-157.02,26.39,-80.30,3701,-7341,1257,0,0,0
-157.02,26.39,-80.29,3695,-7345,1263,-1,-1,0
-157.02,26.40,-80.29,3704,-7356,1260,0,0,-1
-157.02,26.39,-80.28,3697,-7355,1265,0,-1,-1
-157.02,26.40,-80.28,3696,-7353,1268,0,-1,-1
-157.02,26.40,-80.28,3698,-7357,1263,-1,-1,-1
-157.01,26.41,-80.28,3710,-7348,1256,0,-1,-1
-157.01,26.41,-80.28,3709,-7350,1261,0,-1,-1
-157.00,26.42,-80.28,3719,-7345,1269,-1,-1,0
-157.00,26.42,-80.28,3711,-7344,1264,0,0,0
-157.01,26.42,-80.29,3718,-7349,1247,-1,-1,0
-157.00,26.42,-80.29,3716,-7354,1245,0,-1,0
-157.01,26.42,-80.29,3702,-7350,1252,0,-1,0
-157.01,26.41,-80.29,3703,-7359,1258,-1,-1,0
-157.02,26.41,-80.29,3695,-7361,1271,-1,-1,-1
-157.01,26.41,-80.29,3703,-7361,1259,-1,-1,-1
-157.00,26.42,-80.29,3707,-7355,1259,0,-1,-1
-157.00,26.42,-80.29,3713,-7349,1261,0,-1,-1
-157.00,26.42,-80.28,3719,-7345,1261,0,0,-1
-157.00,26.43,-80.27,3715,-7352,1283,0,-1,-1
-157.00,26.43,-80.27,3716,-7355,1279,0,0,-1
-157.01,26.43,-80.26,3714,-7357,1271,0,-1,0
-157.01,26.43,-80.26,3713,-7354,1270,0,0,-1
-157.01,26.42,-80.26,3708,-7353,1278,0,-1,0
-157.01,26.43,-80.27,3703,-7348,1255,-1,-1,0
-157.01,26.42,-80.27,3703,-7345,1266,-1,-1,-1
-157.00,26.43,-80.28,3705,-7343,1260,-1,-1,-1
-157.00,26.43,-80.28,3703,-7350,1255,0,-1,-1
-157.00,26.43,-80.28,3709,-7353,1249,-1,-1,-1
-157.00,26.43,-80.28,3717,-7366,1252,0,-1,0
-157.00,26.43,-80.28,3711,-7354,1250,0,-1,-1
-157.00,26.43,-80.29,3711,-7352,1256,0,-1,0
-157.00,26.43,-80.28,3710,-7357,1257,0,-1,0
-157.01,26.43,-80.28,3702,-7358,1250,0,-1,-1
-157.01,26.43,-80.27,3714,-7352,1248,0,-1,-1
-157.01,26.43,-80.27,3713,-7352,1251,0,-1,-1
-157.01,26.43,-80.27,3712,-7343,1253,0,0,0
-157.01,26.43,-80.27,3708,-7349,1259,0,-1,-1
-157.01,26.43,-80.26,3706,-7348,1265,-1,-1,0
-157.01,26.43,-80.27,3703,-7348,1259,0,-1,-1
-157.01,26.43,-80.27,3714,-7344,1257,0,-1,0
-157.01,26.43,-80.27,3712,-7347,1266,-1,-1,-1
-157.00,26.44,-80.28,3723,-7354,1255,0,-1,-1
-157.00,26.45,-80.28,3720,-7347,1256,0,-1,-1
-156.99,26.45,-80.28,3726,-7342,1247,-1,-1,-1
-156.99,26.45,-80.28,3728,-7345,1244,0,-1,0
-156.99,26.45,-80.28,3715,-7349,1252,0,-1,0
-157.00,26.45,-80.28,3714,-7353,1249,0,-1,0
-157.00,26.44,-80.28,3716,-7351,1250,0,0,0
-157.00,26.45,-80.27,3707,-7352,1261,0,0,0
-157.01,26.44,-80.27,3711,-7349,1257,0,-1,-1
-157.01,26.45,-80.27,3716,-7355,1250,0,0,-1
-157.01,26.45,-80.26,3707,-7344,1261,0,0,-1
-157.00,26.46,-80.25,3707,-7333,1268,0,-1,-1
-157.01,26.45,-80.25,3701,-7335,1286,0,-1,-1
-157.01,26.45,-80.25,3715,-7341,1261,-1,-1,0
-157.00,26.45,-80.27,3720,-7355,1249,0,-1,-1
-157.01,26.45,-80.26,3718,-7353,1250,0,-1,0
-157.01,26.44,-80.26,3708,-7346,1260,-1,-1,0
-157.01,26.44,-80.26,3708,-7348,1263,0,-1,-1
-157.01,26.45,-80.27,3709,-7347,1262,-1,-1,-1
-157.01,26.45,-80.27,3714,-7353,1259,0,-1,-1
-157.01,26.45,-80.26,3716,-7350,1250,0,-1,-1
-157.01,26.45,-80.26,3716,-7347,1256,0,0,0
-157.01,26.46,-80.26,3733,-7349,1256,-1,0,-1
-157.01,26.46,-80.26,3727,-7355,1260,0,0,-1
-157.01,26.46,-80.25,3719,-7346,1261,0,0,-1
-157.01,26.46,-80.23,3723,-7348,1273,0,0,-1
-157.01,26.46,-80.22,3719,-7345,1275,0,-1,-1
-157.01,26.46,-80.22,3726,-7346,1277,0,-1,-1
-157.01,26.47,-80.22,3724,-7342,1265,0,-1,-1
-157.01,26.47,-80.22,3716,-7347,1273,-1,-1,-1
-157.01,26.47,-80.22,3715,-7338,1274,-1,-1,-1
-157.00,26.47,-80.23,3719,-7340,1262,-1,-1,-1
-157.00,26.47,-80.24,3713,-7347,1251,-1,-1,-1
-157.00,26.47,-80.25,3718,-7355,1263,-1,-1,-1
-157.00,26.47,-80.24,3716,-7354,1256,-1,0,-1
-156.99,26.47,-80.25,3721,-7351,1265,-1,0,-1
-156.98,26.48,-80.26,3727,-7350,1251,-1,0,-1
-156.98,26.48,-80.26,3740,-7351,1245,-1,0,0
-156.98,26.47,-80.25,3737,-7350,1251,-1,0,0
-156.99,26.47,-80.25,3726,-7348,1263,-1,0,0
-156.99,26.46,-80.26,3710,-7343,1248,0,0,0
-156.99,26.46,-80.24,3707,-7320,1282,-1,-1,-1
-156.99,26.46,-80.26,3706,-7326,1270,-1,0,-1
-156.98,26.46,-80.27,3715,-7346,1254,-1,-1,-1
-156.98,26.46,-80.27,3709,-7344,1274,-1,0,-1
-156.97,26.46,-80.28,3721,-7351,1272,-1,-1,-1
-156.97,26.46,-80.29,3730,-7356,1258,0,0,0
-156.97,26.46,-80.27,3720,-7338,1275,-1,0,-1
-156.97,26.46,-80.29,3711,-7346,1252,-1,0,-1
-156.96,26.46,-80.30,3725,-7355,1243,-1,0,-1
-156.97,26.45,-80.29,3691,-7347,1240,0,0,0
-156.97,26.45,-80.30,3720,-7347,1266,-1,-1,0
-156.98,26.45,-80.29,3700,-7333,1285,-1,0,0
-156.97,26.45,-80.31,3722,-7355,1249,-1,0,0
-156.97,26.45,-80.30,3716,-7341,1276,0,0,0
-156.97,26.45,-80.30,3701,-7339,1255,-1,0,-1
-156.96,26.46,-80.30,3717,-7353,1264,-1,0,-1
-156.95,26.46,-80.30,3724,-7347,1252,-1,0,-1
-156.95,26.46,-80.30,3724,-7343,1250,-1,0,-1
-156.94,26.46,-80.30,3715,-7349,1250,-1,0,-1
-156.95,26.46,-80.30,3714,-7340,1251,0,0,0
-156.95,26.45,-80.29,3715,-7343,1262,-1,0,0
-156.95,26.45,-80.30,3717,-7351,1251,0,0,0
-156.95,26.45,-80.30,3711,-7344,1261,-1,0,0
-156.95,26.45,-80.30,3723,-7348,1262,-1,0,-1
-156.95,26.45,-80.29,3707,-7341,1275,-1,0,0
-156.96,26.44,-80.30,3718,-7344,1252,-1,0,0
-156.95,26.45,-80.30,3715,-7345,1245,0,0,-1
-156.96,26.44,-80.30,3710,-7352,1247,-1,0,0
-156.96,26.44,-80.30,3712,-7358,1242,-1,0,-1
-156.95,26.44,-80.31,3718,-7360,1245,-1,0,0
-156.95,26.44,-80.31,3722,-7361,1254,0,0,-1
-156.95,26.44,-80.30,3718,-7360,1254,-1,0,-1
-156.96,26.44,-80.29,3719,-7359,1260,-1,0,-1
-156.95,26.44,-80.30,3712,-7352,1265,0,0,0
-156.96,26.44,-80.28,3710,-7343,1263,-1,0,-1
-156.96,26.43,-80.29,3707,-7352,1268,-1,0,0
-156.96,26.43,-80.28,3715,-7348,1263,-1,0,0
-156.96,26.43,-80.28,3716,-7355,1270,-1,0,0
-156.97,26.43,-80.28,3717,-7358,1257,-1,0,0
-156.96,26.43,-80.29,3711,-7353,1265,-1,0,0
-156.97,26.43,-80.28,3709,-7346,1261,-1,0,0
-156.97,26.43,-80.28,3716,-7345,1258,-1,0,0
-156.96,26.42,-80.30,3715,-7351,1250,-1,0,0
-156.96,26.42,-80.30,3714,-7351,1248,-1,0,0
-156.96,26.43,-80.30,3713,-7349,1244,-1,0,-1
-156.96,26.42,-80.30,3710,-7342,1255,0,0,0
-156.96,26.42,-80.30,3722,-7339,1259,0,0,0
-156.96,26.42,-80.30,3722,-7353,1252,0,0,-1
-156.96,26.42,-80.30,3717,-7351,1258,-1,0,0
-156.97,26.42,-80.30,3710,-7348,1264,-1,-1,-1
-156.97,26.42,-80.30,3705,-7344,1254,0,0,-1
-156.96,26.42,-80.30,3707,-7348,1244,0,-1,-1
-156.96,26.42,-80.29,3703,-7344,1246,0,-1,-1
-156.95,26.43,-80.29,3713,-7345,1247,0,-1,-1
-156.95,26.44,-80.29,3715,-7350,1262,0,-1,-1
-156.95,26.43,-80.28,3719,-7349,1266,0,-1,0
-156.95,26.44,-80.29,3719,-7357,1261,0,-1,0
-156.96,26.43,-80.29,3710,-7353,1259,0,-1,0
-156.96,26.43,-80.29,3702,-7348,1261,0,-1,0
-156.97,26.43,-80.28,3698,-7348,1267,0,-1,0
-156.97,26.42,-80.28,3700,-7353,1263,0,-1,0
-156.97,26.43,-80.27,3704,-7351,1256,0,-1,-1
-156.97,26.43,-80.27,3710,-7358,1262,0,-1,-1
-156.96,26.44,-80.27,3718,-7355,1261,0,-1,-1
-156.96,26.44,-80.27,3722,-7349,1261,0,-1,-1
-156.95,26.45,-80.27,3714,-7343,1260,0,-1,-1
-156.96,26.44,-80.27,3720,-7349,1270,0,-1,0
-156.95,26.45,-80.27,3727,-7336,1267,0,-1,0
-156.97,26.44,-80.27,3704,-7349,1264,0,-1,-1
-156.97,26.44,-80.27,3708,-7356,1255,0,-1,0
-156.97,26.44,-80.27,3706,-7361,1259,0,-1,-1
-156.97,26.44,-80.28,3711,-7356,1260,-1,-1,-1
-156.96,26.44,-80.28,3708,-7355,1258,0,-1,-1
-156.96,26.45,-80.28,3712,-7354,1254,0,-1,-1
-156.95,26.46,-80.28,3722,-7349,1258,0,-1,-1
-156.95,26.46,-80.27,3722,-7342,1262,0,-1,-1
-156.95,26.46,-80.27,3730,-7338,1249,-1,-1,-1
-156.95,26.47,-80.27,3731,-7343,1242,0,-1,0
-156.95,26.46,-80.26,3719,-7334,1250,0,-1,0
-156.95,26.47,-80.26,3715,-7341,1260,0,-1,0
-156.95,26.46,-80.26,3710,-7340,1261,0,-1,0
-156.96,26.46,-80.27,3710,-7340,1259,-1,-1,0
-156.96,26.46,-80.27,3697,-7343,1260,-1,-1,0
-156.96,26.46,-80.27,3700,-7341,1263,-1,-1,-1
-156.95,26.46,-80.29,3705,-7339,1259,-1,-1,0
-156.96,26.46,-80.29,3712,-7344,1257,-1,-1,-1
-156.95,26.46,-80.30,3712,-7350,1249,-1,-1,0
-156.95,26.46,-80.30,3714,-7357,1254,0,-1,0
-156.95,26.46,-80.31,3715,-7357,1258,-1,-1,0
-156.95,26.46,-80.31,3715,-7357,1241,0,-1,-1
-156.95,26.46,-80.31,3718,-7351,1247,0,-1,-1
-156.95,26.46,-80.30,3722,-7339,1253,0,-1,0
-156.95,26.46,-80.30,3713,-7345,1246,0,0,-1
-156.96,26.46,-80.29,3715,-7353,1252,0,0,0
-156.96,26.46,-80.29,3704,-7349,1253,0,-1,-1
-156.96,26.46,-80.29,3706,-7343,1260,0,-1,-1
-156.96,26.46,-80.29,3704,-7339,1257,0,-1,-1
-156.96,26.46,-80.29,3710,-7345,1253,-1,-1,-1
-156.95,26.47,-80.29,3717,-7343,1252,-1,-1,-1
-156.95,26.47,-80.29,3716,-7346,1261,-1,-1,-1
-156.95,26.47,-80.30,3717,-7341,1255,-1,-1,0
-156.95,26.47,-80.30,3720,-7352,1248,-1,-1,0
-156.96,26.46,-80.30,3718,-7352,1246,0,-1,0
-156.96,26.46,-80.31,3707,-7353,1244,0,-1,-1
-156.96,26.46,-80.31,3707,-7350,1242,0,-1,-1
-156.96,26.46,-80.31,3712,-7352,1239,0,-1,-1
-156.95,26.47,-80.31,3721,-7348,1241,-1,-1,-1
-156.94,26.47,-80.31,3724,-7347,1231,0,-1,0
-156.95,26.47,-80.31,3718,-7341,1238,0,0,0
-156.96,26.46,-80.31,3714,-7346,1243,0,-1,0
-156.96,26.46,-80.31,3713,-7345,1245,-1,0,0
-156.96,26.46,-80.31,3709,-7345,1256,0,-1,0
-156.96,26.46,-80.30,3709,-7347,1259,0,-1,0
-156.96,26.46,-80.31,3710,-7358,1251,0,-1,-1
-156.96,26.47,-80.31,3717,-7358,1253,-1,-1,-1
-156.96,26.47,-80.31,3718,-7352,1251,-1,-1,-1
-156.95,26.47,-80.31,3729,-7349,1254,-1,-1,0
-156.95,26.47,-80.31,3720,-7339,1270,-1,-1,-1
-156.95,26.47,-80.31,3725,-7334,1255,-1,-1,0
-156.95,26.47,-80.31,3721,-7345,1257,0,-1,0
-156.96,26.47,-80.31,3721,-7348,1257,0,0,0
-156.96,26.46,-80.30,3713,-7347,1261,0,-1,0
-156.97,26.46,-80.30,3714,-7352,1260,0,-1,-1
-156.96,26.46,-80.30,3716,-7352,1252,0,-1,-1
-156.96,26.46,-80.30,3711,-7350,1246,0,-1,-1
-156.96,26.47,-80.30,3712,-7343,1247,0,0,-1
-156.95,26.47,-80.30,3712,-7348,1245,0,0,-1
-156.95,26.47,-80.30,3711,-7342,1253,0,0,-1
-156.95,26.47,-80.30,3721,-7351,1253,0,0,0
-156.96,26.48,-80.29,3729,-7347,1265,0,0,0
-156.96,26.47,-80.28,3726,-7348,1260,0,0,-1
-156.96,26.47,-80.27,3725,-7345,1273,0,-1,0
-156.97,26.47,-80.27,3723,-7345,1268,-1,-1,-1
-156.96,26.47,-80.28,3719,-7348,1267,-1,-1,0
-156.96,26.47,-80.28,3713,-7345,1264,-1,-1,-1
-156.96,26.48,-80.28,3712,-7343,1260,-1,-1,-1
-156.96,26.47,-80.29,3722,-7342,1250,-1,-1,0
-156.96,26.48,-80.29,3721,-7348,1248,-1,-1,0
-156.96,26.48,-80.30,3730,-7348,1247,0,-1,0
-156.96,26.47,-80.29,3728,-7349,1249,0,-1,0
-156.96,26.47,-80.29,3721,-7346,1251,0,-1,0
-156.97,26.47,-80.28,3722,-7348,1257,0,-1,0
-156.96,26.48,-80.28,3717,-7350,1248,0,-1,-1
-156.97,26.48,-80.27,3722,-7346,1256,0,0,-1
-156.97,26.48,-80.27,3718,-7340,1265,0,-1,-1
-156.97,26.48,-80.27,3724,-7343,1264,-1,-1,0
-156.97,26.48,-80.27,3721,-7349,1264,0,-1,-1
-156.97,26.48,-80.26,3724,-7348,1263,0,0,0
-156.97,26.48,-80.26,3714,-7340,1262,-1,-1,0
-156.97,26.48,-80.27,3713,-7343,1265,0,-1,-1
-156.96,26.48,-80.27,3719,-7347,1261,-1,-1,-1
-156.96,26.48,-80.27,3718,-7343,1248,0,-1,-1
-156.96,26.49,-80.28,3718,-7346,1250,-1,-1,-1
-156.96,26.49,-80.27,3726,-7349,1260,0,-1,0
-156.96,26.49,-80.27,3723,-7343,1250,0,-1,-1
-156.96,26.49,-80.27,3723,-7347,1255,0,0,-1
