Yaw,Pitch,Roll,AX,AY,AZ,GX,GY,GZ
23.24,12.43,-45.66,1795,-5780,5663,0,0,-1
23.24,12.42,-45.65,1803,-5775,5667,0,0,0
23.24,12.43,-45.64,1793,-5769,5670,-1,-1,0
23.24,12.43,-45.64,1791,-5771,5664,-1,-1,0
23.24,12.43,-45.65,1787,-5769,5664,-1,-1,0
23.24,12.44,-45.65,1783,-5775,5655,-1,-1,-1
23.24,12.44,-45.66,1801,-5779,5664,-1,0,-1
23.24,12.44,-45.66,1799,-5780,5666,-1,0,-1
23.25,12.44,-45.66,1795,-5780,5674,-1,0,-1
23.25,12.43,-45.67,1799,-5782,5664,-1,0,-1
23.25,12.42,-45.67,1797,-5790,5663,-1,0,-1
23.26,12.42,-45.67,1794,-5785,5666,-1,0,-1
23.26,12.42,-45.68,1793,-5783,5667,-1,0,-1
23.27,12.41,-45.67,1785,-5780,5664,-1,0,-1
23.27,12.40,-45.67,1781,-5774,5667,-1,0,-1
23.27,12.40,-45.68,1777,-5774,5667,-1,0,-1
23.27,12.39,-45.70,1772,-5783,5659,-1,0,-1
23.28,12.39,-45.70,1782,-5796,5659,-1,0,-1
23.28,12.39,-45.72,1787,-5795,5660,-1,0,-1
23.28,12.39,-45.73,1790,-5793,5659,-1,0,-1
23.29,12.38,-45.73,1791,-5785,5661,-1,0,-1
23.29,12.38,-45.73,1796,-5783,5647,-1,0,-1
23.30,12.38,-45.74,1801,-5779,5656,-1,0,-1
23.30,12.37,-45.75,1800,-5784,5656,-1,0,-1
23.30,12.37,-45.76,1794,-5796,5658,-1,0,0
23.30,12.36,-45.77,1786,-5810,5657,-1,0,-1
23.30,12.35,-45.78,1782,-5803,5655,-1,0,-1
23.31,12.34,-45.78,1771,-5799,5654,-1,0,-1
23.32,12.35,-45.78,1773,-5790,5654,-1,0,-1
23.32,12.34,-45.78,1779,-5789,5656,-1,0,-1
23.33,12.35,-45.78,1802,-5793,5667,-1,0,-1
23.33,12.34,-45.78,1792,-5786,5668,-1,0,-1
23.34,12.34,-45.80,1788,-5796,5655,-1,0,-1
23.34,12.33,-45.81,1782,-5794,5647,-1,0,-1
23.34,12.33,-45.81,1784,-5792,5657,-1,0,-1
23.34,12.32,-45.82,1776,-5788,5651,-1,0,-1
23.34,12.31,-45.83,1770,-5791,5651,-1,0,-1
23.35,12.31,-45.85,1780,-5794,5656,-1,0,-1
23.35,12.30,-45.86,1780,-5801,5665,-1,0,-1
23.35,12.29,-45.88,1771,-5819,5653,-1,0,-1
23.35,12.28,-45.90,1763,-5815,5644,-1,0,-1
23.35,12.27,-45.91,1771,-5815,5648,-1,0,-1
23.36,12.26,-45.92,1767,-5805,5653,-1,0,-1
23.36,12.25,-45.93,1765,-5808,5640,-1,0,-1
23.37,12.25,-45.93,1770,-5814,5642,-1,0,-1
23.37,12.24,-45.93,1774,-5810,5645,-1,0,-1
23.37,12.23,-45.93,1775,-5806,5651,-1,0,-1
23.37,12.23,-45.94,1770,-5805,5654,-1,0,0
23.37,12.21,-45.94,1766,-5817,5647,-1,0,-1
23.37,12.20,-45.95,1758,-5819,5647,-1,0,-1
23.37,12.19,-45.96,1756,-5809,5649,-1,0,-1
23.37,12.19,-45.98,1749,-5813,5641,-1,0,-1
23.38,12.18,-45.99,1752,-5819,5645,-1,0,-1
23.38,12.17,-46.00,1762,-5821,5644,-1,0,-1
23.39,12.17,-46.02,1759,-5819,5650,-1,0,-1
23.39,12.16,-46.04,1756,-5826,5646,-1,0,-1
23.39,12.15,-46.05,1757,-5836,5639,-1,0,-1
23.40,12.15,-46.06,1762,-5836,5630,-1,0,-1
23.40,12.14,-46.07,1756,-5821,5621,-1,0,-1
23.40,12.14,-46.09,1745,-5811,5638,-1,-1,-1
23.40,12.13,-46.10,1753,-5826,5612,-1,0,0
23.39,12.12,-46.11,1746,-5833,5623,-1,0,-1
23.40,12.12,-46.12,1741,-5837,5613,-1,0,-1
23.40,12.12,-46.12,1742,-5830,5634,-1,-1,-1
23.39,12.12,-46.13,1749,-5833,5631,-1,0,-1
23.39,12.12,-46.13,1750,-5830,5625,0,-1,-1
23.40,12.13,-46.12,1749,-5830,5619,0,-1,0
23.40,12.13,-46.12,1756,-5837,5614,0,-1,0
23.40,12.14,-46.12,1756,-5843,5622,0,-1,0
23.40,12.14,-46.12,1742,-5848,5628,0,-1,0
23.40,12.14,-46.10,1733,-5843,5630,0,-1,0
23.40,12.15,-46.09,1734,-5848,5615,0,-1,-1
23.40,12.16,-46.08,1743,-5830,5618,0,-1,-1
23.41,12.18,-46.06,1752,-5828,5614,0,-1,-1
23.41,12.18,-46.06,1751,-5824,5619,0,-1,0
23.41,12.19,-46.04,1765,-5829,5639,0,-1,0
23.41,12.20,-46.03,1760,-5832,5629,0,-1,0
23.41,12.21,-46.02,1752,-5830,5629,0,-1,-1
23.41,12.22,-46.01,1760,-5824,5621,0,-1,-1
23.42,12.23,-46.00,1761,-5824,5615,0,-1,-1
23.42,12.24,-45.99,1762,-5828,5626,0,-1,0
23.42,12.25,-45.98,1763,-5822,5634,0,-1,0
23.42,12.27,-45.98,1770,-5828,5627,0,-1,0
23.42,12.28,-45.97,1771,-5829,5623,0,-1,0
23.42,12.29,-45.96,1773,-5838,5628,0,-1,0
23.42,12.29,-45.95,1771,-5838,5627,0,-1,-1
23.42,12.30,-45.94,1771,-5836,5633,0,-1,-1
23.42,12.30,-45.93,1770,-5825,5628,0,-1,0
23.42,12.31,-45.91,1777,-5816,5626,0,-1,0
23.42,12.32,-45.89,1778,-5809,5632,0,-1,0
23.42,12.33,-45.88,1776,-5804,5637,0,-1,0
23.41,12.33,-45.87,1776,-5803,5651,0,-1,0
23.42,12.34,-45.87,1776,-5809,5644,0,-1,0
23.41,12.34,-45.86,1768,-5817,5647,0,-1,0
23.41,12.35,-45.85,1766,-5810,5648,0,-1,-1
23.41,12.35,-45.84,1768,-5814,5645,0,-1,-1
23.41,12.36,-45.85,1770,-5814,5636,0,-1,0
23.41,12.37,-45.84,1767,-5811,5639,0,-1,0
23.40,12.37,-45.83,1769,-5814,5640,0,-1,0
23.40,12.38,-45.83,1778,-5823,5633,0,-1,0
23.40,12.39,-45.82,1779,-5822,5631,0,-1,0
23.40,12.39,-45.82,1776,-5823,5623,0,-1,-1
23.40,12.39,-45.81,1771,-5817,5632,0,-1,0
23.40,12.40,-45.80,1778,-5815,5646,0,-1,-1
23.40,12.41,-45.79,1779,-5808,5640,0,-1,0
23.40,12.41,-45.78,1781,-5809,5640,0,-1,0
23.39,12.42,-45.78,1788,-5816,5652,0,-1,-1
23.39,12.42,-45.77,1777,-5810,5642,0,-1,0
23.38,12.41,-45.76,1770,-5800,5641,0,-1,0
23.38,12.42,-45.75,1766,-5798,5647,0,-1,0
23.38,12.42,-45.75,1770,-5804,5652,0,-1,0
23.38,12.43,-45.74,1770,-5808,5655,0,-1,0
23.38,12.43,-45.73,1775,-5804,5653,0,-1,0
23.38,12.44,-45.73,1778,-5796,5653,0,-1,-1
23.37,12.45,-45.72,1786,-5788,5642,0,-1,0
23.38,12.46,-45.71,1798,-5785,5642,0,-1,0
23.38,12.46,-45.71,1797,-5792,5640,0,-1,0
23.37,12.46,-45.72,1789,-5804,5646,0,-1,0
23.36,12.46,-45.72,1781,-5819,5640,0,-1,0
23.35,12.45,-45.72,1767,-5820,5639,0,-1,0
23.35,12.46,-45.71,1762,-5821,5641,0,-1,-1
23.35,12.46,-45.70,1768,-5813,5641,0,-1,-1
23.36,12.47,-45.69,1777,-5798,5638,0,-1,-1
23.36,12.47,-45.68,1778,-5787,5631,0,-1,0
23.36,12.48,-45.67,1790,-5785,5634,0,-1,0
23.35,12.48,-45.67,1796,-5789,5639,0,-1,0
23.35,12.48,-45.65,1787,-5780,5654,0,0,0
23.34,12.48,-45.65,1786,-5786,5646,0,-1,0
23.34,12.48,-45.65,1786,-5788,5651,0,-1,0
23.33,12.48,-45.64,1771,-5800,5655,0,-1,0
23.33,12.49,-45.64,1777,-5804,5660,0,-1,-1
23.33,12.50,-45.65,1787,-5808,5663,0,-1,-1
23.33,12.50,-45.65,1792,-5810,5649,0,-1,-1
23.33,12.51,-45.65,1800,-5803,5638,0,-1,0
23.33,12.52,-45.64,1799,-5800,5640,0,-1,0
23.32,12.52,-45.63,1788,-5802,5637,0,0,0
23.32,12.51,-45.62,1788,-5798,5643,0,-1,0
23.32,12.51,-45.60,1793,-5789,5645,0,-1,0
23.32,12.51,-45.59,1793,-5782,5648,0,-1,0
23.31,12.51,-45.58,1790,-5781,5662,0,-1,0
23.31,12.51,-45.57,1785,-5783,5665,0,-1,0
23.30,12.52,-45.57,1786,-5784,5660,0,-1,0
23.29,12.52,-45.57,1782,-5787,5658,0,-1,0
23.29,12.53,-45.58,1787,-5787,5647,0,-1,0
23.29,12.53,-45.57,1789,-5792,5651,0,-1,0
23.29,12.54,-45.57,1796,-5793,5656,0,-1,0
23.28,12.54,-45.56,1801,-5793,5659,0,-1,0
23.28,12.55,-45.56,1801,-5796,5645,0,-1,0
23.28,12.55,-45.55,1789,-5786,5642,0,-1,0
23.27,12.55,-45.54,1789,-5781,5649,0,-1,0
23.27,12.55,-45.52,1790,-5785,5659,0,-1,0
23.27,12.54,-45.51,1794,-5782,5660,0,0,-1
23.27,12.55,-45.49,1802,-5777,5660,0,-1,0
23.27,12.56,-45.48,1800,-5775,5658,0,-1,0
23.26,12.55,-45.48,1783,-5783,5653,0,-1,0
23.25,12.55,-45.48,1793,-5787,5654,0,-1,0
23.25,12.56,-45.48,1784,-5784,5657,0,-1,0
23.25,12.56,-45.48,1779,-5786,5662,0,-1,-1
23.25,12.56,-45.48,1787,-5788,5673,-1,-1,-1
23.25,12.57,-45.48,1793,-5794,5666,0,-1,-1
23.25,12.57,-45.48,1801,-5796,5661,0,-1,-1
23.25,12.57,-45.48,1806,-5782,5671,-1,0,0
23.25,12.56,-45.48,1799,-5767,5674,-1,0,0
23.24,12.54,-45.49,1792,-5767,5660,-1,0,0
23.24,12.54,-45.50,1798,-5789,5654,-1,0,-1
23.24,12.53,-45.51,1791,-5792,5668,-1,0,0
23.24,12.53,-45.51,1777,-5792,5668,-1,0,-1
23.24,12.53,-45.52,1779,-5780,5670,-1,-1,-1
23.25,12.54,-45.53,1786,-5780,5657,-1,-1,-1
23.24,12.54,-45.54,1808,-5790,5649,-1,0,-1
23.25,12.54,-45.55,1802,-5778,5645,-1,0,-1
23.25,12.54,-45.55,1798,-5785,5643,-1,0,0
23.25,12.53,-45.56,1794,-5799,5661,-1,0,-1
23.25,12.52,-45.57,1785,-5804,5652,-1,0,0
23.24,12.50,-45.57,1765,-5809,5646,-1,0,-1
23.24,12.51,-45.57,1775,-5804,5651,0,0,-1
23.25,12.51,-45.58,1783,-5797,5645,0,0,-1
23.26,12.51,-45.57,1785,-5787,5646,-1,0,-1
23.25,12.50,-45.58,1789,-5776,5646,-1,0,-1
23.26,12.51,-45.58,1796,-5778,5657,-1,0,-1
23.26,12.49,-45.60,1798,-5788,5654,-1,0,-1
23.26,12.49,-45.62,1803,-5787,5659,-1,0,-1
23.26,12.47,-45.63,1781,-5785,5672,-1,0,-1
23.25,12.46,-45.66,1770,-5793,5654,-2,0,-1
23.26,12.45,-45.68,1762,-5797,5641,-1,0,-1
23.26,12.44,-45.71,1766,-5802,5646,-2,0,-1
23.26,12.44,-45.74,1779,-5806,5646,-2,0,-1
23.27,12.43,-45.79,1776,-5816,5638,-2,0,-1
23.27,12.44,-45.83,1786,-5826,5618,-2,-1,0
23.26,12.43,-45.86,1776,-5820,5611,-2,0,-1
23.26,12.42,-45.89,1774,-5836,5621,-1,0,-1
23.27,12.41,-45.91,1777,-5828,5623,-1,0,-1
23.26,12.40,-45.94,1772,-5834,5605,-1,0,-1
23.26,12.40,-45.95,1781,-5832,5617,-1,0,-1
23.27,12.39,-45.97,1782,-5830,5613,-1,0,-1
23.26,12.38,-45.98,1789,-5844,5598,-1,0,0
23.27,12.37,-45.98,1781,-5824,5623,-1,0,0
23.26,12.35,-46.00,1762,-5836,5615,-1,0,0
23.25,12.34,-46.00,1755,-5839,5605,0,0,-1
23.26,12.34,-46.01,1765,-5843,5612,-1,0,-1
23.25,12.33,-46.02,1749,-5844,5625,-1,-1,0
23.25,12.33,-46.04,1753,-5849,5605,-1,0,-1
23.25,12.31,-46.05,1754,-5834,5609,-1,0,-1
23.25,12.30,-46.06,1749,-5853,5616,-1,0,-1
23.25,12.30,-46.07,1755,-5843,5607,-1,0,0
23.24,12.28,-46.09,1749,-5840,5612,-1,0,-1
23.24,12.27,-46.12,1731,-5853,5617,-1,0,-1
23.24,12.28,-46.15,1758,-5844,5626,-2,-1,-1
23.24,12.28,-46.18,1744,-5855,5595,-1,0,-1
23.24,12.28,-46.20,1760,-5849,5587,-1,0,-1
23.23,12.27,-46.23,1758,-5859,5591,-1,-1,-1
23.23,12.28,-46.25,1757,-5853,5598,-1,-1,0
23.22,12.29,-46.27,1745,-5880,5562,-1,-1,-1
23.22,12.30,-46.28,1757,-5873,5569,-1,-1,0
23.22,12.31,-46.29,1765,-5879,5576,0,-1,0
23.22,12.31,-46.28,1766,-5882,5581,0,0,-1
23.21,12.31,-46.29,1759,-5884,5571,0,-1,0
23.21,12.31,-46.27,1763,-5867,5585,0,0,0
23.20,12.31,-46.26,1751,-5882,5569,0,-1,0
23.20,12.31,-46.24,1759,-5880,5571,1,-1,0
23.20,12.32,-46.21,1766,-5857,5597,1,-1,0
23.20,12.32,-46.17,1773,-5846,5608,0,-1,0
23.20,12.33,-46.16,1770,-5853,5583,0,-1,0
23.19,12.33,-46.13,1770,-5858,5570,1,-1,0
23.19,12.34,-46.09,1762,-5846,5589,1,-1,0
23.19,12.33,-46.06,1757,-5860,5607,1,-1,0
23.18,12.33,-46.03,1743,-5862,5610,1,-1,0
23.18,12.34,-46.01,1732,-5861,5607,1,-1,-1
23.18,12.35,-45.98,1734,-5848,5628,1,-1,-1
23.19,12.37,-45.95,1750,-5837,5616,0,-1,-1
23.19,12.38,-45.93,1758,-5825,5628,0,-1,0
23.19,12.39,-45.92,1765,-5816,5633,0,-1,0
23.18,12.40,-45.91,1767,-5808,5630,0,-1,0
23.18,12.42,-45.90,1773,-5821,5629,0,-1,0
23.18,12.43,-45.90,1773,-5837,5645,0,-1,0
23.18,12.44,-45.89,1774,-5839,5631,0,-1,0
23.17,12.45,-45.89,1773,-5834,5630,0,-1,0
23.17,12.46,-45.88,1774,-5830,5621,0,-1,0
23.16,12.46,-45.88,1774,-5829,5619,0,-1,-1
23.16,12.48,-45.88,1774,-5826,5622,0,-1,0
23.16,12.49,-45.87,1778,-5831,5627,0,-1,0
23.17,12.49,-45.86,1781,-5831,5628,0,-1,-1
23.16,12.49,-45.85,1776,-5836,5634,0,-1,0
23.15,12.49,-45.85,1770,-5824,5634,0,0,0
23.15,12.48,-45.85,1754,-5812,5645,-1,0,-1
23.15,12.47,-45.86,1780,-5817,5630,-1,-1,0
23.15,12.48,-45.87,1777,-5799,5641,-1,-1,0
23.14,12.49,-45.89,1780,-5813,5651,-1,-1,0
23.13,12.49,-45.92,1778,-5829,5619,-1,-1,0
23.12,12.48,-45.95,1771,-5835,5660,-2,-1,0
23.12,12.50,-45.99,1790,-5825,5609,-1,0,-1
23.12,12.49,-46.01,1746,-5830,5619,-2,-1,-1
23.11,12.52,-46.05,1778,-5820,5601,-2,-1,0
23.11,12.52,-46.09,1757,-5846,5597,-1,-1,-1
23.10,12.54,-46.12,1792,-5857,5584,-1,-1,0
23.10,12.56,-46.15,1806,-5898,5594,-1,-1,-1
23.09,12.55,-46.16,1807,-5880,5571,0,0,0
23.08,12.55,-46.15,1808,-5884,5566,0,-1,0
23.08,12.55,-46.14,1792,-5874,5587,0,0,-1
23.08,12.54,-46.13,1789,-5883,5573,0,0,0
23.08,12.54,-46.10,1796,-5874,5602,0,-1,0
23.08,12.54,-46.08,1802,-5848,5607,0,-1,0
23.08,12.53,-46.06,1793,-5858,5596,1,0,0
23.07,12.52,-46.03,1775,-5828,5611,0,0,0
23.07,12.51,-46.01,1772,-5821,5614,0,0,0
23.06,12.51,-46.00,1766,-5832,5614,0,-1,-1
23.07,12.51,-46.00,1780,-5828,5632,0,0,-1
23.07,12.51,-46.00,1776,-5833,5619,0,-1,-1
23.07,12.51,-46.00,1772,-5816,5638,-1,0,0
23.06,12.51,-46.01,1758,-5813,5611,-1,-2,0
23.05,12.53,-46.03,1770,-5819,5598,-1,-1,0
23.05,12.54,-46.05,1799,-5835,5629,-1,-1,-1
23.05,12.55,-46.06,1793,-5853,5625,-1,-1,0
23.04,12.55,-46.08,1803,-5853,5614,-1,-1,0
23.04,12.55,-46.10,1779,-5870,5584,-1,-1,-1
23.04,12.55,-46.10,1787,-5861,5592,-1,0,-1
23.04,12.55,-46.11,1766,-5871,5599,0,-1,-1
23.05,12.56,-46.11,1766,-5846,5614,-1,-1,-1
23.04,12.57,-46.12,1775,-5845,5607,-1,-1,-1
23.05,12.58,-46.13,1796,-5844,5590,-1,-1,-1
23.06,12.59,-46.14,1815,-5844,5579,-1,0,-1
23.05,12.59,-46.16,1791,-5856,5575,-1,-1,0
23.05,12.60,-46.17,1807,-5823,5616,-1,-1,-1
23.05,12.61,-46.19,1810,-5845,5594,-1,-1,0
23.04,12.62,-46.22,1808,-5873,5569,-1,-2,0
23.03,12.62,-46.23,1802,-5841,5584,-1,0,0
23.02,12.62,-46.25,1801,-5861,5592,-1,-1,0
23.01,12.63,-46.27,1793,-5865,5582,-1,-1,0
23.00,12.62,-46.28,1788,-5871,5574,0,-1,0
23.00,12.62,-46.28,1801,-5892,5584,-1,-1,-1
22.99,12.62,-46.29,1791,-5870,5580,-1,-1,0
22.99,12.62,-46.29,1794,-5876,5574,0,-1,0
22.98,12.62,-46.29,1808,-5866,5574,0,-1,0
22.97,12.62,-46.29,1804,-5874,5550,0,-1,0
22.97,12.61,-46.27,1800,-5859,5597,0,0,0
22.96,12.61,-46.28,1811,-5861,5579,0,-1,0
22.95,12.61,-46.28,1793,-5881,5581,0,0,0
22.94,12.60,-46.28,1799,-5875,5584,-1,-1,0
22.94,12.60,-46.28,1797,-5853,5570,0,0,0
22.94,12.60,-46.29,1777,-5870,5574,-1,-1,-1
22.93,12.61,-46.30,1797,-5873,5583,0,-1,-1
22.93,12.61,-46.30,1783,-5846,5582,-1,-1,0
22.93,12.63,-46.32,1809,-5855,5554,-1,-1,0
22.92,12.62,-46.33,1792,-5871,5558,-1,-1,0
22.92,12.63,-46.34,1826,-5867,5571,-1,0,0
22.90,12.63,-46.35,1792,-5868,5557,-1,-1,0
22.90,12.64,-46.36,1811,-5887,5561,-1,-1,0
22.90,12.64,-46.37,1802,-5888,5569,-1,0,0
22.89,12.64,-46.37,1800,-5878,5574,0,-1,0
22.88,12.64,-46.38,1786,-5866,5563,-1,-1,0
22.87,12.65,-46.37,1799,-5864,5552,0,-1,0
22.87,12.65,-46.38,1829,-5877,5551,0,0,0
22.86,12.64,-46.38,1798,-5875,5565,0,-1,0
22.85,12.64,-46.37,1815,-5876,5560,0,-1,0
22.85,12.64,-46.36,1797,-5875,5570,0,0,0
22.85,12.63,-46.35,1802,-5890,5560,0,0,0
22.85,12.62,-46.33,1800,-5892,5570,0,0,-1
22.85,12.61,-46.32,1801,-5873,5571,0,0,-1
22.85,12.61,-46.30,1802,-5864,5562,0,0,-1
22.86,12.60,-46.28,1806,-5860,5574,0,0,-1
22.86,12.59,-46.26,1796,-5874,5572,0,0,-1
22.86,12.58,-46.24,1795,-5875,5595,0,0,-1
22.86,12.57,-46.23,1778,-5872,5595,0,0,-1
22.87,12.56,-46.23,1787,-5861,5583,0,0,-1
22.88,12.57,-46.23,1790,-5844,5600,-1,0,-1
22.89,12.57,-46.22,1791,-5835,5588,-1,0,-1
22.89,12.57,-46.24,1789,-5813,5592,-1,0,-1
22.90,12.58,-46.26,1789,-5840,5580,-2,-1,-1
22.89,12.58,-46.29,1804,-5863,5579,-1,0,-1
22.89,12.58,-46.31,1800,-5849,5582,-1,0,0
22.89,12.57,-46.33,1803,-5868,5587,-1,0,-1
22.89,12.57,-46.36,1805,-5892,5555,-1,0,-1
22.89,12.57,-46.37,1799,-5901,5541,0,0,-1
22.89,12.57,-46.36,1787,-5893,5556,0,-1,-1
22.89,12.57,-46.37,1789,-5902,5558,0,0,-1
22.89,12.57,-46.36,1805,-5901,5558,0,0,-1
22.90,12.56,-46.34,1806,-5886,5575,0,0,-1
22.90,12.55,-46.32,1799,-5874,5579,0,0,0
22.90,12.55,-46.31,1781,-5870,5571,0,0,-1
22.90,12.54,-46.30,1780,-5867,5564,0,0,-1
22.90,12.53,-46.28,1789,-5856,5578,0,0,0
22.89,12.52,-46.26,1771,-5848,5597,0,0,0
22.89,12.51,-46.25,1778,-5845,5612,-1,0,0
22.89,12.51,-46.26,1779,-5860,5617,-1,0,-1
22.89,12.50,-46.26,1781,-5860,5618,-1,0,-1
22.89,12.49,-46.28,1773,-5868,5583,-1,0,-1
22.89,12.50,-46.29,1770,-5859,5570,-1,-1,-1
22.89,12.50,-46.30,1775,-5852,5580,-1,-1,-1
22.89,12.50,-46.32,1777,-5855,5580,-1,-1,-1
22.89,12.51,-46.34,1790,-5877,5569,-1,0,-1
22.89,12.51,-46.36,1790,-5887,5553,-1,0,0
22.89,12.49,-46.37,1793,-5890,5552,-1,0,0
22.88,12.48,-46.37,1779,-5878,5564,-1,0,0
22.88,12.47,-46.38,1765,-5883,5565,-1,0,-1
22.87,12.47,-46.39,1767,-5888,5564,-1,0,-1
22.87,12.47,-46.39,1773,-5894,5566,0,0,-1
22.87,12.46,-46.39,1772,-5890,5572,0,0,-1
22.87,12.46,-46.39,1771,-5889,5571,0,0,-1
22.87,12.46,-46.39,1769,-5887,5557,0,0,-1
22.87,12.45,-46.39,1763,-5888,5558,0,0,-1
22.87,12.45,-46.39,1759,-5886,5561,0,-1,0
22.86,12.45,-46.38,1758,-5879,5582,0,-1,-1
22.86,12.45,-46.38,1760,-5878,5585,0,-1,-1
22.86,12.45,-46.38,1763,-5874,5576,0,-1,-1
22.86,12.46,-46.37,1765,-5866,5576,0,-1,-1
22.86,12.47,-46.38,1767,-5863,5568,0,-1,-1
22.86,12.48,-46.38,1781,-5870,5584,0,-1,-1
22.86,12.49,-46.37,1778,-5872,5578,0,-1,-1
22.86,12.49,-46.38,1776,-5876,5565,0,-1,0
22.85,12.50,-46.37,1775,-5881,5564,0,-1,-1
22.85,12.51,-46.38,1777,-5888,5560,0,-1,-1
22.85,12.52,-46.37,1777,-5892,5554,0,-1,-1
22.85,12.52,-46.36,1771,-5890,5561,0,-1,-1
22.86,12.53,-46.35,1771,-5876,5565,0,-1,-1
22.85,12.54,-46.34,1779,-5867,5562,0,-1,-1
22.85,12.55,-46.32,1783,-5868,5573,0,-1,-1
22.85,12.55,-46.31,1791,-5870,5569,0,-1,0
22.85,12.55,-46.30,1789,-5866,5576,0,-1,0
22.85,12.56,-46.29,1795,-5865,5581,0,-1,0
22.84,12.56,-46.28,1788,-5869,5580,0,-1,0
22.83,12.56,-46.28,1776,-5866,5587,0,-1,0
22.83,12.57,-46.28,1779,-5867,5590,0,-1,0
22.83,12.57,-46.28,1781,-5873,5585,0,-1,0
22.82,12.58,-46.28,1787,-5874,5577,0,-1,-1
22.82,12.59,-46.28,1788,-5876,5563,0,-1,-1
22.82,12.60,-46.28,1799,-5878,5572,0,-1,0
22.82,12.60,-46.27,1805,-5870,5577,0,-1,0
22.82,12.61,-46.26,1792,-5865,5566,0,-1,0
22.81,12.61,-46.25,1792,-5869,5565,0,-1,0
22.81,12.61,-46.24,1795,-5859,5577,0,-1,0
22.81,12.62,-46.23,1801,-5846,5575,0,-1,0
22.80,12.62,-46.22,1790,-5847,5576,0,-1,0
22.79,12.62,-46.21,1787,-5844,5580,0,-1,0
22.79,12.62,-46.21,1792,-5859,5587,0,-1,0
22.79,12.63,-46.20,1796,-5857,5594,0,-1,0
22.78,12.63,-46.20,1791,-5862,5589,0,-1,-1
22.78,12.64,-46.19,1783,-5857,5591,0,-1,-1
22.78,12.65,-46.19,1798,-5858,5593,0,-1,-1
22.78,12.66,-46.18,1805,-5861,5583,0,-1,0
22.78,12.67,-46.18,1809,-5855,5577,0,-1,0
22.77,12.67,-46.17,1808,-5851,5580,0,-1,0
22.77,12.67,-46.16,1801,-5851,5577,0,-1,0
22.76,12.67,-46.15,1800,-5856,5581,0,-1,0
22.76,12.67,-46.14,1803,-5850,5582,0,-1,0
22.75,12.67,-46.14,1796,-5849,5583,0,-1,0
22.75,12.67,-46.13,1798,-5848,5591,0,-1,0
22.75,12.68,-46.13,1801,-5846,5591,0,-1,0
22.74,12.69,-46.13,1800,-5856,5593,0,-1,0
22.73,12.69,-46.12,1804,-5851,5594,0,-1,0
22.73,12.69,-46.12,1808,-5854,5594,0,-1,0
22.73,12.69,-46.11,1810,-5852,5594,0,-1,0
22.73,12.70,-46.10,1811,-5846,5598,0,-1,0
22.72,12.69,-46.10,1810,-5844,5592,0,-1,0
22.72,12.69,-46.10,1812,-5850,5584,0,-1,0
22.72,12.70,-46.09,1810,-5851,5590,0,-1,0
22.71,12.70,-46.08,1807,-5849,5600,0,-1,0
22.71,12.70,-46.08,1808,-5847,5594,0,-1,0
22.70,12.71,-46.07,1813,-5839,5593,0,-1,0
22.70,12.71,-46.07,1818,-5828,5597,0,-1,0
22.70,12.72,-46.06,1818,-5827,5595,0,-1,0
22.70,12.71,-46.05,1821,-5843,5576,0,1,-1
22.69,12.69,-46.04,1791,-5846,5604,0,-1,0
22.68,12.69,-46.04,1804,-5859,5605,0,-1,0
22.68,12.69,-46.03,1784,-5846,5591,0,-1,-1
22.68,12.69,-46.03,1788,-5844,5581,0,-1,-1
22.68,12.70,-46.01,1802,-5836,5581,0,-1,-1
22.68,12.71,-46.00,1826,-5830,5586,0,-1,-1
22.69,12.72,-46.00,1824,-5830,5596,0,-1,0
22.68,12.72,-45.99,1821,-5827,5607,0,-1,0
22.68,12.71,-45.98,1823,-5831,5613,0,0,0
22.67,12.70,-45.97,1816,-5828,5621,0,0,0
22.67,12.70,-45.96,1810,-5826,5632,0,-1,0
22.66,12.70,-45.96,1810,-5838,5616,0,-1,0
22.67,12.71,-45.96,1806,-5839,5621,0,-1,-1
22.66,12.71,-45.97,1806,-5838,5613,0,-1,0
22.66,12.72,-45.97,1812,-5844,5610,0,-1,-1
22.66,12.72,-45.97,1819,-5850,5603,0,-1,0
22.66,12.73,-45.97,1815,-5849,5602,0,-1,0
22.65,12.72,-45.96,1820,-5847,5601,0,-1,-1
22.65,12.72,-45.94,1818,-5837,5610,0,0,-1
22.65,12.72,-45.93,1807,-5831,5618,0,-1,0
22.65,12.72,-45.93,1808,-5832,5615,0,-1,0
22.64,12.72,-45.92,1806,-5826,5620,0,-1,0
22.65,12.72,-45.91,1810,-5827,5614,0,-1,0
22.64,12.72,-45.91,1809,-5821,5619,0,-1,0
22.63,12.72,-45.92,1808,-5830,5612,-1,-1,0
22.63,12.72,-45.93,1810,-5830,5600,0,-1,0
22.63,12.73,-45.93,1813,-5830,5605,-1,-1,0
22.63,12.73,-45.93,1811,-5827,5600,0,-1,0
22.62,12.74,-45.93,1820,-5829,5603,0,-1,-1
22.62,12.74,-45.93,1815,-5824,5611,0,0,0
22.62,12.73,-45.93,1811,-5823,5596,0,0,-1
22.62,12.73,-45.92,1810,-5828,5612,0,0,-1
22.62,12.72,-45.92,1815,-5824,5609,0,0,-1
22.62,12.72,-45.91,1812,-5812,5628,0,0,0
22.62,12.71,-45.91,1809,-5805,5625,-1,0,-1
22.61,12.71,-45.92,1812,-5817,5620,-1,0,-1
22.62,12.70,-45.93,1810,-5820,5625,-1,0,-1
22.62,12.69,-45.93,1812,-5825,5615,-1,0,-1
22.62,12.69,-45.94,1805,-5819,5618,-1,0,-1
22.62,12.68,-45.95,1802,-5811,5617,-1,0,-1
22.62,12.67,-45.96,1801,-5816,5620,-1,0,-1
22.62,12.67,-45.97,1807,-5820,5614,-1,0,-1
22.62,12.67,-45.98,1815,-5827,5612,-1,0,-1
22.62,12.66,-45.98,1809,-5825,5615,-1,0,-1
22.62,12.65,-45.99,1816,-5829,5614,-1,0,-1
22.63,12.65,-46.00,1826,-5824,5605,-1,0,-1
22.63,12.65,-46.01,1826,-5826,5594,-1,0,-1
22.63,12.65,-46.02,1814,-5831,5610,-1,0,-1
22.63,12.64,-46.03,1811,-5832,5614,-1,0,-1
22.62,12.62,-46.04,1803,-5840,5616,-1,0,-1
22.62,12.61,-46.05,1800,-5838,5605,-1,0,-1
22.63,12.60,-46.06,1798,-5836,5609,-1,0,-1
22.63,12.60,-46.06,1793,-5839,5607,-1,0,-1
22.64,12.60,-46.07,1803,-5837,5617,-1,0,-1
22.64,12.59,-46.08,1800,-5829,5616,-1,0,-1
22.64,12.58,-46.09,1801,-5830,5619,-1,0,-1
22.65,12.57,-46.10,1803,-5832,5613,-1,0,-1
22.65,12.56,-46.11,1802,-5837,5606,-1,0,0
22.64,12.55,-46.11,1800,-5837,5605,-1,0,-1
22.65,12.54,-46.13,1795,-5837,5603,-1,0,-1
22.65,12.53,-46.14,1791,-5841,5607,-1,0,-1
22.65,12.53,-46.16,1789,-5839,5598,-1,0,-1
22.65,12.51,-46.17,1785,-5853,5599,-1,0,-1
22.65,12.50,-46.19,1786,-5854,5606,-1,0,-1
22.65,12.50,-46.20,1777,-5856,5610,-1,0,-1
22.65,12.49,-46.21,1782,-5860,5609,-1,0,-1
22.65,12.48,-46.22,1790,-5852,5596,-1,0,-1
22.65,12.47,-46.23,1792,-5854,5594,-1,0,-1
22.65,12.46,-46.24,1800,-5851,5599,-1,0,-1
22.65,12.45,-46.24,1797,-5843,5603,-1,0,-1
22.66,12.44,-46.25,1791,-5846,5603,-1,0,-1
22.66,12.43,-46.26,1794,-5850,5612,-1,0,0
22.66,12.42,-46.28,1790,-5865,5606,-1,0,-1
22.66,12.41,-46.30,1786,-5857,5599,-1,0,-1
22.65,12.39,-46.31,1778,-5856,5604,-1,0,-1
22.66,12.38,-46.33,1777,-5855,5592,-1,0,-1
22.66,12.38,-46.35,1785,-5864,5582,-1,0,-1
22.66,12.37,-46.36,1781,-5863,5590,-1,0,-1
22.67,12.36,-46.38,1777,-5865,5591,-1,0,-1
22.66,12.35,-46.41,1765,-5865,5595,-2,0,-1
22.66,12.35,-46.44,1778,-5875,5575,-1,0,-1
22.66,12.33,-46.45,1773,-5878,5580,-1,0,-1
22.67,12.32,-46.46,1779,-5872,5586,-1,0,-1
22.67,12.31,-46.48,1779,-5873,5584,-1,0,0
22.66,12.29,-46.50,1774,-5868,5580,-1,0,0
22.66,12.28,-46.52,1752,-5874,5594,-2,-1,0
22.66,12.28,-46.55,1762,-5883,5567,-1,0,-1
22.66,12.27,-46.57,1763,-5882,5572,-1,0,-1
22.66,12.28,-46.58,1767,-5889,5565,-1,0,-1
22.66,12.27,-46.59,1765,-5887,5574,-1,-1,-1
22.66,12.28,-46.60,1774,-5876,5565,-1,-1,0
22.66,12.29,-46.62,1770,-5879,5549,-1,-1,-1
22.66,12.29,-46.62,1775,-5883,5543,-1,-1,0
22.66,12.30,-46.63,1776,-5892,5552,-1,-1,0
22.66,12.30,-46.63,1780,-5893,5556,0,-1,0
22.66,12.30,-46.63,1766,-5893,5544,0,-1,-1
22.66,12.31,-46.63,1761,-5893,5541,0,-1,-1
22.66,12.31,-46.63,1768,-5904,5545,0,-1,-1
22.66,12.32,-46.62,1766,-5889,5563,0,-1,-1
22.67,12.33,-46.60,1773,-5886,5571,0,-1,-1
22.68,12.34,-46.59,1776,-5880,5568,0,-1,-1
22.67,12.35,-46.59,1783,-5877,5572,0,-1,-1
22.68,12.35,-46.58,1782,-5872,5569,0,-1,-1
22.68,12.36,-46.57,1785,-5873,5567,0,-1,0
22.68,12.37,-46.56,1785,-5874,5573,0,-1,0
22.68,12.37,-46.55,1783,-5872,5575,0,-1,0
22.68,12.38,-46.54,1785,-5872,5572,0,-1,-1
22.68,12.38,-46.54,1777,-5884,5575,0,-1,-1
22.68,12.39,-46.54,1782,-5874,5580,0,-1,-1
22.69,12.40,-46.53,1785,-5872,5590,0,-1,-1
22.68,12.40,-46.52,1794,-5878,5575,0,-1,-1
22.69,12.41,-46.52,1790,-5877,5567,0,-1,-1
22.69,12.41,-46.51,1783,-5863,5563,0,-1,0
22.69,12.42,-46.51,1788,-5868,5563,0,-1,-1
22.69,12.43,-46.50,1794,-5868,5574,0,-1,0
22.69,12.43,-46.48,1798,-5868,5587,0,-1,0
22.69,12.43,-46.48,1794,-5871,5583,0,-1,0
22.69,12.44,-46.48,1793,-5861,5568,0,-1,0
22.69,12.44,-46.47,1788,-5851,5566,0,-1,-1
22.69,12.45,-46.47,1789,-5855,5565,0,-1,0
22.69,12.46,-46.48,1798,-5874,5566,0,-1,-1
22.69,12.46,-46.47,1796,-5869,5560,0,-1,0
22.69,12.47,-46.47,1795,-5868,5561,0,-1,-1
22.69,12.47,-46.47,1792,-5861,5570,0,-1,-1
22.69,12.48,-46.46,1798,-5863,5568,0,-1,-1
22.70,12.49,-46.45,1801,-5866,5575,0,-1,0
22.69,12.49,-46.45,1794,-5861,5588,0,-1,0
22.69,12.49,-46.45,1797,-5865,5584,0,-1,0
22.69,12.49,-46.44,1794,-5863,5588,0,-1,-1
22.69,12.49,-46.43,1794,-5865,5577,0,-1,0
22.69,12.49,-46.42,1794,-5859,5567,0,-1,0
22.69,12.49,-46.41,1786,-5846,5572,0,-1,0
22.69,12.49,-46.41,1787,-5844,5584,0,-1,0
22.69,12.50,-46.42,1791,-5853,5576,-1,-1,0
22.68,12.50,-46.41,1800,-5858,5585,0,-1,0
22.68,12.51,-46.41,1803,-5858,5586,0,-1,0
22.69,12.51,-46.40,1804,-5853,5592,0,-1,-1
22.69,12.52,-46.39,1805,-5850,5590,0,-1,-1
22.69,12.52,-46.39,1815,-5845,5592,0,-1,0
22.69,12.52,-46.39,1815,-5846,5589,-1,-1,0
22.69,12.53,-46.39,1814,-5847,5581,-1,-1,0
22.69,12.53,-46.39,1812,-5856,5574,-1,-1,0
22.68,12.52,-46.39,1796,-5856,5588,0,0,0
22.68,12.52,-46.39,1799,-5866,5585,0,-1,-1
22.68,12.53,-46.38,1794,-5859,5594,0,-1,-1
22.69,12.53,-46.37,1790,-5851,5586,0,-1,-1
22.69,12.54,-46.36,1796,-5848,5593,0,-1,-1
22.70,12.55,-46.35,1816,-5849,5586,0,-1,-1
22.70,12.55,-46.35,1826,-5841,5581,0,0,0
22.70,12.55,-46.34,1818,-5835,5588,0,-1,0
22.70,12.55,-46.34,1814,-5840,5595,0,-1,0
22.69,12.54,-46.33,1807,-5837,5592,0,0,0
22.69,12.54,-46.33,1802,-5843,5590,0,-1,-1
22.69,12.55,-46.32,1804,-5842,5599,0,-1,0
22.69,12.55,-46.32,1800,-5845,5600,-1,-1,-1
22.69,12.55,-46.33,1806,-5848,5598,-1,-1,-1
22.70,12.56,-46.32,1813,-5857,5579,0,0,-1
22.70,12.54,-46.31,1810,-5856,5582,0,0,-1
22.71,12.55,-46.30,1810,-5849,5580,0,-1,-1
22.71,12.55,-46.30,1813,-5844,5580,0,0,-1
22.71,12.55,-46.28,1810,-5840,5580,0,0,0
22.71,12.55,-46.28,1814,-5838,5585,0,0,0
22.71,12.54,-46.27,1812,-5832,5605,0,0,0
22.71,12.54,-46.26,1808,-5825,5611,0,-1,0
22.71,12.54,-46.26,1804,-5833,5608,-1,-1,0
22.71,12.54,-46.26,1803,-5831,5609,0,-1,0
22.71,12.54,-46.25,1802,-5838,5611,0,-1,-1
22.70,12.55,-46.26,1807,-5842,5602,0,-1,0
22.71,12.55,-46.25,1803,-5846,5611,0,-1,0
22.71,12.55,-46.25,1812,-5847,5608,0,-1,-1
22.70,12.56,-46.25,1817,-5839,5597,0,-1,0
22.70,12.56,-46.24,1815,-5829,5591,0,0,0
22.70,12.56,-46.24,1809,-5832,5593,0,-1,0
22.70,12.55,-46.23,1820,-5839,5600,0,0,0
22.71,12.55,-46.21,1807,-5829,5588,0,0,-1
22.71,12.55,-46.20,1797,-5834,5608,0,-1,0
22.71,12.55,-46.20,1807,-5826,5606,0,-1,-1
22.71,12.55,-46.19,1808,-5829,5613,0,0,-1
22.71,12.55,-46.19,1810,-5834,5614,0,-1,0
22.71,12.56,-46.18,1820,-5822,5621,0,-1,0
22.71,12.56,-46.17,1832,-5821,5616,0,0,0
22.71,12.56,-46.17,1822,-5823,5604,0,0,0
22.71,12.56,-46.17,1815,-5829,5606,0,0,0
22.70,12.55,-46.17,1805,-5827,5595,0,0,0
22.70,12.54,-46.17,1799,-5832,5601,0,-1,0
22.70,12.55,-46.17,1813,-5828,5607,-1,-1,0
22.70,12.55,-46.17,1814,-5825,5605,-1,0,0
22.70,12.55,-46.17,1815,-5823,5605,0,0,0
22.70,12.54,-46.17,1814,-5813,5605,-1,-1,0
22.69,12.54,-46.18,1820,-5819,5612,-1,-1,0
22.69,12.54,-46.18,1828,-5824,5618,-1,0,0
22.68,12.53,-46.19,1810,-5831,5631,-1,0,0
22.68,12.52,-46.21,1798,-5839,5616,-1,0,-1
22.68,12.51,-46.23,1801,-5843,5632,-2,0,-1
22.68,12.49,-46.27,1801,-5838,5602,-2,1,-1
22.69,12.47,-46.28,1783,-5829,5596,-1,0,-1
22.69,12.46,-46.32,1800,-5825,5604,-2,0,-1
22.69,12.45,-46.34,1800,-5842,5594,-1,0,-1
22.70,12.44,-46.36,1794,-5841,5596,-1,0,-1
22.70,12.44,-46.39,1803,-5847,5590,-2,0,-1
22.71,12.43,-46.41,1800,-5845,5603,-1,0,-1
22.72,12.43,-46.44,1803,-5850,5586,-1,0,-1
22.72,12.42,-46.45,1802,-5853,5587,-1,0,-1
22.73,12.42,-46.47,1799,-5846,5587,-1,0,-1
22.73,12.42,-46.48,1792,-5840,5593,-1,0,-1
22.73,12.42,-46.50,1795,-5863,5574,-1,0,-1
22.74,12.42,-46.51,1790,-5880,5564,-1,0,-1
22.74,12.42,-46.50,1784,-5881,5564,0,-1,-1
22.75,12.43,-46.50,1797,-5892,5568,0,-1,-1
22.76,12.44,-46.49,1806,-5893,5555,0,0,-1
22.77,12.44,-46.47,1807,-5881,5567,0,0,-1
22.78,12.43,-46.44,1799,-5861,5581,0,0,-1
22.79,12.42,-46.42,1792,-5849,5583,0,0,-1
22.79,12.42,-46.41,1792,-5843,5597,0,0,-1
22.79,12.41,-46.40,1784,-5842,5600,-1,0,0
22.79,12.41,-46.40,1783,-5848,5594,-1,0,-1
22.79,12.40,-46.40,1787,-5846,5602,-1,0,-1
22.79,12.40,-46.42,1787,-5846,5599,-1,0,-1
22.80,12.40,-46.43,1785,-5860,5582,-1,0,-1
22.80,12.40,-46.44,1787,-5863,5583,-1,0,-1
22.80,12.40,-46.45,1785,-5862,5590,-1,0,-1
22.81,12.40,-46.46,1782,-5869,5592,-1,0,-1
22.81,12.40,-46.47,1794,-5876,5586,-1,0,-1
22.82,12.39,-46.47,1796,-5869,5582,-1,0,-1
22.82,12.38,-46.48,1796,-5855,5585,-1,0,-1
22.82,12.38,-46.48,1799,-5857,5585,-1,0,-1
22.82,12.37,-46.49,1791,-5866,5583,-1,0,0
22.82,12.36,-46.49,1786,-5864,5576,-1,0,-1
22.82,12.35,-46.49,1784,-5862,5583,-1,0,-1
22.83,12.35,-46.50,1777,-5862,5590,-1,0,-1
22.83,12.34,-46.50,1780,-5862,5594,-1,0,-1
22.84,12.34,-46.51,1777,-5863,5592,-1,0,-1
22.84,12.33,-46.52,1780,-5854,5571,-1,0,-1
22.84,12.32,-46.53,1773,-5860,5577,-1,0,-1
22.84,12.32,-46.54,1773,-5865,5583,-1,0,-1
22.84,12.31,-46.55,1783,-5877,5582,-1,0,-1
22.84,12.31,-46.56,1785,-5879,5589,-1,0,-1
22.85,12.31,-46.57,1781,-5871,5583,-1,0,-1
22.85,12.31,-46.57,1783,-5862,5579,-1,0,-1
22.86,12.31,-46.58,1789,-5859,5584,-1,0,-1
22.86,12.30,-46.60,1779,-5865,5579,-1,0,0
22.85,12.29,-46.61,1776,-5877,5582,-1,0,0
22.85,12.29,-46.64,1784,-5900,5570,-1,0,0
22.85,12.28,-46.65,1769,-5890,5566,-1,0,-1
22.85,12.27,-46.66,1757,-5893,5562,-1,0,-1
22.86,12.27,-46.65,1758,-5884,5566,-1,0,-1
22.86,12.27,-46.66,1773,-5882,5564,-1,0,-1
22.87,12.27,-46.65,1780,-5872,5567,-1,0,-1
22.87,12.28,-46.66,1779,-5874,5560,-1,0,-1
22.87,12.27,-46.66,1777,-5877,5568,-1,0,0
22.87,12.27,-46.66,1771,-5866,5566,-1,0,0
22.87,12.26,-46.67,1768,-5865,5569,-1,0,0
22.87,12.26,-46.67,1766,-5873,5563,-1,-1,0
22.87,12.27,-46.68,1764,-5883,5559,-1,-1,-1
22.87,12.28,-46.69,1764,-5886,5558,-1,-1,-1
22.87,12.28,-46.69,1761,-5885,5558,-1,-1,-1
22.88,12.28,-46.68,1768,-5889,5575,-1,-1,-1
22.88,12.28,-46.68,1774,-5883,5568,-1,-1,-1
22.88,12.29,-46.68,1775,-5885,5563,0,-1,-1
22.89,12.30,-46.68,1778,-5886,5565,0,-1,-1
22.89,12.30,-46.67,1777,-5879,5562,0,-1,-1
22.89,12.30,-46.66,1768,-5875,5567,0,-1,-1
22.90,12.31,-46.65,1780,-5864,5576,0,-1,0
22.90,12.31,-46.64,1785,-5864,5577,0,-1,-1
22.90,12.32,-46.64,1785,-5870,5582,0,0,0
22.90,12.32,-46.64,1780,-5874,5585,-1,-1,-1
22.90,12.33,-46.63,1771,-5882,5591,0,-1,-1
22.90,12.33,-46.64,1766,-5885,5571,0,-1,-1
22.90,12.34,-46.63,1765,-5887,5563,0,-1,-1
22.91,12.34,-46.63,1774,-5886,5558,0,-1,-1
22.91,12.35,-46.62,1777,-5879,5557,0,-1,-1
22.91,12.36,-46.62,1786,-5876,5560,0,-1,0
22.91,12.36,-46.61,1794,-5876,5570,0,-1,0
22.91,12.36,-46.60,1790,-5870,5568,0,0,0
22.91,12.36,-46.59,1790,-5866,5569,0,-1,0
22.92,12.37,-46.58,1789,-5870,5584,0,-1,-1
22.92,12.38,-46.58,1795,-5878,5574,0,-1,-1
22.92,12.38,-46.58,1793,-5879,5562,0,-1,-1
22.92,12.39,-46.57,1789,-5873,5570,0,-1,0
22.93,12.39,-46.57,1783,-5863,5573,0,-1,0
22.92,12.39,-46.57,1781,-5859,5574,-1,-1,0
22.92,12.40,-46.56,1786,-5856,5572,0,-1,-1
22.93,12.41,-46.56,1793,-5870,5583,0,-1,0
22.93,12.41,-46.55,1791,-5868,5588,0,-1,0
22.93,12.41,-46.54,1791,-5864,5590,0,-1,-1
22.93,12.42,-46.53,1798,-5852,5583,0,-1,-1
22.94,12.43,-46.53,1792,-5852,5579,0,0,0
22.93,12.42,-46.53,1792,-5870,5585,0,-1,0
22.93,12.42,-46.53,1786,-5884,5589,0,-1,0
22.92,12.43,-46.53,1786,-5877,5579,-1,-1,0
22.92,12.43,-46.53,1781,-5875,5569,0,-1,-1
22.93,12.43,-46.53,1786,-5872,5566,0,-1,-1
22.93,12.44,-46.52,1789,-5875,5568,0,-1,-1
22.93,12.44,-46.51,1796,-5862,5567,0,-1,0
22.93,12.44,-46.50,1794,-5855,5572,0,-1,0
22.93,12.44,-46.49,1791,-5849,5560,0,-1,0
22.93,12.45,-46.49,1800,-5848,5577,0,-1,0
22.93,12.45,-46.48,1801,-5846,5586,0,0,0
22.93,12.45,-46.47,1797,-5852,5588,0,0,-1
22.93,12.45,-46.47,1799,-5846,5597,-1,-1,0
22.93,12.45,-46.47,1795,-5843,5596,0,0,0
22.93,12.45,-46.47,1803,-5852,5592,-1,-1,0
22.93,12.45,-46.47,1796,-5865,5585,0,-1,0
22.93,12.46,-46.47,1797,-5864,5594,-1,-1,-1
22.93,12.46,-46.47,1795,-5871,5579,0,-1,-1
22.93,12.46,-46.47,1807,-5874,5580,0,-1,-1
22.94,12.47,-46.46,1809,-5865,5582,0,-1,-1
22.94,12.47,-46.45,1807,-5854,5578,0,-1,-1
22.94,12.48,-46.44,1816,-5847,5579,0,-1,0
22.94,12.47,-46.43,1809,-5842,5583,0,-1,0
22.94,12.48,-46.42,1803,-5845,5594,0,-1,0
22.94,12.47,-46.42,1802,-5846,5599,0,-1,0
22.93,12.47,-46.41,1798,-5852,5598,0,-1,0
22.93,12.47,-46.41,1791,-5847,5596,0,-1,0
22.93,12.47,-46.41,1784,-5845,5592,0,-1,-1
22.93,12.48,-46.40,1787,-5841,5593,0,-1,0
22.93,12.49,-46.40,1797,-5847,5589,0,-1,-1
22.93,12.49,-46.40,1812,-5850,5590,0,-1,0
22.93,12.50,-46.39,1814,-5867,5586,0,-1,-1
22.93,12.50,-46.38,1808,-5857,5585,0,0,0
22.93,12.50,-46.38,1801,-5850,5578,0,-1,-1
22.93,12.50,-46.36,1796,-5849,5592,0,-1,0
22.93,12.51,-46.35,1798,-5835,5588,0,-1,0
22.93,12.51,-46.35,1802,-5835,5589,0,-1,0
22.94,12.52,-46.34,1810,-5830,5596,0,-1,0
22.93,12.53,-46.34,1815,-5841,5603,0,-1,0
22.94,12.52,-46.32,1813,-5838,5604,0,0,-1
22.94,12.52,-46.31,1807,-5839,5587,0,0,-1
22.94,12.50,-46.29,1799,-5824,5605,0,0,0
22.95,12.51,-46.29,1803,-5828,5609,-1,-1,0
22.94,12.51,-46.29,1801,-5838,5600,0,-1,-1
22.95,12.52,-46.29,1802,-5840,5600,0,-1,-1
22.95,12.52,-46.28,1813,-5847,5598,0,-1,-1
22.95,12.53,-46.27,1811,-5836,5595,0,-1,-1
22.95,12.53,-46.26,1810,-5821,5593,0,-1,0
22.95,12.54,-46.26,1819,-5826,5611,-1,-1,0
22.95,12.54,-46.26,1822,-5828,5608,-1,-1,0
22.95,12.54,-46.26,1816,-5840,5604,0,0,0
22.94,12.54,-46.26,-1,-1,-1,0,-1,-1
22.94,12.54,-46.26,1804,-5853,5604,0,0,-1
22.94,12.53,-46.25,1794,-5851,5605,0,0,-1
22.95,12.53,-46.25,1791,-5844,5601,0,0,-1
22.95,12.53,-46.24,1809,-5835,5608,0,0,-1
22.96,12.53,-46.23,1817,-5816,5626,0,0,0
22.96,12.53,-46.23,1815,-5815,5620,-1,-1,0
22.95,12.52,-46.24,1820,-5814,5640,-1,0,0
22.96,12.53,-46.27,1805,-5817,5619,-2,0,-1
22.96,12.52,-46.30,1805,-5812,5616,-2,0,-1
22.96,12.52,-46.33,1797,-5789,5652,-3,0,-1
22.97,12.53,-46.40,1818,-5791,5654,-3,-1,-1
22.97,12.54,-46.48,1787,-5855,5620,-4,-1,-1
22.98,12.55,-46.57,1812,-5867,5563,-3,-1,-1
22.99,12.57,-46.62,1784,-5852,5582,-3,-1,-1
22.99,12.59,-46.70,1814,-5841,5571,-3,-1,-1
23.00,12.63,-46.77,1827,-5874,5577,-3,-2,-1
23.00,12.66,-46.86,1836,-5896,5518,-3,-1,-1
23.00,12.66,-46.92,1812,-5897,5516,-3,-1,-1
23.00,12.71,-46.99,1873,-5932,5521,-3,-2,-1
23.01,12.72,-47.04,1854,-5945,5516,-2,0,-1
23.02,12.72,-47.07,1849,-5911,5524,-2,0,-1
23.02,12.74,-47.12,1813,-5906,5486,-2,-2,-1
23.03,12.77,-47.16,1837,-5896,5556,-3,-2,-1
23.03,12.80,-47.24,1831,-5920,5525,-3,-1,-1
23.04,12.82,-47.28,1814,-5902,5519,-2,-2,-1
23.05,12.88,-47.35,1815,-5911,5505,-3,-3,-1
23.06,12.95,-47.44,1864,-5905,5486,-3,-3,-1
23.08,13.01,-47.50,1852,-5896,5495,-3,-3,-1
23.09,13.07,-47.60,1863,-5927,5474,-4,-3,-1
23.09,13.14,-47.69,1888,-5923,5459,-3,-3,-1
23.11,13.20,-47.78,1886,-5956,5451,-4,-3,-2
23.12,13.27,-47.88,1909,-5955,5434,-3,-3,-1
23.13,13.32,-47.97,1904,-5951,5442,-4,-3,-1
23.14,13.39,-48.07,1911,-5979,5398,-4,-3,-2
23.17,13.46,-48.17,1939,-5999,5364,-3,-2,-2
23.19,13.52,-48.25,1963,-6023,5362,-3,-2,-2
23.22,13.57,-48.32,1956,-6056,5338,-2,-2,-2
23.25,13.62,-48.36,1975,-6038,5339,-2,-2,-2
23.28,13.67,-48.40,1972,-6025,5326,-2,-2,-1
23.30,13.72,-48.44,1989,-6031,5326,-1,-1,-1
23.31,13.74,-48.46,1978,-6037,5314,-1,-1,-1
23.33,13.77,-48.45,1986,-6022,5326,0,-1,-1
23.36,13.81,-48.46,1974,-6024,5342,-1,-2,-1
23.38,13.86,-48.46,1983,-6039,5347,-1,-2,-2
23.42,13.91,-48.45,2016,-6037,5337,1,-1,-2
23.45,13.95,-48.42,1991,-6022,5333,0,-2,-2
23.49,14.00,-48.41,2013,-6011,5313,1,-1,-2
23.53,14.04,-48.36,2023,-5980,5377,0,-2,-2
23.56,14.09,-48.34,2021,-5960,5398,-1,-2,-1
23.58,14.15,-48.37,2022,-5972,5372,-1,-3,-1
23.61,14.21,-48.39,2039,-5994,5359,-1,-2,-1
23.62,14.27,-48.41,2028,-5983,5340,-1,-3,-1
23.64,14.33,-48.44,2032,-5990,5347,-1,-3,-1
23.65,14.42,-48.49,2031,-6006,5346,-2,-5,-1
23.67,14.49,-48.52,2063,-5986,5347,-1,-3,-1
23.69,14.56,-48.55,2053,-5962,5328,-2,-4,-2
23.73,14.65,-48.60,2081,-5967,5336,-3,-4,-2
23.74,14.74,-48.67,2096,-5970,5308,-2,-3,-1
23.77,14.82,-48.74,2121,-6003,5286,-2,-4,-2
23.80,14.91,-48.78,2145,-6016,5300,-2,-3,-2
23.83,14.99,-48.83,2161,-6017,5296,-2,-3,-2
23.87,15.07,-48.87,2178,-6034,5282,-2,-3,-2
23.90,15.14,-48.92,2200,-6060,5241,-1,-3,-2
23.93,15.19,-48.94,2204,-6035,5230,-1,-2,-1
23.96,15.25,-48.96,2216,-6053,5247,-1,-2,-1
23.97,15.28,-48.98,2195,-6010,5236,-1,-2,-1
23.99,15.33,-48.98,2213,-6023,5262,-1,-2,-1
24.01,15.37,-48.98,2210,-6027,5289,-1,-2,-1
24.03,15.41,-49.00,2214,-6034,5280,-1,-1,-2
24.06,15.44,-49.00,2228,-6050,5259,-1,-1,-2
24.10,15.48,-49.00,2242,-6025,5242,0,0,-2
24.14,15.51,-48.97,2218,-6006,5235,0,-1,-2
24.17,15.54,-48.96,2224,-6014,5241,0,-2,-2
24.20,15.59,-48.96,2254,-6036,5232,0,-1,-2
24.22,15.61,-48.95,2256,-6032,5234,0,-1,-1
24.24,15.64,-48.93,2253,-6046,5249,0,-1,-1
24.25,15.68,-48.91,2253,-6053,5262,0,-2,-1
24.26,15.71,-48.89,2275,-6035,5227,1,-1,-1
24.28,15.72,-48.86,2266,-6009,5232,1,-1,-1
24.28,15.74,-48.83,2266,-6018,5241,0,-1,-1
24.29,15.76,-48.81,2283,-6005,5216,1,0,-1
24.29,15.75,-48.74,2279,-5974,5258,1,-1,0
24.29,15.75,-48.70,2289,-5943,5288,1,-1,0
24.27,15.73,-48.66,2287,-5930,5295,1,0,1
24.24,15.71,-48.63,2257,-5927,5319,0,-1,1
24.20,15.69,-48.64,2238,-5912,5334,-1,-1,1
24.16,15.69,-48.67,2250,-5921,5345,-2,-2,1
24.14,15.70,-48.70,2334,-5962,5324,-1,0,1
24.10,15.69,-48.73,2348,-5983,5272,-2,-1,1
24.11,15.68,-48.74,2361,-6021,5227,0,1,0
24.11,15.64,-48.67,2322,-6020,5198,3,2,-1
24.14,15.58,-48.55,2268,-5998,5253,3,3,-1
24.18,15.52,-48.43,2174,-6007,5270,3,4,-3
24.20,15.49,-48.36,2109,-6024,5309,0,-1,-1
24.22,15.48,-48.31,2125,-6014,5248,2,2,-1
24.21,15.44,-48.22,2125,-5975,5315,2,0,0
24.20,15.45,-48.17,2168,-5962,5388,1,-2,0
24.19,15.47,-48.14,2185,-5941,5343,1,-1,0
24.20,15.47,-48.10,2224,-5959,5300,2,0,0
24.21,15.47,-48.04,2275,-5981,5327,2,0,-1
24.22,15.45,-47.97,2308,-6014,5348,2,2,0
24.22,15.40,-47.88,2284,-5958,5371,3,2,0
24.23,15.36,-47.78,2318,-5861,5438,1,2,0
24.25,15.29,-47.71,2315,-5812,5415,0,6,-1
24.30,15.18,-47.63,2249,-5843,5380,1,6,-2
24.38,15.09,-47.52,2174,-5891,5370,2,7,-3
24.45,15.00,-47.39,2102,-5882,5411,2,5,-2
24.47,14.92,-47.31,2034,-5851,5454,0,2,-1
24.50,14.89,-47.27,2038,-5866,5465,0,2,-1
24.48,14.84,-47.26,2020,-5875,5472,-1,0,0
24.47,14.82,-47.27,2043,-5863,5475,-2,0,0
24.46,14.81,-47.31,2095,-5848,5455,-2,0,0
24.45,14.79,-47.35,2118,-5846,5435,-2,1,0
24.45,14.77,-47.37,2181,-5850,5447,-1,0,0
24.43,14.74,-47.39,2195,-5869,5460,-2,1,1
24.41,14.70,-47.42,2181,-5889,5470,-2,1,1
24.37,14.62,-47.46,2113,-5886,5483,-3,2,1
24.33,14.56,-47.53,2075,-5884,5445,-3,1,0
24.30,14.55,-47.61,2083,-5913,5430,-4,-3,0
24.27,14.56,-47.71,2112,-5968,5370,-3,0,0
24.25,14.52,-47.73,2092,-5965,5387,-1,1,0
24.23,14.49,-47.76,2091,-5947,5399,-2,1,0
24.21,14.45,-47.78,2090,-5919,5388,-2,0,0
24.19,14.43,-47.82,2094,-5918,5384,-2,0,1
24.16,14.39,-47.86,2080,-5951,5350,-1,1,0
24.13,14.35,-47.86,2061,-5967,5394,-1,0,0
24.11,14.33,-47.87,2058,-5966,5420,-1,-1,0
24.09,14.31,-47.88,2059,-5948,5411,-1,0,1
24.06,14.28,-47.90,2060,-5937,5408,-2,0,0
24.04,14.25,-47.93,2062,-5936,5364,-1,1,1
24.01,14.20,-47.94,2035,-5938,5383,-1,0,0
23.99,14.19,-47.95,2044,-5953,5409,-1,-1,0
23.98,14.18,-47.98,2056,-5967,5397,-1,1,0
23.96,14.14,-47.98,2034,-5954,5392,-1,1,0
23.94,14.11,-48.00,2051,-5937,5404,-1,0,0
23.92,14.08,-48.03,2024,-5941,5399,-2,0,0
23.90,14.06,-48.06,2019,-5975,5365,-1,0,0
23.89,14.03,-48.08,2028,-5975,5375,-1,1,1
23.87,14.00,-48.08,2024,-5955,5397,-1,0,0
23.85,13.97,-48.10,2019,-5970,5387,-1,1,0
23.83,13.94,-48.12,2008,-5990,5402,-1,0,0
23.81,13.92,-48.15,1999,-5998,5423,-2,-1,0
23.80,13.91,-48.19,1995,-5991,5415,-2,-1,0
23.77,13.90,-48.24,2009,-5972,5375,-2,0,0
23.75,13.88,-48.28,2021,-5971,5350,-2,1,0
23.74,13.85,-48.30,2008,-6000,5352,-1,1,0
23.72,13.82,-48.32,2002,-6020,5365,-1,0,0
23.71,13.80,-48.35,2008,-6024,5372,-1,0,0
23.69,13.78,-48.37,1997,-6018,5376,-1,0,0
23.67,13.75,-48.39,1982,-5987,5377,-2,0,0
23.66,13.73,-48.42,1988,-5982,5359,-2,0,0
23.64,13.71,-48.46,1997,-5991,5334,-2,0,0
23.62,13.69,-48.49,1969,-5999,5351,-2,0,0
23.61,13.68,-48.53,1981,-6032,5360,-2,0,0
23.60,13.66,-48.56,1983,-6053,5357,-1,0,0
23.59,13.63,-48.58,1970,-6049,5348,-1,1,0
23.58,13.60,-48.59,1953,-6030,5339,-1,0,0
23.57,13.58,-48.61,1957,-6023,5331,-2,0,0
23.56,13.56,-48.64,1956,-6041,5314,-1,0,0
23.54,13.54,-48.66,1950,-6038,5326,-1,0,0
23.53,13.51,-48.67,1952,-6038,5348,-2,0,0
23.51,13.50,-48.70,1962,-6044,5355,-2,0,0
23.50,13.48,-48.72,1965,-6057,5353,-1,1,0
23.49,13.45,-48.74,1950,-6054,5334,-1,1,0
23.47,13.41,-48.77,1933,-6046,5319,-1,0,0
23.45,13.40,-48.80,1936,-6041,5314,-2,0,0
23.44,13.38,-48.83,1938,-6060,5304,-1,0,0
23.41,13.35,-48.84,1939,-6070,5345,-1,1,0
23.39,13.31,-48.87,1928,-6077,5331,-2,0,0
23.37,13.28,-48.89,1922,-6090,5312,-1,0,0
23.35,13.26,-48.91,1922,-6094,5313,-1,0,0
23.34,13.23,-48.92,1924,-6076,5326,-1,1,0
23.32,13.20,-48.94,1914,-6064,5328,-1,0,0
23.30,13.19,-48.97,1910,-6067,5324,-2,-1,0
23.28,13.17,-49.00,1929,-6074,5300,-1,1,1
23.24,13.12,-49.02,1917,-6077,5315,-1,0,1
23.22,13.09,-49.03,1911,-6078,5329,-1,0,1
23.19,13.06,-49.05,1899,-6085,5318,-1,0,1
23.15,13.02,-49.07,1890,-6090,5310,-1,0,1
23.12,12.99,-49.09,1860,-6086,5304,-1,0,1
23.10,12.96,-49.10,1851,-6081,5334,-1,-1,1
23.05,12.97,-49.16,1855,-6074,5324,-3,-2,0
23.03,12.97,-49.22,1879,-6103,5270,-2,-1,1
23.00,12.94,-49.23,1848,-6102,5272,-1,0,0
22.99,12.92,-49.24,1857,-6095,5305,-1,-1,0
22.96,12.91,-49.28,1838,-6119,5266,-2,-1,0
22.94,12.89,-49.30,1831,-6116,5258,-1,0,0
22.93,12.88,-49.31,1803,-6095,5266,-1,-1,0
22.93,12.90,-49.33,1808,-6107,5254,-1,-2,-1
22.94,12.93,-49.35,1827,-6124,5229,-1,-1,-1
22.95,12.94,-49.34,1838,-6114,5236,0,0,-1
22.97,12.95,-49.32,1834,-6091,5259,0,-1,-1
23.00,12.97,-49.31,1855,-6097,5284,-1,-1,-1
23.01,13.00,-49.32,1869,-6126,5294,-1,-1,-1
23.02,13.02,-49.34,1861,-6131,5295,-1,-1,-1
23.03,13.04,-49.34,1864,-6123,5291,-1,-1,-1
23.04,13.07,-49.36,1879,-6116,5275,-1,-2,-1
23.06,13.09,-49.36,1891,-6111,5268,-1,-1,-1
2.58,2.46,-51.72,-258,-258,-258,-258,-258,-258
23.08,13.14,-49.37,1915,-6096,5282,-1,-1,-1
23.09,13.15,-49.38,1922,-6109,5286,-1,-1,-1
23.08,13.16,-49.40,1906,-6117,5269,-1,-1,0
23.09,13.16,-49.40,1898,-6117,5275,-1,-1,-1
23.09,13.17,-49.41,1889,-6127,5259,-1,-1,-1
23.08,13.18,-49.42,1881,-6133,5255,0,-1,-1
23.08,13.20,-49.42,1892,-6138,5256,-1,-2,-1
23.10,13.23,-49.42,1906,-6140,5245,0,-2,-1
23.10,13.26,-49.42,1918,-6134,5239,0,-1,-1
23.11,13.27,-49.40,1920,-6113,5254,0,-1,0
23.10,13.28,-49.39,1935,-6106,5270,0,-1,0
23.11,13.30,-49.38,1940,-6116,5259,0,-1,0
23.10,13.29,-49.36,1925,-6105,5255,0,-1,0
23.10,13.30,-49.34,1911,-6101,5277,0,-1,0
23.11,13.31,-49.33,1903,-6100,5291,0,-1,-1
23.11,13.34,-49.33,1915,-6112,5283,0,-1,-1
23.12,13.35,-49.32,1931,-6116,5273,0,-1,-1
23.12,13.36,-49.31,1933,-6118,5253,0,0,-1
23.14,13.36,-49.28,1952,-6104,5275,0,-1,0
23.14,13.36,-49.26,1940,-6103,5267,0,0,0
23.13,13.35,-49.25,1914,-6089,5260,0,0,0
23.13,13.35,-49.23,1916,-6093,5286,0,-1,0
23.13,13.36,-49.23,1919,-6102,5289,0,-1,-1
23.14,13.37,-49.23,1919,-6113,5273,0,-1,-1
23.15,13.38,-49.22,1931,-6111,5265,0,-1,-1
23.16,13.40,-49.20,1940,-6105,5279,0,-1,-1
23.17,13.41,-49.19,1947,-6099,5290,0,-1,-1
23.18,13.42,-49.16,1936,-6099,5289,0,-1,-1
23.18,13.43,-49.15,1929,-6100,5276,0,-1,-1
23.19,13.44,-49.14,1930,-6099,5265,0,-1,-1
23.20,13.45,-49.11,1931,-6096,5271,0,-1,-1
23.21,13.46,-49.09,1935,-6089,5262,1,0,-1
23.22,13.46,-49.05,1934,-6079,5287,1,-1,-1
23.22,13.47,-49.04,1927,-6076,5286,0,-1,-1
23.24,13.49,-49.02,1944,-6086,5299,1,-1,-1
23.25,13.50,-48.98,1960,-6086,5296,1,0,-1
23.26,13.50,-48.94,1942,-6068,5310,0,-1,-1
23.27,13.52,-48.92,1948,-6060,5303,0,-1,-1
23.27,13.54,-48.90,1963,-6063,5295,0,-1,-1
23.28,13.56,-48.88,1973,-6071,5292,1,-1,-1
23.29,13.56,-48.84,1970,-6070,5299,1,-1,-1
23.29,13.58,-48.82,1965,-6060,5313,0,-1,-1
23.31,13.59,-48.79,1972,-6056,5311,0,-1,-1
23.32,13.60,-48.77,1968,-6057,5320,0,-1,-1
23.33,13.61,-48.74,1968,-6054,5318,0,-1,-1
23.34,13.62,-48.72,1962,-6041,5321,0,-1,-1
23.35,13.63,-48.69,1969,-6032,5328,0,-1,-1
23.36,13.65,-48.68,1971,-6032,5322,0,-1,-1
23.36,13.66,-48.67,1976,-6035,5332,0,-1,-1
23.38,13.67,-48.65,1980,-6028,5329,0,-1,-1
23.39,13.68,-48.64,1983,-6035,5333,0,-1,-1
23.39,13.69,-48.63,1982,-6030,5326,0,-1,-1
23.41,13.69,-48.61,1985,-6034,5330,0,-1,-1
23.41,13.70,-48.60,1979,-6041,5339,0,-1,-1
23.41,13.70,-48.60,1987,-6033,5330,0,-1,-1
23.41,13.71,-48.59,1964,-6035,5324,0,-1,-1
23.41,13.71,-48.58,1966,-6037,5315,0,0,-1
23.42,13.71,-48.56,1962,-6039,5322,0,-1,-1
23.42,13.72,-48.55,1973,-6027,5322,0,-1,-1
23.43,13.73,-48.52,1969,-6014,5329,0,-1,-1
23.44,13.73,-48.49,1975,-6007,5322,1,0,-1
23.44,13.74,-48.46,1983,-6015,5341,0,-1,0
23.45,13.76,-48.45,2001,-6025,5352,0,-1,0
23.45,13.76,-48.43,1995,-6025,5350,0,0,0
23.45,13.76,-48.41,1984,-6018,5343,0,0,-1
23.46,13.76,-48.38,1987,-6004,5339,1,0,-1
23.47,13.76,-48.34,1984,-5991,5359,0,-1,-1
23.47,13.76,-48.33,1988,-6000,5366,0,0,-1
23.48,13.77,-48.31,1996,-6003,5362,0,0,-1
23.49,13.77,-48.29,1989,-5994,5380,0,-1,-1
23.49,13.78,-48.28,1992,-6010,5384,0,-1,-1
23.49,13.78,-48.28,1987,-6004,5374,0,-1,-1
23.50,13.79,-48.26,1986,-6001,5371,0,0,-1
23.50,13.78,-48.25,1979,-5995,5369,0,-1,-1
23.51,13.79,-48.23,1984,-5990,5361,0,0,-1
23.51,13.79,-48.21,1980,-5984,5378,0,-1,-1
23.52,13.80,-48.20,1990,-5992,5377,0,-1,0
23.51,13.81,-48.20,1988,-5991,5377,0,-1,-1
23.51,13.81,-48.20,1986,-5992,5368,0,-1,-1
23.52,13.81,-48.19,1994,-5990,5368,0,-1,-1
23.52,13.82,-48.18,1993,-5992,5370,0,-1,-1
23.53,13.82,-48.17,1991,-5996,5359,0,0,-1
23.53,13.82,-48.15,1981,-5987,5364,0,0,-1
23.54,13.82,-48.15,1985,-5982,5370,0,-1,-1
23.53,13.82,-48.14,1990,-5988,5375,0,-1,-1
23.54,13.83,-48.13,1998,-5983,5373,0,-1,-1
23.54,13.84,-48.12,1998,-5981,5374,0,0,-1
23.55,13.83,-48.11,1995,-5978,5387,0,0,0
23.55,13.84,-48.11,1990,-5983,5387,0,-1,-1
23.55,13.84,-48.09,1991,-5986,5390,0,0,-1
23.55,13.84,-48.09,1996,-5982,5379,0,0,-1
23.56,13.84,-48.09,1990,-5978,5376,0,0,-1
23.57,13.85,-48.08,1995,-5979,5383,0,-1,-1
23.57,13.85,-48.07,1999,-5985,5389,0,-1,-1
23.57,13.85,-48.07,1999,-5983,5379,0,-1,-1
23.58,13.86,-48.05,2000,-5983,5388,0,-1,-1
23.58,13.87,-48.04,1998,-5978,5385,0,-1,-1
23.58,13.86,-48.04,1996,-5979,5373,0,0,-1
23.59,13.87,-48.02,1995,-5967,5385,0,-1,-1
23.59,13.87,-48.02,1996,-5964,5388,0,-1,-1
23.59,13.88,-48.01,1995,-5967,5391,0,-1,-1
23.60,13.88,-48.00,1999,-5973,5406,0,-1,-1
23.60,13.89,-47.99,1999,-5968,5393,0,-1,-1
23.60,13.89,-47.99,2007,-5967,5392,0,0,-1
23.61,13.90,-47.98,2011,-5967,5386,0,0,-1
23.61,13.89,-47.97,2011,-5965,5390,0,0,0
23.61,13.90,-47.96,2011,-5965,5393,0,-1,0
23.61,13.90,-47.96,2004,-5969,5399,0,0,0
23.61,13.89,-47.95,2001,-5978,5409,0,0,0
23.61,13.89,-47.95,1990,-5977,5409,0,0,-1
23.62,13.90,-47.94,1985,-5973,5405,0,-1,-1
23.62,13.90,-47.93,1994,-5957,5409,0,-1,-1
23.62,13.91,-47.92,2005,-5948,5407,0,-1,-1
23.63,13.91,-47.91,2005,-5945,5423,0,-1,-1
23.63,13.91,-47.90,2012,-5948,5422,0,0,0
23.63,13.92,-47.90,2005,-5957,5409,0,-1,-1
23.63,13.92,-47.89,2009,-5964,5411,0,0,0
23.63,13.92,-47.89,2000,-5962,5389,0,0,-1
23.63,13.92,-47.89,2005,-5955,5396,0,0,-1
23.64,13.92,-47.89,2003,-5957,5396,-1,-1,-1
23.65,13.93,-47.88,2013,-5955,5388,0,0,-1
23.65,13.93,-47.88,2011,-5961,5403,0,0,-1
23.65,13.93,-47.88,2014,-5964,5408,0,0,0
23.65,13.93,-47.87,2005,-5957,5408,0,0,-1
23.64,13.92,-47.86,1995,-5958,5408,0,0,-1
23.66,13.93,-47.85,2001,-5954,5411,0,-1,-1
23.66,13.93,-47.85,2002,-5951,5400,0,0,-1
23.65,13.93,-47.85,2001,-5947,5406,0,-1,-1
23.66,13.94,-47.84,2011,-5949,5409,0,0,-1
23.66,13.93,-47.84,2006,-5956,5408,0,0,0
23.66,13.93,-47.83,1998,-5952,5410,0,0,-1
23.67,13.92,-47.81,2001,-5958,5429,0,0,0
23.67,13.91,-47.81,1999,-5964,5424,-1,-1,-1
23.67,13.91,-47.81,1995,-5963,5414,0,0,-1
23.67,13.92,-47.80,1993,-5957,5418,0,-1,-1
23.67,13.92,-47.80,1997,-5954,5414,0,0,-1
23.68,13.92,-47.79,2002,-5952,5409,0,0,-1
23.68,13.92,-47.78,2008,-5949,5413,0,-1,-1
23.68,13.92,-47.78,2013,-5945,5410,0,0,0
23.68,13.92,-47.77,2002,-5941,5420,-1,-1,-1
23.68,13.92,-47.77,2004,-5939,5424,-1,-1,0
23.68,13.93,-47.77,2013,-5951,5413,0,-1,-1
23.70,13.93,-47.77,2022,-5949,5420,0,0,-1
23.69,13.93,-47.77,2013,-5952,5410,0,0,-1
23.69,13.92,-47.76,2004,-5944,5418,0,0,0
23.69,13.92,-47.76,2000,-5937,5422,-1,-1,-1
23.70,13.93,-47.75,2005,-5943,5427,0,-1,-1
23.70,13.93,-47.75,2010,-5944,5431,0,0,-1
23.71,13.93,-47.74,2014,-5939,5431,0,0,0
23.70,13.92,-47.73,2015,-5935,5435,-1,0,-1
23.71,13.92,-47.73,2010,-5932,5425,-1,0,0
23.71,13.91,-47.74,2010,-5927,5426,-1,0,0
23.70,13.91,-47.74,2012,-5930,5425,-1,0,0
23.70,13.90,-47.74,2005,-5939,5428,-1,0,0
23.69,13.90,-47.75,1983,-5948,5418,-1,0,-1
23.69,13.89,-47.76,1993,-5954,5411,-1,0,-1
23.70,13.89,-47.76,2000,-5949,5422,-1,0,-1
23.70,13.89,-47.76,2002,-5952,5423,-1,0,0
23.70,13.88,-47.76,1997,-5947,5423,-1,0,-1
23.69,13.88,-47.77,1996,-5949,5420,-1,0,-1
23.70,13.88,-47.77,2012,-5940,5429,-1,0,-1
23.70,13.88,-47.78,2001,-5950,5432,-1,-1,-1
23.70,13.89,-47.78,2014,-5947,5421,-1,0,0
23.70,13.88,-47.79,1996,-5928,5431,-1,0,-1
23.70,13.88,-47.79,1991,-5934,5428,-1,-1,0
23.70,13.88,-47.81,1992,-5953,5408,-1,-1,-1
23.70,13.90,-47.82,2007,-5954,5416,-1,-1,-1
23.71,13.90,-47.82,2001,-5958,5402,-1,-1,-1
23.71,13.91,-47.82,2001,-5969,5398,0,-1,-1
23.71,13.92,-47.82,2004,-5977,5394,0,-1,-1
23.72,13.93,-47.80,2011,-5975,5394,0,-1,-1
23.72,13.93,-47.79,2007,-5972,5392,0,0,-1
23.73,13.93,-47.76,2014,-5961,5398,0,0,-1
23.74,13.93,-47.74,2010,-5946,5409,0,0,-1
23.74,13.92,-47.72,2012,-5938,5408,1,1,-1
23.75,13.91,-47.68,2004,-5916,5440,0,0,-1
23.75,13.91,-47.68,2004,-5919,5425,0,0,-1
23.76,13.91,-47.68,2005,-5920,5435,-1,-1,-1
23.76,13.91,-47.68,2007,-5927,5436,-1,0,-1
23.77,13.91,-47.68,2007,-5925,5431,-1,0,-1
23.77,13.92,-47.68,2001,-5927,5427,-1,0,-1
23.77,13.92,-47.68,2005,-5944,5421,-1,-1,-1
23.77,13.93,-47.69,2010,-5959,5415,-1,-1,-1
23.78,13.93,-47.69,2008,-5955,5422,0,0,-1
23.78,13.93,-47.68,2014,-5957,5413,0,0,-1
23.79,13.93,-47.67,2012,-5945,5415,0,0,-1
23.79,13.93,-47.66,2003,-5928,5419,0,0,0
23.79,13.92,-47.65,1999,-5926,5419,0,0,0
23.79,13.92,-47.65,1996,-5942,5418,0,0,-1
23.80,13.91,-47.63,2002,-5941,5432,0,0,-1
23.80,13.92,-47.63,1995,-5935,5433,-1,-1,-1
23.81,13.92,-47.62,1997,-5930,5428,0,0,-1
23.81,13.92,-47.62,2003,-5929,5423,-1,-1,-1
23.82,13.93,-47.62,2010,-5927,5420,0,0,-1
23.82,13.93,-47.63,2021,-5928,5422,-1,0,-1
23.83,13.93,-47.62,2017,-5947,5430,-1,0,-1
23.82,13.92,-47.62,2009,-5945,5437,0,0,-1
23.82,13.92,-47.62,2006,-5944,5426,0,0,-1
23.83,13.92,-47.61,2002,-5945,5421,0,0,-1
23.84,13.92,-47.60,2032,-5951,5407,0,0,-1
23.85,13.91,-47.58,2034,-5957,5383,1,1,-1
23.85,13.86,-47.53,1976,-5934,5386,1,1,0
23.85,13.86,-47.48,1960,-5917,5468,1,-1,0
23.84,13.87,-47.45,1945,-5866,5541,-1,-2,-1
23.85,13.90,-47.47,1965,-5871,5492,-1,-1,-1
23.85,13.91,-47.48,1977,-5867,5475,-2,-2,-1
23.86,13.94,-47.53,1999,-5878,5435,-2,-1,-1
23.87,13.97,-47.55,2012,-5900,5453,-1,-1,-1
23.88,13.99,-47.59,2033,-5899,5462,-2,-1,-1
23.88,14.00,-47.64,2041,-5902,5456,-3,0,0
23.88,14.00,-47.70,2028,-5938,5446,-3,-1,-1
23.87,14.00,-47.76,2012,-5974,5411,-2,-1,0
23.86,14.01,-47.82,2014,-5993,5406,-2,-1,-1
23.86,14.02,-47.85,1995,-5955,5425,-2,-1,-1
23.86,14.04,-47.89,1999,-5948,5406,-2,-1,-1
23.87,14.07,-47.94,2004,-5970,5386,-2,-2,-1
23.88,14.10,-47.98,2061,-5969,5380,-1,-1,-1
23.89,14.12,-48.00,2073,-5973,5397,-1,-1,-1
23.90,14.12,-48.02,2076,-5996,5363,-1,0,-1
23.90,14.11,-48.02,2058,-5984,5370,0,0,0
23.90,14.10,-48.01,2036,-5984,5392,-1,0,0
23.89,14.09,-48.02,2007,-5964,5419,-1,0,0
23.89,14.09,-48.03,2019,-5954,5401,-1,-1,-1
23.89,14.10,-48.05,2038,-5963,5377,-1,0,0
23.89,14.10,-48.08,2043,-5974,5343,-1,-1,0
23.89,14.10,-48.07,2042,-5979,5363,0,0,-1
23.89,14.10,-48.07,2027,-5989,5382,-1,-1,-1
23.90,14.10,-48.06,2041,-5990,5376,0,0,-1
23.90,14.09,-48.04,2041,-5995,5370,0,0,-1
23.91,14.08,-48.02,2040,-6002,5357,0,1,-1
23.93,14.07,-47.99,2004,-5995,5342,1,0,-1
23.94,14.07,-47.94,1989,-5949,5410,1,-1,-1
23.95,14.09,-47.92,1990,-5902,5467,-1,-2,-1
23.96,14.12,-47.95,2015,-5903,5416,-2,-1,-1
23.99,14.15,-47.98,2025,-5951,5383,-1,0,-2
24.02,14.16,-47.99,2039,-5971,5385,-1,0,-1
24.05,14.18,-48.00,2038,-5917,5414,-1,0,-1
24.07,14.19,-48.01,2025,-5901,5423,-2,-1,-1
24.09,14.22,-48.06,2058,-5932,5397,-2,0,-1
24.10,14.23,-48.11,2067,-5960,5402,-2,-1,-1
24.11,14.24,-48.15,2046,-5982,5364,-2,0,-1
24.12,14.25,-48.18,2020,-5974,5383,-2,-1,-1
24.14,14.28,-48.23,2049,-5978,5388,-3,-1,-1
24.16,14.31,-48.29,2030,-6009,5334,-2,0,-2
24.18,14.33,-48.32,2037,-6015,5328,-2,-1,-2
24.21,14.38,-48.34,2039,-6003,5347,-2,-1,-2
24.24,14.42,-48.37,2068,-5999,5349,-1,-1,-2
24.29,14.46,-48.38,2100,-6012,5332,-1,0,-2
24.31,14.47,-48.38,2087,-6006,5332,-1,0,-1
24.34,14.49,-48.38,2109,-5959,5340,-1,0,-1
24.36,14.51,-48.39,2110,-5988,5312,-1,0,-1
24.37,14.51,-48.39,2117,-6001,5343,-1,0,-1
24.37,14.49,-48.38,2139,-5969,5349,-1,1,0
24.36,14.46,-48.39,2082,-5993,5313,-1,1,-1
24.37,14.45,-48.38,2094,-6068,5336,0,0,-1
24.39,14.43,-48.35,2094,-6068,5349,1,1,-1
24.40,14.39,-48.29,2065,-6014,5355,1,2,-1
24.41,14.37,-48.26,2038,-5967,5354,0,0,-1
24.42,14.37,-48.24,2045,-5975,5337,0,0,-1
24.43,14.36,-48.21,2057,-5992,5323,1,0,-1
24.45,14.36,-48.16,2089,-5986,5365,1,1,-1
24.47,14.33,-48.11,2082,-5985,5362,0,1,-1
24.48,14.30,-48.07,2096,-5992,5381,1,2,-1
24.49,14.26,-48.02,2068,-5976,5404,1,1,0
24.49,14.22,-47.97,2065,-5959,5384,1,1,0
24.48,14.19,-47.94,2052,-5949,5366,1,1,0
24.48,14.15,-47.89,2042,-5955,5387,1,1,0
24.48,14.12,-47.84,2026,-5924,5457,0,0,0
24.47,14.10,-47.83,2049,-5892,5462,-1,0,1
24.44,14.05,-47.83,2005,-5874,5400,-1,0,1
24.42,14.04,-47.85,2006,-5923,5408,-1,-1,0
24.40,14.04,-47.88,2015,-5971,5433,-1,-1,0
24.40,14.03,-47.88,2005,-5968,5415,-1,0,0
24.39,14.03,-47.89,2011,-5969,5393,-1,0,0
24.40,14.03,-47.89,2016,-5977,5376,0,0,-1
24.40,14.03,-47.88,2022,-5958,5381,0,0,0
24.39,14.02,-47.87,2035,-5953,5386,0,0,0
24.39,14.01,-47.87,2044,-5967,5379,0,0,0
24.38,14.00,-47.85,2036,-5973,5385,0,0,0
24.36,13.97,-47.83,2013,-5968,5397,0,0,0
24.36,13.95,-47.81,2008,-5966,5409,0,0,0
24.35,13.94,-47.79,2004,-5958,5414,0,0,0
24.35,13.93,-47.76,1983,-5938,5419,0,0,0
24.35,13.93,-47.75,1990,-5932,5423,0,0,-1
24.35,13.93,-47.75,1994,-5922,5413,0,-1,0
24.35,13.92,-47.73,2002,-5917,5431,0,0,0
24.35,13.93,-47.73,2010,-5928,5447,-1,-1,0
24.34,13.93,-47.74,2019,-5932,5425,-1,0,0
24.34,13.91,-47.74,2006,-5937,5416,0,0,0
24.33,13.91,-47.73,2012,-5941,5428,-1,-1,0
24.33,13.91,-47.73,2007,-5949,5426,0,0,0
24.33,13.90,-47.72,2005,-5946,5428,0,0,0
24.33,13.90,-47.72,2012,-5939,5425,-1,0,0
24.33,13.91,-47.73,2008,-5938,5422,-1,-1,0
24.33,13.90,-47.73,2013,-5949,5413,0,0,0
24.33,13.90,-47.72,2013,-5945,5421,-1,0,0
24.33,13.89,-47.72,2005,-5947,5411,-1,0,0
24.32,13.88,-47.72,1996,-5945,5407,0,0,0
24.32,13.88,-47.72,1986,-5946,5415,0,0,0
24.32,13.87,-47.71,1987,-5945,5429,0,0,-1
24.33,13.87,-47.70,1988,-5946,5453,0,0,-1
24.33,13.87,-47.69,1979,-5940,5438,-1,-1,-1
24.34,13.87,-47.69,1987,-5938,5434,-1,0,-1
24.34,13.88,-47.70,1997,-5943,5433,-1,-1,-1
24.34,13.88,-47.69,2007,-5943,5436,0,0,-1
24.35,13.87,-47.68,2002,-5935,5425,0,0,0
24.35,13.86,-47.68,2005,-5934,5435,0,0,0
24.34,13.85,-47.67,2001,-5939,5434,0,0,0
24.34,13.84,-47.67,2003,-5947,5443,0,0,0
24.34,13.83,-47.66,1993,-5943,5444,-1,0,0
24.34,13.83,-47.66,1997,-5947,5434,-1,0,0
24.33,13.82,-47.66,1982,-5946,5428,-1,0,0
24.33,13.82,-47.66,1991,-5950,5412,0,0,0
24.33,13.81,-47.65,1988,-5941,5418,0,0,0
24.33,13.81,-47.64,1989,-5933,5429,0,0,0
24.33,13.80,-47.63,1977,-5929,5434,0,0,0
24.32,13.79,-47.63,1985,-5939,5422,0,0,0
24.32,13.79,-47.62,1987,-5942,5434,0,0,0
24.31,13.78,-47.62,1987,-5949,5431,0,0,0
24.32,13.78,-47.60,1977,-5942,5444,0,0,0
24.32,13.78,-47.59,1984,-5931,5445,0,-1,0
24.32,13.78,-47.58,1980,-5926,5456,-1,-1,0
24.31,13.78,-47.57,1994,-5941,5458,0,-1,0
24.31,13.78,-47.57,1992,-5941,5441,-1,0,0
24.31,13.78,-47.58,1983,-5948,5428,0,0,0
24.31,13.77,-47.57,1977,-5944,5439,0,0,0
24.31,13.77,-47.56,1986,-5930,5454,0,0,0
24.31,13.77,-47.56,1991,-5927,5446,-1,0,0
24.31,13.77,-47.57,1982,-5937,5432,-1,0,-1
24.31,13.76,-47.57,1977,-5930,5433,-1,0,-1
24.31,13.76,-47.57,1970,-5928,5439,-1,0,-1
24.31,13.76,-47.57,1974,-5929,5452,-1,0,-1
24.32,13.76,-47.58,1975,-5939,5456,-1,0,-1
24.31,13.75,-47.59,1974,-5934,5453,-1,0,-1
24.32,13.76,-47.60,1984,-5934,5435,-1,-1,-1
24.32,13.76,-47.61,1990,-5938,5437,-1,0,-1
24.32,13.77,-47.61,2000,-5946,5431,-1,-1,-1
24.32,13.76,-47.61,1996,-5943,5427,0,0,0
24.33,13.75,-47.61,1974,-5938,5433,-1,0,0
24.33,13.75,-47.61,1993,-5927,5420,-1,0,0
24.32,13.74,-47.61,1990,-5928,5436,0,0,0
24.32,13.73,-47.59,1976,-5934,5438,0,0,0
24.33,13.73,-47.59,1969,-5927,5436,-1,0,-1
24.33,13.73,-47.59,1969,-5925,5438,0,-1,-1
24.33,13.74,-47.58,1990,-5923,5450,0,-1,0
24.33,13.74,-47.58,1992,-5929,5445,-1,-1,-1
24.33,13.74,-47.58,1990,-5932,5455,0,0,0
24.33,13.74,-47.58,1982,-5944,5445,-1,-1,0
24.33,13.75,-47.58,1978,-5955,5442,0,-1,0
24.33,13.75,-47.58,1979,-5964,5430,0,-1,0
24.32,13.76,-47.57,1981,-5962,5424,0,-1,-1
24.33,13.76,-47.55,1977,-5953,5440,0,-1,-1
24.34,13.77,-47.54,1985,-5940,5439,0,-1,-1
24.34,13.76,-47.51,1986,-5932,5444,0,0,0
24.34,13.77,-47.50,1993,-5922,5445,0,0,0
24.34,13.77,-47.49,1999,-5920,5453,0,0,0
24.34,13.77,-47.48,2000,-5925,5450,0,0,0
24.34,13.76,-47.47,1997,-5928,5451,0,0,0
24.34,13.76,-47.47,1992,-5917,5455,0,-1,0
24.34,13.76,-47.47,1991,-5918,5456,-1,-1,0
24.34,13.77,-47.47,1995,-5926,5452,-1,-1,-1
24.34,13.78,-47.48,1989,-5930,5440,-1,-1,0
24.35,13.78,-47.48,1995,-5935,5442,-1,0,-1
24.35,13.78,-47.49,1988,-5939,5439,-1,0,0
24.35,13.78,-47.49,1985,-5939,5436,0,0,0
24.34,13.77,-47.49,1980,-5937,5429,0,0,-1
24.35,13.77,-47.48,1977,-5930,5442,0,0,-1
24.35,13.77,-47.47,1989,-5926,5453,0,0,-1
24.35,13.77,-47.46,1989,-5923,5457,0,0,0
24.35,13.77,-47.46,1989,-5918,5454,0,0,0
24.35,13.77,-47.46,1985,-5903,5455,0,-1,0
24.35,13.77,-47.45,2000,-5910,5468,0,0,0
24.35,13.76,-47.46,1977,-5923,5459,-1,-1,-1
24.35,13.76,-47.45,1982,-5926,5475,0,0,0
24.35,13.76,-47.45,1970,-5918,5459,-1,-1,-1
24.36,13.77,-47.45,1972,-5922,5454,0,-1,-1
24.36,13.77,-47.45,1976,-5920,5453,0,-1,-1
24.36,13.77,-47.45,1988,-5920,5447,0,0,-1
24.37,13.77,-47.44,1992,-5917,5454,0,0,-1
24.36,13.77,-47.43,1991,-5913,5462,0,0,0
24.36,13.76,-47.43,1985,-5914,5462,0,0,0
24.37,13.76,-47.42,1981,-5922,5461,-1,0,0
24.37,13.76,-47.42,1979,-5917,5460,0,0,0
24.37,13.76,-47.42,1980,-5919,5469,-1,-1,-1
24.37,13.76,-47.42,1986,-5919,5463,-1,-1,-1
24.38,13.77,-47.42,1986,-5928,5465,-1,-1,-1
24.38,13.77,-47.42,1992,-5923,5461,0,0,0
24.38,13.77,-47.42,1988,-5921,5449,-1,0,0
24.37,13.76,-47.42,1969,-5910,5440,0,0,0
24.37,13.76,-47.42,1972,-5911,5449,-1,-1,0
24.37,13.76,-47.42,1979,-5926,5457,0,0,-1
24.38,13.77,-47.42,1981,-5929,5455,0,0,-1
24.39,13.77,-47.41,1985,-5915,5458,0,0,-1
24.39,13.77,-47.40,1986,-5905,5462,0,-1,-1
24.39,13.78,-47.40,1998,-5906,5460,-1,-1,-1
24.39,13.78,-47.41,1998,-5911,5456,-1,-1,0
24.39,13.78,-47.41,1997,-5913,5453,-1,0,0
24.39,13.77,-47.41,1985,-5924,5448,-1,0,0
24.39,13.77,-47.41,1979,-5930,5452,0,0,0
24.39,13.77,-47.41,1980,-5928,5465,0,0,-1
24.39,13.77,-47.41,1974,-5922,5460,0,-1,-1
24.39,13.77,-47.40,1981,-5923,5462,0,0,-1
24.40,13.78,-47.39,1980,-5915,5465,0,0,-1
24.40,13.78,-47.38,1984,-5915,5467,0,0,-1
24.41,13.78,-47.38,1985,-5905,5471,-1,0,-1
24.41,13.78,-47.37,1991,-5906,5463,0,0,-1
24.41,13.78,-47.37,1981,-5905,5455,0,0,0
24.41,13.77,-47.37,1980,-5900,5463,-1,0,-1
24.41,13.77,-47.37,1983,-5899,5464,-1,-1,0
24.41,13.78,-47.37,1997,-5911,5468,-1,0,0
24.41,13.78,-47.37,1987,-5918,5461,-1,0,-1
24.41,13.78,-47.37,1979,-5913,5462,-1,0,-1
24.42,13.78,-47.37,1976,-5919,5459,-1,0,-1
24.42,13.78,-47.37,1984,-5923,5460,0,-1,-1
24.42,13.78,-47.37,1984,-5914,5458,0,0,-1
24.42,13.77,-47.36,1979,-5913,5466,0,0,0
24.42,13.77,-47.36,1981,-5914,5457,0,0,0
24.42,13.77,-47.36,1989,-5917,5453,0,0,0
24.42,13.77,-47.35,1988,-5906,5461,0,0,0
24.42,13.77,-47.35,1986,-5903,5452,-1,0,0
24.42,13.77,-47.35,1979,-5915,5457,-1,0,-1
24.42,13.77,-47.36,1978,-5918,5460,-1,0,-1
24.43,13.77,-47.35,1975,-5916,5461,-1,-1,-1
24.43,13.77,-47.36,1977,-5921,5457,-1,-1,-1
24.43,13.77,-47.36,1980,-5921,5460,-1,0,-1
24.43,13.77,-47.36,1977,-5920,5452,0,0,-1
24.43,13.77,-47.36,1982,-5909,5462,0,0,0
24.43,13.77,-47.35,1975,-5910,5473,-1,0,0
24.42,13.76,-47.35,1972,-5913,5467,-1,-1,-1
24.44,13.77,-47.34,1985,-5914,5466,0,0,-1
24.43,13.76,-47.33,1978,-5906,5460,0,0,0
24.43,13.75,-47.33,1969,-5906,5457,0,0,-1
24.43,13.75,-47.33,1973,-5904,5462,-1,-1,0
24.43,13.76,-47.33,1983,-5916,5451,-1,0,-1
24.43,13.76,-47.33,1983,-5914,5454,0,0,-1
24.43,13.76,-47.33,1986,-5911,5463,-1,0,-1
24.43,13.76,-47.33,1985,-5903,5464,-1,0,0
24.44,13.76,-47.34,1981,-5905,5470,-1,0,0
24.44,13.75,-47.34,1982,-5915,5462,-1,0,0
24.43,13.74,-47.35,1982,-5912,5461,-1,0,0
24.43,13.73,-47.36,1972,-5923,5454,-1,0,0
24.42,13.73,-47.36,1982,-5926,5464,-1,0,0
24.42,13.71,-47.36,1968,-5921,5456,-1,0,-1
24.42,13.71,-47.37,1973,-5919,5450,-1,0,0
24.42,13.71,-47.37,1968,-5916,5448,0,-1,-1
24.43,13.71,-47.36,1969,-5909,5455,0,0,-1
24.42,13.70,-47.36,1977,-5913,5454,-1,0,0
24.42,13.70,-47.36,1982,-5896,5465,-1,0,0
24.43,13.70,-47.36,1975,-5894,5480,-1,0,0
24.42,13.70,-47.37,1979,-5913,5467,-1,0,0
24.42,13.69,-47.38,1977,-5923,5456,-1,0,0
24.41,13.68,-47.38,1969,-5912,5449,0,0,0
24.42,13.68,-47.38,1972,-5909,5480,-1,-1,0
24.42,13.69,-47.38,1967,-5912,5480,-1,-1,-1
24.41,13.69,-47.39,1976,-5922,5470,0,-1,-1
24.42,13.70,-47.39,1971,-5931,5469,-1,-1,-1
24.42,13.70,-47.39,1969,-5927,5460,0,-1,-1
24.42,13.70,-47.38,1975,-5917,5467,0,-1,-1
24.43,13.71,-47.38,1980,-5926,5467,0,-1,-1
24.43,13.71,-47.37,1986,-5923,5460,0,0,-1
24.43,13.72,-47.36,1981,-5918,5461,0,0,-1
24.43,13.71,-47.35,1978,-5902,5472,0,0,0
24.43,13.71,-47.34,1975,-5901,5471,-1,0,0
24.44,13.71,-47.34,1968,-5904,5472,-1,0,0
24.44,13.71,-47.34,1959,-5910,5475,-1,-1,-1
24.44,13.71,-47.34,1969,-5915,5472,-1,0,-1
24.44,13.70,-47.35,1966,-5911,5469,-1,-1,0
24.44,13.71,-47.35,1970,-5907,5456,-1,0,0
24.44,13.71,-47.35,1976,-5906,5460,-1,0,0
24.44,13.70,-47.36,1981,-5914,5458,-1,0,0
24.44,13.70,-47.36,1976,-5912,5464,-1,0,0
24.44,13.70,-47.37,1982,-5917,5448,-1,0,0
24.44,13.70,-47.38,1977,-5922,5463,-1,0,-1
24.44,13.70,-47.38,1984,-5915,5466,-1,0,-1
24.44,13.70,-47.37,1984,-5911,5470,0,0,0
24.44,13.69,-47.37,1975,-5901,5465,-1,0,0
24.44,13.69,-47.36,1967,-5902,5462,-1,-1,0
24.44,13.69,-47.36,1975,-5910,5472,-1,-1,0
24.43,13.69,-47.37,1969,-5920,5458,-1,-1,0
24.44,13.69,-47.37,1969,-5929,5456,0,0,-1
24.44,13.69,-47.36,1975,-5917,5469,0,-1,-1
24.45,13.70,-47.36,1975,-5904,5463,0,-1,-1
24.45,13.71,-47.35,1979,-5907,5457,-1,-1,-1
24.46,13.71,-47.35,1983,-5906,5457,-1,0,0
24.46,13.71,-47.35,1984,-5912,5465,-1,0,0
24.45,13.71,-47.36,1980,-5925,5457,-1,0,0
24.45,13.71,-47.36,1971,-5933,5462,-1,0,-1
24.45,13.71,-47.37,1970,-5936,5458,-1,0,-1
24.45,13.71,-47.37,1970,-5934,5455,0,-1,-1
24.46,13.72,-47.36,1974,-5925,5454,0,-1,-1
24.47,13.72,-47.35,1979,-5915,5456,0,-1,-1
24.48,13.73,-47.34,1988,-5907,5464,0,0,-1
24.48,13.74,-47.34,1992,-5904,5464,0,-1,0
24.48,13.74,-47.34,1985,-5908,5462,0,0,0
24.48,13.73,-47.34,1975,-5908,5457,0,0,0
24.47,13.73,-47.33,1979,-5897,5462,0,0,0
24.48,13.73,-47.33,1978,-5893,5466,-1,-1,-1
24.48,13.74,-47.33,1977,-5896,5456,-1,-1,-1
24.48,13.74,-47.33,1981,-5911,5468,-1,-1,-1
24.48,13.74,-47.34,1984,-5916,5461,-1,-1,-1
24.48,13.75,-47.34,1984,-5917,5451,0,0,-1
24.49,13.75,-47.34,1986,-5909,5455,-1,-1,-1
24.49,13.76,-47.34,1995,-5913,5449,0,0,-1
24.50,13.76,-47.33,1997,-5914,5451,0,0,-1
24.50,13.76,-47.32,1993,-5907,5460,0,0,-1
24.51,13.76,-47.31,1992,-5890,5459,0,0,0
24.51,13.76,-47.31,1992,-5889,5465,-1,0,0
24.51,13.76,-47.31,1983,-5897,5476,-1,0,0
24.51,13.75,-47.31,1978,-5902,5472,-1,0,-1
24.51,13.75,-47.31,1974,-5906,5475,-1,-1,-1
24.51,13.76,-47.31,1985,-5912,5476,-1,-1,-1
24.51,13.76,-47.31,1986,-5908,5466,-1,-1,-1
24.51,13.77,-47.31,1988,-5903,5463,-1,-1,-1
24.52,13.77,-47.31,1993,-5901,5465,-1,-1,-1
24.52,13.78,-47.31,1997,-5901,5467,-1,0,-1
24.52,13.78,-47.31,1997,-5904,5463,0,0,0
24.52,13.77,-47.30,1989,-5909,5467,0,0,0
24.52,13.77,-47.30,1975,-5901,5468,-1,0,-1
24.52,13.77,-47.30,1974,-5898,5460,0,0,0
24.52,13.77,-47.30,1978,-5901,5466,-1,-1,-1
24.52,13.77,-47.30,1981,-5898,5466,-1,0,0
24.52,13.77,-47.30,1986,-5912,5468,-1,-1,0
24.53,13.77,-47.31,1990,-5907,5462,-1,0,-1
24.53,13.77,-47.30,1980,-5925,5472,-1,0,-1
24.53,13.77,-47.30,1988,-5915,5467,-1,-1,-1
24.54,13.78,-47.30,1991,-5909,5467,0,0,-1
24.54,13.78,-47.30,1985,-5899,5469,0,0,0
24.54,13.78,-47.29,1985,-5904,5478,-1,0,0
24.54,13.78,-47.29,1982,-5906,5480,-1,0,0
24.54,13.77,-47.29,1976,-5910,5483,0,0,-1
24.55,13.76,-47.27,1979,-5912,5474,0,0,-1
24.55,13.75,-47.26,1979,-5901,5494,0,0,-1
24.56,13.75,-47.25,1977,-5890,5490,-1,-1,-1
24.56,13.76,-47.26,1986,-5895,5477,-1,-1,0
24.56,13.76,-47.26,1991,-5893,5478,-1,0,0
24.56,13.76,-47.26,1988,-5903,5469,-1,0,0
24.56,13.75,-47.27,1979,-5910,5464,-1,0,0
24.56,13.75,-47.27,1975,-5911,5456,0,0,-1
24.56,13.75,-47.27,1970,-5921,5459,0,0,-1
24.56,13.75,-47.27,1969,-5923,5458,0,0,-1
24.57,13.75,-47.26,1983,-5908,5467,0,0,-1
