Yaw,Pitch,Roll,AX,AY,AZ,GX,GY,GZ
-151.71,34.28,-77.76,4676,-6709,1456,-1,-1,-1
-151.71,34.28,-77.77,4672,-6711,1443,-1,0,-1
-151.71,34.28,-77.77,4676,-6711,1434,0,0,-1
-151.70,34.28,-77.78,4674,-6709,1435,-1,-1,-1
-151.70,34.29,-77.77,4685,-6709,1440,0,0,-1
-151.70,34.29,-77.77,4680,-6710,1448,0,0,0
-151.72,34.28,-77.76,4677,-6708,1448,0,0,0
-151.73,34.28,-77.74,4674,-6710,1451,0,0,0
-151.74,34.27,-77.73,4672,-6714,1455,0,0,0
-151.74,34.27,-77.72,4674,-6714,1457,0,0,0
-151.75,34.27,-77.70,4678,-6713,1466,0,0,-1
-151.75,34.27,-77.70,4679,-6719,1460,0,-1,-1
-151.74,34.28,-77.71,4681,-6717,1459,-1,-1,-1
-151.74,34.28,-77.71,4677,-6711,1455,-1,-1,-1
-151.73,34.28,-77.71,4680,-6707,1463,0,-1,-1
-151.74,34.28,-77.71,4685,-6706,1464,0,0,0
-151.74,34.28,-77.70,4686,-6698,1460,0,0,0
-151.75,34.28,-77.69,4689,-6704,1455,0,0,0
-151.75,34.28,-77.69,4686,-6708,1453,0,0,0
-151.75,34.28,-77.68,4683,-6706,1448,0,0,-1
-151.75,34.28,-77.68,4677,-6713,1456,0,0,-1
-151.75,34.28,-77.68,4676,-6715,1447,0,0,-1
-151.76,34.28,-77.66,4672,-6717,1446,0,0,-1
-151.76,34.28,-77.65,4678,-6713,1451,0,0,0
-151.77,34.27,-77.65,4676,-6718,1452,0,0,0
-151.78,34.28,-77.63,4680,-6714,1466,0,0,0
-151.79,34.27,-77.61,4680,-6710,1476,0,0,0
-151.79,34.28,-77.60,4681,-6709,1476,0,0,-1
-151.79,34.28,-77.60,4678,-6705,1479,-1,-1,-1
-151.79,34.28,-77.60,4674,-6706,1470,-1,-1,-1
-151.78,34.29,-77.61,4676,-6705,1460,-1,-1,-1
-151.78,34.29,-77.61,4675,-6703,1458,0,0,0
-151.78,34.28,-77.61,4672,-6708,1460,0,0,0
-151.79,34.28,-77.60,4677,-6706,1464,0,0,0
-151.80,34.28,-77.59,4681,-6713,1463,0,0,0
-151.80,34.28,-77.58,4677,-6717,1456,0,0,0
-151.81,34.27,-77.56,4679,-6702,1462,0,0,0
-151.82,34.27,-77.55,4671,-6710,1470,0,0,-1
-151.82,34.27,-77.54,4670,-6705,1470,0,0,0
-151.83,34.27,-77.52,4675,-6707,1481,0,0,-1
-151.84,34.27,-77.52,4674,-6715,1477,0,0,-1
-151.84,34.27,-77.51,4679,-6710,1478,0,0,-1
-151.83,34.28,-77.51,4680,-6705,1472,0,-1,-1
-151.83,34.28,-77.51,4689,-6703,1476,0,0,-1
-151.83,34.28,-77.51,4689,-6709,1472,0,-1,-1
-151.83,34.28,-77.51,4682,-6705,1464,0,0,-1
-151.84,34.28,-77.50,4678,-6705,1463,0,-1,-1
-151.84,34.28,-77.49,4678,-6698,1473,0,0,-1
-151.85,34.28,-77.48,4675,-6697,1483,0,0,0
-151.86,34.28,-77.47,4681,-6700,1472,0,0,0
-151.87,34.28,-77.45,4680,-6698,1483,0,0,0
-151.87,34.27,-77.44,4676,-6701,1482,0,0,0
-151.88,34.27,-77.44,4677,-6703,1490,0,-1,0
-151.88,34.27,-77.44,4669,-6706,1486,0,0,-1
-151.87,34.28,-77.44,4670,-6712,1482,0,0,-1
-151.87,34.28,-77.43,4681,-6710,1485,0,0,-1
-151.88,34.28,-77.41,4676,-6708,1485,0,0,0
-151.89,34.28,-77.40,4682,-6702,1488,0,0,0
-151.91,34.27,-77.38,4680,-6695,1496,0,0,0
-151.93,34.26,-77.37,4667,-6695,1493,0,0,0
-151.95,34.25,-77.35,4656,-6702,1497,0,-1,0
-151.97,34.24,-77.34,4662,-6710,1499,0,0,0
-151.98,34.24,-77.32,4668,-6710,1510,0,0,-1
-151.98,34.24,-77.31,4670,-6702,1521,0,-1,-1
-151.97,34.25,-77.31,4677,-6697,1513,-1,-1,-1
-151.96,34.26,-77.32,4685,-6697,1507,0,-1,-1
-151.96,34.26,-77.31,4682,-6698,1510,0,0,0
-151.97,34.25,-77.31,4678,-6707,1505,0,0,0
-151.98,34.25,-77.30,4674,-6701,1506,0,0,0
-151.99,34.24,-77.30,4670,-6703,1508,0,-1,0
-152.00,34.24,-77.28,4667,-6704,1515,0,0,0
-152.00,34.24,-77.29,4670,-6704,1511,0,0,-1
-152.00,34.24,-77.28,4676,-6709,1499,0,0,-1
-152.01,34.24,-77.27,4676,-6708,1502,0,0,0
-152.01,34.24,-77.26,4667,-6706,1514,0,0,0
-152.02,34.23,-77.25,4672,-6697,1515,0,0,0
-152.03,34.24,-77.23,4672,-6702,1513,0,0,0
-152.04,34.23,-77.21,4675,-6705,1528,0,0,0
-152.05,34.23,-77.21,4677,-6706,1525,0,-1,0
-152.05,34.23,-77.20,4677,-6703,1524,0,0,0
-152.06,34.23,-77.19,4672,-6705,1531,0,-1,-1
-152.05,34.24,-77.20,4670,-6702,1527,-1,-1,-1
-152.05,34.23,-77.20,4668,-6701,1514,-1,-1,-1
-152.05,34.24,-77.20,4668,-6699,1516,0,0,-1
-152.05,34.24,-77.20,4675,-6697,1516,0,0,0
-152.06,34.23,-77.18,4676,-6693,1512,0,0,0
-152.06,34.24,-77.17,4677,-6694,1507,0,0,0
-152.07,34.23,-77.16,4675,-6705,1515,0,0,0
-152.08,34.23,-77.15,4669,-6704,1517,0,0,0
-152.09,34.23,-77.14,4668,-6705,1519,0,0,0
-152.10,34.23,-77.12,4663,-6700,1524,0,0,-1
-152.10,34.23,-77.11,4664,-6706,1524,0,0,0
-152.10,34.23,-77.11,4669,-6706,1518,0,0,0
-152.10,34.23,-77.11,4674,-6705,1517,0,-1,-1
-152.10,34.23,-77.10,4669,-6696,1530,0,-1,-1
-152.10,34.23,-77.10,4667,-6692,1531,0,0,-1
-152.10,34.23,-77.10,4666,-6692,1539,-1,-1,-1
-152.10,34.23,-77.12,4668,-6694,1533,-1,-1,-1
-152.10,34.23,-77.12,4665,-6701,1531,-1,-1,0
-152.09,34.23,-77.12,4667,-6702,1522,-1,0,0
-152.10,34.23,-77.12,4671,-6704,1529,-1,0,0
-152.10,34.23,-77.12,4672,-6703,1533,-1,-1,0
-152.09,34.23,-77.13,4670,-6704,1536,-1,-1,0
-152.08,34.23,-77.16,4668,-6704,1523,-1,-1,0
-152.08,34.23,-77.17,4674,-6700,1510,-1,0,-1
-152.07,34.23,-77.18,4676,-6699,1521,-1,-1,-1
-152.05,34.24,-77.19,4677,-6699,1524,-1,-1,-1
-152.05,34.24,-77.21,4669,-6703,1513,-1,-1,0
-152.04,34.23,-77.22,4669,-6700,1506,-1,-1,0
-152.04,34.23,-77.23,4676,-6702,1502,-1,0,0
-152.04,34.23,-77.23,4676,-6706,1503,-1,-1,0
-152.04,34.23,-77.24,4673,-6707,1513,-1,0,-1
-152.04,34.23,-77.24,4671,-6704,1511,-1,0,-1
-152.03,34.23,-77.25,4669,-6698,1517,-1,-1,-1
-152.02,34.24,-77.26,4671,-6697,1522,-1,-1,-1
-152.01,34.23,-77.28,4676,-6700,1515,-1,-1,-1
-152.00,34.24,-77.30,4674,-6700,1517,-1,-1,0
-151.99,34.24,-77.31,4673,-6699,1514,-1,-1,0
-151.99,34.24,-77.31,4676,-6696,1516,-1,-1,0
-151.99,34.23,-77.33,4673,-6701,1514,-1,-1,0
-151.98,34.24,-77.35,4684,-6699,1515,-1,-1,0
-151.97,34.24,-77.36,4678,-6704,1509,-1,-1,0
-151.96,34.24,-77.38,4674,-6701,1507,-1,-1,0
-151.94,34.24,-77.41,4669,-6702,1507,-1,-1,0
-151.94,34.24,-77.41,4662,-6704,1501,-1,-1,-1
-151.93,34.24,-77.42,4666,-6705,1495,-1,0,0
-151.93,34.24,-77.43,4669,-6706,1490,-1,0,0
-151.93,34.24,-77.43,4669,-6703,1489,-1,0,0
-151.93,34.23,-77.44,4668,-6702,1501,-1,-1,0
-151.92,34.24,-77.44,4674,-6702,1494,-1,-1,-1
-151.92,34.24,-77.46,4668,-6698,1490,-1,-1,-1
-151.90,34.25,-77.47,4670,-6697,1486,-1,-1,-1
-151.89,34.24,-77.51,4672,-6702,1487,-1,-1,0
-151.88,34.25,-77.53,4681,-6705,1478,-1,-1,0
-151.86,34.25,-77.55,4686,-6704,1477,-1,-1,0
-151.86,34.25,-77.56,4685,-6710,1489,-1,-1,0
-151.85,34.25,-77.57,4680,-6715,1483,-1,-1,0
-151.85,34.24,-77.59,4670,-6721,1492,-1,-1,0
-151.85,34.24,-77.60,4669,-6712,1487,-1,-1,0
-151.83,34.24,-77.62,4670,-6713,1481,-1,-1,0
-151.83,34.24,-77.63,4673,-6715,1475,-1,-1,0
-151.83,34.24,-77.64,4678,-6713,1474,-1,-1,0
-151.82,34.24,-77.66,4674,-6715,1475,-1,-1,0
-151.81,34.24,-77.67,4670,-6714,1479,-1,-1,0
-151.80,34.24,-77.69,4675,-6714,1480,-1,-1,0
-151.79,34.24,-77.71,4674,-6714,1471,-1,-1,-1
-151.77,34.24,-77.74,4674,-6713,1463,-1,-1,0
-151.76,34.24,-77.76,4677,-6714,1460,-1,-1,0
-151.75,34.24,-77.78,4674,-6710,1456,-1,-1,0
-151.75,34.24,-77.79,4679,-6714,1468,-1,-1,0
-151.75,34.24,-77.80,4671,-6715,1460,-1,0,0
-151.75,34.23,-77.80,4665,-6720,1453,-1,0,0
-151.75,34.23,-77.80,4669,-6719,1467,-1,-1,0
-151.75,34.23,-77.82,4668,-6719,1468,-1,-1,0
-151.74,34.23,-77.83,4667,-6714,1468,-1,-1,0
-151.73,34.24,-77.83,4673,-6715,1457,-1,-1,-1
-151.72,34.24,-77.85,4672,-6710,1452,-1,-1,-1
-151.72,34.24,-77.85,4674,-6716,1450,-1,-1,-1
-151.71,34.24,-77.86,4677,-6715,1448,-1,-1,-1
-151.71,34.24,-77.86,4681,-6714,1459,-1,-1,0
-151.71,34.24,-77.86,4677,-6720,1457,0,0,0
-151.72,34.24,-77.86,4671,-6713,1442,0,0,0
-151.72,34.24,-77.84,4671,-6717,1451,0,0,0
-151.73,34.23,-77.84,4671,-6721,1455,0,0,-1
-151.73,34.24,-77.83,4670,-6715,1460,-1,0,-1
-151.73,34.23,-77.84,4674,-6721,1459,-1,-1,-1
-151.72,34.24,-77.84,4672,-6716,1467,-1,-1,-1
-151.71,34.24,-77.85,4668,-6711,1460,-1,-1,-1
-151.71,34.24,-77.86,4669,-6715,1449,-1,-1,0
-151.71,34.24,-77.86,4669,-6715,1449,-1,-1,0
-151.72,34.24,-77.85,4676,-6714,1451,0,0,0
-151.73,34.23,-77.84,4678,-6710,1459,0,-1,0
-151.73,34.23,-77.84,4664,-6716,1454,0,-1,-1
-151.73,34.23,-77.84,4664,-6717,1449,0,0,-1
-151.73,34.23,-77.84,4664,-6711,1444,-1,0,-1
-151.73,34.23,-77.84,4665,-6721,1455,0,0,0
-151.74,34.23,-77.83,4660,-6721,1457,0,0,-1
-151.74,34.23,-77.82,4665,-6725,1459,0,0,0
-151.75,34.23,-77.81,4664,-6725,1450,0,0,0
-151.76,34.22,-77.79,4668,-6721,1460,0,0,-1
-151.76,34.23,-77.78,4670,-6722,1470,0,0,-1
-151.76,34.23,-77.78,4673,-6714,1475,0,-1,-1
-151.76,34.23,-77.78,4674,-6711,1475,-1,-1,-1
-151.75,34.23,-77.78,4680,-6712,1474,-1,-1,0
-151.75,34.24,-77.79,4683,-6721,1451,-1,0,0
-151.74,34.23,-77.80,4681,-6722,1443,0,0,0
-151.75,34.24,-77.79,4682,-6726,1453,0,0,0
-151.75,34.23,-77.78,4676,-6715,1461,0,0,0
-151.76,34.23,-77.78,4680,-6715,1455,0,0,0
-151.76,34.23,-77.77,4675,-6714,1466,0,0,0
-151.76,34.23,-77.77,4677,-6713,1471,0,0,0
-151.77,34.23,-77.76,4671,-6712,1472,0,0,0
-151.77,34.23,-77.76,4674,-6711,1467,0,0,0
-151.77,34.23,-77.75,4677,-6714,1459,0,0,-1
-151.77,34.23,-77.75,4669,-6715,1462,0,0,-1
-151.77,34.23,-77.75,4673,-6709,1462,0,0,-1
-151.77,34.23,-77.74,4678,-6713,1469,0,0,-1
-151.76,34.24,-77.74,4675,-6707,1468,0,-1,-1
-151.76,34.24,-77.74,4672,-6707,1471,0,0,-1
-151.77,34.24,-77.73,4669,-6710,1468,0,0,-1
-151.77,34.24,-77.73,4668,-6709,1464,0,0,-1
-151.78,34.24,-77.71,4669,-6710,1468,0,0,0
-151.79,34.23,-77.70,4672,-6709,1472,0,0,-1
-151.79,34.24,-77.69,4678,-6709,1468,0,0,-1
-151.79,34.24,-77.68,4676,-6708,1463,0,0,0
-151.79,34.24,-77.68,4676,-6706,1476,0,0,-1
-151.79,34.24,-77.67,4677,-6706,1481,0,0,-1
-151.79,34.24,-77.67,4673,-6714,1487,-1,-1,-1
-151.79,34.24,-77.67,4674,-6714,1480,-1,-1,-1
-151.79,34.24,-77.68,4674,-6718,1469,-1,0,-1
-151.78,34.25,-77.69,4677,-6720,1462,-1,-1,-1
-151.78,34.25,-77.68,4683,-6706,1461,0,0,-1
-151.78,34.26,-77.67,4679,-6709,1470,0,0,0
-151.78,34.25,-77.67,4670,-6706,1463,0,0,0
-151.79,34.25,-77.66,4665,-6708,1465,0,0,0
-151.81,34.24,-77.65,4671,-6714,1461,0,0,0
-151.82,34.23,-77.63,4663,-6717,1480,0,0,0
-151.83,34.23,-77.61,4659,-6716,1488,0,0,-1
-151.83,34.23,-77.61,4653,-6713,1491,0,-1,-1
-151.84,34.23,-77.60,4663,-6712,1494,-1,-1,-1
-151.82,34.24,-77.61,4668,-6712,1491,-1,-1,-1
-151.82,34.24,-77.62,-258,-258,-258,-1,-1,-258
-151.82,34.24,-77.62,4683,-6706,1489,-1,0,0
-151.82,34.24,-77.62,4685,-6702,1489,0,0,0
-151.82,34.24,-77.60,4683,-6710,1495,0,0,0
-151.83,34.24,-77.59,4675,-6706,1504,0,0,0
-151.83,34.24,-77.58,4673,-6706,1502,0,0,0
-151.84,34.24,-77.58,4671,-6707,1492,0,-1,0
-151.84,34.24,-77.58,4665,-6708,1490,0,0,-1
-151.84,34.24,-77.57,4669,-6703,1488,0,0,-1
-151.84,34.24,-77.57,4662,-6704,1485,0,0,-1
-151.85,34.24,-77.55,4671,-6709,1487,0,0,-1
-151.86,34.23,-77.54,4670,-6706,1480,0,0,0
-151.87,34.23,-77.53,4668,-6705,1487,0,0,0
-151.87,34.23,-77.52,4671,-6710,1495,0,0,0
-151.87,34.23,-77.52,4673,-6705,1498,-1,-1,-1
-151.87,34.23,-77.52,4669,-6709,1492,-1,-1,-1
-151.86,34.24,-77.53,4670,-6705,1491,-1,-1,-1
-151.86,34.24,-77.53,4673,-6710,1500,-1,-1,-1
-151.86,34.24,-77.53,4672,-6716,1496,0,-1,0
-151.86,34.24,-77.53,4672,-6708,1491,0,0,-1
-151.88,34.23,-77.52,4668,-6706,1495,0,0,0
-151.88,34.23,-77.51,4674,-6705,1499,0,0,-1
-151.88,34.23,-77.50,4673,-6707,1500,0,0,0
-151.89,34.23,-77.49,4673,-6708,1510,0,0,-1
-151.89,34.23,-77.48,4672,-6714,1499,0,0,-1
-151.90,34.22,-77.48,4672,-6710,1491,0,0,0
-151.90,34.23,-77.47,4666,-6708,1496,0,0,0
-151.91,34.23,-77.46,4671,-6709,1501,0,0,-1
-151.91,34.23,-77.46,4673,-6709,1496,0,0,-1
-151.91,34.23,-77.46,4676,-6708,1496,0,-1,-1
-151.91,34.23,-77.45,4677,-6705,1500,0,0,-1
-151.91,34.23,-77.44,4679,-6697,1499,0,0,-1
-151.91,34.23,-77.44,4674,-6701,1494,0,-1,-1
-151.91,34.23,-77.44,4677,-6694,1498,0,0,-1
-151.91,34.23,-77.43,4681,-6700,1507,0,0,0
-151.92,34.23,-77.42,4682,-6701,1508,0,0,0
-151.93,34.23,-77.41,4672,-6707,1500,0,0,0
-151.94,34.23,-77.39,4673,-6706,1517,0,0,0
-151.94,34.23,-77.39,4669,-6705,1520,0,-1,0
-151.95,34.22,-77.39,4668,-6712,1518,-1,-1,0
-151.94,34.23,-77.39,4671,-6707,1519,-1,0,-1
-151.94,34.23,-77.39,4678,-6700,1513,-1,-1,-1
-151.93,34.24,-77.40,4678,-6697,1510,-1,-1,-1
-151.93,34.24,-77.40,4675,-6691,1508,-1,-1,0
-151.93,34.24,-77.40,4676,-6692,1506,-1,-1,0
-151.93,34.23,-77.40,4675,-6702,1503,0,0,0
-151.95,34.22,-77.39,4670,-6705,1509,0,0,0
-151.96,34.21,-77.39,4664,-6708,1514,-1,0,0
-151.95,34.22,-77.39,4662,-6708,1510,-1,0,-1
-151.95,34.21,-77.40,4662,-6705,1508,-1,-1,-1
-151.94,34.22,-77.41,4667,-6700,1512,-1,-1,-1
-151.93,34.22,-77.42,4662,-6701,1500,-1,-1,0
-151.93,34.22,-77.44,4666,-6707,1506,-1,-1,0
-151.93,34.22,-77.44,4671,-6712,1505,-1,-1,0
-151.92,34.21,-77.45,4669,-6711,1509,-1,-1,0
-151.92,34.21,-77.45,4668,-6709,1510,-1,-1,0
-151.92,34.21,-77.45,4667,-6707,1514,-1,-1,0
-151.92,34.21,-77.47,4662,-6709,1501,-1,-1,-1
-151.91,34.21,-77.48,4670,-6707,1502,-1,-1,0
-151.91,34.21,-77.49,4661,-6703,1501,-1,-1,0
-151.91,34.21,-77.49,4661,-6700,1499,-1,0,0
-151.91,34.21,-77.49,4665,-6701,1506,-1,0,0
-151.91,34.21,-77.49,4664,-6706,1503,-1,0,0
-151.92,34.20,-77.48,4673,-6706,1513,-1,0,0
-151.92,34.20,-77.48,4678,-6709,1513,-1,0,-1
-151.91,34.21,-77.48,4675,-6709,1515,-1,-1,-1
-151.90,34.21,-77.49,4669,-6706,1511,-1,-1,-1
-151.89,34.21,-77.51,4668,-6701,1505,-1,-1,-1
-151.88,34.21,-77.53,4668,-6698,1488,-1,-1,0
-151.87,34.21,-77.55,4668,-6700,1487,-1,-1,0
-151.87,34.21,-77.56,4671,-6704,1485,-1,-1,0
-151.86,34.22,-77.57,4670,-6711,1493,-1,-1,0
-151.86,34.21,-77.57,4666,-6711,1499,-1,0,-1
-151.86,34.21,-77.58,4671,-6713,1489,-1,-1,0
-151.86,34.21,-77.58,4671,-6713,1483,-1,-1,0
-151.86,34.21,-77.60,4663,-6715,1494,-1,-1,0
-151.85,34.20,-77.61,4667,-6716,1488,-1,-1,0
-151.85,34.20,-77.61,4666,-6717,1491,-1,-1,-1
-151.85,34.21,-77.61,4669,-6720,1488,-1,0,-1
-151.84,34.20,-77.62,4671,-6713,1495,-1,-1,-1
-151.83,34.21,-77.64,4666,-6714,1488,-1,-1,-1
-151.82,34.21,-77.65,4664,-6720,1483,-1,-1,-1
-151.81,34.21,-77.67,4672,-6707,1476,-1,-1,-1
-151.81,34.21,-77.68,4670,-6711,1476,-1,-1,0
-151.80,34.21,-77.69,4675,-6705,1480,-1,0,0
-151.80,34.21,-77.69,4670,-6710,1483,-1,0,0
-151.79,34.21,-77.70,4670,-6705,1485,-1,-1,0
-151.79,34.21,-77.70,4664,-6703,1487,-1,-1,0
-151.78,34.21,-77.72,4665,-6707,1475,-1,-1,-1
-151.77,34.22,-77.73,4669,-6715,1483,-1,-1,-1
-151.76,34.22,-77.75,4668,-6718,1471,-1,-1,-1
-151.75,34.22,-77.76,4670,-6722,1468,-1,-1,-1
-151.75,34.22,-77.77,4673,-6720,1458,-1,-1,0
-151.75,34.22,-77.78,4675,-6710,1473,-1,-1,0
-151.75,34.21,-77.78,4659,-6714,1481,-1,-1,0
-151.76,34.21,-77.78,4657,-6717,1486,-1,0,0
-151.76,34.21,-77.78,4657,-6715,1483,-1,0,-1
-151.76,34.21,-77.78,4664,-6719,1478,-1,0,-1
-151.76,34.21,-77.78,4668,-6716,1479,-1,-1,-1
-151.75,34.21,-77.78,4663,-6718,1471,-1,-1,-1
-151.75,34.21,-77.79,4663,-6713,1460,-1,-1,-1
-151.74,34.22,-77.79,4661,-6716,1466,-1,0,-1
-151.74,34.21,-77.79,4658,-6723,1456,-1,0,0
-151.75,34.21,-77.79,4666,-6718,1465,-1,0,0
-151.75,34.21,-77.78,4668,-6715,1475,-1,-1,0
-151.75,34.21,-77.78,4671,-6712,1475,-1,-1,0
-151.75,34.21,-77.78,4672,-6709,1479,-1,-1,-1
-151.74,34.22,-77.78,4672,-6708,1478,-1,-1,0
-151.74,34.22,-77.78,4665,-6709,1477,-1,0,-1
-151.75,34.21,-77.78,4660,-6708,1468,0,0,-1
-151.75,34.21,-77.78,4659,-6709,1476,0,0,-1
-151.76,34.21,-77.77,4664,-6709,1474,0,0,0
-151.76,34.21,-77.77,4665,-6707,1472,0,0,0
-151.77,34.21,-77.75,4669,-6716,1480,0,0,-1
-151.77,34.21,-77.75,4664,-6714,1483,0,0,0
-151.77,34.21,-77.74,4666,-6712,1485,-1,-1,-1
-151.76,34.21,-77.74,4668,-6711,1484,-1,-1,-1
-151.76,34.21,-77.75,4669,-6713,1479,-1,-1,-1
-151.76,34.21,-77.75,4674,-6716,1473,-1,-1,-1
-151.76,34.21,-77.75,4671,-6716,1464,0,0,0
-151.76,34.21,-77.74,4671,-6711,1469,0,0,-1
-151.76,34.21,-77.74,4666,-6711,1467,0,0,-1
-151.77,34.21,-77.74,4664,-6712,1474,0,0,0
-151.77,34.21,-77.73,4668,-6713,1475,0,0,0
-151.78,34.21,-77.72,4666,-6716,1479,0,0,-1
-151.78,34.21,-77.72,4663,-6720,1477,0,0,-1
-151.79,34.20,-77.71,4661,-6719,1477,0,0,-1
-151.79,34.20,-77.70,4668,-6722,1477,0,0,0
-151.79,34.20,-77.70,4666,-6719,1483,-1,-1,-1
-151.78,34.21,-77.70,4672,-6718,1478,-1,0,-1
-151.78,34.21,-77.70,4667,-6722,1468,-1,0,-1
-151.78,34.21,-77.70,4670,-6712,1473,-1,0,-1
-151.79,34.21,-77.70,4670,-6708,1475,-1,0,-1
-151.79,34.21,-77.70,4669,-6705,1465,0,0,-1
-151.79,34.21,-77.69,4679,-6705,1468,0,0,-1
-151.78,34.22,-77.69,4677,-6703,1474,0,0,0
-151.79,34.21,-77.69,4667,-6710,1470,0,0,-1
-151.78,34.22,-77.69,4669,-6705,1475,0,0,0
-151.78,34.22,-77.68,4669,-6709,1476,0,0,-1
-151.79,34.22,-77.67,4675,-6706,1480,0,-1,-1
-151.78,34.22,-77.67,4677,-6705,1490,0,0,-1
-151.78,34.22,-77.66,4682,-6698,1490,0,-1,0
-151.78,34.23,-77.66,4680,-6700,1487,0,0,0
-151.80,34.22,-77.65,4675,-6706,1477,0,0,0
-151.80,34.22,-77.64,4668,-6712,1476,0,0,0
-151.81,34.22,-77.63,4670,-6713,1482,0,0,-1
-151.81,34.22,-77.61,4665,-6712,1492,0,0,-1
-151.81,34.22,-77.61,4669,-6714,1498,0,0,-1
-151.81,34.22,-77.60,4671,-6714,1505,-1,-1,-1
-151.81,34.22,-77.60,4677,-6716,1504,-1,-1,-1
-151.81,34.22,-77.60,4666,-6713,1493,-1,0,-1
-151.82,34.22,-77.59,4670,-6710,1501,0,0,0
-151.81,34.22,-77.58,4672,-6704,1500,0,0,0
-151.83,34.22,-77.57,4673,-6713,1499,0,0,0
-151.83,34.22,-77.57,4675,-6720,1499,0,0,-1
-151.83,34.22,-77.56,4670,-6718,1504,0,0,-1
-151.83,34.22,-77.56,4671,-6716,1495,-1,-1,-1
-151.83,34.22,-77.56,4676,-6713,1490,-1,0,-1
-151.84,34.21,-77.55,4671,-6708,1490,0,0,-1
-151.84,34.22,-77.55,4666,-6707,1493,0,0,-1
-151.85,34.21,-77.54,4671,-6707,1497,0,0,0
-151.85,34.21,-77.53,4668,-6707,1492,0,0,0
-151.86,34.21,-77.51,4673,-6704,1509,0,0,0
-151.86,34.21,-77.50,4670,-6707,1507,0,0,-1
-151.86,34.21,-77.50,4674,-6708,1513,-1,-1,-1
-151.85,34.22,-77.51,4674,-6709,1505,-1,-1,-1
-151.85,34.22,-77.51,4673,-6711,1489,-1,-1,-1
-151.84,34.22,-77.53,4679,-6713,1492,-1,-1,-1
-151.85,34.22,-77.52,4673,-6712,1485,0,0,0
-151.85,34.22,-77.51,4675,-6713,1493,0,0,0
-151.86,34.22,-77.50,4676,-6706,1505,0,0,0
-151.86,34.22,-77.49,4674,-6702,1508,0,0,0
-151.87,34.22,-77.48,4671,-6710,1500,0,0,0
-151.87,34.22,-77.47,4672,-6712,1502,0,0,0
-151.87,34.22,-77.47,4671,-6708,1508,0,0,-1
-151.87,34.22,-77.46,4666,-6708,1507,0,0,-1
-151.87,34.22,-77.46,4665,-6702,1506,0,0,-1
-151.87,34.22,-77.46,4664,-6709,1505,0,0,-1
-151.87,34.22,-77.45,4668,-6709,1508,-1,-1,-1
-151.87,34.22,-77.45,4674,-6710,1518,-1,-1,-1
-151.87,34.22,-77.45,4669,-6705,1519,-1,-1,-1
-151.88,34.22,-77.44,4665,-6698,1517,0,0,-1
-151.88,34.22,-77.44,4660,-6698,1511,0,0,-1
-151.89,34.22,-77.43,4666,-6701,1508,0,0,0
-151.90,34.22,-77.42,4663,-6705,1505,0,0,0
-151.90,34.22,-77.40,4667,-6699,1514,0,0,0
-151.90,34.21,-77.40,4662,-6705,1512,0,-1,-1
-151.91,34.22,-77.39,4667,-6701,1516,-1,-1,0
-151.90,34.21,-77.40,4667,-6715,1517,-1,0,-1
-151.90,34.22,-77.39,4668,-6714,1511,-1,-1,-1
-151.90,34.23,-77.39,4680,-6703,1513,0,0,-1
-151.90,34.23,-77.39,4682,-6700,1524,0,0,0
-151.90,34.23,-77.38,4678,-6704,1529,0,0,0
-151.92,34.22,-77.36,4679,-6702,1517,0,0,0
-151.92,34.22,-77.35,4677,-6697,1528,0,0,0
-151.94,34.21,-77.33,4665,-6694,1534,0,0,0
-151.95,34.21,-77.33,4664,-6704,1520,0,-1,0
-151.95,34.21,-77.33,4673,-6712,1533,-1,-1,-1
-151.95,34.21,-77.33,4676,-6711,1532,-1,-1,-1
-151.93,34.21,-77.35,4672,-6711,1527,-1,-1,-1
-151.93,34.21,-77.36,4671,-6709,1523,-1,-1,0
-151.92,34.22,-77.38,4671,-6696,1523,-1,-1,0
-151.92,34.21,-77.38,4661,-6696,1516,-1,-1,0
-151.93,34.21,-77.38,4656,-6700,1525,-1,-1,0
-151.93,34.21,-77.38,4659,-6695,1522,-1,-1,0
-151.92,34.20,-77.39,4663,-6701,1525,-1,-1,0
-151.92,34.21,-77.40,4660,-6703,1516,-1,-1,-1
-151.91,34.21,-77.41,4665,-6704,1505,-1,-1,-1
-151.91,34.21,-77.42,4663,-6707,1505,-1,-1,-1
-151.90,34.21,-77.42,4665,-6705,1500,-1,0,0
-151.90,34.21,-77.42,4670,-6710,1498,0,0,0
-151.90,34.21,-77.42,4672,-6709,1504,-1,0,0
-151.91,34.20,-77.42,4664,-6712,1504,-1,-1,0
-151.90,34.20,-77.43,4665,-6703,1502,-1,-1,-1
-151.89,34.21,-77.44,4672,-6705,1506,-1,-1,-1
-151.88,34.21,-77.46,4666,-6704,1510,-1,-1,-1
-151.87,34.21,-77.48,4674,-6703,1498,-1,-1,0
-151.86,34.21,-77.49,4679,-6701,1497,-1,-1,0
-151.85,34.22,-77.50,4675,-6705,1493,-1,-1,0
-151.86,34.21,-77.50,4674,-6708,1503,-1,-1,0
-151.86,34.21,-77.51,4669,-6709,1498,-1,0,0
-151.86,34.21,-77.51,4670,-6712,1502,-1,0,0
-151.86,34.21,-77.52,4670,-6706,1499,-1,-1,0
-151.85,34.21,-77.52,4673,-6707,1501,-1,-1,0
-151.85,34.21,-77.53,4673,-6701,1497,-1,-1,0
-151.85,34.21,-77.54,4670,-6702,1508,-1,-1,0
-151.85,34.21,-77.54,4673,-6707,1505,-1,-1,-1
-151.84,34.21,-77.54,4676,-6709,1505,-1,-1,-1
-151.83,34.21,-77.56,4671,-6702,1498,-1,-1,-1
-151.82,34.22,-77.57,4673,-6702,1505,-1,-1,0
-151.81,34.22,-77.59,4678,-6699,1501,-1,-1,0
-151.80,34.22,-77.62,4675,-6702,1490,-1,-1,0
-151.79,34.22,-77.63,4675,-6698,1484,-1,-1,0
-151.79,34.22,-77.63,4673,-6698,1481,-1,0,0
-151.79,34.22,-77.63,4672,-6706,1481,-1,0,0
-151.79,34.21,-77.64,4669,-6702,1482,-1,-1,0
-151.79,34.21,-77.64,4668,-6705,1482,-1,-1,0
-151.77,34.22,-77.66,4668,-6714,1492,-1,-1,0
-151.77,34.21,-77.67,4663,-6716,1489,-1,-1,0
-151.76,34.21,-77.70,4670,-6711,1479,-1,-1,-1
-151.75,34.22,-77.71,4671,-6714,1471,-1,-1,-1
-151.75,34.22,-77.72,4673,-6711,1482,-1,-1,-1
-151.74,34.22,-77.73,4674,-6709,1481,-1,-1,0
-151.74,34.22,-77.74,4666,-6708,1476,-1,-1,0
-151.73,34.21,-77.75,4667,-6713,1470,-1,0,0
-151.73,34.21,-77.76,4661,-6719,1473,-1,0,0
-151.74,34.20,-77.76,4657,-6721,1474,-1,-1,0
-151.74,34.20,-77.76,4662,-6717,1489,-1,-1,-1
-151.73,34.20,-77.77,4667,-6714,1486,-1,-1,-1
-151.72,34.21,-77.78,4662,-6716,1487,-1,-1,-1
-151.71,34.21,-77.79,4669,-6710,1482,-1,-1,-1
-151.70,34.21,-77.82,4666,-6711,1473,-1,-1,0
-151.69,34.21,-77.82,4670,-6707,1463,-1,-1,0
-151.69,34.21,-77.83,4669,-6713,1460,-1,-1,0
-151.69,34.21,-77.83,4675,-6712,1452,-1,0,0
-151.70,34.21,-77.83,4673,-6715,1453,0,0,0
-151.70,34.21,-77.83,4672,-6713,1461,-1,-1,0
-151.70,34.21,-77.83,4667,-6716,1466,-1,-1,-1
-151.70,34.21,-77.83,4668,-6720,1465,-1,-1,-1
-151.70,34.21,-77.83,4674,-6718,1465,0,0,0
-151.70,34.20,-77.82,4672,-6719,1475,0,0,0
-151.71,34.20,-77.82,4673,-6720,1473,0,0,0
-151.72,34.20,-77.80,4667,-6719,1472,0,0,0
-151.72,34.20,-77.80,4667,-6726,1475,0,0,0
-151.73,34.20,-77.79,4661,-6721,1468,0,0,-1
-151.73,34.20,-77.78,4661,-6721,1476,0,-1,0
-151.73,34.20,-77.78,4670,-6717,1474,-1,-1,-1
-151.73,34.20,-77.79,4671,-6714,1466,-1,-1,-1
-151.73,34.20,-77.79,4672,-6714,1451,0,-1,0
-151.73,34.20,-77.78,4671,-6712,1460,0,0,0
-151.73,34.19,-77.78,4676,-6709,1461,0,0,0
-151.74,34.20,-77.77,4680,-6708,1473,0,0,0
-151.75,34.19,-77.75,4679,-6707,1475,0,0,0
-151.75,34.19,-77.74,4669,-6709,1473,0,0,0
-151.76,34.19,-77.73,4669,-6711,1476,0,0,0
-151.76,34.19,-77.73,4666,-6717,1476,0,0,0
-151.77,34.18,-77.71,4665,-6723,1469,0,0,-1
-151.78,34.19,-77.70,4671,-6718,1472,0,0,-1
-151.78,34.19,-77.70,4664,-6712,1473,0,-1,-1
-151.78,34.19,-77.70,4661,-6713,1471,0,0,-1
-151.78,34.19,-77.70,4658,-6717,1457,0,0,-1
-151.78,34.19,-77.69,4661,-6716,1466,0,0,-1
-151.79,34.18,-77.69,4659,-6716,1472,0,0,-1
-151.79,34.19,-77.68,4659,-6717,1477,0,0,0
-151.80,34.18,-77.66,4665,-6722,1478,0,0,0
-151.80,34.18,-77.65,4669,-6722,1471,0,0,0
-151.81,34.18,-77.64,4670,-6717,1479,0,0,0
-151.82,34.18,-77.63,4672,-6719,1483,0,0,0
-151.82,34.17,-77.62,4667,-6722,1481,0,0,-1
-151.83,34.18,-77.62,4671,-6714,1480,0,-1,-1
-151.81,34.19,-77.62,4671,-6708,1474,0,-1,-1
-151.82,34.19,-77.61,4671,-6709,1478,0,0,-1
-151.83,34.18,-77.60,4666,-6711,1474,0,0,0
-151.83,34.18,-77.60,4666,-6713,1464,0,0,0
-151.84,34.18,-77.59,4668,-6715,1479,0,0,0
-151.85,34.17,-77.57,4667,-6713,1488,0,0,0
-151.86,34.17,-77.56,4661,-6720,1478,0,0,-1
-151.87,34.17,-77.54,4660,-6721,1491,0,0,-1
-151.87,34.17,-77.54,4657,-6722,1489,0,-1,-1
-151.86,34.17,-77.55,4665,-6723,1488,0,-1,-1
-151.86,34.18,-77.54,4671,-6721,1478,0,0,-1
-151.86,34.17,-77.54,4672,-6719,1476,0,0,0
-151.87,34.17,-77.53,4673,-6711,1484,0,0,0
-151.88,34.17,-77.52,4668,-6717,1493,0,0,0
-151.89,34.17,-77.50,4671,-6718,1495,0,0,0
-151.89,34.17,-77.50,4664,-6719,1494,0,0,0
-151.89,34.17,-77.49,4666,-6717,1494,0,0,0
-151.90,34.16,-77.49,4664,-6717,1494,0,0,0
-151.91,34.16,-77.48,4666,-6713,1497,0,0,0
-151.91,34.16,-77.47,4658,-6710,1479,0,0,0
-151.92,34.16,-77.45,4655,-6718,1478,0,0,0
-151.93,34.15,-77.43,4656,-6720,1488,0,0,0
-151.95,34.15,-77.42,4662,-6722,1494,0,0,0
-151.95,34.15,-77.40,4662,-6716,1501,0,0,-1
-151.96,34.15,-77.40,4665,-6717,1508,0,-1,-1
-151.96,34.15,-77.40,4664,-6716,1500,0,-1,-1
-151.96,34.15,-77.40,4663,-6709,1497,0,-1,-1
-151.96,34.15,-77.39,4666,-6708,1506,0,-1,0
-151.96,34.15,-77.39,4667,-6709,1500,0,-1,0
-151.96,34.15,-77.39,4669,-6710,1500,0,0,0
-151.96,34.16,-77.38,4667,-6711,1496,0,0,-1
-151.98,34.15,-77.37,4662,-6707,1505,0,0,0
-151.98,34.15,-77.35,4660,-6710,1510,0,0,-1
-151.98,34.15,-77.35,4663,-6718,1502,0,0,0
-152.00,34.14,-77.34,4665,-6715,1503,0,0,-1
-152.00,34.15,-77.32,4662,-6714,1503,0,0,-1
-152.00,34.15,-77.31,4667,-6715,1509,0,0,-1
-152.00,34.15,-77.30,4673,-6718,1517,0,0,-1
-152.01,34.15,-77.30,4671,-6710,1509,0,0,-1
-152.00,34.16,-77.30,4672,-6707,1506,0,0,-1
-152.00,34.16,-77.28,4673,-6708,1510,0,0,-1
-152.01,34.16,-77.28,4674,-6704,1502,0,0,-1
-152.01,34.16,-77.27,4669,-6706,1511,0,0,-1
-152.01,34.16,-77.27,4662,-6718,1514,0,-1,-1
-152.01,34.16,-77.27,4655,-6717,1511,0,0,-1
-152.01,34.16,-77.26,4661,-6710,1506,0,0,-1
-152.01,34.16,-77.26,4666,-6705,1506,0,0,-1
-152.02,34.17,-77.24,4670,-6705,1515,0,0,-1
-152.02,34.17,-77.23,4666,-6710,1515,0,0,0
-152.03,34.16,-77.22,4668,-6707,1509,0,0,0
-152.04,34.16,-77.22,4664,-6707,1511,0,0,0
-152.05,34.15,-77.21,4660,-6714,1509,0,0,0
-152.05,34.15,-77.20,4654,-6713,1508,0,0,0
-152.05,34.15,-77.20,4653,-6709,1505,0,0,-1
-152.05,34.16,-77.20,4656,-6703,1513,0,-1,-1
-152.04,34.16,-77.20,4666,-6704,1520,0,-1,-1
-152.03,34.17,-77.20,4672,-6706,1498,0,-1,-1
-152.03,34.17,-77.20,4665,-6705,1501,0,0,-1
-152.03,34.17,-77.20,4666,-6704,1507,0,0,0
-152.05,34.17,-77.19,4667,-6704,1505,0,0,-1
-152.05,34.17,-77.18,4666,-6703,1514,0,0,0
-152.05,34.17,-77.18,4663,-6701,1514,0,0,-1
-152.05,34.17,-77.18,4663,-6700,1516,-1,-1,-1
-152.04,34.17,-77.18,4664,-6699,1515,-1,-1,-1
-152.04,34.17,-77.19,4666,-6704,1520,-1,-1,0
-152.04,34.17,-77.19,4663,-6703,1523,0,-1,-1
-152.05,34.17,-77.19,4662,-6704,1527,0,0,0
-152.05,34.17,-77.19,4659,-6699,1522,0,0,-1
-152.05,34.17,-77.18,4666,-6697,1522,0,0,-1
-152.04,34.17,-77.18,4663,-6695,1517,-1,-1,-1
-152.03,34.17,-77.19,4663,-6690,1520,-1,-1,-1
-152.03,34.17,-77.20,4662,-6692,1518,-1,-1,-1
-152.02,34.18,-77.22,4665,-6702,1512,-1,-1,0
-152.02,34.17,-77.23,4664,-6704,1500,-1,-1,0
-152.01,34.18,-77.24,4669,-6702,1497,-1,-1,0
-152.01,34.18,-77.24,4670,-6703,1496,0,-1,0
-152.01,34.18,-77.24,4668,-6710,1504,0,-1,0
-152.01,34.18,-77.24,4667,-6713,1508,-1,-1,-1
-152.01,34.17,-77.25,4657,-6711,1508,-1,-1,0
-152.01,34.17,-77.26,4657,-6716,1502,-1,-1,0
-152.01,34.17,-77.26,4659,-6713,1499,-1,-1,-1
-152.00,34.17,-77.27,4670,-6712,1497,-1,0,0
-152.00,34.17,-77.27,4663,-6708,1502,-1,-1,-1
-152.00,34.17,-77.27,4655,-6714,1505,-1,-1,-1
-151.99,34.17,-77.28,4657,-6713,1507,-1,-1,-1
-151.99,34.17,-77.29,4662,-6718,1500,-1,-1,-1
-151.99,34.17,-77.30,4666,-6713,1491,-1,-1,0
-151.97,34.18,-77.31,4666,-6713,1490,-1,-1,0
-151.98,34.17,-77.32,4666,-6716,1503,-1,-1,-1
-151.98,34.17,-77.32,4669,-6709,1496,-1,-1,0
-151.97,34.17,-77.34,4662,-6710,1492,-1,-1,0
-151.97,34.17,-77.34,4661,-6711,1501,-1,0,-1
-151.97,34.17,-77.34,4674,-6718,1502,-1,-1,-1
-151.97,34.17,-77.35,4673,-6713,1503,-1,-1,-1
-151.95,34.18,-77.35,4676,-6701,1501,-1,-1,0
-151.96,34.18,-77.35,4672,-6698,1494,-1,-1,0
-151.96,34.17,-77.36,4668,-6706,1486,-1,-1,0
-151.95,34.17,-77.37,4659,-6709,1493,-1,0,0
-151.97,34.16,-77.37,4653,-6714,1495,-1,0,0
-151.96,34.17,-77.37,4657,-6712,1489,-1,-1,0
-151.95,34.17,-77.39,4656,-6716,1479,-1,-1,-1
-151.94,34.17,-77.41,4664,-6712,1487,-1,-1,-1
-151.92,34.18,-77.44,4670,-6710,1479,-1,-1,-1
-151.91,34.18,-77.46,4673,-6705,1477,-1,-1,0
-151.90,34.18,-77.47,4673,-6704,1468,-1,-1,0
-151.90,34.18,-77.48,4680,-6710,1463,-1,-1,0
-151.89,34.17,-77.49,4677,-6716,1468,-1,0,0
-151.89,34.17,-77.50,4672,-6718,1473,-1,-1,0
-151.88,34.18,-77.51,4673,-6716,1479,-1,-1,0
-151.88,34.17,-77.52,4673,-6715,1478,-1,-1,0
-151.88,34.17,-77.54,4667,-6712,1472,-1,-1,0
-151.87,34.17,-77.56,4662,-6708,1470,-1,-1,0
-151.87,34.17,-77.56,4659,-6716,1462,-1,0,0
-151.87,34.17,-77.56,4668,-6715,1465,-1,0,0
-151.87,34.16,-77.57,4665,-6717,1464,-1,-1,0
-151.87,34.16,-77.58,4659,-6718,1463,-1,-1,0
-151.87,34.16,-77.58,4663,-6717,1468,-1,-1,0
-151.86,34.16,-77.60,4668,-6718,1474,-1,-1,0
-151.85,34.16,-77.61,4662,-6716,1484,-1,-1,-1
-151.84,34.17,-77.63,4662,-6712,1470,-1,-1,0
-151.82,34.17,-77.65,4667,-6718,1461,-1,-1,0
-151.82,34.17,-77.65,4668,-6715,1462,-1,-1,0
-151.82,34.17,-77.65,4663,-6718,1464,0,0,0
-151.84,34.16,-77.65,4660,-6723,1465,0,0,0
-151.84,34.16,-77.65,4667,-6720,1467,0,0,0
-151.84,34.16,-77.64,4667,-6725,1468,0,-1,-1
-151.84,34.16,-77.64,4662,-6715,1469,0,0,-1
-151.84,34.16,-77.64,4668,-6714,1461,0,0,-1
-151.85,34.16,-77.63,4675,-6717,1469,0,0,-1
-151.84,34.16,-77.63,4673,-6720,1463,0,0,-1
-151.85,34.16,-77.63,4670,-6720,1470,0,-1,-1
-151.85,34.16,-77.61,4668,-6721,1477,0,-1,-1
-151.85,34.16,-77.61,4667,-6719,1469,0,0,0
-151.85,34.16,-77.61,4664,-6719,1474,0,0,-1
-151.85,34.16,-77.61,4665,-6721,1467,0,0,-1
-151.85,34.16,-77.60,4665,-6717,1465,0,0,0
-151.85,34.16,-77.60,4670,-6719,1457,0,0,-1
-151.86,34.16,-77.59,4670,-6715,1465,0,0,-1
-151.87,34.16,-77.58,4670,-6711,1468,0,0,0
-151.87,34.16,-77.57,4668,-6707,1469,0,0,0
-151.88,34.15,-77.56,4663,-6717,1463,0,0,0
-151.87,34.16,-77.57,4662,-6719,1456,-1,-1,-1
-151.87,34.16,-77.57,4656,-6716,1468,0,-1,-1
-151.87,34.16,-77.57,4664,-6716,1475,0,0,-1
-151.87,34.16,-77.57,4658,-6717,1485,0,0,-1
-151.87,34.17,-77.56,4659,-6717,1465,0,0,-1
-151.87,34.17,-77.56,4667,-6719,1463,0,0,0
-151.88,34.16,-77.55,4667,-6721,1467,0,0,0
-151.89,34.16,-77.54,4661,-6720,1464,0,0,0
-151.90,34.15,-77.52,4658,-6719,1467,0,0,0
-151.91,34.15,-77.51,4651,-6719,1472,0,0,0
-151.92,34.15,-77.49,4654,-6722,1477,0,0,-1
-151.92,34.15,-77.48,4654,-6724,1481,0,-1,-1
-151.92,34.15,-77.48,4662,-6724,1483,-1,-1,-1
-151.91,34.16,-77.49,4667,-6717,1472,-1,-1,-1
-151.90,34.16,-77.49,4673,-6707,1475,0,0,-1
-151.90,34.16,-77.49,4674,-6710,1469,0,0,0
-151.91,34.16,-77.49,4668,-6711,1477,0,0,0
-151.91,34.16,-77.48,4670,-6716,1468,0,0,0
-151.92,34.16,-77.48,4662,-6719,1472,0,0,0
-151.92,34.16,-77.47,4664,-6719,1478,0,0,-1
-151.92,34.16,-77.47,4673,-6714,1480,0,0,-1
-151.92,34.16,-77.46,4670,-6714,1483,0,0,-1
-151.93,34.15,-77.46,4667,-6714,1481,0,0,-1
-151.93,34.16,-77.44,4665,-6712,1478,0,0,-1
-151.94,34.16,-77.43,4660,-6709,1482,0,0,-1
-151.95,34.16,-77.42,4664,-6713,1486,0,0,-1
-151.95,34.16,-77.40,4661,-6716,1493,0,0,0
-151.96,34.15,-77.40,4668,-6715,1490,0,0,-1
-151.95,34.16,-77.40,4672,-6712,1492,0,0,-1
-151.95,34.16,-77.40,4667,-6714,1488,-1,-1,-1
-151.94,34.16,-77.41,4669,-6719,1493,-1,-1,-1
-151.94,34.16,-77.41,4663,-6717,1488,0,0,-1
-151.94,34.16,-77.41,4669,-6712,1485,0,0,-1
-151.95,34.17,-77.40,4666,-6710,1479,0,0,0
-151.96,34.16,-77.39,4669,-6713,1490,0,0,0
-151.96,34.16,-77.38,4662,-6717,1492,0,0,0
-151.97,34.16,-77.37,4666,-6715,1490,0,0,0
-151.97,34.16,-77.36,4669,-6713,1493,0,0,0
-151.98,34.16,-77.35,4669,-6709,1485,0,0,-1
-151.98,34.15,-77.34,4664,-6714,1482,0,0,-1
-151.99,34.16,-77.34,4662,-6710,1491,0,0,-1
-151.99,34.16,-77.34,4657,-6710,1492,0,-1,-1
-151.97,34.17,-77.34,4659,-6709,1489,0,-1,-1
-151.97,34.17,-77.34,4665,-6715,1491,0,-1,-1
-151.98,34.17,-77.33,4668,-6715,1501,0,-1,-1
-151.98,34.17,-77.33,4666,-6714,1492,0,0,-1
-151.98,34.17,-77.33,4666,-6709,1495,0,0,-1
-151.98,34.17,-77.32,4665,-6712,1496,0,0,0
-151.99,34.17,-77.31,4659,-6712,1486,0,0,0
-152.00,34.16,-77.30,4663,-6713,1506,0,0,0
-152.00,34.16,-77.29,4667,-6715,1505,0,-1,0
-152.00,34.16,-77.29,4657,-6711,1492,0,-1,0
-152.00,34.16,-77.29,4659,-6711,1489,0,0,-1
-152.00,34.16,-77.29,4656,-6710,1494,0,-1,-1
-152.00,34.17,-77.28,4663,-6708,1493,0,0,-1
-152.00,34.17,-77.28,4671,-6709,1496,0,0,-1
-152.00,34.17,-77.28,4667,-6708,1492,0,0,0
-152.02,34.16,-77.26,4663,-6709,1494,0,0,0
-152.03,34.16,-77.25,4661,-6708,1499,0,0,0
-152.04,34.16,-77.23,4658,-6713,1498,0,0,0
-152.05,34.16,-77.21,4663,-6714,1504,0,0,-1
-152.05,34.16,-77.20,4662,-6709,1504,0,0,-1
-152.05,34.16,-77.20,4662,-6708,1511,0,-1,-1
-152.05,34.17,-77.20,4665,-6710,1509,0,-1,-1
-152.05,34.17,-77.19,4661,-6706,1511,0,-1,-1
-152.05,34.17,-77.19,4666,-6704,1515,0,0,0
-152.06,34.17,-77.18,4669,-6705,1517,0,0,0
-152.07,34.16,-77.16,4673,-6707,1509,0,0,0
-152.08,34.16,-77.15,4669,-6706,1514,0,0,0
-152.08,34.16,-77.14,4667,-6709,1511,0,0,-1
-152.08,34.16,-77.14,4664,-6712,1512,0,0,-1
-152.08,34.16,-77.14,4665,-6720,1514,0,0,-1
-152.09,34.16,-77.12,4665,-6717,1519,0,0,-1
-152.10,34.16,-77.11,4665,-6707,1514,0,0,-1
-152.10,34.16,-77.10,4668,-6702,1519,0,0,0
-152.11,34.16,-77.08,4663,-6698,1519,0,0,0
-152.12,34.16,-77.07,4662,-6702,1522,0,0,0
-152.12,34.16,-77.06,4665,-6701,1529,0,-1,-1
-152.12,34.16,-77.06,4662,-6703,1534,-1,-1,-1
-152.12,34.16,-77.07,4667,-6701,1529,-1,-1,-1
-152.11,34.16,-77.10,4665,-6709,1518,-1,-1,0
-152.10,34.16,-77.11,4661,-6705,1519,-1,-1,0
-152.10,34.16,-77.12,4659,-6707,1520,-1,-1,0
-152.10,34.15,-77.12,4658,-6698,1527,-1,-1,0
-152.10,34.15,-77.11,4664,-6696,1525,-1,0,0
-152.10,34.16,-77.12,4668,-6703,1519,-1,0,0
-152.10,34.15,-77.12,4666,-6707,1515,-1,0,0
-152.09,34.16,-77.14,4663,-6707,1513,-1,-1,0
-152.09,34.16,-77.14,4658,-6706,1516,-1,-1,-1
-152.09,34.15,-77.14,4660,-6710,1515,-1,-1,0
-152.09,34.15,-77.16,4663,-6705,1506,-1,0,-1
-152.09,34.15,-77.16,4664,-6709,1517,-1,-1,-1
-152.08,34.15,-77.17,4667,-6707,1520,-1,-1,0
-152.08,34.15,-77.18,4664,-6703,1521,-1,-1,0
-152.07,34.15,-77.19,4659,-6707,1509,-1,-1,0
-152.07,34.15,-77.20,4663,-6705,1507,-1,-1,0
-152.06,34.15,-77.21,4665,-6701,1509,-1,-1,0
-152.05,34.15,-77.23,4671,-6704,1498,-1,-1,0
-152.05,34.15,-77.24,4667,-6710,1496,-1,-1,0
-152.04,34.15,-77.26,4665,-6710,1500,-1,0,0
-152.04,34.15,-77.26,4662,-6708,1501,-1,-1,-1
-152.04,34.15,-77.26,4667,-6713,1505,-1,-1,-1
-152.04,34.15,-77.27,4668,-6708,1504,0,0,0
-152.04,34.14,-77.27,4662,-6711,1506,-1,-1,0
-152.04,34.14,-77.27,4659,-6713,1511,-1,0,0
-152.05,34.13,-77.28,4651,-6716,1518,-1,-1,0
-152.05,34.13,-77.29,4649,-6716,1516,-1,-1,0
-152.04,34.13,-77.29,4650,-6719,1513,-1,-1,-1
-152.03,34.13,-77.30,4656,-6717,1514,-1,-1,-1
-152.02,34.14,-77.32,4657,-6713,1510,-1,-1,-1
-152.01,34.14,-77.34,4663,-6709,1501,-1,-1,-1
-152.00,34.14,-77.35,4666,-6711,1500,-1,-1,0
-152.00,34.14,-77.36,4669,-6709,1489,-1,0,0
-152.00,34.13,-77.37,4667,-6710,1495,-1,0,0
-152.00,34.13,-77.38,4663,-6708,1491,-1,-1,0
-151.99,34.13,-77.39,4663,-6707,1490,-1,-1,0
-151.99,34.13,-77.41,4663,-6717,1494,-1,-1,0
-151.98,34.13,-77.42,4662,-6713,1489,-1,-1,0
-151.97,34.13,-77.45,4658,-6721,1476,-1,-1,0
-151.96,34.13,-77.47,4660,-6724,1471,-1,-1,0
-151.95,34.13,-77.48,4662,-6728,1477,-1,0,0
-151.95,34.13,-77.48,4664,-6721,1477,-1,0,0
-151.95,34.13,-77.49,4671,-6720,1466,-1,-1,0
-151.94,34.13,-77.50,4669,-6713,1465,-1,-1,-1
-151.93,34.13,-77.51,4661,-6715,1479,-1,-1,-1
-151.93,34.13,-77.53,4666,-6710,1479,-1,-1,-1
-151.92,34.14,-77.54,4670,-6715,1480,-1,-1,0
-151.91,34.14,-77.56,4668,-6710,1478,-1,-1,0
-151.90,34.14,-77.57,4668,-6711,1473,-1,-1,0
-151.90,34.14,-77.57,4666,-6719,1464,-1,0,0
-151.90,34.13,-77.58,4664,-6724,1457,-1,0,0
-151.89,34.14,-77.58,4668,-6721,1460,-1,-1,0
-151.89,34.14,-77.58,4664,-6719,1459,-1,-1,0
-151.89,34.14,-77.59,4666,-6722,1460,-1,-1,0
-151.89,34.14,-77.59,4665,-6723,1458,-1,-1,-1
-151.89,34.13,-77.60,4672,-6726,1463,-1,0,-1
-151.89,34.14,-77.60,4671,-6727,1462,0,0,-1
-151.89,34.14,-77.60,4662,-6727,1464,-1,-1,-1
-151.89,34.14,-77.60,4662,-6731,1470,-1,-1,0
-151.89,34.14,-77.60,4661,-6728,1468,-1,-1,-1
-151.88,34.14,-77.61,4661,-6726,1458,0,0,-1
-151.88,34.14,-77.62,4657,-6725,1449,0,0,-1
-151.88,34.14,-77.62,4657,-6723,1461,0,-1,-1
-151.88,34.14,-77.62,4661,-6724,1451,0,0,0
-151.88,34.14,-77.62,4662,-6719,1451,0,0,-1
-151.88,34.14,-77.62,4662,-6723,1452,0,0,-1
-151.88,34.14,-77.61,4665,-6723,1450,0,0,-1
-151.88,34.14,-77.61,4666,-6722,1450,0,0,-1
-151.88,34.14,-77.60,4666,-6720,1460,0,0,0
-151.90,34.14,-77.59,4665,-6720,1468,0,0,0
-151.90,34.13,-77.58,4656,-6717,1462,0,0,0
-151.90,34.14,-77.58,4663,-6718,1461,0,0,0
-151.91,34.13,-77.57,4664,-6723,1460,0,0,-1
-151.91,34.13,-77.56,4664,-6729,1469,0,0,-1
-151.91,34.13,-77.56,4662,-6733,1479,-1,-1,-1
-151.90,34.14,-77.57,4669,-6735,1470,-1,-1,-1
-151.90,34.14,-77.58,4668,-6725,1475,-1,-1,0
-151.90,34.14,-77.58,4669,-6717,1468,0,0,0
-151.90,34.14,-77.56,4670,-6715,1461,0,0,0
-151.90,34.14,-77.56,4671,-6719,1464,0,0,0
-151.91,34.14,-77.55,4663,-6718,1467,0,0,0
-151.91,34.14,-77.55,4658,-6719,1474,0,-1,-1
-151.92,34.13,-77.54,4654,-6722,1470,0,-1,-1
-151.92,34.13,-77.54,4659,-6722,1474,0,0,0
-151.92,34.13,-77.54,4658,-6722,1460,0,0,-1
-151.92,34.14,-77.54,4664,-6716,1458,0,0,0
-151.92,34.14,-77.54,4658,-6717,1459,0,0,0
-151.93,34.13,-77.53,4661,-6718,1469,0,0,-1
-151.93,34.13,-77.52,4662,-6714,1473,0,0,-1
-151.94,34.13,-77.51,4661,-6712,1466,0,0,-1
-151.94,34.13,-77.51,4659,-6714,1469,0,0,-1
-151.93,34.14,-77.51,4667,-6723,1474,-1,-1,-1
-151.93,34.14,-77.51,4657,-6727,1478,0,-1,-1
-151.93,34.14,-77.51,4666,-6719,1472,0,0,0
-151.93,34.14,-77.51,4667,-6715,1464,0,0,0
-151.94,34.14,-77.50,4661,-6721,1473,0,0,0
-151.95,34.13,-77.49,4657,-6718,1468,0,0,-1
-151.96,34.13,-77.47,4656,-6719,1482,0,0,-1
-151.96,34.13,-77.46,4656,-6718,1485,0,0,-1
-151.96,34.13,-77.46,4663,-6723,1487,0,0,-1
-151.96,34.14,-77.45,4663,-6723,1484,0,0,-1
-151.96,34.14,-77.44,4664,-6718,1484,0,0,-1
-151.97,34.13,-77.43,4667,-6722,1483,0,0,-1
-151.97,34.14,-77.42,4662,-6719,1480,0,0,-1
-151.98,34.14,-77.42,4662,-6711,1482,0,-1,-1
-151.98,34.14,-77.42,4660,-6714,1488,0,-1,-1
-151.98,34.14,-77.42,4662,-6714,1482,0,0,-1
-151.98,34.14,-77.42,4664,-6716,1479,0,0,-1
-151.98,34.14,-77.41,4666,-6708,1484,0,0,0
-151.99,34.14,-77.39,4668,-6714,1482,0,0,0
-151.99,34.14,-77.38,4671,-6714,1487,0,0,0
-151.99,34.14,-77.38,4658,-6712,1492,0,0,0
-152.00,34.14,-77.37,4654,-6720,1490,0,0,-1
-152.00,34.14,-77.37,4657,-6721,1488,0,0,-1
-152.00,34.15,-77.35,4664,-6719,1492,0,-1,-1
-152.00,34.15,-77.35,4677,-6716,1492,0,0,-1
-152.01,34.15,-77.34,4678,-6712,1490,0,0,0
-152.01,34.14,-77.34,4671,-6713,1489,0,0,0
-152.01,34.15,-77.33,4667,-6715,1483,0,0,0
-152.03,34.14,-77.31,4662,-6717,1488,0,0,0
-152.04,34.14,-77.30,4664,-6715,1489,0,0,-1
-152.05,34.14,-77.27,4662,-6715,1511,0,0,-1
-152.05,34.14,-77.27,4663,-6714,1522,0,-1,-1
-152.04,34.15,-77.27,4663,-6709,1515,-1,-1,-1
-152.03,34.15,-77.27,4662,-6700,1511,-1,-1,-1
-152.03,34.15,-77.27,4665,-6701,1497,0,0,0
-152.03,34.15,-77.27,4662,-6706,1494,0,0,0
-152.04,34.15,-77.26,4663,-6709,1498,0,0,0
-152.05,34.15,-77.25,4666,-6710,1501,0,0,0
-152.05,34.15,-77.25,4662,-6709,1501,0,-1,0
-152.05,34.15,-77.25,4666,-6711,1504,0,-1,-1
-152.05,34.15,-77.25,4663,-6712,1511,0,-1,-1
-152.06,34.14,-77.24,4659,-6715,1497,0,0,-1
-152.06,34.14,-77.24,4659,-6718,1499,0,0,0
-152.07,34.14,-77.23,4659,-6716,1491,0,0,0
-152.07,34.14,-77.22,4658,-6712,1488,0,0,0
-152.09,34.14,-77.21,4658,-6712,1497,0,0,0
-152.09,34.14,-77.19,4652,-6710,1508,0,0,-1
-152.09,34.14,-77.19,4660,-6716,1511,0,-1,-1
-152.08,34.14,-77.19,4658,-6712,1513,-1,-1,-1
-152.08,34.14,-77.20,4662,-6708,1509,-1,-1,-1
-152.07,34.15,-77.21,4663,-6710,1505,0,-1,0
-152.07,34.15,-77.21,4658,-6718,1497,0,0,0
-152.08,34.14,-77.21,4663,-6717,1502,0,0,-1
-152.09,34.14,-77.19,4667,-6714,1510,0,0,-1
-152.09,34.14,-77.18,4664,-6710,1517,0,0,-1
-152.09,34.14,-77.17,4667,-6707,1516,0,0,0
-152.10,34.14,-77.16,4661,-6703,1519,0,0,-1
-152.10,34.14,-77.16,4663,-6703,1509,0,0,-1
-152.11,34.14,-77.15,4665,-6710,1518,0,0,-1
-152.11,34.14,-77.15,4664,-6706,1517,0,0,-1
-152.12,34.14,-77.14,4666,-6708,1524,0,0,-1
-152.12,34.14,-77.14,4662,-6708,1535,-1,-1,-1
-152.11,34.14,-77.15,4663,-6716,1535,-1,-1,0
-152.10,34.14,-77.16,4666,-6720,1527,-1,-1,-1
-152.09,34.14,-77.17,4671,-6715,1518,-1,-1,0
-152.09,34.15,-77.18,4673,-6714,1522,-1,-1,0
-152.09,34.15,-77.19,4666,-6718,1519,-1,0,-1
-152.09,34.15,-77.19,4666,-6718,1519,-1,0,-1
-152.08,34.14,-77.21,4667,-6708,1517,-1,-1,0
-152.08,34.14,-77.21,4671,-6716,1512,-1,0,0
-152.08,34.14,-77.21,4668,-6715,1520,-1,-1,-1
-152.08,34.14,-77.22,4665,-6711,1513,-1,-1,0
-152.07,34.14,-77.24,4666,-6713,1514,-1,-1,-1
-152.06,34.14,-77.25,4665,-6708,1514,-1,-1,-1
-152.05,34.15,-77.27,4668,-6709,1507,-1,-1,-1
-152.03,34.16,-77.28,4668,-6694,1512,-1,-1,-1
-152.03,34.15,-77.29,4666,-6702,1516,-1,-1,0
-152.03,34.15,-77.29,4673,-6702,1507,-1,-1,0
-152.03,34.15,-77.30,4667,-6705,1500,-1,0,0
-152.03,34.14,-77.30,4659,-6704,1506,0,0,0
-152.03,34.14,-77.30,4661,-6705,1506,-1,0,0
-152.03,34.14,-77.30,4662,-6710,1512,-1,-1,-1
-152.03,34.14,-77.31,4666,-6706,1519,-1,-1,-1
-152.01,34.15,-77.32,4665,-6712,1519,-1,-1,-1
-152.01,34.15,-77.34,4664,-6711,1510,-1,-1,-1
-151.99,34.15,-77.36,4670,-6708,1502,-1,-1,-1
-151.98,34.15,-77.38,4663,-6708,1493,-1,-1,0
-151.98,34.15,-77.39,4665,-6709,1498,-1,-1,0
-151.98,34.15,-77.40,4665,-6708,1494,-1,-1,0
-151.97,34.15,-77.42,4662,-6709,1489,-1,-1,0
-151.97,34.14,-77.43,4662,-6709,1498,-1,-1,0
-151.97,34.14,-77.45,4657,-6707,1505,-1,-1,0
-151.96,34.15,-77.46,4655,-6712,1491,-1,0,0
-151.96,34.14,-77.46,4654,-6715,1492,-1,-1,0
-151.96,34.14,-77.47,4659,-6714,1493,-1,0,-1
-151.96,34.14,-77.47,4659,-6717,1487,-1,0,0
-151.96,34.13,-77.48,4659,-6713,1498,-1,0,0
-151.95,34.14,-77.48,4664,-6714,1496,-1,-1,0
-151.95,34.14,-77.50,4660,-6716,1497,-1,-1,0
-151.94,34.14,-77.52,4661,-6708,1499,-1,-1,-1
-151.93,34.14,-77.54,4671,-6707,1497,-1,-1,0
-151.91,34.14,-77.56,4663,-6708,1491,-1,-1,0
-151.90,34.14,-77.58,4662,-6708,1486,-1,-1,0
-151.90,34.14,-77.60,4665,-6712,1477,-1,-1,0
-151.89,34.13,-77.62,4666,-6715,1479,-1,-1,0
-151.89,34.13,-77.63,4660,-6713,1480,-1,-1,0
-151.89,34.13,-77.63,4666,-6719,1488,-1,-1,0
-151.89,34.13,-77.64,4666,-6720,1481,-1,-1,0
-151.88,34.13,-77.65,4664,-6715,1479,-1,-1,0
-151.88,34.12,-77.66,4664,-6712,1480,-1,-1,0
-151.88,34.12,-77.67,4670,-6717,1475,-1,-1,0
-151.87,34.12,-77.68,4666,-6719,1482,-1,-1,0
-151.86,34.13,-77.69,4659,-6724,1484,-1,-1,0
-151.86,34.13,-77.70,4667,-6720,1466,-1,-1,0
-151.85,34.13,-77.73,4665,-6722,1458,-1,-1,0
-151.84,34.13,-77.74,4667,-6719,1467,-1,-1,0
-151.84,34.12,-77.75,4662,-6714,1465,-1,-1,0
-151.84,34.12,-77.75,4657,-6721,1459,-1,-1,-1
-151.83,34.13,-77.76,4665,-6721,1454,-1,-1,-1
-151.83,34.13,-77.76,4662,-6722,1463,0,0,0
-151.84,34.12,-77.75,4666,-6730,1463,0,0,0
-151.84,34.12,-77.75,4662,-6723,1461,0,0,0
-151.84,34.12,-77.74,4662,-6721,1466,0,0,0
-151.84,34.12,-77.74,4664,-6715,1471,-1,-1,-1
-151.84,34.12,-77.74,4651,-6719,1473,-1,-1,-1
-151.84,34.12,-77.76,4657,-6723,1455,-1,-1,0
-151.83,34.13,-77.76,4664,-6716,1459,-1,-1,-1
-151.83,34.12,-77.77,4659,-6711,1459,-1,0,-1
-151.82,34.13,-77.77,4663,-6715,1462,-1,0,0
-151.84,34.12,-77.75,4669,-6714,1464,0,0,0
-151.84,34.12,-77.75,4665,-6709,1455,0,-1,0
-151.85,34.12,-77.74,4665,-6719,1460,0,0,0
-151.85,34.11,-77.74,4658,-6726,1458,0,0,0
-151.86,34.11,-77.73,4661,-6721,1462,0,0,-1
-151.87,34.11,-77.72,4657,-6722,1471,0,0,-1
-151.87,34.11,-77.72,4666,-6720,1473,-1,0,-1
-151.87,34.11,-77.72,4664,-6720,1475,-1,-1,-1
-151.86,34.12,-77.73,4666,-6719,1466,-1,-1,0
-151.86,34.12,-77.73,4663,-6716,1466,-1,-1,0
-151.86,34.12,-77.73,4660,-6715,1464,-1,0,0
-151.86,34.11,-77.73,4667,-6708,1469,0,-1,0
-151.86,34.11,-77.73,4661,-6716,1463,0,-1,0
-151.87,34.11,-77.73,4659,-6717,1458,0,-1,0
-151.87,34.11,-77.72,4659,-6713,1468,0,0,0
-151.87,34.11,-77.72,4656,-6712,1475,0,0,0
-151.88,34.10,-77.71,4652,-6714,1465,0,0,0
-151.88,34.10,-77.71,4652,-6714,1465,0,0,0
-151.90,34.10,-77.67,4652,-6720,1471,0,0,0
-151.90,34.10,-77.66,4655,-6714,1478,0,0,0
-151.91,34.10,-77.66,4657,-6716,1480,0,0,-1
-151.91,34.10,-77.65,4649,-6720,1478,-1,-1,-1
-151.90,34.10,-77.66,4653,-6722,1471,-1,-1,-1
-151.90,34.10,-77.67,4654,-6727,1481,-1,-1,-1
-151.90,34.10,-77.67,4657,-6719,1484,-1,-1,0
-151.90,34.10,-77.67,4657,-6715,1484,0,0,-1
-151.90,34.10,-77.67,4663,-6720,1478,0,-1,0
-151.90,34.10,-77.66,4660,-6716,1480,0,0,0
-151.92,34.09,-77.65,4657,-6709,1484,0,0,0
-151.92,34.09,-77.64,4663,-6719,1488,0,0,0
-151.93,34.09,-77.64,4661,-6725,1484,0,0,0
-151.93,34.09,-77.63,4660,-6724,1491,0,0,0
-151.93,34.09,-77.61,4665,-6722,1488,0,0,-1
-151.93,34.10,-77.61,4663,-6719,1485,0,0,-1
-151.93,34.10,-77.60,4659,-6711,1477,0,-1,-1
-151.93,34.10,-77.60,4655,-6718,1485,-1,-1,-1
-151.93,34.10,-77.60,4658,-6720,1478,-1,-1,-1
-151.93,34.10,-77.60,4661,-6720,1488,-1,0,-1
-151.93,34.10,-77.60,4658,-6718,1492,-1,0,-1
-151.93,34.10,-77.60,4662,-6714,1481,0,0,-1
-151.93,34.10,-77.59,4663,-6717,1487,0,0,-1
-151.94,34.10,-77.57,4659,-6713,1493,0,0,0
-151.95,34.10,-77.56,4655,-6717,1494,0,-1,-1
-151.95,34.10,-77.55,4657,-6720,1498,0,-1,0
-151.96,34.10,-77.55,4654,-6719,1490,0,0,-1
-151.96,34.10,-77.55,4655,-6720,1494,0,0,-1
-151.95,34.11,-77.54,4654,-6718,1494,0,-1,-1
-151.95,34.11,-77.54,4653,-6717,1491,0,0,-1
-151.95,34.11,-77.53,4659,-6717,1494,0,0,0
-151.96,34.10,-77.53,4654,-6716,1498,0,-1,0
-151.96,34.10,-77.53,4660,-6720,1487,0,0,0
-151.96,34.10,-77.53,4662,-6716,1485,0,0,0
-151.97,34.10,-77.52,4659,-6718,1490,0,0,0
-151.98,34.09,-77.51,4653,-6718,1496,0,-1,-1
-151.98,34.10,-77.50,4656,-6716,1498,0,-1,-1
-151.97,34.11,-77.50,4655,-6711,1505,0,-1,-1
-151.97,34.11,-77.50,4662,-6707,1503,-1,-1,-1
-151.97,34.11,-77.49,4673,-6708,1496,0,0,0
-151.98,34.11,-77.49,4673,-6716,1487,0,0,0
-151.98,34.11,-77.48,4665,-6716,1504,0,0,0
-151.99,34.10,-77.47,4654,-6715,1508,0,-1,0
-152.00,34.10,-77.47,4651,-6715,1507,0,-1,0
-152.00,34.10,-77.47,4656,-6711,1508,0,-1,-1
-152.00,34.10,-77.46,4657,-6716,1506,0,-1,-1
-151.99,34.11,-77.46,4664,-6718,1500,0,-1,-1
-152.00,34.10,-77.45,4661,-6722,1502,0,0,-1
-152.01,34.10,-77.44,4650,-6719,1499,0,0,0
-152.03,34.09,-77.43,4653,-6717,1506,0,0,0
-152.03,34.10,-77.41,4654,-6716,1509,0,0,0
-152.04,34.09,-77.40,4659,-6719,1514,0,0,0
-152.05,34.09,-77.39,4659,-6712,1518,0,-1,-1
-152.05,34.09,-77.38,4659,-6715,1523,-1,-1,-1
-152.05,34.09,-77.38,4659,-6712,1514,-1,-1,-1
-152.04,34.10,-77.39,4655,-6714,1512,0,-1,-1
-152.04,34.10,-77.38,4655,-6709,1516,0,-1,-1
-152.06,34.09,-77.37,4653,-6713,1526,0,-1,-1
-152.06,34.09,-77.37,4657,-6711,1521,0,-1,-1
-152.06,34.09,-77.36,4662,-6709,1527,0,0,0
-152.06,34.10,-77.35,4664,-6710,1523,0,0,-1
-152.06,34.10,-77.35,4656,-6709,1519,0,0,-1
-152.07,34.10,-77.34,4652,-6714,1520,0,0,-1
-152.07,34.09,-77.34,4655,-6710,1511,0,0,-1
-152.08,34.09,-77.32,4661,-6710,1524,0,-1,-1
-152.08,34.10,-77.32,4665,-6717,1527,-1,-1,0
-152.08,34.09,-77.33,4660,-6718,1531,-1,-1,0
-152.07,34.10,-77.33,4656,-6714,1520,-1,-1,-1
-152.07,34.10,-77.34,4654,-6714,1521,-1,-1,0
-152.07,34.10,-77.34,4661,-6716,1519,-1,-1,-1
-152.06,34.10,-77.35,4661,-6718,1518,-1,-1,0
-152.06,34.10,-77.35,4664,-6723,1516,-1,-1,0
-152.06,34.10,-77.36,4671,-6718,1517,-1,-1,0
-152.05,34.10,-77.36,4668,-6711,1512,-1,-1,0
-152.05,34.10,-77.37,4670,-6712,1521,-1,-1,-1
-152.04,34.11,-77.37,4668,-6714,1521,-1,-1,-1
-152.04,34.10,-77.38,4661,-6709,1516,-1,-1,-1
-152.03,34.11,-77.40,4665,-6709,1504,-1,-1,-1
-152.03,34.11,-77.40,4669,-6708,1501,-1,-1,0
-152.03,34.10,-77.41,4663,-6707,1511,-1,-1,0
-152.03,34.10,-77.41,4651,-6708,1509,-1,0,0
-152.02,34.10,-77.42,4650,-6709,1506,-1,-1,0
-152.02,34.10,-77.43,4644,-6714,1496,-1,0,-1
-152.02,34.10,-77.43,4652,-6714,1507,-1,-1,-1
-152.01,34.10,-77.44,4656,-6718,1510,-1,-1,-1
-152.00,34.11,-77.45,4662,-6719,1510,-1,-1,-1
-151.99,34.11,-77.46,4671,-6718,1504,-1,-1,-1
-151.98,34.11,-77.48,4668,-6714,1497,-1,-1,-1
-151.97,34.11,-77.50,4667,-6715,1494,-1,-1,0
-151.97,34.11,-77.50,4663,-6709,1492,-1,-1,0
-151.97,34.11,-77.51,4663,-6711,1501,-1,-1,0
-151.97,34.11,-77.51,4660,-6714,1502,-1,-1,0
-151.97,34.11,-77.52,4663,-6720,1504,-1,-1,0
-151.97,34.11,-77.53,4667,-6715,1508,-1,-1,-1
-151.96,34.11,-77.53,4669,-6716,1503,-1,-1,0
-151.96,34.11,-77.54,4669,-6717,1498,-1,-1,0
-151.96,34.11,-77.55,4665,-6718,1496,-1,-1,0
-151.96,34.11,-77.55,4662,-6719,1497,-1,-1,0
-151.96,34.11,-77.55,4663,-6716,1499,-1,-1,0
-151.95,34.10,-77.56,4661,-6715,1501,-1,-1,0
-151.95,34.11,-77.56,4666,-6717,1504,-1,-1,0
-151.94,34.11,-77.58,4657,-6719,1505,-1,-1,-1
-151.92,34.11,-77.61,4658,-6718,1491,-1,-1,0
-151.90,34.11,-77.64,4657,-6721,1479,-1,-1,0
-151.90,34.11,-77.65,4665,-6715,1480,-1,-1,0
-151.90,34.11,-77.66,4668,-6718,1477,-1,0,0
-151.90,34.11,-77.66,4665,-6724,1482,-1,-1,0
-151.89,34.11,-77.68,4665,-6722,1479,-1,-1,0
-151.89,34.10,-77.68,4665,-6717,1482,-1,-1,0
-151.89,34.10,-77.69,4659,-6717,1481,-1,-1,-1
-151.88,34.10,-77.70,4661,-6718,1484,-1,-1,0
-151.88,34.10,-77.71,4657,-6718,1486,-1,-1,0
-151.88,34.10,-77.72,4656,-6725,1477,-1,-1,0
-151.87,34.10,-77.73,4656,-6721,1473,-1,-1,-1
-151.86,34.10,-77.75,4656,-6721,1472,-1,-1,-1
-151.85,34.11,-77.76,4655,-6718,1471,-1,-1,-1
-151.84,34.10,-77.78,4651,-6717,1474,-1,-1,0
-151.84,34.10,-77.79,4660,-6720,1466,-1,-1,0
-151.84,34.10,-77.80,4657,-6720,1469,-1,-1,0
-151.84,34.10,-77.80,4653,-6720,1463,-1,-1,0
-151.84,34.10,-77.80,4661,-6723,1469,-1,-1,0
-151.84,34.10,-77.81,4660,-6726,1468,-1,-1,0
-151.83,34.10,-77.82,4658,-6724,1464,-1,-1,0
-151.83,34.10,-77.83,4653,-6726,1456,-1,-1,-1
-151.83,34.09,-77.84,4659,-6720,1460,-1,-1,-1
-151.82,34.10,-77.84,4663,-6714,1456,-1,-1,-1
-151.82,34.10,-77.84,4667,-6714,1462,-1,-1,0
-151.81,34.10,-77.85,4665,-6715,1455,-1,0,0
-151.82,34.10,-77.85,4657,-6718,1445,0,0,0
-151.83,34.09,-77.85,4651,-6723,1453,0,0,0
-151.83,34.09,-77.84,4650,-6727,1462,0,0,-1
-151.83,34.09,-77.83,4655,-6727,1465,-1,0,-1
-151.83,34.09,-77.83,4659,-6725,1462,-1,-1,-1
-151.82,34.10,-77.84,4661,-6718,1464,-1,-1,-1
-151.82,34.10,-77.84,4656,-6731,1469,-1,-1,-1
-151.82,34.10,-77.84,4656,-6722,1462,-1,-1,0
-151.82,34.10,-77.84,4667,-6716,1455,0,0,0
-151.82,34.10,-77.84,4671,-6719,1446,0,0,0
-151.83,34.09,-77.83,4659,-6711,1462,0,0,0
-151.83,34.09,-77.82,4654,-6711,1466,0,-1,0
-151.84,34.09,-77.82,4655,-6712,1465,-1,-1,0
-151.84,34.09,-77.82,4656,-6717,1456,-1,-1,0
-151.84,34.09,-77.82,4659,-6726,1465,0,-1,0
-151.84,34.08,-77.81,4651,-6724,1468,0,0,0
-151.85,34.09,-77.80,4655,-6732,1468,0,0,0
-151.86,34.08,-77.79,4658,-6733,1468,0,0,-1
-151.86,34.09,-77.78,4653,-6729,1482,0,0,0
-151.87,34.08,-77.77,4655,-6726,1483,0,0,0
-151.87,34.08,-77.76,4658,-6728,1479,0,0,-1
-151.87,34.09,-77.76,4655,-6724,1471,-1,-1,-1
-151.87,34.08,-77.77,4654,-6721,1470,-1,-1,-1
-151.86,34.09,-77.77,4658,-6725,1459,-1,-1,0
-151.87,34.08,-77.77,4654,-6727,1467,0,-1,0
-151.87,34.08,-77.77,4657,-6719,1474,0,-1,0
-151.87,34.09,-77.76,4652,-6718,1471,0,0,-1
-151.87,34.09,-77.75,4654,-6722,1478,0,0,-1
-151.88,34.08,-77.74,4652,-6725,1477,0,0,-1
-151.88,34.08,-77.73,4654,-6724,1480,0,0,0
-151.89,34.08,-77.73,4660,-6724,1464,0,0,0
-151.89,34.08,-77.72,4660,-6723,1473,0,0,-1
-151.89,34.08,-77.72,4655,-6727,1473,0,0,-1
-151.89,34.08,-77.71,4668,-6718,1475,0,0,-1
-151.90,34.09,-77.70,4667,-6722,1474,0,-1,-1
-151.90,34.09,-77.70,4664,-6727,1473,-1,-1,-1
-151.90,34.09,-77.70,4660,-6731,1487,-1,-1,-1
-151.90,34.08,-77.70,4656,-6729,1484,0,-1,-1
-151.90,34.08,-77.70,4650,-6732,1486,0,-1,-1
-151.90,34.08,-77.70,4656,-6730,1474,0,0,0
-151.91,34.08,-77.68,4664,-6721,1474,0,0,-1
-151.91,34.08,-77.67,4663,-6730,1477,0,0,0
-151.92,34.08,-77.66,4663,-6726,1485,0,-1,0
-151.93,34.08,-77.65,4657,-6722,1489,-1,-1,0
-151.93,34.08,-77.65,4653,-6725,1487,-1,-1,-1
-151.92,34.08,-77.65,4654,-6723,1487,-1,-1,-1
-151.91,34.09,-77.65,4665,-6722,1473,0,-1,-1
-151.91,34.09,-77.65,4663,-6719,1479,0,0,-1
-151.92,34.09,-77.65,4660,-6722,1478,0,-1,0
-151.92,34.08,-77.64,4661,-6718,1476,0,0,0
-151.93,34.08,-77.63,4650,-6719,1479,0,0,0
-151.94,34.08,-77.61,4657,-6726,1485,0,0,0
-151.95,34.08,-77.59,4659,-6728,1498,0,0,0
-151.96,34.08,-77.58,4655,-6718,1502,0,0,-1
-151.96,34.08,-77.57,4656,-6715,1499,0,-1,-1
-151.95,34.09,-77.57,4657,-6719,1496,-1,-1,-1
-151.95,34.09,-77.57,4661,-6719,1497,-1,-1,-1
-151.95,34.09,-77.57,4666,-6714,1478,0,-1,-1
-151.95,34.09,-77.57,4661,-6713,1477,0,0,0
-151.95,34.09,-77.56,4662,-6720,1483,0,0,0
-151.96,34.09,-77.55,4660,-6720,1493,0,0,0
-151.97,34.08,-77.54,4658,-6716,1502,0,-1,0
-151.97,34.08,-77.54,4659,-6718,1506,-1,-1,-1
-151.97,34.08,-77.54,4661,-6718,1500,0,-1,0
-151.97,34.09,-77.53,4661,-6719,1498,0,0,-1
-151.98,34.08,-77.52,4661,-6720,1491,0,0,-1
-151.98,34.08,-77.51,4653,-6716,1493,0,0,-1
-152.00,34.08,-77.49,4655,-6715,1498,0,0,0
-152.00,34.08,-77.48,4657,-6716,1510,0,0,0
-152.02,34.07,-77.47,4654,-6718,1511,0,-1,0
-152.03,34.07,-77.46,4654,-6715,1514,0,-1,-1
-152.03,34.07,-77.46,4655,-6708,1514,-1,-1,-1
-152.02,34.07,-77.47,4657,-6710,1513,-1,-1,-1
-152.01,34.08,-77.47,4658,-6708,1500,-1,-1,0
-152.01,34.08,-77.47,4663,-6708,1494,-1,-1,0
-152.01,34.08,-77.47,4666,-6709,1496,0,0,0
-152.02,34.08,-77.46,4657,-6711,1506,0,0,0
-152.02,34.08,-77.44,4653,-6713,1508,0,0,0
-152.03,34.08,-77.44,4654,-6717,1512,0,0,0
-152.04,34.07,-77.43,4653,-6715,1506,0,0,0
-152.04,34.07,-77.42,4651,-6715,1507,0,0,-1
-152.05,34.07,-77.41,4655,-6712,1511,0,0,-1
-152.05,34.07,-77.40,4650,-6706,1514,0,0,-1
-152.05,34.07,-77.39,4651,-6710,1513,0,0,-1
-152.06,34.07,-77.39,4656,-6708,1524,0,0,0
-152.06,34.07,-77.39,4655,-6713,1509,0,-1,-1
-152.06,34.07,-77.39,4647,-6711,1506,-1,-1,-1
-152.05,34.08,-77.39,4652,-6708,1510,0,-1,-1
-152.05,34.08,-77.39,4654,-6705,1510,0,-1,0
-152.05,34.08,-77.38,4662,-6706,1515,0,0,-1
-152.07,34.07,-77.37,4654,-6714,1514,0,0,0
-152.07,34.07,-77.36,4655,-6707,1514,0,0,0
-152.09,34.07,-77.34,4655,-6712,1519,0,0,0
-152.09,34.07,-77.34,4655,-6701,1515,0,-1,0
-152.09,34.07,-77.33,4652,-6703,1527,-1,-1,0
-152.09,34.07,-77.34,4653,-6712,1516,-1,-1,-1
-152.09,34.07,-77.34,4657,-6719,1515,-1,-1,-1
-152.08,34.07,-77.35,4664,-6710,1516,-1,-1,-1
-152.08,34.07,-77.35,4664,-6709,1522,-1,-1,0
-152.08,34.07,-77.35,4663,-6707,1517,-1,-1,0
-152.08,34.07,-77.36,4661,-6706,1510,0,0,0
-152.08,34.07,-77.35,4657,-6712,1518,-1,-1,0
-152.09,34.06,-77.35,4644,-6719,1511,-1,-1,0
-152.09,34.06,-77.36,4644,-6719,1514,-1,0,0
-152.09,34.06,-77.35,4650,-6717,1517,-1,-1,-1
-152.09,34.06,-77.37,4655,-6716,1526,-1,-1,-1
-152.08,34.06,-77.38,4654,-6711,1518,-1,-1,-1
-152.07,34.06,-77.39,4655,-6716,1524,-1,-1,0
-152.06,34.07,-77.40,4653,-6712,1519,-1,-1,0
-152.06,34.07,-77.41,4661,-6713,1512,-1,-1,0
-152.06,34.07,-77.41,4657,-6712,1514,-1,-1,0
-152.06,34.07,-77.42,4656,-6713,1518,-1,-1,0
-152.05,34.06,-77.42,4656,-6718,1505,-1,-1,0
-152.05,34.06,-77.43,4654,-6718,1510,-1,-1,0
-152.05,34.06,-77.44,4650,-6713,1503,-1,-1,0
-152.05,34.06,-77.45,4647,-6716,1500,-1,0,0
-152.04,34.06,-77.46,4657,-6716,1502,-1,0,-1
-152.04,34.06,-77.46,4653,-6717,1498,-1,0,0
-152.04,34.06,-77.46,4651,-6715,1499,-1,0,0
-152.04,34.06,-77.46,4649,-6710,1496,-1,0,0
-152.04,34.06,-77.46,4658,-6712,1507,-1,-1,-1
-152.04,34.06,-77.47,4653,-6716,1511,-1,-1,-1
-152.03,34.06,-77.48,4656,-6718,1514,-1,-1,0
-152.02,34.06,-77.50,4658,-6714,1515,-1,-1,0
-152.01,34.06,-77.52,4653,-6718,1505,-1,-1,0
-152.00,34.06,-77.54,4653,-6716,1488,-1,-1,0
-152.00,34.06,-77.54,4652,-6712,1496,-1,-1,0
-152.00,34.06,-77.55,4655,-6715,1495,-1,-1,0
-151.99,34.05,-77.57,4654,-6714,1487,-1,-1,0
-151.99,34.05,-77.57,4653,-6717,1502,-1,-1,0
-152.00,34.05,-77.57,4649,-6723,1501,-1,-1,0
-151.99,34.05,-77.58,4652,-6719,1493,-1,-1,0
-151.99,34.05,-77.59,4650,-6725,1494,-1,-1,0
-151.99,34.05,-77.59,4656,-6721,1497,-1,-1,0
-151.98,34.05,-77.60,4658,-6717,1506,-1,-1,0
-151.97,34.05,-77.61,4651,-6715,1508,-1,-1,0
-151.96,34.05,-77.63,4653,-6716,1495,-1,-1,-1
-151.95,34.05,-77.65,4654,-6714,1490,-1,-1,0
-151.94,34.05,-77.67,4662,-6717,1485,-1,-1,0
-151.95,34.05,-77.67,4654,-6719,1487,-1,-1,0
-151.94,34.05,-77.69,4659,-6724,1482,-1,-1,0
-151.93,34.05,-77.70,4659,-6720,1482,-1,-1,0
-151.93,34.05,-77.71,4656,-6724,1486,-1,-1,0
-151.93,34.04,-77.72,4649,-6725,1482,-1,-1,0
-151.92,34.05,-77.73,4649,-6722,1471,-1,-1,0
-151.91,34.05,-77.75,4661,-6726,1472,-1,-1,-1
-151.90,34.05,-77.75,4668,-6724,1470,-1,-1,0
-151.89,34.05,-77.76,4673,-6726,1470,-1,-1,0
-151.89,34.05,-77.78,4666,-6725,1476,-1,-1,0
-151.89,34.05,-77.79,4661,-6727,1470,-1,-1,0
-151.88,34.05,-77.80,4659,-6730,1472,-1,-1,0
-151.89,34.04,-77.81,4654,-6733,1480,-1,-1,-1
-151.89,34.04,-77.81,4643,-6738,1465,-1,-1,-1
-151.88,34.04,-77.82,4648,-6733,1472,-1,-1,-1
-151.87,34.04,-77.83,4652,-6728,1476,-1,-1,-1
-151.87,34.04,-77.83,4656,-6725,1466,-1,-1,-1
-151.86,34.05,-77.83,4656,-6720,1458,-1,0,0
-151.87,34.05,-77.83,4657,-6721,1457,0,0,0
-151.87,34.05,-77.82,4657,-6720,1464,0,-1,0
-151.87,34.05,-77.82,4653,-6724,1473,0,0,0
-151.87,34.05,-77.82,4653,-6726,1461,0,-1,0
-151.87,34.05,-77.82,4652,-6730,1458,0,-1,-1
-151.87,34.05,-77.82,4651,-6725,1459,0,-1,0
-151.88,34.05,-77.81,4659,-6724,1463,0,0,0
-151.88,34.05,-77.80,4654,-6731,1464,0,0,-1
-151.89,34.05,-77.79,4654,-6733,1457,0,0,0
-151.89,34.05,-77.78,4657,-6733,1458,0,0,0
-151.90,34.04,-77.77,4657,-6733,1468,0,0,-1
-151.90,34.05,-77.76,4654,-6728,1462,0,0,-1
-151.90,34.05,-77.75,4647,-6732,1463,0,-1,-1
-151.90,34.05,-77.75,4647,-6728,1465,0,-1,-1
-151.90,34.05,-77.75,4658,-6726,1471,-1,-1,0
-151.90,34.05,-77.76,4662,-6734,1467,0,0,-1
-151.90,34.05,-77.75,4652,-6734,1462,0,0,0
-151.91,34.05,-77.74,4647,-6735,1470,0,0,0
-151.92,34.04,-77.73,4649,-6734,1461,0,0,0
-151.92,34.05,-77.72,4654,-6730,1460,0,0,-1
-151.93,34.04,-77.70,4654,-6726,1469,0,0,0
-151.93,34.04,-77.70,4651,-6727,1467,0,0,-1
-151.93,34.04,-77.70,4653,-6733,1468,0,0,-1
-151.94,34.05,-77.69,4653,-6733,1477,0,0,-1
-151.94,34.05,-77.67,4653,-6724,1480,0,0,-1
-151.94,34.05,-77.67,4656,-6727,1475,0,0,-1
-151.94,34.05,-77.66,4655,-6729,1475,0,0,-1
-151.94,34.06,-77.66,4656,-6731,1475,0,-1,-1
-151.94,34.06,-77.66,4659,-6727,1478,-1,-1,-1
-151.94,34.06,-77.66,4655,-6733,1472,-1,-1,-1
-151.94,34.06,-77.66,4646,-6728,1467,0,0,-1
-151.94,34.06,-77.66,4648,-6726,1458,0,0,-1
-151.93,34.07,-77.65,4655,-6723,1458,0,0,-1
-151.94,34.06,-77.64,4657,-6721,1471,0,0,0
-151.95,34.06,-77.63,4658,-6716,1460,0,0,0
-151.96,34.06,-77.62,4653,-6723,1469,0,0,0
-151.97,34.06,-77.60,4655,-6724,1473,0,0,0
-151.98,34.06,-77.58,4650,-6733,1490,0,0,-1
-151.99,34.05,-77.57,4646,-6734,1493,0,0,-1
-151.99,34.05,-77.57,4645,-6729,1495,0,-1,-1
-151.98,34.06,-77.56,4656,-6722,1497,-1,-1,-1
-151.98,34.06,-77.56,4655,-6722,1487,-1,-1,-1
-151.96,34.07,-77.56,4667,-6723,1482,-1,-1,-1
-151.96,34.07,-77.56,4666,-6723,1481,0,0,0
-151.97,34.07,-77.55,4668,-6725,1478,0,0,0
-151.97,34.07,-77.54,4661,-6724,1481,0,0,0
-151.99,34.07,-77.53,4657,-6723,1482,0,0,0
-151.99,34.07,-77.52,4652,-6723,1494,0,0,-1
-151.99,34.07,-77.51,4645,-6720,1493,0,0,-1
-152.00,34.06,-77.51,4644,-6727,1493,0,0,-1
-152.00,34.07,-77.49,4655,-6725,1485,0,0,-1
-152.01,34.07,-77.48,4651,-6725,1484,0,0,-1
-152.02,34.07,-77.47,4649,-6732,1481,0,0,-1
-152.02,34.07,-77.46,4652,-6727,1477,0,0,0
-152.02,34.06,-77.46,4654,-6721,1490,0,0,-1
-152.02,34.07,-77.45,4658,-6720,1491,0,0,-1
-152.02,34.07,-77.45,4656,-6716,1489,0,-1,-1
-152.02,34.07,-77.45,4654,-6718,1495,-1,-1,-1
-152.01,34.07,-77.46,4657,-6723,1491,-1,-1,0
-152.01,34.07,-77.46,4654,-6710,1492,0,0,0
-152.02,34.08,-77.44,4659,-6713,1491,0,0,-1
-152.03,34.07,-77.43,4659,-6720,1494,0,0,0
-152.03,34.08,-77.42,4656,-6721,1495,0,0,-1
-152.04,34.07,-77.41,4654,-6724,1505,0,0,-1
-152.05,34.07,-77.40,4651,-6728,1498,0,0,-1
-152.05,34.07,-77.39,4657,-6718,1490,0,0,0
-152.06,34.07,-77.38,4650,-6725,1492,0,0,0
-152.06,34.06,-77.38,4644,-6727,1496,0,-1,-1
-152.06,34.06,-77.38,4648,-6719,1491,0,0,0
-152.07,34.07,-77.36,4650,-6717,1488,0,0,-1
-152.07,34.07,-77.36,4656,-6718,1493,0,0,-1
-152.07,34.07,-77.36,4653,-6716,1490,0,0,-1
-152.06,34.07,-77.36,4649,-6714,1487,0,0,0
-152.06,34.07,-77.36,4655,-6718,1485,0,0,0
-152.07,34.07,-77.35,4658,-6714,1494,0,0,0
-152.07,34.07,-77.34,4656,-6714,1504,0,0,0
-152.08,34.07,-77.34,4652,-6720,1503,0,0,0
-152.08,34.07,-77.33,4655,-6719,1498,0,0,-1
-152.09,34.07,-77.32,4655,-6715,1508,0,0,-1
-152.09,34.07,-77.31,4656,-6713,1507,0,0,-1
-152.09,34.08,-77.30,4662,-6722,1503,0,-1,0
-152.10,34.07,-77.29,4664,-6717,1506,0,0,0
-152.10,34.07,-77.29,4659,-6718,1500,0,0,0
-152.12,34.06,-77.27,4656,-6717,1491,0,0,0
-152.13,34.06,-77.27,4653,-6716,1494,0,-1,0
-152.14,34.05,-77.26,4645,-6724,1508,0,-1,-1
-152.14,34.05,-77.25,4651,-6718,1515,0,-1,-1
-152.14,34.06,-77.25,4648,-6721,1515,0,-1,-1
-152.13,34.06,-77.25,4647,-6709,1509,0,-1,-1
-152.13,34.07,-77.25,4652,-6716,1506,0,-1,-1
-152.13,34.07,-77.25,4658,-6719,1505,0,0,0
-152.14,34.06,-77.23,4657,-6722,1505,0,0,0
-152.16,34.06,-77.22,4652,-6717,1505,0,0,0
-152.16,34.06,-77.21,4650,-6718,1509,0,0,0
-152.17,34.06,-77.20,4648,-6718,1513,0,0,-1
-152.17,34.06,-77.19,4650,-6722,1511,0,0,-1
-152.17,34.06,-77.19,4652,-6718,1513,0,0,-1
-152.17,34.06,-77.18,4662,-6717,1508,0,0,-1
-152.18,34.06,-77.17,4663,-6717,1509,0,0,-1
-152.19,34.06,-77.16,4662,-6717,1512,0,0,0
-152.19,34.06,-77.15,4662,-6720,1512,0,0,0
-152.21,34.06,-77.13,4658,-6715,1524,0,0,0
-152.21,34.06,-77.12,4656,-6714,1535,0,-1,-1
-152.20,34.06,-77.13,4656,-6715,1534,-1,-1,-1
-152.19,34.07,-77.14,4655,-6712,1519,-1,-1,-1
-152.19,34.06,-77.16,4651,-6713,1510,-1,-1,0
-152.19,34.06,-77.16,4655,-6713,1510,0,-1,0
-152.19,34.06,-77.16,4649,-6716,1514,0,0,-1
-152.19,34.06,-77.16,4659,-6716,1512,0,-1,-1
-152.19,34.06,-77.16,4653,-6717,1522,-1,-1,0
-152.19,34.06,-77.16,4651,-6714,1519,0,0,0
-152.18,34.06,-77.17,4651,-6713,1513,0,-1,-1
-152.18,34.06,-77.17,4651,-6713,1507,-1,0,0
-152.18,34.06,-77.17,4649,-6717,1522,-1,0,-1
-152.18,34.06,-77.17,4652,-6717,1518,-1,-1,-1
-152.18,34.06,-77.18,4654,-6713,1515,-1,-1,0
-152.17,34.06,-77.19,4657,-6714,1508,-1,-1,0
-152.17,34.06,-77.20,4652,-6714,1505,-1,-1,-1
-152.16,34.06,-77.21,4650,-6707,1509,-1,-1,0
-152.16,34.07,-77.22,4653,-6713,1507,-1,-1,0
-152.16,34.06,-77.22,4649,-6716,1508,-1,-1,0
-152.16,34.06,-77.22,4650,-6719,1509,-1,0,0
-152.16,34.06,-77.22,4653,-6714,1507,-1,-1,0
-152.16,34.06,-77.23,4650,-6718,1503,-1,-1,0
-152.16,34.06,-77.23,4647,-6718,1508,0,0,0
-152.16,34.05,-77.23,4650,-6726,1508,-1,0,0
-152.16,34.06,-77.23,4647,-6720,1508,-1,-1,0
-152.15,34.06,-77.25,4646,-6719,1495,-1,-1,-1
-152.14,34.06,-77.26,4651,-6718,1497,-1,-1,0
-152.14,34.05,-77.28,4654,-6722,1502,-1,-1,-1
-152.12,34.06,-77.29,4662,-6721,1495,-1,-1,-1
-152.12,34.06,-77.30,4662,-6716,1503,-1,-1,0
-152.11,34.06,-77.30,4656,-6721,1495,-1,-1,0
-152.12,34.06,-77.31,4662,-6715,1489,0,0,0
-152.12,34.05,-77.31,4659,-6722,1487,0,0,0
-152.13,34.05,-77.31,4652,-6721,1499,0,0,0
-152.13,34.05,-77.32,4648,-6722,1501,0,0,-1
-152.13,34.05,-77.32,4647,-6725,1499,-1,-1,-1
-152.12,34.05,-77.31,4645,-6726,1507,-1,-1,-1
-152.11,34.05,-77.34,4648,-6723,1503,-1,-1,-1
-152.10,34.05,-77.35,4653,-6724,1488,-1,-1,-1
-152.08,34.06,-77.38,4648,-6717,1476,-1,-1,0
-152.08,34.06,-77.39,4652,-6715,1479,-1,-1,0
-152.08,34.06,-77.40,4651,-6720,1486,-1,0,0
-152.08,34.05,-77.40,4648,-6724,1483,-1,-1,0
-152.08,34.05,-77.41,4644,-6727,1486,-1,-1,0
-152.08,34.05,-77.42,4651,-6722,1481,-1,-1,0
-152.08,34.05,-77.43,4653,-6728,1484,-1,-1,0
-152.06,34.05,-77.45,4658,-6725,1478,-1,-1,0
-152.06,34.05,-77.46,4653,-6727,1472,-1,-1,0
-152.06,34.05,-77.46,4653,-6727,1491,-1,0,0
-152.06,34.04,-77.47,4654,-6735,1481,-1,-1,0
-152.06,34.04,-77.47,4653,-6724,1474,-1,0,0
-152.06,34.04,-77.48,4656,-6723,1489,-1,-1,0
-152.05,34.04,-77.49,4654,-6723,1479,-1,-1,0
-152.04,34.05,-77.50,4653,-6723,1479,-1,-1,0
-152.03,34.04,-77.52,4654,-6726,1485,-1,-1,0
-152.02,34.05,-77.54,4654,-6724,1475,-1,-1,0
-152.01,34.05,-77.57,4660,-6725,1467,-1,-1,0
-152.00,34.05,-77.58,4656,-6730,1463,-1,-1,0
-152.00,34.05,-77.58,4659,-6727,1458,-1,0,-1
-152.00,34.04,-77.59,4662,-6727,1458,0,0,0
-152.00,34.04,-77.59,4652,-6727,1460,0,0,0
-152.00,34.04,-77.59,4649,-6725,1460,0,-1,0
-152.01,34.04,-77.58,4645,-6734,1459,0,0,0
-152.01,34.04,-77.58,4641,-6740,1459,0,0,0
-152.01,34.04,-77.58,4642,-6735,1467,-1,-1,-1
-152.01,34.04,-77.58,4638,-6728,1466,0,-1,-1
-152.01,34.04,-77.58,4635,-6725,1468,-1,-1,0
-152.01,34.03,-77.59,4637,-6728,1471,-1,-1,-1
-152.00,34.04,-77.60,4645,-6725,1465,-1,-1,-1
-152.00,34.04,-77.60,4645,-6725,1455,-1,-1,0
-152.00,34.04,-77.61,4653,-6728,1457,0,0,-1
-152.00,34.04,-77.60,4649,-6725,1458,0,0,0
-152.00,34.04,-77.60,4647,-6718,1457,0,0,0
-152.01,34.03,-77.59,4644,-6725,1453,0,0,0
-152.02,34.03,-77.58,4647,-6726,1455,0,0,0
-152.02,34.03,-77.58,4650,-6732,1472,0,-1,-1
-152.02,34.03,-77.57,4640,-6732,1472,0,0,0
-152.03,34.03,-77.57,4644,-6738,1479,0,0,-1
-152.02,34.03,-77.57,4650,-6730,1476,0,0,-1
-152.02,34.04,-77.57,4653,-6731,1471,0,0,0
-152.02,34.03,-77.56,4651,-6727,1466,0,0,0
-152.03,34.03,-77.55,4642,-6731,1470,0,0,0
-152.04,34.03,-77.55,4640,-6729,1467,0,0,0
-152.05,34.02,-77.54,4639,-6730,1459,0,0,0
-152.05,34.02,-77.53,4641,-6728,1462,0,0,0
-152.06,34.02,-77.52,4642,-6735,1467,0,0,-1
-152.06,34.02,-77.51,4644,-6732,1476,0,0,-1
-152.06,34.02,-77.51,4648,-6727,1475,0,-1,-1
-152.05,34.03,-77.52,4649,-6730,1477,-1,-1,-1
-152.05,34.03,-77.52,4647,-6724,1464,0,0,-1
-152.05,34.03,-77.52,4646,-6724,1460,0,0,0
-152.05,34.03,-77.52,4660,-6723,1458,0,0,0
-152.05,34.03,-77.52,4658,-6724,1473,0,0,0
-152.06,34.03,-77.51,4664,-6724,1469,0,0,0
-152.05,34.04,-77.51,4661,-6727,1470,-1,-1,0
-152.05,34.03,-77.52,4653,-6735,1462,0,0,-1
-152.05,34.03,-77.52,4655,-6735,1460,0,0,-1
-152.05,34.03,-77.52,4650,-6733,1465,0,0,-1
-152.05,34.04,-77.51,4648,-6731,1463,0,0,-1
-152.05,34.04,-77.49,4646,-6733,1471,0,0,-1
-152.05,34.04,-77.49,4654,-6734,1479,0,0,-1
-152.06,34.04,-77.47,4653,-6736,1491,0,0,-1
-152.06,34.05,-77.46,4658,-6732,1485,0,0,-1
-152.06,34.05,-77.46,4656,-6728,1477,0,0,0
-152.06,34.05,-77.46,4658,-6730,1476,-1,-1,-1
-152.06,34.05,-77.46,4656,-6736,1473,0,0,-1
-152.06,34.05,-77.46,4660,-6734,1466,0,0,-1
-152.06,34.05,-77.46,4658,-6733,1467,0,0,-1
-152.06,34.05,-77.45,4660,-6727,1468,0,0,0
-152.07,34.05,-77.44,4654,-6724,1479,0,0,-1
-152.07,34.05,-77.44,4650,-6727,1479,0,0,-1
-152.07,34.04,-77.44,4644,-6728,1469,0,0,0
-152.08,34.05,-77.43,4651,-6726,1471,0,0,-1
-152.08,34.05,-77.43,4650,-6727,1472,0,0,-1
-152.08,34.05,-77.42,4645,-6721,1473,0,0,-1
-152.08,34.05,-77.41,4653,-6724,1482,0,0,-1
-152.08,34.05,-77.41,4650,-6724,1486,0,-1,-1
-152.08,34.05,-77.40,4646,-6723,1491,0,-1,0
-152.09,34.05,-77.40,4643,-6724,1483,0,0,-1
-152.09,34.05,-77.39,4646,-6721,1487,0,-1,-1
-152.09,34.05,-77.39,4648,-6719,1486,0,0,-1
-152.09,34.05,-77.38,4653,-6718,1487,0,0,0
-152.10,34.05,-77.37,4653,-6721,1484,0,0,-1
-152.11,34.05,-77.36,4651,-6724,1487,0,0,0
-152.11,34.05,-77.36,4651,-6723,1484,0,0,0
-152.12,34.05,-77.34,4651,-6722,1494,0,0,-1
-152.11,34.05,-77.35,4650,-6723,1491,0,0,-1
-152.11,34.06,-77.34,4654,-6722,1492,0,0,-1
-152.11,34.06,-77.34,4656,-6720,1497,0,0,-1
-152.12,34.06,-77.32,4651,-6718,1502,0,-1,0
-152.12,34.05,-77.32,4648,-6725,1500,0,0,0
-152.14,34.05,-77.31,4653,-6728,1490,0,0,0
-152.14,34.05,-77.31,4650,-6723,1487,0,0,0
-152.15,34.04,-77.29,4650,-6721,1493,0,0,0
-152.17,34.03,-77.27,4649,-6728,1504,0,0,0
-152.17,34.04,-77.26,4649,-6729,1507,0,0,-1
-152.17,34.04,-77.26,4650,-6725,1511,0,-1,-1
-152.17,34.04,-77.27,4646,-6724,1516,0,-1,-1
-152.17,34.04,-77.27,4646,-6722,1502,0,-1,-1
-152.17,34.04,-77.27,4646,-6716,1495,0,-1,-1
-152.17,34.04,-77.26,4649,-6721,1496,0,0,0
-152.18,34.04,-77.25,4645,-6726,1507,0,0,0
-152.18,34.04,-77.25,4648,-6728,1496,0,0,0
