Yaw,Pitch,Roll,AX,AY,AZ,GX,GY,GZ
-168.18,16.65,-20.72,2351,-2799,7376,-1,-1,0
-168.18,16.65,-20.72,2352,-2803,7370,-1,-1,0
-168.19,16.65,-20.72,2347,-2807,7366,0,0,0
-168.19,16.65,-20.72,2333,-2804,7361,0,-1,-1
-168.19,16.65,-20.72,2329,-2801,7365,0,-1,-1
-168.19,16.65,-20.71,2335,-2806,7366,0,-1,-1
-168.20,16.66,-20.71,2336,-2811,7367,0,-1,-1
-168.20,16.66,-20.71,2344,-2812,7365,0,-1,-1
-168.20,16.66,-20.71,2344,-2796,7375,0,-1,0
-168.20,16.66,-20.70,2342,-2808,7372,0,-1,-1
-168.20,16.66,-20.69,2343,-2798,7382,0,0,0
-168.21,16.65,-20.69,2340,-2787,7379,-1,-1,0
-168.20,16.66,-20.69,2346,-2795,7374,-1,-1,-1
-168.20,16.66,-20.70,2345,-2806,7363,0,-1,0
-168.21,16.67,-20.69,2346,-2802,7367,0,-1,0
-168.21,16.67,-20.69,2346,-2797,7375,0,-1,0
-168.21,16.67,-20.69,2343,-2803,7368,0,-1,0
-168.22,16.66,-20.68,2346,-2799,7378,0,-1,0
-168.22,16.66,-20.67,2340,-2794,7379,0,-1,0
-168.22,16.66,-20.67,2340,-2797,7383,0,-1,-1
-168.22,16.66,-20.67,2341,-2797,7377,0,-1,-1
-168.23,16.66,-20.67,2343,-2794,7388,0,-1,0
-168.23,16.66,-20.67,2350,-2791,7390,0,-1,0
-168.23,16.66,-20.66,2351,-2783,7388,0,0,0
-168.23,16.66,-20.66,2346,-2786,7390,-1,-1,0
-168.23,16.66,-20.66,2341,-2799,7391,0,-1,0
-168.23,16.66,-20.67,2341,-2798,7378,0,-1,0
-168.23,16.66,-20.67,2340,-2805,7379,0,-1,-1
-168.23,16.66,-20.67,2344,-2803,7373,0,-1,-1
-168.23,16.67,-20.66,2354,-2805,7378,0,-1,-1
-168.23,16.67,-20.65,2349,-2793,7381,0,-1,0
-168.24,16.67,-20.65,2350,-2784,7382,0,-1,0
-168.24,16.67,-20.64,2353,-2797,7382,0,-1,-1
-168.24,16.68,-20.63,2352,-2793,7381,0,-1,0
-168.24,16.69,-20.62,2353,-2790,7381,0,-1,0
-168.25,16.69,-20.62,2352,-2788,7373,0,-1,-1
-168.25,16.69,-20.62,2357,-2786,7373,0,0,-1
-168.25,16.69,-20.62,2354,-2786,7380,-1,-1,0
-168.25,16.69,-20.62,2365,-2798,7378,0,0,0
-168.25,16.68,-20.62,2354,-2785,7379,0,0,-1
-168.25,16.67,-20.62,2341,-2779,7377,-1,0,0
-168.25,16.67,-20.62,2350,-2786,7370,0,-1,-1
-168.25,16.68,-20.62,2359,-2791,7376,0,0,-1
-168.25,16.67,-20.62,2354,-2792,7374,0,0,0
-168.25,16.67,-20.62,2355,-2794,7372,0,-1,-1
-168.24,16.67,-20.61,2354,-2798,7369,0,0,-1
-168.25,16.66,-20.61,2345,-2801,7372,0,0,-1
-168.25,16.66,-20.59,2349,-2789,7372,0,-1,-1
-168.25,16.66,-20.59,2358,-2783,7371,0,-1,-1
-168.25,16.66,-20.58,2353,-2774,7384,0,-1,0
-168.25,16.66,-20.57,2357,-2778,7384,0,-1,-1
-168.26,16.67,-20.57,2358,-2778,7379,0,0,0
-168.26,16.66,-20.57,2355,-2788,7390,0,0,0
-168.26,16.67,-20.56,2360,-2786,7395,0,-1,-1
-168.26,16.66,-20.54,2355,-2781,7384,0,0,-1
-168.26,16.65,-20.53,2338,-2780,7380,0,0,-1
-168.27,16.65,-20.52,2337,-2775,7376,0,0,-1
-168.27,16.64,-20.51,2342,-2776,7399,0,0,0
-168.27,16.64,-20.49,2349,-2775,7405,0,0,0
-168.28,16.64,-20.49,2348,-2767,7396,0,-1,0
-168.28,16.64,-20.49,2352,-2772,7400,-1,0,0
-168.28,16.63,-20.49,2347,-2763,7387,-1,0,0
-168.28,16.62,-20.50,2354,-2773,7381,-1,0,-1
-168.28,16.60,-20.51,2352,-2773,7398,-1,0,0
-168.28,16.58,-20.51,2331,-2773,7395,-1,0,0
-168.28,16.58,-20.52,2325,-2781,7400,-1,0,-1
-168.28,16.57,-20.54,2339,-2791,7390,-1,0,-1
-168.27,16.56,-20.53,2340,-2794,7390,-1,0,-1
-168.27,16.54,-20.54,2339,-2789,7386,-1,0,0
-168.28,16.54,-20.54,2339,-2790,7390,-1,0,-1
-168.28,16.52,-20.54,2332,-2788,7381,0,0,-1
-168.27,16.51,-20.55,2330,-2786,7386,-1,0,-1
-168.28,16.50,-20.55,2328,-2780,7385,-1,0,0
-168.28,16.49,-20.55,2319,-2778,7387,-1,0,0
-168.27,16.49,-20.55,2336,-2768,7395,-1,0,-1
-168.27,16.49,-20.56,2335,-2772,7393,-1,0,0
-168.27,16.47,-20.57,2329,-2775,7388,-1,0,0
-168.27,16.47,-20.58,2325,-2776,7381,-1,0,0
-168.27,16.47,-20.59,2335,-2783,7377,-1,0,0
-168.27,16.45,-20.60,2329,-2791,7370,-1,0,0
-168.27,16.45,-20.61,2329,-2796,7372,-1,0,-1
-168.26,16.44,-20.60,2323,-2792,7373,0,0,-1
-168.27,16.44,-20.60,2320,-2787,7388,0,0,-1
-168.27,16.43,-20.60,2311,-2786,7388,-1,0,0
-168.27,16.43,-20.60,2315,-2789,7381,-1,0,0
-168.27,16.42,-20.61,2312,-2783,7389,-1,0,0
-168.26,16.42,-20.62,2326,-2800,7388,-1,0,-1
-168.27,16.40,-20.62,2315,-2796,7403,-1,0,0
-168.27,16.39,-20.63,2302,-2788,7392,-1,0,-1
-168.26,16.38,-20.63,2306,-2785,7398,-1,0,0
-168.26,16.38,-20.64,2319,-2791,7400,-1,0,0
-168.26,16.37,-20.65,2313,-2797,7401,-1,0,-1
-168.26,16.37,-20.66,2319,-2798,7388,-1,0,-1
-168.26,16.36,-20.67,2320,-2805,7388,-1,0,-1
-168.26,16.35,-20.67,2318,-2796,7395,-1,0,0
-168.26,16.35,-20.68,2318,-2799,7392,-1,0,0
-168.26,16.34,-20.69,2317,-2802,7403,-1,0,0
-168.26,16.33,-20.70,2310,-2810,7398,-1,0,0
-168.26,16.32,-20.71,2307,-2814,7389,-1,0,0
-168.26,16.31,-20.72,2306,-2808,7382,-1,0,-1
-168.26,16.30,-20.72,2299,-2808,7389,-1,0,-1
-168.26,16.29,-20.73,2295,-2809,7387,-1,0,-1
-168.26,16.29,-20.73,2294,-2809,7390,-1,-1,-1
-168.26,16.29,-20.74,2294,-2809,7380,-1,0,-1
-168.26,16.30,-20.75,2291,-2812,7374,-1,-1,0
-168.25,16.30,-20.75,2296,-2813,7375,-1,-1,-1
-168.26,16.29,-20.75,2296,-2815,7380,-1,-1,-1
-168.26,16.30,-20.75,2297,-2808,7383,-1,-1,0
-168.26,16.30,-20.75,2302,-2807,7382,0,-1,0
-168.26,16.30,-20.75,2290,-2815,7389,0,-1,0
-168.26,16.30,-20.75,2291,-2815,7380,0,-1,-1
-168.26,16.30,-20.75,2293,-2813,7382,0,-1,0
-168.26,16.31,-20.75,2306,-2815,7375,0,-1,0
-168.26,16.31,-20.75,2300,-2812,7379,0,-1,0
-168.27,16.32,-20.74,2297,-2819,7365,0,-1,-1
-168.26,16.33,-20.73,2302,-2814,7384,0,-1,0
-168.27,16.33,-20.72,2295,-2803,7383,0,-1,-1
-168.27,16.34,-20.71,2290,-2798,7387,0,-1,-1
-168.27,16.35,-20.71,2298,-2800,7389,0,-1,-1
-168.27,16.36,-20.71,2303,-2793,7391,0,-1,-1
-168.27,16.37,-20.70,2313,-2797,7395,0,-1,0
-168.28,16.38,-20.70,2312,-2799,7394,0,-1,-1
-168.28,16.38,-20.69,2316,-2800,7387,0,-1,0
-168.28,16.39,-20.69,2300,-2794,7377,0,-1,0
-168.28,16.40,-20.69,2317,-2798,7378,0,-1,-1
-168.28,16.41,-20.68,2323,-2806,7380,0,-1,0
-168.28,16.41,-20.67,2313,-2802,7385,0,-1,-1
-168.28,16.42,-20.67,2317,-2801,7386,0,-1,0
-168.28,16.43,-20.67,2316,-2803,7381,0,-1,0
-168.29,16.43,-20.66,2314,-2801,7376,0,-1,0
-168.29,16.43,-20.65,2305,-2796,7376,0,-1,0
-168.30,16.44,-20.65,2306,-2793,7381,0,-1,-1
-168.29,16.45,-20.65,2312,-2794,7392,0,-1,-1
-168.29,16.45,-20.64,2317,-2796,7404,0,-1,0
-168.30,16.46,-20.63,2318,-2792,7394,0,-1,0
-168.30,16.46,-20.63,2316,-2790,7389,0,-1,0
-168.30,16.47,-20.63,2319,-2792,7394,0,-1,0
-168.30,16.48,-20.62,2326,-2791,7400,0,-1,0
-168.31,16.49,-20.62,2325,-2792,7403,0,-1,0
-168.31,16.49,-20.61,2322,-2792,7394,0,-1,0
-168.30,16.50,-20.61,2321,-2794,7390,0,-1,-1
-168.31,16.51,-20.61,2326,-2798,7378,0,-1,-1
-168.31,16.51,-20.60,2330,-2792,7382,0,-1,0
-168.32,16.52,-20.59,2333,-2782,7385,0,-1,-1
-168.32,16.52,-20.58,2335,-2781,7386,0,-1,0
-168.32,16.53,-20.59,2336,-2779,7389,0,-1,0
-168.32,16.54,-20.59,2331,-2785,7387,0,-1,0
-168.33,16.54,-20.58,2327,-2788,7385,0,-1,0
-168.33,16.53,-20.58,2313,-2790,7384,0,-1,0
-168.33,16.54,-20.57,2315,-2787,7371,0,-1,-1
-168.33,16.55,-20.57,2324,-2791,7367,0,-1,-1
-168.34,16.55,-20.57,2332,-2794,7378,0,-1,-1
-168.34,16.56,-20.56,2340,-2786,7390,0,-1,-1
-168.34,16.57,-20.56,2338,-2783,7383,0,-1,0
-168.34,16.57,-20.55,2339,-2775,7385,0,-1,0
-168.34,16.57,-20.55,2332,-2771,7393,0,-1,0
-168.35,16.58,-20.55,2343,-2783,7391,0,-1,0
-168.35,16.58,-20.55,2347,-2778,7393,0,-1,0
-168.35,16.58,-20.54,2340,-2782,7385,0,-1,0
-168.35,16.58,-20.55,2336,-2788,7377,0,-1,0
-168.35,16.59,-20.54,2351,-2790,7379,0,-1,0
-168.35,16.60,-20.54,2350,-2781,7378,0,-1,0
-168.36,16.60,-20.53,2349,-2779,7380,0,-1,0
-168.36,16.60,-20.53,2349,-2783,7386,0,0,0
-168.36,16.59,-20.52,2341,-2773,7385,0,0,0
-168.36,16.59,-20.51,2336,-2772,7390,0,-1,0
-168.37,16.60,-20.51,2338,-2773,7396,0,-1,-1
-168.37,16.61,-20.51,2347,-2774,7404,0,-1,0
-168.37,16.61,-20.51,2338,-2766,7401,0,-1,0
-168.37,16.61,-20.51,2339,-2771,7396,0,-1,0
-168.37,16.61,-20.51,2347,-2779,7403,0,-1,0
-168.38,16.61,-20.51,2338,-2777,7396,0,-1,0
-168.38,16.61,-20.51,2336,-2772,7390,0,-1,0
-168.38,16.62,-20.50,2342,-2768,7387,0,-1,0
-168.38,16.62,-20.50,2345,-2769,7391,0,-1,0
-168.38,16.62,-20.50,2349,-2777,7391,0,-1,0
-168.38,16.62,-20.49,2348,-2777,7382,0,-1,0
-168.38,16.62,-20.49,2345,-2776,7383,0,-1,-1
-168.39,16.62,-20.50,2339,-2777,7389,0,-1,0
-168.39,16.61,-20.49,2340,-2771,7389,0,-1,-1
-168.39,16.62,-20.49,2344,-2771,7387,0,-1,0
-168.39,16.62,-20.48,2341,-2773,7390,0,-1,-1
-168.39,16.62,-20.48,2337,-2769,7389,0,-1,0
-168.39,16.62,-20.47,2343,-2770,7387,0,-1,0
-168.40,16.63,-20.48,2347,-2775,7380,0,-1,0
-168.40,16.63,-20.48,2351,-2768,7381,0,0,0
-168.40,16.63,-20.47,2344,-2765,7392,0,-1,0
-168.40,16.63,-20.48,2347,-2779,7393,0,-1,-1
-168.40,16.63,-20.47,2353,-2778,7395,0,-1,-1
-168.40,16.63,-20.47,2347,-2769,7400,0,0,0
-168.40,16.63,-20.47,2347,-2767,7384,0,-1,0
-168.40,16.64,-20.47,2355,-2775,7380,0,-1,0
-168.40,16.64,-20.47,2350,-2775,7381,0,-1,-1
-168.40,16.64,-20.47,2355,-2776,7381,0,-1,-1
-168.41,16.64,-20.46,2352,-2772,7387,0,-1,0
-168.41,16.64,-20.45,2356,-2759,7391,0,-1,0
-168.41,16.64,-20.45,2350,-2763,7392,-1,-1,0
-168.42,16.64,-20.45,2351,-2766,7389,-1,-1,0
-168.42,16.64,-20.45,2349,-2773,7380,0,0,0
-168.42,16.64,-20.45,2344,-2772,7392,0,-1,0
-168.43,16.63,-20.46,2342,-2773,7388,0,-1,0
-168.43,16.63,-20.46,2342,-2769,7390,0,-1,0
-168.42,16.64,-20.46,2345,-2773,7392,0,-1,-1
-168.42,16.64,-20.46,2352,-2779,7388,0,-1,-1
-168.43,16.64,-20.45,2356,-2778,7389,0,-1,-1
-168.42,16.65,-20.45,2357,-2777,7391,0,-1,0
-168.42,16.65,-20.45,2352,-2766,7393,0,-1,0
-168.43,16.65,-20.45,2352,-2757,7401,-1,-1,0
-168.43,16.65,-20.45,2347,-2762,7393,-1,-1,0
-168.43,16.65,-20.46,2343,-2767,7393,-1,-1,-1
-168.43,16.65,-20.46,2350,-2772,7392,-1,-1,0
-168.43,16.65,-20.46,2352,-2774,7381,0,-1,0
-168.43,16.65,-20.46,2357,-2773,7384,0,0,-1
-168.43,16.65,-20.46,2355,-2782,7385,0,-1,0
-168.43,16.65,-20.46,2350,-2780,7384,0,0,0
-168.44,16.65,-20.46,2347,-2772,7383,0,0,0
-168.44,16.65,-20.46,2339,-2766,7386,0,-1,-1
-168.44,16.65,-20.46,2341,-2763,7382,0,0,-1
-168.44,16.64,-20.45,2339,-2761,7381,-1,-1,0
-168.44,16.65,-20.46,2357,-2765,7387,0,0,0
-168.44,16.64,-20.46,2355,-2757,7394,-1,0,0
-168.44,16.63,-20.47,2346,-2761,7390,-1,0,0
-168.44,16.63,-20.47,2346,-2767,7386,-1,0,-1
-168.44,16.63,-20.48,2347,-2764,7380,-1,0,0
-168.44,16.62,-20.48,2348,-2772,7378,-1,0,0
-168.44,16.62,-20.49,2353,-2771,7383,-1,0,0
-168.44,16.61,-20.49,2350,-2774,7384,-1,0,0
-168.44,16.60,-20.49,2336,-2768,7380,-1,0,0
-168.45,16.59,-20.49,2336,-2772,7386,-1,0,0
-168.45,16.59,-20.49,2336,-2773,7396,0,0,0
-168.44,16.59,-20.49,2341,-2773,7387,-1,0,0
-168.44,16.58,-20.50,2338,-2780,7396,-1,0,0
-168.44,16.57,-20.50,2343,-2782,7401,-1,0,0
-168.44,16.57,-20.50,2336,-2775,7397,-1,0,0
-168.44,16.56,-20.51,2334,-2773,7397,-1,0,0
-168.45,16.54,-20.51,2330,-2770,7401,-1,0,0
-168.45,16.54,-20.51,2333,-2767,7399,-1,0,0
-168.45,16.54,-20.52,2343,-2775,7392,-1,0,0
-168.44,16.54,-20.53,2343,-2775,7391,-1,0,0
-168.44,16.53,-20.53,2341,-2776,7391,-1,0,-1
-168.44,16.52,-20.54,2334,-2779,7390,-1,0,-1
-168.44,16.52,-20.54,2336,-2779,7374,-1,0,0
-168.44,16.52,-20.54,2345,-2772,7382,-1,0,0
-168.44,16.51,-20.54,2337,-2757,7384,-1,0,0
-168.44,16.51,-20.55,2348,-2775,7381,-1,0,-1
-168.44,16.50,-20.55,2337,-2779,7390,-1,0,0
-168.44,16.48,-20.56,2328,-2780,7391,-1,0,0
-168.44,16.47,-20.56,2317,-2785,7381,-1,0,0
-168.44,16.47,-20.57,2317,-2784,7367,-1,0,-1
-168.44,16.47,-20.57,2311,-2784,7383,-1,0,-1
-168.44,16.46,-20.58,2320,-2787,7383,-1,0,0
-168.44,16.46,-20.59,2321,-2788,7379,-1,0,-1
-168.44,16.45,-20.59,2315,-2784,7382,-1,0,-1
-168.44,16.44,-20.59,2320,-2786,7384,-1,0,-1
-168.44,16.44,-20.59,2319,-2784,7403,-1,0,0
-168.44,16.43,-20.61,2321,-2786,7397,-1,0,0
-168.44,16.42,-20.61,2330,-2784,7382,-1,0,0
-168.43,16.42,-20.62,2331,-2793,7391,-1,0,0
-168.43,16.40,-20.64,2321,-2799,7391,-1,0,0
-168.43,16.40,-20.64,2312,-2800,7385,-1,0,0
-168.44,16.38,-20.65,2309,-2806,7385,-1,0,0
-168.44,16.38,-20.66,2310,-2805,7383,-1,0,0
-168.44,16.36,-20.66,2312,-2806,7380,-1,0,-1
-168.43,16.36,-20.66,2310,-2799,7390,-1,0,0
-168.44,16.35,-20.66,2310,-2793,7397,0,0,0
-168.44,16.35,-20.66,2311,-2780,7388,-1,0,0
-168.44,16.35,-20.67,2309,-2784,7389,-1,0,0
-168.44,16.33,-20.68,2301,-2785,7384,-1,0,0
-168.43,16.33,-20.69,2312,-2800,7383,-1,0,0
-168.43,16.31,-20.70,2304,-2802,7395,-1,0,0
-168.44,16.31,-20.71,2297,-2803,7390,-1,0,0
-168.44,16.30,-20.71,2297,-2797,7388,-1,0,-1
-168.44,16.29,-20.72,2300,-2804,7391,-1,0,0
-168.43,16.30,-20.73,2308,-2814,7385,-1,0,-1
-168.43,16.29,-20.73,2308,-2815,7384,-1,0,0
-168.43,16.28,-20.74,2302,-2817,7384,-1,0,0
-168.43,16.27,-20.74,2287,-2807,7395,-1,0,0
-168.44,16.26,-20.74,2289,-2812,7393,-1,0,0
-168.44,16.25,-20.75,2297,-2813,7386,-1,0,0
-168.44,16.25,-20.76,2292,-2812,7390,-1,0,0
-168.44,16.24,-20.77,2290,-2818,7386,-1,0,-1
-168.43,16.24,-20.77,2289,-2814,7393,-1,0,0
-168.43,16.24,-20.77,2293,-2809,7402,-1,0,0
-168.43,16.23,-20.78,2291,-2808,7399,-1,0,0
-168.43,16.22,-20.79,2292,-2814,7389,-1,0,0
-168.43,16.22,-20.79,2287,-2815,7388,-1,0,0
-168.43,16.21,-20.80,2286,-2815,7381,-1,0,0
-168.43,16.21,-20.81,2289,-2818,7385,-1,0,-1
-168.44,16.20,-20.81,2282,-2812,7373,-1,0,0
-168.44,16.20,-20.81,2286,-2815,7370,-1,0,0
-168.44,16.19,-20.82,2284,-2803,7378,-1,0,0
-168.43,16.19,-20.82,2295,-2824,7387,-1,0,0
-168.44,16.18,-20.83,2290,-2825,7389,-1,0,0
-168.44,16.17,-20.83,2283,-2827,7393,-1,0,0
-168.44,16.16,-20.84,2278,-2818,7384,-1,0,0
-168.44,16.16,-20.84,2270,-2810,7378,-1,0,-1
-168.44,16.16,-20.84,2275,-2814,7381,-1,0,0
-168.44,16.16,-20.84,2287,-2819,7381,-1,0,-1
-168.43,16.16,-20.85,2290,-2819,7389,0,0,-1
-168.44,16.16,-20.84,2287,-2819,7387,0,0,0
-168.44,16.15,-20.85,2286,-2827,7388,-1,-1,0
-168.44,16.16,-20.85,2288,-2812,7395,0,-1,0
-168.44,16.16,-20.85,2283,-2815,7399,-1,-1,-1
-168.44,16.16,-20.85,2274,-2822,7383,-1,-1,0
-168.44,16.16,-20.85,2283,-2829,7386,0,-1,-1
-168.45,16.17,-20.85,2279,-2824,7394,0,-1,0
-168.45,16.16,-20.85,2274,-2820,7390,0,-1,-1
-168.45,16.17,-20.85,2271,-2827,7388,0,-1,0
-168.45,16.18,-20.84,2280,-2826,7389,0,-1,-1
-168.45,16.19,-20.84,2289,-2837,7383,0,-1,0
-168.45,16.20,-20.83,2277,-2824,7381,0,-1,0
-168.46,16.20,-20.82,2285,-2827,7386,0,-1,0
-168.46,16.21,-20.81,2274,-2821,7407,0,-1,-1
-168.46,16.23,-20.80,2277,-2809,7396,0,-1,-1
-168.47,16.23,-20.79,2278,-2808,7398,0,-1,0
-168.46,16.24,-20.78,2287,-2805,7389,0,-1,-1
-168.46,16.26,-20.78,2307,-2822,7405,0,-1,0
-168.46,16.27,-20.78,2298,-2812,7409,0,-1,0
-168.47,16.28,-20.77,2294,-2813,7396,0,-1,0
-168.47,16.29,-20.76,2297,-2807,7399,0,-1,-1
-168.47,16.31,-20.76,2301,-2814,7393,0,-1,0
-168.48,16.32,-20.75,2304,-2816,7388,0,-1,0
-168.48,16.34,-20.74,2317,-2813,7385,0,-1,0
-168.48,16.35,-20.73,2307,-2806,7372,0,-1,0
-168.49,16.35,-20.72,2294,-2806,7379,0,-1,0
-168.48,16.36,-20.72,2297,-2809,7379,0,-1,0
-168.49,16.36,-20.72,2301,-2809,7380,0,-1,0
-168.49,16.38,-20.71,2306,-2803,7394,0,-1,-1
-168.48,16.39,-20.70,2322,-2797,7390,0,-1,-1
-168.49,16.40,-20.70,2328,-2798,7387,0,-1,0
-168.50,16.41,-20.69,2319,-2803,7390,0,-1,0
-168.49,16.42,-20.68,2319,-2805,7390,0,-1,0
-168.49,16.42,-20.68,2320,-2802,7384,0,-1,0
-168.50,16.43,-20.67,2315,-2794,7379,0,-1,0
-168.50,16.44,-20.66,2322,-2788,7383,0,-1,0
-168.50,16.45,-20.66,2325,-2801,7378,0,-1,-1
-168.50,16.46,-20.66,2322,-2800,7371,0,-1,-1
-168.50,16.47,-20.65,2319,-2795,7378,0,-1,-1
-168.51,16.47,-20.64,2321,-2792,7382,0,-1,0
-168.51,16.48,-20.63,2323,-2789,7384,0,-1,0
-168.51,16.49,-20.63,2328,-2790,7386,0,-1,0
-168.52,16.50,-20.62,2330,-2793,7393,0,-1,0
-168.52,16.50,-20.62,2330,-2800,7386,0,-1,0
-168.52,16.50,-20.61,2319,-2797,7383,0,-1,0
-168.53,16.51,-20.61,2308,-2800,7379,0,-1,0
-168.53,16.51,-20.60,2313,-2789,7369,0,-1,-1
-168.53,16.53,-20.59,2320,-2794,7376,0,-1,-1
-168.53,16.53,-20.59,2332,-2794,7381,0,-1,-1
-168.54,16.54,-20.58,2336,-2787,7389,0,-1,0
-168.54,16.55,-20.57,2343,-2781,7400,0,-1,0
-168.54,16.55,-20.56,2338,-2780,7395,0,-1,0
-168.54,16.55,-20.55,2336,-2776,7397,0,-1,0
-168.55,16.56,-20.55,2330,-2775,7393,0,-1,0
-168.55,16.57,-20.55,2327,-2779,7385,0,-1,0
-168.55,16.57,-20.55,2320,-2780,7383,0,-1,0
-168.55,16.58,-20.54,2323,-2789,7371,0,-1,0
-168.56,16.60,-20.54,2350,-2798,7388,0,-1,-1
-168.55,16.61,-20.53,2349,-2784,7395,0,-1,-1
-168.56,16.60,-20.51,2337,-2778,7386,0,-1,-1
-168.56,16.61,-20.51,2337,-2770,7381,0,-1,0
-168.57,16.62,-20.49,2332,-2767,7397,0,-1,0
-168.57,16.62,-20.48,2339,-2768,7393,0,-1,-1
-168.57,16.63,-20.47,2349,-2767,7391,0,-1,-1
-168.58,16.63,-20.46,2344,-2764,7383,0,-1,0
-168.58,16.64,-20.46,2331,-2763,7386,0,-1,0
-168.58,16.65,-20.46,2344,-2760,7391,0,-1,0
-168.59,16.65,-20.45,2350,-2766,7390,0,-1,0
-168.59,16.65,-20.44,2333,-2765,7383,0,-1,0
-168.59,16.66,-20.44,2331,-2773,7387,0,-1,0
-168.59,16.66,-20.44,2337,-2772,7384,0,-1,0
-168.59,16.66,-20.44,2346,-2775,7391,0,-1,-1
-168.60,16.67,-20.43,2347,-2770,7387,0,-1,0
-168.60,16.67,-20.42,2346,-2762,7376,0,-1,0
-168.61,16.67,-20.42,2344,-2762,7389,0,-1,0
-168.61,16.67,-20.42,2343,-2760,7392,0,-1,0
-168.61,16.67,-20.41,2344,-2763,7395,0,-1,0
-168.61,16.68,-20.40,2351,-2757,7389,0,-1,0
-168.61,16.68,-20.40,2363,-2762,7396,0,-1,0
-168.61,16.68,-20.40,2356,-2753,7398,0,-1,0
-168.61,16.68,-20.40,2345,-2760,7392,0,-1,0
-168.61,16.68,-20.40,2356,-2760,7392,0,-1,-1
-168.62,16.68,-20.39,2347,-2752,7403,0,-1,0
-168.62,16.68,-20.39,2340,-2755,7401,0,-1,0
-168.62,16.69,-20.38,2341,-2759,7394,0,-1,0
-168.63,16.69,-20.38,2346,-2770,7386,0,-1,0
-168.63,16.69,-20.38,2351,-2774,7387,0,-1,-1
-168.63,16.69,-20.38,2346,-2766,7394,0,-1,0
-168.63,16.69,-20.38,2343,-2762,7389,0,-1,0
-168.63,16.69,-20.38,2352,-2764,7382,0,-1,-1
-168.63,16.69,-20.37,2347,-2757,7384,0,-1,0
-168.63,16.71,-20.37,2357,-2764,7392,0,-1,-1
-168.63,16.71,-20.35,2361,-2750,7408,0,-1,0
-168.63,16.71,-20.35,2358,-2747,7416,-1,-1,0
-168.64,16.71,-20.36,2353,-2752,7403,-1,-1,0
-168.64,16.71,-20.36,2350,-2751,7396,0,-1,0
-168.65,16.70,-20.36,2344,-2754,7400,0,-1,0
-168.64,16.71,-20.36,2341,-2756,7400,0,-1,0
-168.65,16.71,-20.35,2343,-2760,7405,0,-1,-1
-168.65,16.72,-20.34,2349,-2755,7390,0,-1,0
-168.65,16.72,-20.34,2354,-2759,7388,0,-1,-1
-168.65,16.72,-20.34,2360,-2751,7389,0,-1,0
-168.65,16.72,-20.33,2361,-2744,7386,0,0,0
-168.65,16.72,-20.33,2362,-2739,7397,-1,-1,0
-168.65,16.72,-20.34,2362,-2742,7388,-1,-1,0
-168.65,16.72,-20.34,2353,-2752,7389,-1,-1,0
-168.65,16.72,-20.34,2352,-2757,7391,0,-1,-1
-168.65,16.72,-20.34,2351,-2759,7394,0,0,0
-168.66,16.71,-20.34,2346,-2756,7392,0,0,0
-168.65,16.70,-20.34,2345,-2755,7382,0,0,0
-168.66,16.70,-20.34,2349,-2755,7381,0,-1,-1
-168.66,16.70,-20.34,2354,-2755,7384,0,0,-1
-168.66,16.69,-20.34,2339,-2757,7390,0,0,-1
-168.66,16.68,-20.34,2341,-2751,7391,0,0,-1
-168.66,16.67,-20.34,2346,-2751,7395,-1,0,-1
-168.66,16.67,-20.34,2343,-2744,7401,-1,0,-1
-168.66,16.66,-20.34,2337,-2749,7400,-1,0,0
-168.66,16.66,-20.35,2340,-2759,7394,-1,0,-1
-168.66,16.66,-20.35,2347,-2757,7406,-1,0,0
-168.66,16.66,-20.36,2345,-2753,7398,-1,0,-1
-168.66,16.65,-20.37,2346,-2750,7382,-1,0,0
-168.66,16.64,-20.38,2342,-2757,7376,-1,0,0
-168.66,16.64,-20.39,2357,-2773,7381,0,0,-1
-168.66,16.64,-20.39,2346,-2762,7385,-1,0,0
-168.65,16.62,-20.38,2337,-2757,7382,-1,0,-1
-168.66,16.62,-20.39,2337,-2759,7377,-1,0,0
-168.66,16.61,-20.39,2337,-2758,7387,0,0,0
-168.66,16.60,-20.39,2336,-2759,7393,0,0,-1
-168.66,16.60,-20.39,2339,-2763,7399,-1,0,-1
-168.65,16.59,-20.40,2332,-2769,7398,-1,0,-1
-168.66,16.58,-20.40,2323,-2763,7389,-1,0,-1
-168.66,16.58,-20.41,2334,-2767,7390,-1,0,-1
-168.66,16.56,-20.41,2334,-2763,7392,-1,0,0
-168.65,16.55,-20.42,2325,-2764,7394,-1,0,-1
-168.65,16.54,-20.43,2330,-2764,7398,-1,0,-1
-168.65,16.54,-20.43,2334,-2765,7395,-1,0,0
-168.65,16.53,-20.44,2336,-2761,7397,-1,0,0
-168.65,16.51,-20.45,2329,-2772,7389,-1,0,0
-168.65,16.51,-20.46,2328,-2780,7383,-1,0,-1
-168.65,16.49,-20.46,2323,-2776,7390,-1,0,0
-168.65,16.49,-20.47,2325,-2771,7389,-1,0,0
-168.65,16.48,-20.47,2329,-2778,7399,-1,0,0
-168.65,16.47,-20.48,2326,-2784,7401,-1,0,0
-168.65,16.46,-20.48,2318,-2783,7406,-1,0,0
-168.66,16.45,-20.49,2310,-2782,7395,-1,0,0
-168.66,16.43,-20.50,2303,-2778,7396,-1,0,0
-168.66,16.43,-20.51,2290,-2773,7398,-1,0,0
-168.65,16.42,-20.53,2304,-2794,7385,-1,0,-1
-168.65,16.41,-20.53,2309,-2793,7391,-1,0,-1
-168.65,16.41,-20.53,2307,-2792,7398,-1,0,-1
-168.65,16.40,-20.54,2308,-2783,7398,-1,0,-1
-168.64,16.40,-20.54,2308,-2781,7402,-1,0,0
-168.64,16.38,-20.55,2309,-2783,7407,-1,0,0
-168.64,16.38,-20.56,2314,-2786,7406,-1,0,0
-168.65,16.37,-20.57,2313,-2787,7399,-1,0,-1
-168.65,16.36,-20.58,2299,-2789,7400,-1,0,0
-168.65,16.36,-20.59,2296,-2791,7390,-1,0,-1
-168.65,16.35,-20.60,2299,-2795,7378,-1,0,0
-168.64,16.35,-20.60,2299,-2796,7389,-1,0,0
-168.64,16.34,-20.61,2307,-2801,7389,-1,0,0
-168.64,16.33,-20.62,2304,-2805,7403,-1,0,0
-168.65,16.32,-20.62,2294,-2798,7399,-1,0,-1
-168.64,16.31,-20.62,2294,-2794,7398,-1,0,-1
-168.64,16.30,-20.63,2290,-2791,7395,-1,0,0
-168.64,16.29,-20.63,2293,-2791,7400,-1,0,0
-168.64,16.29,-20.64,2297,-2791,7410,-1,0,0
-168.65,16.28,-20.65,2293,-2796,7405,-1,0,0
-168.64,16.28,-20.65,2297,-2802,7396,-1,0,0
-168.64,16.27,-20.67,2296,-2812,7387,-1,0,0
-168.64,16.27,-20.68,2287,-2809,7378,-1,0,0
-168.65,16.26,-20.69,2282,-2815,7383,-1,0,0
-168.65,16.25,-20.70,2280,-2819,7387,-1,0,-1
-168.64,16.25,-20.71,2289,-2824,7386,0,0,0
-168.64,16.24,-20.71,2274,-2811,7387,-1,0,-1
-168.64,16.23,-20.71,2274,-2805,7390,-1,0,0
-168.64,16.22,-20.71,2285,-2802,7381,-1,0,-1
-168.65,16.22,-20.72,2289,-2809,7384,-1,0,0
-168.65,16.21,-20.72,2287,-2806,7382,-1,0,0
-168.65,16.20,-20.73,2279,-2818,7385,-1,0,0
-168.65,16.20,-20.74,2284,-2824,7386,-1,0,0
-168.65,16.19,-20.74,2274,-2811,7399,-1,0,0
-168.65,16.18,-20.75,2275,-2823,7387,-1,0,0
-168.65,16.18,-20.76,2275,-2817,7394,-1,-1,0
-168.65,16.18,-20.76,2269,-2816,7382,-1,-1,0
-168.65,16.18,-20.77,2275,-2824,7383,-1,-1,-1
-168.65,16.18,-20.78,2274,-2829,7374,0,0,0
-168.65,16.18,-20.77,2272,-2824,7379,0,-1,0
-168.65,16.19,-20.76,2275,-2815,7395,0,-1,0
-168.65,16.19,-20.76,2277,-2816,7401,0,-1,0
-168.66,16.20,-20.76,2281,-2821,7389,0,-1,0
-168.66,16.21,-20.76,2285,-2821,7391,0,-1,0
-168.67,16.22,-20.76,2281,-2822,7394,0,-1,0
-168.67,16.22,-20.75,2261,-2819,7373,0,-1,0
-168.68,16.22,-20.74,2266,-2812,7388,0,-1,-1
-168.67,16.24,-20.73,2268,-2809,7389,0,-1,0
-168.68,16.26,-20.73,2278,-2818,7377,0,-1,-1
-168.67,16.28,-20.72,2287,-2811,7375,0,-1,0
-168.67,16.29,-20.72,2310,-2819,7381,0,-1,-1
-168.68,16.30,-20.70,2297,-2805,7406,0,-1,0
-168.69,16.29,-20.69,2276,-2799,7398,0,-1,0
-168.68,16.31,-20.68,2291,-2796,7395,0,-1,-1
-168.69,16.32,-20.68,2295,-2801,7391,0,-1,-1
-168.69,16.33,-20.67,2289,-2808,7379,0,-1,0
-168.69,16.34,-20.67,2298,-2810,7383,0,-1,0
-168.70,16.34,-20.67,2300,-2815,7389,0,-1,-1
-168.70,16.35,-20.66,2298,-2811,7387,0,-1,0
-168.70,16.36,-20.65,2304,-2810,7378,0,-1,-1
-168.70,16.37,-20.64,2298,-2809,7383,0,-1,0
-168.71,16.37,-20.63,2294,-2807,7378,0,-1,0
-168.71,16.38,-20.62,2290,-2804,7385,0,-1,-1
-168.71,16.39,-20.62,2298,-2803,7390,0,-1,0
-168.72,16.40,-20.60,2304,-2797,7401,0,-1,0
-168.72,16.40,-20.60,2308,-2788,7391,0,-1,0
-168.72,16.42,-20.60,2309,-2789,7393,0,-1,0
-168.72,16.42,-20.60,2308,-2794,7388,0,-1,0
-168.73,16.43,-20.59,2310,-2791,7386,0,-1,0
-168.72,16.44,-20.59,2308,-2793,7389,0,-1,0
-168.73,16.44,-20.58,2313,-2785,7379,0,-1,-1
-168.73,16.46,-20.58,2318,-2789,7384,0,-1,0
-168.73,16.46,-20.57,2311,-2784,7390,0,-1,0
-168.74,16.47,-20.56,2307,-2786,7392,0,-1,0
-168.74,16.48,-20.56,2309,-2781,7390,0,-1,0
-168.75,16.49,-20.54,2307,-2790,7392,0,-1,0
-168.75,16.50,-20.54,2312,-2789,7396,0,-1,0
-168.76,16.51,-20.52,2323,-2786,7382,0,-1,0
-168.76,16.51,-20.51,2321,-2778,7396,0,-1,0
-168.76,16.52,-20.50,2329,-2775,7405,0,-1,-1
-168.76,16.53,-20.49,2320,-2777,7405,0,-1,0
-168.77,16.53,-20.48,2308,-2775,7398,0,-1,0
-168.77,16.54,-20.47,2317,-2779,7397,0,-1,0
-168.77,16.54,-20.47,2331,-2779,7393,0,-1,0
-168.78,16.55,-20.46,2323,-2772,7400,0,-1,0
-168.78,16.56,-20.46,2327,-2770,7402,0,-1,0
-168.78,16.56,-20.46,2328,-2787,7391,0,-1,-1
-168.78,16.57,-20.46,2331,-2786,7394,0,-1,-1
-168.79,16.57,-20.44,2320,-2775,7383,0,-1,0
-168.79,16.58,-20.43,2327,-2764,7385,0,-1,0
-168.80,16.59,-20.43,2328,-2757,7385,0,-1,0
-168.80,16.60,-20.43,2343,-2774,7393,0,-1,0
-168.80,16.60,-20.42,2344,-2771,7403,0,-1,0
-168.81,16.60,-20.41,2336,-2768,7405,0,-1,0
-168.81,16.60,-20.41,2324,-2765,7383,0,-1,0
-168.81,16.60,-20.42,2318,-2772,7372,0,-1,-1
-168.81,16.61,-20.41,2323,-2769,7371,0,-1,-1
-168.81,16.62,-20.40,2333,-2764,7373,0,-1,-1
-168.82,16.62,-20.40,2329,-2768,7384,0,-1,-1
-168.82,16.62,-20.40,2337,-2770,7384,0,-1,-1
-168.83,16.62,-20.38,2338,-2758,7390,0,-1,0
-168.83,16.63,-20.38,2341,-2759,7398,0,-1,0
-168.82,16.63,-20.37,2340,-2755,7412,0,-1,0
-168.83,16.63,-20.37,2342,-2754,7407,0,-1,0
-168.83,16.64,-20.37,2342,-2765,7388,0,-1,0
-168.84,16.64,-20.38,2343,-2771,7373,0,-1,0
-168.84,16.64,-20.38,2339,-2769,7380,0,-1,-1
-168.84,16.64,-20.37,2335,-2767,7398,0,-1,0
-168.84,16.65,-20.36,2342,-2770,7388,0,-1,0
-168.84,16.66,-20.35,2348,-2765,7391,0,-1,0
-168.85,16.65,-20.35,2344,-2760,7397,0,-1,0
-168.85,16.65,-20.35,2335,-2766,7387,0,-1,0
-168.86,16.66,-20.34,2335,-2760,7393,0,-1,0
-168.86,16.66,-20.33,2337,-2750,7399,0,-1,0
-168.86,16.66,-20.33,2345,-2750,7400,0,-1,0
-168.86,16.66,-20.32,2338,-2744,7396,0,-1,0
-168.86,16.67,-20.32,2340,-2750,7405,0,-1,0
-168.86,16.67,-20.32,2338,-2748,7396,-1,-1,0
-168.87,16.68,-20.31,2339,-2755,7381,0,-1,0
-168.87,16.68,-20.31,2336,-2749,7376,0,-1,0
-168.87,16.68,-20.32,2347,-2764,7373,0,-1,-1
-168.87,16.68,-20.32,2343,-2760,7388,0,-1,-1
-168.88,16.68,-20.31,2333,-2753,7384,0,-1,0
-168.88,16.68,-20.30,2345,-2751,7384,0,-1,0
-168.88,16.69,-20.30,2347,-2755,7385,0,-1,0
-168.88,16.69,-20.30,2353,-2750,7388,0,-1,0
-168.88,16.69,-20.29,2350,-2745,7388,0,-1,0
-168.89,16.69,-20.29,2353,-2746,7399,0,-1,0
-168.89,16.69,-20.28,2343,-2743,7396,0,0,0
-168.89,16.69,-20.28,2354,-2747,7396,0,-1,0
-168.90,16.69,-20.27,2347,-2747,7400,0,-1,0
-168.90,16.69,-20.27,2344,-2744,7401,0,-1,-1
-168.90,16.70,-20.27,2343,-2748,7393,0,-1,-1
-168.90,16.70,-20.27,2352,-2746,7388,0,-1,0
-168.90,16.70,-20.27,2350,-2749,7397,0,-1,-1
-168.90,16.70,-20.26,2355,-2743,7395,0,-1,0
-168.90,16.70,-20.26,2356,-2744,7400,0,-1,0
-168.90,16.71,-20.26,2360,-2745,7402,0,-1,-1
-168.91,16.71,-20.26,2355,-2741,7401,0,-1,0
-168.91,16.71,-20.25,2348,-2743,7395,0,-1,-1
-168.91,16.71,-20.25,2340,-2745,7381,0,-1,-1
-168.92,16.71,-20.25,2343,-2749,7390,0,-1,-1
-168.91,16.72,-20.24,2352,-2743,7399,0,-1,0
-168.92,16.73,-20.24,2353,-2733,7398,0,-1,0
-168.92,16.73,-20.24,2356,-2724,7401,0,-1,0
-168.92,16.73,-20.24,2357,-2736,7401,0,0,0
-168.93,16.72,-20.24,2349,-2740,7386,-1,-1,0
-168.93,16.72,-20.24,2357,-2753,7391,0,-1,-1
-168.93,16.72,-20.24,2349,-2742,7405,0,0,0
-168.93,16.72,-20.24,2338,-2740,7403,0,-1,-1
-168.93,16.72,-20.24,2343,-2737,7392,-1,-1,-1
-168.93,16.72,-20.24,2357,-2743,7391,0,-1,-1
-168.93,16.72,-20.24,2362,-2738,7388,0,0,0
-168.93,16.72,-20.24,2354,-2737,7395,0,0,0
-168.93,16.72,-20.24,2350,-2739,7401,-1,0,0
-168.93,16.71,-20.24,2347,-2735,7393,-1,-1,0
-168.94,16.72,-20.24,2349,-2747,7390,-1,-1,-1
-168.94,16.72,-20.24,2347,-2747,7397,-1,-1,0
-168.94,16.71,-20.25,2349,-2750,7401,0,0,0
-168.94,16.71,-20.25,2346,-2745,7395,-1,0,0
-168.94,16.70,-20.25,2349,-2740,7398,0,0,-1
-168.94,16.69,-20.24,2343,-2739,7402,0,0,0
-168.94,16.69,-20.24,2341,-2737,7393,0,0,-1
-168.94,16.68,-20.24,2337,-2732,7388,0,0,-1
-168.94,16.68,-20.24,2333,-2732,7402,0,0,0
-168.95,16.67,-20.24,2336,-2740,7405,0,0,-1
-168.95,16.67,-20.24,2340,-2740,7409,0,0,-1
-168.95,16.67,-20.24,2345,-2741,7408,-1,0,0
-168.95,16.66,-20.25,2345,-2743,7400,-1,0,0
-168.95,16.65,-20.26,2346,-2747,7398,-1,0,0
-168.95,16.65,-20.26,2346,-2751,7400,-1,0,-1
-168.95,16.65,-20.27,2345,-2757,7400,-1,-1,-1
-168.95,16.65,-20.27,2352,-2758,7393,-1,0,0
-168.95,16.64,-20.28,2345,-2748,7386,-1,0,0
-168.95,16.63,-20.29,2350,-2761,7380,-1,0,-1
-168.95,16.63,-20.29,2352,-2755,7401,0,0,0
-168.95,16.62,-20.29,2342,-2750,7397,0,0,0
-168.95,16.61,-20.29,2328,-2746,7392,-1,0,-1
-168.95,16.61,-20.29,2332,-2745,7393,-1,0,-1
-168.95,16.60,-20.29,2336,-2746,7396,-1,0,0
-168.95,16.59,-20.30,2336,-2748,7395,-1,0,0
-168.95,16.59,-20.30,2340,-2753,7400,-1,0,0
-168.95,16.58,-20.30,2333,-2749,7399,0,0,0
-168.95,16.57,-20.31,2327,-2753,7392,-1,0,0
-168.96,16.57,-20.32,2334,-2758,7394,-1,0,0
-168.95,16.56,-20.32,2327,-2755,7393,-1,0,-1
-168.95,16.56,-20.33,2326,-2758,7386,-1,0,0
-168.95,16.55,-20.34,2331,-2767,7393,-1,0,-1
-168.95,16.54,-20.35,2317,-2763,7393,-1,0,0
-168.95,16.52,-20.35,2314,-2766,7393,-1,0,-1
-168.95,16.52,-20.36,2313,-2766,7393,-1,0,-1
-168.95,16.50,-20.36,2310,-2764,7393,-1,0,-1
-168.95,16.49,-20.36,2315,-2749,7407,0,0,0
-168.95,16.49,-20.36,2319,-2753,7415,-1,0,0
-168.95,16.49,-20.37,2320,-2763,7410,-1,0,0
-168.96,16.47,-20.37,2323,-2767,7415,-1,0,0
-168.96,16.47,-20.38,2311,-2766,7400,-1,0,0
-168.96,16.45,-20.39,2301,-2761,7395,-1,0,0
-168.96,16.45,-20.39,2297,-2764,7389,-1,0,0
-168.95,16.45,-20.39,2302,-2768,7387,-1,0,-1
-168.95,16.45,-20.40,2315,-2761,7383,-1,-1,-1
-168.95,16.45,-20.41,2316,-2764,7385,-1,0,-1
-168.95,16.44,-20.41,2310,-2771,7395,-1,0,-1
-168.96,16.43,-20.42,2323,-2775,7400,0,0,-1
-168.96,16.42,-20.42,2319,-2764,7407,-1,0,0
-168.95,16.42,-20.41,2309,-2759,7389,-1,0,0
-168.95,16.42,-20.43,2315,-2762,7388,-1,-1,0
-168.95,16.41,-20.44,2312,-2767,7386,-1,0,0
-168.96,16.40,-20.45,2307,-2773,7388,-1,0,0
-168.95,16.40,-20.45,2309,-2786,7390,-1,0,0
-168.96,16.40,-20.46,2308,-2787,7387,-1,0,0
-168.96,16.38,-20.46,2301,-2784,7395,-1,0,0
-168.95,16.38,-20.47,2305,-2784,7393,-1,0,-1
-168.96,16.38,-20.47,2304,-2777,7397,0,0,0
-168.96,16.37,-20.47,2304,-2774,7394,0,0,-1
-168.96,16.37,-20.47,2307,-2776,7400,0,-1,-1
-168.96,16.36,-20.47,2308,-2774,7407,-1,0,0
-168.96,16.36,-20.47,2305,-2769,7404,-1,0,0
-168.96,16.36,-20.48,2301,-2775,7401,-1,-1,-1
-168.96,16.36,-20.49,2301,-2777,7398,-1,-1,0
-168.96,16.36,-20.49,2298,-2777,7399,-1,0,0
-168.96,16.36,-20.50,2302,-2786,7402,-1,-1,0
-168.95,16.36,-20.51,2299,-2787,7388,-1,-1,0
-168.96,16.36,-20.51,2293,-2788,7381,0,-1,0
-168.96,16.36,-20.51,2296,-2784,7390,0,-1,0
-168.96,16.36,-20.50,2298,-2782,7401,0,-1,-1
-168.96,16.36,-20.50,2299,-2783,7399,0,-1,0
-168.97,16.36,-20.50,2299,-2781,7399,0,-1,0
-168.97,16.36,-20.50,2293,-2782,7400,0,-1,-1
-168.97,16.37,-20.49,2300,-2783,7396,0,-1,-1
-168.97,16.37,-20.48,2293,-2772,7404,0,-1,0
-168.97,16.38,-20.48,2303,-2776,7393,0,-1,0
-168.98,16.38,-20.48,2290,-2772,7405,0,-1,0
-168.98,16.39,-20.48,2298,-2776,7396,0,-1,-1
-168.98,16.39,-20.48,2301,-2772,7410,0,-1,0
-168.99,16.39,-20.48,2289,-2780,7406,0,-1,-1
-168.98,16.39,-20.48,2294,-2784,7397,0,-1,-1
-168.98,16.41,-20.48,2303,-2781,7379,0,-1,0
-168.99,16.41,-20.47,2310,-2779,7388,0,-1,0
-168.99,16.42,-20.47,2321,-2771,7395,0,-1,0
-168.99,16.44,-20.46,2329,-2777,7395,0,-1,0
-169.00,16.44,-20.46,2323,-2784,7398,0,-1,0
-169.00,16.44,-20.46,2303,-2778,7401,0,-1,0
-169.00,16.44,-20.46,2303,-2781,7400,0,-1,-1
-169.00,16.45,-20.45,2299,-2774,7400,0,-1,0
-169.01,16.45,-20.45,2308,-2766,7390,0,-1,-1
-169.01,16.46,-20.45,2308,-2763,7389,0,-1,-1
-169.01,16.47,-20.44,2317,-2769,7392,0,-1,0
-169.01,16.47,-20.43,2317,-2772,7401,0,0,0
-169.01,16.47,-20.43,2320,-2769,7408,0,-1,-1
-169.01,16.47,-20.43,2318,-2760,7410,0,-1,0
-169.01,16.47,-20.43,2321,-2764,7401,-1,-1,0
-169.01,16.48,-20.43,2319,-2768,7390,-1,-1,0
-169.02,16.49,-20.43,2319,-2774,7389,0,-1,0
-169.01,16.49,-20.44,2317,-2777,7388,0,-1,0
-169.01,16.49,-20.43,2318,-2774,7386,0,-1,0
-169.02,16.50,-20.43,2321,-2775,7391,0,-1,0
-169.02,16.50,-20.43,2328,-2772,7401,0,-1,0
-169.03,16.51,-20.42,2331,-2768,7402,0,-1,0
-169.03,16.51,-20.42,2324,-2765,7392,0,-1,0
-169.03,16.52,-20.42,2324,-2762,7394,0,-1,0
-169.03,16.52,-20.42,2319,-2765,7399,0,-1,0
-169.03,16.52,-20.41,2324,-2762,7399,0,-1,0
-169.04,16.53,-20.40,2333,-2761,7409,0,-1,0
-169.04,16.53,-20.40,2331,-2764,7407,-1,-1,0
-169.03,16.54,-20.40,2331,-2768,7399,-1,-1,0
-169.04,16.54,-20.40,2324,-2759,7401,0,-1,0
-169.04,16.55,-20.40,2332,-2769,7386,0,-1,-1
-169.04,16.55,-20.40,2332,-2758,7398,0,-1,0
-169.04,16.55,-20.39,2329,-2753,7403,0,-1,-1
-169.05,16.55,-20.39,2331,-2753,7394,0,-1,0
-169.04,16.56,-20.39,2335,-2763,7389,0,-1,0
-169.04,16.56,-20.39,2334,-2759,7387,0,-1,0
-169.05,16.56,-20.38,2337,-2761,7394,0,-1,0
-169.05,16.56,-20.38,2331,-2759,7395,0,0,0
-169.05,16.56,-20.38,2332,-2758,7396,0,-1,0
-169.05,16.56,-20.38,2329,-2753,7400,0,-1,0
-169.05,16.56,-20.38,2336,-2754,7400,0,-1,0
-169.05,16.57,-20.37,2336,-2755,7400,0,-1,-1
-169.06,16.57,-20.37,2334,-2754,7395,0,-1,0
-169.06,16.57,-20.37,2327,-2757,7394,-1,-1,0
-169.06,16.58,-20.37,2330,-2765,7393,0,-1,0
-169.06,16.58,-20.37,2338,-2765,7390,0,-1,-1
-169.06,16.58,-20.37,2335,-2765,7392,0,-1,-1
-169.06,16.58,-20.36,2338,-2759,7388,0,-1,0
-169.06,16.59,-20.36,2348,-2762,7393,0,-1,0
-169.07,16.59,-20.36,2348,-2764,7407,0,-1,0
-169.07,16.59,-20.36,2342,-2766,7404,0,0,0
-169.07,16.59,-20.36,2339,-2765,7394,0,0,0
-169.08,16.59,-20.37,2333,-2761,7396,0,-1,0
-169.08,16.59,-20.37,2333,-2757,7393,0,-1,0
-169.07,16.59,-20.37,2334,-2760,7394,0,-1,-1
-169.07,16.59,-20.37,2334,-2759,7397,0,-1,0
-169.07,16.59,-20.36,2342,-2761,7397,0,-1,-1
-169.07,16.60,-20.36,2348,-2760,7392,0,0,0
-169.08,16.60,-20.36,2350,-2753,7397,0,0,0
-169.08,16.60,-20.36,2344,-2745,7407,-1,-1,0
-169.08,16.60,-20.35,2343,-2743,7410,-1,-1,0
-169.08,16.60,-20.36,2344,-2746,7403,-1,-1,0
-169.08,16.61,-20.36,2350,-2748,7394,-1,-1,0
-169.08,16.61,-20.36,2343,-2757,7394,0,0,-1
-169.09,16.60,-20.36,2337,-2759,7387,-1,-1,-1
-169.08,16.61,-20.36,2345,-2761,7401,0,-1,0
-169.09,16.61,-20.35,2340,-2749,7403,0,0,-1
-169.09,16.60,-20.35,2338,-2747,7394,0,0,-1
-169.09,16.60,-20.35,2344,-2748,7375,0,-1,-1
-169.09,16.61,-20.35,2338,-2744,7382,0,-1,-1
-169.09,16.61,-20.34,2340,-2747,7400,0,-1,0
-169.09,16.61,-20.34,2347,-2751,7401,0,-1,0
-169.09,16.61,-20.34,2349,-2751,7396,-1,-1,0
-169.09,16.61,-20.34,2344,-2742,7395,-1,-1,-1
-169.09,16.62,-20.35,2351,-2750,7383,-1,-1,0
-169.09,16.62,-20.35,2353,-2749,7392,0,0,0
-169.09,16.62,-20.35,2346,-2746,7393,0,-1,0
-169.09,16.62,-20.35,2349,-2747,7396,0,-1,0
-169.09,16.62,-20.34,2350,-2746,7397,0,-1,0
-169.10,16.62,-20.34,2357,-2742,7400,0,0,0
-169.10,16.62,-20.34,2351,-2743,7383,0,0,0
-169.10,16.62,-20.34,2346,-2745,7390,0,-1,0
-169.10,16.62,-20.33,2341,-2748,7391,0,-1,-1
-169.10,16.62,-20.33,2342,-2747,7391,0,-1,-1
-169.10,16.62,-20.33,2343,-2752,7393,0,-1,-1
-169.10,16.62,-20.33,2351,-2751,7390,0,-1,-1
-169.10,16.62,-20.33,2351,-2744,7391,0,-1,-1
-169.10,16.62,-20.32,2353,-2736,7391,0,-1,0
-169.10,16.62,-20.32,2347,-2737,7400,0,-1,0
-169.10,16.62,-20.32,2343,-2743,7406,0,-1,-1
-169.10,16.63,-20.32,2344,-2745,7403,-1,-1,0
-169.10,16.62,-20.32,2345,-2742,7392,0,-1,0
-169.10,16.63,-20.33,2348,-2752,7393,0,0,0
-169.11,16.62,-20.33,2342,-2758,7387,0,0,-1
-169.11,16.62,-20.33,2345,-2756,7379,0,-1,-1
-169.11,16.62,-20.33,2344,-2746,7385,0,0,-1
-169.11,16.62,-20.31,2338,-2733,7396,0,-1,0
-169.11,16.63,-20.31,2360,-2736,7402,0,-1,0
-169.11,16.63,-20.31,2360,-2731,7394,-1,0,0
-169.12,16.62,-20.31,2345,-2730,7392,-1,0,0
-169.11,16.62,-20.32,2343,-2742,7381,-1,-1,0
-169.11,16.62,-20.32,2331,-2748,7380,0,-1,0
-169.11,16.62,-20.32,2333,-2744,7381,0,-1,0
-169.11,16.63,-20.32,2345,-2744,7383,0,-1,-1
-169.11,16.63,-20.32,2350,-2738,7381,0,-1,-1
-169.11,16.63,-20.31,2343,-2729,7393,0,0,-1
-169.11,16.63,-20.31,2346,-2735,7392,0,0,-1
-169.12,16.62,-20.31,2348,-2732,7393,0,-1,0
-169.12,16.62,-20.30,2350,-2727,7386,-1,-1,0
-169.12,16.63,-20.31,2349,-2738,7389,-1,-1,0
-169.12,16.63,-20.31,2353,-2737,7396,-1,0,0
-169.12,16.63,-20.31,2350,-2744,7392,0,-1,0
-169.12,16.63,-20.31,2355,-2746,7390,0,-1,0
-169.12,16.63,-20.31,2353,-2739,7388,0,-1,-1
-169.12,16.63,-20.31,2352,-2733,7388,0,-1,0
-169.13,16.63,-20.31,2346,-2741,7390,0,0,0
-169.13,16.63,-20.31,2346,-2749,7392,0,0,0
-169.13,16.63,-20.31,2353,-2755,7389,0,0,0
-169.13,16.63,-20.30,2351,-2739,7393,0,-1,-1
-169.13,16.63,-20.30,2348,-2739,7404,0,-1,0
-169.13,16.63,-20.29,2355,-2737,7399,0,0,0
-169.13,16.63,-20.29,2357,-2735,7394,-1,-1,0
-169.13,16.63,-20.29,2354,-2738,7392,-1,-1,0
-169.13,16.64,-20.30,2350,-2741,7395,-1,0,0
-169.13,16.64,-20.30,2349,-2741,7394,-1,-1,0
-169.13,16.64,-20.30,2347,-2740,7393,-1,-1,0
-169.13,16.64,-20.31,2340,-2739,7384,-1,-1,0
-169.13,16.64,-20.31,2355,-2747,7376,-1,-1,-1
-169.13,16.64,-20.30,2355,-2736,7388,0,0,0
-169.13,16.63,-20.30,2341,-2735,7385,0,0,-1
-169.13,16.63,-20.30,2345,-2738,7385,0,-1,-1
-169.13,16.63,-20.29,2350,-2735,7390,0,-1,0
-169.13,16.63,-20.29,2350,-2733,7392,0,-1,-1
-169.13,16.64,-20.29,2351,-2737,7397,-1,0,0
-169.13,16.63,-20.29,2353,-2744,7395,0,0,-1
-169.13,16.63,-20.29,2357,-2742,7396,0,0,0
-169.13,16.63,-20.29,2351,-2742,7394,-1,-1,0
-169.13,16.64,-20.29,2359,-2742,7394,0,-1,0
-169.13,16.64,-20.29,2354,-2737,7393,-1,0,0
-169.13,16.64,-20.29,2356,-2738,7399,-1,-1,0
-169.14,16.64,-20.29,2363,-2735,7396,0,0,0
-169.13,16.64,-20.29,2355,-2737,7387,-1,0,-1
-169.13,16.64,-20.30,2349,-2746,7382,-1,-1,-1
-169.13,16.64,-20.29,2348,-2747,7376,0,0,-1
-169.13,16.64,-20.29,2351,-2745,7381,0,-1,0
-169.13,16.64,-20.29,2360,-2731,7388,0,-1,0
-169.13,16.64,-20.29,2361,-2730,7394,-1,0,0
-169.13,16.64,-20.29,2359,-2737,7400,-1,0,0
-169.14,16.63,-20.29,2345,-2742,7393,-1,0,0
-169.14,16.63,-20.29,2337,-2744,7384,-1,-1,0
-169.14,16.63,-20.30,2339,-2744,7392,-1,-1,-1
-169.14,16.62,-20.30,2335,-2746,7384,-1,-1,0
-169.14,16.62,-20.30,2340,-2750,7374,0,0,-1
-169.13,16.63,-20.30,2352,-2744,7379,0,0,-1
-169.14,16.62,-20.30,2353,-2736,7387,0,0,-1
-169.14,16.62,-20.29,2356,-2735,7394,0,0,0
-169.14,16.62,-20.29,2347,-2725,7398,-1,0,0
-169.14,16.62,-20.30,2358,-2741,7400,-1,-1,0
-169.14,16.62,-20.31,2361,-2734,7399,-1,0,0
-169.13,16.61,-20.31,2359,-2728,7398,-1,0,0
-169.13,16.61,-20.31,2357,-2738,7388,-1,0,-1
-169.13,16.61,-20.31,2355,-2743,7392,-1,0,0
-169.13,16.60,-20.32,2353,-2747,7392,-1,0,0
-169.13,16.59,-20.32,2350,-2745,7392,-1,0,-1
-169.13,16.59,-20.32,2351,-2750,7392,0,0,0
-169.13,16.58,-20.32,2348,-2750,7389,0,0,0
-169.13,16.58,-20.32,2337,-2734,7400,-1,0,-1
-169.13,16.58,-20.32,2343,-2731,7402,0,0,-1
-169.13,16.57,-20.31,2348,-2724,7392,-1,0,-1
-169.13,16.56,-20.32,2350,-2719,7391,-1,0,-1
-169.13,16.56,-20.33,2350,-2734,7397,-1,0,0
-169.12,16.56,-20.33,2346,-2738,7406,-1,0,0
-169.12,16.55,-20.33,2341,-2745,7410,-1,0,0
-169.12,16.54,-20.34,2336,-2746,7403,-1,0,0
-169.12,16.54,-20.35,2337,-2746,7401,-1,0,0
-169.12,16.53,-20.36,2334,-2749,7398,-1,0,0
-169.12,16.52,-20.36,2333,-2749,7398,-1,0,0
-169.13,16.52,-20.36,2332,-2754,7399,-1,0,0
-169.12,16.51,-20.37,2331,-2746,7399,-1,0,-1
-169.12,16.50,-20.37,2326,-2752,7403,-1,0,-1
-169.12,16.50,-20.37,2333,-2749,7395,-1,0,0
-169.12,16.49,-20.37,2331,-2747,7389,-1,0,0
-169.12,16.48,-20.38,2322,-2743,7390,-1,0,0
-169.12,16.48,-20.38,2337,-2763,7389,-1,0,-1
-169.12,16.48,-20.38,2343,-2756,7407,0,0,0
-169.12,16.47,-20.38,2339,-2747,7403,-1,0,0
-169.12,16.46,-20.39,2340,-2745,7395,-1,0,-1
-169.11,16.46,-20.40,2337,-2743,7396,-1,0,-1
-169.12,16.45,-20.40,2336,-2744,7384,-1,0,0
-169.11,16.45,-20.40,2334,-2748,7385,-1,0,-1
-169.11,16.44,-20.41,2326,-2750,7391,-1,0,0
-169.11,16.43,-20.42,2315,-2755,7390,-1,0,0
-169.11,16.42,-20.42,2313,-2765,7397,-1,0,-1
-169.11,16.42,-20.42,2323,-2762,7400,0,0,-1
-169.11,16.42,-20.42,2321,-2751,7390,-1,0,-1
-169.11,16.41,-20.42,2326,-2752,7403,-1,0,0
-169.10,16.40,-20.43,2327,-2754,7408,-1,0,0
-169.10,16.40,-20.44,2331,-2765,7401,-1,0,0
-169.10,16.39,-20.44,2328,-2764,7397,-1,0,0
-169.11,16.38,-20.45,2310,-2767,7398,-1,0,0
-169.11,16.36,-20.46,2308,-2768,7393,-1,0,-1
-169.10,16.36,-20.46,2310,-2766,7393,-1,0,-1
-169.10,16.36,-20.47,2311,-2764,7394,-1,0,-1
-169.10,16.35,-20.48,2315,-2774,7393,-1,0,-1
-169.10,16.35,-20.48,2318,-2768,7402,-1,0,0
-169.10,16.34,-20.49,2326,-2771,7402,-1,0,-1
-169.09,16.33,-20.48,2323,-2760,7404,-1,0,0
-169.09,16.33,-20.49,2324,-2754,7412,-1,0,0
-169.09,16.33,-20.50,2318,-2756,7401,-1,0,0
-169.09,16.32,-20.51,2308,-2761,7394,-1,0,0
-169.09,16.31,-20.53,2307,-2778,7390,-1,0,-1
-169.09,16.31,-20.54,2312,-2781,7385,-1,0,0
-169.09,16.30,-20.54,2301,-2775,7389,-1,0,-1
-169.09,16.29,-20.54,2299,-2782,7390,-1,0,-1
-169.08,16.28,-20.55,2302,-2784,7385,-1,0,-1
-169.09,16.28,-20.55,2300,-2772,7387,-1,0,0
-169.09,16.27,-20.55,2313,-2769,7385,-1,0,-1
-169.08,16.26,-20.56,2314,-2781,7394,-1,0,-1
-169.08,16.26,-20.56,2303,-2778,7402,-1,0,-1
-169.08,16.25,-20.56,2293,-2764,7409,-1,0,0
-169.08,16.25,-20.57,2300,-2765,7401,-1,0,-1
-169.07,16.25,-20.58,2302,-2773,7399,-1,0,0
-169.08,16.25,-20.58,2299,-2778,7398,-1,0,0
-169.08,16.24,-20.60,2298,-2788,7407,-1,0,-1
-169.08,16.23,-20.60,2297,-2791,7395,-1,0,0
-169.08,16.23,-20.60,2291,-2790,7392,-1,0,0
-169.07,16.23,-20.61,2290,-2793,7391,-1,0,0
-169.07,16.23,-20.62,2291,-2792,7385,-1,0,0
-169.07,16.22,-20.62,2291,-2786,7398,-1,-1,-1
-169.07,16.22,-20.62,2296,-2784,7400,-1,0,0
-169.07,16.22,-20.62,2302,-2787,7396,-1,0,-1
-169.07,16.23,-20.62,2303,-2789,7387,0,-1,0
-169.07,16.23,-20.62,2303,-2785,7396,0,-1,0
-169.07,16.23,-20.61,2309,-2781,7404,0,-1,0
-169.07,16.24,-20.61,2299,-2779,7396,0,-1,0
-169.07,16.25,-20.61,2292,-2783,7396,0,-1,0
-169.08,16.25,-20.61,2285,-2783,7383,-1,-1,-1
-169.08,16.26,-20.61,2304,-2793,7397,0,-1,0
-169.08,16.27,-20.60,2296,-2784,7393,0,-1,0
-169.07,16.27,-20.60,2296,-2779,7393,0,-1,-1
-169.08,16.28,-20.59,2297,-2781,7382,0,-1,-1
-169.08,16.30,-20.59,2298,-2788,7384,0,-1,0
-169.08,16.30,-20.59,2300,-2788,7387,0,-1,0
-169.08,16.31,-20.58,2308,-2790,7386,0,-1,-1
-169.08,16.32,-20.58,2311,-2793,7378,0,-1,-1
-169.09,16.32,-20.57,2293,-2773,7378,0,-1,-1
-169.08,16.34,-20.57,2299,-2777,7381,0,-1,-1
-169.09,16.35,-20.55,2309,-2773,7404,0,-1,0
-169.09,16.36,-20.54,2324,-2771,7404,0,-1,0
-169.09,16.37,-20.55,2318,-2775,7402,0,-1,0
-169.09,16.37,-20.54,2321,-2779,7397,0,-1,0
-169.10,16.37,-20.54,2317,-2772,7393,0,-1,0
-169.10,16.38,-20.53,2308,-2770,7392,0,-1,-1
-169.10,16.39,-20.52,2306,-2770,7395,0,-1,-1
-169.10,16.40,-20.53,2304,-2774,7383,0,-1,-1
-169.10,16.41,-20.53,2317,-2776,7385,0,-1,-1
-169.10,16.43,-20.52,2331,-2779,7386,0,-1,-1
-169.10,16.43,-20.50,2338,-2774,7395,0,-1,0
-169.10,16.44,-20.50,2336,-2761,7389,0,-1,0
-169.10,16.44,-20.49,2329,-2757,7396,0,-1,0
-169.11,16.45,-20.49,2335,-2756,7392,0,-1,0
-169.10,16.46,-20.49,2331,-2770,7398,-1,-1,0
-169.11,16.47,-20.49,2326,-2776,7386,0,-1,-1
-169.11,16.48,-20.49,2335,-2774,7387,0,-1,0
-169.11,16.48,-20.48,2329,-2768,7392,0,-1,0
-169.11,16.49,-20.47,2330,-2766,7396,0,-1,0
-169.12,16.50,-20.46,2328,-2765,7397,0,-1,0
-169.12,16.50,-20.46,2327,-2767,7391,0,-1,0
-169.12,16.51,-20.45,2342,-2769,7395,0,-1,-1
-169.13,16.51,-20.44,2327,-2755,7399,0,-1,-1
-169.13,16.51,-20.44,2328,-2753,7397,0,-1,-1
-169.12,16.53,-20.43,2336,-2749,7395,0,-1,-1
-169.12,16.53,-20.43,2342,-2753,7397,0,-1,0
-169.13,16.54,-20.43,2350,-2755,7400,-1,-1,0
-169.13,16.54,-20.43,2348,-2764,7400,-1,-1,0
-169.13,16.55,-20.43,2342,-2761,7401,0,-1,0
-169.13,16.54,-20.42,2335,-2761,7383,0,-1,0
-169.13,16.55,-20.42,2344,-2763,7384,0,-1,0
-169.13,16.56,-20.42,2352,-2754,7398,0,-1,0
-169.13,16.56,-20.41,2351,-2751,7401,0,-1,-1
-169.14,16.57,-20.40,2348,-2758,7402,0,-1,0
-169.14,16.57,-20.40,2348,-2754,7393,0,-1,0
-169.14,16.58,-20.39,2349,-2748,7392,0,-1,-1
-169.14,16.58,-20.38,2352,-2749,7388,0,-1,0
-169.14,16.57,-20.38,2341,-2756,7388,0,-1,-1
-169.14,16.58,-20.38,2341,-2755,7390,0,-1,-1
-169.14,16.58,-20.37,2344,-2755,7392,0,-1,0
-169.14,16.59,-20.37,2349,-2749,7396,0,-1,0
-169.15,16.59,-20.37,2348,-2743,7395,0,-1,0
-169.15,16.59,-20.37,2346,-2742,7392,0,-1,0
-169.15,16.59,-20.36,2342,-2741,7394,0,-1,0
-169.15,16.59,-20.36,2345,-2743,7383,0,-1,0
-169.15,16.60,-20.36,2346,-2752,7389,0,-1,-1
-169.15,16.60,-20.36,2341,-2755,7389,0,-1,-1
-169.15,16.60,-20.35,2343,-2742,7390,0,-1,-1
-169.16,16.61,-20.35,2353,-2744,7391,0,-1,0
-169.16,16.61,-20.35,2346,-2740,7399,0,0,0
-169.16,16.61,-20.34,2346,-2745,7394,-1,-1,0
-169.15,16.61,-20.34,2359,-2746,7405,0,-1,0
-169.15,16.61,-20.34,2350,-2744,7395,0,0,-1
-169.16,16.61,-20.34,2338,-2750,7385,0,-1,-1
-169.16,16.61,-20.33,2342,-2743,7380,0,-1,-1
-169.15,16.62,-20.33,2351,-2736,7397,0,-1,0
-169.16,16.62,-20.32,2362,-2735,7405,0,-1,0
-169.16,16.62,-20.33,2369,-2740,7397,-1,0,0
-169.16,16.62,-20.33,2354,-2746,7393,-1,0,0
-169.16,16.62,-20.32,2342,-2740,7396,-1,-1,0
-169.16,16.62,-20.33,2340,-2747,7395,0,-1,-1
-169.17,16.61,-20.32,2341,-2740,7390,0,-1,-1
-169.17,16.62,-20.32,2341,-2738,7395,0,-1,-1
-169.17,16.62,-20.31,2349,-2746,7394,0,-1,0
-169.17,16.63,-20.31,2362,-2751,7404,0,0,0
-169.17,16.63,-20.31,2363,-2749,7406,0,0,0
-169.17,16.62,-20.31,2360,-2742,7406,-1,-1,0
-169.17,16.63,-20.31,2352,-2738,7402,-1,-1,0
-169.17,16.63,-20.31,2353,-2738,7400,-1,-1,0
-169.17,16.63,-20.31,2351,-2737,7398,-1,-1,0
-169.17,16.64,-20.31,2364,-2736,7397,-1,-1,0
-169.17,16.63,-20.31,2359,-2746,7391,0,0,0
-169.17,16.63,-20.31,2350,-2746,7389,0,-1,0
-169.17,16.63,-20.31,2349,-2739,7388,0,-1,0
-169.17,16.63,-20.31,2347,-2734,7385,0,-1,0
-169.17,16.63,-20.31,2352,-2732,7388,0,0,-1
-169.17,16.63,-20.30,2355,-2739,7396,0,-1,0
-169.18,16.64,-20.30,2351,-2735,7395,0,-1,0
-169.18,16.64,-20.29,2353,-2726,7398,0,-1,0
-169.18,16.64,-20.29,2358,-2728,7410,0,0,0
-169.18,16.64,-20.29,2354,-2732,7395,-1,-1,0
-169.18,16.65,-20.29,2360,-2735,7396,-1,0,0
-169.18,16.65,-20.29,2354,-2734,7397,-1,-1,0
-169.18,16.65,-20.30,2370,-2757,7405,0,-1,0
-169.18,16.65,-20.30,2361,-2748,7404,0,0,0
-169.18,16.64,-20.30,2352,-2742,7405,-1,0,0
-169.18,16.65,-20.30,2357,-2740,7390,0,-1,-1
-169.18,16.65,-20.30,2359,-2734,7392,0,0,0
-169.19,16.65,-20.30,2362,-2735,7403,0,0,0
-169.18,16.64,-20.29,2358,-2735,7402,-1,0,0
-169.18,16.64,-20.29,2354,-2734,7396,0,0,-1
-169.18,16.63,-20.29,2347,-2731,7401,0,0,0
-169.18,16.63,-20.29,2351,-2736,7401,-1,-1,-1
-169.18,16.63,-20.29,2354,-2729,7402,-1,0,0
-169.18,16.63,-20.29,2350,-2726,7392,-1,0,0
-169.18,16.63,-20.29,2358,-2742,7395,-1,0,0
-169.18,16.63,-20.30,2357,-2738,7402,-1,0,0
-169.18,16.63,-20.30,2353,-2737,7403,-1,0,0
-169.18,16.62,-20.30,2347,-2737,7405,-1,0,-1
-169.18,16.62,-20.30,2346,-2735,7403,-1,0,0
-169.19,16.61,-20.30,2346,-2738,7407,-1,0,0
-169.18,16.61,-20.31,2348,-2741,7405,-1,0,-1
-169.18,16.61,-20.31,2354,-2740,7407,-1,0,0
-169.18,16.60,-20.31,2346,-2740,7404,-1,0,-1
-169.18,16.59,-20.31,2346,-2746,7405,-1,0,-1
-169.18,16.59,-20.31,2348,-2745,7409,0,0,-1
-169.18,16.58,-20.31,2342,-2739,7406,0,0,-1
-169.18,16.58,-20.31,2355,-2737,7404,-1,0,0
-169.18,16.57,-20.31,2350,-2732,7407,-1,0,0
-169.17,16.57,-20.32,2354,-2745,7398,-1,0,-1
-169.17,16.57,-20.33,2358,-2748,7405,-1,0,0
-169.17,16.55,-20.33,2346,-2747,7403,-1,0,-1
-169.18,16.55,-20.33,2333,-2744,7392,-1,0,-1
-169.17,16.54,-20.34,2334,-2748,7384,-1,0,-1
-169.17,16.54,-20.34,2338,-2742,7384,-1,0,-1
-169.17,16.54,-20.34,2342,-2747,7384,-1,0,-1
-169.17,16.53,-20.35,2344,-2759,7397,-1,0,-1
-169.17,16.52,-20.34,2334,-2750,7403,0,0,0
-169.17,16.52,-20.35,2328,-2742,7407,-1,0,0
-169.17,16.52,-20.35,2330,-2741,7413,-1,0,0
-169.17,16.51,-20.35,2341,-2738,7405,-1,0,-1
-169.16,16.51,-20.36,2348,-2743,7400,-1,0,-1
-169.16,16.50,-20.37,2341,-2744,7402,-1,0,0
-169.17,16.49,-20.37,2333,-2748,7397,-1,0,0
-169.17,16.48,-20.37,2330,-2753,7401,-1,0,0
-169.17,16.47,-20.38,2324,-2755,7397,-1,0,0
-169.17,16.46,-20.38,2324,-2759,7399,-1,0,0
-169.16,16.46,-20.39,2325,-2756,7402,-1,0,0
-169.17,16.45,-20.39,2323,-2757,7408,-1,0,-1
-169.17,16.44,-20.39,2324,-2751,7406,-1,0,-1
-169.16,16.43,-20.39,2321,-2752,7414,-1,0,0
-169.16,16.42,-20.39,2321,-2750,7411,-1,0,-1
-169.17,16.42,-20.39,2325,-2749,7420,-1,0,0
-169.17,16.41,-20.40,2323,-2747,7414,-1,0,0
-169.16,16.41,-20.42,2325,-2750,7403,-1,0,0
-169.16,16.39,-20.43,2310,-2759,7397,-1,0,0
-169.16,16.39,-20.44,2324,-2778,7397,-1,0,0
-169.16,16.37,-20.44,2318,-2765,7404,-1,0,-1
-169.16,16.36,-20.45,2309,-2763,7408,-1,0,-1
-169.16,16.35,-20.46,2314,-2762,7392,-1,0,0
-169.16,16.35,-20.47,2320,-2763,7390,-1,0,0
-169.15,16.34,-20.46,2317,-2757,7398,-1,0,0
-169.16,16.33,-20.46,2319,-2763,7407,-1,0,-1
-169.16,16.33,-20.47,2314,-2763,7410,-1,0,0
-169.15,16.32,-20.48,2306,-2756,7414,-1,0,0
-169.15,16.31,-20.49,2312,-2767,7400,-1,0,-1
-169.15,16.30,-20.49,2307,-2767,7398,-1,0,0
-169.15,16.30,-20.50,2308,-2760,7401,-1,0,-1
-169.15,16.29,-20.51,2313,-2766,7402,-1,0,-1
-169.15,16.28,-20.51,2314,-2766,7392,-1,0,0
-169.14,16.28,-20.52,2316,-2765,7406,-1,0,0
-169.14,16.27,-20.53,2306,-2771,7408,-1,0,-1
-169.14,16.27,-20.54,2301,-2775,7408,-1,0,-1
-169.14,16.26,-20.55,2293,-2775,7397,-1,0,-1
-169.14,16.25,-20.56,2296,-2777,7389,-1,0,-1
-169.14,16.25,-20.56,2307,-2781,7398,-1,0,0
-169.14,16.25,-20.56,2311,-2774,7394,-1,0,-1
-169.14,16.25,-20.56,2305,-2776,7394,-1,0,0
-169.14,16.23,-20.57,2296,-2776,7387,-1,0,0
-169.13,16.23,-20.59,2301,-2797,7393,-1,0,0
-169.14,16.21,-20.59,2294,-2783,7404,-1,0,0
-169.14,16.20,-20.60,2279,-2786,7397,-1,0,0
-169.13,16.20,-20.61,2282,-2787,7389,-1,0,-1
-169.13,16.20,-20.62,2289,-2780,7387,-1,0,0
-169.13,16.20,-20.62,2300,-2778,7388,-1,0,-1
-169.12,16.20,-20.63,2312,-2787,7407,-1,0,-1
-169.12,16.19,-20.63,2306,-2786,7404,-1,0,-1
-169.13,16.18,-20.63,2293,-2778,7405,-1,0,0
-169.13,16.18,-20.64,2288,-2777,7397,-1,-1,-1
-169.13,16.18,-20.65,2293,-2778,7396,-1,0,0
-169.12,16.17,-20.66,2287,-2793,7392,-1,0,0
-169.12,16.17,-20.67,2284,-2798,7394,-1,0,-1
-169.12,16.17,-20.68,2281,-2800,7386,-1,0,0
-169.12,16.16,-20.68,2278,-2802,7392,-1,0,0
-169.12,16.16,-20.69,2286,-2799,7398,-1,-1,-1
-169.12,16.16,-20.69,2287,-2797,7403,-1,0,0
-169.12,16.16,-20.69,2284,-2803,7394,-1,0,0
-169.12,16.15,-20.69,2275,-2803,7393,0,-1,0
-169.12,16.15,-20.69,2272,-2803,7396,0,-1,-1
-169.12,16.16,-20.68,2276,-2798,7406,0,-1,-1
-169.13,16.16,-20.68,2272,-2798,7400,0,-1,0
-169.12,16.16,-20.68,2271,-2787,7399,-1,-1,0
-169.12,16.17,-20.68,2292,-2804,7404,0,-1,0
-169.12,16.17,-20.68,2284,-2793,7411,0,-1,0
-169.12,16.17,-20.68,2280,-2794,7390,0,-1,-1
-169.13,16.18,-20.69,2282,-2799,7383,0,-1,-1
-169.13,16.19,-20.68,2283,-2799,7381,0,-1,0
-169.13,16.20,-20.68,2289,-2797,7388,0,-1,0
-169.13,16.20,-20.67,2297,-2804,7381,0,-1,-1
-169.13,16.21,-20.66,2293,-2803,7385,0,-1,0
-169.14,16.21,-20.66,2276,-2800,7390,0,-1,-1
-169.14,16.22,-20.65,2290,-2797,7388,0,-1,-1
-169.14,16.24,-20.64,2287,-2796,7397,0,-1,0
-169.14,16.24,-20.64,2287,-2790,7392,0,-1,-1
-169.14,16.25,-20.63,2295,-2791,7394,0,-1,-1
-169.14,16.26,-20.62,2293,-2796,7395,0,-1,0
-169.14,16.27,-20.61,2292,-2791,7405,0,-1,-1
-169.15,16.27,-20.61,2295,-2794,7399,0,-1,0
-169.15,16.29,-20.60,2298,-2787,7398,0,-1,0
-169.15,16.29,-20.60,2298,-2790,7401,0,-1,0
-169.15,16.30,-20.59,2300,-2790,7399,0,-1,-1
-169.16,16.31,-20.59,2303,-2790,7384,0,-1,-1
-169.15,16.32,-20.58,2303,-2785,7385,0,-1,0
-169.15,16.32,-20.58,2304,-2796,7382,0,-1,0
-169.16,16.33,-20.58,2303,-2791,7392,0,-1,0
-169.16,16.34,-20.56,2310,-2788,7385,0,-1,-1
-169.16,16.35,-20.55,2303,-2784,7387,0,-1,-1
-169.16,16.35,-20.55,2302,-2782,7386,0,-1,-1
-169.17,16.36,-20.56,2296,-2784,7380,0,-1,0
-169.17,16.37,-20.55,2303,-2793,7389,0,-1,-1
-169.17,16.39,-20.54,2317,-2780,7406,0,-1,0
-169.17,16.39,-20.53,2311,-2776,7401,0,-1,0
-169.18,16.39,-20.53,2307,-2779,7396,0,-1,0
-169.18,16.41,-20.53,2317,-2787,7401,0,-1,0
-169.18,16.42,-20.52,2314,-2782,7396,0,-1,0
-169.18,16.42,-20.52,2312,-2785,7391,0,-1,-1
-169.18,16.44,-20.52,2314,-2780,7395,0,-1,0
-169.19,16.44,-20.51,2313,-2781,7389,0,-1,0
-169.19,16.45,-20.50,2310,-2777,7399,0,-1,-1
-169.19,16.46,-20.50,2317,-2776,7408,0,-1,-1
-169.19,16.47,-20.48,2323,-2771,7410,0,-1,0
-169.20,16.48,-20.48,2324,-2762,7402,0,-1,0
-169.20,16.49,-20.47,2323,-2761,7414,0,-1,0
-169.20,16.49,-20.47,2324,-2762,7401,0,-1,0
-169.20,16.51,-20.46,2326,-2768,7391,0,-1,0
-169.21,16.51,-20.46,2322,-2773,7388,0,-1,0
-169.20,16.52,-20.46,2328,-2774,7398,0,-1,0
-169.21,16.52,-20.45,2326,-2765,7400,0,-1,0
-169.21,16.54,-20.44,2326,-2764,7399,0,-1,0
-169.22,16.54,-20.43,2333,-2765,7398,0,-1,0
-169.21,16.55,-20.42,2329,-2762,7395,0,-1,0
-169.22,16.55,-20.42,2328,-2761,7387,0,-1,0
-169.22,16.55,-20.41,2327,-2764,7389,0,-1,0
-169.23,16.56,-20.40,2330,-2753,7403,0,-1,0
-169.23,16.57,-20.40,2334,-2746,7408,0,-1,-1
-169.23,16.57,-20.39,2337,-2747,7398,0,-1,0
-169.23,16.58,-20.39,2338,-2755,7392,0,-1,-1
-169.23,16.59,-20.39,2338,-2757,7395,0,-1,0
-169.24,16.59,-20.39,2339,-2764,7395,0,-1,0
-169.24,16.60,-20.38,2343,-2751,7393,0,-1,0
-169.23,16.60,-20.38,2343,-2759,7392,0,-1,0
-169.24,16.60,-20.37,2335,-2758,7395,0,-1,0
-169.24,16.62,-20.38,2349,-2776,7391,0,-1,-1
-169.24,16.62,-20.36,2346,-2761,7393,0,0,0
-169.25,16.61,-20.35,2336,-2756,7386,0,-1,-1
-169.25,16.62,-20.35,2339,-2755,7392,0,-1,0
-169.25,16.63,-20.35,2345,-2748,7397,0,-1,0
-169.25,16.63,-20.34,2338,-2738,7402,0,-1,0
-169.25,16.63,-20.33,2342,-2746,7403,0,-1,0
-169.26,16.64,-20.33,2344,-2747,7387,0,-1,0
-169.26,16.64,-20.33,2330,-2744,7392,0,-1,0
-169.26,16.65,-20.33,2337,-2750,7387,0,-1,0
-169.26,16.64,-20.33,2335,-2748,7385,0,-1,0
-169.26,16.65,-20.33,2336,-2751,7381,0,-1,0
-169.27,16.66,-20.32,2345,-2749,7385,0,-1,0
-169.27,16.66,-20.32,2349,-2758,7387,0,-1,-1
-169.27,16.66,-20.32,2349,-2757,7389,0,-1,0
-169.28,16.66,-20.32,2346,-2758,7389,0,-1,-1
-169.28,16.66,-20.31,2348,-2748,7392,0,-1,-1
-169.28,16.66,-20.30,2342,-2734,7386,0,-1,0
-169.28,16.67,-20.29,2346,-2740,7389,0,-1,0
-169.28,16.67,-20.29,2344,-2744,7398,0,-1,-1
-169.28,16.67,-20.29,2350,-2741,7393,0,-1,0
-169.28,16.67,-20.29,2350,-2736,7396,0,-1,0
-169.28,16.68,-20.28,2353,-2730,7401,0,-1,0
-169.29,16.68,-20.27,2357,-2736,7404,0,-1,0
-169.29,16.69,-20.28,2361,-2739,7403,0,-1,0
-169.29,16.69,-20.27,2358,-2746,7403,0,-1,0
-169.30,16.68,-20.28,2346,-2752,7406,0,-1,0
-169.30,16.68,-20.28,2337,-2744,7396,0,-1,0
-169.30,16.68,-20.27,2342,-2747,7393,0,-1,-1
-169.30,16.69,-20.27,2343,-2744,7394,0,-1,-1
-169.30,16.70,-20.25,2358,-2740,7398,0,-1,-1
-169.30,16.70,-20.25,2359,-2738,7397,0,-1,-1
-169.30,16.70,-20.25,2356,-2734,7404,0,-1,0
-169.30,16.70,-20.25,2357,-2739,7397,-1,-1,0
-169.31,16.71,-20.24,2362,-2735,7406,0,-1,0
-169.31,16.70,-20.24,2354,-2728,7409,-1,0,0
-169.31,16.71,-20.24,2345,-2733,7401,-1,-1,-1
-169.31,16.71,-20.25,2352,-2742,7388,0,-1,-1
-169.31,16.71,-20.24,2355,-2735,7390,0,-1,0
-169.31,16.71,-20.24,2362,-2743,7403,0,-1,0
-169.31,16.71,-20.24,2359,-2750,7410,0,-1,0
-169.31,16.71,-20.23,2358,-2745,7413,0,0,0
-169.32,16.71,-20.23,2357,-2740,7404,0,-1,0
-169.32,16.71,-20.23,2357,-2743,7399,0,-1,0
-169.32,16.71,-20.22,2351,-2741,7394,0,-1,-1
-169.32,16.71,-20.22,2356,-2730,7406,0,-1,0
-169.32,16.71,-20.21,2358,-2730,7408,0,-1,0
-169.32,16.71,-20.21,2356,-2726,7405,-1,-1,0
-169.32,16.71,-20.21,2355,-2728,7406,-1,-1,-1
-169.32,16.71,-20.22,2360,-2731,7398,-1,-1,0
-169.32,16.71,-20.22,2359,-2740,7394,-1,0,0
-169.33,16.70,-20.23,2351,-2742,7398,-1,-1,0
-169.33,16.70,-20.23,2354,-2742,7397,0,-1,0
-169.33,16.70,-20.23,2358,-2746,7397,0,0,-1
-169.33,16.70,-20.23,2352,-2742,7398,0,0,-1
-169.33,16.70,-20.23,2354,-2740,7397,0,0,-1
-169.33,16.69,-20.23,2348,-2737,7402,0,0,0
-169.34,16.68,-20.23,2348,-2739,7407,-1,0,0
-169.34,16.68,-20.23,2345,-2732,7408,-1,0,0
-169.34,16.68,-20.23,2347,-2736,7411,-1,0,0
-169.34,16.67,-20.24,2342,-2742,7407,-1,0,0
-169.34,16.66,-20.24,2342,-2736,7396,-1,0,0
-169.34,16.66,-20.24,2336,-2735,7387,-1,0,0
-169.34,16.65,-20.25,2354,-2749,7391,0,0,0
-169.34,16.64,-20.25,2339,-2741,7400,-1,0,0
-169.34,16.63,-20.25,2331,-2731,7403,-1,0,0
-169.34,16.62,-20.26,2333,-2737,7404,-1,0,-1
-169.34,16.62,-20.26,2338,-2738,7391,-1,0,0
-169.34,16.61,-20.27,2343,-2744,7387,-1,0,-1
-169.33,16.60,-20.27,2341,-2749,7389,-1,0,-1
-169.34,16.59,-20.28,2334,-2750,7384,-1,0,-1
-169.34,16.58,-20.28,2326,-2747,7400,-1,0,-1
-169.34,16.58,-20.28,2332,-2753,7393,-1,0,-1
-169.33,16.57,-20.28,2334,-2744,7402,-1,0,0
-169.33,16.56,-20.29,2334,-2739,7408,-1,0,0
-169.34,16.56,-20.29,2339,-2740,7418,-1,0,0
-169.34,16.54,-20.31,2338,-2746,7404,-1,0,0
-169.34,16.53,-20.31,2327,-2752,7401,-1,0,0
-169.34,16.52,-20.32,2324,-2752,7410,-1,0,0
-169.34,16.51,-20.33,2317,-2758,7399,-1,0,-1
-169.34,16.51,-20.33,2318,-2754,7392,-1,0,-1
-169.34,16.50,-20.34,2323,-2760,7394,-1,0,-1
-169.34,16.49,-20.35,2329,-2770,7401,-1,0,0
-169.33,16.48,-20.35,2331,-2766,7408,-1,0,-1
-169.34,16.47,-20.35,2326,-2755,7420,-1,0,-1
-169.34,16.46,-20.36,2319,-2748,7404,-1,0,0
-169.34,16.46,-20.37,2319,-2748,7400,-1,0,0
-169.33,16.45,-20.38,2314,-2753,7396,-1,0,0
-169.33,16.44,-20.40,2332,-2774,7388,-1,0,-1
-169.33,16.43,-20.40,2317,-2763,7402,-1,0,0
-169.34,16.41,-20.40,2301,-2756,7398,-1,0,0
-169.33,16.41,-20.42,2308,-2767,7385,-1,0,0
-169.33,16.40,-20.43,2306,-2773,7392,-1,0,0
-169.33,16.39,-20.43,2312,-2769,7398,-1,0,0
-169.33,16.39,-20.43,2310,-2770,7406,-1,0,-1
-169.33,16.37,-20.44,2308,-2776,7403,-1,0,0
-169.34,16.37,-20.44,2302,-2766,7404,-1,0,-1
-169.33,16.37,-20.44,2304,-2762,7407,-1,0,-1
-169.33,16.36,-20.45,2305,-2759,7408,-1,0,0
-169.33,16.36,-20.45,2300,-2763,7416,-1,0,0
-169.33,16.35,-20.47,2310,-2774,7405,-1,0,-1
-169.33,16.34,-20.47,2308,-2777,7412,-1,0,0
-169.33,16.34,-20.48,2302,-2779,7402,-1,0,0
-169.33,16.32,-20.50,2296,-2782,7398,-1,0,0
-169.33,16.32,-20.50,2296,-2782,7398,-1,0,-1
-169.33,16.31,-20.51,2299,-2786,7387,-1,0,0
-169.33,16.31,-20.52,2300,-2784,7387,-1,0,0
-169.33,16.30,-20.52,2305,-2778,7395,-1,0,0
-169.33,16.30,-20.53,2304,-2777,7399,-1,0,0
-169.33,16.29,-20.53,2293,-2776,7404,-1,0,-1
-169.32,16.29,-20.54,2296,-2788,7395,-1,0,-1
-169.32,16.28,-20.55,2302,-2788,7408,-1,0,0
-169.33,16.26,-20.55,2290,-2780,7402,-1,0,0
-169.33,16.27,-20.56,2291,-2781,7404,-1,0,-1
-169.32,16.26,-20.57,2287,-2782,7395,-1,0,0
-169.32,16.25,-20.58,2295,-2787,7394,-1,0,0
-169.32,16.25,-20.59,2294,-2795,7403,-1,0,-1
-169.32,16.25,-20.60,2291,-2799,7405,-1,0,-1
-169.32,16.23,-20.60,2277,-2787,7389,-1,0,0
-169.32,16.23,-20.60,2285,-2786,7384,-1,-1,-1
-169.32,16.23,-20.60,2279,-2784,7397,-1,0,0
-169.32,16.23,-20.61,2277,-2791,7396,-1,0,0
-169.32,16.23,-20.62,2290,-2798,7408,-1,0,0
-169.32,16.22,-20.63,2288,-2804,7409,-1,0,-1
-169.32,16.21,-20.63,2283,-2797,7409,-1,0,0
-169.32,16.21,-20.63,2276,-2796,7399,-1,-1,-1
-169.32,16.21,-20.63,2277,-2791,7395,-1,-1,-1
-169.32,16.21,-20.63,2277,-2798,7397,0,-1,-1
-169.32,16.22,-20.63,2277,-2810,7401,0,-1,-1
-169.32,16.23,-20.63,2291,-2806,7403,0,-1,-1
-169.33,16.23,-20.63,2289,-2789,7407,0,-1,0
-169.32,16.25,-20.62,2284,-2785,7387,0,-1,0
-169.33,16.25,-20.62,2280,-2772,7384,0,-1,0
-169.33,16.27,-20.62,2297,-2794,7383,0,-1,0
-169.33,16.26,-20.61,2280,-2792,7400,0,-1,0
-169.33,16.27,-20.61,2275,-2791,7391,0,-1,-1
-169.34,16.28,-20.60,2284,-2800,7385,0,-1,-1
-169.34,16.30,-20.60,2292,-2800,7392,0,-1,0
-169.34,16.32,-20.59,2295,-2800,7387,0,-1,0
-169.35,16.32,-20.58,2300,-2804,7391,0,-1,0
-169.35,16.33,-20.57,2292,-2805,7390,0,-1,0
-169.35,16.34,-20.56,2281,-2787,7390,0,-1,-1
-169.35,16.36,-20.55,2296,-2777,7392,0,-1,0
-169.36,16.36,-20.53,2298,-2773,7397,0,-1,0
-169.36,16.38,-20.53,2297,-2774,7404,0,-1,-1
-169.36,16.40,-20.53,2310,-2784,7400,0,-1,-1
-169.36,16.40,-20.52,2314,-2789,7402,0,-1,0
-169.37,16.41,-20.51,2302,-2784,7408,0,-1,0
-169.37,16.42,-20.51,2305,-2776,7398,0,-1,0
-169.37,16.43,-20.50,2312,-2775,7393,0,-1,0
-169.38,16.43,-20.49,2310,-2774,7386,0,-1,-1
-169.38,16.44,-20.49,2310,-2782,7385,0,-1,0
-169.38,16.45,-20.49,2322,-2780,7391,0,-1,-1
-169.38,16.46,-20.48,2320,-2773,7404,0,-1,0
-169.39,16.47,-20.47,2315,-2768,7393,0,-1,0
-169.38,16.47,-20.47,2310,-2770,7393,0,-1,0
-169.39,16.48,-20.46,2314,-2772,7382,0,-1,0
-169.39,16.48,-20.45,2309,-2777,7399,0,-1,0
-169.39,16.50,-20.45,2317,-2774,7395,0,-1,0
-169.40,16.50,-20.45,2322,-2775,7385,0,-1,0
-169.40,16.51,-20.44,2319,-2771,7393,0,-1,0
-169.40,16.52,-20.43,2342,-2776,7400,0,-1,0
-169.40,16.53,-20.43,2327,-2768,7405,0,-1,-1
-169.41,16.53,-20.42,2313,-2771,7396,0,-1,-1
-169.41,16.54,-20.42,2321,-2769,7390,0,-1,-1
-169.41,16.55,-20.41,2332,-2760,7393,0,-1,0
-169.41,16.56,-20.40,2338,-2757,7400,0,-1,0
-169.42,16.57,-20.39,2337,-2762,7407,0,-1,0
-169.42,16.57,-20.39,2331,-2762,7402,0,-1,0
-169.43,16.57,-20.38,2324,-2757,7398,0,-1,0
-169.43,16.58,-20.38,2318,-2755,7392,0,-1,0
-169.43,16.58,-20.37,2319,-2753,7385,0,-1,-1
-169.43,16.59,-20.37,2318,-2754,7379,0,-1,-1
-169.44,16.59,-20.37,2325,-2762,7384,0,-1,-1
-169.43,16.61,-20.36,2337,-2760,7393,0,-1,-1
-169.43,16.61,-20.35,2345,-2758,7407,0,-1,-1
-169.44,16.61,-20.34,2340,-2753,7409,0,-1,0
-169.44,16.62,-20.33,2342,-2742,7402,0,-1,0
-169.44,16.62,-20.33,2338,-2737,7398,0,-1,0
-169.45,16.63,-20.33,2336,-2745,7391,0,-1,0
-169.45,16.63,-20.33,2342,-2748,7389,0,-1,-1
-169.45,16.64,-20.32,2344,-2748,7390,0,-1,0
-169.45,16.64,-20.32,2340,-2748,7391,0,-1,0
-169.45,16.64,-20.31,2341,-2755,7391,0,-1,-1
-169.46,16.65,-20.31,2343,-2756,7400,0,-1,0
-169.46,16.65,-20.30,2347,-2755,7395,0,-1,0
-169.47,16.65,-20.29,2344,-2751,7399,0,-1,-1
-169.47,16.65,-20.28,2333,-2746,7399,0,-1,-1
-169.47,16.65,-20.28,2332,-2743,7390,0,-1,0
-169.47,16.66,-20.28,2336,-2746,7385,0,-1,0
-169.47,16.66,-20.28,2343,-2742,7387,0,-1,0
-169.47,16.67,-20.28,2349,-2742,7397,0,-1,0
-169.47,16.67,-20.27,2349,-2743,7401,0,-1,0
-169.48,16.67,-20.27,2343,-2746,7398,0,-1,0
-169.48,16.67,-20.27,2346,-2746,7385,0,-1,0
-169.48,16.67,-20.27,2336,-2743,7385,0,-1,0
-169.48,16.68,-20.27,2354,-2754,7385,0,-1,0
-169.48,16.68,-20.27,2348,-2746,7391,0,0,0
-169.48,16.68,-20.27,2334,-2748,7380,0,-1,-1
-169.49,16.68,-20.26,2338,-2747,7375,0,-1,0
-169.49,16.68,-20.26,2338,-2749,7383,0,-1,0
-169.50,16.69,-20.25,2346,-2751,7393,0,-1,0
-169.49,16.70,-20.25,2351,-2753,7398,0,-1,0
-169.50,16.69,-20.25,2344,-2753,7398,0,-1,0
-169.50,16.69,-20.25,2335,-2742,7402,0,-1,0
-169.50,16.69,-20.25,2342,-2743,7397,0,-1,-1
-169.50,16.69,-20.25,2342,-2740,7395,0,-1,0
-169.51,16.69,-20.24,2350,-2734,7400,0,-1,0
-169.51,16.69,-20.24,2351,-2733,7407,0,-1,0
-169.51,16.69,-20.23,2345,-2732,7404,0,0,0
-169.51,16.69,-20.23,2343,-2728,7409,0,-1,0
-169.52,16.69,-20.23,2339,-2730,7404,-1,-1,0
-169.52,16.68,-20.23,2336,-2750,7405,0,-1,-1
-169.52,16.68,-20.23,2344,-2752,7404,0,-1,0
-169.52,16.69,-20.23,2351,-2747,7402,0,-1,-1
-169.53,16.69,-20.23,2359,-2744,7400,0,-1,0
-169.53,16.69,-20.23,2349,-2740,7406,0,-1,0
-169.53,16.69,-20.23,2349,-2741,7396,-1,-1,0
-169.53,16.68,-20.24,2349,-2752,7405,-1,0,0
-169.53,16.68,-20.24,2345,-2745,7400,0,0,0
-169.54,16.67,-20.24,2337,-2742,7399,0,-1,0
-169.53,16.68,-20.24,2340,-2734,7381,0,-1,-1
-169.53,16.68,-20.24,2342,-2733,7382,0,-1,-1
-169.53,16.69,-20.23,2353,-2738,7391,0,-1,-1
-169.54,16.69,-20.23,2357,-2740,7391,0,-1,0
-169.54,16.69,-20.22,2359,-2733,7396,0,-1,0
-169.54,16.69,-20.22,2351,-2723,7399,-1,0,0
-169.55,16.68,-20.22,2344,-2728,7395,-1,-1,0
-169.55,16.69,-20.23,2357,-2741,7402,0,-1,0
-169.55,16.69,-20.23,2348,-2731,7393,0,0,0
-169.55,16.69,-20.23,2348,-2736,7385,0,-1,0
-169.55,16.69,-20.23,2349,-2744,7370,0,-1,0
-169.55,16.69,-20.23,2345,-2743,7380,0,-1,0
-169.55,16.70,-20.23,2350,-2740,7391,0,-1,0
-169.56,16.70,-20.22,2349,-2743,7394,0,-1,0
-169.56,16.70,-20.21,2348,-2743,7387,0,0,0
-169.56,16.70,-20.20,2343,-2728,7399,0,-1,0
-169.56,16.70,-20.20,2350,-2735,7403,0,-1,-1
-169.56,16.70,-20.19,2342,-2727,7406,0,-1,-1
-169.57,16.69,-20.19,2343,-2726,7413,0,-1,0
-169.57,16.70,-20.19,2347,-2735,7403,-1,-1,-1
-169.57,16.70,-20.19,2348,-2735,7397,0,-1,-1
-169.57,16.70,-20.19,2352,-2726,7394,0,-1,0
-169.57,16.70,-20.19,2353,-2728,7396,-1,0,-1
-169.57,16.70,-20.19,2347,-2726,7396,-1,0,0
-169.57,16.69,-20.19,2342,-2736,7404,-1,-1,0
-169.57,16.69,-20.19,2344,-2740,7407,0,-1,-1
-169.57,16.69,-20.19,2348,-2725,7406,0,0,-1
-169.57,16.69,-20.19,2347,-2727,7399,0,0,-1
-169.57,16.69,-20.19,2344,-2726,7398,0,0,-1
-169.57,16.68,-20.18,2348,-2732,7394,0,0,0
-169.57,16.68,-20.18,2348,-2734,7398,0,-1,-1
-169.57,16.68,-20.18,2346,-2724,7403,-1,-1,-1
-169.57,16.68,-20.18,2346,-2725,7408,-1,0,-1
-169.58,16.67,-20.18,2345,-2722,7413,-1,0,0
-169.58,16.67,-20.19,2355,-2744,7413,0,-1,-1
-169.58,16.66,-20.19,2345,-2738,7412,-1,0,-1
-169.57,16.65,-20.19,2334,-2729,7402,-1,0,0
-169.57,16.65,-20.20,2333,-2737,7401,-1,0,0
-169.57,16.64,-20.20,2340,-2736,7398,-1,0,0
-169.57,16.64,-20.20,2344,-2738,7404,-1,0,0
-169.58,16.63,-20.21,2344,-2742,7399,-1,0,-1
-169.58,16.62,-20.22,2338,-2750,7385,0,0,0
-169.58,16.61,-20.22,2333,-2746,7390,-1,0,0
-169.58,16.61,-20.23,2337,-2743,7394,-1,0,-1
-169.57,16.61,-20.22,2338,-2739,7393,-1,0,-1
-169.57,16.60,-20.22,2338,-2739,7405,0,0,0
-169.58,16.59,-20.22,2342,-2738,7402,0,0,0
-169.58,16.59,-20.22,2346,-2728,7406,-1,0,0
-169.58,16.59,-20.22,2343,-2719,7406,-1,0,0
-169.58,16.57,-20.23,2331,-2731,7396,-1,0,0
-169.58,16.57,-20.25,2328,-2743,7385,-1,0,0
-169.58,16.55,-20.25,2323,-2745,7402,-1,0,-1
-169.58,16.55,-20.26,2320,-2741,7395,-1,0,-1
-169.58,16.55,-20.26,2318,-2738,7401,-1,0,-1
-169.58,16.54,-20.26,2332,-2739,7399,-1,0,-1
-169.58,16.54,-20.26,2334,-2743,7397,-1,0,-1
-169.58,16.53,-20.27,2330,-2751,7405,-1,0,0
-169.58,16.52,-20.27,2316,-2739,7404,-1,0,0
-169.58,16.51,-20.27,2329,-2749,7414,-1,0,0
-169.57,16.51,-20.28,2325,-2744,7418,-1,0,-1
-169.58,16.50,-20.29,2321,-2744,7406,-1,0,-1
-169.58,16.49,-20.30,2323,-2749,7396,-1,-1,-1
-169.58,16.50,-20.30,2323,-2750,7396,-1,0,0
-169.58,16.49,-20.31,2320,-2757,7398,-1,0,0
-169.58,16.48,-20.31,2324,-2759,7401,-1,0,0
-169.57,16.48,-20.32,2326,-2755,7387,0,0,0
-169.57,16.47,-20.31,2316,-2748,7396,-1,0,0
-169.57,16.46,-20.31,2316,-2758,7399,-1,0,0
-169.58,16.45,-20.32,2316,-2752,7393,-1,0,-1
-169.58,16.45,-20.32,2317,-2751,7398,-1,0,0
-169.58,16.45,-20.32,2320,-2750,7395,-1,0,-1
-169.58,16.44,-20.32,2317,-2748,7406,-1,0,0
-169.58,16.43,-20.34,2318,-2747,7400,-1,0,0
-169.58,16.43,-20.34,2314,-2751,7404,-1,0,0
-169.58,16.42,-20.35,2308,-2752,7398,-1,0,0
-169.57,16.42,-20.37,2305,-2755,7389,-1,0,0
-169.57,16.41,-20.37,2310,-2764,7388,-1,0,-1
-169.57,16.40,-20.38,2310,-2766,7391,-1,0,0
-169.58,16.39,-20.38,2307,-2763,7389,-1,0,0
-169.58,16.38,-20.39,2312,-2773,7394,-1,0,0
-169.58,16.37,-20.39,2301,-2761,7393,-1,0,0
-169.57,16.36,-20.40,2308,-2780,7384,-1,0,-1
-169.58,16.35,-20.41,2300,-2762,7412,-1,0,0
-169.58,16.34,-20.41,2287,-2765,7412,-1,0,-1
-169.57,16.34,-20.42,2292,-2760,7401,-1,0,-1
-169.57,16.33,-20.43,2294,-2760,7397,-1,0,0
-169.57,16.33,-20.43,2302,-2756,7407,-1,0,0
-169.57,16.32,-20.44,2304,-2759,7412,-1,0,0
-169.58,16.31,-20.44,2299,-2761,7417,-1,0,-1
-169.58,16.30,-20.44,2290,-2753,7414,-1,0,0
-169.58,16.30,-20.45,2293,-2767,7399,-1,0,0
-169.58,16.30,-20.46,2295,-2766,7399,-1,0,0
-169.57,16.29,-20.46,2294,-2767,7400,-1,0,0
-169.57,16.29,-20.47,2301,-2772,7398,-1,0,-1
-169.57,16.29,-20.48,2301,-2771,7383,-1,0,-1
-169.57,16.27,-20.48,2294,-2775,7398,-1,0,0
-169.57,16.27,-20.48,2289,-2770,7405,-1,0,0
-169.57,16.27,-20.48,2297,-2769,7418,-1,0,0
-169.57,16.26,-20.49,2295,-2769,7420,-1,0,0
-169.58,16.25,-20.49,2296,-2771,7415,-1,0,0
-169.58,16.24,-20.49,2296,-2767,7417,-1,0,0
-169.58,16.25,-20.50,2290,-2768,7412,-1,-1,0
-169.58,16.24,-20.51,2283,-2782,7398,-1,0,-1
-169.58,16.23,-20.52,2276,-2782,7384,-1,-1,-1
-169.57,16.24,-20.53,2295,-2788,7389,0,0,-1
-169.57,16.23,-20.52,2288,-2778,7396,0,0,-1
-169.57,16.23,-20.52,2275,-2777,7393,0,-1,-1
