Yaw,Pitch,Roll,AX,AY,AZ,GX,GY,GZ
-155.06,28.55,-80.80,3977,-7214,1186,0,-1,0
-155.07,28.54,-80.79,3976,-7211,1187,0,0,0
-155.07,28.54,-80.79,3976,-7207,1168,0,0,0
-155.07,28.54,-80.79,3988,-7212,1167,0,-1,-1
-155.07,28.54,-80.79,3981,-7215,1171,-1,-1,0
-155.07,28.54,-80.79,3983,-7216,1164,-1,-1,0
-155.06,28.55,-80.80,3977,-7216,1166,-1,-1,0
-155.07,28.54,-80.79,3977,-7222,1173,-1,-1,-1
-155.06,28.55,-80.80,3979,-7218,1169,0,-1,-1
-155.05,28.56,-80.80,3984,-7211,1162,0,-1,-1
-155.05,28.56,-80.80,3986,-7208,1163,0,0,-1
-155.05,28.56,-80.80,3985,-7209,1172,-1,-1,0
-155.05,28.56,-80.80,3976,-7209,1165,0,-1,0
-155.05,28.56,-80.80,3977,-7212,1162,-1,-1,0
-155.06,28.55,-80.80,3976,-7214,1163,0,0,0
-155.06,28.55,-80.79,3977,-7221,1163,0,-1,0
-155.07,28.54,-80.79,3979,-7223,1174,0,-1,-1
-155.07,28.55,-80.79,3975,-7220,1167,0,-1,-1
-155.06,28.55,-80.79,3982,-7216,1171,-1,-1,-1
-155.05,28.56,-80.80,3978,-7212,1161,-1,-1,-1
-155.05,28.56,-80.80,3974,-7203,1161,-1,-1,-1
-155.05,28.56,-80.81,3976,-7204,1165,-1,0,0
-155.05,28.56,-80.80,3980,-7208,1166,-1,0,0
-155.06,28.55,-80.80,3979,-7223,1161,0,0,0
-155.06,28.55,-80.80,3975,-7224,1163,-1,0,0
-155.06,28.55,-80.80,3975,-7222,1165,-1,0,-1
-155.06,28.54,-80.81,3973,-7222,1161,-1,0,-1
-155.05,28.55,-80.82,3976,-7217,1159,-1,0,-1
-155.05,28.55,-80.82,3978,-7207,1161,-1,0,-1
-155.03,28.56,-80.83,3984,-7218,1150,-1,0,-1
-155.03,28.56,-80.83,3976,-7216,1170,-1,0,0
-155.03,28.55,-80.84,3990,-7222,1179,-1,0,-1
-155.03,28.55,-80.84,3978,-7232,1174,-1,0,-1
-155.02,28.56,-80.86,3997,-7224,1161,-1,0,-1
-155.00,28.57,-80.87,3975,-7227,1170,-1,0,-1
-155.00,28.57,-80.88,3981,-7210,1177,-1,0,-1
-155.00,28.57,-80.87,3979,-7211,1172,0,0,0
-155.00,28.56,-80.87,3983,-7211,1160,-1,0,0
-155.00,28.56,-80.86,3983,-7219,1157,0,0,0
-155.00,28.56,-80.86,3983,-7220,1171,-1,0,0
-155.01,28.56,-80.85,3990,-7215,1165,0,-1,0
-155.01,28.56,-80.85,3990,-7218,1159,-1,0,0
-155.01,28.56,-80.85,3987,-7209,1156,-1,0,0
-155.02,28.54,-80.85,3969,-7217,1159,0,0,0
-155.03,28.54,-80.83,3982,-7220,1171,0,0,-1
-155.02,28.55,-80.83,3983,-7226,1174,-1,0,-1
-155.02,28.55,-80.83,3980,-7224,1176,-1,0,-1
-155.02,28.54,-80.84,3978,-7221,1172,-1,0,-1
-155.02,28.55,-80.84,3986,-7215,1183,-1,0,-1
-155.01,28.55,-80.84,3977,-7215,1173,-1,0,-1
-155.01,28.54,-80.85,3975,-7210,1165,-1,0,-1
-155.01,28.54,-80.84,3977,-7215,1168,-1,0,0
-155.01,28.54,-80.84,3979,-7219,1175,-1,-1,-1
-155.01,28.54,-80.84,3988,-7211,1181,-1,0,0
-155.02,28.54,-80.85,3976,-7215,1161,-1,0,0
-155.02,28.54,-80.84,3980,-7225,1163,-1,0,0
-155.02,28.53,-80.85,3986,-7233,1167,-1,0,-1
-155.01,28.54,-80.85,3980,-7230,1172,-1,0,-1
-155.01,28.54,-80.85,3974,-7222,1168,-1,0,-1
-155.00,28.55,-80.85,3980,-7222,1164,-1,0,-1
-154.99,28.55,-80.85,3995,-7222,1168,-1,0,-1
-154.99,28.55,-80.85,3990,-7218,1160,-1,0,0
-154.99,28.55,-80.86,3989,-7208,1169,-1,0,0
-154.99,28.55,-80.86,3977,-7216,1164,-1,0,0
-154.99,28.55,-80.86,3976,-7219,1161,0,0,0
-155.00,28.54,-80.85,3978,-7226,1153,-1,0,-1
-154.99,28.55,-80.86,3983,-7220,1158,-1,-1,-1
-154.98,28.55,-80.87,3985,-7221,1172,-1,0,-1
-154.97,28.56,-80.87,3984,-7216,1168,-1,0,0
-154.98,28.55,-80.87,3982,-7222,1157,-1,0,0
-154.98,28.55,-80.87,3978,-7218,1152,-1,0,0
-154.99,28.54,-80.88,3980,-7214,1155,0,0,0
-154.99,28.54,-80.86,3979,-7215,1166,0,0,0
-154.99,28.53,-80.86,3981,-7221,1159,-1,0,0
-154.99,28.53,-80.86,3978,-7222,1160,-1,0,-1
-154.99,28.53,-80.87,3978,-7221,1170,-1,0,0
-154.99,28.53,-80.87,3983,-7212,1161,-1,0,0
-154.98,28.53,-80.88,3979,-7221,1150,-1,0,-1
-154.98,28.54,-80.88,3980,-7214,1173,-1,0,-1
-154.98,28.54,-80.88,3977,-7221,1163,-1,-1,-1
-154.98,28.54,-80.88,3978,-7228,1167,-1,0,-1
-154.96,28.54,-80.89,3985,-7227,1173,-1,0,-1
-154.96,28.55,-80.89,3989,-7220,1182,-1,0,-1
-154.96,28.55,-80.90,3987,-7207,1168,-1,0,0
-154.96,28.55,-80.89,3976,-7216,1157,-1,0,0
-154.97,28.54,-80.88,3969,-7217,1157,0,0,0
-154.98,28.53,-80.87,3966,-7226,1168,0,0,0
-154.99,28.52,-80.87,3964,-7232,1160,0,0,0
-154.99,28.52,-80.86,3969,-7225,1162,0,0,-1
-154.99,28.52,-80.86,3974,-7222,1163,-1,0,-1
-154.98,28.53,-80.87,3979,-7219,1159,-1,-1,-1
-154.98,28.53,-80.88,3982,-7229,1163,-1,-1,-1
-154.97,28.53,-80.89,3983,-7229,1167,-1,0,-1
-154.97,28.53,-80.90,3976,-7228,1162,-1,0,-1
-154.97,28.53,-80.89,3973,-7219,1153,-1,0,-1
-154.95,28.54,-80.90,3976,-7216,1145,-1,0,-1
-154.95,28.54,-80.91,3974,-7220,1151,-1,-1,0
-154.96,28.53,-80.89,3981,-7213,1162,0,0,0
-154.96,28.53,-80.89,3990,-7218,1149,0,0,-1
-154.95,28.54,-80.91,3990,-7220,1152,-1,-1,0
-154.95,28.54,-80.91,3979,-7223,1147,0,0,0
-154.96,28.53,-80.90,3973,-7225,1148,0,-1,0
-154.97,28.53,-80.89,3966,-7229,1157,0,-1,-1
-154.97,28.53,-80.89,3978,-7221,1154,0,-1,-1
-154.96,28.54,-80.88,3982,-7218,1169,0,-1,-1
-154.97,28.54,-80.87,3987,-7218,1166,0,-1,-1
-154.97,28.54,-80.87,3988,-7224,1164,0,-1,0
-154.97,28.54,-80.87,3982,-7220,1169,0,-1,-1
-154.97,28.54,-80.88,3977,-7222,1167,0,-1,0
-154.97,28.54,-80.87,3965,-7221,1166,0,-1,0
-154.98,28.54,-80.86,3963,-7226,1164,0,-1,-1
-154.98,28.54,-80.86,3975,-7233,1167,0,-1,-1
-154.98,28.55,-80.85,3979,-7227,1174,0,-1,-1
-154.97,28.55,-80.85,3983,-7219,1171,0,-1,-1
-154.97,28.55,-80.85,3986,-7217,1173,0,-1,-1
-154.97,28.56,-80.85,3984,-7212,1158,0,-1,0
-154.98,28.55,-80.85,3982,-7213,1165,0,-1,0
-154.99,28.54,-80.84,3976,-7219,1161,0,-1,0
-154.99,28.54,-80.84,3971,-7219,1165,0,-1,0
-155.00,28.54,-80.83,3976,-7218,1168,0,-1,0
-155.01,28.53,-80.82,3978,-7212,1153,0,-1,0
-155.01,28.53,-80.82,3977,-7224,1147,0,-1,-1
-155.00,28.54,-80.83,3973,-7220,1163,-1,-1,-1
-155.00,28.54,-80.83,3971,-7221,1165,0,-1,-1
-154.99,28.55,-80.84,3982,-7223,1159,0,-1,-1
-154.99,28.55,-80.84,3989,-7219,1168,0,-1,-1
-154.98,28.55,-80.84,3989,-7220,1162,-1,-1,-1
-154.98,28.55,-80.84,3991,-7219,1179,-1,-1,0
-154.98,28.56,-80.85,3990,-7224,1164,-1,-1,-1
-154.98,28.56,-80.86,3983,-7218,1154,-1,-1,0
-154.97,28.56,-80.86,3972,-7211,1156,0,0,0
-154.99,28.55,-80.85,3961,-7207,1164,0,0,0
-154.99,28.55,-80.85,3964,-7223,1158,0,-1,-1
-154.99,28.55,-80.84,3980,-7219,1165,-1,-1,0
-155.00,28.54,-80.85,3970,-7227,1160,0,-1,-1
-154.99,28.55,-80.85,3990,-7211,1164,-1,-1,-1
-154.99,28.55,-80.86,3969,-7208,1156,-1,0,0
-154.98,28.55,-80.87,3990,-7214,1146,0,-1,0
-154.99,28.55,-80.86,3987,-7206,1172,-1,-1,-1
-154.98,28.56,-80.87,3971,-7218,1145,0,0,-1
-154.99,28.55,-80.86,3980,-7214,1172,0,-1,0
-154.99,28.55,-80.87,3978,-7235,1166,0,-1,-1
-154.97,28.56,-80.88,3984,-7223,1166,-1,0,0
-154.98,28.55,-80.89,3961,-7225,1150,0,-1,-1
-154.98,28.56,-80.88,3972,-7218,1151,0,-1,0
-154.99,28.56,-80.86,3982,-7208,1153,0,0,0
-154.99,28.55,-80.85,3984,-7207,1160,0,-1,0
-155.01,28.55,-80.85,3990,-7216,1155,0,-1,0
-155.01,28.54,-80.84,3984,-7212,1151,0,-1,0
-155.01,28.54,-80.85,3982,-7207,1162,0,-1,0
-155.01,28.55,-80.85,3979,-7217,1156,0,-1,0
-155.01,28.54,-80.85,3972,-7214,1163,0,-1,-1
-155.01,28.54,-80.84,3979,-7218,1156,0,-1,-1
-155.01,28.55,-80.84,3986,-7220,1162,0,-1,-1
-155.00,28.55,-80.84,3993,-7221,1159,0,-1,-1
-154.99,28.57,-80.84,4002,-7215,1158,-1,0,-1
-154.99,28.57,-80.84,3998,-7218,1167,-1,-1,-1
-154.98,28.57,-80.84,3995,-7215,1166,-1,-1,0
-154.98,28.57,-80.84,3987,-7203,1159,0,0,0
-154.99,28.56,-80.84,3977,-7210,1157,0,-1,0
-155.01,28.56,-80.83,3977,-7217,1162,0,0,0
-155.02,28.55,-80.82,3977,-7225,1156,0,-1,0
-155.03,28.54,-80.82,3972,-7229,1160,0,-1,0
-155.02,28.55,-80.82,3970,-7221,1155,0,-1,0
-155.02,28.55,-80.82,3975,-7222,1158,-1,-1,-1
-155.02,28.55,-80.82,3974,-7226,1158,-1,-1,-1
-155.01,28.55,-80.83,3976,-7223,1158,-1,-1,-1
-155.01,28.56,-80.83,3979,-7217,1166,-1,-1,-1
-155.00,28.56,-80.84,3983,-7214,1165,-1,-1,-1
-154.99,28.57,-80.84,3986,-7218,1167,-1,0,-1
-154.99,28.56,-80.85,3989,-7217,1160,-1,-1,0
-154.99,28.56,-80.85,3979,-7216,1162,-1,0,0
-155.00,28.55,-80.84,3975,-7212,1163,0,0,0
-155.01,28.55,-80.83,3960,-7221,1164,0,0,0
-155.03,28.54,-80.82,3966,-7219,1164,0,0,0
-155.04,28.53,-80.81,3975,-7220,1172,0,0,0
-155.05,28.53,-80.80,3987,-7227,1181,0,0,0
-155.04,28.53,-80.80,3990,-7228,1178,0,-1,-1
-155.04,28.54,-80.81,3985,-7228,1170,-1,-1,-1
-155.03,28.54,-80.82,3981,-7224,1162,-1,-1,-1
-155.02,28.54,-80.82,3975,-7226,1166,-1,-1,-1
-155.02,28.55,-80.82,3973,-7222,1166,-1,-1,-1
-155.01,28.55,-80.83,3976,-7219,1162,-1,-1,-1
-155.01,28.55,-80.83,3983,-7216,1162,-1,-1,0
-155.01,28.55,-80.83,3984,-7213,1160,-1,-1,0
-155.02,28.55,-80.83,3988,-7209,1166,0,-1,0
-155.02,28.55,-80.82,3975,-7213,1164,0,0,0
-155.03,28.54,-80.81,3975,-7213,1168,0,0,0
-155.05,28.53,-80.80,3977,-7221,1178,0,0,0
-155.05,28.53,-80.80,3976,-7223,1171,0,-1,0
-155.05,28.53,-80.80,3974,-7218,1172,-1,-1,0
-155.04,28.53,-80.80,3973,-7226,1174,-1,-1,-1
-155.04,28.54,-80.81,3969,-7222,1175,-1,-1,-1
-155.04,28.54,-80.81,3978,-7224,1175,-1,-1,-1
-155.03,28.55,-80.82,3988,-7219,1171,-1,-1,-1
-155.02,28.55,-80.82,3990,-7214,1176,-1,0,-1
-155.01,28.55,-80.83,3990,-7211,1173,-1,0,-1
-155.01,28.56,-80.83,3993,-7210,1180,-1,0,0
-155.01,28.56,-80.82,3986,-7209,1171,-1,0,0
-155.02,28.55,-80.82,3977,-7209,1173,0,0,0
-155.03,28.54,-80.81,3979,-7213,1160,0,0,0
-155.04,28.53,-80.81,3987,-7223,1163,0,0,0
-155.04,28.53,-80.80,3982,-7226,1155,-1,0,0
-155.03,28.53,-80.81,3978,-7226,1156,-1,0,-1
-155.03,28.53,-80.81,3981,-7214,1164,-1,0,-1
-155.02,28.54,-80.81,3979,-7214,1174,-1,0,-1
-155.02,28.54,-80.82,3981,-7218,1168,-1,0,-1
-155.01,28.54,-80.82,3988,-7222,1165,-1,0,-1
-155.00,28.55,-80.83,3981,-7222,1175,-1,0,-1
-154.99,28.56,-80.84,3979,-7222,1179,-1,0,-1
-154.99,28.56,-80.83,3982,-7216,1182,-1,0,-1
-155.00,28.55,-80.84,3978,-7214,1183,-1,0,0
-155.00,28.54,-80.83,3971,-7209,1172,0,0,0
-155.00,28.54,-80.81,3972,-7220,1174,0,0,0
-155.02,28.53,-80.80,3974,-7223,1166,0,0,0
-155.02,28.53,-80.80,3985,-7219,1166,-1,0,0
-155.02,28.53,-80.81,3983,-7223,1172,-1,0,0
-155.01,28.53,-80.82,3972,-7229,1146,-1,0,-1
-155.00,28.54,-80.82,3983,-7222,1168,-1,0,-1
-155.00,28.54,-80.83,3981,-7219,1166,-1,0,-1
-154.98,28.55,-80.84,3971,-7219,1162,-1,0,-1
-154.97,28.55,-80.85,3969,-7220,1166,-1,0,-1
-154.97,28.55,-80.85,3979,-7209,1166,-1,0,-1
-154.97,28.55,-80.85,3983,-7204,1158,-1,0,0
-154.97,28.55,-80.85,3976,-7204,1151,0,0,0
-154.98,28.54,-80.84,3984,-7211,1167,0,0,0
-154.99,28.54,-80.84,3979,-7218,1160,-1,0,0
-154.99,28.53,-80.84,3977,-7214,1152,-1,0,0
-155.00,28.52,-80.85,3977,-7220,1153,0,0,0
-155.00,28.52,-80.83,3976,-7217,1161,-1,0,-1
-155.00,28.53,-80.83,3978,-7222,1163,-1,0,-1
-154.99,28.53,-80.84,3974,-7223,1153,-1,0,-1
-154.98,28.53,-80.85,3981,-7224,1157,-1,0,-1
-154.98,28.54,-80.85,3988,-7224,1161,-1,-1,-1
-154.97,28.54,-80.86,3985,-7220,1162,-1,0,-1
-154.97,28.54,-80.86,3973,-7223,1155,-1,0,-1
-154.96,28.54,-80.86,3982,-7210,1162,-1,0,-1
-154.96,28.54,-80.86,3984,-7216,1166,-1,0,-1
-154.96,28.54,-80.86,3986,-7220,1163,-1,0,-1
-154.96,28.55,-80.87,3983,-7221,1166,-1,0,-1
-154.95,28.54,-80.87,3979,-7221,1166,-1,0,-1
-154.95,28.55,-80.87,3983,-7217,1164,-1,0,0
-154.95,28.54,-80.87,3978,-7215,1156,-1,0,0
-154.95,28.54,-80.87,3972,-7218,1152,-1,0,0
-154.96,28.53,-80.87,3975,-7222,1153,0,0,0
-154.96,28.53,-80.87,3974,-7223,1155,-1,0,0
-154.96,28.53,-80.87,3971,-7223,1160,-1,0,-1
-154.96,28.53,-80.88,3978,-7231,1159,-1,0,-1
-154.94,28.54,-80.90,3972,-7231,1153,-1,0,-1
-154.93,28.54,-80.91,3967,-7225,1149,-1,-1,-1
-154.93,28.54,-80.93,3962,-7231,1149,-1,-1,-1
-154.92,28.54,-80.94,3978,-7220,1158,-1,0,-1
-154.90,28.55,-80.95,3980,-7227,1145,-1,0,-1
-154.88,28.56,-80.96,3977,-7215,1150,-1,-1,-1
-154.88,28.57,-80.97,3979,-7209,1160,-1,0,0
-154.88,28.56,-80.97,3987,-7210,1148,-1,0,0
-154.88,28.56,-80.96,3985,-7207,1156,0,0,0
-154.90,28.54,-80.95,3977,-7205,1147,0,0,0
-154.91,28.54,-80.94,3989,-7218,1147,0,0,0
-154.93,28.53,-80.94,3978,-7223,1146,0,0,0
-154.94,28.52,-80.93,3976,-7228,1149,0,0,0
-154.95,28.51,-80.91,3974,-7233,1155,-1,0,0
-154.94,28.52,-80.92,3970,-7234,1153,-1,0,-1
-154.94,28.52,-80.92,3975,-7227,1153,-1,-1,-1
179.93,74.43,-39.45,-258,-258,-258,-258,-258,-258
-154.91,28.53,-80.94,3973,-7212,1151,-1,-1,-1
-154.91,28.54,-80.94,3976,-7212,1152,-1,-1,-1
-154.91,28.54,-80.94,3970,-7209,1149,0,0,-1
-154.90,28.54,-80.94,3971,-7211,1152,0,-1,0
-154.91,28.54,-80.94,3961,-7211,1148,-1,-1,0
-154.91,28.54,-80.94,3975,-7213,1152,0,-1,0
-154.91,28.54,-80.93,3971,-7207,1151,0,0,0
-154.92,28.53,-80.92,3970,-7219,1154,0,0,-1
-154.92,28.54,-80.91,3982,-7225,1153,0,-1,-1
-154.92,28.54,-80.91,3981,-7229,1150,-1,-1,0
-154.91,28.54,-80.93,3982,-7214,1154,0,-1,0
-154.92,28.54,-80.93,3980,-7226,1156,-1,-1,0
-154.91,28.54,-80.94,3966,-7214,1157,-1,-1,0
-154.90,28.55,-80.94,3978,-7211,1163,0,-1,-1
-154.91,28.55,-80.94,3971,-7221,1154,-1,-1,-1
-154.90,28.56,-80.94,3982,-7207,1144,0,-1,-1
-154.90,28.56,-80.93,3993,-7197,1161,0,0,0
-154.90,28.56,-80.93,3972,-7225,1151,0,-1,0
-154.91,28.56,-80.92,3982,-7202,1161,0,-1,0
-154.92,28.55,-80.91,3979,-7213,1167,0,-1,0
-154.92,28.55,-80.90,3978,-7222,1153,0,0,0
-154.93,28.55,-80.89,3984,-7225,1162,0,-1,-1
-154.94,28.55,-80.88,3978,-7225,1167,0,0,-1
-154.94,28.55,-80.87,3991,-7231,1177,0,-1,-1
-154.94,28.55,-80.87,3993,-7232,1174,-1,-1,-1
-154.93,28.56,-80.88,3981,-7228,1168,-1,-1,-1
-154.93,28.55,-80.88,3977,-7214,1161,0,-1,0
-154.94,28.55,-80.87,3974,-7209,1160,0,-1,0
-154.94,28.55,-80.86,3980,-7207,1167,0,-1,0
-154.95,28.55,-80.85,3987,-7221,1175,0,0,0
-154.96,28.54,-80.84,3983,-7223,1173,0,0,0
-154.96,28.54,-80.84,3974,-7231,1174,0,-1,-1
-154.97,28.54,-80.84,3962,-7230,1172,-1,-1,-1
-154.96,28.54,-80.84,3958,-7229,1165,0,-1,-1
-154.96,28.55,-80.85,3960,-7224,1155,0,-1,-1
-154.95,28.55,-80.84,3974,-7225,1144,0,-1,-1
-154.95,28.56,-80.85,3980,-7216,1144,-1,-1,-1
-154.94,28.56,-80.85,3988,-7218,1156,-1,-1,-1
-154.94,28.56,-80.85,3994,-7220,1165,0,-1,0
-154.94,28.56,-80.85,3993,-7221,1164,-1,0,0
-154.95,28.56,-80.85,3981,-7223,1161,0,-1,0
-154.96,28.55,-80.85,3976,-7220,1161,0,0,0
-154.97,28.54,-80.83,3973,-7220,1165,0,0,0
-154.98,28.54,-80.82,3976,-7221,1172,0,-1,0
-154.99,28.53,-80.81,3977,-7216,1176,0,-1,0
-154.98,28.54,-80.81,3982,-7218,1173,0,-1,-1
-154.97,28.55,-80.82,3983,-7215,1166,-1,-1,-1
-154.96,28.56,-80.83,3991,-7213,1165,-1,-1,-1
-154.96,28.56,-80.83,3984,-7208,1158,-1,-1,0
-154.96,28.56,-80.84,3979,-7213,1159,-1,0,0
-154.96,28.55,-80.84,3978,-7216,1165,-1,0,0
-154.97,28.55,-80.84,3982,-7221,1159,0,-1,0
-154.97,28.55,-80.84,3986,-7221,1158,-1,-1,0
-154.96,28.55,-80.85,3980,-7232,1154,-1,-1,-1
-154.96,28.55,-80.85,3976,-7228,1173,-1,-1,-1
-154.96,28.55,-80.86,3957,-7226,1153,-1,-1,-1
-154.95,28.55,-80.86,3978,-7215,1156,0,-1,-1
-154.96,28.55,-80.86,3963,-7226,1160,0,0,0
-154.96,28.55,-80.86,3987,-7221,1169,-1,-1,0
-154.96,28.54,-80.86,3977,-7237,1166,0,0,-1
-154.96,28.55,-80.87,3975,-7232,1163,-1,-1,-1
-154.95,28.55,-80.87,3972,-7222,1159,0,0,-1
-154.96,28.55,-80.86,3972,-7219,1173,-1,-1,0
-154.96,28.55,-80.86,3979,-7210,1170,0,0,0
-154.96,28.55,-80.86,3968,-7213,1163,0,-1,-1
-154.96,28.55,-80.85,3983,-7211,1179,-1,-1,0
-154.97,28.54,-80.86,3961,-7218,1169,0,-1,0
-154.97,28.54,-80.86,3974,-7217,1163,-1,0,0
-154.98,28.54,-80.85,3967,-7227,1156,0,0,-1
-154.97,28.54,-80.86,3979,-7223,1154,0,-1,-1
-154.96,28.55,-80.86,3971,-7218,1164,0,0,0
-154.97,28.55,-80.85,3988,-7222,1162,0,-1,-1
-154.97,28.55,-80.85,3988,-7224,1168,0,-1,-1
-154.96,28.55,-80.86,3992,-7213,1163,-1,-1,0
-154.96,28.55,-80.86,3992,-7210,1165,0,0,0
-154.97,28.55,-80.85,3989,-7216,1170,0,0,0
-154.97,28.55,-80.84,3984,-7213,1161,0,0,0
-154.98,28.54,-80.84,3979,-7225,1164,0,-1,0
-154.99,28.54,-80.83,3973,-7231,1167,0,-1,-1
-154.99,28.53,-80.82,3970,-7226,1169,-1,-1,0
-154.99,28.53,-80.83,3968,-7230,1160,0,-1,0
-155.00,28.53,-80.83,3972,-7222,1159,0,-1,0
-154.99,28.54,-80.83,3976,-7221,1161,0,-1,-1
-154.99,28.54,-80.83,3982,-7217,1160,-1,-1,-1
-154.99,28.54,-80.83,3985,-7220,1167,0,0,0
-154.98,28.54,-80.84,3988,-7214,1177,-1,-1,0
-154.97,28.55,-80.83,3986,-7221,1173,-1,-1,-1
-154.97,28.55,-80.83,3978,-7212,1168,-1,-1,0
-154.97,28.55,-80.83,3968,-7212,1153,0,0,0
-154.99,28.54,-80.83,3971,-7214,1159,0,0,0
-154.99,28.54,-80.81,3967,-7215,1158,0,0,0
-155.00,28.53,-80.80,3969,-7218,1160,0,0,0
-155.00,28.53,-80.80,3986,-7223,1164,0,0,-1
-155.00,28.53,-80.80,3981,-7222,1166,0,-1,0
-155.00,28.53,-80.80,3976,-7224,1165,-1,-1,0
-155.00,28.54,-80.81,3973,-7220,1162,-1,-1,-1
-155.00,28.54,-80.81,3973,-7218,1159,-1,0,-1
-154.99,28.54,-80.81,3978,-7221,1163,0,0,-1
-154.99,28.54,-80.81,3985,-7224,1164,0,-1,-1
-154.98,28.55,-80.81,3984,-7223,1173,-1,-1,-1
-154.98,28.55,-80.82,3977,-7222,1174,-1,-1,-1
-154.98,28.55,-80.82,3981,-7216,1166,-1,-1,0
-154.98,28.55,-80.82,3984,-7213,1166,0,-1,0
-154.99,28.54,-80.81,3981,-7214,1168,0,0,0
-154.99,28.54,-80.80,3980,-7216,1171,0,0,0
-155.00,28.54,-80.80,3978,-7215,1174,0,0,0
-155.01,28.54,-80.79,3980,-7225,1176,0,-1,0
-155.00,28.54,-80.80,3978,-7225,1172,-1,-1,-1
-155.00,28.54,-80.81,3974,-7220,1169,-1,-1,-1
-154.99,28.54,-80.81,3974,-7219,1169,-1,0,-1
-154.99,28.54,-80.82,3975,-7220,1171,-1,0,-1
-154.98,28.55,-80.82,3975,-7225,1164,-1,0,-1
-154.98,28.55,-80.82,3973,-7223,1168,-1,-1,-1
-154.98,28.55,-80.83,3979,-7218,1166,-1,0,-1
-154.98,28.55,-80.83,3980,-7216,1160,-1,0,-1
-154.97,28.55,-80.83,3986,-7215,1165,-1,0,0
-154.97,28.55,-80.83,3988,-7222,1155,-1,0,-1
-154.97,28.54,-80.84,3981,-7225,1158,-1,0,0
-154.97,28.54,-80.84,3969,-7212,1149,-1,0,0
-154.97,28.54,-80.84,3971,-7216,1155,0,0,0
-154.98,28.53,-80.84,3968,-7221,1157,0,0,-1
-154.97,28.54,-80.84,3968,-7214,1155,-1,0,-1
-154.97,28.54,-80.84,3975,-7218,1160,-1,0,-1
-154.96,28.55,-80.85,3975,-7216,1166,-1,-1,-1
-154.95,28.55,-80.85,3977,-7209,1167,-1,0,-1
-154.95,28.55,-80.86,3980,-7213,1157,-1,0,-1
-154.95,28.55,-80.86,3979,-7204,1170,-1,0,-1
-154.95,28.55,-80.86,3979,-7209,1174,0,0,0
-154.95,28.55,-80.85,3983,-7215,1173,-1,0,0
-154.95,28.55,-80.85,3981,-7222,1178,-1,0,0
-154.96,28.54,-80.85,3974,-7222,1159,-1,0,0
-154.96,28.54,-80.85,3975,-7216,1162,-1,0,0
-154.96,28.54,-80.84,3965,-7219,1158,0,0,0
-154.97,28.53,-80.83,3967,-7217,1163,0,0,0
-154.98,28.53,-80.82,3972,-7220,1174,0,0,0
-154.98,28.52,-80.82,3975,-7224,1171,-1,0,-1
-154.97,28.53,-80.83,3973,-7221,1174,-1,-1,-1
-154.96,28.53,-80.84,3976,-7219,1170,-1,-1,-1
-154.95,28.54,-80.85,3975,-7210,1168,-1,0,-1
-154.94,28.55,-80.86,3982,-7205,1163,-1,0,-1
-154.94,28.54,-80.86,3973,-7219,1158,-1,0,0
-154.95,28.54,-80.87,3975,-7220,1171,-1,0,-1
-154.95,28.54,-80.86,3975,-7221,1162,-1,0,-1
-154.95,28.54,-80.86,3973,-7216,1167,0,0,-1
-154.95,28.54,-80.86,3985,-7215,1157,0,0,-1
-154.94,28.54,-80.86,3987,-7214,1149,-1,0,0
-154.93,28.54,-80.87,3977,-7212,1139,-1,0,-1
-154.93,28.54,-80.87,3975,-7220,1158,-1,0,0
-154.94,28.53,-80.88,3980,-7218,1155,-1,0,0
-154.94,28.53,-80.89,3959,-7225,1161,-1,0,0
-154.93,28.53,-80.90,3965,-7229,1143,-1,0,-1
-154.93,28.53,-80.90,3969,-7228,1166,-1,0,-1
-154.90,28.54,-80.92,3973,-7228,1159,-1,0,-1
-154.90,28.55,-80.92,3994,-7207,1180,-1,0,-1
-154.89,28.55,-80.92,3995,-7199,1164,-1,0,-1
-154.90,28.55,-80.91,3976,-7203,1154,0,0,0
-154.92,28.53,-80.90,3975,-7216,1131,0,0,0
-154.93,28.53,-80.89,3993,-7215,1154,-1,0,0
-154.94,28.52,-80.89,3981,-7231,1160,0,0,0
-154.95,28.51,-80.89,3979,-7231,1161,-1,0,0
-154.94,28.51,-80.90,3978,-7233,1151,-1,0,-1
-154.93,28.51,-80.91,3976,-7229,1153,-1,0,-1
-154.92,28.52,-80.92,3964,-7228,1150,-1,0,-1
-154.91,28.53,-80.93,3974,-7228,1155,-1,0,-1
-154.90,28.53,-80.93,3972,-7219,1152,-1,0,-1
-154.89,28.54,-80.94,3987,-7223,1151,-1,-1,-1
-154.88,28.54,-80.96,3979,-7215,1160,-1,0,-1
-154.87,28.55,-80.96,3976,-7216,1161,-1,0,-1
-154.85,28.56,-80.97,3987,-7207,1167,-1,0,0
-154.86,28.55,-80.98,3970,-7213,1163,-1,0,0
-154.86,28.54,-80.98,3984,-7210,1144,0,0,0
-154.87,28.54,-80.97,3980,-7208,1170,-1,0,0
-154.89,28.51,-80.97,3959,-7221,1116,0,0,0
-154.90,28.51,-80.95,3975,-7228,1160,-1,0,0
-154.90,28.51,-80.95,3980,-7230,1140,-1,0,0
-154.91,28.50,-80.94,3965,-7226,1149,-1,0,0
-154.91,28.50,-80.95,3968,-7227,1132,0,0,-1
-154.90,28.50,-80.95,3975,-7232,1138,-1,-1,-1
-154.89,28.51,-80.97,3973,-7233,1151,-1,0,-1
-154.88,28.52,-80.98,3985,-7232,1143,-1,0,-1
-154.88,28.52,-80.98,3972,-7226,1152,-1,0,0
-154.88,28.51,-80.98,3963,-7227,1140,-1,0,-1
-154.87,28.52,-80.98,3970,-7228,1147,-1,-1,-1
-154.87,28.52,-80.98,3976,-7225,1157,-1,0,-1
-154.87,28.52,-80.98,3973,-7224,1149,0,0,-1
-154.88,28.52,-80.95,3970,-7223,1159,0,0,0
-154.89,28.51,-80.95,3962,-7232,1140,0,0,0
-154.89,28.51,-80.94,3971,-7232,1150,0,0,0
-154.90,28.51,-80.93,3973,-7228,1152,0,0,0
-154.90,28.51,-80.93,3973,-7230,1156,0,-1,-1
-154.90,28.52,-80.93,3975,-7229,1147,0,0,-1
-154.90,28.52,-80.91,3981,-7226,1159,0,-1,-1
-154.89,28.53,-80.92,3987,-7225,1165,-1,-1,-1
-154.88,28.53,-80.92,3980,-7225,1159,0,-1,-1
-154.88,28.53,-80.92,3974,-7221,1164,0,-1,0
-154.89,28.53,-80.92,3971,-7220,1153,0,-1,0
-154.89,28.53,-80.91,3974,-7224,1152,0,-1,0
-154.90,28.52,-80.90,3978,-7224,1160,0,-1,0
-154.91,28.52,-80.89,3973,-7226,1152,0,-1,0
-154.92,28.51,-80.88,3973,-7224,1150,0,-1,0
-154.93,28.51,-80.87,3975,-7224,1152,0,-1,0
-154.93,28.52,-80.87,3977,-7218,1151,0,-1,0
-154.93,28.51,-80.86,3973,-7213,1151,0,-1,0
-154.93,28.51,-80.86,3963,-7224,1148,0,-1,-1
-154.93,28.52,-80.87,3971,-7233,1155,0,-1,-1
-154.93,28.52,-80.88,3982,-7223,1158,-1,-1,-1
-154.91,28.53,-80.88,3977,-7211,1169,-1,-1,-1
-154.91,28.53,-80.88,3982,-7212,1173,0,-1,-1
-154.91,28.54,-80.88,3978,-7214,1162,0,-1,-1
-154.91,28.53,-80.87,3982,-7212,1171,0,-1,0
-154.92,28.53,-80.87,3970,-7218,1156,0,0,0
-154.93,28.52,-80.86,3962,-7218,1150,0,0,0
-154.95,28.51,-80.85,3966,-7220,1150,0,-1,0
-154.95,28.51,-80.84,3977,-7219,1148,0,-1,0
-154.95,28.52,-80.84,3982,-7220,1156,0,-1,0
-154.95,28.52,-80.83,3986,-7219,1166,0,-1,-1
-154.94,28.53,-80.84,3987,-7223,1170,-1,-1,-1
-154.93,28.53,-80.84,3976,-7221,1165,-1,-1,-1
-154.93,28.53,-80.85,3971,-7217,1172,-1,-1,-1
-154.93,28.54,-80.85,3972,-7214,1179,-1,-1,-1
-154.93,28.54,-80.85,3975,-7218,1175,-1,-1,0
-154.93,28.54,-80.85,3984,-7226,1174,0,-1,-1
-154.92,28.54,-80.84,3993,-7223,1164,0,-1,0
-154.93,28.54,-80.85,3987,-7224,1156,0,-1,0
-154.93,28.54,-80.84,3983,-7220,1160,0,-1,0
-154.93,28.54,-80.85,3989,-7214,1156,0,-1,0
-154.93,28.54,-80.84,3978,-7220,1164,0,0,0
-154.94,28.53,-80.84,3981,-7225,1171,0,-1,0
-154.95,28.53,-80.82,3980,-7226,1166,0,-1,0
-154.95,28.53,-80.82,3975,-7223,1166,0,-1,-1
-154.95,28.53,-80.83,3977,-7229,1166,-1,-1,-1
-154.94,28.54,-80.84,3991,-7220,1161,-1,-1,-1
-154.93,28.54,-80.85,3968,-7224,1149,-1,-1,-1
-154.93,28.54,-80.85,3991,-7214,1166,-1,-1,0
-154.92,28.55,-80.86,3992,-7221,1184,-1,-1,-1
-154.92,28.55,-80.88,3988,-7204,1166,-1,-1,0
-154.92,28.54,-80.89,3963,-7220,1151,-1,0,0
-154.92,28.54,-80.89,3994,-7219,1172,-1,-1,0
-154.92,28.54,-80.90,3959,-7224,1152,0,0,0
-154.92,28.54,-80.89,3990,-7205,1175,0,-1,0
-154.93,28.53,-80.88,3964,-7226,1148,0,0,-1
-154.94,28.53,-80.88,3986,-7226,1146,0,-1,0
-154.94,28.53,-80.88,3976,-7221,1163,-1,-1,0
-154.95,28.52,-80.88,3990,-7234,1144,0,-1,-1
-154.94,28.53,-80.88,3978,-7222,1156,-1,-1,-1
-154.93,28.53,-80.89,3975,-7220,1150,0,-1,-1
-154.94,28.53,-80.88,3985,-7224,1183,0,-1,-1
-154.92,28.54,-80.88,3987,-7225,1159,-1,-1,-1
-154.92,28.55,-80.89,3981,-7220,1170,-1,-1,-1
-154.91,28.55,-80.89,3969,-7212,1170,0,-1,-1
-154.92,28.55,-80.89,3974,-7208,1168,0,-1,0
-154.93,28.55,-80.88,3972,-7205,1161,0,0,0
-154.94,28.54,-80.86,3978,-7209,1163,0,0,0
-154.95,28.54,-80.85,3979,-7218,1155,0,0,0
-154.95,28.53,-80.84,3977,-7224,1167,0,0,0
-154.97,28.52,-80.83,3977,-7225,1167,0,0,-1
-154.96,28.53,-80.83,3982,-7225,1159,0,0,-1
-154.96,28.53,-80.83,3973,-7226,1152,0,0,-1
-154.97,28.52,-80.83,3970,-7219,1157,0,-1,-1
-154.96,28.53,-80.83,3975,-7221,1151,0,-1,-1
-154.96,28.53,-80.83,3982,-7217,1163,-1,-1,0
-154.96,28.53,-80.83,3975,-7220,1157,-1,0,-1
-154.95,28.54,-80.84,3973,-7221,1161,-1,0,0
-154.95,28.54,-80.84,3980,-7227,1166,-1,0,-1
-154.95,28.54,-80.85,3973,-7225,1166,-1,0,-1
-154.95,28.53,-80.84,3964,-7229,1160,0,0,0
-154.95,28.53,-80.84,3966,-7220,1155,0,0,0
-154.96,28.53,-80.83,3973,-7223,1157,0,0,0
-154.97,28.53,-80.82,3978,-7219,1162,0,0,0
-154.97,28.53,-80.81,3983,-7223,1167,0,-1,0
-154.97,28.53,-80.81,3985,-7218,1175,0,-1,0
-154.97,28.53,-80.81,3982,-7224,1175,-1,-1,-1
-154.97,28.53,-80.81,3982,-7229,1179,-1,-1,-1
-154.96,28.53,-80.82,3976,-7228,1173,-1,0,-1
-154.96,28.53,-80.82,3970,-7222,1171,-1,-1,0
-154.96,28.53,-80.82,3973,-7220,1173,0,-1,0
-154.97,28.53,-80.81,3976,-7218,1171,0,-1,0
-154.97,28.53,-80.81,3981,-7221,1177,0,-1,-1
-154.97,28.53,-80.81,3977,-7216,1176,0,-1,0
-154.97,28.53,-80.82,3982,-7210,1171,0,-1,0
-154.97,28.53,-80.81,3983,-7214,1174,0,0,0
-154.97,28.53,-80.80,3979,-7219,1172,0,0,0
-154.99,28.52,-80.80,3975,-7227,1172,0,0,0
-154.99,28.52,-80.80,3975,-7230,1173,-1,-1,-1
-154.97,28.53,-80.80,3980,-7218,1174,-1,-1,-1
-154.97,28.53,-80.81,3971,-7213,1176,-1,-1,-1
-154.97,28.53,-80.81,3978,-7206,1181,-1,-1,-1
-154.97,28.53,-80.81,3981,-7212,1178,-1,-1,0
-154.96,28.54,-80.82,3980,-7217,1175,-1,-1,0
-154.96,28.53,-80.82,3976,-7217,1175,-1,0,-1
-154.96,28.53,-80.82,3977,-7216,1164,0,0,0
-154.96,28.53,-80.82,3982,-7213,1169,0,0,0
-154.97,28.52,-80.81,3977,-7225,1169,0,0,-1
-154.97,28.53,-80.81,3984,-7224,1172,-1,0,0
-154.97,28.52,-80.81,3975,-7228,1166,-1,-1,-1
-154.97,28.52,-80.82,3968,-7224,1162,-1,0,-1
-154.97,28.52,-80.82,3969,-7227,1162,-1,0,-1
-154.96,28.53,-80.83,3966,-7226,1164,-1,0,-1
-154.96,28.53,-80.82,3967,-7230,1174,-1,0,-1
-154.96,28.53,-80.82,3971,-7229,1182,-1,0,-1
-154.95,28.53,-80.82,3974,-7223,1178,-1,0,-1
-154.94,28.54,-80.83,3978,-7219,1170,-1,0,-1
-154.94,28.54,-80.82,3980,-7212,1173,-1,0,0
-154.95,28.53,-80.83,3972,-7212,1170,-1,0,0
-154.95,28.52,-80.82,3972,-7214,1168,0,0,0
-154.96,28.52,-80.81,3979,-7210,1170,0,0,0
-154.97,28.52,-80.80,3976,-7220,1171,0,0,0
-154.98,28.51,-80.80,3980,-7226,1165,-1,0,0
-154.97,28.51,-80.80,3980,-7222,1167,-1,0,-1
-154.97,28.51,-80.81,3969,-7226,1157,-1,0,-1
-154.96,28.52,-80.81,3977,-7218,1166,-1,0,-1
-154.96,28.52,-80.81,3982,-7219,1163,-1,0,-1
-154.95,28.52,-80.82,3985,-7226,1171,-1,0,-1
-154.94,28.53,-80.82,3985,-7231,1173,-1,0,-1
-154.93,28.53,-80.83,3988,-7235,1163,-1,0,-1
-154.93,28.53,-80.84,3985,-7221,1174,-1,0,-1
-154.93,28.53,-80.84,3987,-7219,1174,-1,0,0
-154.93,28.53,-80.84,3985,-7213,1157,-1,0,0
-154.93,28.53,-80.84,3984,-7213,1161,0,0,0
-154.94,28.52,-80.83,3969,-7217,1164,0,0,0
-154.95,28.51,-80.81,3964,-7220,1169,0,0,0
-154.96,28.51,-80.81,3974,-7220,1163,0,0,0
-154.95,28.51,-80.81,3979,-7227,1163,-1,0,-1
-154.95,28.52,-80.81,3979,-7222,1168,-1,0,-1
-154.94,28.52,-80.82,3977,-7226,1168,-1,0,-1
-154.93,28.53,-80.83,3972,-7219,1167,-1,0,-1
-154.93,28.53,-80.83,3972,-7217,1168,-1,0,-1
-154.92,28.53,-80.84,3969,-7215,1170,-1,0,-1
-154.93,28.53,-80.84,3971,-7214,1166,-1,0,-1
-154.92,28.53,-80.85,3980,-7220,1165,-1,0,-1
-154.92,28.52,-80.84,3975,-7214,1160,-1,0,0
-154.92,28.52,-80.84,3975,-7214,1171,-1,0,0
-154.92,28.52,-80.84,3973,-7213,1159,-1,0,0
-154.93,28.52,-80.83,3974,-7217,1155,0,0,0
-154.94,28.51,-80.83,3982,-7228,1160,-1,0,0
-154.93,28.51,-80.84,3975,-7228,1169,-1,0,0
-154.94,28.51,-80.83,3968,-7230,1169,-1,0,0
-154.93,28.51,-80.84,3970,-7226,1168,-1,0,-1
-154.93,28.51,-80.85,3975,-7229,1161,-1,0,-1
-154.92,28.52,-80.85,3983,-7223,1163,-1,0,-1
-154.91,28.52,-80.86,3984,-7216,1163,-1,0,-1
-154.91,28.52,-80.87,3980,-7225,1151,-1,0,-1
-154.90,28.53,-80.88,3986,-7230,1172,-1,-1,0
-154.89,28.52,-80.89,3972,-7231,1168,-1,0,-1
-154.89,28.52,-80.90,3963,-7222,1157,-1,0,-1
-154.89,28.52,-80.91,3961,-7230,1159,-1,0,-1
-154.88,28.53,-80.91,3976,-7216,1178,-1,0,0
-154.88,28.53,-80.91,3957,-7227,1161,0,0,-1
-154.89,28.52,-80.90,3982,-7210,1159,0,0,0
-154.88,28.53,-80.90,3979,-7220,1162,-1,0,-1
-154.88,28.53,-80.90,3993,-7216,1155,-1,0,0
-154.88,28.52,-80.90,3992,-7216,1157,-1,0,0
-154.89,28.51,-80.91,3986,-7223,1147,-1,0,0
-154.89,28.51,-80.91,3968,-7220,1138,-1,0,0
-154.89,28.51,-80.91,3978,-7236,1145,0,-1,0
-154.90,28.50,-80.92,3970,-7222,1157,-1,0,0
-154.89,28.50,-80.93,3969,-7225,1150,-1,0,-1
-154.90,28.50,-80.93,3957,-7231,1153,0,0,-1
-154.89,28.50,-80.92,3963,-7235,1147,-1,0,-1
-154.89,28.50,-80.92,3966,-7235,1150,-1,-1,-1
-154.88,28.51,-80.94,3962,-7224,1140,-1,-1,-1
-154.88,28.51,-80.94,3975,-7226,1157,-1,0,-1
-154.88,28.51,-80.94,3976,-7227,1156,-1,0,0
-154.88,28.51,-80.93,3978,-7227,1141,0,0,-1
-154.88,28.51,-80.93,3965,-7223,1151,-1,-1,-1
-154.88,28.51,-80.94,3966,-7224,1162,0,-1,-1
-154.88,28.51,-80.93,3964,-7221,1162,0,-1,-1
-154.89,28.51,-80.93,3961,-7221,1150,0,-1,0
-154.89,28.51,-80.92,3964,-7222,1132,0,-1,0
-154.89,28.51,-80.91,3978,-7223,1140,0,-1,-1
-154.90,28.51,-80.90,3974,-7218,1138,0,-1,0
-154.90,28.51,-80.90,3978,-7224,1156,0,-1,0
-154.90,28.51,-80.89,3973,-7222,1167,0,-1,0
-154.90,28.51,-80.89,3973,-7231,1171,-1,-1,-1
-154.89,28.52,-80.90,3976,-7232,1174,-1,-1,-1
-154.88,28.53,-80.90,3978,-7221,1169,0,-1,-1
-154.88,28.53,-80.90,3971,-7208,1150,0,-1,0
-154.89,28.53,-80.89,3973,-7211,1145,0,-1,0
-154.90,28.52,-80.88,3979,-7211,1147,0,-1,0
-154.91,28.52,-80.87,3982,-7210,1155,0,-1,0
-154.91,28.52,-80.87,3977,-7222,1157,0,-1,0
-154.91,28.52,-80.87,3975,-7230,1164,0,-1,-1
-154.91,28.52,-80.86,3976,-7221,1159,0,-1,-1
-154.91,28.52,-80.87,3975,-7224,1161,0,-1,0
-154.92,28.52,-80.85,3973,-7219,1159,0,-1,0
-154.93,28.51,-80.84,3970,-7222,1160,0,-1,0
-154.93,28.52,-80.84,3985,-7218,1168,0,-1,0
-154.93,28.52,-80.84,3983,-7235,1157,0,-1,-1
-154.93,28.52,-80.84,3987,-7231,1177,-1,-1,-1
-154.92,28.52,-80.85,3973,-7225,1169,0,-1,-1
-154.92,28.53,-80.85,3969,-7222,1173,0,-1,0
-154.92,28.52,-80.84,3973,-7222,1174,0,-1,0
-154.92,28.52,-80.84,3973,-7220,1168,0,-1,0
-154.93,28.52,-80.83,3970,-7223,1155,0,-1,-1
-154.93,28.53,-80.83,3982,-7222,1171,0,-1,-1
-154.92,28.53,-80.83,3987,-7213,1168,0,-1,-1
-154.92,28.54,-80.83,3989,-7208,1161,0,-1,-1
-154.92,28.54,-80.83,3980,-7211,1165,0,-1,0
-154.92,28.54,-80.83,3978,-7204,1163,0,-1,0
-154.93,28.53,-80.83,3970,-7211,1154,0,-1,0
-154.94,28.53,-80.82,3982,-7215,1156,0,-1,0
-154.94,28.52,-80.82,3979,-7219,1166,0,-1,0
-154.95,28.52,-80.81,3982,-7219,1168,0,-1,0
-154.94,28.53,-80.81,3979,-7217,1172,0,-1,-1
-154.95,28.52,-80.81,3975,-7223,1174,0,-1,-1
-154.94,28.53,-80.81,3976,-7224,1173,0,-1,-1
-154.95,28.52,-80.81,3973,-7222,1167,0,-1,-1
-154.94,28.53,-80.81,3971,-7224,1160,0,-1,-1
-154.95,28.52,-80.81,3973,-7223,1164,-1,-1,-1
-154.94,28.53,-80.82,3983,-7221,1164,-1,-1,-1
-154.94,28.53,-80.82,3990,-7218,1167,-1,-1,-1
-154.93,28.54,-80.83,3982,-7213,1170,-1,-1,-1
-154.93,28.54,-80.84,3973,-7210,1166,-1,-1,0
-154.94,28.53,-80.83,3973,-7215,1164,0,0,0
-154.95,28.52,-80.82,3969,-7219,1160,0,0,0
-154.96,28.52,-80.81,3970,-7222,1154,0,0,0
-154.97,28.51,-80.81,3962,-7224,1158,0,-1,0
-154.97,28.51,-80.80,3978,-7228,1177,0,-1,0
-154.97,28.51,-80.81,3971,-7227,1170,0,-1,-1
-154.97,28.52,-80.80,3976,-7215,1161,0,-1,-1
-154.96,28.52,-80.80,3976,-7207,1176,-1,-1,-1
-154.96,28.53,-80.81,3971,-7207,1169,-1,-1,-1
-154.96,28.53,-80.81,3978,-7208,1171,-1,-1,-1
-154.95,28.53,-80.81,3983,-7220,1165,0,-1,-1
-154.95,28.53,-80.81,3978,-7218,1167,-1,-1,-1
-154.95,28.53,-80.81,3979,-7218,1170,-1,-1,0
-154.95,28.53,-80.81,3971,-7219,1177,0,-1,0
-154.95,28.53,-80.82,3972,-7214,1168,0,-1,-1
-154.95,28.53,-80.81,3971,-7208,1167,0,-1,0
-154.95,28.53,-80.81,3977,-7216,1165,0,-1,0
-154.96,28.53,-80.81,3982,-7222,1169,0,-1,0
-154.96,28.53,-80.80,3988,-7227,1171,0,-1,0
-154.97,28.53,-80.80,3987,-7227,1168,0,-1,0
-154.97,28.53,-80.80,3984,-7222,1167,0,-1,0
-154.97,28.52,-80.80,3975,-7218,1152,0,-1,-1
-154.97,28.53,-80.80,3978,-7210,1154,0,-1,-1
-154.97,28.53,-80.80,3979,-7215,1164,-1,-1,-1
-154.96,28.53,-80.81,3976,-7219,1166,-1,-1,-1
-154.96,28.53,-80.81,3979,-7212,1170,0,-1,0
-154.96,28.53,-80.81,3975,-7215,1167,0,-1,0
-154.96,28.53,-80.81,3970,-7223,1164,0,-1,-1
-154.97,28.53,-80.80,3974,-7221,1166,0,-1,-1
-154.96,28.53,-80.80,3981,-7206,1168,-1,-1,-1
-154.96,28.53,-80.80,3974,-7208,1170,-1,-1,0
-154.97,28.53,-80.80,3979,-7215,1155,0,-1,0
-154.96,28.53,-80.82,3974,-7228,1151,0,-1,-1
-154.97,28.53,-80.81,3974,-7233,1167,-1,-1,-1
-154.96,28.53,-80.82,3975,-7227,1162,0,-1,-1
-154.96,28.53,-80.81,3972,-7222,1163,0,-1,-1
-154.95,28.54,-80.81,3974,-7216,1161,-1,-1,-1
-154.95,28.54,-80.82,3980,-7217,1167,-1,-1,-1
-154.95,28.54,-80.82,3978,-7218,1172,-1,-1,0
-154.95,28.54,-80.83,3979,-7219,1176,-1,-1,0
-154.95,28.54,-80.83,3975,-7216,1178,-1,-1,-1
-154.95,28.54,-80.83,3970,-7223,1163,0,-1,0
-154.95,28.54,-80.83,3974,-7227,1164,-1,-1,-1
-154.95,28.54,-80.84,3975,-7234,1180,-1,-1,-1
-154.94,28.55,-80.84,3978,-7223,1171,-1,-1,-1
-154.93,28.56,-80.85,3983,-7223,1174,-1,-1,-1
-154.92,28.56,-80.85,3988,-7210,1176,-1,-1,-1
-154.92,28.56,-80.85,3979,-7211,1162,-1,-1,0
-154.93,28.56,-80.85,3979,-7213,1153,0,-1,0
-154.93,28.56,-80.85,3977,-7216,1152,0,0,0
-154.94,28.55,-80.84,3978,-7226,1162,0,-1,0
-154.94,28.54,-80.84,3971,-7227,1156,0,-1,0
-154.94,28.54,-80.84,3975,-7222,1151,-1,-1,-1
-154.94,28.55,-80.85,3973,-7223,1160,0,-1,-1
-154.94,28.55,-80.85,3973,-7217,1161,-1,-1,0
-154.94,28.55,-80.85,3969,-7223,1153,-1,0,-1
-154.93,28.55,-80.85,3975,-7225,1165,-1,0,0
-154.94,28.55,-80.85,3984,-7228,1164,-1,0,-1
-154.94,28.55,-80.85,3984,-7225,1171,-1,-1,0
-154.93,28.55,-80.85,3992,-7213,1183,-1,-1,0
-154.93,28.56,-80.86,3977,-7209,1174,-1,0,-1
-154.93,28.55,-80.86,3970,-7213,1162,-1,0,-1
-154.94,28.54,-80.85,3955,-7218,1164,0,0,0
-154.94,28.54,-80.85,3976,-7220,1162,0,0,0
-154.94,28.54,-80.85,3975,-7226,1160,-1,0,-1
-154.94,28.54,-80.85,3980,-7228,1162,0,0,-1
-154.93,28.55,-80.85,3992,-7211,1182,-1,0,-1
-154.92,28.55,-80.86,3981,-7218,1170,-1,-1,-1
-154.92,28.55,-80.86,3978,-7211,1175,-1,-1,0
-154.91,28.56,-80.88,3980,-7225,1155,-1,0,-1
-154.91,28.55,-80.88,3960,-7223,1155,-1,0,-1
-154.91,28.55,-80.88,3986,-7222,1160,-1,-1,0
-154.91,28.55,-80.89,3970,-7216,1154,0,0,0
-154.92,28.54,-80.88,3975,-7232,1166,-1,-1,0
-154.92,28.54,-80.88,3981,-7219,1163,-1,0,0
-154.92,28.53,-80.89,3993,-7223,1166,-1,-1,0
-154.92,28.53,-80.90,3969,-7231,1141,0,0,-1
-154.92,28.53,-80.90,3973,-7230,1149,-1,0,0
-154.91,28.53,-80.90,3993,-7225,1151,0,0,-1
-154.91,28.53,-80.90,3978,-7219,1162,-1,0,0
-154.91,28.53,-80.91,3968,-7224,1139,0,0,-1
-154.91,28.53,-80.91,3980,-7219,1166,-1,-1,-1
-154.90,28.54,-80.92,3953,-7221,1141,0,0,-1
-154.90,28.54,-80.91,3997,-7221,1163,-1,-1,-1
-154.89,28.55,-80.91,3975,-7215,1170,-1,0,-1
-154.89,28.55,-80.91,3961,-7220,1157,-1,0,-1
-154.89,28.54,-80.91,3961,-7220,1158,0,0,0
-154.89,28.54,-80.90,3976,-7224,1160,0,0,0
-154.90,28.54,-80.89,3983,-7227,1157,0,0,-1
-154.90,28.54,-80.88,3984,-7230,1154,0,0,-1
-154.91,28.54,-80.87,3986,-7222,1168,0,0,-1
-154.91,28.54,-80.85,3979,-7219,1166,0,0,0
-154.91,28.54,-80.85,3984,-7227,1175,0,0,0
-154.92,28.53,-80.85,3975,-7230,1174,-1,0,0
-154.93,28.53,-80.84,3972,-7232,1164,0,0,0
-154.93,28.53,-80.84,3981,-7228,1164,-1,0,0
-154.93,28.52,-80.84,3971,-7231,1170,-1,0,0
-154.93,28.53,-80.84,3969,-7233,1167,-1,0,-1
-154.92,28.53,-80.85,3977,-7226,1169,-1,0,-1
-154.90,28.55,-80.85,3984,-7216,1169,-1,-1,-1
-154.89,28.55,-80.86,3990,-7208,1173,-1,0,-1
-154.89,28.55,-80.86,3986,-7205,1170,-1,0,0
-154.90,28.55,-80.85,3975,-7203,1169,0,0,0
-154.90,28.54,-80.86,3971,-7207,1160,0,0,0
-154.92,28.53,-80.84,3971,-7222,1162,0,0,0
-154.92,28.52,-80.84,3979,-7218,1167,0,0,0
-154.94,28.51,-80.84,3971,-7231,1169,-1,0,-1
-154.93,28.52,-80.84,3972,-7233,1163,-1,0,-1
-154.92,28.52,-80.85,3971,-7225,1157,-1,0,-1
-154.92,28.52,-80.85,3974,-7220,1161,-1,0,-1
-154.91,28.53,-80.87,3979,-7217,1152,-1,-1,-1
-154.90,28.54,-80.87,3981,-7214,1164,-1,-1,-1
-154.89,28.54,-80.87,3980,-7220,1170,-1,-1,-1
-154.89,28.54,-80.87,3985,-7223,1171,-1,-1,0
-154.88,28.55,-80.88,3986,-7222,1175,-1,0,-1
-154.88,28.54,-80.88,3978,-7218,1173,-1,0,0
-154.89,28.54,-80.88,3971,-7217,1167,-1,0,0
-154.89,28.53,-80.88,3968,-7214,1159,0,0,0
-154.90,28.53,-80.87,3974,-7220,1151,0,0,0
-154.91,28.52,-80.87,3971,-7229,1153,0,0,0
-154.91,28.52,-80.87,3978,-7227,1154,0,0,0
-154.91,28.52,-80.87,3984,-7221,1152,-1,-1,0
-154.91,28.52,-80.87,3985,-7215,1156,-1,-1,-1
-154.89,28.53,-80.88,3985,-7210,1159,-1,-1,-1
-154.89,28.54,-80.88,3983,-7212,1168,-1,-1,-1
-154.88,28.54,-80.89,3982,-7212,1166,-1,-1,-1
-154.88,28.54,-80.89,3975,-7217,1167,-1,-1,-1
-154.88,28.54,-80.89,3975,-7223,1165,-1,-1,-1
-154.88,28.54,-80.89,3973,-7219,1157,-1,-1,-1
-154.88,28.54,-80.89,3966,-7217,1160,0,-1,0
-154.89,28.54,-80.89,3968,-7218,1157,0,-1,0
-154.89,28.53,-80.89,3975,-7219,1163,0,-1,0
-154.89,28.53,-80.88,3978,-7231,1171,0,0,0
-154.90,28.53,-80.87,3973,-7224,1164,0,-1,-1
-154.90,28.53,-80.87,3978,-7223,1162,0,-1,-1
-154.90,28.54,-80.86,3980,-7222,1158,0,0,-1
-154.89,28.55,-80.86,3981,-7218,1153,0,-1,-1
-154.88,28.55,-80.87,3981,-7216,1158,-1,-1,-1
-154.87,28.56,-80.88,3986,-7224,1153,-1,-1,-1
-154.86,28.57,-80.89,3984,-7206,1149,0,-1,-1
-154.86,28.57,-80.88,3978,-7194,1154,0,-1,-1
-154.86,28.57,-80.88,3988,-7207,1144,0,-1,0
-154.88,28.56,-80.87,3977,-7216,1153,0,-1,0
-154.88,28.56,-80.86,3983,-7222,1147,0,-1,0
-154.90,28.55,-80.85,3974,-7221,1156,0,-1,0
-154.90,28.55,-80.86,3976,-7223,1159,0,-1,0
-154.91,28.54,-80.85,3975,-7221,1162,0,-1,0
-154.91,28.55,-80.84,3984,-7222,1161,0,-1,0
-154.91,28.55,-80.84,3984,-7223,1165,0,-1,-1
-154.91,28.55,-80.84,3989,-7219,1160,0,-1,-1
-154.90,28.56,-80.84,3992,-7207,1152,-1,-1,-1
-154.89,28.56,-80.84,3987,-7203,1164,-1,-1,0
-154.90,28.56,-80.84,3986,-7213,1169,0,-1,0
-154.89,28.56,-80.85,3981,-7214,1159,0,-1,0
-154.90,28.56,-80.85,3972,-7217,1163,0,-1,0
-154.92,28.55,-80.84,3971,-7214,1162,0,-1,0
-154.93,28.54,-80.83,3974,-7215,1162,0,0,0
-154.93,28.54,-80.83,3974,-7216,1155,0,-1,0
-154.93,28.54,-80.82,3975,-7228,1165,0,-1,-1
-154.93,28.54,-80.82,3967,-7224,1172,0,-1,-1
-154.93,28.54,-80.82,3965,-7231,1155,0,-1,-1
-154.93,28.54,-80.83,3970,-7227,1162,0,-1,-1
-154.92,28.55,-80.83,3974,-7215,1161,0,-1,-1
-154.91,28.56,-80.83,3994,-7212,1167,-1,-1,-1
-154.90,28.57,-80.84,4003,-7208,1176,-1,-1,-1
-154.89,28.58,-80.84,4000,-7201,1167,-1,-1,0
-154.89,28.58,-80.85,3988,-7202,1154,-1,-1,0
-154.90,28.57,-80.84,3982,-7215,1153,0,-1,0
-154.92,28.56,-80.84,3976,-7216,1153,0,0,0
-154.93,28.55,-80.82,3970,-7223,1160,0,-1,0
-154.94,28.54,-80.81,3975,-7232,1155,0,-1,0
-154.95,28.54,-80.81,3970,-7239,1155,0,-1,0
-154.95,28.54,-80.81,3981,-7234,1157,0,-1,-1
-154.94,28.55,-80.81,3992,-7226,1174,-1,-1,-1
-154.93,28.56,-80.82,3986,-7219,1163,-1,0,-1
-154.92,28.56,-80.83,3988,-7212,1170,-1,0,0
-154.92,28.56,-80.83,3971,-7219,1172,0,0,0
-154.93,28.55,-80.83,3975,-7223,1169,-1,-1,-1
-154.93,28.56,-80.82,3974,-7220,1181,0,-1,0
-154.94,28.55,-80.82,3978,-7226,1171,0,-1,-1
-154.93,28.56,-80.82,3972,-7217,1176,-1,-1,-1
-154.93,28.56,-80.82,3966,-7215,1181,0,0,-1
-154.93,28.56,-80.81,3974,-7206,1175,0,-1,0
-154.93,28.56,-80.81,3979,-7205,1183,0,0,0
-154.95,28.55,-80.80,3978,-7216,1172,0,0,0
-154.95,28.55,-80.80,3989,-7221,1180,0,-1,0
-154.95,28.55,-80.80,3987,-7226,1164,0,-1,0
-154.96,28.54,-80.80,3981,-7222,1163,-1,-1,0
-154.95,28.55,-80.81,3980,-7219,1170,0,-1,0
-154.96,28.54,-80.81,3964,-7224,1164,0,-1,-1
-154.96,28.54,-80.81,3973,-7227,1171,0,-1,-1
-154.95,28.55,-80.80,3977,-7229,1173,0,-1,-1
-154.95,28.55,-80.80,3984,-7225,1159,0,-1,-1
-154.95,28.55,-80.80,3984,-7224,1167,0,-1,-1
-154.95,28.56,-80.79,3983,-7225,1172,0,-1,-1
-154.95,28.56,-80.79,3978,-7209,1173,-1,-1,0
-154.95,28.55,-80.80,3975,-7214,1167,0,0,0
-154.97,28.54,-80.79,3970,-7215,1160,0,-1,0
-154.97,28.54,-80.79,3973,-7223,1154,0,0,-1
-154.96,28.55,-80.79,3977,-7223,1155,0,-1,-1
-154.96,28.55,-80.80,3975,-7232,1159,-1,-1,-1
-154.95,28.56,-80.80,3983,-7227,1158,-1,-1,-1
-154.94,28.56,-80.82,3981,-7211,1161,-1,-1,-1
-154.93,28.56,-80.82,3978,-7207,1166,-1,0,0
-154.94,28.56,-80.82,3981,-7202,1152,0,-1,0
-154.94,28.55,-80.82,3982,-7199,1161,0,-1,0
-154.95,28.55,-80.81,3982,-7216,1169,0,-1,0
-154.96,28.55,-80.81,3979,-7218,1179,-1,-1,0
-154.95,28.55,-80.82,3975,-7215,1168,-1,-1,-1
-154.95,28.55,-80.83,3973,-7217,1170,-1,-1,-1
-154.95,28.55,-80.83,3965,-7219,1161,0,-1,-1
-154.94,28.56,-80.83,3978,-7225,1172,0,-1,-1
-154.94,28.56,-80.83,3983,-7220,1170,-1,-1,-1
-154.93,28.57,-80.84,3991,-7224,1166,-1,-1,-1
-154.93,28.57,-80.84,3991,-7210,1168,0,-1,0
-154.93,28.57,-80.84,3991,-7211,1164,-1,0,0
-154.94,28.56,-80.84,3990,-7216,1176,0,-1,0
-154.94,28.56,-80.84,3980,-7216,1181,-1,-1,0
-154.95,28.55,-80.83,3971,-7222,1186,0,-1,0
-154.95,28.55,-80.83,3971,-7224,1165,0,0,0
-154.96,28.55,-80.83,3979,-7226,1168,0,-1,0
-154.96,28.55,-80.82,3973,-7223,1169,0,0,-1
-154.95,28.56,-80.83,3984,-7215,1160,-1,0,-1
-154.94,28.56,-80.83,3987,-7216,1161,-1,-1,-1
-154.92,28.58,-80.84,3991,-7199,1179,-1,0,-1
-154.92,28.57,-80.85,3999,-7205,1150,-1,-1,0
-154.91,28.58,-80.85,4011,-7204,1187,-1,-1,0
-154.92,28.57,-80.86,3967,-7197,1170,-1,-1,0
-154.93,28.56,-80.85,3949,-7212,1147,0,0,0
-154.95,28.55,-80.84,3954,-7219,1137,0,0,-1
-154.95,28.56,-80.82,3984,-7224,1161,0,0,-1
-154.95,28.56,-80.81,3983,-7232,1172,0,0,-1
-154.95,28.56,-80.80,3995,-7223,1184,-1,0,-1
-154.94,28.57,-80.80,3994,-7223,1178,-1,0,-1
-154.93,28.57,-80.81,3980,-7226,1161,-1,0,-1
-154.93,28.57,-80.81,3978,-7211,1164,-1,0,-1
-154.92,28.57,-80.81,3971,-7204,1166,-1,0,-1
-154.93,28.57,-80.80,3979,-7211,1167,0,0,0
-154.93,28.58,-80.80,3985,-7222,1178,-1,0,-1
-154.92,28.58,-80.80,3987,-7223,1179,-1,0,-1
-154.91,28.58,-80.81,3987,-7223,1174,-1,0,-1
-154.91,28.59,-80.81,3992,-7214,1171,-1,0,-1
-154.91,28.59,-80.81,3993,-7208,1163,-1,0,-1
-154.91,28.58,-80.81,3983,-7203,1159,-1,0,0
-154.91,28.58,-80.81,3974,-7208,1152,0,0,0
-154.91,28.58,-80.81,3980,-7213,1156,0,0,0
-154.92,28.57,-80.80,3986,-7221,1163,0,0,-1
-154.91,28.58,-80.80,3988,-7218,1162,-1,0,-1
-154.91,28.58,-80.81,3993,-7216,1169,-1,0,-1
-154.90,28.58,-80.81,3991,-7213,1169,-1,0,-1
-154.90,28.58,-80.81,3990,-7216,1174,-1,0,0
-154.90,28.58,-80.82,3980,-7219,1167,-1,0,0
-154.90,28.57,-80.82,3969,-7222,1162,-1,0,0
-154.91,28.57,-80.82,3970,-7226,1175,-1,0,-1
-154.90,28.57,-80.81,3979,-7230,1187,-1,0,-1
-154.90,28.58,-80.82,3988,-7227,1179,-1,0,-1
-154.89,28.58,-80.82,3995,-7218,1177,-1,0,-1
-154.88,28.59,-80.83,4002,-7211,1158,-1,0,-1
-154.88,28.59,-80.83,3994,-7206,1165,-1,0,0
-154.88,28.58,-80.83,3985,-7206,1166,0,0,0
-154.89,28.58,-80.82,3989,-7215,1159,-1,0,0
-154.90,28.57,-80.82,3982,-7221,1161,-1,0,0
-154.90,28.56,-80.82,3979,-7228,1166,0,-1,0
-154.91,28.56,-80.82,3979,-7230,1164,-1,0,0
-154.90,28.56,-80.83,3974,-7230,1166,-1,0,-1
-154.90,28.56,-80.83,3980,-7226,1167,-1,0,-1
-154.89,28.57,-80.84,3968,-7231,1163,-1,0,-1
-154.88,28.57,-80.85,3976,-7230,1171,-1,0,-1
-154.88,28.57,-80.84,3980,-7227,1176,-1,0,-1
-154.87,28.58,-80.85,3987,-7220,1177,-1,0,-1
-154.87,28.58,-80.85,3983,-7215,1178,-1,0,-1
-154.86,28.58,-80.86,3982,-7212,1175,-1,0,-1
-154.86,28.58,-80.86,3983,-7206,1169,-1,0,0
-154.86,28.58,-80.87,3977,-7211,1166,-1,0,0
-154.87,28.56,-80.87,3970,-7210,1159,-1,0,0
-154.88,28.56,-80.87,3962,-7215,1162,0,0,0
-154.88,28.55,-80.87,3969,-7223,1150,0,0,0
-154.89,28.55,-80.86,3967,-7229,1161,-1,0,-1
-154.88,28.55,-80.87,3977,-7232,1162,-1,0,-1
-154.87,28.55,-80.88,3973,-7227,1159,-1,-1,-1
-154.86,28.56,-80.89,3981,-7225,1154,-1,-1,-1
-154.86,28.56,-80.90,3982,-7213,1157,-1,0,-1
-154.85,28.56,-80.91,3981,-7210,1161,-1,0,0
-154.85,28.56,-80.92,3974,-7212,1155,-1,0,0
-154.85,28.56,-80.91,3975,-7221,1161,-1,0,0
-154.85,28.56,-80.91,3978,-7215,1166,-1,0,0
-154.86,28.55,-80.92,3974,-7229,1158,-1,0,-1
-154.86,28.55,-80.93,3974,-7217,1167,-1,0,0
-154.86,28.54,-80.94,3965,-7226,1156,-1,-1,-1
-154.85,28.55,-80.94,3976,-7215,1163,-1,0,0
-154.86,28.54,-80.93,3975,-7222,1143,0,0,-1
-154.86,28.54,-80.93,3977,-7214,1148,-1,0,0
-154.85,28.54,-80.94,3982,-7221,1143,-1,0,-1
-154.86,28.54,-80.94,3972,-7220,1142,-1,-1,0
-154.85,28.55,-80.95,3980,-7218,1150,-1,0,-1
-154.85,28.54,-80.95,3975,-7232,1135,0,0,-1
-154.85,28.54,-80.95,3974,-7222,1149,-1,-1,0
-154.86,28.54,-80.95,3972,-7227,1144,0,-1,-1
-154.85,28.54,-80.95,3966,-7218,1158,0,-1,-1
-154.85,28.54,-80.95,3973,-7217,1159,-1,-1,-1
-154.85,28.55,-80.95,3977,-7217,1153,0,0,-1
-154.85,28.55,-80.94,3964,-7217,1153,0,-1,-1
-154.84,28.56,-80.93,3981,-7222,1154,0,-1,0
-154.86,28.55,-80.92,3988,-7219,1151,0,-1,0
-154.86,28.55,-80.93,3988,-7218,1149,0,-1,0
-154.86,28.55,-80.92,3979,-7212,1148,0,-1,0
-154.87,28.55,-80.91,3973,-7206,1157,0,-1,0
-154.88,28.54,-80.91,3972,-7218,1154,0,-1,-1
-154.88,28.54,-80.90,3972,-7227,1152,0,-1,-1
-154.88,28.55,-80.90,3977,-7227,1151,0,-1,-1
-154.87,28.56,-80.90,3981,-7231,1153,0,-1,-1
-154.86,28.57,-80.90,3983,-7220,1150,0,-1,-1
-154.86,28.58,-80.90,3982,-7208,1157,0,-1,-1
-154.85,28.58,-80.90,3999,-7216,1155,0,-1,0
-154.86,28.57,-80.90,3988,-7214,1161,0,-1,0
-154.87,28.57,-80.89,3984,-7215,1158,0,-1,0
-154.88,28.56,-80.89,3987,-7233,1160,0,-1,0
-154.89,28.55,-80.89,3959,-7227,1160,0,-1,0
-154.90,28.55,-80.89,3980,-7236,1157,0,-2,0
-154.90,28.55,-80.89,3978,-7227,1161,0,-1,0
-154.90,28.55,-80.90,3981,-7227,1164,0,-1,-1
-154.89,28.57,-80.89,3980,-7220,1160,-1,-1,0
-154.89,28.57,-80.90,3992,-7221,1146,0,-1,0
-154.89,28.56,-80.89,3981,-7212,1172,0,-1,0
-154.89,28.56,-80.90,3993,-7222,1151,-1,-1,0
-154.90,28.55,-80.90,3990,-7224,1162,0,-1,0
-154.92,28.55,-80.89,3954,-7208,1166,0,-1,-1
-154.92,28.55,-80.90,3986,-7222,1156,-1,-1,0
-154.93,28.54,-80.89,3958,-7220,1160,0,-1,0
-154.93,28.54,-80.89,3959,-7209,1156,-1,-1,-1
-154.92,28.55,-80.89,3965,-7219,1149,0,-1,-1
-154.91,28.56,-80.89,3990,-7210,1143,-1,-1,-1
-154.91,28.56,-80.89,4001,-7226,1156,0,-1,-1
-154.91,28.57,-80.88,3989,-7223,1160,0,-1,-1
-154.91,28.57,-80.89,3990,-7224,1157,0,-1,-1
-154.91,28.58,-80.88,3980,-7221,1149,0,-1,0
-154.91,28.57,-80.87,3977,-7212,1163,0,-1,0
-154.92,28.57,-80.86,3968,-7209,1155,0,-1,-1
-154.92,28.57,-80.86,3986,-7223,1154,0,0,-1
-154.93,28.57,-80.85,3987,-7222,1165,0,0,-1
-154.93,28.58,-80.84,3984,-7221,1166,0,-1,-1
-154.93,28.58,-80.84,3978,-7216,1160,0,-1,0
-154.93,28.57,-80.83,3976,-7210,1168,0,-1,-1
-154.93,28.57,-80.83,3993,-7228,1151,0,0,0
-154.94,28.57,-80.82,3980,-7222,1168,0,-1,0
-154.95,28.57,-80.80,3977,-7222,1173,0,0,0
-154.96,28.56,-80.80,3978,-7218,1170,0,-1,0
-154.97,28.55,-80.80,3981,-7221,1162,0,-1,0
-154.97,28.56,-80.79,3987,-7225,1159,0,-1,-1
-154.96,28.56,-80.79,3987,-7219,1159,0,-1,-1
-154.96,28.56,-80.79,3974,-7224,1161,0,-1,-1
-154.96,28.57,-80.79,3975,-7225,1159,0,-1,-1
-154.96,28.57,-80.80,3976,-7223,1153,-1,-1,-1
-154.96,28.57,-80.81,3978,-7223,1163,0,-1,-1
-154.96,28.56,-80.81,3976,-7223,1154,0,-1,0
-154.96,28.57,-80.80,3989,-7217,1175,0,-1,0
-154.97,28.57,-80.79,3984,-7222,1183,0,-1,-1
-154.97,28.57,-80.78,3993,-7220,1182,0,-1,0
-154.97,28.56,-80.78,3991,-7223,1176,0,-1,-1
-154.97,28.57,-80.78,3992,-7216,1176,-1,-1,-1
-154.97,28.56,-80.79,3975,-7216,1161,0,-1,0
-154.98,28.57,-80.78,3975,-7212,1154,0,-1,0
-154.98,28.56,-80.77,3975,-7215,1162,0,-1,0
-154.99,28.56,-80.77,3981,-7216,1164,0,-1,0
-154.99,28.56,-80.77,3988,-7216,1156,0,-1,-1
-154.98,28.56,-80.77,3985,-7224,1161,0,-1,0
-154.99,28.56,-80.77,3977,-7227,1170,0,-1,0
-154.99,28.56,-80.77,3974,-7232,1165,0,-1,-1
-154.99,28.56,-80.77,3973,-7224,1169,0,-1,0
-154.99,28.56,-80.77,3977,-7221,1159,0,-1,-1
-154.98,28.57,-80.77,3988,-7224,1167,0,-1,-1
-154.98,28.57,-80.78,3987,-7227,1170,0,-1,-1
-154.98,28.57,-80.78,3984,-7221,1171,-1,-1,-1
-154.98,28.57,-80.78,3986,-7220,1163,-1,-1,-1
-154.98,28.57,-80.78,3985,-7220,1161,0,-1,0
-154.98,28.57,-80.78,3982,-7215,1166,0,0,0
-154.99,28.56,-80.78,3977,-7217,1161,0,0,0
-155.00,28.55,-80.77,3978,-7219,1162,0,-1,0
-155.01,28.55,-80.76,3979,-7222,1165,0,-1,0
-155.01,28.55,-80.75,3980,-7218,1162,0,-1,-1
-155.01,28.55,-80.76,3976,-7218,1168,0,-1,-1
-155.00,28.56,-80.76,3981,-7213,1163,-1,-1,-1
-154.99,28.57,-80.77,3984,-7206,1165,-1,-1,-1
-154.98,28.57,-80.78,3983,-7205,1156,-1,-1,-1
-154.99,28.57,-80.78,3982,-7206,1167,0,-1,0
-154.98,28.57,-80.78,3980,-7210,1168,0,-1,0
-154.99,28.57,-80.78,3977,-7216,1174,0,-1,0
-154.99,28.57,-80.78,3989,-7219,1162,0,-1,0
-155.00,28.57,-80.77,3986,-7217,1166,0,-1,0
-155.00,28.56,-80.77,3992,-7208,1177,0,-1,0
-155.00,28.56,-80.76,3984,-7225,1166,0,-1,-1
-155.00,28.56,-80.77,3980,-7222,1164,0,-1,0
-155.00,28.56,-80.77,3973,-7222,1155,0,-1,-1
-155.01,28.57,-80.76,3982,-7220,1163,0,-1,-1
-155.00,28.57,-80.77,3985,-7218,1164,0,-1,-1
-154.99,28.58,-80.77,3991,-7212,1150,-1,-1,-1
-154.99,28.58,-80.78,3988,-7210,1148,-1,-1,-1
-154.99,28.58,-80.79,3985,-7213,1150,0,-1,-1
-154.98,28.58,-80.79,3987,-7212,1154,0,-1,-1
-154.98,28.58,-80.79,3990,-7220,1147,0,-1,-1
-154.99,28.58,-80.78,3989,-7218,1157,0,-1,0
-154.99,28.58,-80.78,3984,-7223,1160,0,0,-1
-154.99,28.58,-80.78,3978,-7216,1158,-1,0,0
-154.99,28.58,-80.79,3983,-7216,1158,-1,0,0
-154.99,28.58,-80.79,3981,-7214,1166,-1,0,0
-154.98,28.58,-80.80,3971,-7221,1152,-1,0,-1
-154.98,28.58,-80.80,3982,-7215,1174,-1,-1,0
-154.97,28.58,-80.81,3978,-7224,1159,-1,0,-1
-154.97,28.58,-80.82,3973,-7229,1167,-1,-1,-1
-154.96,28.58,-80.83,3976,-7216,1160,-1,0,-1
-154.95,28.59,-80.83,3976,-7221,1165,-1,-1,-1
-154.95,28.59,-80.83,3992,-7210,1171,-1,0,-1
-154.94,28.59,-80.85,3986,-7207,1149,-1,0,0
-154.95,28.59,-80.84,4002,-7208,1161,0,0,0
-154.95,28.58,-80.84,3976,-7217,1155,-1,0,0
-154.95,28.58,-80.85,3986,-7230,1150,-1,-1,-1
-154.95,28.58,-80.84,3992,-7213,1159,0,0,0
-154.97,28.57,-80.84,3982,-7220,1150,-1,0,0
-154.96,28.57,-80.84,3984,-7225,1151,0,0,-1
-154.96,28.57,-80.85,3973,-7220,1149,-1,-1,0
-154.97,28.57,-80.84,3968,-7231,1159,0,-1,-1
-154.95,28.58,-80.84,3980,-7226,1165,-1,0,-1
-154.96,28.57,-80.84,3983,-7229,1162,-1,-1,-1
-154.95,28.58,-80.84,3978,-7226,1158,0,-1,-1
-154.95,28.58,-80.84,3993,-7218,1163,-1,0,-1
-154.94,28.59,-80.84,3993,-7219,1160,-1,0,-1
-154.94,28.59,-80.83,3992,-7207,1146,0,0,-1
-154.95,28.59,-80.82,3989,-7197,1153,0,0,0
-154.95,28.58,-80.82,3981,-7208,1153,0,0,0
-154.96,28.58,-80.81,3971,-7215,1149,0,0,0
-154.97,28.57,-80.79,3978,-7223,1156,0,0,0
-154.97,28.57,-80.79,3989,-7225,1152,0,0,0
-154.97,28.57,-80.79,3990,-7221,1158,-1,0,-1
-154.97,28.57,-80.78,3991,-7215,1159,-1,0,-1
-154.97,28.57,-80.79,3990,-7217,1161,-1,-1,-1
-154.97,28.57,-80.80,3985,-7211,1163,-1,0,-1
-154.96,28.58,-80.80,3987,-7212,1155,0,0,0
-154.96,28.58,-80.80,3986,-7222,1155,-1,0,0
-154.97,28.57,-80.80,3981,-7226,1164,-1,0,-1
-154.96,28.57,-80.80,3985,-7223,1166,-1,-1,-1
-154.96,28.57,-80.80,3989,-7220,1169,-1,0,-1
-154.95,28.58,-80.81,3989,-7213,1167,0,-1,0
-154.95,28.58,-80.81,3988,-7210,1155,0,0,0
-154.96,28.57,-80.81,3986,-7212,1148,0,0,0
-154.97,28.56,-80.80,3983,-7221,1149,0,0,0
-154.97,28.56,-80.80,3977,-7224,1156,0,0,0
-154.98,28.56,-80.80,3980,-7221,1156,0,0,0
-154.98,28.56,-80.80,3979,-7220,1160,-1,0,-1
-154.97,28.56,-80.81,3985,-7222,1156,-1,0,-1
-154.96,28.57,-80.81,3986,-7220,1165,-1,0,-1
-154.96,28.57,-80.81,3986,-7214,1172,-1,0,-1
-154.96,28.56,-80.81,3979,-7214,1160,-1,0,-1
-154.96,28.57,-80.81,3980,-7215,1162,0,0,0
-154.95,28.57,-80.81,3988,-7212,1165,-1,0,0
-154.96,28.57,-80.82,3984,-7212,1156,-1,0,0
-154.95,28.57,-80.82,3973,-7205,1161,-1,0,0
-154.96,28.56,-80.82,3977,-7216,1158,0,0,0
-154.96,28.56,-80.82,3980,-7220,1165,0,0,-1
-154.96,28.57,-80.81,3975,-7216,1168,0,0,-1
-154.96,28.57,-80.81,3979,-7219,1173,0,0,-1
-154.96,28.56,-80.81,3987,-7221,1166,-1,0,0
-154.96,28.56,-80.82,3979,-7215,1164,-1,-1,0
-154.96,28.56,-80.82,3972,-7224,1166,-1,-1,0
-154.96,28.56,-80.83,3971,-7219,1157,-1,0,0
-154.96,28.55,-80.83,3969,-7226,1155,-1,0,-1
-154.97,28.55,-80.83,3964,-7229,1158,0,0,-1
-154.96,28.55,-80.83,3986,-7229,1156,-1,0,0
-154.95,28.55,-80.85,3980,-7235,1155,-1,-1,-1
-154.94,28.56,-80.85,3988,-7234,1178,-1,-1,-1
-154.93,28.57,-80.86,3988,-7217,1166,-1,-1,-1
-154.92,28.57,-80.88,3990,-7212,1171,-1,-1,0
-154.92,28.57,-80.89,3973,-7199,1145,-1,0,0
-154.92,28.57,-80.89,3976,-7214,1162,0,0,-1
-154.92,28.57,-80.89,3987,-7228,1139,-1,0,0
-154.92,28.57,-80.89,3961,-7216,1159,-1,-1,-1
-154.91,28.57,-80.90,3990,-7211,1167,-1,-1,0
-154.91,28.57,-80.90,3980,-7211,1153,-1,0,-1
-154.90,28.58,-80.92,3989,-7223,1141,-1,0,-1
-154.91,28.57,-80.92,3974,-7211,1147,-1,0,0
-154.91,28.57,-80.92,3984,-7223,1140,0,-1,-1
-154.91,28.57,-80.92,3987,-7225,1149,-1,0,0
-154.91,28.57,-80.92,3991,-7229,1143,0,-1,0
-154.91,28.56,-80.92,3983,-7223,1153,0,-1,-1
-154.91,28.56,-80.92,3976,-7222,1144,0,0,-1
-154.91,28.57,-80.91,3968,-7211,1156,0,-1,0
-154.91,28.57,-80.91,3961,-7210,1140,0,-1,-1
-154.91,28.57,-80.91,3978,-7209,1130,0,-1,0
-154.92,28.57,-80.90,3983,-7214,1139,0,0,-1
-154.92,28.57,-80.89,3985,-7223,1129,0,0,-1
-154.93,28.57,-80.88,3979,-7225,1153,0,-1,0
-154.93,28.57,-80.88,3983,-7216,1154,0,-1,-1
-154.93,28.57,-80.87,3976,-7216,1150,0,-1,0
-154.94,28.57,-80.86,3976,-7222,1152,0,-1,-1
-154.94,28.57,-80.86,3976,-7213,1153,0,-1,-1
-154.94,28.58,-80.85,3978,-7222,1160,0,-1,-1
-154.94,28.58,-80.84,3986,-7222,1165,0,-1,-1
-154.94,28.58,-80.84,3987,-7215,1169,0,-1,0
-154.94,28.58,-80.83,3982,-7215,1159,0,-1,-1
-154.95,28.58,-80.83,3982,-7215,1151,0,-1,0
-154.96,28.57,-80.83,3979,-7217,1153,0,-1,0
-154.96,28.57,-80.83,3979,-7221,1162,0,-1,0
-154.96,28.57,-80.82,3978,-7218,1154,0,-1,0
-154.97,28.57,-80.81,3988,-7221,1161,0,-1,0
-154.98,28.57,-80.81,3986,-7222,1161,0,-1,0
-154.97,28.57,-80.80,3986,-7219,1160,0,-1,0
-154.98,28.57,-80.80,3983,-7223,1159,0,-1,-1
-154.98,28.57,-80.80,3984,-7220,1164,0,-1,-1
-154.98,28.57,-80.79,3976,-7215,1164,0,-1,-1
-154.97,28.58,-80.81,3986,-7215,1157,-1,-1,0
-154.97,28.58,-80.81,3980,-7219,1156,0,-1,-1
-154.98,28.58,-80.80,3989,-7215,1151,0,-1,0
-154.98,28.58,-80.80,3981,-7212,1158,0,-1,-1
-154.98,28.58,-80.79,3978,-7206,1164,0,-1,0
-154.99,28.58,-80.78,3978,-7209,1156,0,-1,0
-154.99,28.58,-80.79,3980,-7214,1154,0,-1,0
-155.00,28.57,-80.78,3978,-7218,1167,0,-1,0
-155.00,28.57,-80.79,3970,-7214,1160,0,-1,0
-155.00,28.57,-80.79,3960,-7218,1157,0,-1,0
-155.01,28.56,-80.78,3963,-7220,1164,0,-1,-1
-155.01,28.57,-80.78,3971,-7221,1164,0,-1,-1
-155.00,28.58,-80.78,3979,-7222,1167,0,-1,-1
-154.99,28.59,-80.78,3999,-7216,1167,0,-1,-1
-154.98,28.59,-80.78,4001,-7216,1148,0,-1,-1
-154.99,28.59,-80.79,3996,-7209,1156,0,-1,0
-154.99,28.58,-80.78,3988,-7206,1148,0,-1,0
-155.00,28.58,-80.78,3983,-7207,1151,0,-1,0
-155.02,28.57,-80.76,3976,-7213,1158,0,-1,0
-155.03,28.56,-80.76,3975,-7220,1159,0,-1,0
-155.02,28.57,-80.76,3984,-7229,1160,0,-1,0
-155.02,28.57,-80.77,3980,-7230,1148,0,-1,-1
-155.02,28.57,-80.76,3978,-7219,1146,0,-1,-1
-155.02,28.58,-80.77,3979,-7221,1151,0,-1,-1
-155.01,28.58,-80.77,3985,-7218,1149,0,-1,-1
-155.01,28.58,-80.78,3984,-7222,1151,0,-1,-1
-155.01,28.58,-80.78,3988,-7227,1164,0,-1,-1
-155.00,28.59,-80.78,3998,-7223,1158,-1,-1,-1
-155.00,28.59,-80.79,3991,-7224,1168,-1,-1,0
-155.00,28.59,-80.79,3988,-7216,1163,0,-1,0
-155.00,28.59,-80.79,3979,-7215,1158,0,0,0
-155.01,28.58,-80.78,3981,-7210,1161,0,0,0
-155.03,28.57,-80.77,3981,-7211,1159,0,-1,0
-155.03,28.57,-80.76,3990,-7219,1153,0,-1,0
-155.04,28.56,-80.76,3984,-7234,1148,0,-1,0
-155.04,28.56,-80.76,3981,-7228,1166,-1,-1,-1
-155.03,28.57,-80.77,3975,-7218,1160,-1,-1,-1
-155.03,28.57,-80.77,3973,-7221,1159,-1,-1,-1
-155.03,28.57,-80.77,3973,-7224,1162,0,-1,-1
-155.03,28.57,-80.77,3974,-7221,1161,0,-1,-1
-155.03,28.57,-80.78,3976,-7223,1163,0,-1,-1
-155.03,28.57,-80.78,3980,-7224,1160,0,-1,-1
-155.03,28.57,-80.78,3987,-7215,1164,0,-1,0
-155.03,28.57,-80.77,3986,-7215,1168,0,0,0
-155.04,28.57,-80.77,3986,-7217,1164,0,-1,0
-155.04,28.56,-80.76,3982,-7221,1168,0,-1,0
-155.05,28.56,-80.76,3981,-7222,1163,0,-1,0
-155.06,28.55,-80.76,3975,-7220,1165,0,-1,0
-155.06,28.55,-80.76,3973,-7221,1164,0,-1,0
-155.06,28.55,-80.76,3979,-7222,1162,0,-1,-1
-155.05,28.56,-80.77,3982,-7221,1166,0,-1,-1
-155.05,28.57,-80.76,3990,-7219,1170,0,-1,-1
-155.04,28.57,-80.76,3994,-7207,1177,0,-1,-1
-155.04,28.57,-80.76,3988,-7211,1173,0,-1,0
-155.04,28.57,-80.77,3985,-7216,1170,-1,-1,0
-155.04,28.57,-80.77,3984,-7215,1166,0,-1,0
-155.05,28.57,-80.77,3979,-7211,1167,0,-1,0
-155.05,28.56,-80.77,3973,-7217,1163,0,-1,0
-155.06,28.56,-80.76,3974,-7225,1163,0,-1,0
-155.06,28.56,-80.76,3981,-7233,1170,0,-1,-1
-155.06,28.57,-80.76,3986,-7231,1166,0,-1,-1
-155.05,28.57,-80.76,3995,-7219,1167,-1,-1,-1
-155.05,28.57,-80.77,3990,-7213,1161,0,-1,0
-155.05,28.57,-80.77,3990,-7210,1163,0,-1,0
-155.07,28.56,-80.76,3986,-7226,1157,0,-1,0
-155.07,28.56,-80.75,3979,-7225,1157,0,-1,0
-155.07,28.55,-80.75,3970,-7222,1161,0,-1,-1
-155.07,28.56,-80.75,3967,-7225,1162,0,-1,-1
-155.07,28.56,-80.75,3977,-7228,1161,0,-1,-1
-155.07,28.56,-80.75,3979,-7219,1161,0,-1,-1
-155.06,28.57,-80.76,3978,-7218,1159,0,-1,-1
-155.06,28.57,-80.76,3987,-7217,1163,0,-1,-1
-155.06,28.57,-80.76,4002,-7210,1155,-1,-1,0
-155.05,28.58,-80.76,3999,-7220,1159,0,-1,0
-155.05,28.58,-80.77,3994,-7221,1162,-1,-1,0
-155.04,28.58,-80.78,3990,-7225,1164,-1,-1,-1
-155.04,28.59,-80.78,3987,-7224,1155,-1,-1,-1
-155.04,28.58,-80.78,3990,-7218,1161,-1,0,0
-155.05,28.58,-80.79,3986,-7213,1158,0,0,0
-155.04,28.58,-80.78,3985,-7219,1154,0,0,0
-155.05,28.58,-80.78,3984,-7219,1164,0,0,0
-155.05,28.58,-80.78,3988,-7220,1161,0,-1,0
-155.05,28.58,-80.77,3991,-7218,1169,0,-1,-1
-155.05,28.58,-80.78,3989,-7219,1177,-1,-1,-1
-155.04,28.58,-80.78,3992,-7217,1173,-1,-1,-1
-155.04,28.59,-80.78,3986,-7213,1166,-1,0,-1
-155.04,28.58,-80.79,3981,-7219,1169,-1,0,-1
-155.04,28.58,-80.79,3981,-7225,1168,-1,-1,-1
-155.03,28.59,-80.79,3983,-7216,1164,0,-1,-1
-155.03,28.59,-80.79,3974,-7212,1168,-1,-1,0
-155.04,28.58,-80.79,3973,-7208,1163,0,0,-1
-155.04,28.58,-80.79,3983,-7210,1157,0,0,0
-155.04,28.58,-80.78,3985,-7215,1164,0,0,0
-155.05,28.57,-80.78,3978,-7223,1160,0,0,-1
-155.04,28.58,-80.78,3981,-7214,1167,-1,0,-1
-155.05,28.57,-80.77,3974,-7214,1167,-1,0,-1
-155.04,28.58,-80.77,3978,-7217,1168,0,0,-1
-155.04,28.58,-80.77,3991,-7219,1178,-1,0,-1
-155.03,28.59,-80.77,3984,-7215,1173,-1,0,-1
-155.03,28.59,-80.77,3986,-7214,1171,0,0,-1
-155.03,28.59,-80.77,3993,-7214,1164,-1,0,-1
-155.03,28.59,-80.77,3984,-7213,1158,0,0,-1
-155.03,28.59,-80.77,3982,-7222,1162,-1,0,0
-155.03,28.59,-80.77,3973,-7219,1153,-1,0,0
-155.04,28.58,-80.77,3972,-7223,1156,0,0,0
-155.05,28.57,-80.77,3974,-7230,1161,0,0,-1
-155.04,28.58,-80.77,3984,-7232,1166,0,0,-1
-155.04,28.58,-80.77,3990,-7232,1164,-1,0,-1
-155.03,28.58,-80.78,-258,-258,-258,-1,-258,-258
-155.02,28.59,-80.78,3995,-7218,1169,-1,0,-1
-155.02,28.59,-80.78,3989,-7219,1157,-1,0,0
-155.02,28.58,-80.79,3992,-7213,1157,0,0,0
-155.03,28.58,-80.78,3988,-7210,1162,-1,0,0
-155.04,28.57,-80.79,3984,-7228,1158,-1,0,0
-155.04,28.56,-80.80,3980,-7237,1161,-1,0,0
-155.04,28.56,-80.80,3981,-7235,1160,-1,-1,-1
-155.03,28.56,-80.81,3977,-7222,1156,-1,-1,-1
-155.03,28.57,-80.81,3974,-7220,1159,-1,0,-1
-155.02,28.57,-80.81,3981,-7215,1150,-1,0,-1
-155.02,28.57,-80.82,3979,-7219,1153,-1,0,-1
-155.01,28.57,-80.83,3979,-7229,1153,-1,-1,-1
-155.00,28.58,-80.85,3985,-7218,1166,-1,-1,-1
-155.00,28.58,-80.86,3987,-7230,1153,-1,0,-1
-154.98,28.59,-80.87,3984,-7213,1159,-1,-1,-1
-154.97,28.59,-80.88,3975,-7219,1159,-1,-1,-1
-154.97,28.59,-80.89,3974,-7203,1140,-1,0,-1
-154.97,28.59,-80.89,3980,-7215,1154,0,-1,-1
-154.97,28.59,-80.88,3988,-7203,1153,0,0,0
-154.99,28.58,-80.88,3967,-7216,1134,0,0,0
-155.00,28.57,-80.87,3982,-7224,1141,-1,-1,0
-155.00,28.57,-80.87,3994,-7216,1156,0,0,0
-155.01,28.56,-80.88,3983,-7232,1138,-1,-1,0
-155.00,28.56,-80.88,3984,-7222,1153,-1,0,0
-154.99,28.56,-80.90,3989,-7235,1159,-1,-1,-1
-154.97,28.57,-80.92,3983,-7223,1151,-1,-1,0
-154.97,28.57,-80.93,3990,-7229,1132,-1,0,0
-154.97,28.57,-80.93,3990,-7212,1160,-1,-1,0
-154.97,28.56,-80.95,3971,-7229,1129,0,0,-1
-154.97,28.56,-80.94,3983,-7221,1162,-1,-1,0
-154.98,28.55,-80.94,3970,-7211,1150,0,0,0
-154.98,28.55,-80.96,3973,-7229,1125,-1,-1,0
-154.99,28.54,-80.96,3976,-7208,1146,0,0,0
-155.00,28.52,-80.97,3981,-7234,1152,-1,-1,0
-155.01,28.52,-80.97,3968,-7239,1125,-1,-1,0
-155.01,28.52,-80.96,3976,-7227,1166,0,-1,-1
-155.00,28.53,-80.96,3992,-7192,1149,-1,0,0
-155.02,28.51,-80.96,3883,-7213,1127,0,-1,-1
-155.00,28.54,-80.95,3959,-7215,1161,0,-1,-1
-154.98,28.56,-80.95,3991,-7249,1150,-1,0,-1
-154.96,28.57,-80.95,4000,-7246,1142,-1,-1,-1
-154.95,28.59,-80.95,4021,-7235,1145,0,0,-1
-154.94,28.59,-80.95,4010,-7230,1121,-1,0,-1
-154.94,28.59,-80.96,4011,-7226,1112,0,0,0
-154.95,28.58,-80.94,3974,-7202,1125,0,0,0
-154.97,28.57,-80.93,3973,-7208,1140,0,-1,0
-154.97,28.57,-80.92,3982,-7232,1137,0,0,0
-154.99,28.56,-80.90,3974,-7236,1153,0,-1,-1
-154.99,28.57,-80.89,3987,-7237,1155,0,-1,-1
-154.98,28.58,-80.89,3989,-7233,1163,0,-1,-1
-154.97,28.59,-80.90,3991,-7219,1145,0,-1,-1
-154.96,28.59,-80.90,3975,-7213,1142,0,-1,0
-154.97,28.59,-80.89,3980,-7215,1147,0,0,0
-154.98,28.58,-80.89,3981,-7217,1133,0,-1,0
-154.98,28.58,-80.90,3987,-7215,1136,0,-1,0
-154.98,28.59,-80.89,3991,-7214,1167,-1,-1,-1
-154.97,28.59,-80.89,3990,-7228,1159,0,-1,-1
-154.97,28.60,-80.90,3983,-7219,1142,0,-1,-1
-154.97,28.60,-80.90,3981,-7211,1149,0,-1,-1
-154.96,28.60,-80.89,3985,-7208,1151,0,-1,-1
-154.97,28.60,-80.88,3987,-7200,1155,0,-1,0
-154.98,28.60,-80.87,3999,-7207,1152,0,-1,0
-154.99,28.60,-80.86,3996,-7220,1160,0,0,0
-154.99,28.59,-80.86,3991,-7225,1153,0,-1,0
-155.00,28.59,-80.85,3987,-7220,1155,0,-1,0
-155.01,28.59,-80.85,3985,-7223,1150,0,-1,0
-155.01,28.58,-80.85,3981,-7221,1146,0,-1,-1
-155.01,28.59,-80.85,3981,-7224,1150,0,-1,-1
-155.00,28.59,-80.86,3981,-7221,1143,0,-1,-1
-154.99,28.60,-80.86,3988,-7227,1149,-1,-1,-1
-154.99,28.60,-80.87,3995,-7223,1150,-1,-1,-1
-154.98,28.61,-80.87,3995,-7210,1154,-1,-1,-1
-154.98,28.61,-80.88,3988,-7210,1156,-1,-1,0
-154.98,28.61,-80.88,3986,-7212,1157,0,0,0
-154.99,28.60,-80.87,3984,-7222,1158,0,-1,0
-155.01,28.59,-80.86,3978,-7226,1147,0,0,0
-155.02,28.58,-80.85,3978,-7230,1153,0,-1,0
-155.02,28.58,-80.85,3984,-7244,1160,0,-1,-1
-155.02,28.58,-80.85,3989,-7231,1153,-1,-1,-1
-155.01,28.59,-80.86,3975,-7221,1154,0,-1,-1
-155.00,28.60,-80.87,3990,-7230,1151,-1,-1,-1
-154.98,28.61,-80.88,4003,-7223,1152,0,-1,-1
-154.98,28.62,-80.88,4003,-7211,1162,-1,-1,-1
-154.97,28.62,-80.89,3985,-7205,1143,0,-1,0
-154.98,28.62,-80.89,3987,-7201,1150,0,-1,0
-154.98,28.62,-80.88,3988,-7209,1167,0,-1,0
-155.00,28.61,-80.87,3988,-7218,1153,0,-1,0
-155.02,28.60,-80.86,3986,-7216,1162,0,-1,0
-155.01,28.60,-80.85,3990,-7225,1157,0,-1,0
-155.02,28.59,-80.85,3987,-7222,1161,0,-1,0
-155.03,28.59,-80.84,3987,-7208,1151,0,-1,0
-155.03,28.59,-80.84,3993,-7205,1149,0,-1,0
-155.04,28.59,-80.84,3997,-7213,1145,0,-1,0
-155.04,28.59,-80.83,3996,-7215,1150,0,-1,0
-155.04,28.58,-80.84,3989,-7222,1158,0,-1,0
-155.04,28.58,-80.84,3978,-7224,1154,0,-1,-1
-155.04,28.58,-80.84,3977,-7229,1156,-1,-1,-1
-155.03,28.59,-80.85,3991,-7229,1156,-1,-1,-1
-155.03,28.59,-80.85,3980,-7216,1157,-1,-1,-1
-155.04,28.58,-80.85,3973,-7210,1159,0,0,0
-155.04,28.58,-80.84,3972,-7215,1163,0,0,-1
-155.04,28.59,-80.84,3981,-7214,1170,0,0,-1
-155.04,28.59,-80.83,3973,-7213,1171,0,0,0
-155.06,28.58,-80.83,3970,-7210,1166,0,0,0
-155.06,28.57,-80.81,3974,-7214,1168,0,-1,0
-155.07,28.57,-80.81,3983,-7222,1170,0,-1,0
-155.07,28.57,-80.81,3984,-7213,1167,0,-1,0
-155.08,28.57,-80.81,3978,-7215,1164,0,-1,0
-155.08,28.57,-80.81,3980,-7220,1155,0,0,0
-155.07,28.57,-80.81,3978,-7230,1155,0,-1,-1
-155.07,28.57,-80.82,3974,-7225,1160,0,-1,-1
-155.07,28.57,-80.81,3985,-7226,1169,-1,-1,-1
-155.06,28.58,-80.82,3987,-7223,1173,-1,-1,-1
-155.06,28.58,-80.82,3990,-7220,1162,0,-1,-1
-155.06,28.58,-80.82,3995,-7212,1159,0,-1,0
-155.07,28.58,-80.81,3992,-7209,1154,0,-1,0
-155.08,28.57,-80.81,3992,-7211,1156,0,0,0
-155.09,28.57,-80.80,3984,-7212,1156,0,0,0
-155.08,28.57,-80.80,3982,-7221,1159,0,0,0
-155.09,28.56,-80.80,3980,-7229,1155,0,-1,0
-155.08,28.57,-80.81,3982,-7232,1160,-1,-1,-1
-155.08,28.57,-80.82,3978,-7224,1167,-1,-1,-1
-155.08,28.57,-80.82,3977,-7223,1170,-1,-1,-1
-155.07,28.58,-80.82,3983,-7230,1164,-1,-1,-1
-155.06,28.58,-80.83,3992,-7225,1165,-1,-1,-1
-155.05,28.59,-80.84,3994,-7220,1164,-1,-1,-1
-155.06,28.58,-80.84,3985,-7214,1156,-1,-1,-1
-155.06,28.58,-80.84,3985,-7213,1168,0,-1,0
-155.06,28.58,-80.84,3991,-7215,1173,0,-1,0
-155.05,28.59,-80.85,3986,-7217,1160,0,-1,0
-155.05,28.59,-80.85,3984,-7217,1149,0,0,-1
-155.06,28.58,-80.84,3985,-7208,1153,0,-1,0
-155.06,28.58,-80.83,4000,-7202,1152,0,-1,0
-155.08,28.58,-80.83,3994,-7224,1151,0,-1,0
-155.07,28.58,-80.83,4001,-7219,1165,-1,-1,0
-155.06,28.58,-80.85,3991,-7219,1155,-1,-1,-1
-155.06,28.59,-80.85,3984,-7222,1157,-1,-1,-1
-155.06,28.59,-80.85,3986,-7219,1157,-1,-1,-1
-155.05,28.59,-80.86,3989,-7214,1158,0,-1,-1
-155.04,28.60,-80.85,3989,-7214,1158,0,-1,0
-155.05,28.60,-80.84,3990,-7199,1166,0,0,-1
-155.05,28.60,-80.84,3989,-7200,1161,0,-1,0
-155.06,28.59,-80.84,3988,-7214,1161,0,-1,0
-155.06,28.59,-80.84,3983,-7221,1160,0,-1,0
-155.06,28.59,-80.84,3980,-7223,1157,0,-1,0
-155.07,28.58,-80.84,3984,-7219,1161,-1,0,0
-155.07,28.58,-80.84,3983,-7219,1156,0,0,-1
-155.07,28.58,-80.84,3989,-7222,1159,0,0,-1
-155.07,28.58,-80.84,3998,-7222,1158,-1,0,-1
-155.06,28.59,-80.84,3991,-7214,1159,-1,0,-1
-155.05,28.60,-80.85,3990,-7214,1152,-1,0,-1
-155.05,28.60,-80.85,3984,-7219,1151,-1,0,-1
-155.06,28.59,-80.85,3990,-7224,1157,0,0,0
-155.05,28.59,-80.85,3984,-7218,1152,-1,0,-1
-155.04,28.60,-80.86,3984,-7227,1143,-1,-1,-1
-155.03,28.60,-80.88,3999,-7213,1168,-1,-1,0
-155.01,28.61,-80.90,4005,-7230,1152,-1,-1,-1
-155.00,28.61,-80.91,3985,-7216,1135,-1,0,0
-155.01,28.60,-80.91,3968,-7204,1148,0,-1,0
-155.02,28.59,-80.91,3982,-7210,1138,0,0,0
-155.02,28.59,-80.92,3992,-7215,1161,-1,0,-1
-155.02,28.58,-80.92,3991,-7231,1150,-1,0,-1
-155.01,28.59,-80.91,3992,-7224,1147,0,0,-1
-155.00,28.61,-80.92,4006,-7205,1175,-2,0,-1
-155.01,28.60,-80.91,3976,-7199,1160,0,0,-1
-155.01,28.59,-80.90,3969,-7214,1156,0,0,0
-155.02,28.59,-80.90,3987,-7208,1133,0,0,0
-155.04,28.57,-80.89,3965,-7212,1128,0,0,0
-155.06,28.57,-80.85,3974,-7217,1157,0,-1,0
-155.06,28.56,-80.85,3978,-7220,1172,-1,0,-1
-155.04,28.57,-80.87,3982,-7236,1122,-1,0,-1
-155.04,28.58,-80.87,3974,-7221,1155,-1,-1,-1
-155.04,28.58,-80.87,3983,-7220,1151,-1,0,-1
-155.03,28.58,-80.87,3977,-7225,1147,-1,0,-1
-155.02,28.59,-80.88,3976,-7226,1150,-1,0,-1
-155.01,28.60,-80.87,3983,-7225,1160,-1,0,-1
-155.01,28.60,-80.87,3987,-7224,1174,0,-1,-1
-155.01,28.60,-80.87,3991,-7220,1160,-1,0,-1
-155.01,28.60,-80.87,3987,-7227,1148,-1,0,0
-155.01,28.60,-80.88,3976,-7208,1152,-1,0,0
-155.01,28.60,-80.88,3981,-7206,1151,-1,0,0
-155.02,28.59,-80.87,3979,-7203,1151,0,0,0
-155.03,28.58,-80.86,3976,-7213,1147,0,0,0
-155.04,28.57,-80.86,3991,-7218,1145,0,0,0
-155.04,28.57,-80.85,3991,-7230,1142,0,0,0
-155.04,28.57,-80.85,3987,-7226,1148,-1,0,-1
-155.03,28.57,-80.87,3983,-7229,1137,-1,-1,-1
-155.03,28.58,-80.87,3991,-7227,1149,-1,-1,-1
-155.02,28.58,-80.87,3987,-7222,1156,-1,-1,-1
-155.01,28.59,-80.88,3986,-7215,1151,-1,0,-1
-155.01,28.59,-80.88,3985,-7220,1153,-1,0,-1
-155.01,28.59,-80.88,3987,-7213,1155,-1,0,-1
-155.01,28.59,-80.88,3981,-7215,1152,-1,0,0
-155.01,28.58,-80.88,3979,-7217,1161,-1,0,0
-155.01,28.58,-80.89,3975,-7212,1162,0,0,0
-155.01,28.58,-80.88,3981,-7219,1161,-1,0,0
-155.02,28.57,-80.88,3977,-7219,1155,0,0,0
-155.02,28.57,-80.87,3980,-7214,1152,0,0,-1
-155.03,28.57,-80.86,3986,-7215,1157,0,0,0
-155.02,28.57,-80.87,3991,-7229,1154,-1,0,-1
-155.01,28.58,-80.87,3997,-7228,1153,-1,-1,-1
-155.01,28.58,-80.88,3990,-7222,1153,-1,0,-1
-155.00,28.58,-80.89,3980,-7214,1151,-1,0,-1
-155.00,28.59,-80.89,3985,-7216,1162,0,0,-1
-155.00,28.58,-80.90,3990,-7213,1162,-1,0,-1
