Yaw,Pitch,Roll,AX,AY,AZ,GX,GY,GZ
-151.44,34.45,-77.62,4701,-6703,1485,-1,-1,0
-151.44,34.44,-77.62,4695,-6703,1487,-1,-1,0
-151.44,34.44,-77.63,4705,-6699,1483,-1,0,-1
-151.43,34.45,-77.63,4701,-6691,1480,-1,0,-1
-151.43,34.45,-77.63,4701,-6689,1481,-1,-1,-1
-151.43,34.45,-77.62,4695,-6687,1479,0,-1,0
-151.43,34.45,-77.62,4696,-6687,1481,0,-1,0
-151.43,34.45,-77.62,4698,-6691,1489,0,0,0
-151.43,34.45,-77.61,4702,-6684,1497,0,0,-1
-151.44,34.45,-77.60,4696,-6687,1492,0,-1,-1
-151.44,34.45,-77.60,4696,-6690,1487,-1,-1,-1
-151.44,34.45,-77.61,4702,-6686,1479,0,-1,0
-151.44,34.45,-77.61,4705,-6688,1473,0,0,0
-151.44,34.45,-77.60,4704,-6688,1471,0,0,0
-151.45,34.45,-77.60,4704,-6690,1475,0,-1,0
-151.45,34.45,-77.58,4702,-6691,1490,0,0,0
-151.45,34.45,-77.58,4695,-6689,1482,0,0,0
-151.46,34.45,-77.57,4695,-6689,1476,0,0,0
-151.47,34.45,-77.56,4700,-6688,1488,0,0,-1
-151.47,34.45,-77.55,4701,-6689,1483,0,0,-1
-151.47,34.45,-77.54,4702,-6691,1485,0,-1,0
-151.47,34.45,-77.54,4702,-6691,1485,0,0,0
-151.48,34.45,-77.54,4697,-6691,1485,0,-1,0
-151.48,34.45,-77.54,4697,-6700,1470,0,0,0
-151.48,34.45,-77.53,4698,-6705,1474,0,0,0
-151.49,34.44,-77.52,4693,-6692,1481,0,0,-1
-151.49,34.44,-77.52,4697,-6697,1482,0,0,-1
-151.50,34.44,-77.50,4698,-6698,1486,0,0,-1
-151.50,34.44,-77.50,4697,-6692,1498,0,0,-1
-151.50,34.44,-77.49,4703,-6691,1499,0,0,0
-151.50,34.44,-77.48,4702,-6689,1500,0,0,0
-151.51,34.45,-77.47,4705,-6690,1503,0,0,0
-151.51,34.44,-77.47,4709,-6691,1513,0,0,0
-151.52,34.44,-77.46,4708,-6696,1502,0,0,0
-151.52,34.44,-77.45,4703,-6696,1502,0,0,0
-151.52,34.44,-77.45,4707,-6689,1496,0,0,0
-151.52,34.44,-77.44,4706,-6692,1492,0,0,-1
-151.53,34.44,-77.43,4703,-6686,1490,0,-1,-1
-151.53,34.44,-77.43,4701,-6685,1495,0,0,0
-151.53,34.44,-77.42,4699,-6683,1493,0,0,-1
-151.53,34.44,-77.42,4697,-6684,1493,0,0,0
-151.53,34.45,-77.41,4692,-6684,1492,0,0,-1
-151.53,34.45,-77.41,4697,-6686,1495,0,0,0
-151.53,34.45,-77.41,4702,-6687,1500,0,0,-1
-151.53,34.45,-77.40,4701,-6685,1509,0,-1,0
-151.53,34.45,-77.40,4700,-6684,1496,0,0,0
-151.53,34.45,-77.40,4703,-6686,1503,0,0,-1
-151.54,34.45,-77.39,4701,-6680,1509,0,-1,0
-151.55,34.45,-77.38,4714,-6680,1510,0,-1,0
-151.54,34.45,-77.38,4716,-6681,1508,0,-1,0
-151.55,34.45,-77.37,4708,-6686,1516,0,0,0
-151.55,34.45,-77.37,4699,-6682,1519,0,-1,0
-151.55,34.45,-77.36,4696,-6685,1518,-1,-1,-1
-151.55,34.45,-77.36,4691,-6688,1512,0,0,-1
-151.56,34.45,-77.36,4697,-6684,1510,0,0,-1
-151.55,34.45,-77.35,4703,-6680,1514,0,0,-1
-151.55,34.45,-77.35,4707,-6682,1503,0,-1,0
-151.56,34.46,-77.34,4708,-6678,1507,0,0,-1
-151.56,34.46,-77.34,4705,-6683,1506,0,-1,0
-151.56,34.45,-77.34,4704,-6688,1510,0,0,0
-151.56,34.45,-77.33,4701,-6689,1515,0,0,0
-151.57,34.45,-77.32,4700,-6692,1508,0,0,-1
-151.57,34.45,-77.32,4703,-6695,1503,0,0,-1
-151.57,34.45,-77.31,4704,-6688,1512,0,0,-1
-151.57,34.45,-77.31,4700,-6680,1522,0,-1,-1
-151.57,34.46,-77.30,4703,-6677,1514,0,0,0
-151.58,34.45,-77.30,4707,-6679,1510,0,0,0
-151.58,34.45,-77.30,4702,-6686,1511,0,0,0
-151.58,34.45,-77.30,4705,-6693,1513,0,0,0
-151.59,34.45,-77.29,4711,-6686,1516,0,0,-1
-151.58,34.46,-77.28,4708,-6681,1515,0,0,-1
-151.58,34.46,-77.28,4700,-6681,1523,0,-1,-1
-151.58,34.46,-77.27,4700,-6682,1520,0,-1,0
-151.58,34.46,-77.27,4699,-6682,1528,0,-1,0
-151.58,34.46,-77.27,4696,-6687,1518,0,-1,0
-151.59,34.45,-77.27,4689,-6684,1512,0,0,-1
-151.59,34.45,-77.27,4696,-6683,1522,-1,0,-1
-151.59,34.45,-77.26,4703,-6675,1528,0,0,-1
-151.59,34.45,-77.26,4694,-6680,1518,0,0,-1
-151.60,34.46,-77.25,4691,-6682,1517,0,0,-1
-151.60,34.46,-77.24,4692,-6678,1527,0,0,-1
-151.60,34.46,-77.24,4697,-6677,1524,0,-1,0
-151.60,34.46,-77.24,4697,-6675,1515,0,0,0
-151.60,34.46,-77.24,4699,-6681,1515,0,-1,-1
-151.60,34.46,-77.24,4707,-6683,1521,0,-1,-1
-151.60,34.46,-77.24,4698,-6684,1514,0,-1,0
-151.61,34.46,-77.23,4701,-6682,1527,0,-1,-1
-151.61,34.46,-77.22,4704,-6685,1526,0,0,-1
-151.62,34.45,-77.21,4702,-6684,1529,0,0,0
-151.62,34.46,-77.20,4703,-6680,1524,0,0,-1
-151.62,34.46,-77.19,4705,-6681,1522,0,0,-1
-151.63,34.46,-77.18,4706,-6684,1532,0,-1,-1
-151.64,34.46,-77.16,4703,-6686,1535,0,0,-1
-151.64,34.46,-77.16,4705,-6690,1527,0,0,0
-151.64,34.46,-77.15,4707,-6685,1523,0,0,-1
-151.64,34.46,-77.15,4701,-6681,1519,0,0,-1
-151.64,34.46,-77.14,4704,-6678,1534,0,0,-1
-151.64,34.46,-77.13,4706,-6678,1543,0,-1,0
-151.65,34.46,-77.12,4699,-6684,1549,0,-1,0
-151.66,34.46,-77.12,4703,-6686,1549,0,-1,-1
-151.66,34.46,-77.11,4701,-6691,1544,0,0,-1
-151.66,34.46,-77.11,4703,-6683,1536,0,0,0
-151.66,34.46,-77.11,4712,-6688,1536,0,-1,0
-151.66,34.46,-77.10,4703,-6684,1532,0,-1,-1
-151.66,34.46,-77.10,4703,-6684,1533,0,-1,0
-151.66,34.46,-77.10,4713,-6683,1535,-1,-1,0
-151.66,34.46,-77.10,4709,-6684,1535,-1,-1,0
-151.66,34.46,-77.11,4702,-6680,1527,-1,-1,0
-151.66,34.45,-77.12,4700,-6679,1531,-1,-1,0
-151.65,34.46,-77.13,4705,-6675,1531,-1,-1,0
-151.65,34.46,-77.13,4702,-6672,1534,-1,-1,0
-151.65,34.46,-77.14,4698,-6673,1534,-1,-1,0
-151.64,34.46,-77.15,4701,-6678,1524,-1,-1,0
-151.64,34.46,-77.16,4700,-6679,1521,-1,-1,0
-151.64,34.46,-77.16,4703,-6677,1525,-1,0,0
-151.64,34.46,-77.16,4698,-6683,1533,-1,0,-1
-151.64,34.45,-77.16,4700,-6679,1534,-1,-1,0
-151.63,34.45,-77.17,4702,-6674,1523,-1,0,0
-151.63,34.46,-77.17,4702,-6679,1525,-1,-1,0
-151.62,34.46,-77.18,4702,-6678,1525,-1,-1,0
-151.62,34.46,-77.18,4700,-6677,1541,-1,-1,0
-151.62,34.46,-77.18,4696,-6675,1533,-1,-1,0
-151.62,34.45,-77.19,4695,-6674,1527,-1,-1,-1
-151.62,34.46,-77.19,4697,-6673,1534,-1,-1,-1
-151.62,34.46,-77.19,4699,-6682,1536,-1,-1,-1
-151.62,34.46,-77.19,4701,-6682,1530,-1,-1,0
-151.61,34.46,-77.20,4699,-6682,1526,-1,0,0
-151.61,34.46,-77.21,4700,-6684,1523,-1,-1,0
-151.61,34.46,-77.21,4696,-6680,1530,-1,-1,0
-151.61,34.46,-77.21,4690,-6680,1533,-1,-1,0
-151.61,34.45,-77.22,4695,-6681,1528,-1,-1,0
-151.61,34.45,-77.22,4694,-6681,1515,-1,0,0
-151.61,34.45,-77.22,4693,-6683,1522,-1,-1,0
-151.61,34.45,-77.22,4698,-6682,1523,-1,0,0
-151.61,34.45,-77.22,4700,-6683,1523,0,-1,0
-151.61,34.45,-77.23,4697,-6683,1515,-1,-1,-1
-151.61,34.45,-77.23,4691,-6686,1528,-1,-1,-1
-151.60,34.45,-77.24,4698,-6680,1524,-1,0,-1
-151.60,34.45,-77.23,4703,-6677,1529,-1,0,-1
-151.60,34.45,-77.23,4703,-6678,1521,-1,-1,0
-151.60,34.45,-77.24,4699,-6677,1520,-1,-1,0
-151.60,34.45,-77.25,4699,-6687,1515,-1,-1,0
-151.59,34.45,-77.25,4699,-6684,1514,-1,-1,0
-151.59,34.45,-77.26,4694,-6688,1514,-1,0,-1
-151.59,34.45,-77.26,4699,-6680,1510,-1,-1,0
-151.59,34.45,-77.27,4703,-6683,1519,-1,-1,0
-151.59,34.45,-77.27,4697,-6684,1519,-1,-1,0
-151.59,34.44,-77.29,4700,-6681,1515,-1,-1,0
-151.58,34.45,-77.29,4705,-6680,1512,-1,-1,0
-151.57,34.45,-77.29,4705,-6680,1513,-1,-1,0
-151.57,34.45,-77.30,4701,-6677,1516,-1,-1,0
-151.57,34.45,-77.30,4701,-6679,1511,-1,-1,0
-151.57,34.45,-77.31,4701,-6682,1507,-1,-1,0
-151.57,34.45,-77.32,4700,-6685,1510,-1,-1,0
-151.56,34.45,-77.33,4704,-6685,1507,-1,-1,-1
-151.55,34.45,-77.34,4705,-6687,1509,-1,-1,0
-151.55,34.45,-77.35,4704,-6689,1505,-1,-1,0
-151.54,34.45,-77.36,4708,-6691,1504,-1,-1,0
-151.54,34.45,-77.36,4707,-6686,1516,-1,-1,0
-151.54,34.45,-77.37,4708,-6687,1516,-1,-1,0
-151.53,34.45,-77.38,4702,-6693,1510,-1,-1,0
-151.54,34.44,-77.39,4694,-6693,1506,-1,-1,0
-151.54,34.44,-77.39,4696,-6691,1507,-1,0,0
-151.53,34.44,-77.40,4699,-6692,1506,-1,-1,0
-151.53,34.45,-77.41,4703,-6691,1509,-1,-1,0
-151.52,34.44,-77.41,4708,-6687,1512,-1,-1,0
-151.52,34.44,-77.42,4704,-6689,1512,-1,-1,0
-151.52,34.44,-77.43,4698,-6684,1504,-1,-1,0
-151.52,34.44,-77.44,4697,-6692,1498,-1,-1,0
-151.51,34.44,-77.45,4697,-6690,1500,-1,-1,0
-151.51,34.44,-77.46,4693,-6689,1493,-1,-1,0
-151.50,34.44,-77.46,4697,-6685,1489,-1,-1,0
-151.50,34.44,-77.48,4699,-6680,1493,-1,-1,0
-151.50,34.44,-77.49,4696,-6688,1495,-1,-1,0
-151.50,34.43,-77.49,4701,-6685,1497,-1,-1,0
-151.49,34.44,-77.51,4696,-6687,1491,-1,-1,0
-151.49,34.44,-77.51,4694,-6691,1493,-1,-1,0
-151.48,34.43,-77.53,4694,-6691,1483,-1,-1,0
-151.48,34.43,-77.53,4699,-6691,1486,-1,-1,0
-151.47,34.44,-77.54,4702,-6690,1480,-1,-1,0
-151.47,34.43,-77.55,4705,-6693,1480,-1,-1,0
-151.47,34.43,-77.57,4706,-6695,1471,-1,-1,0
-151.46,34.44,-77.57,4705,-6698,1475,-1,-1,0
-151.46,34.44,-77.58,4702,-6699,1475,-1,-1,-1
-151.45,34.44,-77.58,4703,-6696,1483,-1,0,-1
-151.45,34.44,-77.58,4704,-6685,1489,-1,0,-1
-151.45,34.44,-77.58,4706,-6689,1489,-1,-1,-1
-151.45,34.44,-77.58,4705,-6693,1492,-1,-1,0
-151.45,34.44,-77.58,4696,-6693,1485,0,-1,-1
-151.45,34.45,-77.58,4696,-6689,1482,-1,0,-1
-151.45,34.44,-77.58,4694,-6688,1476,0,0,-1
-151.45,34.44,-77.58,4699,-6693,1481,0,-1,-1
-151.45,34.44,-77.58,4699,-6694,1480,-1,-1,0
-151.46,34.44,-77.57,4708,-6696,1483,0,-1,0
-151.45,34.45,-77.57,4702,-6693,1482,0,-1,0
-151.46,34.44,-77.57,4699,-6689,1486,0,-1,0
-151.46,34.44,-77.56,4700,-6685,1485,0,0,0
-151.46,34.44,-77.56,4700,-6690,1481,0,0,0
-151.46,34.45,-77.55,4700,-6689,1484,0,0,-1
-151.46,34.45,-77.55,4700,-6686,1484,0,0,-1
-151.46,34.45,-77.54,4707,-6690,1481,0,0,-1
-151.46,34.45,-77.54,4702,-6693,1483,0,0,-1
-151.47,34.45,-77.53,4701,-6691,1492,0,-1,-1
-151.47,34.45,-77.53,4705,-6687,1488,0,0,0
-151.48,34.45,-77.51,4705,-6690,1491,0,0,0
-151.48,34.44,-77.50,4700,-6691,1493,0,0,-1
-151.49,34.45,-77.50,4694,-6690,1489,0,0,-1
-151.49,34.45,-77.50,4694,-6688,1483,0,-1,-1
-151.49,34.45,-77.50,4689,-6683,1490,0,0,-1
-151.50,34.44,-77.48,4697,-6686,1496,0,0,-1
-151.50,34.44,-77.48,4697,-6688,1495,0,0,-1
-151.50,34.45,-77.47,4703,-6695,1485,0,0,0
-151.51,34.44,-77.46,4693,-6693,1493,0,0,0
-151.52,34.44,-77.45,4699,-6685,1498,0,0,0
-151.51,34.45,-77.44,4701,-6686,1505,0,0,-1
-151.52,34.44,-77.43,4703,-6690,1503,0,0,-1
-151.52,34.44,-77.42,4705,-6687,1505,0,-1,-1
-151.52,34.44,-77.42,4698,-6682,1511,0,-1,-1
-151.52,34.45,-77.42,4700,-6682,1507,0,-1,0
-151.52,34.45,-77.42,4700,-6689,1498,0,-1,0
-151.53,34.44,-77.41,4701,-6689,1498,0,0,0
-151.53,34.44,-77.41,4704,-6689,1495,0,0,0
-151.53,34.44,-77.40,4697,-6688,1502,0,0,0
-151.54,34.44,-77.39,4697,-6687,1511,0,0,0
-151.54,34.44,-77.38,4698,-6685,1507,0,0,-1
-151.54,34.44,-77.38,4696,-6684,1509,0,0,0
-151.54,34.44,-77.38,4700,-6684,1501,0,-1,0
-151.55,34.44,-77.38,4707,-6680,1501,0,-1,0
-151.55,34.44,-77.37,4701,-6683,1505,0,-1,0
-151.55,34.44,-77.37,4699,-6678,1504,0,0,0
-151.55,34.44,-77.37,4691,-6675,1495,0,-1,0
-151.55,34.45,-77.36,4695,-6682,1504,0,0,0
-151.55,34.45,-77.36,4704,-6689,1500,0,0,0
-151.56,34.44,-77.36,4701,-6687,1499,0,0,-1
-151.56,34.44,-77.34,4694,-6691,1505,0,-1,0
-151.56,34.44,-77.34,4695,-6687,1504,-1,0,-1
-151.56,34.44,-77.34,4696,-6691,1504,-1,0,-1
-151.56,34.44,-77.34,4700,-6691,1498,0,0,-1
-151.55,34.45,-77.34,4702,-6687,1508,0,0,0
-151.55,34.45,-77.33,4705,-6685,1510,0,0,0
-151.55,34.45,-77.33,4703,-6691,1505,0,0,-1
-151.56,34.45,-77.33,4702,-6688,1512,0,0,0
-151.57,34.44,-77.32,4703,-6693,1520,0,0,0
-151.56,34.45,-77.32,4702,-6691,1518,0,0,-1
-151.56,34.45,-77.32,4702,-6683,1506,0,0,0
-151.56,34.45,-77.32,4702,-6691,1509,0,-1,0
-151.57,34.45,-77.31,4706,-6686,1504,0,0,-1
-151.57,34.44,-77.31,4706,-6688,1508,0,-1,0
-151.57,34.44,-77.31,4709,-6683,1515,0,0,0
-151.57,34.45,-77.30,4707,-6680,1514,0,0,0
-151.57,34.45,-77.30,4695,-6682,1511,0,0,-1
-151.57,34.45,-77.30,4699,-6682,1507,0,-1,-1
-151.57,34.45,-77.30,4709,-6685,1505,0,0,0
-151.57,34.45,-77.30,4708,-6683,1506,0,-1,0
-151.58,34.45,-77.30,4699,-6681,1516,0,0,0
-151.58,34.45,-77.29,4702,-6683,1515,0,0,-1
-151.58,34.45,-77.29,4706,-6691,1513,0,0,0
-151.58,34.45,-77.29,4702,-6688,1511,0,-1,0
-151.58,34.45,-77.29,4705,-6686,1517,-1,-1,0
-151.58,34.45,-77.29,4703,-6687,1524,0,-1,-1
-151.59,34.44,-77.28,4694,-6690,1522,0,0,0
-151.59,34.44,-77.28,4702,-6686,1502,0,0,-1
-151.59,34.45,-77.27,4703,-6688,1502,0,0,-1
-151.59,34.45,-77.26,4702,-6684,1511,0,-1,-1
-151.59,34.45,-77.26,4700,-6684,1516,0,-1,0
-151.59,34.45,-77.25,4706,-6682,1513,0,0,-1
-151.60,34.45,-77.24,4710,-6680,1521,0,0,-1
-151.60,34.45,-77.23,4708,-6682,1517,0,0,-1
-151.60,34.45,-77.23,4708,-6677,1520,0,0,-1
-151.60,34.46,-77.22,4703,-6673,1522,0,-1,0
-151.60,34.46,-77.22,4703,-6674,1530,0,-1,0
-151.60,34.46,-77.21,4698,-6673,1531,0,-1,0
-151.61,34.45,-77.21,4699,-6676,1518,0,0,-1
-151.61,34.45,-77.20,4695,-6681,1517,0,0,-1
-151.62,34.45,-77.19,4695,-6686,1521,0,0,-1
-151.62,34.45,-77.18,4696,-6694,1534,0,-1,-1
-151.62,34.45,-77.18,4702,-6683,1532,0,0,-1
-151.63,34.46,-77.16,4706,-6676,1534,0,0,-1
-151.63,34.46,-77.15,4704,-6670,1542,0,-1,-1
-151.63,34.46,-77.15,4702,-6671,1543,0,-1,0
-151.63,34.46,-77.15,4703,-6674,1547,0,0,0
-151.63,34.46,-77.14,4694,-6684,1548,0,-1,-1
-151.63,34.46,-77.14,4693,-6688,1533,0,-1,0
-151.63,34.46,-77.14,4703,-6682,1533,0,0,-1
-151.64,34.46,-77.12,4711,-6680,1532,0,0,-1
-151.64,34.46,-77.12,4711,-6682,1533,0,0,-1
-151.64,34.46,-77.11,4705,-6682,1534,0,0,-1
-151.65,34.46,-77.10,4704,-6679,1532,0,0,0
-151.65,34.46,-77.10,4703,-6680,1536,0,0,0
-151.65,34.46,-77.10,4704,-6681,1527,0,0,0
-151.66,34.46,-77.09,4704,-6680,1522,0,0,-1
-151.66,34.46,-77.08,4702,-6678,1537,0,-1,-1
-151.66,34.46,-77.07,4702,-6675,1542,-1,-1,0
-151.66,34.46,-77.08,4696,-6666,1535,-1,0,-1
-151.65,34.47,-77.08,4692,-6674,1534,0,0,-1
-151.66,34.47,-77.07,4694,-6667,1534,-1,-1,0
-151.65,34.47,-77.08,4699,-6673,1533,-1,-1,-1
-151.65,34.47,-77.08,4700,-6678,1540,-1,-1,0
-151.66,34.46,-77.09,4699,-6679,1534,-1,-1,0
-151.66,34.46,-77.09,4701,-6674,1541,-1,-1,0
-151.65,34.46,-77.10,4698,-6680,1541,-1,-1,0
-151.65,34.46,-77.11,4698,-6675,1534,-1,-1,0
-151.65,34.45,-77.12,4699,-6682,1537,-1,-1,0
-151.64,34.46,-77.13,4700,-6687,1533,-1,-1,0
-151.64,34.45,-77.14,4699,-6684,1536,-1,-1,0
-151.64,34.45,-77.14,4700,-6679,1540,-1,-1,0
-151.64,34.45,-77.15,4701,-6680,1535,-1,-1,0
-151.63,34.45,-77.16,4703,-6678,1536,-1,0,0
-151.63,34.45,-77.17,4709,-6684,1534,-1,-1,0
-151.63,34.45,-77.17,4708,-6682,1538,-1,-1,-1
-151.62,34.45,-77.18,4711,-6677,1536,-1,-1,0
-151.62,34.45,-77.18,4713,-6672,1533,-1,-1,0
-151.62,34.45,-77.19,4703,-6675,1524,-1,-1,0
-151.61,34.45,-77.20,4703,-6679,1520,-1,-1,0
-151.61,34.45,-77.21,4694,-6680,1516,-1,-1,0
-151.61,34.45,-77.22,4699,-6678,1521,-1,-1,0
-151.60,34.45,-77.21,4703,-6678,1526,0,0,0
-151.61,34.45,-77.20,4704,-6675,1530,-1,-1,0
-151.60,34.45,-77.22,4703,-6671,1532,-1,-1,0
-151.60,34.45,-77.22,4694,-6675,1528,-1,-1,0
-151.60,34.45,-77.23,4696,-6679,1522,-1,-1,0
-151.60,34.45,-77.24,4697,-6680,1511,-1,-1,0
-151.59,34.45,-77.25,4699,-6676,1511,-1,0,0
-151.59,34.45,-77.25,4702,-6681,1513,-1,-1,0
-151.59,34.45,-77.25,4701,-6679,1514,-1,0,0
-151.59,34.45,-77.25,4701,-6680,1524,-1,0,0
-151.59,34.45,-77.25,4709,-6683,1525,-1,-1,-1
-151.58,34.45,-77.25,4709,-6689,1528,-1,-1,0
-151.58,34.45,-77.26,4703,-6689,1541,-1,-1,0
-151.58,34.45,-77.26,4701,-6685,1533,-1,-1,0
-151.57,34.45,-77.27,4699,-6685,1521,-1,-1,0
-151.57,34.45,-77.27,4700,-6684,1521,-1,-1,0
-151.57,34.45,-77.28,4704,-6681,1511,-1,-1,0
-151.57,34.45,-77.28,4702,-6684,1511,-1,-1,0
-151.57,34.45,-77.29,4699,-6684,1521,-1,-1,0
-151.57,34.44,-77.30,4698,-6681,1525,-1,-1,0
-151.57,34.44,-77.30,4700,-6688,1522,-1,-1,0
-151.56,34.44,-77.31,4701,-6678,1518,-1,-1,0
-151.56,34.44,-77.31,4695,-6684,1522,-1,0,0
-151.56,34.44,-77.31,4691,-6683,1516,-1,0,0
-151.56,34.44,-77.31,4695,-6680,1522,-1,-1,-1
-151.56,34.44,-77.32,4698,-6686,1520,-1,-1,0
-151.56,34.44,-77.32,4697,-6681,1511,-1,-1,-1
-151.55,34.44,-77.33,4705,-6680,1512,-1,-1,0
-151.55,34.44,-77.34,4704,-6684,1511,-1,-1,0
-151.55,34.44,-77.34,4701,-6685,1514,-1,-1,0
-151.55,34.44,-77.35,4700,-6684,1512,-1,-1,0
-151.54,34.44,-77.35,4701,-6681,1507,-1,-1,0
-151.54,34.44,-77.36,4699,-6684,1503,-1,-1,0
-151.54,34.44,-77.37,4701,-6685,1508,-1,-1,0
-151.54,34.44,-77.37,4701,-6690,1510,-1,-1,0
-151.54,34.44,-77.37,4698,-6690,1506,-1,-1,0
-151.53,34.44,-77.38,4704,-6689,1501,-1,-1,0
-151.53,34.44,-77.39,4707,-6682,1502,-1,-1,0
-151.52,34.44,-77.40,4695,-6679,1491,-1,-1,0
-151.53,34.44,-77.40,4693,-6675,1494,-1,-1,0
-151.53,34.43,-77.41,4694,-6686,1495,-1,-1,0
-151.53,34.43,-77.42,4696,-6691,1498,-1,-1,0
-151.52,34.44,-77.43,4692,-6697,1494,-1,-1,0
-151.51,34.43,-77.45,4699,-6694,1488,-1,-1,0
-151.51,34.43,-77.45,4697,-6690,1495,-1,-1,0
-151.51,34.43,-77.46,4701,-6695,1490,-1,-1,0
-151.50,34.43,-77.48,4690,-6694,1494,-1,-1,0
-151.50,34.43,-77.48,4692,-6700,1492,-1,-1,0
-151.50,34.43,-77.49,4701,-6694,1488,-1,-1,0
-151.49,34.43,-77.50,4701,-6695,1490,-1,-1,0
-151.49,34.43,-77.50,4697,-6693,1495,-1,-1,0
-151.48,34.43,-77.52,4706,-6691,1488,-1,-1,0
-151.48,34.43,-77.53,4705,-6687,1488,-1,-1,0
-151.47,34.43,-77.54,4702,-6686,1481,-1,-1,0
-151.47,34.43,-77.54,4698,-6687,1489,-1,0,0
-151.47,34.43,-77.54,4695,-6691,1477,-1,-1,-1
-151.46,34.43,-77.55,4697,-6685,1477,-1,-1,-1
-151.46,34.43,-77.57,4699,-6689,1469,-1,-1,0
-151.45,34.44,-77.57,4697,-6691,1477,-1,-1,-1
-151.45,34.44,-77.58,4699,-6688,1467,-1,-1,-1
-151.45,34.43,-77.58,4696,-6693,1471,0,-1,0
-151.45,34.43,-77.58,4701,-6695,1468,-1,-1,0
-151.45,34.43,-77.58,4696,-6698,1476,0,-1,0
-151.45,34.43,-77.58,4700,-6694,1478,-1,-1,0
-151.45,34.43,-77.58,4699,-6689,1481,-1,-1,0
-151.45,34.43,-77.58,4692,-6684,1480,-1,0,0
-151.45,34.43,-77.58,4697,-6690,1474,0,0,0
-151.46,34.43,-77.58,4694,-6694,1474,0,-1,0
-151.46,34.43,-77.57,4696,-6703,1477,0,-1,-1
-151.46,34.43,-77.56,4698,-6697,1471,0,0,0
-151.46,34.43,-77.56,4706,-6689,1476,0,0,-1
-151.46,34.44,-77.55,4707,-6691,1477,0,0,0
-151.47,34.43,-77.54,4707,-6685,1484,0,0,-1
-151.47,34.43,-77.54,4708,-6691,1492,0,0,-1
-151.48,34.43,-77.53,4707,-6691,1488,0,-1,-1
-151.48,34.43,-77.53,4706,-6694,1485,0,0,0
-151.48,34.44,-77.52,4698,-6691,1486,0,0,-1
-151.48,34.44,-77.52,4702,-6687,1488,0,0,0
-151.48,34.44,-77.50,4705,-6689,1484,0,-1,0
-151.48,34.44,-77.50,4706,-6687,1484,0,0,0
-151.48,34.44,-77.50,4707,-6688,1484,0,0,0
-151.49,34.44,-77.48,4707,-6685,1494,0,0,0
-151.49,34.44,-77.48,4708,-6683,1485,0,0,0
-151.50,34.44,-77.47,4711,-6683,1494,0,0,0
-151.50,34.44,-77.47,4705,-6682,1490,0,-1,-1
-151.50,34.44,-77.46,4704,-6686,1490,0,-1,0
-151.49,34.45,-77.47,4709,-6682,1480,0,0,-1
-151.50,34.44,-77.46,4710,-6690,1490,0,0,-1
-151.50,34.45,-77.46,4710,-6691,1487,0,0,0
-151.50,34.45,-77.45,4700,-6689,1489,0,0,0
-151.50,34.44,-77.44,4704,-6688,1497,0,0,0
-151.51,34.44,-77.43,4701,-6691,1490,0,0,-1
-151.51,34.44,-77.43,4697,-6690,1494,0,-1,0
-151.51,34.45,-77.43,4697,-6684,1497,-1,0,-1
-151.51,34.44,-77.42,4692,-6685,1501,0,0,-1
-151.52,34.45,-77.41,4700,-6686,1493,0,0,-1
-151.53,34.44,-77.40,4703,-6690,1497,0,0,0
-151.52,34.45,-77.40,4703,-6691,1498,0,-1,-1
-151.53,34.45,-77.39,4704,-6690,1500,0,-1,0
-151.53,34.44,-77.38,4704,-6693,1499,0,0,0
-151.54,34.44,-77.38,4701,-6688,1500,0,0,0
-151.54,34.44,-77.37,4701,-6687,1501,0,0,-1
-151.55,34.44,-77.36,4697,-6687,1505,0,0,-1
-151.55,34.44,-77.35,4694,-6683,1510,0,0,-1
-151.55,34.44,-77.34,4695,-6678,1500,0,0,-1
-151.55,34.45,-77.33,4697,-6672,1504,0,0,-1
-151.56,34.45,-77.32,4700,-6673,1508,0,0,-1
-151.56,34.45,-77.31,4704,-6679,1501,0,0,0
-151.57,34.45,-77.30,4702,-6683,1507,0,0,-1
-151.57,34.45,-77.30,4702,-6685,1506,0,0,0
-151.57,34.45,-77.29,4704,-6686,1505,0,0,0
-151.57,34.45,-77.29,4706,-6695,1506,0,0,0
-151.57,34.45,-77.29,4703,-6692,1503,0,0,-1
-151.57,34.45,-77.28,4702,-6689,1503,0,0,-1
-151.58,34.45,-77.27,4708,-6687,1512,0,0,-1
-151.58,34.45,-77.27,4706,-6690,1508,0,0,0
-151.59,34.44,-77.26,4698,-6690,1508,0,0,-1
-151.59,34.45,-77.25,4696,-6684,1508,0,-1,-1
-151.59,34.45,-77.25,4697,-6686,1513,0,-1,-1
-151.59,34.45,-77.25,4695,-6689,1513,0,0,-1
-151.60,34.44,-77.23,4695,-6685,1517,0,0,-1
-151.61,34.45,-77.22,4707,-6685,1523,0,0,-1
-151.60,34.45,-77.20,4713,-6684,1527,0,0,-1
-151.60,34.45,-77.20,4706,-6681,1530,0,-1,0
-151.61,34.45,-77.19,4700,-6680,1521,0,0,0
-151.61,34.45,-77.19,4695,-6671,1512,0,0,-1
-151.62,34.45,-77.19,4700,-6678,1523,0,0,0
-151.62,34.45,-77.18,4702,-6679,1517,0,0,-1
-151.62,34.45,-77.18,4705,-6681,1515,0,-1,-1
-151.62,34.45,-77.18,4701,-6682,1515,0,0,-1
-151.62,34.45,-77.17,4700,-6685,1516,0,0,0
-151.62,34.45,-77.17,4701,-6686,1520,0,0,0
-151.63,34.45,-77.16,4699,-6681,1525,0,0,0
-151.63,34.45,-77.15,4705,-6683,1523,0,0,0
-151.64,34.45,-77.15,4708,-6676,1528,0,0,0
-151.64,34.45,-77.14,4705,-6679,1529,0,0,0
-151.64,34.45,-77.14,4699,-6685,1522,0,0,-1
-151.64,34.45,-77.13,4703,-6681,1522,0,0,-1
-151.64,34.45,-77.11,4712,-6677,1533,0,0,-1
-151.65,34.46,-77.11,4704,-6675,1540,0,0,0
-151.66,34.45,-77.10,4702,-6672,1532,0,0,0
-151.66,34.45,-77.09,4702,-6674,1533,0,0,0
-151.66,34.45,-77.08,4702,-6676,1532,0,-1,-1
-151.66,34.45,-77.08,4703,-6679,1528,0,0,0
-151.66,34.45,-77.08,4707,-6681,1523,0,0,-1
-151.67,34.46,-77.07,4703,-6683,1533,0,0,-1
-151.68,34.45,-77.06,4709,-6677,1539,0,-1,0
-151.68,34.45,-77.05,4709,-6676,1545,0,-1,0
-151.69,34.45,-77.04,4705,-6679,1546,0,-1,0
-151.70,34.45,-77.03,4698,-6681,1550,0,0,0
-151.70,34.44,-77.03,4701,-6677,1548,0,-1,0
-151.71,34.44,-77.02,4701,-6676,1547,0,0,0
-151.72,34.44,-77.01,4700,-6682,1545,0,0,0
-151.73,34.44,-77.00,4696,-6676,1558,0,0,0
-151.74,34.43,-76.98,4704,-6676,1559,0,-1,0
-151.74,34.43,-76.98,4702,-6683,1554,0,0,0
-151.75,34.43,-76.97,4707,-6678,1556,0,0,0
-151.75,34.43,-76.97,4701,-6677,1555,0,0,0
-151.75,34.43,-76.96,4703,-6670,1556,0,-1,0
-151.76,34.42,-76.97,4693,-6665,1550,-1,-1,0
-151.75,34.42,-76.98,4695,-6669,1557,-1,-1,0
-151.75,34.42,-76.99,4694,-6672,1562,-1,-1,0
-151.75,34.42,-77.00,4698,-6670,1552,-1,-1,0
-151.74,34.41,-77.02,4704,-6670,1546,-1,-1,0
-151.73,34.41,-77.03,4697,-6672,1545,-1,-1,0
-151.73,34.41,-77.04,4690,-6675,1535,-1,-1,-1
-151.73,34.41,-77.04,4692,-6674,1537,-1,-1,0
-151.72,34.42,-77.05,4695,-6679,1541,-1,0,0
-151.73,34.41,-77.05,4696,-6675,1541,-1,0,0
-151.72,34.41,-77.06,4698,-6674,1535,-1,0,-1
-151.71,34.41,-77.07,4699,-6678,1537,-1,0,-1
-151.70,34.42,-77.08,4697,-6681,1532,-1,0,-1
-151.70,34.41,-77.09,4696,-6682,1530,-1,-1,0
-151.70,34.42,-77.09,4689,-6676,1525,-1,0,0
-151.69,34.42,-77.10,4690,-6681,1521,-1,0,-1
-151.68,34.42,-77.11,4692,-6677,1522,-1,0,-1
-151.68,34.42,-77.12,4697,-6680,1521,-1,-1,0
-151.68,34.42,-77.12,4699,-6678,1523,-1,-1,0
-151.67,34.42,-77.13,4704,-6678,1519,-1,-1,0
-151.66,34.43,-77.14,4702,-6677,1516,-1,-1,0
-151.66,34.42,-77.14,4696,-6685,1520,-1,0,-1
-151.66,34.42,-77.15,4698,-6689,1526,-1,0,-1
-151.66,34.42,-77.15,4705,-6688,1528,-1,-1,-1
-151.65,34.43,-77.16,4704,-6687,1527,-1,-1,-1
-151.65,34.43,-77.17,4700,-6687,1527,-1,-1,0
-151.64,34.43,-77.17,4700,-6686,1526,-1,-1,0
-151.64,34.43,-77.18,4703,-6686,1528,-1,-1,0
-151.64,34.43,-77.18,4696,-6682,1533,-1,-1,0
-151.64,34.43,-77.18,4697,-6683,1526,-1,-1,0
-151.63,34.43,-77.19,4694,-6676,1529,-1,-1,0
-151.63,34.42,-77.20,4695,-6675,1533,-1,-1,0
-151.62,34.43,-77.21,4702,-6679,1523,-1,-1,0
-151.61,34.43,-77.22,4699,-6681,1512,-1,-1,0
-151.61,34.44,-77.23,4707,-6676,1513,-1,-1,0
-151.60,34.43,-77.24,4704,-6676,1507,-1,0,-1
-151.60,34.43,-77.24,4702,-6682,1515,-1,-1,-1
-151.60,34.43,-77.25,4700,-6683,1517,-1,-1,0
-151.59,34.44,-77.26,4698,-6682,1514,-1,-1,-1
-151.59,34.44,-77.26,4699,-6687,1506,-1,-1,0
-151.58,34.44,-77.27,4697,-6683,1502,-1,-1,0
-151.58,34.44,-77.29,4697,-6687,1508,-1,-1,0
-151.57,34.44,-77.30,4695,-6685,1510,-1,-1,0
-151.57,34.44,-77.30,4697,-6680,1503,-1,0,-1
-151.57,34.44,-77.31,4699,-6689,1500,-1,-1,-1
-151.56,34.44,-77.32,4702,-6692,1504,-1,-1,-1
-151.56,34.44,-77.33,4707,-6688,1508,-1,-1,0
-151.55,34.44,-77.34,4706,-6686,1506,-1,-1,0
-151.55,34.44,-77.34,4705,-6689,1507,-1,-1,0
-151.54,34.44,-77.35,4704,-6692,1498,-1,-1,0
-151.54,34.44,-77.37,4701,-6692,1498,-1,-1,0
-151.53,34.44,-77.38,4699,-6688,1495,-1,-1,0
-151.53,34.44,-77.39,4705,-6688,1501,-1,-1,0
-151.52,34.44,-77.41,4701,-6686,1499,-1,-1,0
-151.51,34.45,-77.42,4706,-6687,1501,-1,-1,-1
-151.51,34.44,-77.43,4701,-6683,1499,-1,-1,0
-151.51,34.44,-77.43,4705,-6684,1497,-1,-1,0
-151.50,34.45,-77.45,4707,-6686,1492,-1,-1,0
-151.50,34.45,-77.45,4704,-6686,1487,-1,0,0
-151.50,34.45,-77.45,4700,-6684,1491,-1,-1,-1
-151.49,34.45,-77.46,4698,-6689,1491,-1,-1,0
-151.48,34.45,-77.47,4700,-6699,1490,-1,-1,-1
-151.48,34.45,-77.48,4703,-6692,1495,-1,-1,-1
-151.48,34.45,-77.48,4707,-6688,1496,-1,-1,0
-151.47,34.45,-77.49,4707,-6690,1489,-1,-1,0
-151.47,34.45,-77.50,4707,-6690,1476,-1,-1,0
-151.46,34.46,-77.51,4711,-6693,1476,-1,-1,0
-151.46,34.46,-77.52,4710,-6688,1473,-1,-1,0
-151.46,34.46,-77.52,4705,-6692,1475,-1,-1,0
-151.45,34.45,-77.53,4704,-6696,1477,-1,-1,0
-151.45,34.45,-77.53,4703,-6691,1478,-1,-1,-1
-151.45,34.45,-77.53,4705,-6693,1474,0,-1,0
-151.45,34.46,-77.54,4702,-6692,1470,0,-1,0
-151.45,34.46,-77.54,4706,-6695,1477,0,-1,0
-151.45,34.46,-77.53,4705,-6684,1480,0,0,0
-151.45,34.46,-77.53,4699,-6699,1477,0,0,0
-151.46,34.45,-77.52,4701,-6696,1481,0,-1,0
-151.45,34.46,-77.53,4701,-6691,1479,0,-1,-1
-151.45,34.46,-77.53,4703,-6689,1471,0,-1,0
-151.45,34.46,-77.53,4709,-6690,1474,0,-1,0
-151.45,34.46,-77.53,4705,-6694,1475,0,0,0
-151.46,34.45,-77.51,4706,-6693,1481,0,-1,0
-151.47,34.45,-77.50,4703,-6692,1490,0,0,-1
-151.47,34.45,-77.50,4706,-6692,1496,0,-1,-1
-151.47,34.45,-77.50,4704,-6695,1486,-1,-1,-1
-151.47,34.46,-77.48,4704,-6694,1478,0,0,-1
-151.47,34.46,-77.48,4706,-6700,1482,0,0,-1
-151.47,34.46,-77.47,4707,-6690,1483,0,0,-1
-151.48,34.46,-77.46,4705,-6692,1482,0,-1,-1
-151.48,34.46,-77.46,4706,-6682,1487,0,-1,0
-151.48,34.46,-77.45,4707,-6690,1490,0,-1,0
-151.48,34.46,-77.45,4704,-6695,1484,0,0,0
-151.49,34.46,-77.44,4704,-6692,1487,0,0,0
-151.50,34.46,-77.43,4700,-6691,1491,0,0,-1
-151.50,34.46,-77.43,4698,-6686,1491,0,0,-1
-151.50,34.46,-77.42,4698,-6681,1493,0,0,-1
-151.51,34.45,-77.42,4698,-6684,1494,0,0,0
-151.51,34.46,-77.41,4704,-6692,1494,0,0,-1
-151.51,34.45,-77.41,4698,-6692,1497,0,0,0
-151.52,34.45,-77.39,4693,-6693,1502,0,0,-1
-151.53,34.45,-77.39,4702,-6689,1505,0,-1,0
-151.52,34.45,-77.38,4707,-6688,1493,0,-1,-1
-151.52,34.45,-77.38,4702,-6690,1490,0,0,0
-151.52,34.45,-77.38,4696,-6692,1495,0,0,0
-151.53,34.45,-77.37,4695,-6686,1505,0,0,0
-151.54,34.45,-77.36,4700,-6685,1510,0,-1,0
-151.54,34.45,-77.35,4702,-6689,1510,0,0,-1
-151.54,34.45,-77.34,4696,-6693,1503,0,0,0
-151.55,34.45,-77.34,4700,-6690,1507,0,0,0
-151.56,34.45,-77.32,4706,-6686,1507,0,0,0
-151.56,34.45,-77.31,4702,-6689,1506,0,0,-1
-151.56,34.45,-77.30,4701,-6690,1514,0,0,-1
-151.57,34.45,-77.30,4706,-6687,1512,0,0,0
-151.57,34.45,-77.29,4705,-6684,1504,0,0,-1
-151.57,34.45,-77.29,4705,-6685,1509,0,0,-1
-151.57,34.45,-77.28,4705,-6677,1508,0,0,-1
-151.57,34.45,-77.28,4704,-6681,1503,0,0,0
-151.58,34.45,-77.27,4703,-6682,1507,0,0,0
-151.58,34.45,-77.27,4699,-6692,1512,0,0,0
-151.59,34.45,-77.26,4707,-6694,1516,0,0,0
-151.59,34.45,-77.25,4704,-6689,1527,0,0,-1
-151.59,34.45,-77.25,4702,-6687,1519,0,-1,-1
-151.59,34.45,-77.23,4706,-6680,1515,0,-1,-1
-151.59,34.45,-77.23,4708,-6681,1526,0,0,-1
-151.60,34.45,-77.22,4705,-6683,1525,0,0,0
-151.60,34.45,-77.22,4705,-6682,1531,0,0,-1
-151.60,34.45,-77.21,4705,-6681,1525,0,0,-1
-151.60,34.45,-77.20,4709,-6679,1522,0,0,-1
-151.60,34.45,-77.20,4708,-6678,1525,0,0,0
-151.61,34.46,-77.19,4709,-6681,1513,0,0,0
-151.61,34.46,-77.19,4706,-6679,1516,0,0,-1
-151.61,34.46,-77.19,4699,-6678,1519,0,-1,0
-151.61,34.46,-77.19,4700,-6680,1522,0,-1,0
-151.61,34.46,-77.18,4701,-6674,1519,0,0,0
-151.62,34.45,-77.17,4703,-6674,1527,0,0,0
-151.61,34.46,-77.18,4705,-6679,1524,-1,-1,0
-151.61,34.46,-77.18,4703,-6676,1519,0,-1,0
-151.61,34.46,-77.18,4705,-6679,1510,0,-1,0
-151.61,34.46,-77.17,4701,-6683,1514,0,-1,-1
-151.62,34.46,-77.17,4694,-6673,1524,0,0,0
-151.62,34.46,-77.17,4698,-6674,1523,-1,0,-1
-151.62,34.46,-77.16,4700,-6679,1518,0,0,-1
-151.61,34.46,-77.16,4704,-6677,1523,0,0,-1
-151.62,34.46,-77.16,4710,-6676,1518,0,-1,-1
-151.62,34.46,-77.15,4707,-6675,1522,0,0,-1
-151.62,34.47,-77.15,4700,-6677,1525,0,-1,0
-151.62,34.47,-77.15,4701,-6679,1525,0,0,0
-151.63,34.46,-77.14,4703,-6683,1529,0,0,0
-151.63,34.46,-77.14,4704,-6689,1527,0,0,0
-151.63,34.46,-77.13,4708,-6686,1516,0,0,-1
-151.63,34.46,-77.13,4708,-6681,1520,0,0,-1
-151.63,34.46,-77.13,4703,-6681,1521,0,0,-1
-151.64,34.46,-77.12,4701,-6680,1528,0,-1,0
-151.64,34.46,-77.12,4703,-6683,1527,0,0,0
-151.64,34.46,-77.11,4702,-6680,1529,0,0,0
-151.64,34.46,-77.11,4708,-6678,1526,0,0,0
-151.65,34.46,-77.10,4704,-6682,1536,0,0,-1
-151.65,34.46,-77.09,4705,-6683,1531,0,0,-1
-151.65,34.46,-77.08,4703,-6683,1536,0,-1,-1
-151.66,34.46,-77.07,4700,-6674,1542,0,-1,0
-151.66,34.46,-77.07,4704,-6678,1535,0,-1,0
-151.66,34.46,-77.06,4706,-6677,1539,0,-1,0
-151.66,34.47,-77.06,4708,-6676,1532,0,0,-1
-151.67,34.46,-77.05,4702,-6674,1533,0,-1,0
-151.68,34.46,-77.04,4697,-6672,1531,0,-1,0
-151.67,34.47,-77.05,4703,-6674,1524,0,-1,0
-151.68,34.46,-77.03,4703,-6674,1539,0,0,0
-151.68,34.47,-77.03,4705,-6676,1541,0,0,-1
-151.68,34.47,-77.02,4705,-6672,1537,0,0,0
-151.69,34.46,-77.02,4703,-6668,1537,0,-1,0
-151.69,34.46,-77.00,4700,-6665,1526,0,0,0
-151.69,34.47,-76.99,4696,-6663,1531,0,0,-1
-151.70,34.47,-76.99,4707,-6672,1540,0,0,-1
-151.70,34.47,-76.98,4702,-6676,1541,0,0,0
-151.70,34.46,-76.98,4699,-6687,1544,0,0,0
-151.71,34.46,-76.98,4707,-6683,1546,0,-1,0
-151.71,34.46,-76.97,4701,-6680,1546,0,-1,0
-151.71,34.46,-76.97,4701,-6680,1543,0,0,0
-151.71,34.46,-76.98,4697,-6677,1549,-1,-1,0
-151.71,34.46,-76.99,4697,-6673,1543,-1,-1,0
-151.70,34.46,-77.00,4699,-6671,1535,-1,-1,0
-151.70,34.45,-77.01,4699,-6669,1550,-1,-1,0
-151.70,34.45,-77.02,4694,-6672,1542,-1,-1,0
-151.70,34.45,-77.02,4700,-6673,1539,-1,-1,0
-151.69,34.45,-77.03,4705,-6678,1534,-1,-1,0
-151.69,34.45,-77.04,4702,-6682,1536,-1,-1,0
-151.68,34.45,-77.05,4702,-6683,1536,-1,-1,0
-151.68,34.45,-77.06,4705,-6676,1524,-1,-1,0
-151.67,34.45,-77.08,4702,-6678,1517,-1,-1,0
-151.67,34.45,-77.09,4696,-6682,1515,-1,-1,0
-151.67,34.45,-77.10,4697,-6679,1513,-1,-1,0
-151.67,34.45,-77.10,4694,-6675,1524,-1,0,0
-151.67,34.44,-77.10,4697,-6674,1531,-1,0,0
-151.67,34.44,-77.10,4698,-6679,1529,-1,-1,-1
-151.65,34.45,-77.12,4699,-6676,1527,-1,-1,0
-151.65,34.45,-77.12,4703,-6673,1522,-1,-1,0
-151.65,34.45,-77.12,4695,-6674,1531,0,0,-1
-151.66,34.44,-77.11,4703,-6678,1535,-1,-1,0
-151.65,34.44,-77.13,4702,-6673,1527,-1,-1,0
-151.64,34.45,-77.13,4699,-6675,1516,-1,0,-1
-151.64,34.45,-77.14,4700,-6673,1527,-1,0,0
-151.64,34.45,-77.14,4704,-6675,1527,-1,-1,0
-151.64,34.44,-77.14,4705,-6685,1530,-1,-1,0
-151.64,34.44,-77.14,4706,-6686,1532,-1,-1,-1
-151.64,34.44,-77.14,4709,-6682,1526,-1,-1,0
-151.64,34.44,-77.15,4710,-6683,1526,-1,-1,0
-151.63,34.45,-77.15,4710,-6681,1525,-1,0,-1
-151.63,34.45,-77.15,4703,-6685,1529,-1,-1,-1
-151.63,34.44,-77.16,4702,-6684,1535,-1,-1,0
-151.63,34.45,-77.17,4705,-6677,1531,-1,-1,0
-151.63,34.45,-77.17,4707,-6673,1523,-1,-1,0
-151.62,34.45,-77.18,4709,-6679,1518,-1,-1,0
-151.61,34.45,-77.19,4710,-6685,1522,-1,-1,0
-151.61,34.45,-77.20,4709,-6688,1524,-1,0,0
-151.61,34.45,-77.20,4700,-6680,1526,-1,-1,-1
-151.61,34.45,-77.21,4698,-6675,1532,-1,-1,0
-151.61,34.45,-77.21,4698,-6683,1536,-1,-1,0
-151.61,34.44,-77.22,4698,-6686,1524,-1,-1,0
-151.60,34.45,-77.22,4698,-6684,1529,-1,-1,0
-151.60,34.45,-77.23,4701,-6685,1519,-1,-1,0
-151.60,34.45,-77.23,4698,-6684,1522,-1,-1,0
-151.59,34.45,-77.24,4700,-6680,1520,-1,0,0
-151.59,34.45,-77.24,4706,-6687,1520,-1,-1,0
-151.58,34.45,-77.25,4703,-6684,1516,-1,-1,0
-151.58,34.45,-77.26,4700,-6683,1518,-1,-1,0
-151.58,34.45,-77.27,4701,-6686,1508,-1,-1,0
-151.58,34.45,-77.27,4707,-6682,1513,-1,-1,0
-151.57,34.45,-77.29,4711,-6680,1503,-1,-1,0
-151.57,34.45,-77.29,4710,-6679,1506,-1,-1,0
-151.56,34.45,-77.30,4706,-6682,1504,-1,-1,0
-151.56,34.45,-77.30,4707,-6683,1501,-1,-1,0
-151.56,34.45,-77.32,4711,-6692,1506,-1,-1,0
-151.55,34.45,-77.33,4704,-6689,1507,-1,-1,0
-151.54,34.45,-77.35,4701,-6689,1503,-1,-1,0
-151.54,34.45,-77.36,4707,-6682,1501,-1,-1,0
-151.53,34.45,-77.37,4705,-6688,1499,-1,-1,0
-151.53,34.45,-77.37,4705,-6691,1499,-1,-1,0
-151.52,34.45,-77.38,4709,-6695,1500,-1,-1,0
-151.52,34.45,-77.39,4707,-6690,1502,-1,-1,0
-151.51,34.45,-77.41,4706,-6685,1493,-1,-1,0
-151.51,34.45,-77.42,4702,-6686,1498,-1,-1,0
-151.50,34.45,-77.43,4708,-6688,1496,-1,-1,0
-151.50,34.45,-77.44,4715,-6685,1491,-1,0,0
-151.49,34.46,-77.44,4711,-6684,1486,-1,0,0
-151.50,34.45,-77.44,4708,-6684,1500,-1,-1,0
-151.49,34.46,-77.45,4708,-6687,1509,-1,-1,0
-151.49,34.45,-77.46,4702,-6692,1501,-1,-1,0
-151.48,34.45,-77.47,4700,-6689,1489,-1,-1,0
-151.48,34.46,-77.47,4705,-6689,1486,-1,0,0
-151.48,34.45,-77.48,4703,-6693,1484,-1,0,0
-151.48,34.45,-77.48,4708,-6691,1480,-1,-1,0
-151.47,34.46,-77.49,4701,-6694,1476,-1,-1,-1
-151.47,34.46,-77.49,4707,-6687,1479,-1,0,0
-151.47,34.46,-77.49,4699,-6683,1489,-1,0,0
-151.47,34.46,-77.49,4704,-6680,1491,-1,-1,0
-151.47,34.46,-77.49,4698,-6688,1482,-1,-1,0
-151.47,34.46,-77.49,4700,-6685,1488,-1,-1,0
-151.47,34.46,-77.49,4698,-6685,1478,0,0,0
-151.47,34.46,-77.49,4701,-6688,1488,0,0,0
-151.48,34.46,-77.48,4703,-6690,1484,0,0,0
-151.49,34.45,-77.47,4703,-6692,1490,0,0,-1
-151.49,34.45,-77.46,4700,-6694,1490,0,-1,0
-151.48,34.46,-77.47,4707,-6693,1484,0,-1,0
-151.48,34.46,-77.46,4709,-6694,1484,0,0,0
-151.49,34.46,-77.46,4709,-6688,1473,0,0,0
-151.49,34.46,-77.45,4707,-6690,1465,0,0,0
-151.51,34.45,-77.43,4697,-6695,1481,0,0,-1
-151.51,34.45,-77.43,4698,-6691,1486,0,-1,0
-151.50,34.46,-77.42,4698,-6691,1484,0,0,0
-151.50,34.46,-77.42,4706,-6684,1473,0,0,-1
-151.51,34.45,-77.42,4698,-6689,1485,0,0,0
-151.51,34.46,-77.40,4704,-6680,1481,0,0,0
-151.51,34.46,-77.40,4707,-6683,1479,0,0,0
-151.52,34.46,-77.39,4705,-6686,1484,0,0,0
-151.52,34.46,-77.39,4707,-6683,1493,0,0,0
-151.52,34.46,-77.38,4704,-6690,1496,0,0,0
-151.53,34.45,-77.37,4702,-6694,1499,0,0,-1
-151.54,34.45,-77.36,4699,-6695,1491,0,0,-1
-151.54,34.45,-77.36,4701,-6686,1497,0,0,-1
-151.54,34.46,-77.35,4703,-6680,1490,0,0,0
-151.54,34.46,-77.34,4707,-6682,1490,0,0,0
-151.54,34.46,-77.34,4704,-6686,1495,0,0,0
-151.55,34.46,-77.33,4706,-6685,1496,0,0,0
-151.55,34.46,-77.33,4704,-6684,1488,0,0,0
-151.55,34.46,-77.31,4707,-6685,1499,0,0,-1
-151.56,34.46,-77.31,4708,-6685,1498,0,0,0
-151.56,34.46,-77.30,4702,-6695,1506,0,0,-1
-151.56,34.46,-77.30,4703,-6694,1501,0,0,-1
-151.57,34.46,-77.28,4698,-6688,1503,0,0,-1
-151.57,34.45,-77.28,4700,-6687,1492,0,0,0
-151.58,34.46,-77.27,4705,-6687,1493,0,0,-1
-151.58,34.46,-77.27,4704,-6688,1489,0,0,0
-151.59,34.45,-77.25,4702,-6690,1512,0,0,0
-151.59,34.46,-77.24,4704,-6693,1512,0,-1,0
-151.59,34.46,-77.24,4707,-6689,1510,0,0,0
-151.59,34.46,-77.23,4706,-6686,1503,0,0,-1
-151.59,34.46,-77.23,4708,-6688,1509,0,0,-1
-151.60,34.46,-77.21,4712,-6685,1519,0,0,0
-151.61,34.46,-77.20,4711,-6683,1513,0,0,-1
-151.61,34.46,-77.19,4712,-6690,1513,0,0,0
-151.62,34.46,-77.18,4704,-6690,1519,0,0,0
-151.62,34.46,-77.18,4706,-6680,1512,0,0,-1
-151.62,34.46,-77.18,4709,-6682,1512,0,0,0
-151.62,34.46,-77.17,4704,-6686,1509,0,0,0
-151.63,34.46,-77.16,4699,-6681,1519,0,0,0
-151.63,34.46,-77.15,4701,-6677,1517,0,0,-1
-151.63,34.46,-77.14,4706,-6684,1521,0,0,-1
-151.63,34.46,-77.14,4710,-6681,1513,0,0,-1
-151.63,34.46,-77.14,4704,-6679,1515,0,0,0
-151.64,34.46,-77.12,4707,-6674,1511,0,0,-1
-151.64,34.46,-77.12,4705,-6684,1516,0,0,-1
-151.64,34.46,-77.12,4702,-6682,1512,0,0,0
-151.65,34.46,-77.11,4704,-6684,1523,0,-1,0
-151.65,34.46,-77.11,4701,-6683,1527,0,0,0
-151.65,34.46,-77.11,4699,-6686,1524,0,0,0
-151.65,34.46,-77.11,4699,-6680,1524,0,0,0
-151.65,34.46,-77.10,4698,-6688,1530,0,0,0
-151.65,34.46,-77.10,4697,-6682,1527,0,0,0
-151.67,34.45,-77.09,4693,-6685,1525,0,0,0
-151.67,34.45,-77.08,4700,-6686,1521,0,-1,0
-151.67,34.45,-77.08,4702,-6680,1529,0,0,0
-151.67,34.45,-77.08,4702,-6675,1523,0,0,-1
-151.67,34.46,-77.07,4702,-6671,1522,0,0,-1
-151.67,34.46,-77.07,4701,-6675,1518,0,0,0
-151.67,34.46,-77.06,4704,-6684,1522,0,0,0
-151.68,34.46,-77.06,4703,-6686,1529,0,0,0
-151.68,34.46,-77.06,4702,-6683,1522,0,0,0
-151.68,34.45,-77.06,4710,-6682,1522,0,0,0
-151.68,34.45,-77.06,4705,-6682,1522,0,0,0
-151.68,34.45,-77.05,4700,-6682,1519,0,0,0
-151.69,34.45,-77.04,4702,-6677,1524,0,0,0
-151.69,34.45,-77.04,4704,-6676,1523,0,0,0
-151.69,34.45,-77.03,4701,-6676,1523,0,-1,0
-151.69,34.45,-77.03,4701,-6673,1519,0,0,0
-151.70,34.45,-77.03,4698,-6675,1511,0,0,-1
-151.69,34.46,-77.03,4702,-6673,1526,0,0,0
-151.70,34.45,-77.02,4705,-6674,1522,0,0,0
-151.70,34.45,-77.02,4703,-6673,1527,0,0,0
-151.70,34.45,-77.02,4702,-6676,1530,0,0,-1
-151.70,34.46,-77.01,4699,-6677,1530,0,0,0
-151.71,34.45,-77.01,4698,-6681,1532,0,0,-1
-151.71,34.45,-77.00,4696,-6680,1520,0,0,-1
-151.71,34.45,-77.00,4700,-6674,1527,0,0,-1
-151.71,34.45,-77.00,4699,-6674,1523,0,0,0
-151.71,34.46,-76.99,4703,-6671,1534,0,0,-1
-151.71,34.46,-76.98,4706,-6674,1534,0,0,-1
-151.72,34.46,-76.98,4703,-6675,1537,0,0,0
-151.72,34.46,-76.98,4702,-6676,1532,0,0,0
-151.72,34.46,-76.97,4698,-6678,1527,0,0,-1
-151.72,34.46,-76.96,4700,-6671,1526,0,0,-1
-151.73,34.46,-76.95,4706,-6675,1542,0,0,-1
-151.73,34.46,-76.94,4708,-6681,1548,0,0,-1
-151.74,34.46,-76.93,4701,-6678,1549,0,0,-1
-151.74,34.46,-76.92,4693,-6682,1543,0,0,0
-151.74,34.46,-76.91,4699,-6676,1541,0,0,0
-151.75,34.46,-76.92,4702,-6679,1536,0,0,0
-151.75,34.46,-76.91,4709,-6676,1544,0,0,0
-151.75,34.46,-76.90,4704,-6670,1536,0,0,0
-151.76,34.46,-76.89,4704,-6674,1543,0,0,-1
-151.77,34.46,-76.87,4711,-6671,1544,0,0,-1
-151.76,34.47,-76.87,4712,-6670,1547,0,0,-1
-151.76,34.47,-76.86,4705,-6660,1549,0,0,0
-151.76,34.47,-76.86,4705,-6661,1549,0,0,-1
-151.77,34.47,-76.84,4704,-6668,1549,0,0,0
-151.77,34.47,-76.84,4708,-6671,1558,0,-1,0
-151.77,34.47,-76.84,4709,-6669,1558,0,0,0
-151.77,34.47,-76.84,4710,-6668,1558,-1,0,0
-151.77,34.47,-76.84,4704,-6670,1551,-1,-1,0
-151.77,34.47,-76.84,4702,-6669,1548,-1,0,0
-151.76,34.47,-76.85,4699,-6676,1545,-1,0,0
-151.76,34.47,-76.86,4701,-6679,1545,-1,-1,0
-151.76,34.46,-76.86,4700,-6676,1537,-1,-1,0
-151.76,34.46,-76.87,4703,-6672,1550,-1,0,-1
-151.76,34.46,-76.87,4696,-6669,1559,-1,-1,0
-151.76,34.46,-76.88,4703,-6674,1552,-1,0,0
-151.75,34.46,-76.88,4706,-6678,1558,-1,0,0
-151.75,34.46,-76.89,4712,-6671,1546,-1,0,0
-151.74,34.47,-76.90,4714,-6667,1545,-1,-1,0
-151.74,34.47,-76.91,4706,-6671,1544,-1,-1,0
-151.73,34.46,-76.92,4705,-6674,1533,-1,0,0
-151.73,34.47,-76.92,4710,-6677,1531,-1,0,0
-151.73,34.46,-76.94,4703,-6673,1524,-1,-1,0
-151.72,34.47,-76.95,4703,-6682,1525,-1,-1,0
-151.72,34.47,-76.95,4709,-6677,1535,-1,-1,0
-151.71,34.47,-76.96,4705,-6677,1528,-1,0,0
-151.71,34.47,-76.96,4703,-6679,1534,-1,0,0
-151.71,34.47,-76.96,4698,-6685,1534,-1,0,0
-151.71,34.46,-76.97,4703,-6686,1531,-1,0,0
-151.71,34.46,-76.97,4704,-6683,1531,-1,-1,0
-151.71,34.46,-76.98,4703,-6680,1534,-1,0,0
-151.71,34.46,-76.98,4705,-6683,1537,-1,-1,0
-151.71,34.46,-76.98,4704,-6680,1539,-1,0,0
-151.70,34.46,-76.99,4703,-6682,1535,-1,0,0
-151.70,34.46,-76.99,4705,-6678,1531,-1,-1,0
-151.70,34.46,-77.01,4698,-6672,1527,-1,-1,0
-151.70,34.46,-77.01,4703,-6674,1536,-1,0,0
-151.70,34.46,-77.01,4701,-6677,1523,-1,-1,0
-151.69,34.46,-77.02,4699,-6678,1521,-1,-1,0
-151.69,34.46,-77.03,4698,-6677,1517,-1,0,-1
-151.69,34.46,-77.03,4699,-6669,1516,-1,-1,0
-151.68,34.46,-77.03,4700,-6674,1521,-1,-1,0
-151.68,34.46,-77.05,4702,-6672,1520,-1,-1,0
-151.68,34.46,-77.05,4703,-6679,1524,0,-1,-1
-151.68,34.46,-77.05,4698,-6683,1533,-1,-1,0
-151.68,34.46,-77.06,4701,-6683,1536,-1,-1,0
-151.68,34.46,-77.06,4700,-6685,1523,-1,0,-1
-151.68,34.46,-77.06,4694,-6690,1525,-1,0,-1
-151.67,34.46,-77.06,4701,-6687,1515,-1,0,-1
-151.67,34.46,-77.07,4710,-6687,1516,-1,-1,0
-151.67,34.46,-77.07,4702,-6681,1525,-1,-1,0
-151.67,34.46,-77.08,4693,-6684,1523,-1,-1,0
-151.67,34.46,-77.08,4698,-6681,1518,-1,0,0
-151.66,34.45,-77.09,4699,-6688,1517,-1,0,0
-151.66,34.46,-77.10,4704,-6679,1511,-1,-1,0
-151.65,34.46,-77.11,4699,-6677,1510,-1,-1,0
-151.65,34.46,-77.11,4696,-6677,1509,-1,-1,0
-151.64,34.46,-77.13,4698,-6681,1509,-1,-1,0
-151.64,34.46,-77.13,4704,-6688,1507,-1,0,-1
-151.64,34.46,-77.13,4705,-6685,1515,-1,-1,0
-151.64,34.46,-77.14,4706,-6691,1513,-1,-1,0
-151.64,34.46,-77.15,4703,-6686,1520,-1,-1,0
-151.63,34.46,-77.15,4706,-6685,1511,-1,-1,0
-151.63,34.46,-77.17,4700,-6686,1505,-1,-1,0
-151.63,34.46,-77.17,4700,-6684,1514,-1,-1,0
-151.63,34.46,-77.18,4702,-6684,1517,-1,-1,0
-151.63,34.46,-77.18,4710,-6685,1521,-1,-1,0
-151.62,34.46,-77.19,4709,-6684,1508,-1,-1,0
-151.61,34.46,-77.20,4703,-6685,1519,-1,-1,0
-151.60,34.46,-77.21,4696,-6684,1501,-1,-1,0
-151.60,34.46,-77.22,4703,-6682,1503,-1,-1,-1
-151.60,34.46,-77.22,4698,-6685,1515,-1,0,0
-151.60,34.46,-77.23,4700,-6686,1509,-1,-1,0
-151.59,34.46,-77.24,4707,-6683,1507,-1,-1,0
-151.59,34.46,-77.24,4707,-6686,1501,-1,-1,0
-151.59,34.46,-77.25,4701,-6691,1502,-1,0,0
-151.59,34.46,-77.25,4704,-6684,1495,0,0,0
-151.58,34.47,-77.26,4704,-6682,1496,-1,-1,-1
-151.58,34.46,-77.26,4698,-6685,1497,-1,-1,-1
-151.58,34.46,-77.26,4701,-6684,1501,-1,-1,0
-151.58,34.46,-77.26,4706,-6683,1491,-1,-1,0
-151.57,34.47,-77.27,4707,-6687,1488,0,-1,0
-151.59,34.46,-77.27,4699,-6686,1486,0,0,0
-151.58,34.46,-77.27,4708,-6683,1496,0,0,0
-151.58,34.46,-77.27,4707,-6684,1496,0,0,0
-151.58,34.46,-77.27,4709,-6688,1499,0,-1,0
-151.58,34.46,-77.27,4707,-6687,1484,0,0,-1
-151.58,34.46,-77.27,4706,-6683,1496,0,0,-1
-151.58,34.47,-77.26,4709,-6679,1498,0,0,0
-151.58,34.47,-77.26,4710,-6689,1491,0,0,0
-151.58,34.47,-77.26,4711,-6683,1491,0,0,0
-151.59,34.47,-77.25,4709,-6680,1498,0,0,-1
-151.58,34.47,-77.26,4703,-6684,1490,0,-1,0
-151.58,34.47,-77.26,4700,-6687,1486,0,0,0
-151.59,34.47,-77.24,4700,-6687,1488,0,0,-1
-151.59,34.47,-77.24,4704,-6691,1493,0,0,-1
-151.60,34.47,-77.23,4710,-6685,1494,0,0,-1
-151.60,34.47,-77.23,4707,-6687,1494,0,-1,0
-151.60,34.46,-77.22,4708,-6690,1507,0,-1,0
-151.61,34.47,-77.22,4706,-6689,1515,0,0,0
-151.61,34.47,-77.21,4705,-6693,1506,0,0,0
-151.62,34.46,-77.20,4704,-6691,1502,0,0,0
-151.62,34.46,-77.20,4703,-6680,1498,0,0,-1
-151.62,34.47,-77.19,4707,-6690,1506,0,0,-1
-151.62,34.47,-77.18,4711,-6691,1509,0,0,0
-151.62,34.47,-77.18,4708,-6690,1497,0,0,-1
-151.62,34.47,-77.17,4710,-6684,1506,0,0,-1
-151.63,34.47,-77.17,4707,-6685,1514,0,0,-1
-151.63,34.47,-77.16,4703,-6682,1509,0,0,0
-151.63,34.47,-77.16,4698,-6686,1515,0,-1,-1
-151.63,34.47,-77.16,4699,-6676,1492,0,0,0
-151.63,34.47,-77.15,4708,-6672,1495,0,0,-1
-151.63,34.47,-77.15,4706,-6670,1497,0,0,0
-151.64,34.47,-77.14,4704,-6681,1492,0,0,-1
-151.64,34.47,-77.14,4701,-6685,1501,0,0,-1
-151.64,34.47,-77.13,4699,-6682,1514,0,0,-1
-151.64,34.48,-77.12,4699,-6686,1514,0,0,-1
-151.64,34.48,-77.12,4703,-6682,1514,0,0,-1
-151.65,34.47,-77.12,4699,-6681,1516,0,0,-1
-151.65,34.47,-77.11,4710,-6679,1518,0,0,-1
-151.65,34.47,-77.10,4703,-6673,1522,0,0,-1
-151.65,34.47,-77.10,4699,-6675,1524,0,0,-1
-151.66,34.48,-77.09,4703,-6676,1521,0,-1,-1
-151.66,34.48,-77.09,4704,-6675,1515,-1,0,0
-151.66,34.48,-77.09,4707,-6684,1505,0,0,-1
-151.66,34.48,-77.09,4710,-6684,1513,0,0,-1
-151.66,34.48,-77.08,4709,-6682,1514,0,0,-1
-151.66,34.48,-77.08,4709,-6680,1512,0,0,0
-151.67,34.48,-77.07,4703,-6681,1518,0,-1,0
-151.67,34.48,-77.07,4699,-6686,1523,0,0,0
-151.67,34.48,-77.06,4705,-6684,1516,0,0,-1
-151.68,34.47,-77.06,4701,-6687,1513,0,0,0
-151.68,34.47,-77.06,4699,-6684,1529,0,0,0
-151.68,34.47,-77.05,4702,-6687,1513,0,0,0
-151.68,34.47,-77.05,4701,-6683,1512,0,-1,0
-151.68,34.47,-77.05,4703,-6678,1505,0,-1,0
-151.68,34.47,-77.05,4703,-6676,1514,0,0,-1
-151.68,34.47,-77.05,4700,-6676,1511,0,0,0
-151.68,34.47,-77.05,4703,-6678,1514,0,0,-1
-151.69,34.47,-77.04,4699,-6680,1527,0,0,0
-151.69,34.47,-77.04,4705,-6682,1531,0,0,-1
-151.69,34.47,-77.03,4703,-6677,1525,0,0,-1
-151.69,34.47,-77.03,4704,-6676,1521,0,0,0
-151.69,34.47,-77.02,4703,-6678,1522,0,0,-1
-151.69,34.48,-77.02,4703,-6679,1520,0,0,-1
-151.69,34.48,-77.02,4710,-6675,1525,0,0,0
-151.69,34.48,-77.02,4705,-6674,1523,0,0,0
-151.70,34.47,-77.02,4701,-6674,1521,0,0,-1
-151.69,34.48,-77.01,4704,-6672,1524,0,0,-1
-151.69,34.48,-77.01,4704,-6677,1518,0,0,0
-151.70,34.48,-77.00,4709,-6682,1523,0,0,-1
-151.70,34.47,-77.00,4707,-6683,1522,0,0,-1
-151.71,34.48,-76.99,4703,-6680,1534,0,-1,0
-151.70,34.47,-77.00,4697,-6676,1530,-1,-1,0
-151.71,34.48,-76.99,4699,-6684,1535,0,0,0
-151.71,34.47,-76.98,4697,-6684,1536,0,0,-1
-151.71,34.47,-76.98,4702,-6685,1540,0,0,-1
-151.72,34.48,-76.97,4706,-6682,1544,0,0,-1
-151.72,34.48,-76.95,4708,-6681,1534,0,0,-1
-151.73,34.48,-76.95,4704,-6677,1534,0,0,-1
-151.72,34.48,-76.95,4707,-6679,1534,0,0,-1
-151.72,34.48,-76.94,4705,-6680,1528,0,0,0
-151.73,34.48,-76.93,4704,-6672,1531,0,0,-1
-151.74,34.48,-76.92,4708,-6675,1539,0,0,-1
-151.74,34.48,-76.91,4704,-6686,1532,0,0,-1
-151.74,34.48,-76.90,4710,-6688,1537,0,0,-1
-151.76,34.48,-76.89,4707,-6689,1534,0,0,-1
-151.76,34.48,-76.88,4706,-6689,1539,0,0,-1
-151.76,34.48,-76.87,4706,-6687,1537,0,0,-1
-151.76,34.48,-76.86,4703,-6676,1533,0,0,-1
-151.76,34.48,-76.86,4693,-6673,1533,0,0,0
-151.76,34.48,-76.86,4698,-6671,1530,0,0,-1
-151.77,34.49,-76.85,4700,-6678,1538,0,0,-1
-151.77,34.49,-76.85,4700,-6677,1537,0,0,-1
-151.77,34.49,-76.85,4701,-6679,1539,0,0,-1
-151.77,34.48,-76.84,4708,-6675,1550,0,0,0
-151.77,34.48,-76.84,4707,-6671,1551,-1,0,0
-151.77,34.48,-76.84,4707,-6672,1555,0,0,-1
-151.77,34.48,-76.84,4710,-6678,1551,-1,-1,0
-151.77,34.48,-76.84,4709,-6677,1544,-1,-1,0
-151.77,34.48,-76.85,4707,-6685,1541,-1,0,-1
-151.77,34.48,-76.85,4711,-6686,1541,0,0,0
-151.77,34.48,-76.85,4708,-6679,1544,0,-1,0
-151.77,34.48,-76.85,4705,-6673,1537,-1,0,-1
-151.77,34.48,-76.85,4708,-6679,1542,-1,0,0
-151.77,34.48,-76.86,4703,-6676,1541,-1,-1,0
-151.77,34.48,-76.87,4711,-6674,1526,-1,-1,0
-151.76,34.48,-76.87,4713,-6671,1533,-1,0,0
-151.76,34.48,-76.87,4707,-6671,1543,-1,-1,0
-151.76,34.48,-76.88,4704,-6680,1532,-1,0,0
-151.75,34.48,-76.89,4705,-6684,1537,-1,0,0
-151.75,34.48,-76.89,4708,-6684,1538,-1,0,-1
-151.75,34.48,-76.90,4710,-6680,1526,-1,-1,0
-151.74,34.48,-76.91,4708,-6673,1538,-1,-1,0
-151.74,34.48,-76.92,4709,-6679,1525,-1,-1,0
-151.74,34.48,-76.93,4702,-6676,1534,-1,-1,0
-151.74,34.48,-76.93,4704,-6678,1542,-1,-1,0
-151.74,34.48,-76.94,4702,-6677,1541,-1,-1,0
-151.74,34.48,-76.94,4712,-6677,1539,-1,0,0
-151.74,34.48,-76.94,4708,-6676,1525,0,0,-1
-151.74,34.48,-76.94,4704,-6674,1538,-1,0,0
-151.74,34.47,-76.94,4703,-6674,1536,-1,-1,0
-151.73,34.48,-76.95,4701,-6673,1526,-1,-1,0
-151.73,34.48,-76.96,4702,-6672,1533,-1,-1,0
-151.72,34.47,-76.97,4705,-6674,1531,-1,0,0
-151.72,34.47,-76.98,4705,-6677,1517,-1,0,0
-151.72,34.47,-76.98,4706,-6682,1519,0,0,-1
-151.72,34.47,-76.98,4705,-6675,1531,-1,-1,0
-151.72,34.47,-76.98,4708,-6678,1532,-1,-1,-1
-151.71,34.48,-76.99,4712,-6679,1532,-1,0,-1
-151.71,34.48,-76.99,4706,-6675,1530,-1,0,0
-151.71,34.47,-77.00,4706,-6679,1537,-1,-1,0
-151.71,34.47,-77.00,4706,-6680,1537,-1,-1,0
-151.70,34.48,-77.00,4716,-6684,1530,-1,-1,0
-151.70,34.48,-77.01,4711,-6684,1528,-1,0,0
-151.71,34.47,-77.02,4703,-6682,1530,-1,0,0
-151.71,34.47,-77.02,4703,-6680,1526,-1,0,-1
-151.71,34.47,-77.02,4700,-6686,1527,-1,-1,-1
-151.70,34.47,-77.03,4699,-6680,1527,-1,-1,0
-151.70,34.47,-77.03,4699,-6680,1516,-1,-1,0
-151.69,34.47,-77.04,4705,-6676,1520,-1,0,0
-151.69,34.47,-77.04,4704,-6676,1518,-1,0,0
-151.69,34.47,-77.04,4709,-6683,1519,-1,0,0
-151.69,34.47,-77.05,4707,-6686,1523,-1,0,0
-151.69,34.47,-77.05,4713,-6686,1516,-1,-1,0
-151.68,34.47,-77.06,4709,-6678,1520,-1,-1,0
-151.68,34.47,-77.07,4705,-6679,1517,-1,-1,0
-151.67,34.48,-77.08,4709,-6679,1527,-1,-1,0
-151.67,34.47,-77.09,4706,-6676,1527,-1,-1,0
-151.67,34.47,-77.09,4699,-6680,1526,-1,-1,0
-151.67,34.47,-77.10,4702,-6682,1518,-1,-1,0
-151.66,34.47,-77.11,4698,-6679,1504,-1,0,0
-151.66,34.47,-77.11,4695,-6681,1518,0,-1,-1
-151.67,34.47,-77.11,4693,-6676,1524,-1,-1,-1
-151.66,34.47,-77.11,4689,-6670,1513,-1,-1,0
-151.66,34.47,-77.13,4695,-6678,1506,-1,0,0
-151.66,34.47,-77.13,4692,-6680,1511,-1,0,-1
-151.66,34.47,-77.13,4698,-6684,1516,-1,-1,-1
-151.66,34.47,-77.14,4702,-6686,1514,-1,-1,0
-151.65,34.47,-77.15,4706,-6688,1510,-1,-1,0
-151.65,34.47,-77.15,4707,-6683,1512,-1,0,0
-151.65,34.47,-77.16,4703,-6685,1503,-1,-1,-1
-151.64,34.46,-77.17,4697,-6690,1504,-1,-1,0
-151.64,34.47,-77.18,4704,-6687,1494,-1,-1,0
-151.64,34.47,-77.18,4704,-6682,1497,-1,-1,0
-151.63,34.47,-77.19,4703,-6677,1503,-1,-1,0
-151.63,34.47,-77.20,4702,-6679,1507,-1,-1,0
-151.63,34.47,-77.20,4708,-6678,1512,-1,-1,0
-151.62,34.47,-77.21,4709,-6682,1500,-1,-1,0
-151.61,34.47,-77.22,4702,-6682,1504,-1,-1,0
-151.62,34.47,-77.23,4700,-6684,1510,-1,-1,0
-151.62,34.46,-77.24,4696,-6688,1502,-1,-1,0
-151.61,34.46,-77.25,4693,-6691,1500,-1,0,0
-151.61,34.46,-77.25,4694,-6686,1494,-1,-1,0
-151.61,34.46,-77.26,4696,-6692,1493,-1,-1,0
-151.60,34.46,-77.26,4704,-6693,1489,0,0,0
-151.60,34.46,-77.26,4702,-6686,1499,0,-1,-1
-151.60,34.46,-77.26,4707,-6683,1499,-1,-1,0
-151.59,34.47,-77.28,4709,-6675,1492,-1,-1,-1
-151.59,34.47,-77.28,4701,-6682,1485,-1,0,0
-151.59,34.47,-77.28,4706,-6684,1494,-1,0,0
-151.59,34.47,-77.28,4707,-6685,1498,0,0,0
-151.59,34.47,-77.28,4707,-6682,1503,0,0,0
-151.60,34.47,-77.27,4708,-6686,1504,0,-1,0
-151.60,34.47,-77.27,4705,-6688,1504,0,0,0
-151.60,34.47,-77.27,4704,-6686,1494,0,-1,0
-151.60,34.47,-77.27,4705,-6684,1492,0,0,0
-151.61,34.47,-77.26,4707,-6687,1499,0,0,0
-151.61,34.47,-77.26,4705,-6684,1506,0,0,0
-151.61,34.47,-77.26,4703,-6687,1503,0,0,0
-151.61,34.47,-77.25,4706,-6692,1499,0,0,0
-151.61,34.47,-77.25,4707,-6684,1492,0,0,0
-151.61,34.47,-77.25,4705,-6684,1492,0,0,-1
-151.62,34.46,-77.24,4706,-6686,1489,0,0,0
-151.62,34.46,-77.24,4703,-6683,1496,0,0,0
-151.63,34.46,-77.23,4700,-6684,1499,0,0,0
-151.63,34.46,-77.23,4699,-6685,1504,-1,-1,0
-151.63,34.46,-77.23,4696,-6688,1490,0,0,0
-151.63,34.46,-77.23,4706,-6687,1490,0,0,0
-151.63,34.47,-77.22,4706,-6684,1491,0,0,-1
-151.63,34.47,-77.21,4703,-6683,1507,0,0,0
-151.64,34.46,-77.21,4693,-6677,1508,0,0,-1
-151.64,34.46,-77.21,4695,-6676,1501,0,0,-1
-151.64,34.46,-77.21,4696,-6678,1494,0,0,-1
-151.63,34.47,-77.20,4700,-6679,1496,0,0,-1
-151.63,34.47,-77.20,4705,-6679,1492,0,0,-1
-151.64,34.47,-77.19,4704,-6680,1497,0,0,-1
-151.65,34.46,-77.19,4702,-6680,1501,0,0,0
-151.65,34.46,-77.18,4701,-6677,1514,0,0,0
-151.65,34.47,-77.17,4701,-6683,1506,0,0,0
-151.65,34.47,-77.17,4705,-6687,1502,0,0,-1
-151.65,34.47,-77.16,4702,-6685,1507,0,0,-1
-151.66,34.47,-77.16,4700,-6684,1500,0,0,-1
-151.66,34.46,-77.15,4704,-6685,1494,0,0,0
-151.66,34.47,-77.14,4708,-6678,1516,0,0,-1
-151.67,34.47,-77.14,4710,-6677,1515,0,0,0
-151.67,34.47,-77.13,4710,-6678,1510,0,0,-1
-151.67,34.47,-77.13,4709,-6679,1514,0,0,-1
-151.67,34.47,-77.11,4702,-6680,1524,0,0,-1
-151.68,34.47,-77.10,4701,-6683,1534,0,0,0
-151.68,34.47,-77.10,4709,-6685,1532,0,0,-1
-151.68,34.47,-77.10,4701,-6687,1528,0,0,-1
-151.69,34.46,-77.10,4701,-6692,1512,0,0,0
-151.69,34.47,-77.09,4697,-6693,1515,0,0,0
-151.70,34.46,-77.09,4695,-6690,1522,0,0,0
-151.70,34.46,-77.08,4688,-6693,1522,0,0,0
-151.71,34.46,-77.07,4703,-6686,1529,0,0,0
-151.71,34.46,-77.06,4702,-6681,1527,0,0,0
-151.71,34.46,-77.06,4709,-6683,1514,0,0,0
-151.70,34.46,-77.06,4711,-6678,1514,0,0,0
-151.70,34.47,-77.06,4707,-6675,1524,0,-1,0
-151.71,34.46,-77.06,4702,-6683,1517,0,-1,-1
-151.71,34.46,-77.06,4700,-6683,1520,0,0,0
-151.71,34.46,-77.05,4701,-6678,1522,0,0,0
-151.72,34.46,-77.05,4698,-6680,1518,0,0,0
-151.72,34.46,-77.04,4697,-6682,1520,0,0,-1
-151.72,34.46,-77.03,4705,-6679,1528,0,0,0
-151.72,34.46,-77.02,4704,-6679,1526,0,0,-1
-151.72,34.46,-77.02,4703,-6677,1525,0,0,-1
-151.73,34.46,-77.02,4704,-6680,1521,0,0,-1
-151.73,34.46,-77.01,4703,-6685,1515,0,0,0
-151.73,34.46,-77.01,4708,-6684,1518,0,0,-1
-151.73,34.46,-77.01,4699,-6678,1516,0,0,0
-151.74,34.46,-77.00,4697,-6672,1515,0,0,-1
-151.74,34.46,-77.00,4699,-6678,1523,0,0,0
-151.74,34.46,-76.99,4690,-6680,1528,0,0,-1
-151.74,34.46,-76.99,4694,-6679,1525,0,0,-1
-151.74,34.46,-76.99,4698,-6681,1523,0,0,-1
-151.74,34.46,-76.99,4697,-6679,1530,0,0,0
-151.74,34.46,-76.99,4693,-6679,1528,0,0,0
-151.75,34.45,-76.98,4689,-6673,1537,0,0,0
-151.75,34.46,-76.97,4698,-6669,1534,0,0,0
-151.75,34.46,-76.97,4699,-6668,1535,0,0,0
-151.76,34.46,-76.97,4697,-6666,1537,0,0,-1
-151.76,34.46,-76.96,4704,-6673,1536,0,0,-1
-151.76,34.46,-76.96,4708,-6678,1537,0,-1,-1
-151.76,34.46,-76.96,4708,-6673,1535,0,0,0
-151.76,34.46,-76.95,4699,-6674,1534,0,0,0
-151.77,34.46,-76.94,4699,-6680,1526,0,0,0
-151.76,34.46,-76.95,4701,-6677,1523,0,0,-1
-151.76,34.46,-76.95,4702,-6671,1532,0,-1,0
-151.76,34.46,-76.94,4708,-6674,1535,0,0,0
-151.77,34.46,-76.93,4699,-6673,1538,0,0,-1
-151.77,34.46,-76.93,4703,-6675,1533,0,0,-1
-151.78,34.46,-76.92,4705,-6678,1539,0,0,-1
-151.78,34.46,-76.91,4706,-6677,1548,0,-1,-1
-151.78,34.46,-76.90,4704,-6677,1550,0,0,-1
-151.78,34.46,-76.90,4695,-6676,1536,0,0,-1
-151.79,34.46,-76.89,4689,-6678,1532,0,0,0
-151.79,34.46,-76.89,4693,-6678,1533,0,0,0
-151.79,34.46,-76.88,4698,-6675,1536,0,0,-1
-151.80,34.46,-76.87,4696,-6674,1538,0,0,-1
-151.80,34.46,-76.86,4704,-6671,1544,0,0,-1
-151.80,34.46,-76.85,4708,-6673,1545,0,0,-1
-151.81,34.46,-76.85,4706,-6673,1541,0,-1,-1
-151.81,34.46,-76.85,4701,-6675,1547,0,-1,-1
-151.81,34.46,-76.84,4698,-6674,1543,0,0,0
-151.81,34.46,-76.83,4704,-6678,1527,0,0,0
-151.82,34.46,-76.83,4701,-6672,1543,0,0,-1
-151.82,34.46,-76.82,4703,-6674,1560,0,0,-1
-151.83,34.46,-76.81,4708,-6672,1566,0,0,-1
-151.83,34.46,-76.80,4711,-6672,1565,0,0,0
-151.83,34.47,-76.80,4718,-6676,1558,0,-1,-1
-151.83,34.47,-76.80,4713,-6679,1546,0,0,0
-151.83,34.46,-76.81,4708,-6680,1543,-1,-1,0
-151.83,34.46,-76.81,4713,-6676,1548,-1,-1,0
-151.82,34.47,-76.81,4709,-6676,1547,-1,-1,0
-151.82,34.47,-76.82,4703,-6674,1542,-1,0,0
-151.82,34.46,-76.82,4701,-6672,1547,-1,0,0
-151.82,34.46,-76.83,4707,-6676,1555,-1,-1,0
-151.82,34.46,-76.83,4700,-6673,1548,-1,0,0
-151.82,34.46,-76.83,4702,-6678,1546,0,-1,-1
-151.82,34.46,-76.83,4702,-6676,1543,-1,-1,0
-151.82,34.46,-76.84,4697,-6666,1547,-1,0,0
-151.81,34.46,-76.84,4704,-6670,1550,-1,0,0
-151.81,34.46,-76.85,4711,-6672,1555,-1,-1,0
-151.81,34.46,-76.85,4705,-6675,1548,-1,0,0
-151.80,34.46,-76.86,4707,-6680,1550,-1,-1,0
-151.80,34.46,-76.87,4710,-6677,1544,-1,-1,0
-151.80,34.46,-76.87,4703,-6674,1543,-1,0,0
-151.79,34.46,-76.88,4698,-6679,1543,-1,-1,0
-151.79,34.46,-76.89,4701,-6680,1543,-1,-1,0
-151.79,34.46,-76.90,4704,-6677,1535,-1,-1,0
-151.79,34.45,-76.91,4702,-6673,1532,-1,-1,0
-151.78,34.46,-76.91,4701,-6676,1534,-1,-1,0
-151.78,34.46,-76.92,4700,-6680,1538,-1,-1,0
-151.78,34.46,-76.93,4705,-6680,1535,-1,0,0
-151.78,34.45,-76.93,4707,-6676,1536,-1,0,0
-151.78,34.45,-76.93,4708,-6674,1534,-1,-1,0
-151.78,34.45,-76.94,4708,-6675,1540,-1,-1,0
-151.77,34.46,-76.94,4704,-6679,1542,-1,0,0
-151.76,34.45,-76.95,4702,-6682,1542,-1,-1,0
-151.76,34.45,-76.96,4700,-6679,1534,-1,-1,0
-151.76,34.45,-76.97,4705,-6676,1530,-1,-1,0
-151.75,34.45,-76.98,4710,-6673,1520,-1,-1,0
-151.75,34.45,-76.98,4708,-6681,1524,-1,0,0
-151.75,34.45,-76.98,4710,-6681,1535,0,0,-1
-151.74,34.46,-76.99,4712,-6681,1533,-1,-1,0
-151.75,34.45,-77.00,4703,-6685,1530,-1,-1,0
-151.74,34.45,-77.01,4698,-6683,1520,-1,0,-1
-151.74,34.45,-77.01,4697,-6683,1525,-1,-1,0
-151.74,34.45,-77.01,4699,-6680,1525,-1,-1,0
-151.73,34.46,-77.02,4699,-6676,1519,-1,0,0
-151.73,34.46,-77.02,4711,-6674,1520,-1,-1,0
-151.73,34.46,-77.03,4703,-6681,1512,-1,0,0
-151.73,34.46,-77.03,4701,-6686,1513,-1,-1,0
-151.73,34.45,-77.04,4700,-6685,1526,-1,-1,0
-151.72,34.45,-77.05,4696,-6683,1520,-1,-1,0
-151.72,34.45,-77.05,4699,-6682,1525,-1,-1,0
-151.72,34.45,-77.05,4701,-6680,1527,-1,0,0
-151.72,34.45,-77.06,4698,-6680,1522,-1,0,0
-151.72,34.45,-77.06,4703,-6679,1525,-1,-1,0
-151.72,34.45,-77.07,4700,-6681,1524,-1,-1,0
-151.72,34.45,-77.07,4704,-6684,1521,-1,-1,-1
-151.71,34.45,-77.09,4707,-6691,1520,-1,-1,0
-151.70,34.45,-77.09,4710,-6695,1516,-1,-1,0
-151.70,34.45,-77.10,4705,-6684,1516,-1,-1,0
-151.69,34.45,-77.12,4708,-6678,1518,-1,-1,0
-151.69,34.46,-77.12,4707,-6677,1516,-1,-1,0
-151.69,34.45,-77.13,4709,-6681,1505,-1,0,0
-151.69,34.45,-77.13,4711,-6683,1514,-1,-1,0
-151.68,34.45,-77.15,4707,-6684,1515,-1,-1,0
-151.67,34.45,-77.16,4706,-6686,1509,-1,-1,0
-151.67,34.45,-77.16,4703,-6686,1511,-1,-1,-1
-151.67,34.46,-77.16,4708,-6682,1508,-1,-1,0
-151.66,34.46,-77.17,4706,-6679,1513,-1,-1,0
-151.66,34.46,-77.17,4703,-6677,1507,-1,-1,0
-151.66,34.46,-77.18,4712,-6674,1510,-1,-1,0
-151.65,34.46,-77.19,4707,-6683,1508,-1,-1,0
-151.65,34.46,-77.20,4709,-6680,1505,-1,-1,0
-151.64,34.46,-77.21,4707,-6676,1499,-1,-1,0
-151.64,34.46,-77.22,4707,-6676,1502,-1,-1,0
-151.64,34.46,-77.24,4706,-6680,1498,-1,-1,0
-151.63,34.46,-77.25,4710,-6684,1492,-1,-1,0
-151.62,34.46,-77.26,4708,-6682,1491,-1,-1,0
-151.62,34.45,-77.27,4704,-6689,1493,-1,-1,0
-151.62,34.46,-77.27,4697,-6690,1495,-1,-1,0
-151.62,34.45,-77.28,4698,-6689,1483,-1,-1,0
-151.62,34.45,-77.29,4700,-6685,1482,-1,-1,-1
-151.61,34.46,-77.30,4703,-6687,1485,-1,-1,-1
-151.60,34.46,-77.30,4704,-6685,1500,0,0,0
-151.61,34.46,-77.30,4705,-6689,1495,-1,0,0
-151.62,34.45,-77.29,4705,-6694,1495,0,0,0
-151.62,34.45,-77.29,4698,-6690,1498,0,0,-1
-151.62,34.45,-77.29,4695,-6688,1493,0,0,-1
-151.62,34.45,-77.29,4698,-6689,1493,0,0,0
-151.62,34.45,-77.29,4703,-6689,1495,0,0,0
-151.61,34.46,-77.28,4707,-6689,1491,0,0,0
-151.62,34.46,-77.28,4701,-6692,1490,0,0,-1
-151.62,34.46,-77.27,4700,-6699,1503,0,0,-1
-151.63,34.45,-77.26,4702,-6691,1501,0,0,0
-151.63,34.46,-77.25,4705,-6686,1507,0,0,0
-151.64,34.45,-77.23,4702,-6679,1505,0,0,0
-151.64,34.46,-77.24,4703,-6679,1495,0,-1,0
-151.64,34.45,-77.24,4701,-6686,1494,0,-1,0
-151.64,34.45,-77.23,4699,-6689,1498,0,0,0
-151.65,34.46,-77.22,4703,-6689,1500,0,0,-1
-151.65,34.45,-77.21,4709,-6685,1497,0,0,0
-151.66,34.46,-77.20,4706,-6685,1498,0,0,0
-151.66,34.45,-77.20,4708,-6684,1497,0,0,0
-151.66,34.46,-77.19,4707,-6686,1511,0,0,-1
-151.66,34.46,-77.19,4713,-6691,1509,0,0,-1
-151.67,34.45,-77.18,4704,-6687,1510,0,0,-1
-151.67,34.45,-77.17,4699,-6691,1511,0,0,-1
-151.67,34.46,-77.17,4698,-6696,1508,0,0,0
-151.67,34.46,-77.17,4696,-6685,1503,0,0,0
-151.67,34.46,-77.16,4702,-6684,1507,0,0,0
-151.68,34.45,-77.14,4706,-6681,1511,0,0,0
-151.69,34.46,-77.13,4713,-6677,1512,0,0,-1
-151.68,34.46,-77.13,4711,-6677,1511,0,0,-1
-151.68,34.46,-77.13,4706,-6684,1508,0,0,-1
-151.69,34.46,-77.12,4702,-6686,1512,0,0,-1
-151.69,34.46,-77.11,4704,-6680,1517,0,0,-1
-151.69,34.46,-77.10,4701,-6682,1508,0,0,-1
-151.71,34.45,-77.10,4699,-6684,1507,0,0,0
-151.71,34.46,-77.09,4702,-6677,1514,0,0,0
-151.71,34.46,-77.09,4705,-6675,1515,0,0,-1
-151.71,34.46,-77.08,4703,-6676,1520,0,0,-1
-151.71,34.46,-77.08,4694,-6675,1520,0,0,0
-151.71,34.46,-77.07,4701,-6667,1520,0,0,-1
-151.71,34.46,-77.07,4705,-6668,1516,0,0,0
-151.71,34.47,-77.06,4709,-6672,1519,0,0,0
-151.72,34.46,-77.06,4710,-6679,1521,0,0,0
-151.72,34.46,-77.06,4705,-6683,1520,0,0,0
-151.72,34.46,-77.06,4710,-6683,1517,0,0,0
-151.73,34.46,-77.05,4705,-6683,1521,0,0,0
-151.72,34.47,-77.05,4705,-6674,1520,0,0,-1
-151.72,34.46,-77.04,4705,-6675,1524,0,0,0
-151.72,34.47,-77.03,4708,-6677,1526,0,0,-1
-151.72,34.47,-77.03,4710,-6680,1521,0,0,0
-151.72,34.47,-77.03,4710,-6681,1525,0,0,0
-151.73,34.46,-77.02,4711,-6677,1522,0,0,0
-151.73,34.47,-77.02,4703,-6677,1514,0,0,0
-151.73,34.46,-77.02,4707,-6681,1523,0,0,0
-151.73,34.46,-77.02,4713,-6685,1524,0,0,-1
-151.73,34.47,-77.01,4710,-6670,1523,0,-1,0
-151.73,34.47,-77.01,4709,-6672,1520,0,0,0
-151.73,34.47,-77.01,4706,-6678,1519,0,0,0
-151.74,34.47,-77.00,4697,-6681,1512,0,0,-1
-151.74,34.46,-77.00,4698,-6684,1526,0,0,0
-151.75,34.47,-76.99,4699,-6673,1523,0,0,0
-151.75,34.47,-76.99,4704,-6677,1526,0,0,-1
-151.74,34.47,-76.98,4697,-6679,1529,0,0,-1
-151.75,34.47,-76.98,4703,-6680,1527,0,0,0
-151.75,34.47,-76.97,4709,-6678,1527,0,-1,0
-151.75,34.47,-76.97,4709,-6677,1535,0,-1,0
-151.75,34.47,-76.97,4708,-6672,1528,0,0,0
-151.75,34.47,-76.97,4702,-6679,1526,0,0,0
-151.76,34.47,-76.96,4707,-6682,1528,0,0,0
-151.76,34.47,-76.96,4707,-6681,1533,0,0,-1
-151.76,34.47,-76.94,4703,-6686,1535,0,0,-1
-151.76,34.47,-76.94,4701,-6687,1532,0,0,-1
-151.77,34.47,-76.94,4698,-6685,1534,0,0,-1
-151.77,34.47,-76.93,4703,-6679,1529,0,0,-1
-151.77,34.47,-76.93,4705,-6683,1534,0,0,0
-151.77,34.47,-76.93,4704,-6679,1527,0,0,0
-151.77,34.47,-76.93,4706,-6675,1537,0,0,0
-151.77,34.47,-76.93,4705,-6682,1535,0,-1,0
-151.77,34.47,-76.93,4701,-6683,1537,0,0,-1
-151.78,34.47,-76.92,4696,-6681,1534,0,0,0
-151.78,34.46,-76.91,4699,-6676,1534,0,0,-1
-151.79,34.47,-76.90,4704,-6680,1530,0,0,-1
-151.78,34.47,-76.90,4711,-6678,1528,0,-1,0
-151.79,34.47,-76.90,4704,-6682,1531,0,0,0
-151.80,34.47,-76.89,4698,-6673,1540,0,0,0
-151.80,34.47,-76.89,4696,-6681,1541,0,0,-1
-151.80,34.47,-76.88,4705,-6674,1544,0,0,0
-151.80,34.47,-76.88,4704,-6676,1552,0,0,-1
-151.80,34.47,-76.86,4707,-6672,1546,0,0,-1
-151.80,34.47,-76.86,4704,-6666,1550,0,0,-1
-151.81,34.47,-76.85,4697,-6663,1561,0,0,-1
-151.81,34.48,-76.84,4697,-6666,1558,0,0,-1
-151.81,34.48,-76.83,4703,-6669,1552,0,0,-1
-151.82,34.47,-76.82,4698,-6667,1550,0,0,0
-151.82,34.47,-76.82,4699,-6661,1550,0,0,0
-151.83,34.47,-76.81,4706,-6661,1549,0,0,0
-151.83,34.47,-76.79,4704,-6666,1547,0,0,-1
-151.83,34.47,-76.79,4698,-6670,1540,0,0,-1
-151.83,34.48,-76.78,4700,-6672,1547,0,0,-1
-151.84,34.48,-76.77,4701,-6671,1555,0,0,-1
-151.84,34.48,-76.77,4710,-6665,1548,0,0,0
-151.84,34.48,-76.77,4697,-6667,1548,0,0,0
-151.84,34.48,-76.77,4705,-6669,1548,0,0,-1
-151.85,34.47,-76.76,4700,-6675,1543,0,0,0
-151.85,34.47,-76.76,4698,-6677,1552,0,0,0
-151.85,34.47,-76.76,4696,-6674,1555,0,0,0
-151.85,34.47,-76.76,4696,-6675,1555,-1,0,0
-151.85,34.47,-76.76,4704,-6678,1556,-1,0,0
-151.85,34.47,-76.77,4703,-6673,1553,-1,0,0
-151.85,34.47,-76.78,4703,-6678,1552,-1,0,0
-151.84,34.46,-76.79,4704,-6675,1552,-1,-1,0
-151.84,34.46,-76.79,4702,-6674,1557,-1,-1,0
-151.84,34.46,-76.80,4703,-6674,1549,-1,-1,0
-151.84,34.46,-76.81,4703,-6677,1547,-1,-1,0
-151.82,34.47,-76.82,4707,-6675,1540,-1,0,0
-151.82,34.47,-76.83,4704,-6670,1540,-1,0,0
-151.83,34.46,-76.83,4697,-6672,1548,-1,0,0
-151.83,34.46,-76.83,4700,-6676,1549,-1,-1,0
-151.82,34.46,-76.85,4704,-6670,1541,-1,-1,0
-151.82,34.46,-76.86,4701,-6667,1543,-1,0,0
-151.81,34.46,-76.86,4705,-6667,1541,-1,0,0
-151.81,34.46,-76.86,4710,-6671,1537,-1,0,0
-151.81,34.46,-76.87,4714,-6678,1536,-1,0,-1
-151.81,34.46,-76.87,4708,-6679,1538,-1,-1,0
-151.80,34.46,-76.88,4704,-6678,1533,-1,0,0
-151.80,34.46,-76.88,4705,-6678,1538,-1,0,-1
-151.79,34.46,-76.89,4706,-6676,1535,-1,-1,0
-151.79,34.46,-76.90,4704,-6674,1535,-1,-1,0
-151.79,34.46,-76.92,4711,-6680,1530,-1,-1,0
-151.78,34.46,-76.92,4709,-6677,1530,-1,-1,0
-151.78,34.46,-76.93,4704,-6678,1536,-1,-1,0
-151.78,34.46,-76.94,4698,-6682,1533,-1,0,0
-151.78,34.45,-76.94,4701,-6678,1541,-1,0,0
-151.78,34.45,-76.94,4700,-6679,1537,-1,-1,-1
-151.77,34.46,-76.96,4696,-6675,1532,-1,-1,0
-151.77,34.46,-76.96,4700,-6673,1529,-1,-1,0
-151.77,34.46,-76.96,4694,-6676,1530,-1,-1,0
-151.77,34.45,-76.96,4695,-6678,1530,-1,0,0
-151.77,34.46,-76.97,4704,-6674,1522,-1,-1,0
-151.77,34.46,-76.97,4698,-6670,1533,-1,0,0
-151.77,34.45,-76.97,4705,-6668,1537,-1,-1,-1
-151.77,34.45,-76.98,4704,-6680,1532,-1,0,0
-151.76,34.46,-76.98,4703,-6683,1534,-1,-1,0
-151.76,34.46,-76.99,4696,-6677,1534,-1,-1,0
-151.75,34.46,-77.00,4701,-6679,1526,-1,0,-1
-151.75,34.46,-77.00,4703,-6676,1526,-1,0,0
-151.74,34.46,-77.01,4708,-6673,1525,-1,-1,0
-151.74,34.46,-77.01,4702,-6676,1527,-1,-1,0
-151.74,34.46,-77.02,4698,-6677,1523,-1,-1,0
-151.73,34.46,-77.03,4708,-6675,1517,-1,-1,0
-151.73,34.46,-77.03,4705,-6669,1511,0,0,0
-151.74,34.46,-77.02,4702,-6677,1522,-1,0,0
-151.74,34.46,-77.02,4700,-6671,1532,-1,-1,0
-151.73,34.46,-77.04,4699,-6674,1529,-1,-1,0
-151.73,34.46,-77.04,4696,-6674,1521,-1,-1,0
-151.73,34.46,-77.05,4695,-6677,1526,-1,-1,0
-151.73,34.46,-77.05,4703,-6682,1522,-1,-1,0
-151.72,34.46,-77.06,4707,-6680,1529,-1,-1,0
-151.72,34.46,-77.06,4701,-6677,1529,-1,0,0
-151.72,34.46,-77.06,4699,-6676,1532,-1,-1,0
-151.72,34.46,-77.07,4697,-6676,1532,-1,-1,0
-151.71,34.46,-77.08,4701,-6680,1516,-1,-1,0
-151.71,34.46,-77.09,4705,-6677,1513,-1,-1,0
-151.70,34.46,-77.09,4715,-6676,1518,-1,-1,0
-151.70,34.46,-77.09,4709,-6679,1516,0,0,0
-151.70,34.46,-77.10,4708,-6681,1513,0,-1,0
-151.70,34.46,-77.10,4711,-6675,1517,-1,-1,0
-151.69,34.47,-77.11,4704,-6682,1527,-1,-1,-1
-151.69,34.47,-77.11,4709,-6683,1520,-1,-1,-1
-151.69,34.47,-77.12,4707,-6679,1511,-1,-1,0
-151.68,34.47,-77.13,4710,-6685,1515,-1,-1,0
-151.67,34.47,-77.14,4710,-6688,1511,-1,-1,0
-151.67,34.47,-77.16,4703,-6690,1501,-1,-1,0
-151.67,34.46,-77.17,4701,-6695,1500,-1,0,0
-151.67,34.46,-77.17,4699,-6691,1503,-1,0,-1
-151.66,34.47,-77.18,4700,-6693,1506,-1,-1,0
-151.66,34.46,-77.19,4696,-6696,1499,-1,-1,0
-151.65,34.47,-77.20,4704,-6683,1498,-1,-1,0
-151.65,34.47,-77.21,4708,-6676,1501,-1,-1,0
-151.65,34.46,-77.21,4706,-6681,1500,-1,-1,0
-151.64,34.47,-77.23,4707,-6683,1498,-1,-1,0
-151.64,34.47,-77.23,4703,-6688,1511,-1,-1,0
-151.64,34.47,-77.24,4701,-6691,1511,-1,-1,0
-151.64,34.46,-77.25,4701,-6695,1501,-1,-1,0
-151.64,34.46,-77.25,4705,-6692,1506,-1,-1,-1
-151.64,34.46,-77.25,4702,-6694,1500,-1,0,0
-151.64,34.46,-77.25,4703,-6689,1493,0,-1,0
-151.64,34.46,-77.25,4703,-6692,1495,0,0,-1
-151.64,34.46,-77.24,4706,-6695,1506,0,0,0
-151.64,34.46,-77.24,4702,-6689,1501,0,0,-1
-151.64,34.46,-77.24,4701,-6693,1499,0,0,-1
-151.65,34.46,-77.23,4702,-6692,1499,0,0,0
-151.65,34.46,-77.23,4707,-6689,1499,0,0,0
-151.65,34.46,-77.23,4711,-6684,1495,0,0,0
-151.65,34.46,-77.22,4715,-6682,1507,0,-1,0
-151.66,34.46,-77.22,4709,-6689,1504,0,0,0
-151.66,34.46,-77.22,4708,-6692,1499,0,0,-1
-151.66,34.46,-77.21,4711,-6693,1516,0,0,0
-151.66,34.46,-77.20,4710,-6692,1510,0,0,-1
-151.67,34.46,-77.20,4713,-6691,1513,0,0,-1
-151.67,34.46,-77.19,4708,-6689,1510,0,0,-1
-151.67,34.46,-77.19,4703,-6682,1510,0,0,0
-151.67,34.46,-77.18,4702,-6687,1509,0,0,0
-151.68,34.46,-77.17,4705,-6689,1510,0,0,0
-151.68,34.46,-77.17,4706,-6684,1506,0,0,-1
-151.68,34.47,-77.16,4709,-6680,1504,0,0,-1
-151.68,34.47,-77.15,4703,-6678,1510,0,0,0
-151.69,34.46,-77.15,4702,-6676,1509,0,0,0
-151.69,34.46,-77.15,4703,-6686,1496,0,-1,0
-151.69,34.46,-77.15,4699,-6686,1494,0,0,0
-151.69,34.46,-77.14,4701,-6685,1506,0,0,0
-151.69,34.46,-77.13,4707,-6686,1509,0,0,0
-151.70,34.46,-77.13,4706,-6681,1511,0,0,-1
-151.71,34.46,-77.11,4702,-6678,1513,0,0,-1
-151.71,34.46,-77.10,4704,-6679,1524,0,0,-1
-151.71,34.46,-77.10,4703,-6683,1512,0,0,-1
-151.71,34.46,-77.09,4705,-6681,1506,0,0,-1
-151.71,34.46,-77.09,4704,-6680,1501,0,0,0
-151.71,34.47,-77.09,4707,-6680,1506,0,0,0
-151.72,34.46,-77.08,4707,-6677,1518,0,0,0
-151.72,34.46,-77.08,4711,-6680,1518,0,0,0
-151.72,34.46,-77.08,4703,-6680,1506,0,0,-1
-151.73,34.47,-77.06,4703,-6678,1514,0,0,0
-151.73,34.47,-77.06,4701,-6682,1509,0,0,-1
-151.73,34.46,-77.05,4698,-6682,1516,0,0,-1
-151.73,34.46,-77.05,4701,-6678,1519,0,0,-1
