Yaw,Pitch,Roll,AX,AY,AZ,GX,GY,GZ
-151.49,34.25,-76.59,4676,-6681,1596,0,-1,0
-151.49,34.25,-76.59,4682,-6681,1597,0,0,0
-151.50,34.25,-76.57,4676,-6679,1597,0,-1,0
-151.50,34.25,-76.57,4673,-6677,1597,0,0,0
-151.50,34.25,-76.57,4680,-6675,1596,0,0,-1
-151.50,34.26,-76.57,4679,-6676,1598,0,0,-1
-151.50,34.25,-76.56,4679,-6679,1594,0,0,0
-151.50,34.25,-76.56,4683,-6687,1593,0,0,0
-151.50,34.25,-76.56,4684,-6681,1593,-1,-1,0
-151.50,34.26,-76.57,4680,-6683,1592,-1,-1,0
-151.50,34.25,-76.57,4682,-6683,1598,-1,-1,0
-151.49,34.25,-76.59,4679,-6685,1588,-1,-1,0
-151.49,34.25,-76.59,4676,-6680,1591,-1,-1,0
-151.49,34.25,-76.60,4679,-6679,1602,-1,-1,0
-151.49,34.25,-76.61,4682,-6675,1590,-1,-1,0
-151.48,34.26,-76.62,4683,-6676,1588,-1,-1,0
-151.48,34.26,-76.62,4675,-6680,1583,-1,-1,-1
-151.48,34.26,-76.62,4675,-6677,1581,-1,-1,0
-151.47,34.25,-76.63,4674,-6683,1587,-1,0,0
-151.47,34.25,-76.62,4677,-6682,1591,-1,0,0
-151.47,34.25,-76.63,4675,-6673,1589,-1,-1,0
-151.46,34.25,-76.64,4682,-6678,1587,-1,-1,0
-151.46,34.25,-76.65,4685,-6684,1585,-1,-1,0
-151.46,34.25,-76.67,4676,-6683,1588,-1,-1,0
-151.46,34.25,-76.67,4681,-6689,1595,-1,-1,0
-151.46,34.25,-76.67,4680,-6694,1589,-1,-1,0
-151.46,34.25,-76.68,4674,-6684,1588,-1,-1,0
-151.45,34.25,-76.68,4683,-6681,1587,-1,-1,-1
-151.45,34.25,-76.69,4684,-6682,1583,-1,-1,0
-151.45,34.25,-76.69,4676,-6686,1585,-1,-1,0
-151.45,34.25,-76.69,4678,-6686,1584,-1,-1,0
-151.44,34.25,-76.70,4676,-6690,1576,-1,-1,0
-151.44,34.25,-76.70,4681,-6691,1580,-1,-1,0
-151.44,34.25,-76.70,4685,-6687,1587,-1,-1,0
-151.43,34.25,-76.71,4681,-6686,1594,-1,-1,0
-151.43,34.25,-76.72,4685,-6687,1584,-1,-1,0
-151.43,34.25,-76.73,4682,-6686,1571,-1,-1,0
-151.43,34.25,-76.73,4681,-6682,1578,-1,-1,-1
-151.42,34.26,-76.74,4681,-6680,1571,-1,-1,0
-151.42,34.26,-76.75,4680,-6685,1575,-1,-1,0
-151.42,34.26,-76.75,4679,-6692,1577,-1,0,0
-151.42,34.26,-76.75,4683,-6690,1583,-1,-1,0
-151.41,34.25,-76.76,4685,-6685,1574,-1,-1,-1
-151.41,34.25,-76.76,4675,-6683,1574,-1,-1,0
-151.41,34.26,-76.77,4676,-6684,1574,-1,-1,-1
-151.41,34.26,-76.77,4676,-6695,1574,-1,-1,0
-151.40,34.26,-76.78,4674,-6698,1573,-1,-1,0
-151.40,34.25,-76.79,4675,-6697,1569,-1,-1,0
-151.40,34.25,-76.80,4672,-6698,1571,-1,-1,0
-151.40,34.25,-76.80,4679,-6692,1565,-1,0,-1
-151.39,34.26,-76.80,4676,-6689,1570,-1,-1,-1
-151.39,34.26,-76.81,4681,-6681,1569,-1,-1,0
-151.39,34.25,-76.82,4678,-6681,1559,-1,-1,0
-151.38,34.26,-76.84,4685,-6688,1559,-1,-1,0
-151.38,34.26,-76.85,4684,-6687,1560,-1,-1,0
-151.37,34.26,-76.86,4683,-6690,1561,-1,-1,0
-151.37,34.26,-76.87,4678,-6692,1564,-1,-1,0
-151.36,34.25,-76.88,4670,-6690,1561,-1,-1,-1
-151.36,34.25,-76.89,4665,-6691,1559,-1,-1,0
-151.36,34.25,-76.90,4666,-6690,1554,-1,-1,0
-151.35,34.25,-76.91,4667,-6694,1561,-1,-1,0
-151.35,34.25,-76.92,4670,-6688,1548,-1,-1,0
-151.35,34.25,-76.93,4672,-6690,1547,-1,-1,0
-151.35,34.25,-76.93,4675,-6692,1557,0,0,0
-151.35,34.25,-76.93,4675,-6689,1563,-1,-1,0
-151.34,34.26,-76.94,4673,-6681,1558,-1,-1,0
-151.34,34.25,-76.95,4670,-6682,1548,-1,-1,0
-151.33,34.25,-76.96,4673,-6683,1548,-1,-1,0
-151.32,34.26,-76.97,4686,-6685,1545,-1,-1,0
-151.32,34.26,-76.97,4690,-6690,1550,-1,-1,0
-151.31,34.26,-76.99,4693,-6687,1545,-1,-1,0
-151.31,34.26,-77.00,4683,-6687,1544,-1,-1,0
-151.31,34.26,-77.00,4681,-6689,1546,-1,-1,0
-151.30,34.27,-77.01,4685,-6692,1555,-1,-1,-1
-151.30,34.26,-77.02,4681,-6693,1548,-1,-1,0
-151.30,34.26,-77.03,4673,-6692,1548,-1,-1,0
-151.30,34.26,-77.03,4675,-6688,1542,-1,-1,0
-151.29,34.27,-77.04,4676,-6686,1535,-1,-1,0
-151.29,34.26,-77.05,4680,-6692,1542,-1,-1,0
-151.28,34.27,-77.05,4678,-6690,1542,-1,-1,0
-151.28,34.27,-77.06,4682,-6692,1546,-1,-1,0
-151.27,34.26,-77.07,4686,-6687,1542,-1,-1,0
-151.28,34.26,-77.07,4690,-6691,1542,-1,0,0
-151.27,34.26,-77.08,4687,-6693,1535,-1,0,0
-151.28,34.25,-77.08,4679,-6694,1532,-1,0,0
-151.28,34.25,-77.08,4675,-6695,1526,0,0,0
-151.29,34.25,-77.08,4670,-6699,1531,0,0,0
-151.29,34.25,-77.08,4668,-6704,1536,-1,-1,-1
-151.29,34.25,-77.08,4666,-6699,1534,-1,0,-1
-151.28,34.25,-77.08,4670,-6699,1544,-1,-1,-1
-151.28,34.25,-77.08,4667,-6696,1541,-1,-1,0
-151.29,34.25,-77.08,4669,-6690,1539,0,-1,0
-151.29,34.25,-77.08,4668,-6688,1543,0,0,-1
-151.29,34.25,-77.07,4666,-6686,1542,0,0,0
-151.30,34.24,-77.05,4670,-6695,1549,0,0,0
-151.31,34.24,-77.05,4672,-6694,1550,0,-1,0
-151.29,34.25,-77.06,4677,-6692,1538,-1,-1,0
-151.30,34.24,-77.06,4672,-6698,1533,0,-1,0
-151.30,34.24,-77.06,4672,-6693,1533,0,0,0
-151.31,34.24,-77.04,4674,-6692,1540,0,0,-1
-151.31,34.24,-77.03,4673,-6695,1550,0,0,-1
-151.32,34.24,-77.02,4670,-6697,1548,0,0,0
-151.31,34.24,-77.02,4676,-6690,1551,0,0,0
-151.32,34.25,-77.01,4677,-6685,1545,0,0,-1
-151.32,34.25,-77.01,4679,-6694,1536,0,0,0
-151.32,34.25,-77.01,4679,-6694,1543,0,0,0
-151.32,34.25,-77.00,4678,-6697,1560,-1,-1,0
-151.32,34.24,-77.00,4679,-6697,1562,0,0,0
-151.32,34.24,-77.00,4671,-6697,1547,0,0,0
-151.33,34.24,-76.99,4674,-6697,1548,0,0,0
-151.33,34.24,-76.99,4678,-6689,1554,0,0,0
-151.33,34.24,-76.97,4683,-6689,1551,0,0,-1
-151.34,34.24,-76.97,4682,-6693,1549,0,-1,0
-151.34,34.24,-76.96,4676,-6694,1547,0,0,0
-151.34,34.25,-76.96,4680,-6690,1545,0,0,-1
-151.34,34.24,-76.95,4676,-6683,1548,0,0,-1
-151.34,34.25,-76.95,4677,-6680,1549,0,0,-1
-151.35,34.24,-76.93,4678,-6681,1556,0,0,0
-151.35,34.24,-76.93,4687,-6679,1554,0,-1,0
-151.35,34.25,-76.92,4678,-6683,1555,0,0,0
-151.35,34.25,-76.92,4671,-6692,1551,0,0,0
-151.36,34.24,-76.91,4672,-6689,1549,0,0,0
-151.35,34.25,-76.91,4678,-6687,1551,0,-1,-1
-151.36,34.24,-76.91,4676,-6696,1552,0,0,-1
-151.36,34.24,-76.90,4679,-6696,1548,0,0,-1
-151.36,34.24,-76.90,4672,-6695,1554,0,0,0
-151.36,34.24,-76.90,4677,-6689,1557,0,0,-1
-151.37,34.25,-76.89,4672,-6695,1562,0,0,0
-151.37,34.24,-76.89,4668,-6695,1571,0,0,-1
-151.38,34.24,-76.88,4665,-6693,1577,0,0,0
-151.38,34.24,-76.87,4669,-6689,1576,0,0,-1
-151.38,34.24,-76.87,4674,-6693,1563,0,-1,-1
-151.38,34.24,-76.87,4668,-6697,1564,0,-1,0
-151.39,34.23,-76.86,4667,-6698,1569,0,0,0
-151.39,34.23,-76.86,4669,-6694,1570,0,0,0
-151.39,34.23,-76.86,4673,-6692,1571,0,0,0
-151.39,34.24,-76.85,4674,-6696,1570,0,0,0
-151.40,34.23,-76.85,4677,-6690,1566,0,0,0
-151.40,34.23,-76.84,4681,-6686,1564,0,0,0
-151.40,34.23,-76.84,4675,-6677,1565,0,0,0
-151.41,34.23,-76.83,4676,-6683,1575,0,-1,-1
-151.40,34.23,-76.83,4677,-6677,1577,-1,-1,-1
-151.40,34.23,-76.83,4670,-6687,1577,0,0,-1
-151.40,34.24,-76.82,4673,-6691,1572,0,-1,-1
-151.40,34.24,-76.82,4668,-6683,1573,0,-1,-1
-151.41,34.24,-76.81,4672,-6680,1570,0,0,-1
-151.41,34.24,-76.80,4674,-6683,1582,0,0,-1
-151.41,34.24,-76.79,4671,-6689,1578,0,0,0
-151.42,34.24,-76.78,4665,-6681,1574,0,0,0
-151.42,34.24,-76.79,4667,-6684,1568,0,-1,0
-151.42,34.24,-76.79,4676,-6686,1570,0,-1,0
-151.42,34.24,-76.79,4678,-6682,1571,0,-1,0
-151.41,34.24,-76.78,4678,-6678,1578,0,0,0
-151.42,34.24,-76.77,4678,-6679,1568,0,0,0
-151.42,34.24,-76.76,4672,-6683,1567,0,0,0
-151.43,34.24,-76.76,4677,-6686,1570,0,-1,-1
-151.42,34.24,-76.76,4675,-6689,1569,0,0,-1
-151.42,34.24,-76.75,4675,-6689,1576,0,0,-1
-151.43,34.24,-76.75,4674,-6685,1580,0,-1,0
-151.43,34.24,-76.75,4677,-6684,1576,0,-1,0
-151.43,34.24,-76.73,4678,-6686,1573,0,0,0
-151.43,34.24,-76.73,4676,-6684,1568,0,0,0
-151.44,34.24,-76.72,4678,-6688,1572,0,-1,0
-151.44,34.24,-76.72,4680,-6696,1576,0,-1,-1
-151.44,34.24,-76.72,4679,-6685,1578,0,-1,-1
-151.44,34.24,-76.72,4679,-6680,1571,0,0,-1
-151.44,34.25,-76.71,4678,-6683,1576,0,0,-1
-151.44,34.25,-76.70,4667,-6684,1579,0,0,-1
-151.46,34.24,-76.68,4665,-6685,1590,0,0,-1
-151.46,34.24,-76.68,4669,-6692,1588,0,-1,-1
-151.46,34.24,-76.67,4668,-6687,1582,0,0,-1
-151.46,34.24,-76.66,4664,-6688,1579,0,0,-1
-151.47,34.25,-76.65,4680,-6685,1584,0,0,-1
-151.47,34.25,-76.65,4686,-6677,1587,0,0,0
-151.47,34.25,-76.64,4689,-6674,1585,0,0,0
-151.47,34.25,-76.64,4677,-6672,1586,0,-1,0
-151.47,34.25,-76.63,4680,-6675,1586,0,0,0
-151.47,34.25,-76.63,4679,-6677,1595,0,0,0
-151.48,34.25,-76.61,4677,-6675,1588,0,0,-1
-151.48,34.25,-76.61,4671,-6672,1589,0,0,-1
-151.48,34.25,-76.60,4676,-6675,1595,0,0,0
-151.49,34.25,-76.59,4674,-6674,1597,0,-1,-1
-151.49,34.25,-76.58,4677,-6673,1595,0,-1,-1
-151.49,34.25,-76.58,4677,-6676,1598,0,-1,0
-151.49,34.25,-76.57,4678,-6680,1607,-1,-1,0
-151.49,34.25,-76.57,4681,-6686,1600,-1,0,0
-151.49,34.25,-76.58,4682,-6682,1598,-1,0,0
-151.49,34.25,-76.58,4679,-6684,1595,-1,-1,0
-151.49,34.25,-76.59,4676,-6682,1596,-1,-1,0
-151.48,34.25,-76.60,4675,-6682,1593,-1,-1,0
-151.48,34.25,-76.61,4686,-6683,1592,-1,-1,0
-151.47,34.26,-76.61,4681,-6679,1590,-1,-1,-1
-151.47,34.25,-76.62,4675,-6679,1592,-1,-1,0
-151.46,34.25,-76.64,4675,-6679,1593,-1,-1,0
-151.46,34.25,-76.64,4673,-6681,1586,-1,0,0
-151.46,34.25,-76.64,4672,-6681,1583,-1,-1,0
-151.46,34.25,-76.64,4673,-6680,1587,-1,-1,-1
-151.46,34.26,-76.65,4677,-6682,1586,-1,-1,-1
-151.45,34.25,-76.65,4677,-6676,1585,-1,0,0
-151.45,34.25,-76.66,4682,-6681,1596,-1,-1,0
-151.45,34.25,-76.67,4677,-6686,1590,-1,-1,0
-151.44,34.25,-76.68,4675,-6687,1585,-1,-1,0
-151.44,34.25,-76.69,4671,-6680,1589,-1,-1,0
-151.45,34.25,-76.69,4679,-6689,1588,-1,0,0
-151.45,34.25,-76.69,4683,-6685,1586,-1,0,0
-151.44,34.25,-76.69,4671,-6678,1581,-1,0,-1
-151.44,34.25,-76.69,4668,-6680,1588,-1,-1,0
-151.44,34.25,-76.70,4672,-6677,1583,-1,-1,0
-151.43,34.25,-76.71,4678,-6679,1579,-1,-1,0
-151.43,34.25,-76.71,4676,-6682,1587,-1,-1,0
-151.43,34.25,-76.72,4677,-6688,1582,-1,-1,0
-151.43,34.25,-76.72,4678,-6694,1587,-1,-1,0
-151.43,34.25,-76.72,4674,-6692,1583,-1,-1,-1
-151.43,34.24,-76.73,4668,-6696,1572,-1,-1,0
-151.43,34.24,-76.73,4673,-6697,1571,-1,-1,0
-151.43,34.24,-76.74,4673,-6696,1587,-1,-1,0
-151.42,34.25,-76.74,4677,-6693,1586,-1,-1,0
-151.42,34.25,-76.75,4674,-6688,1576,-1,-1,0
-151.43,34.24,-76.75,4674,-6687,1582,-1,-1,0
-151.42,34.25,-76.75,4668,-6686,1577,-1,-1,0
-151.42,34.24,-76.76,4671,-6683,1573,-1,-1,0
-151.42,34.24,-76.76,4673,-6686,1575,-1,-1,0
-151.41,34.24,-76.77,4677,-6685,1577,-1,-1,0
-151.41,34.24,-76.78,4674,-6684,1572,-1,-1,0
-151.41,34.25,-76.78,4677,-6684,1571,-1,-1,-1
-151.40,34.25,-76.80,4685,-6682,1559,-1,-1,0
-151.40,34.25,-76.81,4685,-6690,1557,-1,-1,0
-151.39,34.24,-76.81,4678,-6690,1563,-1,-1,0
-151.39,34.24,-76.83,4675,-6690,1558,-1,0,0
-151.39,34.24,-76.83,4677,-6693,1565,-1,0,-1
-151.39,34.25,-76.82,4678,-6693,1568,-1,-1,-1
-151.38,34.25,-76.84,4674,-6690,1571,-1,-1,0
-151.39,34.24,-76.84,4671,-6687,1570,-1,-1,0
-151.39,34.24,-76.84,4665,-6690,1571,-1,-1,0
-151.39,34.24,-76.85,4664,-6693,1569,-1,-1,0
-151.38,34.24,-76.85,4663,-6692,1569,-1,-1,0
-151.38,34.24,-76.86,4666,-6694,1564,-1,-1,0
-151.38,34.23,-76.87,4668,-6690,1568,-1,-1,0
-151.38,34.23,-76.88,4672,-6693,1565,-1,-1,0
-151.37,34.23,-76.89,4673,-6698,1558,-1,-1,0
-151.37,34.23,-76.90,4666,-6696,1554,-1,-1,0
-151.36,34.23,-76.92,4670,-6691,1556,-1,-1,0
-151.36,34.23,-76.92,4671,-6687,1553,-1,-1,0
-151.36,34.23,-76.92,4672,-6686,1552,-1,0,0
-151.36,34.23,-76.92,4677,-6688,1565,-1,-1,-1
-151.36,34.23,-76.93,4678,-6686,1566,-1,-1,0
-151.35,34.23,-76.94,4677,-6687,1563,-1,-1,0
-151.35,34.24,-76.95,4677,-6684,1550,-1,-1,0
-151.35,34.23,-76.96,4674,-6692,1548,-1,-1,0
-151.35,34.23,-76.97,4673,-6700,1554,-1,-1,0
-151.34,34.23,-76.98,4671,-6696,1551,-1,-1,0
-151.34,34.23,-76.99,4674,-6697,1549,-1,-1,0
-151.34,34.23,-77.00,4669,-6698,1541,-1,-1,0
-151.33,34.23,-77.00,4669,-6702,1553,-1,-1,0
-151.33,34.23,-77.01,4676,-6699,1544,-1,-1,0
-151.33,34.23,-77.01,4677,-6690,1553,-1,-1,0
-151.32,34.23,-77.03,4676,-6687,1553,-1,-1,0
-151.31,34.23,-77.04,4682,-6686,1552,-1,-1,0
-151.32,34.23,-77.04,4683,-6692,1546,-1,-1,0
-151.32,34.23,-77.05,4688,-6695,1550,-1,-1,0
-151.32,34.23,-77.05,4677,-6695,1546,-1,-1,0
-151.32,34.23,-77.05,4671,-6697,1544,-1,-1,0
-151.31,34.22,-77.06,4672,-6695,1541,-1,-1,0
-151.31,34.23,-77.06,4674,-6700,1547,-1,-1,0
-151.30,34.23,-77.06,4676,-6691,1542,-1,0,0
-151.30,34.23,-77.06,4676,-6687,1540,0,-1,0
-151.31,34.22,-77.06,4675,-6689,1545,0,0,0
-151.32,34.23,-77.05,4670,-6689,1546,0,-1,-1
-151.32,34.23,-77.05,4676,-6692,1539,-1,-1,-1
-151.31,34.24,-77.05,4676,-6697,1535,-1,0,-1
-151.31,34.23,-77.05,4671,-6697,1538,-1,0,-1
-151.31,34.23,-77.05,4675,-6690,1535,0,-1,0
-151.31,34.24,-77.05,4679,-6692,1533,0,0,0
-151.31,34.24,-77.04,4677,-6696,1533,0,-1,0
-151.32,34.23,-77.04,4673,-6699,1539,0,0,0
-151.32,34.23,-77.03,4671,-6702,1543,0,0,0
-151.32,34.23,-77.03,4674,-6699,1548,0,0,-1
-151.32,34.23,-77.03,4667,-6699,1545,0,-1,0
-151.32,34.23,-77.03,4666,-6701,1547,0,0,0
-151.32,34.23,-77.02,4673,-6699,1539,0,0,0
-151.33,34.23,-77.01,4671,-6698,1535,0,0,0
-151.33,34.23,-77.01,4671,-6699,1534,0,0,-1
-151.33,34.23,-77.00,4680,-6703,1536,0,0,0
-151.33,34.23,-77.00,4682,-6696,1543,0,0,-1
-151.34,34.23,-77.00,4692,-6700,1535,0,0,-1
-151.33,34.23,-76.99,4683,-6702,1545,0,0,0
-151.33,34.23,-76.99,4678,-6697,1538,0,0,0
-151.33,34.23,-76.99,4674,-6696,1539,0,0,0
-151.34,34.23,-76.99,4670,-6695,1548,0,0,0
-151.35,34.22,-76.98,4666,-6691,1552,0,0,0
-151.35,34.22,-76.98,4669,-6692,1539,0,0,0
-151.35,34.22,-76.97,4673,-6684,1545,0,0,0
-151.35,34.23,-76.96,4674,-6686,1549,0,0,0
-151.36,34.22,-76.95,4676,-6691,1554,0,0,0
-151.36,34.23,-76.95,4675,-6696,1560,0,-1,0
-151.36,34.22,-76.95,4666,-6700,1552,0,-1,0
-151.36,34.22,-76.95,4667,-6702,1561,0,-1,0
-151.37,34.22,-76.94,4666,-6700,1555,0,0,0
-151.37,34.22,-76.94,4670,-6692,1553,0,0,-1
-151.37,34.22,-76.93,4663,-6693,1549,0,0,0
-151.38,34.22,-76.92,4666,-6689,1550,0,-1,-1
-151.38,34.22,-76.91,4661,-6696,1546,0,0,-1
-151.38,34.22,-76.91,4673,-6688,1548,0,0,-1
-151.38,34.22,-76.91,4681,-6687,1554,0,0,-1
-151.38,34.23,-76.89,4674,-6685,1564,0,0,-1
-151.38,34.23,-76.89,4672,-6685,1560,0,0,0
-151.38,34.23,-76.89,4672,-6686,1558,0,-1,0
-151.39,34.22,-76.88,4668,-6690,1558,0,-1,0
-151.39,34.22,-76.88,4672,-6692,1558,0,0,-1
-151.39,34.22,-76.88,4674,-6690,1554,0,0,0
-151.40,34.22,-76.87,4678,-6691,1557,0,0,-1
-151.39,34.23,-76.87,4678,-6689,1558,0,-1,0
-151.39,34.23,-76.87,4683,-6689,1565,0,-1,-1
-151.39,34.23,-76.85,4680,-6690,1570,0,0,-1
-151.40,34.23,-76.85,4676,-6692,1570,0,0,0
-151.40,34.23,-76.84,4678,-6695,1578,0,-1,-1
-151.40,34.23,-76.84,4673,-6693,1574,0,0,0
-151.40,34.23,-76.84,4674,-6695,1566,0,0,-1
-151.40,34.23,-76.84,4675,-6689,1563,0,-1,0
-151.40,34.23,-76.83,4671,-6689,1559,0,-1,0
-151.40,34.23,-76.83,4673,-6689,1557,0,0,0
-151.41,34.23,-76.83,4670,-6692,1562,0,0,-1
-151.41,34.23,-76.82,4673,-6690,1559,0,-1,0
-151.41,34.23,-76.82,4673,-6690,1557,0,0,-1
-151.40,34.23,-76.82,4679,-6690,1571,0,0,-1
-151.41,34.24,-76.81,4677,-6684,1575,0,0,-1
-151.41,34.24,-76.80,4677,-6687,1571,0,0,-1
-151.41,34.24,-76.80,4681,-6688,1568,0,0,0
-151.42,34.23,-76.80,4683,-6689,1564,0,-1,0
-151.42,34.23,-76.80,4676,-6685,1564,0,0,0
-151.41,34.24,-76.79,4675,-6683,1576,0,0,-1
-151.41,34.24,-76.78,4673,-6678,1562,0,0,-1
-151.41,34.24,-76.78,4673,-6685,1564,0,0,-1
-151.41,34.24,-76.78,4684,-6680,1566,0,0,-1
-151.41,34.24,-76.77,4682,-6683,1566,0,0,-1
-151.41,34.24,-76.77,4681,-6688,1579,0,-1,-1
-151.42,34.24,-76.76,4680,-6686,1574,0,0,-1
-151.42,34.24,-76.76,4677,-6692,1576,0,0,0
-151.42,34.24,-76.76,4676,-6687,1568,0,-1,-1
-151.42,34.24,-76.76,4678,-6688,1560,0,0,-1
-151.42,34.25,-76.75,4676,-6682,1573,0,0,-1
-151.42,34.25,-76.74,4681,-6684,1568,0,0,-1
-151.42,34.25,-76.73,4681,-6683,1578,0,-1,-1
-151.43,34.25,-76.73,4680,-6692,1574,0,-1,-1
-151.43,34.25,-76.73,4682,-6684,1576,0,-1,0
-151.43,34.25,-76.73,4681,-6685,1583,0,-1,0
-151.43,34.25,-76.73,4672,-6694,1581,0,0,0
-151.43,34.25,-76.72,4670,-6693,1580,0,0,0
-151.43,34.25,-76.72,4670,-6683,1573,0,0,-1
-151.43,34.25,-76.72,4673,-6680,1570,0,0,0
-151.44,34.25,-76.70,4669,-6684,1570,0,0,-1
-151.44,34.25,-76.69,4676,-6682,1579,0,-1,-1
-151.44,34.25,-76.69,4680,-6683,1577,0,-1,-1
-151.44,34.25,-76.69,4682,-6684,1577,0,0,-1
-151.44,34.26,-76.67,4683,-6680,1589,0,0,0
-151.45,34.25,-76.67,4683,-6675,1592,0,-1,0
-151.45,34.26,-76.67,4676,-6679,1585,0,-1,-1
-151.45,34.25,-76.66,4677,-6680,1591,0,0,0
-151.45,34.25,-76.65,4678,-6685,1596,0,0,0
-151.46,34.26,-76.64,4673,-6680,1605,0,0,-1
-151.46,34.25,-76.64,4675,-6686,1601,0,0,-1
-151.47,34.25,-76.63,4676,-6687,1600,0,0,0
-151.46,34.25,-76.63,4684,-6690,1612,0,0,0
-151.46,34.25,-76.63,4686,-6690,1598,-1,-1,0
-151.46,34.25,-76.63,4681,-6692,1601,-1,0,0
-151.46,34.25,-76.64,4681,-6692,1593,-1,-1,0
-151.46,34.25,-76.64,4679,-6684,1589,-1,-1,0
-151.46,34.25,-76.65,4678,-6683,1589,-1,-1,0
-151.46,34.25,-76.66,4672,-6686,1593,-1,-1,0
-151.46,34.25,-76.67,4672,-6692,1586,-1,0,0
-151.46,34.25,-76.67,4669,-6689,1586,-1,-1,0
-151.45,34.24,-76.68,4674,-6685,1582,-1,-1,0
-151.45,34.24,-76.68,4672,-6683,1588,-1,-1,0
-151.45,34.24,-76.69,4672,-6684,1588,-1,-1,0
-151.45,34.24,-76.69,4675,-6684,1585,-1,-1,-1
-151.45,34.24,-76.71,4675,-6680,1585,-1,-1,0
-151.45,34.24,-76.71,4678,-6675,1580,-1,-1,0
-151.45,34.24,-76.71,4678,-6682,1579,0,0,0
-151.45,34.24,-76.69,4677,-6680,1585,0,0,-1
-151.44,34.24,-76.69,4678,-6677,1598,-1,-1,-1
-151.44,34.24,-76.70,4681,-6682,1599,-1,-1,-1
-151.44,34.24,-76.72,4679,-6684,1588,-1,-1,-1
-151.43,34.24,-76.72,4681,-6687,1587,-1,-1,0
-151.43,34.24,-76.73,4676,-6683,1575,-1,-1,0
-151.43,34.24,-76.73,4674,-6685,1578,-1,-1,0
-151.43,34.24,-76.73,4681,-6685,1571,-1,-1,0
-151.43,34.24,-76.74,4678,-6684,1572,-1,0,0
-151.43,34.24,-76.74,4678,-6683,1579,-1,0,0
-151.43,34.24,-76.74,4679,-6686,1578,-1,-1,0
-151.42,34.24,-76.75,4674,-6694,1577,-1,-1,0
-151.42,34.24,-76.75,4680,-6693,1574,-1,-1,-1
-151.42,34.24,-76.75,4682,-6687,1573,0,0,0
-151.42,34.24,-76.75,4684,-6683,1583,0,0,0
-151.42,34.24,-76.75,4677,-6684,1582,-1,-1,0
-151.42,34.24,-76.76,4675,-6687,1576,-1,-1,-1
-151.41,34.24,-76.77,4678,-6686,1578,-1,-1,-1
-151.41,34.24,-76.79,4677,-6691,1575,-1,-1,0
-151.41,34.24,-76.79,4676,-6691,1576,-1,0,0
-151.41,34.24,-76.79,4680,-6692,1573,-1,-1,0
-151.41,34.24,-76.80,4678,-6686,1578,-1,-1,-1
-151.40,34.24,-76.80,4674,-6686,1583,-1,-1,0
-151.40,34.24,-76.81,4674,-6684,1579,-1,-1,0
-151.40,34.24,-76.81,4676,-6685,1575,-1,0,0
-151.40,34.24,-76.81,4670,-6687,1583,-1,-1,-1
-151.40,34.24,-76.82,4671,-6687,1583,-1,-1,0
-151.39,34.24,-76.83,4671,-6684,1583,-1,-1,0
-151.39,34.24,-76.84,4672,-6679,1579,-1,0,0
-151.39,34.23,-76.84,4668,-6679,1571,-1,-1,0
-151.39,34.23,-76.84,4668,-6681,1571,-1,-1,0
-151.38,34.24,-76.85,4666,-6681,1558,-1,-1,0
-151.38,34.24,-76.86,4669,-6690,1569,-1,-1,0
-151.38,34.24,-76.86,4673,-6688,1572,-1,-1,0
-151.38,34.23,-76.87,4674,-6686,1562,-1,0,0
-151.38,34.23,-76.87,4674,-6684,1560,-1,0,0
-151.37,34.24,-76.88,4676,-6687,1553,-1,-1,0
-151.37,34.24,-76.88,4683,-6683,1554,-1,-1,0
-151.36,34.24,-76.89,4680,-6687,1553,-1,-1,-1
-151.36,34.24,-76.90,4682,-6687,1564,-1,-1,0
-151.36,34.24,-76.90,4687,-6686,1563,-1,-1,0
-151.35,34.25,-76.92,4682,-6691,1572,-1,-1,0
-151.35,34.24,-76.92,4680,-6692,1573,-1,-1,0
-151.35,34.24,-76.93,4677,-6697,1570,-1,-1,0
-151.35,34.24,-76.94,4675,-6690,1564,-1,-1,0
-151.34,34.24,-76.95,4675,-6685,1566,-1,-1,0
-151.34,34.24,-76.95,4683,-6688,1566,-1,-1,0
-151.33,34.24,-76.97,4683,-6688,1555,-1,-1,0
-151.33,34.24,-76.97,4681,-6690,1564,-1,-1,0
-151.32,34.24,-76.99,4670,-6690,1547,-1,0,0
-151.33,34.23,-76.99,4669,-6689,1543,-1,-1,-1
-151.33,34.23,-77.00,4672,-6694,1550,-1,-1,0
-151.31,34.24,-77.01,4670,-6690,1546,-1,-1,0
-151.31,34.24,-77.02,4676,-6691,1557,-1,-1,0
-151.31,34.24,-77.02,4680,-6697,1555,-1,-1,0
-151.31,34.24,-77.03,4675,-6697,1551,-1,-1,0
-151.31,34.23,-77.04,4673,-6686,1549,-1,-1,0
-151.31,34.23,-77.04,4674,-6689,1548,-1,-1,0
-151.30,34.23,-77.05,4675,-6687,1539,-1,-1,0
-151.30,34.23,-77.06,4670,-6689,1548,-1,-1,0
-151.30,34.23,-77.06,4669,-6686,1551,-1,-1,0
-151.29,34.23,-77.07,4676,-6687,1543,-1,-1,-1
-151.29,34.23,-77.08,4673,-6692,1543,-1,-1,0
-151.29,34.23,-77.08,4678,-6693,1542,-1,-1,0
-151.29,34.23,-77.08,4671,-6696,1547,-1,-1,0
-151.29,34.23,-77.09,4674,-6697,1545,-1,-1,0
-151.29,34.23,-77.09,4668,-6693,1550,-1,-1,0
-151.29,34.23,-77.09,4672,-6693,1551,-1,-1,0
-151.29,34.23,-77.09,4675,-6699,1536,-1,0,-1
-151.29,34.23,-77.09,4677,-6700,1546,-1,0,-1
-151.29,34.23,-77.10,4673,-6698,1539,-1,-1,0
-151.29,34.23,-77.09,4677,-6691,1536,0,0,-1
-151.29,34.23,-77.09,4678,-6690,1531,0,0,0
-151.29,34.23,-77.09,4677,-6690,1538,0,-1,0
-151.28,34.24,-77.09,4683,-6692,1539,-1,-1,0
-151.28,34.24,-77.10,4681,-6692,1536,-1,0,0
-151.29,34.23,-77.09,4675,-6695,1531,0,0,0
-151.29,34.23,-77.09,4678,-6697,1539,-1,-1,-1
-151.29,34.23,-77.09,4678,-6696,1548,0,0,-1
-151.29,34.23,-77.08,4678,-6694,1548,0,-1,0
-151.29,34.23,-77.07,4677,-6693,1547,0,-1,0
-151.30,34.24,-77.06,4672,-6692,1546,0,0,0
-151.30,34.23,-77.07,4674,-6696,1544,0,0,0
-151.30,34.23,-77.06,4680,-6697,1546,0,0,0
-151.30,34.23,-77.06,4674,-6695,1541,0,0,0
-151.30,34.23,-77.06,4673,-6689,1539,0,0,0
-151.30,34.23,-77.05,4678,-6691,1547,0,0,0
-151.30,34.23,-77.05,4679,-6699,1546,0,0,0
-151.31,34.23,-77.04,4677,-6699,1559,0,0,0
-151.32,34.23,-77.04,4683,-6700,1557,0,-1,0
-151.31,34.23,-77.04,4683,-6689,1560,0,0,0
-151.32,34.23,-77.03,4677,-6683,1553,0,0,0
-151.32,34.23,-77.03,4679,-6685,1549,-1,0,0
-151.32,34.23,-77.03,4675,-6686,1561,0,-1,0
-151.32,34.23,-77.01,4680,-6689,1563,0,0,0
-151.32,34.23,-77.01,4679,-6686,1561,0,-1,-1
-151.32,34.24,-77.01,4677,-6690,1561,0,0,0
-151.32,34.23,-77.00,4679,-6693,1555,0,0,-1
-151.33,34.23,-77.00,4674,-6700,1554,0,0,0
-151.33,34.23,-77.00,4674,-6702,1548,0,-1,-1
-151.33,34.23,-77.00,4682,-6698,1550,0,0,0
-151.33,34.23,-76.99,4681,-6693,1553,0,0,0
-151.34,34.23,-76.98,4680,-6691,1569,0,-1,-1
-151.33,34.23,-76.98,4676,-6688,1559,-1,0,-1
-151.33,34.23,-76.97,4673,-6682,1557,0,0,-1
-151.33,34.23,-76.97,4675,-6686,1552,0,0,-1
-151.34,34.24,-76.96,4681,-6681,1558,0,-1,0
-151.34,34.24,-76.96,4676,-6686,1565,0,0,0
-151.34,34.23,-76.95,4675,-6683,1571,0,-1,0
-151.34,34.23,-76.95,4673,-6689,1570,0,0,0
-151.34,34.23,-76.95,4674,-6684,1567,0,0,-1
-151.35,34.23,-76.94,4681,-6688,1563,0,0,-1
-151.35,34.23,-76.93,4682,-6684,1559,0,0,-1
-151.35,34.23,-76.92,4672,-6680,1563,0,-1,-1
-151.35,34.23,-76.92,4677,-6688,1571,0,-1,0
-151.35,34.24,-76.92,4683,-6690,1564,0,-1,0
-151.35,34.24,-76.92,4677,-6690,1560,-1,-1,0
-151.35,34.24,-76.92,4674,-6687,1556,-1,0,0
-151.36,34.23,-76.92,4669,-6687,1559,0,0,0
-151.36,34.23,-76.91,4668,-6690,1563,0,0,-1
-151.37,34.23,-76.90,4665,-6689,1564,0,0,-1
-151.37,34.23,-76.90,4668,-6693,1564,0,0,-1
-151.37,34.23,-76.90,4669,-6695,1565,0,0,-1
-151.37,34.23,-76.89,4674,-6692,1573,0,0,0
-151.37,34.23,-76.89,4675,-6697,1563,-1,-1,0
-151.37,34.23,-76.89,4674,-6698,1566,-1,-1,0
-151.37,34.23,-76.89,4678,-6693,1564,-1,-1,0
-151.37,34.23,-76.89,4677,-6691,1573,-1,-1,0
-151.37,34.23,-76.89,4676,-6692,1563,-1,0,0
-151.37,34.23,-76.88,4671,-6688,1559,0,0,-1
-151.38,34.22,-76.87,4669,-6689,1574,0,0,-1
-151.38,34.22,-76.87,4671,-6684,1578,0,-1,0
-151.38,34.23,-76.87,4666,-6691,1575,-1,0,-1
-151.38,34.23,-76.87,4676,-6694,1566,0,0,0
-151.38,34.23,-76.87,4681,-6698,1572,0,0,-1
-151.38,34.23,-76.85,4675,-6693,1571,0,0,0
-151.39,34.23,-76.86,4677,-6692,1571,0,-1,0
-151.39,34.23,-76.86,4680,-6690,1563,0,0,-1
-151.38,34.23,-76.85,4677,-6690,1563,-1,0,-1
-151.38,34.23,-76.85,4672,-6687,1558,0,0,-1
-151.38,34.23,-76.85,4676,-6684,1557,0,0,0
-151.39,34.23,-76.84,4672,-6682,1565,0,0,0
-151.39,34.23,-76.84,4672,-6686,1567,0,-1,0
-151.39,34.23,-76.84,4673,-6688,1577,0,-1,0
-151.40,34.23,-76.84,4670,-6689,1578,0,-1,0
-151.40,34.23,-76.83,4670,-6694,1581,0,0,0
-151.40,34.23,-76.83,4675,-6694,1574,0,0,0
-151.40,34.23,-76.82,4677,-6688,1579,0,0,0
-151.40,34.23,-76.82,4677,-6687,1570,0,0,-1
-151.39,34.23,-76.82,4677,-6686,1581,0,-1,-1
-151.40,34.23,-76.81,4681,-6684,1579,0,-1,0
-151.40,34.23,-76.81,4676,-6680,1573,-1,-1,0
-151.40,34.23,-76.81,4669,-6679,1576,-1,-1,0
-151.40,34.23,-76.81,4668,-6679,1576,-1,-1,0
-151.40,34.23,-76.81,4671,-6683,1579,0,0,-1
-151.40,34.23,-76.81,4673,-6684,1572,0,0,-1
-151.40,34.23,-76.81,4677,-6682,1575,-1,0,0
-151.40,34.24,-76.80,4675,-6685,1572,0,0,-1
-151.41,34.23,-76.79,4677,-6690,1580,0,-1,0
-151.41,34.23,-76.79,4684,-6691,1578,-1,0,0
-151.41,34.23,-76.79,4674,-6695,1583,-1,0,-1
-151.41,34.23,-76.79,4669,-6698,1585,0,0,-1
-151.41,34.23,-76.79,4667,-6692,1582,0,-1,0
-151.42,34.23,-76.78,4675,-6685,1574,0,0,0
-151.42,34.23,-76.77,4684,-6689,1583,0,0,0
-151.43,34.23,-76.76,4681,-6683,1590,0,-1,0
-151.42,34.23,-76.76,4678,-6678,1587,-1,-1,0
-151.42,34.23,-76.76,4675,-6679,1587,0,-1,0
-151.42,34.23,-76.75,4670,-6687,1581,0,0,0
-151.43,34.23,-76.75,4678,-6692,1584,0,0,0
-151.44,34.23,-76.73,4673,-6693,1585,0,0,-1
-151.44,34.23,-76.73,4675,-6690,1583,0,0,-1
-151.45,34.22,-76.72,4674,-6685,1587,0,0,-1
-151.45,34.23,-76.70,4677,-6685,1592,0,0,-1
-151.45,34.23,-76.69,4678,-6682,1598,0,0,-1
-151.45,34.23,-76.69,4679,-6678,1592,0,0,0
-151.45,34.23,-76.68,4678,-6674,1591,0,0,0
-151.45,34.23,-76.68,4676,-6678,1593,0,-1,0
-151.46,34.23,-76.68,4678,-6677,1586,0,-1,0
-151.46,34.23,-76.68,4680,-6679,1582,0,-1,0
-151.46,34.23,-76.68,4684,-6671,1588,0,0,0
-151.45,34.24,-76.68,4690,-6671,1591,-1,-1,0
-151.45,34.24,-76.68,4689,-6669,1595,-1,-1,0
-151.45,34.24,-76.68,4687,-6668,1587,-1,-1,0
-151.45,34.24,-76.69,4685,-6674,1585,-1,-1,0
-151.45,34.23,-76.70,4684,-6682,1587,-1,-1,0
-151.44,34.23,-76.71,4678,-6686,1581,-1,0,0
-151.44,34.23,-76.71,4672,-6684,1585,-1,-1,-1
-151.44,34.23,-76.71,4676,-6682,1599,-1,-1,-1
-151.44,34.23,-76.71,4674,-6684,1595,-1,0,0
-151.44,34.24,-76.72,4675,-6685,1590,-1,0,0
-151.43,34.23,-76.72,4672,-6684,1583,-1,-1,0
-151.43,34.23,-76.73,4676,-6685,1587,-1,-1,0
-151.43,34.23,-76.73,4674,-6687,1593,-1,-1,0
-151.43,34.23,-76.73,4673,-6682,1582,-1,-1,-1
-151.43,34.23,-76.73,4681,-6685,1583,-1,-1,0
-151.43,34.24,-76.73,4677,-6684,1589,-1,0,0
-151.43,34.23,-76.73,4678,-6680,1584,-1,0,0
-151.42,34.23,-76.74,4675,-6679,1578,-1,-1,0
-151.42,34.23,-76.74,4685,-6679,1580,-1,-1,0
-151.42,34.23,-76.74,4684,-6680,1574,-1,-1,0
-151.42,34.23,-76.74,4673,-6681,1572,-1,-1,0
-151.42,34.23,-76.76,4675,-6683,1568,-1,-1,0
-151.42,34.23,-76.76,4682,-6682,1577,-1,-1,0
-151.41,34.23,-76.76,4677,-6680,1582,-1,-1,0
-151.41,34.24,-76.77,4676,-6679,1588,-1,-1,-1
-151.41,34.23,-76.77,4678,-6683,1590,-1,-1,0
-151.41,34.23,-76.77,4676,-6687,1581,-1,-1,0
-151.41,34.23,-76.78,4675,-6683,1576,-1,-1,0
-151.41,34.23,-76.78,4674,-6682,1583,-1,-1,0
-151.41,34.23,-76.79,4677,-6679,1587,-1,-1,0
-151.41,34.23,-76.79,4675,-6681,1588,-1,-1,0
-151.41,34.23,-76.79,4672,-6690,1586,0,-1,0
-151.41,34.23,-76.79,4672,-6690,1580,-1,-1,0
-151.41,34.23,-76.79,4675,-6688,1581,-1,-1,-1
-151.40,34.23,-76.80,4669,-6686,1582,-1,0,0
-151.40,34.23,-76.80,4668,-6685,1580,-1,-1,0
-151.40,34.23,-76.81,4674,-6685,1578,-1,-1,0
-151.39,34.23,-76.83,4673,-6680,1570,-1,-1,0
-151.39,34.23,-76.83,4676,-6679,1573,-1,-1,0
-151.39,34.22,-76.84,4673,-6685,1585,-1,0,0
-151.39,34.23,-76.84,4664,-6688,1581,-1,0,-1
-151.39,34.22,-76.84,4662,-6688,1576,-1,-1,0
-151.39,34.22,-76.85,4671,-6690,1582,-1,-1,-1
-151.38,34.22,-76.86,4674,-6687,1579,-1,-1,0
-151.38,34.23,-76.86,4679,-6694,1569,-1,-1,-1
-151.38,34.23,-76.88,4679,-6690,1562,-1,-1,0
-151.37,34.22,-76.88,4683,-6688,1569,-1,-1,0
-151.37,34.23,-76.89,4676,-6689,1565,-1,-1,0
-151.36,34.22,-76.90,4673,-6688,1565,-1,-1,0
-151.35,34.23,-76.91,4671,-6691,1562,-1,-1,0
-151.36,34.22,-76.92,4674,-6700,1560,-1,-1,0
-151.35,34.23,-76.93,4678,-6694,1564,-1,-1,0
-151.35,34.22,-76.94,4677,-6691,1560,-1,-1,0
-151.35,34.22,-76.94,4681,-6691,1564,-1,-1,0
-151.35,34.22,-76.94,4674,-6687,1564,-1,0,0
-151.35,34.22,-76.94,4676,-6687,1565,-1,-1,0
-151.35,34.22,-76.94,4673,-6680,1562,-1,-1,0
-151.35,34.22,-76.96,4673,-6687,1568,-1,0,-1
-151.34,34.22,-76.96,4683,-6696,1564,-1,-1,0
-151.33,34.23,-76.97,4682,-6694,1562,-1,-1,-1
-151.33,34.22,-76.99,4687,-6697,1557,-1,-1,0
-151.32,34.22,-77.00,4688,-6693,1562,-1,-1,0
-151.32,34.23,-77.01,4682,-6692,1557,-1,-1,0
-151.31,34.22,-77.02,4683,-6688,1559,-1,-1,0
-151.31,34.22,-77.02,4682,-6682,1559,-1,-1,0
-151.31,34.22,-77.03,4671,-6686,1566,-1,-1,0
-151.31,34.22,-77.04,4676,-6687,1557,-1,-1,0
-151.31,34.22,-77.04,4679,-6689,1552,-1,-1,0
-151.31,34.22,-77.05,4667,-6695,1550,-1,-1,0
-151.30,34.22,-77.06,4670,-6697,1552,-1,-1,0
-151.30,34.22,-77.06,4678,-6700,1545,-1,-1,0
-151.30,34.22,-77.08,4679,-6699,1545,-1,-1,0
-151.29,34.22,-77.08,4674,-6702,1554,-1,-1,0
-151.29,34.22,-77.09,4673,-6700,1553,-1,-1,0
-151.29,34.22,-77.10,4671,-6694,1544,-1,-1,0
-151.29,34.22,-77.10,4665,-6694,1548,-1,-1,0
-151.29,34.21,-77.11,4666,-6699,1541,-1,-1,0
-151.29,34.21,-77.11,4672,-6698,1541,-1,-1,0
-151.29,34.21,-77.12,4671,-6697,1544,-1,-1,0
-151.28,34.21,-77.12,4676,-6699,1532,-1,0,-1
-151.28,34.22,-77.12,4680,-6699,1535,-1,0,-1
-151.28,34.22,-77.12,4687,-6699,1532,-1,-1,0
-151.27,34.22,-77.12,4682,-6700,1532,0,-1,0
-151.28,34.22,-77.12,4675,-6697,1539,0,-1,0
-151.28,34.22,-77.12,4673,-6695,1548,-1,-1,0
-151.28,34.22,-77.12,4672,-6704,1543,-1,-1,0
-151.28,34.21,-77.12,4674,-6697,1540,-1,0,0
-151.28,34.21,-77.12,4675,-6697,1545,-1,-1,-1
-151.28,34.21,-77.12,4669,-6699,1541,-1,-1,-1
-151.28,34.21,-77.12,4672,-6698,1543,-1,0,0
-151.28,34.21,-77.12,4678,-6697,1545,0,0,-1
-151.28,34.21,-77.12,4679,-6700,1545,0,0,0
-151.29,34.21,-77.11,4680,-6691,1547,0,0,-1
-151.29,34.21,-77.11,4681,-6695,1537,0,-1,0
-151.29,34.21,-77.11,4679,-6697,1532,-1,-1,0
-151.29,34.21,-77.11,4675,-6694,1530,0,-1,0
-151.29,34.21,-77.11,4677,-6696,1536,0,0,-1
-151.29,34.22,-77.10,4679,-6690,1532,-1,0,-1
-151.29,34.22,-77.10,4681,-6698,1548,0,-1,-1
-151.29,34.22,-77.09,4679,-6690,1544,0,0,0
-151.30,34.21,-77.09,4673,-6695,1542,0,0,-1
-151.30,34.21,-77.08,4668,-6704,1548,0,-1,-1
-151.30,34.21,-77.08,4666,-6700,1548,0,0,0
-151.30,34.21,-77.07,4667,-6696,1548,0,0,0
-151.31,34.21,-77.07,4665,-6699,1553,0,0,-1
-151.31,34.21,-77.05,4670,-6699,1550,0,0,0
-151.31,34.21,-77.05,4670,-6702,1552,0,0,0
-151.31,34.21,-77.05,4671,-6700,1552,0,-1,-1
-151.32,34.21,-77.04,4677,-6698,1556,0,0,-1
-151.32,34.21,-77.03,4682,-6696,1560,0,0,-1
-151.32,34.21,-77.03,4689,-6698,1554,0,0,0
-151.32,34.21,-77.03,4683,-6699,1553,0,0,0
-151.32,34.22,-77.02,4684,-6699,1552,0,0,-1
-151.32,34.21,-77.02,4676,-6695,1555,0,0,0
-151.33,34.21,-77.01,4674,-6687,1555,0,0,0
-151.33,34.21,-77.01,4666,-6687,1553,0,0,0
-151.33,34.21,-77.00,4669,-6685,1558,0,0,0
-151.33,34.21,-76.99,4673,-6688,1555,0,0,-1
-151.34,34.21,-76.99,4677,-6686,1563,0,0,-1
-151.34,34.21,-76.99,4680,-6689,1562,0,0,0
-151.33,34.22,-76.98,4682,-6684,1554,0,0,0
-151.33,34.22,-76.97,4686,-6691,1556,0,0,-1
-151.33,34.22,-76.97,4685,-6692,1549,0,0,0
-151.33,34.22,-76.97,4676,-6694,1562,0,0,-1
-151.34,34.22,-76.97,4673,-6691,1561,0,0,0
-151.34,34.22,-76.96,4675,-6692,1565,0,0,0
-151.34,34.22,-76.96,4676,-6699,1555,0,0,0
-151.34,34.22,-76.95,4673,-6696,1559,0,-1,0
-151.35,34.21,-76.96,4667,-6697,1565,-1,-1,0
-151.35,34.21,-76.95,4674,-6691,1565,0,0,-1
-151.34,34.22,-76.95,4674,-6689,1560,0,0,-1
-151.36,34.22,-76.93,4680,-6691,1577,0,0,-1
-151.35,34.22,-76.93,4683,-6689,1571,0,-1,0
-151.35,34.22,-76.93,4677,-6692,1565,0,-1,0
-151.36,34.22,-76.93,4679,-6692,1572,-1,-1,0
-151.36,34.22,-76.92,4679,-6682,1570,0,0,0
-151.36,34.22,-76.92,4673,-6683,1573,0,0,0
-151.36,34.22,-76.91,4676,-6690,1570,0,0,0
-151.36,34.22,-76.90,4671,-6687,1568,0,0,-1
-151.36,34.22,-76.90,4673,-6685,1568,0,0,-1
-151.36,34.22,-76.89,4680,-6689,1571,0,-1,-1
-151.36,34.22,-76.89,4678,-6686,1570,0,0,0
-151.37,34.22,-76.88,4676,-6685,1583,0,-1,0
-151.37,34.22,-76.88,4676,-6685,1583,0,-1,0
-151.37,34.22,-76.88,4675,-6690,1574,0,-1,0
-151.37,34.22,-76.88,4676,-6699,1567,0,0,0
-151.38,34.22,-76.86,4678,-6695,1565,0,0,-1
-151.38,34.22,-76.86,4672,-6694,1562,0,0,-1
-151.38,34.22,-76.85,4675,-6691,1575,0,0,-1
-151.39,34.22,-76.84,4670,-6695,1581,0,-1,-1
-151.39,34.22,-76.83,4674,-6692,1587,0,0,-1
-151.39,34.22,-76.81,4677,-6687,1587,0,0,-1
-151.40,34.23,-76.80,4683,-6683,1588,0,0,0
-151.40,34.23,-76.79,4680,-6678,1585,0,0,-1
-151.40,34.23,-76.79,4674,-6685,1584,0,0,0
-151.40,34.23,-76.78,4680,-6689,1591,0,-1,-1
-151.40,34.23,-76.78,4675,-6688,1584,-1,-1,-1
-151.40,34.23,-76.78,4669,-6687,1581,-1,0,-1
-151.40,34.23,-76.78,4672,-6686,1575,0,0,0
-151.41,34.23,-76.77,4678,-6683,1587,0,-1,0
-151.41,34.23,-76.77,4679,-6681,1580,0,-1,0
-151.41,34.22,-76.77,4675,-6688,1587,0,-1,0
-151.41,34.23,-76.77,4680,-6686,1578,0,0,0
-151.42,34.22,-76.76,4676,-6694,1582,0,0,0
-151.42,34.22,-76.76,4671,-6690,1584,0,0,0
-151.42,34.22,-76.76,4666,-6684,1572,0,0,-1
-151.41,34.23,-76.75,4678,-6687,1581,0,0,-1
-151.42,34.22,-76.74,4675,-6688,1582,0,-1,-1
-151.42,34.23,-76.74,4668,-6684,1587,0,-1,-1
-151.42,34.23,-76.74,4674,-6682,1586,-1,-1,0
-151.42,34.23,-76.74,4675,-6683,1589,0,0,-1
-151.42,34.23,-76.73,4673,-6683,1579,0,0,-1
-151.42,34.23,-76.73,4676,-6688,1583,0,0,-1
-151.42,34.23,-76.73,4682,-6687,1583,0,0,-1
-151.42,34.23,-76.73,4682,-6685,1579,0,0,-1
-151.43,34.23,-76.72,4686,-6689,1588,0,0,-1
-151.43,34.23,-76.72,4681,-6689,1591,0,0,0
-151.43,34.23,-76.72,4681,-6688,1586,0,-1,-1
-151.43,34.23,-76.71,4680,-6688,1582,0,0,-1
-151.43,34.23,-76.70,4678,-6687,1582,0,0,0
-151.43,34.23,-76.70,4684,-6686,1586,0,0,0
-151.43,34.23,-76.70,4681,-6686,1581,0,0,-1
-151.43,34.23,-76.69,4678,-6684,1586,0,0,-1
-151.43,34.24,-76.69,4682,-6679,1586,0,0,-1
-151.44,34.24,-76.68,4674,-6682,1591,0,0,0
-151.44,34.24,-76.68,4674,-6682,1591,0,0,-1
-151.44,34.24,-76.66,4677,-6678,1599,0,-1,0
-151.44,34.24,-76.66,4681,-6674,1598,-1,-1,0
-151.44,34.24,-76.66,4679,-6681,1598,-1,-1,0
-151.44,34.24,-76.66,4679,-6676,1599,-1,0,0
-151.44,34.23,-76.66,4677,-6677,1603,-1,0,0
-151.44,34.24,-76.66,4677,-6680,1611,-1,0,-1
-151.44,34.24,-76.66,4681,-6682,1602,-1,-1,-1
-151.44,34.24,-76.67,4685,-6676,1596,-1,-1,0
-151.43,34.23,-76.68,4681,-6677,1591,-1,-1,0
-151.42,34.24,-76.69,4681,-6674,1597,-1,-1,0
-151.42,34.24,-76.70,4680,-6671,1596,-1,-1,0
-151.42,34.24,-76.70,4682,-6673,1600,-1,-1,0
-151.42,34.24,-76.70,4677,-6674,1600,-1,-1,0
-151.42,34.24,-76.71,4682,-6677,1596,-1,-1,0
-151.42,34.24,-76.71,4682,-6683,1598,-1,-1,0
-151.42,34.24,-76.71,4682,-6679,1597,-1,0,0
-151.41,34.24,-76.72,4684,-6682,1601,-1,-1,0
-151.41,34.24,-76.72,4679,-6683,1595,-1,-1,0
-151.41,34.24,-76.72,4678,-6687,1596,-1,-1,0
-151.41,34.24,-76.72,4684,-6680,1599,-1,-1,0
-151.41,34.24,-76.73,4681,-6683,1584,-1,-1,-1
-151.40,34.24,-76.74,4678,-6684,1580,-1,0,0
-151.40,34.24,-76.74,4674,-6688,1581,-1,-1,0
-151.40,34.24,-76.75,4678,-6689,1577,-1,0,0
-151.40,34.24,-76.75,4673,-6687,1577,-1,-1,0
-151.40,34.23,-76.76,4673,-6683,1572,-1,-1,0
-151.40,34.23,-76.77,4677,-6686,1573,-1,0,0
-151.40,34.23,-76.77,4675,-6689,1582,-1,-1,0
-151.39,34.23,-76.77,4679,-6693,1597,-1,-1,0
-151.39,34.24,-76.78,4676,-6691,1584,-1,0,0
-151.39,34.24,-76.78,4680,-6691,1583,-1,-1,-1
-151.39,34.23,-76.79,4680,-6686,1572,-1,0,0
-151.39,34.23,-76.79,4677,-6692,1577,-1,0,0
-151.39,34.23,-76.78,4679,-6690,1580,-1,0,0
-151.39,34.23,-76.79,4682,-6692,1582,-1,-1,-1
-151.38,34.24,-76.80,4683,-6683,1576,-1,-1,-1
-151.38,34.23,-76.81,4680,-6683,1575,-1,-1,-1
-151.38,34.23,-76.81,4680,-6686,1577,-1,-1,0
-151.38,34.23,-76.81,4677,-6681,1571,-1,0,0
-151.37,34.24,-76.82,4673,-6684,1577,-1,0,0
-151.37,34.24,-76.82,4672,-6682,1585,-1,-1,0
-151.37,34.23,-76.82,4676,-6676,1583,-1,-1,0
-151.37,34.24,-76.83,4679,-6679,1587,-1,-1,0
-151.36,34.23,-76.83,4681,-6681,1575,-1,-1,0
-151.36,34.23,-76.85,4677,-6678,1578,-1,-1,0
-151.35,34.24,-76.85,4679,-6680,1577,-1,-1,0
-151.35,34.24,-76.86,4679,-6680,1584,-1,-1,0
-151.35,34.24,-76.86,4677,-6682,1576,-1,-1,0
-151.34,34.24,-76.87,4674,-6688,1571,-1,-1,0
-151.34,34.24,-76.88,4676,-6687,1562,-1,0,0
-151.34,34.24,-76.88,4671,-6680,1566,-1,-1,-1
-151.34,34.23,-76.89,4675,-6684,1578,-1,-1,0
-151.33,34.24,-76.90,4670,-6684,1572,-1,-1,0
-151.33,34.24,-76.91,4675,-6685,1565,-1,-1,0
-151.33,34.24,-76.91,4678,-6688,1565,-1,-1,0
-151.33,34.24,-76.91,4679,-6688,1570,-1,-1,0
-151.33,34.23,-76.92,4678,-6689,1571,-1,-1,0
-151.33,34.23,-76.92,4675,-6692,1580,-1,-1,0
-151.33,34.23,-76.92,4684,-6690,1579,-1,-1,0
-151.32,34.23,-76.93,4678,-6690,1571,-1,-1,0
-151.32,34.23,-76.93,4678,-6690,1566,-1,-1,-1
-151.32,34.23,-76.94,4681,-6688,1562,-1,-1,0
-151.31,34.24,-76.95,4680,-6684,1559,-1,-1,0
-151.31,34.24,-76.96,4677,-6689,1552,-1,-1,0
-151.31,34.23,-76.98,4682,-6695,1554,-1,-1,0
-151.31,34.23,-76.98,4682,-6691,1548,-1,-1,0
-151.31,34.23,-76.99,4683,-6687,1557,-1,-1,0
-151.30,34.23,-77.00,4681,-6689,1552,-1,-1,0
-151.30,34.23,-77.01,4673,-6690,1562,-1,-1,0
-151.29,34.23,-77.01,4678,-6693,1560,-1,-1,0
-151.29,34.23,-77.02,4682,-6687,1558,-1,-1,0
-151.29,34.23,-77.02,4682,-6689,1555,-1,-1,0
-151.29,34.23,-77.03,4675,-6691,1544,-1,0,0
-151.29,34.23,-77.03,4672,-6690,1557,-1,-1,0
-151.28,34.23,-77.04,4663,-6689,1560,-1,-1,0
-151.28,34.23,-77.05,4664,-6688,1561,-1,-1,-1
-151.28,34.23,-77.06,4665,-6687,1552,-1,-1,0
-151.28,34.22,-77.06,4670,-6688,1547,-1,-1,0
-151.27,34.23,-77.07,4675,-6687,1543,-1,-1,0
-151.27,34.23,-77.08,4673,-6686,1545,-1,-1,0
-151.27,34.23,-77.08,4672,-6687,1541,-1,-1,0
-151.27,34.23,-77.09,4673,-6692,1543,-1,-1,0
-151.27,34.23,-77.09,4677,-6691,1539,-1,-1,0
-151.26,34.22,-77.10,4676,-6686,1535,-1,-1,0
-151.26,34.22,-77.10,4674,-6696,1539,-1,-1,0
-151.25,34.23,-77.11,4680,-6695,1541,-1,-1,-1
-151.25,34.23,-77.11,4672,-6695,1547,-1,-1,0
-151.25,34.23,-77.11,4682,-6703,1547,-1,-1,0
-151.25,34.23,-77.11,4685,-6698,1550,-1,-1,0
-151.25,34.23,-77.11,4681,-6697,1554,-1,-1,0
-151.25,34.23,-77.12,4672,-6691,1544,-1,-1,0
-151.25,34.23,-77.12,4674,-6688,1531,-1,-1,-1
-151.25,34.23,-77.12,4675,-6684,1529,-1,-1,0
-151.25,34.23,-77.12,4675,-6684,1540,-1,-1,0
-151.25,34.23,-77.12,4680,-6691,1545,0,0,0
-151.25,34.23,-77.12,4675,-6688,1553,0,0,0
-151.25,34.23,-77.11,4675,-6691,1551,0,0,-1
-151.26,34.23,-77.10,4673,-6693,1558,-1,-1,0
-151.26,34.23,-77.10,4680,-6688,1550,-1,-1,0
-151.26,34.23,-77.10,4672,-6695,1547,-1,-1,0
-151.26,34.23,-77.10,4675,-6702,1551,-1,-1,0
-151.26,34.23,-77.10,4672,-6700,1547,0,0,0
-151.27,34.22,-77.10,4665,-6695,1540,0,0,0
-151.27,34.22,-77.09,4666,-6698,1541,0,0,0
-151.27,34.22,-77.09,4669,-6698,1547,0,0,0
-151.27,34.22,-77.09,4675,-6696,1547,0,0,-1
-151.27,34.22,-77.08,4674,-6697,1546,0,0,0
-151.27,34.22,-77.08,4673,-6691,1550,-1,-1,0
-151.27,34.22,-77.07,4672,-6690,1545,0,0,-1
-151.27,34.22,-77.07,4678,-6688,1545,0,0,0
-151.27,34.23,-77.06,4680,-6686,1543,0,0,0
-151.28,34.22,-77.06,4681,-6687,1540,0,-1,0
-151.28,34.22,-77.06,4672,-6686,1542,0,0,0
-151.28,34.22,-77.05,4680,-6694,1550,0,0,0
-151.28,34.22,-77.05,4675,-6693,1549,0,0,-1
-151.29,34.22,-77.04,4673,-6689,1552,0,0,-1
-151.29,34.22,-77.03,4674,-6696,1551,0,-1,-1
-151.29,34.22,-77.03,4674,-6696,1554,0,-1,-1
-151.30,34.22,-77.02,4671,-6693,1553,0,0,-1
-151.30,34.22,-77.02,4677,-6693,1546,0,0,0
-151.29,34.23,-77.01,4680,-6695,1559,-1,0,0
-151.30,34.22,-77.00,4680,-6701,1557,0,0,0
-151.30,34.22,-76.99,4679,-6697,1554,0,0,-1
-151.30,34.23,-77.00,4679,-6696,1566,0,-1,0
-151.30,34.23,-77.00,4680,-6693,1555,-1,0,0
-151.30,34.22,-76.99,4680,-6695,1556,0,0,-1
-151.31,34.23,-76.98,4678,-6691,1552,0,0,-1
-151.31,34.23,-76.98,4681,-6691,1556,0,0,-1
-151.31,34.23,-76.98,4680,-6694,1552,0,0,0
-151.31,34.23,-76.98,4678,-6690,1560,0,-1,0
-151.31,34.23,-76.97,4683,-6693,1555,0,0,0
-151.31,34.23,-76.96,4682,-6692,1554,0,0,0
-151.31,34.23,-76.95,4681,-6688,1559,0,0,-1
-151.31,34.24,-76.95,4691,-6689,1562,0,-1,0
-151.31,34.24,-76.94,4689,-6689,1566,0,0,-1
-151.31,34.24,-76.94,4686,-6689,1568,0,0,-1
-151.31,34.24,-76.93,4683,-6687,1566,0,0,0
-151.31,34.24,-76.93,4681,-6687,1561,0,0,0
-151.31,34.24,-76.93,4679,-6683,1561,0,0,0
-151.32,34.23,-76.93,4674,-6687,1561,-1,0,0
-151.32,34.23,-76.93,4670,-6689,1557,-1,-1,0
-151.32,34.23,-76.93,4670,-6693,1561,0,0,0
-151.32,34.24,-76.92,4673,-6691,1565,0,-1,0
-151.32,34.23,-76.92,4680,-6688,1566,-1,-1,0
-151.32,34.23,-76.92,4669,-6688,1567,-1,0,-1
-151.33,34.23,-76.91,4669,-6693,1565,0,0,0
-151.33,34.23,-76.91,4675,-6690,1573,0,0,-1
-151.33,34.23,-76.90,4674,-6684,1576,0,0,-1
-151.33,34.23,-76.90,4677,-6681,1582,0,0,-1
-151.33,34.24,-76.88,4676,-6686,1588,0,-1,0
-151.34,34.23,-76.89,4672,-6684,1586,-1,-1,0
-151.34,34.23,-76.89,4667,-6680,1567,0,-1,0
-151.34,34.23,-76.89,4672,-6694,1567,0,-1,0
-151.34,34.22,-76.89,4673,-6697,1568,-1,-1,0
-151.34,34.22,-76.89,4671,-6691,1568,-1,0,-1
-151.34,34.22,-76.89,4667,-6684,1569,-1,0,-1
-151.35,34.23,-76.88,4669,-6680,1580,-1,-1,-1
-151.34,34.22,-76.89,4673,-6687,1575,-1,-1,0
-151.34,34.23,-76.89,4674,-6684,1570,0,-1,0
-151.34,34.23,-76.89,4674,-6688,1573,-1,-1,0
-151.34,34.22,-76.89,4671,-6697,1566,-1,-1,0
-151.34,34.23,-76.90,4671,-6694,1563,-1,-1,0
-151.34,34.22,-76.89,4665,-6691,1572,0,-1,-1
-151.34,34.22,-76.89,4672,-6687,1562,-1,-1,0
-151.34,34.23,-76.90,4679,-6691,1562,-1,-1,0
-151.34,34.22,-76.89,4670,-6691,1570,0,-1,0
-151.34,34.22,-76.89,4673,-6696,1575,-1,0,0
-151.35,34.22,-76.89,4670,-6695,1566,0,0,0
-151.35,34.21,-76.89,4667,-6694,1568,0,-1,-1
-151.35,34.22,-76.88,4674,-6692,1570,0,0,0
-151.36,34.22,-76.88,4675,-6687,1559,0,0,-1
-151.36,34.22,-76.87,4680,-6687,1560,0,0,-1
-151.36,34.22,-76.86,4679,-6687,1560,0,0,-1
-151.37,34.23,-76.83,4680,-6680,1571,0,0,-1
-151.38,34.22,-76.82,4682,-6683,1583,0,0,0
-151.39,34.22,-76.80,4682,-6684,1588,0,0,-1
-151.39,34.22,-76.79,4680,-6682,1592,0,0,0
-151.40,34.22,-76.78,4674,-6686,1587,0,0,0
-151.40,34.22,-76.77,4681,-6684,1587,0,0,-1
-151.40,34.22,-76.76,4676,-6682,1586,0,0,-1
-151.40,34.23,-76.75,4680,-6681,1584,0,0,-1
-151.41,34.23,-76.73,4677,-6688,1588,0,0,-1
-151.42,34.23,-76.71,4672,-6682,1597,0,0,-1
-151.43,34.22,-76.69,4672,-6679,1598,0,0,-1
-151.44,34.22,-76.68,4672,-6678,1598,0,0,-1
-151.44,34.22,-76.67,4675,-6677,1599,0,0,0
-151.44,34.22,-76.66,4674,-6676,1615,0,0,0
-151.44,34.23,-76.65,4677,-6673,1607,0,0,0
-151.44,34.23,-76.65,4675,-6676,1605,-1,0,-1
-151.44,34.23,-76.65,4675,-6674,1600,0,0,-1
-151.44,34.22,-76.64,4674,-6669,1604,-1,0,0
-151.44,34.22,-76.64,4671,-6672,1604,-1,0,0
-151.44,34.23,-76.65,4679,-6679,1599,-1,-1,0
-151.43,34.23,-76.66,4680,-6677,1596,-1,-1,0
-151.43,34.23,-76.66,4682,-6675,1605,-1,0,0
-151.43,34.23,-76.66,4673,-6683,1604,-1,0,0
-151.43,34.23,-76.67,4669,-6681,1598,-1,-1,0
-151.43,34.22,-76.67,4669,-6676,1601,-1,0,-1
-151.43,34.22,-76.67,4677,-6672,1605,-1,-1,0
-151.42,34.23,-76.68,4676,-6673,1606,-1,-1,0
-151.42,34.23,-76.69,4675,-6681,1600,-1,-1,0
-151.41,34.23,-76.70,4677,-6685,1589,-1,-1,0
-151.41,34.22,-76.70,4672,-6676,1594,-1,-1,0
-151.41,34.22,-76.71,4669,-6676,1595,-1,-1,0
-151.41,34.22,-76.72,4675,-6682,1589,-1,-1,0
-151.40,34.22,-76.74,4678,-6683,1582,-1,0,0
-151.40,34.22,-76.74,4672,-6685,1585,-1,-1,-1
-151.40,34.22,-76.75,4671,-6685,1584,-1,-1,-1
-151.39,34.22,-76.75,4671,-6686,1582,-1,0,0
-151.39,34.22,-76.76,4673,-6682,1582,-1,-1,-1
-151.39,34.22,-76.76,4667,-6684,1591,-1,-1,0
-151.38,34.22,-76.77,4669,-6683,1590,-1,-1,0
-151.38,34.22,-76.78,4666,-6684,1587,-1,-1,0
-151.37,34.22,-76.79,4675,-6685,1584,-1,-1,0
-151.37,34.22,-76.80,4677,-6689,1580,-1,-1,0
-151.37,34.22,-76.80,4675,-6690,1576,-1,0,-1
-151.36,34.22,-76.81,4678,-6689,1580,-1,0,-1
-151.36,34.22,-76.81,4673,-6686,1582,-1,-1,0
-151.35,34.23,-76.82,4685,-6682,1583,-1,-1,0
-151.35,34.23,-76.83,4687,-6684,1580,-1,-1,-1
-151.35,34.23,-76.83,4681,-6686,1569,-1,-1,-1
-151.35,34.23,-76.83,4681,-6688,1579,-1,-1,0
-151.35,34.23,-76.84,4677,-6688,1579,-1,-1,0
-151.34,34.23,-76.85,4676,-6686,1575,-1,-1,-1
-151.34,34.23,-76.85,4670,-6688,1585,-1,-1,-1
-151.34,34.23,-76.86,4675,-6693,1581,-1,-1,0
-151.33,34.23,-76.87,4670,-6692,1569,-1,-1,0
-151.33,34.23,-76.88,4674,-6695,1576,-1,-1,0
-151.32,34.23,-76.89,4680,-6695,1572,-1,-1,0
-151.32,34.23,-76.90,4686,-6685,1571,-1,-1,0
-151.31,34.23,-76.91,4687,-6685,1569,-1,-1,0
-151.31,34.23,-76.91,4684,-6682,1574,-1,-1,0
-151.30,34.24,-76.92,4674,-6678,1566,-1,-1,0
-151.30,34.24,-76.92,4679,-6673,1565,-1,-1,0
-151.30,34.23,-76.93,4675,-6680,1565,-1,-1,-1
-151.30,34.23,-76.93,4675,-6683,1568,-1,-1,0
-151.30,34.23,-76.93,4678,-6684,1566,-1,-1,0
-151.30,34.23,-76.94,4673,-6688,1560,-1,-1,0
-151.29,34.24,-76.95,4677,-6690,1560,-1,-1,0
-151.30,34.23,-76.94,4677,-6697,1565,-1,-1,0
-151.30,34.23,-76.95,4678,-6689,1565,-1,-1,0
-151.29,34.23,-76.96,4671,-6688,1556,-1,-1,0
-151.28,34.24,-76.97,4678,-6688,1559,-1,-1,0
-151.28,34.24,-76.97,4682,-6695,1560,-1,-1,0
-151.28,34.23,-76.99,4685,-6693,1556,-1,-1,0
-151.28,34.23,-76.99,4685,-6686,1562,-1,-1,0
-151.28,34.23,-77.00,4679,-6686,1559,-1,-1,0
-151.27,34.23,-77.00,4682,-6692,1559,-1,-1,0
-151.27,34.23,-77.02,4682,-6697,1553,-1,-1,0
-151.27,34.23,-77.02,4676,-6695,1555,-1,-1,-1
-151.27,34.24,-77.02,4679,-6692,1555,-1,-1,0
-151.26,34.23,-77.03,4676,-6686,1559,-1,-1,0
-151.26,34.23,-77.03,4677,-6684,1558,-1,-1,0
-151.26,34.23,-77.04,4671,-6693,1548,-1,-1,0
-151.26,34.23,-77.05,4673,-6704,1546,-1,-1,0
-151.26,34.23,-77.06,4670,-6698,1555,-1,-1,0
-151.25,34.23,-77.07,4675,-6693,1548,-1,0,-1
-151.25,34.23,-77.07,4670,-6690,1540,-1,-1,-1
-151.24,34.23,-77.08,4676,-6698,1550,-1,-1,-1
-151.24,34.23,-77.08,4680,-6699,1553,-1,-1,0
-151.24,34.23,-77.08,4679,-6690,1547,-1,-1,0
-151.24,34.23,-77.08,4671,-6687,1555,-1,-1,0
-151.24,34.23,-77.09,4670,-6687,1548,-1,-1,0
-151.24,34.23,-77.09,4678,-6691,1550,-1,-1,0
-151.24,34.23,-77.10,4681,-6698,1543,-1,-1,0
-151.24,34.23,-77.10,4672,-6697,1542,-1,-1,0
-151.24,34.23,-77.10,4673,-6698,1540,-1,-1,0
-151.24,34.22,-77.11,4672,-6697,1535,0,0,0
-151.24,34.23,-77.10,4674,-6701,1533,0,-1,-1
-151.24,34.23,-77.10,4674,-6694,1545,0,0,0
-151.24,34.23,-77.09,4679,-6693,1545,0,0,0
-151.24,34.23,-77.09,4677,-6690,1547,0,-1,-1
-151.24,34.23,-77.09,4674,-6693,1550,-1,0,0
-151.24,34.23,-77.09,4678,-6695,1547,0,-1,0
-151.24,34.23,-77.09,4686,-6697,1545,0,0,0
-151.24,34.23,-77.08,4691,-6690,1543,0,0,0
-151.24,34.23,-77.08,4682,-6690,1551,0,0,0
-151.25,34.23,-77.07,4675,-6687,1555,0,-1,-1
-151.25,34.23,-77.07,4680,-6689,1559,-1,-1,-1
-151.25,34.23,-77.07,4676,-6691,1554,-1,0,-1
-151.24,34.24,-77.07,4681,-6695,1550,0,0,0
-151.25,34.23,-77.06,4682,-6686,1547,0,0,0
-151.25,34.23,-77.05,4676,-6686,1551,0,0,0
-151.26,34.23,-77.05,4682,-6698,1552,0,0,0
-151.26,34.23,-77.04,4675,-6698,1549,0,0,0
-151.26,34.23,-77.03,4669,-6699,1552,0,0,-1
-151.27,34.23,-77.03,4675,-6694,1553,0,0,-1
-151.27,34.23,-77.02,4675,-6697,1556,0,0,-1
-151.27,34.23,-77.01,4674,-6696,1560,0,0,0
-151.27,34.23,-77.01,4676,-6697,1561,0,0,0
-151.27,34.23,-77.01,4679,-6698,1557,0,0,0
-151.28,34.23,-77.00,4672,-6695,1561,0,0,0
-151.28,34.23,-77.00,4671,-6696,1551,0,0,-1
-151.28,34.23,-77.00,4670,-6691,1553,0,0,0
-151.28,34.23,-76.99,4669,-6692,1555,0,0,-1
-151.29,34.22,-76.99,4666,-6693,1550,0,0,-1
-151.29,34.22,-76.99,4669,-6697,1555,0,-1,0
-151.29,34.22,-76.97,4670,-6695,1558,0,0,-1
-151.29,34.22,-76.97,4677,-6698,1559,0,-1,0
-151.29,34.22,-76.97,4680,-6694,1557,0,-1,0
-151.29,34.22,-76.97,4677,-6688,1560,-1,-1,0
-151.29,34.22,-76.97,4671,-6689,1559,0,-1,0
-151.30,34.22,-76.96,4662,-6689,1553,0,0,0
-151.31,34.22,-76.96,4670,-6690,1563,0,0,-1
-151.31,34.22,-76.95,4667,-6691,1558,0,0,-1
-151.31,34.22,-76.95,4666,-6688,1561,-1,0,-1
-151.30,34.22,-76.95,4675,-6695,1565,0,0,-1
-151.30,34.22,-76.94,4676,-6690,1567,0,0,-1
-151.30,34.22,-76.94,4679,-6697,1564,0,-1,-1
-151.31,34.23,-76.93,4676,-6691,1574,0,-1,0
-151.31,34.23,-76.93,4675,-6686,1573,0,0,0
-151.31,34.22,-76.92,4674,-6681,1565,0,0,0
-151.32,34.22,-76.92,4676,-6683,1557,0,0,0
-151.32,34.22,-76.91,4679,-6684,1561,0,0,-1
-151.32,34.22,-76.91,4676,-6690,1567,0,0,0
-151.32,34.23,-76.90,4677,-6685,1569,0,-1,0
-151.32,34.23,-76.90,4681,-6687,1578,0,0,0
-151.33,34.22,-76.88,4671,-6685,1576,0,0,0
-151.33,34.22,-76.88,4677,-6686,1576,0,0,-1
-151.33,34.22,-76.87,4675,-6686,1584,0,0,0
-151.33,34.22,-76.87,4678,-6688,1575,-1,-1,-1
-151.33,34.22,-76.87,4676,-6683,1582,0,-1,-1
-151.33,34.23,-76.86,4673,-6686,1569,0,0,-1
-151.33,34.23,-76.86,4670,-6689,1575,0,0,-1
-151.33,34.23,-76.86,4672,-6692,1573,0,0,0
-151.34,34.22,-76.86,4669,-6689,1569,0,-1,0
-151.34,34.22,-76.85,4672,-6690,1567,0,-1,0
-151.34,34.22,-76.85,4674,-6687,1566,0,-1,-1
-151.34,34.22,-76.85,4680,-6691,1575,-1,0,0
-151.34,34.22,-76.85,4683,-6692,1573,0,0,0
-151.34,34.22,-76.84,4679,-6689,1580,0,0,0
-151.34,34.22,-76.83,4682,-6685,1581,0,0,-1
-151.35,34.23,-76.83,4681,-6688,1587,0,0,-1
-151.35,34.23,-76.82,4677,-6689,1583,0,-1,0
-151.36,34.22,-76.81,4671,-6691,1579,-1,0,-1
-151.35,34.23,-76.81,4672,-6693,1575,0,0,-1
-151.35,34.23,-76.80,4670,-6689,1577,0,0,-1
-151.35,34.23,-76.80,4677,-6684,1578,0,0,-1
-151.35,34.23,-76.80,4681,-6685,1576,0,0,0
-151.35,34.23,-76.79,4678,-6683,1579,0,-1,0
-151.36,34.23,-76.79,4686,-6690,1578,0,0,0
-151.36,34.23,-76.78,4689,-6685,1586,0,0,0
-151.36,34.23,-76.77,4681,-6687,1586,0,0,0
-151.36,34.23,-76.77,4676,-6694,1590,-1,-1,0
-151.36,34.23,-76.77,4680,-6691,1587,0,0,0
-151.37,34.23,-76.76,4688,-6690,1589,0,0,0
-151.37,34.23,-76.75,4685,-6693,1598,0,0,0
-151.37,34.23,-76.75,4681,-6686,1584,0,-1,0
-151.37,34.23,-76.75,4679,-6685,1581,-1,-1,0
-151.37,34.23,-76.75,4678,-6686,1576,-1,-1,0
-151.36,34.24,-76.76,4677,-6685,1575,-1,-1,0
-151.37,34.23,-76.75,4679,-6686,1575,-1,0,0
-151.37,34.23,-76.75,4674,-6685,1583,0,0,-1
-151.37,34.23,-76.74,4674,-6684,1593,0,0,-1
-151.37,34.24,-76.73,4673,-6684,1580,0,0,-1
-151.37,34.24,-76.73,4684,-6676,1579,0,0,-1
-151.38,34.24,-76.72,4680,-6675,1582,0,0,-1
-151.38,34.24,-76.72,4676,-6678,1581,0,-1,0
-151.38,34.24,-76.71,4673,-6679,1592,0,0,0
-151.38,34.24,-76.71,4676,-6680,1585,0,0,0
-151.38,34.24,-76.71,4672,-6683,1593,0,0,0
-151.39,34.24,-76.70,4672,-6680,1596,0,0,0
-151.39,34.24,-76.68,4675,-6674,1599,0,0,-1
-151.39,34.24,-76.68,4674,-6677,1588,0,0,-1
-151.39,34.24,-76.68,4672,-6681,1585,0,0,0
-151.40,34.24,-76.67,4670,-6681,1588,0,0,-1
-151.41,34.23,-76.66,4673,-6675,1602,0,0,0
-151.41,34.23,-76.65,4674,-6679,1607,0,-1,0
-151.41,34.23,-76.65,4674,-6680,1603,0,0,0
-151.41,34.23,-76.65,4681,-6680,1606,-1,0,0
-151.41,34.23,-76.65,4680,-6682,1601,-1,-1,0
-151.41,34.23,-76.66,4680,-6679,1595,-1,-1,-1
-151.40,34.24,-76.66,4681,-6678,1594,-1,-1,0
-151.40,34.23,-76.67,4682,-6684,1604,-1,-1,0
-151.40,34.23,-76.68,4687,-6682,1591,-1,-1,0
-151.40,34.23,-76.68,4683,-6684,1596,-1,-1,0
-151.39,34.23,-76.69,4681,-6689,1595,-1,-1,-1
-151.39,34.23,-76.69,4680,-6683,1604,-1,-1,0
-151.39,34.24,-76.69,4679,-6684,1601,-1,-1,0
-151.39,34.23,-76.70,4681,-6678,1594,-1,-1,0
-151.39,34.23,-76.70,4678,-6671,1595,-1,-1,0
-151.38,34.23,-76.71,4678,-6675,1589,-1,-1,0
-151.38,34.23,-76.72,4673,-6676,1588,-1,-1,0
-151.38,34.23,-76.72,4676,-6683,1590,-1,-1,0
-151.38,34.23,-76.73,4677,-6685,1595,-1,-1,0
-151.37,34.23,-76.74,4676,-6678,1586,-1,-1,0
-151.36,34.23,-76.75,4676,-6682,1578,-1,-1,0
-151.36,34.23,-76.75,4676,-6679,1583,-1,-1,0
-151.36,34.23,-76.76,4674,-6684,1580,-1,-1,0
-151.36,34.23,-76.76,4681,-6686,1584,-1,-1,-1
-151.36,34.23,-76.77,4679,-6684,1573,-1,0,0
-151.35,34.24,-76.77,4675,-6683,1588,-1,-1,0
-151.35,34.24,-76.77,4682,-6687,1579,-1,-1,-1
-151.35,34.23,-76.78,4680,-6677,1582,-1,-1,0
-151.35,34.23,-76.78,4670,-6677,1586,-1,-1,0
-151.35,34.23,-76.79,4673,-6682,1583,-1,0,0
-151.35,34.23,-76.79,4677,-6679,1584,-1,0,-1
-151.35,34.23,-76.79,4673,-6678,1587,-1,0,0
-151.34,34.24,-76.79,4677,-6681,1585,-1,-1,0
-151.34,34.23,-76.80,4671,-6686,1580,-1,-1,0
-151.34,34.23,-76.81,4673,-6691,1582,-1,-1,0
-151.33,34.23,-76.83,4672,-6687,1582,-1,-1,0
-151.33,34.23,-76.83,4675,-6681,1578,-1,-1,0
-151.33,34.23,-76.84,4669,-6692,1574,-1,0,0
-151.33,34.23,-76.84,4670,-6697,1572,-1,0,-1
-151.33,34.23,-76.85,4672,-6684,1576,-1,-1,0
-151.33,34.23,-76.85,4675,-6679,1573,-1,-1,0
-151.31,34.23,-76.86,4682,-6680,1574,-1,-1,0
-151.31,34.23,-76.87,4683,-6680,1571,-1,-1,0
-151.31,34.23,-76.87,4685,-6685,1569,-1,-1,0
-151.31,34.23,-76.88,4682,-6685,1573,-1,-1,0
-151.30,34.24,-76.89,4674,-6691,1571,-1,-1,0
-151.30,34.23,-76.91,4680,-6696,1574,-1,-1,-1
-151.30,34.23,-76.91,4686,-6695,1567,-1,0,0
-151.29,34.24,-76.90,4689,-6698,1577,-1,-1,-1
-151.29,34.24,-76.90,4681,-6694,1573,-1,-1,0
-151.29,34.23,-76.92,4670,-6686,1570,-1,-1,0
-151.30,34.23,-76.92,4670,-6685,1566,-1,-1,0
-151.29,34.23,-76.92,4668,-6688,1568,-1,-1,0
-151.29,34.23,-76.93,4673,-6686,1571,-1,-1,0
-151.29,34.23,-76.93,4672,-6687,1566,-1,-1,0
-151.29,34.22,-76.94,4672,-6685,1564,-1,-1,0
-151.28,34.23,-76.94,4676,-6688,1573,-1,-1,0
-151.27,34.23,-76.96,4681,-6684,1569,-1,-1,0
-151.27,34.23,-76.97,4675,-6681,1568,-1,-1,0
-151.27,34.23,-76.98,4678,-6687,1560,-1,-1,0
-151.27,34.23,-76.99,4678,-6684,1572,-1,-1,0
-151.27,34.23,-77.00,4673,-6691,1566,-1,-1,0
-151.26,34.22,-77.00,4679,-6696,1573,-1,-1,0
-151.26,34.22,-77.01,4679,-6694,1563,-1,-1,-1
-151.25,34.23,-77.02,4679,-6690,1550,-1,-1,0
-151.26,34.23,-77.02,4675,-6686,1562,-1,-1,0
-151.26,34.23,-77.02,4676,-6688,1559,-1,0,0
-151.26,34.23,-77.02,4675,-6692,1561,-1,-1,0
-151.25,34.23,-77.03,4674,-6690,1555,-1,-1,0
-151.25,34.22,-77.04,4670,-6685,1555,-1,-1,0
-151.25,34.22,-77.05,4672,-6684,1551,-1,-1,0
-151.24,34.23,-77.05,4669,-6690,1556,-1,-1,0
-151.24,34.23,-77.07,4670,-6691,1557,-1,-1,0
-151.24,34.23,-77.07,4672,-6695,1558,-1,-1,0
-151.24,34.22,-77.08,4673,-6690,1561,-1,-1,0
-151.23,34.22,-77.08,4674,-6693,1551,-1,-1,0
-151.23,34.22,-77.08,4674,-6698,1546,-1,-1,0
-151.24,34.22,-77.09,4678,-6692,1552,-1,-1,-1
-151.23,34.23,-77.09,4676,-6689,1550,-1,-1,0
-151.22,34.23,-77.10,4679,-6687,1550,-1,-1,0
-151.22,34.23,-77.10,4680,-6689,1548,-1,-1,0
-151.22,34.23,-77.11,4680,-6690,1545,-1,-1,0
-151.22,34.22,-77.11,4678,-6691,1546,-1,-1,0
-151.22,34.22,-77.11,4673,-6688,1540,-1,-1,0
-151.22,34.22,-77.11,4670,-6699,1541,-1,0,0
-151.22,34.23,-77.11,4670,-6695,1542,-1,-1,-1
-151.22,34.23,-77.12,4664,-6690,1542,-1,-1,0
-151.22,34.23,-77.12,4669,-6689,1543,-1,-1,-1
-151.22,34.23,-77.11,4677,-6689,1534,0,0,0
-151.22,34.23,-77.11,4673,-6690,1540,-1,-1,0
-151.21,34.23,-77.12,4674,-6692,1542,-1,-1,0
-151.21,34.23,-77.12,4667,-6693,1541,0,0,-1
-151.22,34.23,-77.11,4670,-6686,1539,0,0,-1
-151.22,34.23,-77.11,4674,-6685,1537,0,-1,0
-151.22,34.23,-77.11,4677,-6695,1538,0,0,0
-151.22,34.22,-77.11,4673,-6689,1549,0,-1,0
-151.23,34.23,-77.10,4670,-6688,1539,0,0,0
-151.23,34.22,-77.10,4673,-6698,1541,0,0,0
-151.23,34.23,-77.09,4668,-6694,1538,0,0,-1
-151.23,34.22,-77.08,4672,-6694,1544,0,0,0
-151.24,34.22,-77.08,4673,-6692,1543,0,0,-1
-151.24,34.22,-77.08,4672,-6686,1544,0,0,-1
-151.24,34.22,-77.08,4673,-6688,1538,0,0,-1
-151.24,34.23,-77.07,4681,-6687,1540,0,0,0
-151.24,34.23,-77.07,4678,-6692,1545,0,0,0
-151.24,34.23,-77.07,4680,-6692,1537,0,-1,0
-151.24,34.23,-77.07,4677,-6695,1544,-1,-1,0
-151.24,34.23,-77.07,4670,-6698,1538,-1,0,0
-151.24,34.23,-77.07,4677,-6693,1544,0,0,0
-151.24,34.23,-77.07,4678,-6697,1546,0,0,0
-151.25,34.22,-77.06,4674,-6693,1548,0,-1,0
-151.25,34.22,-77.05,4680,-6692,1547,0,0,-1
-151.25,34.22,-77.05,4682,-6699,1559,0,0,0
-151.25,34.22,-77.04,4677,-6699,1554,0,0,0
-151.26,34.22,-77.03,4682,-6693,1575,0,0,-1
-151.26,34.22,-77.03,4677,-6695,1574,-1,-1,0
-151.25,34.22,-77.03,4670,-6687,1555,0,0,-1
-151.26,34.23,-77.01,4679,-6688,1557,0,0,-1
-151.26,34.23,-77.01,4672,-6686,1551,0,0,-1
-151.26,34.23,-77.01,4673,-6690,1548,0,0,0
-151.26,34.23,-77.00,4684,-6687,1554,0,0,-1
-151.26,34.23,-76.99,4683,-6689,1554,0,0,-1
-151.26,34.23,-76.99,4678,-6690,1561,0,0,0
-151.26,34.23,-76.99,4681,-6693,1558,0,0,0
-151.26,34.23,-76.98,4684,-6696,1563,0,-1,0
-151.27,34.23,-76.98,4674,-6697,1559,-1,0,0
-151.27,34.23,-76.97,4666,-6695,1557,0,0,0
-151.28,34.22,-76.97,4664,-6691,1564,0,0,0
-151.27,34.23,-76.96,4664,-6683,1566,0,0,-1
-151.27,34.23,-76.96,4671,-6684,1553,-1,0,0
-151.27,34.23,-76.96,4673,-6682,1554,0,0,0
-151.28,34.22,-76.96,4675,-6680,1559,0,0,-1
-151.28,34.23,-76.95,4675,-6681,1567,0,0,0
-151.28,34.23,-76.95,4669,-6685,1568,-1,-1,0
-151.28,34.23,-76.95,4676,-6692,1569,-1,0,0
-151.28,34.23,-76.95,4680,-6695,1571,0,-1,0
-151.28,34.23,-76.94,4678,-6695,1565,0,-1,0
-151.28,34.23,-76.94,4679,-6698,1562,0,0,0
-151.29,34.22,-76.93,4679,-6689,1565,0,0,0
-151.29,34.23,-76.93,4676,-6691,1571,0,-1,0
-151.29,34.22,-76.92,4669,-6691,1566,0,-1,0
-151.30,34.23,-76.92,4672,-6691,1568,0,0,-1
-151.30,34.23,-76.92,4671,-6696,1572,0,0,-1
-151.30,34.22,-76.91,4675,-6692,1572,-1,0,-1
-151.30,34.23,-76.90,4676,-6689,1566,-1,-1,0
-151.30,34.22,-76.90,4674,-6691,1559,0,0,0
-151.31,34.23,-76.89,4677,-6689,1573,0,-1,-1
-151.31,34.23,-76.88,4679,-6681,1576,-1,-1,-1
-151.31,34.23,-76.88,4677,-6685,1582,-1,0,0
-151.30,34.23,-76.88,4671,-6688,1563,0,0,-1
-151.30,34.23,-76.88,4666,-6689,1561,0,0,-1
-151.30,34.23,-76.87,4673,-6683,1557,0,-1,-1
-151.30,34.23,-76.87,4678,-6685,1561,0,-1,0
-151.30,34.23,-76.87,4682,-6691,1564,0,-1,0
-151.31,34.23,-76.86,4676,-6690,1560,0,0,0
-151.31,34.23,-76.86,4680,-6691,1567,0,0,-1
-151.31,34.24,-76.85,4678,-6696,1560,0,0,-1
-151.32,34.23,-76.85,4670,-6690,1568,0,0,-1
-151.32,34.23,-76.84,4676,-6694,1573,0,-1,-1
-151.32,34.23,-76.84,4678,-6687,1569,0,0,-1
-151.32,34.24,-76.83,4677,-6689,1582,0,0,0
-151.33,34.23,-76.83,4681,-6683,1578,0,0,0
-151.32,34.24,-76.82,4679,-6680,1581,0,0,-1
-151.32,34.24,-76.81,4677,-6684,1588,0,0,-1
-151.33,34.24,-76.80,4676,-6685,1587,0,0,-1
-151.33,34.24,-76.80,4676,-6683,1592,0,0,-1
-151.33,34.24,-76.78,4676,-6684,1582,0,0,-1
-151.33,34.24,-76.78,4677,-6689,1578,0,0,-1
-151.33,34.25,-76.77,4680,-6680,1587,0,0,-1
-151.34,34.25,-76.76,4683,-6680,1590,0,-1,0
-151.34,34.25,-76.75,4679,-6676,1588,0,-1,0
-151.34,34.25,-76.75,4679,-6679,1593,0,-1,-1
-151.34,34.24,-76.75,4673,-6680,1587,0,0,0
-151.35,34.25,-76.74,4672,-6677,1589,0,0,0
-151.35,34.24,-76.73,4674,-6687,1586,0,0,-1
-151.35,34.24,-76.72,4678,-6687,1588,0,0,-1
-151.36,34.24,-76.72,4676,-6687,1591,0,-1,0
-151.36,34.25,-76.71,4682,-6685,1584,0,0,-1
-151.36,34.25,-76.70,4683,-6679,1586,0,0,-1
-151.36,34.25,-76.69,4685,-6671,1589,0,0,-1
-151.36,34.25,-76.69,4686,-6670,1592,0,-1,0
-151.37,34.25,-76.68,4685,-6673,1591,0,-1,0
-151.37,34.25,-76.68,4678,-6675,1600,0,-1,0
-151.37,34.25,-76.66,4676,-6672,1598,0,0,-1
-151.37,34.25,-76.66,4676,-6671,1593,0,0,-1
-151.38,34.25,-76.65,4681,-6677,1597,0,0,0
-151.38,34.25,-76.64,4675,-6688,1593,0,-1,-1
-151.38,34.25,-76.64,4678,-6687,1596,0,-1,0
-151.39,34.25,-76.63,4672,-6683,1597,0,0,0
-151.39,34.24,-76.63,4669,-6676,1594,-1,0,0
-151.39,34.24,-76.63,4675,-6677,1598,-1,-1,0
-151.39,34.25,-76.63,4679,-6682,1608,-1,0,0
-151.39,34.25,-76.63,4671,-6680,1609,-1,-1,0
-151.39,34.25,-76.64,4678,-6678,1607,-1,-1,0
-151.38,34.24,-76.65,4681,-6676,1607,-1,-1,0
-151.38,34.24,-76.65,4678,-6678,1604,-1,-1,0
-151.38,34.25,-76.66,4673,-6681,1597,-1,-1,0
-151.37,34.25,-76.67,4677,-6681,1592,-1,-1,0
-151.37,34.24,-76.67,4674,-6677,1594,-1,-1,0
-151.37,34.24,-76.69,4675,-6677,1590,-1,-1,0
-151.37,34.24,-76.69,4672,-6676,1594,-1,-1,0
-151.37,34.24,-76.69,4667,-6678,1588,-1,0,0
-151.37,34.24,-76.70,4662,-6680,1590,-1,-1,-1
-151.36,34.24,-76.70,4667,-6683,1600,-1,-1,0
-151.36,34.24,-76.71,4670,-6685,1594,-1,0,0
-151.36,34.24,-76.71,4671,-6682,1588,-1,0,0
-151.35,34.24,-76.72,4674,-6678,1588,-1,-1,0
-151.35,34.24,-76.73,4682,-6678,1585,-1,-1,0
-151.35,34.24,-76.74,4680,-6676,1583,-1,-1,0
-151.34,34.24,-76.75,4683,-6681,1584,-1,-1,0
-151.34,34.24,-76.75,4678,-6683,1595,-1,-1,0
-151.33,34.24,-76.77,4681,-6678,1585,-1,-1,0
-151.33,34.24,-76.78,4690,-6683,1586,-1,-1,0
-151.32,34.24,-76.79,4685,-6683,1582,-1,-1,0
-151.31,34.24,-76.81,4676,-6679,1578,-1,-1,0
-151.31,34.24,-76.82,4682,-6682,1581,-1,-1,0
-151.30,34.24,-76.83,4679,-6683,1587,-1,-1,0
-151.30,34.24,-76.85,4670,-6685,1581,-1,-1,0
-151.29,34.24,-76.86,4676,-6681,1573,-1,-1,0
-151.29,34.24,-76.87,4675,-6677,1575,-1,-1,0
-151.27,34.24,-76.90,4675,-6680,1576,-1,-1,0
-151.27,34.24,-76.92,4666,-6683,1571,-1,-1,0
-151.27,34.24,-76.93,4666,-6684,1575,-1,-1,0
-151.26,34.23,-76.96,4667,-6684,1564,-1,-1,0
-151.25,34.23,-76.97,4676,-6690,1565,-1,-1,0
-151.25,34.23,-76.98,4674,-6694,1559,-1,0,0
-151.25,34.23,-76.98,4668,-6693,1564,-1,-1,0
-151.24,34.23,-77.00,4673,-6693,1554,-1,-1,0
-151.24,34.23,-77.01,4679,-6692,1557,-1,-1,0
-151.23,34.23,-77.02,4676,-6697,1558,-1,0,0
-151.23,34.23,-77.03,4678,-6686,1554,-1,-1,0
-151.22,34.24,-77.04,4678,-6697,1546,-1,-1,0
-151.22,34.24,-77.05,4682,-6695,1540,-1,-1,0
-151.21,34.23,-77.06,4682,-6697,1533,-1,-1,0
-151.21,34.23,-77.06,4681,-6701,1541,-1,0,0
-151.21,34.23,-77.06,4680,-6693,1546,-1,0,-1
-151.21,34.23,-77.06,4687,-6692,1549,-1,-1,0
-151.21,34.23,-77.06,4678,-6693,1554,-1,-1,0
-151.21,34.23,-77.07,4682,-6694,1550,-1,-1,0
-151.21,34.24,-77.07,4676,-6692,1559,0,0,-1
-151.21,34.23,-77.06,4677,-6688,1560,-1,-1,0
-151.21,34.23,-77.06,4679,-6686,1554,0,0,0
-151.21,34.23,-77.06,4676,-6688,1552,-1,-1,0
-151.21,34.23,-77.06,4675,-6695,1551,-1,-1,0
-151.21,34.23,-77.06,4676,-6692,1551,-1,-1,0
-151.21,34.24,-77.07,4674,-6688,1551,-1,-1,-1
-151.21,34.24,-77.07,4677,-6691,1545,-1,-1,0
-151.21,34.23,-77.08,4677,-6692,1538,-1,0,0
-151.21,34.23,-77.08,4678,-6695,1546,-1,-1,0
-151.21,34.23,-77.08,4669,-6696,1553,-1,-1,0
-151.21,34.23,-77.09,4671,-6695,1555,-1,-1,0
-151.21,34.23,-77.09,4670,-6695,1550,-1,-1,0
-151.20,34.23,-77.10,4672,-6691,1548,-1,-1,0
-151.19,34.24,-77.11,4677,-6693,1544,-1,-1,0
-151.20,34.23,-77.11,4678,-6693,1546,-1,-1,0
-151.20,34.23,-77.11,4677,-6693,1553,-1,-1,0
-151.19,34.23,-77.12,4673,-6695,1543,-1,-1,0
-151.19,34.23,-77.13,4672,-6691,1549,-1,-1,0
-151.19,34.23,-77.13,4676,-6691,1540,-1,-1,0
-151.19,34.23,-77.14,4679,-6693,1539,-1,-1,0
-151.18,34.23,-77.14,4683,-6692,1547,-1,-1,0
-151.18,34.23,-77.15,4675,-6691,1548,-1,-1,0
-151.18,34.23,-77.15,4676,-6688,1538,-1,-1,0
-151.17,34.23,-77.16,4680,-6691,1532,-1,-1,0
-151.18,34.23,-77.15,4681,-6692,1543,-1,-1,-1
-151.18,34.23,-77.15,4678,-6688,1536,-1,-1,-1
-151.17,34.23,-77.16,4677,-6690,1538,-1,-1,0
-151.17,34.24,-77.16,4678,-6689,1535,-1,-1,0
-151.17,34.24,-77.16,4674,-6689,1537,-1,-1,0
-151.17,34.23,-77.16,4672,-6698,1544,0,-1,0
-151.18,34.24,-77.15,4668,-6697,1538,-1,-1,0
-151.18,34.24,-77.15,4672,-6702,1536,0,0,-1
-151.17,34.24,-77.15,4676,-6702,1539,0,0,-1
-151.18,34.23,-77.15,4674,-6699,1529,0,0,-1
-151.17,34.24,-77.15,4677,-6694,1535,-1,-1,-1
-151.17,34.24,-77.15,4676,-6691,1536,0,0,0
-151.17,34.24,-77.14,4675,-6696,1547,0,-1,0
-151.18,34.24,-77.14,4674,-6695,1541,0,0,0
-151.19,34.23,-77.14,4672,-6696,1536,0,0,0
-151.18,34.24,-77.13,4681,-6690,1546,0,0,-1
-151.19,34.24,-77.12,4679,-6687,1545,0,-1,0
-151.18,34.24,-77.12,4676,-6688,1540,0,0,-1
-151.19,34.24,-77.12,4677,-6690,1541,0,0,0
-151.19,34.24,-77.11,4672,-6690,1542,0,0,0
-151.19,34.24,-77.11,4672,-6688,1536,0,0,0
-151.20,34.23,-77.10,4670,-6693,1545,0,0,0
-151.20,34.23,-77.09,4672,-6693,1550,0,0,0
-151.20,34.24,-77.09,4672,-6700,1555,0,0,-1
-151.21,34.23,-77.08,4673,-6698,1556,0,0,-1
-151.21,34.23,-77.07,4678,-6700,1551,0,0,-1
-151.21,34.23,-77.07,4682,-6696,1559,0,0,0
-151.21,34.23,-77.07,4680,-6700,1542,0,0,0
-151.22,34.23,-77.06,4675,-6700,1550,0,-1,0
-151.22,34.23,-77.06,4672,-6691,1561,-1,-1,0
-151.22,34.23,-77.06,4665,-6693,1552,-1,0,-1
-151.22,34.23,-77.05,4662,-6696,1550,0,0,-1
-151.23,34.23,-77.03,4670,-6693,1549,0,0,-1
-151.22,34.23,-77.04,4676,-6688,1560,0,-1,0
-151.23,34.23,-77.02,4674,-6686,1560,0,-1,-1
-151.24,34.23,-77.02,4668,-6685,1554,0,0,0
-151.24,34.23,-77.01,4671,-6681,1551,0,0,0
-151.24,34.23,-77.00,4669,-6683,1551,0,0,-1
-151.24,34.23,-77.00,4671,-6689,1554,0,0,-1
-151.23,34.24,-77.00,4676,-6690,1557,0,0,-1
-151.23,34.24,-76.99,4685,-6687,1563,0,0,-1
-151.23,34.24,-76.99,4677,-6687,1562,0,-1,0
-151.24,34.24,-76.98,4672,-6692,1568,0,0,0
-151.25,34.23,-76.98,4672,-6696,1563,0,0,0
-151.25,34.23,-76.98,4674,-6697,1555,0,0,0
-151.25,34.23,-76.96,4672,-6694,1566,0,0,-1
-151.25,34.23,-76.96,4665,-6690,1575,0,0,0
-151.25,34.23,-76.95,4668,-6689,1580,-1,-1,0
-151.26,34.23,-76.95,4669,-6693,1575,-1,-1,0
-151.26,34.23,-76.95,4665,-6692,1569,-1,-1,0
-151.26,34.23,-76.95,4672,-6701,1574,0,-1,0
-151.27,34.23,-76.94,4671,-6696,1580,0,0,0
-151.27,34.23,-76.94,4668,-6694,1568,0,0,0
-151.27,34.23,-76.94,4672,-6689,1567,-1,-1,-1
-151.27,34.23,-76.94,4671,-6692,1564,-1,0,-1
-151.27,34.23,-76.93,4674,-6693,1568,-1,-1,-1
-151.27,34.23,-76.93,4679,-6690,1565,0,0,0
-151.26,34.23,-76.93,4682,-6686,1563,0,0,0
-151.27,34.23,-76.93,4680,-6687,1568,0,0,0
-151.28,34.22,-76.91,4678,-6694,1576,0,-1,0
-151.28,34.22,-76.91,4677,-6690,1574,-1,-1,0
-151.28,34.22,-76.92,4673,-6681,1565,-1,0,-1
-151.27,34.23,-76.91,4672,-6684,1565,0,0,-1
-151.27,34.23,-76.91,4678,-6685,1570,0,-1,-1
-151.28,34.23,-76.91,4684,-6685,1566,0,-1,-1
-151.28,34.23,-76.90,4676,-6687,1569,0,-1,0
-151.28,34.23,-76.90,4673,-6683,1562,0,0,0
-151.28,34.23,-76.89,4676,-6684,1570,-1,0,0
-151.28,34.23,-76.89,4675,-6690,1571,-1,0,0
-151.28,34.23,-76.89,4682,-6681,1565,0,0,-1
-151.27,34.24,-76.88,4682,-6679,1570,-1,-1,-1
-151.27,34.24,-76.88,4683,-6685,1570,0,0,-1
-151.28,34.24,-76.87,4675,-6685,1572,0,-1,0
-151.28,34.24,-76.87,4675,-6680,1571,0,0,0
-151.28,34.24,-76.87,4680,-6680,1573,0,-1,0
-151.28,34.24,-76.87,4684,-6683,1578,0,0,-1
-151.28,34.24,-76.86,4686,-6688,1580,0,0,-1
-151.28,34.24,-76.86,4685,-6688,1575,0,-1,-1
-151.28,34.24,-76.86,4682,-6692,1588,0,-1,0
-151.28,34.24,-76.85,4681,-6690,1582,0,0,0
-151.29,34.24,-76.84,4680,-6687,1581,0,0,-1
-151.29,34.24,-76.83,4674,-6688,1586,0,0,0
-151.29,34.24,-76.83,4671,-6683,1586,0,0,0
-151.29,34.24,-76.82,4676,-6681,1573,0,-1,-1
-151.29,34.24,-76.82,4674,-6682,1582,0,0,-1
-151.30,34.25,-76.81,4683,-6684,1574,0,-1,-1
-151.30,34.25,-76.80,4685,-6684,1571,0,0,0
-151.30,34.25,-76.80,4680,-6686,1570,0,0,0
-151.30,34.25,-76.79,4680,-6689,1576,0,0,-1
-151.31,34.25,-76.77,4682,-6679,1592,0,-1,-1
-151.31,34.25,-76.77,4677,-6675,1585,-1,0,-1
-151.31,34.25,-76.77,4672,-6685,1579,0,0,-1
-151.31,34.25,-76.76,4667,-6678,1578,0,0,-1
-151.32,34.25,-76.75,4673,-6678,1571,0,0,-1
-151.32,34.25,-76.74,4681,-6677,1571,0,0,0
-151.32,34.25,-76.73,4680,-6682,1580,0,-1,0
-151.33,34.25,-76.73,4679,-6686,1582,0,-1,0
-151.33,34.25,-76.73,4677,-6680,1585,-1,-1,-1
-151.33,34.25,-76.73,4673,-6678,1582,0,0,0
-151.32,34.26,-76.72,4676,-6677,1583,0,0,-1
-151.33,34.25,-76.72,4681,-6683,1584,0,0,0
-151.33,34.25,-76.71,4680,-6685,1579,0,0,-1
-151.33,34.25,-76.70,4673,-6683,1587,0,0,-1
-151.34,34.26,-76.69,4682,-6680,1581,0,0,0
-151.34,34.25,-76.68,4683,-6680,1582,0,0,0
-151.34,34.25,-76.68,4682,-6676,1593,0,0,0
-151.34,34.25,-76.67,4680,-6677,1592,0,-1,0
-151.35,34.25,-76.67,4680,-6677,1598,0,-1,0
-151.34,34.25,-76.67,4687,-6674,1593,-1,-1,0
-151.35,34.25,-76.67,4677,-6674,1603,-1,-1,0
-151.35,34.25,-76.67,4676,-6674,1601,-1,-1,0
-151.35,34.25,-76.68,4680,-6670,1593,-1,-1,0
-151.34,34.25,-76.69,4687,-6682,1589,-1,-1,0
-151.34,34.25,-76.70,4684,-6678,1587,-1,-1,0
-151.34,34.25,-76.71,4681,-6679,1593,-1,-1,0
-151.33,34.25,-76.71,4676,-6677,1590,-1,-1,0
-151.33,34.25,-76.72,4678,-6679,1592,-1,-1,0
-151.33,34.25,-76.73,4676,-6682,1586,-1,-1,0
-151.32,34.25,-76.74,4684,-6679,1580,-1,-1,0
-151.32,34.25,-76.75,4683,-6675,1578,-1,-1,0
-151.32,34.25,-76.75,4677,-6677,1581,-1,0,0
-151.31,34.25,-76.76,4680,-6680,1576,-1,0,-1
-151.31,34.25,-76.76,4681,-6678,1580,-1,-1,0
-151.31,34.25,-76.76,4684,-6680,1587,-1,-1,0
-151.31,34.25,-76.76,4687,-6678,1581,-1,-1,0
