Yaw,Pitch,Roll,AX,AY,AZ,GX,GY,GZ
145.28,178.73,-134.23,174,-5984,-5871,-1,-1,0
145.28,178.74,-134.24,185,-6011,-5899,0,-1,0
145.28,178.76,-134.23,177,-6032,-5911,0,-1,0
145.28,178.76,-134.21,198,-6062,-5915,0,-1,0
145.29,178.78,-134.20,172,-6042,-5895,0,-1,0
145.29,178.80,-134.18,188,-6070,-5894,0,-1,0
145.29,178.82,-134.16,173,-6036,-5875,0,-1,0
145.28,178.85,-134.14,189,-6058,-5881,0,-2,0
145.28,178.88,-134.13,158,-6023,-5869,0,-1,0
145.28,178.91,-134.10,172,-6055,-5883,0,-2,0
145.27,178.95,-134.09,147,-6034,-5880,0,-1,0
145.28,178.97,-134.05,151,-6060,-5880,0,-1,0
145.29,178.97,-134.04,138,-6058,-5880,0,0,-1
145.29,178.97,-134.03,148,-6067,-5874,0,0,-1
145.30,178.96,-134.02,150,-6049,-5888,0,0,-1
145.31,178.95,-134.00,152,-6036,-5866,0,0,-1
145.34,178.94,-133.97,164,-6046,-5865,1,0,-1
145.36,178.94,-133.93,154,-6044,-5844,1,0,-1
145.37,178.94,-133.91,168,-6065,-5837,0,-1,-1
145.37,178.94,-133.91,166,-6057,-5846,-1,-1,-1
145.38,178.94,-133.91,155,-6069,-5871,0,-1,-1
145.40,178.95,-133.87,163,-6099,-5880,1,-1,0
145.43,178.96,-133.82,161,-6108,-5870,2,-1,0
145.45,178.97,-133.79,155,-6084,-5823,0,-1,0
145.46,178.97,-133.77,160,-6068,-5788,-1,-1,0
145.45,178.98,-133.79,140,-6046,-5776,-2,-1,0
145.44,178.98,-133.82,155,-6053,-5804,-2,-1,0
145.42,178.99,-133.85,140,-6041,-5839,-1,-1,-1
145.41,178.99,-133.87,154,-6073,-5836,-2,-1,0
145.39,179.00,-133.90,148,-6072,-5861,-1,-1,0
145.38,179.01,-133.91,151,-6086,-5869,-1,-1,0
145.37,179.02,-133.92,145,-6084,-5886,0,-1,0
145.36,179.03,-133.92,136,-6075,-5871,-1,0,0
145.35,179.03,-133.93,155,-6087,-5885,0,0,0
145.35,179.03,-133.93,140,-6058,-5883,0,0,0
145.36,179.03,-133.91,160,-6055,-5848,0,-1,0
145.34,179.04,-133.92,145,-6023,-5834,0,-1,0
145.34,179.05,-133.91,148,-6053,-5826,-1,-1,0
145.33,179.07,-133.91,150,-6051,-5850,0,-1,0
145.31,179.10,-133.90,155,-6056,-5850,0,-2,1
145.30,179.14,-133.88,138,-6069,-5869,0,-1,0
145.31,179.16,-133.86,127,-6101,-5872,0,-1,0
145.31,179.17,-133.84,120,-6112,-5868,0,-1,0
145.32,179.17,-133.82,101,-6099,-5858,0,0,-1
145.32,179.17,-133.81,122,-6087,-5846,0,0,-1
145.33,179.16,-133.80,113,-6058,-5841,0,0,-1
145.34,179.16,-133.79,134,-6068,-5822,0,-1,0
145.34,179.15,-133.80,120,-6060,-5835,0,0,-1
145.34,179.15,-133.80,121,-6081,-5845,-1,0,-1
145.34,179.15,-133.80,129,-6080,-5853,0,0,-1
145.34,179.15,-133.80,133,-6081,-5847,-1,-1,0
145.33,179.15,-133.80,128,-6072,-5837,-1,-1,0
145.32,179.16,-133.81,118,-6090,-5859,-1,0,0
145.33,179.15,-133.81,121,-6109,-5865,0,0,-1
145.33,179.15,-133.80,115,-6109,-5874,0,0,-1
145.34,179.14,-133.78,126,-6092,-5844,0,-1,-1
145.34,179.15,-133.79,130,-6048,-5816,-1,-1,-1
145.34,179.15,-133.80,145,-6046,-5789,-1,-1,0
145.32,179.16,-133.83,128,-6042,-5798,-1,-1,0
145.30,179.17,-133.85,135,-6067,-5809,-2,-1,0
145.28,179.18,-133.89,126,-6075,-5834,-2,-1,0
145.26,179.19,-133.93,120,-6096,-5866,-2,-1,0
145.25,179.20,-133.95,111,-6093,-5880,-1,-1,0
145.23,179.20,-133.97,98,-6084,-5895,-1,0,-1
145.23,179.20,-133.97,104,-6085,-5879,-1,0,-1
145.23,179.18,-133.97,103,-6058,-5854,0,0,-1
145.23,179.17,-133.97,122,-6047,-5831,-1,0,-1
145.23,179.16,-133.98,117,-6037,-5829,-1,0,-1
145.22,179.15,-134.00,127,-6052,-5854,-1,0,0
145.21,179.16,-134.00,121,-6066,-5907,0,0,0
145.22,179.16,-133.98,115,-6096,-5913,0,0,0
145.23,179.16,-133.96,118,-6065,-5857,0,0,-1
145.24,179.16,-133.95,125,-6074,-5835,-1,0,0
145.24,179.15,-133.95,127,-6067,-5864,0,0,-1
145.24,179.15,-133.96,130,-6070,-5870,-1,-1,0
145.24,179.16,-133.96,124,-6054,-5861,0,-1,-1
145.24,179.16,-133.95,123,-6046,-5831,-1,-1,0
145.24,179.17,-133.96,126,-6038,-5827,0,-1,0
145.23,179.17,-133.96,125,-6054,-5822,-1,-1,0
145.23,179.18,-133.99,118,-6059,-5854,-1,-1,-1
145.21,179.19,-134.00,115,-6069,-5868,-1,-1,0
145.21,179.20,-134.01,122,-6056,-5862,0,-1,0
145.21,179.21,-134.02,125,-6043,-5827,-1,-1,0
145.19,179.23,-134.04,106,-6051,-5862,-1,-1,0
145.18,179.24,-134.06,103,-6078,-5905,-1,-1,0
145.19,179.23,-134.05,122,-6067,-5911,0,-1,-1
145.19,179.24,-134.03,110,-6046,-5864,0,-1,0
145.20,179.24,-134.02,119,-6054,-5861,0,-1,0
145.20,179.24,-134.02,111,-6062,-5861,-1,0,0
145.19,179.25,-134.02,123,-6081,-5869,-1,-1,0
145.19,179.25,-134.03,112,-6068,-5881,-1,-1,0
145.19,179.26,-134.04,116,-6057,-5878,0,-1,0
145.20,179.26,-134.03,116,-6045,-5867,0,-1,0
145.20,179.27,-134.02,109,-6036,-5853,0,-1,0
145.20,179.28,-134.02,117,-6049,-5831,-1,-1,0
145.20,179.28,-134.03,114,-6060,-5841,-1,-1,0
145.18,179.29,-134.05,104,-6067,-5857,-1,-1,0
145.17,179.30,-134.07,105,-6076,-5891,-1,-1,0
145.16,179.30,-134.08,100,-6055,-5885,-1,-1,0
145.17,179.30,-134.07,109,-6047,-5860,0,0,-1
145.17,179.30,-134.07,105,-6033,-5848,-1,0,-1
145.17,179.30,-134.07,110,-6056,-5852,-1,-1,0
145.16,179.30,-134.08,96,-6057,-5858,-1,-1,-1
145.16,179.30,-134.08,115,-6078,-5874,-1,-1,0
145.16,179.31,-134.09,103,-6051,-5890,-1,-1,-1
145.16,179.31,-134.09,115,-6055,-5875,-1,-1,0
145.15,179.31,-134.11,109,-6050,-5880,-1,0,-1
145.15,179.32,-134.12,108,-6063,-5885,-1,-1,0
145.13,179.32,-134.14,104,-6057,-5900,-1,-1,-1
145.13,179.32,-134.14,101,-6049,-5878,-1,-1,0
145.13,179.32,-134.14,102,-6031,-5870,0,-1,0
145.14,179.33,-134.13,101,-6035,-5864,-1,-1,0
145.14,179.33,-134.14,106,-6052,-5876,-1,-1,0
145.12,179.33,-134.15,92,-6051,-5883,-1,0,-1
145.12,179.33,-134.16,100,-6066,-5897,-1,0,-1
145.12,179.33,-134.16,91,-6041,-5879,-1,0,-1
145.12,179.32,-134.15,107,-6051,-5871,0,0,-1
145.13,179.31,-134.16,106,-6027,-5870,0,0,-1
145.13,179.30,-134.15,116,-6048,-5870,0,-1,0
145.13,179.31,-134.15,106,-6046,-5884,0,-1,-1
145.13,179.31,-134.14,104,-6069,-5881,-1,-1,0
145.13,179.31,-134.15,102,-6052,-5868,-1,-1,-1
145.13,179.31,-134.17,101,-6052,-5865,-1,-1,0
145.12,179.31,-134.18,105,-6050,-5870,-1,0,-1
145.11,179.31,-134.21,92,-6037,-5883,-1,0,0
145.09,179.32,-134.23,101,-6048,-5889,-1,-1,0
145.09,179.31,-134.25,90,-6019,-5884,-1,0,-1
145.08,179.32,-134.26,99,-6038,-5886,-1,-1,-1
145.07,179.32,-134.29,96,-6020,-5898,-1,0,-1
145.06,179.32,-134.30,115,-6030,-5899,-1,-1,0
145.05,179.32,-134.32,102,-6021,-5920,-1,-1,-1
145.04,179.32,-134.33,101,-6023,-5908,-1,-1,0
145.04,179.32,-134.34,99,-6024,-5907,-1,0,0
145.04,179.32,-134.34,95,-6023,-5907,-1,0,-1
145.04,179.31,-134.33,107,-6032,-5914,0,0,-1
145.04,179.31,-134.33,97,-6017,-5904,0,0,-1
145.05,179.30,-134.33,108,-6017,-5890,-1,-1,0
145.05,179.31,-134.34,103,-6009,-5886,-1,0,-1
145.05,179.31,-134.34,109,-6023,-5890,-1,-1,0
145.04,179.31,-134.35,104,-6017,-5894,-1,-1,0
145.04,179.32,-134.35,104,-6020,-5886,-1,-1,0
145.03,179.32,-134.36,98,-6032,-5887,-1,0,-1
145.02,179.33,-134.37,97,-6038,-5897,-1,-1,0
145.01,179.33,-134.39,93,-6030,-5908,-1,0,-1
145.01,179.32,-134.40,98,-6026,-5895,-1,0,-1
145.01,179.32,-134.42,101,-6022,-5912,-1,0,-1
144.99,179.33,-134.43,97,-6016,-5909,-1,0,-1
144.99,179.32,-134.44,109,-6016,-5912,-1,0,-1
144.99,179.32,-134.45,107,-6012,-5908,-1,-1,0
144.99,179.32,-134.45,99,-6019,-5910,-1,0,0
144.98,179.32,-134.46,95,-6011,-5910,-1,0,0
144.98,179.32,-134.47,96,-6016,-5914,-1,0,0
144.97,179.32,-134.48,95,-6005,-5902,-1,0,0
144.97,179.32,-134.48,100,-6004,-5898,-1,0,-1
144.97,179.32,-134.48,101,-6004,-5892,-1,-1,0
144.96,179.33,-134.49,102,-6005,-5903,-1,-1,-1
144.96,179.33,-134.50,102,-6009,-5906,-1,-1,0
144.95,179.34,-134.51,99,-6007,-5904,-1,-1,0
144.95,179.34,-134.52,98,-6021,-5912,-1,-1,0
144.94,179.34,-134.53,89,-6011,-5915,-1,-1,0
144.94,179.34,-134.54,95,-6006,-5904,-1,0,-1
144.94,179.34,-134.54,101,-6004,-5918,-1,0,-1
144.94,179.34,-134.54,104,-6011,-5924,-1,0,-1
144.94,179.34,-134.54,108,-6010,-5925,0,0,-1
144.94,179.34,-134.54,101,-6007,-5915,0,-1,0
144.94,179.34,-134.54,98,-6003,-5914,-1,-1,-1
144.93,179.34,-134.55,96,-6002,-5915,-1,-1,0
144.93,179.34,-134.56,92,-5997,-5914,-1,0,-1
144.92,179.35,-134.57,92,-5997,-5914,-1,-1,0
144.92,179.34,-134.59,97,-5999,-5928,-1,0,-1
144.92,179.35,-134.59,102,-5992,-5930,-1,0,0
144.92,179.34,-134.60,103,-5982,-5931,0,-1,-1
144.91,179.35,-134.60,95,-5982,-5920,-1,-1,0
144.91,179.35,-134.60,94,-6000,-5936,0,-1,0
144.90,179.35,-134.61,89,-5996,-5939,-1,0,0
144.90,179.35,-134.61,90,-6011,-5929,0,-1,-1
144.90,179.36,-134.61,88,-5998,-5918,-1,0,0
144.90,179.36,-134.61,103,-6002,-5923,0,-1,0
144.89,179.37,-134.62,97,-5988,-5924,-1,-1,0
144.89,179.37,-134.62,98,-6005,-5932,0,-1,0
144.89,179.37,-134.62,85,-5999,-5932,-1,0,-1
144.89,179.37,-134.62,98,-6013,-5938,-1,-1,-1
144.89,179.37,-134.62,88,-6000,-5934,-1,0,-1
144.89,179.38,-134.63,96,-6002,-5932,-1,-1,0
144.89,179.38,-134.64,88,-5990,-5931,-1,-1,0
144.89,179.38,-134.64,91,-6012,-5936,-1,-1,0
144.88,179.39,-134.64,86,-6002,-5942,-1,-1,0
144.87,179.39,-134.65,96,-6001,-5941,-1,-1,0
144.87,179.39,-134.65,94,-5991,-5954,0,0,0
144.88,179.39,-134.64,96,-6004,-5930,0,-1,0
144.88,179.40,-134.64,96,-5998,-5935,0,-1,-1
144.88,179.40,-134.64,90,-6002,-5930,-1,-1,0
144.88,179.40,-134.64,92,-5996,-5920,0,0,-1
144.88,179.40,-134.64,94,-6003,-5926,-1,-1,0
144.88,179.40,-134.64,90,-6010,-5937,0,-1,0
144.88,179.40,-134.64,82,-5986,-5932,-1,-1,0
144.88,179.41,-134.63,94,-5988,-5935,0,-1,0
144.88,179.41,-134.63,82,-5979,-5934,0,-1,0
144.88,179.41,-134.63,92,-6000,-5932,0,-1,0
144.88,179.41,-134.62,93,-5990,-5934,0,0,-1
144.88,179.41,-134.62,97,-6000,-5937,0,-1,0
144.88,179.42,-134.61,87,-5998,-5942,0,0,-1
144.89,179.41,-134.61,84,-5993,-5935,0,0,-1
144.89,179.41,-134.61,90,-5993,-5929,0,-1,0
144.89,179.42,-134.60,91,-5994,-5931,0,-1,0
144.90,179.42,-134.60,83,-5989,-5918,0,0,0
144.90,179.41,-134.60,93,-6000,-5929,0,-1,-1
144.90,179.41,-134.59,84,-5989,-5919,0,0,-1
144.90,179.41,-134.59,92,-6000,-5918,-1,0,-1
144.90,179.41,-134.59,85,-5988,-5908,0,0,-1
144.90,179.41,-134.59,94,-6002,-5914,-1,0,0
144.90,179.40,-134.60,92,-6009,-5933,0,0,0
144.90,179.40,-134.60,89,-6014,-5920,-1,-1,0
144.89,179.40,-134.61,94,-6004,-5925,0,0,-1
144.88,179.40,-134.61,87,-5983,-5923,-1,0,-1
144.89,179.40,-134.61,94,-6005,-5931,-1,-1,0
144.88,179.40,-134.62,83,-5999,-5937,-1,0,-1
144.88,179.40,-134.61,93,-6009,-5921,0,-1,0
144.88,179.40,-134.61,87,-5990,-5927,0,0,-1
144.88,179.40,-134.61,88,-5997,-5915,-1,-1,0
144.88,179.40,-134.61,88,-5997,-5927,0,0,-1
144.88,179.40,-134.61,84,-6006,-5917,-1,0,-1
144.89,179.40,-134.61,86,-6003,-5928,0,0,-1
144.89,179.40,-134.61,87,-5987,-5926,-1,0,-1
144.88,179.39,-134.62,95,-5996,-5925,-1,0,0
144.88,179.39,-134.62,93,-5984,-5925,-1,0,-1
144.88,179.39,-134.62,103,-6001,-5927,0,0,-1
144.88,179.39,-134.63,93,-5985,-5921,-1,0,-1
144.88,179.39,-134.63,96,-5999,-5933,-1,-1,0
144.88,179.39,-134.63,93,-6000,-5965,0,0,-1
144.88,179.38,-134.63,90,-5994,-5948,0,0,-1
144.90,179.37,-134.61,91,-5990,-5922,0,0,-1
144.90,179.36,-134.61,96,-5982,-5900,-1,0,-1
144.89,179.36,-134.61,104,-6007,-5921,-1,-1,0
144.88,179.37,-134.63,89,-5995,-5937,-1,-1,0
144.88,179.37,-134.64,108,-6008,-5944,-1,-1,0
144.88,179.37,-134.64,99,-5996,-5943,-1,0,-1
144.88,179.37,-134.65,95,-6001,-5923,-1,0,0
144.87,179.37,-134.66,87,-5995,-5935,-1,0,-1
144.87,179.36,-134.67,86,-5999,-5934,-1,0,0
144.87,179.36,-134.67,97,-5997,-5926,0,0,-1
144.86,179.36,-134.68,99,-5983,-5927,-1,0,-1
144.86,179.36,-134.69,97,-5988,-5921,-1,0,0
144.85,179.36,-134.70,89,-5975,-5927,-1,0,0
144.85,179.36,-134.70,95,-5982,-5922,0,-1,0
144.85,179.37,-134.70,94,-5982,-5932,-1,0,-1
144.85,179.36,-134.70,102,-5993,-5943,-1,0,0
144.85,179.36,-134.71,92,-5986,-5936,-1,0,-1
144.85,179.35,-134.70,98,-5990,-5926,-1,0,0
144.85,179.36,-134.71,94,-5981,-5931,-1,0,-1
144.85,179.36,-134.71,98,-5984,-5930,-1,-1,0
144.84,179.36,-134.72,100,-5977,-5932,-1,-1,0
144.84,179.37,-134.73,97,-5986,-5930,-1,-1,0
144.83,179.36,-134.73,97,-5993,-5944,0,-1,0
144.83,179.36,-134.73,94,-5994,-5946,-1,0,0
144.83,179.36,-134.73,101,-5993,-5938,0,-1,0
144.83,179.37,-134.74,86,-5979,-5937,-1,0,0
144.83,179.36,-134.73,95,-5983,-5948,0,0,0
144.83,179.37,-134.73,89,-5976,-5935,0,0,0
144.84,179.37,-134.73,94,-5993,-5941,0,0,0
144.84,179.37,-134.72,92,-5993,-5950,0,0,0
144.84,179.37,-134.71,91,-5996,-5946,0,0,-1
144.84,179.37,-134.71,93,-5985,-5924,0,-1,0
144.84,179.37,-134.70,97,-5984,-5914,0,0,0
144.84,179.37,-134.70,101,-5982,-5915,-1,-1,0
144.83,179.37,-134.72,91,-5980,-5937,-1,-1,-1
144.83,179.37,-134.73,90,-5985,-5956,-1,-1,0
144.83,179.37,-134.73,84,-5979,-5950,0,0,-1
144.83,179.37,-134.73,93,-5987,-5951,-1,0,-1
144.83,179.36,-134.73,92,-5991,-5949,0,0,-1
144.84,179.36,-134.72,90,-5993,-5942,-1,0,0
144.84,179.36,-134.73,87,-5993,-5932,0,0,-1
144.84,179.36,-134.73,86,-5986,-5930,-1,0,0
144.83,179.35,-134.74,96,-5986,-5926,-1,-1,-1
144.83,179.36,-134.75,100,-5979,-5940,-1,0,-1
144.83,179.36,-134.75,98,-5999,-5948,-1,0,-1
144.82,179.36,-134.75,88,-5980,-5946,-1,0,-1
144.82,179.36,-134.76,96,-5987,-5945,-1,-1,0
144.82,179.36,-134.77,90,-5972,-5945,-1,-1,0
144.82,179.36,-134.77,97,-5983,-5932,-1,-1,0
144.81,179.36,-134.78,99,-5982,-5947,-1,0,-1
144.80,179.37,-134.79,107,-5990,-5947,-1,-1,0
144.80,179.37,-134.79,101,-5975,-5945,-1,-1,0
144.80,179.37,-134.79,110,-5984,-5946,-1,-1,0
144.80,179.37,-134.80,101,-5975,-5943,-1,0,-1
144.80,179.37,-134.80,102,-5985,-5945,-1,-1,0
144.79,179.37,-134.81,106,-5976,-5945,-1,-1,0
144.78,179.38,-134.81,98,-5987,-5956,-1,-1,0
144.78,179.38,-134.81,91,-5980,-5953,0,-1,-1
144.78,179.38,-134.82,96,-5981,-5957,-1,0,0
144.78,179.38,-134.82,94,-5976,-5965,0,0,-1
144.78,179.38,-134.82,92,-5974,-5951,-1,0,0
144.78,179.38,-134.82,99,-5984,-5946,0,-1,0
144.78,179.38,-134.83,88,-5973,-5942,-1,-1,0
144.78,179.38,-134.83,96,-5989,-5943,-1,-1,0
144.78,179.39,-134.83,88,-5972,-5937,-1,-1,0
144.78,179.39,-134.83,91,-5990,-5952,0,-1,0
144.78,179.39,-134.83,77,-5980,-5946,-1,0,-1
144.78,179.39,-134.83,95,-5993,-5943,0,-1,0
144.78,179.39,-134.83,90,-5976,-5935,-1,0,-1
144.78,179.39,-134.83,100,-5996,-5950,-1,-1,0
144.78,179.40,-134.84,81,-5975,-5956,-1,0,0
144.78,179.40,-134.83,82,-5978,-5949,0,-1,0
144.78,179.39,-134.83,87,-5963,-5940,0,0,-1
144.78,179.40,-134.82,93,-5966,-5944,-1,-1,0
144.78,179.40,-134.82,94,-5976,-5960,0,-1,0
144.78,179.40,-134.82,88,-5977,-5966,0,-1,0
144.78,179.41,-134.82,93,-5980,-5969,0,-1,0
144.78,179.41,-134.80,90,-5979,-5951,0,0,0
144.80,179.40,-134.79,88,-5981,-5945,0,0,-1
144.80,179.40,-134.79,87,-5977,-5944,0,0,-1
144.80,179.40,-134.78,87,-5970,-5940,0,-1,0
144.81,179.40,-134.76,91,-5983,-5937,0,-1,0
144.81,179.40,-134.76,87,-5985,-5946,0,-1,-1
144.81,179.40,-134.76,85,-5989,-5943,-1,-1,0
144.81,179.40,-134.76,84,-5987,-5948,0,0,-1
144.82,179.41,-134.75,76,-5979,-5931,-1,0,0
144.82,179.40,-134.75,95,-5989,-5929,0,-1,0
144.82,179.40,-134.75,82,-5970,-5925,-1,0,-1
144.82,179.40,-134.75,98,-5996,-5941,0,-1,-1
144.82,179.40,-134.75,81,-5979,-5945,0,0,-1
144.82,179.40,-134.75,87,-5991,-5949,0,-1,0
144.82,179.40,-134.75,82,-5977,-5945,0,0,-1
144.82,179.40,-134.75,89,-5991,-5949,-1,0,0
144.82,179.39,-134.75,88,-5995,-5947,0,0,-1
144.82,179.40,-134.74,88,-5985,-5932,-1,0,0
144.82,179.39,-134.75,88,-5990,-5939,0,0,-1
144.82,179.39,-134.75,88,-5973,-5927,-1,0,-1
144.82,179.39,-134.75,97,-5990,-5940,0,-1,0
144.82,179.39,-134.76,85,-5966,-5925,-1,0,-1
144.82,179.39,-134.75,94,-5988,-5945,-1,-1,0
144.81,179.39,-134.76,84,-5979,-5954,-1,0,-1
144.81,179.39,-134.76,90,-5982,-5949,-1,-1,0
144.81,179.39,-134.76,87,-5980,-5939,0,0,-1
144.81,179.39,-134.76,86,-5984,-5941,-1,0,0
144.81,179.39,-134.77,86,-5987,-5944,0,0,0
144.81,179.39,-134.78,81,-5980,-5942,-1,-1,0
144.81,179.39,-134.77,90,-5979,-5940,0,-1,0
144.81,179.39,-134.76,85,-5967,-5937,0,0,-1
144.82,179.39,-134.75,91,-5988,-5936,0,0,-1
144.82,179.38,-134.76,84,-5978,-5930,-1,0,-1
144.82,179.38,-134.76,93,-5980,-5935,-1,-1,0
144.81,179.38,-134.78,86,-5977,-5936,-1,0,-1
144.81,179.38,-134.78,91,-5978,-5930,-1,-1,0
144.81,179.38,-134.78,90,-5974,-5938,0,0,-1
144.81,179.38,-134.78,96,-5980,-5943,-1,-1,0
144.81,179.37,-134.78,98,-5986,-5950,0,0,0
144.81,179.38,-134.77,93,-5976,-5939,-1,0,0
144.82,179.37,-134.76,101,-5987,-5947,0,0,-1
144.82,179.37,-134.76,92,-5974,-5938,-1,0,-1
144.82,179.37,-134.76,95,-5985,-5946,0,0,0
144.81,179.37,-134.77,84,-5976,-5943,-1,0,-1
144.82,179.37,-134.76,97,-5988,-5942,0,-1,0
144.82,179.37,-134.76,94,-5983,-5939,0,0,-1
144.82,179.37,-134.76,98,-5988,-5942,-1,-1,0
144.82,179.37,-134.76,96,-5985,-5940,0,-1,-1
144.82,179.37,-134.76,86,-5978,-5926,-1,-1,0
144.82,179.37,-134.76,96,-5982,-5952,0,0,-1
144.82,179.37,-134.76,93,-5976,-5943,0,0,0
144.82,179.37,-134.76,98,-5990,-5948,0,-1,0
144.82,179.38,-134.76,87,-5984,-5947,0,0,0
144.82,179.37,-134.76,98,-5987,-5954,-1,0,0
144.81,179.37,-134.75,86,-5980,-5939,0,0,0
144.82,179.37,-134.75,95,-5986,-5943,0,-1,0
144.81,179.37,-134.76,85,-5990,-5946,-1,0,-1
144.81,179.37,-134.76,97,-6002,-5939,-1,0,-1
144.81,179.37,-134.76,97,-5987,-5944,0,0,0
144.81,179.37,-134.76,96,-5980,-5942,-1,0,0
144.81,179.37,-134.77,96,-5984,-5948,-1,-1,-1
144.80,179.37,-134.78,93,-5975,-5951,-1,-1,0
144.80,179.37,-134.78,92,-5982,-5955,-1,-1,0
144.80,179.37,-134.78,89,-5974,-5944,0,-1,-1
144.80,179.38,-134.78,91,-5981,-5947,-1,-1,0
144.80,179.38,-134.79,94,-5986,-5958,-1,-1,0
144.79,179.39,-134.79,86,-5984,-5961,0,-1,0
144.79,179.39,-134.79,82,-5978,-5947,0,-1,0
144.79,179.39,-134.79,89,-5972,-5939,-1,-1,0
144.79,179.39,-134.79,99,-5973,-5940,0,-1,-1
144.79,179.39,-134.79,96,-5983,-5952,-1,-1,0
144.79,179.39,-134.79,89,-5982,-5955,0,0,-1
144.79,179.39,-134.80,83,-5969,-5947,-1,0,0
144.79,179.40,-134.81,87,-5976,-5945,-1,-1,0
144.77,179.40,-134.82,85,-5977,-5959,-1,-1,0
144.77,179.41,-134.83,94,-5983,-5968,-1,-1,0
144.77,179.41,-134.83,79,-5963,-5960,-1,0,0
144.77,179.40,-134.82,90,-5970,-5958,0,0,-1
144.77,179.40,-134.82,84,-5961,-5945,0,0,0
144.78,179.41,-134.81,87,-5981,-5948,0,-1,0
144.78,179.41,-134.80,90,-5974,-5943,-1,0,-1
144.78,179.41,-134.80,96,-5986,-5945,-1,-1,0
144.78,179.41,-134.81,82,-5970,-5949,-1,-1,-1
144.77,179.41,-134.81,93,-5975,-5939,-1,-1,0
144.76,179.42,-134.82,84,-5969,-5940,-1,0,-1
144.77,179.42,-134.83,92,-5986,-5963,-1,-1,0
144.77,179.42,-134.84,82,-5976,-5954,0,0,-1
144.77,179.42,-134.83,88,-5973,-5951,-1,-1,0
144.77,179.42,-134.84,84,-5973,-5952,-1,-1,0
144.75,179.43,-134.85,73,-5986,-5986,-1,-1,0
144.75,179.43,-134.85,69,-5986,-5981,0,0,-1
144.76,179.43,-134.84,73,-5967,-5959,0,0,-1
144.77,179.42,-134.84,85,-5969,-5946,0,-1,-1
144.76,179.43,-134.83,77,-5961,-5937,-1,0,0
144.76,179.43,-134.83,93,-5992,-5957,0,-1,0
144.76,179.44,-134.83,81,-5987,-5954,-1,-1,0
144.76,179.44,-134.84,89,-5993,-5949,-1,-1,0
144.74,179.44,-134.85,82,-5958,-5930,-1,0,0
144.74,179.45,-134.85,83,-5969,-5946,-1,-1,0
144.74,179.46,-134.86,77,-5971,-5956,-1,0,-1
144.74,179.46,-134.86,84,-5985,-5969,0,-1,0
144.74,179.45,-134.85,82,-5971,-5970,0,0,-1
144.75,179.45,-134.84,81,-5975,-5955,0,-1,0
144.75,179.45,-134.84,80,-5966,-5949,0,-1,-1
144.76,179.46,-134.83,79,-5963,-5933,0,0,0
144.76,179.46,-134.83,90,-5967,-5948,0,-1,0
144.76,179.46,-134.83,81,-5968,-5952,0,-1,0
144.76,179.46,-134.81,71,-5984,-5947,0,-1,0
144.76,179.46,-134.80,80,-5986,-5944,0,0,-1
144.76,179.46,-134.80,75,-5973,-5954,0,0,-1
144.77,179.46,-134.80,80,-5980,-5955,0,-1,0
144.77,179.47,-134.80,82,-5975,-5947,0,-1,0
144.77,179.47,-134.80,83,-5971,-5927,-1,-1,0
144.76,179.48,-134.82,85,-5966,-5927,-1,-1,0
144.76,179.48,-134.83,68,-5967,-5951,-1,-1,0
144.75,179.48,-134.85,77,-5994,-5977,-1,-1,0
144.74,179.48,-134.85,64,-5966,-5968,0,0,-1
144.74,179.47,-134.84,82,-5983,-5971,0,0,0
144.74,179.47,-134.85,81,-5964,-5957,0,0,-1
144.75,179.46,-134.85,90,-5972,-5953,-1,0,0
144.75,179.46,-134.84,86,-5981,-5963,0,0,-1
144.75,179.46,-134.84,80,-5978,-5960,-1,0,0
144.76,179.45,-134.84,87,-5984,-5960,0,0,-1
144.76,179.45,-134.84,77,-5967,-5949,-1,0,-1
144.77,179.44,-134.84,93,-5978,-5948,-1,0,-1
144.76,179.43,-134.85,88,-5954,-5945,-1,0,-1
144.76,179.43,-134.85,99,-5974,-5951,-1,-1,0
144.75,179.44,-134.86,85,-5966,-5950,-1,0,-1
144.74,179.44,-134.88,84,-5981,-5967,-1,0,0
144.74,179.43,-134.89,76,-5972,-5966,-1,0,-1
144.74,179.43,-134.89,75,-5963,-5953,-1,0,0
144.74,179.42,-134.89,81,-5972,-5961,0,-1,0
144.74,179.43,-134.90,70,-5949,-5945,-1,0,-1
144.73,179.42,-134.91,88,-5971,-5956,-1,-1,0
144.72,179.43,-134.92,81,-5946,-5952,-1,-1,0
144.71,179.44,-134.93,81,-5975,-5973,-1,-1,0
144.71,179.45,-134.95,72,-5970,-5973,-1,0,0
144.70,179.45,-134.95,75,-5977,-5988,0,-1,0
144.70,179.45,-134.95,72,-5969,-5973,0,0,-1
144.70,179.45,-134.94,72,-5966,-5968,0,0,-1
144.71,179.44,-134.94,75,-5961,-5981,0,0,-1
144.71,179.43,-134.93,75,-5955,-5960,0,0,-1
144.71,179.43,-134.92,79,-5967,-5945,0,0,-1
144.71,179.43,-134.93,78,-5951,-5951,-1,0,-1
144.71,179.42,-134.93,90,-5956,-5970,-1,0,0
144.71,179.42,-134.94,84,-5950,-5969,0,0,0
144.71,179.42,-134.93,84,-5954,-5974,0,-1,0
144.71,179.42,-134.93,79,-5950,-5977,0,0,-1
144.71,179.42,-134.93,75,-5954,-5976,0,0,-1
144.72,179.42,-134.92,84,-5971,-5969,0,-1,-1
144.72,179.42,-134.92,78,-5963,-5950,-1,0,0
144.72,179.42,-134.92,90,-5978,-5967,-1,-1,0
144.71,179.42,-134.92,83,-5959,-5950,-1,0,0
144.71,179.42,-134.93,89,-5967,-5972,-1,0,0
144.71,179.42,-134.94,79,-5956,-5982,0,0,-1
144.71,179.41,-134.93,86,-5958,-5976,0,0,0
144.71,179.41,-134.93,90,-5964,-5990,0,0,-1
144.72,179.40,-134.92,92,-5962,-5967,0,0,-1
144.72,179.39,-134.92,91,-5967,-5964,0,0,-1
144.73,179.39,-134.92,88,-5956,-5954,-1,0,-1
144.73,179.38,-134.92,92,-5959,-5948,-1,0,-1
144.72,179.38,-134.93,88,-5954,-5937,-1,0,-1
144.71,179.38,-134.94,95,-5965,-5948,-1,-1,0
144.71,179.37,-134.96,93,-5958,-5956,-1,0,-1
144.70,179.37,-134.98,87,-5945,-5963,-1,-1,0
144.70,179.38,-134.98,86,-5951,-5977,-1,-1,0
144.69,179.39,-134.99,83,-5958,-5978,-1,0,0
144.69,179.39,-134.99,81,-5959,-5973,-1,0,-1
144.69,179.38,-134.99,91,-5950,-5957,-1,0,-1
144.69,179.38,-135.00,92,-5956,-5961,-1,-1,0
144.69,179.39,-135.00,92,-5953,-5975,-1,-1,0
144.68,179.38,-135.01,93,-5963,-5980,-1,-1,0
144.68,179.39,-135.02,83,-5953,-5970,-1,0,-1
144.67,179.40,-135.02,80,-5954,-5966,-1,-1,0
144.67,179.40,-135.03,79,-5942,-5960,-1,-1,0
144.66,179.41,-135.04,74,-5955,-5975,-1,-1,0
144.66,179.41,-135.03,79,-5956,-5966,0,-1,0
144.66,179.41,-135.03,84,-5956,-5968,0,0,0
144.66,179.41,-135.02,89,-5946,-5975,0,0,-1
144.67,179.41,-135.02,92,-5953,-5976,0,0,0
144.67,179.41,-135.01,91,-5958,-5982,0,0,0
144.68,179.41,-135.00,89,-5948,-5957,-1,-1,0
144.68,179.41,-135.00,88,-5947,-5960,-1,0,0
144.67,179.41,-135.01,87,-5943,-5962,-1,-1,0
144.67,179.41,-135.01,91,-5942,-5969,0,-1,0
144.67,179.42,-135.00,89,-5940,-5965,0,-1,0
144.68,179.42,-135.00,92,-5956,-5981,0,-1,0
144.68,179.43,-135.00,83,-5956,-5979,0,0,-1
144.68,179.42,-134.99,87,-5971,-5963,0,0,-1
144.68,179.42,-135.00,75,-5957,-5971,-1,0,-1
144.67,179.42,-135.00,87,-5954,-5976,-1,-1,-1
144.67,179.42,-135.01,84,-5939,-5962,-1,-1,0
144.67,179.42,-135.01,90,-5962,-5986,-1,-1,0
144.67,179.42,-135.02,82,-5949,-5979,-1,0,-1
144.67,179.42,-135.02,90,-5963,-5970,0,-1,-1
144.67,179.42,-135.03,84,-5942,-5964,-1,0,-1
144.67,179.42,-135.03,94,-5954,-5977,0,-1,0
144.67,179.42,-135.02,74,-5947,-5967,0,0,-1
144.67,179.42,-135.02,87,-5963,-5972,0,0,-1
144.67,179.41,-135.03,83,-5944,-5976,-1,0,-1
144.67,179.41,-135.03,94,-5945,-5964,0,-1,0
144.66,179.42,-135.03,80,-5925,-5946,-1,-1,0
144.66,179.42,-135.03,89,-5952,-5979,0,-1,0
144.66,179.42,-135.04,79,-5947,-5982,0,0,-1
144.66,179.42,-135.03,93,-5969,-5985,0,-1,0
144.66,179.42,-135.03,86,-5946,-5952,-1,0,-1
144.66,179.42,-135.03,93,-5964,-5965,-1,-1,0
144.65,179.43,-135.04,81,-5943,-5960,-1,-1,0
144.65,179.43,-135.05,85,-5963,-5968,-1,-1,0
144.64,179.44,-135.06,72,-5943,-5953,-1,0,-1
144.64,179.45,-135.07,85,-5959,-5966,-1,-1,0
144.63,179.46,-135.08,79,-5937,-5978,-1,-1,0
144.62,179.47,-135.08,86,-5953,-5986,0,-1,0
144.62,179.48,-135.09,77,-5942,-6003,0,-1,0
144.62,179.49,-135.07,77,-5945,-5994,0,-1,0
144.62,179.50,-135.07,69,-5936,-6000,0,-1,-1
144.63,179.50,-135.05,73,-5953,-5994,0,-1,0
144.64,179.50,-135.03,62,-5942,-5978,0,0,-1
144.64,179.50,-135.02,70,-5950,-5971,0,-1,0
144.65,179.50,-135.01,71,-5952,-5970,0,-1,-1
144.65,179.50,-135.00,76,-5952,-5959,0,-1,0
144.65,179.51,-135.00,80,-5947,-5969,0,-1,0
144.65,179.51,-135.00,76,-5948,-5971,0,-1,0
144.66,179.51,-134.99,76,-5957,-5982,0,-1,0
144.66,179.52,-134.97,81,-5945,-5978,0,-1,0
144.66,179.52,-134.97,80,-5949,-5984,0,-1,0
144.68,179.52,-134.94,75,-5953,-5981,0,0,-1
144.69,179.52,-134.92,66,-5952,-5963,0,-1,-1
144.70,179.52,-134.89,74,-5976,-5954,0,-1,-1
144.70,179.52,-134.88,67,-5963,-5943,0,0,-1
144.71,179.51,-134.88,71,-5979,-5948,-1,-1,-1
144.71,179.51,-134.88,61,-5970,-5968,0,0,-1
144.71,179.51,-134.89,61,-5965,-5944,-1,0,0
144.71,179.51,-134.90,69,-5964,-5956,-1,0,-1
144.70,179.50,-134.91,65,-5964,-5959,-1,0,-1
144.71,179.50,-134.91,79,-5982,-5963,0,0,-1
144.70,179.49,-134.92,68,-5962,-5963,-1,0,-1
144.70,179.49,-134.92,80,-5978,-5955,-1,-1,0
144.69,179.50,-134.93,65,-5947,-5948,-1,0,-1
144.69,179.49,-134.93,78,-5969,-5966,-1,0,0
144.69,179.48,-134.94,74,-5949,-5981,-1,0,-1
144.69,179.48,-134.94,78,-5966,-5977,-1,0,0
144.69,179.48,-134.94,73,-5961,-5974,0,0,-1
144.69,179.48,-134.94,76,-5959,-5958,-1,0,0
144.69,179.47,-134.94,82,-5964,-5959,0,0,-1
144.69,179.47,-134.95,76,-5952,-5954,-1,0,0
144.69,179.47,-134.95,76,-5965,-5970,0,-1,0
144.68,179.48,-134.96,68,-5958,-5980,-1,0,0
144.68,179.47,-134.97,82,-5965,-5996,-1,0,0
144.67,179.47,-134.98,71,-5940,-5970,-1,0,-1
144.67,179.48,-134.98,81,-5958,-5965,-1,-1,0
144.67,179.47,-134.99,70,-5955,-5965,-1,0,-1
144.67,179.48,-134.98,77,-5965,-5969,0,-1,0
144.67,179.48,-134.99,62,-5953,-5967,0,0,-1
144.67,179.48,-134.98,77,-5964,-5981,0,0,0
144.67,179.47,-134.98,70,-5954,-5984,0,0,-1
144.67,179.48,-134.97,75,-5951,-5973,0,-1,0
144.68,179.47,-134.97,75,-5951,-5965,0,0,-1
144.68,179.47,-134.97,70,-5957,-5958,-1,0,-1
144.68,179.47,-134.97,81,-5962,-5959,0,0,-1
144.67,179.47,-134.97,77,-5956,-5959,-1,-1,0
144.67,179.47,-134.97,83,-5961,-5967,0,-1,0
144.66,179.47,-134.98,74,-5950,-5966,-1,0,0
144.66,179.47,-134.98,82,-5966,-5967,-1,-1,0
144.66,179.47,-134.99,69,-5946,-5962,-1,0,-1
144.66,179.47,-134.99,74,-5954,-5970,-1,-1,0
144.66,179.47,-134.99,71,-5943,-5972,0,0,-1
144.66,179.46,-134.99,83,-5960,-5967,0,0,-1
144.66,179.46,-134.99,82,-5965,-5978,0,0,-1
144.67,179.46,-134.99,81,-5974,-5966,-1,0,-1
144.67,179.46,-134.99,79,-5961,-5961,-1,0,-1
144.67,179.45,-134.99,81,-5956,-5948,-1,0,-1
144.67,179.45,-135.00,85,-5950,-5952,-1,0,-1
144.66,179.45,-135.01,86,-5942,-5966,-1,0,0
144.65,179.45,-135.02,94,-5954,-5980,-1,-1,0
144.65,179.45,-135.02,83,-5958,-5981,-1,0,0
144.65,179.45,-135.02,84,-5971,-5992,0,0,0
144.65,179.44,-135.01,82,-5959,-5983,0,0,-1
144.66,179.43,-135.01,90,-5964,-5971,0,0,-1
144.66,179.43,-135.00,84,-5948,-5952,0,0,-1
144.66,179.43,-134.99,82,-5944,-5945,0,-1,0
144.66,179.43,-135.00,87,-5955,-5966,-1,-1,0
144.66,179.43,-135.00,85,-5964,-5976,-1,-1,0
144.66,179.43,-135.00,81,-5966,-5979,0,-1,0
144.66,179.43,-134.99,80,-5961,-5967,0,-1,0
144.66,179.44,-135.00,85,-5956,-5959,-1,-1,0
144.66,179.44,-135.01,81,-5955,-5960,-1,-1,0
144.64,179.45,-135.02,81,-5954,-5974,-1,-1,0
144.64,179.45,-135.02,79,-5950,-5972,-1,-1,0
144.64,179.45,-135.02,74,-5950,-5976,0,-1,0
144.64,179.45,-135.02,73,-5943,-5976,0,-1,0
144.64,179.45,-135.02,74,-5951,-5979,0,-1,0
144.64,179.46,-135.02,75,-5947,-5979,0,-1,0
144.64,179.46,-135.02,73,-5955,-5983,0,-1,0
144.64,179.47,-135.01,70,-5959,-5971,0,-1,0
144.64,179.47,-135.01,65,-5948,-5972,-1,0,0
144.63,179.47,-135.02,73,-5950,-5962,-1,0,-1
144.63,179.47,-135.02,74,-5946,-5965,-1,-1,0
144.63,179.47,-135.02,83,-5948,-5961,0,-1,0
144.63,179.47,-135.02,81,-5947,-5965,-1,-1,0
144.63,179.48,-135.03,73,-5955,-5975,0,-1,0
144.63,179.48,-135.03,72,-5955,-5975,-1,0,-1
144.63,179.48,-135.03,75,-5956,-5972,-1,-1,0
144.62,179.48,-135.04,73,-5939,-5966,-1,-1,0
144.62,179.49,-135.04,82,-5944,-5958,0,-1,0
144.62,179.49,-135.04,74,-5946,-5965,-1,0,-1
144.63,179.48,-135.04,81,-5960,-5968,0,-1,0
144.63,179.48,-135.04,72,-5954,-5977,0,0,-1
144.63,179.49,-135.03,80,-5949,-5973,0,-1,0
144.62,179.50,-135.03,76,-5933,-5968,0,-1,0
144.62,179.52,-135.02,78,-5935,-5965,0,-1,0
144.61,179.55,-135.02,66,-5928,-5962,-1,-1,0
144.60,179.57,-135.02,79,-5941,-5959,0,-2,1
144.58,179.62,-135.02,61,-5937,-5964,-1,-1,0
144.56,179.65,-135.03,61,-5951,-5980,-1,-2,0
144.55,179.70,-135.03,77,-5941,-6023,1,-2,1
144.55,179.79,-134.95,86,-5913,-5985,3,-4,3
144.55,179.92,-134.82,66,-5882,-5934,5,-4,3
144.56,-179.94,-134.66,6,-5906,-5844,4,-3,3
144.56,-179.87,-134.58,-29,-6023,-5968,2,-1,1
144.57,-179.83,-134.51,-44,-6079,-6005,2,-1,0
144.58,-179.81,-134.46,-45,-6037,-5955,1,-1,0
144.61,-179.80,-134.42,-49,-6001,-5838,0,-1,-1
144.61,-179.82,-134.46,-75,-5999,-5768,-4,1,-2
144.58,-179.90,-134.61,-68,-6030,-5814,-8,2,-3
144.52,179.99,-134.86,-46,-6041,-5930,-9,2,-4
144.47,179.89,-135.11,12,-6034,-6063,-8,1,-3
144.42,179.83,-135.27,41,-5948,-6071,-5,0,-1
144.40,179.79,-135.35,43,-5907,-6046,-2,1,-1
144.40,179.74,-135.39,18,-5908,-6011,-2,2,-2
144.40,179.66,-135.46,16,-5931,-5991,-4,2,-3
144.39,179.57,-135.58,35,-5912,-5961,-6,2,-3
144.36,179.50,-135.75,47,-5901,-5971,-7,1,-3
144.31,179.42,-135.95,81,-5875,-5999,-8,1,-2
144.24,179.37,-136.17,95,-5832,-6017,-9,0,-2
144.18,179.35,-136.39,104,-5814,-6042,-8,-1,-2
144.12,179.33,-136.59,101,-5782,-6052,-8,-1,-1
144.05,179.31,-136.81,100,-5785,-6125,-8,0,-2
143.99,179.30,-137.01,104,-5776,-6193,-7,0,-1
143.93,179.28,-137.17,108,-5761,-6229,-6,0,-1
143.89,179.27,-137.30,102,-5749,-6224,-4,0,-1
143.86,179.24,-137.41,101,-5732,-6216,-4,0,-1
143.82,179.22,-137.53,103,-5702,-6204,-5,0,-1
143.77,179.20,-137.66,97,-5678,-6186,-6,0,-1
143.73,179.17,-137.82,112,-5655,-6160,-7,0,-1
143.67,179.15,-138.02,113,-5652,-6235,-7,0,-2
143.62,179.12,-138.19,132,-5653,-6287,-7,0,-1
143.57,179.08,-138.33,147,-5654,-6368,-4,1,-1
143.55,179.04,-138.40,138,-5630,-6341,-3,1,-1
143.53,179.01,-138.48,137,-5594,-6310,-3,0,-1
143.51,178.99,-138.55,139,-5583,-6312,-3,0,-1
143.50,178.96,-138.60,154,-5571,-6320,-2,0,-1
143.47,178.94,-138.66,155,-5575,-6334,-2,0,-1
143.46,178.92,-138.69,160,-5571,-6365,-1,0,-1
143.46,178.90,-138.71,159,-5567,-6362,-1,0,-1
143.46,178.89,-138.71,161,-5566,-6366,0,0,-1
143.47,178.88,-138.69,164,-5552,-6331,0,0,-1
143.48,178.87,-138.67,159,-5571,-6311,-1,0,-1
143.48,178.84,-138.67,164,-5573,-6351,0,0,-1
143.50,178.83,-138.65,170,-5564,-6320,0,0,-1
143.50,178.82,-138.64,171,-5562,-6325,0,0,-1
143.50,178.81,-138.63,165,-5565,-6323,0,0,-1
143.51,178.80,-138.62,168,-5566,-6315,0,0,-1
143.52,178.79,-138.61,165,-5565,-6324,-1,0,-1
143.52,178.77,-138.60,172,-5576,-6339,0,0,-1
143.53,178.75,-138.59,174,-5574,-6340,0,0,-1
143.54,178.75,-138.57,178,-5572,-6319,0,0,-1
143.54,178.73,-138.55,180,-5577,-6335,0,0,-1
143.55,178.72,-138.53,180,-5590,-6320,0,0,-1
143.55,178.71,-138.52,183,-5584,-6319,0,0,-1
143.57,178.71,-138.51,188,-5584,-6302,0,0,0
143.56,178.71,-138.50,192,-5576,-6311,0,-1,0
143.56,178.71,-138.49,181,-5574,-6305,0,0,0
143.56,178.71,-138.49,189,-5582,-6318,0,-1,0
143.56,178.71,-138.49,184,-5581,-6304,-1,0,0
143.56,178.71,-138.49,180,-5583,-6303,0,-1,0
143.56,178.71,-138.49,190,-5575,-6291,-1,0,-1
143.56,178.72,-138.48,191,-5580,-6298,0,-1,0
143.56,178.72,-138.49,193,-5580,-6304,-1,-1,0
143.56,178.73,-138.49,185,-5582,-6297,-1,-1,0
143.55,178.74,-138.51,187,-5593,-6317,-1,-1,0
143.55,178.74,-138.51,185,-5575,-6307,-1,-1,0
143.55,178.75,-138.52,188,-5579,-6321,-1,-1,0
143.54,178.76,-138.52,182,-5576,-6310,-1,-1,0
143.54,178.76,-138.53,178,-5569,-6330,0,-1,0
143.54,178.76,-138.52,177,-5578,-6333,0,0,-1
143.55,178.76,-138.51,178,-5575,-6316,0,-1,0
143.55,178.77,-138.50,178,-5565,-6296,0,-1,0
143.54,178.78,-138.50,181,-5573,-6300,-1,-1,0
143.54,178.78,-138.52,175,-5587,-6327,-1,-1,0
143.54,178.78,-138.52,171,-5586,-6334,-1,-1,0
143.52,178.79,-138.53,180,-5572,-6322,-1,-1,0
143.52,178.80,-138.53,182,-5570,-6305,-1,-1,0
143.52,178.79,-138.54,181,-5566,-6318,-1,-1,0
143.52,178.81,-138.54,172,-5563,-6332,-1,-1,0
143.51,178.81,-138.54,179,-5571,-6325,0,-1,0
143.51,178.81,-138.54,177,-5574,-6315,-1,-1,0
143.51,178.81,-138.53,179,-5591,-6336,0,-1,0
143.52,178.82,-138.52,173,-5580,-6325,0,0,0
143.52,178.82,-138.51,177,-5576,-6314,0,-1,0
143.52,178.82,-138.51,171,-5568,-6293,-1,0,-1
143.52,178.82,-138.51,185,-5584,-6309,0,-1,0
143.52,178.83,-138.50,177,-5569,-6301,-1,-1,0
143.52,178.83,-138.50,180,-5584,-6315,0,-1,0
143.52,178.83,-138.50,170,-5579,-6317,-1,-1,0
143.52,178.83,-138.50,177,-5582,-6322,0,-1,0
143.52,178.84,-138.50,165,-5575,-6315,-1,-1,0
143.52,178.84,-138.49,169,-5586,-6328,0,-1,0
143.52,178.84,-138.49,170,-5573,-6334,0,0,-1
143.53,178.84,-138.48,167,-5573,-6332,0,-1,0
143.53,178.84,-138.48,164,-5558,-6317,0,0,-1
143.53,178.84,-138.48,167,-5566,-6320,0,-1,0
143.53,178.85,-138.47,168,-5574,-6316,0,-1,-1
143.53,178.85,-138.46,164,-5579,-6320,0,-1,0
143.53,178.85,-138.46,163,-5585,-6327,0,-1,0
143.53,178.86,-138.45,164,-5587,-6318,0,-1,0
143.53,178.86,-138.45,164,-5581,-6319,0,-1,0
143.53,178.86,-138.45,165,-5566,-6302,-1,-1,0
143.53,178.87,-138.45,172,-5580,-6297,0,-1,0
143.53,178.88,-138.45,161,-5586,-6306,-1,-1,0
143.53,178.88,-138.45,170,-5588,-6297,-1,-1,0
143.51,178.90,-138.46,162,-5577,-6311,-1,-1,0
143.51,178.90,-138.47,164,-5588,-6319,-1,-1,0
143.51,178.91,-138.47,156,-5579,-6328,-1,-1,0
143.51,178.91,-138.47,167,-5581,-6332,0,-1,0
143.50,178.91,-138.48,164,-5575,-6316,0,-1,0
143.50,178.92,-138.47,156,-5585,-6324,-1,-1,0
143.50,178.92,-138.47,151,-5590,-6321,0,0,0
143.50,178.93,-138.46,155,-5588,-6306,0,-1,0
143.50,178.93,-138.47,155,-5590,-6318,-1,-1,0
143.49,178.94,-138.48,156,-5583,-6316,-1,-1,0
143.49,178.94,-138.48,154,-5581,-6318,-1,-1,0
143.49,178.95,-138.48,158,-5578,-6316,-1,-1,0
143.49,178.95,-138.49,159,-5582,-6328,-1,-1,0
143.49,178.95,-138.49,151,-5580,-6331,0,-1,0
143.49,178.96,-138.49,147,-5578,-6335,0,0,0
143.49,178.96,-138.47,144,-5581,-6322,0,0,-1
143.50,178.96,-138.45,153,-5576,-6316,0,0,-1
143.51,178.95,-138.43,153,-5578,-6304,0,0,-1
143.52,178.95,-138.40,162,-5588,-6297,1,0,0
143.53,178.95,-138.38,157,-5593,-6289,0,-1,0
143.53,178.96,-138.37,158,-5611,-6313,0,-1,0
143.53,178.96,-138.37,154,-5596,-6290,-1,-1,0
143.53,178.97,-138.37,149,-5588,-6295,-1,-1,0
143.53,178.97,-138.37,147,-5582,-6298,0,-1,-1
143.53,178.97,-138.37,146,-5590,-6314,0,-1,0
143.53,178.98,-138.37,138,-5591,-6318,0,-1,0
143.53,178.98,-138.36,136,-5603,-6317,-1,-1,0
143.53,178.98,-138.36,140,-5602,-6329,0,0,0
143.53,178.98,-138.36,137,-5590,-6308,-1,-1,0
143.53,178.98,-138.36,145,-5587,-6299,0,0,0
143.53,178.98,-138.36,138,-5577,-6293,-1,0,-1
143.53,178.98,-138.35,156,-5594,-6305,0,-1,0
143.53,178.99,-138.35,156,-5587,-6306,0,0,-1
143.53,178.99,-138.35,153,-5602,-6307,-1,-1,0
143.53,178.99,-138.35,151,-5598,-6305,-1,-1,0
143.53,178.99,-138.35,144,-5600,-6297,-1,-1,0
143.52,179.00,-138.36,145,-5587,-6296,0,0,0
143.52,179.00,-138.36,144,-5585,-6294,-1,-1,0
143.52,179.00,-138.36,146,-5588,-6296,0,-1,0
143.52,179.00,-138.36,138,-5586,-6305,-1,0,0
143.52,179.00,-138.36,152,-5600,-6310,0,0,-1
143.52,179.00,-138.37,143,-5579,-6290,-1,-1,0
143.52,179.01,-138.37,145,-5590,-6292,-1,-1,0
143.51,179.01,-138.37,139,-5580,-6305,-1,-1,0
143.51,179.01,-138.37,146,-5596,-6325,0,-1,0
143.51,179.01,-138.37,143,-5596,-6313,0,0,-1
143.51,179.02,-138.36,137,-5603,-6295,-1,-1,0
143.51,179.02,-138.37,137,-5594,-6306,0,-1,-1
143.51,179.02,-138.37,143,-5592,-6310,-1,-1,0
143.51,179.02,-138.37,141,-5581,-6296,0,-1,0
143.50,179.03,-138.37,137,-5584,-6296,0,-1,0
143.50,179.03,-138.37,142,-5589,-6313,0,0,0
143.50,179.03,-138.36,136,-5583,-6304,0,0,0
143.51,179.03,-138.35,137,-5589,-6299,0,-1,0
143.51,179.03,-138.35,129,-5586,-6297,0,0,-1
143.51,179.04,-138.34,137,-5591,-6309,0,0,0
143.51,179.03,-138.33,138,-5590,-6298,0,0,-1
143.51,179.03,-138.33,145,-5592,-6307,0,0,-1
143.52,179.02,-138.33,143,-5592,-6301,0,0,-1
143.52,179.02,-138.33,146,-5595,-6291,0,-1,0
143.52,179.02,-138.33,147,-5596,-6297,-1,-1,-1
143.52,179.02,-138.33,149,-5597,-6296,-1,-1,0
143.52,179.02,-138.33,146,-5590,-6300,-1,-1,-1
143.52,179.02,-138.33,147,-5594,-6293,-1,-1,0
143.52,179.02,-138.35,147,-5590,-6306,-1,-1,0
143.52,179.02,-138.35,143,-5593,-6305,-1,-1,0
143.51,179.03,-138.35,146,-5596,-6309,0,0,-1
143.51,179.03,-138.35,146,-5591,-6305,-1,0,0
143.51,179.03,-138.35,148,-5600,-6306,0,-1,0
143.51,179.03,-138.35,145,-5598,-6306,-1,0,0
143.51,179.03,-138.35,149,-5596,-6311,0,-1,0
143.51,179.03,-138.35,139,-5595,-6311,0,0,-1
143.51,179.03,-138.35,142,-5598,-6304,-1,-1,0
143.51,179.03,-138.35,133,-5596,-6310,-1,0,-1
143.51,179.03,-138.35,138,-5593,-6315,0,0,-1
143.51,179.03,-138.35,142,-5587,-6303,0,0,-1
143.52,179.01,-138.34,154,-5593,-6302,0,0,-1
143.52,179.00,-138.33,157,-5597,-6289,0,-1,0
143.52,179.02,-138.33,151,-5589,-6292,-1,-1,0
143.51,179.02,-138.34,149,-5601,-6311,-1,-1,0
143.51,179.03,-138.34,129,-5592,-6299,-1,0,0
143.51,179.03,-138.35,136,-5596,-6311,-1,-1,0
143.51,179.03,-138.35,135,-5580,-6291,-1,0,-1
143.51,179.03,-138.35,140,-5595,-6311,0,-1,0
143.50,179.04,-138.35,138,-5595,-6308,-1,-1,0
143.50,179.05,-138.35,137,-5605,-6319,0,-1,0
143.50,179.05,-138.34,139,-5600,-6295,0,0,-1
143.50,179.05,-138.34,142,-5598,-6289,-1,-1,0
143.50,179.05,-138.35,138,-5590,-6300,-1,0,-1
143.50,179.05,-138.35,154,-5588,-6294,-1,-1,0
143.50,179.05,-138.35,148,-5590,-6302,0,-1,0
143.50,179.06,-138.35,140,-5596,-6305,-1,-1,0
143.50,179.06,-138.35,136,-5600,-6310,-1,0,-1
143.50,179.05,-138.34,140,-5597,-6302,0,-1,0
143.50,179.06,-138.33,133,-5590,-6286,0,-1,0
143.51,179.06,-138.32,137,-5595,-6273,0,-1,0
143.51,179.06,-138.32,131,-5601,-6276,-1,0,-1
143.50,179.07,-138.33,131,-5610,-6295,-1,-1,0
143.50,179.06,-138.33,133,-5602,-6299,-1,0,-1
143.49,179.06,-138.34,142,-5590,-6305,-1,-1,0
143.49,179.06,-138.34,142,-5588,-6309,0,-1,0
143.49,179.07,-138.35,129,-5584,-6310,0,-1,0
143.50,179.07,-138.35,140,-5591,-6316,0,-1,-1
143.50,179.07,-138.35,131,-5585,-6315,0,-1,0
143.50,179.07,-138.34,132,-5592,-6304,0,-1,0
143.49,179.07,-138.35,134,-5589,-6307,-1,0,-1
143.49,179.07,-138.35,141,-5595,-6304,0,-1,0
143.49,179.08,-138.35,133,-5587,-6291,-1,-1,0
143.49,179.09,-138.35,142,-5592,-6306,-1,-1,0
143.48,179.10,-138.36,125,-5590,-6315,-1,-1,0
143.48,179.10,-138.36,136,-5604,-6326,-1,-1,0
143.48,179.11,-138.36,124,-5587,-6322,0,-1,0
143.48,179.11,-138.36,124,-5598,-6315,0,-1,0
143.48,179.11,-138.36,127,-5593,-6313,0,-1,0
143.48,179.12,-138.35,140,-5598,-6311,-1,-1,0
143.48,179.12,-138.34,129,-5586,-6303,0,0,-1
143.48,179.12,-138.34,132,-5593,-6315,0,-1,0
143.48,179.13,-138.33,126,-5592,-6298,0,0,-1
143.49,179.13,-138.33,137,-5591,-6297,-1,-1,0
143.48,179.13,-138.33,123,-5588,-6309,0,-1,0
143.48,179.14,-138.33,125,-5595,-6301,0,-1,0
143.48,179.14,-138.33,125,-5606,-6306,0,0,-1
143.48,179.13,-138.32,130,-5603,-6303,0,-1,0
143.48,179.13,-138.32,129,-5588,-6296,0,0,-1
143.48,179.13,-138.32,135,-5583,-6279,-1,-1,0
143.48,179.15,-138.32,124,-5590,-6285,0,-1,0
143.47,179.16,-138.32,123,-5599,-6292,-1,-1,0
143.47,179.16,-138.32,122,-5602,-6300,0,-1,0
143.47,179.16,-138.32,118,-5590,-6298,-1,-1,0
143.47,179.16,-138.32,123,-5597,-6317,0,-1,-1
143.48,179.16,-138.32,126,-5580,-6294,-1,-1,0
143.48,179.16,-138.31,131,-5595,-6315,0,-1,-1
143.48,179.16,-138.31,126,-5590,-6306,0,0,-1
143.48,179.16,-138.31,131,-5595,-6307,0,0,-1
143.48,179.15,-138.32,126,-5583,-6295,-1,0,0
143.48,179.16,-138.32,128,-5591,-6301,-1,-1,0
143.47,179.17,-138.33,123,-5601,-6306,-1,-1,0
143.47,179.18,-138.33,123,-5610,-6319,-1,-1,0
143.46,179.19,-138.34,115,-5597,-6320,-1,0,-1
143.46,179.18,-138.34,121,-5604,-6323,-1,0,0
143.45,179.18,-138.34,122,-5597,-6316,0,0,-1
143.46,179.17,-138.33,126,-5602,-6300,-1,0,-1
143.47,179.16,-138.34,120,-5588,-6282,-1,0,-1
143.47,179.16,-138.34,125,-5585,-6282,-1,-1,0
143.46,179.16,-138.35,123,-5579,-6283,-1,-1,-1
143.45,179.17,-138.36,125,-5595,-6289,-1,-1,0
143.45,179.17,-138.37,125,-5593,-6300,-1,-1,0
143.45,179.19,-138.37,116,-5595,-6308,-1,-1,0
143.43,179.20,-138.39,112,-5588,-6328,0,-1,0
143.44,179.21,-138.38,116,-5583,-6323,0,-1,0
143.44,179.21,-138.37,122,-5586,-6322,0,-1,0
143.44,179.23,-138.36,115,-5594,-6313,0,-1,0
143.44,179.22,-138.34,112,-5609,-6331,0,-1,0
143.45,179.22,-138.33,112,-5604,-6328,0,0,0
143.46,179.22,-138.30,114,-5609,-6338,0,0,-1
143.47,179.22,-138.28,114,-5608,-6306,0,0,0
143.47,179.23,-138.27,115,-5604,-6295,0,-1,0
143.47,179.23,-138.26,108,-5601,-6277,-1,-1,0
143.48,179.24,-138.26,109,-5607,-6299,0,-1,0
143.48,179.24,-138.26,104,-5586,-6290,0,0,-1
143.49,179.23,-138.25,110,-5604,-6288,0,0,0
143.49,179.23,-138.24,108,-5595,-6296,0,0,-1
143.49,179.22,-138.23,115,-5612,-6282,0,0,0
143.49,179.23,-138.22,113,-5600,-6267,0,0,-1
143.50,179.23,-138.21,107,-5598,-6265,-1,-1,0
143.50,179.23,-138.21,113,-5619,-6291,0,-1,0
143.50,179.23,-138.21,105,-5606,-6302,0,0,-1
143.50,179.23,-138.20,113,-5623,-6286,0,0,0
143.50,179.23,-138.19,113,-5597,-6272,0,0,-1
143.50,179.23,-138.19,120,-5610,-6266,-1,-1,0
143.50,179.23,-138.19,114,-5602,-6279,0,-1,0
143.49,179.24,-138.20,96,-5612,-6290,-1,-1,0
143.50,179.23,-138.20,111,-5616,-6306,0,0,-1
143.50,179.23,-138.20,105,-5605,-6291,-1,0,-1
143.50,179.22,-138.20,116,-5619,-6290,-1,0,-1
143.50,179.21,-138.20,119,-5608,-6298,0,0,-1
143.50,179.21,-138.20,126,-5614,-6281,-1,0,-1
143.50,179.20,-138.21,122,-5603,-6279,0,0,-1
143.50,179.20,-138.21,125,-5603,-6279,-1,-1,0
143.50,179.20,-138.22,133,-5605,-6297,0,-1,0
143.49,179.21,-138.23,117,-5596,-6294,-1,-1,0
143.50,179.21,-138.22,113,-5609,-6308,0,0,-1
143.50,179.21,-138.22,110,-5596,-6294,0,0,0
143.50,179.21,-138.21,116,-5619,-6305,0,-1,0
143.49,179.21,-138.21,110,-5597,-6299,0,0,-1
143.49,179.21,-138.21,112,-5608,-6287,-1,-1,0
143.49,179.21,-138.21,103,-5600,-6296,0,0,-1
143.49,179.21,-138.22,113,-5605,-6300,-1,-1,0
143.49,179.21,-138.22,121,-5607,-6304,0,0,-1
143.49,179.21,-138.22,113,-5604,-6293,-1,0,0
143.49,179.21,-138.22,115,-5616,-6302,0,0,-1
143.49,179.21,-138.23,118,-5602,-6298,-1,0,0
143.49,179.20,-138.22,123,-5611,-6302,0,0,-1
143.49,179.20,-138.23,119,-5603,-6281,-1,0,0
143.49,179.20,-138.22,127,-5612,-6285,0,-1,0
143.49,179.20,-138.23,119,-5595,-6285,-1,0,-1
143.49,179.20,-138.23,123,-5610,-6291,-1,-1,0
143.48,179.20,-138.24,117,-5603,-6305,0,-1,0
143.47,179.20,-138.24,116,-5612,-6297,-1,-1,0
143.47,179.21,-138.24,106,-5612,-6300,0,0,-1
143.47,179.21,-138.24,108,-5603,-6293,-1,0,0
143.47,179.20,-138.24,115,-5603,-6289,0,0,0
143.48,179.21,-138.23,107,-5593,-6287,0,0,0
143.48,179.21,-138.23,113,-5609,-6287,0,-1,0
143.48,179.22,-138.23,102,-5613,-6287,-1,-1,0
143.48,179.22,-138.23,108,-5621,-6305,0,0,-1
143.48,179.21,-138.22,107,-5606,-6295,0,0,-1
143.48,179.20,-138.22,123,-5598,-6270,-1,0,0
143.48,179.21,-138.23,120,-5589,-6271,-1,-1,0
143.48,179.21,-138.23,123,-5600,-6273,-1,-1,0
143.47,179.21,-138.24,122,-5613,-6303,-1,-1,0
143.46,179.21,-138.25,110,-5616,-6314,-1,-1,0
143.46,179.21,-138.25,112,-5602,-6300,0,0,-1
143.46,179.21,-138.25,117,-5587,-6280,-1,0,-1
143.46,179.21,-138.25,121,-5596,-6289,0,-1,0
143.46,179.21,-138.25,129,-5601,-6303,-1,0,0
143.46,179.20,-138.25,132,-5608,-6307,0,0,0
143.46,179.20,-138.25,122,-5606,-6306,-1,0,-1
143.46,179.19,-138.26,132,-5600,-6293,0,-1,0
143.46,179.20,-138.26,124,-5595,-6281,-1,-1,0
143.46,179.20,-138.26,115,-5597,-6285,-1,-1,0
143.46,179.20,-138.26,105,-5595,-6295,-1,-1,0
143.46,179.21,-138.27,103,-5602,-6303,0,-1,0
143.45,179.21,-138.27,104,-5609,-6302,0,-1,0
143.45,179.21,-138.27,104,-5604,-6288,-1,0,-1
143.45,179.22,-138.27,108,-5604,-6296,-1,-1,0
143.45,179.21,-138.28,110,-5601,-6305,-1,-1,0
143.45,179.22,-138.28,109,-5605,-6319,-1,-1,0
143.45,179.22,-138.28,104,-5603,-6307,0,0,0
143.45,179.22,-138.28,104,-5612,-6314,0,0,0
143.45,179.22,-138.28,108,-5603,-6311,0,0,-1
143.44,179.22,-138.28,108,-5605,-6299,-1,-1,0
143.44,179.23,-138.28,110,-5604,-6301,-1,-1,0
143.44,179.23,-138.29,112,-5600,-6302,-1,-1,0
143.44,179.23,-138.29,112,-5594,-6298,0,0,-1
143.44,179.23,-138.29,118,-5601,-6293,-1,-1,0
143.44,179.23,-138.28,115,-5597,-6297,0,-1,0
143.44,179.24,-138.28,112,-5605,-6306,0,-1,0
143.44,179.24,-138.28,114,-5611,-6306,0,0,0
143.44,179.24,-138.28,115,-5593,-6285,-1,-1,0
143.43,179.24,-138.29,119,-5602,-6293,-1,-1,0
143.42,179.25,-138.30,109,-5597,-6296,-1,-1,0
143.42,179.25,-138.31,110,-5603,-6324,0,0,-1
143.42,179.25,-138.31,108,-5591,-6310,-1,0,0
143.42,179.25,-138.31,117,-5603,-6320,0,-1,0
143.41,179.26,-138.30,102,-5606,-6323,0,0,0
143.43,179.25,-138.29,109,-5616,-6305,0,0,-1
143.43,179.25,-138.28,113,-5595,-6274,0,0,-1
143.44,179.24,-138.28,120,-5607,-6278,-1,-1,0
143.43,179.24,-138.29,115,-5613,-6293,-1,-1,0
143.43,179.25,-138.29,115,-5613,-6296,-1,-1,0
143.42,179.25,-138.30,109,-5602,-6304,-1,-1,0
143.43,179.26,-138.29,115,-5592,-6299,0,-1,0
143.42,179.27,-138.30,110,-5597,-6301,0,-1,0
143.42,179.28,-138.29,110,-5594,-6305,0,-1,0
143.42,179.28,-138.28,112,-5612,-6317,0,-1,0
143.42,179.30,-138.26,102,-5604,-6298,0,-1,0
143.42,179.32,-138.23,107,-5617,-6289,0,-1,0
143.43,179.33,-138.22,96,-5602,-6281,0,-1,0
143.42,179.33,-138.21,113,-5614,-6293,0,-1,0
143.42,179.35,-138.19,105,-5606,-6284,0,-1,0
143.43,179.36,-138.17,98,-5618,-6289,0,-1,0
143.42,179.37,-138.17,84,-5619,-6286,0,-1,0
143.43,179.39,-138.16,86,-5621,-6290,0,-1,0
143.43,179.39,-138.16,83,-5615,-6287,0,-1,0
143.43,179.40,-138.15,81,-5613,-6280,0,-1,0
143.43,179.40,-138.15,82,-5616,-6283,0,-1,0
143.42,179.41,-138.16,79,-5611,-6281,-1,-1,0
143.42,179.41,-138.15,85,-5628,-6298,0,-1,0
143.42,179.42,-138.15,84,-5614,-6285,-1,-1,0
143.42,179.42,-138.14,91,-5632,-6294,0,-1,0
143.42,179.43,-138.15,75,-5618,-6290,-1,-1,-1
143.42,179.43,-138.14,83,-5630,-6293,0,-1,0
143.42,179.43,-138.13,89,-5611,-6286,0,-1,0
143.42,179.44,-138.13,90,-5620,-6298,0,-1,0
143.43,179.44,-138.11,85,-5614,-6299,0,-1,0
143.43,179.45,-138.09,84,-5618,-6283,0,-1,0
143.44,179.45,-138.07,89,-5635,-6304,1,-1,0
143.45,179.46,-138.03,71,-5624,-6280,1,0,0
143.46,179.46,-137.99,84,-5635,-6292,1,0,0
143.47,179.46,-137.94,73,-5625,-6267,1,0,0
143.49,179.45,-137.90,85,-5641,-6279,2,0,0
143.51,179.45,-137.84,84,-5647,-6262,1,0,0
143.52,179.45,-137.79,80,-5648,-6258,2,0,0
143.54,179.44,-137.73,83,-5656,-6255,2,0,0
143.57,179.43,-137.65,90,-5665,-6265,2,0,0
143.59,179.40,-137.55,77,-5684,-6258,3,1,-1
143.63,179.38,-137.45,98,-5700,-6275,4,1,0
143.67,179.35,-137.34,79,-5687,-6213,3,1,-1
143.69,179.31,-137.26,84,-5713,-6196,2,1,-1
143.72,179.27,-137.20,92,-5696,-6161,2,1,-1
143.73,179.24,-137.16,96,-5698,-6151,1,1,-1
143.75,179.19,-137.13,115,-5709,-6156,1,1,-1
143.78,179.14,-137.10,98,-5714,-6154,0,2,-2
143.81,179.07,-137.06,122,-5733,-6173,1,2,-2
143.84,179.00,-137.04,116,-5731,-6167,1,2,-2
143.87,178.92,-137.02,142,-5748,-6167,0,1,-2
143.90,178.85,-137.02,143,-5722,-6143,0,2,-2
143.92,178.77,-137.04,162,-5724,-6126,-2,2,-2
143.92,178.69,-137.08,181,-5723,-6147,-2,2,-2
143.92,178.63,-137.13,190,-5715,-6150,-2,1,-2
143.93,178.55,-137.18,215,-5733,-6186,-2,1,-2
143.92,178.49,-137.24,198,-5720,-6183,-3,1,-2
143.93,178.43,-137.28,225,-5733,-6203,-2,1,-2
143.93,178.36,-137.34,217,-5712,-6217,-2,2,-2
143.94,178.30,-137.36,236,-5718,-6221,-1,1,-2
143.97,178.24,-137.37,241,-5696,-6198,-1,1,-2
143.98,178.17,-137.38,255,-5708,-6205,-1,1,-2
144.00,178.11,-137.39,276,-5713,-6238,0,1,-2
144.02,178.07,-137.38,244,-5740,-6201,-1,1,-2
144.03,178.01,-137.43,271,-5724,-6192,-3,1,-2
144.02,177.97,-137.50,261,-5695,-6133,-5,0,-2
144.02,177.93,-137.63,297,-5666,-6156,-5,-1,-2
143.99,177.91,-137.78,329,-5604,-6149,-5,-1,-1
143.94,177.92,-137.91,344,-5617,-6230,-4,-2,0
143.91,177.95,-137.99,327,-5629,-6278,-3,-2,0
143.89,177.97,-138.05,330,-5653,-6316,-2,-2,0
143.87,178.00,-138.08,306,-5632,-6316,-1,-1,0
143.87,178.02,-138.11,300,-5617,-6281,-2,-1,0
143.85,178.03,-138.14,287,-5626,-6288,-2,-1,0
143.83,178.04,-138.18,279,-5610,-6291,-2,-1,0
143.82,178.04,-138.19,285,-5597,-6295,-1,-1,0
143.81,178.05,-138.20,282,-5585,-6272,-1,-1,0
143.80,178.06,-138.22,295,-5592,-6295,-1,-1,0
143.79,178.06,-138.24,265,-5604,-6283,-2,0,-1
143.77,178.06,-138.28,271,-5608,-6292,-2,0,-1
143.76,178.04,-138.31,263,-5618,-6361,-1,1,-1
143.77,177.99,-138.30,273,-5647,-6369,0,1,-1
143.79,177.95,-138.29,281,-5627,-6354,1,1,-1
143.80,177.91,-138.28,276,-5601,-6279,-1,1,-1
143.82,177.86,-138.30,297,-5574,-6264,-1,1,-2
143.82,177.80,-138.33,291,-5568,-6236,-2,1,-2
143.82,177.75,-138.40,302,-5555,-6230,-3,1,-2
143.83,177.67,-138.50,303,-5583,-6275,-4,1,-3
143.83,177.62,-138.61,334,-5578,-6301,-4,0,-2
143.83,177.58,-138.73,347,-5594,-6378,-5,0,-3
143.80,177.53,-138.89,346,-5591,-6384,-4,0,-2
143.77,177.47,-139.06,357,-5596,-6490,-6,2,-3
143.75,177.37,-139.18,393,-5522,-6354,-6,2,-2
143.71,177.30,-139.33,381,-5467,-6237,-7,1,-2
143.63,177.27,-139.60,406,-5373,-6226,-10,-1,-1
143.53,177.26,-139.86,411,-5379,-6212,-12,-1,-1
143.37,177.21,-140.26,397,-5355,-6181,-17,3,-2
143.18,177.16,-140.76,405,-5309,-6329,-17,0,-2
143.05,177.14,-141.13,401,-5373,-6563,-11,-1,-1
142.94,177.15,-141.42,442,-5377,-6773,-8,-1,-1
142.87,177.15,-141.58,419,-5341,-6765,-5,0,0
142.81,177.13,-141.70,414,-5297,-6774,-3,1,-1
142.78,177.08,-141.78,415,-5268,-6739,-2,2,-1
142.76,177.02,-141.80,414,-5228,-6686,-1,2,-1
142.75,176.94,-141.80,434,-5223,-6676,0,2,-1
142.75,176.87,-141.77,451,-5203,-6690,2,3,-1
142.77,176.80,-141.70,466,-5236,-6658,1,2,-1
142.79,176.76,-141.65,440,-5230,-6608,1,1,-1
142.80,176.72,-141.63,457,-5208,-6537,0,0,-1
142.79,176.72,-141.67,453,-5183,-6493,-3,-1,-1
142.78,176.71,-141.75,470,-5179,-6497,-3,-1,-1
142.76,176.73,-141.83,470,-5188,-6557,-4,-1,-1
142.75,176.74,-141.88,490,-5202,-6599,-1,-2,0
142.74,176.78,-141.94,454,-5173,-6578,-3,-2,-1
142.75,176.78,-141.97,470,-5181,-6668,0,-1,-1
142.75,176.79,-141.99,434,-5194,-6642,-2,-1,-1
142.78,176.77,-142.01,461,-5202,-6645,-1,-1,-2
142.81,176.76,-142.02,464,-5192,-6602,-2,-1,-1
142.82,176.77,-142.06,479,-5175,-6592,-2,-1,-1
142.82,176.77,-142.11,477,-5151,-6617,-2,-1,-1
142.82,176.79,-142.15,485,-5159,-6627,-3,-2,0
142.81,176.81,-142.19,469,-5146,-6614,-2,-2,0
142.81,176.85,-142.23,452,-5167,-6625,-2,-2,-1
142.81,176.87,-142.31,448,-5161,-6638,-3,-2,-1
142.81,176.90,-142.37,477,-5130,-6602,-3,-2,0
142.78,176.95,-142.45,477,-5090,-6633,-3,-2,0
142.76,177.00,-142.48,456,-5109,-6667,-2,-2,0
142.74,177.02,-142.52,446,-5132,-6715,-1,-1,0
142.74,177.02,-142.53,439,-5179,-6776,-1,0,-1
142.75,177.01,-142.50,434,-5150,-6730,1,0,-1
142.76,177.00,-142.48,437,-5115,-6696,0,0,-1
142.77,176.97,-142.46,444,-5122,-6705,1,0,-1
142.79,176.96,-142.43,440,-5115,-6645,0,0,-1
142.80,176.94,-142.42,451,-5133,-6654,0,0,-1
142.79,176.95,-142.43,444,-5123,-6654,-1,-1,0
142.79,176.96,-142.44,459,-5130,-6626,-1,-1,0
142.77,176.97,-142.48,434,-5119,-6641,-2,-1,0
142.76,176.98,-142.51,434,-5129,-6649,-2,-1,-1
142.75,176.98,-142.54,445,-5115,-6716,-1,-1,0
142.74,176.99,-142.54,444,-5140,-6718,0,-1,0
142.75,177.00,-142.51,433,-5128,-6716,1,-1,0
142.77,177.00,-142.46,443,-5128,-6691,1,0,0
142.78,177.00,-142.43,436,-5129,-6685,1,0,-1
142.79,176.99,-142.38,443,-5117,-6720,2,0,0
142.81,176.98,-142.31,445,-5115,-6643,2,0,0
142.83,176.98,-142.26,425,-5118,-6622,1,0,0
142.83,176.96,-142.25,435,-5145,-6653,0,0,-1
142.83,176.97,-142.25,437,-5154,-6653,-1,-1,0
142.83,176.96,-142.26,439,-5154,-6663,-1,0,-1
142.83,176.95,-142.28,439,-5145,-6625,-2,-1,-1
142.83,176.93,-142.33,435,-5160,-6643,-2,0,-2
142.82,176.92,-142.41,427,-5139,-6613,-4,-1,-1
142.81,176.93,-142.51,460,-5118,-6598,-4,-2,-1
142.79,176.98,-142.61,443,-5074,-6610,-4,-2,-1
142.78,177.00,-142.66,452,-5114,-6721,-2,-1,0
142.77,177.02,-142.68,434,-5102,-6764,0,-1,0
142.78,177.02,-142.65,435,-5135,-6814,2,0,-1
142.81,177.00,-142.58,422,-5125,-6763,2,0,-1
142.86,176.97,-142.50,437,-5131,-6693,1,0,-1
142.90,176.95,-142.45,436,-5104,-6679,2,0,-1
142.94,176.93,-142.40,436,-5115,-6630,0,0,-1
142.96,176.92,-142.39,444,-5109,-6625,0,0,-1
142.99,176.91,-142.39,427,-5123,-6619,-1,-1,-2
143.00,176.91,-142.44,456,-5132,-6626,-3,-1,-1
143.00,176.91,-142.49,465,-5117,-6649,-2,-2,-1
143.00,176.94,-142.54,457,-5087,-6650,-2,-2,-1
143.01,176.97,-142.56,444,-5093,-6671,-1,-2,0
143.02,177.00,-142.57,441,-5091,-6714,0,-1,-1
143.03,177.00,-142.54,450,-5129,-6728,0,-1,0
143.04,177.01,-142.52,435,-5112,-6724,1,0,-1
143.06,177.01,-142.47,450,-5137,-6722,1,-1,0
143.09,177.00,-142.41,431,-5130,-6706,2,0,-1
143.11,176.98,-142.36,448,-5121,-6664,1,-1,0
143.12,176.99,-142.33,444,-5112,-6632,1,-1,0
143.12,177.01,-142.32,432,-5126,-6629,-1,-1,0
143.11,177.04,-142.33,449,-5129,-6631,-1,-2,0
143.10,177.09,-142.34,432,-5122,-6629,-1,-2,0
143.09,177.13,-142.37,438,-5121,-6641,-1,-2,0
143.07,177.18,-142.38,416,-5123,-6695,0,-2,0
143.07,177.20,-142.38,425,-5148,-6709,0,-1,0
143.06,177.24,-142.37,395,-5138,-6701,0,-1,0
143.07,177.25,-142.34,403,-5144,-6686,1,-1,0
143.08,177.25,-142.30,401,-5129,-6664,1,-1,0
143.08,177.28,-142.28,399,-5137,-6653,0,-1,0
143.09,177.29,-142.26,407,-5149,-6710,1,-1,0
143.10,177.31,-142.21,401,-5155,-6686,1,-1,0
143.11,177.31,-142.18,403,-5151,-6660,1,-1,0
143.10,177.33,-142.16,394,-5135,-6646,0,-1,0
143.11,177.35,-142.12,400,-5145,-6637,1,-1,0
143.10,177.39,-142.11,388,-5143,-6635,0,-2,0
143.10,177.43,-142.10,387,-5163,-6674,0,-1,0
143.10,177.45,-142.07,363,-5151,-6632,0,-1,0
143.09,177.47,-142.06,368,-5173,-6644,0,-1,0
143.09,177.49,-142.05,359,-5157,-6644,0,-1,0
143.09,177.50,-142.03,361,-5164,-6640,0,-1,0
143.09,177.51,-142.02,364,-5174,-6654,0,-1,0
143.09,177.52,-142.00,368,-5177,-6662,0,-1,0
143.08,177.52,-141.99,376,-5179,-6654,0,-1,0
143.09,177.54,-141.97,370,-5175,-6670,0,-1,0
143.09,177.54,-141.94,364,-5169,-6625,1,-1,0
143.09,177.57,-141.93,350,-5161,-6608,0,-1,0
143.09,177.58,-141.92,361,-5174,-6619,0,-1,0
143.08,177.59,-141.93,361,-5181,-6628,-1,-1,0
143.08,177.60,-141.93,358,-5179,-6630,-1,-1,0
143.07,177.62,-141.92,344,-5179,-6646,0,-1,0
143.08,177.63,-141.91,343,-5181,-6627,0,-1,0
143.07,177.64,-141.90,337,-5184,-6634,0,-1,0
143.07,177.66,-141.88,330,-5192,-6638,0,-1,0
143.07,177.67,-141.86,342,-5199,-6638,0,-1,0
143.07,177.67,-141.86,335,-5190,-6631,0,-1,0
143.08,177.68,-141.84,338,-5194,-6635,0,-1,0
143.08,177.68,-141.84,339,-5190,-6643,0,-1,0
143.08,177.68,-141.82,344,-5188,-6627,0,-1,0
143.08,177.69,-141.80,337,-5178,-6627,0,-1,0
143.08,177.70,-141.78,334,-5181,-6627,1,-1,0
143.09,177.71,-141.75,330,-5197,-6630,1,-1,0
143.10,177.72,-141.72,335,-5201,-6623,1,-1,0
143.12,177.73,-141.68,330,-5204,-6621,1,-1,0
143.12,177.74,-141.66,329,-5205,-6607,0,-1,0
143.13,177.74,-141.61,332,-5230,-6663,2,-1,0
143.16,177.75,-141.54,322,-5199,-6572,2,0,0
143.16,177.75,-141.52,330,-5199,-6513,-2,-1,0
143.14,177.78,-141.58,323,-5219,-6545,-3,-1,0
143.12,177.79,-141.64,324,-5229,-6612,-2,-1,0
143.11,177.79,-141.65,315,-5217,-6630,-1,0,-1
143.11,177.79,-141.65,323,-5218,-6621,0,0,0
143.11,177.79,-141.65,324,-5226,-6638,0,0,-1
143.12,177.78,-141.62,328,-5228,-6614,0,0,-1
143.13,177.77,-141.61,322,-5221,-6599,0,0,-1
143.14,177.76,-141.60,322,-5223,-6619,0,0,0
143.14,177.76,-141.58,320,-5204,-6596,0,0,-1
143.14,177.76,-141.57,327,-5221,-6601,0,-1,0
143.15,177.76,-141.57,327,-5223,-6603,0,0,-1
143.15,177.75,-141.56,335,-5228,-6595,-1,-1,0
143.15,177.75,-141.58,333,-5222,-6590,-1,0,-1
143.15,177.75,-141.59,338,-5230,-6597,-1,-1,0
143.14,177.75,-141.62,319,-5214,-6603,-1,0,-1
143.14,177.75,-141.64,325,-5222,-6618,-1,-1,0
143.13,177.75,-141.64,326,-5222,-6621,0,0,-1
143.14,177.76,-141.64,331,-5224,-6614,-1,-1,0
143.14,177.76,-141.64,325,-5223,-6621,0,0,-1
143.13,177.76,-141.64,324,-5219,-6603,-1,-1,0
143.13,177.75,-141.64,321,-5204,-6600,0,0,-1
143.14,177.75,-141.64,323,-5217,-6595,-1,-1,0
143.13,177.75,-141.64,327,-5204,-6603,0,0,-1
143.13,177.76,-141.63,329,-5214,-6615,-1,-1,0
143.13,177.76,-141.63,333,-5214,-6616,0,0,-1
143.13,177.77,-141.62,322,-5217,-6603,-1,-1,0
143.13,177.77,-141.62,334,-5215,-6602,0,0,-1
143.12,177.77,-141.63,323,-5214,-6599,-1,-1,0
143.12,177.78,-141.62,339,-5223,-6607,0,-1,0
143.12,177.79,-141.63,320,-5214,-6608,-1,-1,0
143.12,177.80,-141.62,328,-5225,-6621,0,-1,0
143.11,177.81,-141.63,306,-5218,-6600,-1,-1,0
143.11,177.82,-141.63,320,-5220,-6606,-1,-1,0
143.10,177.83,-141.64,309,-5214,-6603,-1,-1,0
143.11,177.82,-141.65,317,-5222,-6621,0,-1,0
143.10,177.83,-141.64,308,-5204,-6614,0,0,-1
143.11,177.82,-141.63,326,-5214,-6615,0,-1,0
143.12,177.82,-141.60,313,-5208,-6619,1,0,-1
143.14,177.82,-141.57,323,-5219,-6604,1,-1,0
143.15,177.82,-141.53,320,-5225,-6620,1,0,-1
143.17,177.82,-141.48,329,-5237,-6613,1,-1,0
143.18,177.82,-141.44,333,-5233,-6598,1,-1,0
143.20,177.82,-141.40,330,-5236,-6590,1,-1,0
143.21,177.83,-141.36,320,-5234,-6574,1,-1,0
143.23,177.84,-141.33,322,-5253,-6557,0,-1,0
143.22,177.85,-141.32,308,-5260,-6586,0,0,0
143.24,177.84,-141.29,319,-5271,-6593,0,-1,0
143.24,177.85,-141.29,316,-5250,-6572,0,0,-1
143.24,177.84,-141.28,327,-5258,-6572,0,-1,0
143.24,177.85,-141.27,318,-5250,-6569,0,0,0
143.24,177.85,-141.25,310,-5248,-6557,0,-1,0
143.25,177.85,-141.24,328,-5254,-6562,0,-1,0
143.25,177.86,-141.24,315,-5256,-6562,0,-1,0
143.25,177.86,-141.23,322,-5273,-6571,0,-1,0
143.25,177.86,-141.23,302,-5265,-6582,0,0,-1
143.25,177.86,-141.22,314,-5262,-6560,-1,-1,0
143.25,177.86,-141.23,313,-5253,-6567,0,0,-1
143.25,177.86,-141.23,316,-5265,-6589,0,0,0
143.26,177.85,-141.21,323,-5261,-6569,0,0,-1
143.26,177.86,-141.21,315,-5259,-6566,-1,-1,0
143.26,177.85,-141.20,325,-5275,-6581,0,-1,0
143.26,177.85,-141.20,308,-5263,-6575,0,0,-1
143.26,177.86,-141.19,316,-5267,-6576,-1,-1,0
143.25,177.87,-141.19,313,-5260,-6582,0,0,-1
143.25,177.86,-141.18,312,-5262,-6564,0,0,0
143.25,177.86,-141.18,317,-5260,-6559,0,0,0
143.25,177.86,-141.19,313,-5274,-6576,0,0,0
143.27,177.85,-141.17,318,-5273,-6576,0,0,-1
143.26,177.86,-141.18,309,-5263,-6555,-1,-1,0
143.26,177.86,-141.17,310,-5275,-6577,0,0,0
143.26,177.86,-141.16,308,-5262,-6553,0,0,-1
143.26,177.86,-141.16,320,-5260,-6554,-1,-1,0
143.25,177.88,-141.17,308,-5245,-6523,-1,-1,0
143.23,177.90,-141.22,304,-5248,-6494,-3,-1,0
143.19,177.91,-141.29,320,-5268,-6551,-3,-1,0
143.17,177.92,-141.34,302,-5277,-6618,-2,0,-1
143.17,177.91,-141.37,318,-5270,-6615,-1,0,-1
143.15,177.91,-141.39,312,-5264,-6635,-1,0,0
143.16,177.90,-141.38,307,-5263,-6626,0,0,-1
143.17,177.87,-141.37,315,-5240,-6576,0,0,-1
143.17,177.87,-141.38,315,-5231,-6534,-1,-1,0
143.15,177.87,-141.40,315,-5236,-6546,-2,-1,0
143.14,177.87,-141.43,312,-5239,-6569,-2,0,-1
143.13,177.88,-141.47,304,-5242,-6593,-1,-1,0
143.11,177.88,-141.48,303,-5238,-6607,-1,0,0
143.11,177.88,-141.50,302,-5235,-6628,-1,0,-1
143.11,177.88,-141.50,310,-5234,-6632,0,0,-1
143.12,177.87,-141.48,309,-5219,-6606,0,0,-1
143.13,177.87,-141.46,313,-5229,-6603,0,0,0
143.13,177.87,-141.45,314,-5238,-6592,0,-1,0
143.13,177.87,-141.44,314,-5235,-6584,0,-1,0
143.14,177.88,-141.43,312,-5239,-6580,-1,-1,0
143.13,177.88,-141.44,312,-5243,-6585,-1,-1,0
143.13,177.89,-141.44,316,-5244,-6589,0,-1,0
143.13,177.89,-141.44,313,-5240,-6586,-1,-1,0
143.13,177.89,-141.44,310,-5238,-6600,-1,-1,0
143.13,177.90,-141.44,304,-5239,-6611,0,-1,0
143.14,177.90,-141.43,305,-5242,-6582,0,-1,0
143.13,177.91,-141.43,309,-5243,-6588,-1,-1,0
143.13,177.91,-141.44,309,-5248,-6583,-1,-1,0
143.12,177.92,-141.44,305,-5244,-6604,0,-1,0
143.12,177.92,-141.44,309,-5244,-6582,-1,-1,0
143.12,177.92,-141.45,308,-5237,-6571,-1,-1,0
143.12,177.92,-141.45,314,-5233,-6577,0,0,0
143.12,177.93,-141.44,312,-5233,-6598,0,-1,0
143.12,177.93,-141.43,305,-5236,-6580,-1,-1,0
143.11,177.94,-141.45,300,-5241,-6592,-1,-1,0
143.10,177.96,-141.45,297,-5242,-6600,-1,-1,0
143.10,177.96,-141.45,295,-5241,-6601,0,-1,0
143.11,177.96,-141.44,305,-5241,-6594,0,-1,0
143.11,177.96,-141.43,302,-5232,-6595,0,-1,0
143.11,177.98,-141.42,307,-5235,-6588,0,-1,0
143.11,177.99,-141.41,298,-5232,-6596,0,-1,0
143.11,178.00,-141.40,290,-5238,-6591,0,-1,0
143.11,178.01,-141.39,291,-5251,-6595,0,-1,0
143.11,178.01,-141.38,294,-5260,-6598,0,-1,0
143.12,178.01,-141.37,294,-5259,-6590,0,0,0
143.12,178.02,-141.37,293,-5250,-6572,-1,-1,0
143.10,178.02,-141.39,284,-5234,-6574,-1,-1,0
143.09,178.04,-141.40,282,-5240,-6591,-1,-1,0
143.09,178.03,-141.40,282,-5242,-6608,0,0,-1
143.09,178.04,-141.40,293,-5254,-6594,-1,-1,0
143.09,178.04,-141.41,283,-5246,-6595,-1,0,-1
143.09,178.04,-141.40,291,-5259,-6593,-1,-1,0
143.09,178.04,-141.41,282,-5250,-6585,-1,0,0
143.08,178.05,-141.41,294,-5248,-6576,-1,-1,0
143.07,178.06,-141.43,286,-5241,-6592,-1,0,0
143.07,178.06,-141.44,291,-5247,-6592,-1,-1,0
143.07,178.06,-141.44,295,-5246,-6598,0,0,-1
143.07,178.07,-141.44,294,-5251,-6591,-1,-1,0
143.07,178.07,-141.44,285,-5245,-6593,0,0,0
143.06,178.08,-141.42,277,-5242,-6566,-1,-1,0
143.06,178.09,-141.43,275,-5243,-6599,0,0,-1
143.05,178.09,-141.43,276,-5241,-6592,-1,-1,0
143.05,178.09,-141.43,281,-5242,-6605,0,0,0
143.05,178.09,-141.42,278,-5235,-6585,0,-1,0
143.06,178.09,-141.40,283,-5238,-6585,0,0,0
143.06,178.10,-141.40,280,-5240,-6574,-1,-1,0
143.06,178.10,-141.39,287,-5246,-6589,0,0,0
143.05,178.10,-141.38,271,-5240,-6582,0,0,0
143.07,178.10,-141.38,275,-5243,-6591,0,-1,0
143.06,178.11,-141.38,267,-5234,-6576,0,0,0
143.07,178.10,-141.37,289,-5257,-6586,0,-1,0
143.06,178.11,-141.36,278,-5237,-6579,-1,0,-1
143.07,178.11,-141.36,283,-5253,-6582,0,-1,0
143.06,178.12,-141.36,270,-5252,-6595,0,0,-1
143.07,178.12,-141.33,271,-5258,-6582,0,-1,0
143.08,178.12,-141.33,277,-5246,-6573,0,0,0
143.08,178.13,-141.31,278,-5257,-6582,0,-1,0
143.09,178.13,-141.29,273,-5256,-6603,1,0,-1
143.10,178.13,-141.25,272,-5265,-6600,1,-1,0
143.12,178.13,-141.20,274,-5278,-6600,1,0,0
143.13,178.14,-141.16,278,-5271,-6578,1,-1,0
143.15,178.14,-141.13,273,-5258,-6550,1,-1,0
143.16,178.15,-141.10,278,-5269,-6535,0,-1,0
143.15,178.16,-141.09,267,-5271,-6550,0,-1,0
143.16,178.16,-141.07,280,-5277,-6547,0,-1,0
143.16,178.17,-141.07,276,-5271,-6560,0,0,-1
143.17,178.17,-141.05,271,-5285,-6570,0,0,0
143.17,178.16,-141.04,270,-5284,-6578,0,0,-1
143.18,178.16,-141.02,260,-5285,-6546,0,0,0
143.19,178.16,-141.01,264,-5281,-6540,0,-1,0
143.19,178.17,-141.01,260,-5285,-6536,-1,-1,0
143.19,178.16,-141.00,284,-5287,-6540,0,-1,0
143.19,178.17,-140.99,273,-5287,-6546,0,0,0
143.19,178.17,-140.99,276,-5295,-6550,0,-1,0
143.20,178.17,-140.98,275,-5295,-6560,0,0,-1
143.20,178.17,-140.96,273,-5293,-6545,0,0,0
143.20,178.17,-140.96,262,-5294,-6556,0,0,-1
143.20,178.17,-140.96,261,-5289,-6551,0,0,0
143.20,178.17,-140.96,272,-5295,-6545,0,-1,0
143.20,178.17,-140.96,264,-5297,-6549,-1,0,-1
143.20,178.17,-140.97,269,-5293,-6537,-1,-1,0
143.20,178.17,-140.97,265,-5283,-6539,-1,0,0
143.20,178.17,-140.97,270,-5288,-6550,0,-1,0
143.20,178.17,-140.96,268,-5290,-6556,0,0,-1
143.19,178.18,-140.96,265,-5294,-6553,0,-1,0
143.19,178.17,-140.95,268,-5289,-6549,0,0,0
143.20,178.18,-140.94,263,-5291,-6540,0,0,0
143.20,178.18,-140.93,268,-5299,-6541,0,0,-1
143.20,178.18,-140.93,263,-5299,-6544,0,0,0
143.21,178.18,-140.91,267,-5305,-6540,0,0,-1
143.21,178.18,-140.91,265,-5307,-6537,-1,-1,0
143.21,178.18,-140.91,262,-5305,-6531,0,-1,0
143.21,178.18,-140.92,254,-5297,-6526,-1,-1,0
143.20,178.19,-140.92,252,-5297,-6536,0,-1,0
143.20,178.19,-140.92,253,-5292,-6533,0,0,0
143.20,178.19,-140.92,263,-5299,-6551,0,0,-1
143.20,178.19,-140.92,267,-5295,-6548,0,0,-1
143.21,178.19,-140.91,268,-5298,-6538,0,0,0
143.21,178.19,-140.91,264,-5297,-6543,0,-1,-1
143.20,178.19,-140.91,256,-5297,-6543,-1,0,0
143.20,178.18,-140.92,267,-5299,-6545,0,0,-1
143.20,178.18,-140.92,264,-5302,-6542,0,0,-1
143.20,178.18,-140.92,265,-5292,-6548,0,-1,0
143.20,178.18,-140.92,265,-5294,-6543,0,0,-1
143.21,178.18,-140.91,274,-5306,-6547,0,-1,0
143.21,178.18,-140.91,276,-5309,-6546,0,0,0
143.21,178.18,-140.90,275,-5316,-6547,0,-1,0
143.21,178.18,-140.90,268,-5310,-6539,-1,-1,0
143.20,178.19,-140.91,267,-5306,-6541,-1,-1,0
143.20,178.19,-140.91,275,-5302,-6531,-1,-1,0
143.20,178.19,-140.91,278,-5296,-6537,0,-1,0
143.20,178.19,-140.91,273,-5301,-6535,0,-1,0
143.20,178.19,-140.91,267,-5310,-6541,0,0,-1
143.21,178.19,-140.90,277,-5309,-6534,0,-1,0
143.22,178.19,-140.90,266,-5304,-6527,-1,0,0
143.20,178.19,-140.91,264,-5300,-6542,-1,-1,0
143.20,178.19,-140.91,264,-5301,-6543,-1,0,-1
143.20,178.19,-140.91,268,-5307,-6545,0,-1,0
143.20,178.19,-140.91,263,-5304,-6539,-1,0,-1
143.20,178.20,-140.92,263,-5302,-6547,-1,-1,0
143.20,178.19,-140.93,262,-5291,-6547,-1,0,0
143.20,178.20,-140.94,263,-5293,-6553,-1,-1,0
143.19,178.20,-140.94,259,-5297,-6546,-1,0,0
143.19,178.21,-140.94,264,-5296,-6541,-1,0,0
143.19,178.20,-140.95,267,-5296,-6534,-1,-1,0
143.18,178.20,-140.95,263,-5298,-6533,-1,-1,0
143.18,178.21,-140.96,265,-5292,-6532,-1,-1,0
143.18,178.21,-140.97,269,-5298,-6556,-1,0,0
143.18,178.20,-140.97,271,-5300,-6556,-1,-1,0
143.18,178.21,-140.98,263,-5304,-6565,-1,0,-1
143.18,178.20,-140.98,260,-5292,-6551,-1,-1,0
143.18,178.21,-140.99,262,-5292,-6533,-1,-1,0
143.16,178.21,-141.01,265,-5296,-6535,-1,-1,0
143.16,178.21,-141.03,258,-5293,-6546,-1,0,-1
143.16,178.21,-141.03,266,-5296,-6565,-1,0,-1
143.15,178.20,-141.04,268,-5289,-6563,0,0,0
143.15,178.20,-141.04,266,-5288,-6562,0,-1,0
143.15,178.20,-141.04,266,-5285,-6540,-1,-1,0
143.15,178.21,-141.05,264,-5282,-6551,-1,-1,0
143.14,178.22,-141.05,267,-5286,-6560,-1,-1,0
143.14,178.22,-141.06,263,-5291,-6577,-1,-1,0
143.14,178.22,-141.07,266,-5290,-6571,-1,-1,0
143.14,178.22,-141.08,259,-5284,-6557,-1,0,-1
143.14,178.22,-141.08,273,-5283,-6539,-1,-1,0
143.12,178.22,-141.10,259,-5283,-6550,-1,-1,0
143.12,178.23,-141.10,262,-5290,-6556,-1,-1,0
143.12,178.24,-141.11,254,-5289,-6571,-1,-1,-1
143.12,178.23,-141.12,262,-5284,-6564,-1,-1,0
143.11,178.24,-141.13,252,-5276,-6554,-1,0,-1
143.11,178.24,-141.13,264,-5286,-6554,-1,-1,0
143.11,178.25,-141.13,255,-5280,-6563,0,-1,0
143.11,178.25,-141.12,259,-5286,-6566,0,-1,0
143.11,178.25,-141.12,261,-5282,-6558,0,0,-1
143.11,178.25,-141.11,258,-5292,-6558,-1,-1,0
143.11,178.25,-141.12,256,-5283,-6562,-1,0,-1
143.11,178.25,-141.13,253,-5276,-6560,-1,-1,0
143.10,178.25,-141.13,262,-5273,-6578,0,0,-1
143.10,178.26,-141.14,254,-5265,-6556,-1,-1,0
143.10,178.25,-141.14,252,-5269,-6565,0,0,-1
143.10,178.26,-141.14,247,-5269,-6570,0,0,-1
143.11,178.25,-141.13,252,-5269,-6568,0,-1,0
143.11,178.26,-141.11,250,-5263,-6550,0,0,0
143.12,178.25,-141.09,260,-5278,-6548,0,0,-1
143.13,178.25,-141.08,241,-5282,-6551,0,0,-1
143.13,178.23,-141.08,262,-5286,-6547,-1,0,-1
143.12,178.23,-141.10,259,-5270,-6552,-1,0,-1
143.13,178.22,-141.10,266,-5280,-6532,-1,0,-1
143.13,178.20,-141.11,263,-5267,-6542,-1,0,-1
143.14,178.19,-141.11,275,-5275,-6580,0,0,-1
143.15,178.17,-141.09,264,-5274,-6596,1,0,-1
143.16,178.16,-141.06,259,-5273,-6537,0,0,0
143.17,178.16,-141.06,254,-5277,-6581,0,0,-1
143.18,178.14,-141.04,266,-5293,-6552,0,0,-1
143.19,178.11,-141.04,266,-5294,-6564,0,0,-1
143.19,178.09,-141.02,272,-5300,-6595,1,0,-1
143.21,178.08,-140.99,271,-5297,-6582,1,0,-1
143.23,178.08,-140.95,278,-5295,-6560,1,0,-1
143.25,178.06,-140.91,278,-5305,-6571,1,0,-1
143.27,178.06,-140.86,275,-5306,-6539,1,0,-1
143.28,178.05,-140.84,282,-5292,-6564,1,0,-1
143.31,178.06,-140.77,293,-5305,-6555,2,-1,0
143.33,178.08,-140.70,290,-5308,-6544,2,-1,0
143.36,178.09,-140.63,286,-5329,-6535,2,-1,0
143.39,178.10,-140.54,282,-5350,-6577,3,-1,0
143.43,178.10,-140.43,274,-5351,-6539,4,-1,0
143.48,178.11,-140.30,287,-5354,-6528,4,-1,0
143.53,178.12,-140.16,279,-5351,-6464,4,-1,0
143.58,178.14,-140.04,284,-5359,-6458,4,-1,0
143.62,178.18,-139.94,274,-5349,-6379,2,-2,0
143.63,178.21,-139.89,253,-5385,-6390,1,-1,0
143.63,178.23,-139.86,247,-5423,-6426,0,-1,0
143.65,178.24,-139.84,251,-5426,-6402,0,-1,0
143.64,178.26,-139.85,261,-5430,-6387,-1,-1,0
143.63,178.27,-139.89,258,-5426,-6420,-2,-1,0
143.63,178.29,-139.92,263,-5434,-6456,-2,-1,0
143.61,178.29,-139.94,251,-5412,-6473,-1,-1,-1
143.60,178.30,-139.96,264,-5417,-6479,-1,-1,0
143.60,178.30,-139.98,256,-5398,-6473,-1,-1,-1
143.60,178.32,-139.99,267,-5414,-6515,0,-1,0
143.60,178.33,-139.99,249,-5404,-6517,0,-1,-1
143.60,178.33,-139.96,250,-5412,-6470,0,-1,0
143.61,178.35,-139.95,230,-5400,-6453,0,-1,0
143.61,178.36,-139.94,249,-5421,-6441,0,-1,0
143.61,178.37,-139.93,243,-5416,-6471,0,-1,0
143.62,178.38,-139.91,247,-5431,-6470,0,-1,0
143.63,178.38,-139.89,239,-5424,-6478,1,-1,0
143.64,178.41,-139.84,243,-5422,-6447,1,-1,0
143.67,178.42,-139.78,235,-5422,-6461,2,-1,0
143.71,178.44,-139.70,234,-5440,-6478,3,-1,0
143.75,178.45,-139.62,231,-5448,-6454,3,-1,0
143.79,178.47,-139.52,243,-5465,-6421,2,-1,0
