Yaw,Pitch,Roll,AX,AY,AZ,GX,GY,GZ
-150.96,35.49,-76.57,4817,-6579,1568,-1,-1,-1
-150.95,35.50,-76.57,4818,-6574,1559,-1,-1,-1
-150.95,35.50,-76.59,4824,-6573,1558,-1,-1,-1
-150.95,35.50,-76.59,4823,-6578,1559,-1,-1,-1
-150.94,35.50,-76.59,4824,-6576,1563,-1,-1,-1
-150.94,35.50,-76.59,4824,-6581,1567,-1,-1,0
-150.94,35.50,-76.60,4829,-6581,1568,-1,-1,0
-150.94,35.50,-76.60,4823,-6581,1560,-1,-1,0
-150.94,35.50,-76.60,4828,-6580,1553,0,0,0
-150.93,35.51,-76.61,4825,-6577,1557,0,-1,-1
-150.93,35.51,-76.61,4823,-6577,1565,-1,-1,-1
-150.93,35.51,-76.61,4815,-6577,1559,-1,-1,-1
-150.93,35.51,-76.62,4822,-6574,1560,-1,-1,-1
-150.91,35.52,-76.62,4826,-6575,1557,-1,-1,-1
-150.91,35.51,-76.63,4832,-6575,1564,-1,-1,-1
-150.91,35.52,-76.64,4835,-6573,1555,-1,-1,-1
-150.90,35.52,-76.65,4825,-6577,1553,-1,-1,0
-150.89,35.52,-76.66,4815,-6575,1552,-1,-1,-1
-150.89,35.52,-76.66,4821,-6579,1559,-1,0,-1
-150.89,35.52,-76.66,4819,-6576,1562,-1,0,0
-150.88,35.52,-76.67,4830,-6576,1552,-1,-1,-1
-150.88,35.52,-76.68,4831,-6573,1554,-1,-1,0
-150.88,35.53,-76.68,4828,-6570,1556,-1,-1,-1
-150.87,35.52,-76.69,4830,-6572,1550,-1,-1,0
-150.86,35.53,-76.70,4821,-6581,1541,-1,-1,0
-150.86,35.52,-76.71,4825,-6586,1544,-1,-1,0
-150.86,35.52,-76.73,4827,-6587,1538,-1,0,-1
-150.85,35.53,-76.74,4828,-6584,1541,-1,-1,-1
-150.85,35.53,-76.74,4818,-6580,1548,-1,-1,-1
-150.84,35.53,-76.75,4820,-6574,1534,-1,-1,0
-150.84,35.53,-76.76,4827,-6574,1540,-1,-1,0
-150.85,35.51,-76.77,4826,-6577,1531,-1,0,0
-150.85,35.51,-76.76,4820,-6581,1534,0,0,0
-150.85,35.51,-76.76,4816,-6580,1533,-1,0,0
-150.85,35.51,-76.77,4823,-6586,1540,-1,-1,-1
-150.84,35.51,-76.79,4835,-6581,1537,-1,-1,-1
-150.82,35.52,-76.80,4830,-6583,1547,-1,-1,-1
-150.81,35.52,-76.82,4826,-6582,1534,-1,-1,-1
-150.80,35.52,-76.85,4825,-6588,1534,-1,-1,-1
-150.79,35.53,-76.86,4833,-6587,1520,-1,-1,0
-150.78,35.52,-76.88,4829,-6588,1527,-1,-1,0
-150.78,35.52,-76.89,4829,-6587,1521,-1,-1,0
-150.78,35.52,-76.90,4823,-6592,1527,-1,-1,0
-150.78,35.52,-76.92,4823,-6586,1530,-1,-1,0
-150.76,35.52,-76.94,4819,-6580,1520,-1,-1,0
-150.76,35.52,-76.95,4821,-6585,1525,-1,-1,0
-150.77,35.51,-76.95,4818,-6592,1516,-1,0,0
-150.76,35.51,-76.96,4809,-6593,1523,-1,0,0
-150.77,35.50,-76.96,4811,-6589,1524,0,0,0
-150.77,35.50,-76.96,4815,-6591,1526,-1,-1,0
-150.77,35.50,-76.96,4821,-6593,1524,-1,-1,0
-150.76,35.50,-76.98,4826,-6600,1530,-1,-1,0
-150.76,35.50,-76.99,4825,-6587,1525,-1,-1,0
-150.73,35.51,-77.03,4821,-6590,1512,-1,-1,0
-150.73,35.50,-77.05,4822,-6591,1504,-1,-1,0
-150.72,35.50,-77.07,4818,-6598,1500,-1,-1,0
-150.71,35.50,-77.09,4813,-6598,1503,-1,-1,0
-150.71,35.50,-77.11,4820,-6597,1489,-1,0,0
-150.70,35.50,-77.11,4827,-6591,1492,0,0,0
-150.70,35.50,-77.11,4819,-6590,1495,-1,0,0
-150.71,35.50,-77.11,4815,-6590,1503,-1,-1,0
-150.71,35.49,-77.11,4813,-6592,1506,-1,0,0
-150.71,35.49,-77.11,4819,-6600,1499,0,0,0
-150.71,35.49,-77.11,4821,-6601,1505,0,0,0
-150.72,35.48,-77.11,4822,-6601,1506,0,0,0
-150.72,35.48,-77.11,4821,-6602,1498,-1,0,0
-150.72,35.48,-77.12,4823,-6598,1497,-1,-1,-1
-150.71,35.49,-77.13,4819,-6589,1496,-1,-1,0
-150.71,35.49,-77.13,4817,-6588,1498,-1,-1,0
-150.71,35.48,-77.13,4819,-6596,1500,-1,0,0
-150.71,35.48,-77.13,4822,-6588,1498,0,-1,0
-150.71,35.48,-77.13,4826,-6593,1495,0,-1,0
-150.71,35.48,-77.13,4823,-6598,1495,0,0,0
-150.71,35.48,-77.13,4820,-6597,1488,0,0,0
-150.71,35.49,-77.13,4819,-6598,1490,0,0,0
-150.72,35.48,-77.12,4821,-6598,1496,0,0,0
-150.72,35.48,-77.12,4817,-6600,1505,0,0,0
-150.72,35.48,-77.11,4820,-6596,1503,0,0,-1
-150.73,35.48,-77.10,4820,-6590,1503,0,0,0
-150.73,35.48,-77.10,4817,-6595,1501,0,0,0
-150.74,35.47,-77.09,4815,-6598,1505,0,0,-1
-150.74,35.47,-77.09,4815,-6595,1510,0,-1,-1
-150.74,35.47,-77.09,4813,-6597,1511,0,-1,0
-150.74,35.47,-77.09,4815,-6600,1507,0,0,-1
-150.74,35.47,-77.08,4813,-6599,1503,0,0,-1
-150.74,35.47,-77.08,4814,-6597,1501,0,0,-1
-150.75,35.47,-77.06,4815,-6589,1508,0,0,0
-150.76,35.47,-77.05,4815,-6587,1513,0,0,0
-150.77,35.47,-77.03,4810,-6594,1510,0,0,0
-150.78,35.46,-77.03,4814,-6602,1507,0,0,0
-150.79,35.45,-77.01,4811,-6603,1514,0,0,0
-150.80,35.46,-77.00,4809,-6599,1512,0,0,-1
-150.81,35.45,-76.99,4817,-6587,1522,0,0,-1
-150.81,35.45,-76.99,4812,-6588,1528,-1,-1,-1
-150.79,35.46,-76.99,4816,-6593,1523,-1,-1,-1
-150.79,35.46,-76.99,4821,-6591,1513,-1,-1,-1
-150.79,35.46,-76.99,4821,-6592,1513,0,0,0
-150.80,35.46,-76.98,4817,-6596,1517,0,0,0
-150.80,35.46,-76.98,4816,-6595,1514,0,0,0
-150.81,35.45,-76.98,4808,-6594,1503,0,0,0
-150.82,35.45,-76.97,4810,-6595,1507,0,0,0
-150.82,35.45,-76.96,4811,-6593,1515,0,-1,0
-150.82,35.45,-76.95,4809,-6591,1509,0,0,0
-150.82,35.45,-76.95,4809,-6594,1502,0,0,0
-150.83,35.45,-76.94,4807,-6592,1506,0,0,0
-150.85,35.44,-76.92,4806,-6598,1518,0,0,0
-150.87,35.43,-76.89,4807,-6590,1530,0,0,0
-150.88,35.43,-76.88,4808,-6595,1538,0,0,0
-150.88,35.42,-76.88,4813,-6593,1533,0,0,0
-150.88,35.43,-76.88,4814,-6588,1532,0,0,-1
-150.88,35.43,-76.88,4805,-6590,1540,-1,-1,-1
-150.88,35.43,-76.87,4806,-6592,1543,-1,0,-1
-150.87,35.44,-76.88,4813,-6592,1537,0,0,-1
-150.87,35.44,-76.87,4812,-6594,1536,0,0,-1
-150.88,35.43,-76.86,4813,-6595,1516,0,0,0
-150.88,35.43,-76.86,4811,-6593,1520,0,0,0
-150.90,35.43,-76.84,4809,-6592,1532,0,0,-1
-150.90,35.43,-76.83,4808,-6594,1533,0,0,0
-150.91,35.42,-76.82,4810,-6600,1536,0,0,0
-150.91,35.43,-76.81,4808,-6600,1533,0,0,0
-150.92,35.42,-76.81,4809,-6600,1537,0,0,-1
-150.92,35.42,-76.80,4814,-6593,1540,0,0,0
-150.92,35.43,-76.79,4810,-6591,1538,0,0,-1
-150.94,35.42,-76.79,4804,-6592,1537,0,0,0
-150.94,35.42,-76.78,4801,-6595,1550,0,-1,-1
-150.94,35.42,-76.76,4811,-6587,1552,0,0,-1
-150.94,35.43,-76.76,4815,-6586,1541,0,0,-1
-150.94,35.43,-76.76,4813,-6589,1539,0,-1,-1
-150.94,35.43,-76.76,4813,-6586,1545,0,-1,-1
-150.94,35.44,-76.75,4819,-6588,1547,0,0,-1
-150.94,35.44,-76.74,4816,-6595,1551,0,-1,-1
-150.93,35.44,-76.73,4816,-6590,1544,0,0,-1
-150.95,35.44,-76.71,4812,-6589,1537,0,0,-1
-150.95,35.45,-76.70,4815,-6581,1534,0,0,-1
-150.96,35.45,-76.69,4816,-6586,1536,0,0,0
-150.98,35.43,-76.67,4807,-6589,1532,0,-1,0
-150.99,35.43,-76.66,4810,-6588,1547,0,0,0
-151.00,35.42,-76.65,4807,-6585,1553,0,0,0
-151.01,35.42,-76.63,4813,-6582,1560,0,0,-1
-151.02,35.43,-76.62,4816,-6592,1571,0,-1,-1
-151.02,35.43,-76.61,4814,-6592,1576,0,-1,-1
-151.01,35.43,-76.61,4814,-6589,1577,0,-1,-1
-151.01,35.44,-76.61,4815,-6585,1573,0,-1,-1
-151.01,35.44,-76.60,4815,-6576,1562,0,0,-1
-151.02,35.44,-76.59,4809,-6576,1565,0,0,0
-151.03,35.43,-76.58,4804,-6584,1564,0,0,0
-151.04,35.43,-76.57,4809,-6583,1563,0,-1,0
-151.04,35.43,-76.57,4809,-6590,1569,0,-1,-1
-151.05,35.43,-76.56,4812,-6583,1571,0,-1,-1
-151.04,35.44,-76.56,4820,-6582,1565,0,0,-1
-151.04,35.44,-76.55,4823,-6582,1555,0,0,-1
-151.04,35.44,-76.55,4822,-6582,1556,0,0,0
-151.05,35.43,-76.54,4817,-6578,1570,0,0,0
-151.06,35.43,-76.53,4812,-6585,1580,-1,-1,0
-151.07,35.42,-76.53,4809,-6588,1581,-1,0,0
-151.07,35.42,-76.54,4810,-6586,1577,-1,-1,0
-151.05,35.43,-76.56,4814,-6586,1582,-1,-1,-1
-151.05,35.42,-76.57,4808,-6584,1587,-1,-1,-1
-151.03,35.43,-76.60,4810,-6585,1580,-1,-1,-1
-151.02,35.43,-76.62,4809,-6583,1567,-1,-1,0
-151.00,35.44,-76.64,4813,-6587,1564,-1,-1,0
-151.00,35.43,-76.64,4810,-6584,1560,-1,-1,0
-151.00,35.43,-76.65,4814,-6589,1557,-1,-1,0
-150.99,35.43,-76.67,4813,-6592,1556,-1,-1,0
-150.99,35.43,-76.68,4811,-6592,1551,-1,-1,0
-150.99,35.43,-76.69,4811,-6594,1557,-1,-1,0
-150.98,35.43,-76.71,4800,-6590,1551,-1,-1,0
-150.98,35.43,-76.72,4805,-6588,1558,-1,-1,0
-150.97,35.42,-76.73,4809,-6588,1560,-1,-1,0
-150.96,35.43,-76.74,4812,-6583,1549,-1,-1,0
-150.95,35.43,-76.76,4806,-6588,1546,-1,-1,0
-150.94,35.43,-76.78,4806,-6583,1552,-1,-1,0
-150.94,35.43,-76.79,4811,-6590,1548,-1,-1,-1
-150.92,35.43,-76.81,4814,-6591,1554,-1,-1,-1
-150.92,35.43,-76.82,4813,-6596,1543,-1,-1,0
-150.91,35.43,-76.84,4816,-6590,1544,-1,-1,0
-150.91,35.43,-76.85,4814,-6594,1542,-1,-1,0
-150.90,35.43,-76.87,4811,-6594,1532,-1,-1,0
-150.89,35.43,-76.87,4809,-6594,1532,-1,-1,0
-150.89,35.43,-76.88,4813,-6594,1532,-1,-1,0
-150.89,35.43,-76.88,4815,-6593,1538,-1,-1,0
-150.88,35.43,-76.91,4811,-6593,1533,-1,-1,0
-150.87,35.43,-76.93,4807,-6591,1534,-1,-1,0
-150.85,35.44,-76.95,4812,-6592,1524,-1,-1,-1
-150.84,35.44,-76.96,4813,-6591,1532,-1,-1,-1
-150.83,35.44,-76.98,4820,-6588,1531,-1,-1,-1
-150.83,35.44,-76.99,4825,-6587,1534,-1,-1,0
-150.82,35.44,-77.00,4826,-6590,1528,-1,-1,0
-150.82,35.44,-77.02,4817,-6593,1516,-1,-1,0
-150.81,35.44,-77.04,4814,-6597,1510,-1,-1,0
-150.81,35.43,-77.05,4809,-6601,1509,-1,-1,0
-150.80,35.44,-77.06,4817,-6600,1508,-1,-1,-1
-150.79,35.44,-77.07,4814,-6601,1516,-1,-1,-1
-150.78,35.44,-77.10,4814,-6598,1512,-1,-1,-1
-150.76,35.45,-77.12,4819,-6594,1505,-1,-1,-1
-150.74,35.45,-77.15,4814,-6595,1497,-1,-1,-1
-150.74,35.45,-77.17,4816,-6595,1494,-1,-1,0
-150.74,35.45,-77.18,4810,-6597,1496,-1,-1,0
-150.73,35.44,-77.19,4813,-6595,1501,-1,-1,0
-150.73,35.44,-77.21,4804,-6596,1508,-1,-1,0
-150.72,35.44,-77.23,4803,-6595,1500,-1,-1,0
-150.71,35.44,-77.24,4803,-6599,1496,-1,-1,0
-150.70,35.44,-77.26,4810,-6600,1496,-1,-1,0
-150.71,35.43,-77.26,4803,-6602,1493,-1,-1,0
-150.71,35.43,-77.26,4807,-6599,1495,-1,0,0
-150.71,35.43,-77.26,4807,-6602,1490,0,0,0
-150.71,35.43,-77.26,4807,-6606,1492,0,0,0
-150.71,35.43,-77.26,4805,-6608,1491,-1,-1,0
-150.70,35.43,-77.27,4811,-6604,1497,-1,-1,-1
-150.70,35.43,-77.27,4809,-6608,1504,-1,-1,-1
-150.69,35.43,-77.29,4813,-6606,1503,-1,-1,-1
-150.68,35.44,-77.30,4811,-6603,1509,-1,-1,0
-150.68,35.44,-77.31,4809,-6605,1490,-1,-1,0
-150.68,35.43,-77.31,4808,-6608,1478,0,0,0
-150.69,35.43,-77.31,4807,-6607,1477,0,0,0
-150.69,35.43,-77.31,4810,-6615,1482,0,0,0
-150.69,35.43,-77.30,4814,-6612,1483,0,0,0
-150.69,35.43,-77.30,4813,-6609,1488,0,0,-1
-150.70,35.43,-77.29,4813,-6607,1492,0,0,0
-150.70,35.43,-77.28,4812,-6601,1494,0,0,0
-150.70,35.43,-77.28,4805,-6606,1492,0,0,-1
-150.71,35.42,-77.28,4807,-6604,1486,0,0,-1
-150.71,35.42,-77.27,4808,-6607,1495,0,0,-1
-150.71,35.42,-77.27,4812,-6610,1495,0,0,-1
-150.71,35.42,-77.26,4809,-6600,1493,0,0,-1
-150.71,35.42,-77.26,4809,-6601,1492,0,0,-1
-150.71,35.43,-77.26,4814,-6601,1501,0,0,0
-150.72,35.42,-77.25,4806,-6599,1497,0,0,-1
-150.73,35.42,-77.25,4809,-6603,1508,0,-1,-1
-150.72,35.42,-77.24,4825,-6599,1503,0,0,-1
-150.73,35.43,-77.23,4820,-6603,1500,0,0,-1
-150.73,35.43,-77.22,4814,-6600,1514,0,-1,-1
-150.73,35.42,-77.22,4813,-6610,1503,0,0,0
-150.74,35.42,-77.21,4809,-6604,1507,0,0,-1
-150.74,35.43,-77.20,4817,-6600,1494,0,0,0
-150.75,35.42,-77.20,4814,-6600,1501,0,0,-1
-150.74,35.43,-77.19,4813,-6602,1505,0,-1,0
-150.75,35.42,-77.18,4804,-6606,1508,0,0,-1
-150.75,35.42,-77.18,4803,-6603,1493,0,0,-1
-150.75,35.42,-77.18,4799,-6602,1486,0,0,-1
-150.75,35.43,-77.18,4803,-6601,1493,0,0,-1
-150.75,35.43,-77.16,4813,-6599,1494,0,0,-1
-150.76,35.43,-77.15,4809,-6605,1496,0,0,0
-150.77,35.43,-77.14,4807,-6603,1499,0,0,0
-150.78,35.42,-77.13,4801,-6605,1497,0,0,0
-150.79,35.42,-77.11,4806,-6608,1507,0,0,0
-150.81,35.41,-77.09,4801,-6603,1511,0,0,-1
-150.82,35.41,-77.06,4801,-6603,1519,0,0,-1
-150.82,35.42,-77.05,4805,-6601,1526,-1,-1,-1
-150.81,35.42,-77.06,4812,-6594,1507,-1,-1,-1
-150.81,35.42,-77.07,4810,-6594,1507,-1,-1,-1
-150.80,35.42,-77.06,4812,-6599,1505,0,0,0
-150.81,35.42,-77.06,4813,-6598,1505,0,0,0
-150.81,35.42,-77.05,4811,-6606,1506,0,0,0
-150.82,35.42,-77.04,4807,-6604,1518,0,-1,-1
-150.83,35.41,-77.04,4803,-6598,1517,0,-1,0
-150.83,35.41,-77.03,4809,-6596,1518,0,0,-1
-150.83,35.42,-77.02,4808,-6596,1512,0,0,0
-150.84,35.41,-77.01,4809,-6598,1518,0,0,-1
-150.85,35.41,-76.99,4807,-6597,1521,0,0,0
-150.87,35.41,-76.97,4808,-6593,1520,0,0,0
-150.88,35.40,-76.96,4809,-6595,1524,0,0,0
-150.90,35.39,-76.94,4813,-6597,1545,0,0,0
-150.90,35.39,-76.94,4809,-6603,1538,0,-1,-1
-150.89,35.40,-76.94,4809,-6598,1539,-1,-1,-1
-150.88,35.41,-76.96,4811,-6595,1524,-1,-1,-1
-150.88,35.41,-76.96,4812,-6589,1514,-1,-1,0
-150.87,35.41,-76.96,4814,-6584,1515,0,0,0
-150.88,35.41,-76.95,4811,-6592,1517,0,0,0
-150.88,35.41,-76.94,4810,-6597,1522,0,0,0
-150.89,35.40,-76.93,4804,-6598,1522,0,0,0
-150.90,35.40,-76.92,4810,-6607,1534,0,0,0
-150.91,35.39,-76.91,4799,-6599,1534,0,0,0
-150.92,35.39,-76.89,4802,-6596,1528,0,0,0
-150.93,35.39,-76.89,4800,-6596,1535,0,0,0
-150.93,35.39,-76.88,4799,-6598,1540,0,0,-1
-150.93,35.39,-76.86,4804,-6598,1539,0,0,0
-150.95,35.38,-76.86,4798,-6600,1536,0,0,-1
-150.95,35.39,-76.86,4805,-6603,1538,0,-1,-1
-150.94,35.39,-76.85,4810,-6599,1549,0,-1,-1
-150.94,35.39,-76.85,4805,-6597,1548,0,-1,-1
-150.95,35.39,-76.84,4806,-6594,1546,0,-1,0
-150.95,35.39,-76.85,4806,-6593,1535,0,-1,-1
-150.95,35.39,-76.85,4811,-6591,1531,0,0,0
-150.96,35.38,-76.83,4808,-6598,1534,0,0,0
-150.96,35.38,-76.83,4806,-6597,1529,0,0,0
-150.96,35.39,-76.82,4811,-6595,1526,0,0,0
-150.97,35.39,-76.81,4813,-6592,1528,0,0,0
-150.98,35.38,-76.80,4808,-6592,1541,0,0,0
-150.99,35.38,-76.78,4816,-6593,1549,0,0,0
-150.99,35.38,-76.78,4814,-6595,1559,0,-1,0
-151.00,35.38,-76.78,4816,-6601,1551,0,-1,-1
-150.99,35.38,-76.78,4807,-6598,1542,0,-1,-1
-150.99,35.39,-76.79,4807,-6594,1539,0,-1,-1
-150.98,35.40,-76.78,4811,-6588,1534,0,-1,-1
-150.98,35.39,-76.77,4814,-6587,1540,0,0,-1
-150.99,35.39,-76.76,4813,-6591,1555,0,0,0
-151.01,35.39,-76.74,4813,-6588,1562,0,0,0
-151.03,35.37,-76.73,4804,-6589,1558,0,-1,0
-151.04,35.36,-76.72,4796,-6594,1559,0,-1,0
-151.05,35.36,-76.72,4799,-6596,1559,-1,-1,0
-151.04,35.36,-76.74,4802,-6603,1565,-1,-1,-1
-151.04,35.36,-76.73,4803,-6584,1564,-1,-1,-1
-151.03,35.36,-76.75,4801,-6583,1557,-1,-1,-1
-151.01,35.37,-76.77,4808,-6587,1551,-1,-1,-1
-151.01,35.37,-76.77,4814,-6587,1550,-1,-1,0
-151.00,35.37,-76.79,4817,-6590,1561,-1,-1,0
-151.00,35.37,-76.79,4812,-6590,1555,-1,-1,0
-150.99,35.38,-76.80,4811,-6593,1550,-1,-1,0
-150.99,35.37,-76.81,4806,-6589,1546,-1,-1,0
-150.98,35.38,-76.83,4805,-6589,1540,-1,-1,0
-150.98,35.37,-76.84,4809,-6591,1536,-1,-1,0
-150.98,35.37,-76.84,4810,-6589,1536,-1,0,0
-150.98,35.37,-76.85,4805,-6592,1539,-1,0,0
-150.98,35.37,-76.84,4799,-6596,1545,-1,-1,0
-150.98,35.37,-76.84,4799,-6599,1553,-1,-1,0
-150.97,35.37,-76.85,4807,-6601,1554,-1,-1,-1
-150.97,35.37,-76.85,4802,-6597,1557,-1,-1,-1
-150.97,35.37,-76.87,4801,-6598,1562,-1,-1,-1
-150.95,35.37,-76.89,4802,-6602,1554,-1,-1,0
-150.95,35.37,-76.91,4805,-6598,1548,-1,-1,0
-150.93,35.38,-76.93,4806,-6597,1532,-1,-1,0
-150.93,35.37,-76.95,4803,-6598,1532,-1,-1,-1
-150.93,35.37,-76.96,4806,-6600,1531,-1,-1,-1
-150.92,35.37,-76.97,4810,-6597,1533,-1,-1,-1
-150.91,35.37,-76.98,4808,-6603,1530,-1,-1,0
-150.91,35.37,-76.99,4808,-6605,1536,-1,-1,0
-150.91,35.37,-76.99,4804,-6607,1525,-1,-1,0
-150.91,35.37,-77.00,4802,-6614,1524,-1,-1,0
-150.91,35.37,-77.00,4800,-6608,1534,-1,-1,-1
-150.91,35.37,-77.00,4798,-6608,1536,-1,-1,0
-150.89,35.37,-77.03,4799,-6607,1529,-1,-1,-1
-150.89,35.37,-77.04,4798,-6603,1523,-1,-1,-1
-150.87,35.37,-77.06,4800,-6604,1515,-1,-1,-1
-150.87,35.37,-77.08,4800,-6605,1512,-1,-1,-1
-150.85,35.38,-77.10,4803,-6599,1507,-1,-1,0
-150.85,35.37,-77.11,4801,-6607,1511,-1,-1,-1
-150.84,35.38,-77.12,4797,-6608,1511,-1,-1,-1
-150.82,35.38,-77.15,4802,-6602,1508,-1,-1,-1
-150.82,35.38,-77.15,4809,-6601,1519,-1,-1,-1
-150.81,35.39,-77.16,4816,-6599,1521,-1,-1,-1
-150.80,35.39,-77.17,4811,-6596,1510,-1,-1,-1
-150.80,35.39,-77.17,4816,-6594,1522,-1,-1,0
-150.80,35.39,-77.19,4809,-6590,1520,-1,-1,0
-150.79,35.38,-77.21,4805,-6601,1515,-1,-1,0
-150.80,35.37,-77.23,4796,-6610,1515,-1,0,0
-150.79,35.37,-77.23,4798,-6618,1516,-1,-1,0
-150.78,35.37,-77.24,4802,-6618,1506,-1,-1,0
-150.78,35.37,-77.26,4803,-6612,1504,-1,-1,-1
-150.76,35.37,-77.28,4808,-6608,1500,-1,-1,-1
-150.76,35.37,-77.29,4805,-6607,1503,-1,-1,-1
-150.75,35.37,-77.31,4809,-6614,1487,-1,-1,-1
-150.74,35.37,-77.32,4809,-6619,1495,-1,-1,0
-150.73,35.38,-77.34,4802,-6620,1483,-1,-1,0
-150.73,35.37,-77.34,4807,-6621,1477,-1,-1,0
-150.73,35.37,-77.35,4803,-6612,1487,-1,-1,0
-150.73,35.37,-77.35,4812,-6615,1494,-1,-1,0
-150.72,35.38,-77.36,4809,-6611,1481,-1,-1,0
-150.73,35.37,-77.37,4801,-6607,1474,-1,0,0
-150.73,35.37,-77.37,4796,-6612,1474,0,0,0
-150.73,35.37,-77.35,4809,-6610,1476,0,0,-1
-150.74,35.36,-77.35,4801,-6611,1488,0,0,-1
-150.74,35.36,-77.35,4800,-6610,1492,0,0,0
-150.75,35.36,-77.34,4801,-6615,1495,-1,-1,0
-150.75,35.36,-77.34,4796,-6615,1489,-1,-1,-1
-150.74,35.36,-77.35,4797,-6608,1487,-1,-1,-1
-150.73,35.36,-77.36,4800,-6608,1485,-1,-1,-1
-150.73,35.37,-77.36,4803,-6618,1480,-1,0,-1
-150.73,35.36,-77.36,4804,-6617,1486,0,0,-1
-150.73,35.37,-77.35,4806,-6613,1485,0,0,0
-150.75,35.36,-77.34,4810,-6605,1476,0,0,0
-150.74,35.36,-77.34,4806,-6611,1488,0,0,0
-150.75,35.36,-77.33,4803,-6613,1480,0,0,0
-150.76,35.36,-77.32,4795,-6619,1488,0,0,0
-150.76,35.36,-77.31,4797,-6615,1493,0,0,0
-150.77,35.35,-77.30,4803,-6618,1494,0,0,-1
-150.77,35.35,-77.30,4803,-6609,1486,-1,-1,0
-150.77,35.35,-77.30,4806,-6612,1493,0,0,0
-150.77,35.35,-77.30,4803,-6615,1488,0,0,0
-150.77,35.35,-77.30,4797,-6612,1489,0,-1,-1
-150.77,35.35,-77.30,4794,-6608,1494,0,-1,-1
-150.77,35.36,-77.30,4797,-6613,1496,0,-1,-1
-150.77,35.36,-77.30,4798,-6612,1494,0,0,-1
-150.77,35.36,-77.29,4805,-6617,1500,0,0,-1
-150.78,35.35,-77.27,4807,-6617,1507,0,0,0
-150.79,35.35,-77.26,4799,-6612,1496,0,0,0
-150.79,35.35,-77.25,4799,-6607,1494,0,0,-1
-150.79,35.35,-77.25,4796,-6611,1495,0,0,0
-150.80,35.35,-77.23,4795,-6609,1490,0,0,-1
-150.80,35.36,-77.22,4798,-6604,1503,0,0,-1
-150.80,35.36,-77.21,4801,-6606,1506,0,0,-1
-150.81,35.36,-77.20,4807,-6600,1503,0,-1,-1
-150.81,35.36,-77.20,4810,-6602,1510,0,0,0
-150.81,35.36,-77.19,4808,-6607,1508,0,0,0
-150.82,35.35,-77.18,4802,-6611,1497,0,0,0
-150.83,35.35,-77.17,4796,-6610,1509,0,0,-1
-150.84,35.35,-77.16,4793,-6610,1505,0,0,-1
-150.84,35.35,-77.14,4796,-6605,1513,0,0,-1
-150.84,35.36,-77.14,4803,-6600,1515,-1,-1,-1
-150.83,35.36,-77.15,4798,-6592,1506,-1,-1,-1
-150.83,35.36,-77.14,4805,-6598,1506,0,-1,-1
-150.83,35.36,-77.13,4809,-6599,1505,0,0,-1
-150.83,35.36,-77.13,4805,-6601,1507,0,0,0
-150.84,35.36,-77.12,4802,-6603,1506,0,0,0
-150.85,35.36,-77.11,4800,-6608,1516,0,0,0
-150.85,35.36,-77.10,4799,-6611,1517,0,-1,-1
-150.85,35.36,-77.10,4800,-6601,1519,0,-1,-1
-150.86,35.36,-77.09,4805,-6605,1516,0,0,-1
-150.86,35.36,-77.08,4800,-6602,1513,0,0,-1
-150.87,35.36,-77.07,4807,-6601,1510,0,0,-1
-150.88,35.36,-77.05,4804,-6600,1517,0,0,0
-150.88,35.36,-77.04,4800,-6602,1516,0,0,0
-150.90,35.35,-77.02,4804,-6603,1514,0,-1,0
-150.90,35.35,-77.02,4810,-6609,1526,0,-1,0
-150.91,35.35,-77.01,4801,-6604,1530,0,-1,0
-150.91,35.35,-77.01,4801,-6601,1524,-1,-1,-1
-150.91,35.35,-77.01,4799,-6603,1527,-1,-1,-1
-150.90,35.36,-77.01,4802,-6603,1530,-1,-1,-1
-150.91,35.35,-77.01,4800,-6602,1532,0,0,-1
-150.90,35.36,-77.00,4803,-6599,1520,0,0,-1
-150.92,35.35,-77.00,4797,-6601,1519,0,0,0
-150.92,35.35,-76.99,4798,-6597,1526,0,0,-1
-150.92,35.35,-76.98,4796,-6597,1526,0,0,0
-150.93,35.35,-76.98,4807,-6599,1525,0,0,-1
-150.93,35.35,-76.96,4806,-6606,1528,0,0,0
-150.94,35.34,-76.95,4796,-6598,1534,0,0,0
-150.95,35.34,-76.94,4797,-6602,1541,0,-1,0
-150.96,35.34,-76.93,4802,-6603,1537,0,-1,-1
-150.96,35.34,-76.92,4795,-6599,1538,0,0,-1
-150.96,35.34,-76.92,4802,-6595,1543,0,-1,-1
-150.95,35.35,-76.92,4802,-6593,1539,0,-1,-1
-150.95,35.35,-76.91,4801,-6585,1522,0,-1,-1
-150.96,35.35,-76.91,4797,-6588,1534,0,0,-1
-150.96,35.35,-76.90,4805,-6595,1535,0,-1,-1
-150.96,35.35,-76.90,4804,-6598,1537,0,0,-1
-150.97,35.35,-76.88,4801,-6595,1543,0,0,-1
-150.97,35.35,-76.87,4800,-6588,1540,0,0,-1
-150.98,35.36,-76.86,4804,-6587,1547,0,0,0
-150.98,35.35,-76.85,4799,-6599,1548,0,0,-1
-150.99,35.35,-76.84,4797,-6604,1550,0,-1,0
-150.99,35.35,-76.84,4799,-6601,1547,0,0,-1
-150.99,35.35,-76.84,4794,-6598,1543,0,0,-1
-150.99,35.35,-76.83,4798,-6596,1546,0,0,-1
-150.99,35.36,-76.82,4804,-6591,1550,0,0,-1
-150.99,35.36,-76.81,4811,-6586,1551,0,-1,0
-151.00,35.35,-76.81,4808,-6587,1552,0,-1,0
-151.00,35.36,-76.80,4801,-6589,1543,0,0,0
-151.01,35.35,-76.79,4802,-6593,1554,0,0,0
-151.03,35.34,-76.78,4798,-6603,1556,0,0,0
-151.03,35.34,-76.78,4796,-6603,1546,-1,-1,0
-151.03,35.34,-76.78,4802,-6602,1547,0,-1,-1
-151.03,35.34,-76.79,4804,-6595,1560,-1,-1,-1
-151.02,35.34,-76.80,4809,-6596,1553,-1,-1,-1
-151.00,35.35,-76.81,4809,-6599,1552,-1,-1,-1
-151.00,35.35,-76.83,4808,-6599,1542,-1,-1,-1
-150.99,35.35,-76.84,4811,-6599,1539,-1,-1,0
-150.99,35.35,-76.85,4805,-6598,1541,-1,-1,0
-150.99,35.35,-76.86,4805,-6594,1545,-1,-1,-1
-150.98,35.35,-76.86,4804,-6594,1539,-1,-1,0
-150.98,35.35,-76.87,4799,-6597,1535,-1,0,0
-150.99,35.35,-76.86,4798,-6594,1536,0,0,0
-150.98,35.35,-76.86,4805,-6591,1525,0,0,0
-150.98,35.35,-76.86,4804,-6595,1527,-1,0,0
-150.98,35.35,-76.87,4802,-6596,1531,-1,0,0
-150.99,35.35,-76.86,4799,-6596,1536,0,0,0
-150.99,35.35,-76.86,4800,-6599,1536,-1,-1,0
-150.99,35.35,-76.86,4805,-6597,1538,-1,-1,-1
-150.98,35.35,-76.87,4800,-6602,1541,-1,-1,-1
-150.97,35.35,-76.89,4802,-6598,1542,-1,-1,-1
-150.95,35.36,-76.91,4811,-6597,1545,-1,-1,-1
-150.94,35.36,-76.94,4817,-6602,1532,-1,-1,0
-150.94,35.36,-76.95,4812,-6601,1521,-1,-1,0
-150.93,35.35,-76.97,4810,-6600,1518,-1,-1,0
-150.93,35.35,-76.97,4806,-6597,1519,-1,0,0
-150.93,35.35,-76.98,4808,-6598,1513,-1,-1,0
-150.93,35.35,-76.98,4803,-6598,1516,-1,-1,0
-150.93,35.34,-76.99,4802,-6601,1527,-1,-1,0
-150.93,35.34,-77.00,4804,-6600,1525,-1,-1,0
-150.92,35.35,-77.00,4802,-6604,1524,-1,-1,-1
-150.91,35.35,-77.01,4801,-6607,1527,-1,-1,-1
-150.91,35.35,-77.01,4808,-6605,1535,-1,-1,-1
-150.91,35.35,-77.02,4809,-6603,1538,-1,-1,-1
-150.90,35.35,-77.03,4806,-6605,1536,-1,-1,0
-150.89,35.35,-77.04,4808,-6605,1528,-1,-1,-1
-150.89,35.35,-77.06,4802,-6605,1530,-1,-1,-1
-150.88,35.35,-77.07,4808,-6602,1524,-1,-1,-1
-150.87,35.36,-77.08,4811,-6600,1518,-1,-1,0
-150.87,35.35,-77.10,4814,-6600,1517,-1,-1,0
-150.87,35.35,-77.11,4812,-6599,1517,-1,-1,0
-150.86,35.35,-77.12,4810,-6602,1525,-1,-1,0
-150.85,35.35,-77.15,4802,-6605,1520,-1,-1,0
-150.84,35.34,-77.17,4793,-6609,1516,-1,-1,0
-150.83,35.35,-77.19,4800,-6606,1507,-1,-1,0
-150.82,35.35,-77.21,4804,-6614,1511,-1,-1,-1
-150.81,35.35,-77.22,4796,-6605,1516,-1,-1,-1
-150.80,35.35,-77.22,4796,-6602,1510,-1,-1,0
-150.81,35.35,-77.24,4805,-6600,1504,-1,-1,0
-150.81,35.34,-77.25,4803,-6604,1497,-1,-1,0
-150.80,35.34,-77.25,4799,-6608,1499,-1,-1,0
-150.80,35.34,-77.26,4800,-6612,1493,-1,-1,0
-150.80,35.34,-77.28,4798,-6613,1493,-1,-1,-1
-150.79,35.34,-77.29,4796,-6615,1499,-1,-1,-1
-150.77,35.35,-77.30,4805,-6608,1493,-1,-1,-1
-150.77,35.35,-77.31,4815,-6603,1489,-1,-1,0
-150.76,35.35,-77.33,4813,-6597,1496,-2,-1,0
-150.75,35.35,-77.35,4813,-6603,1479,-1,-1,0
-150.75,35.35,-77.36,4811,-6601,1479,-1,-1,0
-150.75,35.35,-77.37,4806,-6609,1479,-1,-1,0
-150.74,35.34,-77.37,4807,-6617,1478,-1,-1,0
-150.74,35.34,-77.39,4807,-6618,1474,-1,-1,0
-150.74,35.34,-77.39,4800,-6615,1471,-1,-1,0
-150.74,35.34,-77.39,4804,-6608,1472,0,0,0
-150.75,35.34,-77.38,4806,-6615,1480,0,0,0
-150.75,35.34,-77.37,4804,-6618,1484,0,0,0
-150.76,35.34,-77.36,4804,-6615,1490,0,0,0
-150.77,35.33,-77.34,4803,-6618,1495,0,0,0
-150.77,35.33,-77.33,4798,-6615,1499,0,0,-1
-150.77,35.33,-77.33,4801,-6612,1501,0,-1,-1
-150.77,35.34,-77.33,4804,-6614,1496,-1,-1,-1
-150.77,35.33,-77.33,4800,-6617,1496,0,0,0
-150.77,35.34,-77.33,4799,-6607,1487,0,-1,-1
-150.77,35.33,-77.33,4799,-6612,1478,-1,0,0
-150.77,35.34,-77.33,4805,-6611,1477,0,0,-1
-150.77,35.34,-77.32,4806,-6610,1484,0,0,0
-150.78,35.34,-77.31,4808,-6615,1477,0,0,-1
-150.79,35.33,-77.31,4807,-6616,1478,0,0,0
-150.79,35.33,-77.30,4804,-6617,1473,0,0,0
-150.80,35.33,-77.30,4801,-6622,1475,0,0,0
-150.81,35.32,-77.28,4801,-6615,1478,0,0,-1
-150.80,35.33,-77.28,4803,-6613,1486,0,0,-1
-150.82,35.32,-77.27,4800,-6614,1486,0,0,0
-150.81,35.33,-77.26,4803,-6607,1487,0,0,0
-150.81,35.33,-77.26,4804,-6609,1493,0,0,-1
-150.81,35.33,-77.25,4804,-6612,1497,0,0,-1
-150.81,35.33,-77.25,4798,-6610,1500,-1,-1,0
-150.82,35.33,-77.25,4794,-6610,1502,-1,-1,0
-150.82,35.33,-77.25,4791,-6615,1504,0,0,-1
-150.81,35.33,-77.25,4790,-6612,1499,0,0,-1
-150.82,35.33,-77.24,4791,-6609,1487,0,0,-1
-150.82,35.33,-77.23,4797,-6608,1484,0,0,-1
-150.82,35.34,-77.22,4798,-6605,1483,0,0,-1
-150.83,35.33,-77.20,4795,-6608,1495,0,0,0
-150.85,35.33,-77.18,4796,-6609,1490,0,0,-1
-150.85,35.33,-77.17,4794,-6610,1497,0,0,-1
-150.86,35.33,-77.14,4800,-6608,1510,0,0,-1
-150.86,35.34,-77.13,4804,-6605,1520,0,0,-1
-150.87,35.34,-77.12,4804,-6603,1512,-1,0,-1
-150.86,35.34,-77.13,4803,-6605,1506,-1,-1,-1
-150.86,35.34,-77.13,4805,-6604,1507,0,0,0
-150.86,35.34,-77.13,4805,-6603,1499,0,0,0
-150.87,35.33,-77.11,4798,-6616,1490,0,0,0
-150.88,35.33,-77.10,4797,-6615,1488,0,0,0
-150.90,35.31,-77.08,4796,-6608,1495,0,0,0
-150.92,35.31,-77.06,4791,-6614,1499,0,0,0
-150.94,35.30,-77.05,4792,-6622,1511,0,0,-1
-150.94,35.30,-77.04,4793,-6617,1512,0,0,-1
-150.94,35.30,-77.03,4791,-6618,1511,0,0,-1
-150.94,35.31,-77.03,4785,-6613,1506,0,-1,-1
-150.94,35.32,-77.02,4785,-6609,1508,0,0,-1
-150.94,35.32,-77.00,4793,-6599,1516,0,0,-1
-150.94,35.33,-76.99,4796,-6602,1511,0,0,-1
-150.94,35.33,-76.98,4800,-6600,1513,0,0,0
-150.96,35.32,-76.97,4798,-6601,1524,0,0,0
-150.96,35.32,-76.97,4797,-6606,1526,0,-1,0
-150.96,35.32,-76.97,4794,-6606,1524,0,-1,0
-150.97,35.31,-76.96,4792,-6604,1525,0,0,0
-150.97,35.31,-76.96,4794,-6607,1525,0,0,0
-150.97,35.31,-76.96,4792,-6608,1522,0,0,-1
-150.98,35.30,-76.95,4794,-6617,1520,0,0,-1
-150.99,35.31,-76.94,4788,-6614,1521,0,0,-1
-150.99,35.31,-76.93,4788,-6613,1514,0,0,-1
-150.99,35.31,-76.92,4790,-6610,1517,0,0,-1
-151.01,35.31,-76.89,4787,-6599,1522,0,0,-1
-151.02,35.31,-76.87,4794,-6601,1532,0,0,-1
-151.02,35.31,-76.85,4798,-6600,1532,0,0,0
-151.02,35.32,-76.84,4802,-6596,1539,0,0,-1
-151.03,35.31,-76.83,4802,-6593,1540,0,0,0
-151.04,35.31,-76.82,4797,-6594,1538,0,0,0
-151.04,35.31,-76.82,4802,-6602,1528,0,0,0
-151.05,35.31,-76.81,4798,-6599,1528,0,0,0
-151.05,35.31,-76.81,4803,-6604,1538,-1,-1,0
-151.05,35.30,-76.82,4795,-6610,1537,-1,-1,0
-151.05,35.30,-76.81,4796,-6608,1528,0,0,0
-151.05,35.30,-76.81,4791,-6605,1527,0,0,-1
-151.05,35.31,-76.81,4794,-6604,1526,0,0,-1
-151.06,35.31,-76.80,4796,-6607,1522,0,0,-1
-151.07,35.30,-76.78,4799,-6599,1526,0,0,0
-151.08,35.30,-76.77,4796,-6598,1529,0,0,0
-151.09,35.29,-76.76,4792,-6603,1535,0,0,0
-151.11,35.29,-76.75,4788,-6604,1539,0,0,0
-151.11,35.28,-76.74,4784,-6604,1541,0,-1,0
-151.12,35.29,-76.73,4795,-6608,1545,0,-1,-1
-151.12,35.29,-76.72,4804,-6600,1553,0,-1,-1
-151.11,35.30,-76.73,4807,-6596,1555,-1,-1,-1
-151.10,35.30,-76.73,4807,-6596,1548,-1,-1,-1
-151.10,35.30,-76.73,4800,-6601,1544,0,-1,-1
-151.11,35.30,-76.73,4800,-6597,1540,0,-1,0
-151.11,35.30,-76.73,4793,-6600,1543,0,0,0
-151.11,35.29,-76.73,4792,-6606,1549,0,0,0
-151.11,35.29,-76.73,4794,-6605,1543,-1,-1,0
-151.11,35.29,-76.73,4793,-6603,1538,-1,-1,0
-151.11,35.29,-76.75,4788,-6610,1530,0,0,-1
-151.11,35.29,-76.75,4795,-6606,1536,0,0,-1
-151.11,35.29,-76.75,4795,-6607,1533,0,0,0
-151.11,35.29,-76.74,4798,-6609,1534,0,0,0
-151.12,35.29,-76.73,4794,-6604,1539,0,0,0
-151.12,35.28,-76.73,4794,-6602,1541,0,0,0
-151.12,35.28,-76.73,4790,-6605,1540,-1,-1,0
-151.12,35.28,-76.74,4791,-6608,1535,-1,-1,-1
-151.11,35.28,-76.76,4787,-6605,1535,-1,-1,-1
-151.10,35.29,-76.77,4791,-6599,1536,-1,-1,-1
-151.09,35.29,-76.79,4794,-6604,1533,-1,-1,-1
-151.09,35.28,-76.81,4794,-6607,1531,-1,-1,0
-151.08,35.29,-76.81,4799,-6606,1527,-1,-1,0
-151.08,35.29,-76.82,4798,-6604,1534,-1,-1,0
-151.08,35.29,-76.82,4799,-6603,1545,-1,-1,0
-151.08,35.29,-76.82,4794,-6606,1541,-1,-1,0
-151.08,35.28,-76.83,4794,-6606,1539,-1,-1,0
-151.08,35.28,-76.83,4786,-6613,1533,-1,-1,0
-151.08,35.28,-76.84,4791,-6608,1518,-1,-1,0
-151.08,35.28,-76.85,4791,-6609,1524,-1,-1,-1
-151.07,35.28,-76.86,4792,-6609,1526,-1,-1,-1
-151.07,35.28,-76.87,4793,-6606,1532,-1,-1,-1
-151.06,35.28,-76.88,4786,-6606,1529,-1,-1,-1
-151.05,35.29,-76.89,4790,-6602,1528,-1,-1,-1
-151.05,35.28,-76.90,4791,-6601,1516,-1,-1,0
-151.04,35.29,-76.91,4791,-6605,1512,-1,-1,0
-151.03,35.28,-76.92,4793,-6608,1516,-1,-1,0
-151.03,35.28,-76.93,4794,-6609,1516,-1,-1,0
-151.03,35.28,-76.94,4793,-6603,1525,-1,0,0
-151.03,35.28,-76.94,4800,-6606,1519,0,0,0
-151.03,35.28,-76.94,4799,-6605,1515,-1,-1,0
-151.03,35.28,-76.95,4801,-6607,1521,-1,-1,0
-151.02,35.28,-76.97,4800,-6604,1513,-1,-1,0
-151.00,35.28,-76.99,4800,-6611,1518,-1,-1,0
-150.99,35.28,-77.01,4793,-6614,1509,-1,-1,-1
-150.98,35.29,-77.02,4802,-6615,1510,-1,-1,-1
-150.97,35.29,-77.04,4799,-6613,1507,-1,-1,-1
-150.97,35.29,-77.05,4808,-6615,1505,-1,-1,0
-150.97,35.29,-77.06,4809,-6608,1501,-1,-1,0
-150.97,35.28,-77.07,4798,-6602,1501,-1,0,0
-150.96,35.28,-77.08,4789,-6605,1497,-1,0,0
-150.96,35.28,-77.09,4793,-6600,1495,-1,0,0
-150.97,35.27,-77.09,4791,-6605,1497,-1,-1,-1
-150.95,35.28,-77.10,4791,-6608,1507,-1,-1,-1
-150.94,35.29,-77.12,4795,-6612,1496,-1,-1,-1
-150.93,35.29,-77.14,4800,-6607,1488,-1,-1,-1
-150.92,35.29,-77.16,4807,-6608,1479,-1,-1,0
-150.91,35.29,-77.18,4801,-6608,1487,-1,-1,0
-150.90,35.29,-77.19,4798,-6611,1488,-1,-1,0
-150.90,35.29,-77.20,4794,-6618,1487,-1,-1,0
-150.90,35.28,-77.21,4797,-6620,1491,-1,-1,-1
-150.90,35.28,-77.21,4793,-6618,1491,-1,-1,-1
-150.90,35.29,-77.22,4798,-6618,1484,-1,-1,-1
-150.89,35.28,-77.22,4802,-6622,1483,-1,0,0
-150.89,35.28,-77.22,4800,-6617,1481,0,0,0
-150.90,35.29,-77.22,4800,-6621,1482,0,0,0
-150.90,35.28,-77.21,4800,-6623,1483,0,0,0
-150.90,35.28,-77.20,4794,-6617,1483,0,0,0
-150.91,35.28,-77.19,4798,-6614,1486,0,0,-1
-150.91,35.29,-77.19,4805,-6618,1499,0,-1,-1
-150.91,35.29,-77.19,4801,-6615,1496,-1,-1,-1
-150.90,35.28,-77.20,4795,-6615,1495,-1,-1,-1
-150.90,35.29,-77.21,4789,-6618,1486,-1,-1,0
-150.90,35.29,-77.21,4791,-6624,1473,0,0,0
-150.90,35.28,-77.21,4795,-6623,1477,0,0,0
-150.90,35.28,-77.21,4792,-6620,1474,0,0,-1
-150.91,35.28,-77.20,4798,-6621,1484,0,0,0
-150.91,35.28,-77.20,4793,-6621,1480,0,0,0
-150.91,35.28,-77.19,4794,-6625,1484,0,0,0
-150.91,35.28,-77.19,4797,-6619,1479,0,0,0
-150.92,35.28,-77.18,4797,-6615,1481,0,0,-1
-150.92,35.28,-77.18,4800,-6613,1484,0,0,-1
-150.92,35.28,-77.18,4794,-6621,1478,0,0,-1
-150.92,35.28,-77.17,4796,-6616,1479,0,0,-1
-150.93,35.28,-77.17,4797,-6615,1483,0,0,0
-150.93,35.28,-77.17,4797,-6619,1483,0,0,0
-150.93,35.28,-77.17,4804,-6615,1494,0,-1,-1
-150.93,35.28,-77.16,4803,-6614,1485,0,0,-1
-150.93,35.28,-77.16,4797,-6608,1490,0,0,-1
-150.93,35.28,-77.16,4796,-6611,1490,0,0,-1
-150.94,35.28,-77.15,4793,-6615,1490,0,0,-1
-150.92,35.29,-77.15,4796,-6615,1482,0,0,-1
-150.92,35.29,-77.15,4799,-6620,1486,0,0,-1
-150.92,35.29,-77.15,4798,-6619,1476,0,0,-1
-150.93,35.29,-77.14,4803,-6617,1490,0,0,-1
-150.93,35.29,-77.14,4805,-6616,1505,0,0,-1
-150.94,35.29,-77.12,4797,-6613,1502,0,0,-1
-150.95,35.29,-77.10,4797,-6613,1500,0,0,0
-150.96,35.28,-77.10,4799,-6613,1504,0,-1,0
-150.96,35.28,-77.10,4792,-6618,1499,0,0,0
-150.96,35.28,-77.10,4799,-6614,1497,0,0,-1
-150.95,35.29,-77.09,4806,-6612,1500,0,0,-1
-150.96,35.29,-77.07,4808,-6610,1497,0,0,-1
-150.96,35.29,-77.06,4802,-6612,1509,0,0,0
-150.98,35.28,-77.04,4805,-6616,1512,0,0,0
-151.00,35.28,-77.02,4801,-6617,1507,0,0,0
-151.01,35.27,-77.01,4792,-6621,1501,0,0,0
-151.02,35.27,-76.99,4792,-6615,1505,0,0,0
-151.04,35.26,-76.97,4792,-6612,1515,0,0,-1
-151.04,35.27,-76.95,4797,-6614,1517,0,0,-1
-151.03,35.27,-76.96,4798,-6615,1514,-1,-1,-1
-151.03,35.27,-76.97,4802,-6612,1508,0,-1,-1
-151.02,35.28,-76.96,4802,-6611,1511,0,-1,-1
-151.02,35.28,-76.96,4805,-6609,1510,0,0,0
-151.02,35.28,-76.96,4802,-6605,1505,0,0,0
-151.03,35.28,-76.95,4800,-6610,1515,0,0,0
-151.03,35.27,-76.95,4800,-6615,1508,0,0,0
-151.03,35.28,-76.94,4798,-6612,1516,0,0,0
-151.04,35.27,-76.94,4800,-6614,1519,0,0,0
-151.04,35.27,-76.93,4806,-6608,1521,0,0,0
-151.05,35.27,-76.93,4801,-6611,1513,0,0,0
-151.06,35.27,-76.92,4795,-6613,1517,0,0,0
-152.51,179.40,176.14,-258,-258,-258,-258,-258,-258
-151.09,35.25,-76.88,4791,-6612,1522,0,0,0
-151.09,35.25,-76.87,4792,-6606,1530,0,0,-1
-151.10,35.26,-76.86,4795,-6607,1520,0,0,-1
-151.10,35.26,-76.86,4793,-6605,1518,0,0,-1
-151.09,35.26,-76.86,4801,-6601,1522,-1,-1,-1
-151.08,35.27,-76.87,4803,-6609,1529,0,-1,-1
-151.08,35.27,-76.87,4804,-6610,1522,0,0,0
-151.08,35.27,-76.87,4799,-6609,1518,0,0,0
-151.09,35.26,-76.86,4794,-6615,1510,0,0,0
-151.10,35.26,-76.86,4789,-6617,1522,0,0,0
-151.10,35.26,-76.85,4795,-6614,1527,0,0,0
-151.11,35.26,-76.84,4796,-6616,1524,0,0,0
-151.12,35.25,-76.83,4799,-6611,1517,0,0,0
-151.12,35.26,-76.82,4802,-6610,1517,0,0,0
-151.12,35.26,-76.81,4794,-6609,1515,0,0,0
-151.14,35.25,-76.80,4786,-6617,1524,0,0,-1
-151.14,35.25,-76.80,4788,-6617,1531,0,0,0
-151.14,35.25,-76.79,4786,-6622,1537,0,0,-1
-151.15,35.25,-76.78,4791,-6621,1539,0,0,-1
-151.15,35.25,-76.78,4790,-6620,1532,0,0,-1
-151.14,35.25,-76.79,4794,-6611,1537,0,-1,-1
-151.15,35.25,-76.78,4790,-6616,1540,0,-1,-1
-151.14,35.25,-76.79,4793,-6610,1534,0,0,-1
-151.14,35.25,-76.78,4797,-6612,1521,0,0,-1
-151.15,35.25,-76.78,4794,-6601,1527,0,0,-1
-151.16,35.25,-76.77,4784,-6603,1531,0,0,-1
-151.16,35.25,-76.76,4787,-6601,1536,0,0,0
-151.16,35.25,-76.76,4789,-6596,1540,0,0,-1
-151.16,35.25,-76.76,4787,-6593,1538,0,-1,0
-151.16,35.25,-76.76,4783,-6599,1540,0,-1,0
-151.16,35.24,-76.76,4788,-6602,1542,0,0,-1
-151.16,35.25,-76.76,4788,-6603,1532,0,0,-1
-151.15,35.26,-76.75,4797,-6602,1535,0,0,-1
-151.15,35.26,-76.75,4798,-6601,1536,0,0,-1
-151.15,35.26,-76.74,4791,-6605,1535,0,0,0
-151.16,35.25,-76.74,4789,-6607,1537,0,-1,0
-151.17,35.25,-76.74,4789,-6607,1541,0,-1,0
-151.17,35.25,-76.73,4792,-6610,1545,0,0,0
-151.18,35.24,-76.73,4789,-6614,1542,0,0,0
-151.18,35.24,-76.73,4799,-6607,1542,0,0,-1
-151.17,35.25,-76.74,4798,-6604,1555,-1,-1,-1
-151.16,35.25,-76.75,4794,-6601,1550,-1,-1,-1
-151.15,35.25,-76.76,4794,-6603,1550,-1,-1,-1
-151.14,35.25,-76.78,4797,-6604,1542,-1,-1,0
-151.14,35.25,-76.80,4796,-6613,1533,-1,-1,0
-151.14,35.25,-76.80,4794,-6607,1536,-1,-1,0
-151.14,35.25,-76.81,4796,-6614,1540,-1,-1,0
-151.13,35.25,-76.82,4794,-6614,1526,-1,-1,0
-151.12,35.25,-76.83,4797,-6610,1521,-1,-1,0
-151.12,35.25,-76.85,4787,-6615,1531,-1,-1,-1
-151.12,35.25,-76.85,4789,-6614,1524,-1,-1,0
-151.11,35.25,-76.86,4780,-6611,1521,-1,0,-1
-151.11,35.25,-76.86,4778,-6607,1517,0,0,-1
-151.11,35.25,-76.86,4783,-6612,1525,0,0,-1
-151.11,35.25,-76.86,4789,-6613,1533,0,0,0
-151.11,35.25,-76.86,4798,-6612,1529,-1,-1,-1
-151.11,35.25,-76.86,4796,-6609,1524,-1,-1,-1
-151.10,35.25,-76.88,4795,-6611,1527,-1,-1,-1
-151.09,35.25,-76.89,4791,-6606,1514,-1,-1,-1
-151.08,35.26,-76.92,4789,-6612,1516,-1,-1,0
-151.07,35.26,-76.93,4789,-6614,1514,-1,-1,0
-151.06,35.26,-76.94,4783,-6608,1512,-1,-1,0
-151.06,35.26,-76.96,4788,-6614,1516,-1,-1,-1
-151.04,35.26,-76.98,4790,-6621,1517,-1,-1,-1
-151.04,35.26,-77.00,4788,-6620,1513,-1,-1,-1
-151.03,35.26,-77.01,4785,-6614,1510,-1,-1,-1
-151.03,35.26,-77.01,4793,-6610,1517,-1,-1,-1
-151.02,35.27,-77.02,4793,-6611,1515,-1,-1,-1
-151.01,35.27,-77.04,4798,-6617,1512,-1,-1,-1
-151.01,35.27,-77.04,4797,-6613,1511,-1,-1,-1
-151.00,35.28,-77.06,4793,-6618,1507,-1,-1,-1
-150.99,35.28,-77.07,4794,-6620,1504,-1,-1,-1
-150.98,35.28,-77.09,4792,-6619,1494,-1,-1,-1
-150.96,35.28,-77.12,4793,-6617,1489,-1,-1,-1
-150.96,35.28,-77.13,4789,-6613,1494,-1,-1,-1
-150.95,35.29,-77.14,4794,-6615,1489,-1,-1,-1
-150.95,35.29,-77.14,4797,-6611,1483,0,0,0
-150.94,35.28,-77.15,4801,-6607,1478,0,0,0
-150.95,35.28,-77.15,4808,-6606,1487,-1,0,0
-150.95,35.28,-77.16,4805,-6604,1496,-1,-1,0
-150.96,35.26,-77.17,4795,-6611,1486,-1,0,0
-150.95,35.26,-77.19,4793,-6617,1472,-1,0,0
-150.95,35.25,-77.20,4787,-6621,1475,-1,0,0
-150.95,35.26,-77.20,4787,-6620,1474,-1,0,-1
-150.95,35.26,-77.20,4795,-6618,1487,0,0,-1
-150.95,35.26,-77.20,4799,-6615,1489,0,-1,0
-150.95,35.25,-77.20,4792,-6619,1495,0,0,0
-150.96,35.25,-77.20,4783,-6617,1486,0,0,0
-150.96,35.24,-77.20,4778,-6624,1484,0,0,-1
-150.96,35.25,-77.19,4783,-6619,1482,0,0,-1
-150.96,35.25,-77.19,4788,-6620,1490,0,0,-1
-150.95,35.25,-77.20,4796,-6617,1486,-1,-1,-1
-150.95,35.26,-77.20,4800,-6610,1493,-1,-1,-1
-150.94,35.26,-77.22,4798,-6613,1495,-1,-1,-1
-150.94,35.26,-77.22,4802,-6613,1488,-1,-1,-1
-150.93,35.26,-77.23,4795,-6615,1480,-1,-1,0
-150.93,35.26,-77.23,4791,-6612,1475,0,0,0
-150.93,35.26,-77.23,4792,-6616,1480,0,0,0
-150.93,35.26,-77.23,4797,-6618,1468,0,0,0
-150.94,35.26,-77.22,4791,-6616,1475,0,0,0
-150.94,35.26,-77.22,4789,-6614,1469,0,0,-1
-150.95,35.26,-77.21,4791,-6611,1483,0,0,-1
-150.95,35.25,-77.20,4782,-6619,1483,0,0,-1
-150.95,35.25,-77.19,4791,-6620,1481,0,0,-1
-150.96,35.25,-77.18,4790,-6619,1486,0,0,-1
-150.97,35.25,-77.17,4788,-6621,1484,0,0,0
-150.98,35.25,-77.16,4788,-6616,1493,0,0,0
-150.98,35.25,-77.15,4791,-6616,1497,0,0,-1
-150.98,35.25,-77.15,4794,-6616,1492,0,0,-1
-150.98,35.25,-77.15,4792,-6614,1503,-1,-1,-1
-150.97,35.26,-77.15,4793,-6606,1502,-1,-1,0
-150.97,35.25,-77.16,4792,-6611,1491,0,0,0
-150.97,35.25,-77.16,4791,-6617,1483,0,0,0
-150.98,35.25,-77.16,4790,-6619,1478,0,0,0
-150.98,35.25,-77.15,4792,-6618,1478,0,0,0
-150.98,35.25,-77.15,4782,-6620,1485,0,0,0
-150.99,35.25,-77.14,4793,-6616,1491,0,0,0
-151.00,35.24,-77.12,4790,-6616,1486,0,0,0
-151.01,35.24,-77.11,4792,-6615,1480,0,0,0
-151.02,35.24,-77.09,4795,-6616,1497,0,0,-1
-151.03,35.24,-77.08,4799,-6618,1500,0,0,-1
-151.02,35.24,-77.07,4795,-6617,1499,0,0,-1
-151.02,35.24,-77.07,4794,-6616,1491,0,0,-1
-151.02,35.25,-77.07,4795,-6619,1498,0,0,-1
-151.02,35.25,-77.07,4798,-6619,1502,0,0,-1
-151.02,35.25,-77.06,4795,-6620,1503,0,0,-1
-151.02,35.25,-77.06,4799,-6615,1491,0,0,-1
-151.02,35.25,-77.06,4803,-6618,1501,0,0,0
-151.03,35.24,-77.04,4797,-6617,1510,0,0,0
-151.04,35.25,-77.04,4798,-6611,1503,0,0,-1
-151.04,35.25,-77.03,4794,-6617,1500,0,0,-1
-151.05,35.24,-77.02,4794,-6617,1507,0,0,-1
-151.05,35.25,-77.00,4799,-6616,1512,0,0,0
-151.05,35.25,-77.00,4795,-6614,1515,0,0,0
-151.05,35.25,-77.00,4796,-6614,1514,0,0,-1
-151.05,35.25,-77.00,4792,-6621,1505,0,0,-1
-151.05,35.25,-76.99,4795,-6615,1499,0,0,-1
-151.04,35.26,-76.98,4799,-6611,1504,0,0,-1
-151.05,35.26,-76.97,4802,-6607,1508,0,0,0
-151.05,35.27,-76.97,4807,-6607,1505,0,0,0
-151.06,35.26,-76.96,4799,-6608,1502,0,0,0
-151.07,35.25,-76.94,4793,-6607,1509,0,0,0
-151.09,35.25,-76.92,4783,-6614,1514,0,0,0
-151.10,35.24,-76.91,4786,-6617,1518,0,0,0
-151.10,35.25,-76.90,4790,-6611,1523,0,0,-1
-151.10,35.25,-76.90,4787,-6608,1529,-1,-1,-1
-151.09,35.25,-76.91,4791,-6615,1523,-1,-1,-1
-151.08,35.26,-76.92,4789,-6609,1521,-1,-1,-1
-151.08,35.26,-76.92,4791,-6604,1523,0,0,0
-151.09,35.26,-76.90,4791,-6600,1518,0,0,0
-151.10,35.25,-76.89,4792,-6607,1525,0,0,0
-151.10,35.25,-76.89,4788,-6607,1528,0,0,0
-151.11,35.25,-76.88,4792,-6611,1525,0,0,0
-151.11,35.25,-76.88,4790,-6609,1526,0,0,-1
-151.11,35.25,-76.87,4791,-6606,1527,0,0,-1
-151.12,35.25,-76.85,4788,-6612,1524,0,0,-1
-151.13,35.25,-76.84,4787,-6615,1527,0,0,-1
-151.13,35.24,-76.83,4788,-6613,1525,0,0,0
-151.15,35.24,-76.81,4776,-6609,1534,0,0,0
-151.17,35.23,-76.80,4773,-6611,1531,0,-1,0
-151.17,35.23,-76.79,4784,-6613,1531,0,-1,0
-151.18,35.23,-76.78,4797,-6610,1542,0,-1,-1
-151.18,35.23,-76.78,4795,-6605,1542,0,-1,-1
-151.17,35.24,-76.79,4804,-6603,1544,-1,-1,-1
-151.17,35.24,-76.79,4801,-6603,1538,0,-1,-1
-151.17,35.24,-76.78,4800,-6601,1530,0,0,0
-151.17,35.24,-76.78,4793,-6604,1527,0,0,0
-151.18,35.24,-76.77,4790,-6608,1519,0,0,0
-151.18,35.24,-76.77,4783,-6611,1524,0,0,0
-151.19,35.23,-76.76,4786,-6609,1528,0,0,0
-151.19,35.23,-76.76,4792,-6607,1522,0,0,0
-151.20,35.23,-76.75,4789,-6602,1533,0,0,0
-151.20,35.23,-76.74,4789,-6604,1539,0,0,0
-151.22,35.23,-76.73,4792,-6606,1540,0,0,0
-151.22,35.22,-76.72,4788,-6614,1551,0,0,-1
-151.21,35.23,-76.72,4791,-6601,1552,-1,-1,-1
-151.21,35.24,-76.72,4796,-6600,1549,-1,-1,-1
-151.20,35.23,-76.73,4791,-6602,1543,0,-1,-1
-151.21,35.23,-76.73,4789,-6614,1533,0,-1,-1
-151.21,35.23,-76.73,4792,-6613,1529,0,-1,0
-151.20,35.23,-76.74,4794,-6613,1532,-1,-1,0
-151.21,35.23,-76.74,4794,-6617,1539,-1,0,0
-151.21,35.23,-76.74,4792,-6611,1540,-1,-1,0
-151.20,35.23,-76.76,4791,-6598,1532,-1,-1,0
-151.19,35.23,-76.76,4792,-6608,1537,-1,-1,0
-151.20,35.22,-76.78,4787,-6609,1541,-1,-1,0
-151.20,35.22,-76.79,4787,-6607,1546,-1,-1,0
-151.19,35.22,-76.80,4783,-6610,1535,-1,-1,0
-151.18,35.22,-76.81,4787,-6607,1538,-1,-1,-1
-151.17,35.23,-76.82,4795,-6605,1549,-1,-1,-1
-151.16,35.23,-76.83,4793,-6599,1540,-1,-1,-1
-151.16,35.23,-76.84,4796,-6599,1533,-1,-1,0
-151.16,35.23,-76.84,4799,-6603,1531,-1,-1,0
-151.16,35.22,-76.85,4798,-6606,1537,-1,-1,0
-151.16,35.22,-76.86,4789,-6613,1527,-1,0,0
-151.16,35.22,-76.87,4779,-6607,1533,-1,-1,-1
-151.16,35.22,-76.87,4776,-6610,1544,-1,0,-1
-151.15,35.22,-76.88,4780,-6606,1539,-1,-1,-1
-151.14,35.22,-76.91,4786,-6607,1528,-1,-1,-1
-151.12,35.23,-76.93,4793,-6611,1528,-1,-1,-1
-151.11,35.23,-76.95,4796,-6612,1522,-1,-1,-1
-151.10,35.23,-76.96,4795,-6606,1518,-1,-1,0
-151.10,35.23,-76.98,4794,-6614,1517,-1,-1,0
-151.10,35.22,-76.99,4790,-6616,1525,-1,-1,0
-151.09,35.22,-77.00,4792,-6621,1525,-1,-1,0
-151.09,35.22,-77.01,4786,-6626,1532,-1,-1,0
-151.09,35.22,-77.02,4782,-6622,1525,-1,-1,0
-151.08,35.21,-77.04,4787,-6623,1516,-1,-1,0
-151.08,35.21,-77.05,4785,-6621,1517,-1,-1,0
-151.08,35.21,-77.05,4785,-6610,1521,-1,-1,0
-151.08,35.21,-77.05,4790,-6617,1526,-1,0,-1
-151.07,35.21,-77.06,4796,-6618,1516,-1,-1,0
-151.06,35.21,-77.07,4798,-6615,1513,-1,-1,0
-151.06,35.21,-77.08,4797,-6612,1521,-1,-1,-1
-151.04,35.22,-77.10,4792,-6607,1520,-1,-1,0
-151.03,35.22,-77.13,4794,-6604,1514,-1,-1,0
-151.02,35.22,-77.17,4793,-6606,1516,-1,-1,0
-151.00,35.22,-77.19,4790,-6613,1508,-1,-1,0
-150.99,35.22,-77.21,4794,-6615,1499,-1,-1,0
-150.99,35.22,-77.23,4791,-6617,1491,-1,-1,0
-150.98,35.21,-77.24,4793,-6622,1500,-1,-1,0
-150.98,35.22,-77.25,4791,-6624,1496,-1,-1,0
-150.97,35.21,-77.26,4793,-6620,1496,-1,-1,0
-150.96,35.21,-77.28,4789,-6620,1492,-1,-1,0
-150.96,35.21,-77.29,4791,-6620,1488,-1,-1,0
-150.95,35.22,-77.30,4793,-6617,1487,-1,-1,0
-150.94,35.21,-77.32,4784,-6620,1493,-1,-1,0
-150.94,35.21,-77.34,4791,-6614,1487,-1,-1,0
-150.92,35.22,-77.36,4793,-6616,1474,-1,-1,0
-150.92,35.21,-77.37,4791,-6623,1477,-1,-1,0
-150.92,35.21,-77.39,4790,-6623,1490,-1,-1,0
-150.91,35.21,-77.40,4790,-6629,1483,-1,-1,0
-150.90,35.21,-77.42,4788,-6630,1477,-1,-1,0
-150.89,35.21,-77.43,4790,-6626,1485,-1,-1,0
-150.89,35.21,-77.45,4784,-6625,1467,-1,-1,-1
-150.88,35.22,-77.45,4788,-6624,1467,-1,-1,-1
-150.87,35.21,-77.46,4793,-6625,1465,-1,0,-1
-150.87,35.21,-77.46,4796,-6620,1472,0,0,0
-150.88,35.22,-77.46,4795,-6619,1473,0,0,0
-150.87,35.21,-77.46,4797,-6620,1466,-1,0,0
-150.87,35.21,-77.46,4791,-6616,1471,-1,0,0
-150.89,35.20,-77.46,4784,-6623,1479,0,0,0
-150.90,35.20,-77.45,4785,-6629,1477,0,0,-1
-150.89,35.20,-77.45,4783,-6633,1482,-1,0,-1
-150.89,35.20,-77.45,4777,-6623,1480,-1,0,-1
-150.87,35.21,-77.45,4786,-6621,1479,-1,-1,-1
-150.87,35.21,-77.46,4794,-6617,1472,-1,-1,-1
-150.87,35.22,-77.46,4791,-6616,1476,-1,0,-1
-150.87,35.22,-77.45,4792,-6614,1471,0,0,0
-150.88,35.21,-77.45,4795,-6617,1480,0,0,0
-150.89,35.21,-77.44,4798,-6619,1487,0,0,0
-150.89,35.21,-77.44,4791,-6617,1482,0,0,0
-150.89,35.21,-77.44,4787,-6619,1484,-1,-1,0
-150.88,35.21,-77.44,4785,-6625,1489,-1,-1,0
-150.89,35.21,-77.44,4782,-6629,1479,-1,0,-1
-150.89,35.21,-77.44,4778,-6630,1472,0,0,-1
-150.90,35.20,-77.43,4776,-6629,1474,0,0,0
-150.90,35.20,-77.42,4783,-6624,1481,0,0,-1
-150.91,35.20,-77.41,4781,-6625,1498,0,0,-1
-150.91,35.20,-77.40,4781,-6624,1497,0,0,-1
-150.91,35.20,-77.40,4780,-6621,1492,-1,-1,-1
-150.90,35.21,-77.40,4786,-6616,1493,-1,-1,-1
-150.90,35.21,-77.41,4785,-6624,1491,-1,-1,0
-150.89,35.21,-77.42,4782,-6621,1479,-1,-1,-1
-150.89,35.21,-77.42,4782,-6620,1477,0,0,-1
-150.90,35.21,-77.41,4781,-6620,1478,0,0,-1
-150.90,35.21,-77.41,4783,-6619,1487,0,0,-1
-150.91,35.21,-77.39,4790,-6622,1493,0,0,-1
-150.91,35.21,-77.38,4792,-6622,1491,0,0,-1
-150.91,35.21,-77.37,4792,-6622,1490,0,0,-1
-150.92,35.21,-77.36,4783,-6625,1498,0,0,-1
-150.92,35.21,-77.36,4776,-6619,1496,0,0,-1
-150.92,35.21,-77.35,4780,-6620,1495,0,0,-1
-150.92,35.21,-77.35,4783,-6615,1491,0,0,-1
-150.93,35.21,-77.34,4783,-6616,1490,0,0,-1
-150.93,35.21,-77.34,4783,-6614,1491,0,-1,-1
-150.93,35.21,-77.33,4781,-6618,1489,0,0,-1
-150.93,35.21,-77.33,4783,-6622,1496,0,-1,-1
-150.93,35.22,-77.33,4781,-6620,1499,0,-1,-1
-150.93,35.22,-77.33,4778,-6624,1503,-1,-1,-1
-150.93,35.22,-77.33,4780,-6625,1496,0,0,-1
-150.93,35.22,-77.31,4785,-6619,1492,0,0,-1
-150.93,35.22,-77.31,4788,-6625,1499,0,0,-1
-150.94,35.22,-77.29,4787,-6617,1513,0,0,-1
-150.95,35.23,-77.27,4794,-6614,1510,0,0,-1
-150.95,35.23,-77.26,4795,-6613,1510,0,0,0
-150.96,35.22,-77.24,4791,-6611,1507,0,0,0
-150.97,35.22,-77.23,4792,-6614,1505,0,0,0
-150.98,35.22,-77.22,4795,-6611,1510,0,0,0
-150.98,35.22,-77.21,4793,-6618,1505,0,0,-1
-150.99,35.22,-77.20,4795,-6618,1512,0,0,-1
-150.99,35.22,-77.19,4783,-6618,1512,0,0,-1
-150.99,35.22,-77.19,4779,-6620,1517,0,0,-1
-150.99,35.22,-77.19,4782,-6612,1510,0,0,-1
-151.00,35.22,-77.18,4790,-6612,1519,0,0,-1
-151.00,35.22,-77.17,4791,-6615,1512,0,0,-1
-151.00,35.22,-77.16,4790,-6614,1515,0,0,-1
-151.00,35.22,-77.16,4792,-6615,1522,0,-1,-1
-151.00,35.23,-77.15,4787,-6610,1521,0,0,-1
-151.00,35.23,-77.14,4786,-6619,1518,0,-1,-1
-151.01,35.22,-77.14,4786,-6621,1517,0,0,-1
-151.01,35.23,-77.13,4789,-6621,1519,0,0,-1
-151.02,35.23,-77.11,4780,-6618,1526,0,0,-1
-151.04,35.22,-77.08,4789,-6616,1529,0,0,0
-151.04,35.22,-77.07,4787,-6609,1534,0,-1,0
-151.05,35.22,-77.06,4783,-6609,1535,0,-1,0
-151.05,35.22,-77.06,4785,-6611,1540,-1,-1,-1
-151.05,35.22,-77.06,4784,-6602,1538,-1,-1,-1
-151.04,35.22,-77.06,4785,-6604,1542,-1,-1,-1
-151.04,35.22,-77.07,4780,-6599,1540,-1,-1,-1
-151.04,35.22,-77.07,4780,-6599,1526,0,0,0
-151.05,35.23,-77.06,4781,-6607,1526,0,0,-1
-151.05,35.23,-77.06,4786,-6606,1515,0,0,-1
-151.05,35.23,-77.05,4787,-6608,1515,0,0,-1
-151.05,35.23,-77.04,4791,-6609,1529,0,0,-1
-151.05,35.23,-77.03,4788,-6609,1525,0,0,-1
-151.06,35.23,-77.02,4789,-6607,1531,0,-1,-1
-151.06,35.24,-77.01,4783,-6613,1541,0,-1,-1
-151.06,35.24,-77.00,4787,-6615,1537,0,0,-1
-151.06,35.24,-76.99,4790,-6613,1533,0,0,-1
-151.07,35.24,-76.97,4786,-6605,1550,0,0,-1
-151.08,35.24,-76.96,4785,-6599,1551,0,-1,-1
-151.08,35.25,-76.95,4786,-6605,1548,0,-1,-1
-151.08,35.25,-76.95,4795,-6604,1545,-1,-1,-1
-151.06,35.26,-76.96,4801,-6601,1544,-1,-1,-1
-151.06,35.26,-76.96,4799,-6601,1549,-1,-1,0
-151.06,35.26,-76.95,4796,-6599,1550,0,0,0
-151.07,35.26,-76.95,4791,-6601,1546,0,0,0
-151.09,35.25,-76.93,4789,-6606,1547,0,0,0
-151.09,35.24,-76.93,4787,-6601,1542,0,0,0
-151.10,35.24,-76.92,4784,-6595,1537,0,0,0
-151.10,35.23,-76.93,4786,-6601,1542,-1,0,0
-151.11,35.23,-76.93,4791,-6606,1551,-1,-1,0
-151.11,35.22,-76.94,4790,-6607,1546,-1,-1,0
-151.10,35.22,-76.95,4793,-6610,1542,-1,-1,0
-151.09,35.22,-76.97,4788,-6610,1540,-1,-1,0
-151.09,35.23,-76.98,4792,-6608,1546,-1,-1,-1
-151.08,35.23,-76.98,4799,-6605,1537,-1,-1,0
-151.08,35.23,-76.99,4805,-6607,1537,-1,0,0
-151.08,35.23,-76.99,4797,-6604,1534,-1,0,0
-151.08,35.23,-76.99,4797,-6603,1543,-1,0,0
-151.07,35.23,-77.00,4793,-6611,1544,-1,-1,0
-151.07,35.23,-77.00,4793,-6613,1548,-1,-1,-1
-151.06,35.23,-77.02,4794,-6607,1546,-1,-1,-1
-151.05,35.23,-77.03,4789,-6607,1550,-1,-1,0
-151.04,35.23,-77.05,4782,-6608,1536,-1,-1,0
-151.03,35.23,-77.08,4784,-6609,1527,-1,-1,0
-151.02,35.23,-77.10,4787,-6612,1521,-1,-1,0
-151.02,35.22,-77.11,4783,-6608,1522,-1,-1,0
-151.02,35.22,-77.12,4782,-6612,1523,-1,0,0
-151.01,35.23,-77.12,4784,-6617,1528,-1,0,-1
-151.01,35.22,-77.13,4790,-6617,1528,-1,-1,-1
-151.01,35.22,-77.13,4788,-6616,1531,-1,-1,-1
-151.01,35.22,-77.14,4785,-6613,1526,-1,-1,-1
-150.99,35.23,-77.15,4789,-6616,1527,-1,-1,0
-150.99,35.23,-77.17,4795,-6616,1520,-1,-1,0
-150.98,35.23,-77.18,4787,-6613,1525,-1,-1,0
-150.98,35.23,-77.19,4793,-6617,1515,-1,0,0
-150.98,35.22,-77.19,4788,-6617,1521,-1,-1,0
-150.97,35.23,-77.20,4799,-6616,1527,-1,-1,0
-150.97,35.22,-77.21,4794,-6614,1520,-1,-1,0
-150.95,35.23,-77.23,4796,-6611,1521,-1,-1,0
-150.94,35.23,-77.26,4797,-6606,1528,-1,-1,0
-150.93,35.22,-77.30,4790,-6613,1505,-1,-1,0
-150.91,35.23,-77.33,4795,-6615,1498,-1,-1,0
-150.91,35.22,-77.35,4795,-6619,1490,-1,-1,0
-150.90,35.22,-77.36,4783,-6617,1494,-1,0,0
-150.91,35.22,-77.35,4787,-6618,1489,-1,0,0
-150.91,35.22,-77.35,4791,-6620,1496,-1,0,0
-150.91,35.21,-77.36,4796,-6620,1495,-1,0,0
-150.91,35.21,-77.36,4791,-6623,1501,-1,-1,0
-150.91,35.21,-77.37,4791,-6618,1497,-1,-1,0
-150.90,35.21,-77.38,4784,-6621,1502,-1,-1,-1
-150.90,35.21,-77.38,4783,-6625,1504,-1,-1,0
-150.89,35.21,-77.40,4788,-6621,1504,-1,-1,0
-150.89,35.21,-77.42,4792,-6624,1497,-1,-1,0
-150.88,35.20,-77.43,4793,-6623,1499,-1,-1,0
-150.87,35.20,-77.45,4791,-6622,1485,-1,-1,0
-150.86,35.21,-77.47,4798,-6622,1479,-1,-1,0
-150.85,35.21,-77.48,4795,-6623,1476,-1,-1,0
-150.86,35.20,-77.48,4790,-6622,1478,-1,-1,0
-150.86,35.20,-77.49,4794,-6625,1477,-1,-1,0
-150.85,35.20,-77.50,4785,-6621,1473,-1,0,0
-150.86,35.20,-77.49,4785,-6624,1473,0,0,0
-150.86,35.20,-77.49,4788,-6623,1482,0,0,0
-150.86,35.20,-77.48,4793,-6618,1485,0,-1,0
-150.86,35.20,-77.48,4788,-6620,1488,-1,-1,0
-150.86,35.20,-77.48,4791,-6622,1490,-1,-1,-1
-150.86,35.20,-77.48,4793,-6622,1483,-1,0,-1
-150.85,35.21,-77.48,4786,-6623,1483,-1,0,-1
-150.85,35.21,-77.48,4787,-6623,1480,0,0,0
-150.87,35.20,-77.48,4782,-6628,1481,0,-1,0
-150.87,35.20,-77.47,4784,-6623,1488,0,0,0
-150.88,35.19,-77.46,4778,-6626,1488,0,0,0
-150.89,35.19,-77.45,4777,-6630,1479,0,0,0
-150.89,35.19,-77.44,4778,-6631,1488,0,0,-1
-150.90,35.18,-77.43,4777,-6631,1496,0,0,-1
-150.90,35.18,-77.43,4777,-6627,1510,-1,-1,-1
-150.90,35.18,-77.43,4784,-6625,1499,-1,-1,-1
-150.89,35.19,-77.44,4786,-6620,1490,-1,-1,-1
-150.89,35.19,-77.44,4787,-6615,1486,-1,-1,0
-150.89,35.19,-77.44,4782,-6616,1484,0,0,0
-150.90,35.18,-77.44,4780,-6626,1477,0,0,0
-150.91,35.18,-77.43,4781,-6624,1490,0,0,0
-150.91,35.18,-77.42,4782,-6616,1496,0,0,-1
-150.91,35.18,-77.42,4779,-6617,1500,0,-1,-1
-150.92,35.17,-77.41,4768,-6620,1485,0,0,-1
-150.92,35.17,-77.40,4782,-6623,1483,0,0,-1
-150.93,35.18,-77.39,4777,-6623,1483,0,0,-1
-150.93,35.18,-77.38,4783,-6622,1485,0,0,-1
-150.94,35.17,-77.36,4785,-6624,1489,0,0,-1
-150.95,35.17,-77.35,4785,-6622,1496,0,0,0
-150.95,35.17,-77.34,4780,-6623,1502,0,0,-1
-150.95,35.17,-77.34,4781,-6622,1505,-1,-1,-1
-150.95,35.17,-77.34,4783,-6617,1511,-1,-1,-1
-150.95,35.17,-77.34,4784,-6619,1515,-1,-1,-1
-150.94,35.18,-77.35,4786,-6614,1503,-1,-1,-1
-150.95,35.17,-77.35,4788,-6621,1500,0,0,0
-150.95,35.17,-77.34,4785,-6617,1495,0,0,0
-150.96,35.17,-77.33,4781,-6620,1492,0,0,0
-150.96,35.17,-77.32,4779,-6623,1500,0,0,0
-150.97,35.17,-77.31,4773,-6625,1509,0,0,0
-150.98,35.16,-77.29,4769,-6624,1512,0,0,-1
-150.98,35.16,-77.29,4783,-6623,1502,0,0,-1
-150.98,35.17,-77.28,4787,-6625,1513,0,0,-1
-150.98,35.17,-77.27,4783,-6622,1510,0,0,-1
-150.99,35.16,-77.27,4780,-6622,1507,0,0,-1
-150.99,35.16,-77.26,4781,-6618,1516,0,0,0
-150.99,35.16,-77.26,4779,-6620,1508,0,0,0
-151.00,35.17,-77.24,4781,-6612,1505,0,0,0
-151.01,35.16,-77.24,4780,-6614,1514,0,-1,0
-151.00,35.16,-77.24,4784,-6616,1519,-1,-1,-1
-151.00,35.16,-77.25,4781,-6622,1509,-1,-1,-1
-151.00,35.17,-77.24,4784,-6621,1508,0,0,-1
-151.00,35.17,-77.24,4792,-6622,1519,0,0,-1
-150.99,35.18,-77.23,4796,-6613,1518,0,0,-1
-150.99,35.18,-77.22,4797,-6615,1511,0,0,0
-151.01,35.17,-77.21,4794,-6617,1513,0,0,0
-151.02,35.17,-77.20,4796,-6618,1514,0,0,0
-151.04,35.16,-77.18,4788,-6623,1516,0,0,0
-151.05,35.15,-77.16,4780,-6624,1514,0,0,0
-151.06,35.15,-77.15,4778,-6625,1524,0,0,-1
-151.06,35.15,-77.15,4777,-6627,1523,0,0,-1
-151.06,35.16,-77.14,4775,-6627,1527,0,-1,-1
-151.05,35.16,-77.14,4780,-6621,1527,-1,-1,-1
-151.05,35.17,-77.13,4793,-6624,1523,-1,-1,-1
-151.05,35.17,-77.13,4794,-6618,1524,0,0,-1
-151.05,35.17,-77.13,4792,-6616,1515,0,0,0
-151.05,35.17,-77.12,4790,-6611,1522,0,0,0
-151.06,35.17,-77.10,4789,-6617,1527,0,0,0
-151.06,35.17,-77.10,4786,-6619,1532,0,0,0
-151.07,35.17,-77.09,4785,-6618,1528,0,-1,-1
-151.07,35.17,-77.08,4791,-6619,1524,0,-1,-1
-151.07,35.17,-77.08,4787,-6616,1520,0,0,0
-151.08,35.17,-77.07,4782,-6612,1513,0,0,-1
-151.09,35.17,-77.05,4774,-6608,1520,0,0,-1
-151.10,35.17,-77.04,4779,-6616,1525,0,0,-1
-151.10,35.17,-77.02,4777,-6616,1536,0,0,-1
-151.11,35.17,-77.00,4779,-6615,1526,0,0,-1
-151.12,35.18,-76.97,4787,-6614,1529,0,0,-1
-151.13,35.18,-76.96,4792,-6606,1538,0,-1,-1
-151.13,35.18,-76.94,4786,-6606,1544,0,-1,-1
-151.13,35.18,-76.94,4777,-6610,1547,0,-1,-1
-151.14,35.18,-76.94,4778,-6613,1545,0,0,0
-151.14,35.18,-76.94,4776,-6613,1544,0,0,0
-151.15,35.17,-76.93,4773,-6610,1545,0,0,0
-151.15,35.17,-76.93,4777,-6609,1544,0,0,0
-151.15,35.17,-76.93,4780,-6602,1547,-1,-1,0
-151.16,35.17,-76.93,4781,-6606,1553,-1,-1,0
-151.15,35.17,-76.94,4784,-6607,1549,-1,-1,0
-151.14,35.17,-76.95,4782,-6610,1553,-1,-1,-1
-151.14,35.17,-76.96,4778,-6614,1554,-1,-1,-1
-151.14,35.16,-76.96,4784,-6613,1551,-1,-1,-1
-151.13,35.17,-76.98,4789,-6612,1548,-1,-1,0
-151.11,35.18,-77.00,4785,-6611,1546,-1,-1,-1
-151.11,35.17,-77.01,4780,-6608,1545,-1,-1,-1
-151.11,35.17,-77.01,4777,-6608,1534,-1,-1,0
-151.10,35.17,-77.02,4783,-6612,1534,-1,-1,0
-151.09,35.18,-77.04,4789,-6617,1534,-1,-1,-1
-151.09,35.17,-77.05,4788,-6617,1531,-1,-1,0
-151.09,35.17,-77.06,4787,-6619,1530,-1,-1,-1
-151.08,35.17,-77.07,4782,-6618,1535,-1,-1,-1
-151.07,35.18,-77.08,4785,-6615,1528,-1,-1,-1
-151.07,35.18,-77.09,4789,-6614,1522,-1,-1,-1
-151.05,35.18,-77.11,4788,-6610,1522,-1,-1,0
-151.05,35.18,-77.11,4792,-6610,1518,-1,-1,0
-151.05,35.17,-77.12,4787,-6619,1519,-1,-1,0
-151.06,35.17,-77.13,4775,-6625,1523,-1,0,0
-151.05,35.17,-77.14,4780,-6622,1526,-1,-1,-1
-151.05,35.17,-77.14,4791,-6621,1526,-1,-1,-1
-151.03,35.18,-77.16,4788,-6617,1530,-1,-1,-1
-151.02,35.18,-77.17,4782,-6615,1531,-1,-1,-1
-151.01,35.18,-77.20,4786,-6609,1525,-1,-1,0
-151.00,35.19,-77.21,4791,-6612,1516,-1,-1,0
-150.98,35.19,-77.23,4790,-6612,1503,-1,-1,0
-150.98,35.19,-77.24,4788,-6614,1508,-1,-1,0
-150.99,35.18,-77.24,4789,-6618,1517,-1,-1,0
-150.98,35.18,-77.26,4787,-6623,1522,-1,-1,0
-150.97,35.18,-77.27,4787,-6621,1516,-1,-1,-1
-150.96,35.18,-77.29,4784,-6619,1510,-1,-1,0
-150.95,35.18,-77.31,4781,-6615,1505,-1,-1,-1
-150.95,35.18,-77.32,4780,-6618,1502,-1,0,0
-150.95,35.18,-77.32,4783,-6624,1515,-1,-1,0
-150.94,35.18,-77.33,4781,-6615,1514,-1,-1,0
-150.94,35.18,-77.34,4778,-6622,1514,-1,-1,-1
-150.93,35.18,-77.35,4778,-6627,1512,-1,-1,-1
-150.93,35.18,-77.36,4779,-6620,1512,-1,-1,-1
-150.92,35.18,-77.38,4779,-6621,1507,-1,-1,-1
-150.90,35.18,-77.40,4788,-6623,1499,-1,-1,-1
-150.89,35.19,-77.43,4793,-6623,1478,-1,-1,0
-150.87,35.19,-77.45,4789,-6627,1491,-1,-1,0
-150.87,35.19,-77.46,4784,-6631,1485,-1,-1,0
-150.87,35.19,-77.47,4785,-6631,1483,-1,-1,0
-150.86,35.18,-77.49,4784,-6627,1479,-1,-1,0
-150.86,35.18,-77.50,4784,-6623,1481,-1,-1,0
-150.86,35.18,-77.52,4779,-6624,1484,-1,-1,0
-150.85,35.18,-77.54,4776,-6627,1479,-1,-1,0
-150.84,35.18,-77.55,4779,-6634,1471,-1,-1,0
-150.84,35.17,-77.56,4776,-6637,1467,-1,-1,0
-150.84,35.17,-77.56,4777,-6629,1471,-1,-1,-1
-150.84,35.17,-77.58,4777,-6624,1469,-1,-1,0
-150.83,35.17,-77.59,4778,-6625,1476,-1,-1,-1
-150.82,35.18,-77.59,4785,-6626,1469,-1,-1,-1
-150.82,35.17,-77.60,4789,-6628,1474,-1,-1,-1
-150.81,35.18,-77.60,4787,-6628,1469,-1,-1,-1
-150.81,35.18,-77.61,4784,-6633,1463,-1,-1,0
-150.81,35.18,-77.61,4786,-6638,1469,-1,-1,-1
-150.81,35.18,-77.61,4783,-6634,1470,0,-1,-1
-150.81,35.18,-77.61,4780,-6630,1474,0,0,0
-150.82,35.17,-77.60,4782,-6631,1479,0,0,0
-150.82,35.17,-77.60,4783,-6629,1480,0,0,0
-150.83,35.17,-77.59,4782,-6623,1485,0,0,0
-150.83,35.17,-77.59,4779,-6628,1484,-1,-1,0
-150.83,35.17,-77.59,4780,-6629,1481,-1,-1,0
-150.82,35.17,-77.59,4778,-6625,1475,-1,-1,-1
-150.82,35.17,-77.60,4776,-6631,1480,-1,0,-1
-150.82,35.17,-77.59,4774,-6633,1480,0,0,-1
-150.82,35.18,-77.59,4780,-6632,1482,0,0,-1
-150.83,35.17,-77.57,4785,-6628,1489,0,0,0
-150.84,35.17,-77.56,4780,-6624,1485,0,0,0
-150.85,35.17,-77.55,4779,-6621,1481,0,0,0
-150.85,35.16,-77.54,4784,-6628,1478,0,0,0
-150.86,35.16,-77.53,4784,-6628,1477,0,0,0
-150.87,35.16,-77.51,4786,-6621,1483,0,0,-1
-150.86,35.17,-77.52,4779,-6618,1478,-1,-1,-1
-150.86,35.17,-77.52,4782,-6618,1479,-1,-1,-1
-150.85,35.17,-77.52,4782,-6618,1478,-1,-1,-1
-150.85,35.17,-77.53,4781,-6622,1481,-1,-1,-1
-150.85,35.18,-77.53,4783,-6624,1479,0,0,0
-150.85,35.17,-77.52,4780,-6626,1482,0,0,0
-150.85,35.17,-77.52,4785,-6624,1472,0,0,0
-150.87,35.16,-77.51,4778,-6630,1477,0,0,0
-150.87,35.17,-77.50,4795,-6626,1484,0,0,-1
-150.87,35.17,-77.49,4796,-6629,1495,0,0,-1
-150.87,35.17,-77.48,4786,-6625,1486,0,0,-1
-150.88,35.17,-77.47,4780,-6627,1482,0,0,0
-150.88,35.17,-77.46,4781,-6629,1469,0,0,-1
-150.89,35.17,-77.44,4782,-6623,1486,0,0,-1
-150.91,35.17,-77.41,4781,-6616,1492,0,0,0
-150.92,35.16,-77.40,4788,-6622,1494,0,0,0
-150.92,35.16,-77.39,4784,-6624,1498,0,0,0
-150.92,35.16,-77.39,4783,-6626,1492,0,-1,-1
-150.93,35.17,-77.38,4784,-6626,1500,-1,-1,-1
-150.91,35.18,-77.38,4782,-6621,1503,-1,-1,-1
-150.91,35.18,-77.38,4778,-6622,1491,0,-1,-1
-150.92,35.17,-77.38,4778,-6615,1490,0,0,0
-150.93,35.17,-77.36,4782,-6624,1476,0,0,-1
-150.93,35.17,-77.35,4784,-6622,1495,0,0,-1
-150.94,35.17,-77.34,4783,-6618,1495,0,0,-1
-150.94,35.17,-77.32,4781,-6616,1503,0,0,-1
-150.95,35.17,-77.31,4789,-6617,1501,0,0,0
-150.95,35.17,-77.30,4791,-6619,1497,0,0,-1
-150.96,35.17,-77.28,4783,-6617,1499,0,0,-1
-150.97,35.17,-77.27,4780,-6619,1497,0,0,-1
-150.98,35.17,-77.25,4781,-6620,1496,0,0,0
-150.98,35.17,-77.24,4791,-6619,1504,0,0,-1
-150.99,35.17,-77.23,4783,-6620,1504,0,0,-1
-150.99,35.17,-77.22,4779,-6628,1508,0,0,-1
-151.00,35.17,-77.21,4786,-6620,1510,0,0,-1
-151.00,35.17,-77.21,4782,-6617,1495,0,0,-1
-151.00,35.17,-77.20,4779,-6620,1504,0,0,-1
-151.00,35.18,-77.18,4780,-6615,1504,0,0,-1
-151.01,35.17,-77.17,4779,-6613,1512,0,0,-1
-151.02,35.17,-77.16,4784,-6619,1505,0,0,-1
-151.02,35.17,-77.15,4786,-6619,1512,0,0,0
-151.03,35.18,-77.14,4793,-6619,1521,0,0,-1
-151.03,35.17,-77.14,4789,-6628,1518,0,0,-1
-151.04,35.17,-77.13,4788,-6620,1513,0,0,0
-151.04,35.17,-77.12,4784,-6619,1506,0,0,0
-151.05,35.17,-77.10,4782,-6613,1524,0,0,-1
-151.06,35.17,-77.09,4778,-6617,1536,0,0,0
-151.06,35.17,-77.08,4776,-6619,1536,0,0,-1
-151.06,35.17,-77.07,4778,-6622,1522,0,0,-1
-151.06,35.17,-77.06,4785,-6621,1520,0,0,-1
-151.07,35.18,-77.05,4794,-6618,1523,0,0,-1
-151.07,35.18,-77.03,4790,-6611,1524,0,0,0
-151.09,35.17,-77.01,4787,-6608,1516,0,0,0
-151.10,35.17,-77.00,4787,-6608,1521,0,0,0
-151.12,35.16,-76.97,4785,-6606,1517,0,0,0
-151.14,35.15,-76.96,4775,-6608,1531,0,0,0
-151.15,35.15,-76.94,4775,-6620,1544,0,0,0
-151.15,35.15,-76.93,4775,-6615,1531,0,-1,-1
-151.15,35.15,-76.94,4776,-6614,1531,-1,-1,-1
-151.15,35.15,-76.94,4782,-6615,1540,-1,-1,-1
-151.14,35.16,-76.94,4784,-6612,1537,0,0,-1
-151.15,35.16,-76.93,4786,-6607,1535,0,0,0
-151.15,35.16,-76.92,4786,-6615,1532,0,0,0
-151.16,35.15,-76.92,4786,-6613,1530,0,0,0
-151.17,35.15,-76.91,4788,-6611,1531,0,0,0
-151.17,35.15,-76.89,4778,-6618,1540,0,0,-1
-151.18,35.15,-76.88,4779,-6619,1542,0,0,0
-151.19,35.15,-76.87,4778,-6615,1537,0,0,0
-151.19,35.15,-76.86,4779,-6613,1543,0,0,0
-151.21,35.14,-76.84,4776,-6607,1536,0,0,0
-151.21,35.14,-76.84,4778,-6607,1534,0,0,0
-151.22,35.14,-76.83,4774,-6601,1539,0,0,0
-151.22,35.14,-76.83,4773,-6611,1538,0,0,0
-151.22,35.14,-76.83,4777,-6614,1544,-1,-1,-1
-151.21,35.14,-76.84,4778,-6609,1544,-1,-1,0
-151.21,35.14,-76.85,4786,-6608,1548,-1,-1,-1
-151.20,35.14,-76.87,4777,-6608,1538,-1,-1,0
-151.19,35.14,-76.89,4777,-6613,1538,-1,-1,0
-151.19,35.14,-76.89,4777,-6608,1530,-1,-1,0
-151.19,35.14,-76.90,4777,-6612,1533,-1,-1,0
-151.20,35.13,-76.89,4777,-6616,1545,-1,-1,0
-151.19,35.13,-76.91,4777,-6618,1543,-1,-1,0
-151.19,35.13,-76.91,4775,-6613,1545,-1,0,0
-151.19,35.13,-76.91,4778,-6617,1539,-1,0,0
-151.19,35.13,-76.91,4771,-6620,1539,-1,0,-1
-151.19,35.13,-76.92,4772,-6619,1537,-1,-1,-1
-151.19,35.13,-76.92,4771,-6615,1550,-1,-1,0
-151.18,35.13,-76.93,4780,-6618,1543,-1,-1,0
-151.17,35.13,-76.94,4782,-6613,1532,-1,-1,-1
-151.17,35.13,-76.96,4780,-6613,1535,-1,-1,0
-151.16,35.13,-76.97,4784,-6623,1534,-1,-1,0
-151.16,35.13,-76.98,4783,-6625,1529,-1,-1,0
-151.15,35.13,-77.00,4782,-6625,1533,-1,-1,0
-151.15,35.13,-77.01,4777,-6627,1529,-1,-1,-1
-151.14,35.13,-77.03,4773,-6619,1517,-1,-1,-1
-151.12,35.14,-77.05,4775,-6615,1508,-1,-1,-1
-151.11,35.14,-77.05,4782,-6611,1510,-1,-1,-1
-151.11,35.14,-77.06,4781,-6613,1512,-1,-1,-1
-151.10,35.14,-77.07,4781,-6618,1528,-1,-1,-1
-151.10,35.15,-77.08,4778,-6625,1518,-1,-1,-1
-151.08,35.15,-77.10,4772,-6630,1517,-1,-1,-1
-151.07,35.15,-77.12,4769,-6623,1514,-1,0,-1
-151.07,35.15,-77.12,4771,-6626,1507,-1,0,-1
-151.05,35.16,-77.13,4788,-6613,1504,0,0,-1
-151.06,35.16,-77.12,4794,-6613,1513,0,-1,-1
-151.06,35.17,-77.11,4788,-6618,1515,0,-1,0
-151.06,35.16,-77.12,4794,-6610,1521,-1,-1,0
-151.07,35.15,-77.13,4793,-6612,1528,-1,-1,0
-151.06,35.15,-77.17,4785,-6614,1515,-2,-1,0
-151.04,35.14,-77.21,4783,-6617,1503,-2,-1,0
-151.04,35.13,-77.24,4786,-6618,1489,-1,0,0
-151.03,35.13,-77.25,4785,-6625,1483,-1,0,0
-151.03,35.12,-77.25,4784,-6627,1478,-1,0,0
-151.04,35.12,-77.24,4779,-6624,1488,0,0,0
-151.05,35.11,-77.23,4776,-6622,1486,0,0,0
-151.06,35.10,-77.23,4773,-6625,1494,-1,0,0
-151.06,35.09,-77.24,4756,-6641,1507,-1,-1,0
-151.06,35.09,-77.26,4762,-6645,1513,-1,-1,-1
-151.03,35.10,-77.29,4772,-6642,1502,-2,-1,-1
-150.99,35.11,-77.35,4777,-6644,1494,-2,-1,-1
-150.97,35.12,-77.38,4781,-6640,1481,-1,-1,-1
-150.94,35.13,-77.42,4790,-6635,1483,-1,-1,-1
-150.93,35.13,-77.44,4785,-6636,1478,-1,-1,0
-150.93,35.13,-77.45,4785,-6630,1471,-1,-1,0
-150.93,35.13,-77.45,4782,-6626,1467,0,0,0
-150.94,35.12,-77.45,4779,-6624,1466,0,0,0
-150.95,35.12,-77.44,4780,-6621,1476,0,0,0
-150.96,35.11,-77.42,4770,-6628,1482,0,0,0
-150.96,35.11,-77.42,4769,-6629,1480,-1,0,0
-150.96,35.11,-77.43,4769,-6634,1476,-1,0,0
-150.96,35.11,-77.43,4773,-6634,1470,-1,-1,0
-150.96,35.11,-77.43,4770,-6635,1465,0,0,-1
-150.96,35.11,-77.43,4771,-6642,1458,0,0,-1
-150.96,35.11,-77.43,4775,-6635,1462,0,0,-1
-150.96,35.11,-77.41,4774,-6633,1466,0,0,-1
-150.96,35.11,-77.41,4779,-6632,1465,0,0,0
-150.96,35.11,-77.41,4778,-6638,1462,0,0,0
-150.97,35.11,-77.41,4773,-6636,1463,0,-1,-1
-150.97,35.11,-77.40,4772,-6632,1468,0,0,-1
-150.97,35.11,-77.40,4770,-6630,1464,0,0,-1
-150.97,35.11,-77.40,4774,-6632,1469,0,0,-1
-150.97,35.11,-77.39,4776,-6631,1472,0,0,0
-150.97,35.11,-77.39,4779,-6634,1479,0,0,0
-150.98,35.10,-77.38,4776,-6633,1481,0,0,0
-150.98,35.10,-77.38,4780,-6634,1473,0,0,0
-151.00,35.10,-77.37,4776,-6640,1467,0,0,0
-151.00,35.10,-77.37,4779,-6639,1464,0,0,0
-150.99,35.10,-77.37,4780,-6633,1464,0,0,0
-151.00,35.10,-77.36,4772,-6633,1465,0,0,0
-151.01,35.09,-77.35,4772,-6631,1470,0,0,-1
-151.01,35.09,-77.33,4777,-6627,1476,0,0,-1
-151.03,35.09,-77.30,4779,-6632,1482,0,0,-1
-151.03,35.09,-77.29,4781,-6626,1488,0,0,0
-151.05,35.08,-77.27,4776,-6629,1491,0,0,0
-151.06,35.08,-77.27,4768,-6630,1497,0,0,0
-151.07,35.07,-77.26,4762,-6639,1490,0,0,0
-151.07,35.06,-77.27,4764,-6644,1488,-1,0,0
-151.07,35.06,-77.27,4766,-6641,1486,-1,0,-1
-151.07,35.07,-77.27,4765,-6634,1481,-1,0,-1
-151.06,35.07,-77.27,4767,-6637,1482,-1,0,-1
-151.06,35.07,-77.27,4772,-6633,1483,0,0,-1
-151.06,35.08,-77.27,4776,-6630,1490,0,-1,-1
-151.05,35.08,-77.27,4781,-6629,1488,-1,-1,0
-151.05,35.08,-77.28,4783,-6626,1488,-1,-1,0
-151.04,35.09,-77.29,4782,-6635,1485,-1,-1,-1
-151.03,35.09,-77.31,4774,-6633,1495,-1,-1,-1
-151.02,35.09,-77.31,4774,-6629,1490,0,-1,-1
-151.03,35.09,-77.31,4772,-6632,1481,0,0,0
-151.03,35.09,-77.30,4770,-6632,1478,0,0,0
-151.05,35.08,-77.28,4769,-6632,1476,0,0,0
-151.06,35.08,-77.25,4760,-6640,1480,0,0,-1
-151.08,35.08,-77.22,4767,-6634,1494,0,0,-1
-151.10,35.08,-77.19,4772,-6633,1505,0,0,0
-151.10,35.08,-77.17,4774,-6636,1507,0,-1,-1
-151.10,35.08,-77.17,4782,-6622,1511,-1,-1,-1
-151.08,35.10,-77.18,4780,-6625,1513,-1,-1,-1
-151.07,35.10,-77.20,4771,-6626,1512,-1,-1,-1
-151.06,35.10,-77.22,4776,-6631,1500,-1,-1,-1
-151.05,35.11,-77.24,4775,-6629,1488,-1,0,-1
-151.05,35.10,-77.24,4779,-6627,1476,0,0,0
-151.06,35.10,-77.24,4781,-6627,1476,0,0,0
-151.07,35.10,-77.22,4783,-6632,1474,0,0,0
-151.08,35.10,-77.20,4784,-6629,1482,0,0,0
-151.09,35.10,-77.17,4782,-6629,1492,0,0,0
-151.11,35.09,-77.15,4773,-6622,1503,0,0,0
-151.13,35.08,-77.12,4774,-6630,1515,0,-1,0
-151.14,35.09,-77.11,4772,-6632,1521,0,-1,-1
-151.14,35.08,-77.11,4770,-6640,1523,0,-1,-1
-151.14,35.09,-77.10,4776,-6640,1518,0,-1,-1
-151.13,35.09,-77.11,4773,-6635,1510,-1,-1,-1
-151.13,35.09,-77.12,4774,-6628,1494,-1,0,-1
-151.13,35.09,-77.12,4768,-6627,1496,0,0,-1
-151.13,35.09,-77.11,4768,-6621,1501,0,0,-1
-151.14,35.09,-77.10,4774,-6623,1499,0,0,-1
-151.15,35.09,-77.08,4779,-6623,1503,0,0,0
-151.16,35.08,-77.06,4775,-6621,1506,0,0,0
-151.18,35.08,-77.04,4781,-6623,1511,0,0,0
-151.19,35.08,-77.03,4788,-6620,1514,0,-1,0
-151.19,35.07,-77.02,4791,-6631,1507,0,-1,0
-151.20,35.08,-77.01,4783,-6628,1516,0,-1,0
-151.20,35.07,-77.00,4776,-6632,1520,0,-1,0
-151.21,35.07,-76.99,4774,-6633,1521,0,-1,0
-151.21,35.07,-76.99,4773,-6630,1513,0,-1,0
-151.22,35.07,-76.99,4772,-6630,1518,0,0,-1
-151.22,35.07,-76.99,4776,-6629,1521,-1,0,-1
-151.20,35.08,-76.99,4773,-6630,1514,-1,-1,-1
-151.20,35.08,-77.00,4779,-6627,1518,-1,-1,-1
-151.19,35.09,-77.01,4787,-6621,1511,-1,-1,-1
-151.19,35.09,-77.01,4779,-6620,1500,-1,-1,-1
-151.19,35.09,-77.01,4778,-6625,1502,0,0,0
-151.19,35.09,-77.00,4775,-6620,1503,0,0,0
-151.20,35.08,-76.99,4773,-6619,1504,0,0,0
-151.22,35.08,-76.96,4768,-6624,1520,0,0,0
-151.24,35.07,-76.95,4764,-6625,1530,0,0,-1
-151.23,35.08,-76.95,4770,-6621,1534,0,-1,-1
-151.23,35.08,-76.94,4769,-6625,1541,0,0,-1
-151.24,35.08,-76.92,4769,-6628,1536,0,0,-1
-151.24,35.08,-76.92,4769,-6624,1534,0,0,-1
-151.25,35.08,-76.91,4774,-6619,1539,0,0,0
-151.26,35.08,-76.89,4773,-6626,1540,0,0,0
-151.27,35.07,-76.88,4773,-6624,1542,0,0,0
-151.27,35.07,-76.88,4777,-6624,1544,0,-1,0
-151.27,35.07,-76.88,4772,-6622,1536,-1,-1,-1
-151.26,35.07,-76.90,4774,-6620,1534,-1,-1,0
-151.26,35.07,-76.90,4774,-6618,1527,0,-1,0
-151.27,35.07,-76.90,4768,-6619,1526,0,0,0
-151.27,35.07,-76.89,4766,-6619,1535,0,0,0
-151.28,35.07,-76.87,4769,-6617,1525,0,0,0
-151.29,35.07,-76.87,4771,-6619,1529,0,0,0
-151.30,35.06,-76.85,4764,-6621,1534,0,0,0
-151.30,35.06,-76.85,4765,-6616,1541,0,0,0
-151.30,35.06,-76.85,4764,-6618,1540,0,0,0
-151.31,35.06,-76.84,4767,-6617,1540,0,0,0
-151.31,35.06,-76.84,4774,-6617,1545,0,-1,0
-151.31,35.06,-76.84,4773,-6618,1544,0,-1,0
-151.31,35.06,-76.84,4766,-6626,1553,-1,-1,0
-151.30,35.06,-76.85,4770,-6626,1537,-1,-1,-1
-151.30,35.06,-76.87,4772,-6623,1536,-1,-1,-1
-151.29,35.06,-76.89,4774,-6629,1528,-1,-1,0
-151.28,35.06,-76.90,4775,-6627,1528,-1,-1,0
-151.28,35.06,-76.91,4773,-6632,1514,-1,-1,0
-151.27,35.06,-76.92,4779,-6631,1515,-1,-1,0
