Yaw,Pitch,Roll,AX,AY,AZ,GX,GY,GZ
136.64,-179.33,-130.03,-101,-6442,-5418,-1,0,-1
136.63,-179.33,-130.04,-91,-6453,-5412,-1,0,0
136.63,-179.34,-130.06,-90,-6431,-5419,-1,0,-1
136.61,-179.34,-130.08,-89,-6435,-5436,-1,0,0
136.61,-179.34,-130.09,-84,-6436,-5447,-1,-1,0
136.59,-179.34,-130.11,-97,-6431,-5448,-1,0,-1
136.59,-179.35,-130.12,-78,-6440,-5463,-1,0,-1
136.58,-179.36,-130.13,-90,-6400,-5459,0,0,-1
136.61,-179.37,-130.11,-74,-6403,-5454,0,0,-1
136.63,-179.39,-130.08,-91,-6397,-5461,1,0,-1
136.67,-179.41,-130.03,-73,-6438,-5444,1,0,-1
136.70,-179.43,-130.00,-79,-6450,-5466,1,0,-1
136.73,-179.46,-129.97,-72,-6435,-5434,0,0,-1
136.74,-179.48,-129.95,-66,-6417,-5458,1,0,-1
136.75,-179.48,-129.91,-85,-6424,-5453,1,0,0
136.79,-179.46,-129.83,-123,-6485,-5415,2,0,0
136.81,-179.47,-129.76,-181,-6539,-5395,1,1,-1
136.84,-179.49,-129.73,-178,-6593,-5386,0,1,-2
136.83,-179.55,-129.75,-148,-6553,-5387,-2,1,-2
136.83,-179.61,-129.79,-103,-6508,-5386,-2,1,-2
136.82,-179.67,-129.82,-80,-6471,-5372,-1,1,-2
136.82,-179.72,-129.83,-57,-6442,-5396,-1,1,-1
136.84,-179.74,-129.81,-51,-6427,-5385,1,0,-1
136.84,-179.75,-129.78,-49,-6434,-5386,0,0,-1
136.85,-179.77,-129.77,-33,-6468,-5420,0,0,-1
136.86,-179.79,-129.74,-21,-6485,-5450,1,0,-1
136.89,-179.81,-129.69,-6,-6485,-5453,2,0,-1
136.93,-179.83,-129.63,12,-6476,-5409,2,0,0
136.98,-179.82,-129.56,-7,-6462,-5370,2,-1,0
137.02,-179.80,-129.49,-6,-6465,-5311,2,-1,0
137.05,-179.80,-129.45,-14,-6473,-5330,1,-1,-1
137.07,-179.79,-129.42,-15,-6496,-5297,0,-1,0
137.09,-179.78,-129.41,-25,-6487,-5347,0,-1,0
137.09,-179.77,-129.41,-20,-6501,-5363,-1,-1,0
137.09,-179.75,-129.42,-16,-6484,-5379,0,-1,0
137.09,-179.72,-129.40,-29,-6489,-5384,0,-1,0
137.11,-179.69,-129.38,-55,-6471,-5387,1,-1,0
137.13,-179.68,-129.33,-37,-6485,-5391,1,-1,0
137.15,-179.64,-129.28,-55,-6499,-5384,2,-1,0
137.18,-179.63,-129.24,-47,-6502,-5380,1,-1,0
137.20,-179.60,-129.18,-46,-6533,-5390,2,-1,0
137.23,-179.58,-129.13,-50,-6533,-5363,1,-1,0
137.24,-179.55,-129.09,-71,-6527,-5353,2,-1,0
137.27,-179.53,-129.04,-66,-6519,-5325,1,-1,0
137.28,-179.50,-129.01,-75,-6521,-5293,0,-1,0
137.30,-179.48,-128.97,-97,-6536,-5294,1,-1,0
137.33,-179.45,-128.91,-86,-6570,-5325,1,-1,0
137.35,-179.42,-128.86,-79,-6544,-5324,1,-1,0
137.36,-179.41,-128.83,-71,-6550,-5295,0,-1,0
137.37,-179.39,-128.81,-105,-6564,-5297,1,-1,0
137.39,-179.37,-128.78,-103,-6578,-5280,0,-1,0
137.40,-179.36,-128.77,-132,-6615,-5295,0,-1,0
137.40,-179.35,-128.76,-120,-6580,-5271,-1,0,-1
137.40,-179.36,-128.77,-100,-6566,-5260,-1,-1,-1
137.38,-179.35,-128.80,-98,-6532,-5265,-1,-1,0
137.37,-179.35,-128.81,-78,-6543,-5288,-1,-1,0
137.36,-179.33,-128.82,-97,-6538,-5297,0,-1,0
137.38,-179.33,-128.80,-91,-6562,-5306,0,-1,0
137.38,-179.32,-128.78,-95,-6542,-5301,0,-1,-1
137.40,-179.32,-128.78,-86,-6559,-5324,-1,-1,0
137.41,-179.30,-128.76,-95,-6554,-5290,1,-1,0
137.42,-179.28,-128.73,-83,-6553,-5282,0,-1,0
137.44,-179.26,-128.70,-106,-6548,-5258,1,-1,0
137.44,-179.24,-128.68,-98,-6551,-5270,0,-1,0
137.45,-179.22,-128.66,-95,-6528,-5237,0,-1,0
137.45,-179.22,-128.65,-105,-6506,-5227,-1,0,0
137.44,-179.22,-128.65,-124,-6526,-5201,-1,0,-1
137.42,-179.23,-128.67,-116,-6552,-5255,0,0,0
137.41,-179.21,-128.66,-102,-6613,-5325,0,-1,0
137.40,-179.16,-128.64,-99,-6644,-5396,1,-2,1
137.41,-179.09,-128.60,-113,-6641,-5401,2,-3,1
137.43,-179.01,-128.53,-151,-6627,-5345,2,-3,1
137.48,-178.95,-128.44,-161,-6620,-5270,2,-2,1
137.50,-178.92,-128.37,-203,-6594,-5203,1,-1,0
137.53,-178.92,-128.34,-197,-6611,-5170,0,0,-1
137.53,-178.94,-128.35,-183,-6612,-5188,-1,0,-1
137.52,-178.96,-128.39,-187,-6624,-5227,-2,0,-1
137.50,-178.99,-128.42,-169,-6654,-5282,-1,0,-1
137.50,-179.00,-128.43,-151,-6659,-5312,-1,-1,0
137.49,-178.99,-128.44,-141,-6629,-5293,-1,-1,0
137.47,-178.99,-128.47,-147,-6561,-5241,-1,0,-1
137.47,-179.00,-128.49,-129,-6552,-5230,-1,0,0
137.45,-179.01,-128.52,-143,-6555,-5238,-1,0,-1
137.44,-179.03,-128.53,-140,-6586,-5268,-1,0,-1
137.45,-179.04,-128.54,-130,-6546,-5252,-1,0,-1
137.44,-179.07,-128.56,-124,-6516,-5250,-1,0,-1
137.42,-179.10,-128.58,-126,-6552,-5301,0,0,-1
137.44,-179.08,-128.56,-120,-6649,-5395,0,-2,1
137.46,-179.02,-128.50,-148,-6724,-5411,1,-3,1
137.48,-178.95,-128.46,-154,-6676,-5365,2,-3,1
137.51,-178.90,-128.41,-140,-6617,-5303,1,-2,1
137.55,-178.83,-128.34,-193,-6604,-5284,3,-3,0
137.63,-178.78,-128.24,-224,-6610,-5293,3,-2,0
137.74,-178.75,-128.12,-200,-6651,-5319,5,-3,0
137.85,-178.67,-127.97,-188,-6689,-5344,5,-4,1
137.99,-178.57,-127.77,-174,-6719,-5327,7,-5,1
138.14,-178.45,-127.55,-188,-6711,-5318,8,-6,2
138.33,-178.31,-127.29,-180,-6689,-5209,8,-6,2
138.48,-178.15,-127.05,-192,-6661,-5162,9,-7,3
138.65,-177.96,-126.78,-201,-6678,-5127,9,-8,4
138.83,-177.70,-126.47,-273,-6745,-5169,12,-9,4
139.07,-177.47,-126.11,-341,-6785,-5141,12,-9,3
139.36,-177.25,-125.71,-380,-6896,-5235,17,-9,3
139.75,-177.01,-125.13,-477,-6967,-5216,23,-10,2
140.23,-176.84,-124.49,-482,-6964,-5020,22,-8,1
140.68,-176.69,-123.87,-497,-6927,-4855,21,-7,1
141.13,-176.59,-123.28,-482,-6902,-4639,19,-5,0
141.51,-176.52,-122.79,-540,-6897,-4513,15,-5,-1
141.90,-176.49,-122.34,-508,-6936,-4437,14,-4,-1
142.25,-176.45,-121.95,-522,-7000,-4432,14,-4,-2
142.57,-176.44,-121.60,-498,-7006,-4343,10,-3,-1
142.85,-176.41,-121.31,-511,-7090,-4408,11,-4,-2
143.15,-176.38,-121.01,-518,-7121,-4357,9,-5,-1
143.45,-176.35,-120.72,-491,-7175,-4332,10,-4,-2
143.72,-176.33,-120.44,-507,-7165,-4237,9,-3,-2
143.96,-176.36,-120.20,-474,-7127,-4112,6,-1,-2
144.10,-176.41,-120.06,-449,-7093,-4010,2,0,-2
144.14,-176.46,-120.04,-442,-7098,-3993,-1,0,-1
144.13,-176.48,-120.07,-493,-7172,-4051,-2,0,-1
144.09,-176.52,-120.15,-518,-7215,-4147,-3,1,-2
144.05,-176.59,-120.25,-518,-7257,-4235,-4,1,-3
144.00,-176.64,-120.35,-514,-7314,-4360,-2,0,-2
143.99,-176.69,-120.39,-496,-7318,-4350,-2,1,-2
144.00,-176.74,-120.41,-512,-7290,-4307,0,1,-2
144.04,-176.82,-120.42,-493,-7207,-4191,-2,1,-3
144.03,-176.90,-120.49,-470,-7151,-4169,-4,1,-3
143.97,-176.99,-120.61,-435,-7143,-4169,-6,2,-3
143.89,-177.07,-120.77,-405,-7173,-4230,-6,1,-2
143.81,-177.13,-120.92,-382,-7214,-4304,-5,1,-2
143.70,-177.17,-121.07,-354,-7198,-4363,-6,0,-1
143.58,-177.16,-121.22,-368,-7187,-4430,-5,-1,1
143.46,-177.12,-121.34,-398,-7174,-4405,-4,-1,1
143.35,-177.09,-121.45,-425,-7184,-4441,-4,-1,1
143.25,-177.06,-121.54,-437,-7193,-4467,-3,-1,0
143.17,-177.04,-121.63,-455,-7205,-4505,-3,0,0
143.11,-177.03,-121.68,-469,-7191,-4478,-2,0,0
143.06,-177.02,-121.72,-476,-7180,-4457,-2,0,-1
143.03,-177.05,-121.78,-489,-7183,-4468,-2,1,-2
143.01,-177.08,-121.82,-489,-7195,-4504,-1,1,-2
143.03,-177.13,-121.83,-473,-7184,-4471,-1,0,-2
143.03,-177.18,-121.87,-449,-7175,-4540,-1,0,-2
143.10,-177.20,-121.84,-401,-7198,-4569,2,-1,-1
143.18,-177.21,-121.74,-435,-7187,-4528,4,-1,-1
143.28,-177.23,-121.65,-401,-7185,-4473,2,0,-1
143.38,-177.25,-121.56,-392,-7146,-4434,4,-1,-2
143.44,-177.28,-121.49,-351,-7094,-4338,0,0,-1
143.44,-177.28,-121.49,-375,-7100,-4316,0,-1,-1
143.41,-177.27,-121.54,-374,-7113,-4342,-3,-1,0
143.37,-177.27,-121.59,-380,-7131,-4367,-2,-1,-1
143.31,-177.27,-121.66,-422,-7113,-4391,-3,0,-1
143.29,-177.30,-121.71,-411,-7142,-4358,-3,1,-2
143.23,-177.35,-121.82,-456,-7158,-4420,-4,1,-2
143.18,-177.43,-121.92,-406,-7190,-4458,-5,2,-2
143.12,-177.51,-122.03,-420,-7190,-4507,-3,2,-3
143.07,-177.60,-122.14,-380,-7180,-4532,-5,2,-2
143.04,-177.66,-122.22,-357,-7151,-4549,-2,1,-3
143.02,-177.73,-122.29,-345,-7133,-4574,-3,1,-2
143.02,-177.78,-122.33,-338,-7156,-4573,-1,1,-2
143.03,-177.84,-122.34,-363,-7151,-4595,0,1,-2
143.08,-177.90,-122.32,-321,-7148,-4554,0,1,-2
143.10,-177.95,-122.32,-357,-7126,-4558,1,1,-2
143.15,-178.03,-122.30,-305,-7119,-4470,-1,1,-2
143.16,-178.10,-122.33,-325,-7071,-4411,-2,1,-3
143.14,-178.20,-122.42,-272,-7057,-4403,-5,1,-3
143.07,-178.27,-122.56,-273,-7048,-4465,-5,0,-3
143.00,-178.31,-122.69,-230,-7053,-4535,-5,0,-1
142.94,-178.31,-122.81,-220,-7023,-4547,-4,-1,-1
142.87,-178.30,-122.93,-235,-7055,-4641,-4,-1,0
142.85,-178.28,-122.95,-249,-7059,-4668,0,-1,0
142.87,-178.25,-122.93,-263,-7068,-4664,1,-1,0
142.92,-178.24,-122.85,-265,-7064,-4611,3,-1,-1
142.97,-178.25,-122.79,-272,-7034,-4535,1,0,-1
142.96,-178.28,-122.80,-250,-7010,-4480,-2,0,-1
142.91,-178.30,-122.89,-246,-7046,-4508,-4,0,-1
142.86,-178.31,-122.96,-222,-7055,-4541,-3,0,0
142.80,-178.31,-123.04,-227,-7043,-4593,-3,-1,0
142.75,-178.29,-123.09,-260,-7042,-4587,-3,-1,0
142.71,-178.28,-123.16,-248,-7059,-4601,-3,-1,0
142.64,-178.27,-123.24,-232,-7075,-4646,-3,-1,0
142.58,-178.24,-123.31,-245,-7098,-4719,-2,-1,0
142.53,-178.21,-123.34,-264,-7098,-4714,-2,-1,0
142.50,-178.21,-123.38,-275,-7089,-4703,-2,0,-1
142.46,-178.23,-123.42,-273,-7081,-4709,-2,0,-1
142.45,-178.26,-123.44,-286,-7048,-4684,-1,0,-1
142.44,-178.29,-123.49,-281,-7034,-4687,-2,0,-1
142.43,-178.33,-123.52,-259,-7042,-4686,-1,0,-1
142.43,-178.35,-123.54,-252,-7043,-4719,-1,0,-1
142.46,-178.38,-123.53,-235,-7059,-4723,0,0,-1
142.50,-178.42,-123.49,-246,-7036,-4701,1,0,-2
142.55,-178.47,-123.47,-221,-7027,-4661,0,1,-2
142.57,-178.52,-123.45,-230,-7026,-4715,1,1,-2
142.64,-178.58,-123.40,-224,-7016,-4661,1,1,-2
142.71,-178.63,-123.35,-228,-7026,-4658,2,1,-3
142.77,-178.69,-123.30,-217,-7043,-4659,1,1,-2
142.84,-178.76,-123.27,-227,-7043,-4657,1,1,-3
142.90,-178.84,-123.25,-199,-7056,-4657,0,1,-3
142.98,-178.93,-123.21,-176,-7083,-4708,2,1,-3
143.08,-179.00,-123.12,-170,-7078,-4699,3,1,-3
143.21,-179.06,-122.99,-171,-7102,-4711,5,0,-2
143.39,-179.10,-122.80,-173,-7112,-4678,7,0,-2
143.61,-179.14,-122.57,-149,-7096,-4568,7,-1,-2
143.78,-179.16,-122.41,-141,-7043,-4388,2,-1,-3
143.86,-179.22,-122.39,-133,-7006,-4344,-1,0,-2
143.85,-179.28,-122.47,-112,-7001,-4371,-4,1,-3
143.81,-179.34,-122.58,-91,-7000,-4388,-5,0,-2
143.75,-179.38,-122.71,-52,-7065,-4485,-5,0,-1
143.66,-179.38,-122.85,-41,-7079,-4631,-4,-1,-1
143.62,-179.38,-122.91,-15,-7079,-4686,-1,-1,0
143.60,-179.32,-122.91,-64,-7073,-4710,1,-2,1
143.63,-179.27,-122.85,-50,-7091,-4675,2,-2,1
143.66,-179.21,-122.80,-106,-7076,-4674,3,-2,1
143.71,-179.16,-122.71,-128,-7073,-4564,1,-1,1
143.74,-179.13,-122.64,-158,-7069,-4545,3,-1,0
143.80,-179.12,-122.59,-124,-7108,-4563,1,-1,0
143.86,-179.10,-122.51,-129,-7101,-4571,3,-2,0
143.92,-179.08,-122.44,-131,-7115,-4554,2,-1,0
143.98,-179.04,-122.37,-156,-7128,-4505,2,-2,0
144.04,-179.02,-122.31,-169,-7150,-4483,1,-2,0
144.08,-178.98,-122.29,-207,-7152,-4373,-2,-3,-1
144.04,-178.95,-122.42,-293,-7123,-4306,-10,-4,-2
143.99,-178.92,-122.67,-203,-6944,-4164,-11,-6,-2
143.80,-178.85,-123.10,-102,-6782,-4149,-18,-7,0
143.50,-178.76,-123.63,-50,-6791,-4319,-20,-6,1
143.12,-178.69,-124.19,-144,-6916,-4769,-17,-1,-1
142.90,-178.69,-124.53,-141,-7066,-4998,-10,-1,0
142.78,-178.68,-124.71,-167,-7127,-5154,-3,-1,0
142.73,-178.64,-124.75,-181,-7135,-5124,-1,-1,1
142.72,-178.59,-124.75,-220,-7067,-5013,0,-2,0
142.71,-178.58,-124.75,-213,-6986,-4891,-1,-1,0
142.71,-178.58,-124.78,-221,-6906,-4805,-1,-1,-1
142.69,-178.60,-124.83,-197,-6897,-4811,-3,0,-1
142.67,-178.60,-124.86,-197,-6913,-4868,0,-1,-1
142.70,-178.61,-124.83,-203,-6923,-4893,1,-1,0
142.73,-178.61,-124.79,-194,-6957,-4862,1,-1,-1
142.73,-178.61,-124.78,-215,-6915,-4873,0,0,-1
142.77,-178.61,-124.75,-181,-6949,-4857,1,-1,0
142.78,-178.59,-124.70,-212,-6932,-4846,2,-1,0
142.82,-178.58,-124.65,-215,-6975,-4818,0,0,-1
142.85,-178.59,-124.64,-241,-6943,-4808,0,-1,-1
142.87,-178.60,-124.62,-228,-6926,-4774,-1,0,-1
142.88,-178.62,-124.64,-234,-6902,-4741,-1,0,-1
142.88,-178.65,-124.67,-230,-6904,-4697,-3,0,-2
142.85,-178.71,-124.77,-216,-6914,-4711,-4,1,-2
142.80,-178.77,-124.89,-202,-6906,-4770,-5,0,-2
142.77,-178.81,-124.98,-157,-6911,-4820,-4,0,-2
142.72,-178.85,-125.08,-150,-6888,-4861,-3,0,-1
142.68,-178.86,-125.13,-130,-6876,-4887,-2,-1,0
142.66,-178.85,-125.18,-138,-6844,-4844,-2,-1,0
142.60,-178.85,-125.24,-151,-6839,-4865,-2,0,0
142.56,-178.85,-125.30,-162,-6829,-4825,-3,0,0
142.51,-178.86,-125.36,-163,-6820,-4824,-2,0,-1
142.45,-178.89,-125.46,-154,-6809,-4828,-5,0,-1
142.39,-178.90,-125.54,-143,-6861,-4912,-2,0,-1
142.35,-178.91,-125.60,-179,-6899,-5039,-1,0,-1
142.35,-178.91,-125.58,-157,-6932,-5025,0,-1,0
142.36,-178.87,-125.54,-186,-6887,-4992,2,-2,0
142.39,-178.84,-125.49,-188,-6839,-4857,-1,-1,0
142.38,-178.85,-125.50,-187,-6809,-4828,-1,0,-1
142.36,-178.88,-125.55,-174,-6845,-4890,-3,1,-1
142.34,-178.90,-125.59,-162,-6837,-4887,-1,0,-1
142.31,-178.92,-125.63,-173,-6855,-4932,-2,0,0
142.31,-178.91,-125.63,-170,-6897,-4896,-1,-1,0
142.27,-178.91,-125.67,-202,-6862,-4883,-2,0,-1
142.25,-178.94,-125.71,-187,-6802,-4761,-4,1,-1
142.17,-179.00,-125.83,-205,-6724,-4726,-5,2,-3
142.08,-179.10,-126.01,-153,-6728,-4728,-9,3,-3
141.93,-179.19,-126.25,-109,-6777,-4896,-8,2,-2
141.81,-179.25,-126.46,-84,-6790,-5011,-8,1,-1
141.69,-179.28,-126.65,-48,-6805,-5119,-6,0,0
141.56,-179.25,-126.80,-62,-6775,-5180,-5,-1,1
141.49,-179.22,-126.88,-66,-6772,-5155,-3,-1,1
141.41,-179.19,-126.95,-121,-6729,-5123,-3,-1,0
141.37,-179.16,-126.99,-119,-6769,-5132,-2,0,0
141.33,-179.14,-127.02,-137,-6794,-5196,0,-1,0
141.32,-179.12,-127.01,-138,-6811,-5187,0,-1,0
141.34,-179.09,-126.98,-147,-6781,-5164,2,-1,0
141.37,-179.07,-126.92,-158,-6784,-5120,1,-1,0
141.40,-179.05,-126.88,-156,-6758,-5049,1,-1,0
141.40,-179.06,-126.88,-167,-6711,-4996,-2,0,-1
141.39,-179.09,-126.92,-135,-6722,-5026,-2,0,-1
141.36,-179.10,-126.96,-148,-6712,-5061,-2,0,-1
141.35,-179.11,-126.99,-121,-6724,-5046,-2,0,0
141.30,-179.10,-127.04,-131,-6737,-5084,-2,-1,0
141.26,-179.09,-127.10,-125,-6758,-5126,-2,0,0
141.23,-179.07,-127.13,-137,-6749,-5181,0,-1,0
141.22,-179.05,-127.12,-126,-6760,-5177,0,-1,0
141.24,-179.02,-127.08,-138,-6735,-5128,1,-1,0
141.26,-179.00,-127.04,-159,-6704,-5062,1,-1,0
141.27,-178.98,-127.01,-153,-6685,-5036,0,-1,0
141.29,-178.97,-126.99,-154,-6687,-5022,0,-1,0
141.29,-178.98,-126.98,-150,-6719,-5044,0,-1,0
141.30,-178.97,-126.97,-148,-6738,-5075,0,-1,0
141.29,-178.95,-126.98,-155,-6725,-5065,-1,-1,0
141.28,-178.93,-126.98,-157,-6735,-5071,-1,-1,0
141.27,-178.91,-126.99,-170,-6736,-5088,-1,-1,0
141.26,-178.90,-127.00,-161,-6745,-5084,-1,-1,0
141.25,-178.88,-127.00,-176,-6735,-5080,0,-1,0
141.25,-178.87,-127.00,-165,-6740,-5073,-1,-1,0
141.24,-178.85,-127.01,-169,-6739,-5089,0,-1,0
141.24,-178.84,-127.00,-158,-6739,-5079,0,-1,0
141.24,-178.81,-127.00,-171,-6726,-5074,0,-1,0
141.24,-178.81,-127.00,-167,-6715,-5065,-1,-1,0
141.23,-178.79,-127.01,-175,-6692,-5037,-1,-1,0
141.23,-178.79,-127.02,-173,-6708,-5040,-1,0,0
141.21,-178.79,-127.04,-167,-6729,-5071,-1,-1,-1
141.19,-178.80,-127.07,-167,-6730,-5092,-1,-1,0
141.19,-178.79,-127.08,-164,-6742,-5123,-1,-1,0
141.17,-178.77,-127.08,-177,-6728,-5123,0,-1,0
141.18,-178.75,-127.07,-169,-6731,-5087,0,-1,0
141.17,-178.74,-127.07,-192,-6714,-5092,-1,-1,0
141.18,-178.74,-127.07,-176,-6746,-5099,0,-1,0
141.17,-178.73,-127.07,-184,-6722,-5113,0,-1,0
141.19,-178.71,-127.05,-168,-6749,-5137,1,-1,0
141.21,-178.69,-127.00,-180,-6733,-5150,2,-2,0
141.26,-178.66,-126.93,-168,-6739,-5132,2,-1,0
141.30,-178.63,-126.86,-183,-6729,-5123,3,-1,0
141.36,-178.59,-126.73,-184,-6700,-5066,4,-2,1
141.45,-178.52,-126.56,-208,-6695,-5014,6,-2,1
141.52,-178.47,-126.43,-271,-6773,-4967,2,-1,0
141.55,-178.48,-126.39,-295,-6863,-4976,0,0,-2
141.57,-178.54,-126.41,-294,-6891,-4997,-3,1,-2
141.55,-178.60,-126.48,-258,-6839,-4984,-4,1,-2
141.50,-178.65,-126.58,-234,-6753,-4979,-4,1,-2
141.46,-178.69,-126.67,-196,-6723,-4998,-3,1,-1
141.42,-178.73,-126.75,-200,-6686,-5039,-3,1,-2
141.40,-178.79,-126.81,-173,-6730,-5079,-2,1,-2
141.38,-178.84,-126.86,-191,-6743,-5119,-2,1,-2
141.39,-178.89,-126.89,-155,-6772,-5109,-2,1,-1
141.38,-178.92,-126.92,-157,-6769,-5117,-1,0,-1
141.38,-178.94,-126.94,-138,-6735,-5093,-1,0,-1
141.37,-178.96,-126.96,-127,-6675,-5057,0,-1,-1
141.38,-178.97,-126.95,-128,-6668,-5011,-1,0,0
141.36,-178.97,-126.98,-139,-6678,-5021,-1,-1,-1
141.36,-178.98,-127.00,-140,-6703,-5042,-2,0,-1
141.35,-178.98,-127.03,-138,-6757,-5108,-1,-1,0
141.34,-178.98,-127.04,-150,-6737,-5090,-1,-1,0
141.33,-178.97,-127.06,-138,-6755,-5072,-1,-1,0
141.31,-178.95,-127.07,-164,-6726,-5044,-2,-1,0
141.29,-178.94,-127.10,-156,-6737,-5037,-2,-1,0
141.25,-178.94,-127.15,-180,-6709,-5055,-2,0,-1
141.23,-178.94,-127.19,-172,-6732,-5061,-3,0,0
141.18,-178.95,-127.26,-172,-6708,-5097,-3,0,-1
141.14,-178.96,-127.31,-149,-6711,-5106,-3,0,0
141.09,-178.96,-127.38,-155,-6720,-5153,-2,0,0
141.05,-178.96,-127.41,-153,-6714,-5136,-2,0,0
141.01,-178.95,-127.46,-147,-6691,-5131,-2,0,0
140.97,-178.95,-127.51,-148,-6680,-5136,-2,0,0
140.93,-178.95,-127.56,-136,-6667,-5146,-2,-1,0
140.90,-178.95,-127.58,-146,-6636,-5137,-1,-1,0
140.88,-178.92,-127.59,-153,-6665,-5131,-1,-1,0
140.86,-178.90,-127.59,-181,-6677,-5157,-1,-1,0
140.85,-178.88,-127.60,-176,-6693,-5159,-1,-1,0
140.83,-178.86,-127.61,-173,-6687,-5153,-1,-1,0
140.82,-178.85,-127.62,-171,-6677,-5168,0,-1,0
140.82,-178.83,-127.61,-175,-6659,-5139,0,-1,0
140.81,-178.82,-127.61,-162,-6652,-5149,0,-1,0
140.81,-178.80,-127.61,-181,-6648,-5138,0,-1,0
140.80,-178.78,-127.61,-170,-6667,-5113,-1,0,0
140.77,-178.78,-127.63,-171,-6686,-5146,-1,-1,0
140.74,-178.77,-127.66,-181,-6690,-5155,-2,0,0
140.72,-178.77,-127.69,-179,-6665,-5164,-1,-1,0
140.69,-178.76,-127.72,-178,-6657,-5168,-2,-1,0
140.67,-178.74,-127.74,-176,-6644,-5170,-1,-1,0
140.65,-178.74,-127.75,-188,-6641,-5170,-1,0,0
140.64,-178.73,-127.77,-182,-6666,-5159,-1,-1,0
140.61,-178.73,-127.80,-203,-6669,-5183,-1,0,0
140.60,-178.72,-127.81,-194,-6695,-5191,-1,0,0
140.58,-178.73,-127.83,-189,-6661,-5185,-1,-1,-1
140.57,-178.73,-127.85,-178,-6647,-5168,-2,0,0
140.55,-178.73,-127.87,-176,-6644,-5167,-1,-1,0
140.52,-178.73,-127.89,-185,-6636,-5166,-2,0,0
140.50,-178.72,-127.90,-180,-6640,-5193,0,-1,0
140.49,-178.72,-127.92,-185,-6620,-5194,-1,0,0
140.48,-178.71,-127.92,-179,-6654,-5180,-1,-1,0
140.47,-178.70,-127.93,-196,-6652,-5201,0,-1,0
140.46,-178.70,-127.92,-193,-6651,-5188,-1,0,0
140.45,-178.70,-127.94,-199,-6645,-5219,-1,-1,-1
140.44,-178.71,-127.95,-206,-6654,-5202,-1,0,-1
140.44,-178.71,-127.96,-201,-6649,-5204,0,0,-1
140.44,-178.72,-127.96,-203,-6637,-5189,-1,0,-1
140.44,-178.72,-127.96,-175,-6656,-5188,0,0,0
140.43,-178.73,-127.97,-206,-6639,-5185,-1,0,-1
140.43,-178.74,-127.97,-182,-6666,-5196,-1,0,-1
140.42,-178.75,-127.99,-201,-6640,-5206,-1,0,-1
140.42,-178.76,-128.00,-196,-6648,-5185,-1,0,-1
140.40,-178.78,-128.02,-188,-6661,-5236,-1,0,-1
140.40,-178.78,-128.02,-181,-6639,-5217,-1,0,0
140.40,-178.79,-128.01,-166,-6629,-5204,0,0,-1
140.40,-178.80,-128.02,-180,-6636,-5217,-1,0,-1
140.41,-178.82,-128.01,-156,-6636,-5204,0,-1,0
140.41,-178.82,-128.01,-187,-6609,-5209,0,-1,-1
140.42,-178.81,-127.99,-181,-6635,-5175,0,-1,0
140.42,-178.81,-127.98,-190,-6637,-5185,0,0,0
140.41,-178.81,-127.99,-173,-6641,-5162,-1,0,0
140.39,-178.81,-128.01,-165,-6627,-5188,-1,-1,0
140.37,-178.80,-128.01,-174,-6623,-5168,-1,0,0
140.36,-178.79,-128.03,-163,-6629,-5202,0,-1,0
140.34,-178.77,-128.02,-178,-6615,-5199,0,0,0
140.35,-178.76,-128.01,-176,-6640,-5208,0,-1,0
140.33,-178.75,-128.02,-194,-6664,-5213,-1,0,-1
140.33,-178.75,-128.03,-202,-6672,-5217,-1,0,0
140.31,-178.76,-128.05,-190,-6659,-5202,-1,0,-1
140.30,-178.76,-128.07,-197,-6632,-5199,-1,0,-1
140.30,-178.77,-128.07,-173,-6619,-5162,-1,0,0
140.28,-178.76,-128.09,-176,-6621,-5183,-1,0,0
140.27,-178.77,-128.11,-174,-6634,-5181,-1,0,0
140.24,-178.77,-128.15,-181,-6637,-5217,-2,0,0
140.22,-178.77,-128.17,-178,-6642,-5233,-1,0,0
140.20,-178.78,-128.19,-191,-6633,-5230,-1,0,-1
140.19,-178.77,-128.21,-176,-6616,-5217,-1,0,0
140.18,-178.76,-128.22,-180,-6601,-5203,-1,-1,0
140.15,-178.75,-128.23,-187,-6614,-5193,-1,-1,0
140.14,-178.73,-128.26,-188,-6626,-5229,-1,-1,0
140.12,-178.73,-128.27,-194,-6618,-5237,-1,0,0
140.11,-178.73,-128.29,-195,-6617,-5231,-1,0,-1
140.11,-178.74,-128.29,-199,-6611,-5256,0,0,-1
140.11,-178.74,-128.29,-184,-6636,-5237,-1,0,-1
140.09,-178.74,-128.30,-190,-6626,-5258,-1,0,-1
140.09,-178.74,-128.30,-183,-6616,-5231,-1,0,0
140.09,-178.73,-128.30,-183,-6598,-5222,0,-1,0
140.08,-178.72,-128.29,-196,-6605,-5211,-1,0,0
140.07,-178.70,-128.29,-200,-6619,-5216,-1,-1,0
140.04,-178.69,-128.31,-204,-6633,-5253,-1,-1,0
140.04,-178.69,-128.32,-214,-6627,-5264,0,0,-1
140.04,-178.70,-128.33,-202,-6603,-5259,-1,0,-1
140.04,-178.70,-128.32,-181,-6608,-5239,0,0,-1
140.04,-178.72,-128.33,-168,-6589,-5238,-1,0,0
140.03,-178.71,-128.34,-149,-6602,-5234,-1,-1,0
140.00,-178.69,-128.35,-179,-6583,-5211,-1,-1,0
139.98,-178.66,-128.38,-183,-6612,-5229,-1,-1,0
139.95,-178.64,-128.40,-205,-6603,-5260,-1,-1,0
139.94,-178.62,-128.40,-215,-6599,-5245,-1,-1,0
139.93,-178.59,-128.40,-215,-6605,-5267,0,-1,0
139.92,-178.58,-128.38,-229,-6615,-5259,0,-1,0
139.94,-178.57,-128.36,-225,-6623,-5251,1,-1,-1
139.96,-178.57,-128.34,-224,-6618,-5243,0,0,-1
139.99,-178.58,-128.31,-199,-6620,-5210,0,-1,-1
139.99,-178.58,-128.30,-216,-6597,-5211,0,0,-1
140.00,-178.58,-128.29,-207,-6622,-5203,0,-1,0
139.99,-178.57,-128.29,-215,-6612,-5221,0,-1,-1
140.01,-178.57,-128.28,-210,-6640,-5229,-1,-1,0
140.00,-178.56,-128.28,-216,-6623,-5228,0,-1,0
140.00,-178.56,-128.27,-213,-6608,-5214,-1,-1,0
140.00,-178.55,-128.27,-215,-6597,-5218,0,-1,0
139.99,-178.54,-128.27,-213,-6597,-5231,0,-1,0
140.00,-178.54,-128.27,-206,-6602,-5224,-1,-1,-1
139.99,-178.55,-128.29,-215,-6610,-5237,-1,0,0
139.99,-178.54,-128.29,-205,-6633,-5236,-1,-1,0
139.97,-178.53,-128.30,-233,-6614,-5228,-1,-1,0
139.97,-178.53,-128.30,-225,-6608,-5225,-1,0,0
139.96,-178.52,-128.32,-226,-6587,-5226,-1,-1,0
139.96,-178.52,-128.31,-226,-6593,-5219,-1,0,0
139.95,-178.51,-128.32,-220,-6602,-5247,-1,-1,0
139.95,-178.51,-128.31,-224,-6615,-5256,0,0,-1
139.96,-178.52,-128.31,-221,-6625,-5241,0,-1,-1
139.96,-178.52,-128.31,-220,-6626,-5255,0,-1,-1
139.97,-178.51,-128.30,-222,-6618,-5240,0,-1,-1
139.99,-178.51,-128.29,-223,-6600,-5242,0,-1,-1
140.00,-178.51,-128.27,-211,-6597,-5229,0,-1,-1
140.02,-178.51,-128.26,-212,-6604,-5214,0,-1,0
140.02,-178.50,-128.25,-214,-6605,-5220,0,-1,0
140.02,-178.49,-128.25,-226,-6614,-5238,0,-1,0
140.02,-178.48,-128.23,-217,-6617,-5227,0,-1,0
140.03,-178.47,-128.23,-230,-6600,-5218,0,0,-1
140.03,-178.46,-128.22,-226,-6619,-5212,-1,0,0
140.02,-178.47,-128.24,-236,-6606,-5227,0,0,-1
140.01,-178.47,-128.24,-229,-6619,-5225,-1,0,0
140.01,-178.47,-128.24,-216,-6618,-5236,0,-1,0
140.01,-178.48,-128.24,-233,-6616,-5234,-1,0,-1
140.02,-178.49,-128.24,-219,-6636,-5234,0,-1,0
140.01,-178.48,-128.24,-249,-6602,-5213,-1,0,-1
140.01,-178.49,-128.24,-221,-6623,-5210,-1,0,0
140.01,-178.49,-128.25,-231,-6614,-5224,0,0,-1
140.01,-178.50,-128.26,-234,-6628,-5218,-1,0,-1
140.00,-178.51,-128.27,-219,-6620,-5251,0,-1,-1
140.00,-178.52,-128.27,-220,-6609,-5248,-1,0,-1
140.01,-178.53,-128.26,-199,-6608,-5223,0,-1,-1
140.00,-178.53,-128.27,-216,-6592,-5231,-1,0,-1
140.01,-178.54,-128.26,-198,-6600,-5214,0,-1,0
140.01,-178.54,-128.26,-219,-6589,-5213,0,0,-1
140.01,-178.54,-128.25,-206,-6615,-5219,0,0,0
140.01,-178.54,-128.24,-210,-6613,-5228,0,-1,-1
140.02,-178.54,-128.23,-235,-6617,-5226,0,0,-1
140.03,-178.54,-128.21,-203,-6629,-5236,1,-1,0
140.04,-178.55,-128.19,-222,-6633,-5265,0,0,-1
140.07,-178.54,-128.15,-201,-6618,-5204,1,-1,0
140.07,-178.53,-128.14,-207,-6592,-5193,-1,-1,0
140.08,-178.51,-128.12,-225,-6658,-5227,0,-1,0
140.09,-178.52,-128.11,-222,-6629,-5197,-1,0,-1
140.09,-178.53,-128.10,-223,-6647,-5239,0,0,-1
140.10,-178.54,-128.10,-208,-6609,-5197,-1,-1,-1
140.10,-178.55,-128.10,-228,-6615,-5197,-1,0,-1
140.08,-178.57,-128.13,-201,-6622,-5195,-2,0,-1
140.06,-178.59,-128.16,-225,-6625,-5251,0,0,-1
140.07,-178.61,-128.16,-192,-6618,-5202,-1,0,0
140.03,-178.62,-128.20,-200,-6586,-5178,-2,0,-1
140.01,-178.64,-128.24,-200,-6617,-5248,-1,0,-1
140.00,-178.65,-128.25,-199,-6609,-5221,-1,0,-1
140.00,-178.67,-128.26,-187,-6625,-5275,-1,0,-1
140.01,-178.69,-128.24,-192,-6614,-5262,1,0,-1
140.02,-178.71,-128.23,-184,-6608,-5217,0,0,-1
140.03,-178.70,-128.22,-169,-6615,-5226,0,-1,0
140.02,-178.69,-128.22,-181,-6592,-5190,-1,0,0
140.02,-178.70,-128.22,-176,-6608,-5222,0,0,0
140.02,-178.70,-128.22,-176,-6609,-5197,-1,0,-1
140.01,-178.69,-128.23,-194,-6617,-5244,0,-1,0
140.01,-178.69,-128.22,-177,-6638,-5232,0,-1,0
140.01,-178.67,-128.21,-210,-6620,-5226,0,-1,0
140.01,-178.67,-128.20,-197,-6632,-5216,0,0,0
140.00,-178.66,-128.21,-203,-6621,-5222,-1,-1,0
139.99,-178.64,-128.21,-204,-6625,-5237,0,-1,0
139.98,-178.63,-128.21,-210,-6609,-5221,0,-1,0
139.97,-178.62,-128.21,-216,-6621,-5236,0,0,0
139.97,-178.62,-128.20,-200,-6634,-5221,-1,-1,0
139.96,-178.61,-128.21,-209,-6624,-5232,-1,0,0
139.96,-178.60,-128.22,-205,-6628,-5230,-1,-1,0
139.95,-178.60,-128.23,-210,-6617,-5237,-1,0,0
139.94,-178.59,-128.23,-188,-6625,-5216,-1,-1,0
139.92,-178.58,-128.26,-223,-6596,-5240,-1,-1,-1
139.91,-178.58,-128.27,-205,-6601,-5220,-1,0,0
139.90,-178.58,-128.29,-216,-6587,-5229,-1,-1,-1
139.90,-178.58,-128.29,-221,-6623,-5238,-1,0,0
139.90,-178.58,-128.29,-221,-6630,-5237,0,0,-1
139.89,-178.59,-128.30,-227,-6620,-5228,-1,0,-1
139.89,-178.60,-128.32,-219,-6605,-5203,-1,0,-1
139.87,-178.61,-128.34,-216,-6593,-5218,-1,0,-1
139.86,-178.62,-128.36,-202,-6601,-5212,-1,0,-1
139.85,-178.64,-128.39,-221,-6592,-5253,-1,0,-1
139.86,-178.66,-128.39,-183,-6616,-5249,-1,0,-1
139.85,-178.67,-128.41,-199,-6604,-5254,-1,0,-1
139.85,-178.68,-128.42,-182,-6615,-5254,-2,0,-1
139.83,-178.69,-128.45,-189,-6615,-5263,-1,-1,-1
139.84,-178.69,-128.46,-191,-6601,-5255,0,0,0
139.83,-178.70,-128.46,-209,-6577,-5230,-1,0,-1
139.82,-178.70,-128.47,-211,-6571,-5228,-1,0,-1
139.83,-178.71,-128.48,-192,-6593,-5255,-1,0,-1
139.81,-178.72,-128.50,-194,-6602,-5270,-1,0,-1
139.82,-178.74,-128.51,-176,-6629,-5270,-1,0,-1
139.80,-178.73,-128.53,-194,-6601,-5274,-1,0,-1
139.81,-178.74,-128.53,-194,-6579,-5244,-1,0,0
139.79,-178.74,-128.54,-191,-6562,-5255,-1,0,-1
139.80,-178.75,-128.55,-183,-6590,-5266,-1,0,-1
139.80,-178.75,-128.55,-184,-6607,-5284,0,-1,-1
139.81,-178.75,-128.54,-178,-6593,-5280,0,-1,-1
139.83,-178.75,-128.52,-182,-6582,-5273,0,-1,-1
139.84,-178.76,-128.50,-184,-6570,-5274,0,0,-1
139.87,-178.76,-128.48,-190,-6578,-5291,1,-1,-1
139.91,-178.77,-128.43,-168,-6597,-5278,1,-1,-1
139.93,-178.75,-128.39,-162,-6604,-5266,1,-1,0
139.94,-178.73,-128.36,-164,-6597,-5217,0,-1,0
139.95,-178.70,-128.35,-182,-6607,-5218,0,-1,0
139.93,-178.68,-128.36,-205,-6591,-5223,-1,-1,0
139.93,-178.68,-128.37,-202,-6596,-5197,-1,0,0
139.89,-178.70,-128.42,-222,-6585,-5240,-2,0,-1
139.88,-178.73,-128.45,-199,-6618,-5242,-3,1,-1
139.84,-178.76,-128.52,-194,-6618,-5268,-2,1,-1
139.79,-178.80,-128.60,-188,-6596,-5256,-4,1,-1
139.75,-178.85,-128.67,-165,-6577,-5243,-3,1,-1
139.70,-178.89,-128.75,-179,-6537,-5237,-3,1,-1
139.66,-178.91,-128.81,-146,-6552,-5256,-2,0,-1
139.62,-178.93,-128.87,-168,-6541,-5322,-1,0,-1
139.60,-178.94,-128.88,-150,-6599,-5373,0,0,0
139.61,-178.93,-128.88,-166,-6608,-5393,0,-1,-1
139.61,-178.93,-128.88,-165,-6586,-5339,0,0,0
139.61,-178.93,-128.86,-166,-6541,-5295,0,0,-1
139.61,-178.96,-128.87,-184,-6534,-5285,-1,1,-1
139.61,-178.99,-128.88,-163,-6572,-5335,0,0,-1
139.61,-179.01,-128.87,-174,-6583,-5350,0,1,-1
139.63,-179.03,-128.85,-154,-6578,-5310,0,0,-1
139.63,-179.05,-128.84,-153,-6563,-5309,0,0,-1
139.63,-179.06,-128.84,-146,-6568,-5292,-1,0,-1
139.64,-179.08,-128.83,-142,-6558,-5292,0,0,-1
139.64,-179.09,-128.82,-136,-6562,-5299,0,0,-1
139.66,-179.11,-128.80,-139,-6568,-5300,1,0,-1
139.68,-179.13,-128.78,-155,-6568,-5307,0,0,-1
139.70,-179.16,-128.76,-121,-6593,-5289,-1,0,-1
139.68,-179.19,-128.80,-121,-6559,-5258,-2,0,-1
139.67,-179.21,-128.84,-103,-6536,-5244,-2,0,-1
139.65,-179.23,-128.87,-97,-6496,-5253,-1,0,-1
139.63,-179.24,-128.89,-107,-6516,-5251,-2,0,-1
139.61,-179.26,-128.91,-131,-6532,-5257,-2,1,-1
139.58,-179.30,-128.96,-115,-6563,-5310,-2,1,-1
139.56,-179.35,-129.00,-103,-6562,-5316,-2,1,-1
139.54,-179.39,-129.04,-108,-6541,-5307,-2,1,-1
139.50,-179.43,-129.09,-81,-6543,-5287,-2,1,-1
139.46,-179.47,-129.17,-95,-6514,-5288,-3,1,-1
139.41,-179.52,-129.25,-82,-6526,-5301,-4,1,-1
139.35,-179.58,-129.36,-78,-6506,-5339,-4,1,-2
139.31,-179.63,-129.44,-59,-6521,-5390,-3,1,-1
139.28,-179.66,-129.48,-50,-6522,-5406,-1,0,-1
139.26,-179.68,-129.51,-49,-6528,-5419,-1,0,-1
139.26,-179.70,-129.52,-49,-6514,-5392,-1,0,-1
139.24,-179.72,-129.55,-54,-6516,-5382,-1,0,-1
139.22,-179.74,-129.59,-38,-6511,-5374,-2,0,-1
139.20,-179.76,-129.63,-42,-6492,-5344,-2,0,-1
139.16,-179.78,-129.68,-42,-6481,-5371,-2,0,-1
139.14,-179.80,-129.72,-32,-6479,-5367,-2,0,-1
139.11,-179.82,-129.77,-46,-6484,-5411,-2,0,-1
139.09,-179.84,-129.80,-26,-6497,-5415,-2,0,-1
139.07,-179.84,-129.83,-44,-6494,-5435,-1,0,-1
139.07,-179.84,-129.83,-34,-6495,-5436,0,0,-1
139.08,-179.85,-129.82,-39,-6482,-5428,0,0,-1
139.09,-179.85,-129.82,-14,-6482,-5420,0,-1,0
139.09,-179.84,-129.82,-18,-6462,-5394,0,-1,0
139.08,-179.84,-129.82,-29,-6463,-5395,-1,0,0
139.08,-179.83,-129.83,-29,-6466,-5394,-1,-1,-1
139.07,-179.82,-129.84,-37,-6464,-5409,-1,0,0
139.08,-179.83,-129.84,-28,-6480,-5410,-1,-1,-1
139.07,-179.83,-129.85,-34,-6475,-5435,0,0,-1
139.08,-179.83,-129.84,-6,-6487,-5420,0,-1,0
139.08,-179.82,-129.84,-41,-6463,-5421,0,-1,0
139.09,-179.81,-129.82,-15,-6489,-5419,0,-1,0
139.10,-179.79,-129.81,-41,-6448,-5398,0,-1,0
139.12,-179.78,-129.79,-23,-6452,-5388,0,-1,0
139.12,-179.77,-129.78,-28,-6460,-5388,0,-1,0
139.12,-179.76,-129.77,-32,-6492,-5417,0,-1,0
139.13,-179.75,-129.77,-47,-6482,-5416,0,-1,-1
139.14,-179.73,-129.76,-46,-6484,-5396,0,-1,0
139.14,-179.72,-129.75,-47,-6476,-5381,0,-1,0
139.14,-179.71,-129.75,-39,-6466,-5395,0,-1,0
139.15,-179.70,-129.75,-33,-6472,-5412,0,-1,0
139.15,-179.68,-129.74,-48,-6455,-5398,0,-1,0
139.15,-179.67,-129.74,-34,-6475,-5411,0,-1,0
139.14,-179.65,-129.73,-59,-6460,-5406,0,-1,-1
139.15,-179.65,-129.73,-39,-6483,-5403,0,-1,0
139.15,-179.66,-129.73,-48,-6457,-5411,0,0,-1
139.14,-179.67,-129.75,-27,-6436,-5424,-1,0,0
139.11,-179.69,-129.78,-27,-6419,-5441,-1,0,-1
139.11,-179.70,-129.80,-23,-6446,-5472,-1,0,0
139.11,-179.72,-129.79,-50,-6493,-5457,0,0,-1
139.13,-179.74,-129.76,-73,-6552,-5433,1,0,-1
139.17,-179.75,-129.71,-81,-6553,-5365,0,0,-1
139.18,-179.76,-129.70,-87,-6516,-5322,-1,0,-1
139.17,-179.77,-129.71,-45,-6496,-5283,-2,0,-1
139.14,-179.78,-129.75,-44,-6440,-5297,-2,0,-1
139.11,-179.79,-129.80,-14,-6443,-5343,-2,0,0
139.09,-179.80,-129.84,-21,-6431,-5423,-1,-1,0
139.09,-179.79,-129.84,-20,-6460,-5448,0,-1,0
139.10,-179.78,-129.82,-34,-6484,-5469,1,-1,0
139.13,-179.76,-129.77,-50,-6524,-5434,1,-1,0
139.15,-179.74,-129.72,-61,-6515,-5399,1,-1,-1
139.17,-179.76,-129.70,-36,-6474,-5362,-1,0,-1
139.17,-179.76,-129.72,-34,-6448,-5353,-1,-1,-1
139.16,-179.76,-129.74,-31,-6449,-5374,-1,-1,0
139.17,-179.75,-129.73,-34,-6463,-5388,0,-1,0
139.18,-179.74,-129.73,-47,-6468,-5411,0,-1,0
139.19,-179.72,-129.71,-55,-6465,-5437,1,-1,-1
139.22,-179.71,-129.68,-46,-6465,-5428,0,-1,0
139.24,-179.70,-129.65,-52,-6474,-5413,1,-1,-1
139.27,-179.69,-129.62,-49,-6492,-5401,1,-1,0
139.30,-179.68,-129.57,-36,-6501,-5378,1,-1,0
139.32,-179.68,-129.54,-55,-6473,-5351,0,-1,-1
139.34,-179.67,-129.53,-26,-6487,-5355,0,-1,0
139.34,-179.65,-129.51,-44,-6457,-5352,0,-1,0
139.36,-179.64,-129.49,-9,-6489,-5341,0,-1,0
139.38,-179.62,-129.46,-27,-6499,-5344,1,-2,0
139.38,-179.57,-129.43,-44,-6494,-5342,0,-2,1
139.39,-179.52,-129.42,-47,-6483,-5339,0,-2,1
139.38,-179.48,-129.40,-75,-6480,-5338,0,-2,1
139.39,-179.44,-129.37,-66,-6501,-5340,0,-2,0
139.39,-179.40,-129.35,-85,-6488,-5376,1,-2,0
139.41,-179.36,-129.32,-90,-6513,-5346,0,-1,0
139.41,-179.33,-129.31,-108,-6513,-5332,0,-1,0
139.40,-179.29,-129.30,-88,-6515,-5320,-1,-1,1
139.37,-179.25,-129.32,-103,-6456,-5286,-1,-1,0
139.32,-179.22,-129.37,-131,-6435,-5241,-3,-1,0
139.27,-179.21,-129.44,-133,-6442,-5201,-4,0,0
139.17,-179.20,-129.58,-158,-6475,-5261,-6,0,0
139.06,-179.22,-129.75,-125,-6500,-5341,-7,0,-1
138.91,-179.25,-129.99,-141,-6488,-5457,-8,1,-1
138.79,-179.29,-130.22,-130,-6528,-5541,-8,1,-1
138.70,-179.32,-130.39,-131,-6517,-5595,-5,0,-1
138.64,-179.35,-130.51,-122,-6528,-5640,-3,1,-1
138.64,-179.39,-130.53,-119,-6487,-5591,-1,0,-1
138.64,-179.43,-130.55,-92,-6420,-5568,-1,1,-1
138.65,-179.46,-130.54,-60,-6417,-5544,0,0,-1
138.65,-179.49,-130.55,-69,-6398,-5522,0,0,-1
138.67,-179.52,-130.55,-49,-6416,-5505,-1,0,-1
138.67,-179.53,-130.54,-83,-6403,-5452,0,0,-1
138.69,-179.54,-130.53,-85,-6428,-5417,-1,0,-1
138.69,-179.55,-130.54,-66,-6417,-5448,-1,-1,-1
138.69,-179.56,-130.55,-46,-6381,-5496,-1,0,0
138.69,-179.56,-130.55,-40,-6383,-5489,0,-1,0
138.69,-179.55,-130.55,-48,-6392,-5509,0,-1,0
138.70,-179.54,-130.52,-31,-6398,-5522,1,-1,0
138.71,-179.53,-130.50,-43,-6347,-5508,1,-1,0
138.73,-179.51,-130.45,-50,-6370,-5490,1,-1,0
138.75,-179.48,-130.41,-90,-6424,-5497,2,-1,0
138.78,-179.45,-130.35,-93,-6469,-5495,1,-1,0
138.79,-179.43,-130.30,-97,-6438,-5484,1,-1,0
138.81,-179.41,-130.27,-94,-6434,-5471,1,-1,0
138.82,-179.40,-130.23,-92,-6438,-5440,1,-1,0
138.83,-179.40,-130.21,-85,-6430,-5441,0,0,0
138.83,-179.40,-130.20,-82,-6411,-5449,0,-1,0
138.83,-179.39,-130.19,-88,-6418,-5473,1,-1,0
138.84,-179.36,-130.15,-103,-6451,-5470,1,-1,0
138.85,-179.35,-130.11,-105,-6459,-5475,1,-1,0
138.88,-179.33,-130.06,-111,-6451,-5470,1,-1,0
138.91,-179.33,-130.01,-99,-6445,-5447,2,-1,0
138.92,-179.32,-129.96,-96,-6434,-5413,1,-1,0
138.94,-179.30,-129.93,-91,-6454,-5411,1,-1,0
138.95,-179.28,-129.88,-94,-6446,-5402,1,-1,0
138.98,-179.26,-129.84,-96,-6467,-5411,1,-1,0
138.99,-179.23,-129.79,-111,-6483,-5430,2,-2,0
139.04,-179.19,-129.71,-97,-6484,-5440,2,-2,0
139.08,-179.16,-129.63,-118,-6470,-5432,3,-2,1
139.13,-179.10,-129.52,-122,-6491,-5393,3,-2,1
139.18,-179.04,-129.41,-128,-6480,-5358,4,-2,1
139.24,-179.00,-129.30,-120,-6483,-5356,3,-2,0
139.42,-178.92,-129.05,-117,-6492,-5253,11,-2,1
139.51,-178.87,-128.94,-155,-6514,-5245,6,-3,-3
139.53,-178.87,-128.90,-138,-6595,-5353,4,0,1
139.55,-178.84,-128.81,-214,-6506,-5261,1,-1,0
139.56,-178.84,-128.91,-122,-6582,-5266,-5,-1,-1
139.56,-178.82,-128.85,-169,-6578,-5304,2,-1,1
139.58,-178.81,-128.81,-145,-6601,-5317,1,-1,0
139.60,-178.79,-128.76,-160,-6576,-5343,1,-2,0
139.65,-178.75,-128.73,-161,-6577,-5347,1,-3,0
139.69,-178.67,-128.69,-179,-6589,-5349,1,-4,1
139.75,-178.56,-128.62,-170,-6621,-5352,2,-5,1
139.81,-178.42,-128.55,-202,-6589,-5324,2,-6,1
139.84,-178.30,-128.60,-261,-6458,-5062,-9,-7,-1
139.82,-178.24,-128.76,-250,-6523,-5137,-4,-3,-1
139.82,-178.22,-128.80,-249,-6521,-5208,0,-1,0
139.84,-178.23,-128.78,-248,-6552,-5226,0,-1,-1
139.84,-178.22,-128.79,-329,-6607,-5380,1,-1,0
139.96,-178.15,-128.70,-241,-6612,-5280,1,-2,2
139.96,-178.10,-128.69,-255,-6610,-5333,2,-1,0
139.97,-178.07,-128.67,-246,-6608,-5333,0,-1,1
139.96,-178.04,-128.67,-276,-6574,-5313,0,-2,0
139.97,-178.00,-128.64,-288,-6570,-5309,1,-1,0
140.01,-177.97,-128.58,-301,-6555,-5270,2,-2,0
140.05,-177.94,-128.52,-297,-6600,-5330,3,-2,0
140.14,-177.89,-128.40,-310,-6642,-5347,5,-3,0
140.23,-177.83,-128.24,-317,-6663,-5340,6,-3,1
140.32,-177.77,-128.08,-313,-6652,-5268,4,-3,0
140.39,-177.73,-127.97,-342,-6625,-5227,4,-2,0
140.46,-177.68,-127.86,-313,-6599,-5135,2,-2,0
140.51,-177.62,-127.76,-329,-6568,-5153,4,-3,1
140.60,-177.56,-127.63,-320,-6621,-5205,5,-3,1
140.71,-177.47,-127.43,-355,-6646,-5208,9,-4,1
140.87,-177.35,-127.16,-377,-6695,-5168,8,-5,1
141.05,-177.23,-126.88,-404,-6724,-5175,11,-5,1
141.29,-177.09,-126.54,-412,-6762,-5224,14,-8,1
141.63,-176.90,-126.05,-413,-6801,-5181,18,-9,2
141.99,-176.71,-125.51,-440,-6822,-5066,20,-9,2
142.35,-176.52,-124.99,-460,-6847,-4992,17,-9,2
142.74,-176.30,-124.46,-462,-6927,-5018,21,-11,3
143.18,-176.04,-123.78,-523,-6948,-4884,24,-11,3
143.65,-175.82,-123.10,-590,-6976,-4730,23,-10,2
144.14,-175.63,-122.44,-640,-6983,-4587,22,-10,1
144.66,-175.43,-121.80,-643,-7025,-4513,22,-12,1
145.19,-175.22,-121.14,-634,-7057,-4420,23,-12,1
145.69,-175.03,-120.48,-643,-7081,-4291,21,-9,2
146.08,-174.91,-119.93,-640,-7131,-4139,15,-6,1
146.31,-174.82,-119.58,-694,-7144,-4047,10,-2,1
146.41,-174.80,-119.42,-697,-7167,-3977,1,0,0
146.39,-174.81,-119.43,-717,-7185,-3998,-1,1,0
146.31,-174.83,-119.51,-717,-7208,-3987,-5,2,0
146.15,-174.88,-119.70,-745,-7201,-4029,-8,3,-1
145.97,-174.95,-119.94,-753,-7241,-4209,-8,3,-1
145.87,-174.99,-120.10,-771,-7327,-4352,-4,-1,-2
145.88,-175.01,-120.14,-765,-7312,-4359,1,-1,0
145.88,-174.99,-120.17,-699,-7295,-4263,-2,-1,0
145.84,-175.00,-120.20,-745,-7251,-4245,-1,1,-1
145.80,-175.03,-120.25,-728,-7274,-4220,-3,2,-1
145.73,-175.08,-120.31,-738,-7234,-4203,-2,2,-1
145.65,-175.13,-120.41,-735,-7231,-4255,-4,2,-1
145.61,-175.18,-120.48,-706,-7209,-4277,-1,1,-1
145.60,-175.19,-120.50,-703,-7210,-4311,-1,-1,0
145.62,-175.16,-120.46,-676,-7264,-4357,2,-3,1
145.66,-175.08,-120.39,-706,-7260,-4391,4,-4,1
145.79,-174.99,-120.21,-693,-7268,-4374,7,-5,2
145.91,-174.87,-120.00,-715,-7241,-4323,8,-4,2
146.07,-174.78,-119.74,-714,-7266,-4243,8,-3,2
146.20,-174.69,-119.50,-751,-7259,-4219,8,-3,1
146.33,-174.62,-119.25,-759,-7322,-4201,9,-1,2
146.45,-174.54,-119.00,-807,-7328,-4152,9,-2,1
146.59,-174.49,-118.75,-828,-7321,-4121,8,-2,1
146.74,-174.46,-118.54,-829,-7341,-4058,7,-1,0
146.89,-174.44,-118.35,-868,-7339,-4070,6,-3,-1
147.07,-174.40,-118.16,-827,-7348,-3987,5,-4,-1
147.21,-174.39,-118.01,-838,-7339,-3920,4,-2,-1
147.32,-174.40,-117.91,-803,-7376,-3894,1,-1,-1
147.34,-174.44,-117.91,-800,-7363,-3916,-1,1,-2
147.31,-174.48,-117.96,-774,-7362,-3902,-3,1,-1
147.23,-174.52,-118.07,-769,-7351,-3896,-4,1,-1
147.12,-174.55,-118.19,-765,-7356,-3914,-5,2,0
146.99,-174.58,-118.33,-773,-7349,-3921,-6,2,-1
146.81,-174.62,-118.55,-794,-7357,-3994,-8,3,-1
146.63,-174.68,-118.76,-780,-7365,-4022,-8,3,-1
146.46,-174.74,-118.98,-778,-7327,-4038,-8,3,-1
146.29,-174.78,-119.18,-784,-7326,-4094,-7,2,-1
146.14,-174.86,-119.42,-798,-7358,-4179,-8,2,-2
146.05,-174.92,-119.56,-796,-7361,-4227,-4,2,-2
146.03,-175.01,-119.63,-757,-7380,-4261,-2,2,-3
146.05,-175.07,-119.64,-754,-7342,-4278,1,1,-2
146.11,-175.11,-119.60,-708,-7319,-4232,1,0,-1
146.16,-175.13,-119.55,-712,-7268,-4154,1,-1,-1
146.20,-175.15,-119.53,-701,-7278,-4140,0,0,-1
146.23,-175.19,-119.53,-737,-7287,-4153,-1,0,-3
146.26,-175.28,-119.53,-692,-7308,-4174,0,3,-2
146.31,-175.36,-119.48,-700,-7306,-4182,3,3,-3
146.39,-175.42,-119.37,-674,-7345,-4205,5,2,-1
146.52,-175.47,-119.20,-694,-7340,-4193,7,1,-2
146.48,-175.56,-119.30,-594,-7109,-3770,-20,2,-1
145.92,-175.77,-120.08,-585,-7082,-3720,-32,9,-4
145.42,-176.01,-120.77,-537,-7106,-3808,-25,13,-5
144.93,-176.21,-121.46,-610,-7277,-4369,-15,8,-4
144.71,-176.34,-121.78,-625,-7292,-4584,-8,4,-3
144.63,-176.44,-121.93,-561,-7281,-4616,-4,1,-2
144.58,-176.49,-122.01,-548,-7198,-4610,-1,1,-2
144.58,-176.56,-122.04,-498,-7197,-4581,-1,1,-1
144.56,-176.60,-122.06,-525,-7150,-4522,-3,2,-1
144.52,-176.65,-122.12,-504,-7162,-4499,-3,2,-1
144.48,-176.70,-122.18,-508,-7123,-4503,-3,1,-2
144.45,-176.73,-122.21,-483,-7115,-4496,-1,0,0
144.44,-176.72,-122.22,-484,-7080,-4485,0,-1,0
144.43,-176.72,-122.22,-453,-7080,-4460,-2,0,0
144.38,-176.72,-122.25,-474,-7076,-4467,-1,0,0
144.32,-176.71,-122.29,-500,-7093,-4477,-2,0,0
144.29,-176.71,-122.32,-485,-7134,-4514,-1,0,-1
144.26,-176.71,-122.36,-488,-7117,-4525,-2,0,0
144.22,-176.70,-122.39,-472,-7119,-4523,-1,-1,0
144.20,-176.67,-122.41,-493,-7099,-4525,-1,-1,0
144.20,-176.66,-122.41,-475,-7096,-4490,-1,-1,0
144.17,-176.63,-122.43,-492,-7070,-4490,-1,-1,0
144.14,-176.62,-122.46,-505,-7069,-4475,-2,0,0
144.09,-176.62,-122.52,-494,-7070,-4504,-3,0,-1
144.04,-176.64,-122.59,-525,-7091,-4544,-3,0,-1
144.00,-176.67,-122.65,-531,-7117,-4595,-2,1,-2
144.00,-176.74,-122.69,-497,-7086,-4537,-2,1,-2
143.98,-176.81,-122.76,-486,-7021,-4538,-3,2,-2
143.94,-176.89,-122.83,-458,-7035,-4527,-3,2,-2
143.89,-176.95,-122.91,-451,-7037,-4592,-2,2,-2
143.88,-177.02,-122.93,-465,-7081,-4596,-2,2,-2
143.89,-177.10,-122.95,-479,-7094,-4626,0,2,-3
143.91,-177.22,-122.97,-470,-7099,-4597,-2,3,-4
143.95,-177.34,-122.99,-447,-7117,-4623,0,3,-4
143.99,-177.49,-123.02,-420,-7094,-4667,-1,3,-4
144.04,-177.62,-123.02,-386,-7074,-4605,-1,3,-4
144.08,-177.77,-123.05,-373,-7044,-4637,-1,3,-4
144.14,-177.91,-123.05,-318,-7071,-4628,-1,3,-4
144.18,-178.03,-123.04,-325,-7052,-4668,1,2,-4
144.27,-178.12,-122.99,-277,-7071,-4627,1,2,-3
144.33,-178.20,-122.95,-285,-7062,-4639,2,1,-3
144.40,-178.29,-122.91,-277,-7053,-4572,0,2,-3
144.45,-178.38,-122.91,-271,-7055,-4564,0,2,-4
144.49,-178.49,-122.93,-260,-7074,-4569,-2,2,-4
144.53,-178.59,-122.95,-211,-7078,-4579,-1,1,-3
144.53,-178.67,-123.00,-207,-7039,-4587,-2,1,-2
144.55,-178.74,-123.01,-170,-7032,-4547,-2,1,-2
144.52,-178.79,-123.08,-184,-7033,-4612,-2,1,-2
144.51,-178.84,-123.11,-169,-7073,-4610,-2,1,-1
144.50,-178.89,-123.14,-173,-7086,-4667,0,0,-1
144.51,-178.92,-123.13,-167,-7100,-4662,-1,0,-1
144.52,-178.94,-123.12,-156,-7052,-4628,1,0,-1
144.52,-178.97,-123.13,-171,-7045,-4600,-1,1,-1
144.53,-179.00,-123.13,-175,-7055,-4603,0,1,-2
144.53,-179.07,-123.16,-172,-7048,-4618,-2,1,-2
144.54,-179.13,-123.17,-144,-7056,-4625,0,1,-2
144.55,-179.19,-123.19,-160,-7033,-4638,-1,1,-2
144.57,-179.26,-123.21,-126,-7071,-4655,-1,1,-2
144.57,-179.33,-123.22,-120,-7057,-4680,0,1,-2
144.61,-179.38,-123.20,-104,-7077,-4674,0,1,-2
144.64,-179.41,-123.17,-106,-7065,-4709,2,0,-2
144.71,-179.45,-123.10,-79,-7066,-4675,2,0,-1
144.77,-179.46,-123.03,-63,-7030,-4624,2,-1,0
144.81,-179.45,-122.96,-61,-7036,-4607,2,-1,0
144.85,-179.41,-122.88,-58,-7055,-4590,2,-1,1
144.88,-179.36,-122.81,-72,-7063,-4583,2,-2,1
144.90,-179.30,-122.75,-92,-7048,-4521,1,-2,1
144.90,-179.23,-122.72,-95,-7059,-4527,0,-2,1
144.89,-179.17,-122.71,-102,-7061,-4529,-1,-2,1
144.85,-179.11,-122.72,-122,-7064,-4551,-1,-2,1
144.80,-179.05,-122.76,-147,-7054,-4546,-2,-2,1
144.75,-178.99,-122.79,-157,-7059,-4530,-2,-2,1
144.69,-178.95,-122.86,-182,-7036,-4500,-4,-1,0
144.62,-178.93,-122.95,-170,-7053,-4496,-5,-1,0
144.51,-178.91,-123.09,-198,-7045,-4571,-5,-1,-1
144.43,-178.91,-123.21,-143,-7071,-4593,-5,-1,0
144.33,-178.89,-123.34,-152,-7023,-4629,-5,-1,0
144.24,-178.86,-123.44,-138,-7032,-4655,-3,-1,1
144.15,-178.82,-123.51,-170,-7001,-4675,-3,-1,1
144.09,-178.78,-123.57,-175,-7025,-4693,-3,-1,0
144.05,-178.77,-123.61,-216,-7022,-4691,-2,0,-1
144.01,-178.79,-123.67,-223,-7020,-4642,-3,0,-1
143.97,-178.82,-123.76,-224,-7003,-4609,-4,1,-2
143.89,-178.88,-123.88,-204,-6983,-4581,-7,2,-2
143.78,-178.96,-124.06,-172,-6961,-4616,-7,2,-2
143.65,-179.03,-124.26,-149,-6898,-4627,-8,2,-2
143.51,-179.10,-124.46,-103,-6899,-4694,-7,1,-1
143.37,-179.13,-124.64,-117,-6907,-4770,-6,1,0
143.28,-179.14,-124.76,-113,-6956,-4848,-4,0,0
143.20,-179.14,-124.85,-142,-6975,-4925,-3,0,0
143.16,-179.15,-124.90,-146,-7022,-4958,-2,0,0
143.15,-179.15,-124.91,-156,-7013,-4961,0,0,-1
143.16,-179.15,-124.89,-136,-6994,-4898,0,0,0
143.16,-179.14,-124.89,-133,-6937,-4877,0,-1,0
143.17,-179.11,-124.87,-123,-6928,-4848,0,-1,0
143.17,-179.07,-124.85,-121,-6926,-4877,1,-2,1
143.18,-179.00,-124.80,-131,-6944,-4874,1,-2,1
143.20,-178.94,-124.76,-147,-6960,-4885,1,-3,1
143.21,-178.86,-124.71,-169,-6946,-4872,2,-3,1
143.25,-178.78,-124.64,-172,-6944,-4844,2,-3,1
143.26,-178.71,-124.57,-196,-6920,-4819,2,-2,1
143.31,-178.65,-124.49,-191,-6947,-4796,2,-2,1
143.34,-178.59,-124.42,-220,-6926,-4760,2,-2,1
143.37,-178.55,-124.36,-216,-6945,-4723,1,-1,0
143.40,-178.53,-124.32,-239,-6928,-4718,0,-1,0
143.42,-178.51,-124.29,-215,-6959,-4755,1,-1,0
143.44,-178.47,-124.25,-204,-6964,-4794,2,-2,1
143.47,-178.42,-124.16,-198,-6992,-4790,3,-2,2
143.50,-178.33,-124.07,-209,-6990,-4760,3,-3,2
143.52,-178.26,-123.99,-233,-6984,-4719,2,-2,1
143.53,-178.20,-123.96,-271,-6972,-4701,0,-2,1
143.51,-178.17,-123.96,-297,-6962,-4696,-1,-1,0
143.49,-178.17,-123.97,-294,-6952,-4676,-1,-1,-1
143.49,-178.17,-123.99,-289,-6962,-4647,-1,0,-1
143.47,-178.18,-124.03,-281,-6951,-4647,-2,0,-1
143.42,-178.19,-124.09,-285,-6951,-4659,-4,0,-1
143.38,-178.20,-124.16,-277,-6955,-4688,-3,0,-1
143.31,-178.22,-124.25,-274,-6960,-4723,-3,0,-1
143.28,-178.24,-124.31,-254,-6980,-4740,-3,0,-1
143.22,-178.25,-124.40,-286,-6958,-4779,-3,0,-1
143.18,-178.26,-124.47,-260,-6984,-4771,-3,0,-1
143.13,-178.28,-124.54,-276,-6967,-4798,-2,0,-1
143.12,-178.30,-124.58,-255,-6985,-4777,-3,0,-1
143.08,-178.32,-124.65,-252,-6924,-4767,-2,0,-1
143.03,-178.35,-124.73,-236,-6910,-4766,-4,1,-1
142.97,-178.37,-124.82,-217,-6904,-4781,-3,0,-1
142.90,-178.41,-124.91,-233,-6898,-4802,-4,1,-1
142.86,-178.43,-124.99,-212,-6913,-4806,-3,0,-1
142.79,-178.46,-125.09,-236,-6868,-4845,-4,0,-1
142.75,-178.50,-125.18,-203,-6876,-4834,-4,1,-1
142.70,-178.52,-125.26,-199,-6855,-4872,-2,0,-1
142.66,-178.53,-125.32,-193,-6871,-4857,-3,0,0
142.60,-178.54,-125.40,-204,-6848,-4885,-3,0,-1
142.54,-178.55,-125.47,-223,-6852,-4898,-4,0,-1
142.50,-178.57,-125.54,-222,-6861,-4895,-2,0,-1
142.46,-178.59,-125.60,-228,-6869,-4915,-3,0,-1
142.42,-178.61,-125.66,-204,-6889,-4902,-3,0,-1
142.37,-178.63,-125.73,-213,-6859,-4932,-3,0,-1
142.33,-178.64,-125.80,-192,-6857,-4915,-3,0,-1
142.28,-178.66,-125.87,-194,-6810,-4925,-3,0,-1
142.23,-178.67,-125.95,-192,-6812,-4916,-4,1,-1
142.18,-178.70,-126.04,-188,-6798,-4927,-4,0,-1
142.11,-178.73,-126.14,-205,-6814,-4929,-5,1,-1
142.04,-178.76,-126.25,-191,-6837,-4990,-5,0,-1
141.97,-178.77,-126.36,-192,-6804,-5025,-3,0,-1
141.91,-178.78,-126.45,-187,-6766,-5032,-3,0,0
141.87,-178.77,-126.51,-190,-6768,-5053,-2,0,0
141.83,-178.77,-126.55,-189,-6785,-5058,-2,0,0
141.83,-178.77,-126.56,-190,-6799,-5063,-1,-1,-1
141.82,-178.76,-126.56,-188,-6788,-5047,0,-1,0
141.82,-178.74,-126.55,-171,-6789,-5037,0,-1,0
141.80,-178.71,-126.54,-181,-6759,-5039,0,-1,1
141.81,-178.68,-126.51,-163,-6756,-5016,1,-1,1
141.81,-178.62,-126.48,-189,-6722,-4997,0,-2,1
141.80,-178.57,-126.46,-181,-6748,-4992,0,-2,1
141.78,-178.51,-126.45,-206,-6740,-5009,0,-2,1
141.77,-178.44,-126.42,-210,-6771,-5006,0,-2,1
141.75,-178.38,-126.40,-239,-6784,-5024,0,-2,1
141.75,-178.34,-126.38,-242,-6819,-5028,-1,-1,1
141.72,-178.30,-126.40,-261,-6818,-5042,-1,-1,0
141.70,-178.28,-126.42,-256,-6802,-5042,-1,-1,0
141.68,-178.26,-126.44,-266,-6781,-5040,-1,-1,0
141.66,-178.26,-126.47,-256,-6768,-5024,-2,-1,0
141.64,-178.25,-126.50,-256,-6785,-5009,-2,-1,-1
141.61,-178.26,-126.55,-264,-6774,-5010,-2,0,-1
141.59,-178.27,-126.59,-250,-6791,-5009,-2,0,-1
141.55,-178.29,-126.65,-260,-6754,-5044,-2,0,-1
141.54,-178.29,-126.67,-243,-6767,-5030,-2,0,-1
141.53,-178.29,-126.70,-252,-6740,-5031,-1,-1,0
141.50,-178.29,-126.73,-245,-6775,-5035,-2,0,0
141.48,-178.29,-126.77,-248,-6758,-5057,-1,-1,0
141.45,-178.28,-126.79,-238,-6745,-5054,-1,-1,0
141.44,-178.26,-126.80,-244,-6723,-5057,0,-1,0
141.43,-178.24,-126.80,-246,-6741,-5037,-1,-1,0
141.42,-178.21,-126.81,-257,-6757,-5040,-1,-1,0
141.39,-178.20,-126.85,-275,-6742,-5046,-2,-1,0
141.36,-178.20,-126.89,-263,-6769,-5066,-2,-1,-1
141.33,-178.20,-126.94,-278,-6759,-5079,-2,0,-1
141.31,-178.19,-126.97,-262,-6740,-5087,-1,-1,0
141.28,-178.17,-126.99,-275,-6684,-5077,-1,-1,0
141.27,-178.16,-127.00,-264,-6702,-5064,-1,-1,0
141.25,-178.14,-127.01,-263,-6713,-5071,-1,-1,0
141.24,-178.13,-127.03,-255,-6753,-5100,-1,-1,0
141.22,-178.12,-127.06,-264,-6743,-5114,-1,-1,0
141.20,-178.11,-127.08,-257,-6745,-5105,-2,-1,0
141.17,-178.08,-127.11,-277,-6734,-5109,-1,-1,0
141.15,-178.07,-127.13,-293,-6698,-5096,-1,-1,0
141.14,-178.05,-127.13,-289,-6685,-5060,0,-1,0
141.15,-178.03,-127.12,-296,-6677,-5058,0,-1,0
141.16,-178.01,-127.10,-290,-6726,-5070,0,-1,0
141.15,-177.98,-127.08,-313,-6720,-5098,0,-1,0
141.14,-177.95,-127.06,-304,-6764,-5097,0,-1,0
141.13,-177.93,-127.07,-313,-6753,-5097,-1,-1,0
141.12,-177.92,-127.09,-318,-6746,-5080,-2,0,0
141.09,-177.92,-127.13,-301,-6701,-5073,-2,-1,-1
141.05,-177.93,-127.20,-290,-6679,-5060,-3,0,0
141.01,-177.93,-127.26,-299,-6679,-5095,-2,-1,0
140.96,-177.91,-127.31,-290,-6672,-5108,-2,-1,0
140.93,-177.89,-127.34,-285,-6683,-5129,-1,-1,0
140.91,-177.85,-127.35,-298,-6669,-5112,-1,-1,0
140.89,-177.82,-127.35,-306,-6691,-5120,-1,-1,0
140.88,-177.80,-127.37,-344,-6688,-5078,-2,-1,-1
140.86,-177.81,-127.42,-347,-6691,-5086,-2,0,-1
140.83,-177.83,-127.47,-338,-6672,-5074,-2,0,-1
140.80,-177.85,-127.54,-333,-6656,-5059,-3,0,-1
140.74,-177.89,-127.64,-349,-6636,-5046,-6,1,-2
140.68,-177.96,-127.80,-323,-6649,-5067,-7,2,-3
140.58,-178.05,-128.02,-324,-6647,-5133,-9,2,-3
140.48,-178.16,-128.24,-286,-6680,-5198,-9,2,-3
140.38,-178.23,-128.46,-266,-6688,-5317,-7,1,-2
140.31,-178.30,-128.61,-250,-6672,-5343,-5,1,-2
140.27,-178.33,-128.72,-240,-6639,-5346,-3,0,-1
140.23,-178.35,-128.79,-247,-6571,-5330,-2,0,-1
140.21,-178.37,-128.83,-209,-6550,-5290,-2,0,0
140.18,-178.38,-128.87,-230,-6524,-5289,-1,0,-1
140.18,-178.38,-128.88,-218,-6564,-5301,-2,0,0
140.15,-178.39,-128.91,-228,-6558,-5323,-1,0,-1
140.12,-178.40,-128.93,-235,-6572,-5302,-2,0,0
140.12,-178.42,-128.95,-244,-6566,-5315,0,0,-1
140.10,-178.44,-128.95,-249,-6541,-5306,-1,0,-1
140.11,-178.45,-128.95,-234,-6547,-5289,0,0,-1
140.10,-178.46,-128.95,-243,-6550,-5314,0,0,0
140.10,-178.46,-128.94,-224,-6582,-5281,-1,0,0
140.08,-178.48,-128.97,-233,-6551,-5281,-1,0,-1
140.05,-178.50,-129.00,-223,-6579,-5288,-2,1,-1
140.03,-178.54,-129.05,-233,-6569,-5319,-2,1,-1
140.00,-178.58,-129.08,-226,-6569,-5348,-2,1,-1
140.00,-178.62,-129.09,-215,-6562,-5367,0,1,-1
140.00,-178.66,-129.10,-215,-6545,-5353,-1,1,-1
140.00,-178.68,-129.10,-187,-6547,-5337,0,0,-1
139.99,-178.70,-129.10,-203,-6490,-5270,-1,0,-1
139.98,-178.74,-129.13,-176,-6497,-5235,-2,1,-1
139.94,-178.77,-129.18,-194,-6512,-5290,-2,1,-1
139.91,-178.81,-129.22,-177,-6535,-5338,-2,1,-1
139.88,-178.85,-129.26,-180,-6525,-5364,-1,1,-1
139.86,-178.88,-129.28,-188,-6528,-5342,-2,1,-1
139.85,-178.94,-129.30,-174,-6542,-5376,-1,1,-2
139.85,-178.99,-129.31,-172,-6557,-5420,0,1,-1
139.87,-179.03,-129.27,-137,-6550,-5393,1,1,-1
139.89,-179.05,-129.23,-157,-6508,-5331,1,0,-1
139.91,-179.08,-129.21,-137,-6532,-5308,-1,0,-1
139.90,-179.11,-129.23,-139,-6529,-5335,0,0,-1
139.89,-179.13,-129.23,-123,-6535,-5340,-1,0,0
139.89,-179.13,-129.22,-128,-6541,-5351,0,0,-1
139.88,-179.14,-129.22,-133,-6545,-5369,0,0,0
139.91,-179.13,-129.18,-126,-6541,-5343,1,-1,0
139.91,-179.13,-129.17,-135,-6514,-5311,0,-1,0
139.91,-179.13,-129.17,-126,-6501,-5264,-1,0,-1
139.89,-179.13,-129.20,-131,-6511,-5308,-1,0,-1
139.90,-179.14,-129.21,-117,-6551,-5339,-1,-1,0
139.88,-179.12,-129.22,-127,-6534,-5342,-1,-1,0
139.87,-179.10,-129.23,-136,-6515,-5310,-2,-1,0
139.86,-179.10,-129.26,-146,-6514,-5309,-2,-1,-1
139.83,-179.10,-129.31,-144,-6505,-5316,-2,0,-1
139.81,-179.11,-129.36,-136,-6522,-5338,-2,0,-1
139.78,-179.11,-129.40,-145,-6524,-5380,-2,0,-1
139.77,-179.12,-129.43,-128,-6519,-5355,-2,0,-1
139.75,-179.13,-129.48,-133,-6511,-5352,-2,0,-1
139.73,-179.14,-129.52,-129,-6507,-5354,-2,0,-1
139.71,-179.16,-129.56,-124,-6495,-5371,-2,0,-1
139.69,-179.19,-129.60,-123,-6491,-5360,-2,0,-1
139.67,-179.20,-129.64,-123,-6487,-5384,-1,0,-1
139.65,-179.21,-129.68,-122,-6480,-5374,-2,0,-1
139.64,-179.21,-129.71,-114,-6498,-5416,-1,-1,0
139.62,-179.21,-129.73,-123,-6476,-5379,-1,0,-1
139.62,-179.22,-129.75,-116,-6488,-5382,-2,0,0
139.58,-179.22,-129.80,-131,-6462,-5354,-3,0,-1
139.54,-179.23,-129.85,-120,-6471,-5392,-2,0,-1
139.52,-179.24,-129.91,-125,-6468,-5400,-2,0,-1
139.49,-179.26,-129.95,-106,-6487,-5456,-1,0,-1
139.48,-179.27,-129.97,-112,-6479,-5456,-1,0,-1
139.48,-179.28,-129.97,-113,-6465,-5438,-1,0,-1
139.48,-179.29,-129.97,-96,-6458,-5420,-1,-1,0
139.47,-179.28,-129.98,-111,-6447,-5409,-1,0,-1
139.46,-179.28,-130.00,-107,-6449,-5405,-1,-1,0
139.45,-179.28,-130.03,-108,-6450,-5408,-1,0,0
139.43,-179.28,-130.05,-112,-6457,-5428,-2,-1,0
139.40,-179.28,-130.09,-118,-6455,-5438,-2,0,0
139.38,-179.28,-130.11,-109,-6458,-5458,-1,0,0
139.38,-179.28,-130.13,-96,-6455,-5464,-1,-1,0
139.36,-179.28,-130.14,-118,-6452,-5470,-1,0,0
139.37,-179.28,-130.14,-108,-6447,-5459,0,-1,-1
139.36,-179.27,-130.15,-120,-6441,-5453,-1,0,-1
139.36,-179.27,-130.15,-100,-6446,-5452,-1,-1,0
139.36,-179.27,-130.16,-109,-6439,-5452,0,-1,0
139.36,-179.26,-130.16,-104,-6442,-5446,-1,-1,0
139.35,-179.26,-130.17,-107,-6425,-5452,0,-1,0
139.35,-179.25,-130.17,-109,-6443,-5443,-1,-1,0
139.33,-179.25,-130.18,-121,-6440,-5445,-1,0,-1
139.33,-179.24,-130.19,-112,-6452,-5455,-1,-1,0
139.33,-179.24,-130.19,-115,-6432,-5444,0,-1,0
139.32,-179.23,-130.20,-122,-6422,-5439,-1,-1,0
139.32,-179.22,-130.20,-120,-6426,-5440,0,-1,0
139.31,-179.21,-130.21,-131,-6419,-5445,-1,-1,0
139.30,-179.20,-130.22,-115,-6435,-5454,0,-1,0
139.30,-179.20,-130.23,-123,-6434,-5457,-1,-1,0
139.30,-179.19,-130.23,-115,-6435,-5447,-1,-1,0
139.29,-179.19,-130.25,-118,-6426,-5447,-1,-1,0
139.28,-179.18,-130.26,-113,-6436,-5444,-1,-1,0
139.27,-179.18,-130.26,-128,-6430,-5450,0,0,0
139.27,-179.18,-130.26,-112,-6439,-5457,-1,0,0
139.28,-179.18,-130.26,-121,-6430,-5456,0,0,-1
139.28,-179.18,-130.26,-122,-6437,-5461,-1,-1,0
139.27,-179.18,-130.26,-123,-6430,-5467,-1,0,0
139.27,-179.18,-130.27,-121,-6431,-5462,-1,0,0
139.27,-179.18,-130.28,-118,-6430,-5445,-1,-1,-1
139.25,-179.18,-130.29,-116,-6433,-5452,-1,-1,0
139.25,-179.18,-130.30,-120,-6427,-5458,-1,0,-1
139.24,-179.18,-130.32,-124,-6431,-5475,-1,0,-1
139.25,-179.19,-130.32,-111,-6425,-5466,0,0,-1
139.25,-179.19,-130.31,-118,-6421,-5467,-1,0,-1
139.25,-179.19,-130.31,-111,-6431,-5473,0,-1,0
139.24,-179.19,-130.32,-130,-6418,-5458,-1,-1,-1
139.24,-179.18,-130.33,-117,-6425,-5451,-1,-1,0
139.23,-179.18,-130.34,-132,-6421,-5467,-1,0,0
139.23,-179.17,-130.34,-120,-6425,-5482,-1,-1,0
139.23,-179.17,-130.35,-128,-6421,-5480,0,-1,-1
139.23,-179.16,-130.34,-120,-6429,-5474,0,-1,0
139.23,-179.16,-130.33,-126,-6427,-5466,0,0,-1
139.24,-179.17,-130.33,-119,-6429,-5466,0,-1,0
139.24,-179.16,-130.32,-119,-6430,-5461,0,-1,-1
139.24,-179.15,-130.33,-117,-6421,-5461,0,-1,0
139.24,-179.14,-130.32,-121,-6420,-5450,0,-1,0
139.24,-179.12,-130.31,-128,-6405,-5446,0,-1,0
139.24,-179.12,-130.31,-134,-6420,-5458,-1,-1,0
139.24,-179.11,-130.32,-144,-6429,-5475,0,0,-1
139.24,-179.11,-130.32,-135,-6431,-5480,0,-1,0
139.24,-179.11,-130.31,-137,-6414,-5465,0,0,-1
139.25,-179.11,-130.29,-132,-6422,-5459,0,0,-1
139.26,-179.11,-130.27,-131,-6429,-5464,0,-1,0
139.28,-179.11,-130.25,-125,-6442,-5487,1,-1,0
139.30,-179.09,-130.22,-129,-6455,-5511,1,-1,0
139.32,-179.07,-130.17,-122,-6479,-5520,2,-1,0
139.37,-179.04,-130.08,-122,-6491,-5561,4,-2,1
139.44,-178.96,-129.92,-92,-6431,-5559,7,-3,2
139.54,-178.84,-129.68,-98,-6421,-5532,10,-5,3
139.67,-178.69,-129.38,-159,-6493,-5427,9,-4,3
139.78,-178.57,-129.12,-200,-6583,-5363,8,-4,2
139.88,-178.50,-128.95,-252,-6623,-5304,4,-2,0
139.93,-178.47,-128.86,-268,-6583,-5209,1,-1,-1
139.94,-178.49,-128.86,-278,-6510,-5132,-2,0,-1
139.92,-178.53,-128.91,-241,-6479,-5128,-2,1,-2
139.89,-178.57,-128.97,-226,-6444,-5149,-3,1,-1
139.87,-178.62,-129.05,-193,-6488,-5227,-3,1,-1
139.83,-178.65,-129.12,-172,-6530,-5353,-2,0,-1
139.81,-178.66,-129.15,-159,-6560,-5410,-1,-1,0
139.80,-178.64,-129.16,-182,-6575,-5414,0,-1,0
139.81,-178.64,-129.16,-193,-6576,-5396,-1,0,-1
139.82,-178.65,-129.15,-197,-6551,-5348,-1,0,-1
139.81,-178.66,-129.17,-207,-6489,-5312,-1,0,-1
139.81,-178.67,-129.19,-197,-6477,-5278,-1,0,-1
139.80,-178.70,-129.21,-208,-6478,-5299,-2,0,-1
139.79,-178.72,-129.25,-186,-6529,-5329,-2,0,-1
139.78,-178.74,-129.29,-194,-6539,-5356,-2,0,-1
139.76,-178.76,-129.34,-193,-6562,-5389,-2,0,-1
139.75,-178.79,-129.38,-193,-6543,-5362,-2,0,-2
139.74,-178.83,-129.43,-182,-6532,-5380,-2,0,-1
139.72,-178.85,-129.46,-191,-6506,-5351,-1,0,-1
139.72,-178.88,-129.50,-176,-6475,-5352,-2,0,-1
139.71,-178.90,-129.53,-148,-6465,-5344,-2,0,-1
139.69,-178.92,-129.58,-154,-6476,-5384,-1,0,-1
139.67,-178.95,-129.62,-145,-6485,-5369,-2,0,-1
139.65,-178.97,-129.66,-144,-6495,-5427,-1,-1,-1
139.66,-178.98,-129.67,-154,-6487,-5382,-2,0,-1
139.66,-178.98,-129.67,-160,-6479,-5393,0,-1,0
139.67,-178.99,-129.66,-151,-6477,-5354,-1,0,-1
139.67,-178.99,-129.64,-140,-6471,-5358,0,-1,0
139.66,-178.98,-129.65,-156,-6469,-5328,-2,0,-1
139.64,-178.99,-129.68,-153,-6492,-5393,-1,0,0
139.64,-179.00,-129.70,-153,-6485,-5389,-1,0,-1
139.62,-178.99,-129.71,-149,-6492,-5428,-1,-1,0
139.61,-178.98,-129.71,-163,-6470,-5411,0,0,-1
139.62,-178.99,-129.71,-154,-6477,-5430,0,0,-1
139.62,-178.99,-129.71,-148,-6473,-5393,-1,0,0
139.61,-178.99,-129.72,-152,-6472,-5412,0,-1,0
139.61,-178.99,-129.72,-138,-6488,-5400,-1,-1,0
139.60,-178.99,-129.73,-163,-6472,-5386,-1,0,-1
139.58,-178.99,-129.75,-145,-6493,-5419,-1,0,0
139.56,-179.00,-129.78,-158,-6468,-5400,-1,0,-1
139.55,-179.02,-129.81,-139,-6493,-5435,-1,0,-1
139.55,-179.04,-129.82,-153,-6453,-5406,-1,0,-1
139.56,-179.06,-129.83,-132,-6471,-5432,0,0,-1
139.55,-179.07,-129.84,-141,-6465,-5432,-1,0,-1
139.56,-179.08,-129.84,-132,-6466,-5425,0,0,-1
139.57,-179.09,-129.84,-125,-6450,-5396,-1,0,-1
139.56,-179.10,-129.86,-131,-6443,-5401,0,0,-1
139.57,-179.11,-129.85,-125,-6471,-5400,0,0,-1
139.57,-179.13,-129.86,-146,-6461,-5421,0,0,-1
139.59,-179.14,-129.85,-131,-6485,-5439,0,0,-1
139.59,-179.16,-129.85,-141,-6478,-5437,0,0,-1
139.61,-179.17,-129.83,-117,-6502,-5446,0,-1,-1
139.63,-179.17,-129.81,-148,-6443,-5364,-1,-1,-1
139.63,-179.19,-129.84,-106,-6464,-5411,-1,0,-1
139.62,-179.19,-129.85,-129,-6437,-5381,-1,0,-1
139.62,-179.20,-129.86,-114,-6468,-5408,-1,0,-1
139.62,-179.21,-129.88,-130,-6470,-5407,-1,0,-1
139.61,-179.22,-129.90,-118,-6491,-5456,-1,0,-1
139.61,-179.23,-129.91,-125,-6466,-5422,-1,0,-1
139.60,-179.23,-129.93,-124,-6449,-5428,0,0,-1
139.61,-179.24,-129.92,-105,-6456,-5390,-1,-1,-1
139.59,-179.24,-129.96,-118,-6435,-5417,-2,0,-1
139.59,-179.26,-129.98,-107,-6449,-5403,-1,0,-1
139.58,-179.28,-130.01,-130,-6423,-5399,-2,0,-1
139.60,-179.30,-130.02,-106,-6475,-5456,0,0,-1
139.59,-179.32,-130.03,-110,-6442,-5419,-1,0,-1
139.59,-179.34,-130.05,-90,-6462,-5474,-1,0,-1
139.60,-179.35,-130.06,-104,-6432,-5415,-2,0,-1
139.60,-179.36,-130.07,-97,-6442,-5460,0,0,-1
139.61,-179.37,-130.07,-103,-6434,-5432,-1,0,-1
139.61,-179.38,-130.07,-89,-6467,-5473,0,0,-1
139.63,-179.39,-130.06,-94,-6446,-5449,0,-1,-1
139.63,-179.38,-130.05,-87,-6419,-5410,0,-1,0
139.63,-179.38,-130.05,-92,-6408,-5398,-1,0,-1
139.62,-179.37,-130.07,-92,-6432,-5413,-1,0,0
139.61,-179.37,-130.08,-92,-6451,-5445,0,-1,-1
139.60,-179.37,-130.08,-93,-6461,-5439,-1,-1,0
139.60,-179.37,-130.09,-86,-6451,-5456,0,-1,0
139.58,-179.37,-130.11,-109,-6434,-5439,-1,0,-1
139.58,-179.38,-130.12,-86,-6455,-5456,0,0,-1
139.58,-179.39,-130.12,-111,-6419,-5419,-1,0,-1
139.59,-179.40,-130.12,-83,-6460,-5452,0,0,-1
139.58,-179.42,-130.13,-94,-6426,-5410,-2,0,-1
139.57,-179.42,-130.15,-79,-6450,-5469,-1,0,0
139.58,-179.43,-130.15,-80,-6409,-5406,-1,0,-1
139.56,-179.44,-130.17,-68,-6438,-5465,-1,0,0
139.56,-179.44,-130.17,-70,-6421,-5432,-1,0,-1
139.54,-179.45,-130.20,-96,-6425,-5458,-1,0,-1
139.55,-179.46,-130.20,-69,-6433,-5444,-1,0,-1
139.53,-179.47,-130.22,-87,-6425,-5460,-1,0,-1
139.53,-179.48,-130.23,-71,-6452,-5455,-1,0,0
139.51,-179.47,-130.25,-91,-6426,-5480,0,0,-1
139.53,-179.48,-130.23,-68,-6411,-5426,0,-1,0
139.51,-179.46,-130.23,-78,-6379,-5444,0,-1,0
139.52,-179.47,-130.22,-73,-6406,-5418,-1,0,0
139.52,-179.46,-130.21,-64,-6455,-5503,1,-1,0
139.52,-179.45,-130.18,-90,-6483,-5507,0,0,0
139.54,-179.45,-130.15,-85,-6479,-5495,1,-1,0
139.55,-179.44,-130.13,-91,-6428,-5431,0,-1,0
139.55,-179.42,-130.11,-78,-6402,-5378,0,-1,0
139.54,-179.41,-130.11,-100,-6384,-5370,-1,0,-1
139.53,-179.43,-130.13,-78,-6435,-5424,-1,0,0
139.51,-179.43,-130.13,-81,-6439,-5461,-1,0,0
139.50,-179.42,-130.13,-75,-6446,-5464,-1,0,0
139.50,-179.42,-130.13,-79,-6445,-5466,0,0,0
139.48,-179.41,-130.12,-95,-6442,-5425,-1,0,0
139.48,-179.42,-130.11,-92,-6434,-5416,0,0,-1
139.47,-179.45,-130.13,-86,-6428,-5417,-1,1,-1
139.45,-179.46,-130.15,-82,-6462,-5463,-1,0,-1
139.44,-179.48,-130.15,-83,-6452,-5439,-1,0,-1
139.44,-179.48,-130.17,-67,-6471,-5478,-1,-1,0
139.42,-179.47,-130.19,-84,-6442,-5433,-1,0,-1
139.40,-179.48,-130.22,-84,-6435,-5445,-2,0,-1
139.38,-179.48,-130.24,-72,-6426,-5448,-1,-1,0
139.37,-179.47,-130.27,-78,-6434,-5463,-1,0,0
139.36,-179.48,-130.29,-66,-6428,-5461,-1,0,-1
139.36,-179.49,-130.30,-65,-6434,-5470,-1,-1,0
139.35,-179.48,-130.30,-77,-6426,-5477,-1,-1,0
139.35,-179.47,-130.31,-80,-6423,-5476,0,-1,-1
139.35,-179.47,-130.29,-82,-6437,-5464,0,-1,0
139.35,-179.47,-130.28,-76,-6422,-5431,-1,-1,0
139.35,-179.46,-130.29,-83,-6417,-5442,-1,-1,0
139.34,-179.45,-130.30,-80,-6437,-5456,-1,-1,0
139.34,-179.45,-130.30,-88,-6426,-5454,0,-1,0
139.33,-179.44,-130.31,-75,-6428,-5464,-1,-1,0
139.33,-179.44,-130.32,-87,-6438,-5495,0,-1,0
139.33,-179.43,-130.30,-74,-6444,-5482,0,-1,0
139.33,-179.42,-130.31,-89,-6433,-5465,-1,-1,0
139.33,-179.41,-130.31,-87,-6432,-5461,-1,-1,0
139.32,-179.38,-130.30,-104,-6411,-5454,0,-1,0
139.33,-179.38,-130.30,-83,-6416,-5461,0,-1,0
139.33,-179.38,-130.29,-82,-6416,-5441,0,-1,-1
139.33,-179.38,-130.29,-81,-6432,-5450,-1,-1,0
139.31,-179.37,-130.31,-79,-6429,-5476,-1,-1,0
139.31,-179.36,-130.32,-90,-6414,-5460,-1,-1,0
139.30,-179.35,-130.32,-94,-6401,-5436,0,-1,0
139.30,-179.34,-130.32,-97,-6407,-5463,0,-1,0
139.30,-179.34,-130.31,-81,-6436,-5460,0,-1,0
139.31,-179.31,-130.30,-103,-6422,-5455,0,-1,0
139.29,-179.29,-130.31,-94,-6422,-5438,-1,-1,0
139.28,-179.27,-130.32,-124,-6407,-5447,0,-1,0
139.28,-179.27,-130.32,-109,-6444,-5465,-1,-1,0
139.27,-179.25,-130.33,-140,-6430,-5488,0,-1,-1
139.29,-179.25,-130.31,-121,-6428,-5479,0,-1,0
139.29,-179.25,-130.31,-136,-6409,-5471,0,0,-1
139.29,-179.24,-130.30,-120,-6440,-5499,0,0,0
139.31,-179.25,-130.28,-124,-6431,-5472,0,0,-1
139.32,-179.25,-130.27,-113,-6442,-5461,-1,0,-1
139.31,-179.25,-130.29,-111,-6425,-5452,-1,-1,-1
139.31,-179.25,-130.30,-105,-6419,-5459,-1,-1,0
139.31,-179.25,-130.31,-106,-6413,-5439,-1,-1,0
139.29,-179.24,-130.34,-123,-6424,-5466,-1,0,-1
139.29,-179.27,-130.35,-96,-6444,-5477,-1,0,-1
139.30,-179.28,-130.36,-108,-6402,-5471,-1,0,-1
139.31,-179.30,-130.37,-79,-6411,-5449,-1,-1,-1
139.30,-179.31,-130.39,-113,-6397,-5462,-1,0,-1
139.30,-179.32,-130.39,-90,-6424,-5485,0,0,-1
139.31,-179.34,-130.40,-110,-6398,-5486,-1,0,-1
139.31,-179.35,-130.40,-81,-6427,-5476,-1,0,-1
139.31,-179.36,-130.42,-101,-6402,-5464,-1,0,-1
139.30,-179.37,-130.43,-83,-6415,-5479,-1,0,0
139.30,-179.39,-130.45,-98,-6398,-5482,-1,0,-1
139.31,-179.39,-130.43,-77,-6427,-5495,0,0,0
139.31,-179.40,-130.44,-79,-6394,-5478,-1,0,-1
139.31,-179.40,-130.44,-81,-6411,-5472,-1,0,0
139.30,-179.41,-130.46,-82,-6396,-5463,-1,-1,-1
139.30,-179.41,-130.47,-99,-6399,-5475,-1,0,-1
139.30,-179.42,-130.47,-76,-6402,-5472,-1,0,-1
139.30,-179.42,-130.47,-89,-6418,-5488,0,0,-1
139.30,-179.42,-130.47,-78,-6435,-5471,-1,-1,0
139.29,-179.41,-130.48,-96,-6396,-5480,-1,0,-1
139.29,-179.41,-130.48,-80,-6416,-5463,0,-1,0
139.28,-179.42,-130.49,-99,-6403,-5484,-1,0,-1
139.30,-179.41,-130.47,-83,-6420,-5504,0,-1,0
139.30,-179.40,-130.46,-86,-6395,-5487,0,-1,-1
139.33,-179.40,-130.43,-86,-6424,-5488,1,-1,-1
139.35,-179.40,-130.41,-95,-6423,-5481,0,-1,-1
139.38,-179.39,-130.38,-88,-6425,-5488,1,-1,0
139.39,-179.39,-130.36,-99,-6399,-5455,0,-1,0
139.41,-179.38,-130.34,-80,-6418,-5467,0,-1,0
139.41,-179.37,-130.33,-97,-6401,-5459,0,-1,-1
139.42,-179.38,-130.33,-88,-6427,-5458,0,0,-1
139.42,-179.39,-130.33,-90,-6433,-5506,0,-1,-1
139.43,-179.38,-130.31,-86,-6444,-5479,0,0,0
139.44,-179.39,-130.29,-79,-6414,-5462,1,-1,-1
139.43,-179.39,-130.29,-94,-6426,-5454,-1,0,0
139.43,-179.39,-130.30,-96,-6437,-5464,0,0,-1
139.43,-179.40,-130.31,-101,-6410,-5455,-1,0,-1
139.44,-179.41,-130.31,-69,-6422,-5446,0,0,-1
139.42,-179.41,-130.32,-89,-6398,-5462,-1,0,-1
139.42,-179.42,-130.32,-80,-6420,-5449,-1,0,0
139.42,-179.41,-130.33,-79,-6411,-5496,0,-1,-1
139.42,-179.41,-130.32,-78,-6426,-5473,-1,-1,0
139.42,-179.40,-130.32,-92,-6424,-5485,0,-1,0
139.42,-179.40,-130.31,-103,-6411,-5439,-1,0,-1
139.42,-179.41,-130.33,-80,-6414,-5459,-1,-1,0
139.41,-179.41,-130.34,-104,-6404,-5451,-1,0,-1
139.41,-179.41,-130.34,-83,-6416,-5468,0,-1,0
139.40,-179.41,-130.35,-110,-6399,-5474,-1,0,-1
139.40,-179.42,-130.35,-89,-6428,-5464,-1,0,0
139.39,-179.42,-130.35,-88,-6425,-5487,0,0,-1
139.40,-179.43,-130.34,-92,-6441,-5471,-1,0,0
139.39,-179.42,-130.35,-92,-6420,-5481,0,-1,0
139.39,-179.43,-130.36,-92,-6399,-5456,-1,0,0
139.39,-179.44,-130.37,-72,-6425,-5463,-1,0,-1
139.37,-179.45,-130.40,-108,-6424,-5477,-1,0,-1
139.36,-179.45,-130.41,-85,-6429,-5477,-1,0,-1
139.34,-179.46,-130.44,-95,-6384,-5468,-1,0,-1
139.33,-179.48,-130.47,-73,-6410,-5487,-1,0,-1
139.32,-179.49,-130.49,-81,-6412,-5506,-1,0,-1
139.32,-179.51,-130.50,-79,-6437,-5510,0,0,-1
139.33,-179.53,-130.50,-63,-6420,-5478,-1,0,-1
139.31,-179.53,-130.53,-70,-6394,-5471,-2,0,0
139.29,-179.54,-130.56,-57,-6378,-5445,-2,0,-1
139.25,-179.55,-130.62,-72,-6364,-5479,-3,0,-1
139.24,-179.57,-130.66,-57,-6392,-5529,-1,0,-1
139.24,-179.59,-130.68,-70,-6388,-5530,-1,0,-1
139.24,-179.62,-130.69,-55,-6400,-5531,-1,0,-1
139.25,-179.65,-130.70,-55,-6394,-5526,0,0,-1
139.25,-179.67,-130.71,-47,-6398,-5474,-2,0,-1
139.23,-179.68,-130.74,-57,-6376,-5494,-1,0,-1
139.22,-179.71,-130.77,-62,-6379,-5467,-3,0,-1
139.21,-179.73,-130.82,-53,-6378,-5504,-1,0,-1
139.19,-179.76,-130.86,-42,-6367,-5504,-2,0,-1
139.18,-179.78,-130.90,-23,-6367,-5506,-2,0,-1
139.15,-179.79,-130.94,-49,-6373,-5533,-1,0,-1
139.15,-179.79,-130.96,-39,-6373,-5529,-1,0,0
139.14,-179.80,-130.97,-56,-6359,-5531,-1,0,-1
139.13,-179.81,-130.99,-32,-6346,-5526,-1,0,-1
139.13,-179.83,-131.00,-19,-6364,-5540,-1,0,-1
139.12,-179.83,-131.01,-26,-6353,-5529,-1,0,-1
139.12,-179.83,-131.01,-18,-6369,-5571,0,-1,0
139.12,-179.82,-131.01,-34,-6350,-5536,0,-1,0
139.13,-179.81,-131.00,-31,-6342,-5521,-1,-1,0
139.12,-179.80,-130.99,-32,-6342,-5535,0,-1,0
139.12,-179.79,-130.99,-28,-6360,-5543,-1,-1,0
139.12,-179.79,-130.99,-39,-6347,-5555,0,-1,-1
139.13,-179.78,-130.98,-24,-6366,-5555,0,-1,0
139.13,-179.77,-130.96,-30,-6352,-5543,0,-1,0
139.13,-179.75,-130.94,-39,-6356,-5513,0,-1,0
139.13,-179.75,-130.93,-44,-6366,-5517,0,-1,-1
139.14,-179.74,-130.93,-47,-6378,-5527,-1,-1,0
139.12,-179.73,-130.95,-38,-6365,-5523,-1,-1,0
139.10,-179.73,-130.97,-41,-6354,-5527,-1,0,0
139.10,-179.74,-130.97,-26,-6370,-5555,0,-1,0
139.10,-179.74,-130.97,-39,-6355,-5540,-1,0,0
139.10,-179.73,-130.97,-24,-6376,-5554,0,-1,0
139.09,-179.72,-130.97,-58,-6353,-5520,-1,0,0
139.09,-179.71,-130.98,-37,-6373,-5546,0,-1,0
139.09,-179.72,-130.98,-45,-6349,-5532,-1,0,-1
139.09,-179.73,-130.99,-32,-6373,-5545,-1,-1,0
139.09,-179.72,-130.99,-45,-6356,-5550,0,0,-1
139.09,-179.71,-130.97,-47,-6373,-5529,0,-1,0
139.10,-179.71,-130.96,-53,-6354,-5509,0,0,-1
139.10,-179.70,-130.95,-46,-6381,-5534,0,-1,0
139.10,-179.70,-130.95,-41,-6357,-5496,-1,-1,-1
139.10,-179.70,-130.97,-29,-6362,-5540,-1,-1,0
139.08,-179.69,-130.99,-32,-6356,-5533,-1,-1,0
139.07,-179.68,-131.00,-42,-6374,-5561,-1,-1,0
139.07,-179.66,-131.00,-46,-6353,-5546,0,-1,0
139.06,-179.64,-130.99,-50,-6341,-5551,0,-1,0
139.07,-179.62,-130.97,-52,-6345,-5537,0,-1,0
139.08,-179.61,-130.95,-60,-6353,-5523,0,0,0
139.09,-179.62,-130.92,-32,-6387,-5537,0,-1,0
139.10,-179.60,-130.90,-63,-6367,-5545,0,-1,0
139.12,-179.58,-130.87,-45,-6380,-5522,0,-1,0
139.11,-179.55,-130.86,-76,-6331,-5494,-1,-1,0
139.11,-179.54,-130.87,-66,-6351,-5503,-1,0,0
139.10,-179.54,-130.87,-81,-6359,-5532,0,0,-1
139.11,-179.55,-130.86,-56,-6383,-5519,0,-1,0
139.10,-179.53,-130.87,-77,-6378,-5543,-1,-1,0
139.10,-179.52,-130.86,-77,-6375,-5534,-1,-1,0
139.10,-179.53,-130.87,-70,-6361,-5514,0,0,-1
139.10,-179.53,-130.87,-59,-6374,-5541,0,0,0
139.10,-179.52,-130.88,-58,-6355,-5523,0,-1,0
139.10,-179.52,-130.88,-57,-6348,-5522,0,-1,0
139.09,-179.52,-130.88,-62,-6364,-5536,0,-1,0
139.09,-179.51,-130.88,-80,-6376,-5547,0,-1,0
139.09,-179.50,-130.86,-80,-6383,-5534,0,-1,0
139.10,-179.51,-130.85,-76,-6366,-5520,0,0,-1
139.12,-179.51,-130.84,-70,-6375,-5526,0,-1,-1
139.13,-179.50,-130.82,-81,-6370,-5533,0,-1,0
139.14,-179.49,-130.80,-63,-6364,-5522,0,-1,0
139.14,-179.49,-130.79,-79,-6372,-5533,0,0,0
139.15,-179.48,-130.78,-77,-6396,-5533,0,-1,0
139.16,-179.48,-130.76,-93,-6378,-5519,0,-1,-1
139.17,-179.47,-130.74,-80,-6398,-5513,0,-1,0
139.17,-179.48,-130.74,-87,-6356,-5507,0,0,-1
139.18,-179.48,-130.73,-68,-6378,-5521,-1,0,0
139.17,-179.48,-130.74,-74,-6362,-5511,0,-1,0
139.17,-179.48,-130.74,-79,-6390,-5510,-1,0,-1
139.17,-179.48,-130.74,-86,-6377,-5514,0,0,0
139.16,-179.48,-130.75,-93,-6370,-5525,-1,0,-1
139.16,-179.48,-130.74,-70,-6384,-5504,0,-1,0
139.16,-179.49,-130.74,-89,-6356,-5504,0,0,-1
139.17,-179.50,-130.73,-56,-6375,-5481,0,-1,0
139.17,-179.50,-130.73,-84,-6359,-5500,1,0,-1
139.18,-179.49,-130.71,-82,-6388,-5489,0,-1,0
139.17,-179.49,-130.72,-94,-6388,-5526,0,-1,0
139.17,-179.49,-130.71,-97,-6398,-5512,-1,0,0
139.16,-179.50,-130.72,-78,-6402,-5526,0,0,0
139.16,-179.50,-130.71,-87,-6380,-5536,0,0,-1
139.17,-179.50,-130.70,-63,-6392,-5505,0,-1,0
139.17,-179.49,-130.69,-78,-6370,-5508,0,0,0
139.16,-179.49,-130.69,-78,-6389,-5485,-1,0,-1
139.16,-179.50,-130.70,-79,-6374,-5515,-1,0,-1
139.16,-179.51,-130.70,-69,-6395,-5504,-1,0,-1
139.15,-179.51,-130.71,-69,-6389,-5524,0,-1,-1
139.16,-179.52,-130.70,-75,-6388,-5496,-1,0,0
139.14,-179.52,-130.72,-76,-6380,-5519,0,0,-1
139.14,-179.52,-130.72,-63,-6359,-5494,-1,0,0
139.14,-179.52,-130.72,-50,-6387,-5517,0,0,0
139.14,-179.53,-130.72,-76,-6373,-5519,0,0,-1
139.15,-179.52,-130.70,-65,-6384,-5504,0,-1,0
139.14,-179.52,-130.71,-85,-6369,-5498,0,0,-1
139.14,-179.52,-130.70,-82,-6397,-5518,-1,-1,0
139.14,-179.51,-130.71,-69,-6377,-5530,0,-1,0
139.14,-179.51,-130.70,-71,-6380,-5528,0,0,0
139.14,-179.51,-130.70,-80,-6392,-5530,0,0,0
139.15,-179.51,-130.68,-81,-6385,-5512,0,0,0
139.15,-179.52,-130.67,-61,-6395,-5502,0,0,0
139.14,-179.51,-130.67,-90,-6388,-5510,-1,0,0
139.14,-179.51,-130.66,-69,-6399,-5488,0,-1,0
139.14,-179.51,-130.67,-72,-6399,-5504,-1,0,-1
139.14,-179.52,-130.68,-66,-6401,-5497,-1,0,0
139.12,-179.53,-130.70,-72,-6387,-5499,-1,0,-1
139.12,-179.54,-130.70,-62,-6398,-5515,-1,0,-1
139.12,-179.54,-130.71,-58,-6379,-5508,0,-1,-1
139.12,-179.54,-130.71,-68,-6384,-5505,-1,0,0
139.11,-179.55,-130.73,-59,-6388,-5512,0,0,0
139.10,-179.55,-130.74,-68,-6390,-5521,-1,0,-1
139.10,-179.56,-130.75,-52,-6391,-5537,0,-1,0
139.09,-179.56,-130.75,-66,-6358,-5490,-1,0,-1
139.10,-179.56,-130.75,-58,-6365,-5509,0,-1,0
139.10,-179.56,-130.74,-67,-6367,-5501,-1,0,-1
139.10,-179.56,-130.74,-72,-6382,-5503,-1,-1,0
139.09,-179.56,-130.75,-64,-6370,-5504,-1,0,0
139.08,-179.56,-130.76,-59,-6369,-5515,0,-1,0
139.08,-179.56,-130.76,-60,-6379,-5515,-1,-1,0
139.08,-179.56,-130.76,-60,-6376,-5516,0,0,0
139.09,-179.56,-130.75,-60,-6379,-5499,-1,-1,0
139.08,-179.56,-130.76,-65,-6375,-5515,-1,0,-1
139.08,-179.56,-130.76,-56,-6372,-5499,-1,-1,0
139.07,-179.55,-130.78,-77,-6376,-5524,-1,-1,-1
139.05,-179.55,-130.79,-71,-6384,-5533,-1,0,0
139.05,-179.55,-130.79,-84,-6376,-5524,-1,0,-1
139.05,-179.55,-130.79,-70,-6388,-5532,0,0,0
139.06,-179.56,-130.79,-58,-6370,-5512,0,-1,0
139.05,-179.55,-130.79,-61,-6371,-5511,-1,-1,0
139.05,-179.55,-130.80,-66,-6371,-5521,-1,-1,0
139.05,-179.55,-130.80,-72,-6376,-5534,-1,-1,-1
139.05,-179.55,-130.80,-66,-6372,-5514,0,-1,0
139.05,-179.54,-130.81,-68,-6369,-5536,0,0,0
139.05,-179.54,-130.79,-53,-6375,-5528,0,-1,0
139.06,-179.54,-130.78,-72,-6368,-5503,0,0,-1
139.06,-179.54,-130.78,-58,-6392,-5527,0,-1,-1
