Yaw,Pitch,Roll,AX,AY,AZ,GX,GY,GZ
-160.78,28.20,-57.65,3914,-6165,3913,-1,0,0
-160.77,28.20,-57.66,3921,-6178,3906,-1,0,0
-160.77,28.20,-57.68,3916,-6183,3910,-1,0,0
-160.77,28.19,-57.68,3915,-6182,3903,-1,0,0
-160.77,28.18,-57.69,3912,-6172,3896,-1,0,-1
-160.76,28.18,-57.70,3912,-6174,3903,-1,0,-1
-160.76,28.18,-57.71,3911,-6177,3903,-1,0,0
-160.76,28.17,-57.71,3916,-6174,3910,-1,0,0
-160.76,28.17,-57.71,3909,-6177,3907,-1,0,0
-160.76,28.16,-57.70,3914,-6173,3915,-1,0,0
-160.76,28.15,-57.71,3909,-6179,3889,-1,0,0
-160.76,28.15,-57.72,3923,-6184,3893,-1,0,-1
-160.76,28.15,-57.71,3917,-6172,3897,-1,0,0
-160.77,28.14,-57.72,3908,-6176,3899,-1,0,0
-160.77,28.13,-57.72,3898,-6176,3894,-1,0,0
-160.76,28.14,-57.72,3908,-6177,3887,-1,0,-1
-160.76,28.14,-57.72,3917,-6182,3899,0,0,-1
-160.76,28.14,-57.72,3921,-6181,3896,-1,0,0
-160.75,28.14,-57.72,3924,-6176,3885,0,0,0
-160.76,28.14,-57.73,3924,-6182,3892,0,-1,-1
-160.76,28.14,-57.72,3919,-6190,3899,0,0,0
-160.76,28.13,-57.72,3908,-6189,3902,0,0,-1
-160.76,28.13,-57.72,3896,-6178,3897,-1,0,-1
-160.76,28.13,-57.72,3887,-6181,3901,-1,0,-1
-160.77,28.12,-57.72,3887,-6182,3897,-1,-1,-1
-160.75,28.13,-57.73,3900,-6183,3896,-1,-1,-1
-160.75,28.13,-57.73,3908,-6190,3897,-1,0,-1
-160.76,28.13,-57.73,3909,-6193,3895,0,0,-1
-160.76,28.12,-57.73,3916,-6191,3902,0,0,0
-160.76,28.12,-57.73,3906,-6183,3894,-1,0,0
-160.76,28.11,-57.72,3895,-6185,3905,-1,0,0
-160.76,28.11,-57.73,3889,-6181,3897,-1,0,-1
-160.76,28.11,-57.73,3892,-6176,3903,-1,0,0
-160.76,28.10,-57.72,3891,-6179,3905,-1,0,0
-160.76,28.10,-57.72,3899,-6187,3910,-1,-1,-1
-160.76,28.10,-57.73,3902,-6195,3901,0,0,-1
-160.76,28.10,-57.73,3903,-6195,3897,0,0,-1
-160.77,28.10,-57.72,3897,-6191,3913,0,0,0
-160.77,28.09,-57.72,3892,-6188,3909,0,0,-1
-160.77,28.09,-57.72,3893,-6194,3897,0,0,0
-160.78,28.08,-57.71,3895,-6188,3906,0,0,-1
-160.77,28.08,-57.71,3900,-6183,3906,-1,0,-1
-160.77,28.08,-57.71,3893,-6196,3900,-1,-1,-1
-160.77,28.08,-57.71,3902,-6189,3905,0,0,-1
-160.78,28.07,-57.71,3894,-6183,3904,-1,0,0
-160.77,28.07,-57.71,3892,-6187,3904,-1,0,-1
-160.77,28.07,-57.72,3894,-6182,3906,-1,0,-1
-160.76,28.08,-57.72,3901,-6178,3896,-1,0,0
-160.77,28.07,-57.72,3898,-6175,3900,-1,0,0
-160.77,28.07,-57.73,3901,-6185,3899,-1,0,-1
-160.77,28.06,-57.73,3897,-6194,3895,0,0,0
-160.77,28.06,-57.73,3896,-6201,3894,0,0,-1
-160.77,28.05,-57.72,3894,-6194,3904,0,0,0
-160.77,28.05,-57.72,3891,-6186,3904,-1,0,-1
-160.77,28.05,-57.72,3900,-6187,3913,-1,0,-1
-160.77,28.05,-57.72,3901,-6189,3908,-1,0,-1
-160.77,28.05,-57.72,3896,-6190,3902,-1,0,0
-160.77,28.04,-57.72,3903,-6191,3905,-1,0,0
-160.77,28.04,-57.73,3894,-6189,3900,-1,0,-1
-160.77,28.04,-57.73,3901,-6194,3895,-1,0,0
-160.77,28.04,-57.73,3903,-6188,3902,-1,0,0
-160.76,28.03,-57.73,3896,-6190,3903,-1,0,0
-160.77,28.03,-57.73,3895,-6191,3914,-1,0,0
-160.77,28.02,-57.73,3895,-6197,3907,-1,0,0
-160.77,28.02,-57.74,3892,-6190,3909,-1,-1,0
-160.77,28.02,-57.75,3901,-6193,3905,-1,0,-1
-160.77,28.02,-57.74,3903,-6197,3899,0,0,0
-160.77,28.01,-57.74,3912,-6195,3911,0,0,0
-160.77,28.02,-57.73,3901,-6193,3909,-1,0,0
-160.77,28.01,-57.74,3891,-6197,3904,-1,0,0
-160.77,28.00,-57.74,3889,-6190,3906,0,0,-1
-160.78,28.01,-57.73,3888,-6188,3905,0,0,0
-160.78,28.00,-57.73,3883,-6184,3912,-1,0,-1
-160.78,28.00,-57.74,3885,-6191,3910,-1,0,-1
-160.78,28.00,-57.74,3889,-6197,3910,-1,0,-1
-160.78,28.00,-57.73,3894,-6204,3909,-1,0,0
-160.78,28.00,-57.73,3897,-6194,3914,0,0,-1
-160.78,28.00,-57.73,3892,-6188,3914,0,0,-1
-160.78,28.00,-57.73,3888,-6185,3903,-1,0,0
-160.78,28.00,-57.73,3885,-6187,3909,-1,-1,-1
-160.78,28.00,-57.73,3894,-6192,3920,-1,-1,0
-160.78,28.00,-57.73,3890,-6189,3913,-1,-1,0
-160.78,27.99,-57.73,3881,-6195,3911,-1,-1,0
-160.78,27.99,-57.74,3890,-6198,3904,0,-1,-1
-160.78,28.00,-57.74,3890,-6203,3902,0,-1,-1
-160.78,28.00,-57.74,3897,-6200,3907,0,-1,-1
-160.78,28.01,-57.74,3891,-6198,3902,0,-1,-1
-160.78,28.01,-57.74,3894,-6194,3908,0,-1,-1
-160.78,28.02,-57.74,3894,-6193,3900,0,-1,-1
-160.77,28.02,-57.73,3886,-6199,3901,0,-1,-1
-160.78,28.02,-57.73,3884,-6197,3903,0,-1,-1
-160.78,28.03,-57.72,3888,-6192,3896,0,-1,0
-160.78,28.04,-57.72,3897,-6184,3897,0,-1,-1
-160.77,28.04,-57.72,3903,-6171,3907,0,-1,-1
-160.77,28.05,-57.73,3895,-6187,3897,0,-1,-1
-160.77,28.06,-57.73,3902,-6184,3901,0,-1,-1
-160.77,28.06,-57.72,3893,-6181,3908,0,-1,0
-160.77,28.07,-57.73,3893,-6180,3902,0,-1,-1
-160.76,28.08,-57.73,3902,-6189,3882,0,-1,-1
-160.76,28.09,-57.73,3907,-6188,3888,0,-1,-1
-160.76,28.09,-57.73,3908,-6183,3888,0,-1,-1
-160.76,28.10,-57.72,3903,-6185,3895,0,-1,-1
-160.77,28.10,-57.71,3903,-6189,3905,0,-1,0
-160.77,28.10,-57.71,3899,-6187,3899,0,-1,0
-160.77,28.10,-57.70,3895,-6185,3900,0,-1,-1
-160.78,28.11,-57.70,3893,-6185,3909,0,-1,-1
-160.77,28.12,-57.69,3901,-6178,3908,0,-1,-1
-160.78,28.12,-57.69,3899,-6183,3904,0,-1,0
-160.78,28.12,-57.69,3905,-6185,3906,0,-1,-1
-160.78,28.12,-57.68,3915,-6176,3902,0,-1,0
-160.78,28.13,-57.69,3910,-6176,3902,0,-1,0
-160.78,28.13,-57.69,3906,-6178,3900,0,-1,-1
-160.78,28.13,-57.69,3904,-6183,3903,0,-1,-1
-160.78,28.14,-57.68,3898,-6184,3899,0,-1,0
-160.78,28.14,-57.69,3903,-6182,3899,0,-1,-1
-160.78,28.14,-57.69,3909,-6184,3903,0,-1,-1
-160.78,28.15,-57.68,3910,-6190,3901,0,-1,0
-160.79,28.15,-57.68,3906,-6180,3904,0,-1,-1
-160.79,28.15,-57.67,3914,-6176,3902,0,-1,-1
-160.79,28.16,-57.67,3913,-6181,3899,0,-1,-1
-160.79,28.16,-57.66,3914,-6174,3903,0,-1,0
-160.79,28.16,-57.66,3910,-6175,3912,0,-1,0
-160.80,28.16,-57.65,3910,-6176,3904,0,-1,0
-160.80,28.16,-57.66,3908,-6178,3900,0,-1,0
-160.81,28.15,-57.66,3896,-6174,3894,0,-1,0
-160.81,28.16,-57.66,3901,-6168,3889,0,-1,-1
-160.81,28.16,-57.66,3905,-6176,3893,0,-1,-1
-160.81,28.17,-57.66,3915,-6178,3887,0,-1,0
-160.80,28.18,-57.67,3924,-6185,3887,0,-1,-1
-160.81,28.18,-57.65,3924,-6186,3901,0,-1,0
-160.81,28.18,-57.65,3908,-6186,3903,0,-1,-1
-160.82,28.18,-57.65,3912,-6183,3902,0,-1,-1
-160.81,28.19,-57.64,3913,-6178,3907,0,-1,-1
-160.82,28.19,-57.63,3916,-6167,3909,0,-1,0
-160.82,28.19,-57.63,3911,-6171,3905,-1,-1,0
-160.82,28.19,-57.65,3912,-6178,3902,0,-1,0
-160.82,28.20,-57.64,3914,-6177,3905,0,-1,0
-160.83,28.19,-57.64,3906,-6175,3900,0,-1,0
-160.83,28.20,-57.64,3913,-6177,3907,0,-1,0
-160.83,28.20,-57.64,3912,-6184,3897,0,-1,-1
-160.84,28.20,-57.63,3916,-6180,3902,0,-1,-1
-160.83,28.21,-57.63,3921,-6182,3900,0,-1,-1
-160.84,28.21,-57.62,3927,-6177,3906,0,-1,-1
-160.84,28.21,-57.61,3926,-6173,3905,0,-1,0
-160.85,28.21,-57.60,3912,-6173,3912,0,-1,0
-160.85,28.21,-57.60,3907,-6168,3918,0,-1,0
-160.85,28.21,-57.60,3908,-6162,3916,-1,-1,0
-160.85,28.21,-57.60,3905,-6161,3920,-1,-1,0
-160.85,28.21,-57.61,3910,-6159,3911,-1,-1,0
-160.84,28.22,-57.62,3913,-6166,3906,-1,-1,-1
-160.85,28.22,-57.63,3915,-6162,3898,0,-1,0
-160.85,28.22,-57.63,3913,-6182,3893,0,-1,-1
-160.85,28.23,-57.63,3919,-6180,3888,0,-1,0
-160.85,28.23,-57.63,3915,-6180,3896,0,-1,0
-160.86,28.22,-57.61,3917,-6176,3904,0,-1,-1
-160.86,28.22,-57.60,3915,-6174,3907,0,-1,-1
-160.86,28.23,-57.60,3915,-6176,3913,0,-1,-1
-160.87,28.23,-57.58,3914,-6170,3919,0,-1,0
-160.87,28.23,-57.58,3911,-6162,3914,0,-1,-1
-160.87,28.23,-57.57,3918,-6160,3919,0,-1,0
-160.88,28.23,-57.58,3911,-6165,3910,-1,-1,0
-160.88,28.23,-57.58,3916,-6164,3898,0,-1,0
-160.87,28.24,-57.59,3917,-6177,3900,0,-1,-1
-160.87,28.24,-57.59,3930,-6177,3909,0,-1,0
-160.88,28.24,-57.59,3916,-6174,3902,0,-1,0
-160.88,28.24,-57.59,3918,-6173,3900,0,-1,-1
-160.88,28.24,-57.60,3921,-6171,3900,0,-1,-1
-160.88,28.24,-57.59,3925,-6167,3904,0,-1,0
-160.88,28.25,-57.58,3930,-6164,3902,0,-1,0
-160.88,28.25,-57.57,3932,-6155,3910,0,-1,-1
-160.89,28.25,-57.56,3928,-6168,3921,0,0,0
-160.89,28.25,-57.55,3918,-6170,3920,0,-1,0
-160.90,28.25,-57.55,3921,-6170,3929,0,-1,0
-160.91,28.25,-57.55,3917,-6169,3927,0,-1,0
-160.91,28.25,-57.55,3909,-6170,3928,-1,-1,0
-160.91,28.24,-57.55,3912,-6172,3922,0,-1,-1
-160.91,28.25,-57.55,3923,-6168,3914,0,-1,-1
-160.90,28.26,-57.55,3920,-6167,3909,0,-1,-1
-160.91,28.26,-57.54,3926,-6168,3911,0,-1,-1
-160.91,28.26,-57.54,3927,-6166,3916,0,-1,-1
-160.91,28.26,-57.54,3927,-6160,3926,0,-1,0
-160.91,28.26,-57.53,3923,-6159,3921,0,-1,0
-160.91,28.26,-57.52,3924,-6155,3924,0,-1,0
-160.92,28.26,-57.53,3918,-6151,3925,-1,-1,0
-160.92,28.26,-57.53,3920,-6157,3924,-1,-1,0
-160.91,28.26,-57.54,3918,-6161,3913,-1,-1,0
-160.91,28.26,-57.55,3920,-6163,3913,-1,-1,0
-160.91,28.25,-57.56,3924,-6164,3908,-1,0,-1
-160.92,28.25,-57.55,3921,-6171,3917,-1,0,0
-160.91,28.25,-57.56,3922,-6176,3915,-1,0,-1
-160.91,28.25,-57.56,3919,-6184,3911,0,0,-1
-160.91,28.25,-57.56,3914,-6186,3905,0,0,-1
-160.92,28.24,-57.56,3918,-6180,3910,0,0,-1
-160.92,28.24,-57.55,3918,-6165,3918,0,0,-1
-160.92,28.24,-57.54,3920,-6163,3917,-1,0,0
-160.92,28.24,-57.54,3932,-6171,3932,0,0,0
-160.92,28.23,-57.55,3924,-6163,3926,-1,0,0
-160.92,28.22,-57.56,3907,-6164,3924,-1,0,-1
-160.92,28.22,-57.56,3912,-6170,3915,-1,-1,-1
-160.91,28.22,-57.58,3919,-6178,3911,-1,0,-1
-160.91,28.23,-57.58,3925,-6172,3908,-1,0,0
-160.91,28.22,-57.60,3919,-6170,3891,-1,-1,0
-160.91,28.22,-57.60,3926,-6180,3897,-1,-1,-1
-160.91,28.22,-57.59,3922,-6175,3907,0,0,0
-160.91,28.21,-57.59,3916,-6175,3907,0,0,-1
-160.92,28.21,-57.58,3914,-6171,3905,0,0,-1
-160.92,28.21,-57.58,3911,-6173,3911,0,0,-1
-160.91,28.21,-57.58,3922,-6176,3903,-1,0,-1
-160.91,28.21,-57.59,3927,-6171,3902,-1,0,-1
-160.90,28.21,-57.58,3929,-6169,3907,-1,0,0
-160.91,28.20,-57.59,3921,-6169,3922,-1,0,0
-160.91,28.20,-57.59,3919,-6166,3920,-1,0,0
-160.90,28.20,-57.60,3919,-6171,3908,-1,0,0
-160.91,28.19,-57.61,3913,-6175,3902,-1,0,0
-160.90,28.19,-57.62,3919,-6174,3903,-1,0,0
-160.90,28.19,-57.61,3921,-6172,3908,-1,0,-1
-160.90,28.19,-57.61,3916,-6176,3901,-1,0,-1
-160.90,28.18,-57.62,3916,-6178,3903,-1,0,0
-160.90,28.18,-57.62,3920,-6174,3910,-1,0,0
-160.91,28.17,-57.62,3915,-6171,3903,0,0,0
-160.91,28.17,-57.62,3903,-6168,3907,-1,0,0
-160.91,28.17,-57.62,3914,-6172,3909,0,0,-1
-160.91,28.16,-57.62,3903,-6173,3924,-1,0,0
-160.91,28.16,-57.62,3899,-6175,3919,-1,0,-1
-160.91,28.16,-57.62,3903,-6176,3912,-1,0,-1
-160.90,28.16,-57.63,3916,-6179,3899,0,0,-1
-160.90,28.16,-57.62,3918,-6171,3904,0,0,-1
-160.90,28.16,-57.63,3920,-6166,3898,-1,0,0
-160.90,28.16,-57.63,3918,-6169,3908,-1,0,0
-160.90,28.15,-57.63,3908,-6172,3909,-1,0,0
-160.91,28.14,-57.63,3904,-6172,3916,-1,0,0
-160.91,28.13,-57.63,3896,-6174,3914,-1,-1,0
-160.90,28.14,-57.64,3904,-6183,3900,-1,0,-1
-160.90,28.14,-57.66,3905,-6192,3895,-1,0,-1
-160.90,28.13,-57.66,3905,-6184,3898,-1,0,0
-160.90,28.13,-57.67,3901,-6185,3893,-1,0,0
-160.91,28.12,-57.66,3906,-6187,3892,0,0,0
-160.91,28.12,-57.65,3903,-6180,3901,0,0,0
-160.91,28.12,-57.65,3900,-6180,3908,0,0,0
-160.91,28.11,-57.64,3894,-6187,3917,0,0,0
-160.92,28.10,-57.64,3897,-6181,3916,-1,0,-1
-160.92,28.10,-57.64,3900,-6177,3912,-1,0,0
-160.92,28.10,-57.65,3895,-6178,3906,-1,0,0
-160.91,28.10,-57.66,3913,-6172,3910,-1,0,0
-160.91,28.09,-57.66,3909,-6178,3911,-1,0,0
-160.91,28.09,-57.67,3905,-6180,3918,-1,0,0
-160.92,28.08,-57.67,3893,-6188,3908,-1,0,0
-160.91,28.08,-57.68,3898,-6192,3895,-1,0,0
-160.91,28.08,-57.68,3895,-6188,3895,-1,0,-1
-160.91,28.08,-57.68,3901,-6187,3895,0,0,0
-160.91,28.08,-57.68,3897,-6184,3904,-1,0,0
-160.91,28.07,-57.68,3903,-6190,3909,0,0,0
-160.91,28.07,-57.67,3896,-6193,3911,0,0,0
-160.92,28.06,-57.68,3890,-6184,3911,0,0,-1
-160.92,28.06,-57.67,3886,-6184,3914,-1,0,0
-160.92,28.06,-57.67,3889,-6181,3914,-1,0,-1
-160.92,28.05,-57.67,3897,-6178,3919,-1,0,0
-160.92,28.05,-57.67,3897,-6177,3914,-1,0,0
-160.92,28.05,-57.68,3897,-6183,3916,-1,0,0
-160.92,28.05,-57.69,3896,-6186,3914,-1,0,0
-160.93,28.04,-57.68,3893,-6185,3912,-1,0,0
-160.92,28.04,-57.69,3890,-6193,3907,-1,0,-1
-160.93,28.03,-57.69,3896,-6193,3902,-1,0,-1
-160.92,28.03,-57.69,3902,-6192,3907,-1,0,0
-160.92,28.03,-57.69,3894,-6191,3908,-1,0,0
-160.93,28.02,-57.70,3895,-6190,3911,-1,0,0
-160.93,28.01,-57.69,3891,-6191,3923,0,0,0
-160.94,28.00,-57.69,3880,-6180,3925,-1,0,0
-160.94,28.00,-57.70,3883,-6183,3913,-1,-1,-1
-160.93,28.01,-57.70,3882,-6184,3903,-1,0,0
-160.94,28.00,-57.70,3894,-6195,3911,0,-1,-1
-160.93,28.01,-57.70,3891,-6188,3912,-1,-1,0
-160.93,28.01,-57.70,3880,-6184,3898,0,-1,-1
-160.93,28.02,-57.70,3889,-6180,3897,0,-1,-1
-160.92,28.03,-57.69,3897,-6176,3900,0,-1,-1
-160.93,28.03,-57.70,3897,-6178,3907,0,-1,0
-160.92,28.04,-57.69,3893,-6183,3914,0,-1,0
-160.93,28.04,-57.69,3893,-6183,3911,0,-1,-1
-160.93,28.04,-57.69,3895,-6180,3901,0,-1,0
-160.93,28.05,-57.69,3891,-6182,3900,0,-1,-1
-160.92,28.06,-57.69,3892,-6185,3904,0,-1,-1
-160.93,28.06,-57.70,3894,-6190,3905,0,-1,-1
-160.92,28.07,-57.70,3889,-6188,3895,0,-1,-1
-160.93,28.07,-57.69,3897,-6183,3899,0,-1,-1
-160.92,28.08,-57.69,3897,-6179,3900,0,-1,-1
-160.92,28.09,-57.68,3902,-6182,3905,0,-1,-1
-160.93,28.09,-57.68,3900,-6179,3910,0,-1,-1
-160.94,28.09,-57.66,3890,-6179,3917,0,-1,-1
-160.93,28.10,-57.66,3894,-6174,3914,0,-1,-1
-160.93,28.11,-57.66,3899,-6179,3911,0,-1,-1
-160.93,28.11,-57.67,3905,-6184,3907,0,-1,0
-160.93,28.12,-57.66,3907,-6184,3905,0,-1,-1
-160.93,28.12,-57.67,3901,-6178,3899,0,-1,0
-160.93,28.12,-57.68,3899,-6186,3897,0,-1,0
-160.93,28.12,-57.68,3902,-6186,3900,0,-1,-1
-160.94,28.12,-57.67,3903,-6191,3911,0,-1,-1
-160.94,28.13,-57.67,3905,-6185,3905,0,-1,0
-160.94,28.13,-57.67,3904,-6185,3909,0,-1,-1
-160.94,28.14,-57.67,3914,-6182,3909,0,-1,-1
-160.94,28.14,-57.66,3910,-6192,3899,0,-1,-1
-160.94,28.15,-57.65,3919,-6185,3905,0,-1,-1
-160.95,28.15,-57.64,3898,-6179,3908,0,-1,-1
-160.95,28.15,-57.64,3897,-6176,3908,0,-1,-1
-160.94,28.16,-57.64,3909,-6174,3897,0,-1,-1
-160.95,28.16,-57.63,3911,-6174,3905,0,-1,0
-160.95,28.17,-57.63,3914,-6166,3917,0,-1,0
-160.95,28.17,-57.63,3915,-6172,3918,0,-1,0
-160.95,28.17,-57.62,3920,-6174,3922,0,-1,0
-160.96,28.17,-57.63,3917,-6178,3914,-1,-1,0
-160.95,28.17,-57.63,3913,-6182,3911,0,-1,-1
-160.96,28.18,-57.63,3910,-6173,3911,0,-1,-1
-160.96,28.18,-57.62,3913,-6167,3903,0,-1,-1
-160.95,28.18,-57.62,3915,-6171,3910,0,-1,-1
-160.96,28.19,-57.62,3923,-6186,3907,0,-1,0
-160.96,28.19,-57.62,3920,-6183,3914,0,-1,0
-160.97,28.18,-57.61,3910,-6177,3915,0,-1,0
-160.97,28.18,-57.61,3898,-6171,3916,0,-1,0
-160.98,28.18,-57.61,3894,-6171,3911,0,-1,0
-160.98,28.18,-57.60,3899,-6177,3915,0,-1,-1
-160.98,28.18,-57.61,3897,-6169,3906,0,-1,-1
-160.98,28.19,-57.60,3911,-6171,3906,0,-1,-1
-160.98,28.20,-57.61,3919,-6175,3913,0,-1,-1
-160.98,28.20,-57.60,3927,-6180,3909,0,-1,-1
-160.98,28.20,-57.59,3928,-6174,3909,0,0,-1
-160.98,28.20,-57.59,3917,-6171,3911,0,-1,-1
-160.98,28.20,-57.59,3912,-6171,3919,0,-1,0
-160.98,28.20,-57.59,3908,-6176,3907,0,-1,0
-160.98,28.21,-57.59,3903,-6164,3913,0,-1,0
-160.98,28.20,-57.60,3907,-6168,3902,0,-1,-1
-160.99,28.21,-57.59,3914,-6171,3905,0,-1,0
-160.99,28.21,-57.60,3913,-6187,3906,0,-1,-1
-160.99,28.21,-57.59,3912,-6184,3910,0,0,0
-161.00,28.21,-57.59,3904,-6184,3901,0,-1,-1
-161.00,28.21,-57.58,3908,-6179,3890,0,-1,-1
-161.00,28.21,-57.58,3915,-6177,3903,0,-1,-1
-161.00,28.21,-57.56,3913,-6174,3919,0,0,0
-161.01,28.21,-57.55,3916,-6167,3926,0,-1,0
-161.01,28.22,-57.55,3922,-6159,3930,0,-1,-1
-161.01,28.22,-57.55,3925,-6156,3922,0,0,0
-161.01,28.22,-57.55,3912,-6160,3916,-1,-1,0
-161.01,28.22,-57.55,3906,-6156,3913,-1,-1,0
-161.01,28.22,-57.56,3903,-6167,3912,-1,-1,0
-161.01,28.22,-57.57,3910,-6170,3917,-1,-1,0
-161.01,28.22,-57.58,3915,-6163,3903,0,-1,0
-161.01,28.23,-57.57,3925,-6167,3900,0,-1,0
-161.02,28.23,-57.57,3923,-6173,3910,0,-1,0
-161.02,28.23,-57.56,3924,-6173,3897,0,-1,-1
-161.02,28.23,-57.55,3920,-6173,3898,0,-1,-1
-161.03,28.23,-57.54,3916,-6168,3916,0,-1,-1
-161.03,28.23,-57.53,3910,-6173,3918,0,-1,-1
-161.03,28.24,-57.53,3907,-6164,3926,0,-1,0
-161.04,28.23,-57.52,3909,-6162,3929,0,-1,0
-161.04,28.24,-57.52,3918,-6168,3924,0,-1,0
-161.04,28.24,-57.52,3920,-6160,3923,0,-1,-1
-161.05,28.23,-57.51,3919,-6162,3938,0,-1,0
-161.05,28.24,-57.52,3920,-6167,3924,-1,-1,0
-161.06,28.23,-57.52,3918,-6167,3911,0,-1,0
-161.06,28.23,-57.53,3914,-6171,3901,0,-1,0
-161.07,28.23,-57.53,3918,-6176,3913,0,-1,0
-161.06,28.24,-57.52,3923,-6173,3914,0,-1,0
-161.07,28.23,-57.52,3930,-6165,3916,0,-1,0
-161.07,28.24,-57.51,3927,-6160,3930,0,-1,0
-161.07,28.24,-57.52,3925,-6159,3911,0,-1,0
-161.08,28.24,-57.52,3916,-6169,3910,0,-1,0
-161.08,28.24,-57.51,3924,-6172,3918,0,-1,0
-161.10,28.23,-57.51,3904,-6178,3920,0,-1,0
-161.09,28.24,-57.51,3908,-6178,3913,0,-1,-1
-161.09,28.24,-57.52,3910,-6171,3917,0,-1,-1
-161.09,28.24,-57.51,3914,-6165,3931,0,-1,-1
-161.09,28.24,-57.50,3916,-6165,3933,0,-1,-1
-161.09,28.25,-57.50,3927,-6162,3915,0,-1,0
-161.09,28.25,-57.50,3926,-6169,3923,0,0,0
-161.09,28.25,-57.50,3922,-6151,3923,-1,0,0
-161.09,28.24,-57.51,3920,-6157,3929,-1,0,0
-161.09,28.24,-57.51,3917,-6152,3926,-1,-1,0
-161.08,28.24,-57.52,3916,-6160,3918,-1,0,-1
-161.09,28.23,-57.54,3910,-6166,3915,-1,0,0
-161.08,28.23,-57.55,3921,-6172,3904,-1,0,0
-161.07,28.23,-57.56,3923,-6168,3900,-1,0,0
-161.08,28.23,-57.57,3919,-6161,3897,-1,0,0
-161.07,28.22,-57.57,3920,-6166,3897,-1,0,-1
-161.07,28.22,-57.57,3916,-6173,3901,-1,0,-1
-161.07,28.21,-57.58,3921,-6186,3900,-1,0,-1
-161.07,28.21,-57.58,3918,-6185,3885,0,0,-1
-161.07,28.21,-57.57,3913,-6179,3898,0,0,-1
-161.07,28.21,-57.57,3921,-6175,3915,-1,0,-1
-161.07,28.21,-57.57,3912,-6170,3919,-1,0,0
-161.07,28.21,-57.57,3903,-6168,3919,-1,0,0
-161.07,28.20,-57.57,3909,-6177,3923,-1,0,0
-161.07,28.20,-57.58,3917,-6178,3916,-1,-1,0
-161.07,28.20,-57.58,3916,-6179,3910,0,0,-1
-161.08,28.20,-57.57,3906,-6173,3926,-1,0,0
-161.08,28.19,-57.58,3900,-6169,3925,-1,0,-1
-161.08,28.19,-57.58,3897,-6157,3923,-1,0,0
-161.07,28.18,-57.59,3914,-6171,3915,-1,0,-1
-161.07,28.19,-57.60,3911,-6182,3907,-1,0,-1
-161.07,28.19,-57.59,3925,-6183,3912,0,0,0
-161.07,28.17,-57.58,3911,-6169,3921,-1,0,0
-161.07,28.18,-57.59,3909,-6169,3913,-1,0,-1
-161.07,28.17,-57.60,3910,-6169,3906,-1,0,-1
-161.07,28.17,-57.60,3916,-6178,3913,-1,0,0
-161.07,28.17,-57.59,3904,-6177,3908,-1,0,0
-161.07,28.16,-57.60,3914,-6168,3913,-1,0,-1
-161.07,28.16,-57.59,3917,-6168,3916,0,0,-1
-161.07,28.15,-57.59,3917,-6161,3923,-1,0,-1
-161.07,28.15,-57.59,3915,-6165,3918,-1,0,0
-161.07,28.15,-57.60,3916,-6169,3922,-1,0,0
-161.07,28.15,-57.60,3909,-6176,3924,-1,0,0
-161.07,28.14,-57.61,3903,-6184,3920,-1,0,0
-161.07,28.13,-57.62,3902,-6180,3908,-1,0,0
-161.07,28.13,-57.63,3900,-6183,3902,-1,0,0
-161.07,28.13,-57.62,3897,-6179,3901,-1,0,-1
-161.07,28.12,-57.63,3898,-6171,3898,-1,0,-1
-161.07,28.12,-57.63,3898,-6172,3898,-1,0,-1
-161.07,28.12,-57.63,3898,-6179,3897,-1,0,-1
-161.07,28.12,-57.63,3909,-6189,3909,-1,0,0
-161.07,28.11,-57.63,3908,-6180,3912,0,0,0
-161.07,28.12,-57.63,3908,-6171,3910,-1,0,0
-161.07,28.11,-57.63,3898,-6168,3914,-1,0,0
-161.07,28.10,-57.63,3893,-6163,3911,-1,0,0
-161.08,28.10,-57.64,3889,-6166,3896,-1,0,0
-161.08,28.10,-57.64,3901,-6167,3905,0,0,0
-161.07,28.10,-57.65,3896,-6173,3914,-1,0,0
-161.07,28.10,-57.65,3901,-6184,3908,-1,0,-1
-161.07,28.09,-57.65,3913,-6184,3903,0,0,-1
-161.06,28.09,-57.65,3916,-6187,3901,0,0,-1
-161.07,28.09,-57.64,3899,-6183,3918,0,0,0
-161.07,28.08,-57.64,3897,-6182,3916,0,0,0
-161.07,28.08,-57.63,3896,-6180,3915,0,0,0
-161.08,28.07,-57.63,3898,-6185,3919,-1,0,0
-161.08,28.07,-57.63,3896,-6183,3923,-1,0,-1
-161.07,28.07,-57.64,3893,-6179,3922,-1,0,0
-161.07,28.07,-57.64,3895,-6173,3915,-1,0,0
-161.07,28.06,-57.65,3894,-6182,3910,-1,0,0
-161.07,28.06,-57.66,3896,-6189,3909,-1,0,0
-161.08,28.06,-57.66,3897,-6183,3919,-1,0,0
-161.08,28.06,-57.66,3892,-6182,3907,-1,0,0
-161.08,28.06,-57.66,3899,-6186,3905,-1,0,0
-161.08,28.05,-57.66,3900,-6192,3919,-1,0,0
-161.08,28.05,-57.66,3896,-6193,3915,0,0,0
-161.08,28.05,-57.65,3881,-6186,3911,0,0,-1
-161.08,28.04,-57.65,3885,-6181,3915,-1,0,0
-161.08,28.04,-57.65,3889,-6184,3915,-1,-1,0
-161.08,28.04,-57.66,3902,-6186,3907,-1,0,0
-161.08,28.03,-57.67,3901,-6186,3897,-1,0,-1
-161.08,28.04,-57.67,3907,-6185,3914,-1,0,0
-161.08,28.04,-57.67,3893,-6189,3908,-1,0,0
-161.08,28.03,-57.68,3889,-6191,3903,-1,0,-1
-161.07,28.03,-57.68,3891,-6189,3900,0,0,-1
-161.07,28.04,-57.67,3894,-6179,3904,0,0,-1
-161.07,28.03,-57.66,3896,-6172,3915,-1,0,0
-161.07,28.03,-57.66,3899,-6177,3917,-1,0,0
-161.08,28.02,-57.67,3894,-6178,3915,-1,0,0
-161.08,28.02,-57.67,3887,-6189,3911,-1,0,0
-161.08,28.01,-57.66,3884,-6187,3910,-1,0,0
-161.09,28.00,-57.67,3880,-6183,3917,-1,0,0
-161.08,28.01,-57.67,3878,-6189,3914,-1,0,-1
-161.08,28.01,-57.67,3880,-6192,3916,-1,0,-1
-161.08,28.01,-57.68,3885,-6193,3906,-1,-1,-1
-161.08,28.01,-57.68,3892,-6189,3908,0,-1,-1
-161.07,28.01,-57.69,3891,-6186,3902,0,0,0
-161.08,28.01,-57.68,3894,-6193,3903,0,0,0
-161.08,28.01,-57.68,3897,-6194,3903,0,0,0
-161.08,28.01,-57.68,3885,-6193,3907,0,-1,-1
-161.08,28.01,-57.68,3884,-6188,3910,-1,0,-1
-161.08,28.01,-57.68,3878,-6185,3913,-1,-1,-1
-161.07,28.01,-57.69,3879,-6191,3906,0,-1,-1
-161.08,28.02,-57.69,3891,-6188,3911,0,-1,-1
-161.07,28.02,-57.69,3895,-6186,3906,0,-1,-1
-161.07,28.03,-57.70,3902,-6191,3905,0,-1,-1
-161.06,28.04,-57.70,3900,-6196,3898,0,-1,0
-161.07,28.04,-57.70,3903,-6203,3908,0,-1,-1
-161.06,28.05,-57.69,3897,-6198,3912,0,-1,-1
-161.07,28.05,-57.68,3886,-6191,3915,0,-1,-1
-161.06,28.06,-57.68,3888,-6187,3901,0,-1,-1
-161.06,28.07,-57.68,3900,-6185,3901,0,-1,-1
-161.05,28.09,-57.67,3901,-6180,3902,0,-1,-1
-161.06,28.09,-57.67,3900,-6181,3909,0,-1,-1
-161.05,28.10,-57.67,3908,-6190,3921,0,-1,-1
-161.06,28.10,-57.67,3898,-6186,3917,0,-1,0
-161.06,28.10,-57.68,3896,-6183,3903,0,-1,-1
-161.06,28.11,-57.68,3895,-6192,3895,0,-1,-1
-161.05,28.12,-57.68,3897,-6187,3887,0,-1,-1
-161.05,28.13,-57.69,3896,-6180,3887,0,-1,-1
-161.05,28.13,-57.69,3900,-6184,3899,0,-1,-1
-161.06,28.13,-57.68,3910,-6187,3901,0,-1,-1
-161.06,28.14,-57.67,3906,-6190,3903,0,-1,0
-161.06,28.14,-57.67,3901,-6190,3904,0,-1,-1
-161.07,28.14,-57.65,3902,-6182,3912,0,-1,-1
-161.07,28.15,-57.65,3906,-6180,3920,0,-1,-1
-161.07,28.15,-57.64,3907,-6187,3914,0,-1,-1
-161.07,28.16,-57.64,3901,-6179,3914,0,-1,0
-161.07,28.16,-57.64,3901,-6176,3915,0,-1,0
-161.08,28.15,-57.64,3906,-6177,3913,0,-1,0
-161.08,28.16,-57.64,3911,-6172,3917,0,-1,0
-161.08,28.16,-57.64,3905,-6177,3912,0,-1,0
-161.08,28.17,-57.63,3910,-6180,3897,0,-1,0
-161.08,28.17,-57.64,3912,-6177,3899,0,-1,0
-161.09,28.17,-57.63,3913,-6180,3904,0,-1,0
-161.09,28.17,-57.63,3920,-6186,3904,0,-1,0
-161.09,28.18,-57.63,3913,-6184,3904,0,-1,0
-161.10,28.17,-57.62,3907,-6173,3910,0,-1,0
-161.11,28.17,-57.62,3897,-6163,3900,0,-1,0
-161.10,28.18,-57.62,3910,-6167,3904,0,-1,0
-161.11,28.18,-57.62,3913,-6184,3898,0,-1,-1
-161.11,28.18,-57.62,3917,-6177,3917,0,-1,0
-161.11,28.18,-57.62,3912,-6181,3906,0,-1,-1
-161.11,28.19,-57.61,3918,-6177,3901,0,-1,0
-161.11,28.19,-57.60,3923,-6166,3905,0,-1,0
-161.12,28.19,-57.61,3917,-6166,3909,0,-1,0
-161.12,28.19,-57.61,3915,-6171,3908,-1,-1,0
-161.12,28.20,-57.62,3922,-6172,3911,0,-1,0
-161.13,28.19,-57.61,3919,-6175,3920,0,-1,0
-161.14,28.19,-57.61,3899,-6170,3916,0,-1,0
-161.13,28.20,-57.61,3909,-6175,3911,0,-1,-1
-161.13,28.20,-57.62,3907,-6182,3900,0,-1,-1
-161.13,28.20,-57.62,3913,-6187,3904,0,-1,0
-161.14,28.20,-57.61,3901,-6179,3905,0,-1,-1
-161.14,28.21,-57.60,3907,-6182,3904,0,-1,-1
-161.14,28.21,-57.60,3913,-6175,3904,0,-1,-1
-161.15,28.21,-57.59,3913,-6178,3909,0,-1,0
-161.15,28.21,-57.58,3907,-6173,3916,0,-1,-1
-161.15,28.21,-57.59,3909,-6170,3921,0,-1,-1
-161.15,28.22,-57.58,3912,-6158,3915,0,-1,0
-161.15,28.22,-57.58,3915,-6159,3912,0,-1,0
-161.15,28.22,-57.58,3918,-6161,3902,0,-1,0
-161.15,28.23,-57.59,3918,-6167,3909,0,-1,0
-161.15,28.23,-57.59,3914,-6167,3899,0,-1,0
-161.16,28.23,-57.60,3916,-6177,3898,0,-1,0
-161.15,28.23,-57.60,3912,-6180,3898,0,-1,-1
-161.16,28.23,-57.59,3913,-6179,3901,0,-1,0
-161.17,28.23,-57.58,3906,-6174,3906,0,-1,0
-161.17,28.23,-57.57,3913,-6162,3912,0,-1,-1
-161.17,28.24,-57.57,3914,-6166,3910,0,-1,-1
-161.18,28.24,-57.56,3913,-6164,3918,0,-1,0
-161.18,28.24,-57.56,3919,-6164,3918,0,-1,0
-161.19,28.24,-57.55,3917,-6162,3927,0,-1,0
-161.20,28.23,-57.55,3905,-6160,3916,0,-1,-1
-161.20,28.24,-57.55,3913,-6161,3915,0,-1,-1
-161.19,28.25,-57.55,3916,-6168,3908,0,-1,-1
-161.20,28.25,-57.55,3919,-6166,3923,0,-1,0
-161.20,28.25,-57.54,3923,-6164,3913,0,-1,0
-161.20,28.25,-57.54,3928,-6165,3912,0,-1,0
-161.21,28.25,-57.54,3924,-6166,3915,0,0,0
-161.21,28.25,-57.54,3919,-6170,3913,0,-1,0
-161.21,28.26,-57.53,3921,-6166,3916,0,-1,0
-161.21,28.26,-57.53,3918,-6168,3913,0,-1,-1
-161.21,28.26,-57.53,3919,-6165,3910,0,-1,-1
-161.21,28.27,-57.53,3918,-6167,3910,0,-1,-1
-161.21,28.27,-57.53,3925,-6166,3908,0,-1,0
-161.22,28.27,-57.53,3925,-6161,3909,0,-1,0
-161.23,28.26,-57.52,3918,-6155,3915,0,-1,0
-161.23,28.26,-57.52,3909,-6157,3909,0,0,0
-161.23,28.26,-57.52,3911,-6159,3913,0,-1,0
-161.23,28.26,-57.52,3902,-6163,3915,0,-1,-1
-161.23,28.26,-57.53,3911,-6176,3918,0,-1,-1
-161.23,28.27,-57.53,3922,-6178,3925,0,-1,-1
-161.23,28.27,-57.53,3934,-6169,3929,-1,-1,-1
-161.22,28.27,-57.53,3936,-6164,3924,-1,0,0
-161.23,28.26,-57.54,3922,-6156,3915,-1,0,0
-161.22,28.26,-57.54,3914,-6155,3920,-1,0,0
-161.22,28.25,-57.55,3906,-6164,3904,-1,0,0
-161.22,28.24,-57.57,3905,-6168,3902,-1,0,0
-161.22,28.24,-57.57,3907,-6168,3908,-1,0,0
-161.22,28.23,-57.58,3907,-6173,3915,-1,0,-1
-161.22,28.24,-57.59,3917,-6165,3902,-1,0,-1
-161.21,28.24,-57.59,3908,-6165,3907,-1,0,0
-161.21,28.23,-57.59,3910,-6176,3908,-1,0,0
-161.21,28.23,-57.60,3914,-6187,3899,0,-1,-1
-161.22,28.23,-57.59,3913,-6180,3913,0,0,0
-161.22,28.22,-57.58,3907,-6178,3916,0,0,-1
-161.22,28.22,-57.58,3904,-6171,3917,0,0,-1
-161.21,28.22,-57.57,3908,-6164,3914,0,0,-1
-161.21,28.22,-57.57,3915,-6167,3918,-1,0,-1
-161.21,28.22,-57.57,3924,-6160,3925,-1,-1,-1
-161.21,28.22,-57.58,3928,-6168,3921,-1,0,0
-161.21,28.21,-57.58,3913,-6168,3917,-1,0,0
-161.22,28.20,-57.59,3911,-6171,3907,-1,0,0
-161.21,28.20,-57.60,3915,-6169,3917,-1,0,0
-161.21,28.20,-57.61,3911,-6183,3914,-1,0,-1
-161.21,28.20,-57.61,3911,-6182,3914,-1,0,-1
-161.21,28.20,-57.62,3910,-6178,3911,0,0,-1
-161.21,28.20,-57.61,3915,-6180,3912,0,0,-1
-161.21,28.19,-57.60,3913,-6178,3907,0,0,0
-161.22,28.18,-57.60,3908,-6178,3904,0,0,-1
-161.22,28.18,-57.59,3914,-6178,3906,0,0,-1
-161.22,28.17,-57.59,3906,-6173,3914,-1,0,0
-161.22,28.17,-57.59,3900,-6163,3916,-1,0,0
-161.22,28.17,-57.59,3902,-6160,3919,-1,-1,0
-161.22,28.17,-57.59,3905,-6167,3921,-1,0,0
-161.22,28.16,-57.61,3905,-6180,3920,-1,0,0
-161.22,28.16,-57.62,3914,-6187,3910,-1,0,-1
-161.22,28.16,-57.61,3910,-6184,3922,-1,0,0
-161.22,28.15,-57.62,3903,-6176,3925,-1,0,0
-161.22,28.15,-57.62,3902,-6171,3921,-1,0,0
-161.23,28.14,-57.62,3903,-6179,3917,0,0,-1
-161.22,28.15,-57.60,3916,-6179,3923,0,0,0
-161.23,28.14,-57.60,3904,-6171,3914,0,0,-1
-161.22,28.14,-57.60,3911,-6173,3915,0,0,-1
-161.23,28.14,-57.59,3913,-6173,3921,-1,0,0
-161.22,28.14,-57.60,3909,-6172,3911,0,0,0
-161.23,28.13,-57.60,3907,-6172,3921,-1,0,0
-161.23,28.13,-57.60,3909,-6172,3919,-1,0,0
-161.24,28.12,-57.60,3897,-6171,3915,-1,0,0
-161.23,28.12,-57.61,3893,-6181,3911,-1,0,-1
-161.23,28.12,-57.61,3898,-6184,3910,-1,0,-1
-161.23,28.12,-57.61,3896,-6182,3921,-1,0,-1
-161.23,28.11,-57.61,3901,-6179,3912,-1,0,-1
-161.22,28.12,-57.61,3908,-6173,3909,-1,0,0
-161.23,28.11,-57.61,3911,-6168,3903,-1,0,0
-161.23,28.10,-57.61,3907,-6177,3901,-1,0,0
-161.23,28.10,-57.61,3900,-6175,3911,-1,0,0
-161.24,28.09,-57.61,3899,-6177,3913,-1,0,0
-161.23,28.09,-57.62,3900,-6181,3915,-1,0,0
-161.23,28.08,-57.62,3898,-6186,3927,-1,0,0
-161.24,28.08,-57.63,3895,-6188,3923,-1,0,-1
-161.23,28.08,-57.63,3891,-6187,3918,-1,0,0
-161.23,28.07,-57.64,3895,-6179,3903,-1,0,0
-161.23,28.07,-57.64,3895,-6177,3894,-1,0,0
-161.23,28.07,-57.64,3899,-6184,3901,0,0,-1
-161.24,28.06,-57.62,3896,-6187,3907,0,0,0
-161.24,28.06,-57.62,3885,-6191,3910,0,0,-1
-161.24,28.05,-57.62,3896,-6185,3914,0,0,-1
-161.24,28.06,-57.61,3897,-6181,3925,-1,0,-1
-161.24,28.06,-57.61,3901,-6176,3923,-1,0,-1
-161.24,28.05,-57.61,3899,-6180,3924,-1,0,0
-161.24,28.05,-57.62,3899,-6179,3913,-1,0,0
-161.24,28.04,-57.63,3890,-6172,3927,-1,0,0
-161.24,28.04,-57.64,3890,-6178,3920,-1,0,0
-161.24,28.03,-57.65,3887,-6181,3915,-1,0,0
-161.24,28.03,-57.65,3889,-6183,3907,-1,0,0
-161.24,28.02,-57.66,3885,-6193,3903,-1,0,-1
-161.24,28.02,-57.66,3890,-6195,3900,-1,0,0
-161.24,28.02,-57.65,3898,-6194,3908,0,0,0
-161.24,28.01,-57.65,3894,-6188,3906,0,0,0
-161.24,28.01,-57.65,3899,-6188,3911,0,0,0
-161.24,28.01,-57.64,3902,-6187,3918,0,0,0
-161.25,28.00,-57.63,3895,-6186,3919,0,0,0
-161.25,27.99,-57.63,3890,-6179,3919,-1,0,-1
-161.25,27.99,-57.63,3884,-6173,3925,-1,0,0
-161.25,27.98,-57.63,3880,-6167,3930,-1,0,0
-161.25,27.97,-57.65,3877,-6184,3921,-1,0,0
-161.26,27.97,-57.65,3875,-6188,3905,-1,0,0
-161.25,27.96,-57.67,3890,-6201,3903,-1,0,0
-161.25,27.96,-57.67,3888,-6197,3913,-1,0,0
-161.25,27.96,-57.67,3885,-6200,3922,-1,0,-1
-161.25,27.96,-57.67,3891,-6198,3912,-1,0,-1
-161.25,27.96,-57.68,3886,-6195,3901,0,0,0
-161.25,27.96,-57.67,3881,-6190,3905,0,0,0
-161.26,27.95,-57.68,3883,-6190,3905,0,0,0
-161.26,27.95,-57.68,3881,-6192,3898,0,0,0
-161.26,27.94,-57.67,3872,-6188,3912,0,0,0
-161.26,27.94,-57.67,3871,-6187,3919,0,0,-1
-161.26,27.94,-57.66,3869,-6178,3921,0,-1,-1
-161.26,27.94,-57.66,3871,-6180,3923,-1,-1,-1
-161.26,27.95,-57.67,3878,-6186,3910,-1,-1,-1
-161.25,27.95,-57.67,3886,-6198,3907,0,-1,-1
-161.26,27.96,-57.68,3890,-6188,3908,0,-1,0
-161.25,27.96,-57.67,3880,-6180,3909,0,-1,0
-161.26,27.96,-57.67,3879,-6185,3911,0,-1,0
-161.26,27.97,-57.68,3879,-6186,3907,0,-1,-1
-161.25,27.98,-57.68,3881,-6197,3907,0,-1,-1
-161.25,27.98,-57.68,3876,-6192,3902,0,-1,-1
-161.24,28.00,-57.69,3882,-6197,3897,0,-1,-1
-161.24,28.00,-57.69,3884,-6197,3899,0,-1,0
-161.24,28.01,-57.68,3881,-6196,3899,0,-1,0
-161.25,28.01,-57.68,3886,-6187,3901,0,-1,-1
-161.25,28.02,-57.68,3888,-6199,3898,0,-1,-1
-161.25,28.03,-57.66,3892,-6191,3911,0,-1,-1
-161.25,28.04,-57.65,3889,-6180,3918,0,-1,-1
-161.25,28.04,-57.64,3883,-6181,3917,0,-1,-1
-161.25,28.05,-57.64,3894,-6174,3921,0,-1,-1
-161.25,28.06,-57.64,3897,-6171,3916,0,-1,0
-161.25,28.07,-57.64,3903,-6169,3918,0,-1,0
-161.25,28.07,-57.64,3898,-6176,3918,0,-1,0
-161.25,28.08,-57.64,3904,-6180,3916,0,-1,0
-161.25,28.08,-57.65,3907,-6188,3913,0,-1,0
-161.25,28.08,-57.64,3904,-6187,3915,0,-1,0
-161.26,28.08,-57.64,3889,-6189,3913,0,-1,-1
-161.26,28.09,-57.64,3892,-6187,3914,0,-1,-1
-161.26,28.09,-57.64,3892,-6186,3910,0,-1,-1
-161.27,28.09,-57.63,3892,-6182,3921,0,-1,-1
-161.26,28.11,-57.63,3899,-6175,3915,0,-1,0
-161.26,28.11,-57.63,3903,-6177,3912,0,-1,-1
-161.27,28.11,-57.63,3904,-6184,3907,0,-1,0
-161.27,28.11,-57.62,3900,-6179,3915,0,-1,0
-161.27,28.11,-57.62,3896,-6176,3924,0,-1,0
-161.28,28.11,-57.62,3898,-6181,3916,0,-1,-1
-161.27,28.13,-57.62,3904,-6176,3910,0,-1,-1
-161.27,28.13,-57.61,3905,-6179,3910,0,-1,-1
-161.27,28.14,-57.61,3908,-6174,3917,0,-1,-1
-161.27,28.14,-57.61,3908,-6172,3917,0,-1,-1
-161.27,28.15,-57.61,3917,-6181,3912,0,-1,0
-161.27,28.14,-57.61,3914,-6188,3916,0,-1,0
-161.28,28.15,-57.61,3906,-6185,3915,0,-1,0
-161.28,28.15,-57.60,3904,-6179,3907,0,-1,0
-161.28,28.15,-57.61,3902,-6183,3913,0,-1,-1
-161.28,28.16,-57.61,3907,-6185,3905,0,-1,-1
-161.28,28.16,-57.60,3904,-6182,3902,0,-1,-1
-161.28,28.16,-57.61,3911,-6175,3906,0,-1,-1
-161.27,28.17,-57.59,3921,-6167,3908,0,-1,-1
-161.27,28.17,-57.59,3915,-6164,3914,0,-1,0
-161.28,28.18,-57.59,3907,-6169,3926,0,-1,0
-161.28,28.17,-57.59,3910,-6165,3916,0,-1,0
-161.29,28.18,-57.59,3907,-6177,3918,0,-1,-1
-161.29,28.18,-57.58,3914,-6171,3928,0,0,0
-161.29,28.18,-57.59,3900,-6166,3922,0,-1,-1
-161.29,28.18,-57.59,3905,-6168,3908,-1,-1,-1
-161.28,28.19,-57.58,3913,-6171,3910,0,-1,-1
-161.29,28.19,-57.58,3918,-6174,3915,0,-1,0
-161.29,28.20,-57.58,3918,-6177,3917,0,-1,0
-161.29,28.19,-57.58,3917,-6177,3914,0,-1,0
-161.30,28.19,-57.58,3914,-6173,3922,0,0,0
-161.30,28.19,-57.57,3905,-6169,3919,0,-1,0
-161.31,28.19,-57.57,3907,-6175,3925,0,-1,-1
-161.31,28.19,-57.57,3904,-6174,3931,0,-1,0
-161.31,28.19,-57.56,3907,-6170,3932,0,-1,0
-161.31,28.20,-57.56,3909,-6167,3925,-1,-1,0
-161.31,28.20,-57.57,3906,-6169,3915,0,-1,0
-161.31,28.20,-57.57,3909,-6167,3913,0,-1,0
-161.31,28.20,-57.57,3916,-6172,3918,0,-1,0
-161.31,28.20,-57.57,3908,-6175,3910,0,-1,0
-161.31,28.20,-57.57,3909,-6177,3903,0,-1,0
-161.32,28.20,-57.57,3906,-6168,3900,0,-1,0
-161.32,28.21,-57.57,3906,-6169,3911,0,-1,-1
-161.33,28.21,-57.56,3908,-6174,3909,0,-1,0
-161.33,28.21,-57.56,3908,-6169,3909,0,-1,0
-161.33,28.21,-57.55,3909,-6164,3916,0,-1,0
-161.33,28.21,-57.55,3908,-6164,3909,0,-1,0
-161.33,28.22,-57.55,3915,-6163,3913,0,-1,0
-161.34,28.22,-57.55,3919,-6163,3912,0,-1,0
-161.34,28.22,-57.55,3920,-6169,3913,0,-1,0
-161.34,28.22,-57.55,3916,-6178,3921,0,-1,-1
-161.34,28.23,-57.54,3917,-6172,3926,0,-1,0
-161.35,28.23,-57.53,3915,-6162,3930,0,-1,0
-161.35,28.23,-57.54,3921,-6162,3925,0,-1,0
-161.36,28.23,-57.54,3913,-6171,3913,0,-1,0
-161.37,28.23,-57.53,3920,-6179,3917,0,0,0
-161.38,28.22,-57.52,3911,-6173,3925,0,-1,0
-161.39,28.22,-57.51,3904,-6171,3922,0,-1,-1
-161.38,28.23,-57.52,3914,-6164,3927,0,-1,0
-161.38,28.23,-57.51,3918,-6164,3913,0,-1,0
-161.39,28.23,-57.50,3927,-6159,3923,0,-1,0
-161.39,28.23,-57.51,3918,-6158,3923,0,-1,0
-161.41,28.22,-57.51,3911,-6165,3921,0,-1,0
-161.41,28.23,-57.50,3903,-6164,3918,0,-1,0
-161.42,28.22,-57.51,3908,-6177,3918,0,-1,-1
-161.41,28.23,-57.50,3908,-6175,3919,0,-1,0
-161.42,28.23,-57.50,3923,-6168,3922,0,-1,-1
-161.42,28.24,-57.50,3932,-6165,3923,0,-1,-1
-161.41,28.25,-57.50,3940,-6173,3920,0,-1,0
-161.42,28.25,-57.49,3932,-6166,3933,0,0,0
-161.44,28.24,-57.48,3925,-6163,3931,0,-1,0
-161.45,28.23,-57.48,3912,-6159,3924,0,-1,0
-161.45,28.23,-57.48,3916,-6166,3930,0,-1,0
-161.45,28.23,-57.48,3901,-6162,3916,0,-1,0
-161.46,28.23,-57.48,3902,-6164,3914,0,-1,-1
-161.46,28.23,-57.49,3919,-6170,3909,0,0,-1
-161.46,28.24,-57.47,3924,-6162,3926,0,-1,-1
-161.46,28.24,-57.48,3922,-6167,3920,0,-1,0
-161.47,28.24,-57.47,3916,-6159,3915,0,-1,0
-161.47,28.24,-57.46,3916,-6160,3915,0,-1,-1
-161.48,28.24,-57.45,3917,-6161,3924,0,-1,-1
-161.47,28.25,-57.45,3916,-6157,3929,0,-1,-1
-161.48,28.25,-57.43,3916,-6149,3935,0,-1,0
-161.48,28.25,-57.43,3916,-6151,3933,0,-1,-1
-161.48,28.25,-57.43,3921,-6143,3933,0,-1,0
-161.48,28.25,-57.44,3926,-6151,3941,0,-1,-1
-161.48,28.26,-57.43,3926,-6144,3952,-1,0,0
-161.48,28.25,-57.44,3914,-6152,3930,-1,0,0
-161.48,28.24,-57.46,3909,-6156,3925,-1,-1,-1
-161.47,28.25,-57.47,3920,-6169,3921,-1,0,0
-161.47,28.25,-57.48,3921,-6170,3920,-1,0,-1
-161.47,28.25,-57.46,3918,-6162,3926,-1,0,-1
-161.47,28.24,-57.47,3916,-6164,3920,-1,0,-1
-161.46,28.25,-57.46,3919,-6161,3920,0,0,-1
-161.47,28.24,-57.46,3915,-6164,3928,0,0,-1
-161.47,28.24,-57.45,3919,-6159,3943,-1,0,-1
-161.46,28.24,-57.45,3917,-6153,3930,-1,0,-1
-161.46,28.24,-57.45,3921,-6154,3929,-1,0,-1
-161.45,28.25,-57.45,3926,-6153,3935,-1,0,-1
-161.45,28.24,-57.46,3923,-6156,3931,-1,0,-1
-161.45,28.24,-57.47,3922,-6156,3925,-1,0,0
-161.44,28.24,-57.47,3922,-6159,3927,-1,0,0
-161.45,28.23,-57.48,3913,-6162,3922,-1,0,-1
-161.44,28.24,-57.48,3918,-6167,3915,-1,0,-1
-161.44,28.23,-57.48,3923,-6160,3919,-1,0,-1
-161.44,28.23,-57.49,3922,-6160,3910,-1,0,0
-161.44,28.23,-57.49,3922,-6158,3904,-1,0,-1
-161.44,28.23,-57.49,3913,-6162,3912,0,0,-1
-161.43,28.23,-57.49,3914,-6172,3920,0,0,-1
-161.43,28.23,-57.48,3917,-6165,3929,0,0,-1
-161.43,28.23,-57.48,3921,-6161,3933,-1,0,0
-161.44,28.22,-57.48,3921,-6156,3941,-1,0,0
-161.43,28.22,-57.49,3927,-6161,3931,-1,0,0
-161.44,28.21,-57.50,3912,-6169,3927,-1,0,0
-161.44,28.21,-57.50,3911,-6166,3926,-1,0,0
-161.43,28.21,-57.50,3898,-6163,3919,-1,0,-1
-161.44,28.20,-57.51,3899,-6173,3912,-1,0,-1
-161.43,28.20,-57.50,3903,-6173,3916,0,0,-1
-161.43,28.21,-57.50,3908,-6165,3911,0,0,-1
-161.42,28.21,-57.50,3911,-6162,3913,0,0,-1
-161.42,28.21,-57.50,3923,-6164,3917,0,0,0
-161.43,28.20,-57.48,3927,-6169,3926,0,0,0
-161.43,28.20,-57.48,3917,-6162,3924,-1,0,0
-161.43,28.19,-57.49,3909,-6165,3934,-1,0,0
-161.43,28.19,-57.49,3907,-6162,3930,-1,0,0
-161.43,28.19,-57.50,3902,-6167,3917,-1,-1,0
-161.43,28.19,-57.51,3904,-6176,3917,-1,-1,-1
-161.42,28.19,-57.52,3907,-6185,3926,-1,0,0
-161.43,28.18,-57.53,3907,-6182,3923,-1,0,0
-161.43,28.18,-57.53,3912,-6187,3916,-1,0,0
-161.44,28.16,-57.53,3903,-6184,3920,-1,0,0
-161.44,28.16,-57.52,3893,-6174,3925,0,0,0
-161.44,28.16,-57.51,3894,-6172,3924,0,0,-1
-161.45,28.15,-57.51,3898,-6173,3931,0,0,0
-161.45,28.15,-57.50,3902,-6177,3930,0,0,-1
-161.45,28.14,-57.51,3904,-6168,3925,-1,0,0
-161.45,28.14,-57.51,3909,-6164,3930,-1,0,0
-161.45,28.14,-57.51,3905,-6160,3923,-1,0,0
-161.45,28.14,-57.52,3907,-6159,3917,-1,0,0
-161.44,28.14,-57.54,3902,-6160,3908,-1,0,0
-161.44,28.13,-57.55,3908,-6165,3902,-1,0,0
-161.44,28.14,-57.56,3908,-6177,3907,-1,-1,-1
-161.44,28.13,-57.56,3907,-6186,3916,-1,0,0
-161.44,28.12,-57.56,3893,-6188,3925,-1,0,-1
-161.45,28.12,-57.56,3895,-6182,3919,0,0,-1
-161.44,28.12,-57.55,3896,-6176,3914,0,0,-1
-161.45,28.12,-57.54,3903,-6173,3928,0,0,0
-161.45,28.11,-57.54,3903,-6169,3931,0,0,0
-161.45,28.11,-57.54,3904,-6177,3925,-1,0,0
-161.46,28.10,-57.53,3897,-6171,3935,-1,0,0
-161.46,28.09,-57.53,3900,-6177,3941,-1,0,0
-161.46,28.09,-57.53,3898,-6174,3945,-1,0,0
-161.46,28.08,-57.54,3895,-6166,3938,-1,0,0
-161.46,28.08,-57.55,3887,-6169,3924,-1,0,0
-161.45,28.08,-57.56,3888,-6173,3920,-1,0,0
-161.46,28.07,-57.57,3885,-6193,3913,-1,0,0
-161.45,28.07,-57.58,3895,-6192,3911,-1,0,0
-161.46,28.06,-57.57,3896,-6184,3910,-1,0,0
-161.46,28.06,-57.57,3899,-6180,3918,-1,0,0
-161.46,28.06,-57.58,3896,-6186,3924,-1,0,0
-161.46,28.05,-57.58,3891,-6183,3926,-1,0,0
-161.47,28.04,-57.57,3891,-6179,3930,0,0,0
-161.48,28.03,-57.57,3876,-6174,3925,-1,0,0
-161.48,28.02,-57.57,3875,-6168,3916,-1,-1,0
-161.47,28.03,-57.57,3880,-6168,3925,-1,0,0
-161.48,28.02,-57.58,3881,-6181,3908,-1,0,-1
-161.47,28.02,-57.59,3885,-6187,3913,-1,0,0
-161.48,28.01,-57.59,3884,-6184,3918,-1,0,0
-161.47,28.01,-57.60,3882,-6185,3912,-1,0,-1
-161.47,28.01,-57.60,3888,-6195,3919,-1,0,-1
-161.47,28.01,-57.60,3891,-6197,3916,-1,0,0
-161.47,28.00,-57.60,3886,-6193,3915,-1,0,0
-161.48,27.99,-57.61,3889,-6185,3915,-1,0,0
-161.48,27.99,-57.61,3885,-6190,3914,-1,0,0
-161.48,27.98,-57.61,3882,-6189,3912,-1,0,0
-161.48,27.98,-57.61,3882,-6187,3922,-1,0,0
-161.48,27.98,-57.60,3879,-6184,3923,-1,0,0
-161.49,27.97,-57.60,3877,-6186,3912,-1,0,-1
-161.48,27.98,-57.60,3885,-6183,3918,0,-1,-1
-161.48,27.98,-57.60,3885,-6180,3926,0,0,0
-161.49,27.97,-57.60,3878,-6181,3934,0,0,0
-161.49,27.97,-57.60,3877,-6184,3930,-1,-1,0
-161.49,27.97,-57.60,3880,-6188,3930,-1,-1,-1
-161.49,27.97,-57.60,3882,-6190,3924,-1,-1,-1
-161.49,27.97,-57.61,3880,-6193,3920,0,-1,-1
-161.48,27.99,-57.61,3876,-6191,3916,0,-1,-1
-161.48,27.99,-57.62,3878,-6192,3911,-1,-1,-1
-161.48,27.99,-57.63,3881,-6185,3914,0,-1,-1
-161.48,28.00,-57.62,3885,-6181,3910,0,-1,-1
-161.48,28.00,-57.63,3869,-6195,3910,0,-1,-1
-161.48,28.00,-57.62,3887,-6201,3918,0,-1,-1
-161.49,28.01,-57.62,3883,-6192,3921,0,-1,-1
-161.48,28.02,-57.62,3874,-6187,3917,0,-1,-1
-161.48,28.02,-57.61,3874,-6183,3920,0,-1,-1
-161.48,28.04,-57.60,3883,-6172,3915,0,-1,-1
-161.48,28.04,-57.60,3888,-6164,3918,0,-1,-1
-161.48,28.05,-57.60,3899,-6172,3920,0,-1,0
-161.48,28.06,-57.60,3896,-6179,3912,0,-1,0
-161.48,28.06,-57.59,3896,-6180,3913,0,-1,-1
-161.49,28.07,-57.59,3891,-6182,3924,0,-1,-1
-161.49,28.07,-57.58,3886,-6176,3925,0,-1,-1
-161.49,28.08,-57.59,3891,-6180,3922,0,-1,-1
-161.48,28.08,-57.59,3887,-6177,3920,0,-1,-1
-161.49,28.09,-57.59,3899,-6179,3912,0,-1,0
-161.48,28.09,-57.60,3896,-6180,3905,0,-1,-1
-161.49,28.10,-57.59,3898,-6178,3912,0,-1,0
-161.49,28.10,-57.60,3897,-6177,3906,0,-1,-1
-161.48,28.11,-57.59,3897,-6180,3909,0,-1,-1
-161.49,28.11,-57.58,3890,-6180,3909,0,-1,-1
-161.49,28.11,-57.59,3896,-6177,3915,0,-1,-1
-161.49,28.12,-57.58,3901,-6181,3925,0,-1,0
-161.50,28.12,-57.58,3898,-6176,3924,0,-1,0
-161.50,28.12,-57.58,3900,-6181,3923,0,-1,0
-161.50,28.12,-57.57,3896,-6172,3921,0,-1,-1
-161.50,28.12,-57.57,3899,-6178,3922,0,-1,-1
-161.50,28.13,-57.57,3892,-6181,3925,0,-1,-1
-161.51,28.13,-57.57,3897,-6175,3925,0,-1,-1
-161.50,28.14,-57.57,3906,-6173,3925,0,-1,-1
-161.50,28.14,-57.56,3916,-6174,3922,0,-1,0
-161.50,28.14,-57.56,3920,-6167,3927,0,-1,0
-161.50,28.15,-57.56,3922,-6173,3926,0,-1,0
-161.50,28.15,-57.56,3916,-6171,3932,0,-1,0
-161.50,28.16,-57.55,3906,-6164,3935,0,-1,0
-161.51,28.15,-57.55,3890,-6173,3923,0,-1,-1
-161.51,28.16,-57.56,3893,-6172,3927,0,-1,-1
-161.51,28.16,-57.56,3897,-6170,3928,0,-1,-1
-161.51,28.16,-57.55,3905,-6161,3920,0,-1,0
-161.51,28.16,-57.55,3908,-6165,3909,0,-1,-1
-161.51,28.17,-57.56,3910,-6178,3904,0,-1,0
-161.51,28.17,-57.55,3920,-6178,3917,0,-1,-1
-161.52,28.17,-57.54,3910,-6177,3921,0,-1,0
-161.52,28.17,-57.53,3906,-6171,3916,0,-1,-1
-161.53,28.18,-57.52,3908,-6175,3920,0,-1,-1
-161.52,28.18,-57.52,3911,-6163,3927,0,-1,0
-161.52,28.18,-57.51,3913,-6157,3931,0,-1,0
-161.53,28.19,-57.51,3912,-6149,3914,0,-1,0
-161.53,28.19,-57.52,3918,-6159,3925,-1,-1,0
-161.53,28.19,-57.52,3911,-6163,3928,-1,-1,0
-161.53,28.19,-57.53,3908,-6168,3924,-1,-1,0
-161.54,28.19,-57.53,3911,-6170,3916,0,-1,0
-161.54,28.19,-57.54,3908,-6182,3909,0,-1,0
-161.53,28.20,-57.54,3904,-6181,3911,0,-1,0
-161.54,28.19,-57.54,3903,-6179,3909,0,-1,0
-161.54,28.20,-57.53,3908,-6180,3905,0,-1,0
-161.55,28.20,-57.53,3905,-6172,3912,0,-1,0
-161.55,28.20,-57.52,3908,-6173,3914,0,-1,0
-161.56,28.20,-57.50,3906,-6167,3926,0,-1,-1
-161.56,28.20,-57.50,3908,-6167,3922,0,-1,0
-161.57,28.20,-57.50,3905,-6156,3923,0,-1,0
-161.57,28.20,-57.49,3912,-6158,3929,0,-1,0
-161.57,28.20,-57.50,3909,-6164,3929,-1,-1,-1
-161.57,28.21,-57.50,3917,-6156,3919,0,-1,0
-161.57,28.21,-57.50,3923,-6163,3926,-1,-1,0
-161.57,28.21,-57.50,3922,-6169,3917,0,-1,0
-161.57,28.21,-57.50,3918,-6168,3924,0,-1,-1
-161.58,28.22,-57.50,3908,-6171,3915,0,-1,0
-161.58,28.22,-57.50,3917,-6169,3921,0,-1,0
-161.58,28.22,-57.50,3912,-6171,3913,0,-1,0
-161.58,28.23,-57.49,3917,-6170,3914,0,-1,0
-161.58,28.23,-57.49,3922,-6182,3916,0,-1,-1
-161.59,28.23,-57.48,3921,-6167,3934,0,0,0
-161.60,28.23,-57.47,3912,-6162,3933,0,-1,-1
-161.60,28.23,-57.47,3916,-6157,3929,0,-1,-1
-161.60,28.23,-57.47,3917,-6155,3928,0,-1,0
-161.61,28.23,-57.46,3912,-6151,3930,0,0,0
-161.61,28.23,-57.46,3904,-6150,3931,-1,-1,0
-161.62,28.23,-57.47,3900,-6163,3923,-1,-1,0
-161.62,28.23,-57.48,3909,-6167,3922,0,-1,0
-161.62,28.23,-57.47,3910,-6167,3913,0,-1,0
-161.62,28.23,-57.47,3917,-6161,3923,0,-1,-1
-161.62,28.24,-57.47,3921,-6165,3922,0,-1,0
-161.63,28.24,-57.46,3919,-6163,3913,0,-1,0
-161.63,28.24,-57.47,3920,-6162,3915,0,-1,0
-161.64,28.24,-57.46,3927,-6158,3916,0,-1,0
-161.65,28.24,-57.45,3915,-6150,3920,0,0,0
-161.65,28.24,-57.45,3903,-6152,3920,0,-1,0
-161.65,28.23,-57.45,3898,-6149,3918,0,-1,0
-161.66,28.24,-57.46,3900,-6155,3920,0,-1,-1
-161.65,28.24,-57.45,3906,-6161,3929,0,-1,-1
-161.65,28.25,-57.45,3910,-6172,3924,0,-1,0
-161.66,28.24,-57.45,3917,-6161,3925,0,-1,0
-161.67,28.25,-57.44,3910,-6155,3920,0,-1,0
-161.67,28.25,-57.44,3913,-6157,3924,0,-1,-1
-161.68,28.25,-57.43,3921,-6175,3921,0,-1,-1
-161.68,28.25,-57.42,3918,-6168,3924,0,0,-1
-161.68,28.26,-57.41,3913,-6156,3937,0,-1,-1
-161.68,28.26,-57.40,3917,-6150,3938,0,-1,-1
-161.68,28.26,-57.40,3917,-6149,3935,-1,-1,0
-161.68,28.26,-57.41,3922,-6146,3924,-1,-1,0
-161.68,28.27,-57.42,3923,-6162,3924,-1,-1,0
-161.69,28.26,-57.42,3930,-6164,3935,0,0,0
-161.68,28.26,-57.43,3914,-6166,3920,-1,-1,0
-161.69,28.26,-57.43,3915,-6171,3914,-1,-1,-1
-161.69,28.26,-57.43,3920,-6166,3920,0,0,-1
-161.68,28.26,-57.43,3924,-6161,3917,0,0,-1
-161.68,28.26,-57.43,3919,-6158,3923,-1,0,-1
-161.68,28.26,-57.43,3921,-6159,3919,-1,0,-1
-161.68,28.26,-57.43,3923,-6162,3916,0,0,0
-161.68,28.25,-57.43,3916,-6158,3917,-1,0,0
-161.68,28.25,-57.44,3916,-6154,3924,-1,0,-1
-161.68,28.25,-57.44,3906,-6155,3914,-1,0,-1
-161.68,28.25,-57.44,3914,-6153,3917,-1,0,-1
-161.68,28.25,-57.44,3908,-6150,3935,-1,-1,-1
-161.67,28.25,-57.45,3919,-6151,3931,-1,-1,-1
-161.67,28.25,-57.46,3917,-6157,3920,-1,0,0
-161.67,28.25,-57.46,3909,-6155,3914,-1,-1,0
-161.67,28.24,-57.47,3914,-6151,3920,-1,-1,0
-161.67,28.24,-57.48,3920,-6171,3917,-1,0,-1
-161.67,28.24,-57.48,3928,-6191,3914,0,0,-1
-161.67,28.23,-57.46,3914,-6181,3915,0,0,-1
-161.68,28.23,-57.45,3903,-6153,3930,0,0,0
-161.68,28.23,-57.45,3910,-6148,3933,-1,-1,0
-161.67,28.23,-57.46,3910,-6158,3924,0,-1,-1
-161.68,28.23,-57.45,3918,-6160,3929,0,0,-1
-161.67,28.23,-57.45,3920,-6153,3933,0,0,-1
-161.67,28.23,-57.45,3921,-6153,3933,-1,0,-1
-161.67,28.23,-57.46,3922,-6163,3928,-1,0,0
-161.67,28.22,-57.45,3921,-6163,3926,0,0,0
-161.67,28.21,-57.46,3896,-6150,3931,-1,0,0
-161.68,28.21,-57.46,3885,-6152,3921,-1,0,-1
-161.67,28.21,-57.47,3894,-6164,3927,-1,-1,-1
-161.67,28.21,-57.47,3901,-6172,3929,-1,0,-1
-161.66,28.21,-57.46,3914,-6166,3931,-1,0,-1
-161.67,28.21,-57.47,3920,-6171,3922,-1,0,0
-161.66,28.20,-57.46,3916,-6166,3926,0,0,0
-161.67,28.20,-57.46,3914,-6160,3922,-1,0,0
-161.67,28.19,-57.46,3913,-6161,3933,-1,0,0
-161.67,28.19,-57.46,3914,-6160,3927,-1,0,0
-161.67,28.19,-57.47,3908,-6160,3929,-1,0,0
-161.66,28.18,-57.48,3909,-6159,3921,-1,0,0
-161.66,28.18,-57.49,3913,-6162,3922,-1,0,0
-161.66,28.18,-57.49,3906,-6175,3934,-1,0,0
-161.66,28.17,-57.49,3904,-6179,3928,-1,0,0
-161.66,28.17,-57.49,3905,-6173,3926,-1,0,0
-161.67,28.16,-57.50,3896,-6174,3931,0,0,0
-161.67,28.15,-57.50,3901,-6179,3921,0,0,-1
-161.68,28.15,-57.49,3904,-6179,3916,0,0,-1
-161.68,28.14,-57.48,3905,-6174,3928,0,0,0
-161.68,28.14,-57.48,3902,-6166,3930,0,0,-1
-161.67,28.14,-57.47,3904,-6163,3940,-1,0,-1
-161.68,28.14,-57.47,3909,-6164,3938,-1,0,0
-161.68,28.13,-57.48,3899,-6164,3929,-1,0,0
-161.68,28.13,-57.50,3907,-6171,3917,-1,0,0
-161.67,28.12,-57.51,3910,-6173,3922,-1,-1,0
-161.68,28.12,-57.51,3912,-6177,3935,-1,0,0
-161.67,28.11,-57.53,3899,-6178,3923,-1,0,0
-161.67,28.11,-57.53,3899,-6180,3914,-1,0,-1
-161.67,28.11,-57.54,3899,-6179,3909,-1,0,-1
-161.67,28.11,-57.53,3899,-6175,3913,0,0,0
-161.68,28.10,-57.53,3898,-6172,3918,0,0,0
-161.68,28.09,-57.52,3897,-6181,3925,0,0,0
-161.69,28.09,-57.52,3887,-6181,3927,0,0,0
-161.69,28.08,-57.52,3888,-6174,3929,0,0,0
-161.69,28.07,-57.51,3883,-6173,3935,-1,0,0
-161.70,28.06,-57.51,3880,-6167,3934,-1,0,0
-161.69,28.06,-57.52,3882,-6163,3928,-1,-1,0
-161.69,28.07,-57.53,3891,-6170,3920,-1,0,0
-161.69,28.06,-57.54,3895,-6173,3920,-1,0,0
-161.69,28.06,-57.55,3895,-6178,3921,-1,0,0
-161.69,28.05,-57.55,3894,-6178,3921,-1,0,0
-161.69,28.04,-57.56,3889,-6180,3923,-1,0,0
-161.69,28.05,-57.56,3893,-6185,3907,-1,0,0
-161.70,28.04,-57.56,3889,-6190,3906,0,0,-1
-161.69,28.04,-57.55,3889,-6180,3918,0,0,-1
-161.69,28.04,-57.55,3883,-6171,3920,0,-1,-1
-161.69,28.03,-57.56,3891,-6178,3918,-1,0,0
-161.70,28.03,-57.56,3894,-6178,3910,-1,0,0
-161.70,28.02,-57.55,3894,-6186,3920,0,0,0
-161.71,28.02,-57.55,3883,-6181,3933,-1,0,0
-161.71,28.01,-57.56,3873,-6179,3925,-1,0,0
-161.71,28.00,-57.56,3872,-6188,3930,-1,0,-1
-161.71,28.01,-57.56,3882,-6188,3929,-1,0,-1
-161.70,28.00,-57.57,3885,-6188,3922,-1,0,-1
-161.70,28.00,-57.57,3893,-6181,3914,-1,0,-1
-161.70,28.00,-57.58,3898,-6189,3919,-1,0,-1
-161.70,28.00,-57.57,3892,-6196,3930,-1,0,0
-161.70,27.99,-57.57,3894,-6195,3926,0,0,-1
-161.71,27.99,-57.57,3885,-6190,3939,-1,0,0
-161.70,27.98,-57.56,3881,-6189,3936,-1,0,0
-161.70,27.98,-57.57,3878,-6186,3933,-1,-1,0
-161.70,27.98,-57.58,3879,-6184,3922,-1,-1,0
-161.70,27.98,-57.58,3870,-6184,3923,-1,-1,-1
-161.71,27.98,-57.59,3879,-6188,3925,-1,-1,0
-161.70,27.98,-57.59,3887,-6192,3920,-1,-1,-1
-161.70,27.98,-57.59,3877,-6188,3913,0,-1,0
-161.71,27.98,-57.59,3874,-6189,3915,0,-1,-1
-161.71,27.99,-57.59,3879,-6195,3912,0,-1,-1
-161.70,27.99,-57.59,3884,-6196,3922,0,-1,-1
-161.70,28.00,-57.58,3889,-6193,3914,0,-1,-1
-161.70,28.00,-57.58,3886,-6187,3929,0,-1,-1
-161.70,28.01,-57.58,3889,-6174,3925,0,-1,-1
-161.70,28.02,-57.58,3892,-6174,3915,0,-1,-1
-161.70,28.02,-57.59,3890,-6177,3915,-1,-1,-1
-161.70,28.03,-57.59,3898,-6186,3925,0,-1,-1
-161.69,28.04,-57.59,3884,-6184,3923,-1,-1,-1
-161.69,28.04,-57.60,3877,-6186,3913,0,-1,-1
-161.69,28.05,-57.61,3875,-6184,3910,0,-1,-1
-161.68,28.06,-57.61,3887,-6187,3914,0,-1,-1
-161.68,28.07,-57.60,3892,-6178,3913,0,-1,-1
-161.69,28.08,-57.59,3898,-6172,3912,0,-1,0
-161.69,28.08,-57.59,3895,-6180,3916,0,-1,0
-161.69,28.08,-57.58,3897,-6180,3922,0,-1,0
-161.70,28.09,-57.57,3901,-6184,3929,0,-1,-1
-161.70,28.09,-57.56,3892,-6178,3929,0,-1,-1
-161.71,28.09,-57.56,3891,-6170,3915,0,-1,-1
-161.70,28.11,-57.56,3896,-6170,3922,0,-1,-1
-161.70,28.11,-57.56,3897,-6168,3924,0,-1,0
-161.70,28.12,-57.56,3906,-6175,3927,0,-1,0
-161.70,28.12,-57.56,3906,-6179,3923,0,-1,0
-161.71,28.12,-57.56,3902,-6178,3928,0,-1,0
-161.71,28.13,-57.56,3894,-6173,3926,0,-1,0
-161.71,28.12,-57.56,3896,-6174,3926,0,-1,0
-161.71,28.13,-57.56,3895,-6177,3916,0,-1,-1
-161.72,28.13,-57.55,3891,-6173,3912,0,-1,-1
-161.72,28.14,-57.54,3906,-6163,3923,0,-1,-1
-161.71,28.15,-57.54,3916,-6170,3919,0,-1,-1
-161.71,28.16,-57.54,3915,-6179,3909,0,-1,-1
-161.72,28.16,-57.52,3913,-6177,3917,0,0,0
-161.72,28.16,-57.51,3902,-6173,3929,0,-1,0
-161.73,28.16,-57.51,3891,-6160,3933,0,-1,0
-161.73,28.16,-57.51,3883,-6163,3925,0,-1,0
-161.74,28.16,-57.51,3895,-6168,3925,0,-1,-1
-161.73,28.18,-57.51,3905,-6171,3917,0,-1,-1
-161.73,28.18,-57.52,3911,-6170,3917,0,-1,-1
-161.73,28.18,-57.51,3909,-6170,3922,-1,-1,0
-161.73,28.18,-57.52,3920,-6173,3915,0,-1,0
-161.73,28.19,-57.51,3912,-6176,3912,0,-1,0
-161.74,28.19,-57.51,3915,-6175,3921,0,-1,0
-161.74,28.18,-57.51,3901,-6169,3918,0,-1,0
-161.74,28.19,-57.51,3899,-6165,3916,0,-1,-1
-161.74,28.19,-57.51,3902,-6167,3907,0,-1,-1
-161.74,28.20,-57.52,3904,-6171,3919,0,-1,-1
-161.74,28.20,-57.51,3902,-6172,3920,0,-1,-1
-161.74,28.21,-57.51,3913,-6175,3920,0,-1,0
-161.74,28.20,-57.52,3907,-6185,3916,0,-1,0
-161.75,28.20,-57.51,3899,-6175,3913,0,-1,0
-161.76,28.20,-57.50,3905,-6168,3916,0,-1,-1
-161.76,28.20,-57.50,3901,-6161,3927,0,-1,-1
-161.77,28.20,-57.49,3899,-6163,3920,0,-1,-1
-161.76,28.21,-57.48,3903,-6168,3930,0,-1,-1
-161.77,28.21,-57.48,3902,-6168,3924,0,-1,-1
-161.77,28.21,-57.48,3909,-6161,3934,0,-1,0
-161.77,28.21,-57.48,3914,-6162,3928,0,-1,0
-161.76,28.22,-57.48,3912,-6160,3923,-1,-1,0
-161.77,28.22,-57.48,3911,-6156,3920,-1,-1,0
-161.77,28.22,-57.49,3908,-6151,3912,0,-1,0
-161.77,28.22,-57.49,3909,-6153,3919,0,-1,-1
-161.77,28.22,-57.49,3914,-6162,3912,0,-1,0
-161.78,28.23,-57.49,3912,-6167,3916,0,-1,0
-161.78,28.23,-57.48,3915,-6165,3910,0,-1,0
-161.78,28.23,-57.48,3918,-6166,3913,0,-1,0
-161.79,28.24,-57.46,3926,-6161,3922,0,-1,0
-161.79,28.24,-57.46,3923,-6158,3925,0,-1,0
-161.80,28.23,-57.45,3918,-6156,3931,0,-1,0
-161.80,28.24,-57.44,3918,-6155,3936,0,-1,0
-161.81,28.24,-57.44,3920,-6157,3934,0,-1,0
-161.81,28.24,-57.44,3915,-6154,3938,0,-1,0
-161.82,28.24,-57.44,3917,-6155,3930,0,-1,0
-161.81,28.25,-57.44,3912,-6153,3922,-1,-1,0
-161.81,28.25,-57.45,3913,-6153,3917,0,-1,0
-161.81,28.25,-57.45,3914,-6160,3919,0,-1,-1
-161.82,28.26,-57.44,3930,-6159,3930,0,-1,0
-161.83,28.25,-57.44,3919,-6161,3933,0,-1,-1
-161.83,28.26,-57.44,3908,-6164,3925,0,-1,-1
-161.83,28.26,-57.43,3917,-6159,3920,0,-1,-1
-161.84,28.26,-57.42,3917,-6156,3923,0,-1,-1
-161.84,28.27,-57.41,3919,-6149,3931,0,-1,0
-161.85,28.26,-57.41,3918,-6152,3925,0,-1,0
-161.84,28.27,-57.41,3921,-6155,3929,0,-1,0
-161.86,28.26,-57.41,3921,-6149,3936,-1,-1,0
-161.86,28.26,-57.41,3913,-6146,3940,0,-1,0
-161.86,28.26,-57.41,3915,-6146,3948,-1,-1,0
-161.86,28.26,-57.42,3919,-6157,3937,-1,-1,0
-161.86,28.26,-57.43,3911,-6167,3937,-1,-1,0
-161.87,28.26,-57.43,3907,-6164,3936,0,-1,0
-161.88,28.25,-57.43,3906,-6162,3938,0,-1,0
-161.88,28.25,-57.43,3906,-6157,3930,0,-1,0
-161.89,28.25,-57.43,3909,-6162,3923,0,-1,0
-161.89,28.25,-57.43,3916,-6156,3927,0,-1,0
-161.89,28.26,-57.42,3913,-6164,3918,0,-1,0
-161.90,28.25,-57.42,3917,-6156,3931,0,-1,0
-161.90,28.26,-57.40,3917,-6151,3944,0,-1,-1
-161.90,28.26,-57.40,3922,-6148,3935,0,-1,0
-161.90,28.27,-57.40,3930,-6157,3940,0,-1,0
-161.90,28.27,-57.40,3925,-6158,3937,0,-1,0
-161.90,28.27,-57.39,3924,-6150,3942,0,-1,0
-161.91,28.27,-57.40,3916,-6155,3945,0,-1,-1
-161.91,28.27,-57.40,3913,-6157,3939,0,-1,0
-161.91,28.27,-57.40,3911,-6160,3925,0,-1,0
-161.91,28.28,-57.39,3922,-6154,3935,0,-1,0
-161.92,28.27,-57.39,3915,-6153,3933,0,-1,0
-161.92,28.27,-57.38,3915,-6157,3938,0,-1,-1
-161.92,28.28,-57.38,3923,-6164,3944,0,-1,-1
-161.93,28.27,-57.37,3909,-6158,3955,0,-1,-1
-161.93,28.27,-57.37,3909,-6153,3949,-1,0,-1
-161.93,28.27,-57.37,3908,-6151,3941,-1,-1,-1
-161.92,28.27,-57.38,3914,-6145,3942,-1,0,-1
-161.92,28.27,-57.39,3921,-6151,3941,-1,0,0
-161.91,28.26,-57.41,3916,-6154,3928,-1,0,0
-161.91,28.26,-57.42,3920,-6150,3929,-1,0,0
-161.90,28.25,-57.43,3914,-6152,3927,-1,0,0
-161.91,28.25,-57.44,3910,-6160,3925,-1,0,-1
-161.90,28.25,-57.44,3912,-6159,3927,-1,0,-1
-161.90,28.25,-57.45,3912,-6162,3917,-1,0,-1
-161.89,28.25,-57.45,3916,-6160,3923,-1,0,-1
-161.90,28.24,-57.45,3915,-6161,3932,0,0,-1
-161.90,28.24,-57.44,3916,-6161,3928,0,0,-1
-161.90,28.24,-57.43,3911,-6157,3928,0,0,-1
-161.90,28.23,-57.43,3902,-6166,3932,0,0,0
-161.90,28.23,-57.43,3902,-6158,3938,-1,0,-1
-161.90,28.23,-57.43,3905,-6164,3944,-1,-1,-1
-161.90,28.23,-57.44,3907,-6161,3952,-1,-1,-1
-161.89,28.23,-57.44,3916,-6163,3945,-1,0,-1
-161.89,28.23,-57.44,3918,-6159,3939,-1,0,-1
-161.88,28.23,-57.45,3911,-6162,3928,-1,0,0
-161.89,28.23,-57.46,3907,-6162,3924,-1,0,0
-161.89,28.22,-57.45,3913,-6164,3921,-1,0,-1
-161.88,28.22,-57.45,3909,-6166,3920,-1,0,-1
-161.89,28.22,-57.46,3906,-6167,3919,-1,-1,-1
-161.89,28.22,-57.46,3914,-6170,3914,0,0,0
-161.89,28.22,-57.46,3915,-6172,3915,0,-1,-1
-161.89,28.21,-57.45,3916,-6165,3929,0,0,0
-161.88,28.21,-57.45,3906,-6165,3925,-1,0,-1
-161.89,28.21,-57.46,3907,-6161,3920,-1,-1,0
-161.89,28.21,-57.46,3907,-6156,3919,-1,0,0
-161.89,28.20,-57.46,3904,-6157,3933,-1,0,0
-161.89,28.19,-57.46,3893,-6164,3927,-1,-1,0
-161.89,28.19,-57.48,3901,-6167,3932,-1,-1,0
-161.90,28.19,-57.48,3899,-6171,3925,-1,0,0
-161.89,28.19,-57.48,3901,-6173,3919,-1,0,-1
-161.89,28.18,-57.48,3901,-6174,3916,-1,-1,-1
-161.89,28.18,-57.48,3906,-6175,3920,0,0,-1
-161.89,28.18,-57.49,3902,-6169,3918,-1,0,0
-161.89,28.18,-57.49,3912,-6166,3917,-1,0,0
-161.89,28.18,-57.49,3915,-6165,3923,-1,0,0
-161.89,28.17,-57.49,3910,-6167,3933,-1,0,0
-161.90,28.16,-57.49,3904,-6164,3934,-1,0,0
-161.90,28.16,-57.49,3896,-6162,3933,-1,0,0
-161.90,28.15,-57.49,3897,-6164,3931,-1,-1,0
-161.90,28.15,-57.50,3896,-6170,3930,-1,-1,0
-161.90,28.15,-57.50,3900,-6173,3930,-1,0,-1
-161.89,28.15,-57.50,3903,-6174,3924,0,0,-1
-161.90,28.15,-57.50,3900,-6162,3925,0,0,0
-161.90,28.15,-57.50,3902,-6170,3917,0,0,-1
-161.90,28.14,-57.50,3907,-6174,3919,0,0,0
-161.90,28.14,-57.49,3913,-6175,3925,0,0,-1
-161.90,28.14,-57.47,3908,-6168,3944,0,0,0
-161.91,28.13,-57.47,3898,-6160,3936,-1,0,-1
-161.91,28.13,-57.47,3896,-6157,3941,-1,0,-1
-161.90,28.14,-57.47,3904,-6159,3939,-1,-1,-1
-161.90,28.14,-57.48,3907,-6158,3936,-1,0,0
-161.90,28.14,-57.49,3904,-6151,3925,-1,-1,0
-161.90,28.13,-57.50,3901,-6162,3914,-1,0,0
-161.90,28.12,-57.51,3898,-6170,3920,-1,0,0
-161.90,28.12,-57.51,3893,-6182,3919,-1,0,0
-161.90,28.11,-57.51,3897,-6181,3930,-1,0,0
-161.91,28.11,-57.51,3895,-6183,3928,0,0,0
-161.91,28.10,-57.51,3892,-6179,3920,0,0,-1
-161.91,28.11,-57.51,3899,-6181,3920,0,0,0
-161.91,28.10,-57.51,3898,-6172,3923,0,0,0
-161.92,28.09,-57.50,3894,-6171,3930,0,0,0
-161.92,28.09,-57.50,3887,-6171,3935,0,0,0
-161.92,28.09,-57.49,3889,-6167,3930,0,0,0
-161.92,28.08,-57.49,3887,-6177,3938,-1,0,0
-161.93,28.07,-57.49,3888,-6166,3945,-1,0,-1
-161.93,28.07,-57.51,3891,-6168,3922,-1,0,0
-161.93,28.07,-57.51,3893,-6167,3924,-1,-1,0
-161.92,28.07,-57.52,3898,-6167,3921,-1,0,0
-161.92,28.07,-57.52,3902,-6183,3910,-1,-1,0
-161.92,28.07,-57.53,3903,-6179,3916,-1,0,0
-161.92,28.06,-57.53,3887,-6183,3913,-1,0,0
-161.93,28.05,-57.54,3886,-6185,3915,-1,0,0
-161.93,28.05,-57.53,3886,-6182,3916,-1,0,0
-161.93,28.04,-57.53,3879,-6178,3927,0,0,0
-161.94,28.04,-57.53,3885,-6173,3927,0,0,-1
-161.94,28.04,-57.53,3882,-6174,3929,-1,0,0
-161.94,28.03,-57.52,3884,-6180,3928,-1,0,0
-161.94,28.03,-57.53,3885,-6188,3930,-1,0,-1
-161.94,28.02,-57.52,3883,-6185,3928,-1,0,-1
-161.94,28.02,-57.52,3884,-6178,3927,-1,0,0
-161.94,28.02,-57.53,3873,-6171,3922,-1,0,0
-161.94,28.01,-57.54,3880,-6177,3922,-1,0,0
-161.95,28.00,-57.54,3879,-6174,3933,-1,0,0
-161.95,28.00,-57.54,3873,-6182,3930,-1,0,0
-161.95,27.99,-57.55,3881,-6183,3926,-1,0,0
-161.95,27.99,-57.56,3880,-6187,3926,-1,0,0
-161.95,27.98,-57.56,3882,-6191,3920,-1,0,0
-161.95,27.98,-57.56,3879,-6189,3922,-1,0,-1
-161.96,27.97,-57.57,3873,-6190,3919,-1,0,0
-161.96,27.97,-57.57,3875,-6190,3918,-1,-1,-1
-161.96,27.97,-57.56,3886,-6187,3925,0,0,0
-161.96,27.97,-57.55,3887,-6191,3928,0,-1,-1
-161.96,27.97,-57.55,3885,-6176,3936,0,0,0
-161.97,27.96,-57.54,3886,-6175,3944,-1,-1,-1
-161.96,27.97,-57.55,3878,-6179,3939,-1,-1,-1
-161.96,27.97,-57.55,3881,-6174,3929,-1,-1,-1
-161.96,27.97,-57.56,3878,-6169,3935,-1,-1,0
-161.96,27.97,-57.56,3881,-6177,3926,-1,-1,0
-161.96,27.98,-57.57,3876,-6183,3921,-1,-1,-1
-161.96,27.98,-57.57,3875,-6181,3926,-1,-1,0
-161.96,27.98,-57.57,3880,-6194,3924,0,-1,-1
-161.96,27.98,-57.57,3886,-6193,3932,0,-1,-1
-161.97,27.98,-57.56,3873,-6189,3932,0,-1,-1
-161.97,27.99,-57.56,3869,-6180,3925,0,-1,-1
-161.96,28.00,-57.57,3880,-6183,3923,0,-1,-1
-161.96,28.01,-57.57,3891,-6192,3919,0,-1,-1
-161.96,28.01,-57.57,3900,-6191,3914,0,-1,-1
-161.96,28.02,-57.56,3890,-6187,3919,0,-1,-1
-161.96,28.02,-57.56,3885,-6180,3935,0,-1,-1
-161.96,28.03,-57.56,3878,-6181,3938,0,-1,-1
-161.97,28.03,-57.56,3878,-6179,3934,0,-1,-1
-161.96,28.04,-57.55,3878,-6180,3924,0,-1,-1
-161.96,28.04,-57.55,3888,-6177,3920,0,-1,-1
-161.96,28.05,-57.55,3895,-6171,3919,0,-1,-1
-161.96,28.06,-57.54,3903,-6176,3918,0,-1,-1
-161.96,28.07,-57.55,3899,-6176,3922,0,-1,0
-161.97,28.07,-57.54,3892,-6172,3930,0,-1,0
-161.97,28.06,-57.55,3895,-6180,3931,0,-1,0
-161.98,28.07,-57.54,3892,-6179,3922,0,-1,0
-161.98,28.07,-57.54,3890,-6182,3928,0,-1,-1
-161.97,28.08,-57.55,3898,-6183,3921,0,-1,-1
-161.97,28.09,-57.54,3891,-6182,3912,0,-1,-1
-161.97,28.10,-57.54,3906,-6182,3923,0,-1,-1
-161.97,28.10,-57.54,3906,-6179,3933,0,-1,0
-161.97,28.10,-57.54,3892,-6180,3929,0,-1,-1
-161.98,28.10,-57.53,3890,-6171,3932,0,-1,-1
-161.98,28.10,-57.52,3901,-6164,3933,0,-1,0
-161.98,28.11,-57.51,3893,-6162,3939,0,-1,-1
-161.98,28.12,-57.52,3889,-6161,3937,0,-1,0
-161.99,28.12,-57.52,3896,-6171,3936,0,-1,0
-161.99,28.12,-57.51,3898,-6175,3931,0,-1,-1
-161.99,28.12,-57.52,3901,-6181,3927,0,-1,-1
-161.99,28.13,-57.51,3900,-6186,3934,0,-1,0
-161.99,28.13,-57.51,3897,-6187,3919,0,-1,-1
-162.00,28.13,-57.52,3903,-6182,3925,0,-1,-1
-161.99,28.14,-57.51,3905,-6174,3917,0,-1,-1
-161.99,28.14,-57.50,3905,-6172,3919,0,-1,-1
-162.00,28.14,-57.49,3897,-6171,3940,0,-1,0
-162.01,28.14,-57.49,3895,-6167,3931,0,-1,-1
-162.01,28.15,-57.48,3895,-6165,3924,0,-1,-1
-162.01,28.14,-57.48,3899,-6159,3940,0,-1,0
-162.01,28.15,-57.48,3898,-6157,3945,-1,-1,0
-162.02,28.15,-57.48,3904,-6165,3939,-1,-1,-1
-162.01,28.15,-57.49,3905,-6171,3927,0,-1,0
-162.01,28.15,-57.50,3906,-6170,3924,0,-1,0
-162.01,28.15,-57.50,3905,-6176,3924,0,-1,0
-162.01,28.16,-57.50,3908,-6176,3921,0,-1,-1
-162.01,28.16,-57.49,3906,-6171,3922,0,-1,-1
-162.02,28.16,-57.49,3910,-6169,3925,0,-1,-1
-162.02,28.17,-57.48,3909,-6169,3932,0,-1,-1
-162.02,28.17,-57.47,3904,-6162,3934,0,-1,-1
-162.02,28.17,-57.48,3901,-6157,3932,0,-1,0
-162.02,28.18,-57.48,3909,-6155,3917,0,-1,0
-162.02,28.18,-57.47,3907,-6157,3916,0,-1,0
-162.02,28.18,-57.48,3921,-6161,3925,0,-1,-1
-162.02,28.19,-57.47,3913,-6159,3932,0,-1,0
-162.03,28.19,-57.47,3909,-6169,3925,0,-1,-1
-162.02,28.19,-57.47,3915,-6164,3917,0,-1,-1
-162.02,28.20,-57.47,3915,-6162,3922,0,-1,-1
-162.03,28.20,-57.46,3916,-6154,3935,0,-1,0
-162.02,28.20,-57.47,3921,-6154,3918,0,-1,0
-162.03,28.21,-57.46,3920,-6159,3923,0,-1,0
-162.03,28.21,-57.45,3906,-6157,3931,0,-1,0
-162.04,28.21,-57.45,3908,-6168,3937,0,-1,-1
-162.04,28.21,-57.45,3905,-6166,3936,0,-1,-1
-162.05,28.21,-57.44,3903,-6172,3935,0,-1,0
-162.04,28.21,-57.45,3907,-6165,3931,0,-1,0
-162.05,28.21,-57.45,3903,-6167,3935,0,-1,0
-162.05,28.21,-57.44,3908,-6162,3929,0,-1,0
-162.06,28.21,-57.44,3906,-6159,3932,0,-1,0
-162.06,28.21,-57.45,3902,-6163,3926,0,-1,0
-162.07,28.21,-57.45,3904,-6159,3929,0,-1,-1
-162.06,28.22,-57.44,3910,-6167,3925,0,-1,-1
-162.07,28.22,-57.45,3907,-6166,3911,0,-1,-1
-162.07,28.22,-57.44,3906,-6154,3927,0,-1,0
-162.07,28.22,-57.43,3909,-6151,3928,0,-1,0
-162.07,28.23,-57.44,3913,-6155,3929,0,-1,0
-162.08,28.22,-57.43,3917,-6152,3933,0,-1,0
-162.09,28.22,-57.43,3907,-6154,3926,0,-1,0
-162.10,28.22,-57.44,3907,-6154,3923,0,-1,0
-162.09,28.23,-57.44,3915,-6156,3918,0,-1,0
-162.10,28.23,-57.43,3916,-6156,3919,0,-1,0
-162.10,28.23,-57.44,3915,-6164,3920,0,-1,0
-162.10,28.24,-57.43,3915,-6159,3919,0,-1,0
-162.11,28.23,-57.43,3913,-6163,3918,0,-1,0
-162.12,28.24,-57.41,3919,-6152,3930,0,-1,0
-162.12,28.23,-57.40,3920,-6154,3935,0,-1,-1
-162.13,28.24,-57.39,3918,-6157,3936,0,-1,0
-162.13,28.24,-57.39,3933,-6162,3948,0,-1,-1
-162.13,28.25,-57.37,3917,-6153,3950,0,-1,0
-162.14,28.25,-57.38,3911,-6150,3931,0,-1,-1
-162.14,28.25,-57.38,3911,-6153,3927,0,-1,0
-162.13,28.26,-57.38,3917,-6155,3913,0,-1,0
-162.14,28.26,-57.39,3920,-6155,3928,0,-1,0
-162.14,28.26,-57.40,3919,-6160,3922,-1,-1,0
-162.14,28.26,-57.40,3922,-6166,3928,0,-1,0
-162.15,28.26,-57.39,3913,-6157,3935,0,-1,0
-162.16,28.26,-57.39,3919,-6165,3932,0,-1,-1
-162.16,28.26,-57.39,3910,-6165,3934,0,-1,-1
-162.16,28.26,-57.38,3915,-6160,3941,0,-1,-1
-162.16,28.26,-57.38,3914,-6158,3931,0,-1,0
-162.17,28.27,-57.38,3922,-6153,3932,0,-1,0
-162.17,28.27,-57.37,3920,-6144,3943,0,-1,0
-162.17,28.27,-57.37,3923,-6135,3939,-1,-1,0
-162.17,28.27,-57.38,3917,-6142,3935,-1,0,0
-162.17,28.26,-57.38,3909,-6148,3937,-1,0,-1
-162.17,28.26,-57.39,3912,-6150,3940,-1,0,-1
-162.16,28.25,-57.40,3912,-6153,3941,-1,0,-1
-162.16,28.25,-57.40,3909,-6157,3933,-1,0,-1
-162.17,28.25,-57.40,3911,-6157,3930,-1,0,0
-162.16,28.25,-57.41,3918,-6154,3928,-1,0,0
-162.16,28.24,-57.41,3908,-6154,3937,-1,0,0
-162.16,28.24,-57.41,3910,-6159,3932,-1,0,0
-162.16,28.23,-57.42,3914,-6167,3930,-1,0,-1
-162.16,28.23,-57.42,3903,-6169,3927,-1,0,-1
-162.16,28.23,-57.42,3909,-6164,3928,-1,0,-1
-162.16,28.23,-57.42,3906,-6160,3931,-1,0,-1
-162.16,28.22,-57.42,3917,-6156,3922,-1,0,0
-162.16,28.22,-57.43,3917,-6170,3933,-1,0,-1
-162.16,28.22,-57.43,3909,-6163,3943,-1,0,0
-162.17,28.21,-57.43,3904,-6161,3927,-1,0,0
-162.16,28.21,-57.44,3909,-6162,3921,-1,0,-1
-162.16,28.21,-57.44,3902,-6162,3924,-1,0,-1
-162.16,28.21,-57.43,3905,-6158,3927,-1,0,-1
-162.15,28.21,-57.44,3907,-6161,3924,-1,0,-1
-162.15,28.21,-57.44,3916,-6170,3916,-1,0,-1
-162.15,28.21,-57.44,3923,-6170,3920,0,0,-1
-162.15,28.21,-57.44,3925,-6171,3931,0,0,-1
-162.16,28.20,-57.43,3923,-6159,3940,-1,0,-1
-162.15,28.20,-57.43,3920,-6160,3947,-1,0,-1
-162.15,28.20,-57.43,3906,-6159,3937,-1,0,0
-162.16,28.19,-57.44,3908,-6157,3923,-1,0,0
-162.15,28.19,-57.45,3902,-6164,3920,-1,0,0
-162.15,28.18,-57.46,3903,-6167,3930,-1,0,0
-162.15,28.18,-57.46,3908,-6167,3928,-1,-1,0
-162.15,28.18,-57.47,3904,-6169,3930,-1,0,0
-162.15,28.18,-57.47,3902,-6174,3917,0,0,0
-162.15,28.18,-57.47,3900,-6175,3918,0,0,-1
-162.16,28.17,-57.46,3898,-6174,3923,0,0,-1
-162.16,28.17,-57.45,3904,-6173,3934,0,0,-1
-162.16,28.17,-57.44,3901,-6169,3936,0,0,-1
-162.17,28.16,-57.44,3901,-6165,3939,0,0,0
-162.17,28.16,-57.44,3900,-6161,3939,-1,0,0
-162.16,28.16,-57.44,3895,-6154,3929,-1,-1,0
-162.16,28.16,-57.45,3911,-6158,3943,-1,0,0
-162.17,28.15,-57.45,3904,-6161,3948,-1,0,0
-162.16,28.15,-57.47,3893,-6164,3936,-1,-1,0
-162.16,28.15,-57.48,3894,-6165,3932,-1,-1,-1
-162.15,28.15,-57.48,3909,-6172,3928,-1,0,-1
-162.16,28.14,-57.48,3907,-6175,3930,-1,0,0
-162.16,28.14,-57.48,3907,-6175,3935,0,0,-1
-162.16,28.14,-57.48,3902,-6179,3931,0,0,0
-162.17,28.12,-57.47,3895,-6178,3940,0,0,0
-162.18,28.12,-57.46,3893,-6175,3939,0,0,-1
-162.17,28.11,-57.45,3894,-6165,3944,-1,0,-1
-162.18,28.11,-57.45,3896,-6167,3943,-1,0,-1
-162.17,28.11,-57.45,3904,-6168,3937,-1,0,-1
-162.17,28.11,-57.46,3900,-6165,3940,-1,0,0
-162.17,28.10,-57.46,3902,-6166,3942,-1,0,0
-162.18,28.10,-57.46,3896,-6164,3932,-1,0,0
-162.17,28.10,-57.47,3899,-6167,3928,-1,0,0
-162.17,28.09,-57.46,3900,-6172,3932,-1,0,0
-162.17,28.09,-57.47,3894,-6170,3938,-1,0,0
-162.17,28.08,-57.48,3896,-6171,3934,-1,0,0
-162.16,28.09,-57.48,3896,-6169,3923,-1,0,-1
-162.17,28.08,-57.49,3902,-6177,3933,-1,0,-1
-162.16,28.08,-57.48,3906,-6175,3926,-1,0,-1
-162.17,28.08,-57.48,3914,-6180,3925,0,0,0
-162.17,28.07,-57.48,3901,-6174,3931,-1,0,0
-162.17,28.07,-57.48,3891,-6179,3929,-1,0,0
-162.17,28.06,-57.49,3892,-6176,3928,-1,0,0
-162.17,28.05,-57.48,3898,-6170,3935,-1,0,0
-162.17,28.05,-57.49,3893,-6178,3937,-1,0,0
-162.17,28.04,-57.49,3890,-6174,3929,-1,0,0
-162.17,28.04,-57.50,3888,-6179,3924,-1,0,-1
-162.17,28.04,-57.51,3893,-6178,3922,-1,0,0
-162.17,28.04,-57.51,3895,-6179,3930,-1,0,0
-162.16,28.04,-57.50,3898,-6179,3933,-1,0,-1
-162.16,28.04,-57.51,3902,-6181,3924,-1,0,0
-162.17,28.03,-57.51,3896,-6174,3935,-1,0,-1
-162.17,28.02,-57.51,3898,-6172,3927,-1,0,0
-162.16,28.03,-57.51,3894,-6176,3935,-1,0,0
-162.17,28.02,-57.52,3895,-6173,3932,-1,0,0
-162.17,28.02,-57.52,3895,-6173,3928,-1,0,0
-162.17,28.01,-57.52,3893,-6175,3924,-1,0,0
-162.17,28.00,-57.53,3884,-6179,3925,-1,0,0
-162.17,28.00,-57.53,3883,-6179,3928,-1,0,0
-162.18,28.00,-57.53,3873,-6179,3922,-1,0,0
-162.18,28.00,-57.53,3883,-6180,3925,-1,0,-1
-162.17,28.00,-57.52,3884,-6181,3926,0,0,0
-162.18,27.99,-57.52,3889,-6192,3923,0,0,-1
-162.18,27.99,-57.51,3891,-6186,3943,0,0,-1
-162.19,27.98,-57.50,3882,-6170,3941,-1,0,-1
-162.19,27.98,-57.50,3882,-6175,3931,-1,0,-1
-162.19,27.98,-57.50,3879,-6174,3931,-1,0,-1
-162.19,27.98,-57.50,3881,-6165,3936,-1,-1,0
-162.18,27.98,-57.51,3878,-6161,3938,-1,-1,0
-162.19,27.98,-57.52,3883,-6169,3932,-1,-1,0
-162.18,27.98,-57.53,3881,-6172,3927,-1,-1,0
-162.18,27.98,-57.54,3888,-6180,3922,-1,-1,0
-162.18,27.98,-57.54,3882,-6185,3928,-1,-1,0
-162.18,27.98,-57.54,3880,-6190,3928,0,-1,-1
-162.18,27.98,-57.54,3882,-6188,3923,0,-1,-1
-162.18,27.99,-57.53,3879,-6188,3930,0,-1,-1
-162.18,27.99,-57.52,3884,-6185,3938,0,-1,-1
-162.18,27.99,-57.51,3885,-6181,3936,0,-1,-1
-162.19,28.00,-57.51,3889,-6175,3940,0,-1,-1
-162.18,28.00,-57.50,3891,-6172,3942,0,-1,0
-162.19,28.00,-57.51,3883,-6167,3940,-1,-1,0
-162.19,28.01,-57.51,3876,-6173,3937,0,-1,-1
-162.19,28.01,-57.51,3874,-6177,3934,0,-1,-1
-162.18,28.01,-57.51,3881,-6178,3933,-1,-1,-1
-162.18,28.02,-57.52,3885,-6175,3935,0,-1,-1
-162.18,28.03,-57.53,3894,-6178,3922,-1,-1,-1
-162.18,28.03,-57.53,3895,-6174,3918,0,-1,0
-162.18,28.04,-57.53,3905,-6176,3925,0,-1,0
-162.18,28.04,-57.51,3891,-6178,3929,0,-1,0
-162.19,28.04,-57.51,3876,-6174,3924,0,-1,-1
