Yaw,Pitch,Roll,AX,AY,AZ,GX,GY,GZ
-167.26,26.42,-59.51,3696,-6389,3776,-1,0,-1
-167.26,26.42,-59.52,3704,-6390,3786,-1,0,0
-167.25,26.42,-59.52,3701,-6391,3777,-1,0,-1
-167.25,26.41,-59.53,3698,-6396,3777,-1,0,0
-167.24,26.40,-59.53,3704,-6392,3773,-1,0,-1
-167.23,26.40,-59.54,3697,-6397,3763,-1,0,-1
-167.22,26.39,-59.56,3693,-6396,3751,-1,0,-1
-167.21,26.40,-59.56,3697,-6396,3749,-1,0,-1
-167.20,26.39,-59.56,3694,-6400,3751,-1,0,0
-167.21,26.38,-59.55,3695,-6393,3764,-1,0,-1
-167.20,26.38,-59.57,3698,-6397,3760,-1,0,0
-167.20,26.36,-59.57,3685,-6395,3765,-1,0,0
-167.20,26.35,-59.58,3681,-6402,3766,-1,0,0
-167.19,26.34,-59.59,3675,-6405,3759,-1,0,-1
-167.19,26.34,-59.60,3679,-6409,3753,-1,0,-1
-167.18,26.34,-59.61,3692,-6419,3749,-1,0,-1
-167.17,26.34,-59.61,3696,-6409,3761,-1,0,-1
-167.16,26.34,-59.61,3705,-6402,3767,-1,0,0
-167.16,26.33,-59.62,3697,-6393,3773,-1,0,0
-167.15,26.32,-59.63,3688,-6391,3773,-1,0,0
-167.15,26.31,-59.64,3686,-6401,3764,-1,0,-1
-167.14,26.30,-59.66,3681,-6410,3750,-1,0,0
-167.14,26.30,-59.66,3676,-6416,3752,-1,0,0
-167.13,26.29,-59.68,3683,-6407,3754,-1,0,0
-167.12,26.29,-59.69,3684,-6422,3741,-1,0,-1
-167.12,26.28,-59.70,3679,-6424,3732,-1,0,0
-167.12,26.26,-59.69,3658,-6412,3732,-1,0,-1
-167.11,26.26,-59.69,3657,-6404,3727,-1,0,-1
-167.11,26.25,-59.70,3664,-6412,3735,-1,0,-1
-167.11,26.25,-59.69,3675,-6416,3743,-1,0,-1
-167.11,26.24,-59.69,3686,-6420,3755,-1,0,0
-167.11,26.23,-59.69,3678,-6413,3752,-1,0,0
-167.11,26.22,-59.69,3666,-6403,3755,-1,0,0
-167.11,26.21,-59.70,3664,-6402,3765,-1,0,0
-167.11,26.20,-59.71,3657,-6401,3761,-1,0,0
-167.10,26.20,-59.73,3651,-6417,3748,-1,0,0
-167.10,26.19,-59.74,3658,-6430,3738,-1,0,-1
-167.09,26.19,-59.76,3664,-6443,3738,-1,0,0
-167.08,26.18,-59.76,3667,-6450,3736,-1,0,-1
-167.09,26.18,-59.75,3668,-6435,3745,-1,0,0
-167.09,26.17,-59.75,3670,-6434,3743,-1,0,0
-167.09,26.16,-59.74,3665,-6413,3751,0,0,0
-167.10,26.15,-59.74,3652,-6411,3761,-1,0,-1
-167.09,26.15,-59.74,3652,-6408,3750,-1,0,0
-167.09,26.15,-59.75,3661,-6412,3754,-1,-1,-1
-167.08,26.16,-59.75,3666,-6423,3748,-1,-1,0
-167.08,26.15,-59.76,3673,-6422,3752,-1,-1,0
-167.08,26.15,-59.76,3659,-6419,3760,-1,-1,0
-167.08,26.15,-59.77,3650,-6416,3753,-1,-1,-1
-167.07,26.16,-59.78,3648,-6425,3736,-1,-1,-1
-167.07,26.16,-59.78,3661,-6429,3734,0,-1,-1
-167.07,26.17,-59.77,3668,-6416,3733,0,-1,-1
-167.07,26.18,-59.76,3682,-6422,3742,0,-1,-1
-167.07,26.18,-59.75,3682,-6423,3742,0,-1,0
-167.07,26.18,-59.74,3670,-6417,3745,0,-1,0
-167.08,26.18,-59.74,3654,-6424,3743,0,-1,0
-167.08,26.19,-59.73,3643,-6417,3742,0,-1,-1
-167.07,26.19,-59.74,3653,-6427,3738,0,-1,-1
-167.06,26.21,-59.73,3668,-6424,3754,0,-1,-1
-167.06,26.23,-59.72,3680,-6412,3761,0,-1,-1
-167.06,26.23,-59.72,3682,-6406,3755,0,-1,-1
-167.05,26.24,-59.73,3681,-6400,3744,-1,-1,0
-167.05,26.25,-59.73,3682,-6401,3742,0,-1,0
-167.05,26.24,-59.73,3671,-6402,3735,-1,-1,0
-167.06,26.25,-59.74,3673,-6420,3733,0,-1,0
-167.05,26.26,-59.75,3681,-6432,3738,0,-1,-1
-167.06,26.26,-59.74,3681,-6430,3737,0,-1,-1
-167.06,26.26,-59.74,3668,-6428,3730,0,-1,-1
-167.05,26.27,-59.73,3669,-6422,3731,0,-1,-1
-167.05,26.28,-59.73,3672,-6416,3737,0,-1,-1
-167.05,26.29,-59.73,3681,-6419,3748,0,-1,-1
-167.05,26.29,-59.72,3681,-6419,3756,0,-1,-1
-167.06,26.30,-59.71,3684,-6424,3756,0,-1,-1
-167.06,26.30,-59.70,3683,-6420,3762,0,-1,-1
-167.06,26.31,-59.69,3685,-6414,3765,0,-1,-1
-167.06,26.31,-59.69,3686,-6406,3766,0,-1,0
-167.06,26.31,-59.69,3673,-6399,3759,-1,-1,-1
-167.06,26.31,-59.70,3682,-6406,3746,-1,-1,-1
-167.05,26.32,-59.70,3679,-6407,3731,-1,-1,0
-167.05,26.33,-59.72,3682,-6418,3723,0,-1,-1
-167.04,26.34,-59.72,3688,-6421,3724,0,-1,-1
-167.04,26.35,-59.72,3695,-6424,3722,0,-1,-1
-167.04,26.34,-59.71,3695,-6430,3730,0,0,-1
-167.05,26.35,-59.71,3685,-6420,3740,0,0,-1
-167.05,26.35,-59.70,3683,-6411,3743,0,0,-1
-167.05,26.35,-59.69,3674,-6401,3745,0,-1,-1
-167.05,26.35,-59.68,3681,-6394,3753,0,-1,0
-167.06,26.35,-59.68,3686,-6399,3750,0,-1,0
-167.05,26.36,-59.69,3689,-6406,3748,0,-1,0
-167.05,26.36,-59.69,3693,-6407,3748,0,-1,-1
-167.05,26.37,-59.69,3704,-6407,3746,0,-1,-1
-167.05,26.37,-59.69,3698,-6410,3754,0,-1,0
-167.05,26.37,-59.69,3686,-6403,3751,-1,0,0
-167.05,26.37,-59.69,3683,-6402,3747,-1,-1,-1
-167.04,26.38,-59.70,3687,-6397,3739,-1,-1,-1
-167.04,26.39,-59.70,3696,-6406,3738,0,-1,-1
-167.04,26.40,-59.69,3708,-6403,3755,0,-1,0
-167.05,26.39,-59.69,3710,-6409,3755,0,-1,-1
-167.04,26.40,-59.68,3711,-6404,3759,0,-1,0
-167.05,26.39,-59.68,3687,-6401,3747,0,0,0
-167.05,26.39,-59.68,3683,-6402,3746,0,-1,-1
-167.05,26.40,-59.68,3679,-6407,3738,0,-1,-1
-167.05,26.41,-59.67,3683,-6411,3747,0,-1,-1
-167.05,26.41,-59.66,3703,-6413,3753,0,-1,-1
-167.05,26.42,-59.65,3716,-6409,3759,0,-1,-1
-167.05,26.41,-59.65,3709,-6401,3765,0,0,0
-167.05,26.42,-59.64,3697,-6390,3767,-1,0,0
-167.05,26.42,-59.64,3692,-6377,3758,-1,-1,0
-167.06,26.41,-59.65,3681,-6377,3752,-1,-1,0
-167.05,26.42,-59.65,3681,-6399,3752,-1,-1,0
-167.06,26.41,-59.65,3689,-6412,3753,0,-1,0
-167.06,26.41,-59.65,3692,-6410,3748,0,-1,0
-167.06,26.42,-59.66,3695,-6409,3739,0,-1,-1
-167.06,26.42,-59.65,3688,-6402,3739,0,-1,-1
-167.06,26.42,-59.65,3694,-6403,3739,0,-1,-1
-167.06,26.43,-59.65,3696,-6405,3733,0,-1,0
-167.06,26.42,-59.64,3702,-6405,3740,0,-1,0
-167.07,26.43,-59.63,3703,-6404,3746,0,0,0
-167.07,26.42,-59.62,3702,-6404,3759,0,0,0
-167.08,26.42,-59.61,3697,-6394,3781,0,0,0
-167.09,26.42,-59.60,3689,-6393,3781,0,-1,-1
-167.09,26.42,-59.60,3689,-6387,3763,-1,-1,0
-167.08,26.42,-59.61,3684,-6381,3758,-1,-1,0
-167.08,26.43,-59.62,3687,-6390,3747,-1,-1,-1
-167.08,26.44,-59.62,3699,-6400,3740,0,-1,-1
-167.08,26.44,-59.62,3691,-6405,3736,0,-1,-1
-167.08,26.44,-59.62,3702,-6402,3750,0,-1,0
-167.09,26.44,-59.61,3704,-6402,3758,0,0,-1
-167.09,26.44,-59.60,3699,-6405,3747,0,0,0
-167.10,26.43,-59.59,3704,-6409,3751,0,0,-1
-167.11,26.43,-59.57,3687,-6391,3753,0,0,0
-167.12,26.43,-59.56,3678,-6384,3761,0,-1,-1
-167.11,26.44,-59.56,3688,-6383,3760,0,-1,-1
-167.12,26.44,-59.55,3697,-6393,3774,0,-1,-1
-167.12,26.44,-59.55,3701,-6390,3764,0,-1,0
-167.12,26.44,-59.55,3701,-6388,3759,0,-1,0
-167.12,26.44,-59.55,3703,-6401,3760,0,-1,0
-167.13,26.44,-59.54,3701,-6392,3762,0,-1,0
-167.14,26.44,-59.53,3697,-6401,3761,0,-1,0
-167.14,26.44,-59.52,3698,-6404,3757,0,-1,0
-167.15,26.44,-59.52,3697,-6397,3760,0,-1,-1
-167.15,26.44,-59.51,3701,-6392,3757,0,-1,-1
-167.16,26.44,-59.50,3701,-6393,3763,0,-1,0
-167.17,26.45,-59.49,3702,-6393,3769,0,-1,0
-167.18,26.45,-59.48,3698,-6390,3766,0,-1,-1
-167.18,26.46,-59.47,3710,-6392,3756,0,-1,0
-167.18,26.46,-59.46,3715,-6389,3762,0,-1,0
-167.19,26.46,-59.45,3707,-6385,3769,0,-1,0
-167.20,26.46,-59.44,3698,-6382,3770,0,-1,0
-167.21,26.46,-59.44,3694,-6384,3760,0,-1,-1
-167.21,26.47,-59.43,3695,-6386,3766,0,-1,-1
-167.21,26.48,-59.42,3696,-6376,3773,0,-1,-1
-167.21,26.48,-59.41,3708,-6376,3785,0,-1,-1
-167.21,26.48,-59.41,3716,-6378,3782,0,-1,0
-167.23,26.48,-59.39,3701,-6376,3782,0,-1,0
-167.24,26.47,-59.39,3685,-6381,3779,0,-1,0
-167.25,26.47,-59.38,3695,-6391,3774,0,-1,-1
-167.25,26.48,-59.37,3687,-6394,3781,0,-1,-1
-167.25,26.48,-59.36,3689,-6396,3782,0,-1,-1
-167.25,26.49,-59.35,3708,-6378,3784,0,-1,-1
-167.25,26.50,-59.34,3720,-6364,3792,0,-1,-1
-167.25,26.50,-59.32,3718,-6346,3797,0,-1,0
-167.24,26.51,-59.34,3718,-6343,3782,-1,-1,0
-167.24,26.51,-59.34,3712,-6356,3776,-1,-1,0
-167.25,26.50,-59.35,3711,-6365,3778,-1,-1,0
-167.24,26.50,-59.36,3711,-6384,3786,-1,0,0
-167.25,26.49,-59.37,3706,-6390,3784,-1,0,0
-167.24,26.49,-59.37,3703,-6381,3786,-1,0,-1
-167.23,26.49,-59.38,3700,-6383,3780,-1,0,-1
-167.23,26.49,-59.39,3697,-6377,3776,-1,0,-1
-167.22,26.48,-59.40,3696,-6377,3768,-1,0,-1
-167.22,26.48,-59.41,3701,-6369,3766,-1,0,0
-167.21,26.48,-59.41,3709,-6377,3769,-1,0,-1
-167.21,26.48,-59.41,3712,-6383,3782,-1,0,-1
-167.21,26.47,-59.41,3711,-6378,3788,-1,0,-1
-167.20,26.47,-59.42,3709,-6379,3783,-1,0,-1
-167.19,26.46,-59.43,3698,-6375,3776,-1,0,0
-167.19,26.45,-59.43,3686,-6365,3775,-1,0,0
-167.17,26.46,-59.46,3700,-6365,3763,-1,0,-1
-167.16,26.46,-59.47,3698,-6385,3765,-1,0,-1
-167.15,26.46,-59.49,3699,-6388,3757,-1,0,0
-167.15,26.45,-59.49,3702,-6404,3750,-1,0,-1
-167.15,26.44,-59.49,3709,-6412,3770,-1,0,-1
-167.14,26.44,-59.49,3695,-6409,3759,-1,0,-1
-167.14,26.43,-59.48,3696,-6398,3764,-1,0,-1
-167.14,26.42,-59.48,3696,-6386,3776,-1,0,-1
-167.14,26.42,-59.48,3697,-6382,3771,-1,0,-1
-167.13,26.42,-59.49,3699,-6386,3768,-1,0,0
-167.12,26.42,-59.49,3699,-6392,3774,-1,0,0
-167.12,26.41,-59.50,3688,-6389,3768,-1,0,0
-167.12,26.40,-59.51,3692,-6395,3773,-1,0,0
-167.12,26.39,-59.52,3685,-6399,3771,-1,0,0
-167.10,26.39,-59.53,3692,-6404,3765,-1,0,-1
-167.10,26.39,-59.53,3706,-6406,3768,-1,0,-1
-167.09,26.38,-59.53,3702,-6406,3751,-1,0,0
-167.09,26.37,-59.54,3694,-6399,3751,-1,0,0
-167.09,26.36,-59.54,3692,-6396,3754,-1,0,0
-167.09,26.36,-59.54,3692,-6388,3767,-1,0,0
-167.08,26.35,-59.55,3689,-6392,3764,-1,0,-1
-167.07,26.35,-59.55,3696,-6404,3768,-1,0,-1
-167.08,26.34,-59.56,3678,-6402,3777,-1,0,0
-167.07,26.33,-59.56,3679,-6397,3768,-1,0,0
-167.06,26.33,-59.58,3675,-6396,3763,-1,0,0
-167.05,26.32,-59.60,3675,-6399,3756,-1,0,-1
-167.04,26.32,-59.60,3691,-6409,3745,-1,0,-1
-167.03,26.32,-59.61,3692,-6408,3752,-1,0,0
-167.03,26.31,-59.61,3686,-6416,3747,-1,0,-1
-167.03,26.30,-59.62,3688,-6418,3746,-1,0,0
-167.03,26.29,-59.62,3676,-6414,3757,-1,0,0
-167.04,26.27,-59.62,3668,-6405,3766,-1,0,0
-167.03,26.26,-59.62,3658,-6411,3753,-1,0,-1
-167.03,26.26,-59.63,3664,-6411,3756,-1,0,-1
-167.02,26.25,-59.63,3674,-6412,3765,-1,0,-1
-167.01,26.25,-59.62,3677,-6412,3769,-1,0,-1
-167.01,26.25,-59.63,3679,-6403,3774,-1,0,0
-167.01,26.24,-59.65,3673,-6399,3767,-1,0,0
-166.99,26.24,-59.66,3677,-6403,3764,-1,0,0
-166.99,26.23,-59.67,3671,-6407,3759,-1,0,0
-166.99,26.21,-59.68,3662,-6413,3756,-1,0,0
-166.99,26.20,-59.69,3663,-6418,3760,-1,0,0
-166.99,26.19,-59.70,3671,-6430,3759,-1,0,0
-166.99,26.19,-59.70,3673,-6432,3749,-1,0,0
-166.99,26.18,-59.70,3662,-6428,3759,-1,0,0
-166.99,26.17,-59.70,3659,-6427,3766,-1,0,0
-166.98,26.17,-59.70,3656,-6417,3757,-1,0,-1
-166.98,26.17,-59.71,3667,-6421,3743,-1,0,0
-166.98,26.16,-59.70,3673,-6428,3743,0,0,0
-166.98,26.16,-59.70,3674,-6424,3760,-1,0,0
-166.98,26.15,-59.69,3671,-6414,3767,-1,0,0
-166.98,26.15,-59.70,3659,-6408,3762,-1,0,0
-166.97,26.15,-59.71,3654,-6407,3761,-1,-1,0
-166.97,26.15,-59.72,3654,-6414,3750,-1,-1,-1
-166.96,26.16,-59.72,3659,-6420,3750,-1,-1,-1
-166.96,26.17,-59.74,3663,-6426,3735,0,-1,-1
-166.95,26.18,-59.74,3665,-6433,3733,0,-1,-1
-166.96,26.18,-59.73,3669,-6440,3748,0,-1,-1
-166.96,26.19,-59.73,3661,-6435,3753,0,-1,-1
-166.96,26.20,-59.71,3660,-6427,3751,0,-1,-1
-166.95,26.20,-59.71,3666,-6420,3751,0,-1,-1
-166.96,26.21,-59.70,3660,-6405,3745,0,-1,-1
-166.96,26.21,-59.70,3658,-6396,3746,0,-1,-1
-166.96,26.23,-59.70,3664,-6401,3754,-1,-1,-1
-166.95,26.23,-59.70,3669,-6422,3755,0,-1,-1
-166.96,26.24,-59.71,3666,-6429,3752,0,-1,-1
-166.95,26.25,-59.71,3663,-6425,3750,0,-1,-1
-166.95,26.26,-59.70,3671,-6416,3751,0,-1,-1
-166.95,26.26,-59.70,3674,-6410,3758,0,-1,-1
-166.95,26.27,-59.69,3675,-6409,3761,0,-1,0
-166.95,26.27,-59.70,3675,-6418,3742,0,-1,-1
-166.94,26.28,-59.70,3686,-6423,3739,0,-1,-1
-166.95,26.29,-59.69,3681,-6419,3733,0,-1,-1
-166.95,26.29,-59.69,3688,-6419,3735,0,-1,-1
-166.94,26.31,-59.69,3695,-6417,3738,0,-1,-1
-166.95,26.30,-59.68,3692,-6414,3751,0,-1,0
-166.94,26.31,-59.68,3679,-6404,3739,0,-1,0
-166.95,26.31,-59.68,3676,-6414,3734,0,-1,-1
-166.94,26.31,-59.69,3673,-6420,3735,0,-1,-1
-166.94,26.32,-59.67,3677,-6421,3743,0,-1,-1
-166.95,26.33,-59.67,3676,-6409,3760,0,-1,-1
-166.94,26.34,-59.66,3689,-6403,3763,0,-1,-1
-166.95,26.34,-59.65,3693,-6398,3769,0,-1,0
-166.95,26.34,-59.65,3683,-6395,3754,0,-1,0
-166.96,26.34,-59.65,3682,-6390,3754,-1,-1,0
-166.95,26.35,-59.66,3695,-6398,3749,-1,-1,0
-166.95,26.35,-59.66,3696,-6410,3745,0,-1,0
-166.94,26.36,-59.67,3698,-6416,3755,0,-1,0
-166.95,26.36,-59.66,3703,-6416,3757,0,-1,-1
-166.95,26.37,-59.65,3699,-6416,3751,0,-1,-1
-166.95,26.37,-59.66,3689,-6409,3753,0,-1,-1
-166.95,26.37,-59.65,3687,-6408,3742,0,-1,-1
-166.95,26.38,-59.65,3689,-6412,3750,0,-1,-1
-166.95,26.38,-59.64,3696,-6413,3744,0,0,0
-166.96,26.38,-59.63,3700,-6402,3755,0,-1,-1
-166.96,26.38,-59.62,3698,-6399,3765,0,-1,-1
-166.96,26.39,-59.62,3703,-6398,3760,0,-1,0
-166.97,26.38,-59.62,3692,-6393,3751,-1,-1,0
-166.97,26.39,-59.62,3692,-6395,3760,-1,-1,0
-166.96,26.39,-59.63,3677,-6387,3757,-1,-1,0
-166.96,26.39,-59.64,3670,-6405,3752,-1,-1,-1
-166.96,26.39,-59.64,3682,-6411,3750,0,-1,-1
-166.95,26.41,-59.64,3698,-6412,3741,0,-1,-1
-166.95,26.41,-59.63,3703,-6411,3742,0,0,-1
-166.96,26.41,-59.63,3707,-6406,3749,0,0,0
-166.96,26.41,-59.62,3699,-6400,3750,0,0,-1
-166.96,26.41,-59.61,3700,-6402,3750,0,0,-1
-166.97,26.41,-59.60,3696,-6397,3760,0,0,0
-166.97,26.41,-59.59,3683,-6393,3762,0,-1,0
-166.97,26.41,-59.59,3688,-6399,3756,-1,-1,-1
-166.97,26.42,-59.59,3693,-6404,3748,0,-1,-1
-166.96,26.42,-59.60,3698,-6401,3754,0,-1,-1
-166.97,26.42,-59.59,3699,-6401,3757,0,-1,0
-166.97,26.42,-59.59,3694,-6396,3752,0,-1,0
-166.97,26.42,-59.59,3689,-6400,3752,-1,0,0
-166.97,26.42,-59.60,3695,-6397,3753,-1,-1,0
-166.98,26.42,-59.60,3693,-6406,3753,0,-1,-1
-166.98,26.42,-59.59,3698,-6400,3758,0,-1,-1
-166.97,26.43,-59.58,3699,-6397,3755,0,-1,-1
-166.98,26.43,-59.57,3703,-6392,3757,0,0,-1
-166.98,26.43,-59.57,3706,-6387,3761,0,-1,0
-166.98,26.43,-59.57,3701,-6386,3758,0,0,0
-166.98,26.43,-59.57,3700,-6389,3751,0,-1,0
-166.98,26.43,-59.57,3695,-6403,3756,0,-1,-1
-166.98,26.44,-59.56,3697,-6408,3756,0,-1,-1
-166.98,26.44,-59.55,3705,-6408,3768,0,-1,-1
-166.98,26.45,-59.54,3712,-6405,3775,0,-1,-1
-166.99,26.45,-59.53,3715,-6394,3770,0,0,0
-166.99,26.45,-59.53,3705,-6387,3756,0,-1,0
-167.00,26.45,-59.52,3697,-6381,3766,0,0,0
-167.01,26.44,-59.52,3677,-6391,3762,-1,-1,0
-167.00,26.44,-59.53,3691,-6399,3762,0,-1,0
-167.00,26.45,-59.53,3700,-6403,3763,0,-1,0
-167.01,26.45,-59.52,3701,-6402,3765,0,0,0
-167.01,26.45,-59.52,3695,-6394,3760,0,-1,-1
-167.00,26.45,-59.52,3691,-6399,3756,0,-1,-1
-167.02,26.45,-59.50,3690,-6397,3756,0,0,0
-167.02,26.45,-59.50,3697,-6395,3757,0,-1,0
-167.03,26.45,-59.48,3700,-6389,3768,0,-1,0
-167.03,26.46,-59.47,3701,-6390,3769,0,-1,-1
-167.04,26.46,-59.45,3714,-6391,3765,0,-1,-1
-167.06,26.46,-59.43,3707,-6390,3794,0,-1,0
-167.07,26.46,-59.42,3708,-6377,3786,0,-1,0
-167.08,26.45,-59.42,3695,-6374,3783,0,-1,0
-167.07,26.46,-59.42,3696,-6371,3773,-1,-1,0
-167.07,26.47,-59.43,3697,-6380,3758,0,-1,0
-167.07,26.47,-59.43,3699,-6389,3757,0,-1,0
-167.08,26.47,-59.43,3706,-6390,3765,0,-1,0
-167.08,26.48,-59.42,3719,-6399,3766,0,-1,0
-167.09,26.48,-59.41,3710,-6397,3767,0,0,0
-167.10,26.48,-59.39,3703,-6396,3769,0,0,0
-167.12,26.47,-59.36,3691,-6381,3780,0,-1,-1
-167.12,26.48,-59.35,3696,-6376,3779,0,-1,0
-167.12,26.48,-59.35,3702,-6372,3782,0,-1,0
-167.13,26.49,-59.33,3706,-6371,3791,0,-1,0
-167.14,26.49,-59.33,3710,-6375,3787,0,-1,0
-167.14,26.50,-59.33,3710,-6372,3786,0,-1,0
-167.14,26.50,-59.33,3703,-6372,3782,0,-1,0
-167.15,26.50,-59.32,3702,-6372,3778,0,-1,0
-167.15,26.50,-59.32,3704,-6383,3775,0,-1,-1
-167.15,26.51,-59.31,3710,-6380,3784,0,0,-1
-167.15,26.51,-59.30,3709,-6375,3789,0,0,-1
-167.16,26.51,-59.29,3703,-6369,3790,0,0,0
-167.16,26.50,-59.29,3704,-6368,3792,0,-1,0
-167.16,26.51,-59.30,3709,-6373,3790,-1,-1,-1
-167.15,26.51,-59.30,3713,-6375,3782,-1,0,-1
-167.14,26.52,-59.30,3724,-6378,3787,-1,0,-1
-167.14,26.51,-59.31,3724,-6369,3796,-1,0,0
-167.14,26.50,-59.32,3718,-6378,3790,-1,0,0
-167.14,26.49,-59.34,3704,-6373,3781,-1,0,0
-167.13,26.48,-59.35,3694,-6377,3774,-1,0,0
-167.14,26.48,-59.36,3681,-6390,3776,-1,0,-1
-167.12,26.47,-59.36,3688,-6394,3785,-1,0,-1
-167.12,26.48,-59.36,3707,-6390,3790,-1,0,-1
-167.11,26.48,-59.35,3716,-6382,3799,-1,0,-1
-167.10,26.48,-59.36,3722,-6370,3793,-1,0,-1
-167.09,26.48,-59.36,3717,-6355,3790,-1,0,0
-167.08,26.47,-59.38,3709,-6354,3784,-1,0,0
-167.08,26.46,-59.39,3700,-6365,3778,-1,0,0
-167.07,26.46,-59.40,3703,-6379,3785,-1,0,0
-167.06,26.46,-59.43,3705,-6400,3771,-1,0,0
-167.05,26.44,-59.44,3693,-6403,3765,-1,0,-1
-167.05,26.44,-59.44,3689,-6403,3764,-1,0,-1
-167.04,26.44,-59.45,3692,-6394,3754,-1,0,-1
-167.03,26.44,-59.46,3691,-6387,3751,-1,0,-1
-167.03,26.43,-59.45,3703,-6395,3764,-1,0,0
-167.03,26.42,-59.45,3690,-6398,3767,-1,0,-1
-167.03,26.41,-59.45,3700,-6403,3769,-1,0,-1
-167.02,26.41,-59.45,3702,-6402,3781,-1,0,0
-167.03,26.40,-59.45,3699,-6394,3791,-1,0,-1
-167.02,26.39,-59.45,3691,-6381,3785,-1,0,0
-167.01,26.38,-59.46,3685,-6373,3770,-1,0,0
-167.00,26.38,-59.48,3681,-6377,3767,-1,0,0
-166.99,26.37,-59.50,3685,-6384,3755,-1,0,0
-166.99,26.37,-59.52,3696,-6398,3755,-1,0,0
-166.98,26.36,-59.54,3688,-6407,3750,-1,0,0
-166.97,26.36,-59.54,3698,-6420,3753,-1,0,-1
-166.97,26.35,-59.54,3696,-6413,3763,-1,0,0
-166.97,26.33,-59.53,3695,-6411,3769,-1,0,0
-166.97,26.33,-59.53,3678,-6407,3758,-1,0,-1
-166.96,26.32,-59.54,3673,-6399,3757,-1,0,-1
-166.96,26.31,-59.54,3676,-6392,3762,-1,0,0
-166.96,26.31,-59.54,3667,-6387,3773,-1,0,0
-166.96,26.30,-59.55,3666,-6395,3772,-1,0,0
-166.95,26.29,-59.57,3674,-6403,3768,-1,0,0
-166.95,26.28,-59.58,3672,-6403,3760,-1,0,0
-166.95,26.27,-59.59,3667,-6405,3762,-1,0,0
-166.93,26.27,-59.60,3669,-6412,3748,-1,0,-1
-166.93,26.26,-59.61,3680,-6420,3750,-1,0,-1
-166.93,26.25,-59.61,3681,-6413,3756,-1,0,0
-166.93,26.24,-59.61,3670,-6419,3755,-1,0,-1
-166.92,26.24,-59.61,3675,-6419,3757,-1,0,-1
-166.94,26.23,-59.60,3669,-6409,3764,-1,0,0
-166.93,26.22,-59.60,3663,-6400,3766,-1,0,0
-166.93,26.21,-59.61,3664,-6405,3772,-1,0,-1
-166.91,26.21,-59.62,3664,-6406,3758,-1,0,0
-166.91,26.20,-59.63,3662,-6403,3753,-1,0,-1
-166.91,26.20,-59.63,3680,-6400,3757,-1,0,0
-166.90,26.20,-59.64,3687,-6408,3759,-1,0,0
-166.90,26.18,-59.65,3685,-6414,3750,-1,0,0
-166.90,26.17,-59.66,3664,-6428,3753,-1,0,0
-166.90,26.16,-59.67,3656,-6424,3744,-1,0,0
-166.90,26.15,-59.67,3642,-6425,3739,-1,0,0
-166.90,26.14,-59.68,3645,-6418,3744,-1,0,-1
-166.90,26.14,-59.67,3660,-6425,3757,-1,0,-1
-166.89,26.14,-59.67,3673,-6416,3765,-1,0,-1
-166.89,26.14,-59.66,3663,-6412,3768,-1,0,0
-166.89,26.13,-59.67,3652,-6402,3760,-1,0,0
-166.89,26.12,-59.68,3646,-6402,3759,-1,-1,0
-166.89,26.12,-59.70,3648,-6413,3748,-1,0,0
-166.89,26.12,-59.70,3661,-6423,3754,-1,-1,0
-166.89,26.12,-59.71,3650,-6428,3755,-1,-1,0
-166.88,26.12,-59.71,3651,-6434,3744,0,-1,-1
-166.88,26.13,-59.71,3654,-6427,3733,0,-1,-1
-166.88,26.13,-59.71,3655,-6423,3732,0,-1,-1
-166.88,26.14,-59.70,3651,-6412,3736,0,-1,-1
-166.88,26.15,-59.69,3655,-6416,3744,0,-1,-1
-166.88,26.16,-59.69,3669,-6427,3751,0,-1,-1
-166.88,26.16,-59.67,3676,-6428,3765,0,-1,-1
-166.89,26.16,-59.66,3667,-6418,3777,0,-1,-1
-166.90,26.16,-59.65,3659,-6405,3788,0,-1,0
-166.89,26.17,-59.65,3651,-6399,3787,-1,-1,-1
-166.89,26.17,-59.67,3653,-6404,3764,-1,-1,-1
-166.88,26.18,-59.68,3657,-6411,3743,-1,-1,-1
-166.87,26.20,-59.69,3667,-6416,3739,-1,-1,-1
-166.87,26.21,-59.70,3669,-6422,3730,0,-1,-1
-166.86,26.22,-59.71,3680,-6434,3723,0,-1,-1
-166.86,26.23,-59.70,3688,-6446,3734,0,-1,-1
-166.86,26.23,-59.69,3680,-6438,3735,0,-1,-1
-166.87,26.24,-59.67,3674,-6424,3759,0,-1,-1
-166.87,26.24,-59.66,3673,-6408,3764,0,-1,-1
-166.87,26.25,-59.65,3675,-6408,3768,0,-1,-1
-166.88,26.25,-59.64,3682,-6404,3771,0,-1,0
-166.88,26.26,-59.64,3668,-6399,3765,0,-1,-1
-166.88,26.26,-59.65,3672,-6406,3765,-1,-1,-1
-166.86,26.28,-59.65,3684,-6420,3756,0,-1,-1
-166.87,26.29,-59.65,3690,-6413,3759,0,-1,0
-166.87,26.29,-59.66,3682,-6412,3759,-1,-1,0
-166.87,26.29,-59.66,3677,-6416,3751,-1,-1,-1
-166.87,26.30,-59.67,3675,-6417,3742,0,-1,-1
-166.87,26.30,-59.66,3676,-6420,3741,0,-1,-1
-166.87,26.31,-59.64,3682,-6407,3744,0,-1,-1
-166.87,26.31,-59.64,3683,-6410,3738,0,-1,-1
-166.87,26.32,-59.63,3687,-6406,3749,0,-1,0
-166.87,26.32,-59.62,3684,-6405,3758,0,-1,0
-166.88,26.32,-59.62,3676,-6402,3749,0,-1,0
-166.89,26.32,-59.62,3672,-6400,3748,0,-1,-1
-166.88,26.33,-59.63,3676,-6409,3747,0,-1,-1
-166.88,26.34,-59.63,3682,-6412,3756,0,-1,-1
-166.88,26.34,-59.61,3691,-6405,3758,0,-1,-1
-166.87,26.35,-59.61,3697,-6394,3760,0,-1,0
-166.88,26.35,-59.61,3696,-6397,3765,0,-1,-1
-166.88,26.35,-59.61,3691,-6397,3761,0,0,0
-166.88,26.35,-59.61,3682,-6388,3760,0,-1,0
-166.88,26.36,-59.61,3680,-6389,3761,-1,-1,0
-166.88,26.36,-59.62,3683,-6408,3759,0,-1,0
-166.88,26.36,-59.62,3690,-6416,3750,0,0,0
-166.88,26.36,-59.62,3683,-6415,3751,0,-1,-1
-166.88,26.36,-59.61,3686,-6413,3759,0,-1,-1
-166.88,26.37,-59.60,3682,-6403,3747,0,-1,-1
-166.88,26.37,-59.60,3685,-6401,3744,0,-1,-1
-166.88,26.38,-59.59,3689,-6401,3751,0,-1,-1
-166.89,26.38,-59.59,3689,-6392,3760,0,-1,-1
-166.89,26.38,-59.57,3701,-6392,3770,0,0,0
-166.89,26.39,-59.56,3707,-6392,3762,0,-1,0
-166.90,26.38,-59.55,3695,-6383,3770,0,0,0
-166.90,26.38,-59.55,3683,-6383,3764,-1,0,0
-166.90,26.38,-59.55,3675,-6382,3763,-1,-1,0
-166.90,26.38,-59.57,3679,-6394,3756,-1,-1,-1
-166.90,26.39,-59.57,3684,-6404,3752,0,-1,-1
-166.89,26.39,-59.57,3693,-6413,3755,0,-1,-1
-166.90,26.40,-59.58,3702,-6406,3760,0,-1,-1
-166.90,26.40,-59.56,3700,-6403,3764,0,-1,-1
-166.90,26.40,-59.56,3700,-6397,3756,0,0,-1
-166.90,26.40,-59.55,3697,-6392,3761,0,0,-1
-166.91,26.40,-59.54,3692,-6390,3762,0,-1,0
-166.91,26.40,-59.54,3691,-6391,3760,0,-1,-1
-166.90,26.41,-59.54,3699,-6386,3762,0,-1,-1
-166.91,26.41,-59.53,3703,-6391,3769,0,-1,0
-166.91,26.41,-59.53,3704,-6395,3767,0,-1,0
-166.92,26.41,-59.53,3701,-6388,3774,0,0,0
-166.92,26.41,-59.53,3686,-6388,3760,-1,-1,-1
-166.91,26.42,-59.53,3692,-6384,3749,-1,-1,-1
-166.91,26.42,-59.53,3696,-6390,3747,0,-1,-1
-166.91,26.43,-59.53,3709,-6394,3748,0,-1,-1
-166.91,26.43,-59.51,3714,-6399,3759,0,0,-1
-166.92,26.43,-59.50,3706,-6388,3765,0,0,0
-166.93,26.42,-59.50,3692,-6388,3774,0,0,0
-166.93,26.42,-59.49,3690,-6394,3764,0,-1,0
-166.94,26.42,-59.49,3684,-6399,3765,0,-1,0
-166.94,26.43,-59.48,3683,-6398,3762,0,-1,-1
-166.95,26.43,-59.47,3697,-6397,3767,0,-1,-1
-166.95,26.44,-59.45,3709,-6390,3775,0,-1,-1
-166.95,26.44,-59.44,3699,-6378,3774,0,0,0
-166.96,26.43,-59.44,3694,-6371,3772,0,-1,0
-166.97,26.43,-59.44,3697,-6371,3767,0,-1,0
-166.96,26.44,-59.44,3693,-6372,3762,-1,-1,0
-166.96,26.44,-59.45,3692,-6386,3756,0,-1,0
-166.97,26.44,-59.45,3696,-6401,3754,0,-1,0
-166.97,26.45,-59.45,3701,-6400,3760,0,-1,0
-166.99,26.44,-59.43,3689,-6382,3769,0,-1,0
-166.99,26.44,-59.42,3693,-6379,3760,0,-1,-1
-166.99,26.45,-59.42,3693,-6382,3759,0,-1,-1
-167.00,26.45,-59.41,3694,-6383,3763,0,-1,0
-167.00,26.45,-59.40,3702,-6381,3778,0,-1,0
-167.02,26.45,-59.38,3699,-6391,3780,0,-1,0
-167.03,26.45,-59.36,3704,-6380,3788,0,0,0
-167.04,26.45,-59.35,3696,-6372,3803,0,-1,0
-167.04,26.45,-59.34,3690,-6365,3805,0,-1,0
-167.04,26.45,-59.33,3690,-6362,3793,-1,-1,0
-167.04,26.46,-59.35,3688,-6368,3778,-1,-1,0
-167.04,26.46,-59.35,3696,-6369,3767,-1,-1,0
-167.04,26.47,-59.36,3696,-6382,3771,-1,-1,-1
-167.04,26.48,-59.35,3708,-6391,3765,0,-1,0
-167.04,26.48,-59.35,3723,-6396,3765,0,-1,0
-167.05,26.48,-59.34,3718,-6390,3776,0,0,0
-167.06,26.48,-59.32,3701,-6388,3780,0,0,-1
-167.06,26.48,-59.31,3703,-6384,3782,0,0,-1
-167.06,26.48,-59.30,3701,-6378,3798,0,-1,-1
-167.07,26.48,-59.28,3699,-6370,3803,0,-1,-1
-167.07,26.49,-59.27,3703,-6362,3799,0,-1,-1
-167.07,26.49,-59.28,3703,-6363,3803,-1,-1,0
-167.06,26.50,-59.28,3710,-6361,3798,-1,-1,0
-167.06,26.50,-59.28,3712,-6372,3791,0,-1,-1
-167.05,26.51,-59.27,3713,-6371,3799,0,-1,-1
-167.05,26.51,-59.27,3717,-6368,3808,-1,0,0
-167.05,26.51,-59.27,3707,-6363,3811,-1,0,-1
-167.04,26.51,-59.29,3696,-6366,3792,-1,0,-1
-167.03,26.51,-59.30,3714,-6371,3787,-1,0,-1
-167.02,26.51,-59.30,3708,-6367,3781,-1,0,-1
-167.02,26.51,-59.30,3711,-6366,3786,-1,0,-1
-167.01,26.50,-59.31,3714,-6367,3802,-1,0,0
-167.00,26.49,-59.32,3710,-6369,3796,-1,0,0
-166.99,26.48,-59.34,3707,-6380,3786,-1,0,0
-166.99,26.47,-59.36,3693,-6382,3767,-1,0,0
-166.98,26.47,-59.36,3692,-6383,3772,-1,0,-1
-166.97,26.48,-59.37,3696,-6382,3772,-1,0,-1
-166.96,26.48,-59.38,3715,-6384,3772,-1,0,-1
-166.95,26.48,-59.38,3721,-6373,3782,-1,0,-1
-166.94,26.47,-59.38,3710,-6361,3787,-1,0,0
-166.93,26.46,-59.40,3707,-6370,3779,-1,0,-1
-166.92,26.46,-59.41,3710,-6372,3783,-1,0,0
-166.92,26.45,-59.42,3692,-6375,3777,-1,0,0
-166.91,26.45,-59.43,3693,-6393,3777,-1,0,-1
-166.90,26.44,-59.44,3707,-6402,3771,-1,0,-1
-166.89,26.44,-59.45,3706,-6398,3767,-1,0,-1
-166.89,26.43,-59.45,3695,-6387,3775,-1,0,-1
-166.88,26.43,-59.45,3700,-6391,3765,-1,0,-1
-166.86,26.43,-59.46,3701,-6386,3760,-1,0,0
-166.86,26.42,-59.46,3701,-6387,3761,-1,0,0
-166.86,26.42,-59.46,3700,-6386,3776,-1,0,0
-166.86,26.41,-59.47,3693,-6394,3785,-1,0,0
-166.86,26.40,-59.47,3703,-6394,3786,-1,0,0
-166.85,26.39,-59.47,3704,-6388,3796,-1,0,-1
-166.85,26.39,-59.48,3692,-6375,3786,-1,0,-1
-166.83,26.39,-59.49,3686,-6374,3768,-1,0,0
-166.82,26.38,-59.51,3683,-6373,3765,-1,0,0
-166.81,26.38,-59.53,3689,-6382,3761,-1,0,0
-166.80,26.37,-59.55,3692,-6394,3752,-1,0,0
-166.80,26.37,-59.55,3692,-6414,3764,-1,0,0
-166.79,26.36,-59.57,3698,-6417,3765,-1,0,0
-166.79,26.35,-59.56,3699,-6414,3765,-1,0,0
-166.79,26.34,-59.56,3689,-6403,3760,-1,0,0
-166.78,26.33,-59.56,3686,-6398,3757,-1,0,-1
-166.78,26.33,-59.56,3688,-6398,3765,-1,0,0
-166.78,26.32,-59.56,3680,-6392,3768,-1,0,0
-166.77,26.32,-59.57,3684,-6400,3774,-1,0,-1
-166.76,26.31,-59.58,3688,-6402,3761,-1,0,0
-166.76,26.31,-59.58,3688,-6398,3770,-1,0,0
-166.76,26.30,-59.59,3684,-6393,3774,-1,0,0
-166.75,26.30,-59.60,3682,-6397,3772,-1,0,0
-166.75,26.29,-59.60,3676,-6402,3763,-1,0,0
-166.74,26.28,-59.61,3677,-6400,3760,-1,0,-1
-166.73,26.28,-59.61,3679,-6404,3762,-1,0,0
-166.73,26.27,-59.61,3682,-6410,3764,-1,0,0
-166.73,26.26,-59.61,3685,-6409,3771,-1,0,0
-166.73,26.25,-59.61,3679,-6408,3778,-1,0,0
-166.73,26.24,-59.63,3662,-6401,3762,-1,0,0
-166.71,26.24,-59.64,3662,-6403,3753,-1,0,-1
-166.71,26.24,-59.65,3672,-6404,3750,-1,0,-1
-166.70,26.24,-59.65,3681,-6409,3753,-1,0,-1
-166.70,26.23,-59.65,3688,-6411,3755,-1,0,0
-166.70,26.22,-59.66,3686,-6409,3761,-1,0,0
-166.70,26.21,-59.67,3675,-6411,3759,-1,0,0
-166.70,26.20,-59.67,3662,-6414,3760,-1,0,0
-166.70,26.19,-59.68,3657,-6412,3743,-1,0,0
-166.69,26.18,-59.68,3662,-6429,3756,-1,0,-1
-166.69,26.18,-59.68,3660,-6435,3761,-1,0,-1
-166.69,26.17,-59.68,3669,-6434,3757,-1,0,-1
-166.68,26.17,-59.67,3672,-6413,3766,-1,0,-1
-166.68,26.17,-59.68,3664,-6400,3765,-1,0,-1
-166.67,26.17,-59.69,3668,-6393,3764,-1,0,0
-166.67,26.16,-59.69,3669,-6396,3762,-1,0,0
-166.67,26.16,-59.71,3668,-6398,3749,-1,0,0
-166.66,26.16,-59.72,3670,-6424,3745,-1,-1,0
-166.66,26.16,-59.72,3662,-6432,3749,-1,0,0
-166.67,26.15,-59.72,3651,-6433,3754,-1,0,-1
-166.67,26.15,-59.72,3649,-6440,3751,-1,-1,-1
-166.66,26.16,-59.72,3654,-6433,3758,0,-1,-1
-166.65,26.17,-59.71,3664,-6421,3749,0,-1,-1
-166.65,26.18,-59.70,3666,-6415,3753,0,-1,-1
-166.65,26.18,-59.70,3672,-6421,3760,0,-1,-1
-166.66,26.18,-59.68,3676,-6421,3773,0,0,-1
-166.66,26.19,-59.67,3672,-6405,3780,-1,-1,0
-166.65,26.19,-59.68,3663,-6396,3788,-1,-1,0
-166.65,26.19,-59.70,3648,-6399,3774,-1,-1,-1
-166.64,26.20,-59.71,3659,-6405,3748,-1,-1,-1
-166.63,26.21,-59.72,3669,-6421,3735,-1,-1,-1
-166.63,26.22,-59.73,3667,-6425,3732,0,-1,-1
-166.62,26.23,-59.73,3668,-6437,3730,0,-1,-1
-166.62,26.24,-59.73,3677,-6441,3736,0,-1,-1
-166.62,26.25,-59.71,3687,-6431,3751,0,0,-1
-166.63,26.25,-59.69,3685,-6412,3759,0,0,-1
-166.63,26.25,-59.68,3680,-6406,3765,0,-1,-1
-166.63,26.25,-59.67,3669,-6405,3761,0,-1,0
-166.63,26.26,-59.66,3671,-6397,3762,0,-1,-1
-166.63,26.27,-59.65,3676,-6396,3768,0,-1,0
-166.63,26.28,-59.66,3679,-6398,3772,-1,-1,-1
-166.62,26.29,-59.67,3681,-6402,3766,-1,-1,-1
-166.61,26.30,-59.68,3684,-6412,3764,-1,-1,-1
-166.61,26.30,-59.68,3683,-6404,3757,-1,-1,-1
-166.61,26.31,-59.69,3677,-6403,3743,-1,-1,-1
-166.61,26.31,-59.68,3679,-6402,3754,0,-1,-1
-166.60,26.32,-59.68,3688,-6407,3750,0,-1,-1
-166.60,26.32,-59.68,3686,-6414,3749,0,-1,-1
-166.61,26.32,-59.67,3689,-6415,3759,0,-1,0
-166.62,26.32,-59.66,3681,-6412,3770,0,-1,-1
-166.62,26.32,-59.66,3679,-6411,3764,0,-1,0
-166.61,26.33,-59.66,3671,-6405,3763,-1,-1,-1
-166.61,26.33,-59.67,3674,-6392,3754,0,-1,-1
-166.60,26.35,-59.67,3696,-6400,3746,0,-1,-1
-166.59,26.36,-59.67,3704,-6396,3740,0,-1,-1
-166.59,26.36,-59.67,3702,-6402,3757,0,-1,0
-166.61,26.35,-59.67,3685,-6405,3754,0,0,0
-166.61,26.35,-59.67,3674,-6416,3746,0,-1,0
-166.61,26.35,-59.67,3668,-6415,3747,0,-1,-1
-166.61,26.35,-59.67,3673,-6417,3743,0,-1,-1
-166.60,26.37,-59.66,3685,-6414,3750,0,-1,-1
-166.60,26.37,-59.65,3702,-6409,3773,0,-1,-1
-166.60,26.38,-59.64,3708,-6398,3780,0,-1,0
-166.60,26.38,-59.64,3698,-6383,3768,-1,-1,0
-166.60,26.38,-59.64,3695,-6385,3764,-1,-1,0
-166.60,26.39,-59.64,3690,-6386,3753,-1,-1,0
-166.60,26.39,-59.65,3692,-6398,3753,-1,-1,0
-166.59,26.39,-59.67,3690,-6412,3754,-1,-1,-1
-166.59,26.40,-59.67,3693,-6415,3754,0,-1,-1
-166.60,26.39,-59.66,3685,-6411,3751,0,0,-1
-166.59,26.40,-59.66,3686,-6406,3748,0,-1,-1
-166.60,26.40,-59.66,3689,-6402,3745,0,0,-1
-166.60,26.40,-59.65,3690,-6395,3758,0,0,0
-166.60,26.40,-59.64,3691,-6400,3761,0,-1,-1
-166.60,26.41,-59.63,3701,-6403,3765,0,-1,-1
-166.61,26.41,-59.61,3707,-6402,3773,0,0,0
-166.61,26.41,-59.61,3707,-6391,3777,0,0,-1
-166.61,26.41,-59.60,3701,-6380,3778,-1,-1,0
-166.61,26.41,-59.61,3692,-6377,3776,-1,-1,0
-166.60,26.42,-59.61,3692,-6375,3782,-1,-1,0
-166.60,26.42,-59.63,3688,-6380,3755,-1,-1,0
-166.59,26.42,-59.64,3695,-6379,3742,-1,-1,0
-166.59,26.43,-59.64,3705,-6402,3745,-1,-1,-1
-166.59,26.43,-59.65,3713,-6411,3741,0,0,0
-166.59,26.43,-59.65,3708,-6421,3747,0,0,-1
-166.60,26.43,-59.63,3703,-6410,3751,0,0,0
-166.60,26.42,-59.61,3682,-6396,3753,0,0,-1
-166.60,26.43,-59.61,3692,-6390,3772,0,0,-1
-166.61,26.43,-59.59,3690,-6383,3764,0,0,-1
-166.61,26.42,-59.58,3686,-6380,3769,0,-1,-1
-166.60,26.43,-59.59,3688,-6375,3773,-1,-1,0
-166.60,26.44,-59.59,3698,-6378,3764,-1,-1,0
-166.60,26.43,-59.59,3701,-6386,3761,-1,-1,0
-166.60,26.43,-59.59,3701,-6392,3767,-1,0,0
-166.60,26.43,-59.60,3695,-6392,3767,-1,0,0
-166.61,26.43,-59.60,3684,-6400,3754,-1,-1,-1
-166.59,26.43,-59.61,3700,-6404,3758,0,-1,-1
-166.59,26.44,-59.60,3709,-6407,3758,0,-1,-1
-166.59,26.45,-59.59,3714,-6401,3756,0,0,-1
-166.60,26.45,-59.57,3719,-6386,3765,0,0,0
-166.60,26.45,-59.57,3713,-6390,3771,-1,0,0
-166.60,26.45,-59.57,3706,-6390,3769,-1,0,0
-166.61,26.44,-59.57,3688,-6399,3765,0,0,0
-166.61,26.44,-59.57,3678,-6398,3761,0,-1,-1
-166.62,26.43,-59.57,3680,-6404,3762,0,-1,-1
-166.62,26.44,-59.56,3695,-6405,3765,0,-1,-1
-166.61,26.45,-59.55,3710,-6401,3776,0,-1,-1
-166.61,26.45,-59.54,3707,-6384,3776,0,0,-1
-166.61,26.46,-59.54,3709,-6370,3774,-1,0,0
-166.61,26.46,-59.53,3701,-6360,3774,-1,-1,0
-166.61,26.46,-59.54,3701,-6366,3767,-1,-1,0
-166.62,26.46,-59.54,3701,-6382,3761,0,-1,0
-166.62,26.46,-59.54,3705,-6391,3758,0,-1,0
-166.63,26.46,-59.53,3710,-6403,3766,0,-1,0
-166.63,26.46,-59.52,3694,-6392,3769,0,0,0
-166.63,26.46,-59.52,3683,-6394,3757,0,-1,-1
-166.63,26.47,-59.52,3694,-6395,3747,0,-1,-1
-166.64,26.47,-59.50,3703,-6393,3747,0,-1,-1
-166.64,26.47,-59.49,3705,-6388,3763,0,-1,-1
-166.65,26.48,-59.47,3712,-6383,3766,0,-1,-1
-166.66,26.48,-59.45,3713,-6385,3767,0,0,0
-166.67,26.47,-59.44,3705,-6377,3783,0,0,0
-166.69,26.47,-59.42,3695,-6370,3798,0,-1,0
-166.69,26.47,-59.41,3686,-6369,3793,0,-1,0
-166.69,26.47,-59.42,3690,-6370,3781,0,-1,-1
-166.69,26.48,-59.42,3690,-6381,3774,0,-1,-1
-166.68,26.49,-59.42,3710,-6383,3769,0,-1,0
-166.69,26.50,-59.41,3714,-6388,3777,0,-1,0
-166.70,26.50,-59.40,3716,-6386,3783,0,-1,0
-166.71,26.50,-59.39,3717,-6393,3776,0,-1,-1
-166.71,26.50,-59.38,3711,-6384,3769,0,0,0
-166.72,26.50,-59.36,3704,-6368,3779,0,-1,-1
-166.73,26.50,-59.35,3697,-6370,3779,0,-1,0
-166.73,26.51,-59.33,3697,-6368,3791,0,-1,-1
-166.74,26.52,-59.32,3704,-6367,3793,0,-1,-1
-166.74,26.52,-59.32,3715,-6367,3793,0,-1,-1
-166.74,26.53,-59.31,3713,-6362,3796,0,-1,0
-166.74,26.53,-59.31,3705,-6362,3799,-1,-1,0
-166.74,26.53,-59.31,3703,-6358,3809,-1,-1,0
-166.75,26.52,-59.31,3702,-6369,3798,-1,-1,-1
-166.74,26.53,-59.31,3707,-6380,3790,0,-1,-1
-166.73,26.54,-59.30,3720,-6384,3801,0,0,-1
-166.74,26.54,-59.29,3715,-6370,3806,-1,0,-1
-166.73,26.54,-59.31,3721,-6369,3809,-1,0,-1
-166.72,26.53,-59.32,3730,-6366,3803,-1,0,0
-166.71,26.53,-59.33,3719,-6362,3796,-1,0,0
-166.72,26.52,-59.33,3698,-6359,3793,-1,0,0
-166.71,26.51,-59.34,3695,-6371,3790,-1,0,-1
-166.70,26.51,-59.35,3700,-6380,3783,-1,0,-1
-166.69,26.51,-59.35,3711,-6379,3793,-1,0,-1
-166.68,26.51,-59.35,3714,-6368,3805,-1,0,-1
-166.67,26.51,-59.35,3712,-6356,3805,-1,0,-1
-166.66,26.50,-59.36,3718,-6361,3797,-1,0,-1
-166.65,26.50,-59.37,3720,-6364,3793,-1,0,0
-166.65,26.48,-59.39,3712,-6367,3787,-1,0,0
-166.64,26.48,-59.41,3713,-6372,3793,-1,0,0
-166.63,26.47,-59.42,3708,-6386,3787,-1,0,0
-166.63,26.47,-59.43,3706,-6395,3777,-1,0,0
-166.62,26.46,-59.43,3699,-6392,3769,-1,0,-1
-166.61,26.46,-59.44,3685,-6389,3771,-1,0,-1
-166.61,26.45,-59.44,3692,-6385,3767,-1,0,-1
-166.60,26.45,-59.45,3699,-6385,3758,-1,0,-1
-166.59,26.45,-59.45,3704,-6385,3764,-1,0,-1
-166.59,26.45,-59.45,3711,-6379,3776,-1,0,0
-166.59,26.44,-59.45,3716,-6376,3785,-1,0,0
-166.59,26.43,-59.45,3708,-6372,3797,-1,0,0
-166.57,26.43,-59.46,3701,-6376,3803,-1,0,0
-166.57,26.42,-59.47,3685,-6384,3789,-1,0,0
-166.56,26.42,-59.50,3677,-6383,3777,-1,0,-1
-166.55,26.42,-59.50,3689,-6392,3776,-1,0,-1
-166.54,26.42,-59.51,3705,-6398,3767,-1,0,-1
-166.53,26.42,-59.52,3711,-6401,3755,-1,0,-1
-166.52,26.42,-59.52,3713,-6389,3761,-1,0,-1
-166.52,26.41,-59.52,3703,-6393,3766,-1,0,0
-166.52,26.39,-59.52,3698,-6386,3775,-1,0,0
-166.52,26.38,-59.52,3687,-6384,3767,-1,0,0
-166.52,26.38,-59.52,3682,-6389,3778,-1,0,-1
-166.51,26.37,-59.53,3680,-6395,3772,-1,0,-1
-166.50,26.37,-59.55,3693,-6394,3762,-1,0,-1
-166.50,26.36,-59.55,3700,-6399,3768,-1,0,0
-166.49,26.36,-59.56,3693,-6400,3761,-1,0,0
-166.48,26.36,-59.57,3686,-6393,3760,-1,0,0
-166.48,26.35,-59.58,3688,-6400,3765,-1,0,0
-166.47,26.34,-59.59,3687,-6403,3772,-1,0,0
-166.48,26.34,-59.58,3679,-6405,3774,-1,0,0
-166.48,26.32,-59.58,3675,-6402,3781,-1,0,-1
-166.48,26.32,-59.58,3676,-6398,3772,-1,0,0
-166.47,26.31,-59.59,3671,-6400,3765,-1,0,-1
-166.47,26.30,-59.59,3681,-6398,3756,-1,0,0
-166.46,26.31,-59.60,3691,-6401,3765,-1,0,-1
-166.46,26.30,-59.59,3695,-6398,3782,-1,0,0
-166.46,26.28,-59.59,3673,-6402,3779,-1,0,0
-166.46,26.28,-59.61,3671,-6400,3767,-1,0,-1
-166.44,26.28,-59.62,3672,-6398,3753,-1,0,-1
-166.44,26.28,-59.62,3676,-6399,3759,-1,0,-1
-166.43,26.28,-59.62,3677,-6398,3760,-1,0,-1
-166.43,26.27,-59.62,3692,-6400,3766,-1,0,0
-166.43,26.26,-59.62,3682,-6406,3762,-1,0,0
-166.44,26.24,-59.63,3670,-6413,3756,-1,0,0
-166.44,26.23,-59.63,3655,-6410,3758,-1,0,0
-166.44,26.22,-59.63,3655,-6415,3762,-1,0,-1
-166.43,26.22,-59.64,3665,-6422,3770,-1,0,-1
-166.42,26.22,-59.63,3671,-6422,3772,-1,0,-1
-166.42,26.22,-59.63,3680,-6412,3777,-1,0,-1
-166.41,26.22,-59.63,3672,-6403,3782,-1,0,0
-166.42,26.21,-59.64,3669,-6402,3771,-1,0,0
-166.41,26.21,-59.66,3666,-6397,3761,-1,0,0
-166.41,26.21,-59.67,3664,-6400,3754,-1,-1,0
-166.40,26.20,-59.68,3663,-6411,3750,-1,-1,0
-166.40,26.20,-59.69,3661,-6431,3753,-1,-1,0
-166.40,26.20,-59.69,3667,-6431,3750,0,0,-1
-166.40,26.20,-59.68,3666,-6424,3753,0,0,-1
-166.40,26.21,-59.68,3658,-6418,3751,0,0,-1
-166.40,26.21,-59.68,3656,-6414,3750,0,-1,-1
-166.39,26.22,-59.67,3660,-6416,3737,0,-1,-1
-166.39,26.23,-59.66,3675,-6412,3758,0,-1,-1
-166.40,26.23,-59.65,3674,-6406,3766,0,-1,0
-166.40,26.24,-59.64,3678,-6408,3786,0,-1,-1
-166.40,26.24,-59.64,3687,-6406,3787,-1,-1,0
-166.40,26.24,-59.64,3679,-6400,3781,-1,-1,0
-166.39,26.24,-59.65,3670,-6406,3777,-1,-1,-1
-166.38,26.25,-59.66,3661,-6406,3765,-1,-1,-1
-166.38,26.26,-59.67,3663,-6409,3753,-1,-1,-1
-166.38,26.27,-59.68,3670,-6417,3750,0,-1,-1
-166.37,26.28,-59.67,3686,-6417,3741,0,-1,-1
-166.37,26.29,-59.67,3690,-6419,3743,0,-1,-1
-166.37,26.29,-59.66,3686,-6418,3753,0,0,-1
-166.37,26.29,-59.64,3676,-6415,3759,0,0,-1
-166.38,26.29,-59.63,3674,-6405,3771,0,-1,-1
-166.37,26.30,-59.63,3666,-6406,3770,0,-1,-1
-166.38,26.30,-59.62,3666,-6404,3764,0,-1,-1
-166.37,26.31,-59.62,3672,-6399,3767,-1,-1,-1
-166.37,26.32,-59.63,3678,-6395,3772,-1,-1,-1
-166.36,26.33,-59.65,3691,-6400,3759,-1,-1,0
-166.36,26.33,-59.65,3687,-6404,3748,0,-1,-1
-166.36,26.34,-59.66,3694,-6407,3751,0,-1,0
-166.36,26.34,-59.65,3688,-6407,3758,0,-1,-1
-166.35,26.34,-59.65,3687,-6411,3754,0,-1,-1
-166.35,26.35,-59.64,3684,-6404,3755,0,-1,-1
-166.35,26.36,-59.64,3690,-6407,3769,0,-1,-1
-166.35,26.36,-59.63,3703,-6401,3764,0,-1,-1
-166.35,26.36,-59.62,3700,-6394,3766,0,-1,-1
-166.36,26.36,-59.62,3691,-6395,3769,0,-1,0
-166.35,26.37,-59.62,3682,-6397,3760,0,-1,-1
-166.35,26.37,-59.62,3693,-6404,3758,0,-1,0
-166.36,26.37,-59.61,3688,-6398,3763,0,-1,-1
-166.35,26.38,-59.62,3687,-6403,3760,0,-1,0
-166.35,26.38,-59.61,3688,-6408,3767,0,-1,-1
-166.36,26.38,-59.61,3693,-6412,3776,0,-1,0
-166.35,26.39,-59.61,3696,-6413,3773,-1,-1,-1
-166.34,26.40,-59.62,3697,-6405,3761,-1,-1,-1
-166.33,26.41,-59.62,3689,-6401,3750,0,-1,-1
-166.33,26.42,-59.61,3692,-6394,3754,0,-1,-1
-166.34,26.42,-59.59,3691,-6381,3755,0,-1,-1
-166.34,26.43,-59.58,3700,-6380,3769,0,-1,0
-166.35,26.42,-59.57,3700,-6385,3773,0,-1,0
-166.36,26.42,-59.57,3686,-6391,3768,0,-1,0
-166.37,26.41,-59.57,3669,-6397,3767,0,-1,0
-166.37,26.41,-59.58,3674,-6392,3762,0,-1,-1
-166.37,26.42,-59.57,3681,-6393,3771,0,-1,-1
-166.37,26.43,-59.57,3704,-6395,3762,0,-1,-1
-166.37,26.43,-59.56,3719,-6397,3767,0,-1,-1
-166.37,26.44,-59.55,3726,-6393,3781,0,0,0
-166.38,26.44,-59.53,3701,-6377,3778,0,0,0
-166.39,26.44,-59.53,3698,-6373,3775,0,-1,0
-166.38,26.44,-59.53,3700,-6368,3764,0,-1,0
-166.39,26.45,-59.53,3710,-6383,3769,0,-1,0
-166.39,26.45,-59.51,3713,-6386,3772,0,-1,0
-166.40,26.44,-59.52,3703,-6390,3773,0,-1,0
-166.39,26.45,-59.51,3703,-6391,3771,0,-1,0
-166.40,26.45,-59.50,3702,-6384,3764,0,-1,0
-166.40,26.45,-59.50,3703,-6385,3772,0,-1,-1
-166.40,26.46,-59.49,3703,-6388,3759,0,-1,-1
-166.41,26.46,-59.48,3707,-6394,3765,0,-1,-1
-166.41,26.46,-59.47,3718,-6391,3775,0,0,0
-166.42,26.46,-59.45,3718,-6379,3791,0,0,0
-166.42,26.46,-59.44,3706,-6376,3801,0,0,0
-166.42,26.46,-59.44,3695,-6367,3793,-1,0,0
-166.42,26.46,-59.44,3686,-6366,3781,-1,-1,0
-166.42,26.46,-59.45,3680,-6369,3773,-1,-1,0
-166.42,26.47,-59.46,3685,-6381,3762,-1,-1,-1
-166.41,26.47,-59.47,3700,-6388,3757,0,-1,-1
-166.41,26.48,-59.47,3710,-6394,3760,0,-1,-1
-166.41,26.49,-59.46,3716,-6399,3757,0,0,-1
-166.42,26.48,-59.44,3709,-6393,3763,0,0,0
-166.42,26.48,-59.44,3701,-6390,3771,0,0,-1
-166.43,26.48,-59.43,3700,-6380,3780,0,0,-1
-166.44,26.47,-59.41,3687,-6378,3778,0,0,-1
-166.44,26.47,-59.41,3689,-6370,3783,0,-1,0
-166.43,26.48,-59.41,3701,-6365,3779,0,-1,-1
-166.44,26.48,-59.41,3708,-6368,3773,0,-1,0
-166.44,26.49,-59.41,3715,-6375,3777,0,-1,0
-166.44,26.49,-59.41,3705,-6375,3781,0,-1,0
-166.44,26.50,-59.40,3704,-6382,3766,0,-1,-1
-166.44,26.50,-59.40,3712,-6385,3762,0,-1,-1
-166.45,26.50,-59.38,3710,-6378,3767,0,0,0
-166.46,26.50,-59.36,3705,-6377,3776,0,-1,0
-166.47,26.50,-59.35,3708,-6370,3788,0,-1,0
-166.48,26.50,-59.33,3704,-6364,3789,0,-1,0
-166.49,26.50,-59.32,3686,-6353,3788,0,-1,0
-166.50,26.50,-59.31,3698,-6370,3792,0,-1,-1
-166.50,26.51,-59.31,3712,-6376,3802,0,-1,0
-166.50,26.51,-59.29,3718,-6366,3805,0,-1,0
-166.51,26.52,-59.29,3703,-6359,3803,0,-1,0
-166.51,26.52,-59.29,3710,-6364,3790,-1,-1,-1
-166.50,26.52,-59.29,3710,-6374,3780,0,-1,-1
-166.50,26.52,-59.28,3709,-6371,3783,0,-1,-1
-166.50,26.53,-59.28,3720,-6369,3785,0,-1,-1
-166.50,26.53,-59.27,3722,-6373,3789,0,-1,0
-166.52,26.52,-59.27,3723,-6373,3802,0,0,0
-166.52,26.52,-59.27,3702,-6362,3792,-1,0,0
-166.52,26.52,-59.27,3691,-6364,3783,0,-1,0
-166.52,26.52,-59.27,3685,-6375,3775,0,-1,-1
-166.52,26.52,-59.27,3704,-6373,3779,0,-1,-1
-166.51,26.54,-59.25,3713,-6365,3798,0,-1,-1
-166.51,26.54,-59.25,3723,-6344,3801,0,-1,-1
-166.51,26.54,-59.25,3710,-6345,3808,-1,-1,0
-166.50,26.55,-59.25,3715,-6345,3806,-1,-1,0
-166.50,26.55,-59.26,3712,-6349,3789,-1,-1,0
-166.50,26.55,-59.26,3707,-6356,3799,-1,-1,0
-166.50,26.55,-59.27,3702,-6373,3798,-1,-1,-1
-166.50,26.55,-59.27,3711,-6371,3793,0,-1,-1
-166.50,26.55,-59.26,3710,-6371,3803,0,0,-1
-166.49,26.55,-59.26,3710,-6364,3804,-1,0,-1
-166.49,26.55,-59.26,3719,-6359,3799,-1,0,-1
-166.47,26.55,-59.28,3723,-6358,3793,-1,0,-1
-166.47,26.55,-59.29,3721,-6363,3782,-1,0,-1
-166.46,26.54,-59.29,3723,-6361,3792,-1,0,0
-166.46,26.53,-59.30,3724,-6365,3809,-1,0,0
-166.46,26.52,-59.30,3714,-6358,3811,-1,0,0
-166.45,26.52,-59.30,3702,-6359,3817,-1,0,-1
-166.44,26.52,-59.32,3698,-6357,3808,-1,0,-1
-166.43,26.51,-59.34,3693,-6356,3790,-1,0,-1
-166.42,26.51,-59.36,3694,-6354,3785,-1,0,-1
-166.40,26.51,-59.39,3698,-6370,3771,-1,0,-1
-166.39,26.51,-59.40,3715,-6386,3767,-1,0,-1
-166.38,26.51,-59.40,3716,-6384,3774,-1,0,-1
-166.38,26.50,-59.40,3712,-6387,3787,-1,0,-1
-166.38,26.49,-59.40,3707,-6389,3787,-1,0,-1
-166.37,26.48,-59.40,3702,-6385,3782,-1,0,-1
-166.36,26.48,-59.40,3706,-6385,3780,-1,0,-1
-166.37,26.47,-59.40,3701,-6370,3788,-1,0,-1
-166.36,26.47,-59.40,3693,-6357,3800,-1,0,0
-166.36,26.46,-59.41,3700,-6363,3804,-1,0,-1
-166.34,26.46,-59.43,3710,-6367,3788,-1,0,0
-166.33,26.46,-59.44,3709,-6377,3784,-1,0,0
-166.33,26.45,-59.45,3694,-6375,3786,-1,0,0
-166.32,26.44,-59.46,3691,-6383,3777,-1,0,-1
-166.31,26.44,-59.47,3692,-6394,3774,-1,0,-1
-166.30,26.44,-59.47,3698,-6388,3778,-1,0,-1
-166.30,26.44,-59.47,3701,-6386,3782,-1,0,-1
-166.30,26.43,-59.46,3699,-6381,3796,-1,0,-1
-166.30,26.42,-59.47,3704,-6373,3796,-1,0,0
-166.29,26.41,-59.48,3689,-6373,3789,-1,0,0
-166.28,26.41,-59.49,3690,-6374,3791,-1,0,-1
-166.27,26.40,-59.50,3684,-6391,3780,-1,0,-1
-166.26,26.40,-59.52,3696,-6399,3770,-1,0,-1
-166.25,26.41,-59.52,3708,-6398,3770,-1,0,-1
-166.24,26.40,-59.52,3708,-6389,3776,-1,0,0
-166.24,26.39,-59.52,3707,-6387,3779,-1,0,0
-166.23,26.38,-59.53,3700,-6385,3772,-1,0,0
-166.23,26.36,-59.54,3685,-6390,3764,-1,0,0
-166.23,26.35,-59.55,3683,-6395,3765,-1,0,0
-166.23,26.35,-59.55,3677,-6393,3773,-1,0,-1
-166.22,26.34,-59.55,3688,-6390,3777,-1,0,-1
-166.21,26.34,-59.56,3702,-6388,3785,-1,0,-1
-166.21,26.34,-59.56,3691,-6374,3780,-1,0,0
-166.20,26.34,-59.57,3687,-6370,3775,-1,0,0
-166.19,26.33,-59.58,3689,-6378,3774,-1,0,0
-166.19,26.32,-59.60,3690,-6386,3776,-1,0,0
-166.18,26.32,-59.62,3682,-6399,3762,-1,0,-1
-166.18,26.31,-59.62,3688,-6410,3756,-1,0,-1
-166.16,26.31,-59.62,3691,-6407,3754,-1,0,0
-166.16,26.30,-59.62,3679,-6404,3752,-1,0,-1
-166.16,26.30,-59.62,3678,-6400,3756,-1,0,-1
-166.15,26.29,-59.63,3679,-6399,3754,-1,0,-1
-166.15,26.29,-59.62,3687,-6404,3771,-1,0,0
-166.15,26.28,-59.61,3684,-6397,3784,-1,0,0
-166.16,26.27,-59.60,3680,-6395,3793,-1,0,0
-166.16,26.26,-59.60,3682,-6398,3792,-1,0,-1
-166.15,26.26,-59.61,3677,-6391,3791,-1,0,0
-166.15,26.24,-59.61,3664,-6393,3790,-1,0,0
-166.15,26.23,-59.63,3664,-6392,3783,-1,0,0
-166.13,26.23,-59.65,3667,-6385,3768,-1,0,0
-166.12,26.23,-59.67,3667,-6401,3756,-1,0,0
-166.11,26.23,-59.69,3677,-6414,3754,-1,0,0
-166.11,26.23,-59.69,3678,-6428,3751,-1,0,0
-166.11,26.22,-59.70,3678,-6426,3746,-1,0,0
-166.10,26.22,-59.70,3672,-6420,3741,-1,0,0
-166.10,26.21,-59.70,3669,-6413,3751,-1,0,-1
-166.11,26.20,-59.69,3671,-6408,3758,0,0,0
-166.11,26.19,-59.68,3657,-6401,3762,-1,0,-1
-166.10,26.19,-59.68,3662,-6405,3761,-1,0,-1
-166.10,26.20,-59.69,3666,-6400,3770,-1,-1,-1
-166.10,26.20,-59.69,3668,-6397,3772,-1,-1,0
-166.10,26.20,-59.69,3668,-6397,3762,-1,-1,0
-166.09,26.21,-59.70,3667,-6404,3765,-1,-1,-1
-166.09,26.21,-59.70,3665,-6409,3759,-1,-1,-1
-166.08,26.21,-59.71,3671,-6415,3754,0,-1,-1
-166.09,26.21,-59.70,3677,-6405,3767,-1,-1,-1
-166.07,26.22,-59.70,3681,-6412,3767,0,-1,-1
-166.08,26.22,-59.70,3677,-6413,3766,0,-1,-1
-166.07,26.23,-59.69,3675,-6408,3760,0,-1,-1
-166.07,26.24,-59.69,3668,-6409,3761,0,-1,-1
-166.07,26.24,-59.69,3672,-6407,3764,0,-1,-1
-166.06,26.25,-59.69,3681,-6407,3766,0,-1,-1
-166.06,26.26,-59.68,3685,-6399,3776,0,-1,-1
-166.06,26.26,-59.68,3678,-6396,3780,-1,-1,0
-166.06,26.26,-59.69,3659,-6394,3777,-1,-1,-1
-166.05,26.27,-59.70,3666,-6406,3760,-1,-1,-1
-166.05,26.28,-59.70,3675,-6402,3760,0,-1,-1
-166.05,26.29,-59.68,3691,-6406,3762,0,-1,-1
-166.04,26.30,-59.68,3693,-6406,3769,0,-1,0
-166.04,26.30,-59.68,3684,-6402,3767,0,-1,-1
-166.05,26.30,-59.67,3679,-6398,3766,0,-1,0
-166.05,26.30,-59.67,3668,-6406,3763,0,-1,-1
-166.05,26.31,-59.66,3672,-6407,3765,0,-1,-1
-166.05,26.32,-59.65,3682,-6411,3764,0,-1,-1
-166.04,26.33,-59.65,3695,-6408,3769,0,-1,-1
-166.03,26.34,-59.64,3710,-6405,3774,0,-1,-1
-166.03,26.34,-59.64,3708,-6392,3776,-1,-1,0
-166.03,26.35,-59.64,3694,-6384,3777,-1,-1,0
-166.03,26.35,-59.65,3685,-6382,3763,-1,-1,0
-166.03,26.35,-59.65,3680,-6384,3761,-1,-1,-1
-166.02,26.36,-59.66,3687,-6397,3756,-1,-1,0
-166.02,26.36,-59.66,3692,-6399,3759,0,-1,0
-166.02,26.37,-59.65,3692,-6396,3756,0,-1,0
-166.02,26.37,-59.64,3687,-6401,3762,0,-1,-1
-166.02,26.37,-59.64,3686,-6396,3764,0,-1,-1
-166.02,26.37,-59.64,3690,-6387,3763,0,-1,-1
-166.02,26.38,-59.63,3691,-6386,3758,0,-1,0
-166.01,26.39,-59.62,3696,-6393,3758,0,-1,0
-166.02,26.38,-59.62,3699,-6399,3762,0,-1,0
-166.02,26.39,-59.62,3700,-6391,3773,0,-1,0
-166.03,26.39,-59.61,3686,-6384,3784,-1,-1,-1
-166.02,26.39,-59.61,3691,-6375,3778,-1,-1,0
-166.02,26.39,-59.62,3688,-6374,3782,-1,-1,0
-166.01,26.40,-59.63,3683,-6375,3764,-1,-1,0
-166.01,26.40,-59.64,3694,-6391,3757,-1,-1,-1
-166.01,26.40,-59.64,3689,-6396,3759,0,-1,0
-166.02,26.40,-59.64,3689,-6404,3757,0,-1,-1
-166.01,26.41,-59.64,3701,-6411,3755,0,-1,-1
-166.00,26.42,-59.63,3707,-6401,3755,0,0,-1
-166.01,26.42,-59.61,3708,-6391,3766,0,0,-1
-166.02,26.42,-59.60,3690,-6389,3776,0,0,-1
-166.01,26.42,-59.59,3697,-6380,3776,-1,-1,-1
-166.02,26.42,-59.59,3692,-6376,3781,0,-1,0
-166.02,26.42,-59.59,3690,-6378,3779,-1,-1,0
-166.02,26.42,-59.59,3695,-6383,3783,-1,-1,0
-166.02,26.43,-59.60,3703,-6383,3779,-1,-1,-1
-166.01,26.43,-59.60,3708,-6390,3778,-1,-1,-1
-166.00,26.44,-59.60,3709,-6396,3756,-1,-1,-1
-166.00,26.44,-59.60,3701,-6391,3761,0,0,-1
-166.00,26.44,-59.59,3701,-6390,3764,0,0,-1
-166.01,26.44,-59.59,3701,-6388,3769,0,0,-1
-166.01,26.44,-59.59,3698,-6389,3778,0,0,0
-166.01,26.44,-59.58,3695,-6386,3775,0,0,0
-166.01,26.44,-59.58,3691,-6386,3781,-1,0,0
-166.01,26.44,-59.58,3694,-6372,3775,-1,-1,-1
-166.01,26.44,-59.58,3696,-6378,3774,-1,-1,-1
-166.01,26.45,-59.57,3698,-6379,3771,-1,-1,-1
-166.01,26.44,-59.58,3703,-6394,3764,-1,-1,-1
-166.01,26.45,-59.57,3709,-6397,3770,0,0,0
-166.01,26.45,-59.57,3703,-6392,3780,-1,0,0
-166.01,26.45,-59.57,3700,-6383,3785,-1,-1,0
-166.01,26.44,-59.58,3703,-6386,3770,-1,-1,-1
-166.00,26.45,-59.57,3706,-6388,3759,0,-1,-1
-166.00,26.46,-59.57,3718,-6392,3765,0,0,-1
-166.00,26.46,-59.56,3716,-6386,3783,0,0,0
-166.01,26.45,-59.55,3704,-6386,3786,-1,-1,0
-166.01,26.45,-59.55,3709,-6382,3780,-1,0,0
-166.01,26.45,-59.55,3691,-6380,3769,0,0,0
-166.01,26.45,-59.54,3683,-6383,3769,-1,-1,-1
-166.01,26.45,-59.54,3686,-6396,3761,-1,-1,-1
-166.01,26.45,-59.54,3704,-6397,3769,0,-1,-1
-166.01,26.46,-59.53,3703,-6389,3775,0,-1,-1
-166.00,26.47,-59.53,3714,-6389,3779,0,-1,-1
-166.00,26.47,-59.52,3710,-6375,3768,-1,-1,0
-166.00,26.47,-59.52,3707,-6372,3769,-1,-1,0
-166.01,26.46,-59.52,3698,-6367,3765,-1,-1,0
-166.00,26.47,-59.53,3707,-6376,3770,-1,-1,0
-166.01,26.47,-59.53,3717,-6386,3774,0,-1,0
-166.01,26.47,-59.52,3705,-6385,3772,0,0,0
-166.01,26.47,-59.52,3703,-6387,3783,0,0,0
-166.02,26.47,-59.51,3700,-6385,3777,0,-1,-1
-166.02,26.47,-59.50,3702,-6386,3773,0,-1,-1
-166.02,26.47,-59.50,3699,-6383,3775,0,-1,-1
-166.03,26.47,-59.49,3703,-6384,3780,0,-1,-1
-166.03,26.48,-59.47,3705,-6384,3784,0,-1,0
-166.04,26.48,-59.46,3707,-6379,3796,0,-1,0
-166.05,26.48,-59.44,3706,-6373,3797,0,0,0
-166.05,26.48,-59.43,3705,-6361,3807,0,0,0
-166.06,26.48,-59.42,3695,-6345,3797,0,-1,0
-166.06,26.48,-59.43,3695,-6352,3781,-1,-1,0
-166.06,26.48,-59.43,3697,-6365,3769,-1,-1,0
-166.06,26.49,-59.44,3705,-6381,3756,0,-1,0
-166.06,26.49,-59.43,3709,-6385,3772,0,-1,0
-166.07,26.50,-59.43,3712,-6393,3766,0,-1,-1
-166.07,26.50,-59.42,3724,-6391,3773,0,-1,-1
-166.08,26.51,-59.39,3721,-6379,3787,0,0,-1
-166.08,26.51,-59.37,3714,-6365,3792,0,0,0
-166.10,26.51,-59.35,3704,-6357,3794,0,-1,-1
-166.10,26.51,-59.33,3707,-6353,3800,0,-1,0
-166.11,26.51,-59.33,3705,-6347,3797,0,-1,0
-166.11,26.51,-59.32,3701,-6350,3806,0,-1,0
-166.11,26.51,-59.31,3702,-6354,3811,0,-1,0
-166.11,26.52,-59.32,3712,-6364,3808,-1,-1,-1
-166.11,26.52,-59.32,3712,-6373,3805,0,-1,-1
-166.11,26.53,-59.32,3714,-6371,3782,0,-1,-1
-166.11,26.53,-59.31,3707,-6366,3791,0,0,0
-166.11,26.53,-59.31,3710,-6358,3802,-1,0,-1
-166.11,26.53,-59.31,3719,-6348,3813,-1,0,0
-166.10,26.53,-59.32,3719,-6349,3809,-1,0,0
-166.09,26.53,-59.33,3723,-6366,3800,-1,0,-1
-166.09,26.52,-59.34,3727,-6371,3796,-1,0,0
-166.09,26.51,-59.35,3716,-6366,3801,-1,0,0
-166.08,26.50,-59.36,3696,-6365,3804,-1,0,0
-166.06,26.50,-59.39,3695,-6368,3784,-1,0,-1
-166.05,26.51,-59.40,3706,-6370,3770,-1,0,-1
-166.04,26.51,-59.40,3719,-6368,3779,-1,0,-1
-166.01,26.51,-59.42,3738,-6364,3784,-1,0,-1
-166.01,26.50,-59.43,3738,-6364,3785,-1,0,0
-166.00,26.50,-59.44,3725,-6372,3778,-1,0,0
-166.00,26.48,-59.44,3701,-6375,3791,-1,0,0
-166.01,26.46,-59.45,3682,-6378,3777,-1,0,0
-166.00,26.45,-59.46,3672,-6381,3771,-1,0,-1
-165.98,26.46,-59.46,3692,-6389,3779,-1,0,-1
-165.97,26.47,-59.46,3709,-6378,3794,-1,0,-1
-165.96,26.46,-59.46,3715,-6363,3796,-1,0,-1
-165.95,26.46,-59.46,3713,-6355,3807,-1,0,-1
-165.94,26.46,-59.48,3709,-6357,3801,-1,0,0
-165.94,26.45,-59.50,3699,-6367,3789,-1,0,0
-165.93,26.44,-59.52,3695,-6380,3784,-1,0,0
-165.92,26.44,-59.53,3699,-6395,3793,-1,0,0
-165.92,26.43,-59.53,3706,-6402,3781,-1,0,-1
-165.91,26.43,-59.54,3700,-6405,3777,-1,0,-1
-165.91,26.42,-59.54,3700,-6394,3770,-1,0,-1
-165.90,26.42,-59.54,3685,-6385,3777,-1,0,-1
-165.90,26.41,-59.54,3682,-6381,3773,-1,0,-1
-165.89,26.41,-59.54,3704,-6391,3780,-1,0,-1
-165.89,26.40,-59.53,3705,-6394,3784,-1,0,0
-165.89,26.39,-59.53,3704,-6388,3786,-1,0,0
-165.89,26.39,-59.53,3704,-6383,3787,-1,0,0
-165.88,26.38,-59.54,3696,-6374,3788,-1,0,0
-165.88,26.37,-59.55,3686,-6369,3785,-1,0,0
-165.86,26.37,-59.57,3686,-6360,3774,-1,0,-1
-165.85,26.37,-59.59,3697,-6375,3765,-1,0,-1
-165.84,26.37,-59.60,3696,-6390,3758,-1,0,0
-165.83,26.36,-59.61,3698,-6407,3761,-1,0,-1
-165.83,26.36,-59.62,3703,-6414,3749,-1,0,-1
-165.83,26.35,-59.61,3700,-6404,3754,-1,0,-1
-165.83,26.34,-59.60,3694,-6391,3766,-1,0,-1
-165.82,26.33,-59.60,3692,-6388,3772,-1,0,-1
-165.82,26.33,-59.60,3682,-6383,3774,-1,0,0
-165.82,26.31,-59.59,3683,-6385,3779,-1,0,0
-165.82,26.31,-59.60,3685,-6387,3780,-1,0,0
-165.82,26.31,-59.60,3683,-6388,3795,-1,0,0
-165.81,26.30,-59.62,3685,-6387,3787,-1,0,0
-165.81,26.30,-59.62,3679,-6400,3779,-1,0,0
-165.79,26.30,-59.63,3682,-6398,3779,-1,0,0
-165.79,26.29,-59.64,3690,-6398,3770,-1,0,-1
-165.79,26.28,-59.64,3681,-6395,3768,-1,0,-1
-165.79,26.28,-59.64,3689,-6405,3763,-1,0,-1
-165.77,26.28,-59.64,3690,-6410,3767,-1,0,0
-165.78,26.26,-59.64,3684,-6407,3774,-1,0,0
-165.78,26.25,-59.64,3666,-6396,3787,-1,0,0
-165.78,26.24,-59.65,3659,-6396,3782,-1,0,0
-165.77,26.24,-59.67,3670,-6399,3766,-1,0,-1
-165.76,26.24,-59.66,3680,-6401,3768,-1,0,-1
-165.76,26.23,-59.67,3680,-6396,3775,-1,0,-1
-165.75,26.23,-59.67,3678,-6401,3779,-1,0,0
-165.75,26.23,-59.67,3675,-6403,3779,-1,0,0
-165.76,26.21,-59.67,3675,-6402,3767,-1,0,0
-165.76,26.20,-59.68,3664,-6409,3764,-1,0,0
-165.75,26.20,-59.68,3672,-6413,3769,-1,0,-1
-165.75,26.19,-59.67,3670,-6413,3773,-1,0,-1
-165.75,26.19,-59.67,3678,-6413,3778,0,0,-1
-165.75,26.19,-59.66,3672,-6406,3780,-1,0,0
-165.74,26.19,-59.66,3668,-6401,3789,-1,0,0
-165.75,26.18,-59.67,3663,-6392,3784,-1,0,-1
-165.74,26.18,-59.67,3661,-6392,3780,-1,0,0
-165.74,26.18,-59.68,3662,-6399,3767,-1,-1,0
-165.73,26.18,-59.70,3661,-6409,3754,-1,-1,0
-165.73,26.19,-59.70,3668,-6420,3760,-1,-1,-1
-165.73,26.19,-59.70,3668,-6421,3762,0,-1,0
-165.73,26.19,-59.70,3664,-6410,3757,-1,-1,-1
-165.72,26.20,-59.70,3664,-6413,3753,0,-1,-1
-165.72,26.21,-59.70,3667,-6421,3755,0,-1,-1
-165.72,26.21,-59.69,3682,-6429,3765,0,-1,-1
-165.73,26.21,-59.67,3686,-6414,3767,0,0,-1
-165.72,26.22,-59.66,3675,-6412,3782,0,-1,-1
-165.73,26.22,-59.65,3674,-6409,3790,0,-1,-1
-165.72,26.23,-59.64,3676,-6399,3803,0,-1,-1
-165.72,26.23,-59.64,3667,-6389,3804,-1,-1,-1
-165.71,26.24,-59.64,3661,-6382,3784,-1,-1,-1
-165.70,26.25,-59.67,3661,-6387,3762,-1,-1,0
-165.69,26.26,-59.68,3670,-6397,3743,-1,-1,-1
-165.69,26.27,-59.69,3679,-6415,3749,0,-1,-1
-165.69,26.28,-59.69,3681,-6418,3755,0,-1,-1
-165.68,26.28,-59.69,3687,-6418,3757,0,-1,-1
-165.68,26.29,-59.68,3696,-6420,3757,0,-1,-1
-165.68,26.30,-59.66,3687,-6411,3771,0,0,-1
-165.69,26.29,-59.64,3677,-6403,3773,0,-1,-1
-165.69,26.30,-59.64,3670,-6384,3776,0,-1,-1
-165.69,26.30,-59.63,3682,-6384,3774,0,-1,-1
-165.68,26.31,-59.63,3684,-6388,3770,0,-1,0
-165.68,26.32,-59.63,3684,-6389,3778,-1,-1,0
-165.69,26.32,-59.64,3681,-6383,3779,-1,-1,0
-165.68,26.33,-59.64,3679,-6392,3771,-1,-1,0
-165.68,26.33,-59.65,3688,-6397,3769,-1,-1,-1
-165.67,26.34,-59.65,3691,-6397,3768,-1,-1,0
-165.67,26.35,-59.65,3694,-6399,3763,0,-1,-1
-165.67,26.35,-59.64,3694,-6402,3769,0,-1,0
-165.68,26.34,-59.63,3679,-6399,3762,0,-1,-1
-165.68,26.35,-59.63,3683,-6393,3756,0,-1,-1
-165.67,26.36,-59.62,3685,-6390,3770,0,-1,-1
-165.68,26.36,-59.62,3691,-6385,3773,0,-1,-1
-165.67,26.37,-59.61,3704,-6387,3781,-1,-1,0
-165.67,26.37,-59.61,3701,-6388,3785,-1,-1,0
-165.68,26.37,-59.61,3684,-6388,3781,-1,-1,0
-165.67,26.37,-59.62,3681,-6393,3774,-1,-1,-1
-165.67,26.38,-59.62,3689,-6396,3769,0,-1,-1
-165.66,26.39,-59.61,3696,-6404,3774,0,-1,-1
-165.66,26.39,-59.61,3704,-6400,3769,0,-1,0
-165.66,26.39,-59.61,3701,-6406,3772,-1,-1,0
-165.67,26.39,-59.61,3692,-6399,3770,0,-1,0
-165.67,26.39,-59.61,3684,-6401,3768,0,0,0
-165.67,26.39,-59.60,3680,-6397,3762,0,-1,-1
-165.67,26.39,-59.60,3687,-6401,3767,0,-1,-1
-165.67,26.40,-59.59,3705,-6394,3787,0,-1,-1
-165.68,26.40,-59.58,3709,-6390,3792,0,-1,0
-165.68,26.40,-59.58,3708,-6380,3782,-1,-1,0
-165.67,26.40,-59.58,3691,-6380,3767,-1,-1,0
-165.67,26.40,-59.59,3689,-6375,3759,-1,-1,0
-165.66,26.41,-59.60,3680,-6370,3762,-1,-1,0
-165.67,26.41,-59.60,3690,-6386,3759,-1,-1,0
-165.66,26.41,-59.61,3702,-6399,3765,-1,-1,0
-165.66,26.41,-59.60,3702,-6402,3756,0,0,0
-165.67,26.41,-59.60,3695,-6404,3760,0,0,-1
-165.67,26.41,-59.59,3694,-6384,3757,0,0,0
-165.68,26.41,-59.57,3674,-6378,3762,0,0,-1
-165.67,26.41,-59.58,3680,-6383,3756,0,-1,-1
-165.68,26.42,-59.56,3691,-6377,3762,0,-1,-1
-165.67,26.43,-59.55,3705,-6383,3773,0,0,0
-165.68,26.42,-59.55,3712,-6377,3784,0,0,0
-165.67,26.43,-59.54,3712,-6380,3793,-1,-1,0
-165.67,26.43,-59.54,3705,-6378,3796,-1,0,0
-165.67,26.43,-59.55,3692,-6377,3773,-1,-1,0
-165.67,26.42,-59.56,3691,-6379,3774,-1,-1,0
-165.67,26.43,-59.57,3691,-6382,3767,-1,-1,-1
-165.66,26.43,-59.58,3698,-6391,3754,0,-1,-1
-165.66,26.44,-59.57,3701,-6397,3765,0,-1,-1
-165.66,26.44,-59.56,3710,-6398,3760,0,0,-1
-165.66,26.45,-59.55,3713,-6388,3770,0,0,-1
-165.66,26.44,-59.53,3710,-6383,3784,0,0,-1
-165.66,26.44,-59.52,3700,-6374,3785,0,0,-1
-165.66,26.44,-59.52,3697,-6373,3779,-1,0,0
-165.66,26.44,-59.52,3696,-6373,3772,-1,-1,0
-165.67,26.44,-59.52,3693,-6384,3778,-1,-1,-1
-165.66,26.45,-59.52,3698,-6380,3775,0,-1,0
-165.66,26.46,-59.52,3700,-6374,3768,-1,-1,0
-165.66,26.46,-59.53,3702,-6376,3770,0,-1,-1
-165.66,26.46,-59.52,3707,-6385,3770,0,-1,0
-165.67,26.46,-59.51,3703,-6384,3776,0,0,0
-165.67,26.46,-59.51,3702,-6384,3778,0,0,0
-165.67,26.46,-59.50,3708,-6390,3774,0,-1,-1
-165.68,26.46,-59.49,3711,-6388,3778,0,-1,0
-165.69,26.46,-59.48,3708,-6386,3780,0,0,0
-165.70,26.46,-59.46,3702,-6376,3800,0,-1,0
-165.70,26.46,-59.46,3692,-6381,3798,0,-1,-1
-165.70,26.47,-59.45,3707,-6380,3791,0,-1,-1
-165.70,26.47,-59.45,3712,-6378,3789,0,-1,0
-165.71,26.47,-59.43,3707,-6373,3801,0,-1,0
-165.72,26.47,-59.42,3706,-6371,3802,0,-1,0
-165.72,26.47,-59.42,3707,-6368,3795,0,-1,0
-165.72,26.47,-59.42,3697,-6368,3789,0,-1,-1
-165.72,26.48,-59.41,3699,-6374,3786,0,-1,-1
-165.72,26.49,-59.39,3711,-6369,3787,0,-1,-1
-165.73,26.49,-59.38,3718,-6368,3793,0,-1,0
-165.73,26.49,-59.38,3714,-6374,3791,0,-1,0
-165.74,26.49,-59.36,3709,-6367,3793,0,-1,0
-165.75,26.49,-59.36,3696,-6367,3791,0,-1,0
-165.76,26.48,-59.35,3691,-6370,3787,0,