Yaw,Pitch,Roll,AX,AY,AZ,GX,GY,GZ
-153.04,33.12,-77.73,4541,-6803,1457,-1,-1,0
-153.04,33.12,-77.74,4539,-6805,1460,-1,-1,0
-153.04,33.12,-77.74,4538,-6805,1450,-1,0,0
-153.04,33.12,-77.75,4537,-6807,1453,-1,-1,0
-153.03,33.11,-77.77,4535,-6805,1452,-1,-1,0
-153.02,33.11,-77.80,4535,-6806,1458,-1,-1,0
-153.01,33.11,-77.82,4536,-6811,1453,-1,-1,0
-153.00,33.11,-77.84,4539,-6810,1444,-1,-1,-1
-152.99,33.12,-77.85,4543,-6805,1439,-1,-1,-1
-152.98,33.12,-77.86,4549,-6803,1440,-1,-1,-1
-152.97,33.12,-77.86,4549,-6806,1440,-1,-1,-1
-152.97,33.13,-77.86,4550,-6805,1451,-1,0,0
-152.98,33.12,-77.87,4545,-6812,1443,-1,0,0
-152.98,33.12,-77.87,4537,-6809,1441,0,0,0
-152.98,33.11,-77.87,4531,-6814,1433,0,0,-1
-152.99,33.11,-77.86,4540,-6820,1445,0,0,-1
-152.99,33.11,-77.86,4537,-6815,1449,0,0,-1
-152.98,33.12,-77.87,4539,-6816,1449,-1,-1,-1
-152.98,33.12,-77.87,4542,-6806,1452,-1,-1,-1
-152.96,33.12,-77.89,4540,-6805,1445,-1,-1,-1
-152.96,33.12,-77.89,4542,-6803,1442,0,0,-1
-152.96,33.12,-77.89,4542,-6803,1440,0,0,0
-152.97,33.12,-77.89,4545,-6801,1450,0,0,0
-152.97,33.12,-77.88,4545,-6807,1449,0,0,0
-152.96,33.13,-77.88,4545,-6813,1443,0,0,-1
-152.96,33.13,-77.88,4538,-6812,1442,0,0,-1
-152.96,33.13,-77.88,4535,-6806,1440,0,0,-1
-152.96,33.13,-77.88,4539,-6808,1429,0,0,0
-152.97,33.12,-77.87,4543,-6807,1432,0,0,0
-152.97,33.13,-77.86,4543,-6805,1437,0,0,-1
-152.98,33.12,-77.86,4538,-6805,1442,0,0,-1
-152.98,33.12,-77.85,4547,-6808,1450,0,0,-1
-152.99,33.13,-77.84,4543,-6806,1455,0,0,-1
-152.98,33.12,-77.85,4534,-6808,1454,-1,-1,-1
-152.98,33.13,-77.85,4540,-6802,1450,-1,-1,0
-152.98,33.12,-77.86,4537,-6803,1448,0,-1,0
-152.98,33.12,-77.86,4540,-6808,1438,0,0,0
-152.98,33.12,-77.85,4544,-6808,1438,0,0,0
-152.98,33.12,-77.85,4547,-6808,1445,0,0,0
-152.99,33.13,-77.84,4551,-6803,1443,0,0,-1
-152.99,33.13,-77.84,4545,-6802,1439,0,0,-1
-153.00,33.12,-77.83,4537,-6807,1435,0,0,0
-153.00,33.12,-77.83,4537,-6811,1432,0,0,-1
-153.00,33.12,-77.83,4533,-6809,1432,0,0,-1
-153.00,33.12,-77.82,4533,-6808,1437,0,0,-1
-153.00,33.12,-77.82,4535,-6799,1442,0,0,-1
-153.00,33.13,-77.82,4543,-6802,1445,0,0,-1
-153.00,33.13,-77.82,4538,-6803,1450,0,0,0
-153.00,33.13,-77.82,4543,-6809,1452,0,0,-1
-153.00,33.13,-77.82,4537,-6805,1457,0,0,-1
-153.00,33.13,-77.82,4547,-6804,1454,0,0,-1
-153.00,33.13,-77.81,4543,-6807,1449,0,0,0
-153.01,33.12,-77.81,4547,-6810,1446,0,0,0
-153.01,33.12,-77.80,4544,-6810,1448,0,0,0
-153.01,33.12,-77.80,4539,-6811,1457,0,0,-1
-153.02,33.12,-77.79,4539,-6808,1453,0,0,0
-153.02,33.12,-77.79,4536,-6808,1459,0,0,-1
-153.02,33.12,-77.78,4541,-6808,1461,0,0,-1
-153.02,33.12,-77.78,4537,-6801,1457,0,0,-1
-153.02,33.12,-77.78,4536,-6804,1455,0,0,0
-153.02,33.13,-77.77,4538,-6802,1457,0,0,-1
-153.02,33.13,-77.77,4538,-6812,1457,-1,-1,-1
-153.02,33.12,-77.78,4538,-6814,1452,0,0,-1
-153.02,33.13,-77.77,4543,-6811,1457,0,0,-1
-153.02,33.13,-77.76,4543,-6806,1457,0,0,-1
-153.02,33.13,-77.75,4549,-6804,1460,0,0,-1
-153.04,33.13,-77.74,4548,-6805,1470,0,0,0
-153.04,33.13,-77.73,4546,-6806,1457,0,0,0
-153.05,33.13,-77.73,4543,-6809,1463,0,0,0
-153.07,33.11,-77.72,4541,-6815,1460,0,0,0
-153.08,33.11,-77.70,4537,-6813,1468,0,0,0
-153.09,33.10,-77.69,4539,-6815,1472,0,0,-1
-153.09,33.10,-77.69,4543,-6816,1472,-1,-1,-1
-153.08,33.11,-77.70,4545,-6810,1467,-1,-1,-1
-153.07,33.12,-77.70,4551,-6802,1458,-1,-1,-1
-153.06,33.12,-77.72,4555,-6797,1447,0,0,-1
-153.06,33.13,-77.72,4552,-6797,1453,0,0,0
-153.06,33.12,-77.71,4543,-6799,1459,0,0,0
-153.07,33.13,-77.70,4544,-6800,1462,0,0,0
-153.08,33.12,-77.69,4544,-6802,1474,0,0,0
-153.08,33.12,-77.69,4543,-6802,1477,0,0,0
-153.08,33.12,-77.68,4542,-6801,1472,0,0,0
-153.08,33.12,-77.68,4545,-6807,1469,0,0,0
-153.09,33.12,-77.66,4544,-6805,1470,0,0,0
-153.10,33.11,-77.66,4538,-6807,1474,0,0,0
-153.11,33.11,-77.65,4538,-6806,1469,0,0,0
-153.11,33.11,-77.64,4537,-6812,1467,0,0,-1
-153.11,33.11,-77.63,4540,-6814,1470,0,0,-1
-153.11,33.11,-77.63,4537,-6805,1479,0,-1,-1
-153.11,33.11,-77.63,4542,-6801,1479,-1,-1,-1
-153.11,33.12,-77.64,4546,-6799,1473,-1,-1,-1
-153.11,33.12,-77.64,4547,-6801,1468,0,0,0
-153.11,33.12,-77.64,4549,-6804,1464,0,0,0
-153.11,33.12,-77.63,4551,-6806,1457,0,0,0
-153.11,33.12,-77.63,4543,-6809,1462,0,0,-1
-153.12,33.12,-77.62,4543,-6805,1474,0,0,0
-153.13,33.12,-77.61,4540,-6803,1477,0,0,0
-153.13,33.11,-77.61,4536,-6808,1474,0,0,0
-153.13,33.11,-77.60,4535,-6801,1480,0,0,0
-153.14,33.11,-77.58,4532,-6804,1466,0,0,0
-153.14,33.11,-77.58,4539,-6803,1472,0,0,-1
-153.14,33.11,-77.58,4537,-6809,1477,0,0,0
-153.15,33.11,-77.58,4532,-6809,1478,0,0,-1
-153.14,33.12,-77.59,4545,-6809,1482,-1,-1,-1
-153.14,33.12,-77.59,4544,-6805,1475,-1,-1,-1
-153.14,33.12,-77.59,4547,-6802,1478,0,0,-1
-153.14,33.12,-77.59,4544,-6802,1472,0,-1,-1
-153.14,33.12,-77.59,4536,-6805,1469,0,0,-1
-153.14,33.11,-77.59,4540,-6804,1478,0,0,-1
-153.14,33.11,-77.59,4543,-6802,1477,0,0,0
-153.15,33.11,-77.58,4544,-6807,1475,0,0,0
-153.15,33.11,-77.58,4544,-6808,1486,0,0,0
-153.15,33.12,-77.57,4539,-6805,1486,0,0,0
-153.15,33.11,-77.56,4541,-6801,1486,0,0,-1
-153.15,33.12,-77.56,4539,-6804,1498,0,0,-1
-153.16,33.11,-77.56,4535,-6807,1491,-1,-1,-1
-153.16,33.11,-77.56,4535,-6815,1483,-1,-1,-1
-153.16,33.11,-77.57,4545,-6805,1488,0,0,-1
-153.15,33.12,-77.56,4548,-6804,1489,0,0,-1
-153.15,33.12,-77.55,4544,-6796,1491,0,0,-1
-153.16,33.12,-77.54,4541,-6796,1497,0,0,0
-153.17,33.12,-77.53,4538,-6797,1489,0,0,0
-153.18,33.11,-77.52,4539,-6798,1487,0,0,0
-153.20,33.10,-77.51,4533,-6806,1488,0,0,0
-153.20,33.10,-77.51,4537,-6796,1492,0,0,0
-153.20,33.10,-77.50,4538,-6801,1500,0,0,0
-153.20,33.10,-77.50,4533,-6801,1507,-1,0,-1
-153.20,33.10,-77.51,4532,-6800,1507,-1,-1,-1
-153.19,33.11,-77.52,4538,-6797,1511,-1,-1,-1
-153.18,33.11,-77.53,4539,-6799,1505,-1,-1,0
-153.18,33.10,-77.54,4539,-6807,1498,-1,-1,0
-153.18,33.10,-77.55,4537,-6811,1486,-1,-1,0
-153.17,33.10,-77.56,4548,-6807,1479,-1,-1,0
-153.17,33.10,-77.57,4545,-6802,1483,-1,-1,0
-153.16,33.11,-77.58,4540,-6806,1491,-1,-1,-1
-153.16,33.10,-77.59,4541,-6800,1488,-1,-1,0
-153.15,33.10,-77.59,4537,-6802,1484,-1,0,0
-153.16,33.10,-77.59,4536,-6809,1484,-1,0,0
-153.16,33.10,-77.60,4536,-6809,1495,-1,0,0
-153.16,33.10,-77.60,4534,-6808,1493,-1,0,0
-153.16,33.10,-77.60,4538,-6804,1494,-1,0,0
-153.16,33.09,-77.61,4529,-6798,1487,-1,0,-1
-153.15,33.10,-77.62,4534,-6795,1487,-1,-1,0
-153.14,33.10,-77.63,4542,-6801,1494,-1,-1,0
-153.13,33.10,-77.64,4544,-6800,1496,-1,-1,0
-153.12,33.10,-77.67,4543,-6802,1485,-1,-1,0
-153.11,33.10,-77.67,4544,-6806,1481,-1,0,0
-153.11,33.10,-77.68,4542,-6802,1478,-1,0,0
-153.11,33.10,-77.68,4543,-6802,1482,-1,-1,0
-153.11,33.10,-77.68,4534,-6809,1483,-1,0,0
-153.12,33.09,-77.69,4533,-6809,1485,-1,-1,0
-153.12,33.09,-77.69,4537,-6810,1486,-1,0,0
-153.11,33.09,-77.70,4536,-6807,1487,-1,0,-1
-153.11,33.09,-77.70,4533,-6806,1478,-1,-1,0
-153.10,33.09,-77.71,4534,-6809,1478,-1,-1,0
-153.10,33.09,-77.72,4536,-6811,1476,-1,-1,-1
-153.09,33.09,-77.73,4532,-6806,1481,-1,-1,0
-153.09,33.09,-77.75,4538,-6803,1473,-1,-1,0
-153.07,33.09,-77.77,4538,-6805,1472,-1,-1,0
-153.07,33.09,-77.78,4541,-6804,1475,-1,-1,0
-153.06,33.09,-77.79,4535,-6811,1480,-1,-1,0
-153.06,33.09,-77.80,4528,-6815,1465,-1,-1,-1
-153.06,33.09,-77.81,4537,-6814,1468,-1,0,-1
-153.05,33.09,-77.81,4532,-6816,1468,-1,0,0
-153.05,33.09,-77.81,4535,-6821,1476,-1,0,-1
-153.05,33.09,-77.82,4539,-6815,1478,-1,-1,0
-153.05,33.09,-77.83,4533,-6818,1474,-1,-1,0
-153.04,33.08,-77.85,4531,-6812,1474,-1,-1,-1
-153.03,33.09,-77.86,4531,-6809,1470,-1,-1,-1
-153.02,33.09,-77.87,4538,-6815,1467,-1,0,-1
-153.02,33.09,-77.88,4533,-6815,1465,-1,-1,-1
-153.01,33.09,-77.89,4536,-6811,1461,-1,-1,0
-153.00,33.09,-77.90,4538,-6811,1456,-1,-1,0
-153.01,33.08,-77.91,4530,-6815,1448,-1,-1,0
-153.01,33.08,-77.92,4535,-6814,1453,-1,0,0
-153.01,33.08,-77.92,4534,-6810,1456,-1,0,-1
-153.00,33.08,-77.93,4535,-6813,1456,-1,0,-1
-152.99,33.09,-77.93,4537,-6810,1466,-1,-1,-1
-152.99,33.09,-77.94,4538,-6807,1466,-1,-1,-1
-152.97,33.09,-77.96,4540,-6809,1459,-1,-1,-1
-152.97,33.09,-77.97,4543,-6800,1453,-1,-1,0
-152.96,33.09,-77.98,4539,-6801,1449,-1,0,0
-152.96,33.09,-77.99,4541,-6799,1447,-1,-1,-1
-152.95,33.09,-78.00,4542,-6801,1452,-1,-1,0
-152.95,33.09,-78.01,4542,-6810,1457,-1,-1,-1
-152.94,33.10,-78.02,4542,-6805,1453,-1,-1,-1
-152.93,33.10,-78.03,4540,-6813,1446,-1,-1,0
-152.93,33.10,-78.04,4538,-6814,1446,-1,-1,0
-152.92,33.10,-78.04,4538,-6808,1440,-1,0,-1
-152.92,33.10,-78.04,4543,-6809,1441,0,0,-1
-152.92,33.10,-78.04,4544,-6811,1433,0,0,-1
-152.93,33.10,-78.03,4543,-6810,1435,0,0,0
-152.93,33.10,-78.03,4535,-6813,1444,0,0,-1
-152.93,33.10,-78.03,4541,-6813,1446,-1,-1,-1
-152.93,33.10,-78.03,4542,-6808,1443,-1,-1,0
-152.91,33.10,-78.05,4546,-6813,1438,-1,-1,-1
-152.91,33.10,-78.05,4542,-6815,1446,-1,-1,0
-152.91,33.10,-78.06,4541,-6811,1438,-1,-1,0
-152.90,33.11,-78.06,4541,-6813,1430,-1,-1,-1
-152.90,33.11,-78.06,4539,-6814,1439,0,0,-1
-152.90,33.11,-78.07,4543,-6813,1438,-1,-1,0
-152.91,33.10,-78.07,4540,-6812,1438,0,0,0
-152.91,33.10,-78.06,4536,-6815,1440,0,0,0
-152.91,33.10,-78.06,4540,-6821,1446,0,0,-1
-152.92,33.10,-78.04,4547,-6821,1448,0,0,-1
-152.92,33.10,-78.03,4548,-6816,1462,0,0,-1
-152.92,33.10,-78.03,4543,-6808,1457,0,0,-1
-152.92,33.10,-78.03,4537,-6813,1447,-1,-1,-1
-152.92,33.10,-78.04,4548,-6812,1445,-1,0,0
-152.91,33.10,-78.04,4540,-6807,1452,-1,0,-1
-152.92,33.10,-78.04,4538,-6806,1456,-1,-1,-1
-152.92,33.10,-78.03,4533,-6807,1458,0,0,-1
-152.92,33.10,-78.03,4533,-6811,1448,0,0,-1
-152.93,33.10,-78.02,4535,-6811,1457,0,0,-1
-152.93,33.10,-78.02,4541,-6805,1455,0,0,0
-152.93,33.10,-78.01,4536,-6802,1450,0,0,0
-152.93,33.10,-78.01,4535,-6802,1455,-1,-1,-1
-152.93,33.10,-78.01,4535,-6807,1457,-1,-1,0
-152.93,33.10,-78.01,4534,-6815,1443,-1,0,-1
-152.93,33.10,-78.02,4536,-6816,1448,-1,0,-1
-152.92,33.11,-78.01,4543,-6810,1446,-1,0,-1
-152.92,33.11,-78.01,4538,-6811,1445,0,0,0
-152.92,33.11,-78.01,4536,-6802,1450,0,-1,0
-152.93,33.11,-78.00,4533,-6804,1456,0,0,0
-152.93,33.11,-78.00,4541,-6815,1448,0,0,0
-152.94,33.10,-77.99,4545,-6814,1444,0,0,0
-152.94,33.10,-77.98,4540,-6813,1450,0,0,-1
-152.95,33.10,-77.97,4538,-6809,1466,0,0,-1
-152.95,33.10,-77.97,4537,-6816,1464,-1,-1,-1
-152.95,33.10,-77.97,4534,-6820,1460,-1,-1,-1
-152.94,33.11,-77.97,4533,-6815,1457,-1,-1,-1
-152.94,33.11,-77.98,4535,-6810,1455,-1,0,-1
-152.94,33.10,-77.97,4539,-6811,1460,0,0,0
-152.95,33.11,-77.96,4538,-6809,1458,0,0,0
-152.95,33.10,-77.96,4542,-6812,1457,0,0,0
-152.95,33.10,-77.96,4543,-6808,1457,0,0,-1
-152.95,33.10,-77.96,4543,-6806,1460,0,0,-1
-152.96,33.10,-77.95,4542,-6809,1470,0,0,-1
-152.95,33.11,-77.95,4545,-6804,1462,0,0,-1
-152.95,33.11,-77.94,4546,-6806,1454,0,0,-1
-152.96,33.11,-77.94,4541,-6808,1457,0,0,-1
-152.96,33.11,-77.92,4544,-6808,1458,0,0,0
-152.97,33.11,-77.91,4540,-6807,1458,0,0,-1
-152.98,33.10,-77.90,4542,-6804,1464,0,0,-1
-152.98,33.10,-77.89,4542,-6802,1466,0,-1,-1
-152.98,33.11,-77.90,4547,-6801,1468,-1,-1,-1
-152.98,33.11,-77.90,4545,-6808,1472,-1,-1,-1
-152.96,33.12,-77.91,4547,-6810,1464,-1,-1,-1
-152.97,33.11,-77.90,4544,-6808,1459,0,0,0
-152.97,33.11,-77.90,4538,-6808,1458,0,0,-1
-152.98,33.11,-77.90,4538,-6811,1462,0,0,0
-152.98,33.11,-77.90,4535,-6808,1467,0,0,0
-152.98,33.11,-77.89,4540,-6799,1469,0,0,0
-152.98,33.11,-77.89,4536,-6804,1461,0,0,-1
-152.99,33.11,-77.87,4532,-6806,1454,0,0,-1
-152.99,33.11,-77.87,4538,-6809,1469,0,0,-1
-152.99,33.11,-77.87,4540,-6805,1459,0,0,-1
-152.99,33.11,-77.86,4543,-6810,1454,0,0,-1
-152.99,33.11,-77.86,4538,-6809,1460,0,0,-1
-152.99,33.11,-77.86,4542,-6805,1464,-1,0,0
-152.99,33.11,-77.86,4542,-6804,1469,0,0,-1
-152.99,33.11,-77.86,4541,-6803,1457,0,0,-1
-152.99,33.12,-77.85,4545,-6801,1468,0,0,-1
-153.00,33.12,-77.84,4542,-6806,1474,0,0,-1
-153.00,33.12,-77.84,4540,-6797,1461,0,0,0
-153.00,33.12,-77.82,4539,-6805,1466,0,0,0
-153.01,33.12,-77.82,4539,-6803,1474,0,0,0
-153.02,33.11,-77.81,4543,-6803,1471,0,0,-1
-153.02,33.12,-77.79,4542,-6806,1478,0,-1,0
-153.02,33.12,-77.79,4537,-6806,1479,0,-1,-1
-153.02,33.12,-77.79,4535,-6801,1475,0,0,-1
-153.02,33.12,-77.78,4537,-6801,1473,0,0,0
-153.02,33.12,-77.78,4541,-6802,1472,0,0,-1
-153.03,33.12,-77.78,4538,-6800,1474,0,0,-1
-153.03,33.12,-77.78,4545,-6797,1481,0,0,-1
-153.03,33.12,-77.78,4542,-6797,1477,0,0,-1
-153.03,33.12,-77.77,4543,-6798,1487,0,0,-1
-153.03,33.13,-77.74,4542,-6801,1491,0,0,-1
-153.04,33.12,-77.73,4542,-6797,1490,0,0,0
-153.05,33.12,-77.72,4535,-6797,1485,0,0,0
-153.06,33.12,-77.71,4534,-6799,1486,0,0,0
-153.07,33.11,-77.70,4539,-6802,1484,0,0,0
-153.08,33.11,-77.69,4534,-6807,1486,0,0,0
-153.09,33.11,-77.68,4533,-6810,1492,0,-1,-1
-153.09,33.11,-77.68,4537,-6809,1501,-1,-1,-1
-153.08,33.11,-77.69,4539,-6806,1501,-1,-1,-1
-153.07,33.12,-77.69,4537,-6805,1501,-1,-1,-1
-153.07,33.11,-77.70,4545,-6804,1488,-1,0,-1
-153.07,33.11,-77.70,4542,-6808,1490,-1,-1,0
-153.07,33.11,-77.70,4544,-6803,1491,-1,-1,0
-153.07,33.11,-77.71,4540,-6798,1491,-1,-1,0
-153.07,33.11,-77.71,4540,-6794,1502,-1,-1,0
-153.07,33.11,-77.71,4536,-6796,1502,-1,-1,0
-153.06,33.11,-77.72,4537,-6804,1506,-1,-1,0
-153.07,33.11,-77.71,4534,-6802,1503,-1,0,-1
-153.07,33.11,-77.71,4528,-6801,1495,-1,0,-1
-153.06,33.11,-77.72,4535,-6804,1488,-1,0,0
-153.06,33.11,-77.72,4530,-6797,1486,-1,0,0
-153.06,33.11,-77.72,4531,-6800,1497,-1,-1,-1
-153.07,33.10,-77.72,4532,-6799,1502,-1,-1,0
-153.07,33.10,-77.73,4541,-6798,1504,-1,-1,0
-153.05,33.11,-77.74,4543,-6802,1493,-1,-1,0
-153.04,33.11,-77.77,4545,-6798,1475,-1,-1,0
-153.04,33.11,-77.78,4544,-6805,1468,-1,-1,-1
-153.03,33.11,-77.78,4538,-6809,1480,-1,0,0
-153.03,33.11,-77.78,4538,-6807,1477,-1,0,-1
-153.03,33.11,-77.79,4543,-6806,1474,-1,-1,-1
-153.02,33.11,-77.80,4542,-6804,1476,-1,0,0
-153.03,33.11,-77.79,4540,-6804,1482,-1,0,0
-153.03,33.11,-77.79,4546,-6814,1488,-1,-1,-1
-153.02,33.11,-77.80,4547,-6812,1482,-1,0,0
-153.02,33.11,-77.80,4547,-6810,1480,-1,0,0
-153.02,33.11,-77.81,4543,-6808,1476,-1,-1,0
-153.01,33.11,-77.82,4541,-6807,1469,-1,-1,0
-153.01,33.10,-77.83,4542,-6806,1473,-1,-1,0
-152.99,33.11,-77.85,4542,-6802,1469,-1,-1,0
-152.99,33.11,-77.86,4545,-6804,1472,-1,-1,0
-152.99,33.11,-77.87,4551,-6809,1473,-1,-1,0
-152.98,33.11,-77.88,4538,-6806,1465,-1,-1,0
-152.98,33.10,-77.88,4536,-6805,1474,-1,-1,0
-152.98,33.10,-77.88,4539,-6807,1481,-1,-1,0
-152.98,33.10,-77.88,4536,-6811,1477,-1,-1,0
-152.98,33.11,-77.89,4539,-6813,1477,-1,-1,-1
-152.97,33.10,-77.90,4540,-6807,1466,-1,-1,0
-152.96,33.11,-77.91,4539,-6803,1467,-1,-1,0
-152.97,33.10,-77.92,4538,-6807,1462,-1,0,0
-152.97,33.10,-77.93,4530,-6807,1475,-1,-1,0
-152.96,33.10,-77.94,4529,-6808,1470,-1,-1,0
-152.95,33.10,-77.96,4527,-6805,1464,-1,-1,-1
-152.93,33.11,-77.99,4536,-6804,1454,-1,-1,-1
-152.92,33.10,-78.00,4547,-6801,1452,-1,-1,-1
-152.91,33.11,-78.01,4545,-6801,1442,-1,-1,-1
-152.91,33.11,-78.01,4551,-6799,1448,-1,-1,0
-152.90,33.11,-78.02,4558,-6798,1458,-1,-1,0
-152.90,33.11,-78.03,4555,-6803,1456,-1,-1,0
-152.90,33.11,-78.03,4544,-6814,1461,-1,-1,0
-152.90,33.10,-78.04,4538,-6809,1453,-1,-1,0
-152.90,33.10,-78.05,4535,-6815,1457,-1,-1,-1
-152.89,33.10,-78.07,4539,-6817,1458,-1,-1,0
-152.87,33.11,-78.10,4537,-6809,1445,-1,-1,-1
-152.86,33.11,-78.11,4539,-6810,1445,-1,-1,-1
-152.85,33.11,-78.13,4541,-6809,1438,-1,-1,0
-152.84,33.11,-78.14,4543,-6812,1440,-1,-1,0
-152.84,33.11,-78.15,4536,-6813,1429,-1,-1,0
-152.84,33.10,-78.15,4537,-6814,1429,-1,-1,0
-152.84,33.10,-78.16,4531,-6820,1431,-1,-1,0
-152.84,33.10,-78.17,4536,-6816,1430,-1,-1,0
-152.84,33.10,-78.17,4542,-6819,1435,-1,0,0
-152.84,33.10,-78.17,4542,-6819,1431,0,0,0
-152.84,33.10,-78.17,4539,-6815,1430,0,0,0
-152.84,33.10,-78.16,4531,-6812,1426,0,0,-1
-152.85,33.09,-78.15,4534,-6809,1436,0,0,-1
-152.85,33.10,-78.15,4539,-6815,1440,0,0,0
-152.85,33.10,-78.14,4537,-6814,1453,-1,-1,0
-152.85,33.10,-78.14,4536,-6814,1446,-1,-1,-1
-152.85,33.10,-78.15,4539,-6811,1446,-1,-1,-1
-152.85,33.10,-78.15,4538,-6815,1437,-1,-1,0
-152.84,33.10,-78.16,4542,-6818,1428,-1,-1,0
-152.84,33.10,-78.16,4542,-6810,1425,0,-1,0
-152.84,33.10,-78.16,4543,-6808,1427,0,0,0
-152.85,33.09,-78.15,4538,-6812,1430,0,-1,0
-152.85,33.09,-78.15,4535,-6819,1430,0,0,-1
-152.85,33.10,-78.14,4535,-6820,1427,0,0,0
-152.87,33.09,-78.14,4532,-6824,1434,0,0,0
-152.87,33.09,-78.13,4536,-6821,1432,0,0,0
-152.87,33.09,-78.13,4536,-6818,1434,0,0,0
-152.88,33.09,-78.12,4543,-6815,1443,0,0,-1
-152.88,33.09,-78.11,4536,-6817,1449,-1,-1,-1
-152.88,33.09,-78.11,4535,-6817,1444,-1,-1,0
-152.88,33.09,-78.11,4532,-6820,1451,-1,-1,-1
-152.88,33.08,-78.12,4533,-6811,1446,-1,-1,0
-152.88,33.08,-78.12,4533,-6815,1440,0,-1,0
-152.88,33.09,-78.12,4539,-6816,1435,0,0,0
-152.88,33.09,-78.11,4544,-6808,1442,0,0,-1
-152.88,33.09,-78.10,4540,-6809,1447,0,0,0
-152.89,33.08,-78.09,4539,-6810,1449,0,0,-1
-152.89,33.08,-78.09,4539,-6815,1438,0,0,0
-152.89,33.09,-78.08,4541,-6810,1446,0,0,0
-152.89,33.09,-78.08,4532,-6815,1445,0,-1,0
-152.90,33.08,-78.08,4532,-6810,1445,-1,-1,0
-152.89,33.09,-78.08,4531,-6811,1442,-1,0,-1
-152.89,33.09,-78.08,4535,-6809,1443,-1,0,-1
-152.90,33.08,-78.08,4537,-6811,1446,0,0,-1
-152.90,33.08,-78.07,4541,-6809,1440,0,0,0
-152.90,33.08,-78.06,4541,-6812,1449,0,0,0
-152.92,33.08,-78.05,4535,-6811,1459,0,0,0
-152.92,33.08,-78.04,4529,-6819,1454,0,0,0
-152.94,33.07,-78.03,4530,-6811,1459,0,0,0
-152.95,33.06,-78.02,4525,-6816,1467,0,0,0
-152.95,33.06,-78.01,4524,-6817,1466,-1,0,-1
-152.95,33.06,-78.01,4521,-6813,1458,-1,-1,-1
-152.95,33.06,-78.02,4527,-6818,1458,-1,-1,-1
-152.94,33.07,-78.02,4537,-6816,1453,0,0,-1
-152.94,33.07,-78.02,4538,-6819,1454,0,0,0
-152.95,33.06,-78.01,4539,-6818,1457,0,0,0
-152.95,33.07,-78.01,4539,-6811,1459,0,0,0
-152.95,33.07,-78.00,4535,-6814,1456,0,-1,0
-152.95,33.07,-78.00,4535,-6815,1450,0,0,-1
-152.96,33.07,-78.00,4533,-6820,1454,0,0,-1
-152.96,33.06,-77.99,4525,-6814,1459,0,0,-1
-152.96,33.06,-77.99,4528,-6808,1449,0,0,-1
-152.97,33.06,-77.98,4526,-6809,1438,0,0,-1
-152.98,33.06,-77.96,4529,-6810,1457,0,0,-1
-152.98,33.07,-77.95,4533,-6814,1459,0,0,0
-152.99,33.06,-77.93,4535,-6815,1466,0,0,0
-153.00,33.06,-77.93,4535,-6811,1470,0,0,-1
-152.99,33.06,-77.92,4540,-6808,1471,0,-1,-1
-152.99,33.07,-77.93,4531,-6810,1468,-1,-1,-1
-152.99,33.07,-77.93,4530,-6811,1464,-1,-1,-1
-152.99,33.07,-77.93,4527,-6811,1466,0,-1,-1
-153.00,33.06,-77.93,4528,-6812,1468,0,0,0
-153.00,33.06,-77.92,4530,-6807,1465,0,0,-1
-152.99,33.07,-77.92,4532,-6807,1472,0,0,-1
-153.00,33.07,-77.90,4533,-6803,1472,0,0,-1
-153.00,33.06,-77.90,4536,-6802,1463,0,0,0
-153.01,33.07,-77.89,4536,-6811,1474,0,0,-1
-153.01,33.06,-77.89,4534,-6813,1472,0,0,0
-153.01,33.07,-77.88,4541,-6814,1469,0,0,-1
-153.01,33.07,-77.87,4544,-6809,1471,0,0,-1
-153.01,33.07,-77.86,4541,-6804,1472,0,-1,-1
-153.01,33.07,-77.86,4536,-6802,1475,-1,-1,-1
-153.01,33.07,-77.86,4536,-6807,1461,0,0,0
-153.01,33.07,-77.86,4531,-6810,1464,0,0,-1
-153.01,33.08,-77.85,4526,-6809,1476,0,0,-1
-153.01,33.08,-77.85,4528,-6805,1472,0,0,-1
-153.01,33.08,-77.85,4530,-6813,1462,0,0,-1
-153.01,33.08,-77.84,4541,-6812,1470,0,0,-1
-153.02,33.08,-77.83,4542,-6809,1462,0,0,-1
-153.03,33.08,-77.82,4539,-6809,1474,0,0,-1
-153.03,33.08,-77.80,4536,-6803,1484,0,0,0
-153.03,33.08,-77.80,4537,-6803,1490,0,0,0
-153.05,33.08,-77.79,4532,-6807,1481,0,0,0
-153.05,33.08,-77.77,4534,-6801,1479,0,0,0
-153.05,33.08,-77.76,4540,-6798,1487,0,0,-1
-153.06,33.08,-77.75,4539,-6800,1494,0,0,-1
-153.05,33.09,-77.75,4541,-6799,1489,0,-1,-1
-153.05,33.09,-77.75,4545,-6803,1488,0,-1,-1
-153.05,33.09,-77.75,4546,-6803,1473,0,0,-1
-153.05,33.09,-77.75,4547,-6805,1477,0,0,-1
-153.05,33.10,-77.73,4549,-6804,1479,0,0,-1
-153.05,33.10,-77.72,4548,-6805,1486,0,0,0
-153.06,33.10,-77.72,4542,-6803,1487,0,0,0
-153.06,33.10,-77.71,4536,-6802,1485,0,-1,0
-153.06,33.10,-77.71,4539,-6801,1485,0,0,-1
-153.06,33.10,-77.70,4536,-6797,1481,0,0,-1
-153.06,33.10,-77.70,4536,-6795,1483,-1,0,-1
-153.06,33.10,-77.70,4535,-6799,1484,-1,-1,0
-153.07,33.09,-77.70,4536,-6804,1487,-1,-1,0
-153.07,33.09,-77.70,4535,-6799,1487,-1,-1,0
-153.07,33.09,-77.70,4536,-6806,1483,-1,0,0
-153.07,33.09,-77.71,4531,-6798,1485,-1,0,0
-153.06,33.10,-77.71,4539,-6797,1490,-1,-1,0
-153.05,33.10,-77.73,4545,-6806,1498,-1,-1,0
-153.05,33.09,-77.75,4542,-6810,1492,-1,-1,0
-153.04,33.10,-77.76,4538,-6806,1485,-1,-1,0
-153.03,33.09,-77.76,4536,-6802,1478,-1,-1,0
-153.03,33.10,-77.77,4546,-6801,1476,-1,-1,0
-153.03,33.10,-77.77,4544,-6806,1479,-1,0,0
-153.03,33.09,-77.77,4541,-6811,1483,-1,-1,0
-153.03,33.09,-77.77,4539,-6809,1482,-1,-1,0
-153.03,33.09,-77.78,4541,-6802,1476,-1,-1,0
-153.03,33.09,-77.78,4537,-6805,1484,-1,-1,0
-153.03,33.09,-77.78,4539,-6801,1483,-1,-1,0
-153.02,33.09,-77.79,4540,-6799,1481,-1,0,0
-153.02,33.09,-77.80,4533,-6797,1476,-1,-1,-1
-153.01,33.09,-77.81,4541,-6798,1474,-1,-1,0
-153.00,33.10,-77.82,4538,-6808,1479,-1,-1,0
-153.00,33.09,-77.83,4540,-6804,1481,-1,-1,-1
-152.99,33.10,-77.84,4542,-6802,1487,-1,-1,-1
-152.98,33.10,-77.85,4542,-6803,1474,-1,-1,0
-152.98,33.10,-77.85,4542,-6807,1463,0,0,0
-152.99,33.09,-77.85,4542,-6810,1472,-1,0,0
-152.99,33.09,-77.85,4541,-6810,1476,-1,-1,0
-152.98,33.10,-77.86,4535,-6807,1478,-1,-1,-1
-152.97,33.10,-77.88,4531,-6811,1471,-1,-1,-1
-152.97,33.10,-77.89,4533,-6810,1471,-1,-1,-1
-152.96,33.10,-77.89,4539,-6811,1471,-1,-1,-1
-152.96,33.10,-77.90,4545,-6808,1473,-1,-1,-1
-152.95,33.10,-77.91,4542,-6806,1453,-1,-1,0
-152.95,33.10,-77.91,4547,-6802,1459,-1,0,0
-152.95,33.10,-77.91,4539,-6811,1456,-1,0,0
-152.95,33.09,-77.92,4533,-6810,1461,-1,0,0
-152.95,33.09,-77.92,4535,-6811,1459,-1,0,-1
-152.95,33.09,-77.92,4532,-6812,1456,-1,-1,-1
-152.94,33.10,-77.93,4534,-6804,1462,-1,-1,-1
-152.94,33.09,-77.94,4539,-6809,1461,-1,-1,-1
-152.93,33.09,-77.97,4541,-6810,1452,-1,-1,0
-152.92,33.10,-77.98,4548,-6806,1443,-1,-1,0
-152.91,33.10,-77.98,4544,-6802,1446,-1,-1,0
-152.91,33.10,-77.99,4544,-6805,1445,-1,-1,0
-152.91,33.10,-78.00,4537,-6805,1442,-1,-1,0
-152.90,33.10,-78.01,4533,-6802,1445,-1,-1,0
-152.90,33.10,-78.02,4538,-6810,1449,-1,-1,0
-152.89,33.10,-78.03,4531,-6814,1452,-1,-1,0
-152.89,33.10,-78.04,4535,-6813,1451,-1,-1,-1
-152.89,33.09,-78.05,4533,-6813,1444,-1,0,-1
-152.88,33.10,-78.05,4539,-6815,1453,-1,0,0
-152.88,33.10,-78.05,4537,-6816,1458,0,0,0
-152.88,33.10,-78.06,4538,-6811,1450,-1,-1,0
-152.88,33.10,-78.06,4534,-6805,1447,-1,-1,-1
-152.88,33.09,-78.07,4538,-6812,1447,-1,-1,0
-152.87,33.09,-78.08,4539,-6817,1457,-1,-1,-1
-152.86,33.10,-78.10,4540,-6814,1447,-1,-1,0
-152.85,33.09,-78.11,4544,-6812,1440,-1,-1,0
-152.85,33.09,-78.13,4537,-6811,1427,-1,-1,0
-152.84,33.10,-78.14,4536,-6809,1423,-1,-1,0
-152.84,33.09,-78.14,4541,-6814,1427,-1,0,0
-152.84,33.09,-78.14,4539,-6813,1439,0,0,0
-152.84,33.09,-78.14,4538,-6813,1441,-1,-1,-1
-152.85,33.09,-78.14,4532,-6818,1433,-1,0,0
-152.85,33.09,-78.14,4532,-6818,1428,0,0,-1
-152.85,33.09,-78.14,4535,-6821,1437,0,-1,0
-152.85,33.09,-78.14,4535,-6820,1437,-1,0,-1
-152.85,33.09,-78.14,4532,-6816,1429,-1,0,0
-152.85,33.09,-78.14,4536,-6814,1423,0,-1,-1
-152.85,33.09,-78.14,4537,-6812,1426,-1,-1,-1
-152.84,33.09,-78.15,4531,-6811,1426,-1,0,-1
-152.84,33.09,-78.15,4533,-6805,1420,-1,0,-1
-152.84,33.09,-78.15,4540,-6810,1421,0,0,0
-152.85,33.09,-78.14,4533,-6815,1423,0,0,0
-152.85,33.09,-78.14,4535,-6814,1434,0,0,0
-152.85,33.09,-78.13,4531,-6817,1439,0,0,-1
-152.86,33.08,-78.13,4528,-6820,1432,0,0,-1
-152.86,33.08,-78.12,4534,-6813,1428,0,0,-1
-152.86,33.08,-78.11,4532,-6809,1434,0,0,0
-152.86,33.08,-78.11,4536,-6807,1440,0,0,-1
-152.87,33.09,-78.11,4537,-6809,1445,0,0,0
-152.87,33.08,-78.10,4535,-6814,1452,0,0,0
-152.87,33.08,-78.10,4536,-6816,1446,-1,-1,0
-152.87,33.08,-78.10,4532,-6822,1441,-1,-1,-1
-152.87,33.08,-78.10,4535,-6823,1438,0,0,-1
-152.87,33.08,-78.10,4537,-6819,1437,0,0,-1
-152.87,33.08,-78.10,4544,-6813,1437,0,0,-1
-152.87,33.08,-78.09,4546,-6808,1443,0,0,0
-152.88,33.08,-78.08,4547,-6814,1453,0,0,0
-152.88,33.08,-78.08,4546,-6817,1443,0,0,0
-152.89,33.08,-78.07,4544,-6821,1447,0,0,0
-152.90,33.07,-78.05,4536,-6816,1440,0,0,0
-152.90,33.08,-78.05,4542,-6816,1445,0,0,-1
-152.90,33.08,-78.04,4546,-6816,1455,-1,-1,-1
-152.89,33.09,-78.05,4541,-6810,1454,-1,-1,-1
-152.89,33.08,-78.05,4538,-6814,1441,-1,-1,-1
-152.89,33.08,-78.06,4541,-6811,1430,-1,-1,-1
-152.88,33.09,-78.06,4542,-6809,1425,0,0,0
-152.89,33.08,-78.06,4537,-6817,1432,0,0,0
-152.90,33.08,-78.05,4530,-6811,1437,0,0,0
-152.90,33.08,-78.04,4532,-6813,1446,0,0,0
-152.91,33.08,-78.03,4528,-6812,1442,0,0,0
-152.91,33.08,-78.02,4530,-6814,1451,0,0,-1
-152.91,33.08,-78.02,4535,-6810,1449,0,0,-1
-152.92,33.07,-78.02,4528,-6815,1435,0,0,-1
-152.92,33.07,-78.01,4529,-6817,1448,0,0,-1
-152.93,33.07,-78.00,4529,-6816,1450,0,0,0
-152.94,33.07,-77.99,4522,-6813,1447,0,0,0
-152.95,33.06,-77.97,4526,-6816,1459,0,0,-1
-152.95,33.06,-77.97,4530,-6815,1461,0,0,-1
-152.95,33.07,-77.97,4533,-6819,1462,-1,-1,-1
-152.95,33.07,-77.97,4536,-6812,1459,-1,-1,-1
-152.94,33.07,-77.98,4536,-6811,1458,-1,-1,-1
-152.94,33.07,-77.98,4538,-6805,1449,0,0,0
-152.94,33.07,-77.97,4534,-6809,1448,0,0,-1
-152.95,33.07,-77.97,4536,-6813,1450,0,0,0
-152.95,33.07,-77.96,4534,-6812,1443,0,0,0
-152.96,33.07,-77.96,4542,-6801,1439,0,0,0
-152.96,33.07,-77.95,4541,-6812,1438,0,0,-1
-152.97,33.06,-77.94,4535,-6816,1453,0,0,0
-152.97,33.06,-77.93,4534,-6817,1457,0,0,-1
-152.98,33.06,-77.92,4535,-6811,1462,0,0,0
-152.98,33.06,-77.92,4533,-6817,1462,0,0,-1
-152.99,33.06,-77.91,4528,-6819,1460,0,-1,-1
-152.99,33.06,-77.91,4528,-6815,1461,0,-1,0
-152.98,33.07,-77.91,4533,-6815,1458,0,0,0
-152.99,33.06,-77.91,4526,-6809,1460,0,0,-1
-152.99,33.06,-77.91,4531,-6803,1457,0,0,-1
-152.99,33.06,-77.89,4542,-6815,1459,0,0,0
-153.00,33.06,-77.88,4546,-6815,1458,0,0,-1
-153.00,33.06,-77.88,4540,-6809,1456,0,0,0
-153.01,33.06,-77.86,4534,-6810,1455,0,0,0
-153.02,33.06,-77.86,4537,-6810,1459,0,0,0
-153.02,33.06,-77.85,4540,-6810,1461,0,0,0
-153.02,33.06,-77.84,4535,-6804,1463,0,0,-1
-153.02,33.06,-77.84,4536,-6809,1465,0,-1,-1
-153.02,33.06,-77.84,4530,-6812,1465,0,-1,-1
-153.02,33.06,-77.84,4532,-6812,1461,0,0,-1
-153.02,33.06,-77.84,4538,-6812,1459,0,0,-1
-153.02,33.07,-77.83,4549,-6811,1455,0,0,-1
-153.02,33.07,-77.82,4550,-6807,1455,0,0,-1
-153.03,33.07,-77.81,4551,-6810,1462,0,0,0
-153.04,33.07,-77.80,4547,-6806,1457,0,0,0
-153.04,33.07,-77.79,4538,-6805,1462,0,0,0
-153.07,33.06,-77.76,4533,-6805,1464,0,0,0
-153.08,33.05,-77.75,4524,-6809,1474,0,0,0
-153.08,33.05,-77.74,4526,-6811,1487,0,-1,-1
-153.09,33.06,-77.73,4541,-6808,1485,0,-1,-1
-153.09,33.06,-77.73,4540,-6808,1481,-1,-1,-1
-153.08,33.06,-77.74,4539,-6802,1473,-1,-1,-1
-153.08,33.06,-77.74,4538,-6812,1476,0,-1,-1
-153.08,33.06,-77.74,4541,-6812,1472,0,0,0
-153.08,33.06,-77.73,4549,-6813,1475,0,0,0
-153.08,33.06,-77.72,4542,-6816,1474,0,0,-1
-153.09,33.06,-77.71,4543,-6813,1478,0,0,0
-153.09,33.06,-77.71,4542,-6808,1480,0,0,-1
-153.10,33.06,-77.70,4538,-6807,1485,0,0,-1
-153.10,33.06,-77.70,4537,-6809,1476,0,0,-1
-153.10,33.06,-77.69,4539,-6808,1477,0,0,-1
-153.11,33.07,-77.67,4536,-6807,1485,0,0,0
-153.12,33.06,-77.65,4535,-6806,1490,0,0,0
-153.13,33.06,-77.64,4531,-6807,1495,0,0,0
-153.14,33.06,-77.63,4534,-6805,1505,0,0,0
-153.14,33.06,-77.63,4536,-6810,1507,-1,-1,-1
-153.13,33.06,-77.64,4539,-6809,1501,-1,-1,-1
-153.12,33.06,-77.66,4542,-6804,1499,-1,-1,0
-153.12,33.06,-77.67,4536,-6804,1494,-1,-1,0
-153.11,33.06,-77.68,4532,-6805,1484,-1,-1,0
-153.11,33.06,-77.68,4540,-6805,1477,0,0,0
-153.11,33.06,-77.68,4540,-6802,1485,0,0,0
-153.11,33.06,-77.68,4534,-6811,1488,-1,0,-1
-153.11,33.06,-77.68,4530,-6805,1492,-1,0,-1
-153.11,33.06,-77.68,4529,-6805,1490,-1,0,0
-153.11,33.06,-77.69,4529,-6807,1488,-1,-1,0
-153.11,33.06,-77.69,4541,-6803,1483,-1,0,0
-153.11,33.05,-77.70,4535,-6803,1487,-1,-1,-1
-153.10,33.06,-77.70,4536,-6801,1488,-1,-1,0
-153.10,33.06,-77.71,4537,-6805,1481,-1,-1,0
-153.10,33.05,-77.71,4539,-6804,1481,-1,-1,-1
-153.08,33.06,-77.73,4539,-6803,1471,-1,-1,-1
-153.08,33.06,-77.74,4546,-6800,1472,-1,-1,0
-153.08,33.06,-77.74,4542,-6798,1484,-1,-1,0
-153.08,33.06,-77.74,4539,-6803,1484,-1,0,0
-153.08,33.06,-77.75,4532,-6799,1480,-1,0,0
-153.07,33.06,-77.75,4531,-6798,1476,-1,0,0
-153.07,33.06,-77.75,4534,-6802,1477,-1,0,0
-153.07,33.06,-77.75,4545,-6803,1479,-1,-1,0
-153.07,33.06,-77.76,4538,-6810,1478,-1,-1,0
-153.06,33.06,-77.78,4538,-6810,1479,-1,-1,0
-153.05,33.06,-77.80,4535,-6804,1479,-1,-1,0
-153.04,33.06,-77.81,4539,-6802,1475,-1,-1,0
-153.03,33.06,-77.83,4539,-6801,1461,-1,-1,-1
-153.02,33.07,-77.84,4546,-6804,1458,-1,0,-1
-153.02,33.07,-77.84,4546,-6808,1467,0,0,0
-153.02,33.06,-77.84,4546,-6805,1469,-1,0,0
-153.02,33.06,-77.84,4540,-6811,1466,-1,0,0
-153.02,33.06,-77.85,4538,-6820,1466,-1,-1,0
-153.02,33.06,-77.85,4542,-6818,1474,-1,0,0
-153.02,33.05,-77.85,4545,-6813,1472,-1,0,-1
-153.02,33.06,-77.86,4542,-6808,1468,-1,-1,-1
-153.00,33.06,-77.88,4534,-6808,1465,-1,-1,-1
-152.99,33.06,-77.90,4538,-6804,1462,-1,-1,0
-152.98,33.06,-77.92,4541,-6803,1456,-1,-1,0
-152.97,33.06,-77.93,4533,-6807,1449,-1,-1,0
-152.98,33.06,-77.95,4530,-6814,1453,-1,-1,0
-152.97,33.06,-77.96,4537,-6816,1452,-1,-1,0
-152.96,33.06,-77.98,4531,-6821,1444,-1,-1,0
-152.95,33.06,-77.99,4536,-6814,1438,-1,-1,0
-152.94,33.06,-78.01,4539,-6806,1440,-1,-1,0
-152.94,33.06,-78.02,4536,-6813,1441,-1,-1,0
-152.94,33.06,-78.02,4538,-6816,1438,-1,0,0
-152.94,33.06,-78.02,4532,-6814,1434,-1,-1,0
-152.94,33.05,-78.03,4538,-6815,1443,-1,-1,0
-152.94,33.06,-78.03,4538,-6813,1440,-1,-1,0
-152.93,33.05,-78.04,4535,-6816,1437,-1,-1,0
-152.92,33.06,-78.05,4535,-6820,1441,-1,-1,0
-152.92,33.06,-78.07,4543,-6821,1446,-1,-1,-1
-152.90,33.06,-78.09,4536,-6820,1438,-1,-1,-1
-152.89,33.06,-78.11,4535,-6826,1433,-1,-1,0
-152.89,33.06,-78.12,4533,-6824,1433,-1,-1,0
-152.89,33.06,-78.13,4532,-6822,1421,-1,-1,0
-152.88,33.05,-78.14,4533,-6820,1419,-1,0,0
-152.88,33.05,-78.14,4531,-6818,1417,0,0,0
-152.88,33.05,-78.14,4526,-6818,1428,0,-1,0
-152.88,33.05,-78.14,4530,-6817,1426,0,0,0
-152.88,33.05,-78.14,4534,-6817,1426,0,0,0
-152.88,33.05,-78.14,4536,-6813,1426,0,0,-1
-152.88,33.05,-78.14,4538,-6814,1432,0,0,-1
-152.88,33.05,-78.14,4537,-6815,1443,0,-1,0
-152.88,33.05,-78.14,4530,-6820,1440,-1,-1,0
-152.88,33.05,-78.14,4534,-6821,1439,-1,-1,0
-152.88,33.05,-78.14,4538,-6816,1440,-1,-1,-1
-152.88,33.05,-78.14,4539,-6818,1427,0,-1,0
-152.88,33.05,-78.14,4536,-6825,1426,0,0,0
-152.88,33.05,-78.14,4535,-6817,1424,0,0,0
-152.88,33.05,-78.14,4533,-6820,1437,0,0,0
-152.90,33.04,-78.13,4523,-6824,1428,0,0,0
-152.90,33.05,-78.13,4527,-6825,1425,0,0,-1
-152.90,33.05,-78.13,4533,-6820,1426,0,0,-1
-152.90,33.05,-78.12,4534,-6825,1433,0,0,-1
-152.90,33.05,-78.12,4529,-6822,1426,0,0,0
-152.90,33.05,-78.12,4536,-6821,1420,0,-1,0
-152.91,33.04,-78.12,4536,-6827,1420,0,0,0
-152.91,33.04,-78.11,4534,-6830,1422,0,0,0
-152.92,33.04,-78.10,4530,-6827,1426,0,0,0
-152.93,33.04,-78.09,4532,-6820,1429,0,0,-1
-152.93,33.04,-78.08,4532,-6821,1440,0,0,-1
-152.93,33.04,-78.08,4533,-6820,1441,-1,0,-1
-152.93,33.04,-78.08,4528,-6821,1438,-1,-1,-1
-152.92,33.04,-78.08,4534,-6821,1440,0,0,0
-152.93,33.04,-78.08,4532,-6818,1427,0,0,0
-152.94,33.04,-78.08,4535,-6822,1434,0,0,0
-152.94,33.04,-78.07,4535,-6821,1443,0,0,0
-152.94,33.03,-78.06,4531,-6818,1446,0,-1,0
-152.95,33.03,-78.05,4535,-6820,1460,0,-1,-1
-152.95,33.03,-78.05,4529,-6819,1453,-1,-1,0
-152.95,33.03,-78.05,4531,-6814,1448,-1,0,-1
-152.94,33.03,-78.06,4526,-6819,1439,0,0,-1
-152.94,33.04,-78.05,4530,-6814,1442,0,0,-1
-152.95,33.03,-78.05,4533,-6812,1446,0,0,-1
-152.95,33.04,-78.04,4533,-6815,1451,0,0,-1
-152.95,33.04,-78.03,4535,-6817,1438,0,0,-1
-152.95,33.04,-78.03,4530,-6811,1438,0,0,-1
-152.96,33.04,-78.02,4535,-6808,1444,0,0,-1
-152.96,33.04,-78.02,4532,-6807,1450,0,0,-1
-152.96,33.04,-78.02,4533,-6813,1449,0,-1,-1
-152.96,33.04,-78.02,4530,-6813,1441,0,0,-1
-152.96,33.04,-78.01,4537,-6816,1436,0,0,0
-152.96,33.04,-78.00,4535,-6819,1447,0,0,-1
-152.96,33.04,-78.00,4528,-6820,1442,0,0,-1
-152.97,33.04,-77.99,4527,-6815,1444,0,0,-1
-152.97,33.04,-77.99,4524,-6816,1448,0,0,-1
-152.97,33.04,-77.98,4528,-6818,1445,0,0,-1
-152.98,33.05,-77.97,4528,-6823,1447,0,0,-1
-152.98,33.05,-77.97,4533,-6821,1453,0,0,0
-152.98,33.05,-77.96,4535,-6819,1454,0,0,-1
-152.98,33.04,-77.96,4533,-6824,1443,0,0,-1
-152.99,33.05,-77.95,4538,-6823,1436,0,0,-1
-152.99,33.05,-77.95,4530,-6819,1437,0,0,-1
-152.99,33.05,-77.95,4536,-6822,1441,0,0,-1
-152.99,33.05,-77.94,4541,-6818,1443,0,0,0
-152.99,33.05,-77.93,4533,-6814,1451,0,0,0
-152.99,33.05,-77.93,4530,-6809,1442,0,0,0
-153.00,33.04,-77.92,4528,-6810,1455,0,0,-1
-153.00,33.05,-77.92,4535,-6809,1456,0,0,-1
-153.00,33.05,-77.91,4541,-6807,1449,0,0,-1
-153.00,33.05,-77.91,4539,-6809,1445,0,0,0
-153.01,33.05,-77.90,4534,-6811,1454,0,0,0
-153.01,33.05,-77.90,4535,-6814,1452,0,-1,0
-153.01,33.05,-77.90,4523,-6813,1449,0,0,0
-153.02,33.04,-77.88,4519,-6817,1452,0,0,0
-153.03,33.04,-77.87,4527,-6817,1459,0,0,-1
-153.03,33.04,-77.87,4530,-6817,1460,0,0,-1
-153.02,33.05,-77.87,4534,-6808,1454,-1,-1,-1
-153.02,33.05,-77.87,4531,-6803,1466,-1,-1,-1
-153.02,33.05,-77.87,4531,-6811,1471,0,0,-1
-153.03,33.05,-77.87,4538,-6808,1459,0,0,0
-153.03,33.05,-77.86,4540,-6808,1461,0,0,0
-153.03,33.05,-77.85,4538,-6805,1470,0,0,0
-153.04,33.04,-77.84,4534,-6808,1460,0,0,0
-153.04,33.04,-77.84,4532,-6811,1460,0,-1,0
-153.04,33.04,-77.84,4525,-6812,1457,0,-1,-1
-153.04,33.04,-77.84,4527,-6813,1462,0,0,-1
-153.04,33.04,-77.84,4528,-6810,1470,0,0,-1
-153.05,33.04,-77.83,4524,-6811,1469,0,0,0
-153.06,33.04,-77.82,4530,-6806,1467,0,0,0
-153.06,33.04,-77.81,4533,-6810,1463,0,0,0
-153.07,33.04,-77.80,4532,-6811,1461,0,0,0
-153.08,33.04,-77.79,4536,-6812,1464,0,0,0
-153.08,33.04,-77.79,4536,-6806,1468,0,-1,-1
-153.08,33.04,-77.79,4535,-6812,1469,-1,-1,-1
-153.07,33.04,-77.80,4540,-6812,1466,-1,-1,-1
-153.07,33.04,-77.80,4543,-6808,1461,0,-1,-1
-153.07,33.04,-77.79,4537,-6804,1465,0,0,-1
-153.07,33.05,-77.79,4538,-6807,1463,0,0,0
-153.07,33.05,-77.78,4535,-6809,1462,0,0,0
-153.07,33.05,-77.78,4529,-6810,1456,0,0,0
-153.09,33.04,-77.76,4534,-6810,1455,0,0,0
-153.09,33.04,-77.75,4529,-6807,1468,0,0,-1
-153.09,33.04,-77.74,4529,-6810,1475,0,0,-1
-153.10,33.05,-77.74,4532,-6809,1482,0,0,-1
-153.10,33.05,-77.72,4535,-6812,1483,0,0,-1
-153.10,33.05,-77.72,4536,-6809,1473,0,0,-1
-153.10,33.05,-77.71,4539,-6810,1476,0,0,-1
-153.10,33.05,-77.71,4538,-6810,1480,0,0,-1
-153.10,33.05,-77.71,4540,-6808,1490,0,0,-1
-153.11,33.05,-77.70,4548,-6806,1487,0,0,-1
-153.11,33.06,-77.69,4544,-6802,1473,0,0,-1
-153.11,33.06,-77.68,4539,-6810,1474,0,0,0
-153.13,33.05,-77.67,4537,-6809,1482,0,0,0
-153.13,33.05,-77.67,4521,-6802,1493,-1,-1,0
-153.13,33.05,-77.67,4526,-6799,1492,-1,-1,0
-153.13,33.05,-77.67,4529,-6801,1490,-1,0,-1
-153.12,33.05,-77.67,4535,-6799,1483,-1,0,-1
-153.11,33.06,-77.68,4540,-6803,1488,-1,-1,0
-153.11,33.06,-77.69,4535,-6806,1482,-1,-1,0
-153.11,33.06,-77.69,4541,-6807,1470,-1,-1,0
-153.11,33.05,-77.70,4531,-6811,1464,-1,-1,0
-153.11,33.05,-77.70,4531,-6804,1470,0,0,0
-153.12,33.04,-77.70,4530,-6814,1473,0,0,0
-153.12,33.04,-77.70,4535,-6811,1496,-1,-1,0
-153.11,33.05,-77.71,4540,-6808,1491,-1,-1,0
-153.10,33.05,-77.72,4541,-6816,1480,-1,-1,0
-153.10,33.05,-77.74,4536,-6815,1483,-1,-1,0
-153.09,33.05,-77.75,4534,-6808,1475,-1,-1,-1
-153.09,33.05,-77.76,4529,-6812,1468,-1,-1,0
-153.09,33.05,-77.76,4530,-6812,1462,-1,-1,0
-153.08,33.05,-77.77,4531,-6812,1463,-1,-1,0
-153.08,33.04,-77.78,4529,-6812,1464,-1,-1,0
-153.08,33.04,-77.78,4526,-6817,1476,-1,-1,0
-153.08,33.04,-77.79,4526,-6816,1470,-1,-1,0
-153.07,33.04,-77.79,4526,-6810,1463,-1,0,0
-153.07,33.04,-77.79,4529,-6809,1471,-1,0,0
-153.07,33.04,-77.79,4528,-6812,1475,-1,0,0
-153.07,33.04,-77.80,4527,-6808,1467,-1,0,0
-153.07,33.04,-77.80,4532,-6803,1463,-1,0,0
-153.07,33.04,-77.80,4537,-6810,1464,-1,0,0
-153.07,33.04,-77.80,4538,-6805,1473,-1,-1,-1
-153.06,33.04,-77.82,4535,-6805,1464,-1,-1,-1
-153.05,33.04,-77.83,4538,-6805,1468,-1,-1,0
-153.04,33.04,-77.86,4539,-6811,1461,-1,-1,0
-153.03,33.04,-77.87,4538,-6810,1458,-1,-1,0
-153.02,33.05,-77.88,4534,-6808,1460,-1,-1,0
-153.02,33.04,-77.89,4532,-6811,1456,-1,-1,0
-153.02,33.04,-77.90,4535,-6815,1455,-1,-1,0
-153.02,33.04,-77.90,4533,-6817,1458,-1,0,0
-153.02,33.03,-77.91,4536,-6812,1457,-1,-1,0
-153.01,33.04,-77.91,4533,-6814,1453,-1,-1,0
-153.01,33.04,-77.93,4531,-6813,1446,-1,0,-1
-153.01,33.04,-77.93,4535,-6814,1449,-1,-1,-1
-153.00,33.04,-77.94,4537,-6808,1455,-1,-1,-1
-152.99,33.04,-77.95,4536,-6810,1453,-1,-1,0
-152.99,33.04,-77.97,4540,-6813,1451,-1,-1,0
-152.97,33.04,-77.99,4540,-6814,1445,-1,-1,0
-152.97,33.04,-78.00,4536,-6820,1440,-1,-1,-1
-152.96,33.04,-78.01,4533,-6811,1434,-1,-1,0
-152.96,33.04,-78.02,4531,-6814,1442,-1,-1,0
-152.96,33.03,-78.03,4534,-6816,1445,-1,-1,0
-152.96,33.03,-78.04,4536,-6822,1431,-1,-1,0
-152.96,33.03,-78.04,4535,-6821,1441,-1,-1,0
-152.95,33.03,-78.05,4536,-6828,1454,-1,-1,0
-152.94,33.03,-78.07,4529,-6823,1456,-1,-1,0
-152.94,33.03,-78.09,4531,-6824,1441,-1,-1,0
-152.92,33.03,-78.11,4537,-6820,1442,-1,-1,-1
-152.92,33.03,-78.12,4536,-6824,1438,-1,-1,-1
-152.91,33.04,-78.12,4535,-6816,1437,-1,-1,-1
-152.91,33.03,-78.13,4540,-6811,1436,-1,-1,0
-152.91,33.03,-78.13,4538,-6816,1425,-1,0,0
-152.91,33.03,-78.14,4534,-6825,1419,0,0,0
-152.91,33.03,-78.13,4530,-6827,1431,0,0,0
-152.92,33.03,-78.12,4533,-6818,1432,0,0,-1
-152.91,33.03,-78.12,4538,-6809,1440,-1,0,-1
-152.91,33.03,-78.12,4541,-6816,1442,-1,-1,-1
-152.91,33.03,-78.13,4540,-6814,1447,-1,-1,-1
-152.90,33.04,-78.13,4533,-6817,1439,-1,-1,-1
-152.90,33.04,-78.14,4538,-6815,1425,-1,-1,-1
-152.90,33.04,-78.14,4535,-6817,1428,0,0,0
-152.90,33.04,-78.14,4537,-6819,1426,0,0,0
-152.90,33.04,-78.13,4531,-6816,1433,0,-1,0
-152.90,33.04,-78.13,4535,-6814,1427,0,-1,-1
-152.90,33.04,-78.13,4532,-6818,1425,0,-1,-1
-152.90,33.04,-78.13,4535,-6820,1423,0,0,-1
-152.90,33.04,-78.13,4536,-6825,1421,0,0,-1
-152.90,33.04,-78.13,4535,-6818,1419,0,0,0
-152.91,33.04,-78.12,4533,-6816,1427,0,0,0
-152.92,33.03,-78.11,4525,-6818,1435,0,0,-1
-152.92,33.04,-78.10,4531,-6815,1444,0,0,0
-152.93,33.03,-78.09,4532,-6810,1441,0,0,0
-152.93,33.03,-78.08,4534,-6805,1447,-1,0,0
-152.93,33.03,-78.08,4534,-6810,1447,-1,-1,0
-152.93,33.04,-78.09,4538,-6814,1437,-1,-1,0
-152.92,33.04,-78.10,4535,-6816,1428,0,-1,-1
-152.93,33.04,-78.09,4538,-6812,1420,0,0,-1
-152.93,33.04,-78.09,4540,-6813,1435,0,0,-1
-152.93,33.04,-78.08,4536,-6814,1435,0,0,0
-152.93,33.04,-78.08,4537,-6816,1432,0,0,-1
-152.93,33.04,-78.07,4534,-6817,1439,0,0,0
-152.94,33.03,-78.07,4530,-6826,1432,0,0,0
-152.95,33.03,-78.05,4525,-6814,1441,0,0,-1
-152.95,33.04,-78.05,4529,-6811,1431,0,0,-1
-152.95,33.04,-78.04,4533,-6813,1443,0,0,0
-152.96,33.03,-78.04,4529,-6821,1439,0,-1,0
-152.95,33.04,-78.04,4534,-6825,1441,0,-1,0
-152.95,33.04,-78.04,4533,-6820,1431,0,-1,-1
-152.95,33.04,-78.04,4532,-6815,1430,0,0,-1
-152.95,33.04,-78.04,4533,-6815,1431,0,0,-1
-152.95,33.04,-78.04,4528,-6819,1439,0,0,-1
-152.95,33.04,-78.03,4535,-6821,1442,0,0,0
-152.97,33.03,-78.02,4533,-6814,1448,0,0,0
-152.97,33.03,-78.01,4532,-6821,1450,0,0,0
-152.98,33.03,-78.00,4529,-6815,1454,0,0,0
-152.98,33.03,-77.99,4529,-6812,1452,0,0,-1
-152.98,33.03,-77.99,4531,-6813,1452,0,-1,0
-152.98,33.03,-77.99,4533,-6815,1436,-1,-1,-1
-152.97,33.04,-78.00,4538,-6818,1438,-1,0,-1
-152.97,33.04,-77.99,4541,-6818,1440,0,0,-1
-152.97,33.04,-77.99,4546,-6821,1439,0,0,-1
-152.98,33.04,-77.99,4541,-6818,1441,0,0,0
-152.98,33.04,-77.97,4537,-6812,1439,0,0,0
-153.00,33.03,-77.96,4529,-6815,1442,0,0,0
-153.00,33.04,-77.95,4530,-6818,1446,0,0,0
-153.01,33.03,-77.94,4530,-6820,1449,0,0,0
-153.03,33.02,-77.92,4521,-6825,1458,0,0,0
-153.03,33.02,-77.91,4525,-6824,1470,0,0,-1
-153.03,33.03,-77.90,4524,-6812,1473,-1,-1,-1
-153.03,33.03,-77.91,4532,-6812,1457,-1,-1,-1
-153.03,33.03,-77.91,4530,-6809,1450,0,-1,0
-153.03,33.03,-77.91,4526,-6812,1455,0,0,0
-153.04,33.02,-77.90,4532,-6815,1447,0,0,0
-153.04,33.02,-77.90,4531,-6805,1447,0,-1,0
-153.05,33.02,-77.90,4527,-6807,1462,0,-1,0
-153.05,33.02,-77.90,4523,-6815,1456,0,-1,0
-153.05,33.01,-77.89,4521,-6817,1459,0,0,0
-153.06,33.01,-77.88,4526,-6808,1466,0,0,0
-153.06,33.01,-77.88,4518,-6811,1456,0,0,0
-153.08,33.00,-77.87,4519,-6809,1470,0,-1,0
-153.09,33.00,-77.85,4521,-6805,1463,0,-1,0
-153.11,32.99,-77.84,4535,-6813,1474,0,-1,0
-153.12,32.99,-77.83,4532,-6817,1477,0,0,0
-153.12,32.99,-77.82,4524,-6823,1474,0,0,-1
-153.11,33.00,-77.82,4528,-6813,1472,-1,-1,-1
-153.11,33.00,-77.83,4533,-6807,1473,-1,-1,-1
-153.10,33.00,-77.84,4528,-6806,1460,0,-1,0
-153.11,33.00,-77.83,4528,-6814,1459,0,-1,0
-153.11,33.00,-77.83,4530,-6816,1454,0,0,0
-153.11,33.00,-77.83,4528,-6814,1455,0,0,0
-153.11,33.00,-77.82,4530,-6817,1459,0,0,0
-153.12,33.00,-77.81,4531,-6821,1471,0,0,0
-153.13,32.99,-77.80,4529,-6814,1469,0,-1,0
-153.13,32.99,-77.80,4532,-6813,1460,0,0,0
-153.13,32.99,-77.80,4521,-6818,1465,0,0,0
-153.14,33.00,-77.79,4526,-6819,1464,0,0,-1
-153.14,33.00,-77.79,4526,-6812,1461,0,0,-1
-153.14,32.99,-77.79,4522,-6811,1457,0,0,-1
-153.14,32.99,-77.79,4525,-6814,1463,0,0,-1
-153.13,33.00,-77.79,4523,-6815,1460,-1,-1,-1
-153.13,33.00,-77.78,4523,-6812,1468,0,0,-1
-153.13,33.00,-77.78,4526,-6816,1455,0,0,-1
-153.14,33.00,-77.78,4528,-6810,1464,0,0,0
-153.14,33.00,-77.77,4534,-6810,1473,0,-1,0
-153.14,33.00,-77.77,4528,-6811,1476,0,0,0
-153.14,33.00,-77.76,4524,-6813,1471,0,0,-1
-153.14,33.00,-77.76,4523,-6818,1468,0,0,-1
-153.15,33.00,-77.74,4524,-6818,1480,0,0,-1
-153.15,33.01,-77.73,4538,-6812,1484,0,0,-1
-153.15,33.01,-77.73,4533,-6809,1478,0,0,0
-153.16,33.01,-77.72,4526,-6810,1478,0,0,0
-153.17,33.00,-77.72,4525,-6806,1482,0,0,0
-153.17,33.01,-77.70,4521,-6808,1479,0,0,0
-153.19,33.00,-77.69,4515,-6813,1493,0,0,0
-153.19,33.00,-77.68,4522,-6809,1487,0,0,-1
-153.19,33.00,-77.67,4530,-6810,1482,0,0,-1
-153.18,33.01,-77.67,4532,-6803,1483,0,-1,-1
-153.18,33.01,-77.67,4526,-6804,1479,0,0,-1
-153.18,33.01,-77.67,4527,-6814,1486,0,0,-1
-153.18,33.02,-77.65,4532,-6815,1481,0,0,0
-153.20,33.01,-77.64,4532,-6814,1485,0,0,0
-153.20,33.01,-77.64,4529,-6809,1491,0,-1,0
-153.20,33.01,-77.64,4527,-6809,1494,-1,-1,-1
-153.20,33.01,-77.64,4529,-6813,1487,-1,-1,0
-153.19,33.01,-77.65,4538,-6808,1489,-1,-1,0
-153.18,33.02,-77.65,4535,-6806,1500,-1,-1,-1
-153.18,33.01,-77.67,4527,-6808,1487,-1,-1,0
-153.18,33.01,-77.67,4531,-6809,1486,-1,-1,-1
-153.18,33.01,-77.68,4532,-6809,1485,-1,-1,0
-153.18,33.01,-77.68,4531,-6809,1482,-1,0,-1
-153.17,33.01,-77.68,4531,-6809,1490,-1,0,0
-153.17,33.01,-77.69,4527,-6804,1486,-1,-1,0
-153.17,33.01,-77.69,4534,-6807,1490,-1,-1,-1
-153.15,33.02,-77.71,4535,-6804,1489,-1,-1,0
-153.15,33.02,-77.72,4523,-6807,1477,-1,-1,-1
-153.15,33.02,-77.73,4530,-6800,1474,-1,-1,0
-153.14,33.02,-77.73,4531,-6805,1477,-1,0,-1
-153.13,33.02,-77.73,4532,-6809,1485,-1,0,0
-153.14,33.02,-77.73,4531,-6806,1496,-1,0,0
-153.14,33.02,-77.74,4529,-6812,1491,-1,-1,-1
-153.14,33.02,-77.74,4529,-6807,1475,-1,0,0
-153.13,33.01,-77.75,4528,-6811,1468,-1,-1,0
-153.12,33.02,-77.76,4524,-6818,1467,-1,0,0
-153.12,33.02,-77.77,4528,-6816,1470,-1,-1,-1
-153.12,33.02,-77.77,4527,-6812,1479,-1,-1,-1
-153.12,33.02,-77.77,4525,-6813,1474,-1,-1,-1
-153.12,33.02,-77.78,4527,-6812,1478,-1,-1,-1
-153.11,33.02,-77.78,4523,-6816,1473,-1,-1,-1
-153.10,33.02,-77.80,4527,-6811,1460,-1,-1,0
-153.10,33.02,-77.80,4526,-6814,1463,-1,0,-1
-153.10,33.02,-77.81,4526,-6813,1466,-1,-1,0
-153.10,33.02,-77.81,4530,-6807,1471,-1,-1,0
-153.09,33.02,-77.82,4525,-6809,1470,-1,-1,0
-153.09,33.02,-77.83,4528,-6813,1461,-1,-1,0
-153.08,33.02,-77.85,4533,-6816,1459,-1,0,-1
-153.08,33.03,-77.84,4532,-6818,1463,-1,-1,-1
-153.07,33.02,-77.86,4536,-6817,1459,-1,-1,-1
-153.06,33.03,-77.86,4537,-6812,1455,-1,-1,0
-153.06,33.03,-77.87,4533,-6819,1454,-1,-1,0
-153.06,33.02,-77.88,4530,-6821,1460,-1,0,0
-153.06,33.02,-77.88,4527,-6817,1457,-1,0,-1
-153.06,33.02,-77.89,4527,-6815,1456,-1,-1,-1
-153.06,33.02,-77.88,4530,-6813,1469,-1,-1,-1
-153.05,33.02,-77.89,4528,-6813,1473,-1,-1,-1
-153.05,33.02,-77.90,4529,-6814,1461,-1,-1,-1
-153.04,33.03,-77.92,4537,-6816,1460,-1,-1,0
-153.03,33.03,-77.93,4540,-6823,1454,-1,-1,-1
-153.03,33.03,-77.94,4536,-6823,1447,-1,0,0
-153.02,33.03,-77.95,4536,-6821,1443,-1,-1,0
-153.01,33.03,-77.96,4534,-6816,1449,-1,-1,0
-153.01,33.02,-77.97,4536,-6820,1446,-1,-1,0
-153.01,33.02,-77.99,4536,-6822,1445,-1,-1,0
-153.00,33.02,-78.00,4530,-6820,1442,-1,-1,0
-152.99,33.02,-78.02,4531,-6818,1430,-1,-1,0
-152.99,33.02,-78.03,4533,-6819,1433,-1,-1,-1
-152.98,33.02,-78.03,4531,-6815,1437,-1,-1,0
-152.97,33.02,-78.05,4526,-6815,1431,-1,-1,0
-152.99,33.02,-78.04,4524,-6814,1430,0,0,0
-152.99,33.02,-78.04,4522,-6811,1435,-1,-1,0
-152.97,33.02,-78.06,4529,-6819,1439,-1,-1,-1
-152.97,33.02,-78.07,4530,-6819,1436,-1,-1,-1
-152.94,33.03,-78.09,4540,-6814,1427,-1,-1,0
-152.94,33.03,-78.11,4538,-6812,1430,-1,-1,0
-152.94,33.03,-78.12,4531,-6816,1426,-1,-1,0
-152.93,33.03,-78.12,4529,-6823,1432,0,-1,0
-152.93,33.03,-78.12,4541,-6822,1423,0,0,0
-152.93,33.03,-78.12,4544,-6816,1429,0,0,-1
-152.93,33.03,-78.12,4539,-6822,1423,0,-1,-1
-152.93,33.03,-78.12,4537,-6822,1426,0,0,-1
-152.93,33.03,-78.12,4535,-6825,1431,-1,-1,-1
-152.93,33.03,-78.12,4530,-6832,1428,-1,-1,-1
-152.93,33.04,-78.12,4534,-6822,1420,0,-1,-1
-152.93,33.04,-78.12,4539,-6820,1424,0,0,0
-152.93,33.04,-78.12,4530,-6818,1430,-1,-1,-1
-152.93,33.04,-78.12,4533,-6812,1439,-1,-1,0
-152.92,33.04,-78.12,4534,-6815,1430,0,0,0
-152.92,33.04,-78.12,4531,-6814,1432,0,-1,-1
-152.92,33.04,-78.12,4534,-6814,1424,0,0,-1
-152.92,33.04,-78.12,4535,-6816,1426,0,0,0
-152.93,33.04,-78.11,4538,-6819,1423,0,0,-1
-152.93,33.04,-78.11,4533,-6820,1426,0,0,0
-152.94,33.04,-78.09,4532,-6814,1441,0,0,0
-152.94,33.04,-78.08,4532,-6813,1439,0,0,-1
-152.94,33.04,-78.08,4528,-6816,1449,0,-1,0
-152.94,33.04,-78.08,4526,-6823,1441,-1,-1,0
-152.94,33.04,-78.08,4536,-6819,1434,-1,0,-1
-152.94,33.04,-78.08,4532,-6822,1426,0,0,0
-152.94,33.04,-78.08,4532,-6822,1423,0,0,-1
-152.95,33.04,-78.08,4535,-6819,1428,0,0,-1
-152.95,33.04,-78.07,4533,-6815,1429,0,-1,0
-152.95,33.04,-78.06,4531,-6816,1432,0,0,0
-152.96,33.04,-78.05,4521,-6820,1438,0,0,0
-152.98,33.03,-78.04,4519,-6821,1440,0,0,0
-152.98,33.03,-78.03,4524,-6819,1443,0,0,-1
-152.98,33.04,-78.03,4529,-6820,1448,0,0,-1
-152.98,33.04,-78.02,4533,-6813,1452,-1,-1,-1
-152.98,33.04,-78.03,4536,-6810,1443,-1,-1,-1
-152.97,33.04,-78.03,4541,-6812,1444,-1,-1,-1
-152.96,33.05,-78.03,4543,-6816,1438,0,-1,-1
-152.97,33.04,-78.03,4536,-6820,1443,0,0,0
-152.97,33.04,-78.03,4533,-6815,1438,0,0,0
-152.97,33.04,-78.02,4535,-6819,1440,0,-1,0
-152.98,33.04,-78.01,4534,-6819,1446,0,-1,0
-152.98,33.03,-78.02,4528,-6822,1448,0,0,0
-152.98,33.03,-78.02,4526,-6823,1443,0,0,-1
-152.99,33.03,-78.00,4532,-6821,1446,0,0,0
-153.00,33.03,-77.99,4530,-6815,1444,0,0,-1
-153.00,33.03,-77.98,4530,-6811,1446,0,0,-1
-153.00,33.04,-77.97,4531,-6821,1453,0,0,-1
-153.01,33.03,-77.95,4532,-6818,1449,0,0,-1
-153.01,33.04,-77.95,4538,-6821,1452,0,0,-1
-153.02,33.04,-77.94,4533,-6817,1458,-1,-1,-1
-153.01,33.04,-77.95,4536,-6810,1451,-1,-1,-1
-153.00,33.05,-77.95,4536,-6817,1449,-1,-1,-1
-153.00,33.05,-77.95,4527,-6813,1439,0,0,-1
-153.01,33.04,-77.95,4526,-6813,1430,0,0,0
-153.02,33.04,-77.94,4526,-6814,1448,0,0,-1
-153.02,33.04,-77.94,4528,-6814,1449,0,0,0
-153.02,33.04,-77.93,4524,-6816,1457,0,0,0
-153.03,33.04,-77.91,4527,-6817,1457,0,0,0
-153.03,33.03,-77.91,4526,-6814,1456,0,0,-1
-153.04,33.03,-77.90,4523,-6813,1456,0,0,-1
-153.05,33.03,-77.89,4523,-6813,1455,0,0,-1
-153.05,33.03,-77.88,4522,-6809,1461,0,-1,-1
-153.05,33.03,-77.88,4525,-6807,1465,0,0,-1
-153.05,33.03,-77.88,4528,-6807,1461,0,-1,-1
-153.05,33.03,-77.88,4527,-6804,1459,0,-1,-1
-153.05,33.03,-77.88,4522,-6807,1462,0,0,-1
-153.06,33.03,-77.87,4530,-6811,1455,0,0,0
-153.05,33.04,-77.87,4536,-6813,1449,0,0,-1
-153.06,33.03,-77.87,4536,-6815,1448,0,0,-1
-153.06,33.03,-77.86,4534,-6818,1440,0,0,0
-153.06,33.04,-77.85,4529,-6812,1454,0,0,0
-153.08,33.03,-77.84,4527,-6809,1463,0,0,0
-153.08,33.03,-77.83,4527,-6805,1472,0,0,-1
-153.08,33.03,-77.82,4525,-6804,1478,0,-1,-1
-153.08,33.03,-77.82,4523,-6813,1474,-1,-1,-1
-153.08,33.03,-77.82,4526,-6816,1468,0,0,-1
-153.08,33.03,-77.82,4531,-6814,1467,0,0,-1
-153.08,33.03,-77.81,4530,-6811,1470,0,-1,-1
-153.09,33.04,-77.80,4535,-6812,1473,0,0,-1
-153.09,33.04,-77.80,4535,-6813,1469,0,0,0
-153.10,33.03,-77.79,4532,-6815,1467,0,0,0
-153.11,33.03,-77.77,4528,-6813,1471,0,0,0
-153.12,33.03,-77.75,4524,-6813,1468,0,0,0
-153.13,33.03,-77.74,4524,-6810,1471,0,0,0
-153.13,33.03,-77.73,4518,-6806,1481,0,-1,-1
-153.13,33.03,-77.73,4517,-6805,1479,0,-1,-1
-153.13,33.03,-77.73,4522,-6802,1481,-1,-1,-1
-153.12,33.04,-77.73,4530,-6802,1478,0,0,-1
-153.13,33.03,-77.73,4532,-6810,1468,0,0,-1
-153.13,33.03,-77.72,4533,-6809,1476,0,-1,0
-153.13,33.04,-77.72,4531,-6807,1474,0,0,0
-153.14,33.04,-77.71,4531,-6806,1478,0,0,0
-153.14,33.03,-77.70,4533,-6807,1480,0,-1,0
-153.14,33.03,-77.70,4531,-6806,1482,0,-1,0
-153.15,33.04,-77.69,4533,-6806,1475,0,0,-1
-153.15,33.04,-77.68,4532,-6806,1472,0,0,-1
-153.16,33.04,-77.66,4535,-6813,1489,0,0,0
-153.17,33.04,-77.64,4536,-6814,1493,0,0,0
-153.18,33.03,-77.62,4532,-6808,1492,0,0,0
-153.18,33.04,-77.61,4526,-6808,1493,0,0,0
-153.19,33.04,-77.61,4534,-6807,1492,0,0,-1
-153.19,33.03,-77.61,4532,-6808,1492,-1,-1,-1
-153.19,33.03,-77.61,4525,-6807,1485,-1,-1,0
-153.19,33.03,-77.61,4526,-6810,1485,-1,-1,-1
-153.19,33.03,-77.61,4527,-6808,1484,0,0,0
-153.19,33.03,-77.61,4531,-6809,1480,0,0,0
-153.20,33.03,-77.61,4524,-6801,1479,0,0,0
-153.20,33.03,-77.61,4532,-6799,1487,0,0,0
-153.20,33.03,-77.60,4530,-6797,1491,-1,0,0
-153.20,33.03,-77.61,4535,-6801,1488,-1,0,0
-153.20,33.03,-77.61,4537,-6813,1489,-1,0,0
-153.20,33.03,-77.61,4531,-6813,1487,-1,-1,0
-153.20,33.03,-77.61,4527,-6802,1484,-1,-1,0
-153.19,33.02,-77.62,4531,-6805,1484,-1,-1,0
-153.19,33.03,-77.63,4528,-6797,1491,-1,-1,0
-153.18,33.03,-77.65,4534,-6804,1481,-1,-1,0
-153.17,33.03,-77.66,4531,-6808,1490,-1,-1,0
-153.16,33.03,-77.67,4531,-6811,1488,-1,-1,0
-153.16,33.03,-77.68,4542,-6811,1487,-1,-1,0
-153.16,33.03,-77.68,4538,-6807,1476,-1,0,0
-153.15,33.03,-77.69,4529,-6806,1474,-1,-1,0
-153.15,33.03,-77.69,4525,-6807,1472,-1,0,0
-153.16,33.03,-77.69,4531,-6809,1472,-1,-1,0
-153.16,33.02,-77.70,4523,-6815,1481,-1,-1,-1
-153.15,33.02,-77.71,4521,-6813,1487,-1,-1,0
-153.14,33.02,-77.72,4531,-6809,1485,-1,-1,0
-153.14,33.02,-77.73,4533,-6804,1482,-1,-1,-1
-153.13,33.03,-77.73,4534,-6808,1480,-1,-1,-1
-153.13,33.03,-77.74,4537,-6805,1478,-1,0,0
-153.13,33.03,-77.74,4535,-6808,1469,-1,0,0
-153.13,33.03,-77.74,4535,-6803,1471,-1,0,0
-153.12,33.03,-77.75,4533,-6806,1468,-1,0,0
-153.13,33.02,-77.75,4525,-6808,1474,-1,-1,0
-153.13,33.02,-77.75,4530,-6811,1477,-1,0,0
-153.13,33.02,-77.76,4524,-6818,1472,-1,0,-1
-153.13,33.02,-77.77,4527,-6812,1472,-1,-1,-1
-153.11,33.03,-77.78,4531,-6812,1474,-1,-1,-1
-153.10,33.03,-77.80,4532,-6809,1467,-1,-1,0
-153.10,33.03,-77.82,4540,-6812,1457,-1,-1,0
-153.09,33.03,-77.83,4541,-6816,1459,-1,-1,0
-153.09,33.02,-77.83,4534,-6818,1465,-1,-1,0
-153.08,33.02,-77.85,4537,-6816,1471,-1,-1,0
-153.08,33.02,-77.87,4540,-6816,1466,-1,-1,0
-153.07,33.02,-77.88,4534,-6815,1462,-1,-1,0
-153.06,33.02,-77.90,4537,-6824,1455,-1,-1,0
-153.06,33.02,-77.91,4537,-6819,1454,-1,-1,0
-153.05,33.02,-77.91,4531,-6817,1455,-1,0,0
-153.05,33.02,-77.91,4530,-6817,1456,-1,0,-1
-153.05,33.02,-77.91,4535,-6818,1459,-1,0,0
-153.06,33.02,-77.91,4530,-6819,1465,-1,0,0
-153.05,33.02,-77.92,4529,-6816,1455,-1,-1,-1
-153.05,33.02,-77.93,4528,-6818,1456,-1,-1,0
-153.05,33.02,-77.94,4526,-6815,1457,-1,-1,-1
-153.03,33.02,-77.96,4525,-6818,1448,-1,-1,0
-153.02,33.02,-77.98,4533,-6815,1440,-1,-1,0
-153.01,33.02,-78.00,4538,-6817,1441,-1,-1,0
-153.01,33.01,-78.02,4534,-6824,1436,-1,-1,0
-153.00,33.01,-78.03,4531,-6828,1433,-1,-1,0
-153.00,33.01,-78.04,4529,-6824,1435,-1,-1,0
-153.00,33.01,-78.05,4529,-6822,1429,-1,-1,0
-152.99,33.01,-78.06,4532,-6818,1426,-1,-1,0
-152.99,33.01,-78.07,4524,-6827,1430,-1,-1,0
-152.99,33.00,-78.08,4522,-6829,1430,-1,-1,0
-152.99,33.00,-78.09,4518,-6823,1436,-1,-1,0
-152.98,33.00,-78.10,4522,-6826,1430,-1,-1,0
-152.97,33.00,-78.11,4527,-6822,1434,-1,-1,0
-152.97,33.00,-78.12,4522,-6825,1434,-1,-1,0
-152.97,33.00,-78.13,4523,-6822,1436,-1,-1,-1
-152.96,33.00,-78.14,4527,-6824,1429,-1,-1,-1
-152.95,33.00,-78.14,4526,-6829,1423,-1,0,0
-152.96,33.00,-78.14,4523,-6827,1415,0,0,-1
-152.96,33.00,-78.14,4522,-6821,1425,0,-1,0
-152.96,33.00,-78.14,4525,-6835,1427,-1,-1,0
-152.96,33.00,-78.14,4531,-6827,1425,0,0,0
-152.96,33.00,-78.14,4534,-6823,1427,0,0,-1
-152.95,33.00,-78.14,4529,-6818,1422,0,0,-1
-152.96,33.00,-78.14,4525,-6817,1422,0,0,0
-152.97,33.00,-78.13,4523,-6821,1427,0,-1,0
-152.96,33.00,-78.14,4527,-6815,1425,0,-1,0
-152.96,33.00,-78.14,4524,-6819,1421,0,0,0
-152.98,32.99,-78.13,4519,-6826,1433,0,0,-1
-152.98,32.99,-78.12,4519,-6828,1435,0,0,-1
-152.98,32.99,-78.12,4523,-6820,1436,0,0,-1
-152.97,33.00,-78.12,4525,-6818,1430,-1,-1,-1
-152.97,33.00,-78.13,4524,-6822,1425,-1,-1,-1
-152.97,33.00,-78.13,4520,-6822,1424,0,0,0
-152.98,32.99,-78.12,4525,-6821,1422,0,0,0
-152.98,32.99,-78.11,4527,-6815,1430,0,0,0
-152.98,33.00,-78.11,4525,-6821,1429,0,0,-1
-152.98,33.00,-78.10,4534,-6821,1431,0,0,-1
-152.98,33.00,-78.10,4532,-6824,1439,0,-1,-1
-152.98,33.00,-78.10,4538,-6825,1436,-1,-1,-1
-152.98,33.00,-78.10,4539,-6828,1429,0,-1,-1
-152.99,33.00,-78.10,4536,-6831,1433,0,0,-1
-152.99,33.00,-78.10,4531,-6821,1434,0,0,-1
-152.99,33.00,-78.08,4529,-6819,1433,0,0,-1
-152.99,33.00,-78.07,4527,-6819,1428,0,0,-1
-152.99,33.01,-78.06,4532,-6824,1423,0,0,0
-153.00,33.00,-78.05,4532,-6823,1433,0,0,-1
-153.00,33.00,-78.05,4534,-6829,1439,-1,0,-1
-153.00,33.00,-78.05,4535,-6821,1440,-1,-1,-1
-153.00,33.01,-78.06,4532,-6823,1432,0,0,-1
-153.00,33.01,-78.06,4526,-6818,1427,0,-1,-1
-153.00,33.01,-78.05,4522,-6820,1433,0,0,-1
-153.00,33.01,-78.05,4530,-6825,1443,0,0,-1
-153.01,33.01,-78.03,4528,-6825,1447,0,0,-1
-153.01,33.01,-78.03,4527,-6818,1437,0,0,-1
-153.01,33.01,-78.03,4521,-6814,1435,0,0,-1
-153.02,33.00,-78.03,4516,-6816,1433,0,0,0
-153.02,33.00,-78.02,4516,-6819,1427,0,0,-1
-153.02,33.00,-78.02,4515,-6817,1425,0,0,0
-153.02,33.01,-78.01,4520,-6818,1436,0,0,-1
-153.02,33.01,-78.00,4523,-6819,1442,0,0,-1
-153.02,33.01,-78.00,4531,-6815,1443,0,0,-1
-153.02,33.01,-77.99,4524,-6818,1444,0,0,-1
-153.02,33.01,-77.99,4531,-6820,1441,0,0,-1
-153.03,33.01,-77.99,4528,-6818,1441,0,0,-1
-153.03,33.01,-77.98,4526,-6815,1448,0,0,-1
-153.04,33.01,-77.96,4532,-6816,1449,0,0,-1
-153.04,33.01,-77.96,4533,-6817,1446,0,0,0
-153.04,33.01,-77.95,4527,-6820,1459,0,0,-1
-153.04,33.02,-77.94,4523,-6819,1452,0,0,-1
-153.05,33.02,-77.94,4528,-6810,1464,0,0,-1
-153.04,33.02,-77.92,4528,-6815,1466,0,0,-1
-153.04,33.02,-77.92,4536,-6812,1474,0,0,-1
-153.05,33.02,-77.91,4535,-6819,1465,0,0,0
-153.05,33.02,-77.90,4534,-6815,1464,0,0,0
-153.06,33.02,-77.89,4526,-6815,1462,0,0,0
-153.07,33.02,-77.88,4525,-6816,1457,0,0,0
-153.08,33.02,-77.87,4521,-6812,1461,0,0,-1
-153.09,33.01,-77.86,4527,-6813,1464,0,0,-1
-153.09,33.01,-77.86,4532,-6816,1462,0,-1,-1
-153.09,33.02,-77.85,4529,-6819,1470,0,-1,-1
-153.08,33.02,-77.85,4531,-6812,1467,0,-1,-1
-153.08,33.02,-77.85,4536,-6810,1461,0,0,-1
-153.08,33.02,-77.85,4537,-6808,1463,0,0,0
-153.09,33.02,-77.84,4537,-6805,1462,0,0,0
-153.09,33.02,-77.83,4532,-6813,1465,0,-1,-1
-153.11,33.02,-77.82,4530,-6818,1472,0,-1,0
-153.11,33.02,-77.81,4532,-6814,1478,0,-1,-1
-153.10,33.02,-77.81,4531,-6818,1477,0,0,-1
-153.10,33.03,-77.81,4531,-6817,1467,0,0,-1
-153.11,33.02,-77.79,4530,-6813,1470,0,0,-1
-153.12,33.03,-77.78,4529,-6817,1477,0,0,-1
-153.12,33.03,-77.77,4532,-6817,1473,0,0,0
-153.13,33.02,-77.76,4527,-6816,1466,0,0,0
-153.14,33.02,-77.74,4526,-6817,1464,0,0,-1
-153.14,33.03,-77.73,4533,-6815,1474,0,-1,-1
-153.14,33.03,-77.73,4543,-6814,1474,-1,-1,-1
-153.14,33.03,-77.74,4540,-6820,1474,-1,-1,0
-153.13,33.03,-77.74,4539,-6819,1473,-1,0,0
-153.13,33.03,-77.74,4539,-6814,1474,0,-1,-1
-153.14,33.03,-77.74,4537,-6811,1468,0,0,-1
-153.14,33.03,-77.73,4534,-6809,1481,0,0,0
-153.15,33.03,-77.71,4533,-6814,1479,0,0,-1
-153.15,33.03,-77.71,4533,-6811,1479,0,0,-1
-153.16,33.03,-77.70,4523,-6814,1474,0,0,-1
-153.16,33.03,-77.70,4522,-6812,1482,0,0,0
-153.16,33.03,-77.69,4530,-6813,1473,0,0,-1
-153.16,33.03,-77.69,4525,-6813,1471,0,-1,-1
-153.16,33.03,-77.69,4530,-6812,1487,0,0,0
-153.16,33.03,-77.68,4527,-6804,1499,-1,-1,-1
-153.16,33.03,-77.69,4532,-6806,1488,-1,-1,-1
-153.16,33.03,-77.68,4530,-6808,1492,0,0,-1
-153.16,33.03,-77.67,4530,-6812,1489,0,-1,-1
-153.16,33.03,-77.67,4537,-6812,1480,0,0,0
-153.16,33.03,-77.67,4531,-6814,1480,0,0,-1
-153.16,33.03,-77.67,4528,-6809,1480,0,0,0
-153.16,33.03,-77.67,4532,-6807,1481,-1,0,0
-153.16,33.03,-77.67,4535,-6809,1490,-1,0,0
-153.16,33.03,-77.67,4526,-6806,1492,-1,-1,0
-153.16,33.03,-77.69,4524,-6812,1480,-1,-1,-1
-153.16,33.03,-77.70,4521,-6819,1483,-1,-1,-1
-153.15,33.03,-77.71,4527,-6821,1478,-1,0,0
-153.15,33.02,-77.73,4526,-6813,1470,-1,-1,-1
-153.13,33.03,-77.74,4524,-6814,1470,-1,-1,0
-153.14,33.02,-77.74,4533,-6807,1478,-1,-1,0
-153.13,33.03,-77.75,4533,-6805,1475,-1,-1,0
-153.13,33.02,-77.76,4525,-6808,1475,-1,0,0
-153.14,33.02,-77.76,4517,-6808,1470,-1,0,0
-153.13,33.02,-77.76,4528,-6807,1478,-1,0,0
-153.13,33.02,-77.77,4537,-6806,1478,-1,0,-1
-153.13,33.02,-77.77,4533,-6805,1485,-1,-1,-1
-153.11,33.02,-77.79,4535,-6807,1492,-1,-1,-1
-153.11,33.03,-77.80,4533,-6806,1485,-1,-1,0
-153.10,33.03,-77.81,4535,-6806,1480,-1,-1,0
-153.09,33.03,-77.82,4531,-6812,1472,-1,-1,0
-153.09,33.02,-77.83,4535,-6816,1456,-1,-1,0
-153.09,33.02,-77.84,4538,-6815,1463,-1,0,0
-153.09,33.02,-77.84,4531,-6816,1473,-1,-1,0
-153.09,33.02,-77.85,4526,-6814,1471,-1,-1,-1
-153.08,33.02,-77.86,4522,-6816,1463,-1,-1,-1
-153.07,33.03,-77.87,4526,-6820,1456,-1,0,-1
-153.07,33.03,-77.87,4530,-6816,1450,-1,0,0
-153.07,33.02,-77.89,4532,-6816,1453,-1,-1,-1
-153.07,33.02,-77.88,4529,-6819,1457,-1,-1,0
-153.07,33.02,-77.88,4528,-6821,1464,-1,0,0
-153.07,33.02,-77.88,4528,-6820,1462,-1,0,-1
-153.07,33.02,-77.89,4530,-6818,1468,-1,-1,-1
-153.05,33.02,-77.90,4536,-6817,1472,-1,-1,0
-153.05,33.02,-77.91,4534,-6815,1465,-1,-1,0
-153.04,33.02,-77.94,4525,-6817,1460,-1,-1,0
-153.04,33.02,-77.95,4526,-6821,1451,-1,-1,0
-153.03,33.02,-77.97,4538,-6814,1450,-1,-1,0
-153.02,33.02,-77.98,4536,-6812,1442,-1,-1,0
-153.01,33.02,-77.98,4529,-6814,1453,-1,-1,0
-153.02,33.02,-78.00,4524,-6815,1450,-1,-1,0
-153.01,33.02,-78.00,4526,-6815,1456,-1,-1,0
-153.01,33.02,-78.01,4533,-6817,1455,-1,-1,0
-153.00,33.01,-78.02,4529,-6815,1446,-1,-1,0
-153.00,33.01,-78.03,4528,-6814,1455,-1,0,0
-153.00,33.01,-78.04,4526,-6813,1459,-1,-1,0
-153.00,33.01,-78.05,4531,-6813,1463,-1,-1,0
-152.98,33.02,-78.06,4530,-6813,1453,-1,-1,0
-152.98,33.01,-78.08,4525,-6818,1448,-1,-1,0
-152.98,33.01,-78.09,4536,-6820,1442,-1,-1,0
-152.97,33.01,-78.10,4542,-6821,1443,-1,-1,0
-152.96,33.01,-78.11,4542,-6825,1445,-1,-1,0
-152.96,33.01,-78.12,4535,-6822,1433,-1,-1,0
-152.96,33.01,-78.13,4533,-6823,1430,-1,-1,0
-152.95,33.01,-78.14,4533,-6826,1437,-1,0,0
-152.95,33.01,-78.15,4535,-6828,1428,-1,-1,0
-152.95,33.01,-78.16,4533,-6823,1439,-1,-1,0
-152.94,33.00,-78.17,4531,-6823,1428,-1,-1,0
-152.94,33.00,-78.19,4520,-6823,1443,-1,-1,0
-152.93,33.00,-78.21,4519,-6824,1436,-1,-1,0
-152.92,33.00,-78.23,4521,-6823,1428,-1,-1,-1
-152.91,33.00,-78.24,4531,-6819,1429,-1,-1,-1
-152.91,33.00,-78.24,4536,-6818,1423,-1,-1,-1
-152.91,33.00,-78.24,4532,-6821,1421,0,0,0
-152.91,33.00,-78.24,4530,-6827,1436,-1,-1,0
-152.92,32.99,-78.24,4532,-6824,1439,0,0,0
-152.92,32.99,-78.23,4527,-6822,1428,0,0,0
-152.94,32.98,-78.23,4517,-6826,1429,0,0,0
-152.94,32.98,-78.23,4519,-6825,1431,-1,0,-1
-152.93,32.98,-78.23,4518,-6829,1434,-1,0,-1
-152.93,32.98,-78.24,4525,-6830,1434,-1,-1,-1
-152.92,32.99,-78.24,4529,-6822,1430,-1,-1,0
-152.91,32.99,-78.25,4530,-6819,1424,-1,-1,0
-152.91,32.99,-78.25,4529,-6821,1420,-1,0,0
-152.91,32.99,-78.25,4532,-6825,1424,0,0,0
-152.92,32.98,-78.25,4530,-6823,1425,0,0,0
-152.92,32.99,-78.24,4528,-6823,1422,0,0,0
-152.92,32.99,-78.24,4528,-6827,1430,0,0,0
-152.92,32.99,-78.24,4523,-6818,1439,0,0,0
-152.93,32.98,-78.23,4529,-6825,1442,0,0,0
-152.93,32.98,-78.23,4529,-6823,1437,0,0,0
-152.94,32.98,-78.22,4531,-6826,1433,0,0,0
-152.95,32.98,-78.21,4530,-6832,1426,0,0,0
-152.95,32.98,-78.20,4529,-6827,1427,0,0,-1
-152.95,32.98,-78.19,4532,-6825,1430,0,0,-1
-152.95,32.98,-78.19,4535,-6825,1438,-1,-1,0
-152.95,32.98,-78.19,4538,-6818,1437,-1,-1,0
-152.95,32.99,-78.20,4534,-6819,1440,-1,-1,0
-152.95,32.98,-78.21,4524,-6816,1433,-1,-1,0
-152.95,32.98,-78.21,4530,-6815,1428,0,0,0
-152.94,32.99,-78.20,4534,-6813,1431,0,0,0
-152.95,32.98,-78.20,4529,-6820,1421,0,0,0
-152.95,32.98,-78.19,4527,-6821,1433,0,0,0
-152.95,32.98,-78.18,4528,-6818,1434,0,0,0
-152.97,32.98,-78.18,4523,-6824,1438,0,0,0
-152.97,32.98,-78.17,4519,-6820,1444,0,0,-1
-152.97,32.98,-78.16,4521,-6825,1445,0,0,0
-152.98,32.97,-78.16,4530,-6827,1443,0,0,-1
-152.98,32.97,-78.15,4530,-6823,1445,0,0,-1
-152.98,32.97,-78.15,4525,-6831,1443,0,0,0
-152.98,32.97,-78.15,4533,-6828,1442,-1,-1,-1
-152.97,32.98,-78.15,4539,-6826,1447,-1,-1,-1
-152.97,32.98,-78.15,4536,-6824,1438,-1,0,-1
-152.97,32.98,-78.16,4532,-6817,1431,0,0,-1
-152.97,32.98,-78.15,4530,-6814,1441,0,0,0
-152.98,32.98,-78.14,4532,-6813,1437,0,0,0
-152.98,32.98,-78.13,4528,-6819,1440,0,0,0
-152.99,32.98,-78.13,4526,-6822,1456,-1,-1,0
-152.99,32.97,-78.13,4521,-6830,1442,-1,-1,0
-152.99,32.97,-78.13,4517,-6826,1439,-1,0,-1
-152.99,32.98,-78.13,4526,-6825,1440,-1,0,-1
-152.98,32.98,-78.13,4529,-6822,1444,-1,0,-1
-152.98,32.99,-78.12,4537,-6817,1446,0,0,-1
-152.98,32.99,-78.12,4530,-6813,1440,0,0,0
-152.99,32.98,-78.11,4526,-6816,1443,0,0,0
-152.99,32.98,-78.11,4523,-6817,1444,0,0,0
-152.99,32.98,-78.10,4521,-6818,1446,0,0,0
-153.01,32.98,-78.10,4518,-6824,1443,0,0,-1
-153.01,32.97,-78.09,4521,-6829,1443,0,0,-1
-153.01,32.98,-78.08,4524,-6825,1447,0,-1,-1
-153.00,32.98,-78.08,4521,-6830,1448,-1,-1,-1
-153.00,32.99,-78.09,4534,-6824,1440,0,0,-1
-153.00,32.99,-78.09,4529,-6822,1435,0,0,0
-153.00,32.98,-78.08,4533,-6826,1440,0,0,0
-153.01,32.98,-78.07,4527,-6821,1448,0,0,0
-153.01,32.98,-78.07,4533,-6820,1455,-1,-1,0
-153.02,32.98,-78.06,4531,-6819,1461,-1,-1,-1
-153.01,32.98,-78.07,4531,-6820,1447,-1,-1,-1
-153.01,32.98,-78.08,4520,-6823,1444,-1,0,-1
-153.02,32.98,-78.07,4523,-6818,1443,0,0,-1
-153.02,32.98,-78.06,4528,-6816,1448,0,0,-1
-153.02,32.98,-78.05,4521,-6822,1449,0,0,-1
-153.02,32.98,-78.04,4523,-6825,1455,0,0,-1
-153.03,32.98,-78.02,4525,-6816,1447,0,0,0
-153.03,32.98,-78.02,4527,-6820,1454,0,0,-1
-153.03,32.99,-78.01,4533,-6816,1458,-1,-1,-1
-153.03,32.99,-78.01,4527,-6810,1458,-1,-1,-1
-153.03,32.99,-78.01,4529,-6807,1460,-1,-1,-1
-153.03,32.99,-78.02,4527,-6818,1455,0,-1,-1
-153.03,32.99,-78.01,4528,-6809,1449,0,0,0
-153.04,32.99,-78.01,4527,-6813,1446,0,0,0
-153.04,32.99,-78.01,4526,-6815,1445,0,0,-1
-153.04,32.99,-78.01,4528,-6814,1449,0,0,-1
-153.03,33.00,-78.00,4526,-6813,1455,0,0,-1
-153.03,33.00,-78.00,4532,-6811,1457,0,0,-1
-153.04,32.99,-77.99,4532,-6812,1458,0,0,0
-153.04,32.99,-77.97,4531,-6815,1465,0,0,-1
-153.06,32.99,-77.95,4528,-6813,1468,0,0,-1
-153.06,32.99,-77.95,4528,-6814,1471,0,0,-1
-153.06,33.00,-77.94,4528,-6816,1471,0,0,-1
-153.06,33.00,-77.94,4529,-6813,1468,0,0,-1
-153.06,33.00,-77.94,4531,-6811,1475,0,0,-1
-153.06,33.00,-77.93,4528,-6813,1466,0,0,-1
-153.06,33.01,-77.93,4530,-6806,1465,0,0,-1
-153.06,33.01,-77.92,4536,-6809,1467,0,0,-1
-153.07,33.01,-77.91,4536,-6810,1457,0,0,0
-153.07,33.00,-77.90,4531,-6815,1460,0,-1,-1
-153.07,33.00,-77.90,4528,-6820,1465,0,0,-1
-153.07,33.01,-77.90,4523,-6816,1469,0,0,-1
-153.07,33.01,-77.90,4534,-6812,1465,0,0,-1
-153.06,33.02,-77.89,4540,-6811,1469,0,0,-1
-153.07,33.01,-77.89,4532,-6815,1468,0,0,-1
-153.08,33.01,-77.88,4531,-6811,1466,0,0,0
-153.08,33.01,-77.88,4528,-6811,1470,0,0,0
-153.08,33.01,-77.87,4522,-6808,1481,0,0,0
-153.10,33.01,-77.85,4521,-6814,1476,0,0,0
-153.10,33.00,-77.84,4521,-6812,1487,0,0,-1
-153.11,33.00,-77.83,4523,-6814,1486,0,0,-1
-153.11,33.00,-77.83,4524,-6814,1489,-1,-1,-1
-153.10,33.01,-77.83,4527,-6810,1484,-1,-1,-1
-153.09,33.01,-77.84,4527,-6806,1477,-1,-1,0
-153.10,33.01,-77.83,4528,-6807,1484,-1,0,0
-153.11,33.00,-77.83,4529,-6809,1482,0,0,0
-153.11,33.00,-77.83,4530,-6813,1482,-1,-1,0
-153.11,33.00,-77.83,4528,-6817,1484,-1,-1,0
-153.10,33.00,-77.84,4524,-6813,1482,-1,-1,0
-153.10,33.00,-77.85,4524,-6813,1480,-1,-1,-1
-153.10,33.00,-77.85,4529,-6814,1491,-1,-1,0
-153.10,33.00,-77.86,4529,-6808,1491,-1,-1,0
-153.09,33.00,-77.86,4528,-6811,1490,-1,0,0
-153.11,32.99,-77.86,4525,-6814,1486,-1,0,0
-153.11,32.99,-77.86,4527,-6815,1484,-1,0,0
-153.10,33.00,-77.86,4530,-6812,1479,-1,0,-1
-153.10,33.00,-77.86,4531,-6818,1481,-1,-1,-1
-153.09,33.00,-77.87,4536,-6821,1476,-1,-1,-1
-153.08,33.00,-77.89,4530,-6815,1474,-1,-1,0
-153.07,33.00,-77.90,4530,-6811,1467,-1,-1,0
-153.07,33.00,-77.92,4532,-6807,1459,-1,-1,0
-153.07,33.00,-77.92,4524,-6806,1466,-1,-1,0
-153.06,33.00,-77.93,4525,-6815,1473,-1,0,0
-153.07,32.99,-77.93,4518,-6814,1465,-1,0,0
-153.07,32.99,-77.93,4517,-6809,1468,-1,0,0
-153.07,32.99,-77.93,4520,-6810,1468,-1,0,0
-153.06,33.00,-77.93,4523,-6811,1468,-1,0,-1
-153.06,33.00,-77.93,4523,-6810,1462,-1,-1,0
-153.06,32.99,-77.94,4527,-6815,1470,-1,-1,0
-153.06,32.99,-77.94,4527,-6816,1471,-1,-1,0
-153.05,33.00,-77.95,4529,-6808,1469,-1,-1,-1
-153.05,32.99,-77.96,4527,-6807,1462,-1,-1,0
-153.04,33.00,-77.97,4522,-6814,1460,-1,-1,-1
-153.04,32.99,-77.98,4528,-6816,1460,-1,-1,0
-153.03,33.00,-77.98,4524,-6815,1459,-1,-1,0
-153.03,33.00,-77.99,4531,-6818,1459,-1,-1,0
-153.03,33.00,-77.99,4531,-6815,1460,-1,-1,0
-153.02,32.99,-78.00,4526,-6817,1455,-1,0,0
-153.02,32.99,-78.00,4525,-6808,1453,-1,0,0
-153.02,33.00,-78.00,4528,-6802,1447,-1,0,-1
-153.02,33.00,-78.01,4525,-6808,1456,-1,-1,-1
-153.01,33.00,-78.02,4526,-6803,1454,-1,-1,0
-153.00,33.00,-78.03,4523,-6803,1456,-1,-1,-1
-152.99,33.01,-78.05,4525,-6801,1458,-1,-1,-1
-152.99,33.00,-78.06,4535,-6805,1462,-1,-1,0
-152.97,33.01,-78.08,4534,-6805,1454,-1,-1,0
-152.97,33.01,-78.08,4534,-6803,1455,-1,-1,0
-152.97,33.00,-78.09,4534,-6814,1453,-1,-1,0
-152.98,33.00,-78.10,4527,-6813,1442,-1,-1,0
-152.97,32.99,-78.11,4525,-6817,1439,-1,0,0
-152.97,33.00,-78.11,4529,-6821,1453,-1,0,-1
-152.97,33.00,-78.11,4532,-6814,1462,-1,-1,-1
-152.95,33.00,-78.12,4538,-6816,1464,-1,-1,-1
-152.95,33.00,-78.13,4527,-6813,1469,-1,-1,0
-152.93,33.01,-78.15,4531,-6809,1446,-1,-1,0
-152.93,33.00,-78.17,4534,-6817,1438,-1,-1,0
-152.92,33.01,-78.18,4535,-6813,1439,-1,-1,0
-152.92,33.01,-78.18,4532,-6811,1447,-1,-1,0
-152.92,33.00,-78.19,4529,-6812,1446,-1,-1,0
-152.91,33.01,-78.20,4533,-6812,1442,-1,-1,0
-152.90,33.01,-78.21,4530,-6815,1442,-1,-1,0
-152.90,33.00,-78.23,4527,-6817,1446,-1,-1,-1
-152.90,33.00,-78.23,4523,-6828,1436,-1,-1,0
