Yaw,Pitch,Roll,AX,AY,AZ,GX,GY,GZ
-151.32,34.40,-76.55,4689,-6667,1585,-1,-1,0
-151.33,34.39,-76.55,4687,-6668,1581,-1,-1,0
-151.33,34.39,-76.56,4689,-6668,1580,-1,-1,0
-151.32,34.39,-76.56,4690,-6666,1582,-1,-1,-1
-151.32,34.39,-76.57,4689,-6663,1587,-1,-1,0
-151.32,34.39,-76.57,4695,-6668,1596,-1,0,-1
-151.32,34.39,-76.57,4695,-6672,1600,0,0,-1
-151.31,34.39,-76.58,4696,-6671,1591,-1,-1,0
-151.31,34.39,-76.59,4694,-6671,1589,-1,-1,0
-151.31,34.39,-76.59,4690,-6673,1581,-1,0,-1
-151.31,34.38,-76.60,4693,-6681,1579,-1,0,-1
-151.30,34.39,-76.60,4692,-6677,1584,-1,0,-1
-151.30,34.39,-76.61,4695,-6677,1583,-1,-1,-1
-151.31,34.38,-76.61,4688,-6678,1586,-1,-1,0
-151.31,34.38,-76.61,4683,-6671,1580,-1,-1,0
-151.31,34.38,-76.62,4685,-6669,1576,-1,-1,-1
-151.31,34.38,-76.62,4686,-6673,1577,-1,-1,-1
-151.31,34.38,-76.63,4681,-6676,1576,-1,0,-1
-151.30,34.38,-76.63,4680,-6680,1584,-1,-1,-1
-151.30,34.38,-76.63,4682,-6669,1592,-1,-1,-1
-151.30,34.38,-76.63,4688,-6670,1581,-1,-1,-1
-151.30,34.38,-76.64,4687,-6668,1585,-1,-1,0
-151.30,34.38,-76.65,4689,-6673,1571,-1,-1,0
-151.30,34.37,-76.66,4690,-6673,1567,-1,0,-1
-151.30,34.37,-76.67,4687,-6678,1567,-1,-1,-1
-151.29,34.38,-76.67,4692,-6675,1573,-1,-1,-1
-151.29,34.38,-76.67,4689,-6671,1573,-1,-1,0
-151.29,34.38,-76.69,4690,-6675,1567,-1,-1,-1
-151.29,34.38,-76.69,4688,-6676,1576,-1,-1,0
-151.28,34.37,-76.70,4687,-6681,1567,-1,-1,-1
-151.28,34.37,-76.70,4684,-6677,1571,-1,-1,0
-151.28,34.37,-76.70,4686,-6678,1575,-1,-1,0
-151.28,34.37,-76.71,4690,-6681,1572,0,0,-1
-151.28,34.37,-76.71,4695,-6681,1583,-1,-1,-1
-151.27,34.38,-76.72,4689,-6678,1575,-1,-1,-1
-151.27,34.37,-76.73,4688,-6676,1565,-1,-1,-1
-151.27,34.37,-76.73,4685,-6677,1569,-1,-1,-1
-151.26,34.38,-76.74,4682,-6675,1562,-1,-1,-1
-151.27,34.37,-76.75,4685,-6678,1563,-1,-1,0
-151.26,34.37,-76.76,4687,-6686,1560,-1,-1,0
-151.25,34.37,-76.77,4689,-6681,1558,-1,-1,-1
-151.25,34.37,-76.78,4688,-6679,1561,-1,-1,0
-151.25,34.37,-76.78,4684,-6681,1554,-1,-1,0
-151.25,34.37,-76.79,4683,-6678,1557,-1,-1,0
-151.25,34.37,-76.80,4686,-6682,1555,-1,-1,-1
-151.24,34.37,-76.81,4685,-6684,1568,-1,-1,-1
-151.24,34.37,-76.81,4691,-6678,1565,-1,-1,0
-151.24,34.37,-76.82,4694,-6676,1568,-1,-1,-1
-151.24,34.37,-76.83,4686,-6673,1563,-1,-1,0
-151.23,34.36,-76.85,4686,-6679,1558,-1,-1,0
-151.23,34.37,-76.85,4687,-6680,1560,-1,-1,-1
-151.22,34.37,-76.86,4686,-6684,1555,-1,-1,-1
-151.22,34.37,-76.87,4685,-6677,1555,-1,-1,-1
-151.22,34.37,-76.87,4685,-6677,1553,-1,-1,0
-151.21,34.37,-76.88,4690,-6674,1556,-1,-1,0
-151.21,34.37,-76.88,4692,-6684,1558,0,0,0
-151.22,34.36,-76.89,4694,-6685,1556,-1,-1,0
-151.21,34.37,-76.90,4693,-6686,1553,-1,-1,0
-151.21,34.36,-76.91,4686,-6684,1543,-1,-1,-1
-151.20,34.37,-76.91,4691,-6680,1545,-1,0,-1
-151.20,34.37,-76.92,4696,-6680,1530,-1,-1,0
-151.19,34.37,-76.94,4690,-6684,1537,-1,-1,0
-151.19,34.36,-76.94,4696,-6686,1553,-1,-1,0
-151.19,34.36,-76.96,4704,-6675,1551,-1,-1,0
-151.18,34.37,-76.97,4698,-6682,1547,-1,-1,0
-151.18,34.36,-76.98,4690,-6686,1536,-1,-1,0
-151.18,34.36,-76.98,4685,-6686,1543,-1,-1,0
-151.17,34.36,-77.00,4686,-6682,1548,-1,-1,-1
-151.17,34.36,-77.00,4689,-6687,1540,-1,-1,-1
-151.17,34.36,-77.01,4697,-6688,1532,-1,-1,-1
-151.17,34.36,-77.02,4696,-6680,1539,-1,-1,-1
-151.16,34.36,-77.02,4689,-6681,1544,-1,-1,0
-151.16,34.36,-77.02,4686,-6682,1542,-1,-1,-1
-151.16,34.36,-77.03,4683,-6685,1537,-1,-1,-1
-151.15,34.36,-77.05,4686,-6679,1539,-1,-1,0
-151.15,34.36,-77.06,4686,-6685,1527,-1,-1,0
-151.15,34.36,-77.06,4687,-6686,1526,-1,-1,-1
-151.15,34.36,-77.07,4690,-6687,1522,0,-1,0
-151.15,34.36,-77.06,4692,-6687,1524,-1,-1,-1
-151.14,34.37,-77.07,4689,-6687,1526,-1,-1,-1
-151.14,34.37,-77.07,4693,-6688,1524,-1,-1,-1
-151.14,34.37,-77.07,4692,-6687,1526,-1,0,-1
-151.14,34.37,-77.07,4697,-6689,1527,-1,0,-1
-151.14,34.37,-77.07,4694,-6689,1525,0,0,-1
-151.14,34.37,-77.07,4692,-6692,1522,0,-1,-1
-151.13,34.38,-77.08,4695,-6681,1517,0,-1,-1
-151.13,34.38,-77.08,4693,-6681,1525,0,-1,-1
-151.13,34.38,-77.07,4695,-6681,1526,0,-1,-1
-151.14,34.37,-77.07,4690,-6686,1530,0,-1,-1
-151.14,34.37,-77.06,4692,-6683,1532,0,-1,-1
-151.14,34.37,-77.07,4697,-6681,1532,0,-1,-1
-151.15,34.37,-77.06,4689,-6683,1531,0,0,-1
-151.15,34.37,-77.05,4686,-6683,1537,0,0,-1
-151.15,34.37,-77.04,4687,-6682,1539,0,0,-1
-151.15,34.37,-77.03,4687,-6682,1536,0,0,-1
-151.16,34.37,-77.02,4685,-6681,1536,0,0,-1
-151.15,34.37,-77.02,4690,-6681,1533,0,0,-1
-151.16,34.38,-77.02,4694,-6678,1540,0,0,-1
-151.16,34.37,-77.00,4694,-6678,1541,0,0,0
-151.16,34.38,-77.00,4694,-6675,1539,0,0,-1
-151.17,34.37,-76.99,4693,-6686,1535,0,0,-1
-151.17,34.37,-76.98,4688,-6691,1534,0,0,-1
-151.17,34.37,-76.98,4692,-6688,1531,0,0,-1
-151.17,34.37,-76.98,4691,-6688,1539,0,0,-1
-151.18,34.37,-76.97,4694,-6690,1547,0,0,-1
-151.18,34.37,-76.97,4693,-6679,1548,0,-1,-1
-151.19,34.37,-76.96,4691,-6676,1542,0,0,-1
-151.19,34.37,-76.96,4691,-6681,1544,0,0,-1
-151.19,34.37,-76.95,4687,-6683,1544,0,0,0
-151.19,34.37,-76.94,4682,-6684,1546,0,0,-1
-151.20,34.37,-76.93,4684,-6681,1551,0,0,-1
-151.20,34.37,-76.92,4686,-6683,1563,0,0,-1
-151.20,34.37,-76.92,4689,-6683,1565,0,0,-1
-151.21,34.37,-76.91,4690,-6684,1546,0,-1,0
-151.21,34.37,-76.91,4683,-6680,1548,0,-1,0
-151.21,34.36,-76.91,4687,-6684,1552,0,-1,0
-151.21,34.36,-76.91,4682,-6686,1547,0,0,-1
-151.21,34.36,-76.90,4687,-6688,1550,0,0,-1
-151.22,34.36,-76.89,4686,-6685,1546,0,0,-1
-151.22,34.36,-76.89,4689,-6687,1547,0,0,-1
-151.22,34.37,-76.89,4692,-6684,1550,0,0,-1
-151.22,34.36,-76.88,4690,-6686,1555,0,0,-1
-151.22,34.37,-76.87,4693,-6677,1551,0,-1,-1
-151.23,34.36,-76.88,4698,-6681,1544,0,-1,-1
-151.21,34.37,-76.88,4704,-6679,1548,-1,-1,0
-151.23,34.36,-76.88,4695,-6678,1550,0,0,0
-151.23,34.36,-76.88,4691,-6681,1543,0,0,0
-151.23,34.36,-76.88,4691,-6683,1540,0,0,-1
-151.23,34.36,-76.86,4691,-6687,1545,0,0,-1
-151.23,34.36,-76.86,4687,-6686,1546,0,-1,-1
-151.23,34.36,-76.86,4687,-6686,1537,0,0,-1
-151.24,34.36,-76.85,4684,-6686,1538,0,0,-1
-151.24,34.36,-76.85,4689,-6679,1543,0,0,-1
-151.24,34.36,-76.84,4688,-6679,1553,0,0,-1
-151.24,34.36,-76.83,4689,-6681,1561,0,0,-1
-151.24,34.36,-76.83,4686,-6680,1561,0,0,-1
-151.25,34.36,-76.83,4683,-6682,1552,0,0,-1
-151.25,34.36,-76.83,4680,-6677,1553,0,0,-1
-151.25,34.36,-76.82,4683,-6677,1553,0,0,-1
-151.25,34.36,-76.82,4687,-6682,1552,0,-1,-1
-151.25,34.36,-76.82,4686,-6683,1551,0,-1,-1
-151.25,34.36,-76.82,4691,-6676,1550,0,0,-1
-151.25,34.36,-76.82,4687,-6675,1556,0,0,-1
-151.25,34.36,-76.81,4686,-6680,1553,0,0,-1
-151.25,34.36,-76.81,4691,-6678,1558,0,0,-1
-151.25,34.36,-76.80,4690,-6675,1565,0,0,-1
-151.26,34.36,-76.79,4686,-6676,1558,0,-1,-1
-151.25,34.36,-76.80,4686,-6675,1557,0,0,-1
-151.26,34.37,-76.79,4685,-6668,1568,0,0,-1
-151.26,34.37,-76.79,4692,-6673,1564,0,-1,-1
-151.26,34.37,-76.78,4692,-6677,1571,0,0,-1
-151.26,34.37,-76.78,4689,-6681,1570,0,-1,-1
-151.26,34.37,-76.77,4692,-6675,1574,0,0,-1
-151.26,34.37,-76.77,4691,-6681,1565,0,0,-1
-151.27,34.36,-76.76,4692,-6680,1566,0,0,-1
-151.27,34.37,-76.75,4691,-6681,1567,0,-1,-1
-151.28,34.36,-76.75,4683,-6680,1565,0,-1,-1
-151.27,34.37,-76.75,4688,-6679,1557,0,0,-1
-151.27,34.37,-76.75,4689,-6679,1549,0,0,-1
-151.27,34.37,-76.75,4690,-6686,1544,0,0,-1
-151.27,34.38,-76.74,4688,-6682,1565,0,-1,-1
-151.27,34.38,-76.73,4683,-6677,1567,0,-1,-1
-151.27,34.38,-76.73,4685,-6673,1557,0,0,-1
-151.27,34.38,-76.72,4687,-6675,1556,0,0,-1
-151.28,34.38,-76.71,4691,-6672,1565,0,0,-1
-151.28,34.38,-76.70,4689,-6668,1562,0,0,-1
-151.28,34.38,-76.69,4690,-6673,1580,0,-1,-1
-151.29,34.38,-76.69,4688,-6679,1576,0,-1,-1
-151.29,34.38,-76.68,4690,-6677,1576,0,0,-1
-151.29,34.38,-76.67,4689,-6677,1577,0,0,-1
-151.30,34.38,-76.66,4690,-6678,1571,0,0,-1
-151.30,34.38,-76.66,4688,-6670,1571,0,0,-1
-151.30,34.38,-76.65,4682,-6669,1565,0,0,-1
-151.30,34.38,-76.64,4691,-6672,1569,0,0,-1
-151.30,34.38,-76.64,4691,-6666,1577,0,-1,-1
-151.31,34.39,-76.63,4696,-6664,1583,0,0,-1
-151.31,34.39,-76.62,4692,-6660,1584,0,0,-1
-151.31,34.39,-76.62,4693,-6668,1578,0,0,-1
-151.32,34.38,-76.61,4689,-6665,1573,0,-1,-1
-151.32,34.38,-76.61,4687,-6670,1583,0,0,-1
-151.32,34.39,-76.60,4680,-6675,1584,0,0,-1
-151.32,34.39,-76.59,4691,-6675,1582,0,0,-1
-151.33,34.38,-76.59,4689,-6676,1589,0,0,-1
-151.33,34.38,-76.58,4687,-6678,1591,0,0,-1
-151.34,34.38,-76.57,4689,-6675,1589,0,0,-1
-151.34,34.38,-76.56,4692,-6672,1595,0,0,-1
-151.35,34.38,-76.55,4689,-6666,1593,0,-1,-1
-151.34,34.39,-76.55,4693,-6669,1585,0,0,-1
-151.34,34.38,-76.56,4694,-6673,1581,0,0,-1
-151.34,34.38,-76.56,4694,-6667,1584,-1,0,0
-151.34,34.38,-76.57,4691,-6663,1587,-1,-1,0
-151.34,34.38,-76.57,4693,-6667,1586,-1,-1,0
-151.33,34.38,-76.58,4689,-6671,1589,-1,-1,0
-151.33,34.38,-76.59,4689,-6672,1586,-1,-1,0
-151.33,34.38,-76.60,4691,-6671,1580,-1,0,-1
-151.33,34.38,-76.60,4688,-6668,1591,-1,-1,-1
-151.33,34.37,-76.61,4687,-6667,1595,-1,-1,0
-151.33,34.37,-76.61,4689,-6661,1597,-1,-1,-1
-151.33,34.37,-76.61,4686,-6670,1590,-1,-1,-1
-151.33,34.37,-76.62,4695,-6676,1590,-1,-1,-1
-151.32,34.38,-76.62,4687,-6673,1587,-1,-1,0
-151.32,34.38,-76.62,4692,-6675,1582,-1,-1,-1
-151.32,34.37,-76.63,4689,-6677,1586,-1,-1,0
-151.31,34.37,-76.65,4697,-6680,1588,-1,-1,0
-151.31,34.37,-76.65,4695,-6682,1582,-1,-1,0
-151.31,34.37,-76.66,4691,-6675,1583,-1,-1,-1
-151.31,34.37,-76.66,4687,-6677,1578,-1,-1,-1
-151.31,34.37,-76.67,4684,-6670,1575,-1,-1,-1
-151.30,34.37,-76.68,4684,-6667,1575,-1,-1,0
-151.29,34.37,-76.69,4693,-6670,1578,-1,-1,0
-151.29,34.37,-76.69,4697,-6677,1567,-1,0,-1
-151.29,34.37,-76.69,4695,-6678,1577,-1,-1,-1
-151.29,34.37,-76.69,4694,-6673,1582,-1,-1,-1
-151.29,34.37,-76.69,4691,-6678,1584,-1,-1,-1
-151.29,34.37,-76.70,4690,-6678,1581,-1,-1,-1
-151.29,34.37,-76.70,4692,-6682,1586,-1,-1,-1
-151.29,34.37,-76.71,4689,-6688,1587,-1,-1,0
-151.28,34.37,-76.72,4687,-6690,1583,-1,-1,0
-151.28,34.37,-76.72,4688,-6676,1579,-1,-1,0
-151.28,34.37,-76.72,4687,-6679,1581,-1,0,0
-151.28,34.37,-76.73,4688,-6681,1571,-1,0,-1
-151.28,34.37,-76.73,4684,-6677,1575,-1,-1,-1
-151.27,34.37,-76.73,4696,-6674,1567,-1,-1,-1
-151.27,34.37,-76.74,4691,-6676,1568,-1,-1,-1
-151.27,34.37,-76.75,4692,-6678,1560,-1,-1,0
-151.26,34.37,-76.77,4688,-6674,1548,-1,-1,-1
-151.26,34.37,-76.77,4688,-6672,1556,-1,-1,-1
-151.26,34.37,-76.77,4692,-6670,1560,-1,-1,-1
-151.26,34.37,-76.78,4695,-6676,1558,-1,-1,-1
-151.25,34.38,-76.79,4702,-6680,1558,-1,-1,0
-151.24,34.38,-76.80,4700,-6679,1563,-1,-1,0
-151.24,34.38,-76.80,4696,-6682,1568,-1,-1,-1
-151.25,34.37,-76.81,4691,-6678,1562,-1,-1,0
-151.24,34.38,-76.81,4691,-6678,1565,-1,-1,-1
-151.25,34.37,-76.81,4693,-6678,1574,-1,-1,0
-151.24,34.38,-76.81,4697,-6675,1572,-1,-1,-1
-151.24,34.37,-76.82,4694,-6685,1566,-1,-1,-1
-151.23,34.38,-76.83,4695,-6678,1563,-1,-1,-1
-151.23,34.38,-76.84,4693,-6687,1556,-1,-1,-1
-151.23,34.37,-76.85,4695,-6688,1562,-1,-1,-1
-151.23,34.37,-76.86,4692,-6684,1559,-1,-1,-1
-151.22,34.37,-76.86,4691,-6685,1559,-1,-1,0
-151.22,34.37,-76.86,4694,-6686,1563,-1,-1,0
-151.22,34.37,-76.87,4696,-6686,1563,-1,-1,-1
-151.22,34.37,-76.88,4695,-6687,1566,-1,-1,-1
-151.22,34.37,-76.88,4694,-6685,1565,-1,-1,0
-151.21,34.37,-76.90,4703,-6686,1559,-1,-1,-1
-151.20,34.37,-76.90,4694,-6683,1561,-1,-1,0
-151.21,34.37,-76.90,4690,-6685,1551,-1,-1,0
-151.21,34.37,-76.92,4689,-6683,1551,-1,-1,0
-151.21,34.37,-76.92,4693,-6686,1549,-1,-1,0
-151.20,34.37,-76.93,4689,-6681,1552,-1,-1,0
-151.20,34.37,-76.94,4691,-6677,1546,-1,-1,0
-151.19,34.37,-76.95,4691,-6678,1535,-1,-1,0
-151.19,34.37,-76.96,4690,-6675,1531,-1,-1,0
-151.18,34.37,-76.97,4688,-6676,1523,-1,-1,0
-151.18,34.37,-76.98,4689,-6686,1524,-1,-1,0
-151.18,34.37,-76.99,4691,-6695,1529,-1,-1,0
-151.18,34.36,-76.99,4697,-6688,1531,-1,-1,0
-151.18,34.36,-76.99,4691,-6686,1533,-1,-1,-1
-151.17,34.36,-77.01,4684,-6687,1539,-1,-1,0
-151.17,34.36,-77.01,4680,-6686,1537,-1,-1,-1
-151.17,34.36,-77.01,4683,-6683,1535,-1,0,-1
-151.17,34.37,-77.02,4691,-6680,1536,-1,-1,-1
-151.17,34.37,-77.02,4692,-6683,1540,-1,-1,0
-151.16,34.37,-77.02,4693,-6683,1534,-1,-1,0
-151.16,34.37,-77.03,4703,-6690,1540,-1,-1,0
-151.16,34.37,-77.03,4700,-6695,1537,-1,-1,0
-151.16,34.37,-77.03,4691,-6694,1538,0,0,-1
-151.16,34.37,-77.03,4693,-6690,1531,0,0,-1
-151.16,34.37,-77.03,4689,-6690,1534,0,0,-1
-151.16,34.37,-77.03,4689,-6686,1533,0,0,-1
-151.16,34.37,-77.03,4696,-6682,1536,0,0,-1
-151.16,34.37,-77.03,4695,-6687,1531,0,-1,-1
-151.16,34.37,-77.03,4695,-6690,1532,0,-1,0
-151.16,34.37,-77.03,4698,-6692,1541,0,-1,-1
-151.16,34.37,-77.03,4691,-6690,1533,0,-1,-1
-151.16,34.37,-77.04,4692,-6688,1522,0,-1,-1
-151.16,34.37,-77.04,4692,-6685,1526,0,-1,-1
-151.16,34.37,-77.03,4694,-6683,1526,0,0,-1
-151.16,34.37,-77.03,4693,-6686,1526,0,-1,-1
-151.16,34.38,-77.02,4695,-6683,1532,0,0,-1
-151.16,34.37,-77.01,4694,-6688,1536,0,-1,-1
-151.17,34.37,-77.01,4692,-6686,1540,0,0,-1
-151.17,34.37,-77.00,4695,-6688,1546,0,0,0
-151.18,34.37,-76.99,4693,-6690,1544,0,0,-1
-151.18,34.37,-76.98,4689,-6685,1548,0,-1,-1
-151.19,34.37,-76.98,4689,-6696,1547,0,-1,-1
-151.19,34.37,-76.98,4691,-6693,1542,0,0,-1
-151.18,34.37,-76.98,4688,-6689,1545,0,0,-1
-151.18,34.37,-76.98,4691,-6680,1543,0,-1,-1
-151.18,34.37,-76.97,4693,-6683,1542,0,0,0
-151.19,34.37,-76.97,4695,-6683,1543,0,0,0
-151.19,34.37,-76.96,4694,-6684,1536,0,-1,-1
-151.19,34.37,-76.96,4695,-6683,1543,0,0,0
-151.20,34.36,-76.96,4691,-6682,1547,0,0,-1
-151.20,34.37,-76.95,4691,-6683,1551,0,0,-1
-151.20,34.37,-76.95,4688,-6682,1551,0,0,-1
-151.20,34.37,-76.95,4688,-6684,1550,0,-1,-1
-151.20,34.37,-76.95,4687,-6682,1539,0,0,-1
-151.20,34.37,-76.94,4686,-6684,1546,0,0,-1
-151.20,34.37,-76.93,4685,-6680,1539,0,0,0
-151.20,34.37,-76.93,4685,-6677,1537,0,-1,-1
-151.20,34.37,-76.94,4685,-6680,1536,0,0,-1
-151.21,34.36,-76.94,4689,-6678,1543,0,-1,0
-151.21,34.36,-76.93,4687,-6674,1549,0,0,-1
-151.21,34.36,-76.93,4693,-6677,1553,0,0,-1
-151.22,34.36,-76.92,4695,-6681,1550,0,0,0
-151.22,34.36,-76.91,4691,-6684,1554,0,-1,-1
-151.22,34.36,-76.91,4691,-6685,1550,0,-1,-1
-151.22,34.36,-76.91,4694,-6679,1551,0,0,-1
-151.22,34.36,-76.91,4697,-6676,1551,0,0,-1
-151.22,34.36,-76.91,4692,-6681,1543,0,-1,-1
-151.22,34.36,-76.90,4698,-6683,1549,0,0,0
-151.22,34.36,-76.90,4699,-6685,1547,0,0,-1
-151.22,34.36,-76.90,4696,-6683,1552,0,-1,0
-151.22,34.36,-76.89,4696,-6683,1548,0,-1,0
-151.22,34.36,-76.89,4699,-6678,1556,0,-1,0
-151.22,34.37,-76.90,4701,-6685,1546,0,0,0
-151.22,34.36,-76.90,4698,-6687,1543,0,0,0
-151.22,34.36,-76.89,4687,-6689,1546,0,0,0
-151.23,34.36,-76.88,4697,-6690,1557,0,0,-1
-151.23,34.36,-76.88,4696,-6686,1559,0,0,0
-151.23,34.36,-76.87,4690,-6678,1551,0,0,-1
-151.23,34.37,-76.87,4696,-6675,1553,0,0,-1
-151.23,34.37,-76.87,4696,-6678,1553,0,0,-1
-151.23,34.37,-76.87,4702,-6678,1560,0,-1,0
-151.23,34.37,-76.86,4703,-6674,1558,0,-1,0
-151.23,34.37,-76.86,4698,-6674,1559,0,-1,0
-151.23,34.37,-76.85,4692,-6673,1561,0,0,-1
-151.23,34.37,-76.85,4694,-6677,1570,0,0,0
-151.24,34.37,-76.84,4695,-6681,1560,0,0,0
-151.24,34.37,-76.82,4686,-6680,1560,0,0,-1
-151.24,34.37,-76.82,4688,-6680,1564,0,-1,-1
-151.24,34.37,-76.82,4689,-6678,1566,0,0,0
-151.25,34.37,-76.81,4693,-6675,1562,0,0,0
-151.25,34.37,-76.81,4698,-6674,1562,0,0,-1
-151.25,34.37,-76.81,4698,-6676,1556,0,0,0
-151.26,34.37,-76.80,4689,-6680,1548,0,0,-1
-151.26,34.37,-76.80,4694,-6689,1554,0,0,-1
-151.26,34.37,-76.79,4688,-6683,1560,0,-1,-1
-151.26,34.37,-76.79,4687,-6680,1558,0,-1,0
-151.25,34.38,-76.80,4693,-6681,1553,0,-1,0
-151.26,34.37,-76.79,4693,-6680,1552,0,-1,0
-151.25,34.38,-76.78,4698,-6682,1546,0,0,-1
-151.26,34.37,-76.79,4694,-6682,1552,0,-1,-1
-151.26,34.37,-76.79,4689,-6677,1559,0,-1,0
-151.26,34.37,-76.78,4694,-6681,1567,0,-1,0
-151.26,34.37,-76.77,4693,-6687,1563,0,0,-1
-151.26,34.38,-76.77,4698,-6684,1571,0,0,-1
-151.27,34.38,-76.76,4696,-6680,1577,0,0,-1
-151.27,34.38,-76.76,4686,-6678,1567,0,0,-1
-151.27,34.38,-76.75,4689,-6678,1567,0,0,-1
-151.27,34.38,-76.75,4689,-6678,1562,0,-1,0
-151.27,34.38,-76.75,4691,-6672,1564,0,0,-1
-151.27,34.38,-76.74,4691,-6668,1558,0,-1,0
-151.27,34.38,-76.74,4682,-6670,1559,0,0,0
-151.28,34.38,-76.73,4684,-6675,1567,0,0,0
-151.28,34.38,-76.73,4687,-6671,1567,0,0,-1
-151.28,34.38,-76.73,4693,-6673,1570,0,0,-1
-151.28,34.38,-76.71,4690,-6671,1580,0,0,-1
-151.28,34.38,-76.71,4686,-6674,1581,0,-1,-1
-151.28,34.38,-76.71,4684,-6677,1582,0,-1,0
-151.28,34.38,-76.70,4691,-6676,1579,0,-1,-1
-151.28,34.38,-76.71,4689,-6675,1578,0,0,0
-151.29,34.37,-76.71,4694,-6674,1575,0,0,0
-151.29,34.38,-76.70,4691,-6678,1580,0,0,-1
-151.29,34.38,-76.70,4696,-6678,1583,0,0,-1
-151.29,34.38,-76.69,4703,-6681,1576,0,-1,-1
-151.29,34.38,-76.70,4694,-6679,1567,0,-1,0
-151.29,34.38,-76.70,4693,-6675,1567,0,-1,0
-151.28,34.38,-76.70,4689,-6676,1563,0,-1,0
-151.28,34.38,-76.70,4688,-6677,1561,-1,-1,0
-151.28,34.38,-76.70,4687,-6676,1567,0,0,0
-151.30,34.37,-76.70,4686,-6682,1579,0,0,0
-151.30,34.37,-76.69,4688,-6686,1580,0,0,-1
-151.29,34.38,-76.69,4699,-6683,1579,0,-1,-1
-151.29,34.38,-76.69,4699,-6690,1584,0,0,0
-151.29,34.38,-76.69,4699,-6682,1581,0,0,0
-151.29,34.38,-76.69,4696,-6686,1577,0,0,-1
-151.30,34.38,-76.68,4698,-6676,1584,0,-1,-1
-151.30,34.38,-76.68,4695,-6683,1580,-1,-1,0
-151.29,34.38,-76.69,4695,-6675,1571,0,0,-1
-151.30,34.38,-76.68,4693,-6678,1574,0,0,0
-151.30,34.38,-76.68,4686,-6673,1570,0,-1,0
-151.30,34.38,-76.68,4688,-6671,1574,0,0,0
-151.29,34.38,-76.68,4687,-6672,1585,0,-1,0
-151.30,34.38,-76.67,4687,-6670,1582,0,-1,0
-151.30,34.38,-76.67,4688,-6681,1580,-1,0,0
-151.30,34.38,-76.67,4694,-6675,1583,0,0,0
-151.30,34.38,-76.67,4694,-6683,1577,0,-1,-1
-151.30,34.38,-76.67,4696,-6677,1575,0,-1,0
-151.30,34.38,-76.67,4696,-6674,1567,0,-1,-1
-151.30,34.38,-76.67,4698,-6674,1581,-1,0,0
-151.30,34.38,-76.67,4698,-6677,1581,-1,0,0
-151.30,34.37,-76.68,4695,-6677,1577,-1,-1,0
-151.29,34.38,-76.68,4699,-6677,1568,-1,-1,0
-151.29,34.38,-76.69,4695,-6685,1564,-1,-1,0
-151.29,34.38,-76.69,4696,-6676,1578,0,-1,0
-151.30,34.38,-76.68,4691,-6677,1575,0,0,0
-151.30,34.38,-76.68,4695,-6672,1575,0,-1,0
-151.30,34.38,-76.68,4698,-6670,1571,0,0,-1
-151.30,34.38,-76.68,4693,-6675,1580,0,-1,0
-151.30,34.38,-76.68,4695,-6673,1577,0,-1,0
-151.30,34.38,-76.68,4695,-6672,1577,0,-1,0
-151.30,34.38,-76.68,4689,-6664,1572,0,-1,0
-151.30,34.38,-76.68,4689,-6666,1565,-1,-1,0
-151.29,34.38,-76.69,4693,-6667,1573,-1,0,0
-151.29,34.38,-76.69,4695,-6666,1583,-1,-1,0
-151.29,34.38,-76.69,4687,-6668,1580,-1,-1,0
-151.29,34.38,-76.70,4690,-6670,1577,-1,0,-1
-151.29,34.38,-76.70,4697,-6675,1573,0,0,0
-151.29,34.38,-76.70,4705,-6676,1566,-1,-1,0
-151.28,34.38,-76.70,4691,-6675,1558,-1,-1,-1
-151.28,34.38,-76.70,4692,-6675,1564,-1,0,0
-151.28,34.39,-76.70,4691,-6670,1570,0,0,-1
-151.28,34.39,-76.70,4690,-6666,1578,0,-1,0
-151.28,34.39,-76.70,4691,-6670,1578,0,-1,0
-151.28,34.39,-76.70,4695,-6672,1583,0,-1,0
-151.29,34.38,-76.70,4694,-6677,1578,-1,-1,0
-151.28,34.38,-76.70,4689,-6680,1575,-1,0,-1
-151.28,34.38,-76.70,4686,-6674,1575,-1,0,0
-151.28,34.39,-76.70,4693,-6674,1576,-1,-1,-1
-151.28,34.39,-76.70,4689,-6678,1582,-1,-1,-1
-151.28,34.39,-76.71,4688,-6682,1573,-1,-1,0
-151.28,34.38,-76.71,4687,-6673,1572,-1,-1,0
-151.28,34.38,-76.71,4695,-6677,1573,-1,-1,-1
-151.27,34.38,-76.72,4698,-6680,1570,-1,-1,0
-151.27,34.38,-76.72,4691,-6676,1565,-1,-1,0
-151.27,34.38,-76.73,4696,-6675,1559,-1,-1,0
-151.27,34.39,-76.74,4694,-6672,1565,-1,-1,0
-151.27,34.39,-76.74,4689,-6673,1581,-1,-1,0
-151.27,34.39,-76.74,4698,-6672,1581,-1,-1,-1
-151.26,34.38,-76.74,4697,-6669,1571,-1,-1,0
-151.26,34.38,-76.75,4697,-6670,1570,-1,-1,0
-151.25,34.39,-76.76,4690,-6676,1567,-1,-1,0
-151.25,34.39,-76.76,4690,-6680,1562,0,0,0
-151.25,34.39,-76.76,4695,-6677,1557,-1,-1,0
-151.26,34.38,-76.77,4691,-6680,1566,-1,-1,0
-151.26,34.38,-76.77,4692,-6682,1568,-1,0,0
-151.26,34.38,-76.78,4695,-6680,1562,-1,-1,0
-151.24,34.39,-76.79,4694,-6674,1558,-1,-1,0
-151.24,34.38,-76.80,4695,-6668,1565,-1,-1,0
-151.24,34.39,-76.80,4694,-6670,1563,-1,-1,0
-151.24,34.38,-76.81,4690,-6672,1548,-1,-1,0
-151.23,34.38,-76.82,4695,-6676,1541,-1,-1,0
-151.23,34.38,-76.83,4697,-6672,1548,-1,-1,0
-151.23,34.38,-76.83,4690,-6676,1557,-1,-1,0
-151.23,34.38,-76.85,4685,-6683,1555,-1,-1,0
-151.23,34.38,-76.85,4689,-6680,1551,-1,-1,0
-151.22,34.38,-76.86,4692,-6678,1545,-1,-1,0
-151.22,34.38,-76.87,4694,-6684,1557,-1,-1,0
-151.22,34.38,-76.87,4688,-6682,1560,-1,-1,0
-151.22,34.38,-76.88,4695,-6681,1571,-1,-1,0
-151.22,34.38,-76.88,4694,-6687,1569,-1,-1,0
-151.21,34.38,-76.89,4689,-6684,1567,-1,-1,0
-151.21,34.37,-76.89,4686,-6683,1564,-1,-1,0
-151.21,34.37,-76.91,4689,-6678,1559,-1,-1,0
-151.21,34.37,-76.91,4690,-6678,1561,-1,-1,0
-151.21,34.37,-76.91,4690,-6681,1552,0,-1,0
-151.21,34.37,-76.91,4691,-6683,1557,-1,-1,0
-151.21,34.37,-76.92,4682,-6686,1557,-1,-1,0
-151.20,34.37,-76.93,4681,-6686,1555,-1,-1,0
-151.20,34.37,-76.93,4687,-6681,1552,0,0,-1
-151.20,34.37,-76.93,4697,-6682,1543,-1,-1,0
-151.20,34.37,-76.93,4701,-6688,1547,0,-1,0
-151.20,34.37,-76.93,4696,-6687,1545,-1,-1,0
-151.20,34.37,-76.94,4691,-6693,1551,-1,-1,0
-151.20,34.37,-76.95,4689,-6696,1543,-1,-1,0
-151.20,34.36,-76.97,4689,-6699,1540,-1,-1,0
-151.20,34.36,-76.97,4692,-6702,1546,-1,-1,0
-151.19,34.36,-76.98,4685,-6692,1543,-1,-1,0
-151.19,34.36,-76.98,4680,-6682,1543,0,-1,0
-151.20,34.36,-76.98,4684,-6679,1540,-1,-1,0
-151.19,34.36,-76.98,4690,-6679,1533,-1,-1,-1
-151.18,34.36,-77.00,4692,-6680,1526,-1,-1,0
-151.18,34.36,-77.00,4685,-6676,1535,-1,-1,-1
-151.18,34.36,-77.00,4694,-6679,1538,-1,-1,-1
-151.18,34.36,-77.01,4695,-6677,1538,-1,-1,0
-151.18,34.37,-77.01,4692,-6680,1534,-1,-1,0
-151.18,34.37,-77.01,4698,-6683,1528,0,0,0
-151.18,34.36,-77.01,4692,-6687,1539,0,0,0
-151.19,34.36,-77.00,4688,-6689,1543,0,-1,-1
-151.18,34.36,-77.00,4690,-6686,1538,0,-1,0
-151.18,34.36,-77.00,4690,-6684,1540,0,0,0
-151.18,34.36,-77.00,4689,-6688,1542,0,0,0
-151.18,34.36,-77.00,4687,-6687,1540,0,0,0
-151.20,34.35,-76.99,4687,-6685,1536,0,0,0
-151.20,34.36,-76.98,4692,-6689,1541,0,0,-1
-151.20,34.36,-76.97,4694,-6684,1550,0,0,-1
-151.20,34.36,-76.97,4689,-6681,1547,0,0,0
-151.20,34.36,-76.97,4690,-6680,1544,0,0,0
-151.20,34.36,-76.97,4692,-6685,1537,-1,-1,0
-151.20,34.36,-76.97,4693,-6689,1540,0,-1,0
-151.20,34.36,-76.97,4695,-6686,1538,0,-1,0
-151.20,34.36,-76.96,4695,-6686,1544,0,0,0
-151.20,34.36,-76.96,4693,-6688,1549,0,0,0
-151.20,34.36,-76.96,4694,-6692,1543,0,-1,0
-151.21,34.36,-76.95,4689,-6690,1547,0,-1,0
-151.21,34.36,-76.95,4690,-6682,1553,0,0,-1
-151.21,34.36,-76.94,4686,-6684,1552,0,0,0
-151.21,34.36,-76.94,4695,-6685,1564,0,0,0
-151.22,34.36,-76.93,4690,-6681,1550,0,0,0
-151.22,34.36,-76.92,4687,-6683,1542,0,0,0
-151.23,34.35,-76.92,4690,-6682,1543,0,0,0
-151.23,34.35,-76.92,4688,-6679,1551,0,-1,0
-151.23,34.35,-76.92,4685,-6672,1545,0,0,-1
-151.22,34.36,-76.92,4684,-6675,1545,0,0,-1
-151.22,34.36,-76.91,4682,-6675,1556,0,0,-1
-151.23,34.36,-76.90,4682,-6674,1562,0,-1,-1
-151.23,34.36,-76.90,4686,-6678,1558,0,0,0
-151.24,34.36,-76.89,4690,-6687,1555,0,-1,0
-151.24,34.35,-76.89,4684,-6690,1547,0,-1,0
-151.24,34.35,-76.89,4683,-6686,1554,0,0,-1
-151.24,34.36,-76.88,4688,-6681,1553,0,0,-1
-151.24,34.35,-76.87,4686,-6681,1558,0,0,0
-151.25,34.35,-76.87,4682,-6687,1574,0,-1,0
-151.25,34.35,-76.87,4686,-6680,1577,-1,-1,0
-151.25,34.35,-76.87,4687,-6679,1565,0,-1,0
-151.25,34.35,-76.87,4687,-6679,1564,0,-1,0
-151.25,34.35,-76.85,4683,-6677,1555,0,0,0
-151.26,34.35,-76.85,4683,-6683,1569,0,0,-1
-151.26,34.35,-76.84,4682,-6684,1560,0,0,-1
-151.26,34.35,-76.84,4687,-6679,1561,0,0,-1
-151.27,34.35,-76.83,4692,-6676,1561,0,0,-1
-151.27,34.35,-76.83,4692,-6677,1566,0,0,-1
-151.27,34.35,-76.83,4687,-6682,1562,0,-1,-1
-151.27,34.35,-76.83,4692,-6687,1563,0,0,0
-151.27,34.35,-76.83,4693,-6682,1566,0,-1,0
-151.27,34.35,-76.83,4690,-6684,1563,-1,-1,0
-151.27,34.35,-76.83,4691,-6677,1550,0,0,0
-151.27,34.34,-76.83,4689,-6679,1552,0,0,0
-151.27,34.35,-76.82,4685,-6680,1550,0,0,-1
-151.28,34.35,-76.80,4684,-6680,1559,0,-1,-1
-151.28,34.35,-76.80,4688,-6677,1569,0,-1,0
-151.29,34.34,-76.80,4682,-6679,1563,0,0,-1
-151.29,34.34,-76.79,4678,-6681,1556,0,0,-1
-151.29,34.34,-76.79,4686,-6683,1557,0,0,-1
-151.29,34.34,-76.79,4695,-6678,1555,0,0,-1
-151.29,34.35,-76.78,4688,-6676,1562,0,0,-1
-151.29,34.35,-76.78,4688,-6682,1554,0,-1,-1
-151.29,34.35,-76.78,4691,-6678,1552,0,0,0
-151.29,34.35,-76.78,4697,-6684,1556,0,0,0
-151.29,34.35,-76.78,4695,-6689,1561,0,0,0
-151.29,34.35,-76.77,4701,-6685,1565,0,-1,0
-151.29,34.35,-76.77,4691,-6683,1572,0,-1,0
-151.29,34.35,-76.77,4698,-6678,1576,0,-1,-1
-151.29,34.35,-76.76,4692,-6685,1580,0,0,0
-151.29,34.35,-76.76,4689,-6677,1574,0,0,0
-151.29,34.35,-76.76,4689,-6677,1562,0,0,0
-151.29,34.35,-76.75,4684,-6672,1566,0,0,-1
-151.29,34.35,-76.75,4683,-6674,1571,0,-1,-1
-151.30,34.35,-76.74,4683,-6673,1575,0,0,-1
-151.30,34.35,-76.74,4686,-6671,1571,0,-1,0
-151.30,34.35,-76.74,4686,-6675,1563,0,0,-1
-151.30,34.35,-76.73,4689,-6681,1562,0,-1,-1
-151.30,34.35,-76.73,4689,-6680,1570,0,-1,0
-151.30,34.35,-76.73,4691,-6676,1566,0,0,-1
-151.30,34.36,-76.73,4693,-6670,1572,0,0,0
-151.30,34.36,-76.72,4691,-6671,1572,0,0,0
-151.30,34.36,-76.72,4686,-6673,1558,0,0,0
-151.31,34.36,-76.71,4686,-6670,1572,0,0,-1
-151.31,34.36,-76.70,4686,-6678,1576,0,-1,-1
-151.32,34.35,-76.69,4681,-6680,1567,0,0,-1
-151.32,34.35,-76.69,4681,-6681,1561,0,-1,-1
-151.32,34.36,-76.68,4691,-6682,1570,0,0,0
-151.33,34.36,-76.66,4693,-6680,1568,0,0,-1
-151.33,34.36,-76.64,4692,-6681,1576,0,0,-1
-151.34,34.36,-76.63,4687,-6678,1578,0,-1,-1
-151.34,34.36,-76.63,4689,-6672,1574,0,-1,0
-151.34,34.36,-76.63,4687,-6679,1567,0,0,0
-151.34,34.36,-76.63,4684,-6671,1577,0,0,0
-151.35,34.36,-76.61,4689,-6679,1587,0,0,0
-151.36,34.36,-76.60,4693,-6681,1587,0,0,-1
-151.36,34.36,-76.58,4690,-6679,1591,0,0,-1
-151.37,34.36,-76.57,4690,-6680,1594,0,-1,0
-151.37,34.36,-76.56,4702,-6673,1599,0,0,0
-151.37,34.36,-76.56,4702,-6678,1597,0,0,0
-151.38,34.36,-76.55,4695,-6681,1600,0,0,-1
-151.38,34.36,-76.55,4695,-6679,1592,0,-1,0
-151.38,34.36,-76.55,4690,-6682,1590,0,-1,0
-151.38,34.36,-76.55,4692,-6681,1600,0,-1,0
-151.38,34.36,-76.55,4686,-6678,1591,0,-1,0
-151.39,34.35,-76.54,4685,-6675,1593,0,0,-1
-151.38,34.35,-76.54,4687,-6670,1599,-1,-1,0
-151.38,34.36,-76.54,4688,-6671,1596,-1,-1,0
-151.38,34.36,-76.55,4689,-6668,1590,-1,-1,0
-151.38,34.35,-76.56,4685,-6677,1586,-1,0,0
-151.38,34.35,-76.57,4680,-6674,1594,-1,-1,0
-151.38,34.35,-76.58,4682,-6668,1586,-1,-1,0
-151.38,34.35,-76.58,4691,-6672,1588,-1,0,0
-151.37,34.35,-76.59,4693,-6674,1579,-1,-1,0
-151.36,34.35,-76.60,4695,-6671,1584,-1,-1,0
-151.36,34.35,-76.61,4692,-6676,1580,-1,-1,0
-151.35,34.35,-76.62,4692,-6675,1581,-1,-1,0
-151.35,34.35,-76.62,4693,-6674,1583,-1,-1,0
-151.35,34.35,-76.63,4691,-6682,1572,-1,0,0
-151.35,34.35,-76.64,4685,-6686,1579,-1,-1,0
-151.35,34.35,-76.64,4685,-6680,1586,-1,-1,0
-151.35,34.35,-76.65,4686,-6682,1582,-1,-1,0
-151.35,34.35,-76.65,4690,-6678,1576,0,-1,0
-151.34,34.35,-76.65,4693,-6675,1577,0,0,0
-151.35,34.35,-76.65,4689,-6675,1578,-1,-1,0
-151.34,34.35,-76.65,4683,-6673,1578,-1,0,0
-151.34,34.35,-76.66,4684,-6676,1574,-1,-1,0
-151.34,34.35,-76.66,4688,-6669,1577,-1,-1,0
-151.34,34.35,-76.67,4689,-6675,1581,-1,-1,0
-151.33,34.34,-76.68,4690,-6679,1582,-1,-1,0
-151.33,34.35,-76.68,4689,-6680,1585,-1,-1,0
-151.33,34.35,-76.69,4696,-6673,1584,-1,-1,0
-151.33,34.35,-76.69,4692,-6669,1580,-1,-1,0
-151.33,34.35,-76.69,4687,-6671,1579,0,0,0
-151.33,34.35,-76.69,4683,-6672,1571,-1,-1,0
-151.33,34.34,-76.71,4679,-6677,1569,-1,-1,0
-151.32,34.34,-76.71,4683,-6680,1568,-1,0,-1
-151.32,34.34,-76.71,4684,-6679,1570,-1,0,-1
-151.32,34.34,-76.71,4683,-6676,1569,-1,-1,0
-151.32,34.35,-76.72,4689,-6677,1569,-1,-1,0
-151.31,34.35,-76.72,4692,-6668,1570,-1,-1,0
-151.30,34.35,-76.74,4688,-6673,1566,-1,-1,0
-151.31,34.34,-76.75,4685,-6673,1571,-1,-1,0
-151.31,34.34,-76.75,4684,-6674,1563,-1,0,0
-151.31,34.34,-76.76,4688,-6677,1565,-1,-1,0
-151.30,34.35,-76.76,4693,-6683,1565,-1,-1,-1
-151.29,34.35,-76.77,4691,-6683,1573,-1,-1,0
-151.29,34.35,-76.77,4693,-6682,1580,-1,-1,0
-151.29,34.35,-76.78,4696,-6674,1566,-1,-1,0
-151.29,34.35,-76.79,4693,-6681,1570,-1,-1,0
-151.28,34.35,-76.80,4696,-6677,1571,-1,-1,0
-151.28,34.35,-76.80,4694,-6681,1557,-1,-1,0
-151.28,34.35,-76.81,4691,-6681,1556,-1,-1,0
-151.27,34.35,-76.83,4700,-6680,1555,-1,-1,0
-151.27,34.35,-76.84,4690,-6680,1552,-1,-1,0
-151.27,34.35,-76.84,4690,-6678,1549,-1,-1,0
-151.26,34.35,-76.84,4690,-6683,1548,-1,0,0
-151.27,34.34,-76.85,4684,-6687,1563,-1,-1,0
-151.27,34.34,-76.86,4688,-6686,1563,-1,-1,0
-151.26,34.34,-76.87,4682,-6686,1562,-1,-1,0
-151.26,34.34,-76.87,4680,-6682,1553,-1,-1,0
-151.25,34.35,-76.88,4686,-6681,1559,-1,-1,-1
-151.25,34.35,-76.88,4693,-6687,1555,-1,-1,0
-151.25,34.35,-76.89,4695,-6684,1556,-1,-1,0
-151.24,34.35,-76.90,4691,-6683,1550,-1,-1,0
-151.24,34.35,-76.91,4686,-6689,1543,-1,-1,0
-151.24,34.35,-76.91,4679,-6690,1554,-1,-1,0
-151.24,34.34,-76.92,4682,-6689,1555,-1,-1,0
-151.24,34.34,-76.94,4688,-6689,1544,-1,-1,0
-151.23,34.35,-76.94,4683,-6684,1543,-1,-1,0
-151.23,34.34,-76.95,4684,-6686,1546,-1,-1,0
-151.23,34.34,-76.95,4687,-6683,1541,-1,-1,0
-151.23,34.34,-76.96,4682,-6689,1547,-1,-1,0
-151.23,34.34,-76.96,4684,-6681,1545,-1,-1,0
-151.22,34.35,-76.97,4684,-6686,1535,-1,-1,0
-151.22,34.34,-76.98,4685,-6691,1550,-1,-1,0
-151.21,34.34,-76.99,4692,-6687,1556,-1,-1,0
-151.21,34.34,-77.00,4696,-6690,1544,-1,-1,0
-151.21,34.34,-77.00,4694,-6686,1554,-1,-1,0
-151.21,34.34,-77.00,4696,-6683,1550,-1,-1,0
-151.20,34.34,-77.02,4694,-6684,1554,-1,-1,0
-151.20,34.34,-77.03,4686,-6686,1543,-1,-1,0
-151.20,34.34,-77.03,4689,-6687,1539,-1,0,-1
-151.19,34.35,-77.03,4688,-6685,1536,-1,0,-1
-151.19,34.35,-77.03,4690,-6686,1535,-1,-1,0
-151.19,34.35,-77.03,4696,-6689,1533,0,-1,0
-151.19,34.34,-77.03,4692,-6682,1539,-1,-1,0
-151.19,34.34,-77.03,4681,-6682,1541,-1,0,0
-151.20,34.34,-77.04,4677,-6689,1543,-1,0,0
-151.20,34.34,-77.04,4679,-6694,1539,-1,0,0
-151.20,34.34,-77.04,4685,-6693,1530,-1,-1,-1
-151.20,34.34,-77.04,4683,-6686,1536,0,-1,0
-151.20,34.34,-77.04,4694,-6686,1538,0,0,-1
-151.20,34.34,-77.04,4690,-6687,1540,0,0,0
-151.20,34.34,-77.03,4689,-6686,1538,0,-1,0
-151.20,34.34,-77.03,4695,-6683,1542,0,-1,0
-151.20,34.34,-77.03,4697,-6687,1535,0,0,0
-151.20,34.34,-77.02,4694,-6691,1539,0,0,0
-151.20,34.34,-77.01,4690,-6689,1535,0,0,0
-151.20,34.34,-77.01,4691,-6687,1532,0,0,-1
-151.21,34.34,-77.00,4686,-6688,1534,0,0,-1
-151.22,34.34,-77.00,4680,-6692,1536,0,-1,0
-151.22,34.33,-77.00,4681,-6691,1532,0,0,0
-151.22,34.34,-76.99,4686,-6690,1534,0,0,0
-151.23,34.33,-76.98,4687,-6684,1537,0,0,0
-151.23,34.34,-76.96,4683,-6685,1545,0,0,-1
-151.23,34.34,-76.96,4683,-6686,1547,0,-1,-1
-151.23,34.34,-76.95,4688,-6682,1539,0,0,-1
-151.23,34.34,-76.95,4690,-6677,1542,0,0,0
-151.23,34.34,-76.94,4689,-6678,1544,0,0,0
-151.24,34.33,-76.94,4686,-6681,1551,0,0,0
-151.24,34.34,-76.93,4689,-6688,1543,0,0,-1
-151.24,34.33,-76.93,4689,-6687,1541,0,0,0
-151.25,34.34,-76.92,4688,-6685,1554,0,0,0
-151.25,34.34,-76.91,4686,-6682,1559,0,0,0
-151.25,34.33,-76.91,4688,-6681,1565,0,0,0
-151.25,34.33,-76.90,4685,-6686,1563,0,0,-1
-151.26,34.34,-76.90,4684,-6680,1561,0,-1,-1
-151.26,34.34,-76.90,4690,-6675,1553,0,0,0
-151.26,34.34,-76.89,4687,-6679,1557,0,0,-1
-151.26,34.34,-76.88,4683,-6684,1553,0,0,-1
-151.27,34.33,-76.87,4680,-6685,1543,0,0,-1
-151.27,34.33,-76.87,4678,-6680,1537,0,0,-1
-151.27,34.33,-76.87,4686,-6683,1546,0,0,0
-151.27,34.33,-76.87,4690,-6687,1542,0,0,-1
-151.27,34.34,-76.87,4692,-6684,1541,0,0,-1
-151.27,34.34,-76.86,4687,-6685,1542,0,0,0
-151.27,34.34,-76.86,4688,-6678,1542,0,0,0
-151.27,34.34,-76.85,4684,-6681,1546,0,0,0
-151.27,34.34,-76.85,4685,-6679,1556,0,0,0
-151.28,34.33,-76.84,4689,-6679,1559,0,0,-1
-151.28,34.33,-76.84,4692,-6682,1559,0,0,0
-151.28,34.33,-76.83,4689,-6679,1555,0,-1,0
-151.28,34.34,-76.83,4691,-6675,1550,0,0,-1
-151.28,34.34,-76.83,4689,-6679,1560,0,-1,0
-151.28,34.34,-76.83,4681,-6680,1557,0,-1,0
-151.28,34.34,-76.83,4679,-6683,1549,0,0,0
-151.28,34.34,-76.83,4686,-6690,1547,0,0,-1
-151.28,34.33,-76.82,4686,-6691,1555,0,0,-1
-151.29,34.34,-76.82,4687,-6687,1554,0,0,-1
-151.29,34.34,-76.81,4690,-6683,1555,0,0,-1
-151.29,34.34,-76.81,4691,-6680,1559,0,0,-1
-151.29,34.34,-76.81,4698,-6679,1561,0,0,0
-151.29,34.34,-76.80,4696,-6680,1555,0,0,0
-151.29,34.34,-76.80,4694,-6678,1561,0,0,0
-151.30,34.34,-76.79,4688,-6684,1559,0,0,0
-151.29,34.34,-76.80,4689,-6684,1552,0,-1,0
-151.30,34.34,-76.79,4685,-6686,1554,0,0,-1
-151.30,34.34,-76.79,4681,-6687,1557,0,0,0
-151.30,34.34,-76.79,4686,-6692,1559,0,0,-1
-151.30,34.34,-76.78,4685,-6690,1561,0,0,-1
-151.30,34.34,-76.78,4693,-6691,1564,0,-1,-1
-151.31,34.33,-76.78,4684,-6692,1562,0,0,0
-151.31,34.33,-76.77,4689,-6687,1577,0,0,0
-151.31,34.34,-76.76,4683,-6689,1574,0,0,0
-151.32,34.33,-76.76,4681,-6683,1581,0,-1,-1
-151.32,34.33,-76.75,4685,-6681,1576,0,-1,-1
-151.32,34.33,-76.75,4685,-6681,1571,0,0,0
-151.32,34.33,-76.75,4684,-6682,1565,0,0,0
-151.32,34.33,-76.74,4682,-6688,1571,0,-1,0
-151.32,34.33,-76.74,4687,-6681,1569,0,-1,-1
-151.33,34.33,-76.74,4686,-6684,1568,0,-1,0
-151.33,34.33,-76.74,4683,-6676,1572,0,0,-1
-151.33,34.33,-76.73,4678,-6673,1565,0,-1,0
-151.33,34.33,-76.73,4687,-6673,1567,0,-1,0
-151.33,34.33,-76.73,4686,-6672,1564,0,0,0
-151.33,34.34,-76.71,4684,-6673,1573,0,0,-1
-151.33,34.34,-76.71,4689,-6669,1577,0,-1,-1
-151.33,34.34,-76.71,4685,-6674,1576,0,0,-1
-151.34,34.34,-76.71,4685,-6677,1562,0,0,-1
-151.34,34.33,-76.70,4681,-6683,1573,0,0,-1
-151.34,34.34,-76.70,4685,-6677,1570,0,-1,-1
-151.34,34.34,-76.69,4683,-6673,1565,0,0,-1
-151.34,34.34,-76.68,4686,-6673,1573,0,0,-1
-151.34,34.34,-76.67,4691,-6675,1575,0,0,-1
-151.35,34.34,-76.66,4693,-6676,1575,0,0,-1
-151.35,34.34,-76.66,4680,-6679,1585,0,0,-1
-151.36,34.34,-76.64,4686,-6671,1584,0,0,0
-151.36,34.34,-76.64,4686,-6668,1574,0,0,-1
-151.36,34.34,-76.64,4688,-6670,1559,0,0,0
-151.36,34.34,-76.63,4689,-6671,1566,0,0,0
-151.37,34.34,-76.62,4689,-6677,1571,0,0,-1
-151.37,34.34,-76.61,4696,-6671,1578,0,0,0
-151.37,34.35,-76.60,4700,-6673,1582,0,-1,0
-151.37,34.35,-76.60,4699,-6670,1586,0,-1,0
-151.37,34.35,-76.60,4695,-6666,1578,0,-1,0
-151.38,34.34,-76.59,4683,-6674,1582,0,0,0
-151.38,34.34,-76.58,4687,-6671,1586,0,0,-1
-151.38,34.35,-76.58,4688,-6673,1582,0,0,-1
-151.38,34.35,-76.56,4685,-6677,1593,0,0,-1
-151.39,34.35,-76.55,4685,-6676,1591,0,-1,-1
-151.39,34.35,-76.55,4691,-6668,1597,0,-1,-1
-151.39,34.35,-76.55,4689,-6667,1597,0,-1,0
-151.39,34.35,-76.55,4696,-6669,1599,-1,-1,0
-151.39,34.35,-76.55,4698,-6669,1602,-1,-1,0
-151.38,34.35,-76.56,4690,-6669,1595,-1,-1,0
-151.38,34.35,-76.58,4686,-6665,1597,-1,-1,0
-151.38,34.35,-76.58,4690,-6667,1594,-1,-1,0
-151.38,34.34,-76.59,4688,-6671,1590,-1,-1,0
-151.37,34.35,-76.60,4693,-6667,1580,-1,-1,0
-151.36,34.35,-76.61,4690,-6671,1582,-1,-1,0
-151.37,34.35,-76.60,4686,-6675,1592,-1,-1,0
-151.37,34.34,-76.61,4684,-6674,1591,-1,0,0
-151.37,34.34,-76.61,4684,-6673,1593,-1,-1,0
-151.37,34.34,-76.61,4684,-6678,1591,-1,-1,0
-151.37,34.34,-76.62,4691,-6677,1590,-1,-1,0
-151.37,34.34,-76.63,4689,-6680,1586,-1,-1,-1
-151.36,34.34,-76.63,4685,-6679,1585,-1,-1,0
-151.36,34.34,-76.64,4685,-6680,1588,-1,-1,0
-151.35,34.34,-76.66,4686,-6681,1578,-1,-1,0
-151.35,34.34,-76.66,4686,-6679,1578,-1,-1,0
-151.35,34.34,-76.67,4685,-6678,1575,-1,-1,0
-151.35,34.34,-76.67,4684,-6684,1582,-1,-1,0
-151.35,34.34,-76.67,4679,-6680,1579,-1,-1,-1
-151.35,34.34,-76.68,4686,-6683,1579,-1,-1,-1
-151.35,34.34,-76.68,4689,-6676,1574,-1,-1,0
-151.35,34.34,-76.68,4685,-6670,1582,-1,-1,0
-151.34,34.34,-76.70,4687,-6674,1579,-1,-1,0
-151.34,34.34,-76.70,4684,-6676,1587,-1,-1,0
-151.34,34.34,-76.70,4683,-6680,1597,-1,-1,0
-151.34,34.33,-76.71,4686,-6683,1584,-1,-1,0
-151.33,34.34,-76.72,4682,-6678,1570,-1,-1,0
-151.33,34.34,-76.72,4683,-6678,1571,0,-1,0
-151.33,34.34,-76.72,4684,-6675,1576,-1,-1,0
-151.33,34.33,-76.73,4683,-6675,1575,-1,-1,0
-151.33,34.33,-76.73,4676,-6683,1571,-1,-1,0
-151.33,34.33,-76.74,4675,-6678,1556,-1,-1,0
-151.33,34.33,-76.75,4677,-6681,1554,-1,-1,0
-151.32,34.33,-76.76,4684,-6684,1560,-1,-1,0
-151.32,34.33,-76.76,4686,-6688,1562,-1,-1,0
-151.32,34.33,-76.76,4689,-6688,1561,0,0,-1
-151.32,34.33,-76.76,4696,-6686,1561,0,0,-1
-151.32,34.33,-76.76,4699,-6684,1572,-1,-1,0
-151.31,34.33,-76.77,4696,-6680,1573,-1,-1,0
-151.31,34.34,-76.78,4691,-6683,1563,-1,-1,0
-151.30,34.33,-76.79,4686,-6680,1556,-1,-1,0
-151.30,34.33,-76.81,4682,-6685,1556,-1,-1,0
-151.30,34.33,-76.81,4675,-6684,1559,-1,-1,0
-151.30,34.33,-76.81,4676,-6676,1563,-1,-1,0
-151.30,34.33,-76.82,4677,-6676,1564,-1,-1,0
-151.30,34.33,-76.82,4682,-6676,1572,-1,-1,0
-151.30,34.33,-76.83,4682,-6671,1562,-1,-1,0
-151.29,34.33,-76.84,4680,-6673,1560,-1,-1,0
-151.29,34.33,-76.85,4684,-6677,1567,-1,-1,0
-151.28,34.33,-76.86,4690,-6682,1559,-1,-1,0
-151.28,34.33,-76.86,4687,-6681,1551,-1,-1,0
-151.28,34.33,-76.87,4690,-6679,1567,-1,-1,0
-151.27,34.33,-76.87,4687,-6690,1569,-1,-1,0
-151.27,34.33,-76.88,4684,-6685,1564,-1,-1,0
-151.27,34.33,-76.89,4684,-6682,1560,-1,-1,0
-151.27,34.33,-76.90,4683,-6677,1558,-1,-1,0
-151.27,34.33,-76.90,4685,-6679,1561,-1,-1,0
-151.26,34.33,-76.90,4684,-6680,1555,-1,-1,-1
-151.26,34.33,-76.90,4685,-6685,1553,-1,-1,0
-151.26,34.33,-76.91,4679,-6688,1558,-1,-1,0
-151.26,34.33,-76.92,4679,-6688,1557,-1,-1,0
-151.26,34.33,-76.93,4686,-6679,1554,-1,-1,0
-151.25,34.33,-76.94,4686,-6681,1541,-1,-1,0
-151.25,34.33,-76.95,4688,-6682,1538,-1,-1,0
-151.23,34.33,-76.97,4684,-6680,1538,-1,-1,0
-151.24,34.33,-76.98,4679,-6685,1540,-1,-1,0
-151.24,34.33,-76.98,4681,-6684,1540,-1,-1,0
-151.24,34.32,-77.00,4686,-6683,1541,-1,-1,0
-151.23,34.32,-77.01,4683,-6687,1536,-1,-1,0
-151.23,34.32,-77.01,4683,-6686,1540,-1,-1,0
-151.22,34.33,-77.02,4679,-6691,1541,-1,-1,0
-151.22,34.32,-77.03,4685,-6682,1541,-1,-1,0
-151.22,34.32,-77.03,4682,-6687,1532,-1,0,0
-151.22,34.32,-77.03,4691,-6687,1532,-1,-1,0
-151.21,34.33,-77.05,4694,-6688,1535,-1,-1,0
-151.21,34.33,-77.06,4690,-6691,1527,-1,-1,0
-151.21,34.32,-77.06,4685,-6692,1526,-1,0,0
-151.21,34.32,-77.07,4684,-6694,1524,-1,-1,0
-151.20,34.32,-77.09,4681,-6693,1524,-1,-1,0
-151.20,34.32,-77.09,4683,-6688,1531,-1,-1,0
-151.20,34.32,-77.09,4684,-6687,1525,-1,-1,-1
-151.20,34.32,-77.09,4681,-6688,1531,0,0,-1
-151.20,34.32,-77.09,4686,-6687,1535,-1,-1,-1
-151.20,34.32,-77.08,4683,-6690,1543,-1,-1,0
-151.20,34.32,-77.09,4676,-6693,1537,-1,-1,0
-151.20,34.32,-77.09,4678,-6689,1531,0,-1,0
-151.20,34.32,-77.09,4672,-6696,1524,0,-1,0
-151.20,34.32,-77.09,4672,-6694,1533,0,0,0
-151.21,34.32,-77.08,4679,-6696,1541,0,-1,0
-151.21,34.32,-77.08,4687,-6691,1537,0,-1,-1
-151.21,34.32,-77.08,4692,-6690,1533,0,0,-1
-151.21,34.32,-77.07,4689,-6684,1532,0,0,-1
-151.21,34.32,-77.07,4690,-6683,1527,0,-1,0
-151.21,34.32,-77.06,4698,-6687,1529,0,0,0
-151.21,34.33,-77.05,4696,-6688,1531,0,0,-1
-151.22,34.32,-77.04,4691,-6691,1543,0,-1,-1
-151.22,34.32,-77.04,4688,-6690,1531,0,0,0
-151.22,34.32,-77.04,4683,-6688,1531,0,0,-1
-151.22,34.33,-77.02,4685,-6683,1537,0,0,-1
-151.23,34.32,-77.02,4681,-6684,1536,0,0,0
-151.24,34.32,-77.01,4678,-6685,1544,0,0,0
-151.24,34.32,-77.00,4685,-6688,1549,0,0,0
-151.24,34.32,-76.99,4690,-6685,1543,0,0,0
-151.25,34.32,-76.98,4694,-6682,1546,0,0,0
-151.25,34.32,-76.97,4687,-6684,1547,0,0,0
-151.25,34.32,-76.97,4689,-6682,1543,0,0,-1
-151.25,34.32,-76.96,4686,-6680,1544,0,0,0
-151.25,34.32,-76.96,4683,-6686,1553,0,-1,0
-151.25,34.32,-76.96,4687,-6691,1547,0,0,0
-151.26,34.32,-76.95,4690,-6685,1547,0,0,0
-151.27,34.32,-76.94,4686,-6682,1547,0,0,-1
-151.27,34.32,-76.94,4685,-6684,1558,0,-1,0
-151.27,34.32,-76.94,4685,-6684,1553,0,0,-1
-151.27,34.32,-76.93,4691,-6692,1545,0,0,0
-151.27,34.32,-76.93,4687,-6688,1551,0,0,0
-151.27,34.32,-76.93,4690,-6685,1548,0,0,0
-151.27,34.32,-76.92,4689,-6684,1543,0,0,-1
-151.27,34.32,-76.92,4693,-6682,1543,0,0,-1
-151.27,34.32,-76.92,4692,-6680,1541,0,0,0
-151.27,34.32,-76.92,4693,-6677,1538,0,0,0
-151.27,34.32,-76.91,4693,-6680,1538,0,0,0
-151.27,34.32,-76.91,4690,-6693,1536,0,0,-1
-151.27,34.33,-76.90,4696,-6693,1548,0,-1,0
-151.27,34.33,-76.90,4692,-6693,1554,0,0,-1
-151.27,34.33,-76.90,4689,-6688,1547,0,0,-1
-151.28,34.33,-76.89,4687,-6691,1560,0,0,0
-151.28,34.33,-76.89,4687,-6688,1545,0,-1,0
-151.28,34.32,-76.89,4686,-6684,1544,0,0,-1
-151.29,34.32,-76.88,4688,-6684,1552,0,0,0
-151.29,34.32,-76.88,4688,-6685,1546,0,0,0
-151.29,34.32,-76.88,4691,-6691,1546,0,0,0
-151.29,34.33,-76.86,4689,-6689,1556,0,0,-1
-151.29,34.32,-76.86,4683,-6692,1553,0,-1,0
-151.29,34.33,-76.86,4683,-6692,1549,0,-1,0
-151.29,34.32,-76.86,4684,-6688,1546,0,0,0
-151.30,34.32,-76.85,4687,-6683,1552,0,0,0
-151.30,34.32,-76.85,4690,-6685,1560,0,0,-1
-151.31,34.32,-76.84,4690,-6687,1556,0,0,-1
-151.31,34.32,-76.84,4687,-6688,1556,0,0,-1
-151.30,34.32,-76.84,4690,-6679,1562,0,0,-1
-151.30,34.33,-76.83,4687,-6677,1559,0,0,0
-151.30,34.32,-76.82,4680,-6677,1562,0,-1,-1
-151.30,34.32,-76.82,4683,-6676,1557,0,-1,-1
-151.30,34.33,-76.82,4683,-6678,1561,0,0,0
-151.30,34.33,-76.81,4692,-6677,1566,0,0,-1
-151.31,34.33,-76.80,4696,-6676,1576,0,0,0
-151.32,34.33,-76.79,4691,-6672,1573,0,-1,0
-151.32,34.33,-76.79,4688,-6673,1571,0,0,-1
-151.31,34.33,-76.78,4689,-6668,1572,0,0,-1
-151.31,34.33,-76.78,4687,-6670,1567,0,0,-1
-151.32,34.33,-76.77,4689,-6670,1567,0,0,0
-151.32,34.33,-76.76,4687,-6678,1569,0,0,0
-151.32,34.33,-76.75,4685,-6680,1573,0,-1,-1
-151.32,34.33,-76.75,4683,-6680,1575,0,-1,-1
-151.33,34.33,-76.75,4687,-6682,1567,0,0,-1
-151.33,34.33,-76.74,4684,-6681,1564,0,0,-1
-151.33,34.33,-76.74,4680,-6681,1562,0,-1,-1
-151.33,34.34,-76.74,4684,-6678,1570,0,-1,-1
-151.33,34.34,-76.72,4685,-6679,1576,0,0,-1
-151.34,34.33,-76.71,4679,-6682,1574,0,0,-1
-151.34,34.33,-76.71,4678,-6683,1571,0,0,0
-151.34,34.34,-76.70,4685,-6676,1570,0,0,-1
-151.35,34.33,-76.70,4684,-6686,1573,0,0,-1
-151.35,34.33,-76.68,4686,-6681,1585,0,0,-1
-151.35,34.34,-76.67,4679,-6679,1581,0,0,-1
-151.36,34.34,-76.66,4690,-6672,1571,0,0,-1
-151.37,34.34,-76.66,4688,-6669,1579,0,0,0
-151.37,34.34,-76.64,4687,-6669,1578,0,0,0
-151.37,34.34,-76.63,4683,-6679,1579,0,0,0
-151.38,34.34,-76.62,4685,-6682,1583,0,0,-1
-151.39,34.33,-76.61,4683,-6681,1576,0,0,-1
-151.39,34.33,-76.60,4685,-6677,1591,0,0,-1
-151.39,34.34,-76.59,4690,-6678,1591,0,0,0
-151.39,34.34,-76.58,4688,-6676,1585,0,0,0
-151.40,34.34,-76.58,4686,-6673,1576,0,-1,0
-151.40,34.34,-76.57,4683,-6668,1580,0,0,0
-151.40,34.34,-76.56,4675,-6666,1580,0,-1,0
-151.40,34.34,-76.56,4678,-6676,1587,0,-1,0
-151.40,34.34,-76.56,4684,-6676,1580,0,0,-1
-151.41,34.33,-76.55,4693,-6671,1581,0,0,-1
-151.42,34.33,-76.53,4691,-6671,1591,0,0,0
-151.42,34.33,-76.53,4685,-6673,1598,0,-1,0
-151.42,34.34,-76.53,4691,-6666,1592,0,-1,0
-151.42,34.34,-76.53,4687,-6674,1587,0,-1,0
-151.42,34.34,-76.53,4681,-6670,1596,-1,-1,0
-151.42,34.33,-76.53,4681,-6670,1594,-1,0,0
-151.42,34.33,-76.53,4685,-6670,1588,-1,0,0
-151.42,34.33,-76.53,4689,-6675,1600,-1,-1,0
-151.42,34.33,-76.54,4680,-6674,1606,-1,-1,0
-151.42,34.33,-76.55,4683,-6676,1599,-1,0,0
-151.41,34.33,-76.56,4689,-6680,1591,-1,-1,-1
-151.41,34.33,-76.57,4689,-6680,1592,-1,-1,0
-151.41,34.33,-76.57,4692,-6680,1584,-1,-1,0
-151.41,34.33,-76.58,4687,-6675,1587,-1,-1,0
-151.40,34.33,-76.59,4685,-6674,1588,-1,-1,0
-151.39,34.33,-76.60,4689,-6681,1590,-1,-1,0
-151.39,34.33,-76.60,4687,-6677,1579,-1,-1,0
-151.39,34.33,-76.61,4687,-6678,1572,-1,0,0
-151.39,34.33,-76.62,4688,-6680,1566,-1,-1,0
-151.39,34.33,-76.62,4687,-6675,1570,-1,-1,0
-151.39,34.32,-76.63,4682,-6677,1579,-1,-1,0
-151.39,34.33,-76.63,4684,-6672,1574,-1,0,0
-151.39,34.33,-76.63,4679,-6675,1574,-1,0,-1
-151.39,34.32,-76.64,4687,-6674,1574,-1,-1,0
-151.38,34.32,-76.65,4686,-6682,1578,-1,-1,0
-151.37,34.32,-76.66,4684,-6677,1583,-1,-1,0
-151.37,34.32,-76.66,4686,-6684,1574,-1,-1,-1
-151.37,34.32,-76.66,4684,-6674,1581,-1,-1,0
-151.37,34.32,-76.68,4687,-6680,1577,-1,-1,0
-151.37,34.32,-76.68,4687,-6677,1574,-1,-1,0
-151.36,34.33,-76.69,4682,-6676,1570,-1,-1,0
-151.37,34.32,-76.69,4685,-6683,1577,-1,-1,0
-151.36,34.33,-76.70,4689,-6678,1569,-1,-1,0
-151.36,34.32,-76.71,4688,-6677,1573,-1,-1,0
-151.36,34.32,-76.71,4684,-6682,1571,-1,-1,0
-151.36,34.32,-76.72,4682,-6684,1574,0,0,0
-151.36,34.32,-76.72,4683,-6684,1571,-1,-1,0
-151.36,34.32,-76.72,4688,-6679,1574,-1,-1,0
-151.35,34.32,-76.73,4679,-6685,1576,-1,-1,0
-151.35,34.32,-76.73,4678,-6679,1577,-1,-1,0
-151.35,34.32,-76.74,4683,-6679,1569,-1,-1,0
-151.34,34.32,-76.75,4685,-6682,1565,-1,-1,0
-151.34,34.32,-76.75,4683,-6683,1564,-1,-1,0
-151.34,34.32,-76.76,4683,-6683,1560,-1,-1,0
-151.34,34.32,-76.77,4684,-6682,1565,-1,-1,0
-151.34,34.32,-76.77,4683,-6687,1574,-1,-1,0
-151.34,34.32,-76.79,4681,-6686,1567,-1,-1,0
-151.33,34.32,-76.80,4675,-6690,1562,-1,-1,0
-151.33,34.32,-76.80,4682,-6683,1556,-1,0,0
-151.33,34.32,-76.80,4696,-6683,1562,-1,-1,0
-151.33,34.32,-76.80,4697,-6684,1558,0,0,0
-151.32,34.32,-76.81,4692,-6688,1561,-1,-1,0
-151.32,34.32,-76.83,4690,-6689,1560,-1,-1,0
-151.31,34.32,-76.84,4686,-6686,1551,-1,-1,-1
-151.31,34.32,-76.85,4683,-6689,1549,-1,-1,0
-151.31,34.32,-76.85,4680,-6683,1554,-1,-1,0
-151.31,34.32,-76.85,4679,-6681,1559,0,-1,0
-151.31,34.32,-76.85,4682,-6681,1561,-1,-1,0
-151.30,34.32,-76.86,4684,-6674,1556,-1,-1,-1
-151.30,34.32,-76.86,4689,-6679,1558,-1,-1,0
-151.29,34.32,-76.87,4688,-6679,1561,-1,-1,0
-151.29,34.32,-76.88,4693,-6686,1561,-1,-1,0
-151.28,34.33,-76.89,4693,-6689,1559,-1,-1,0
-151.29,34.32,-76.90,4684,-6689,1548,-1,-1,0
-151.28,34.32,-76.92,4684,-6687,1538,-1,-1,0
-151.27,34.32,-76.94,4690,-6686,1533,-1,-1,0
-151.27,34.32,-76.95,4685,-6680,1541,-1,-1,0
-151.27,34.32,-76.95,4684,-6681,1537,-1,-1,0
-151.26,34.32,-76.97,4682,-6687,1534,-1,-1,0
-151.26,34.32,-76.98,4684,-6688,1531,-1,-1,0
-151.26,34.32,-76.98,4685,-6691,1544,-1,-1,0
-151.26,34.32,-76.99,4689,-6690,1544,-1,-1,0
-151.25,34.32,-77.00,4696,-6694,1546,-1,-1,0
-151.25,34.32,-77.00,4691,-6692,1543,-1,-1,0
-151.25,34.32,-77.01,4687,-6689,1548,-1,-1,0
-151.24,34.32,-77.01,4685,-6692,1560,-1,-1,0
-151.24,34.32,-77.03,4674,-6690,1554,-1,-1,0
-151.24,34.32,-77.03,4679,-6686,1547,-1,-1,0
-151.23,34.32,-77.04,4685,-6686,1542,-1,-1,0
-151.23,34.32,-77.04,4687,-6687,1532,-1,-1,0
-151.24,34.31,-77.04,4689,-6685,1535,0,-1,0
-151.24,34.31,-77.04,4687,-6689,1538,0,0,0
-151.24,34.31,-77.05,4680,-6689,1537,0,0,0
-151.24,34.31,-77.05,4684,-6691,1534,-1,-1,0
-151.24,34.31,-77.05,4689,-6693,1535,-1,-1,0
-151.24,34.31,-77.05,4692,-6691,1532,0,-1,0
-151.23,34.32,-77.05,4696,-6688,1533,0,-1,0
-151.23,34.32,-77.05,4689,-6688,1532,0,0,0
-151.24,34.31,-77.04,4686,-6688,1535,0,0,0
-151.24,34.31,-77.04,4684,-6691,1534,0,-1,0
-151.24,34.31,-77.04,4690,-6692,1543,0,-1,-1
-151.24,34.32,-77.04,4687,-6685,1534,0,0,-1
-151.24,34.32,-77.03,4683,-6690,1534,0,0,0
-151.24,34.32,-77.03,4684,-6693,1529,0,0,0
-151.24,34.32,-77.03,4686,-6689,1532,0,0,0
-151.24,34.32,-77.02,4686,-6684,1546,0,0,-1
-151.25,34.32,-77.00,4689,-6680,1538,0,0,0
-151.26,34.31,-76.99,4683,-6686,1536,0,0,0
-151.26,34.31,-76.99,4686,-6679,1539,0,-1,0
-151.26,34.32,-76.99,4688,-6684,1542,0,-1,0
-151.26,34.32,-76.98,4684,-6681,1540,0,0,-1
-151.27,34.32,-76.98,4683,-6686,1533,0,0,0
-151.27,34.32,-76.98,4685,-6686,1537,0,0,0
-151.27,34.32,-76.97,4687,-6685,1546,0,0,0
-151.27,34.32,-76.96,4688,-6686,1555,0,0,-1
-151.27,34.32,-76.96,4686,-6691,1545,0,0,0
-151.28,34.32,-76.94,4698,-6691,1551,0,0,-1
-151.28,34.32,-76.94,4692,-6691,1551,0,0,0
-151.28,34.32,-76.93,4688,-6690,1555,0,0,0
-151.28,34.32,-76.93,4688,-6689,1550,0,-1,0
-151.28,34.32,-76.93,4689,-6687,1544,0,0,0
-151.28,34.32,-76.93,4688,-6682,1547,0,0,0
-151.29,34.31,-76.92,4685,-6686,1552,0,0,0
-151.29,34.32,-76.91,4684,-6687,1551,0,0,0
-151.29,34.32,-76.91,4676,-6684,1559,0,0,-1
-151.30,34.31,-76.89,4672,-6691,1568,0,0,-1
-151.31,34.31,-76.90,4677,-6690,1558,0,0,0
-151.31,34.31,-76.90,4675,-6690,1548,0,0,0
-151.31,34.31,-76.89,4679,-6690,1547,0,0,0
-151.31,34.31,-76.88,4679,-6684,1542,0,0,0
-151.31,34.31,-76.88,4677,-6690,1536,0,0,-1
-151.31,34.31,-76.88,4686,-6685,1549,0,-1,0
-151.31,34.31,-76.88,4690,-6679,1551,0,0,-1
-151.31,34.31,-76.88,4690,-6680,1549,0,0,0
-151.31,34.31,-76.87,4688,-6679,1545,0,0,0
-151.32,34.31,-76.86,4692,-6676,1553,0,0,-1
-151.32,34.31,-76.85,4689,-6685,1556,0,-1,-1
-151.32,34.31,-76.85,4687,-6686,1562,0,0,-1
-151.32,34.32,-76.84,4686,-6680,1563,0,0,-1
-151.32,34.32,-76.84,4678,-6682,1556,0,0,-1
-151.32,34.32,-76.84,4679,-6674,1555,0,0,0
-151.32,34.32,-76.83,4684,-6679,1558,0,0,0
-151.32,34.32,-76.82,4686,-6681,1560,0,0,0
-151.33,34.32,-76.82,4687,-6681,1560,0,0,0
-151.33,34.31,-76.82,4684,-6685,1558,0,0,-1
-151.33,34.31,-76.82,4693,-6685,1558,0,0,0
-151.33,34.32,-76.81,4692,-6685,1556,0,0,-1
-151.33,34.32,-76.81,4689,-6686,1560,0,0,0
-151.33,34.32,-76.81,4691,-6679,1555,0,0,-1
-151.33,34.32,-76.80,4686,-6689,1566,0,0,0
-151.33,34.32,-76.80,4678,-6685,1562,0,-1,0
-151.33,34.32,-76.80,4681,-6684,1558,0,0,0
-151.34,34.31,-76.80,4683,-6682,1563,0,0,0
-151.34,34.32,-76.78,4691,-6679,1572,0,0,-1
-151.35,34.32,-76.77,4691,-6681,1578,0,0,-1
-151.35,34.32,-76.77,4692,-6679,1573,0,-1,0
-151.35,34.32,-76.77,4689,-6678,1578,0,-1,0
-151.35,34.32,-76.77,4692,-6680,1561,0,-1,0
-151.35,34.32,-76.77,4688,-6687,1563,0,-1,0
-151.35,34.32,-76.77,4687,-6676,1565,0,0,0
-151.35,34.32,-76.77,4681,-6675,1561,0,0,0
-151.35,34.32,-76.77,4681,-6683,1557,0,0,-1
-151.35,34.32,-76.76,4683,-6676,1565,0,0,-1
-151.35,34.32,-76.76,4688,-6675,1570,0,0,0
-151.35,34.32,-76.76,4690,-6678,1570,0,-1,0
-151.35,34.32,-76.76,4690,-6674,1560,0,0,0
-151.35,34.32,-76.75,4692,-6675,1557,0,-1,0
-151.35,34.32,-76.75,4690,-6681,1569,0,-1,0
-151.35,34.32,-76.75,4682,-6684,1570,-1,-1,0
-151.36,34.32,-76.75,4679,-6689,1566,0,0,0
-151.35,34.32,-76.75,4693,-6686,1567,0,0,-1
-151.36,34.32,-76.73,4689,-6680,1574,0,0,0
-151.37,34.31,-76.73,4680,-6686,1578,0,-1,0
-151.37,34.32,-76.72,4678,-6685,1572,0,0,-1
-151.37,34.32,-76.71,4679,-6678,1568,0,0,-1
-151.37,34.32,-76.71,4681,-6683,1570,0,0,0
-151.37,34.32,-76.71,4686,-6677,1568,0,0,-1
-151.37,34.32,-76.70,4685,-6682,1560,0,0,-1
-151.37,34.32,-76.70,4685,-6678,1572,0,0,-1
-151.38,34.32,-76.69,4689,-6680,1575,0,-1,0
-151.38,34.32,-76.69,4692,-6678,1569,0,-1,0
-151.38,34.32,-76.69,4685,-6679,1570,0,0,-1
-151.38,34.32,-76.68,4684,-6684,1576,0,0,0
-151.39,34.32,-76.67,4680,-6680,1583,0,0,0
-151.39,34.32,-76.66,4680,-6687,1582,0,-1,-1
-151.39,34.32,-76.65,4688,-6684,1574,0,0,-1
-151.39,34.33,-76.65,4690,-6678,1584,0,0,-1
-151.40,34.32,-76.64,4685,-6677,1578,0,0,0
-151.41,34.32,-76.63,4685,-6679,1590,0,0,0
-151.41,34.32,-76.62,4691,-6678,1594,0,0,-1
-151.41,34.32,-76.61,4692,-6675,1592,0,0,0
-151.41,34.32,-76.61,4691,-6676,1587,0,-1,0
-151.41,34.32,-76.60,4689,-6678,1588,0,-1,0
-151.42,34.32,-76.59,4689,-6676,1588,0,0,-1
-151.42,34.32,-76.58,4686,-6676,1580,0,-1,0
-151.42,34.32,-76.58,4689,-6676,1589,0,0,0
-151.43,34.32,-76.57,4686,-6673,1589,0,0,0
-151.44,34.32,-76.56,4685,-6671,1600,0,0,0
-151.44,34.32,-76.55,4690,-6672,1603,0,0,0
-151.44,34.32,-76.55,4688,-6673,1599,0,-1,0
-151.44,34.32,-76.55,4681,-6671,1592,0,-1,0
-151.44,34.32,-76.55,4678,-6674,1580,0,-1,0
-151.44,34.32,-76.55,4682,-6674,1592,-1,0,0
-151.44,34.32,-76.55,4681,-6667,1603,-1,0,0
-151.44,34.32,-76.55,4687,-6672,1592,-1,-1,0
-151.44,34.32,-76.56,4689,-6679,1593,-1,-1,0
-151.43,34.32,-76.57,4690,-6681,1598,-1,-1,0
-151.42,34.32,-76.58,4694,-6676,1591,-1,-1,0
-151.43,34.32,-76.59,4688,-6684,1596,-1,-1,0
-151.43,34.32,-76.59,4690,-6684,1596,-1,0,0
-151.43,34.32,-76.59,4692,-6686,1594,-1,0,0
-151.42,34.32,-76.60,4686,-6684,1596,-1,-1,0
-151.42,34.32,-76.60,4682,-6676,1590,-1,-1,-1
-151.42,34.32,-76.60,4684,-6665,1597,-1,-1,0
-151.41,34.32,-76.61,4683,-6666,1602,-1,-1,0
-151.41,34.32,-76.63,4681,-6667,1589,-1,-1,0
-151.41,34.32,-76.64,4683,-6670,1581,-1,-1,0
-151.40,34.32,-76.65,4687,-6671,1576,-1,-1,0
-151.39,34.32,-76.66,4680,-6682,1569,-1,-1,0
-151.40,34.31,-76.67,4677,-6678,1584,-1,-1,0
-151.39,34.32,-76.67,4681,-6674,1581,-1,-1,0
-151.39,34.31,-76.68,4686,-6680,1576,-1,-1,0
-151.39,34.31,-76.69,4683,-6676,1577,-1,0,0
-151.39,34.31,-76.70,4683,-6672,1579,-1,-1,0
-151.38,34.31,-76.71,4686,-6680,1588,-1,-1,0
-151.37,34.31,-76.72,4685,-6675,1582,-1,-1,0
-151.37,34.31,-76.73,4687,-6680,1568,-1,-1,0
-151.37,34.31,-76.73,4683,-6676,1574,-1,-1,0
-151.36,34.31,-76.74,4690,-6678,1579,-1,-1,0
-151.36,34.31,-76.74,4690,-6682,1584,-1,-1,0
-151.36,34.31,-76.75,4691,-6682,1578,-1,-1,0
-151.36,34.31,-76.75,4687,-6681,1582,-1,-1,0
-151.35,34.31,-76.76,4685,-6668,1571,-1,-1,0
-151.35,34.31,-76.77,4684,-6669,1567,-1,-1,0
-151.35,34.31,-76.77,4679,-6677,1566,-1,-1,0
-151.35,34.31,-76.77,4683,-6682,1571,-1,0,0
-151.35,34.31,-76.77,4680,-6681,1571,-1,-1,0
-151.35,34.31,-76.79,4679,-6674,1573,-1,-1,0
-151.35,34.31,-76.79,4680,-6676,1574,-1,-1,0
-151.35,34.31,-76.80,4676,-6681,1571,-1,-1,0
-151.34,34.31,-76.81,4681,-6682,1559,-1,-1,0
-151.34,34.31,-76.81,4685,-6680,1561,-1,0,0
-151.34,34.31,-76.80,4682,-6683,1566,-1,-1,0
-151.34,34.31,-76.81,4686,-6681,1572,-1,-1,0
-151.33,34.31,-76.83,4679,-6685,1563,-1,-1,0
-151.33,34.31,-76.83,4675,-6690,1566,-1,-1,0
-151.33,34.31,-76.84,4684,-6686,1562,-1,0,0
-151.33,34.31,-76.84,4688,-6682,1567,-1,-1,0
-151.33,34.30,-76.84,4678,-6682,1567,-1,-1,0
-151.33,34.31,-76.85,4679,-6687,1562,-1,-1,0
-151.32,34.31,-76.86,4685,-6680,1570,-1,-1,0
-151.32,34.31,-76.86,4685,-6677,1568,-1,-1,0
-151.32,34.31,-76.87,4689,-6682,1569,-1,-1,0
-151.32,34.30,-76.88,4685,-6679,1564,-1,-1,0
-151.31,34.31,-76.90,4685,-6675,1550,-1,-1,0
-151.30,34.31,-76.89,4695,-6674,1550,-1,-1,0
-151.30,34.31,-76.90,4691,-6677,1559,-1,-1,0
-151.30,34.31,-76.91,4687,-6679,1561,-1,-1,0
-151.29,34.31,-76.91,4693,-6682,1556,-1,-1,0
-151.29,34.31,-76.93,4693,-6686,1551,-1,-1,0
-151.28,34.31,-76.95,4689,-6685,1542,-1,-1,0
-151.27,34.31,-76.96,4688,-6691,1541,-1,-1,0
-151.27,34.31,-76.97,4688,-6689,1538,-1,0,0
-151.27,34.31,-76.97,4685,-6689,1549,-1,-1,-1
-151.27,34.31,-76.97,4683,-6691,1546,-1,-1,-1
-151.27,34.31,-76.98,4682,-6691,1553,-1,-1,0
-151.26,34.31,-76.99,4692,-6697,1538,-1,-1,-1
-151.26,34.31,-77.00,4690,-6694,1543,-1,-1,0
-151.25,34.32,-77.01,4683,-6684,1539,-1,-1,0
-151.24,34.32,-77.02,4690,-6685,1534,-1,-1,0
-151.25,34.31,-77.03,4686,-6681,1529,-1,-1,0
-151.25,34.31,-77.03,4679,-6683,1535,-1,-1,0
-151.24,34.32,-77.04,4679,-6691,1535,-1,-1,0
-151.25,34.31,-77.04,4678,-6692,1543,-1,-1,-1
-151.25,34.31,-77.04,4679,-6687,1539,0,-1,-1
-151.24,34.32,-77.04,4679,-6688,1540,-1,-1,-1
-151.24,34.32,-77.04,4680,-6689,1536,-1,-1,-1
-151.24,34.32,-77.04,4683,-6686,1542,-1,-1,0
-151.24,34.32,-77.04,4687,-6690,1543,-1,-1,0
-151.24,34.32,-77.04,4688,-6691,1540,0,-1,-1
-151.24,34.32,-77.04,4690,-6695,1533,-1,0,-1
-151.24,34.32,-77.04,4682,-6689,1536,0,0,0
-151.25,34.31,-77.04,4684,-6694,1537,0,0,0
-151.25,34.31,-77.04,4685,-6698,1538,-1,-1,0
-151.25,34.31,-77.04,4684,-6695,1536,0,0,-1
-151.25,34.31,-77.04,4693,-6690,1529,0,0,0
-151.25,34.31,-77.03,4684,-6685,1523,0,0,0
-151.25,34.31,-77.02,4676,-6689,1529,0,0,0
-151.26,34.31,-77.00,4674,-6685,1541,0,0,-1
-151.27,34.31,-76.99,4681,-6687,1547,0,0,-1
-151.27,34.31,-76.98,4681,-6687,1557,0,0,-1
-151.28,34.31,-76.97,4681,-6689,1554,0,0,-1
-151.28,34.31,-76.96,4688,-6687,1553,0,0,0
-151.28,34.31,-76.95,4690,-6689,1551,0,0,-1
-151.29,34.31,-76.93,4684,-6688,1548,0,0,0
-151.29,34.31,-76.92,4684,-6679,1551,0,0,0
-151.30,34.31,-76.91,4687,-6682,1553,0,0,0
-151.31,34.30,-76.90,4685,-6682,1556,0,0,0
-151.31,34.30,-76.90,4686,-6682,1549,0,0,-1
-151.31,34.30,-76.89,4687,-6676,1552,0,0,-1
-151.32,34.31,-76.88,4690,-6678,1557,0,0,0
-151.33,34.30,-76.86,4686,-6684,1565,0,0,0
-151.33,34.30,-76.84,4686,-6686,1572,0,-1,0
-151.34,34.30,-76.84,4687,-6681,1563,0,-1,0
-151.34,34.30,-76.84,4683,-6678,1567,0,0,0
-151.34,34.30,-76.83,4680,-6677,1566,0,0,-1
-151.34,34.30,-76.83,4684,-6675,1557,0,0,-1
-151.34,34.31,-76.82,4682,-6675,1553,0,0,0
-151.34,34.31,-76.82,4683,-6682,1556,0,0,0
-151.35,34.30,-76.80,4684,-6684,1562,0,-1,0
-151.36,34.30,-76.80,4680,-6683,1566,0,-1,0
-151.36,34.30,-76.80,4677,-6693,1566,0,-1,0
-151.37,34.29,-76.80,4686,-6685,1563,0,0,0
-151.37,34.29,-76.78,4690,-6682,1566,0,0,0
-151.38,34.29,-76.77,4684,-6687,1571,0,0,0
-151.38,34.29,-76.76,4678,-6686,1575,0,-1,0
-151.39,34.29,-76.76,4684,-6690,1571,0,0,0
-151.40,34.28,-76.75,4688,-6689,1572,0,0,0
-151.40,34.29,-76.74,4683,-6681,1576,0,0,0
-151.40,34.29,-76.73,4684,-6682,1575,0,0,0
-151.40,34.29,-76.72,4681,-6680,1580,0,0,0
-151.42,34.28,-76.72,4682,-6685,1578,0,0,0
-151.42,34.28,-76.71,4682,-6687,1582,0,-1,0
-151.42,34.28,-76.70,4681,-6685,1578,0,0,0
-151.42,34.28,-76.70,4679,-6680,1582,0,0,-1
-151.43,34.28,-76.70,4676,-6678,1583,0,-1,0
-151.43,34.28,-76.69,4674,-6676,1575,0,0,0
-151.43,34.27,-76.69,4675,-6676,1577,0,0,-1
-151.43,34.28,-76.69,4670,-6677,1587,0,0,-1
-151.43,34.27,-76.68,4679,-6678,1587,0,-1,0
-151.44,34.28,-76.67,4683,-6682,1584,0,0,0
-151.44,34.28,-76.67,4683,-6680,1583,0,-1,0
-151.44,34.28,-76.67,4674,-6684,1586,-1,-1,-1
-151.43,34.27,-76.68,4674,-6687,1581,-1,-1,0
-151.43,34.27,-76.68,4681,-6693,1571,-1,0,0
-151.43,34.27,-76.68,4685,-6692,1569,0,-1,0
-151.43,34.28,-76.69,4681,-6685,1563,0,0,0
-151.44,34.27,-76.67,4681,-6685,1581,0,-1,0
-151.44,34.27,-76.67,4673,-6681,1584,0,0,-1
-151.44,34.27,-76.66,4672,-6676,1579,0,0,0
-151.45,34.27,-76.66,4675,-6682,1581,0,0,0
-151.45,34.27,-76.66,4676,-6681,1582,0,-1,-1
-151.45,34.27,-76.65,4680,-6682,1585,0,0,0
-151.45,34.27,-76.65,4681,-6685,1581,0,0,0
-151.45,34.27,-76.65,4688,-6685,1576,0,-1,0
-151.45,34.27,-76.65,4691,-6691,1582,0,0,0
-151.46,34.27,-76.64,4688,-6694,1586,0,0,0
-151.46,34.27,-76.64,4682,-6688,1582,0,-1,0
-151.46,34.27,-76.64,4676,-6682,1589,-1,-1,0
-151.46,34.26,-76.64,4671,-6679,1584,-1,-1,0
-151.46,34.27,-76.65,4667,-6681,1579,0,-1,0
-151.45,34.27,-76.65,4676,-6680,1579,0,-1,0
-151.46,34.27,-76.64,4681,-6683,1579,0,0,0
-151.46,34.27,-76.64,4681,-6686,1588,0,0,0
-151.46,34.27,-76.63,4675,-6689,1581,-1,-1,0
-151.47,34.26,-76.64,4668,-6688,1583,-1,-1,0
-151.47,34.26,-76.64,4673,-6689,1599,-1,-1,0
-151.47,34.26,-76.64,4673,-6690,1588,-1,0,0
-151.47,34.26,-76.64,4673,-6685,1584,0,-1,0
-151.47,34.26,-76.64,4673,-6682,1583,0,-1,0
-151.47,34.26,-76.64,4674,-6682,1582,0,-1,-1
-151.47,34.26,-76.64,4676,-6683,1586,-1,-1,0
-151.47,34.26,-76.64,4675,-6682,1579,-1,-1,0
-151.47,34.26,-76.64,4678,-6684,1585,0,-1,0
-151.47,34.26,-76.63,4683,-6688,1589,0,0,0
-151.48,34.26,-76.63,4683,-6686,1585,0,-1,0
-151.48,34.26,-76.63,4680,-6684,1587,0,0,0
-151.48,34.26,-76.61,4679,-6679,1583,0,0,-1
-151.48,34.26,-76.61,4675,-6680,1587,0,0,-1
-151.49,34.26,-76.60,4674,-6680,1593,0,0,0
-151.49,34.26,-76.60,4681,-6681,1601,0,0,-1
-151.49,34.26,-76.58,4673,-6683,1593,0,0,0
-151.49,34.26,-76.58,4677,-6685,1584,0,0,-1
-151.50,34.26,-76.57,4676,-6682,1594,0,0,0
-151.50,34.26,-76.56,4673,-6676,1591,0,0,0
-151.50,34.26,-76.56,4674,-6683,1589,0,0,0
-151.51,34.26,-76.56,4676,-6687,1587,0,-1,-1
-151.50,34.26,-76.56,4681,-6681,1598,0,-1,-1
-151.51,34.25,-76.55,4677,-6677,1600,0,0,0
-151.51,34.26,-76.54,4681,-6675,1598,0,0,0
-151.51,34.26,-76.54,4675,-6676,1598,0,0,0
-151.51,34.26,-76.54,4675,-6682,1607,0,0,0
-151.51,34.26,-76.53,4674,-6686,1605,0,0,-1
-151.51,34.26,-76.53,4678,-6683,1599,0,0,0
-151.52,34.26,-76.52,4680,-6683,1599,0,0,0
-151.52,34.26,-76.52,4681,-6676,1608,0,-1,-1
-151.52,34.26,-76.52,4678,-6677,1602,0,0,0
-151.52,34.26,-76.52,4682,-6680,1603,0,0,0
-151.52,34.26,-76.51,4675,-6689,1607,0,-1,0
-151.52,34.26,-76.51,4678,-6683,1608,-1,-1,0
-151.52,34.26,-76.51,4677,-6680,1607,-1,-1,0
-151.52,34.26,-76.52,4677,-6679,1606,-1,-1,0
-151.52,34.25,-76.53,4671,-6679,1599,-1,-1,0
-151.52,34.25,-76.53,4670,-6680,1600,-1,0,0
-151.52,34.25,-76.53,4678,-6683,1605,-1,-1,0
-151.52,34.25,-76.54,4675,-6681,1595,-1,-1,0
-151.52,34.25,-76.55,4672,-6675,1591,-1,-1,-1
-151.52,34.25,-76.55,4674,-6673,1595,-1,0,-1
-151.52,34.25,-76.55,4677,-6679,1605,-1,-1,0
-151.51,34.25,-76.55,4684,-6683,1605,-1,-1,0
-151.51,34.25,-76.55,4687,-6680,1606,-1,-1,-1
-151.50,34.26,-76.56,4690,-6678,1593,-1,-1,0
-151.50,34.26,-76.57,4682,-6676,1583,-1,-1,0
-151.50,34.25,-76.58,4682,-6680,1586,-1,-1,0
-151.50,34.25,-76.58,4681,-6688,1589,-1,0,0
-151.49,34.25,-76.59,4679,-6686,1591,-1,0,0
-151.49,34.25,-76.60,4678,-6681,1596,-1,-1,-1
-151.49,34.25,-76.60,4672,-6686,1598,-1,-1,0
-151.48,34.25,-76.61,4670,-6679,1594,-1,-1,0
-151.48,34.25,-76.62,4672,-6674,1593,-1,-1,0
-151.48,34.25,-76.62,4672,-6679,1596,-1,-1,0
-151.48,34.25,-76.63,4674,-6683,1596,-1,-1,0
-151.48,34.25,-76.64,4676,-6673,1586,-1,-1,0
-151.47,34.25,-76.65,4674,-6679,1588,-1,-1,0
-151.47,34.25,-76.65,4676,-6678,1590,-1,-1,0
-151.47,34.25,-76.66,4673,-6678,1588,-1,0,-1
-151.46,34.25,-76.66,4680,-6683,1587,-1,-1,-1
-151.46,34.25,-76.67,4678,-6687,1588,-1,-1,0
-151.46,34.25,-76.68,4676,-6683,1590,-1,-1,0
-151.46,34.25,-76.68,4673,-6690,1582,0,0,0
-151.46,34.25,-76.68,4674,-6692,1585,-1,-1,0
-151.45,34.25,-76.69,4672,-6689,1572,-1,-1,0
-151.45,34.25,-76.70,4668,-6685,1568,-1,0,-1
-151.44,34.25,-76.71,4672,-6683,1573,-1,-1,0
-151.44,34.25,-76.72,4678,-6682,1578,-1,-1,0
-151.43,34.25,-76.72,4681,-6685,1577,-1,-1,0
-151.43,34.25,-76.73,4678,-6675,1575,-1,-1,0
-151.43,34.25,-76.73,4680,-6677,1581,-1,-1,0
-151.42,34.25,-76.75,4681,-6677,1581,-1,-1,-1
-151.42,34.26,-76.75,4676,-6678,1569,-1,-1,-1
-151.42,34.26,-76.76,4679,-6685,1559,-1,-1,0
-151.41,34.25,-76.76,4679,-6683,1570,-1,-1,-1
-151.41,34.26,-76.77,4681,-6682,1568,-1,-1,0
-151.40,34.26,-76.78,4682,-6685,1577,-1,-1,0
-151.40,34.26,-76.78,4682,-6689,1582,-1,-1,0
-151.40,34.26,-76.78,4681,-6681,1591,-1,0,0
-151.40,34.26,-76.78,4685,-6688,1581,-1,-1,0
-151.40,34.26,-76.79,4674,-6686,1579,-1,-1,-1
-151.39,34.26,-76.80,4673,-6683,1576,-1,-1,0
-151.39,34.26,-76.81,4673,-6685,1569,-1,-1,0
-151.38,34.27,-76.82,4676,-6676,1587,-1,-1,0
-151.38,34.27,-76.82,4676,-6680,1578,-1,-1,-1
-151.38,34.26,-76.83,4681,-6677,1564,-1,-1,-1
-151.38,34.26,-76.83,4688,-6685,1567,-1,-1,-1
-151.37,34.27,-76.85,4687,-6684,1569,-1,-1,-1
-151.36,34.27,-76.86,4688,-6691,1579,-1,-1,-1
-151.35,34.27,-76.87,4683,-6693,1567,-1,-1,0
-151.35,34.27,-76.87,4684,-6686,1566,-1,-1,0
-151.35,34.27,-76.87,4685,-6677,1558,-1,-1,0
-151.35,34.27,-76.88,4692,-6684,1552,-1,0,0
-151.34,34.28,-76.88,4690,-6686,1561,-1,-1,0
-151.33,34.28,-76.89,4689,-6689,1559,-1,-1,0
-151.33,34.28,-76.90,4684,-6688,1553,-1,-1,0
-151.32,34.28,-76.92,4678,-6690,1545,-1,-1,0
-151.32,34.28,-76.94,4673,-6698,1548,-1,-1,0
-151.32,34.28,-76.95,4671,-6691,1547,-1,-1,0
-151.31,34.27,-76.96,4681,-6697,1547,-1,-1,0
-151.31,34.27,-76.96,4676,-6702,1544,-1,-1,-1
-151.31,34.28,-76.96,4679,-6698,1547,-1,-1,-1
-151.30,34.28,-76.97,4679,-6696,1536,-1,-1,-1
-151.30,34.28,-76.97,4680,-6685,1548,-1,-1,0
-151.30,34.28,-76.98,4682,-6682,1543,-1,-1,0
-151.29,34.29,-76.99,4685,-6683,1546,-1,-1,-1
-151.29,34.28,-76.99,4676,-6687,1539,-1,-1,0
-151.29,34.28,-77.01,4674,-6685,1538,-1,-1,0
-151.28,34.28,-77.01,4674,-6684,1538,-1,0,0
-151.28,34.28,-77.01,4668,-6696,1536,0,-1,0
-151.29,34.27,-77.01,4671,-6694,1544,-1,-1,0
-151.28,34.28,-77.02,4673,-6694,1535,-1,-1,-1
-151.28,34.28,-77.01,4674,-6695,1539,0,-1,-1
-151.28,34.28,-77.01,4679,-6690,1539,0,0,-1
-151.28,34.28,-77.01,4680,-6694,1540,0,0,-1
-151.29,34.28,-77.00,4679,-6694,1545,0,0,0
-151.30,34.27,-76.99,4678,-6692,1551,0,-1,0
-151.30,34.27,-76.99,4671,-6690,1549,0,-1,0
-151.30,34.27,-76.99,4674,-6687,1555,0,0,-1
-151.30,34.28,-76.98,4677,-6689,1552,0,0,0
-151.31,34.27,-76.98,4675,-6695,1548,0,0,0
-151.30,34.28,-76.98,4678,-6688,1537,0,0,0
-151.31,34.27,-76.98,4679,-6694,1542,0,0,0
-151.31,34.27,-76.97,4680,-6689,1550,0,-1,-1
-151.32,34.27,-76.96,4685,-6693,1549,0,-1,0
-151.32,34.27,-76.95,4684,-6691,1556,0,0,0
-151.32,34.27,-76.95,4679,-6696,1552,0,0,0
-151.32,34.27,-76.94,4679,-6695,1551,0,0,-1
-151.32,34.27,-76.93,4678,-6696,1554,0,-1,0
-151.33,34.27,-76.93,4680,-6689,1539,0,0,0
-151.33,34.27,-76.93,4678,-6690,1546,0,0,0
-151.33,34.27,-76.92,4681,-6693,1556,0,0,0
-151.34,34.27,-76.92,4679,-6691,1560,0,0,0
-151.34,34.27,-76.90,4675,-6689,1557,0,0,0
-151.35,34.26,-76.90,4673,-6694,1561,0,0,0
-151.35,34.27,-76.89,4676,-6690,1556,0,-1,0
-151.35,34.27,-76.89,4680,-6686,1556,0,0,0
-151.35,34.27,-76.88,4675,-6682,1560,0,0,-1
-151.35,34.27,-76.88,4680,-6685,1557,0,0,-1
-151.36,34.27,-76.87,4688,-6690,1558,0,0,-1
-151.36,34.27,-76.86,4682,-6686,1569,0,0,0
-151.36,34.27,-76.85,4680,-6686,1568,0,0,-1
-151.37,34.27,-76.85,4680,-6690,1562,0,0,-1
-151.37,34.27,-76.84,4679,-6682,1554,0,0,0
-151.38,34.26,-76.83,4674,-6687,1568,0,0,0
-151.38,34.26,-76.83,4674,-6688,1576,0,0,-1
-151.37,34.26,-76.83,4679,-6690,1570,0,0,-1
-151.38,34.27,-76.82,4681,-6686,1561,0,0,0
-151.38,34.27,-76.82,4677,-6686,1565,0,-1,0
-151.38,34.27,-76.82,4681,-6684,1564,0,-1,0
-151.38,34.27,-76.81,4680,-6687,1563,0,-1,0
-151.38,34.26,-76.82,4680,-6695,1560,0,-1,0
-151.39,34.26,-76.82,4681,-6695,1554,0,0,0
-151.39,34.26,-76.81,4678,-6686,1557,0,0,0
-151.39,34.26,-76.80,4682,-6688,1562,0,0,0
-151.39,34.26,-76.80,4683,-6693,1570,0,-1,0
-151.39,34.26,-76.80,4670,-6691,1569,0,0,-1
-151.39,34.26,-76.80,4672,-6690,1569,0,0,0
-151.39,34.26,-76.80,4678,-6684,1565,0,-1,0
-151.40,34.26,-76.79,4681,-6688,1565,0,0,0
-151.40,34.26,-76.78,4679,-6691,1567,0,-1,0
-151.41,34.25,-76.79,4680,-6688,1568,0,-1,0
-151.41,34.25,-76.78,4680,-6692,1568,0,0,-1
-151.41,34.26,-76.78,4681,-6694,1562,0,0,-1
-151.40,34.26,-76.77,4680,-6690,1576,0,0,-1
-151.41,34.26,-76.76,4680,-6690,1576,0,0,0
-151.42,34.26,-76.76,4676,-6688,1579,0,-1,0
-151.42,34.26,-76.75,4676,-6693,1573,0,0,0
-151.42,34.25,-76.74,4685,-6691,1575,0,0,0
-151.42,34.25,-76.74,4683,-6688,1579,0,0,0
-151.43,34.25,-76.73,4680,-6689,1580,0,0,0
-151.43,34.25,-76.73,4681,-6686,1579,0,0,0
-151.43,34.25,-76.72,4686,-6680,1576,0,-1,0
-151.43,34.26,-76.72,4691,-6682,1580,0,-1,0
-151.43,34.26,-76.72,4684,-6680,1579,0,-1,0
-151.43,34.26,-76.72,4682,-6682,1576,0,0,0
-151.44,34.25,-76.71,4673,-6679,1573,0,0,0
-151.43,34.26,-76.72,4671,-6682,1563,0,0,-1
-151.44,34.25,-76.71,4677,-6683,1570,0,0,0
-151.44,34.25,-76.71,4676,-6680,1572,0,0,-1
-151.44,34.26,-76.70,4678,-6677,1585,0,0,-1
-151.44,34.26,-76.69,4677,-6678,1580,0,0,0
-151.44,34.26,-76.69,4675,-6686,1581,0,0,0
-151.44,34.26,-76.68,4682,-6687,1591,0,-1,0
-151.44,34.26,-76.68,4677,-6691,1591,0,0,0
-151.46,34.25,-76.68,4676,-6686,1587,0,0,0
-151.46,34.25,-76.68,4677,-6685,1576,0,0,0
-151.46,34.25,-76.67,4675,-6690,1590,0,0,-1
-151.46,34.25,-76.65,4674,-6685,1586,0,0,0
-151.46,34.26,-76.65,4677,-6687,1591,0,-1,-1
-151.47,34.25,-76.65,4674,-6686,1582,-1,-1,0
-151.46,34.26,-76.65,4674,-6680,1577,0,0,-1
-151.46,34.26,-76.65,4674,-6681,1571,0,0,0
-151.46,34.25,-76.64,4676,-6676,1574,0,-1,0
-151.47,34.26,-76.64,4676,-6677,1578,0,0,-1
-151.47,34.25,-76.63,4679,-6679,1583,0,0,-1
-151.48,34.26,-76.62,4683,-6682,1585,0,0,0
-151.48,34.26,-76.60,4681,-6682,1592,0,0,0
-151.49,34.25,-76.60,4674,-6686,1589,0,0,0
-151.49,34.25,-76.60,4679,-6682,1594,0,0,0
