Yaw,Pitch,Roll,AX,AY,AZ,GX,GY,GZ
144.61,178.54,-135.15,177,-6050,-6047,1,0,0
144.62,178.53,-135.14,175,-6037,-5999,-1,0,-1
144.60,178.51,-135.17,195,-6013,-5933,-2,0,-1
144.58,178.49,-135.21,208,-5973,-5908,-2,0,-1
144.56,178.48,-135.25,246,-5921,-5910,-2,0,-1
144.55,178.48,-135.30,248,-5894,-5929,-2,-1,0
144.51,178.49,-135.36,236,-5920,-5989,-3,-1,0
144.47,178.52,-135.41,209,-5952,-6028,-2,-1,0
144.44,178.53,-135.46,182,-5959,-6061,-2,0,0
144.41,178.53,-135.51,198,-5917,-6054,-2,0,-1
144.38,178.51,-135.57,205,-5872,-6034,-2,0,-1
144.36,178.49,-135.60,208,-5902,-6037,-1,0,0
144.35,178.49,-135.59,207,-5902,-6024,0,0,0
144.33,178.49,-135.60,223,-5912,-6006,-1,0,0
144.31,178.48,-135.63,216,-5909,-6005,-2,0,0
144.28,178.48,-135.68,231,-5891,-6005,-3,0,0
144.22,178.47,-135.77,235,-5870,-6042,-3,0,0
144.17,178.47,-135.86,213,-5866,-6053,-4,0,0
144.13,178.46,-135.93,223,-5903,-6077,-3,0,0
144.09,178.47,-135.98,189,-5901,-6067,-2,0,0
144.05,178.48,-136.02,209,-5829,-6037,-2,0,0
144.01,178.46,-136.10,242,-5793,-6056,-4,0,-1
143.98,178.43,-136.18,262,-5804,-6097,-3,0,-1
143.96,178.41,-136.23,276,-5770,-6100,-1,0,-1
143.96,178.41,-136.23,250,-5767,-6070,0,0,0
143.96,178.41,-136.21,251,-5802,-6062,1,-1,0
143.97,178.42,-136.18,241,-5816,-6050,0,-1,0
143.97,178.41,-136.20,245,-5834,-6047,-2,0,-1
143.96,178.38,-136.25,263,-5861,-6092,-3,0,-1
143.95,178.36,-136.30,286,-5853,-6116,-2,0,-1
143.94,178.36,-136.32,282,-5819,-6104,-1,-1,0
143.93,178.37,-136.34,279,-5774,-6104,-1,-1,0
143.92,178.37,-136.37,284,-5736,-6104,-2,-1,0
143.91,178.37,-136.40,252,-5769,-6124,-1,-1,-1
143.91,178.37,-136.39,228,-5790,-6145,0,0,-1
143.93,178.38,-136.36,200,-5813,-6131,1,0,0
143.96,178.39,-136.28,166,-5910,-6099,2,0,0
144.00,178.40,-136.19,183,-5886,-6025,2,0,0
144.01,178.39,-136.15,212,-5829,-5967,0,0,0
144.00,178.40,-136.16,230,-5795,-5978,-2,-1,0
143.98,178.41,-136.20,269,-5788,-6044,-1,-1,0
143.97,178.44,-136.21,276,-5763,-6088,0,-2,0
143.97,178.48,-136.17,273,-5768,-6131,2,-2,0
143.98,178.51,-136.11,234,-5783,-6113,3,-1,0
144.02,178.54,-136.00,212,-5828,-6099,3,-1,0
144.07,178.57,-135.90,184,-5839,-6080,3,-1,0
144.11,178.57,-135.81,202,-5885,-6064,2,-1,-1
144.14,178.57,-135.77,192,-5907,-6065,0,0,-1
144.15,178.55,-135.75,199,-5954,-6090,0,0,-1
144.16,178.54,-135.76,208,-5952,-6078,-1,0,-1
144.16,178.54,-135.76,200,-5927,-6037,-1,-1,-1
144.17,178.55,-135.75,203,-5879,-5986,-1,-1,0
144.16,178.57,-135.77,205,-5838,-5975,-1,-1,0
144.13,178.59,-135.79,212,-5844,-5993,-1,-1,0
144.12,178.62,-135.80,207,-5853,-6034,-1,-1,0
144.11,178.64,-135.82,189,-5894,-6092,-1,-1,0
144.09,178.66,-135.83,166,-5894,-6103,-1,-1,0
144.09,178.66,-135.82,176,-5904,-6104,0,0,0
144.09,178.65,-135.80,190,-5866,-6061,0,0,-1
144.10,178.65,-135.78,211,-5841,-6017,0,-1,0
144.11,178.65,-135.75,207,-5828,-5989,0,-1,0
144.11,178.68,-135.74,194,-5849,-5995,0,-1,0
144.10,178.70,-135.74,204,-5864,-6020,0,-1,0
144.10,178.72,-135.74,204,-5879,-6037,-1,-1,0
144.10,178.73,-135.75,201,-5909,-6084,-1,-1,-1
144.10,178.73,-135.75,189,-5908,-6096,0,-1,0
144.11,178.74,-135.76,195,-5896,-6095,0,-1,-1
144.12,178.74,-135.75,190,-5850,-6048,0,-1,-1
144.13,178.73,-135.74,198,-5841,-6034,0,-1,0
144.13,178.74,-135.72,191,-5852,-6023,0,-1,-1
144.15,178.75,-135.69,188,-5884,-6039,1,-1,0
144.16,178.76,-135.66,173,-5907,-6036,0,-1,0
144.16,178.78,-135.66,170,-5920,-6030,-1,-1,0
144.15,178.78,-135.67,165,-5932,-6045,-2,-1,-1
144.13,178.78,-135.71,159,-5918,-6039,-2,0,-1
144.12,178.78,-135.74,169,-5899,-6051,-2,0,-1
144.10,178.79,-135.78,167,-5862,-6032,-2,0,-1
144.09,178.78,-135.80,192,-5863,-6059,-1,-1,0
144.09,178.78,-135.80,185,-5845,-6046,0,0,0
144.09,178.78,-135.80,196,-5868,-6043,0,-1,0
144.08,178.80,-135.79,181,-5855,-6040,0,0,0
144.08,178.79,-135.78,189,-5876,-6045,0,-1,0
144.09,178.80,-135.77,175,-5860,-6018,0,0,0
144.09,178.80,-135.76,176,-5886,-6030,0,-1,0
144.09,178.80,-135.76,176,-5877,-6022,-1,-1,-1
144.09,178.80,-135.77,180,-5882,-6043,-1,-1,0
144.09,178.81,-135.78,179,-5857,-6039,0,-1,0
144.09,178.82,-135.76,175,-5860,-6041,0,-1,0
144.10,178.83,-135.75,163,-5874,-6041,0,-1,0
144.10,178.83,-135.73,170,-5881,-6047,0,-1,0
144.11,178.82,-135.72,178,-5892,-6052,0,0,-1
144.11,178.82,-135.71,174,-5889,-6050,0,0,-1
144.13,178.82,-135.70,174,-5894,-6044,0,0,-1
144.14,178.82,-135.67,175,-5886,-6028,0,-1,0
144.15,178.82,-135.66,169,-5875,-6012,0,0,-1
144.15,178.82,-135.65,178,-5892,-6014,0,-1,0
144.16,178.81,-135.65,174,-5887,-6030,0,0,-1
144.16,178.81,-135.65,172,-5895,-6045,-1,0,-1
144.17,178.80,-135.64,188,-5898,-6040,0,-1,0
144.16,178.80,-135.65,161,-5885,-6033,-1,0,-1
144.17,178.79,-135.65,178,-5892,-6017,-1,0,-1
144.16,178.79,-135.67,168,-5875,-6022,-1,0,-1
144.16,178.78,-135.67,186,-5887,-6019,-1,-1,0
144.16,178.79,-135.68,176,-5872,-6025,-1,0,-1
144.15,178.79,-135.69,176,-5875,-6026,-1,-1,0
144.14,178.79,-135.70,185,-5878,-6036,-1,0,-1
144.14,178.78,-135.72,185,-5888,-6061,-1,0,-1
144.15,178.78,-135.71,179,-5891,-6052,0,0,-1
144.14,178.78,-135.71,170,-5880,-6027,-1,0,-1
144.15,178.78,-135.71,182,-5879,-6019,0,0,-1
144.15,178.78,-135.71,179,-5869,-6019,-1,0,0
144.15,178.77,-135.72,198,-5874,-6029,-1,-1,0
144.14,178.77,-135.73,189,-5875,-6037,-1,0,-1
144.14,178.77,-135.73,191,-5889,-6061,0,0,0
144.15,178.76,-135.72,177,-5884,-6055,0,0,-1
144.15,178.76,-135.71,184,-5884,-6040,0,-1,0
144.15,178.77,-135.71,171,-5876,-6024,-1,0,-1
144.15,178.76,-135.72,178,-5889,-6030,-1,-1,0
144.13,178.77,-135.74,180,-5888,-6046,-1,0,-1
144.13,178.76,-135.75,192,-5896,-6058,-1,0,0
144.13,178.76,-135.75,185,-5883,-6056,0,0,-1
144.13,178.76,-135.74,188,-5876,-6040,0,-1,0
144.13,178.76,-135.74,183,-5870,-6023,0,0,0
144.14,178.76,-135.73,174,-5874,-6029,0,0,0
144.14,178.76,-135.73,179,-5886,-6035,0,0,-1
144.14,178.76,-135.72,172,-5894,-6036,0,0,0
144.14,178.76,-135.72,181,-5897,-6037,-1,-1,0
144.14,178.76,-135.72,178,-5883,-6026,-1,0,-1
144.14,178.76,-135.72,187,-5882,-6031,-1,-1,0
144.13,178.76,-135.73,178,-5862,-6034,0,0,-1
144.14,178.76,-135.72,189,-5877,-6043,0,-1,0
144.14,178.76,-135.71,172,-5873,-6049,0,0,-1
144.14,178.77,-135.70,170,-5882,-6051,0,0,0
144.15,178.76,-135.70,172,-5888,-6039,0,0,-1
144.15,178.76,-135.70,178,-5889,-6034,-1,0,0
144.15,178.76,-135.69,183,-5885,-6025,0,0,-1
144.15,178.76,-135.69,181,-5887,-6020,-1,0,0
144.15,178.75,-135.70,181,-5895,-6022,-1,0,-1
144.14,178.75,-135.70,173,-5894,-6036,-1,0,-1
144.14,178.75,-135.71,180,-5894,-6039,-1,0,0
144.14,178.75,-135.71,174,-5877,-6035,0,0,-1
144.14,178.75,-135.71,185,-5876,-6025,-1,-1,0
144.14,178.75,-135.71,180,-5867,-6026,-1,0,-1
144.14,178.74,-135.72,184,-5885,-6040,-1,0,-1
144.14,178.74,-135.72,180,-5879,-6043,0,0,-1
144.14,178.74,-135.72,182,-5882,-6039,-1,0,0
144.14,178.74,-135.72,180,-5874,-6044,0,0,-1
144.14,178.74,-135.72,174,-5879,-6040,-1,0,0
144.14,178.74,-135.72,180,-5872,-6030,0,0,-1
144.14,178.74,-135.73,179,-5875,-6043,-1,0,-1
144.14,178.73,-135.72,188,-5881,-6049,0,0,-1
144.14,178.73,-135.72,182,-5879,-6042,-1,0,0
144.14,178.73,-135.72,190,-5882,-6045,0,0,0
144.14,178.73,-135.72,184,-5870,-6039,0,0,-1
144.14,178.72,-135.70,199,-5865,-6032,0,-1,0
144.16,178.73,-135.69,192,-5864,-6031,0,0,-1
144.16,178.73,-135.67,195,-5875,-6017,0,-1,0
144.17,178.73,-135.66,183,-5891,-6030,0,-1,0
144.17,178.74,-135.65,185,-5907,-6031,0,-1,0
144.17,178.74,-135.65,186,-5904,-6035,-1,0,-1
144.16,178.73,-135.67,187,-5901,-6041,-1,0,-1
144.16,178.73,-135.67,182,-5908,-6036,-1,-1,-1
144.16,178.74,-135.67,179,-5893,-6019,-1,-1,0
144.16,178.73,-135.68,185,-5880,-6017,-1,-1,-1
144.15,178.74,-135.70,183,-5875,-6039,-1,-1,0
144.14,178.74,-135.71,183,-5881,-6052,-1,-1,0
144.14,178.74,-135.71,183,-5887,-6058,0,0,0
144.15,178.74,-135.70,183,-5881,-6043,0,-1,0
144.15,178.74,-135.69,180,-5872,-6028,0,0,0
144.15,178.74,-135.67,180,-5887,-6030,0,-1,0
144.15,178.74,-135.67,182,-5902,-6039,-1,-1,0
144.15,178.74,-135.67,188,-5912,-6044,-1,-1,-1
144.15,178.75,-135.68,187,-5906,-6045,-1,0,-1
144.15,178.74,-135.70,184,-5888,-6035,-1,0,0
144.15,178.75,-135.70,177,-5873,-6022,0,-1,0
144.15,178.75,-135.69,191,-5874,-6022,0,-1,0
144.15,178.75,-135.69,188,-5883,-6030,0,-1,-1
144.15,178.75,-135.69,193,-5906,-6052,0,0,-1
144.15,178.75,-135.68,194,-5908,-6040,0,0,-1
144.15,178.75,-135.69,191,-5888,-6025,-1,-1,0
144.15,178.76,-135.69,175,-5878,-6019,-1,-1,0
144.14,178.76,-135.70,176,-5871,-6025,-1,-1,0
144.13,178.76,-135.71,175,-5872,-6041,-1,-1,-1
144.13,178.76,-135.71,177,-5879,-6057,0,-1,0
144.14,178.76,-135.70,176,-5891,-6059,0,0,0
144.15,178.76,-135.69,173,-5895,-6034,0,0,0
144.15,178.76,-135.70,176,-5884,-6020,-1,0,-1
144.13,178.76,-135.71,182,-5884,-6024,-1,-1,0
144.13,178.76,-135.71,183,-5883,-6036,-1,-1,-1
144.13,178.76,-135.72,181,-5877,-6041,0,-1,0
144.13,178.76,-135.71,180,-5877,-6046,0,-1,0
144.13,178.77,-135.72,175,-5879,-6041,0,-1,0
144.13,178.77,-135.71,183,-5884,-6037,0,0,-1
144.13,178.77,-135.71,194,-5884,-6040,-1,0,-1
144.14,178.76,-135.71,196,-5889,-6038,0,0,-1
144.14,178.76,-135.71,185,-5874,-6042,-1,-1,0
144.14,178.76,-135.71,186,-5879,-6035,-1,-1,-1
144.13,178.76,-135.71,187,-5863,-6028,0,-1,0
144.13,178.77,-135.72,183,-5884,-6052,0,-1,0
144.13,178.77,-135.71,178,-5885,-6032,0,-1,0
144.13,178.78,-135.71,176,-5896,-6039,-1,0,-1
144.13,178.78,-135.71,172,-5880,-6019,-1,0,-1
144.13,178.78,-135.72,179,-5884,-6041,-1,-1,-1
144.13,178.78,-135.72,176,-5869,-6035,0,0,-1
144.13,178.78,-135.71,184,-5878,-6041,0,-1,0
144.13,178.79,-135.71,175,-5869,-6034,0,-1,0
144.13,178.79,-135.71,192,-5890,-6047,0,-1,0
144.13,178.79,-135.71,184,-5880,-6041,-1,-1,0
144.13,178.79,-135.72,180,-5890,-6036,-1,-1,0
144.13,178.79,-135.73,171,-5881,-6051,0,0,-1
144.13,178.80,-135.72,182,-5884,-6045,-1,-1,0
144.13,178.80,-135.72,168,-5875,-6033,0,0,-1
144.13,178.80,-135.71,170,-5890,-6047,0,-1,0
144.13,178.81,-135.70,165,-5879,-6024,0,-1,-1
144.14,178.81,-135.70,171,-5889,-6035,-1,-1,0
144.13,178.81,-135.70,174,-5896,-6038,0,-1,-1
144.13,178.81,-135.70,186,-5892,-6041,-1,-1,0
144.13,178.81,-135.70,178,-5879,-6028,-1,-1,0
144.13,178.82,-135.71,181,-5871,-6039,-1,-1,0
144.12,178.82,-135.71,178,-5871,-6028,-1,-1,0
144.12,178.83,-135.71,176,-5879,-6038,0,-1,0
144.12,178.83,-135.70,171,-5888,-6031,0,0,-1
144.12,178.83,-135.70,176,-5881,-6029,-1,-1,0
144.12,178.83,-135.71,174,-5892,-6044,-1,-1,-1
144.12,178.82,-135.72,175,-5890,-6050,-1,-1,0
144.12,178.83,-135.73,172,-5885,-6051,-1,-1,0
144.12,178.83,-135.73,171,-5880,-6038,-1,-1,0
144.12,178.83,-135.73,160,-5877,-6039,0,-1,0
144.12,178.83,-135.72,163,-5870,-6037,0,0,0
144.12,178.83,-135.72,178,-5874,-6045,0,0,-1
144.12,178.83,-135.72,176,-5888,-6061,-1,-1,-1
144.12,178.83,-135.72,173,-5892,-6072,0,-1,-1
144.12,178.84,-135.73,171,-5878,-6053,0,-1,0
144.12,178.84,-135.72,165,-5874,-6044,0,-1,0
144.12,178.85,-135.72,165,-5863,-6033,-1,0,0
144.12,178.85,-135.73,161,-5873,-6040,0,0,-1
144.13,178.84,-135.72,166,-5879,-6049,0,0,-1
144.13,178.83,-135.70,172,-5879,-6054,0,0,-1
144.15,178.83,-135.68,170,-5895,-6048,0,-1,0
144.15,178.84,-135.65,163,-5882,-6017,0,0,-1
144.16,178.84,-135.64,166,-5892,-6011,-1,-1,0
144.16,178.84,-135.64,167,-5887,-6014,0,0,-1
144.16,178.84,-135.64,162,-5886,-6014,-1,0,0
144.15,178.84,-135.65,185,-5887,-6020,-1,0,-1
144.16,178.83,-135.65,168,-5894,-6048,0,0,-1
144.17,178.83,-135.63,180,-5881,-6013,0,-1,0
144.16,178.83,-135.63,157,-5863,-6007,0,0,-1
144.17,178.83,-135.62,179,-5880,-6001,-1,-1,0
144.16,178.84,-135.63,159,-5870,-6024,-1,0,-1
144.16,178.83,-135.63,178,-5911,-6071,-1,0,-1
144.17,178.82,-135.63,172,-5901,-6068,0,0,-1
144.18,178.83,-135.60,164,-5898,-6026,0,0,0
144.18,178.81,-135.60,167,-5882,-6016,0,0,-1
144.19,178.81,-135.59,174,-5896,-6008,-1,0,0
144.19,178.81,-135.60,179,-5899,-6015,-1,0,-1
144.18,178.81,-135.60,165,-5911,-6032,-1,0,0
144.18,178.81,-135.60,168,-5917,-6037,0,0,0
144.18,178.81,-135.60,165,-5888,-6009,-1,0,-1
144.19,178.79,-135.61,183,-5896,-6028,-1,0,-1
144.18,178.79,-135.61,164,-5885,-6013,-1,0,-1
144.18,178.80,-135.61,173,-5905,-6030,-1,-1,0
144.18,178.79,-135.61,174,-5874,-6015,-1,0,-1
144.16,178.80,-135.63,183,-5887,-6025,-1,0,-1
144.16,178.79,-135.64,184,-5894,-6050,-1,0,-1
144.17,178.78,-135.64,178,-5887,-6050,0,0,-1
144.18,178.78,-135.62,188,-5879,-6031,0,-1,0
144.18,178.78,-135.62,179,-5868,-6008,0,0,-1
144.18,178.78,-135.62,181,-5887,-6021,-1,-1,-1
144.17,178.77,-135.63,168,-5893,-6039,0,0,-1
144.18,178.77,-135.62,175,-5899,-6031,0,-1,0
144.18,178.77,-135.62,177,-5879,-6018,0,0,-1
144.18,178.77,-135.62,178,-5896,-6031,-1,0,0
144.17,178.76,-135.62,179,-5888,-6036,-1,0,-1
144.18,178.76,-135.62,186,-5884,-6018,0,-1,0
144.19,178.76,-135.62,192,-5883,-6010,0,-1,0
144.18,178.76,-135.62,178,-5880,-6016,-1,0,-1
144.17,178.76,-135.63,186,-5893,-6048,0,-1,0
144.18,178.76,-135.61,181,-5906,-6033,0,0,-1
144.19,178.76,-135.61,189,-5905,-6031,-1,-1,0
144.18,178.76,-135.62,179,-5893,-6013,-1,-1,0
144.17,178.76,-135.64,189,-5893,-6027,-1,0,0
144.17,178.76,-135.65,184,-5887,-6048,-1,0,-1
144.17,178.76,-135.66,186,-5884,-6053,0,-1,0
144.17,178.76,-135.66,178,-5882,-6049,0,-1,-1
144.17,178.76,-135.65,176,-5892,-6039,0,0,-1
144.17,178.75,-135.65,178,-5895,-6037,0,0,-1
144.17,178.75,-135.65,182,-5889,-6033,-1,0,-1
144.17,178.75,-135.65,185,-5880,-6032,0,-1,0
144.17,178.76,-135.65,181,-5878,-6023,-1,0,0
144.17,178.75,-135.65,188,-5880,-6019,-1,0,-1
144.17,178.75,-135.66,187,-5885,-6032,-1,0,-1
144.17,178.75,-135.66,188,-5890,-6043,0,-1,0
144.17,178.75,-135.65,183,-5895,-6028,-1,0,-1
144.17,178.75,-135.65,187,-5896,-6037,-1,-1,0
144.17,178.75,-135.66,184,-5893,-6039,-1,0,-1
144.16,178.74,-135.67,187,-5884,-6038,-1,-1,0
144.16,178.74,-135.67,184,-5892,-6040,0,0,-1
144.16,178.74,-135.67,188,-5887,-6031,0,0,0
144.17,178.75,-135.66,185,-5879,-6031,0,-1,0
144.17,178.75,-135.66,185,-5885,-6037,-1,-1,0
144.16,178.75,-135.67,179,-5893,-6046,-1,-1,0
144.16,178.75,-135.67,176,-5895,-6036,-1,-1,-1
144.16,178.75,-135.68,171,-5888,-6032,-1,-1,0
144.15,178.76,-135.69,177,-5886,-6035,-1,0,-1
144.15,178.76,-135.69,177,-5880,-6037,-1,-1,0
144.14,178.76,-135.70,183,-5881,-6040,-1,0,0
144.14,178.76,-135.70,176,-5870,-6032,-1,0,-1
144.14,178.76,-135.71,186,-5872,-6034,-1,-1,0
144.14,178.76,-135.71,179,-5872,-6034,0,0,-1
144.14,178.76,-135.71,185,-5890,-6038,0,-1,0
144.14,178.76,-135.71,174,-5876,-6041,0,0,-1
144.15,178.76,-135.70,187,-5887,-6037,0,-1,0
144.14,178.76,-135.71,183,-5878,-6030,-1,-1,-1
144.14,178.77,-135.71,179,-5891,-6047,-1,-1,0
144.14,178.77,-135.71,173,-5880,-6030,0,0,-1
144.14,178.77,-135.70,180,-5884,-6020,0,-1,0
144.14,178.77,-135.70,178,-5880,-6022,-1,-1,-1
144.14,178.78,-135.71,180,-5888,-6037,-1,-1,0
144.14,178.78,-135.72,183,-5877,-6047,-1,-1,0
144.13,178.78,-135.72,183,-5871,-6038,0,-1,0
144.13,178.79,-135.72,179,-5875,-6037,0,-1,0
144.13,178.79,-135.72,177,-5879,-6038,-1,-1,0
144.13,178.79,-135.72,171,-5887,-6051,-1,0,-1
144.13,178.79,-135.73,172,-5878,-6035,-1,0,0
144.13,178.79,-135.73,184,-5887,-6052,-1,-1,0
144.12,178.79,-135.74,171,-5866,-6035,-1,-1,0
144.12,178.80,-135.74,175,-5882,-6045,0,-1,0
144.12,178.80,-135.73,169,-5867,-6026,0,0,-1
144.13,178.79,-135.73,185,-5888,-6046,0,-1,0
144.12,178.80,-135.73,174,-5871,-6032,-1,0,-1
144.13,178.79,-135.73,188,-5893,-6050,0,-1,0
144.13,178.79,-135.73,179,-5872,-6027,-1,0,-1
144.13,178.79,-135.73,180,-5885,-6040,0,-1,0
144.12,178.80,-135.73,167,-5868,-6032,-1,-1,0
144.12,178.80,-135.74,169,-5889,-6050,-1,-1,0
144.12,178.81,-135.74,164,-5879,-6038,-1,-1,-1
144.12,178.81,-135.75,184,-5887,-6057,0,-1,0
144.12,178.81,-135.75,176,-5871,-6043,-1,0,-1
144.12,178.80,-135.74,187,-5880,-6051,0,-1,0
144.12,178.80,-135.74,176,-5869,-6032,0,-1,0
144.12,178.81,-135.73,175,-5882,-6037,0,-1,0
144.13,178.81,-135.72,169,-5886,-6036,0,0,-1
144.13,178.81,-135.72,180,-5891,-6042,0,-1,0
144.13,178.81,-135.71,178,-5893,-6047,0,0,-1
144.14,178.81,-135.71,175,-5876,-6038,0,0,-1
144.14,178.81,-135.71,177,-5886,-6055,0,0,-1
144.15,178.80,-135.69,178,-5881,-6039,0,-1,0
144.16,178.81,-135.68,165,-5880,-6041,0,0,0
144.16,178.81,-135.65,173,-5893,-6028,0,0,0
144.17,178.81,-135.65,167,-5889,-6043,0,0,-1
144.18,178.80,-135.64,177,-5895,-6021,0,-1,0
144.18,178.81,-135.63,177,-5882,-6026,0,0,-1
144.18,178.81,-135.63,173,-5889,-6021,-1,0,0
144.18,178.80,-135.63,178,-5886,-6019,0,0,-1
144.18,178.80,-135.62,176,-5893,-6033,0,0,-1
144.20,178.79,-135.60,183,-5902,-6020,0,0,0
144.20,178.79,-135.60,171,-5876,-6013,-1,0,-1
144.20,178.79,-135.60,190,-5901,-6023,0,-1,0
144.20,178.79,-135.60,181,-5891,-6031,-1,0,-1
144.20,178.79,-135.60,181,-5908,-6034,-1,0,-1
144.20,178.78,-135.61,175,-5881,-6039,0,0,-1
144.20,178.77,-135.61,185,-5889,-6033,-1,-1,0
144.20,178.76,-135.61,184,-5889,-6021,0,0,-1
144.19,178.76,-135.62,175,-5892,-6032,-1,0,0
144.19,178.76,-135.62,194,-5897,-6047,0,0,-1
144.19,178.76,-135.63,177,-5891,-6029,-1,0,-1
144.20,178.75,-135.64,194,-5887,-6059,0,0,-1
144.20,178.74,-135.64,179,-5868,-6023,-1,0,-1
144.20,178.74,-135.63,176,-5887,-6022,0,-1,0
144.20,178.73,-135.64,177,-5890,-6021,0,0,-1
144.20,178.74,-135.63,180,-5914,-6039,-1,0,0
144.20,178.73,-135.63,179,-5902,-6054,0,0,-1
144.21,178.72,-135.63,189,-5905,-6017,-1,0,-1
144.20,178.72,-135.63,194,-5883,-6019,-1,-1,-1
144.19,178.72,-135.65,184,-5882,-6008,-1,0,0
144.19,178.72,-135.65,190,-5890,-6021,0,0,0
144.19,178.72,-135.65,183,-5884,-6020,-1,0,-1
144.19,178.72,-135.66,192,-5898,-6041,0,-1,0
144.19,178.72,-135.65,187,-5884,-5997,-1,0,0
144.18,178.72,-135.66,194,-5895,-6020,-1,-1,0
144.18,178.72,-135.67,185,-5875,-6025,-1,0,-1
144.18,178.72,-135.67,197,-5889,-6039,0,-1,0
144.18,178.72,-135.68,183,-5874,-6026,-1,0,-1
144.18,178.72,-135.68,202,-5897,-6037,-1,-1,0
144.18,178.72,-135.68,184,-5881,-6037,-1,0,-1
144.18,178.72,-135.68,180,-5885,-6032,-1,-1,0
144.17,178.71,-135.69,184,-5880,-6043,0,0,-1
144.17,178.72,-135.69,182,-5881,-6032,-1,0,-1
144.17,178.71,-135.69,197,-5872,-6043,0,0,0
144.18,178.71,-135.68,189,-5878,-6022,0,0,0
144.18,178.71,-135.68,204,-5884,-6039,0,-1,0
144.17,178.72,-135.69,181,-5873,-6022,-1,0,-1
144.17,178.70,-135.70,199,-5892,-6058,0,-1,0
144.17,178.70,-135.70,192,-5876,-6035,-1,0,-1
144.17,178.70,-135.70,199,-5876,-6043,0,-1,0
144.17,178.71,-135.71,188,-5874,-6050,-1,0,-1
144.17,178.71,-135.71,185,-5878,-6036,-1,0,-1
144.16,178.70,-135.72,191,-5882,-6055,-1,0,0
144.16,178.70,-135.72,189,-5887,-6047,-1,0,0
144.16,178.70,-135.72,194,-5879,-6056,0,0,-1
144.17,178.69,-135.72,194,-5874,-6036,0,0,0
144.17,178.70,-135.71,201,-5884,-6042,0,0,0
144.17,178.70,-135.72,186,-5879,-6036,-1,0,-1
144.16,178.69,-135.73,194,-5888,-6043,-1,-1,-1
144.16,178.70,-135.73,179,-5888,-6049,-1,0,-1
144.16,178.70,-135.73,189,-5889,-6059,0,-1,0
144.16,178.70,-135.73,185,-5869,-6039,-1,0,-1
144.16,178.69,-135.73,193,-5875,-6030,0,-1,0
144.16,178.69,-135.74,184,-5871,-6038,-1,0,-1
144.16,178.69,-135.74,185,-5880,-6043,0,0,0
144.16,178.69,-135.74,185,-5884,-6056,-1,-1,-1
144.16,178.70,-135.74,178,-5878,-6033,0,-1,0
144.16,178.70,-135.74,188,-5876,-6040,-1,0,-1
144.16,178.70,-135.74,189,-5875,-6033,0,-1,0
144.16,178.70,-135.74,192,-5867,-6033,-1,-1,0
144.15,178.71,-135.74,187,-5876,-6030,0,-1,0
144.15,178.71,-135.74,191,-5885,-6048,-1,0,-1
144.15,178.71,-135.74,186,-5882,-6040,0,0,0
144.15,178.71,-135.75,185,-5880,-6041,-1,0,0
144.15,178.71,-135.75,182,-5868,-6038,-1,-1,0
144.15,178.71,-135.75,191,-5871,-6041,-1,-1,0
144.14,178.72,-135.75,189,-5879,-6043,0,-1,0
144.15,178.72,-135.75,193,-5877,-6041,0,-1,0
144.14,178.72,-135.75,183,-5872,-6042,-1,-1,0
144.14,178.72,-135.76,188,-5872,-6059,-1,-1,-1
144.14,178.72,-135.76,183,-5867,-6046,-1,-1,0
144.13,178.72,-135.77,189,-5873,-6054,-1,-1,0
144.13,178.73,-135.77,189,-5870,-6049,-1,-1,0
144.13,178.73,-135.77,197,-5876,-6061,-1,-1,0
144.13,178.73,-135.77,190,-5875,-6051,-1,0,-1
144.13,178.72,-135.78,194,-5876,-6060,0,-1,0
144.12,178.73,-135.78,189,-5867,-6042,-1,-1,0
144.12,178.73,-135.78,190,-5872,-6059,-1,-1,-1
144.12,178.73,-135.78,187,-5874,-6062,0,0,-1
144.12,178.73,-135.77,185,-5886,-6054,0,0,-1
144.13,178.73,-135.77,181,-5875,-6041,0,-1,0
144.14,178.73,-135.76,192,-5884,-6041,0,-1,-1
144.13,178.74,-135.77,182,-5878,-6042,-1,-1,-1
144.12,178.73,-135.78,187,-5884,-6049,-1,0,-1
144.12,178.73,-135.78,183,-5880,-6045,0,-1,0
144.12,178.74,-135.77,180,-5877,-6045,0,0,0
144.12,178.74,-135.77,177,-5875,-6043,0,-1,0
144.12,178.74,-135.77,184,-5886,-6045,0,0,-1
144.13,178.74,-135.77,187,-5884,-6038,-1,-1,0
144.12,178.74,-135.77,186,-5893,-6039,-1,-1,0
144.12,178.74,-135.77,189,-5879,-6037,-1,-1,0
144.12,178.75,-135.78,184,-5885,-6051,-1,0,-1
144.12,178.75,-135.78,187,-5878,-6031,0,-1,0
144.12,178.75,-135.78,189,-5871,-6033,0,0,0
144.12,178.75,-135.78,186,-5869,-6029,0,-1,0
144.11,178.76,-135.78,180,-5884,-6042,-1,-1,-1
144.11,178.76,-135.78,180,-5881,-6039,-1,-1,0
144.11,178.76,-135.78,184,-5874,-6044,-1,0,-1
144.11,178.76,-135.79,185,-5869,-6050,-1,-1,0
144.11,178.76,-135.79,186,-5872,-6054,0,-1,0
144.11,178.77,-135.79,183,-5874,-6048,0,-1,0
144.11,178.77,-135.79,175,-5864,-6039,0,-1,-1
144.11,178.77,-135.79,170,-5872,-6044,0,0,-1
144.11,178.77,-135.79,172,-5879,-6051,-1,0,-1
144.11,178.77,-135.79,179,-5867,-6043,-1,-1,0
144.11,178.77,-135.79,178,-5871,-6051,0,0,-1
144.11,178.77,-135.77,180,-5873,-6056,0,0,0
144.13,178.76,-135.76,186,-5878,-6050,0,-1,-1
144.13,178.76,-135.76,189,-5873,-6041,0,-1,0
144.13,178.76,-135.76,180,-5864,-6022,-1,0,-1
144.13,178.76,-135.76,184,-5875,-6051,0,-1,0
144.13,178.76,-135.76,181,-5867,-6039,-1,0,-1
144.11,178.77,-135.77,184,-5870,-6071,-1,0,-1
144.13,178.76,-135.76,176,-5872,-6076,0,0,-1
144.13,178.76,-135.75,182,-5886,-6067,0,0,0
144.13,178.76,-135.74,175,-5882,-6073,0,0,-1
144.15,178.75,-135.72,182,-5880,-6044,0,0,-1
144.15,178.75,-135.71,182,-5878,-6037,0,0,-1
144.15,178.75,-135.70,187,-5885,-6043,0,-1,0
144.15,178.75,-135.70,182,-5877,-6042,0,-1,0
144.16,178.75,-135.69,189,-5898,-6061,0,0,0
144.16,178.76,-135.69,175,-5886,-6048,0,0,-1
144.16,178.76,-135.69,175,-5886,-6047,-1,-1,0
144.16,178.75,-135.69,184,-5877,-6039,0,0,-1
144.16,178.76,-135.69,179,-5880,-6028,0,0,0
144.17,178.74,-135.68,191,-5884,-6034,0,0,-1
144.17,178.75,-135.67,176,-5884,-6023,-1,0,-1
144.17,178.75,-135.67,182,-5891,-6037,0,-1,0
144.17,178.75,-135.67,170,-5875,-6026,0,0,-1
144.17,178.75,-135.66,182,-5899,-6039,0,-1,0
144.17,178.74,-135.66,180,-5892,-6027,0,0,-1
144.17,178.74,-135.66,184,-5888,-6030,-1,0,0
144.17,178.74,-135.66,191,-5887,-6031,0,0,-1
144.17,178.74,-135.66,188,-5877,-6027,0,-1,0
144.18,178.74,-135.65,187,-5880,-6024,0,0,-1
144.19,178.74,-135.64,179,-5883,-6017,-1,0,-1
144.18,178.74,-135.65,185,-5900,-6052,0,-1,0
144.18,178.74,-135.64,175,-5890,-6035,0,0,-1
144.19,178.74,-135.64,182,-5893,-6029,-1,-1,0
144.18,178.74,-135.65,184,-5876,-6018,-1,0,0
144.18,178.74,-135.64,177,-5882,-6023,-1,-1,0
144.18,178.74,-135.65,185,-5888,-6035,0,0,-1
144.18,178.74,-135.63,183,-5883,-6019,0,0,0
144.18,178.74,-135.64,191,-5899,-6046,0,0,-1
144.18,178.73,-135.63,188,-5894,-6033,-1,0,-1
144.18,178.73,-135.64,203,-5897,-6045,0,-1,0
144.18,178.73,-135.64,182,-5873,-6021,-1,0,-1
144.18,178.72,-135.64,193,-5870,-6016,-1,-1,0
144.18,178.73,-135.65,177,-5875,-6030,-1,0,-1
144.18,178.73,-135.64,188,-5894,-6030,0,0,0
144.18,178.73,-135.65,180,-5895,-6037,-1,0,-1
144.18,178.72,-135.64,196,-5900,-6043,0,-1,0
144.18,178.72,-135.64,188,-5880,-6021,-1,0,-1
144.18,178.72,-135.64,197,-5887,-6023,-1,-1,0
144.18,178.72,-135.65,194,-5879,-6038,-1,-1,-1
144.18,178.72,-135.65,191,-5897,-6045,-1,0,-1
144.18,178.72,-135.64,193,-5884,-6034,0,0,-1
144.18,178.72,-135.64,191,-5883,-6034,0,0,0
144.18,178.72,-135.64,182,-5884,-6032,0,0,-1
144.18,178.72,-135.64,175,-5889,-6035,0,0,-1
144.18,178.71,-135.64,193,-5885,-6034,-1,0,-1
144.18,178.72,-135.64,181,-5888,-6024,-1,0,-1
144.18,178.71,-135.65,196,-5879,-6038,0,-1,0
144.18,178.70,-135.64,193,-5876,-6028,0,0,-1
144.18,178.70,-135.64,202,-5885,-6023,0,-1,0
144.18,178.70,-135.64,191,-5879,-6034,-1,0,-1
144.18,178.70,-135.63,196,-5885,-6033,0,0,-1
144.18,178.70,-135.63,191,-5887,-6033,-1,0,-1
144.18,178.70,-135.63,191,-5882,-6034,-1,0,0
144.18,178.69,-135.64,194,-5884,-6039,-1,0,-1
144.20,178.68,-135.63,208,-5894,-6032,0,0,0
144.20,178.68,-135.63,198,-5878,-6018,0,0,0
144.20,178.69,-135.62,198,-5895,-6017,0,-1,0
144.19,178.70,-135.62,192,-5896,-6019,-1,-1,0
144.18,178.70,-135.63,191,-5888,-6028,-1,-1,0
144.18,178.70,-135.66,190,-5878,-6046,-1,0,-1
144.16,178.71,-135.67,190,-5883,-6044,-1,0,0
144.16,178.70,-135.68,196,-5888,-6047,-1,0,-1
144.16,178.69,-135.68,201,-5880,-6045,0,0,0
144.16,178.70,-135.67,190,-5876,-6024,-1,-1,-1
144.16,178.70,-135.68,184,-5877,-6025,-1,-1,0
144.15,178.71,-135.69,183,-5893,-6030,-1,-1,0
144.15,178.71,-135.70,183,-5886,-6037,-1,-1,0
144.14,178.71,-135.71,180,-5878,-6046,0,0,-1
144.15,178.71,-135.70,179,-5870,-6041,0,0,0
144.15,178.71,-135.70,190,-5871,-6047,0,-1,0
144.15,178.71,-135.70,185,-5871,-6035,0,-1,0
144.15,178.72,-135.70,192,-5884,-6042,-1,-1,0
144.14,178.71,-135.71,182,-5882,-6050,-1,-1,0
144.14,178.72,-135.71,189,-5887,-6048,-1,0,-1
144.14,178.72,-135.72,191,-5874,-6037,0,-1,-1
144.14,178.72,-135.72,196,-5871,-6036,-1,-1,0
144.14,178.72,-135.72,196,-5875,-6040,0,-1,0
144.14,178.72,-135.71,184,-5886,-6044,0,-1,0
144.14,178.73,-135.71,181,-5887,-6037,0,-1,0
144.14,178.73,-135.71,183,-5881,-6033,-1,-1,0
144.13,178.73,-135.72,187,-5877,-6030,-1,0,-1
144.13,178.73,-135.72,194,-5889,-6045,0,-1,0
144.13,178.73,-135.71,193,-5882,-6038,0,0,-1
144.15,178.72,-135.70,190,-5893,-6034,0,-1,0
144.14,178.74,-135.70,177,-5878,-6026,-1,-1,0
144.14,178.74,-135.70,183,-5886,-6042,0,-1,0
144.14,178.74,-135.70,182,-5887,-6047,-1,0,-1
144.14,178.74,-135.70,195,-5885,-6060,0,-1,0
144.14,178.74,-135.69,192,-5869,-6032,0,0,-1
144.15,178.74,-135.68,191,-5870,-6029,0,-1,0
144.15,178.73,-135.68,184,-5876,-6030,0,0,-1
144.15,178.74,-135.68,188,-5878,-6029,0,-1,0
144.15,178.74,-135.68,183,-5878,-6022,0,0,-1
144.15,178.74,-135.68,189,-5883,-6022,0,-1,0
144.15,178.74,-135.68,182,-5881,-6029,-1,-1,0
144.15,178.74,-135.68,182,-5882,-6039,0,0,0
144.15,178.74,-135.68,183,-5881,-6043,0,0,-1
144.16,178.74,-135.67,191,-5875,-6034,0,-1,0
144.16,178.74,-135.67,190,-5884,-6021,-1,0,-1
144.15,178.74,-135.68,184,-5888,-6024,-1,0,-1
144.15,178.74,-135.68,192,-5898,-6051,0,0,-1
144.15,178.75,-135.68,185,-5874,-6021,-1,-1,0
144.14,178.75,-135.69,186,-5879,-6030,0,-1,0
144.14,178.76,-135.68,182,-5876,-6031,0,-1,0
144.14,178.76,-135.68,185,-5892,-6039,-1,0,-1
144.14,178.76,-135.68,174,-5879,-6026,-1,-1,0
144.14,178.76,-135.69,186,-5885,-6046,-1,-1,0
144.13,178.77,-135.69,190,-5881,-6025,-1,-1,0
144.13,178.77,-135.71,191,-5882,-6018,-1,-1,0
144.12,178.77,-135.72,179,-5878,-6036,-1,-1,0
144.11,178.78,-135.73,178,-5885,-6055,-1,0,-1
144.12,178.78,-135.73,176,-5878,-6040,0,0,0
144.12,178.77,-135.72,179,-5874,-6026,0,0,0
144.12,178.78,-135.72,179,-5869,-6023,-1,-1,0
144.12,178.78,-135.72,181,-5879,-6033,-1,-1,0
144.11,178.79,-135.73,181,-5872,-6027,-1,-1,0
144.11,178.79,-135.74,178,-5877,-6046,-1,-1,0
144.10,178.80,-135.75,181,-5878,-6037,-1,-1,0
144.09,178.80,-135.75,179,-5869,-6034,-1,-1,0
144.09,178.80,-135.76,182,-5861,-6033,-1,-1,0
144.09,178.80,-135.76,179,-5863,-6049,0,0,-1
144.10,178.80,-135.75,175,-5881,-6058,0,0,0
144.10,178.80,-135.75,174,-5882,-6045,0,0,-1
144.10,178.80,-135.75,167,-5882,-6040,0,-1,0
144.10,178.80,-135.75,178,-5888,-6032,-1,0,-1
144.11,178.80,-135.74,180,-5869,-6025,0,-1,0
144.11,178.80,-135.74,187,-5866,-6040,0,0,-1
144.11,178.80,-135.73,175,-5856,-6030,0,-1,0
144.11,178.80,-135.72,178,-5881,-6034,0,-1,0
144.11,178.80,-135.72,175,-5884,-6042,-1,0,0
144.12,178.80,-135.71,182,-5899,-6052,0,0,-1
144.13,178.80,-135.71,184,-5878,-6043,0,0,-1
144.13,178.80,-135.69,185,-5870,-6028,0,-1,-1
144.14,178.80,-135.68,173,-5872,-6022,0,0,-1
144.15,178.80,-135.66,178,-5876,-6024,0,-1,-1
144.15,178.80,-135.65,179,-5887,-6030,0,0,-1
144.16,178.79,-135.64,181,-5890,-6026,0,0,-1
144.17,178.79,-135.62,172,-5890,-6021,0,0,0
144.17,178.79,-135.62,175,-5904,-6034,-1,0,0
144.17,178.79,-135.63,165,-5883,-6021,-1,0,-1
144.17,178.79,-135.63,180,-5890,-6012,-1,-1,0
144.17,178.79,-135.63,164,-5868,-6019,0,0,-1
144.17,178.79,-135.63,172,-5890,-6035,0,0,0
144.17,178.78,-135.62,189,-5893,-6033,0,-1,-1
144.17,178.78,-135.61,174,-5907,-6046,0,0,-1
144.18,178.77,-135.61,181,-5908,-6034,0,0,-1
144.18,178.76,-135.62,175,-5884,-6026,-1,0,-1
144.18,178.76,-135.62,189,-5888,-6024,-1,-1,0
144.17,178.77,-135.63,175,-5871,-6021,-1,0,-1
144.17,178.76,-135.62,192,-5891,-6034,-1,0,0
144.18,178.76,-135.62,188,-5880,-6034,0,0,-1
144.18,178.76,-135.62,183,-5896,-6039,0,0,0
144.18,178.75,-135.61,190,-5889,-6035,0,0,-1
144.18,178.74,-135.61,178,-5892,-6023,-1,0,0
144.18,178.74,-135.61,192,-5893,-6026,-1,-1,0
144.18,178.75,-135.62,172,-5874,-6028,-1,0,-1
144.17,178.74,-135.63,189,-5887,-6036,-1,-1,0
144.17,178.74,-135.63,180,-5876,-6036,0,0,-1
144.18,178.74,-135.62,199,-5891,-6037,0,-1,0
144.18,178.74,-135.62,188,-5883,-6012,0,0,-1
144.18,178.74,-135.62,177,-5896,-6033,-1,-1,0
144.19,178.73,-135.62,189,-5887,-6010,-1,0,-1
144.17,178.73,-135.63,189,-5890,-6021,-1,0,0
144.18,178.72,-135.63,202,-5906,-6032,0,-1,0
144.18,178.72,-135.63,185,-5882,-6021,0,0,-1
144.19,178.72,-135.63,206,-5899,-6037,0,-1,0
144.19,178.72,-135.62,188,-5889,-6028,0,0,-1
144.19,178.72,-135.61,190,-5899,-6019,0,-1,0
144.19,178.71,-135.62,192,-5883,-6017,-1,0,-1
144.19,178.71,-135.62,197,-5901,-6045,-1,0,-1
144.19,178.70,-135.63,199,-5898,-6026,-1,0,-1
144.18,178.71,-135.63,181,-5879,-6034,0,0,0
144.19,178.70,-135.63,196,-5879,-6031,0,0,0
144.20,178.70,-135.62,188,-5874,-6023,0,0,-1
144.20,178.70,-135.61,201,-5899,-6015,-1,-1,0
144.18,178.71,-135.63,176,-5898,-6037,-1,0,-1
144.18,178.70,-135.63,187,-5903,-6042,-1,0,-1
144.18,178.70,-135.64,188,-5870,-6018,-1,0,-1
144.18,178.70,-135.65,182,-5870,-6024,-1,-1,0
144.18,178.70,-135.65,177,-5863,-6033,0,-1,0
144.18,178.70,-135.64,183,-5878,-6028,0,0,0
144.18,178.70,-135.64,188,-5885,-6032,-1,-1,-1
144.18,178.70,-135.64,183,-5897,-6019,-1,0,-1
144.18,178.69,-135.65,191,-5891,-6030,-1,0,-1
144.18,178.70,-135.66,185,-5883,-6030,-1,0,-1
144.17,178.69,-135.66,206,-5887,-6056,0,0,0
144.17,178.69,-135.66,189,-5879,-6034,-1,0,-1
144.18,178.69,-135.66,197,-5882,-6032,0,-1,0
144.18,178.69,-135.66,186,-5877,-6022,-1,0,-1
144.18,178.69,-135.66,195,-5893,-6036,-1,-1,0
144.17,178.69,-135.66,183,-5897,-6051,-1,0,-1
144.17,178.69,-135.67,185,-5886,-6034,-1,0,0
144.17,178.68,-135.68,192,-5880,-6042,-1,0,-1
144.16,178.69,-135.68,187,-5876,-6032,-1,-1,0
144.16,178.70,-135.68,190,-5869,-6032,0,-1,0
144.16,178.69,-135.68,192,-5873,-6023,-1,0,-1
144.16,178.69,-135.69,195,-5886,-6053,-1,0,-1
144.16,178.69,-135.69,190,-5885,-6052,-1,0,0
144.16,178.69,-135.69,191,-5877,-6052,0,-1,0
144.15,178.70,-135.69,188,-5872,-6023,-1,-1,0
144.15,178.70,-135.69,188,-5879,-6021,-1,-1,0
144.15,178.70,-135.70,186,-5875,-6044,-1,-1,0
144.14,178.70,-135.71,192,-5879,-6070,0,-1,0
144.15,178.70,-135.70,188,-5881,-6048,0,0,0
144.14,178.71,-135.71,190,-5890,-6049,-1,-1,0
144.14,178.71,-135.71,185,-5879,-6031,-1,0,-1
144.14,178.71,-135.71,194,-5884,-6051,0,-1,0
144.14,178.71,-135.71,188,-5874,-6024,0,-1,0
144.14,178.71,-135.71,192,-5883,-6037,0,-1,0
144.14,178.71,-135.71,191,-5887,-6040,-1,-1,0
144.13,178.72,-135.72,197,-5900,-6054,-1,-1,0
144.13,178.72,-135.72,186,-5894,-6048,-1,-1,0
144.13,178.72,-135.72,194,-5884,-6045,-1,-1,0
144.13,178.72,-135.73,192,-5868,-6040,-1,-1,0
144.13,178.73,-135.73,185,-5877,-6052,0,-1,-1
144.13,178.73,-135.74,182,-5879,-6045,-1,0,-1
144.13,178.73,-135.74,190,-5889,-6062,-1,0,0
144.13,178.72,-135.74,181,-5870,-6055,-1,-1,0
144.13,178.73,-135.75,187,-5872,-6037,0,-1,0
144.13,178.73,-135.74,183,-5875,-6026,-1,0,-1
144.13,178.73,-135.74,194,-5889,-6033,0,0,-1
144.13,178.73,-135.74,180,-5867,-6027,-1,-1,0
144.13,178.73,-135.74,188,-5866,-6037,0,-1,0
144.12,178.74,-135.74,185,-5869,-6047,0,-1,0
144.14,178.74,-135.71,191,-5875,-6053,1,0,0
144.14,178.74,-135.68,185,-5882,-6048,0,0,-1
144.16,178.74,-135.66,192,-5913,-6042,0,0,-1
144.17,178.73,-135.66,188,-5929,-6026,-1,0,-1
144.15,178.73,-135.68,187,-5924,-6009,-2,-1,0
144.13,178.73,-135.72,187,-5892,-6007,-2,-1,0
144.11,178.74,-135.77,187,-5875,-6031,-2,-1,0
144.09,178.74,-135.79,184,-5844,-6051,-1,-1,0
144.09,178.74,-135.80,193,-5845,-6067,0,-1,0
144.10,178.75,-135.79,179,-5835,-6047,0,0,0
144.09,178.76,-135.77,183,-5869,-6056,0,-1,0
144.09,178.76,-135.77,179,-5879,-6047,0,0,-1
144.09,178.75,-135.76,191,-5896,-6060,0,0,-1
144.10,178.75,-135.76,186,-5856,-6040,0,0,-1
144.11,178.74,-135.74,192,-5858,-6042,0,-1,0
144.12,178.75,-135.72,187,-5846,-6017,0,-1,0
144.13,178.76,-135.71,203,-5879,-6040,0,-1,0
144.13,178.76,-135.69,184,-5886,-6029,0,-1,0
144.13,178.76,-135.69,188,-5913,-6064,0,-1,0
144.13,178.77,-135.68,178,-5901,-6045,0,0,-1
144.15,178.77,-135.67,181,-5889,-6047,0,-1,0
144.15,178.76,-135.66,189,-5865,-6021,0,-1,-1
144.15,178.77,-135.66,193,-5865,-6028,0,-1,0
144.14,178.79,-135.65,183,-5857,-6045,0,-1,0
144.15,178.79,-135.64,185,-5888,-6060,0,-1,0
144.16,178.80,-135.61,164,-5920,-6065,0,-1,0
144.16,178.81,-135.58,155,-5920,-6026,0,-1,0
144.16,178.81,-135.59,166,-5919,-6032,-1,0,-1
144.16,178.80,-135.60,176,-5893,-6017,-1,0,-1
144.14,178.80,-135.62,176,-5889,-6046,0,-1,-1
144.15,178.80,-135.61,189,-5856,-6032,0,-1,0
144.16,178.81,-135.59,183,-5838,-6048,1,-1,0
144.18,178.81,-135.55,181,-5866,-6036,1,-1,0
144.21,178.81,-135.51,167,-5901,-6039,1,0,-1
144.21,178.81,-135.50,166,-5937,-6036,0,0,-1
144.22,178.79,-135.50,174,-5941,-6026,-1,0,-1
144.22,178.79,-135.51,170,-5899,-6008,-1,0,-1
144.21,178.79,-135.53,192,-5876,-5996,-1,-1,0
144.20,178.79,-135.54,171,-5841,-5997,0,-1,-1
144.20,178.79,-135.53,175,-5876,-6017,0,-1,0
144.21,178.79,-135.52,168,-5891,-6026,0,0,-1
144.22,178.78,-135.51,181,-5928,-6056,-1,0,-1
144.23,178.77,-135.50,177,-5938,-6059,0,0,-1
144.24,178.76,-135.50,169,-5941,-6029,-1,0,-1
144.24,178.75,-135.51,191,-5932,-6008,-1,0,-1
144.23,178.74,-135.53,182,-5906,-5991,-2,0,-1
144.22,178.73,-135.55,179,-5885,-5978,-1,-1,0
144.20,178.74,-135.59,173,-5857,-5973,-2,-1,0
144.18,178.74,-135.60,180,-5899,-6019,-1,-1,0
144.17,178.75,-135.61,163,-5924,-6048,-1,0,0
144.16,178.75,-135.63,167,-5945,-6067,-1,0,0
144.14,178.74,-135.65,157,-5896,-6035,-1,0,-1
144.13,178.74,-135.69,176,-5867,-6029,-1,0,0
144.11,178.73,-135.71,188,-5854,-6011,-1,0,-1
144.10,178.73,-135.72,193,-5865,-6042,-1,0,0
144.10,178.72,-135.72,189,-5868,-6031,0,0,0
144.09,178.73,-135.72,187,-5894,-6043,-1,0,0
144.09,178.71,-135.73,196,-5912,-6065,-1,0,-1
144.07,178.71,-135.77,196,-5894,-6058,-2,0,-1
144.06,178.69,-135.81,200,-5881,-6067,-2,0,-1
144.05,178.67,-135.84,199,-5873,-6055,-1,0,-1
144.05,178.66,-135.84,194,-5880,-6039,-1,0,-1
144.04,178.65,-135.87,181,-5863,-6032,-2,0,-1
144.03,178.64,-135.90,204,-5854,-6032,-2,0,-1
144.01,178.62,-135.97,209,-5844,-6066,-2,0,-1
144.00,178.59,-136.01,230,-5848,-6109,-2,0,-1
143.99,178.57,-136.04,222,-5834,-6100,-1,0,-1
144.00,178.55,-136.05,235,-5841,-6078,-1,0,-1
144.00,178.54,-136.06,218,-5825,-6060,-1,0,-1
144.00,178.52,-136.07,223,-5825,-6053,-1,0,-1
144.00,178.50,-136.11,219,-5835,-6056,-2,0,-1
143.99,178.48,-136.14,218,-5838,-6070,-2,0,-1
143.98,178.46,-136.20,249,-5820,-6086,-2,0,-1
143.96,178.44,-136.26,253,-5796,-6087,-3,0,-1
143.96,178.40,-136.33,259,-5784,-6116,-2,0,-1
143.95,178.40,-136.36,216,-5829,-6102,-1,0,-1
143.95,178.40,-136.35,220,-5809,-6063,0,-1,0
143.95,178.40,-136.35,220,-5767,-6043,-1,-1,-1
143.93,178.42,-136.38,203,-5740,-6069,-2,-1,0
143.90,178.44,-136.42,194,-5785,-6137,-2,-1,0
143.89,178.44,-136.44,224,-5829,-6187,-1,-1,0
143.88,178.44,-136.44,217,-5843,-6164,0,0,-1
143.89,178.42,-136.42,230,-5834,-6132,0,0,-1
143.89,178.41,-136.43,231,-5770,-6097,-1,0,-1
143.90,178.40,-136.42,258,-5751,-6062,0,-1,0
143.89,178.40,-136.43,272,-5754,-6076,-1,-1,0
143.86,178.44,-136.44,243,-5772,-6118,-1,-1,1
143.84,178.48,-136.45,242,-5799,-6149,0,-1,1
143.83,178.50,-136.43,239,-5752,-6174,1,0,0
143.83,178.48,-136.42,330,-5597,-6212,1,0,-1
143.87,178.41,-136.41,437,-5456,-6253,3,0,-2
143.97,178.36,-136.24,426,-5523,-6245,10,0,0
144.16,178.40,-135.80,312,-5606,-6165,18,-1,1
144.39,178.50,-135.21,210,-5744,-6033,21,-2,2
144.62,178.59,-134.64,164,-5966,-5938,18,-2,1
144.83,178.64,-134.18,91,-6280,-5920,12,-1,0
144.97,178.66,-133.89,39,-6521,-5927,6,0,-1
145.04,178.62,-133.78,65,-6516,-5848,-1,1,-2
145.04,178.57,-133.85,127,-6331,-5685,-6,1,-2
144.96,178.53,-134.02,165,-6078,-5542,-8,0,-1
144.86,178.51,-134.25,203,-5886,-5527,-9,-1,-1
144.76,178.53,-134.46,229,-5804,-5632,-7,-2,0
144.66,178.57,-134.64,234,-5837,-5842,-5,-2,0
144.61,178.61,-134.74,223,-5986,-6059,-2,-2,0
144.59,178.66,-134.77,170,-6086,-6187,0,-2,0
144.62,178.68,-134.71,161,-6118,-6189,2,-1,0
144.66,178.69,-134.63,146,-6024,-6054,2,0,-1
144.70,178.66,-134.55,183,-5932,-5928,2,0,-1
144.73,178.64,-134.49,217,-5867,-5840,2,0,-1
144.78,178.64,-134.41,254,-5879,-5817,3,-1,0
144.82,178.68,-134.29,259,-5903,-5838,4,-2,1
144.86,178.75,-134.17,253,-5972,-5889,3,-3,1
144.89,178.82,-134.08,243,-6039,-5965,3,-3,1
144.91,178.89,-133.99,194,-6088,-6004,3,-2,1
144.95,178.94,-133.90,169,-6104,-5983,3,-2,0
145.00,178.98,-133.79,134,-6120,-5908,4,-2,0
145.07,179.03,-133.65,133,-6147,-5819,4,-2,0
145.13,179.07,-133.50,120,-6105,-5754,4,-2,0
145.19,179.13,-133.37,136,-6094,-5691,3,-2,1
145.21,179.19,-133.30,134,-6095,-5686,1,-2,0
145.22,179.24,-133.27,148,-6135,-5744,0,-3,1
145.22,179.28,-133.26,133,-6154,-5784,0,-2,0
145.22,179.34,-133.26,130,-6144,-5817,0,-2,0
145.22,179.38,-133.25,128,-6131,-5811,0,-2,0
145.23,179.44,-133.23,97,-6138,-5801,0,-3,1
145.23,179.51,-133.21,92,-6117,-5794,0,-3,0
145.23,179.57,-133.19,93,-6056,-5787,1,-3,1
145.24,179.63,-133.15,108,-6062,-5797,1,-3,1
145.25,179.71,-133.09,81,-6060,-5799,3,-3,1
145.29,179.79,-133.00,71,-6133,-5828,3,-3,1
145.32,179.87,-132.89,14,-6197,-5830,4,-3,1
145.36,179.96,-132.77,-23,-6277,-5832,4,-3,1
145.40,-179.96,-132.65,-57,-6306,-5785,3,-3,1
145.43,-179.90,-132.56,-68,-6306,-5721,2,-2,0
145.45,-179.86,-132.51,-64,-6262,-5677,0,-1,0
145.44,-179.86,-132.53,-62,-6216,-5609,-1,0,-1
145.44,-179.87,-132.56,-38,-6189,-5595,-2,0,-1
145.41,-179.88,-132.64,15,-6085,-5469,-10,-1,-1
145.34,-179.88,-132.77,8,-6158,-5707,-9,-1,0
145.30,-179.87,-132.84,-33,-6192,-5801,-1,0,-1
145.30,-179.89,-132.86,-32,-6224,-5864,0,0,-1
145.33,-179.89,-132.82,-28,-6233,-5876,3,-1,0
145.40,-179.87,-132.70,-49,-6225,-5847,5,-1,0
145.50,-179.86,-132.52,-28,-6200,-5813,7,-1,-1
145.60,-179.85,-132.34,6,-6174,-5770,6,-1,-1
145.72,-179.85,-132.14,-13,-6170,-5718,8,-1,-1
145.88,-179.80,-131.85,-7,-6263,-5740,11,-3,0
146.06,-179.70,-131.50,-24,-6343,-5690,12,-5,1
146.23,-179.56,-131.15,-72,-6398,-5685,12,-5,1
146.40,-179.43,-130.83,-83,-6435,-5665,11,-5,1
146.57,-179.34,-130.52,-108,-6379,-5625,11,-4,0
146.76,-179.28,-130.20,-87,-6359,-5502,11,-4,0
146.94,-179.19,-129.87,-116,-6376,-5397,11,-4,0
147.11,-179.11,-129.57,-112,-6389,-5300,9,-4,0
147.26,-179.04,-129.32,-90,-6427,-5338,8,-4,0
147.40,-179.00,-129.11,-120,-6409,-5275,7,-2,-1
147.51,-178.98,-128.94,-100,-6448,-5284,5,-2,-1
147.61,-178.96,-128.79,-124,-6521,-5359,6,-3,-1
147.74,-178.90,-128.60,-123,-6592,-5430,7,-5,0
147.89,-178.80,-128.35,-142,-6615,-5398,10,-5,0
148.05,-178.67,-128.06,-160,-6617,-5297,11,-6,2
148.19,-178.57,-127.83,-200,-6528,-5052,2,-3,-3
148.31,-178.57,-127.70,-225,-6560,-5069,4,-2,-2
148.40,-178.59,-127.62,-215,-6637,-5101,1,-1,-2
148.47,-178.61,-127.59,-223,-6677,-5055,-1,-1,-2
148.46,-178.64,-127.67,-166,-6644,-4977,-6,0,-1
148.44,-178.67,-127.77,-150,-6630,-5136,-3,-1,-2
148.44,-178.68,-127.82,-140,-6646,-5233,-2,-1,-1
148.48,-178.64,-127.76,-153,-6688,-5232,3,-3,0
148.51,-178.61,-127.70,-193,-6656,-5149,1,-2,0
148.53,-178.61,-127.70,-198,-6624,-5067,-2,0,-1
148.50,-178.67,-127.81,-230,-6572,-5100,-5,2,-3
148.47,-178.74,-127.92,-182,-6648,-5231,-3,1,-2
148.46,-178.77,-127.97,-217,-6689,-5281,-1,0,-2
148.50,-178.82,-127.97,-205,-6696,-5320,1,1,-2
148.62,-178.92,-127.86,-87,-6500,-4911,12,5,-4
148.68,-178.90,-127.78,-149,-6695,-5355,9,-3,-1
148.80,-178.84,-127.61,-156,-6728,-5275,5,-4,0
148.87,-178.76,-127.49,-169,-6655,-5129,2,-4,0
148.90,-178.70,-127.46,-160,-6623,-5065,-1,-3,1
148.89,-178.66,-127.47,-176,-6584,-5016,-2,-2,0
148.86,-178.62,-127.52,-174,-6652,-5111,-2,-2,1
148.84,-178.56,-127.54,-189,-6728,-5247,1,-3,0
148.87,-178.50,-127.47,-220,-6756,-5319,3,-3,1
148.95,-178.43,-127.32,-234,-6764,-5337,7,-4,0
149.07,-178.33,-127.12,-241,-6737,-5263,7,-5,1
149.19,-178.24,-126.89,-242,-6711,-5090,6,-4,1
149.26,-178.18,-126.76,-249,-6713,-5021,3,-3,0
149.32,-178.14,-126.66,-258,-6744,-4989,3,-2,0
149.37,-178.12,-126.58,-266,-6720,-4940,2,-1,-1
149.39,-178.12,-126.57,-257,-6716,-4958,-1,-1,-1
149.42,-178.13,-126.55,-261,-6724,-4971,-1,-1,-1
149.43,-178.14,-126.54,-253,-6694,-4953,-1,0,-1
149.41,-178.18,-126.59,-241,-6699,-4962,-3,1,-1
149.38,-178.20,-126.67,-225,-6733,-4976,-3,0,-1
149.31,-178.21,-126.76,-228,-6717,-4959,-5,0,0
149.21,-178.21,-126.91,-228,-6689,-4950,-6,0,0
149.08,-178.23,-127.10,-270,-6641,-4928,-7,2,-1
148.98,-178.27,-127.29,-286,-6708,-5119,-4,1,-1
148.92,-178.31,-127.41,-262,-6697,-5173,-4,1,-1
148.87,-178.32,-127.49,-232,-6710,-5247,-2,0,0
148.82,-178.30,-127.55,-230,-6721,-5266,-2,-1,0
148.77,-178.27,-127.60,-242,-6720,-5242,-1,-1,1
148.73,-178.23,-127.63,-280,-6714,-5216,-1,-1,0
148.72,-178.21,-127.63,-299,-6684,-5237,1,-1,0
148.76,-178.21,-127.56,-281,-6709,-5218,2,-1,-1
148.82,-178.22,-127.49,-283,-6716,-5191,2,-1,-1
148.86,-178.22,-127.42,-252,-6726,-5165,1,-1,-1
148.90,-178.22,-127.37,-265,-6701,-5148,1,-1,-1
148.92,-178.22,-127.33,-253,-6696,-5108,1,-1,0
148.94,-178.21,-127.31,-255,-6652,-5042,0,-1,-1
148.94,-178.22,-127.32,-243,-6601,-4995,-2,0,-1
148.91,-178.26,-127.38,-248,-6575,-4948,-4,1,-1
148.83,-178.35,-127.54,-238,-6582,-4967,-6,3,-2
148.71,-178.46,-127.77,-237,-6623,-5012,-10,4,-3
148.59,-178.58,-128.01,-227,-6666,-5142,-8,4,-2
148.48,-178.67,-128.22,-180,-6679,-5241,-7,3,-1
148.37,-178.72,-128.40,-166,-6622,-5311,-6,1,0
148.28,-178.74,-128.52,-146,-6532,-5307,-4,1,0
148.20,-178.75,-128.61,-198,-6494,-5265,-3,1,0
148.15,-178.79,-128.68,-202,-6605,-5299,-3,1,-1
148.13,-178.82,-128.74,-211,-6717,-5403,-2,0,-1
148.13,-178.83,-128.75,-200,-6743,-5402,-1,0,0
148.10,-178.82,-128.79,-242,-6712,-5400,-1,-1,0
148.06,-178.80,-128.81,-238,-6620,-5316,-2,0,0
148.06,-178.84,-128.85,-193,-6541,-5238,-3,2,-2
148.03,-178.94,-128.93,-185,-6491,-5199,-4,3,-3
148.01,-179.09,-129.06,-159,-6530,-5240,-6,5,-4
147.96,-179.23,-129.20,-137,-6545,-5272,-5,4,-3
147.92,-179.35,-129.33,-68,-6578,-5309,-5,3,-2
147.87,-179.43,-129.45,-57,-6526,-5322,-5,2,-1
147.80,-179.48,-129.56,-35,-6497,-5370,-4,1,0
147.73,-179.49,-129.68,-66,-6451,-5431,-4,1,0
147.65,-179.51,-129.77,-66,-6412,-5411,-4,1,0
147.58,-179.55,-129.88,-63,-6395,-5385,-4,2,-1
147.51,-179.61,-130.00,-63,-6381,-5385,-5,2,-1
147.44,-179.68,-130.13,-58,-6428,-5413,-5,3,-1
147.37,-179.76,-130.26,-40,-6484,-5450,-5,2,-1
147.30,-179.83,-130.38,-55,-6492,-5404,-4,4,-2
147.22,-179.93,-130.55,-38,-6442,-5408,-7,2,-1
147.12,180.00,-130.74,-1,-6415,-5476,-8,2,-1
147.02,179.95,-130.90,22,-6360,-5425,-7,2,0
146.90,179.91,-131.10,0,-6373,-5475,-7,2,-1
146.80,179.89,-131.24,-29,-6405,-5584,-4,1,0
146.74,179.88,-131.32,-27,-6413,-5606,-3,0,0
146.69,179.88,-131.39,-8,-6376,-5628,-3,0,0
146.63,179.87,-131.47,2,-6349,-5631,-3,0,0
146.60,179.85,-131.53,12,-6322,-5592,-2,0,-1
146.57,179.84,-131.57,7,-6276,-5581,-2,0,0
146.54,179.83,-131.59,16,-6285,-5571,-1,0,0
146.53,179.81,-131.62,19,-6259,-5584,-1,0,-1
146.52,179.77,-131.65,31,-6279,-5612,-2,1,-1
146.51,179.75,-131.68,30,-6302,-5636,-1,0,-1
146.49,179.74,-131.70,30,-6312,-5623,-2,0,-1
146.48,179.73,-131.72,37,-6304,-5608,-1,0,0
146.47,179.70,-131.78,36,-6258,-5544,-5,1,-3
146.51,179.74,-131.65,44,-6354,-5801,12,-3,2
146.67,179.83,-131.30,15,-6382,-5799,14,-3,1
146.96,179.95,-130.74,18,-6416,-5837,24,-6,2
147.30,-179.94,-130.11,-25,-6325,-5438,17,-4,-1
147.46,-179.93,-129.86,-4,-6350,-5287,5,-1,-1
147.51,-179.97,-129.82,6,-6363,-5235,-2,1,-2
147.49,179.98,-129.88,13,-6394,-5305,-3,1,-1
147.47,179.94,-129.95,32,-6436,-5346,-3,1,-1
147.41,179.91,-130.04,30,-6444,-5401,-4,0,-1
147.36,179.90,-130.12,58,-6451,-5418,-4,0,0
147.29,179.89,-130.25,44,-6427,-5437,-5,0,0
147.23,179.88,-130.34,26,-6465,-5554,-1,-1,0
147.29,179.95,-130.19,-14,-6522,-5674,10,-3,1
147.47,-179.96,-129.84,-21,-6500,-5513,11,-4,1
147.59,-179.90,-129.62,-27,-6475,-5333,4,-2,0
147.59,-179.89,-129.61,-26,-6431,-5233,-3,0,-1
147.52,-179.93,-129.74,-1,-6424,-5264,-6,1,-1
147.49,-179.94,-129.82,-14,-6443,-5354,-1,-1,-1
147.48,-179.95,-129.86,1,-6449,-5338,-3,0,-1
147.41,-179.98,-129.99,8,-6444,-5366,-7,1,-1
147.29,180.00,-130.17,13,-6482,-5482,-6,1,0
147.19,-180.00,-130.28,16,-6392,-5302,-4,1,1
146.82,179.85,-130.99,-12,-6405,-5712,-21,4,-3
146.75,179.83,-131.12,20,-6359,-5636,-3,0,-1
146.72,179.81,-131.16,13,-6342,-5581,-2,0,-1
146.71,179.81,-131.18,18,-6358,-5576,-1,0,0
146.70,179.80,-131.19,18,-6383,-5586,-1,0,-1
146.70,179.80,-131.18,19,-6403,-5573,0,0,-1
146.70,179.79,-131.19,19,-6400,-5564,-1,0,-1
146.68,179.80,-131.22,15,-6404,-5544,-2,0,-1
146.65,179.80,-131.27,18,-6376,-5520,-3,0,0
146.62,179.80,-131.34,16,-6341,-5501,-3,0,-1
146.58,179.80,-131.42,26,-6305,-5511,-4,0,0
146.52,179.79,-131.53,30,-6289,-5548,-4,0,-1
146.48,179.77,-131.63,34,-6314,-5598,-4,0,-1
146.45,179.75,-131.70,42,-6338,-5638,-2,0,-1
146.43,179.74,-131.76,51,-6309,-5628,-3,0,-1
146.41,179.73,-131.82,68,-6307,-5632,-3,-1,-1
146.38,179.74,-131.89,34,-6276,-5624,-3,-1,-1
146.35,179.75,-131.94,37,-6273,-5614,-2,-1,0
146.31,179.76,-131.99,31,-6224,-5602,-2,-1,0
146.27,179.76,-132.07,41,-6220,-5638,-3,-1,0
146.24,179.76,-132.14,51,-6224,-5711,-3,0,-1
146.23,179.75,-132.18,50,-6243,-5754,-1,-1,0
146.23,179.77,-132.15,32,-6255,-5742,1,-1,0
146.26,179.79,-132.07,36,-6274,-5739,3,-1,1
146.29,179.82,-131.97,44,-6268,-5669,3,-1,0
146.32,179.84,-131.89,35,-6265,-5610,1,-1,0
146.33,179.87,-131.86,27,-6237,-5595,0,-1,0
146.34,179.88,-131.84,58,-6207,-5617,1,-1,0
146.35,179.90,-131.80,54,-6239,-5630,2,-1,0
146.38,179.95,-131.70,23,-6301,-5646,4,-2,1
146.42,-180.00,-131.60,-10,-6342,-5635,2,-2,1
146.43,-179.95,-131.54,-15,-6338,-5606,0,-1,0
146.42,-179.93,-131.54,-3,-6279,-5611,-1,-1,0
146.42,-179.95,-131.56,23,-6256,-5625,0,0,-1
146.45,-179.94,-131.52,4,-6258,-5624,3,-1,0
146.49,-179.91,-131.41,-20,-6242,-5589,4,-2,0
146.55,-179.85,-131.27,-9,-6245,-5529,4,-2,1
146.58,-179.80,-131.16,-5,-6265,-5526,3,-2,1
146.62,-179.76,-131.06,-3,-6350,-5552,3,-2,0
146.65,-179.71,-130.97,-39,-6362,-5567,3,-2,0
146.68,-179.67,-130.87,-38,-6339,-5547,3,-2,1
146.71,-179.61,-130.77,-62,-6368,-5525,4,-2,0
146.77,-179.58,-130.65,-65,-6441,-5536,3,-2,0
146.82,-179.54,-130.53,-88,-6502,-5517,4,-2,0
146.86,-179.50,-130.43,-118,-6514,-5457,2,-1,0
146.88,-179.46,-130.36,-107,-6461,-5415,1,-1,0
146.87,-179.44,-130.35,-85,-6352,-5395,0,-1,0
146.86,-179.44,-130.36,-48,-6316,-5420,-1,0,0
146.85,-179.45,-130.38,-68,-6344,-5486,0,0,-1
146.87,-179.46,-130.35,-71,-6444,-5525,1,-1,0
146.89,-179.44,-130.31,-96,-6482,-5550,1,-1,0
146.89,-179.42,-130.26,-103,-6515,-5522,1,-1,0
146.91,-179.40,-130.22,-110,-6485,-5482,1,-1,0
146.91,-179.38,-130.20,-118,-6433,-5420,0,0,0
146.91,-179.40,-130.20,-118,-6414,-5395,-1,0,-1
146.91,-179.44,-130.23,-88,-6354,-5432,-2,1,-1
146.91,-179.50,-130.28,-10,-6309,-5472,-1,1,-1
146.91,-179.53,-130.29,-15,-6307,-5506,1,0,-1
146.96,-179.53,-130.21,1,-6334,-5520,3,-1,0
147.01,-179.51,-130.10,-27,-6363,-5524,4,-1,0
147.09,-179.48,-129.94,-10,-6440,-5505,6,-2,1
147.17,-179.43,-129.77,-37,-6470,-5483,5,-3,1
147.23,-179.37,-129.62,-51,-6490,-5453,4,-2,1
147.30,-179.32,-129.49,-91,-6593,-5426,4,-2,0
147.37,-179.25,-129.35,-160,-6650,-5356,4,-2,0
147.42,-179.21,-129.23,-178,-6634,-5286,2,-2,0
147.45,-179.17,-129.17,-181,-6583,-5229,0,-1,-1
147.47,-179.19,-129.17,-162,-6516,-5187,-2,0,-1
147.46,-179.23,-129.22,-143,-6476,-5234,-2,1,-2
147.45,-179.29,-129.28,-105,-6450,-5290,-2,1,-1
147.45,-179.31,-129.31,-103,-6486,-5326,-1,0,-1
147.45,-179.32,-129.33,-126,-6560,-5374,-1,0,-1
147.46,-179.32,-129.32,-118,-6626,-5409,-1,-1,-1
147.45,-179.32,-129.34,-116,-6623,-5411,-1,0,-1
147.45,-179.34,-129.37,-112,-6616,-5398,-1,0,-1
147.46,-179.37,-129.37,-127,-6585,-5345,0,0,-1
147.48,-179.40,-129.35,-138,-6569,-5248,-1,1,-1
147.46,-179.44,-129.42,-124,-6497,-5220,-5,1,-2
147.38,-179.52,-129.62,-73,-6460,-5298,-8,2,-2
147.28,-179.61,-129.85,-31,-6408,-5404,-8,2,-2
147.22,-179.66,-129.99,-1,-6386,-5467,-3,0,-1
147.22,-179.66,-129.98,-28,-6402,-5452,1,-1,0
147.23,-179.64,-129.96,-26,-6394,-5432,0,-1,0
147.22,-179.63,-129.97,-54,-6480,-5488,0,-1,0
147.22,-179.61,-129.95,-65,-6537,-5530,1,-1,0
147.25,-179.61,-129.90,-84,-6520,-5473,2,-1,0
147.27,-179.61,-129.87,-77,-6430,-5384,-1,0,-1
147.27,-179.65,-129.89,-63,-6414,-5372,-1,1,-2
147.28,-179.67,-129.89,-65,-6412,-5357,0,0,-1
147.28,-179.68,-129.89,-48,-6393,-5365,-1,0,0
147.25,-179.68,-129.95,-31,-6429,-5442,-2,-1,0
147.23,-179.68,-129.98,-29,-6472,-5500,-1,-1,0
147.25,-179.66,-129.93,-41,-6496,-5497,2,-1,0
147.30,-179.65,-129.82,-50,-6485,-5423,3,-1,0
147.34,-179.65,-129.76,-45,-6466,-5402,1,0,-1
147.35,-179.67,-129.76,-20,-6487,-5410,0,0,-1
147.36,-179.67,-129.73,-46,-6503,-5381,1,-1,0
147.37,-179.64,-129.69,-71,-6500,-5332,0,-1,0
147.34,-179.64,-129.74,-73,-6514,-5381,-3,0,-1
147.30,-179.65,-129.82,-76,-6539,-5423,-3,0,-1
147.28,-179.66,-129.87,-91,-6510,-5402,-2,0,-1
147.26,-179.67,-129.91,-86,-6472,-5397,-2,0,-1
147.23,-179.70,-129.97,-66,-6459,-5408,-3,0,-1
147.21,-179.72,-130.02,-50,-6431,-5435,-2,0,-1
147.20,-179.74,-130.06,-24,-6413,-5439,-1,0,-1
147.21,-179.75,-130.06,-23,-6421,-5432,0,-1,0
147.20,-179.74,-130.05,-44,-6444,-5416,-1,-1,0
147.20,-179.74,-130.07,-42,-6488,-5433,-2,0,-1
147.18,-179.75,-130.12,-33,-6472,-5459,-2,-1,0
147.14,-179.74,-130.16,-42,-6426,-5436,-2,-1,0
147.12,-179.74,-130.20,-50,-6390,-5448,-1,0,0
147.11,-179.74,-130.22,-58,-6373,-5437,-1,0,-1
147.12,-179.76,-130.21,-46,-6391,-5438,0,0,-1
147.14,-179.77,-130.20,-41,-6425,-5474,0,0,-1
147.15,-179.79,-130.17,-12,-6503,-5498,1,0,0
147.16,-179.79,-130.14,-28,-6527,-5471,0,0,-1
147.17,-179.79,-130.13,-50,-6501,-5423,-1,0,-1
147.15,-179.81,-130.16,-40,-6480,-5425,-2,0,-1
147.13,-179.83,-130.22,-41,-6417,-5384,-3,0,-1
147.08,-179.85,-130.31,-38,-6394,-5396,-4,0,-1
147.04,-179.89,-130.41,-50,-6419,-5442,-4,1,-1
147.01,-179.92,-130.47,-65,-6482,-5485,-2,1,-1
146.98,-179.95,-130.52,-56,-6473,-5484,-2,1,-1
146.98,-180.00,-130.57,-18,-6436,-5472,-3,1,-2
146.96,179.94,-130.66,12,-6396,-5460,-4,1,-2
146.94,179.87,-130.78,52,-6365,-5456,-5,1,-2
146.90,179.80,-130.92,53,-6391,-5488,-5,1,-2
146.85,179.78,-131.04,21,-6382,-5479,-5,0,-1
146.81,179.77,-131.15,29,-6386,-5542,-4,0,-1
146.77,179.73,-131.26,43,-6331,-5548,-4,0,-2
146.74,179.70,-131.37,44,-6306,-5529,-4,0,-2
146.72,179.65,-131.48,49,-6333,-5522,-5,0,-2
146.70,179.62,-131.60,60,-6332,-5555,-6,0,-2
146.64,179.56,-131.76,64,-6311,-5612,-7,1,-2
146.58,179.51,-131.95,75,-6323,-5670,-7,0,-2
146.53,179.49,-132.09,74,-6320,-5640,-5,-1,-1
146.50,179.48,-132.18,59,-6247,-5632,-5,0,-1
146.46,179.43,-132.33,65,-6238,-5654,-5,1,-2
146.41,179.37,-132.49,59,-6229,-5685,-7,1,-3
146.37,179.30,-132.65,90,-6229,-5698,-6,1,-2
146.33,179.23,-132.79,97,-6230,-5746,-5,1,-2
146.32,179.17,-132.89,115,-6224,-5747,-4,0,-2
146.30,179.13,-132.98,112,-6178,-5718,-4,0,-2
146.28,179.07,-133.11,125,-6182,-5746,-6,1,-2
146.24,179.02,-133.24,131,-6158,-5746,-5,0,-2
146.19,178.99,-133.41,136,-6161,-5777,-6,0,-2
146.15,178.95,-133.56,128,-6169,-5808,-6,0,-2
146.09,178.93,-133.70,134,-6130,-5780,-6,0,-1
146.02,178.90,-133.87,143,-6090,-5801,-6,0,-1
145.95,178.87,-134.02,163,-6090,-5820,-4,0,-1
145.88,178.83,-134.14,131,-6126,-5900,-4,1,-2
145.83,178.80,-134.26,143,-6073,-5882,-6,1,-1
145.75,178.78,-134.41,140,-6008,-5863,-6,1,-1
145.68,178.76,-134.54,177,-5992,-5850,-7,0,0
145.62,178.73,-134.65,198,-5998,-5904,-3,0,0
145.55,178.75,-134.73,203,-6014,-5919,-4,-1,1
145.48,178.77,-134.81,218,-6014,-5995,-2,-1,1
145.44,178.82,-134.85,232,-5938,-5861,-3,-3,2
145.35,178.87,-134.95,184,-6007,-5969,-5,-1,0
145.28,178.85,-135.08,175,-6068,-6104,-5,1,-1
145.23,178.84,-135.19,234,-5914,-5916,-5,-2,0
145.14,178.86,-135.40,229,-5783,-5869,-9,-1,-1
145.04,178.81,-135.66,232,-5798,-6026,-8,0,-2
145.00,178.77,-135.83,222,-5781,-6137,-4,0,-2
144.99,178.75,-135.86,240,-5742,-6148,1,-1,-1
145.04,178.77,-135.77,231,-5745,-6111,4,-2,0
145.09,178.81,-135.62,181,-5855,-6141,6,-1,0
145.20,178.84,-135.39,177,-5963,-6071,8,-1,0
145.27,178.83,-135.22,109,-5936,-5992,4,0,-1
145.32,178.78,-135.16,118,-6038,-6105,1,2,-2
145.36,178.71,-135.09,113,-6090,-6133,3,2,-2
145.43,178.66,-134.99,163,-5988,-5935,2,1,-2
145.48,178.59,-134.93,188,-5877,-5800,1,1,-2
145.52,178.54,-134.90,190,-5807,-5729,0,1,-2
145.54,178.50,-134.87,194,-5830,-5788,0,1,-1
145.58,178.48,-134.82,193,-5912,-5906,2,0,-1
145.63,178.49,-134.71,221,-6035,-6003,4,-1,0
145.69,178.51,-134.54,237,-6035,-5974,6,-1,1
145.76,178.55,-134.35,248,-5984,-5888,6,-1,1
145.84,178.60,-134.13,252,-5977,-5788,8,-2,1
145.93,178.68,-133.88,230,-5997,-5708,7,-3,2
145.99,178.78,-133.67,214,-6024,-5711,6,-3,2
146.03,178.88,-133.51,206,-6090,-5728,5,-3,2
146.05,178.98,-133.38,200,-6162,-5798,3,-3,2
146.05,179.06,-133.32,186,-6216,-5864,1,-3,1
146.03,179.12,-133.32,182,-6228,-5914,-1,-2,0
146.00,179.15,-133.38,166,-6216,-5922,-3,-2,0
145.97,179.15,-133.48,163,-6190,-5927,-4,-1,-1
145.94,179.16,-133.58,137,-6142,-5895,-4,-1,-1
145.91,179.17,-133.67,123,-6073,-5864,-3,-1,-1
145.88,179.18,-133.75,102,-6015,-5849,-2,-1,-1
145.86,179.20,-133.79,91,-6013,-5818,-2,-1,-1
145.83,179.24,-133.86,53,-6024,-5834,-3,-1,0
145.80,179.27,-133.90,16,-6075,-5864,-2,-1,0
145.76,179.29,-133.93,19,-6051,-5853,-1,0,0
145.76,179.29,-133.96,40,-6048,-5844,-2,0,-1
145.75,179.26,-133.98,53,-6058,-5878,-1,0,-1
145.75,179.25,-133.97,72,-6081,-5887,0,0,-1
145.78,179.24,-133.94,91,-6045,-5870,1,0,-1
145.79,179.24,-133.88,95,-6021,-5842,1,0,0
145.81,179.24,-133.82,101,-6014,-5826,2,0,0
145.83,179.25,-133.76,115,-6063,-5849,2,0,0
145.87,179.24,-133.69,153,-6102,-5869,2,0,0
145.90,179.23,-133.62,151,-6130,-5880,2,0,0
145.93,179.22,-133.55,154,-6174,-5863,2,0,-1
145.96,179.21,-133.48,147,-6213,-5833,2,0,0
145.99,179.23,-133.40,142,-6186,-5752,2,-1,0
146.01,179.24,-133.34,157,-6119,-5665,0,-1,0
145.99,179.23,-133.38,185,-6095,-5657,-3,-1,-1
145.95,179.23,-133.50,190,-6095,-5732,-5,-1,-1
145.90,179.24,-133.62,178,-6098,-5788,-5,-2,0
145.83,179.28,-133.75,157,-6125,-5866,-5,-2,0
145.78,179.33,-133.85,131,-6125,-5877,-4,-2,0
145.74,179.38,-133.92,108,-6087,-5857,-2,-2,0
145.71,179.42,-133.96,66,-6053,-5825,-2,-2,0
145.69,179.47,-133.98,31,-6029,-5804,-1,-2,0
145.66,179.51,-134.02,21,-6026,-5816,-2,-1,0
145.65,179.54,-134.05,37,-6049,-5869,-2,-1,0
145.63,179.57,-134.08,36,-6044,-5874,-1,-1,0
145.63,179.58,-134.10,58,-6049,-5867,-1,-1,0
145.62,179.61,-134.13,52,-6002,-5851,-1,-2,0
145.62,179.63,-134.16,70,-6000,-5853,-2,-2,0
145.60,179.66,-134.18,63,-5982,-5868,-1,-2,0
145.60,179.70,-134.18,68,-5999,-5894,0,-2,0
145.59,179.73,-134.17,77,-5995,-5956,1,-2,0
145.61,179.75,-134.14,90,-6020,-5976,1,-1,0
145.63,179.78,-134.09,84,-6062,-5996,2,-1,0
145.67,179.79,-134.01,55,-6104,-5981,3,-1,0
145.72,179.79,-133.91,47,-6154,-5924,3,-1,-1
145.76,179.79,-133.84,22,-6133,-5846,1,-1,-1
145.78,179.79,-133.81,32,-6122,-5793,-1,-1,-1
145.77,179.79,-133.85,12,-6082,-5771,-3,0,-1
145.74,179.78,-133.92,8,-6116,-5781,-4,0,-1
145.70,179.78,-134.01,-3,-6092,-5818,-4,-1,-1
145.67,179.78,-134.09,8,-6104,-5831,-4,0,-1
145.63,179.77,-134.19,14,-6078,-5889,-3,0,-1
145.61,179.75,-134.26,31,-6061,-5895,-4,0,-1
145.59,179.73,-134.35,45,-6037,-5926,-2,0,-1
145.58,179.70,-134.40,56,-6036,-5928,-2,0,-1
145.60,179.67,-134.42,55,-6038,-5939,-1,0,-1
145.62,179.66,-134.41,51,-5993,-5927,1,0,-1
145.66,179.66,-134.36,54,-6004,-5904,2,-1,-1
145.69,179.68,-134.29,29,-6007,-5889,2,-1,0
145.73,179.70,-134.20,44,-6028,-5837,2,-1,0
145.76,179.71,-134.14,34,-6010,-5815,1,-1,0
145.77,179.73,-134.09,14,-6034,-5813,1,-1,0
145.78,179.74,-134.07,10,-6028,-5831,0,0,-1
145.78,179.75,-134.05,18,-6025,-5862,0,-1,0
145.78,179.76,-134.03,31,-6038,-5897,2,-1,0
145.80,179.77,-133.96,28,-6068,-5905,2,0,0
145.84,179.76,-133.89,36,-6106,-5904,2,0,-1
145.87,179.74,-133.82,30,-6127,-5900,2,0,-1
145.90,179.73,-133.75,52,-6149,-5864,1,0,0
145.91,179.73,-133.70,42,-6128,-5817,1,0,0
145.91,179.74,-133.66,55,-6125,-5780,0,-1,0
145.91,179.74,-133.66,42,-6098,-5778,-1,0,0
145.88,179.75,-133.69,30,-6106,-5783,-2,0,0
145.84,179.77,-133.74,16,-6076,-5812,-2,0,0
145.81,179.76,-133.79,39,-6080,-5840,-2,0,0
145.78,179.76,-133.84,39,-6070,-5861,-1,0,0
145.77,179.76,-133.85,40,-6073,-5867,-1,0,0
145.77,179.76,-133.85,48,-6083,-5866,0,0,0
145.78,179.76,-133.83,49,-6051,-5864,1,0,0
145.80,179.75,-133.79,48,-6037,-5862,2,-1,0
145.83,179.77,-133.73,60,-5999,-5801,1,-1,0
145.83,179.78,-133.70,51,-6007,-5813,1,-1,0
145.84,179.80,-133.67,56,-6070,-5843,0,-1,0
145.85,179.83,-133.61,46,-6114,-5872,2,-1,0
145.86,179.86,-133.55,29,-6128,-5865,1,-1,1
145.88,179.89,-133.48,36,-6149,-5825,2,-1,0
145.88,179.92,-133.44,8,-6109,-5814,1,-1,0
145.88,179.94,-133.40,14,-6114,-5768,0,-1,1
145.86,179.97,-133.39,-14,-6105,-5787,0,-1,0
145.85,180.00,-133.37,-6,-6140,-5792,-1,-1,0
145.84,-179.97,-133.36,-21,-6150,-5800,0,-1,0
145.82,-179.94,-133.36,-18,-6132,-5780,-1,-1,1
145.80,-179.93,-133.35,-4,-6154,-5755,0,-1,0
145.78,-179.91,-133.35,-18,-6132,-5739,-1,0,0
145.76,-179.89,-133.35,5,-6126,-5717,-1,-1,0
145.72,-179.86,-133.39,-20,-6092,-5756,-1,-1,0
145.68,-179.84,-133.42,3,-6115,-5778,-2,-1,1
145.64,-179.80,-133.47,10,-6107,-5834,-1,-1,0
145.61,-179.77,-133.50,14,-6097,-5854,-2,-1,1
145.57,-179.73,-133.51,-8,-6084,-5864,0,-2,1
145.53,-179.67,-133.53,-47,-6065,-5866,-1,-2,1
145.52,-179.63,-133.52,-26,-6117,-5842,-1,-2,0
145.50,-179.59,-133.52,-34,-6120,-5855,0,-1,0
145.49,-179.57,-133.51,-17,-6146,-5830,-1,-1,0
145.49,-179.55,-133.51,-33,-6127,-5822,0,-1,0
145.49,-179.53,-133.50,-29,-6127,-5759,-1,-1,0
145.49,-179.53,-133.53,-31,-6118,-5750,-1,-1,-1
145.48,-179.53,-133.58,-36,-6078,-5761,-3,-1,0
145.44,-179.50,-133.65,-35,-6064,-5773,-3,-2,0
145.39,-179.47,-133.74,-56,-6052,-5802,-3,-2,0
145.35,-179.42,-133.82,-72,-6086,-5849,-3,-2,0
145.30,-179.39,-133.90,-117,-6079,-5871,-3,-1,0
145.27,-179.37,-133.97,-128,-6101,-5875,-3,-1,-1
145.24,-179.37,-134.05,-124,-6092,-5897,-3,-1,-1
145.23,-179.38,-134.09,-116,-6093,-5880,-2,-1,-1
145.22,-179.38,-134.13,-140,-6072,-5861,-2,0,-1
145.22,-179.39,-134.16,-125,-6068,-5835,-2,0,-1
145.21,-179.39,-134.20,-127,-6062,-5827,-2,0,-1
145.18,-179.39,-134.24,-123,-6016,-5842,-2,0,0
145.14,-179.38,-134.28,-109,-6010,-5887,-2,-1,0
145.11,-179.36,-134.31,-110,-6012,-5912,-1,-1,0
145.08,-179.33,-134.30,-93,-6055,-5927,0,-1,1
145.06,-179.30,-134.28,-121,-6060,-5921,0,-1,0
145.03,-179.28,-134.28,-128,-6058,-5927,-1,0,0
144.99,-179.27,-134.30,-128,-6018,-5941,-1,0,0
144.97,-179.26,-134.31,-103,-6009,-5933,0,0,0
144.95,-179.26,-134.29,-91,-6019,-5938,1,0,0
144.96,-179.28,-134.26,-74,-6043,-5914,0,0,-1
144.98,-179.30,-134.23,-76,-6068,-5915,0,0,-1
145.00,-179.33,-134.21,-60,-6086,-5871,0,0,-1
145.01,-179.34,-134.20,-60,-6104,-5865,-1,0,-1
145.01,-179.36,-134.22,-56,-6069,-5838,-2,-1,-1
144.99,-179.34,-134.27,-82,-6013,-5828,-3,-1,0
144.95,-179.32,-134.35,-105,-5981,-5848,-3,-1,0
144.92,-179.30,-134.41,-107,-5960,-5865,-2,-1,0
144.91,-179.29,-134.42,-85,-5970,-5923,-1,-1,0
144.92,-179.27,-134.41,-107,-5966,-5950,1,-1,0
144.94,-179.25,-134.37,-116,-6000,-5957,1,-1,0
144.97,-179.25,-134.31,-119,-6038,-5958,2,-1,0
144.99,-179.24,-134.24,-108,-6074,-5929,2,-1,0
145.02,-179.24,-134.18,-130,-6068,-5884,1,0,0
145.03,-179.24,-134.15,-134,-6062,-5859,0,0,0
145.03,-179.23,-134.14,-133,-6058,-5847,0,0,0
145.02,-179.22,-134.15,-132,-6055,-5851,-1,0,0
144.99,-179.22,-134.17,-136,-6072,-5870,-1,0,0
144.97,-179.22,-134.20,-144,-6051,-5868,-1,0,0
144.95,-179.24,-134.23,-115,-6057,-5887,-2,0,-1
144.93,-179.25,-134.27,-119,-6033,-5894,-2,0,-1
144.91,-179.27,-134.33,-105,-6045,-5904,-3,0,-1
144.89,-179.29,-134.39,-113,-6028,-5921,-2,0,-1
144.87,-179.32,-134.43,-101,-6031,-5916,-2,0,-1
144.85,-179.33,-134.48,-99,-6002,-5920,-1,0,-1
144.85,-179.36,-134.50,-89,-6004,-5908,-1,0,-1
144.84,-179.37,-134.52,-90,-5981,-5896,-1,0,-1
144.85,-179.38,-134.53,-83,-5987,-5888,-1,0,0
144.85,-179.39,-134.54,-81,-5991,-5895,-1,0,-1
144.84,-179.38,-134.55,-83,-5996,-5909,-1,-1,0
144.85,-179.39,-134.54,-81,-6007,-5910,0,-1,-1
144.84,-179.37,-134.53,-90,-5980,-5903,0,-1,0
144.85,-179.37,-134.50,-76,-6000,-5902,0,-1,0
144.85,-179.35,-134.48,-88,-5991,-5923,1,-1,0
144.87,-179.35,-134.44,-79,-6025,-5938,1,-1,0
144.88,-179.35,-134.42,-93,-6018,-5923,0,0,-1
144.89,-179.35,-134.40,-87,-6061,-5932,0,-1,0
144.89,-179.34,-134.40,-101,-6046,-5922,0,0,-1
144.89,-179.34,-134.39,-103,-6048,-5906,-1,0,0
144.89,-179.35,-134.39,-110,-6028,-5872,-1,0,-1
144.87,-179.36,-134.42,-100,-6039,-5881,-2,0,0
144.86,-179.36,-134.45,-105,-6035,-5901,-2,0,-1
144.84,-179.38,-134.49,-105,-6029,-5917,-2,0,-1
144.84,-179.39,-134.53,-91,-6030,-5931,-2,0,-1
144.82,-179.40,-134.56,-91,-6004,-5905,-1,0,0
144.81,-179.41,-134.59,-74,-5996,-5919,-1,0,-1
144.80,-179.41,-134.60,-81,-5961,-5903,-1,-1,0
144.80,-179.40,-134.61,-55,-5981,-5903,-1,-1,0
144.77,-179.37,-134.62,-81,-5959,-5918,-1,-1,0
144.78,-179.36,-134.61,-62,-5991,-5944,0,-1,0
144.78,-179.35,-134.58,-72,-5988,-5965,1,-1,0
144.80,-179.34,-134.55,-71,-5996,-5982,1,-1,0
144.81,-179.32,-134.52,-78,-5996,-5969,1,-1,0
144.83,-179.32,-134.48,-88,-5992,-5992,2,-1,0
144.86,-179.32,-134.41,-97,-6023,-5971,1,-1,-1
144.88,-179.32,-134.39,-120,-6027,-5927,0,0,-1
144.89,-179.33,-134.39,-124,-6028,-5925,0,0,-1
144.91,-179.36,-134.38,-118,-6043,-5955,1,0,-1
144.94,-179.38,-134.33,-104,-6026,-5881,0,0,-1
144.95,-179.39,-134.32,-101,-6015,-5852,0,0,-1
144.97,-179.41,-134.31,-78,-6009,-5847,-1,0,-1
144.96,-179.43,-134.36,-96,-5982,-5839,-2,0,-1
144.95,-179.45,-134.40,-66,-6009,-5887,-2,0,-1
144.93,-179.47,-134.44,-66,-6005,-5930,-1,0,-1
144.92,-179.49,-134.45,-72,-6031,-5942,-1,0,-1
144.92,-179.50,-134.45,-84,-6073,-5958,0,0,-1
144.93,-179.51,-134.41,-110,-6066,-5931,1,1,-1
144.96,-179.55,-134.36,-104,-6066,-5901,1,1,-1
144.98,-179.59,-134.33,-106,-6028,-5852,0,1,-2
144.99,-179.63,-134.32,-68,-6006,-5845,-1,1,-1
144.99,-179.66,-134.34,-50,-5980,-5841,-1,1,-1
144.98,-179.70,-134.37,-38,-5982,-5858,-2,1,-1
144.97,-179.73,-134.40,-30,-5993,-5898,-1,0,-1
144.95,-179.74,-134.42,-39,-5993,-5919,-1,0,0
144.96,-179.75,-134.40,-35,-6050,-5923,0,0,0
144.97,-179.75,-134.37,-57,-6060,-5935,1,0,-1
144.99,-179.76,-134.34,-52,-6080,-5910,0,0,-1
145.00,-179.77,-134.33,-70,-6067,-5895,-1,0,-1
145.00,-179.78,-134.34,-68,-6059,-5860,-1,0,-1
144.99,-179.80,-134.36,-53,-6043,-5856,-1,0,-1
144.98,-179.80,-134.39,-48,-5996,-5844,-1,0,-1
144.98,-179.84,-134.43,-17,-6002,-5873,-2,0,-1
144.96,-179.84,-134.47,-26,-5997,-5905,-1,0,-1
144.95,-179.85,-134.49,-15,-6029,-5912,-2,-1,0
144.93,-179.84,-134.54,-30,-6022,-5905,-2,-1,-1
144.90,-179.84,-134.61,-30,-6022,-5939,-3,-1,-1
144.87,-179.86,-134.69,-36,-6024,-5971,-3,0,-1
144.84,-179.89,-134.77,-51,-5998,-5975,-3,1,-1
144.83,-179.93,-134.82,-23,-5980,-5970,-2,1,-1
144.83,-179.97,-134.85,-11,-5947,-5960,0,1,-1
144.84,-179.99,-134.83,10,-5940,-5939,0,0,0
144.85,-180.00,-134.80,3,-5954,-5940,1,0,-1
144.86,179.99,-134.77,13,-6018,-5982,0,0,0
144.87,179.97,-134.73,12,-6028,-5992,1,0,-1
144.87,179.96,-134.71,16,-6009,-5977,0,0,0
144.88,179.94,-134.70,32,-5991,-5942,0,0,0
144.86,179.94,-134.70,19,-5967,-5919,0,0,0
144.87,179.95,-134.69,30,-5981,-5916,0,-1,0
144.86,179.96,-134.68,19,-5977,-5920,0,-1,0
144.87,179.97,-134.66,13,-5985,-5939,0,-1,0
144.87,179.99,-134.62,-25,-5992,-5956,1,0,-1
144.89,179.96,-134.59,-44,-6035,-5977,0,1,-1
144.91,179.91,-134.57,-44,-6067,-6004,0,2,-2
144.93,179.85,-134.56,-18,-6050,-5981,0,2,-2
144.96,179.77,-134.55,12,-6013,-5928,0,2,-2
144.99,179.71,-134.53,35,-5977,-5889,0,1,-2
145.02,179.64,-134.51,57,-5981,-5875,0,1,-2
145.03,179.59,-134.51,67,-5979,-5893,0,1,-1
145.04,179.55,-134.49,65,-5985,-5877,0,1,-1
145.06,179.51,-134.49,70,-6005,-5888,-1,1,-2
145.06,179.46,-134.50,77,-6011,-5914,-1,1,-1
145.07,179.42,-134.50,93,-6020,-5914,-1,0,-1
145.08,179.40,-134.52,96,-6005,-5923,-1,0,-1
145.09,179.38,-134.53,84,-5996,-5921,-1,0,-1
145.10,179.35,-134.52,75,-5985,-5900,0,0,-1
145.11,179.33,-134.51,97,-5999,-5922,0,0,-1
145.12,179.33,-134.49,98,-6007,-5931,1,-1,0
145.12,179.34,-134.46,103,-6031,-5936,0,-1,0
145.13,179.34,-134.44,89,-6032,-5913,0,-1,0
145.14,179.36,-134.42,91,-6039,-5896,0,-1,0
145.14,179.36,-134.41,95,-6033,-5882,0,-1,0
145.12,179.37,-134.43,83,-6032,-5881,-2,-1,0
145.10,179.37,-134.46,90,-6035,-5903,-2,-1,0
145.07,179.39,-134.51,78,-6025,-5928,-2,-1,0
145.04,179.40,-134.54,91,-6028,-5935,-2,-1,0
145.02,179.43,-134.56,69,-5986,-5914,-1,-1,0
145.00,179.43,-134.58,94,-6004,-5899,-2,-1,0
144.98,179.42,-134.63,78,-5983,-5911,-2,0,-1
144.97,179.40,-134.67,97,-5992,-5940,-2,0,-1
144.97,179.37,-134.70,98,-5948,-5914,-1,0,-1
144.97,179.35,-134.73,118,-5966,-5922,-2,0,-1
144.96,179.33,-134.77,107,-5953,-5927,-2,0,-1
144.95,179.33,-134.80,115,-5984,-5949,-2,0,-1
144.94,179.32,-134.81,104,-5990,-5968,-1,0,-1
144.94,179.33,-134.82,97,-5987,-5955,-1,-1,0
144.95,179.32,-134.81,87,-5988,-5941,0,0,-1
144.96,179.31,-134.80,89,-5974,-5939,0,0,-1
144.96,179.31,-134.79,113,-5990,-5930,0,0,0
144.96,179.30,-134.80,95,-5975,-5922,-1,0,-1
144.95,179.29,-134.82,114,-5981,-5917,-2,0,0
144.94,179.28,-134.85,103,-5961,-5923,-2,0,-1
144.92,179.25,-134.89,96,-5988,-5933,-2,1,-1
144.90,179.22,-134.94,108,-5999,-5976,-2,1,-1
144.90,179.17,-134.97,120,-6009,-5984,-1,1,-1
144.89,179.15,-134.99,116,-5982,-5968,-2,0,-1
144.89,179.12,-135.01,117,-5957,-5965,-1,0,-1
144.88,179.10,-135.04,111,-5945,-5970,-1,0,-1
144.88,179.07,-135.04,135,-5955,-6006,0,0,-1
144.90,179.05,-135.01,141,-5935,-5999,1,0,-1
144.94,179.02,-134.95,153,-5927,-5972,2,0,-1
144.97,179.00,-134.89,150,-5932,-5965,2,0,-1
145.00,178.99,-134.85,157,-5958,-5970,1,0,-1
145.03,178.97,-134.79,163,-5964,-5954,2,0,-1
145.05,178.96,-134.74,149,-5954,-5922,1,0,-1
145.08,178.95,-134.70,161,-5968,-5902,1,0,0
145.09,178.95,-134.67,156,-5963,-5910,1,0,-1
145.10,178.95,-134.64,167,-6002,-5939,0,-1,0
145.11,178.97,-134.61,156,-6016,-5928,1,-1,0
145.12,178.97,-134.60,145,-6014,-5933,-1,-1,0
145.12,178.98,-134.60,151,-6011,-5910,-1,-1,0
145.11,178.98,-134.61,132,-5983,-5888,-1,-1,0
145.09,178.98,-134.64,145,-5986,-5887,-2,-1,0
145.06,179.00,-134.68,138,-5986,-5914,-2,0,0
145.06,179.00,-134.70,146,-6008,-5929,-2,-1,0
145.03,179.00,-134.74,137,-5998,-5954,-1,0,-1
145.02,179.01,-134.76,143,-6002,-5960,-1,-1,0
145.01,179.01,-134.78,150,-5983,-5929,-1,-1,0
144.99,179.02,-134.81,141,-5970,-5935,-1,-1,0
144.98,179.01,-134.83,150,-5986,-5942,-2,0,-1
144.97,179.00,-134.87,147,-5987,-5966,-1,0,-1
144.97,178.99,-134.88,154,-5988,-5954,-1,-1,-1
144.96,178.99,-134.91,148,-5966,-5940,-1,-1,-1
144.95,179.00,-134.93,147,-5956,-5931,-2,-1,0
144.94,179.00,-134.96,159,-5941,-5938,-1,-1,0
144.93,179.02,-134.98,141,-5934,-5953,-1,-1,0
144.93,179.02,-134.96,148,-5969,-5963,0,-1,0
144.93,179.03,-134.97,131,-5993,-5982,0,0,-1
144.93,179.02,-134.96,141,-6005,-5979,-1,0,-1
144.94,179.01,-134.98,126,-5976,-5955,-2,0,-1
144.93,178.98,-135.01,141,-5973,-5963,-1,0,-1
144.93,178.95,-135.02,155,-5950,-5969,0,0,-1
144.94,178.93,-135.03,153,-5950,-5973,-1,0,-1
144.94,178.91,-135.02,160,-5958,-5986,0,0,-1
144.95,178.89,-135.02,156,-5971,-5994,0,0,-1
144.95,178.86,-135.01,157,-5970,-5990,0,0,-1
144.96,178.84,-135.00,159,-5959,-5968,0,0,-1
144.96,178.82,-135.00,162,-5943,-5949,-1,0,-1
144.96,178.82,-135.00,167,-5923,-5936,0,0,-1
144.96,178.81,-134.98,176,-5933,-5946,0,0,0
144.98,178.81,-134.94,181,-5952,-5975,1,0,0
145.00,178.81,-134.88,182,-5960,-5997,2,0,0
145.04,178.80,-134.81,177,-5981,-6005,3,0,0
145.07,178.80,-134.71,173,-5985,-5967,3,0,0
145.11,178.79,-134.63,172,-5980,-5926,2,0,0
145.14,178.79,-134.55,165,-5981,-5905,2,0,-1
145.17,178.78,-134.50,174,-5990,-5909,1,0,-1
145.19,178.76,-134.47,177,-5985,-5894,1,0,-1
145.21,178.75,-134.43,185,-5993,-5883,0,0,-1
145.22,178.74,-134.40,182,-5998,-5891,1,0,-1
145.23,178.73,-134.37,186,-6028,-5919,1,0,-1
145.26,178.72,-134.33,194,-6037,-5933,1,0,-1
145.28,178.70,-134.29,188,-6039,-5917,1,0,-1
145.30,178.69,-134.25,186,-6048,-5911,1,0,-1
145.31,178.69,-134.21,182,-6036,-5892,1,0,-1
145.33,178.68,-134.17,193,-6044,-5865,1,0,-1
145.34,178.67,-134.15,183,-6025,-5847,0,0,-1
145.35,178.67,-134.13,206,-6042,-5835,0,0,0
145.34,178.66,-134.15,194,-6022,-5854,-1,0,-1
145.34,178.66,-134.16,204,-6045,-5870,-1,0,0
145.33,178.65,-134.17,190,-6032,-5877,-1,0,-1
145.33,178.66,-134.18,196,-6060,-5886,-1,-1,0
145.31,178.65,-134.19,193,-6045,-5892,-1,0,-1
145.31,178.65,-134.21,203,-6058,-5918,-1,-1,0
145.30,178.66,-134.22,204,-6026,-5894,0,-1,0
145.30,178.68,-134.22,203,-6022,-5877,-1,-1,0
145.29,178.71,-134.22,197,-5992,-5852,-1,-1,0
