Yaw,Pitch,Roll,AX,AY,AZ,GX,GY,GZ
-153.28,32.69,-78.14,4498,-6844,1456,0,0,-1
-153.29,32.70,-78.12,4497,-6847,1456,0,0,-1
-153.29,32.69,-78.12,4485,-6850,1453,0,0,-1
-153.30,32.69,-78.11,4487,-6853,1459,0,-1,0
-153.30,32.69,-78.11,4487,-6854,1461,-1,-1,-1
-153.29,32.69,-78.11,4493,-6847,1459,-1,0,-1
-153.29,32.69,-78.11,4498,-6844,1455,-1,-1,-1
-153.29,32.70,-78.11,4498,-6841,1455,0,0,-1
-153.29,32.70,-78.10,4489,-6845,1460,0,0,-1
-153.30,32.70,-78.10,4492,-6844,1459,0,0,-1
-153.30,32.70,-78.09,4492,-6847,1450,0,0,0
-153.31,32.69,-78.09,4486,-6850,1451,0,0,0
-153.32,32.69,-78.07,4478,-6847,1459,0,0,0
-153.32,32.69,-78.07,4483,-6846,1457,0,0,0
-153.32,32.69,-78.07,4487,-6847,1468,-1,-1,0
-153.31,32.69,-78.08,4496,-6846,1467,-1,-1,-1
-153.30,32.69,-78.10,4491,-6841,1461,-1,-1,0
-153.30,32.69,-78.11,4495,-6840,1448,-1,-1,0
-153.29,32.69,-78.11,4493,-6837,1440,-1,0,0
-153.29,32.69,-78.12,4496,-6840,1443,-1,-1,0
-153.29,32.69,-78.12,4490,-6848,1443,-1,-1,0
-153.28,32.69,-78.14,4491,-6845,1443,-1,-1,0
-153.28,32.69,-78.14,4493,-6851,1444,-1,-1,0
-153.28,32.69,-78.15,4490,-6851,1442,-1,0,0
-153.28,32.69,-78.15,4491,-6855,1444,-1,0,0
-153.27,32.69,-78.15,4491,-6852,1447,-1,0,0
-153.28,32.68,-78.15,4482,-6853,1453,0,0,0
-153.28,32.68,-78.15,4486,-6843,1456,0,-1,-1
-153.28,32.68,-78.15,4487,-6843,1450,-1,0,0
-153.28,32.69,-78.15,4490,-6839,1449,-1,0,-1
-153.28,32.69,-78.15,4487,-6847,1451,-1,-1,0
-153.27,32.68,-78.16,4487,-6846,1445,-1,-1,0
-153.27,32.68,-78.17,4486,-6848,1442,-1,-1,-1
-153.25,32.69,-78.19,4488,-6845,1440,-1,-1,0
-153.25,32.69,-78.20,4493,-6843,1428,-1,-1,0
-153.25,32.69,-78.20,4493,-6846,1429,-1,-1,0
-153.25,32.69,-78.20,4499,-6849,1438,-1,0,0
-153.25,32.68,-78.21,4491,-6845,1438,-1,-1,-1
-153.25,32.68,-78.21,4491,-6849,1435,-1,0,0
-153.25,32.68,-78.21,4490,-6848,1436,-1,0,-1
-153.24,32.69,-78.21,4496,-6841,1434,-1,0,0
-153.25,32.68,-78.21,4490,-6844,1439,-1,-1,0
-153.24,32.69,-78.22,4492,-6847,1441,-1,-1,0
-153.24,32.69,-78.22,4489,-6844,1438,-1,-1,-1
-153.24,32.68,-78.23,4485,-6851,1430,-1,-1,0
-153.23,32.68,-78.24,4480,-6852,1427,-1,-1,0
-153.23,32.68,-78.25,4484,-6849,1434,-1,-1,0
-153.23,32.68,-78.26,4486,-6852,1436,-1,-1,0
-153.22,32.68,-78.26,4487,-6861,1435,-1,0,0
-153.22,32.68,-78.26,4498,-6853,1436,-1,-1,0
-153.22,32.68,-78.27,4489,-6849,1437,-1,-1,0
-153.22,32.68,-78.27,4487,-6849,1441,-1,-1,0
-153.22,32.68,-78.28,4489,-6842,1431,-1,-1,0
-153.22,32.68,-78.28,4489,-6840,1426,-1,0,0
-153.22,32.68,-78.28,4489,-6844,1438,-1,-1,0
-153.21,32.68,-78.30,4494,-6836,1433,-1,-1,0
-153.21,32.68,-78.30,4486,-6851,1433,-1,-1,0
-153.21,32.68,-78.30,4485,-6847,1439,-1,-1,0
-153.21,32.67,-78.30,4479,-6850,1439,-1,-1,0
-153.22,32.67,-78.30,4475,-6850,1438,-1,0,0
-153.22,32.67,-78.30,4481,-6852,1434,-1,-1,0
-153.21,32.66,-78.31,4481,-6861,1437,-1,-1,-1
-153.21,32.66,-78.32,4483,-6867,1438,-1,-1,-1
-153.19,32.67,-78.34,4483,-6857,1417,-1,-1,-1
-153.19,32.67,-78.35,4485,-6848,1413,-1,-1,0
-153.19,32.67,-78.35,4488,-6849,1412,-1,-1,0
-153.19,32.67,-78.35,4487,-6853,1408,0,0,0
-153.19,32.66,-78.36,4489,-6844,1414,-1,-1,0
-153.19,32.66,-78.36,4487,-6845,1432,-1,-1,0
-153.19,32.66,-78.36,4492,-6846,1434,-1,-1,0
-153.18,32.67,-78.37,4483,-6848,1429,-1,-1,0
-153.17,32.67,-78.38,4485,-6857,1429,-1,-1,-1
-153.17,32.67,-78.39,4490,-6854,1420,-1,-1,-1
-153.17,32.67,-78.39,4493,-6857,1419,-1,-1,-1
-153.17,32.66,-78.40,4487,-6850,1409,0,-1,0
-153.17,32.67,-78.40,4492,-6854,1414,-1,-1,0
-153.17,32.67,-78.39,4491,-6860,1414,0,0,-1
-153.17,32.67,-78.39,4489,-6856,1415,-1,0,-1
-153.17,32.67,-78.40,4488,-6848,1428,-1,-1,-1
-153.17,32.66,-78.40,4486,-6853,1428,-1,-1,0
-153.17,32.66,-78.40,4480,-6855,1423,-1,-1,0
-153.15,32.67,-78.42,4490,-6852,1426,-1,-1,0
-153.15,32.67,-78.40,4491,-6849,1413,0,0,-1
-153.16,32.67,-78.41,4489,-6856,1410,0,-1,0
-153.16,32.67,-78.41,4489,-6850,1411,0,-1,-1
-153.15,32.67,-78.40,4491,-6854,1413,0,0,-1
-153.15,32.67,-78.40,4497,-6856,1409,0,0,0
-153.16,32.68,-78.40,4494,-6853,1417,-1,0,0
-153.16,32.68,-78.40,4490,-6854,1424,0,0,0
-153.17,32.67,-78.39,4484,-6854,1420,0,-1,0
-153.17,32.67,-78.39,4489,-6852,1424,0,0,0
-153.17,32.67,-78.39,4494,-6849,1419,0,0,0
-153.17,32.67,-78.39,4492,-6854,1422,0,0,0
-153.17,32.68,-78.37,4498,-6850,1429,0,0,0
-153.17,32.67,-78.37,4492,-6854,1427,0,-1,-1
-153.17,32.67,-78.37,4493,-6857,1429,-1,-1,0
-153.17,32.67,-78.37,4484,-6854,1429,0,0,-1
-153.17,32.67,-78.37,4487,-6850,1422,0,0,-1
-153.17,32.67,-78.37,4487,-6852,1416,0,0,0
-153.17,32.67,-78.37,4486,-6844,1408,0,0,-1
-153.18,32.67,-78.36,4489,-6849,1415,0,0,0
-153.18,32.68,-78.36,4491,-6846,1421,0,0,0
-153.18,32.68,-78.35,4488,-6854,1412,0,0,0
-153.18,32.68,-78.35,4484,-6852,1410,0,0,-1
-153.19,32.67,-78.34,4484,-6854,1411,0,0,-1
-153.19,32.67,-78.34,4483,-6861,1417,0,0,0
-153.19,32.67,-78.34,4484,-6858,1427,-1,-1,-1
-153.19,32.67,-78.34,4483,-6852,1431,-1,-1,-1
-153.19,32.67,-78.35,4487,-6849,1428,-1,0,-1
-153.18,32.67,-78.35,4489,-6857,1419,-1,0,-1
-153.18,32.67,-78.35,4486,-6852,1423,0,0,-1
-153.18,32.68,-78.34,4481,-6854,1428,0,0,-1
-153.20,32.67,-78.32,4481,-6853,1437,0,0,0
-153.20,32.67,-78.32,4482,-6848,1433,0,-1,0
-153.20,32.67,-78.32,4493,-6846,1433,0,0,0
-153.20,32.67,-78.32,4487,-6849,1429,-1,-1,-1
-153.20,32.67,-78.32,4488,-6854,1428,0,0,-1
-153.20,32.67,-78.32,4497,-6853,1435,0,0,0
-153.19,32.68,-78.31,4501,-6851,1428,0,0,-1
-153.20,32.67,-78.31,4490,-6850,1420,0,0,-1
-153.20,32.67,-78.30,4484,-6849,1425,0,0,-1
-153.21,32.67,-78.29,4482,-6851,1431,0,0,-1
-153.22,32.67,-78.28,4486,-6845,1441,0,0,-1
-153.22,32.67,-78.28,4489,-6845,1443,-1,-1,-1
-153.21,32.68,-78.30,4488,-6846,1434,-1,-1,0
-153.21,32.68,-78.30,4496,-6846,1424,-1,0,0
-153.20,32.68,-78.31,4496,-6848,1417,-1,-1,0
-153.20,32.68,-78.30,4495,-6844,1429,0,0,-1
-153.20,32.68,-78.30,4488,-6848,1432,0,0,-1
-153.20,32.68,-78.29,4492,-6846,1428,0,0,-1
-153.21,32.68,-78.28,4494,-6849,1432,0,0,-1
-153.21,32.68,-78.27,4487,-6848,1430,0,0,-1
-153.21,32.68,-78.27,4484,-6854,1433,0,0,0
-153.21,32.68,-78.26,4480,-6851,1430,0,0,0
-153.21,32.68,-78.26,4483,-6843,1430,0,0,-1
-153.22,32.68,-78.26,4483,-6850,1435,0,0,-1
-153.22,32.68,-78.25,4484,-6850,1437,0,0,-1
-153.22,32.68,-78.25,4482,-6848,1436,-1,-1,-1
-153.22,32.68,-78.25,4483,-6845,1435,-1,-1,-1
-153.22,32.68,-78.26,4486,-6846,1428,-1,0,-1
-153.22,32.68,-78.26,4489,-6850,1425,0,0,-1
-153.22,32.68,-78.26,4490,-6856,1428,0,0,-1
-153.22,32.69,-78.24,4490,-6853,1435,0,0,-1
-153.23,32.68,-78.23,4491,-6845,1443,0,0,0
-153.23,32.68,-78.23,4495,-6845,1452,0,0,0
-153.23,32.68,-78.23,4486,-6851,1445,-1,-1,-1
-153.23,32.68,-78.23,4486,-6852,1423,-1,-1,-1
-153.22,32.69,-78.24,4488,-6849,1425,-1,-1,-1
-153.21,32.69,-78.24,4488,-6840,1424,-1,-1,-1
-153.21,32.69,-78.24,4498,-6842,1434,-1,-1,-1
-153.22,32.69,-78.24,4493,-6851,1434,0,0,-1
-153.22,32.69,-78.23,4489,-6849,1433,0,0,0
-153.23,32.69,-78.22,4484,-6847,1438,0,0,0
-153.23,32.69,-78.22,4487,-6853,1445,0,0,0
-153.24,32.68,-78.21,4481,-6857,1437,0,0,-1
-153.24,32.68,-78.19,4479,-6854,1444,0,0,-1
-153.24,32.68,-78.19,4483,-6855,1450,-1,-1,-1
-153.24,32.69,-78.19,4490,-6851,1445,-1,-1,-1
-153.24,32.69,-78.20,4489,-6852,1437,-1,-1,-1
-153.23,32.69,-78.21,4492,-6849,1436,-1,-1,-1
-153.24,32.69,-78.20,4486,-6848,1438,0,0,-1
-153.24,32.69,-78.20,4484,-6844,1434,0,0,-1
-153.24,32.69,-78.19,4489,-6850,1440,0,0,0
-153.24,32.69,-78.19,4482,-6841,1446,0,0,0
-153.25,32.69,-78.18,4484,-6847,1447,-1,-1,0
-153.25,32.69,-78.19,4494,-6853,1436,-1,-1,-1
-153.25,32.69,-78.19,4491,-6853,1431,0,0,0
-153.25,32.69,-78.18,4499,-6847,1428,0,0,-1
-153.24,32.69,-78.18,4501,-6847,1428,0,0,-1
-153.25,32.69,-78.17,4493,-6850,1431,0,0,-1
-153.26,32.69,-78.15,4495,-6845,1439,0,0,-1
-153.26,32.69,-78.14,4492,-6849,1453,0,0,-1
-153.27,32.69,-78.13,4488,-6848,1456,0,0,-1
-153.27,32.69,-78.13,4490,-6846,1469,-1,-1,-1
-153.27,32.69,-78.13,4490,-6839,1467,-1,-1,-1
-153.26,32.69,-78.14,4491,-6847,1457,-1,-1,-1
-153.26,32.69,-78.14,4487,-6851,1451,-1,-1,0
-153.26,32.69,-78.14,4487,-6849,1441,0,0,-1
-153.26,32.69,-78.14,4490,-6848,1435,0,0,-1
-153.27,32.69,-78.14,4492,-6845,1438,0,0,-1
-153.28,32.69,-78.12,4494,-6849,1453,0,0,-1
-153.28,32.69,-78.11,4491,-6840,1447,0,0,0
-153.28,32.69,-78.10,4493,-6835,1450,0,0,-1
-153.28,32.69,-78.10,4492,-6836,1454,0,0,0
-153.29,32.69,-78.09,4485,-6841,1455,-1,0,0
-153.29,32.69,-78.09,4489,-6840,1466,-1,-1,0
-153.29,32.69,-78.09,4493,-6847,1474,-1,-1,0
-153.29,32.69,-78.10,4489,-6848,1471,-1,-1,0
-153.28,32.69,-78.10,4481,-6844,1458,-1,0,0
-153.28,32.69,-78.11,4489,-6843,1457,-1,-1,0
-153.28,32.69,-78.11,4489,-6846,1450,-1,0,-1
-153.28,32.69,-78.11,4494,-6851,1456,-1,0,-1
-153.27,32.69,-78.12,4495,-6850,1453,-1,-1,0
-153.27,32.69,-78.12,4487,-6849,1444,-1,-1,-1
-153.27,32.69,-78.12,4490,-6845,1456,-1,0,0
-153.28,32.68,-78.12,4491,-6845,1463,-1,0,0
-153.28,32.68,-78.13,4495,-6841,1456,-1,-1,0
-153.28,32.68,-78.13,4487,-6846,1459,-1,-1,0
-153.28,32.68,-78.13,4488,-6845,1458,-1,-1,-1
-153.27,32.68,-78.14,4483,-6844,1456,-1,-1,0
-153.26,32.68,-78.15,4486,-6844,1452,-1,-1,0
-153.27,32.68,-78.15,4487,-6848,1444,-1,0,-1
-153.26,32.68,-78.15,4482,-6842,1447,-1,-1,-1
-153.26,32.68,-78.15,4484,-6839,1445,-1,-1,0
-153.25,32.68,-78.17,4489,-6842,1438,-1,-1,0
-153.25,32.68,-78.17,4486,-6846,1442,-1,-1,0
-153.25,32.68,-78.18,4484,-6848,1441,-1,-1,-1
-153.25,32.68,-78.18,4491,-6841,1443,-1,0,0
-153.25,32.68,-78.18,4501,-6847,1448,-1,0,0
-153.25,32.68,-78.18,4497,-6853,1456,0,0,0
-153.25,32.68,-78.18,4494,-6846,1447,-1,0,0
-153.25,32.68,-78.18,4489,-6850,1440,-1,-1,0
-153.26,32.67,-78.18,4483,-6857,1443,-1,-1,0
-153.26,32.67,-78.18,4485,-6853,1442,-1,0,-1
-153.25,32.68,-78.18,4495,-6851,1452,-1,-1,-1
-153.25,32.68,-78.18,4496,-6851,1459,-1,-1,0
-153.25,32.67,-78.20,4490,-6850,1448,-1,-1,0
-153.24,32.67,-78.21,4482,-6848,1443,-1,-1,-1
-153.23,32.68,-78.22,4491,-6851,1435,-1,0,0
-153.23,32.68,-78.22,4491,-6856,1431,-1,0,0
-153.23,32.67,-78.22,4486,-6851,1433,0,0,0
-153.24,32.67,-78.22,4485,-6853,1427,-1,-1,0
-153.24,32.66,-78.23,4485,-6852,1428,-1,-1,0
-153.24,32.66,-78.23,4485,-6852,1428,-1,-1,0
-153.23,32.66,-78.24,4485,-6852,1427,-1,-1,-1
-153.23,32.67,-78.25,4486,-6854,1422,-1,-1,0
-153.22,32.66,-78.26,4476,-6854,1426,-1,0,0
-153.23,32.66,-78.25,4474,-6863,1435,-1,0,0
-153.24,32.65,-78.25,4476,-6865,1439,0,0,0
-153.24,32.65,-78.25,4477,-6857,1436,-1,-1,0
-153.24,32.65,-78.25,4476,-6847,1427,-1,-1,0
-153.23,32.65,-78.26,4486,-6849,1430,-1,-1,0
-153.22,32.65,-78.28,4489,-6841,1432,-1,-1,-1
-153.22,32.65,-78.29,4489,-6849,1431,-1,-1,0
-153.21,32.65,-78.30,4486,-6851,1425,-1,-1,0
-153.21,32.65,-78.30,4488,-6852,1430,-1,-1,0
-153.22,32.65,-78.30,4486,-6853,1433,-1,0,0
-153.22,32.65,-78.31,4484,-6851,1422,0,0,0
-153.22,32.65,-78.30,4485,-6843,1421,-1,0,0
-153.22,32.65,-78.31,4483,-6845,1427,-1,-1,0
-153.21,32.65,-78.31,4481,-6840,1428,-1,-1,0
-153.21,32.64,-78.32,4483,-6843,1421,-1,-1,0
-153.21,32.64,-78.33,4490,-6847,1422,-1,-1,0
-153.21,32.64,-78.33,4486,-6853,1423,-1,-1,0
-153.20,32.65,-78.34,4489,-6856,1423,-1,-1,-1
-153.20,32.64,-78.34,4488,-6856,1424,-1,-1,0
-153.20,32.64,-78.36,4483,-6849,1423,-1,-1,0
-153.19,32.65,-78.37,4476,-6847,1428,-1,-1,0
-153.19,32.65,-78.37,4480,-6849,1425,-1,-1,0
-153.19,32.64,-78.38,4480,-6854,1425,-1,-1,0
-153.19,32.64,-78.38,4487,-6849,1426,-1,0,0
-153.19,32.64,-78.37,4483,-6852,1418,0,0,0
-153.19,32.64,-78.37,4481,-6861,1419,0,-1,0
-153.19,32.64,-78.37,4479,-6860,1419,-1,-1,-1
-153.19,32.64,-78.37,4484,-6862,1420,-1,0,-1
-153.19,32.64,-78.37,4477,-6864,1413,-1,-1,-1
-153.20,32.63,-78.37,4486,-6855,1418,0,-1,0
-153.19,32.64,-78.37,4489,-6851,1419,0,-1,0
-153.19,32.64,-78.37,4491,-6847,1429,-1,-1,0
-153.19,32.64,-78.38,4488,-6847,1428,-1,-1,-1
-153.19,32.64,-78.38,4487,-6853,1417,-1,0,-1
-153.18,32.64,-78.38,4492,-6849,1415,-1,-1,-1
-153.18,32.65,-78.38,4494,-6847,1411,0,0,0
-153.18,32.65,-78.37,4489,-6847,1409,0,0,-1
-153.19,32.64,-78.37,4484,-6851,1413,0,0,0
-153.20,32.64,-78.36,4485,-6856,1415,0,0,0
-153.20,32.65,-78.35,4478,-6859,1413,0,0,0
-153.21,32.64,-78.34,4479,-6858,1413,0,0,0
-153.21,32.64,-78.33,4479,-6854,1416,0,0,0
-153.22,32.64,-78.33,4485,-6856,1426,-1,-1,0
-153.21,32.64,-78.33,4487,-6856,1426,-1,-1,-1
-153.21,32.64,-78.34,4484,-6854,1434,-1,-1,0
-153.20,32.64,-78.35,4485,-6855,1431,-1,-1,-1
-153.20,32.64,-78.34,4494,-6849,1423,0,0,-1
-153.20,32.65,-78.34,4491,-6856,1410,0,0,0
-153.21,32.64,-78.33,4492,-6861,1420,0,0,-1
-153.21,32.64,-78.33,4491,-6858,1415,0,0,0
-153.21,32.65,-78.32,4491,-6856,1419,0,0,-1
-153.21,32.65,-78.32,4494,-6856,1424,0,-1,-1
-153.21,32.65,-78.32,4491,-6853,1425,-1,0,0
-153.21,32.65,-78.32,4487,-6849,1419,0,0,-1
-153.22,32.65,-78.31,4487,-6854,1423,0,0,-1
-153.22,32.65,-78.30,4484,-6847,1425,0,0,-1
-153.23,32.65,-78.29,4479,-6850,1424,0,0,0
-153.23,32.65,-78.29,4484,-6849,1426,0,0,-1
-153.24,32.65,-78.28,4484,-6851,1435,0,0,-1
-153.24,32.64,-78.27,4480,-6862,1442,-1,-1,0
-153.24,32.64,-78.27,4482,-6862,1426,-1,-1,-1
-153.23,32.64,-78.29,4484,-6859,1420,-1,-1,-1
-153.23,32.64,-78.29,4484,-6857,1421,0,0,0
-153.23,32.64,-78.29,4476,-6852,1423,0,0,0
-153.24,32.64,-78.28,4481,-6859,1426,0,0,0
-153.24,32.64,-78.27,4484,-6853,1426,0,0,-1
-153.25,32.64,-78.26,4484,-6856,1430,0,0,-1
-153.25,32.64,-78.25,4486,-6857,1439,0,0,0
-153.26,32.64,-78.25,4478,-6854,1435,0,0,-1
-153.26,32.64,-78.25,4470,-6854,1429,0,0,-1
-153.26,32.64,-78.24,4471,-6853,1439,0,0,-1
-153.26,32.64,-78.24,4474,-6852,1441,-1,0,-1
-153.26,32.64,-78.24,4478,-6848,1442,-1,-1,-1
-153.26,32.64,-78.24,4483,-6852,1440,0,0,-1
-153.26,32.64,-78.24,4491,-6851,1431,-1,-1,-1
-153.26,32.64,-78.24,4496,-6851,1428,-1,0,-1
-153.25,32.65,-78.24,4493,-6851,1434,0,0,-1
-153.25,32.65,-78.24,4488,-6853,1437,0,0,-1
-153.26,32.65,-78.22,4483,-6856,1436,0,0,-1
-153.26,32.65,-78.22,4481,-6854,1434,0,0,0
-153.26,32.65,-78.21,4481,-6853,1441,0,0,-1
-153.27,32.65,-78.20,4488,-6857,1436,0,0,0
-153.27,32.65,-78.20,4486,-6854,1436,0,0,-1
-153.27,32.65,-78.20,4487,-6853,1437,0,0,-1
-153.27,32.65,-78.19,4486,-6848,1434,0,-1,-1
-153.27,32.65,-78.19,4486,-6850,1433,0,0,-1
-153.27,32.65,-78.19,4481,-6855,1432,0,0,-1
-153.28,32.64,-78.19,4477,-6853,1434,0,0,-1
-153.28,32.65,-78.18,4486,-6855,1434,0,-1,-1
-153.28,32.65,-78.18,4482,-6855,1434,0,0,-1
-153.28,32.65,-78.18,4483,-6848,1441,-1,0,-1
-153.28,32.65,-78.17,4476,-6849,1445,0,0,-1
-153.28,32.66,-78.17,4486,-6850,1434,0,0,-1
-153.28,32.66,-78.17,4485,-6851,1439,0,0,-1
-153.28,32.66,-78.16,4482,-6852,1440,0,0,0
-153.29,32.66,-78.15,4484,-6854,1447,0,0,0
-153.30,32.65,-78.14,4481,-6851,1440,0,0,0
-153.30,32.66,-78.13,4485,-6850,1440,0,0,0
-153.30,32.65,-78.13,4484,-6850,1446,0,0,0
-153.31,32.65,-78.12,4482,-6850,1450,0,0,-1
-153.30,32.66,-78.12,4489,-6848,1451,-1,-1,-1
-153.30,32.66,-78.13,4494,-6845,1457,-1,-1,-1
-153.29,32.66,-78.13,4493,-6847,1457,-1,0,-1
-153.29,32.66,-78.13,4497,-6853,1446,0,-1,-1
-153.30,32.66,-78.12,4496,-6849,1436,0,0,0
-153.30,32.66,-78.11,4497,-6850,1434,0,0,0
-153.30,32.66,-78.11,4495,-6849,1443,0,0,-1
-153.31,32.66,-78.10,4495,-6850,1450,0,0,-1
-153.31,32.66,-78.09,4487,-6843,1452,0,0,-1
-153.31,32.66,-78.09,4484,-6839,1450,0,0,-1
-153.31,32.67,-78.09,4486,-6837,1442,0,0,-1
-153.31,32.67,-78.08,4488,-6840,1445,0,0,-1
-153.31,32.67,-78.08,4488,-6844,1453,0,0,-1
-153.32,32.66,-78.06,4485,-6847,1451,0,0,-1
-153.33,32.67,-78.05,4485,-6846,1450,0,0,-1
-153.33,32.67,-78.04,4487,-6846,1451,0,0,-1
-153.33,32.67,-78.04,4493,-6854,1468,-1,-1,-1
-153.33,32.67,-78.04,4491,-6853,1465,-1,-1,-1
-153.33,32.67,-78.04,4492,-6854,1455,-1,-1,-1
-153.32,32.67,-78.05,4495,-6849,1442,-1,-1,0
-153.32,32.67,-78.05,4495,-6851,1441,0,0,0
-153.32,32.67,-78.05,4497,-6845,1436,0,0,0
-153.33,32.67,-78.04,4489,-6845,1444,0,0,-1
-153.33,32.67,-78.03,4489,-6849,1453,0,0,-1
-153.34,32.67,-78.02,4488,-6854,1458,0,0,0
-153.34,32.67,-78.01,4491,-6854,1451,0,0,0
-153.34,32.67,-78.01,4489,-6851,1452,0,0,0
-153.34,32.67,-78.01,4489,-6849,1451,-1,0,0
-153.34,32.67,-78.02,4487,-6845,1455,-1,0,0
-153.34,32.67,-78.02,4484,-6844,1456,-1,-1,0
-153.34,32.67,-78.03,4488,-6842,1460,-1,-1,0
-153.33,32.67,-78.04,4492,-6844,1453,-1,-1,0
-153.33,32.67,-78.05,4494,-6842,1455,-1,-1,0
-153.32,32.66,-78.06,4492,-6845,1459,-1,-1,0
-153.32,32.66,-78.06,4489,-6843,1458,-1,0,0
-153.32,32.67,-78.06,4489,-6841,1461,-1,0,0
-153.32,32.67,-78.06,4483,-6847,1455,-1,0,0
-153.32,32.67,-78.06,4488,-6849,1448,-1,-1,0
-153.31,32.67,-78.07,4483,-6850,1452,-1,-1,-1
-153.32,32.66,-78.07,4479,-6854,1452,-1,-1,0
-153.32,32.66,-78.07,4484,-6849,1455,-1,-1,0
-153.31,32.66,-78.09,4485,-6846,1445,-1,-1,-1
-153.31,32.66,-78.09,4491,-6849,1442,-1,-1,-1
-153.30,32.66,-78.10,4495,-6844,1445,-1,-1,0
-153.30,32.66,-78.11,4492,-6849,1427,-1,0,-1
-153.30,32.66,-78.12,4495,-6851,1429,-1,0,-1
-153.30,32.66,-78.12,4491,-6845,1431,-1,0,0
-153.29,32.67,-78.12,4496,-6845,1448,-1,-1,0
-153.28,32.67,-78.13,4491,-6849,1447,-1,-1,0
-153.28,32.67,-78.14,4485,-6849,1431,-1,-1,-1
-153.28,32.66,-78.15,4482,-6844,1437,-1,0,-1
-153.28,32.66,-78.15,4489,-6843,1441,-1,-1,-1
-153.27,32.67,-78.15,4493,-6849,1434,-1,-1,-1
-153.27,32.67,-78.16,4495,-6852,1429,-1,-1,0
-153.27,32.67,-78.16,4487,-6852,1437,-1,-1,0
-153.27,32.67,-78.16,4484,-6845,1432,-1,0,0
-153.27,32.66,-78.17,4479,-6852,1441,-1,0,-1
-153.27,32.66,-78.17,4487,-6855,1437,-1,0,0
-153.27,32.66,-78.17,4483,-6857,1441,-1,-1,-1
-153.27,32.66,-78.17,4479,-6860,1453,-1,-1,0
-153.25,32.67,-78.19,4484,-6850,1447,-1,-1,-1
-153.25,32.66,-78.20,4486,-6849,1439,-1,-1,-1
-153.25,32.66,-78.21,4491,-6844,1426,-1,-1,0
-153.24,32.67,-78.21,4496,-6846,1427,-1,0,0
-153.24,32.67,-78.21,4491,-6847,1427,0,0,0
-153.24,32.67,-78.21,4493,-6843,1434,-1,0,0
-153.24,32.67,-78.21,4495,-6844,1439,-1,-1,0
-153.25,32.66,-78.22,4488,-6839,1429,-1,-1,0
-153.23,32.67,-78.23,4486,-6844,1426,-1,-1,0
-153.23,32.66,-78.24,4488,-6843,1426,-1,-1,0
-153.23,32.66,-78.24,4484,-6846,1433,-1,-1,0
-153.22,32.66,-78.25,4482,-6842,1427,-1,-1,0
-153.22,32.66,-78.25,4486,-6842,1428,-1,-1,0
-153.22,32.66,-78.25,4490,-6847,1428,-1,0,0
-153.22,32.66,-78.25,4487,-6846,1431,0,-1,0
-153.22,32.66,-78.26,4491,-6845,1432,-1,-1,0
-153.22,32.67,-78.27,4489,-6850,1432,-1,-1,0
-153.21,32.66,-78.29,4486,-6845,1433,-1,-1,0
-153.21,32.66,-78.30,4490,-6845,1428,-1,-1,0
-153.21,32.66,-78.30,4494,-6852,1427,-1,-1,0
-153.21,32.66,-78.30,4489,-6854,1425,-1,-1,0
-153.21,32.66,-78.31,4493,-6854,1423,-1,-1,0
-153.21,32.66,-78.31,4497,-6855,1423,-1,0,0
-153.20,32.66,-78.31,4495,-6858,1420,-1,-1,0
-153.20,32.66,-78.31,4488,-6862,1428,-1,-1,0
-153.20,32.65,-78.32,4480,-6861,1430,-1,-1,0
-153.21,32.65,-78.32,4480,-6856,1428,-1,-1,0
-153.20,32.65,-78.33,4480,-6860,1417,-1,-1,0
-153.20,32.64,-78.34,4481,-6859,1411,-1,-1,0
-153.19,32.65,-78.36,4486,-6859,1415,-1,-1,0
-153.19,32.65,-78.36,4482,-6861,1418,-1,-1,0
-153.19,32.65,-78.37,4481,-6860,1409,-1,-1,0
-153.19,32.64,-78.38,4483,-6854,1410,-1,-1,0
-153.18,32.64,-78.38,4482,-6861,1408,-1,-1,0
-153.19,32.64,-78.39,4478,-6860,1411,-1,-1,0
-153.19,32.64,-78.39,4473,-6856,1411,-1,0,0
-153.19,32.64,-78.38,4479,-6854,1411,0,0,0
-153.19,32.64,-78.38,4482,-6859,1415,-1,-1,0
-153.19,32.63,-78.38,4475,-6857,1412,-1,-1,0
-153.19,32.63,-78.38,4478,-6864,1418,-1,-1,-1
-153.19,32.63,-78.38,4477,-6862,1423,-1,0,-1
-153.19,32.63,-78.38,4480,-6860,1416,0,0,0
-153.19,32.63,-78.38,4483,-6860,1410,0,-1,-1
-153.20,32.63,-78.38,4481,-6860,1407,-1,-1,0
-153.19,32.63,-78.38,4477,-6862,1406,-1,0,0
-153.19,32.63,-78.38,4486,-6863,1409,-1,-1,0
-153.19,32.63,-78.38,4485,-6857,1408,0,0,-1
-153.19,32.63,-78.38,4483,-6856,1404,0,0,-1
-153.20,32.63,-78.37,4479,-6858,1411,0,0,0
-153.21,32.63,-78.36,4481,-6859,1416,0,0,0
-153.21,32.63,-78.35,4486,-6858,1426,0,0,0
-153.22,32.63,-78.34,4491,-6860,1420,0,0,0
-153.23,32.62,-78.34,4487,-6862,1421,0,0,0
-153.23,32.62,-78.33,4481,-6857,1431,0,0,0
-153.24,32.62,-78.32,4476,-6857,1434,-1,0,0
-153.23,32.62,-78.33,4487,-6850,1430,-1,-1,-1
-153.23,32.62,-78.33,4487,-6853,1429,-1,-1,0
-153.23,32.62,-78.34,4482,-6852,1417,-1,-1,0
-153.23,32.62,-78.34,4489,-6858,1413,0,0,0
-153.23,32.62,-78.34,4489,-6859,1417,0,0,0
-153.23,32.62,-78.33,4482,-6855,1411,0,0,0
-153.23,32.63,-78.32,4487,-6851,1416,0,-1,0
-153.23,32.63,-78.32,4485,-6850,1419,0,0,-1
-153.24,32.62,-78.31,4483,-6855,1420,0,-1,-1
-153.24,32.62,-78.31,4492,-6859,1429,0,0,0
-153.24,32.62,-78.31,4489,-6856,1429,0,0,0
-153.25,32.62,-78.30,4485,-6857,1428,0,0,0
-153.26,32.62,-78.29,4483,-6859,1419,0,0,0
-153.26,32.62,-78.28,4483,-6860,1422,0,0,0
-153.26,32.62,-78.28,4487,-6859,1420,0,0,-1
-153.26,32.63,-78.27,4490,-6854,1425,0,0,0
-153.26,32.63,-78.27,4488,-6850,1423,-1,-1,0
-153.26,32.62,-78.28,4487,-6851,1435,-1,-1,0
-153.26,32.62,-78.28,4481,-6847,1437,-1,-1,0
-153.26,32.62,-78.28,4480,-6848,1427,-1,-1,0
-153.26,32.62,-78.28,4478,-6845,1423,0,0,0
-153.26,32.62,-78.28,4476,-6848,1430,0,0,-1
-153.26,32.63,-78.27,4485,-6854,1425,0,0,-1
-153.26,32.63,-78.27,4480,-6858,1426,0,0,0
-153.26,32.63,-78.26,4485,-6847,1424,0,0,0
-153.26,32.63,-78.26,4489,-6845,1437,0,0,0
-153.27,32.63,-78.25,4494,-6849,1434,0,0,-1
-153.27,32.63,-78.24,4487,-6849,1428,0,0,-1
-153.27,32.63,-78.24,4478,-6845,1423,0,-1,0
-153.27,32.63,-78.24,4481,-6849,1434,0,0,-1
-153.27,32.63,-78.24,4486,-6853,1439,0,-1,0
-153.28,32.62,-78.24,4485,-6860,1432,-1,0,0
-153.28,32.62,-78.24,4482,-6858,1422,-1,-1,0
-153.27,32.63,-78.24,4483,-6856,1423,0,0,-1
-153.27,32.63,-78.24,4482,-6858,1416,0,0,0
-153.27,32.63,-78.24,4480,-6858,1425,0,0,0
-153.28,32.63,-78.23,4491,-6859,1433,0,0,0
-153.29,32.63,-78.21,4486,-6855,1434,0,0,0
-153.29,32.63,-78.21,4482,-6853,1434,0,-1,0
-153.29,32.62,-78.20,4479,-6856,1439,0,0,0
-153.29,32.62,-78.20,4479,-6854,1436,-1,-1,-1
-153.29,32.62,-78.20,4486,-6854,1445,-1,-1,-1
-153.29,32.63,-78.20,4487,-6853,1434,-1,-1,-1
-153.29,32.63,-78.21,4485,-6851,1433,0,0,-1
-153.29,32.63,-78.20,4490,-6852,1429,0,0,0
-153.29,32.63,-78.20,4488,-6852,1427,0,0,0
-153.30,32.63,-78.19,4481,-6858,1441,0,0,-1
-153.31,32.62,-78.19,4476,-6861,1443,0,0,0
-153.31,32.63,-78.17,4472,-6855,1445,0,0,-1
-153.32,32.62,-78.16,4471,-6855,1451,0,0,-1
-153.32,32.62,-78.16,4473,-6858,1442,-1,-1,-1
-153.31,32.63,-78.16,4480,-6854,1446,-1,-1,-1
-153.31,32.63,-78.16,4485,-6845,1439,-1,-1,-1
-153.31,32.63,-78.16,4483,-6847,1438,0,0,-1
-153.31,32.63,-78.16,4482,-6849,1444,0,0,0
-153.31,32.63,-78.15,4483,-6854,1442,0,-1,0
-153.31,32.63,-78.15,4489,-6851,1433,0,-1,-1
-153.32,32.63,-78.15,4485,-6848,1441,0,-1,-1
-153.32,32.63,-78.15,4490,-6848,1438,-1,-1,-1
-153.31,32.64,-78.15,4486,-6851,1437,-1,-1,-1
-153.31,32.64,-78.15,4481,-6854,1433,0,0,-1
-153.31,32.64,-78.15,4486,-6854,1434,0,0,-1
-153.32,32.64,-78.13,4486,-6854,1439,0,0,-1
-153.32,32.64,-78.12,4485,-6856,1438,0,0,-1
-153.33,32.64,-78.11,4476,-6856,1435,0,0,-1
-153.34,32.64,-78.09,4480,-6854,1449,0,0,-1
-153.34,32.64,-78.08,4484,-6854,1447,0,0,-1
-153.35,32.64,-78.08,4484,-6847,1451,0,0,-1
-153.34,32.65,-78.08,4483,-6848,1459,-1,-1,-1
-153.34,32.65,-78.08,4488,-6852,1456,-1,-1,0
-153.34,32.65,-78.08,4485,-6855,1452,0,-1,-1
-153.34,32.64,-78.07,4483,-6849,1462,0,-1,-1
-153.35,32.64,-78.06,4485,-6847,1463,0,0,-1
-153.35,32.64,-78.06,4486,-6850,1461,0,0,-1
-153.36,32.64,-78.04,4488,-6846,1456,0,0,-1
-153.36,32.65,-78.04,4488,-6846,1451,0,0,-1
-153.36,32.65,-78.03,4483,-6851,1443,0,0,-1
-153.37,32.64,-78.03,4482,-6848,1447,0,0,-1
-153.37,32.64,-78.01,4485,-6845,1457,0,0,-1
-153.37,32.64,-78.01,4485,-6844,1456,-1,0,-1
-153.37,32.64,-78.01,4479,-6843,1459,-1,0,0
-153.36,32.65,-78.02,4486,-6841,1458,-1,-1,-1
-153.35,32.65,-78.03,4493,-6848,1453,-1,-1,0
-153.35,32.65,-78.04,4489,-6848,1445,-1,0,0
-153.35,32.65,-78.04,4485,-6847,1452,-1,-1,-1
-153.34,32.65,-78.04,4492,-6850,1459,-1,-1,0
-153.34,32.65,-78.04,4493,-6851,1452,-1,0,0
-153.34,32.65,-78.05,4486,-6851,1456,-1,0,0
-153.34,32.65,-78.05,4491,-6856,1453,-1,-1,0
-153.34,32.65,-78.06,4495,-6855,1451,-1,0,0
-153.34,32.65,-78.07,4489,-6848,1455,-1,0,0
-153.33,32.65,-78.07,4488,-6844,1455,-1,-1,0
-153.33,32.65,-78.07,4488,-6848,1454,-1,-1,0
-153.33,32.65,-78.08,4483,-6844,1457,-1,-1,-1
-153.33,32.65,-78.09,4491,-6849,1450,-1,-1,0
-153.32,32.65,-78.09,4494,-6846,1449,-1,-1,-1
-153.31,32.65,-78.11,4498,-6842,1447,-1,-1,0
-153.31,32.65,-78.11,4499,-6846,1441,-1,-1,0
-153.31,32.65,-78.12,4496,-6845,1440,-1,0,0
-153.31,32.65,-78.12,4492,-6847,1437,0,0,0
-153.31,32.65,-78.12,4491,-6855,1437,0,0,0
-153.31,32.65,-78.12,4490,-6853,1442,0,0,0
-153.31,32.65,-78.11,4485,-6854,1444,0,0,-1
-153.31,32.65,-78.11,4488,-6851,1456,-1,-1,-1
-153.30,32.66,-78.12,4487,-6847,1454,-1,-1,-1
-153.30,32.65,-78.13,4483,-6843,1453,-1,-1,0
-153.29,32.66,-78.15,4486,-6848,1453,-1,-1,0
-153.28,32.65,-78.16,4485,-6848,1446,-1,-1,0
-153.28,32.65,-78.17,4485,-6855,1436,-1,-1,0
-153.27,32.65,-78.17,4488,-6850,1434,-1,0,0
-153.28,32.65,-78.17,4482,-6860,1437,-1,-1,-1
-153.28,32.65,-78.17,4488,-6855,1442,-1,-1,-1
-153.27,32.65,-78.17,4477,-6853,1452,-1,-1,-1
-153.27,32.65,-78.18,4478,-6854,1440,-1,-1,-1
-153.27,32.65,-78.19,4488,-6856,1437,-1,-1,-1
-153.27,32.65,-78.20,4490,-6857,1436,-1,0,-1
-153.27,32.65,-78.19,4492,-6848,1435,0,0,0
-153.27,32.65,-78.18,4488,-6854,1431,0,0,0
-153.27,32.65,-78.18,4485,-6856,1435,0,0,0
-153.27,32.65,-78.18,4488,-6849,1435,-1,-1,-1
-153.27,32.65,-78.18,4489,-6853,1448,-1,-1,0
-153.27,32.65,-78.20,4490,-6856,1446,-1,-1,0
-153.26,32.65,-78.22,4488,-6853,1442,-1,-1,0
-153.24,32.66,-78.24,4488,-6852,1431,-1,-1,0
-153.23,32.65,-78.26,4490,-6853,1419,-1,-1,0
-153.23,32.65,-78.27,4486,-6851,1419,-1,-1,0
-153.23,32.65,-78.27,4483,-6846,1416,-1,0,0
-153.23,32.65,-78.27,4482,-6849,1423,-1,0,0
-153.23,32.65,-78.27,4487,-6846,1421,-1,-1,0
-153.23,32.65,-78.28,4483,-6841,1428,-1,-1,0
-153.23,32.64,-78.28,4483,-6852,1422,-1,-1,0
-153.23,32.64,-78.29,4487,-6851,1421,-1,-1,0
-153.23,32.64,-78.29,4491,-6848,1434,-1,-1,0
-153.23,32.64,-78.30,4485,-6851,1428,-1,-1,0
-153.23,32.64,-78.31,4485,-6853,1424,-1,-1,0
-153.22,32.64,-78.31,4486,-6848,1427,-1,-1,0
-153.21,32.64,-78.33,4484,-6853,1432,-1,-1,0
-153.21,32.64,-78.34,4487,-6859,1412,-1,-1,0
-153.21,32.64,-78.34,4488,-6859,1419,-1,-1,0
-153.20,32.64,-78.35,4481,-6863,1419,-1,-1,0
-153.21,32.63,-78.35,4483,-6861,1422,-1,-1,0
-153.21,32.63,-78.35,4482,-6866,1417,-1,-1,0
-153.21,32.63,-78.35,4480,-6862,1417,-1,-1,0
-153.21,32.63,-78.36,4482,-6860,1418,-1,-1,0
-153.21,32.63,-78.36,4482,-6863,1416,-1,-1,0
-153.21,32.62,-78.37,4482,-6861,1406,-1,-1,0
-153.21,32.62,-78.38,4486,-6860,1409,-1,-1,0
-153.21,32.62,-78.38,4480,-6861,1419,-1,-1,0
-153.20,32.62,-78.39,4477,-6858,1417,-1,-1,0
-153.20,32.62,-78.39,4484,-6855,1412,-1,-1,-1
-153.19,32.62,-78.41,4489,-6852,1404,-1,-1,0
-153.19,32.62,-78.41,4485,-6851,1395,0,0,0
-153.20,32.62,-78.40,4480,-6855,1410,0,0,0
-153.20,32.62,-78.39,4475,-6856,1402,0,0,0
-153.21,32.62,-78.38,4478,-6858,1406,0,0,0
-153.22,32.62,-78.37,4473,-6863,1404,0,0,0
-153.23,32.61,-78.36,4479,-6866,1410,0,0,-1
-153.24,32.61,-78.34,4478,-6863,1425,0,0,0
-153.24,32.61,-78.34,4480,-6858,1428,-1,-1,-1
-153.23,32.61,-78.35,4481,-6858,1417,-1,-1,-1
-153.22,32.62,-78.36,4483,-6858,1414,-1,-1,0
-153.23,32.61,-78.36,4483,-6854,1413,0,0,0
-153.23,32.61,-78.35,4486,-6850,1415,0,0,0
-153.24,32.62,-78.34,4491,-6853,1409,0,0,0
-153.24,32.62,-78.33,4489,-6851,1417,0,0,-1
-153.25,32.62,-78.32,4490,-6853,1417,0,-1,0
-153.25,32.62,-78.32,4487,-6856,1424,0,0,0
-153.25,32.62,-78.31,4491,-6863,1420,0,0,0
-153.25,32.62,-78.30,4483,-6863,1420,0,0,-1
-153.26,32.61,-78.29,4478,-6865,1423,0,0,0
-153.27,32.61,-78.28,4478,-6866,1425,0,0,0
-153.28,32.61,-78.26,4480,-6864,1418,0,0,0
-153.28,32.61,-78.25,4483,-6864,1423,0,0,0
-153.29,32.61,-78.25,4488,-6862,1430,0,0,-1
-153.29,32.61,-78.24,4486,-6861,1425,0,-1,0
-153.29,32.61,-78.25,4483,-6859,1425,-1,-1,0
-153.29,32.61,-78.25,4480,-6850,1427,-1,-1,0
-153.28,32.61,-78.25,4478,-6855,1427,-1,-1,-1
-153.28,32.61,-78.25,4482,-6853,1421,0,0,0
-153.29,32.61,-78.25,4484,-6862,1425,0,0,0
-153.29,32.61,-78.24,4484,-6861,1434,0,0,0
-153.30,32.61,-78.22,4481,-6856,1442,0,0,-1
-153.30,32.61,-78.22,4479,-6853,1433,0,0,0
-153.30,32.61,-78.20,4482,-6854,1424,0,0,0
-153.31,32.62,-78.20,4488,-6854,1433,0,-1,-1
-153.31,32.61,-78.19,4492,-6857,1435,0,0,0
-153.32,32.61,-78.18,4488,-6853,1422,0,0,-1
-153.32,32.61,-78.18,4488,-6854,1426,0,0,0
-153.31,32.62,-78.18,4481,-6862,1430,-1,-1,-1
-153.31,32.62,-78.18,4485,-6849,1430,0,0,-1
-153.31,32.62,-78.18,4486,-6845,1430,0,0,-1
-153.31,32.62,-78.18,4487,-6847,1427,0,0,0
-153.32,32.62,-78.17,4484,-6849,1429,0,0,0
-153.32,32.62,-78.17,4482,-6850,1431,0,0,0
-153.32,32.62,-78.15,4478,-6852,1424,0,0,0
-153.33,32.62,-78.15,4478,-6850,1420,0,0,0
-153.34,32.62,-78.14,4471,-6847,1434,0,0,-1
-153.34,32.61,-78.13,4466,-6848,1435,0,-1,0
-153.35,32.61,-78.13,4471,-6850,1428,0,-1,-1
-153.34,32.62,-78.14,4481,-6856,1424,-1,0,-1
-153.34,32.62,-78.14,4485,-6863,1428,-1,0,-1
-153.34,32.62,-78.14,4489,-6854,1430,0,0,-1
-153.34,32.62,-78.14,4489,-6851,1428,0,0,-1
-153.34,32.62,-78.12,4489,-6852,1432,0,0,0
-153.34,32.62,-78.12,4486,-6844,1430,0,0,0
-153.34,32.62,-78.11,4484,-6854,1434,0,0,0
-153.35,32.62,-78.09,4475,-6845,1432,0,0,-1
-153.36,32.62,-78.08,4480,-6847,1437,0,0,-1
-153.36,32.62,-78.08,4483,-6853,1444,0,-1,-1
-153.36,32.62,-78.08,4484,-6860,1438,-1,-1,-1
-153.35,32.63,-78.09,4486,-6860,1428,-1,-1,-1
-153.35,32.63,-78.10,4487,-6862,1425,0,-1,-1
-153.35,32.63,-78.09,4484,-6864,1429,0,0,0
-153.35,32.63,-78.09,4484,-6859,1433,0,0,0
-153.35,32.63,-78.08,4481,-6858,1435,0,0,0
-153.36,32.63,-78.08,4481,-6856,1438,0,0,0
-153.36,32.63,-78.08,4484,-6852,1452,0,-1,-1
-153.36,32.63,-78.07,4488,-6857,1445,0,-1,-1
-153.36,32.63,-78.07,4484,-6853,1436,0,0,-1
-153.36,32.63,-78.07,4484,-6854,1436,0,0,-1
-153.36,32.63,-78.06,4490,-6849,1443,0,0,-1
-153.37,32.63,-78.04,4490,-6850,1443,0,0,0
-153.38,32.63,-78.03,4481,-6851,1433,0,0,-1
-153.38,32.63,-78.03,4485,-6850,1438,0,0,0
-153.38,32.63,-78.02,4490,-6849,1445,0,0,0
-153.38,32.63,-78.02,4488,-6858,1445,-1,-1,0
-153.38,32.63,-78.03,4487,-6855,1445,-1,-1,-1
-153.38,32.63,-78.03,4481,-6849,1439,-1,-1,0
-153.37,32.64,-78.03,4483,-6847,1438,0,0,0
-153.38,32.63,-78.03,4483,-6849,1444,0,0,-1
-153.38,32.63,-78.02,4484,-6846,1443,0,0,0
-153.38,32.63,-78.02,4481,-6843,1448,0,-1,0
-153.38,32.64,-78.01,4482,-6849,1442,0,0,-1
-153.39,32.63,-78.01,4486,-6849,1447,0,0,-1
-153.39,32.63,-78.00,4483,-6852,1441,0,0,-1
-153.39,32.64,-77.99,4484,-6857,1441,0,0,-1
-153.39,32.64,-77.99,4478,-6857,1443,0,0,-1
-153.40,32.64,-77.98,4478,-6847,1448,0,0,-1
-153.40,32.64,-77.97,4484,-6852,1449,0,0,-1
-153.40,32.64,-77.97,4480,-6852,1447,0,0,-1
-153.40,32.64,-77.97,4486,-6854,1447,0,0,-1
-153.40,32.64,-77.96,4488,-6848,1457,0,0,-1
-153.40,32.64,-77.95,4488,-6851,1451,0,0,-1
-153.41,32.65,-77.94,4485,-6850,1462,0,0,-1
-153.41,32.65,-77.94,4484,-6855,1454,0,0,-1
-153.41,32.65,-77.92,4490,-6853,1453,0,0,-1
-153.41,32.65,-77.91,4490,-6851,1454,0,0,-1
-153.42,32.65,-77.91,4490,-6845,1456,0,0,-1
-153.42,32.65,-77.91,4484,-6848,1464,-1,-1,-1
-153.42,32.65,-77.91,4479,-6855,1470,-1,-1,-1
-153.41,32.65,-77.92,4488,-6846,1467,-1,-1,-1
-153.41,32.65,-77.92,4489,-6843,1465,-1,-1,-1
-153.41,32.65,-77.93,4492,-6845,1461,-1,-1,-1
-153.41,32.65,-77.93,4485,-6843,1459,-1,0,0
-153.41,32.65,-77.94,4484,-6844,1452,-1,0,0
-153.40,32.65,-77.93,4484,-6847,1450,0,0,0
-153.41,32.65,-77.94,4486,-6851,1454,0,0,0
-153.41,32.65,-77.93,4483,-6848,1456,0,0,0
-153.41,32.65,-77.94,4480,-6851,1455,-1,0,0
-153.40,32.65,-77.93,4484,-6853,1467,-1,-1,0
-153.40,32.65,-77.95,4485,-6848,1461,-1,-1,0
-153.40,32.65,-77.96,4484,-6849,1457,-1,-1,0
-153.39,32.65,-77.97,4487,-6845,1454,-1,-1,0
-153.39,32.65,-77.97,4491,-6844,1457,-1,0,0
-153.39,32.65,-77.97,4485,-6848,1452,-1,-1,0
-153.38,32.65,-77.98,4486,-6855,1449,-1,-1,0
-153.38,32.65,-77.99,4482,-6856,1445,-1,-1,0
-153.38,32.65,-77.99,4483,-6854,1448,-1,-1,-1
-153.37,32.65,-78.00,4477,-6862,1449,-1,-1,0
-153.37,32.65,-78.00,4480,-6860,1450,-1,0,0
-153.38,32.64,-78.00,4482,-6857,1451,0,0,-1
-153.38,32.64,-78.00,4482,-6855,1442,0,0,0
-153.38,32.64,-78.00,4482,-6853,1442,0,0,0
-153.38,32.64,-78.00,4487,-6863,1445,0,0,-1
-153.38,32.64,-78.00,4486,-6859,1444,0,-1,0
-153.38,32.64,-78.00,4484,-6857,1442,-1,-1,0
-153.38,32.64,-78.01,4481,-6855,1451,-1,-1,-1
-153.37,32.64,-78.03,4481,-6858,1445,-1,-1,0
-153.36,32.64,-78.04,4482,-6861,1443,-1,-1,0
-153.36,32.64,-78.05,4485,-6860,1438,-1,-1,0
-153.36,32.64,-78.05,4483,-6863,1436,-1,0,0
-153.36,32.63,-78.06,4487,-6858,1441,-1,-1,-1
-153.35,32.64,-78.06,4484,-6849,1445,-1,0,0
-153.36,32.63,-78.06,4480,-6844,1448,0,-1,0
-153.36,32.63,-78.06,4488,-6849,1444,0,0,0
-153.36,32.63,-78.06,4484,-6850,1440,-1,-1,0
-153.35,32.64,-78.07,4485,-6850,1445,-1,-1,0
-153.34,32.64,-78.07,4488,-6851,1448,-1,-1,0
-153.34,32.64,-78.07,4487,-6853,1443,-1,-1,0
-153.34,32.64,-78.08,4487,-6855,1444,-1,-1,-1
-153.34,32.64,-78.08,4488,-6853,1436,-1,-1,0
-153.33,32.64,-78.10,4482,-6850,1441,-1,-1,0
-153.33,32.64,-78.11,4484,-6855,1428,-1,0,0
-153.32,32.65,-78.11,4482,-6853,1431,-1,0,-1
-153.32,32.65,-78.11,4488,-6853,1431,-1,0,-1
-153.32,32.65,-78.11,4488,-6850,1437,-1,-1,0
-153.32,32.64,-78.12,4488,-6850,1425,-1,-1,0
-153.32,32.64,-78.12,4481,-6853,1415,-1,-1,0
-153.32,32.64,-78.12,4484,-6856,1433,-1,-1,0
-153.31,32.65,-78.13,4488,-6852,1429,-1,-1,0
-153.31,32.64,-78.14,4488,-6854,1424,-1,-1,0
-153.30,32.64,-78.15,4486,-6850,1429,-1,-1,0
-153.30,32.64,-78.16,4480,-6854,1425,-1,-1,0
-153.29,32.64,-78.17,4482,-6856,1414,-1,-1,0
-153.29,32.64,-78.17,4489,-6859,1417,-1,-1,0
-153.29,32.64,-78.18,4489,-6859,1416,-1,-1,0
-153.29,32.64,-78.18,4488,-6858,1424,-1,-1,0
-153.29,32.64,-78.20,4478,-6861,1417,-1,-1,0
-153.29,32.63,-78.20,4473,-6862,1416,-1,-1,0
-153.29,32.63,-78.21,4475,-6859,1414,-1,-1,-1
-153.29,32.63,-78.21,4476,-6859,1407,-1,-1,-1
-153.29,32.63,-78.21,4476,-6862,1409,-1,-1,-1
-153.29,32.63,-78.21,4475,-6854,1414,0,0,0
-153.28,32.63,-78.22,4476,-6858,1417,0,-1,0
-153.29,32.62,-78.22,4475,-6854,1417,0,-1,0
-153.29,32.62,-78.22,4471,-6856,1411,0,0,0
-153.29,32.62,-78.22,4474,-6856,1411,0,-1,-1
-153.29,32.62,-78.22,4482,-6855,1422,-1,-1,-1
-153.29,32.62,-78.23,4482,-6860,1414,-1,-1,-1
-153.28,32.62,-78.25,4480,-6864,1410,-1,-1,-1
-153.27,32.63,-78.26,4475,-6862,1406,-1,-1,-1
-153.26,32.63,-78.27,4480,-6857,1406,-1,-1,-1
-153.26,32.63,-78.27,4481,-6856,1403,0,0,0
-153.27,32.63,-78.26,4485,-6861,1403,0,0,-1
-153.27,32.63,-78.25,4480,-6862,1409,0,0,0
-153.27,32.63,-78.25,4487,-6868,1405,0,-1,0
-153.27,32.63,-78.25,4481,-6867,1404,0,0,0
-153.28,32.62,-78.25,4485,-6864,1409,0,0,-1
-153.28,32.62,-78.25,4482,-6862,1406,0,0,0
-153.28,32.63,-78.24,4485,-6858,1405,0,0,0
-153.29,32.62,-78.23,4484,-6857,1411,0,0,0
-153.29,32.63,-78.22,4486,-6858,1416,0,0,0
-153.29,32.63,-78.22,4483,-6861,1421,0,0,-1
-153.30,32.62,-78.21,4479,-6861,1422,0,0,-1
-153.30,32.62,-78.21,4485,-6857,1420,0,-1,0
-153.30,32.62,-78.21,4481,-6862,1415,-1,-1,0
-153.29,32.63,-78.22,4481,-6861,1419,-1,-1,-1
-153.29,32.63,-78.21,4481,-6855,1421,0,-1,-1
-153.29,32.63,-78.21,4477,-6858,1416,0,0,0
-153.30,32.62,-78.21,4484,-6864,1412,0,0,0
-153.31,32.62,-78.20,4482,-6861,1409,0,0,0
-153.31,32.62,-78.20,4485,-6855,1417,0,0,0
-153.31,32.62,-78.19,4484,-6861,1418,0,0,0
-153.32,32.62,-78.18,4478,-6864,1424,0,0,0
-153.32,32.62,-78.18,4482,-6857,1426,0,0,0
-153.32,32.62,-78.17,4484,-6853,1424,0,0,-1
-153.32,32.62,-78.17,4480,-6852,1429,0,0,0
-153.33,32.62,-78.16,4479,-6852,1430,0,-1,0
-153.33,32.62,-78.17,4482,-6858,1428,-1,-1,0
-153.33,32.62,-78.17,4479,-6863,1423,-1,-1,-1
-153.33,32.62,-78.17,4482,-6862,1420,0,-1,0
-153.32,32.62,-78.17,4487,-6851,1420,0,0,0
-153.33,32.62,-78.16,4484,-6851,1413,0,0,0
-153.33,32.62,-78.16,4484,-6852,1419,0,0,0
-153.33,32.63,-78.15,4485,-6849,1414,0,0,0
-153.33,32.63,-78.15,4482,-6845,1414,0,0,0
-153.33,32.63,-78.15,4481,-6853,1412,0,0,0
-153.34,32.62,-78.14,4478,-6853,1421,0,0,0
-153.35,32.62,-78.13,4486,-6845,1435,0,-1,-1
-153.35,32.62,-78.13,4482,-6853,1433,0,0,0
-153.35,32.62,-78.13,4477,-6860,1427,0,0,0
-153.35,32.62,-78.13,4480,-6858,1431,0,0,0
-153.35,32.62,-78.12,4487,-6849,1442,0,-1,0
-153.35,32.62,-78.12,4481,-6850,1427,0,-1,0
-153.35,32.62,-78.12,4480,-6845,1421,0,0,-1
-153.35,32.62,-78.12,4478,-6849,1414,0,0,-1
-153.35,32.63,-78.12,4478,-6849,1419,0,0,-1
-153.35,32.63,-78.11,4481,-6849,1425,0,0,0
-153.36,32.62,-78.10,4479,-6854,1430,0,0,0
-153.37,32.62,-78.09,4476,-6852,1432,0,0,0
-153.38,32.62,-78.08,4477,-6860,1432,0,0,0
-153.38,32.62,-78.08,4474,-6856,1437,0,0,0
-153.39,32.62,-78.07,4472,-6855,1437,0,0,0
-153.39,32.62,-78.06,4476,-6858,1443,0,-1,-1
-153.38,32.62,-78.07,4483,-6851,1449,-1,-1,-1
-153.38,32.62,-78.08,4482,-6851,1446,-1,-1,-1
-153.38,32.62,-78.08,4484,-6854,1436,-1,-1,0
-153.38,32.62,-78.08,4483,-6850,1428,0,0,0
-153.38,32.62,-78.08,4486,-6857,1423,0,0,-1
-153.38,32.62,-78.07,4485,-6863,1423,0,0,0
-153.38,32.62,-78.07,4487,-6853,1435,0,0,-1
-153.39,32.62,-78.06,4489,-6855,1438,0,-1,0
-153.39,32.62,-78.06,4488,-6848,1442,0,-1,-1
-153.39,32.62,-78.05,4486,-6857,1438,0,0,0
-153.39,32.62,-78.05,4491,-6857,1439,0,0,0
-153.39,32.62,-78.04,4488,-6861,1438,0,0,0
-153.39,32.62,-78.04,4487,-6855,1429,0,0,0
-153.40,32.62,-78.03,4478,-6850,1431,0,0,0
-153.41,32.61,-78.03,4477,-6853,1434,0,-1,-1
-153.41,32.62,-78.02,4480,-6852,1450,0,0,0
-153.41,32.62,-78.02,4484,-6849,1446,-1,-1,-1
-153.40,32.62,-78.02,4477,-6848,1442,-1,-1,0
-153.40,32.62,-78.03,4476,-6850,1437,-1,-1,0
-153.40,32.62,-78.03,4481,-6853,1434,0,0,0
-153.40,32.62,-78.03,4483,-6852,1434,0,0,0
-153.41,32.62,-78.02,4485,-6856,1440,0,0,-1
-153.41,32.62,-78.01,4484,-6859,1444,0,0,0
-153.42,32.62,-78.00,4482,-6853,1445,0,0,0
-153.42,32.62,-77.99,4482,-6850,1446,0,0,-1
-153.43,32.62,-77.98,4485,-6856,1444,0,0,-1
-153.43,32.62,-77.98,4489,-6857,1441,0,0,0
-153.44,32.62,-77.97,4485,-6852,1440,0,0,-1
-153.44,32.62,-77.96,4486,-6855,1446,0,0,-1
-153.43,32.62,-77.97,4481,-6849,1442,0,-1,-1
-153.43,32.62,-77.97,4485,-6846,1448,0,-1,0
-153.44,32.62,-77.97,4476,-6852,1450,0,0,0
-153.44,32.62,-77.96,4479,-6855,1452,0,-1,-1
-153.44,32.62,-77.96,4479,-6863,1445,0,-1,-1
-153.44,32.62,-77.95,4476,-6855,1441,0,0,0
-153.44,32.62,-77.95,4477,-6856,1447,0,0,0
-153.45,32.62,-77.94,4479,-6855,1448,0,0,-1
-153.46,32.62,-77.94,4483,-6855,1447,0,0,-1
-153.46,32.62,-77.92,4481,-6850,1448,0,0,0
-153.47,32.62,-77.91,4480,-6856,1448,0,0,0
-153.47,32.62,-77.91,4487,-6857,1445,0,-1,0
-153.47,32.62,-77.91,4478,-6855,1453,-1,-1,0
-153.47,32.62,-77.91,4478,-6849,1446,0,0,-1
-153.47,32.62,-77.91,4479,-6849,1448,-1,-1,-1
-153.47,32.62,-77.91,4479,-6850,1461,0,0,0
-153.48,32.61,-77.90,4484,-6855,1465,0,0,0
-153.48,32.62,-77.89,4488,-6850,1466,0,0,0
-153.49,32.61,-77.89,4478,-6853,1452,0,0,0
-153.49,32.61,-77.88,4475,-6853,1449,0,0,0
-153.50,32.60,-77.88,4469,-6852,1450,0,0,0
-153.52,32.60,-77.86,4474,-6858,1469,0,0,0
-153.51,32.60,-77.87,4480,-6858,1471,-1,-1,0
-153.51,32.60,-77.88,4484,-6855,1462,-1,-1,0
-153.50,32.60,-77.89,4479,-6857,1460,-1,-1,0
-153.49,32.60,-77.90,4479,-6854,1450,-1,0,0
-153.49,32.60,-77.90,4474,-6857,1459,0,-1,0
-153.49,32.60,-77.90,4476,-6851,1469,-1,-1,0
-153.49,32.60,-77.90,4475,-6846,1473,-1,-1,0
-153.49,32.60,-77.92,4479,-6839,1464,-1,-1,0
-153.49,32.60,-77.92,4478,-6848,1459,-1,-1,0
-153.49,32.59,-77.92,4479,-6853,1452,-1,-1,-1
-153.49,32.59,-77.93,4485,-6858,1451,0,0,-1
-153.49,32.59,-77.92,4484,-6854,1449,0,0,-1
-153.49,32.59,-77.92,4471,-6854,1452,0,0,0
-153.49,32.59,-77.92,4473,-6863,1448,0,0,0
-153.50,32.58,-77.92,4476,-6860,1451,0,0,0
-153.50,32.59,-77.91,4475,-6851,1460,-1,-1,0
-153.49,32.59,-77.92,4476,-6845,1460,-1,-1,0
-153.49,32.59,-77.93,4477,-6843,1460,-1,-1,0
-153.48,32.59,-77.94,4477,-6845,1451,-1,-1,0
-153.47,32.59,-77.96,4477,-6844,1440,-1,-1,-1
-153.47,32.59,-77.97,4477,-6847,1438,-1,-1,0
-153.47,32.59,-77.97,4479,-6851,1447,0,-1,-1
-153.47,32.59,-77.97,4482,-6857,1447,0,0,0
-153.47,32.59,-77.97,4483,-6863,1448,0,0,0
-153.47,32.59,-77.97,4477,-6861,1437,0,0,-1
-153.47,32.59,-77.97,4470,-6857,1441,0,-1,0
-153.47,32.59,-77.97,4475,-6856,1449,-1,-1,0
-153.47,32.59,-77.97,4474,-6851,1457,-1,-1,0
-153.47,32.59,-77.97,4472,-6853,1451,-1,-1,0
-153.47,32.59,-77.97,4473,-6858,1461,-1,-1,0
-153.47,32.59,-77.98,4470,-6861,1451,-1,-1,0
-153.46,32.59,-77.99,4474,-6862,1441,-1,-1,-1
-153.46,32.59,-78.00,4475,-6863,1444,-1,-1,0
-153.45,32.59,-78.00,4475,-6854,1445,-1,-1,0
-153.45,32.59,-78.01,4476,-6859,1438,-1,-1,0
-153.45,32.59,-78.02,4476,-6858,1443,-1,-1,0
-153.44,32.59,-78.03,4475,-6859,1433,-1,-1,-1
-153.44,32.59,-78.03,4473,-6866,1427,0,0,0
-153.44,32.59,-78.04,4480,-6864,1429,-1,-1,-1
-153.44,32.59,-78.04,4486,-6857,1429,0,0,0
-153.44,32.59,-78.04,4482,-6854,1433,-1,-1,0
-153.44,32.59,-78.04,4477,-6859,1437,-1,-1,0
-153.44,32.58,-78.05,4470,-6862,1433,-1,-1,0
-153.44,32.58,-78.05,4469,-6863,1436,0,0,-1
-153.44,32.58,-78.05,4468,-6858,1450,-1,-1,-1
-153.44,32.58,-78.05,4470,-6861,1452,-1,0,-1
-153.44,32.58,-78.05,4473,-6860,1446,-1,-1,-1
-153.43,32.58,-78.06,4475,-6861,1453,-1,-1,-1
-153.42,32.58,-78.08,4469,-6859,1437,-1,-1,0
-153.41,32.58,-78.09,4475,-6851,1434,-1,-1,0
-153.41,32.59,-78.09,4475,-6855,1422,0,0,0
-153.41,32.58,-78.09,4469,-6857,1429,0,-1,-1
-153.42,32.58,-78.10,4469,-6857,1424,0,-1,0
-153.41,32.58,-78.10,4477,-6856,1429,-1,-1,0
-153.41,32.58,-78.10,4481,-6856,1433,-1,-1,0
-153.39,32.59,-78.12,4478,-6859,1431,-1,-1,-1
-153.39,32.59,-78.13,4480,-6855,1425,-1,-1,0
-153.39,32.59,-78.14,4480,-6857,1424,-1,-1,0
-153.39,32.58,-78.14,4481,-6862,1422,-1,-1,0
-153.39,32.58,-78.14,4478,-6861,1424,0,0,0
-153.39,32.58,-78.14,4482,-6860,1414,0,-1,0
-153.38,32.59,-78.15,4481,-6862,1421,-1,-1,-1
-153.38,32.59,-78.15,4480,-6860,1418,-1,-1,-1
-153.38,32.59,-78.16,4483,-6861,1421,-1,-1,-1
-153.37,32.59,-78.17,4487,-6866,1420,-1,-1,0
-153.37,32.59,-78.18,4482,-6863,1423,-1,-1,0
-153.37,32.59,-78.18,4476,-6863,1421,-1,-1,-1
-153.37,32.59,-78.19,4476,-6854,1417,0,0,-1
-153.37,32.59,-78.18,4478,-6851,1426,0,0,-1
-153.37,32.59,-78.18,4482,-6855,1420,0,0,-1
-153.37,32.59,-78.18,4478,-6857,1428,-1,-1,-1
-153.37,32.59,-78.18,4476,-6857,1427,0,-1,-1
-153.37,32.59,-78.18,4477,-6859,1425,0,-1,-1
-153.37,32.59,-78.18,4480,-6860,1424,0,0,-1
-153.37,32.59,-78.18,4475,-6861,1423,0,0,0
-153.37,32.59,-78.18,4468,-6859,1426,0,0,0
-153.37,32.59,-78.18,4473,-6854,1425,0,-1,0
-153.36,32.59,-78.18,4475,-6856,1414,0,-1,0
-153.36,32.59,-78.18,4481,-6863,1410,0,0,-1
-153.36,32.59,-78.18,4485,-6865,1405,0,-1,0
-153.36,32.59,-78.18,4483,-6855,1410,0,0,0
-153.37,32.59,-78.17,4476,-6856,1407,0,0,-1
-153.37,32.59,-78.16,4478,-6856,1423,0,0,-1
-153.38,32.60,-78.15,4477,-6852,1425,0,-1,0
-153.38,32.60,-78.15,4476,-6858,1431,0,-1,0
-153.38,32.60,-78.15,4476,-6858,1434,0,0,0
-153.38,32.60,-78.15,4480,-6856,1426,0,-1,-1
-153.38,32.60,-78.15,4479,-6853,1423,0,0,-1
-153.38,32.60,-78.14,4478,-6853,1430,0,0,0
-153.38,32.59,-78.14,4482,-6854,1426,0,0,0
-153.39,32.60,-78.14,4487,-6854,1417,0,0,0
-153.39,32.60,-78.13,4477,-6852,1418,0,0,-1
-153.40,32.60,-78.11,4478,-6854,1422,0,0,-1
-153.40,32.60,-78.10,4483,-6856,1437,0,0,-1
-153.40,32.60,-78.10,4479,-6854,1438,-1,-1,0
-153.40,32.60,-78.10,4477,-6852,1444,-1,-1,-1
-153.40,32.60,-78.11,4480,-6853,1431,-1,-1,-1
-153.40,32.60,-78.11,4481,-6854,1429,0,0,-1
-153.40,32.60,-78.11,4488,-6858,1424,0,0,0
-153.40,32.60,-78.10,4487,-6862,1432,0,0,-1
-153.40,32.60,-78.09,4475,-6863,1433,0,0,0
-153.41,32.60,-78.08,4471,-6862,1430,0,0,0
-153.41,32.60,-78.08,4474,-6854,1432,0,-1,-1
-153.40,32.60,-78.09,4473,-6855,1434,0,-1,-1
-153.40,32.60,-78.09,4476,-6854,1432,0,0,0
-153.41,32.60,-78.08,4468,-6859,1431,0,0,-1
-153.41,32.60,-78.08,4475,-6862,1429,0,0,0
-153.42,32.60,-78.07,4479,-6856,1428,0,0,0
-153.43,32.59,-78.06,4474,-6851,1441,0,0,-1
-153.43,32.59,-78.05,4473,-6858,1450,0,0,-1
-153.44,32.60,-78.04,4481,-6858,1446,0,-1,-1
-153.43,32.59,-78.05,4481,-6852,1443,-1,-1,-1
-153.43,32.59,-78.05,4477,-6859,1441,-1,-1,-1
-153.43,32.59,-78.06,4479,-6852,1433,-1,-1,0
-153.42,32.60,-78.07,4478,-6856,1423,-1,-1,-1
-153.42,32.59,-78.07,4478,-6857,1427,0,0,0
-153.42,32.59,-78.07,4471,-6853,1436,0,-1,-1
-153.43,32.59,-78.06,4474,-6853,1440,0,0,0
-153.43,32.59,-78.06,4475,-6851,1443,0,0,0
-153.43,32.59,-78.05,4475,-6855,1433,0,0,-1
-153.43,32.59,-78.05,4477,-6853,1426,0,0,0
-153.43,32.59,-78.05,4479,-6856,1429,0,0,0
-153.43,32.59,-78.05,4483,-6853,1436,0,0,0
-153.44,32.59,-78.05,4480,-6853,1443,0,-1,-1
-153.44,32.59,-78.05,4483,-6857,1440,-1,-1,0
-153.44,32.59,-78.05,4481,-6856,1446,-1,-1,0
-153.44,32.59,-78.06,4476,-6851,1444,-1,-1,0
-153.43,32.59,-78.06,4477,-6844,1437,-1,0,0
-153.43,32.59,-78.06,4480,-6849,1435,0,0,-1
-153.43,32.59,-78.06,4478,-6849,1431,0,0,0
-153.43,32.59,-78.06,4480,-6849,1435,0,0,0
-153.44,32.59,-78.05,4478,-6855,1444,0,0,-1
-153.44,32.59,-78.05,4477,-6849,1447,0,0,0
-153.44,32.59,-78.04,4473,-6853,1440,0,0,0
-153.44,32.59,-78.04,4475,-6853,1436,0,0,-1
-153.45,32.59,-78.04,4470,-6856,1444,0,-1,-1
-153.44,32.58,-78.05,4467,-6857,1447,-1,-1,0
-153.44,32.58,-78.05,4473,-6862,1448,-1,-1,0
-153.44,32.58,-78.06,4470,-6854,1441,-1,-1,-1
-153.44,32.59,-78.06,4475,-6851,1439,0,-1,-1
-153.43,32.59,-78.06,4483,-6853,1444,0,0,-1
-153.43,32.59,-78.06,4480,-6857,1438,0,0,0
-153.44,32.58,-78.05,4478,-6858,1441,0,0,0
-153.45,32.59,-78.04,4472,-6851,1439,0,0,0
-153.45,32.59,-78.04,4467,-6853,1436,0,0,-1
-153.46,32.59,-78.02,4469,-6854,1447,0,0,-1
-153.47,32.58,-78.02,4474,-6860,1451,0,0,0
-153.47,32.58,-78.02,4477,-6863,1448,-1,-1,-1
-153.45,32.59,-78.03,4474,-6859,1448,-1,-1,-1
-153.45,32.59,-78.04,4480,-6852,1446,-1,-1,-1
-153.44,32.59,-78.05,4485,-6851,1449,-1,0,-1
-153.44,32.60,-78.05,4484,-6856,1446,0,0,-1
-153.45,32.59,-78.03,4484,-6859,1455,0,0,0
-153.45,32.59,-78.03,4476,-6855,1458,0,0,-1
-153.45,32.59,-78.02,4481,-6852,1453,0,0,-1
-153.45,32.59,-78.02,4485,-6850,1451,0,0,0
-153.45,32.59,-78.02,4482,-6850,1448,0,-1,0
-153.45,32.59,-78.02,4481,-6854,1439,0,0,-1
-153.45,32.59,-78.02,4478,-6863,1443,0,0,-1
-153.46,32.59,-78.01,4478,-6859,1441,0,0,-1
-153.47,32.59,-78.00,4470,-6854,1450,0,0,0
-153.47,32.59,-77.99,4473,-6854,1463,0,0,0
-153.48,32.59,-77.98,4477,-6855,1459,0,0,0
-153.48,32.59,-77.98,4467,-6851,1465,-1,-1,-1
-153.47,32.59,-77.99,4466,-6850,1460,-1,-1,0
-153.47,32.59,-78.00,4474,-6853,1451,-1,-1,0
-153.47,32.59,-78.00,4483,-6850,1448,-1,-1,0
-153.46,32.59,-78.01,4491,-6844,1446,-1,-1,-1
-153.46,32.59,-78.01,4483,-6843,1450,0,0,0
-153.47,32.59,-78.00,4486,-6852,1449,0,0,0
-153.47,32.59,-78.00,4488,-6849,1441,0,0,-1
-153.47,32.59,-77.98,4486,-6851,1451,0,0,0
-153.48,32.59,-77.98,4481,-6846,1453,0,0,-1
-153.48,32.59,-77.97,4465,-6845,1450,0,0,-1
-153.49,32.59,-77.96,4471,-6849,1447,0,0,-1
-153.49,32.59,-77.94,4478,-6848,1462,0,0,-1
-153.49,32.59,-77.94,4474,-6853,1463,0,-1,-1
-153.49,32.59,-77.94,4477,-6850,1464,-1,-1,-1
-153.49,32.59,-77.94,4483,-6858,1463,-1,-1,-1
-153.49,32.59,-77.95,4488,-6856,1455,0,-1,-1
-153.49,32.59,-77.95,4484,-6853,1458,0,0,-1
-153.49,32.59,-77.94,4486,-6852,1455,0,0,-1
-153.49,32.59,-77.94,4480,-6858,1452,0,0,-1
-153.49,32.59,-77.94,4476,-6856,1450,0,0,-1
-153.49,32.60,-77.93,4480,-6855,1458,0,0,0
-153.50,32.59,-77.93,4478,-6859,1464,-1,0,0
-153.50,32.59,-77.94,4478,-6850,1461,-1,-1,-1
-153.49,32.59,-77.94,4481,-6848,1461,-1,-1,0
-153.49,32.59,-77.95,4480,-6848,1459,-1,-1,0
-153.49,32.59,-77.95,4481,-6851,1456,-1,-1,-1
-153.48,32.59,-77.96,4477,-6844,1466,-1,-1,-1
-153.48,32.59,-77.97,4472,-6846,1465,-1,-1,0
-153.48,32.59,-77.98,4477,-6848,1456,-1,-1,0
-153.46,32.60,-78.00,4478,-6857,1447,-1,-1,-1
-153.46,32.60,-78.00,4481,-6847,1454,-1,0,-1
-153.46,32.60,-78.01,4479,-6848,1448,0,0,0
-153.46,32.60,-78.01,4481,-6848,1446,0,0,0
-153.46,32.60,-78.00,4477,-6842,1449,0,0,0
-153.46,32.59,-78.00,4470,-6846,1445,0,0,0
-153.47,32.59,-78.00,4472,-6853,1446,0,0,0
-153.47,32.59,-77.99,4471,-6854,1453,0,0,-1
-153.47,32.59,-77.99,4476,-6850,1460,-1,-1,-1
-153.46,32.59,-78.00,4476,-6861,1465,-1,-1,-1
-153.46,32.59,-78.02,4479,-6857,1461,-1,-1,-1
-153.44,32.59,-78.03,4486,-6852,1447,-1,-1,0
-153.44,32.59,-78.04,4486,-6851,1438,-1,0,0
-153.43,32.59,-78.05,4482,-6852,1432,-1,-1,0
-153.44,32.59,-78.05,4473,-6849,1438,0,0,0
-153.44,32.59,-78.05,4480,-6845,1440,0,0,0
-153.44,32.59,-78.05,4480,-6851,1450,0,0,0
-153.44,32.59,-78.05,4481,-6848,1452,-1,-1,0
-153.43,32.59,-78.06,4486,-6850,1448,-1,-1,0
-153.42,32.60,-78.06,4485,-6857,1447,-1,0,0
-153.43,32.59,-78.06,4479,-6853,1456,0,0,-1
-153.43,32.59,-78.06,4480,-6857,1445,0,0,0
-153.43,32.59,-78.06,4476,-6852,1446,0,0,0
-153.43,32.59,-78.06,4477,-6853,1443,0,0,0
-153.43,32.59,-78.06,4475,-6855,1452,-1,-1,-1
-153.43,32.59,-78.07,4481,-6851,1448,-1,-1,0
-153.42,32.59,-78.08,4479,-6851,1455,-1,-1,0
-153.42,32.59,-78.10,4479,-6850,1445,-1,-1,0
-153.41,32.59,-78.11,4478,-6851,1444,-1,-1,0
-153.40,32.60,-78.12,4471,-6846,1437,-1,-1,0
-153.40,32.59,-78.12,4472,-6845,1447,-1,-1,0
-153.41,32.59,-78.11,4471,-6851,1440,0,0,-1
-153.41,32.59,-78.11,4480,-6850,1438,-1,-1,0
-153.41,32.59,-78.11,4477,-6852,1442,-1,0,-1
-153.40,32.59,-78.12,4473,-6853,1440,-1,0,-1
-153.40,32.59,-78.12,4477,-6854,1437,-1,-1,0
-153.40,32.59,-78.12,4479,-6855,1433,-1,-1,0
-153.40,32.59,-78.13,4483,-6855,1437,-1,-1,-1
-153.39,32.59,-78.14,4481,-6854,1446,-1,-1,0
-153.39,32.59,-78.15,4480,-6856,1436,-1,-1,0
-153.39,32.59,-78.15,4482,-6854,1435,-1,-1,0
-153.38,32.59,-78.17,4487,-6853,1438,-1,-1,-1
-153.37,32.59,-78.18,4484,-6854,1432,-1,-1,0
-153.37,32.59,-78.18,4478,-6854,1432,-1,-1,0
-153.37,32.59,-78.19,4476,-6857,1429,-1,0,0
-153.37,32.58,-78.20,4468,-6865,1422,-1,-1,0
-153.37,32.58,-78.20,4471,-6866,1419,-1,0,0
-153.37,32.58,-78.20,4475,-6864,1430,0,0,0
-153.38,32.57,-78.20,4480,-6861,1436,-1,-1,0
-153.38,32.57,-78.21,4472,-6860,1448,-1,-1,0
-153.38,32.57,-78.22,4471,-6866,1439,-1,-1,0
-153.36,32.57,-78.25,4474,-6868,1429,-1,-1,0
-153.35,32.58,-78.26,4484,-6864,1417,-1,-1,-1
-153.35,32.57,-78.27,4479,-6856,1418,-1,0,-1
-153.35,32.57,-78.27,4476,-6852,1413,-1,0,0
-153.35,32.57,-78.27,4480,-6848,1415,-1,0,0
-153.34,32.57,-78.28,4475,-6854,1413,-1,-1,0
-153.36,32.56,-78.27,4468,-6857,1410,0,-1,0
-153.36,32.56,-78.27,4472,-6860,1406,0,0,0
-153.36,32.56,-78.27,4479,-6858,1413,0,-1,0
-153.36,32.56,-78.27,4473,-6863,1428,-1,-1,0
-153.35,32.56,-78.28,4475,-6860,1426,-1,-1,0
-153.34,32.56,-78.30,4480,-6855,1420,-1,-1,0
-153.33,32.57,-78.31,4484,-6853,1418,-1,-1,0
-153.33,32.57,-78.31,4477,-6860,1416,0,0,0
-153.34,32.56,-78.30,4477,-6862,1426,0,0,0
-153.34,32.56,-78.30,4477,-6870,1431,0,-1,0
-153.35,32.56,-78.30,4477,-6866,1427,0,-1,0
-153.35,32.56,-78.30,4474,-6861,1424,0,-1,-1
-153.35,32.56,-78.30,4474,-6863,1421,0,-1,0
-153.35,32.56,-78.30,4471,-6858,1420,0,0,-1
-153.35,32.56,-78.29,4475,-6860,1426,0,0,-1
-153.35,32.56,-78.28,4472,-6858,1420,0,0,-1
-153.36,32.56,-78.27,4466,-6861,1422,0,0,0
-153.37,32.56,-78.26,4471,-6862,1424,0,0,0
-153.37,32.56,-78.25,4479,-6855,1428,0,0,-1
-153.37,32.56,-78.25,4478,-6861,1433,0,-1,0
-153.37,32.56,-78.25,4472,-6861,1429,-1,-1,0
-153.37,32.56,-78.26,4478,-6855,1425,-1,-1,0
-153.37,32.56,-78.26,4480,-6860,1419,-1,-1,0
-153.36,32.56,-78.27,4485,-6855,1416,0,-1,0
-153.37,32.56,-78.26,4484,-6856,1416,0,0,0
-153.37,32.56,-78.26,4483,-6858,1415,0,0,0
-153.37,32.57,-78.25,4479,-6860,1415,0,0,0
-153.38,32.56,-78.25,4480,-6857,1415,0,0,0
-153.38,32.56,-78.24,4479,-6863,1414,0,0,0
-153.38,32.56,-78.24,4477,-6860,1422,0,0,0
-153.39,32.56,-78.23,4474,-6864,1429,0,0,0
-153.39,32.56,-78.23,4466,-6856,1419,0,-1,0
-153.39,32.56,-78.23,4468,-6858,1428,0,-1,0
-153.39,32.56,-78.23,4469,-6858,1425,-1,-1,0
-153.39,32.56,-78.23,4470,-6857,1433,-1,-1,-1
-153.39,32.56,-78.23,4474,-6859,1428,-1,-1,0
-153.39,32.55,-78.24,4467,-6860,1423,0,0,0
-153.39,32.56,-78.23,4468,-6860,1421,0,0,-1
-153.39,32.56,-78.23,4476,-6855,1423,0,0,0
-153.39,32.56,-78.22,4475,-6859,1430,0,-1,0
-153.40,32.55,-78.22,4477,-6856,1431,0,0,-1
-153.40,32.55,-78.21,4473,-6858,1432,0,-1,-1
-153.40,32.56,-78.21,4481,-6861,1435,0,0,0
-153.40,32.56,-78.21,4479,-6865,1429,0,0,0
-153.40,32.56,-78.21,4476,-6862,1422,0,0,0
-153.40,32.56,-78.21,4472,-6857,1423,0,-1,0
-153.40,32.56,-78.21,4469,-6864,1429,0,0,0
-153.41,32.55,-78.20,4465,-6864,1422,0,0,-1
-153.41,32.55,-78.20,4471,-6866,1428,0,0,-1
-153.41,32.55,-78.20,4471,-6864,1439,0,0,-1
-153.41,32.55,-78.18,4474,-6864,1445,-1,-1,-1
-153.41,32.55,-78.18,4478,-6858,1441,-1,-1,0
-153.41,32.55,-78.20,4474,-6861,1440,-1,0,0
-153.41,32.55,-78.19,4473,-6855,1441,0,0,0
-153.42,32.55,-78.18,4472,-6853,1437,0,0,0
-153.42,32.55,-78.17,4475,-6856,1438,0,0,0
-153.42,32.55,-78.17,4475,-6858,1432,0,0,0
-153.43,32.55,-78.16,4477,-6857,1435,0,-1,0
-153.43,32.55,-78.17,4479,-6860,1439,-1,-1,0
-153.42,32.55,-78.17,4476,-6853,1443,-1,-1,0
-153.42,32.55,-78.17,4466,-6856,1440,-1,-1,0
-153.42,32.55,-78.17,4471,-6856,1436,0,0,0
-153.42,32.55,-78.17,4472,-6862,1433,0,0,-1
-153.43,32.55,-78.16,4472,-6865,1441,0,0,0
-153.44,32.55,-78.15,4473,-6860,1446,0,0,-1
-153.44,32.55,-78.14,4469,-6862,1454,0,0,-1
-153.44,32.55,-78.14,4472,-6859,1459,0,0,-1
-153.44,32.55,-78.14,4468,-6857,1456,-1,-1,0
-153.44,32.55,-78.14,4475,-6857,1448,-1,-1,-1
-153.44,32.55,-78.15,4474,-6861,1436,-1,-1,-1
-153.44,32.55,-78.15,4472,-6863,1440,0,0,0
-153.44,32.55,-78.14,4469,-6864,1445,0,-1,0
-153.44,32.55,-78.14,4469,-6859,1446,0,0,0
-153.44,32.55,-78.14,4468,-6855,1444,0,0,-1
-153.45,32.55,-78.13,4469,-6859,1439,0,-1,-1
-153.45,32.55,-78.13,4479,-6860,1444,0,-1,0
-153.46,32.54,-78.12,4473,-6861,1454,0,0,0
-153.46,32.54,-78.12,4467,-6860,1446,0,0,0
-153.46,32.54,-78.12,4471,-6855,1445,0,0,-1
-153.45,32.55,-78.12,4477,-6854,1436,0,0,-1
-153.45,32.55,-78.12,4480,-6859,1441,0,0,-1
-153.46,32.55,-78.11,4471,-6858,1439,0,0,-1
-153.46,32.55,-78.11,4477,-6855,1444,0,-1,-1
-153.46,32.55,-78.11,4482,-6855,1442,0,0,0
-153.46,32.55,-78.11,4480,-6847,1451,0,-1,-1
-153.45,32.56,-78.10,4480,-6847,1453,0,-1,-1
-153.46,32.55,-78.11,4476,-6857,1444,0,0,0
-153.45,32.56,-78.10,4469,-6859,1440,0,0,-1
-153.45,32.56,-78.10,4477,-6853,1433,0,-1,-1
-153.45,32.56,-78.11,4480,-6852,1437,0,0,-1
-153.44,32.57,-78.10,4487,-6850,1442,0,0,-1
-153.45,32.56,-78.09,4480,-6861,1445,0,0,0
-153.45,32.57,-78.09,4480,-6855,1440,0,0,0
-153.46,32.56,-78.08,4478,-6864,1444,0,0,-1
-153.46,32.56,-78.07,4477,-6864,1442,0,0,-1
-153.46,32.56,-78.07,4472,-6860,1450,0,0,0
-153.46,32.56,-78.07,4471,-6854,1460,-1,-1,-1
-153.46,32.56,-78.07,4473,-6851,1456,-1,-1,-1
-153.46,32.57,-78.08,4472,-6847,1446,-1,-1,-1
-153.45,32.57,-78.08,4474,-6852,1446,0,0,-1
-153.45,32.57,-78.08,4481,-6856,1444,0,0,-1
-153.45,32.57,-78.07,4479,-6861,1446,0,0,0
-153.46,32.57,-78.06,4481,-6855,1454,0,0,0
-153.47,32.57,-78.05,4478,-6855,1461,0,0,0
-153.47,32.57,-78.05,4475,-6854,1465,0,-1,0
-153.47,32.57,-78.05,4483,-6856,1457,0,-1,-1
-153.46,32.57,-78.05,4481,-6860,1455,0,0,-1
-153.47,32.57,-78.04,4473,-6855,1440,0,0,-1
-153.48,32.57,-78.03,4472,-6861,1439,0,0,-1
-153.48,32.58,-78.01,4471,-6856,1463,0,0,-1
-153.49,32.58,-78.00,4472,-6852,1470,0,0,0
-153.50,32.57,-77.98,4478,-6847,1470,0,0,0
-153.50,32.57,-77.97,4474,-6851,1478,0,0,0
-153.50,32.57,-77.97,4480,-6854,1483,-1,-1,-1
-153.50,32.57,-77.98,4472,-6853,1475,-1,-1,0
-153.50,32.57,-77.99,4469,-6851,1465,-1,-1,0
-153.50,32.57,-78.00,4468,-6852,1462,-1,-1,0
-153.49,32.57,-78.00,4472,-6857,1460,-1,-1,0
-153.49,32.57,-78.00,4477,-6859,1458,-1,0,0
-153.50,32.56,-78.00,4475,-6850,1462,-1,0,0
-153.50,32.56,-78.00,4477,-6853,1470,-1,0,0
-153.49,32.57,-78.00,4475,-6852,1458,-1,0,0
-153.49,32.56,-78.01,4470,-6854,1451,-1,-1,0
-153.49,32.56,-78.01,4469,-6851,1459,-1,-1,-1
-153.49,32.56,-78.03,4468,-6854,1457,-1,0,0
-153.49,32.56,-78.03,4471,-6855,1464,-1,-1,-1
-153.48,32.56,-78.03,4473,-6854,1464,-1,-1,-1
-153.48,32.56,-78.04,4479,-6859,1463,-1,-1,-1
-153.47,32.56,-78.05,4479,-6857,1455,-1,-1,0
-153.46,32.56,-78.07,4480,-6852,1449,-1,-1,0
-153.46,32.57,-78.07,4484,-6854,1453,-1,-1,0
-153.46,32.57,-78.07,4479,-6852,1446,-1,0,0
-153.46,32.57,-78.07,4476,-6851,1456,-1,-1,0
-153.46,32.56,-78.07,4478,-6857,1456,-1,0,0
-153.46,32.56,-78.06,4476,-6853,1460,0,0,-1
-153.46,32.56,-78.06,4478,-6848,1459,-1,0,-1
-153.46,32.56,-78.07,4479,-6849,1468,-1,-1,-1
-153.45,32.56,-78.08,4470,-6858,1453,-1,-1,-1
-153.44,32.57,-78.09,4475,-6858,1448,-1,-1,-1
-153.44,32.56,-78.10,4478,-6851,1447,-1,-1,0
-153.43,32.57,-78.11,4479,-6847,1450,-1,-1,0
-153.43,32.57,-78.12,4472,-6855,1440,-1,-1,0
-153.43,32.57,-78.12,4470,-6851,1441,0,0,0
-153.43,32.57,-78.12,4474,-6851,1436,-1,-1,0
-153.44,32.56,-78.11,4475,-6851,1435,0,0,0
-153.44,32.56,-78.11,4463,-6856,1440,0,0,-1
-153.44,32.56,-78.11,4474,-6854,1450,-1,-1,0
-153.42,32.57,-78.12,4487,-6853,1450,-1,-1,-1
-153.42,32.57,-78.13,4477,-6841,1449,-1,-1,0
-153.41,32.57,-78.15,4473,-6846,1447,-1,-1,0
-153.40,32.57,-78.16,4476,-6855,1425,-1,-1,0
-153.40,32.57,-78.17,4476,-6852,1426,-1,-1,0
-153.39,32.57,-78.18,4478,-6852,1425,-1,0,0
-153.39,32.58,-78.18,4477,-6857,1433,-1,-1,0
-153.38,32.57,-78.19,4483,-6859,1439,-1,-1,0
-153.38,32.57,-78.19,4480,-6859,1436,-1,-1,-1
-153.38,32.57,-78.20,4470,-6849,1436,-1,-1,0
-153.38,32.57,-78.20,4471,-6850,1441,-1,-1,0
-153.38,32.57,-78.20,4475,-6849,1444,0,0,-1
-153.37,32.58,-78.20,4481,-6854,1439,0,-1,-1
-153.38,32.57,-78.20,4475,-6861,1426,0,-1,0
-153.38,32.57,-78.20,4479,-6865,1423,-1,0,0
-153.38,32.57,-78.20,4476,-6870,1437,-1,-1,0
-153.38,32.57,-78.21,4473,-6868,1447,-1,-1,0
-153.38,32.57,-78.21,4474,-6865,1443,-1,-1,-1
-153.37,32.57,-78.23,4477,-6862,1433,-1,-1,0
-153.36,32.57,-78.24,4477,-6855,1427,-1,-1,0
-153.35,32.57,-78.26,4476,-6854,1424,-1,-1,0
-153.35,32.57,-78.27,4479,-6853,1420,-1,-1,-1
-153.34,32.57,-78.28,4480,-6856,1431,-1,-1,0
-153.34,32.57,-78.28,4480,-6856,1428,-1,-1,0
-153.34,32.57,-78.28,4479,-6852,1422,0,0,0
-153.34,32.57,-78.28,4473,-6854,1425,-1,-1,0
-153.34,32.57,-78.29,4473,-6857,1425,-1,-1,0
-153.34,32.57,-78.29,4473,-6857,1426,-1,-1,0
-153.34,32.57,-78.29,4476,-6856,1431,-1,-1,0
-153.34,32.57,-78.29,4468,-6852,1431,-1,-1,0
-153.34,32.57,-78.30,4468,-6855,1427,-1,-1,-1
-153.33,32.57,-78.31,4467,-6858,1427,-1,-1,0
-153.33,32.57,-78.32,4471,-6856,1422,-1,-1,0
-153.32,32.57,-78.33,4473,-6860,1422,-1,-1,0
-153.32,32.57,-78.33,4481,-6863,1421,-1,-1,0
-153.32,32.57,-78.34,4473,-6863,1425,-1,-1,0
-153.32,32.57,-78.34,4472,-6867,1425,-1,-1,0
-153.32,32.57,-78.34,4475,-6868,1419,-1,-1,0
-153.32,32.57,-78.34,4480,-6863,1416,-1,-1,0
-153.32,32.57,-78.34,4482,-6867,1412,0,-1,-1
-153.32,32.57,-78.34,4481,-6859,1419,-1,-1,0
-153.32,32.57,-78.34,4479,-6858,1409,-1,-1,0
-153.31,32.57,-78.35,4480,-6860,1411,-1,-1,-1
-153.31,32.57,-78.35,4478,-6861,1416,0,-1,-1
-153.31,32.57,-78.35,4473,-6863,1418,-1,-1,0
-153.31,32.57,-78.35,4477,-6865,1420,-1,-1,0
-153.31,32.57,-78.35,4478,-6867,1416,0,0,-1
-153.31,32.57,-78.35,4470,-6866,1417,0,0,-1
-153.31,32.57,-78.35,4476,-6862,1413,0,0,0
-153.31,32.57,-78.35,4475,-6863,1409,0,0,-1
-153.32,32.57,-78.34,4479,-6860,1408,0,0,-1
-153.32,32.57,-78.33,4475,-6862,1408,0,0,0
-153.33,32.57,-78.32,4476,-6861,1409,0,0,0
-153.33,32.57,-78.31,4471,-6864,1413,0,0,0
-153.34,32.56,-78.30,4466,-6861,1417,0,0,0
-153.35,32.56,-78.28,4470,-6863,1419,0,0,-1
-153.36,32.56,-78.28,4468,-6867,1426,0,-1,0
-153.36,32.56,-78.28,4471,-6860,1429,-1,-1,0
-153.35,32.56,-78.29,4476,-6858,1428,-1,-1,0
-153.35,32.56,-78.30,4472,-6864,1416,-1,0,0
-153.34,32.56,-78.30,4470,-6864,1416,0,0,-1
-153.36,32.55,-78.29,4473,-6862,1417,0,0,0
-153.36,32.56,-78.28,4472,-6865,1415,0,0,-1
-153.36,32.56,-78.28,4468,-6860,1415,0,0,-1
-153.36,32.56,-78.28,4468,-6856,1416,0,-1,0
-153.36,32.55,-78.28,4467,-6860,1417,0,0,0
-153.37,32.55,-78.27,4469,-6862,1414,0,0,0
-153.37,32.55,-78.27,4472,-6858,1418,0,0,0
-153.38,32.55,-78.26,4471,-6860,1414,0,0,-1
-153.38,32.55,-78.26,4475,-6860,1423,0,0,0
-153.38,32.55,-78.25,4481,-6862,1430,0,0,0
-153.38,32.56,-78.24,4478,-6861,1426,0,0,0
-153.39,32.55,-78.24,4476,-6862,1428,0,-1,0
-153.39,32.55,-78.24,4477,-6864,1439,-1,-1,0
-153.39,32.55,-78.24,4479,-6861,1436,-1,-1,0
-153.38,32.55,-78.25,4473,-6863,1426,-1,-1,0
-153.38,32.55,-78.25,4471,-6866,1417,0,0,-1
-153.38,32.55,-78.25,4472,-6862,1413,0,0,0
-153.39,32.55,-78.24,4465,-6859,1420,0,0,0
-153.39,32.55,-78.24,4473,-6860,1423,0,0,-1
-153.40,32.55,-78.22,4479,-6858,1440,0,0,0
-153.40,32.55,-78.21,4480,-6859,1432,0,0,-1
-153.40,32.55,-78.21,4471,-6860,1438,0,0,0
-153.42,32.55,-78.20,4469,-6860,1437,0,0,0
-153.42,32.54,-78.19,4475,-6857,1447,0,0,-1
-153.42,32.55,-78.18,4473,-6861,1438,0,0,0
-153.42,32.55,-78.18,4472,-6865,1439,-1,0,0
-153.42,32.54,-78.19,4470,-6869,1436,-1,-1,0
-153.42,32.55,-78.20,4470,-6861,1431,0,-1,-1
-153.42,32.54,-78.19,4469,-6859,1430,0,0,0
-153.42,32.55,-78.18,4470,-6864,1436,0,0,0
-153.42,32.54,-78.18,4466,-6859,1439,0,0,-1
-153.42,32.54,-78.18,4470,-6858,1424,0,0,0
-153.43,32.54,-78.17,4477,-6858,1430,0,0,0
-153.43,32.54,-78.17,4474,-6863,1431,0,0,0
-153.44,32.54,-78.16,4475,-6861,1433,0,0,0
-153.44,32.54,-78.15,4476,-6858,1442,0,0,0
-153.44,32.54,-78.15,4471,-6857,1454,-1,-1,0
-153.45,32.54,-78.15,4473,-6856,1448,-1,-1,-1
-153.45,32.54,-78.15,4472,-6856,1441,-1,0,0
-153.45,32.54,-78.15,4473,-6856,1436,-1,-1,-1
-153.44,32.54,-78.16,4478,-6857,1428,0,0,-1
-153.44,32.54,-78.15,4478,-6859,1433,0,0,0
-153.44,32.55,-78.14,4475,-6856,1435,0,0,-1
-153.45,32.54,-78.14,4471,-6862,1434,0,0,0
-153.46,32.54,-78.12,4471,-6864,1440,0,0,0
-153.47,32.53,-78.11,4471,-6859,1442,0,0,0
-153.48,32.53,-78.10,4465,-6862,1447,0,0,0
-153.49,32.53,-78.09,4466,-6860,1453,0,0,0
-153.49,32.53,-78.09,4468,-6864,1464,-1,0,0
-153.49,32.53,-78.09,4466,-6867,1461,-1,-1,0
-153.49,32.52,-78.10,4464,-6864,1463,-1,-1,0
-153.49,32.52,-78.10,4460,-6863,1450,-1,-1,0
-153.49,32.52,-78.10,4467,-6858,1441,0,0,0
-153.49,32.52,-78.10,4474,-6854,1437,0,-1,0
-153.49,32.52,-78.10,4472,-6854,1446,0,-1,0
-153.49,32.52,-78.10,4471,-6860,1447,0,-1,-1
-153.50,32.52,-78.09,4466,-6860,1444,0,-1,0
-153.50,32.52,-78.08,4469,-6859,1449,0,0,0
-153.50,32.52,-78.08,4471,-6859,1452,0,0,-1
-153.51,32.52,-78.07,4477,-6856,1444,0,0,0
-153.52,32.52,-78.05,4468,-6854,1448,0,0,0
-153.52,32.51,-78.04,4469,-6853,1450,0,0,0
-153.54,32.51,-78.02,4469,-6853,1452,0,0,0
-153.54,32.51,-78.02,4466,-6859,1456,0,-1,0
-153.54,32.51,-78.02,4471,-6849,1465,-1,-1,0
-153.54,32.51,-78.02,4470,-6852,1466,-1,-1,-1
-153.53,32.52,-78.03,4476,-6854,1455,-1,0,0
-153.53,32.52,-78.03,4471,-6856,1456,0,0,-1
-153.53,32.52,-78.03,4473,-6861,1449,0,0,-1
-153.53,32.52,-78.02,4475,-6860,1451,0,0,-1
-153.53,32.52,-78.02,4476,-6862,1449,0,0,-1
-153.53,32.52,-78.01,4478,-6861,1457,0,0,-1
-153.55,32.52,-77.99,4471,-6857,1458,0,0,-1
-153.55,32.52,-77.99,4469,-6854,1460,0,0,0
-153.55,32.52,-77.98,4476,-6856,1447,0,0,0
-153.56,32.52,-77.97,4481,-6854,1450,0,0,-1
-153.56,32.52,-77.96,4471,-6850,1458,0,0,0
-153.56,32.52,-77.95,4471,-6849,1458,0,-1,-1
-153.56,32.52,-77.95,4473,-6849,1468,-1,-1,-1
-153.56,32.52,-77.95,4476,-6855,1473,-1,-1,-1
-153.56,32.52,-77.95,4469,-6855,1476,-1,-1,-1
-153.56,32.52,-77.95,4468,-6863,1469,0,0,0
-153.56,32.53,-77.94,4469,-6860,1464,0,0,-1
-153.57,32.52,-77.93,4474,-6855,1471,0,0,0
-153.57,32.52,-77.93,4472,-6850,1467,-1,-1,0
-153.56,32.53,-77.94,4470,-6850,1466,-1,-1,-1
-153.56,32.53,-77.95,4474,-6851,1466,-1,-1,-1
-153.56,32.53,-77.95,4472,-6850,1467,-1,-1,0
-153.55,32.53,-77.96,4474,-6852,1464,-1,-1,0
-153.55,32.52,-77.97,4474,-6855,1463,-1,-1,0
-153.55,32.52,-77.97,4469,-6855,1464,-1,-1,0
-153.55,32.52,-77.98,4474,-6858,1458,-1,-1,0
-153.54,32.53,-77.99,4469,-6861,1465,-1,0,0
-153.54,32.53,-77.99,4464,-6854,1466,-1,-1,-1
-153.54,32.53,-77.99,4467,-6853,1474,-1,-1,-1
-153.54,32.52,-78.00,4467,-6859,1473,-1,-1,0
-153.53,32.53,-78.01,4470,-6857,1458,-1,-1,-1
-153.52,32.53,-78.03,4472,-6855,1444,-1,-1,-1
-153.52,32.53,-78.03,4471,-6853,1447,-1,0,-1
-153.51,32.52,-78.04,4467,-6854,1440,-1,0,0
-153.51,32.53,-78.04,4472,-6854,1444,-1,-1,0
-153.51,32.53,-78.04,4470,-6853,1452,-1,0,0
-153.51,32.53,-78.05,4464,-6855,1449,-1,-1,0
-153.51,32.53,-78.05,4473,-6856,1453,-1,-1,0
-153.50,32.52,-78.07,4469,-6863,1453,-1,-1,0
-153.49,32.53,-78.08,4470,-6859,1453,-1,-1,0
-153.48,32.53,-78.09,4465,-6861,1431,-1,-1,0
-153.48,32.53,-78.09,4459,-6862,1441,-1,0,-1
-153.48,32.53,-78.09,4458,-6863,1443,-1,0,0
-153.49,32.52,-78.10,4462,-6860,1437,-1,0,-1
-153.48,32.53,-78.10,4473,-6852,1448,-1,-1,-1
-153.48,32.53,-78.10,4474,-6848,1452,-1,-1,-1
-153.48,32.52,-78.11,4474,-6850,1459,-1,-1,0
-153.47,32.53,-78.12,4469,-6851,1443,-1,-1,-1
-153.46,32.53,-78.14,4468,-6851,1441,-1,-1,0
-153.46,32.53,-78.15,4470,-6855,1447,-1,-1,0
-153.45,32.52,-78.15,4470,-6850,1436,-1,0,0
-153.45,32.52,-78.15,4466,-6853,1447,-1,-1,-1
-153.45,32.52,-78.15,4463,-6857,1455,-1,-1,0
-153.45,32.52,-78.16,4469,-6862,1450,-1,0,0
-153.45,32.53,-78.16,4465,-6860,1454,-1,-1,0
-153.45,32.53,-78.17,4466,-6859,1439,-1,-1,-1
-153.44,32.53,-78.17,4465,-6862,1434,-1,-1,0
-153.44,32.53,-78.17,4469,-6863,1438,-1,-1,-1
-153.43,32.53,-78.19,4465,-6861,1437,-1,-1,0
-153.43,32.53,-78.19,4468,-6853,1444,-1,-1,-1
-153.43,32.53,-78.20,4473,-6856,1439,-1,-1,0
-153.43,32.52,-78.21,4478,-6864,1440,-1,-1,0
-153.41,32.53,-78.22,4472,-6860,1438,-1,-1,-1
-153.41,32.53,-78.22,4474,-6853,1431,-1,-1,-1
-153.40,32.53,-78.24,4468,-6859,1426,-1,-1,-1
-153.41,32.53,-78.24,4469,-6860,1427,-1,-1,0
-153.41,32.53,-78.24,4466,-6862,1435,-1,-1,0
-153.41,32.53,-78.24,4470,-6860,1436,-1,-1,0
-153.40,32.53,-78.25,4466,-6863,1436,-1,-1,0
-153.39,32.53,-78.27,4469,-6863,1421,-1,-1,0
-153.38,32.53,-78.29,4471,-6860,1430,-1,-1,0
-153.38,32.53,-78.30,4469,-6862,1424,-1,-1,-1
-153.37,32.53,-78.31,4475,-6861,1415,-1,-1,0
-153.36,32.54,-78.32,4478,-6868,1414,-1,-1,-1
-153.36,32.54,-78.32,4472,-6863,1411,-1,-1,0
-153.36,32.53,-78.33,4469,-6868,1420,-1,0,0
-153.36,32.53,-78.33,4466,-6868,1425,-1,0,-1
-153.36,32.53,-78.32,4471,-6864,1435,-1,-1,-1
-153.36,32.53,-78.33,4464,-6860,1424,-1,-1,-1
-153.35,32.53,-78.33,4471,-6868,1432,-1,-1,0
-153.34,32.54,-78.35,4471,-6866,1423,-1,-1,0
-153.34,32.54,-78.36,4468,-6869,1427,-1,-1,-1
-153.33,32.54,-78.37,4467,-6867,1419,-1,0,-1
-153.33,32.53,-78.38,4463,-6868,1415,-1,-1,0
-153.33,32.53,-78.38,4463,-6865,1416,-1,-1,0
-153.34,32.53,-78.38,4466,-6864,1404,-1,-1,0
-153.33,32.53,-78.39,4468,-6865,1404,-1,-1,0
-153.33,32.53,-78.39,4471,-6869,1416,-1,-1,0
-153.33,32.53,-78.39,4469,-6871,1418,-1,-1,-1
-153.32,32.53,-78.40,4467,-6867,1417,0,-1,-1
-153.33,32.53,-78.39,4459,-6862,1408,0,0,-1
-153.33,32.53,-78.39,4465,-6866,1416,0,0,0
-153.34,32.53,-78.38,4466,-6866,1418,0,0,-1
-153.34,32.53,-78.38,4461,-6859,1418,0,0,0
-153.34,32.53,-78.37,4467,-6854,1418,0,0,0
-153.34,32.53,-78.37,4470,-6856,1423,-1,-1,-1
-153.34,32.53,-78.37,4469,-6856,1423,-1,-1,0
-153.34,32.53,-78.38,4467,-6863,1419,-1,-1,-1
-153.34,32.53,-78.38,4473,-6868,1412,-1,-1,0
-153.34,32.53,-78.38,4477,-6861,1400,0,0,-1
-153.34,32.53,-78.37,4474,-6859,1404,0,0,0
-153.34,32.53,-78.36,4469,-6864,1411,0,0,-1
-153.35,32.53,-78.35,4471,-6865,1412,0,0,0
-153.36,32.53,-78.34,4476,-6865,1424,0,0,-1
-153.36,32.53,-78.33,4471,-6870,1428,0,0,0
-153.36,32.53,-78.32,4468,-6869,1429,0,0,-1
-153.36,32.53,-78.32,4467,-6862,1420,0,0,0
-153.37,32.53,-78.31,4468,-6861,1430,0,-1,-1
-153.37,32.53,-78.31,4464,-6863,1426,-1,-1,-1
