Yaw,Pitch,Roll,AX,AY,AZ,GX,GY,GZ
129.43,178.94,-135.95,150,-5852,-6070,-1,0,-1
129.44,178.93,-135.94,164,-5847,-6055,0,0,-1
129.44,178.92,-135.94,153,-5836,-6063,-1,0,-1
129.44,178.92,-135.94,175,-5843,-6076,0,-1,0
129.44,178.92,-135.95,152,-5838,-6076,0,0,-1
129.44,178.92,-135.93,159,-5853,-6067,0,-1,0
129.44,178.92,-135.93,160,-5850,-6088,0,0,-1
129.45,178.92,-135.92,157,-5871,-6090,0,-1,0
129.46,178.92,-135.90,161,-5842,-6061,0,0,-1
129.46,178.91,-135.88,153,-5859,-6076,0,0,-1
129.48,178.90,-135.86,161,-5827,-6008,0,0,-1
129.47,178.89,-135.87,156,-5848,-6053,-1,0,-1
129.48,178.88,-135.85,163,-5867,-6055,1,0,-1
129.48,178.87,-135.85,172,-5851,-6026,-1,-1,0
129.48,178.87,-135.85,170,-5875,-6083,0,0,-1
129.48,178.88,-135.85,157,-5846,-6027,-1,-1,0
129.47,178.87,-135.87,165,-5865,-6062,-1,0,-1
129.46,178.87,-135.88,158,-5846,-6040,-1,0,-1
129.46,178.87,-135.89,169,-5861,-6052,-1,-1,0
129.46,178.87,-135.91,177,-5856,-6079,-1,0,-1
129.45,178.88,-135.91,172,-5867,-6099,0,-1,0
129.46,178.87,-135.89,165,-5853,-6072,0,0,-1
129.46,178.86,-135.88,174,-5873,-6105,0,0,-1
129.48,178.87,-135.85,174,-5849,-6039,0,-1,0
129.47,178.88,-135.86,159,-5827,-6026,-1,-1,0
129.47,178.88,-135.86,168,-5843,-6053,0,0,-1
129.47,178.88,-135.87,148,-5847,-6056,-1,0,-1
129.47,178.87,-135.86,172,-5875,-6085,0,-1,0
129.47,178.88,-135.86,145,-5861,-6061,-1,0,-1
129.47,178.88,-135.87,164,-5863,-6071,-1,-1,0
129.46,178.88,-135.88,166,-5851,-6056,-1,-1,0
129.47,178.88,-135.88,177,-5866,-6061,-1,-1,0
129.47,178.87,-135.88,168,-5866,-6067,0,0,-1
129.47,178.87,-135.88,168,-5863,-6067,-1,-1,0
129.46,178.87,-135.88,168,-5847,-6045,-1,-1,0
129.46,178.87,-135.89,168,-5856,-6071,-1,-1,0
129.45,178.88,-135.90,177,-5832,-6036,-1,-1,0
129.45,178.89,-135.92,173,-5868,-6106,-1,-1,0
129.44,178.89,-135.92,162,-5844,-6068,0,-1,0
129.44,178.89,-135.93,167,-5859,-6075,-1,-1,0
129.44,178.90,-135.94,164,-5855,-6083,0,-1,0
129.44,178.89,-135.93,159,-5866,-6098,0,0,-1
129.44,178.89,-135.93,165,-5859,-6088,0,0,-1
129.44,178.88,-135.92,164,-5854,-6053,0,0,-1
129.44,178.89,-135.93,156,-5838,-6054,-1,0,0
129.44,178.89,-135.94,171,-5842,-6042,-1,-1,0
129.42,178.90,-135.95,157,-5853,-6062,-1,0,-1
129.42,178.89,-135.96,162,-5849,-6076,0,-1,0
129.42,178.89,-135.96,154,-5841,-6073,-1,-1,0
129.42,178.90,-135.96,157,-5848,-6061,-1,-1,-1
129.42,178.90,-135.96,144,-5835,-6051,-1,0,-1
129.42,178.90,-135.97,165,-5839,-6060,0,-1,0
129.42,178.91,-135.97,161,-5832,-6048,0,-1,0
129.43,178.91,-135.96,168,-5833,-6057,0,-1,0
129.43,178.91,-135.96,170,-5845,-6079,0,-1,0
129.42,178.93,-135.95,171,-5853,-6095,0,-1,0
129.41,178.94,-135.98,138,-5867,-6080,-2,0,-1
129.41,178.92,-135.99,151,-5852,-6083,-1,0,-1
129.39,178.91,-136.01,163,-5826,-6063,-1,0,-1
129.39,178.91,-136.03,166,-5828,-6046,-1,-1,0
129.38,178.92,-136.05,158,-5817,-6028,-1,-1,0
129.36,178.92,-136.07,167,-5831,-6072,-1,-1,0
129.35,178.94,-136.10,154,-5837,-6085,-1,-1,0
129.35,178.94,-136.11,145,-5858,-6109,-1,0,0
129.35,178.92,-136.12,151,-5855,-6113,0,0,-1
129.35,178.91,-136.11,151,-5847,-6102,0,0,-1
129.36,178.90,-136.09,164,-5824,-6077,0,0,-1
129.36,178.90,-136.08,151,-5812,-6065,0,0,0
129.36,178.90,-136.07,163,-5809,-6039,0,-1,0
129.36,178.91,-136.08,157,-5826,-6064,-1,0,0
129.36,178.91,-136.08,169,-5853,-6101,0,-1,0
129.36,178.90,-136.07,146,-5846,-6105,0,0,-1
129.37,178.90,-136.05,165,-5856,-6092,0,0,-1
129.38,178.89,-136.04,153,-5834,-6092,0,0,0
129.39,178.89,-136.03,179,-5831,-6062,0,-1,0
129.38,178.91,-136.03,154,-5817,-6045,0,-1,-1
129.39,178.90,-136.02,168,-5840,-6060,-1,-1,0
129.38,178.91,-136.03,150,-5833,-6073,0,0,-1
129.38,178.91,-136.03,161,-5859,-6080,-1,-1,0
129.38,178.91,-136.04,154,-5840,-6067,0,0,-1
129.38,178.91,-136.03,165,-5853,-6082,-1,-1,0
129.38,178.91,-136.03,163,-5835,-6072,0,-1,0
129.38,178.92,-136.02,161,-5832,-6064,0,-1,0
129.38,178.91,-136.02,157,-5821,-6061,0,0,-1
129.38,178.92,-136.02,149,-5852,-6081,0,-1,0
129.39,178.92,-136.00,158,-5864,-6060,0,0,-1
129.40,178.92,-136.00,162,-5861,-6074,0,-1,0
129.40,178.91,-135.99,166,-5850,-6059,0,-1,-1
129.40,178.92,-135.98,156,-5840,-6031,0,0,0
129.40,178.92,-135.98,164,-5835,-6050,-1,-1,0
129.41,178.93,-135.98,160,-5839,-6050,0,-1,0
129.41,178.93,-135.99,156,-5843,-6063,0,-1,-1
129.41,178.93,-135.97,158,-5852,-6081,0,-1,0
129.41,178.94,-135.97,149,-5844,-6062,0,-1,0
129.41,178.94,-135.97,145,-5843,-6062,-1,0,-1
129.42,178.93,-135.97,153,-5845,-6060,0,-1,0
129.41,178.94,-135.98,149,-5840,-6062,-1,0,-1
129.42,178.93,-135.97,169,-5853,-6067,-1,-1,0
129.41,178.94,-135.99,144,-5847,-6084,0,0,-1
129.41,178.95,-135.98,143,-5866,-6076,-1,-1,0
129.41,178.94,-135.98,144,-5846,-6066,0,0,-1
129.41,178.95,-135.97,152,-5856,-6066,-1,0,0
129.41,178.95,-135.98,167,-5844,-6057,0,-1,0
129.40,178.95,-135.99,152,-5834,-6055,-1,0,-1
129.39,178.95,-136.00,167,-5844,-6059,-1,-1,0
129.38,178.95,-136.02,149,-5842,-6085,-1,0,0
129.40,178.96,-136.01,158,-5855,-6074,0,-1,-1
129.39,178.94,-136.02,156,-5838,-6074,0,0,-1
129.39,178.95,-136.02,160,-5846,-6071,-1,-1,0
129.38,178.95,-136.03,154,-5838,-6068,-1,0,-1
129.38,178.95,-136.04,146,-5843,-6084,-1,-1,0
129.38,178.95,-136.04,157,-5837,-6089,0,0,-1
129.38,178.95,-136.04,156,-5839,-6076,-1,0,-1
129.38,178.95,-136.04,162,-5845,-6075,0,-1,0
129.36,178.95,-136.05,148,-5835,-6072,0,0,-1
129.38,178.94,-136.04,164,-5853,-6074,0,-1,0
129.37,178.94,-136.05,163,-5841,-6070,0,0,-1
129.38,178.94,-136.04,162,-5851,-6063,-1,-1,0
129.37,178.94,-136.05,170,-5830,-6044,-1,-1,-1
129.36,178.94,-136.07,164,-5840,-6068,-1,-1,0
129.36,178.95,-136.09,153,-5830,-6076,-1,-1,-1
129.35,178.95,-136.10,139,-5840,-6070,-1,0,-1
129.34,178.95,-136.11,151,-5832,-6078,0,0,0
129.34,178.95,-136.12,139,-5838,-6098,-1,0,-1
129.34,178.95,-136.12,155,-5843,-6094,0,-1,0
129.34,178.94,-136.13,144,-5833,-6098,0,0,-1
129.34,178.95,-136.11,153,-5844,-6091,0,-1,0
129.35,178.95,-136.10,143,-5829,-6071,0,0,-1
129.34,178.94,-136.10,164,-5845,-6089,-1,-1,0
129.34,178.94,-136.09,160,-5837,-6093,0,0,0
129.36,178.94,-136.07,155,-5847,-6076,0,0,-1
129.36,178.93,-136.06,158,-5840,-6089,0,0,-1
129.37,178.93,-136.03,170,-5849,-6082,0,-1,0
129.38,178.93,-136.01,150,-5830,-6057,0,-1,0
129.38,178.93,-136.01,140,-5842,-6057,-1,0,-1
129.38,178.93,-136.02,156,-5835,-6070,0,0,-1
129.37,178.91,-136.03,166,-5849,-6084,-1,0,-1
129.37,178.92,-136.03,172,-5832,-6080,0,-1,0
129.37,178.91,-136.04,161,-5827,-6070,-1,0,-1
129.36,178.92,-136.04,156,-5829,-6086,0,0,0
129.36,178.91,-136.04,154,-5827,-6071,-1,0,-1
129.36,178.91,-136.05,158,-5832,-6081,-1,0,-1
129.37,178.90,-136.05,166,-5852,-6079,0,0,-1
129.37,178.90,-136.04,172,-5837,-6062,-1,-1,0
129.36,178.90,-136.05,161,-5850,-6067,-1,-1,0
129.35,178.90,-136.06,152,-5828,-6061,-1,0,-1
129.35,178.91,-136.08,162,-5834,-6073,-1,-1,0
129.34,178.91,-136.09,155,-5827,-6079,-1,-1,0
129.34,178.91,-136.09,160,-5841,-6097,0,0,-1
129.34,178.91,-136.09,158,-5827,-6087,0,0,-1
129.35,178.91,-136.08,167,-5838,-6064,0,-1,0
129.34,178.92,-136.08,154,-5830,-6046,-1,0,-1
129.34,178.92,-136.10,164,-5852,-6092,-1,-1,0
129.34,178.92,-136.11,159,-5826,-6072,0,0,-1
129.34,178.92,-136.11,175,-5844,-6121,0,-1,0
129.34,178.92,-136.10,157,-5836,-6078,0,0,-1
129.34,178.92,-136.10,163,-5846,-6077,-1,-1,0
129.33,178.91,-136.11,162,-5819,-6068,-1,0,-1
129.33,178.91,-136.11,165,-5836,-6085,-1,-1,0
129.32,178.92,-136.12,157,-5821,-6056,-1,-1,-1
129.32,178.92,-136.14,164,-5824,-6092,-1,-1,0
129.31,178.92,-136.14,162,-5840,-6118,0,-1,0
129.32,178.92,-136.13,152,-5826,-6084,0,0,0
129.32,178.91,-136.15,166,-5823,-6081,0,0,-1
129.31,178.92,-136.15,153,-5831,-6078,-1,-1,0
129.31,178.92,-136.15,161,-5836,-6076,-1,-1,-1
129.31,178.92,-136.16,158,-5833,-6100,-1,0,-1
129.31,178.92,-136.17,161,-5829,-6092,0,-1,-1
129.31,178.92,-136.17,154,-5833,-6087,-1,-1,0
129.31,178.92,-136.17,167,-5825,-6080,-1,-1,0
129.31,178.93,-136.18,151,-5826,-6083,-1,0,-1
129.30,178.92,-136.18,161,-5834,-6088,-1,-1,0
129.29,178.93,-136.20,151,-5821,-6083,-1,-1,-1
129.29,178.94,-136.21,156,-5828,-6087,-1,-1,0
129.28,178.94,-136.23,153,-5817,-6086,-1,0,-1
129.28,178.94,-136.23,169,-5822,-6080,-1,-1,0
129.27,178.94,-136.25,153,-5809,-6085,-1,0,-1
129.27,178.94,-136.26,164,-5828,-6103,-1,-1,0
129.26,178.94,-136.27,167,-5819,-6098,0,-1,0
129.26,178.95,-136.28,161,-5826,-6114,-1,-1,0
129.26,178.94,-136.28,163,-5818,-6110,-1,0,-1
129.24,178.95,-136.29,152,-5820,-6110,-1,0,0
129.25,178.94,-136.29,159,-5819,-6112,0,0,-1
129.25,178.94,-136.30,152,-5818,-6106,-1,-1,0
129.25,178.93,-136.29,156,-5812,-6092,0,0,-1
129.26,178.94,-136.28,149,-5820,-6089,-1,-1,0
129.25,178.94,-136.29,158,-5818,-6100,0,0,-1
129.25,178.94,-136.29,152,-5810,-6095,0,0,0
129.25,178.94,-136.29,152,-5820,-6096,-1,-1,0
129.26,178.95,-136.29,145,-5806,-6105,0,0,-1
129.26,178.94,-136.28,158,-5816,-6095,0,-1,0
129.26,178.95,-136.29,140,-5794,-6084,-1,0,-1
129.25,178.95,-136.30,152,-5802,-6091,-1,-1,0
129.24,178.96,-136.31,143,-5797,-6097,-1,0,-1
129.24,178.95,-136.31,152,-5815,-6118,-1,0,0
129.24,178.95,-136.31,155,-5814,-6118,0,0,-1
129.25,178.95,-136.30,156,-5823,-6107,-1,-1,0
129.25,178.95,-136.31,157,-5793,-6076,-1,-1,-1
129.24,178.95,-136.33,160,-5804,-6114,-1,-1,0
129.24,178.96,-136.33,160,-5799,-6119,0,0,-1
129.24,178.96,-136.33,158,-5806,-6133,-1,-1,0
129.24,178.95,-136.33,161,-5804,-6116,0,0,-1
129.25,178.95,-136.31,158,-5804,-6111,0,0,0
129.25,178.95,-136.30,151,-5816,-6108,0,0,-1
129.26,178.94,-136.29,158,-5831,-6134,0,0,-1
129.26,178.92,-136.27,149,-5831,-6120,0,0,-1
129.29,178.92,-136.24,161,-5826,-6116,1,0,-1
129.30,178.92,-136.20,154,-5807,-6084,1,-1,0
129.32,178.93,-136.15,157,-5813,-6069,1,-1,0
129.34,178.93,-136.12,155,-5812,-6067,1,0,-1
129.35,178.93,-136.09,155,-5842,-6069,0,0,-1
129.36,178.92,-136.08,160,-5828,-6048,0,0,-1
129.35,178.92,-136.10,149,-5837,-6072,-1,0,-1
129.35,178.91,-136.11,160,-5833,-6075,-1,0,-1
129.35,178.90,-136.13,146,-5839,-6105,-1,0,-1
129.35,178.89,-136.13,168,-5836,-6054,-1,0,-1
129.34,178.88,-136.16,159,-5817,-6075,-1,0,-1
129.34,178.87,-136.16,175,-5834,-6083,-1,0,-1
129.34,178.85,-136.17,161,-5823,-6071,-1,0,-1
129.34,178.84,-136.18,164,-5833,-6080,-1,-1,-1
129.33,178.84,-136.19,168,-5824,-6074,0,0,-1
129.33,178.84,-136.20,162,-5840,-6113,-1,0,-1
129.33,178.83,-136.19,175,-5838,-6103,0,-1,0
129.33,178.83,-136.18,169,-5821,-6089,0,0,-1
129.35,178.82,-136.16,180,-5811,-6061,0,-1,0
129.35,178.83,-136.16,162,-5799,-6067,-1,-1,0
129.35,178.83,-136.16,181,-5824,-6083,-1,-1,0
129.34,178.84,-136.17,162,-5823,-6086,-1,-1,0
129.34,178.85,-136.17,168,-5841,-6105,0,-1,0
129.34,178.85,-136.17,166,-5806,-6058,-1,0,-1
129.33,178.85,-136.18,171,-5827,-6093,-1,-1,0
129.33,178.86,-136.19,166,-5827,-6093,0,-1,0
129.32,178.87,-136.20,161,-5828,-6110,-1,0,-1
129.33,178.86,-136.19,176,-5826,-6101,0,-1,0
129.32,178.87,-136.19,164,-5815,-6092,0,0,0
129.32,178.86,-136.18,176,-5828,-6085,0,-1,0
129.32,178.87,-136.19,149,-5830,-6112,0,0,-1
129.32,178.86,-136.18,161,-5839,-6105,0,0,-1
129.33,178.85,-136.17,164,-5822,-6086,0,0,-1
129.33,178.84,-136.17,169,-5827,-6071,-1,0,-1
129.33,178.83,-136.17,171,-5816,-6058,0,0,-1
129.32,178.83,-136.18,172,-5831,-6071,-1,-1,-1
129.32,178.83,-136.19,184,-5822,-6086,0,-1,0
129.31,178.84,-136.20,165,-5829,-6090,-1,-1,0
129.31,178.84,-136.21,167,-5825,-6100,0,-1,0
129.30,178.84,-136.22,157,-5811,-6093,-1,0,-1
129.30,178.84,-136.21,170,-5822,-6094,0,-1,0
129.30,178.84,-136.21,160,-5821,-6095,0,0,0
129.30,178.85,-136.20,176,-5827,-6089,0,-1,0
129.30,178.86,-136.20,166,-5816,-6073,0,-1,0
129.30,178.86,-136.20,170,-5823,-6064,-1,-1,0
129.30,178.86,-136.21,167,-5835,-6092,0,-1,0
129.30,178.87,-136.20,166,-5832,-6077,-1,-1,0
129.30,178.87,-136.21,167,-5812,-6078,-1,-1,0
129.29,178.88,-136.21,172,-5814,-6072,-1,-1,0
129.29,178.89,-136.21,166,-5814,-6101,0,-1,0
129.29,178.90,-136.21,160,-5826,-6102,0,-1,0
129.30,178.90,-136.20,153,-5829,-6115,0,-1,0
129.30,178.90,-136.20,144,-5818,-6091,0,0,-1
129.29,178.90,-136.20,158,-5823,-6111,-1,-1,0
129.29,178.89,-136.20,168,-5830,-6111,0,0,-1
129.30,178.90,-136.18,157,-5818,-6084,0,0,0
129.31,178.88,-136.17,160,-5814,-6105,0,0,-1
129.31,178.88,-136.16,153,-5812,-6075,0,0,-1
129.32,178.86,-136.16,170,-5819,-6092,0,0,-1
129.31,178.85,-136.17,152,-5832,-6102,-1,1,-1
129.31,178.82,-136.18,182,-5847,-6123,0,0,-1
129.31,178.79,-136.17,176,-5822,-6071,-1,1,-1
129.31,178.76,-136.18,199,-5814,-6072,-1,0,-1
129.30,178.74,-136.21,173,-5799,-6077,-1,0,-1
129.29,178.72,-136.23,191,-5794,-6075,-1,0,-1
129.29,178.70,-136.24,183,-5811,-6083,-1,0,-1
129.30,178.69,-136.22,191,-5843,-6078,0,-1,-1
129.30,178.69,-136.23,184,-5824,-6065,-1,0,-1
129.30,178.70,-136.24,196,-5837,-6103,-1,-1,0
129.28,178.71,-136.26,189,-5827,-6089,-1,-1,0
129.27,178.70,-136.29,188,-5812,-6100,-2,0,-1
129.26,178.70,-136.33,199,-5806,-6118,-1,0,-1
129.24,178.69,-136.35,199,-5791,-6114,-1,-1,0
129.24,178.69,-136.36,198,-5782,-6114,0,0,-1
129.24,178.68,-136.36,208,-5795,-6117,0,0,0
129.25,178.67,-136.35,204,-5794,-6117,0,0,-1
129.25,178.67,-136.34,192,-5812,-6131,0,0,0
129.26,178.66,-136.32,208,-5830,-6141,1,0,-1
129.27,178.67,-136.30,191,-5813,-6118,0,0,-1
129.27,178.65,-136.29,198,-5828,-6119,0,0,-1
129.27,178.64,-136.29,189,-5808,-6113,0,0,-1
129.27,178.63,-136.28,201,-5806,-6078,0,0,-1
129.28,178.62,-136.28,205,-5777,-6065,0,0,-1
129.29,178.63,-136.27,205,-5803,-6074,0,-1,0
129.29,178.63,-136.27,203,-5798,-6074,0,0,-1
129.29,178.63,-136.27,199,-5831,-6126,-1,-1,0
129.29,178.63,-136.27,181,-5846,-6118,0,0,-1
129.28,178.62,-136.28,195,-5845,-6136,-1,0,-1
129.29,178.60,-136.29,199,-5817,-6119,-1,0,-1
129.28,178.58,-136.30,217,-5805,-6115,-1,0,-1
129.29,178.57,-136.29,228,-5804,-6112,0,0,-1
129.29,178.56,-136.29,213,-5789,-6077,0,0,-1
129.30,178.55,-136.28,225,-5802,-6062,-1,-1,-1
129.29,178.55,-136.30,196,-5796,-6070,-2,0,-1
129.27,178.55,-136.35,211,-5817,-6103,-2,-1,-1
129.25,178.54,-136.40,200,-5816,-6148,-2,0,-1
129.25,178.53,-136.42,225,-5843,-6176,-1,0,-1
129.24,178.51,-136.42,209,-5795,-6129,0,0,-1
129.27,178.50,-136.37,212,-5784,-6087,1,0,0
129.29,178.49,-136.33,205,-5778,-6043,1,0,-1
129.30,178.49,-136.32,212,-5804,-6034,-1,-1,0
129.30,178.49,-136.32,220,-5834,-6074,-1,-1,0
129.29,178.50,-136.34,220,-5816,-6054,-2,-1,0
129.28,178.51,-136.38,228,-5821,-6063,-2,-1,0
129.25,178.52,-136.43,217,-5782,-6079,-2,-1,0
129.24,178.54,-136.45,216,-5778,-6103,-1,-1,0
129.24,178.55,-136.46,207,-5766,-6113,0,-1,0
129.24,178.56,-136.45,219,-5797,-6138,0,-1,0
129.25,178.57,-136.42,207,-5816,-6159,1,0,0
129.27,178.56,-136.38,217,-5812,-6131,1,0,0
129.27,178.57,-136.38,207,-5823,-6122,0,-1,0
129.28,178.55,-136.38,210,-5800,-6098,-1,0,-1
129.28,178.56,-136.39,201,-5785,-6096,-1,-1,-1
129.28,178.56,-136.39,217,-5789,-6119,0,-1,0
129.27,178.56,-136.40,210,-5789,-6112,-1,0,-1
129.27,178.55,-136.40,207,-5815,-6136,0,0,-1
129.28,178.52,-136.40,223,-5812,-6145,0,0,-1
129.29,178.51,-136.39,217,-5821,-6131,-1,0,-1
129.29,178.49,-136.39,216,-5806,-6115,0,0,-1
129.29,178.46,-136.40,211,-5795,-6106,-1,0,-1
129.30,178.44,-136.41,226,-5795,-6107,0,0,-1
129.30,178.42,-136.41,221,-5784,-6085,0,0,-1
129.31,178.41,-136.40,234,-5788,-6064,-1,-1,-1
129.30,178.41,-136.41,216,-5780,-6085,0,0,-1
129.30,178.40,-136.41,224,-5801,-6080,-1,-1,0
129.29,178.41,-136.43,230,-5791,-6100,-1,0,-1
129.28,178.40,-136.46,230,-5789,-6074,-2,0,-1
129.26,178.39,-136.49,235,-5801,-6097,-2,0,-1
129.25,178.39,-136.53,241,-5812,-6157,-1,0,0
129.25,178.39,-136.53,248,-5788,-6126,-1,-1,0
129.24,178.39,-136.54,238,-5759,-6092,-1,0,-1
129.24,178.39,-136.55,247,-5777,-6100,-1,-1,0
129.24,178.39,-136.57,241,-5769,-6108,-1,0,-1
129.24,178.39,-136.57,243,-5787,-6126,-1,0,-1
129.22,178.38,-136.59,239,-5774,-6128,-1,0,-1
129.22,178.39,-136.60,244,-5786,-6136,-1,-1,0
129.22,178.38,-136.61,246,-5782,-6159,0,0,-1
129.22,178.38,-136.61,237,-5770,-6128,-1,-1,0
129.22,178.39,-136.60,236,-5736,-6068,0,-1,0
129.21,178.40,-136.61,245,-5731,-6073,-1,-1,0
129.20,178.41,-136.63,236,-5785,-6131,-1,-1,0
129.18,178.41,-136.65,231,-5807,-6178,-1,0,-1
129.18,178.41,-136.66,235,-5803,-6164,-1,-1,0
129.18,178.40,-136.68,235,-5789,-6183,-1,0,-1
129.18,178.39,-136.68,246,-5780,-6161,0,0,0
129.18,178.39,-136.66,250,-5755,-6120,0,-1,0
129.17,178.40,-136.66,250,-5763,-6129,-1,-1,0
129.17,178.40,-136.66,248,-5766,-6140,0,-1,0
129.17,178.41,-136.67,238,-5784,-6155,-1,-1,0
129.17,178.41,-136.67,243,-5787,-6134,-1,-1,0
129.17,178.41,-136.68,243,-5767,-6131,-1,0,-1
129.16,178.40,-136.69,250,-5763,-6116,-1,-1,0
129.15,178.40,-136.72,240,-5748,-6126,-1,0,-1
129.15,178.40,-136.74,245,-5757,-6133,-1,0,-1
129.14,178.39,-136.76,248,-5759,-6144,-1,0,-1
129.14,178.38,-136.76,251,-5783,-6167,-1,0,-1
129.13,178.36,-136.77,260,-5777,-6184,0,0,-1
129.13,178.36,-136.76,252,-5765,-6157,0,0,0
129.14,178.35,-136.74,262,-5734,-6139,0,0,0
129.15,178.35,-136.74,256,-5754,-6134,-1,-1,0
129.13,178.36,-136.75,261,-5758,-6122,-1,-1,0
129.13,178.35,-136.75,254,-5759,-6136,-1,0,-1
129.13,178.35,-136.77,256,-5756,-6132,-1,0,-1
129.12,178.34,-136.78,257,-5771,-6165,-1,0,-1
129.12,178.34,-136.78,249,-5775,-6172,0,0,-1
129.13,178.33,-136.77,266,-5770,-6179,0,0,-1
129.14,178.32,-136.75,262,-5764,-6181,1,0,0
129.15,178.32,-136.71,251,-5756,-6152,1,0,0
129.17,178.32,-136.68,255,-5755,-6135,1,0,-1
129.19,178.31,-136.64,256,-5765,-6127,1,0,0
129.19,178.31,-136.60,256,-5764,-6122,1,0,-1
129.21,178.30,-136.58,267,-5773,-6131,0,0,0
129.22,178.29,-136.56,262,-5786,-6132,0,0,-1
129.22,178.28,-136.55,250,-5771,-6125,-1,0,-1
129.22,178.25,-136.55,249,-5788,-6146,0,0,-1
129.23,178.24,-136.54,253,-5795,-6144,0,0,-1
129.24,178.22,-136.54,276,-5776,-6118,0,0,-1
129.24,178.21,-136.53,281,-5755,-6099,0,0,0
129.24,178.20,-136.51,287,-5754,-6076,0,-1,0
129.24,178.20,-136.52,277,-5767,-6091,-1,0,-1
129.24,178.19,-136.52,279,-5789,-6113,-1,0,-1
129.24,178.18,-136.55,273,-5788,-6117,-1,0,-1
129.23,178.17,-136.56,287,-5796,-6122,-1,0,-1
129.22,178.16,-136.58,289,-5780,-6128,-1,0,-1
129.22,178.16,-136.60,296,-5771,-6131,-1,-1,0
129.22,178.16,-136.61,282,-5747,-6103,-1,0,-1
129.22,178.16,-136.62,288,-5761,-6144,-1,-1,0
129.22,178.17,-136.61,284,-5762,-6135,0,-1,0
129.23,178.18,-136.60,273,-5779,-6139,-1,-1,0
129.22,178.18,-136.60,278,-5788,-6133,0,-1,0
129.21,178.20,-136.61,269,-5781,-6130,-1,-1,0
129.21,178.20,-136.62,282,-5784,-6133,-1,0,0
129.20,178.19,-136.64,292,-5760,-6139,-1,0,0
129.20,178.19,-136.65,302,-5767,-6127,-1,-1,0
129.19,178.20,-136.67,284,-5747,-6142,-1,-1,0
129.19,178.21,-136.66,295,-5777,-6133,-1,-1,0
129.18,178.21,-136.67,277,-5773,-6146,0,0,0
129.18,178.21,-136.66,290,-5778,-6139,-1,-1,0
129.18,178.20,-136.67,279,-5775,-6153,0,0,-1
129.19,178.20,-136.65,293,-5789,-6125,0,-1,0
129.19,178.19,-136.65,285,-5759,-6122,0,0,-1
129.19,178.19,-136.65,299,-5760,-6119,-1,-1,0
129.18,178.20,-136.64,279,-5733,-6109,0,-1,0
129.19,178.22,-136.61,267,-5775,-6115,0,-1,0
129.20,178.23,-136.59,263,-5784,-6111,0,-1,0
129.20,178.23,-136.58,273,-5808,-6153,0,-1,0
129.21,178.22,-136.58,284,-5796,-6136,-1,0,-1
129.20,178.21,-136.61,288,-5788,-6135,-2,0,-1
129.19,178.20,-136.64,292,-5759,-6112,-2,-1,-1
129.18,178.20,-136.68,293,-5738,-6121,-2,0,-1
129.17,178.19,-136.69,304,-5737,-6124,-1,-1,0
129.17,178.20,-136.70,284,-5730,-6135,0,-1,0
129.18,178.20,-136.67,300,-5755,-6142,1,-1,0
129.18,178.20,-136.64,281,-5765,-6133,1,0,0
129.20,178.20,-136.60,292,-5788,-6128,0,-1,0
129.20,178.21,-136.60,280,-5776,-6133,0,0,0
129.21,178.21,-136.58,289,-5796,-6129,0,-1,0
129.19,178.21,-136.59,274,-5765,-6107,-1,0,0
129.20,178.22,-136.60,289,-5760,-6110,-1,-1,0
129.18,178.22,-136.62,284,-5746,-6106,-1,-1,0
129.18,178.23,-136.61,299,-5775,-6131,-1,-1,0
129.20,178.23,-136.60,298,-5780,-6141,0,-1,-1
129.20,178.24,-136.59,289,-5785,-6141,0,-1,0
129.21,178.23,-136.59,286,-5777,-6135,0,-1,-1
129.21,178.24,-136.58,282,-5774,-6121,0,-1,0
129.22,178.24,-136.56,278,-5767,-6105,1,-1,0
129.23,178.26,-136.52,276,-5767,-6109,1,-1,0
129.26,178.28,-136.46,299,-5800,-6109,1,-1,0
129.28,178.29,-136.41,288,-5826,-6147,1,-1,0
129.30,178.31,-136.37,285,-5834,-6132,1,-1,0
129.30,178.34,-136.37,261,-5815,-6124,-1,-1,0
129.30,178.35,-136.37,256,-5805,-6091,-1,-1,0
129.29,178.37,-136.40,229,-5782,-6065,-1,-1,0
129.28,178.39,-136.42,237,-5755,-6071,-1,-1,0
129.27,178.40,-136.43,257,-5756,-6110,0,-1,0
129.27,178.40,-136.41,276,-5766,-6130,1,-1,0
129.28,178.41,-136.39,279,-5796,-6168,1,-1,0
129.30,178.41,-136.34,276,-5819,-6173,1,-1,0
129.31,178.41,-136.31,267,-5802,-6148,1,0,0
129.33,178.41,-136.28,288,-5797,-6111,0,-1,0
129.33,178.40,-136.26,279,-5778,-6084,0,0,-1
129.35,178.40,-136.24,271,-5795,-6066,0,-1,0
129.35,178.40,-136.22,268,-5796,-6069,0,-1,0
129.35,178.41,-136.21,263,-5815,-6089,0,-1,0
129.37,178.41,-136.18,273,-5836,-6116,1,-1,-1
129.38,178.40,-136.16,254,-5842,-6105,0,0,-1
129.40,178.39,-136.14,254,-5845,-6084,0,0,0
129.39,178.39,-136.13,242,-5819,-6083,0,0,-1
129.41,178.38,-136.11,249,-5859,-6068,0,-1,0
129.42,178.38,-136.10,251,-5843,-6053,0,0,-1
129.42,178.36,-136.11,260,-5863,-6076,-1,0,-1
129.41,178.34,-136.15,265,-5827,-6052,-2,0,-1
129.40,178.32,-136.20,272,-5829,-6086,-3,0,-1
129.38,178.29,-136.26,276,-5812,-6109,-2,0,-1
129.37,178.27,-136.29,270,-5803,-6108,-2,0,-1
129.36,178.25,-136.31,279,-5792,-6127,0,0,-1
129.36,178.24,-136.30,275,-5774,-6119,0,0,-1
129.37,178.22,-136.27,301,-5796,-6095,1,0,0
129.39,178.21,-136.25,293,-5786,-6082,1,0,-1
129.39,178.21,-136.22,312,-5807,-6073,0,-1,0
129.39,178.22,-136.21,301,-5793,-6057,0,-1,0
129.39,178.24,-136.20,300,-5814,-6070,-1,-1,0
129.39,178.25,-136.20,296,-5808,-6071,0,-1,0
129.39,178.26,-136.20,279,-5804,-6077,-1,-1,0
129.38,178.28,-136.18,291,-5807,-6080,0,-1,0
129.38,178.31,-136.17,284,-5777,-6073,0,-1,0
129.38,178.34,-136.15,291,-5806,-6075,0,-2,1
129.39,178.38,-136.12,271,-5796,-6074,1,-2,1
129.39,178.42,-136.09,253,-5825,-6078,0,-2,1
129.39,178.45,-136.07,252,-5835,-6080,1,-1,0
129.40,178.46,-136.04,250,-5862,-6106,0,-1,0
129.40,178.48,-136.03,254,-5858,-6095,0,-1,0
129.39,178.48,-136.04,242,-5859,-6090,-1,-1,0
129.39,178.48,-136.06,257,-5869,-6072,-1,-1,-1
129.38,178.47,-136.09,253,-5845,-6055,-2,-1,-1
129.36,178.48,-136.14,252,-5821,-6037,-2,-1,0
129.33,178.48,-136.21,246,-5794,-6039,-3,-1,0
129.30,178.50,-136.27,248,-5802,-6087,-2,-1,0
129.28,178.51,-136.32,250,-5805,-6108,-2,-1,0
129.27,178.52,-136.35,255,-5802,-6126,-1,-1,0
129.26,178.53,-136.38,264,-5798,-6146,-1,-1,0
129.25,178.55,-136.38,250,-5783,-6146,0,-1,0
129.25,178.56,-136.38,255,-5799,-6141,-1,-1,0
129.25,178.56,-136.36,247,-5799,-6137,0,-1,0
129.26,178.57,-136.35,240,-5799,-6130,0,-1,0
129.26,178.58,-136.33,230,-5800,-6117,0,-1,0
129.27,178.57,-136.32,225,-5800,-6107,0,0,-1
129.29,178.57,-136.30,230,-5831,-6099,0,0,-1
129.28,178.56,-136.31,215,-5826,-6106,0,0,-1
129.30,178.54,-136.31,231,-5837,-6095,-1,0,-1
129.29,178.53,-136.32,234,-5810,-6098,-1,0,-1
129.31,178.51,-136.33,249,-5798,-6085,-1,-1,-1
129.31,178.50,-136.32,258,-5761,-6080,0,-1,-1
129.31,178.51,-136.30,270,-5758,-6104,0,-1,0
129.33,178.53,-136.26,251,-5788,-6124,2,-1,0
129.35,178.56,-136.20,241,-5826,-6134,2,-1,1
129.36,178.60,-136.10,225,-5829,-6093,3,-1,1
129.37,178.64,-136.03,220,-5820,-6042,2,-1,1
129.37,178.68,-135.97,238,-5834,-6025,1,-1,1
129.36,178.71,-135.94,238,-5853,-6025,0,-1,1
129.36,178.74,-135.90,235,-5906,-6037,0,-1,0
129.35,178.78,-135.90,199,-5872,-6032,-1,-1,0
129.34,178.83,-135.91,192,-5876,-6040,-1,-2,1
129.31,178.87,-135.93,169,-5839,-6054,-1,-1,1
129.29,178.90,-135.95,177,-5845,-6094,-1,-1,0
129.26,178.92,-135.97,169,-5818,-6122,-1,0,0
129.25,178.92,-135.97,186,-5841,-6143,0,0,0
129.24,178.91,-135.97,189,-5839,-6140,0,0,0
129.24,178.90,-135.95,191,-5832,-6129,0,0,0
129.25,178.89,-135.94,187,-5805,-6108,0,0,-1
129.24,178.86,-135.93,187,-5805,-6082,0,0,-1
129.25,178.84,-135.91,187,-5831,-6080,1,0,-1
129.26,178.83,-135.88,188,-5859,-6074,1,0,-1
129.29,178.81,-135.83,188,-5878,-6029,1,0,-1
129.31,178.79,-135.77,193,-5886,-6007,1,0,-1
129.34,178.78,-135.73,206,-5884,-5976,0,0,-1
129.35,178.77,-135.72,214,-5862,-5972,-1,-1,-1
129.36,178.77,-135.74,234,-5876,-5973,-2,-1,0
129.35,178.79,-135.78,220,-5845,-5987,-2,-1,-1
129.34,178.79,-135.82,236,-5854,-6039,-2,-1,0
129.32,178.80,-135.88,237,-5823,-6065,-2,-1,0
129.31,178.82,-135.92,235,-5827,-6092,-2,-1,0
129.30,178.82,-135.95,216,-5837,-6114,-1,-1,-1
129.30,178.82,-135.94,218,-5863,-6132,0,-1,-1
129.31,178.81,-135.93,219,-5865,-6099,0,-1,-1
129.31,178.81,-135.93,197,-5837,-6069,-1,-1,0
129.30,178.81,-135.96,199,-5836,-6043,-1,-1,0
129.28,178.82,-135.99,187,-5839,-6039,-2,-1,-1
129.28,178.82,-136.02,200,-5869,-6055,-1,-1,-1
129.27,178.80,-136.04,187,-5851,-6077,-1,0,-1
129.27,178.78,-136.07,214,-5848,-6084,-2,0,-1
129.27,178.76,-136.10,197,-5844,-6092,-1,0,-1
129.27,178.76,-136.11,190,-5851,-6089,-1,0,-1
129.27,178.75,-136.12,201,-5819,-6070,-1,0,-1
129.27,178.75,-136.13,210,-5800,-6080,0,-1,0
129.28,178.75,-136.11,208,-5789,-6064,0,-1,0
129.29,178.76,-136.09,215,-5802,-6066,0,-1,0
129.30,178.77,-136.07,215,-5820,-6087,0,-1,0
129.31,178.77,-136.05,223,-5832,-6079,0,-1,0
129.33,178.77,-136.03,239,-5832,-6076,0,-1,0
129.33,178.77,-136.02,223,-5821,-6063,-1,0,-1
129.33,178.77,-136.02,226,-5830,-6076,0,-1,0
129.33,178.77,-136.02,205,-5822,-6087,-1,0,-1
129.33,178.78,-136.01,212,-5843,-6072,0,-1,0
129.33,178.78,-136.01,197,-5835,-6070,0,0,-1
129.33,178.77,-136.01,197,-5868,-6089,-1,0,0
129.33,178.77,-136.01,203,-5863,-6092,0,0,-1
129.32,178.76,-136.02,200,-5839,-6077,-1,0,-1
129.32,178.75,-136.03,209,-5832,-6072,-1,-1,0
129.30,178.74,-136.05,197,-5809,-6075,-1,0,-1
129.30,178.74,-136.05,205,-5840,-6089,0,0,0
129.29,178.72,-136.05,214,-5830,-6108,0,0,-1
129.29,178.71,-136.05,220,-5835,-6097,-1,0,-1
129.28,178.69,-136.05,231,-5825,-6111,0,0,-1
129.29,178.66,-136.04,249,-5823,-6079,-1,1,-1
129.30,178.63,-136.03,267,-5844,-6073,0,0,-1
129.31,178.59,-136.01,254,-5840,-6074,0,0,-1
129.33,178.57,-135.98,251,-5866,-6035,0,0,-1
129.34,178.56,-135.97,231,-5853,-6029,0,0,-1
129.35,178.56,-135.97,219,-5861,-6000,-1,-1,-1
129.35,178.55,-136.00,219,-5830,-6000,-1,0,-1
129.33,178.54,-136.04,236,-5816,-6034,-2,-1,-1
129.31,178.55,-136.08,255,-5804,-6075,-1,-1,0
129.31,178.56,-136.09,247,-5799,-6103,-1,-1,0
129.32,178.57,-136.07,240,-5828,-6103,1,-1,0
129.32,178.59,-136.05,212,-5831,-6076,0,-1,0
129.32,178.60,-136.03,222,-5849,-6057,0,-1,0
129.32,178.61,-136.04,212,-5831,-6052,-1,-1,0
129.31,178.62,-136.08,219,-5838,-6049,-2,-1,0
129.28,178.63,-136.13,222,-5831,-6078,-2,-1,0
129.26,178.64,-136.17,226,-5820,-6081,-2,-1,0
129.25,178.66,-136.21,236,-5803,-6101,-1,-1,0
129.22,178.68,-136.24,223,-5792,-6115,-1,-1,0
129.22,178.69,-136.26,225,-5823,-6136,0,-1,0
129.21,178.69,-136.26,229,-5816,-6150,0,-1,0
129.23,178.69,-136.23,244,-5835,-6134,0,-1,0
129.23,178.70,-136.23,244,-5822,-6112,0,-1,0
129.23,178.70,-136.23,229,-5811,-6093,-1,-1,0
129.23,178.69,-136.24,224,-5810,-6085,-1,-1,0
129.21,178.70,-136.26,219,-5820,-6106,-1,-1,0
129.20,178.68,-136.29,230,-5810,-6119,-1,0,-1
129.20,178.68,-136.30,221,-5816,-6127,-1,0,-1
129.21,178.67,-136.31,227,-5810,-6118,-1,0,-1
129.20,178.66,-136.31,219,-5813,-6126,0,0,-1
129.20,178.65,-136.32,224,-5797,-6097,0,0,-1
129.21,178.64,-136.31,237,-5798,-6105,0,0,-1
129.21,178.64,-136.31,228,-5788,-6078,-1,0,0
129.21,178.64,-136.31,229,-5820,-6116,-1,-1,0
129.21,178.63,-136.31,214,-5803,-6092,0,0,-1
129.21,178.63,-136.32,231,-5815,-6112,-1,-1,0
129.20,178.63,-136.34,227,-5786,-6088,-1,0,-1
129.19,178.63,-136.37,236,-5783,-6102,-2,-1,0
129.17,178.65,-136.39,227,-5796,-6107,-1,-1,0
129.16,178.65,-136.40,224,-5805,-6123,0,0,0
129.17,178.65,-136.39,229,-5790,-6111,0,-1,0
129.17,178.65,-136.39,231,-5777,-6116,0,-1,0
129.17,178.65,-136.38,243,-5794,-6099,0,-1,0
129.16,178.67,-136.39,226,-5788,-6134,0,-1,0
129.17,178.67,-136.37,232,-5827,-6126,0,-1,0
129.16,178.69,-136.38,217,-5793,-6102,-1,-1,0
129.15,178.69,-136.39,229,-5807,-6141,-1,-1,0
129.15,178.69,-136.39,212,-5786,-6124,0,0,-1
129.15,178.69,-136.39,230,-5788,-6112,-1,-1,0
129.16,178.70,-136.39,213,-5794,-6104,0,-1,0
129.15,178.70,-136.40,211,-5806,-6114,-1,-1,0
129.16,178.70,-136.40,217,-5785,-6107,0,0,-1
129.15,178.70,-136.40,220,-5802,-6121,-1,-1,0
129.15,178.70,-136.40,223,-5817,-6134,0,0,-1
129.15,178.69,-136.41,229,-5813,-6125,-1,-1,0
129.16,178.68,-136.40,229,-5795,-6100,0,0,-1
129.16,178.68,-136.40,225,-5779,-6097,-1,-1,0
129.16,178.67,-136.40,243,-5818,-6149,0,-1,-1
129.17,178.67,-136.39,225,-5813,-6148,0,0,-1
129.17,178.66,-136.38,225,-5815,-6128,-1,0,0
129.17,178.66,-136.39,210,-5779,-6110,0,-1,-1
129.18,178.66,-136.37,228,-5793,-6097,0,-1,0
129.17,178.67,-136.38,225,-5782,-6105,0,-1,0
129.18,178.67,-136.36,231,-5814,-6130,0,-1,0
129.19,178.67,-136.35,224,-5806,-6120,0,-1,0
129.20,178.68,-136.32,222,-5812,-6106,0,-1,0
129.20,178.70,-136.31,217,-5814,-6086,0,-1,0
129.20,178.70,-136.31,226,-5809,-6077,-1,-1,0
129.20,178.70,-136.33,226,-5807,-6076,-1,-1,0
129.19,178.71,-136.35,216,-5798,-6113,-1,-1,0
129.18,178.71,-136.36,223,-5804,-6100,-1,-1,0
129.18,178.72,-136.38,209,-5800,-6122,-1,-1,0
129.18,178.71,-136.37,223,-5805,-6125,0,-1,0
129.18,178.71,-136.36,213,-5801,-6132,0,0,-1
129.19,178.71,-136.35,227,-5806,-6118,0,-1,0
129.21,178.70,-136.34,224,-5802,-6102,0,-1,-1
129.21,178.70,-136.34,211,-5795,-6095,0,-1,0
129.21,178.71,-136.34,208,-5792,-6084,0,-1,0
129.22,178.71,-136.32,213,-5808,-6115,0,-1,0
129.24,178.71,-136.31,219,-5806,-6096,0,-1,-1
129.24,178.71,-136.30,218,-5814,-6101,0,-1,0
129.24,178.71,-136.29,214,-5807,-6106,0,0,-1
129.25,178.71,-136.27,215,-5814,-6097,0,-1,0
129.25,178.71,-136.26,221,-5803,-6089,0,-1,0
129.26,178.70,-136.25,202,-5810,-6094,0,0,-1
129.26,178.70,-136.23,227,-5822,-6102,0,-1,0
129.26,178.70,-136.22,219,-5804,-6083,0,0,0
129.26,178.71,-136.21,219,-5830,-6081,0,-1,0
129.26,178.70,-136.20,219,-5813,-6084,0,0,-1
129.27,178.71,-136.19,225,-5832,-6091,0,-1,0
129.26,178.71,-136.21,230,-5805,-6067,-1,-1,0
129.25,178.71,-136.21,223,-5817,-6101,-1,0,-1
129.26,178.69,-136.20,237,-5827,-6085,0,-1,0
129.26,178.69,-136.20,233,-5798,-6088,0,0,-1
129.28,178.69,-136.19,236,-5817,-6080,0,-1,0
129.26,178.69,-136.20,228,-5813,-6089,-1,0,-1
129.28,178.69,-136.20,239,-5836,-6090,-1,-1,0
129.26,178.69,-136.20,225,-5825,-6095,-1,-1,0
129.26,178.69,-136.21,232,-5826,-6110,-1,-1,0
129.26,178.69,-136.21,223,-5804,-6082,0,-1,0
129.26,178.69,-136.22,219,-5802,-6085,-1,0,0
129.26,178.69,-136.21,236,-5823,-6101,0,-1,0
129.25,178.70,-136.23,211,-5795,-6087,-1,-1,0
129.24,178.71,-136.23,215,-5826,-6101,-1,-1,0
129.24,178.70,-136.24,218,-5805,-6109,0,0,-1
129.25,178.69,-136.23,230,-5825,-6118,0,0,0
129.24,178.70,-136.23,234,-5814,-6098,0,-1,0
129.24,178.71,-136.23,220,-5818,-6082,-1,-1,0
129.24,178.71,-136.23,221,-5806,-6081,-1,-1,0
129.23,178.70,-136.25,225,-5802,-6088,-1,-1,0
129.23,178.71,-136.25,227,-5830,-6103,-1,-1,0
129.21,178.72,-136.28,214,-5798,-6101,-1,0,0
129.21,178.72,-136.28,224,-5816,-6116,-1,-1,0
129.20,178.71,-136.28,224,-5790,-6074,-1,0,0
129.20,178.71,-136.29,221,-5809,-6098,-1,-1,0
129.20,178.71,-136.30,220,-5806,-6093,-1,-1,0
129.19,178.72,-136.30,220,-5819,-6103,-1,-1,0
129.19,178.72,-136.31,223,-5823,-6118,-1,-1,0
129.19,178.71,-136.32,224,-5806,-6103,-1,-1,0
129.19,178.72,-136.32,218,-5804,-6099,-1,0,0
129.18,178.71,-136.31,218,-5806,-6084,-1,0,-1
129.17,178.71,-136.32,217,-5802,-6118,-1,-1,0
129.18,178.71,-136.32,223,-5813,-6106,0,-1,0
129.18,178.71,-136.33,217,-5800,-6111,0,-1,0
129.18,178.70,-136.33,224,-5811,-6090,-1,0,-1
129.18,178.70,-136.33,221,-5800,-6098,0,-1,0
129.18,178.70,-136.33,221,-5806,-6117,0,-1,0
129.18,178.70,-136.32,206,-5792,-6090,0,0,0
129.18,178.70,-136.32,210,-5803,-6122,-1,-1,0
129.19,178.71,-136.32,214,-5791,-6105,0,-1,0
129.18,178.71,-136.33,219,-5788,-6101,-1,-1,0
129.18,178.72,-136.32,210,-5816,-6118,0,0,-1
129.18,178.70,-136.32,221,-5812,-6127,0,0,0
129.19,178.71,-136.32,229,-5819,-6110,0,-1,0
129.18,178.71,-136.32,218,-5795,-6097,-1,0,0
129.18,178.71,-136.32,231,-5811,-6107,-1,-1,0
129.18,178.71,-136.33,221,-5804,-6107,0,0,0
129.18,178.71,-136.32,232,-5802,-6127,0,0,0
129.19,178.72,-136.31,218,-5806,-6107,1,-1,0
129.19,178.72,-136.30,230,-5799,-6087,-1,-1,0
129.19,178.71,-136.31,220,-5788,-6116,0,0,-1
129.19,178.72,-136.31,215,-5793,-6098,-1,-1,0
129.19,178.72,-136.31,209,-5807,-6110,0,0,-1
129.19,178.72,-136.31,197,-5819,-6127,-1,0,0
129.20,178.71,-136.30,232,-5831,-6118,0,-1,0
129.19,178.72,-136.30,205,-5789,-6080,0,-1,0
129.20,178.72,-136.29,220,-5810,-6067,-1,-1,0
129.19,178.72,-136.31,203,-5797,-6097,-1,-1,0
129.18,178.73,-136.32,205,-5826,-6126,-1,-1,0
129.19,178.72,-136.31,215,-5806,-6110,0,0,-1
129.20,178.71,-136.29,230,-5822,-6134,0,0,0
129.20,178.70,-136.27,227,-5795,-6078,1,-1,0
129.21,178.71,-136.26,222,-5819,-6096,-1,-1,0
129.21,178.71,-136.25,217,-5799,-6044,0,-1,0
129.20,178.72,-136.27,207,-5818,-6094,-1,-1,0
129.21,178.72,-136.26,230,-5804,-6081,0,-1,0
129.20,178.73,-136.27,211,-5828,-6127,-1,-1,0
129.20,178.73,-136.27,219,-5818,-6061,-1,-1,-1
129.18,178.74,-136.30,203,-5790,-6081,-1,-1,0
129.18,178.74,-136.30,214,-5801,-6090,-1,-1,0
129.18,178.74,-136.32,214,-5800,-6120,-1,0,0
129.18,178.74,-136.31,215,-5824,-6133,-1,-1,0
129.18,178.74,-136.32,218,-5786,-6104,0,-1,0
129.18,178.74,-136.31,222,-5797,-6101,0,-1,0
129.18,178.74,-136.30,223,-5800,-6113,1,-1,0
129.19,178.75,-136.28,214,-5786,-6076,0,-1,0
129.19,178.75,-136.27,216,-5812,-6085,0,-1,0
129.19,178.76,-136.27,207,-5809,-6088,0,-1,0
129.21,178.76,-136.25,217,-5825,-6104,0,-1,0
129.22,178.76,-136.24,219,-5810,-6081,0,-1,-1
129.22,178.75,-136.23,222,-5806,-6069,-1,-1,0
129.22,178.76,-136.22,212,-5815,-6101,0,-1,0
129.23,178.75,-136.21,226,-5800,-6066,0,-1,0
129.23,178.77,-136.21,215,-5818,-6081,0,-1,0
129.23,178.77,-136.21,213,-5817,-6092,0,-1,0
129.23,178.77,-136.20,200,-5823,-6111,0,-1,-1
129.24,178.77,-136.18,213,-5814,-6101,1,-1,0
129.26,178.77,-136.15,201,-5802,-6097,1,0,-1
129.28,178.77,-136.11,211,-5831,-6091,0,-1,0
129.29,178.76,-136.10,212,-5828,-6118,1,-1,-1
129.30,178.77,-136.07,213,-5835,-6064,-1,-1,0
129.29,178.77,-136.08,214,-5827,-6052,-1,-1,0
129.29,178.77,-136.10,197,-5806,-6034,-2,0,-1
129.27,178.77,-136.12,220,-5829,-6088,-1,-1,0
129.28,178.78,-136.13,211,-5810,-6065,-1,-1,0
129.28,178.78,-136.11,207,-5834,-6108,0,0,-1
129.29,178.77,-136.11,224,-5824,-6072,0,-1,0
129.29,178.77,-136.10,209,-5832,-6088,0,0,-1
129.29,178.76,-136.10,230,-5835,-6056,-1,-1,0
129.27,178.77,-136.12,201,-5820,-6095,-1,0,-1
129.27,178.75,-136.13,217,-5833,-6083,-1,-1,0
129.27,178.75,-136.15,213,-5821,-6121,0,0,0
129.27,178.75,-136.13,213,-5831,-6099,0,-1,0
129.27,178.75,-136.12,227,-5809,-6067,0,0,-1
129.28,178.74,-136.12,209,-5821,-6080,-1,0,-1
129.29,178.72,-136.10,228,-5859,-6092,1,-1,0
129.29,178.72,-136.10,212,-5832,-6066,-1,0,-1
129.28,178.70,-136.12,228,-5835,-6078,-1,0,-1
129.28,178.69,-136.14,228,-5825,-6086,-1,0,-1
129.27,178.70,-136.15,221,-5831,-6094,-1,-1,0
129.27,178.70,-136.14,226,-5817,-6082,0,0,-1
129.27,178.69,-136.14,218,-5825,-6087,-1,0,-1
129.29,178.67,-136.12,232,-5837,-6101,0,-1,0
129.28,178.67,-136.13,219,-5820,-6102,-1,0,-1
129.29,178.65,-136.11,222,-5839,-6078,0,0,-1
129.30,178.62,-136.11,216,-5822,-6098,1,1,-2
129.31,178.58,-136.11,248,-5841,-6078,-1,0,-1
129.31,178.57,-136.12,224,-5798,-6045,-1,0,-1
129.31,178.53,-136.14,241,-5804,-6072,-1,0,-1
129.31,178.50,-136.13,250,-5805,-6061,0,0,-1
129.31,178.49,-136.14,237,-5822,-6100,-1,0,-1
129.29,178.46,-136.16,248,-5810,-6073,-2,1,-1
129.29,178.43,-136.19,238,-5826,-6094,-2,0,-1
129.28,178.40,-136.21,271,-5841,-6109,-1,0,-1
129.27,178.38,-136.24,251,-5846,-6100,-1,0,-1
129.27,178.35,-136.26,260,-5821,-6099,-1,0,-1
129.27,178.31,-136.30,255,-5793,-6070,-2,1,-2
129.26,178.25,-136.34,281,-5785,-6114,-1,1,-2
129.26,178.21,-136.34,298,-5821,-6141,-1,0,-1
129.28,178.18,-136.34,299,-5819,-6162,0,0,-1
129.29,178.16,-136.32,290,-5810,-6137,0,0,-1
129.30,178.13,-136.29,279,-5801,-6108,0,1,-1
129.31,178.10,-136.29,298,-5805,-6132,-1,0,-1
129.32,178.07,-136.28,311,-5796,-6120,0,0,-1
129.33,178.06,-136.26,322,-5801,-6110,0,0,-1
129.33,178.05,-136.24,313,-5807,-6089,0,-1,0
129.33,178.06,-136.24,300,-5809,-6094,0,0,0
129.34,178.03,-136.23,310,-5804,-6101,0,0,-1
129.34,178.01,-136.22,310,-5818,-6109,0,0,-1
129.36,177.99,-136.19,332,-5838,-6126,1,0,-1
129.37,177.99,-136.16,320,-5838,-6094,0,0,0
129.37,177.99,-136.14,320,-5844,-6087,0,0,0
129.37,177.99,-136.13,294,-5796,-6049,-1,0,-1
129.38,177.97,-136.14,333,-5798,-6059,-1,0,-1
129.37,177.95,-136.15,322,-5773,-6033,-1,0,-1
129.36,177.94,-136.18,353,-5814,-6065,-2,-1,0
129.35,177.95,-136.21,333,-5834,-6097,-2,-1,0
129.33,177.95,-136.24,330,-5855,-6130,-2,-1,0
129.32,177.94,-136.27,316,-5823,-6108,-1,0,-1
129.31,177.93,-136.29,329,-5809,-6105,-2,0,-1
129.30,177.92,-136.31,333,-5784,-6105,0,0,-1
129.30,177.92,-136.31,337,-5790,-6100,0,-1,0
129.30,177.92,-136.29,337,-5798,-6108,0,0,0
129.31,177.92,-136.27,337,-5803,-6098,0,0,0
129.32,177.91,-136.26,349,-5802,-6073,0,-1,0
129.31,177.91,-136.27,337,-5791,-6079,-1,-1,0
129.31,177.91,-136.27,352,-5812,-6098,-1,-1,0
129.31,177.92,-136.26,341,-5818,-6121,0,0,0
129.31,177.91,-136.24,351,-5828,-6101,0,-1,0
129.32,177.93,-136.23,328,-5802,-6094,0,-1,0
129.32,177.93,-136.22,350,-5812,-6085,-1,-1,0
129.31,177.94,-136.23,333,-5807,-6106,0,-1,0
129.31,177.95,-136.22,344,-5802,-6071,-1,-1,0
129.32,177.97,-136.23,337,-5800,-6063,-1,-1,0
129.30,177.99,-136.25,331,-5819,-6106,-1,-1,0
129.29,178.01,-136.25,324,-5806,-6109,0,-1,0
129.30,178.03,-136.24,325,-5806,-6100,0,-1,0
129.30,178.04,-136.23,326,-5795,-6072,0,-1,0
129.29,178.07,-136.25,322,-5798,-6072,-1,-1,0
129.28,178.08,-136.26,327,-5823,-6105,-1,-1,0
129.27,178.09,-136.28,312,-5822,-6129,-1,-1,0
129.27,178.10,-136.27,315,-5825,-6145,1,-1,0
129.28,178.12,-136.22,303,-5822,-6150,2,-1,0
129.31,178.14,-136.13,305,-5815,-6103,2,-1,0
129.34,178.17,-136.06,299,-5813,-6088,2,-1,0
129.37,178.19,-135.99,301,-5837,-6072,2,-1,0
129.40,178.21,-135.93,291,-5852,-6061,1,-1,0
129.43,178.24,-135.88,293,-5847,-6054,1,-1,0
129.43,178.25,-135.85,281,-5854,-6071,1,-1,0
129.45,178.27,-135.80,306,-5849,-6062,2,-1,0
129.47,178.29,-135.75,289,-5845,-6080,2,-1,0
129.50,178.31,-135.67,296,-5845,-6040,2,-2,0
129.52,178.34,-135.63,276,-5848,-6031,1,-1,0
129.55,178.36,-135.58,280,-5864,-6028,1,-1,0
129.56,178.39,-135.53,275,-5877,-6035,2,-1,0
129.58,178.41,-135.46,264,-5894,-6018,1,-1,0
129.61,178.42,-135.39,273,-5929,-6077,3,-1,0
129.64,178.44,-135.28,259,-5917,-6060,4,-1,0
129.72,178.48,-135.12,281,-5937,-6046,5,-2,1
129.78,178.53,-134.98,268,-5924,-5986,5,-2,1
129.84,178.57,-134.84,255,-5923,-5902,3,-1,1
129.87,178.59,-134.76,244,-5931,-5937,3,-1,0
129.90,178.60,-134.67,242,-5959,-5948,3,-1,0
129.95,178.62,-134.55,254,-5971,-5957,4,-1,1
129.98,178.64,-134.44,232,-5970,-5918,3,-1,0
130.03,178.66,-134.33,241,-6014,-5942,4,-1,0
130.06,178.69,-134.23,219,-6019,-5921,3,-1,0
130.10,178.71,-134.12,230,-6035,-5915,3,-1,1
130.15,178.74,-134.01,213,-6023,-5890,4,-1,0
130.19,178.77,-133.89,223,-6023,-5860,3,-1,1
130.23,178.81,-133.79,207,-6025,-5836,3,-1,1
130.27,178.83,-133.71,194,-6031,-5805,1,-1,0
130.28,178.84,-133.66,200,-6060,-5834,2,-1,0
130.30,178.86,-133.61,185,-6065,-5828,1,-1,0
130.31,178.87,-133.56,209,-6086,-5834,1,-1,0
130.33,178.90,-133.52,190,-6072,-5836,2,-1,0
130.36,178.91,-133.45,199,-6080,-5789,1,-1,0
130.36,178.93,-133.41,189,-6088,-5803,1,-1,0
130.37,178.95,-133.37,194,-6098,-5786,0,-1,0
130.38,178.96,-133.35,183,-6089,-5776,0,-1,0
130.37,178.96,-133.36,173,-6079,-5765,-1,0,0
130.36,178.96,-133.37,189,-6103,-5785,-1,0,0
130.35,178.96,-133.37,186,-6115,-5789,-1,-1,0
130.34,178.98,-133.37,187,-6117,-5813,0,-1,0
130.33,178.99,-133.36,187,-6115,-5811,0,-1,0
130.33,179.00,-133.36,180,-6105,-5791,-1,-1,0
130.32,179.00,-133.37,184,-6097,-5756,-1,-1,0
130.31,179.01,-133.39,170,-6086,-5791,-1,-1,0
130.30,179.01,-133.40,180,-6107,-5800,-1,-1,0
130.29,179.01,-133.42,177,-6100,-5797,-1,-1,0
130.28,179.01,-133.45,183,-6111,-5815,-2,0,0
130.26,179.01,-133.47,183,-6097,-5827,-1,-1,0
130.25,179.02,-133.49,176,-6094,-5819,-1,-1,0
130.25,179.02,-133.49,180,-6091,-5797,0,-1,0
130.23,179.02,-133.50,176,-6105,-5828,-1,0,0
130.23,179.02,-133.51,187,-6100,-5816,0,-1,0
130.22,179.02,-133.52,167,-6087,-5833,-1,0,0
130.22,179.02,-133.51,177,-6100,-5843,0,-1,0
130.23,179.02,-133.49,169,-6094,-5861,1,0,0
130.25,179.03,-133.45,180,-6103,-5830,1,-1,0
130.26,179.03,-133.40,178,-6115,-5849,2,-1,0
130.28,179.05,-133.35,181,-6132,-5824,1,-1,0
130.29,179.06,-133.30,176,-6118,-5831,2,-1,0
130.31,179.08,-133.23,166,-6099,-5781,1,-1,0
130.34,179.08,-133.17,165,-6104,-5776,2,0,0
130.35,179.08,-133.12,176,-6127,-5790,1,0,0
130.37,179.08,-133.07,173,-6125,-5788,2,-1,0
130.38,179.08,-133.04,166,-6127,-5771,0,0,0
130.40,179.08,-133.00,164,-6134,-5768,1,0,-1
130.41,179.06,-132.97,161,-6153,-5762,0,0,0
130.42,179.06,-132.94,164,-6175,-5760,1,0,0
130.43,179.05,-132.91,152,-6180,-5788,0,0,-1
130.45,179.04,-132.89,180,-6170,-5735,0,-1,0
130.44,179.04,-132.88,147,-6155,-5740,0,0,0
130.46,179.03,-132.85,161,-6161,-5727,1,0,0
130.47,179.02,-132.83,155,-6128,-5721,0,-1,0
130.48,179.05,-132.79,178,-6125,-5696,1,-1,0
130.49,179.06,-132.77,162,-6148,-5768,1,-1,0
130.52,179.07,-132.71,178,-6187,-5782,1,-1,0
130.55,179.10,-132.63,168,-6197,-5777,3,-1,0
130.60,179.12,-132.56,171,-6200,-5748,1,-1,0
130.63,179.14,-132.49,167,-6215,-5754,3,-1,0
130.64,179.16,-132.43,162,-6186,-5711,2,-1,0
130.68,179.17,-132.37,162,-6178,-5671,2,-1,0
130.69,179.18,-132.35,149,-6154,-5621,0,-1,0
130.70,179.18,-132.35,154,-6185,-5635,-1,-1,-1
130.69,179.17,-132.38,161,-6195,-5653,-2,0,-1
130.67,179.16,-132.41,169,-6230,-5698,-2,-1,0
130.65,179.17,-132.44,168,-6238,-5720,-1,-1,0
130.64,179.18,-132.47,161,-6216,-5710,-2,-1,0
130.62,179.18,-132.50,147,-6186,-5702,-1,-1,-1
130.58,179.18,-132.56,145,-6154,-5679,-3,0,-1
130.57,179.16,-132.62,158,-6150,-5638,-3,0,-1
130.51,179.13,-132.72,148,-6174,-5708,-4,0,-1
130.48,179.10,-132.81,181,-6192,-5709,-4,0,-1
130.41,179.07,-132.92,147,-6152,-5730,-4,0,-1
130.38,179.04,-133.01,174,-6165,-5776,-3,0,-1
130.35,179.03,-133.07,165,-6156,-5814,-1,0,-1
130.33,179.02,-133.10,175,-6152,-5790,-2,0,0
130.32,179.01,-133.13,164,-6133,-5781,-1,0,-1
130.31,179.02,-133.15,174,-6143,-5783,-2,-1,0
130.30,179.02,-133.16,176,-6139,-5794,0,-1,0
130.31,179.04,-133.17,161,-6129,-5761,-1,-1,0
130.30,179.04,-133.19,166,-6144,-5766,-1,-1,-1
130.30,179.04,-133.20,160,-6149,-5784,-1,-1,-1
130.30,179.05,-133.22,175,-6149,-5794,-1,-1,0
130.29,179.07,-133.23,162,-6128,-5780,-1,-1,0
130.30,179.08,-133.23,163,-6121,-5773,-1,-1,0
130.30,179.09,-133.25,174,-6121,-5776,-1,-1,0
130.29,179.08,-133.26,194,-6125,-5830,0,-1,0
130.30,179.09,-133.27,178,-6123,-5828,-1,-1,0
130.32,179.09,-133.27,199,-6120,-5812,0,-1,0
130.32,179.10,-133.27,165,-6112,-5820,0,-1,-1
130.32,179.10,-133.26,180,-6111,-5799,0,-1,0
130.32,179.10,-133.26,158,-6112,-5817,0,-1,-1
130.33,179.09,-133.24,161,-6144,-5794,-1,0,-1
130.34,179.09,-133.23,170,-6149,-5805,0,-1,0
130.34,179.09,-133.23,142,-6116,-5772,-1,0,-1
130.34,179.09,-133.24,163,-6116,-5755,-1,-1,0
130.32,179.08,-133.27,147,-6090,-5776,-1,0,-1
130.32,179.06,-133.28,176,-6121,-5784,-1,0,0
130.31,179.06,-133.30,171,-6120,-5830,0,0,-1
130.31,179.04,-133.29,178,-6130,-5803,0,0,0
130.32,179.04,-133.26,176,-6141,-5840,1,0,-1
130.34,179.03,-133.23,168,-6129,-5807,0,0,0
130.36,179.03,-133.19,178,-6132,-5787,1,-1,0
130.37,179.02,-133.17,152,-6122,-5783,0,0,-1
130.39,179.01,-133.13,183,-6134,-5765,1,0,0
130.40,179.00,-133.11,177,-6128,-5787,0,-1,0
130.41,179.00,-133.09,184,-6141,-5740,0,0,0
130.42,178.99,-133.08,179,-6134,-5763,0,0,-1
130.42,178.98,-133.07,184,-6142,-5759,-1,0,-1
130.42,178.97,-133.07,187,-6147,-5765,0,-1,0
130.42,178.98,-133.06,163,-6125,-5754,0,0,0
130.44,178.97,-133.04,180,-6160,-5772,0,-1,0
130.44,178.97,-133.02,174,-6136,-5765,0,0,-1
130.46,178.98,-133.00,196,-6154,-5744,0,-1,0
130.44,178.97,-133.01,185,-6136,-5746,-1,-1,0
130.44,178.97,-133.02,193,-6137,-5711,-2,0,0
130.40,178.95,-133.08,186,-6120,-5717,-3,0,-1
130.37,178.93,-133.13,177,-6128,-5749,-2,0,-1
130.33,178.92,-133.19,184,-6129,-5797,-2,0,-1
130.31,178.91,-133.23,179,-6142,-5827,-1,0,-1
130.29,178.90,-133.25,184,-6141,-5818,-1,0,-1
130.29,178.90,-133.27,187,-6119,-5785,-1,0,-1
130.27,178.90,-133.30,189,-6097,-5777,-1,-1,0
130.25,178.90,-133.33,192,-6092,-5767,-1,-1,0
130.23,178.89,-133.37,178,-6089,-5786,-2,0,-1
130.21,178.89,-133.40,196,-6114,-5807,-1,-1,0
130.19,178.88,-133.42,188,-6115,-5830,-1,-1,0
130.19,178.88,-133.43,198,-6114,-5820,-1,-1,0
130.19,178.89,-133.44,191,-6087,-5804,-1,-1,0
130.18,178.88,-133.45,202,-6105,-5794,-1,-1,0
130.17,178.88,-133.46,192,-6096,-5823,-1,0,-1
130.17,178.87,-133.48,193,-6109,-5811,-2,0,-1
130.17,178.87,-133.49,194,-6103,-5819,0,-1,-1
130.15,178.87,-133.51,192,-6101,-5812,-1,0,0
130.15,178.87,-133.51,193,-6098,-5816,0,-1,0
130.15,178.87,-133.51,185,-6094,-5826,-1,0,0
130.15,178.87,-133.51,200,-6105,-5822,0,-1,0
130.15,178.87,-133.52,179,-6081,-5817,-1,0,-1
130.15,178.87,-133.52,203,-6086,-5785,-1,-1,0
130.13,178.87,-133.54,186,-6077,-5802,-1,0,-1
130.13,178.87,-133.55,202,-6091,-5798,-1,-1,0
130.12,178.87,-133.57,188,-6081,-5825,-1,-1,0
130.12,178.87,-133.57,200,-6099,-5838,-1,-1,0
130.12,178.88,-133.57,195,-6088,-5837,0,-1,0
130.12,178.89,-133.56,198,-6092,-5808,-1,-1,0
130.12,178.89,-133.57,202,-6080,-5815,0,-1,0
130.12,178.89,-133.57,189,-6093,-5816,-1,0,0
130.12,178.89,-133.56,195,-6100,-5818,0,-1,0
130.12,178.89,-133.56,189,-6096,-5812,-1,-1,0
130.12,178.90,-133.56,202,-6100,-5814,0,-1,0
130.12,178.90,-133.57,187,-6073,-5812,-1,-1,0
130.12,178.90,-133.58,205,-6087,-5796,-1,-1,0
130.11,178.90,-133.60,182,-6080,-5820,-1,0,-1
130.10,178.90,-133.61,191,-6087,-5813,-1,-1,0
130.10,178.91,-133.62,184,-6083,-5849,0,-1,0
130.11,178.92,-133.61,190,-6096,-5852,0,-1,0
130.12,178.93,-133.60,192,-6108,-5858,0,-1,0
130.14,178.95,-133.57,192,-6112,-5851,0,-1,0
130.16,178.97,-133.54,192,-6101,-5825,1,-2,0
130.18,178.99,-133.52,194,-6086,-5813,1,-2,0
130.20,179.01,-133.50,183,-6086,-5813,0,-1,0
130.22,179.02,-133.49,194,-6098,-5805,0,-1,0
130.22,179.03,-133.48,186,-6101,-5813,0,-1,0
130.23,179.05,-133.47,167,-6107,-5794,-1,-1,0
130.23,179.05,-133.48,176,-6104,-5807,0,-1,0
130.23,179.06,-133.48,158,-6084,-5804,-1,0,0
130.24,179.06,-133.46,184,-6107,-5799,0,-1,0
130.23,179.06,-133.47,159,-6098,-5825,-1,-1,-1
130.24,179.06,-133.45,173,-6124,-5801,-1,0,0
130.23,179.06,-133.46,164,-6108,-5818,0,-1,0
130.24,179.06,-133.45,180,-6097,-5769,-1,0,0
130.23,179.06,-133.47,174,-6103,-5804,0,-1,0
130.23,179.06,-133.47,154,-6097,-5807,-1,0,-1
130.23,179.05,-133.47,180,-6108,-5808,0,-1,0
130.23,179.05,-133.46,154,-6089,-5812,0,0,-1
130.24,179.04,-133.45,169,-6101,-5762,-1,0,-1
130.23,179.02,-133.48,163,-6100,-5820,-1,0,-1
130.23,179.02,-133.49,182,-6115,-5801,-2,0,0
130.22,179.00,-133.51,177,-6092,-5804,0,-1,-1
130.20,178.99,-133.53,172,-6087,-5778,-2,0,-1
130.18,178.98,-133.58,185,-6103,-5810,-2,0,-1
130.16,178.97,-133.61,167,-6104,-5866,-1,0,-1
130.18,178.95,-133.59,196,-6113,-5849,1,-1,0
130.18,178.95,-133.57,167,-6084,-5839,0,0,-1
130.20,178.94,-133.54,201,-6098,-5815,0,-1,0
130.20,178.94,-133.53,181,-6096,-5817,0,-1,-1
130.20,178.94,-133.53,191,-6094,-5765,-2,0,0
130.19,178.92,-133.56,188,-6095,-5829,0,-1,-1
130.18,178.93,-133.56,190,-6084,-5820,-1,-1,0
130.18,178.93,-133.56,185,-6087,-5818,0,-1,0
130.18,178.92,-133.56,170,-6082,-5829,-1,0,-1
130.19,178.92,-133.55,205,-6108,-5834,0,-1,0
130.18,178.93,-133.56,174,-6097,-5838,-1,0,-1
130.18,178.92,-133.55,181,-6095,-5812,-1,-1,0
130.18,178.92,-133.55,172,-6080,-5832,0,0,-1
130.20,178.91,-133.53,194,-6079,-5777,0,0,0
130.20,178.91,-133.53,202,-6097,-5827,1,-1,0
130.20,178.92,-133.51,200,-6096,-5809,0,0,0
130.20,178.91,-133.49,198,-6093,-5808,0,0,0
130.20,178.90,-133.49,190,-6090,-5810,-1,0,0
130.21,178.91,-133.48,207,-6103,-5824,1,-1,0
130.21,178.92,-133.47,181,-6083,-5800,0,0,0
130.22,178.92,-133.45,211,-6094,-5790,0,-1,0
130.21,178.95,-133.44,180,-6093,-5791,0,-1,0
130.22,178.96,-133.44,186,-6090,-5740,-2,0,0
130.19,178.95,-133.48,177,-6114,-5828,-1,-1,0
130.18,178.97,-133.49,195,-6088,-5784,-2,-1,0
130.16,178.98,-133.52,185,-6089,-5811,-1,-1,0
130.14,178.99,-133.54,181,-6093,-5797,-2,-1,0
130.12,178.99,-133.57,176,-6101,-5827,-1,0,0
130.11,178.99,-133.60,182,-6120,-5850,-2,-1,0
130.10,179.00,-133.61,182,-6102,-5849,0,-1,0
130.10,179.00,-133.61,181,-6080,-5822,-1,-1,0
130.09,179.01,-133.63,176,-6079,-5820,-1,-1,0
130.08,179.00,-133.65,182,-6093,-5838,-1,-1,0
130.08,179.00,-133.66,181,-6084,-5831,-1,-1,0
130.07,179.01,-133.67,181,-6093,-5837,-1,-1,0
130.07,179.01,-133.67,180,-6078,-5854,0,-1,0
130.07,179.01,-133.67,192,-6086,-5825,-1,-1,0
130.07,179.01,-133.67,176,-6072,-5838,0,-1,0
130.07,179.01,-133.67,179,-6080,-5817,-1,0,0
130.06,179.02,-133.68,180,-6082,-5841,-1,-1,0
130.06,179.01,-133.67,182,-6089,-5829,-1,-1,0
130.06,179.02,-133.68,180,-6067,-5822,0,-1,0
130.06,179.02,-133.67,178,-6081,-5841,0,-1,0
130.07,179.02,-133.66,169,-6081,-5834,0,0,0
130.07,179.03,-133.65,170,-6095,-5848,0,-1,0
130.07,179.01,-133.64,177,-6078,-5825,0,0,-1
130.07,179.02,-133.64,171,-6089,-5845,-1,-1,0
130.07,179.02,-133.64,168,-6082,-5834,0,-1,0
130.07,179.03,-133.65,178,-6069,-5814,-1,-1,0
130.06,179.02,-133.66,174,-6078,-5827,0,-1,0
130.06,179.02,-133.66,173,-6073,-5830,0,0,0
130.06,179.02,-133.65,173,-6092,-5827,-1,-1,0
130.05,179.02,-133.66,172,-6076,-5841,0,-1,0
130.05,179.03,-133.65,177,-6087,-5839,0,-1,0
130.05,179.03,-133.64,163,-6082,-5847,0,0,0
130.07,179.03,-133.61,179,-6094,-5811,0,-1,0
130.06,179.03,-133.62,169,-6077,-5817,-1,0,0
130.06,179.03,-133.62,185,-6086,-5817,0,-1,0
130.06,179.03,-133.61,183,-6090,-5822,0,-1,0
130.06,179.03,-133.61,182,-6092,-5810,-1,-1,0
130.06,179.02,-133.63,171,-6084,-5825,-1,-1,0
130.05,179.02,-133.64,177,-6083,-5850,-1,0,0
130.05,179.02,-133.64,175,-6082,-5836,0,-1,0
130.05,179.01,-133.64,175,-6084,-5828,-1,0,0
130.05,179.01,-133.65,186,-6078,-5809,-1,-1,0
130.03,179.01,-133.66,177,-6070,-5836,0,0,0
130.03,179.01,-133.65,184,-6087,-5831,0,-1,0
130.03,179.00,-133.66,168,-6069,-5829,0,0,0
130.03,179.00,-133.66,184,-6100,-5850,-1,-1,0
130.03,179.01,-133.65,166,-6078,-5829,0,0,0
130.04,179.00,-133.64,180,-6078,-5798,-1,0,0
130.02,179.00,-133.65,166,-6085,-5832,-1,0,-1
130.02,179.00,-133.66,178,-6090,-5822,-1,-1,0
130.02,179.00,-133.67,174,-6078,-5822,0,-1,0
130.02,179.00,-133.67,176,-6091,-5829,-1,-1,0
130.02,179.00,-133.67,173,-6072,-5828,0,-1,0
130.01,179.01,-133.68,177,-6093,-5838,-1,-1,0
130.01,179.01,-133.68,169,-6072,-5823,0,-1,0
130.01,179.00,-133.69,168,-6069,-5826,-1,0,0
130.00,179.00,-133.70,175,-6078,-5833,0,-1,0
129.99,179.01,-133.70,173,-6088,-5845,0,0,0
130.01,179.01,-133.70,177,-6093,-5816,-1,-1,0
129.99,179.01,-133.71,171,-6074,-5823,-1,0,0
129.98,179.01,-133.72,182,-6087,-5836,-1,-1,0
129.98,179.01,-133.74,161,-6064,-5830,-1,0,0
129.96,179.01,-133.75,176,-6082,-5858,-1,0,0
129.96,179.01,-133.76,169,-6077,-5867,0,-1,-1
129.96,179.01,-133.76,188,-6081,-5854,-1,-1,0
129.96,179.01,-133.76,181,-6053,-5839,0,-1,0
129.95,179.02,-133.75,165,-6071,-5835,-1,0,0
129.95,179.02,-133.77,167,-6081,-5837,-1,0,-1
129.94,179.01,-133.79,172,-6078,-5848,-1,0,-1
129.94,179.01,-133.79,180,-6071,-5831,0,-1,0
129.94,179.01,-133.80,175,-6075,-5845,-1,-1,0
129.93,179.02,-133.80,176,-6071,-5848,0,-1,0
129.93,179.03,-133.81,165,-6067,-5850,-1,0,0
129.93,179.03,-133.81,180,-6084,-5872,0,-1,0
129.93,179.04,-133.80,168,-6069,-5857,0,-1,0
129.93,179.04,-133.80,180,-6074,-5839,-1,-1,0
129.93,179.04,-133.80,170,-6050,-5854,0,-1,0
129.94,179.04,-133.80,169,-6057,-5847,0,-1,0
129.93,179.05,-133.79,163,-6054,-5852,0,-1,0
129.95,179.06,-133.78,170,-6072,-5855,0,-1,0
129.95,179.07,-133.77,164,-6077,-5870,0,-1,0
129.97,179.08,-133.75,180,-6075,-5867,0,-1,0
129.98,179.09,-133.73,166,-6068,-5847,0,-1,0
129.99,179.10,-133.71,167,-6056,-5862,1,-1,0
130.01,179.11,-133.69,157,-6050,-5843,0,-1,0
130.03,179.12,-133.65,168,-6071,-5837,1,-1,0
130.04,179.14,-133.64,156,-6083,-5835,0,-1,0
130.05,179.14,-133.61,160,-6094,-5818,0,-1,0
130.05,179.15,-133.60,136,-6093,-5805,0,-1,0
130.06,179.15,-133.59,160,-6099,-5796,0,0,0
130.06,179.15,-133.58,152,-6102,-5809,0,-1,0
130.05,179.16,-133.59,147,-6097,-5810,-1,-1,0
130.05,179.16,-133.59,143,-6089,-5814,0,-1,0
130.05,179.16,-133.59,146,-6088,-5821,-1,0,0
130.04,179.17,-133.60,157,-6102,-5826,0,-1,0
130.04,179.16,-133.61,153,-6083,-5836,0,0,-1
130.05,179.15,-133.60,180,-6100,-5832,0,-1,0
130.03,179.15,-133.61,163,-6085,-5842,0,-1,0
130.04,179.16,-133.60,161,-6099,-5822,-1,-1,0
130.04,179.16,-133.61,152,-6081,-5832,-1,-1,0
130.03,179.16,-133.62,149,-6077,-5824,-1,0,-1
130.03,179.15,-133.62,156,-6082,-5832,0,-1,0
130.03,179.15,-133.62,150,-6087,-5841,0,-1,0
130.03,179.15,-133.61,157,-6099,-5834,0,-1,0
130.04,179.16,-133.61,148,-6089,-5817,-1,-1,0
130.04,179.16,-133.60,166,-6095,-5810,0,-1,0
130.02,179.16,-133.62,144,-6079,-5819,-1,0,-1
130.02,179.15,-133.63,158,-6097,-5822,-1,0,0
130.01,179.14,-133.65,148,-6073,-5830,-1,0,-1
130.01,179.14,-133.65,159,-6082,-5831,-1,-1,0
130.00,179.14,-133.65,166,-6086,-5837,0,-1,0
130.00,179.14,-133.65,163,-6075,-5834,-1,-1,0
130.00,179.14,-133.65,165,-6082,-5832,0,-1,0
130.00,179.14,-133.65,152,-6077,-5816,-1,0,-1
130.00,179.13,-133.66,162,-6097,-5823,-1,-1,0
130.00,179.14,-133.66,156,-6083,-5837,-1,0,-1
130.00,179.13,-133.66,165,-6085,-5826,-1,-1,0
129.99,179.12,-133.67,161,-6072,-5824,-1,0,-1
129.99,179.12,-133.67,168,-6086,-5818,-1,0,0
129.99,179.12,-133.69,162,-6071,-5828,-1,0,-1
129.99,179.11,-133.69,167,-6084,-5830,-1,-1,0
129.98,179.10,-133.70,162,-6075,-5817,-1,-1,0
129.98,179.10,-133.71,158,-6083,-5841,-1,0,0
129.98,179.09,-133.71,164,-6073,-5821,-1,0,0
129.97,179.09,-133.72,165,-6072,-5827,-1,0,0
129.96,179.09,-133.72,168,-6078,-5827,-1,-1,-1
129.96,179.08,-133.74,162,-6074,-5828,-1,0,0
129.95,179.08,-133.75,166,-6088,-5844,-1,-1,0
129.94,179.08,-133.76,152,-6077,-5850,-1,0,-1
129.94,179.07,-133.76,184,-6089,-5858,0,0,0
129.94,179.06,-133.77,171,-6063,-5843,-1,0,-1
129.94,179.06,-133.77,177,-6081,-5856,0,-1,0
129.94,179.06,-133.77,163,-6064,-5837,0,0,-1
129.94,179.05,-133.78,172,-6075,-5839,-1,-1,0
129.93,179.05,-133.79,170,-6065,-5841,-1,0,-1
129.93,179.04,-133.80,180,-6074,-5855,-1,0,0
129.92,179.03,-133.82,168,-6056,-5836,-1,0,-1
129.91,179.03,-133.82,167,-6060,-5844,-1,-1,0
129.91,179.03,-133.82,166,-6052,-5848,-1,0,0
129.91,179.03,-133.82,173,-6062,-5847,-1,-1,0
129.91,179.03,-133.83,176,-6065,-5853,-1,-1,0
129.91,179.02,-133.84,180,-6071,-5852,0,-1,0
129.89,179.02,-133.85,176,-6071,-5850,-1,0,-1
129.89,179.01,-133.86,171,-6069,-5846,-1,0,-1
129.89,179.01,-133.86,174,-6057,-5840,-1,0,-1
129.88,179.00,-133.88,179,-6050,-5835,-1,0,-1
129.88,179.00,-133.89,178,-6059,-5855,-1,0,-1
129.87,178.99,-133.90,178,-6062,-5855,-1,-1,0
129.86,178.99,-133.91,183,-6063,-5865,-1,-1,0
129.86,178.99,-133.92,183,-6052,-5860,-1,-1,0
129.84,178.99,-133.94,178,-6048,-5873,-1,-1,0
129.84,178.99,-133.94,176,-6048,-5863,0,-1,0
129.85,179.00,-133.94,174,-6054,-5874,0,-1,0
129.85,179.00,-133.93,176,-6060,-5863,0,-1,0
129.85,179.00,-133.93,181,-6054,-5872,0,-1,0
129.86,179.00,-133.92,181,-6064,-5853,0,-1,0
129.86,179.00,-133.93,166,-6059,-5850,-1,-1,0
129.86,179.00,-133.94,174,-6051,-5840,-1,-1,-1
129.84,179.00,-133.96,161,-6036,-5857,-1,0,0
129.84,179.00,-133.97,175,-6045,-5856,-1,-1,0
129.82,178.99,-133.99,175,-6046,-5873,-1,-1,0
129.84,178.99,-133.98,186,-6061,-5864,-1,-1,0
129.82,179.00,-133.99,171,-6045,-5862,0,-1,0
129.82,179.00,-133.99,179,-6056,-5858,-1,-1,0
129.82,179.00,-133.99,175,-6043,-5854,0,0,0
129.82,178.99,-133.99,174,-6054,-5845,-1,-1,0
129.82,178.99,-133.99,176,-6041,-5852,0,-1,0
129.82,179.00,-133.99,185,-6050,-5849,-1,-1,0
129.81,179.00,-134.00,176,-6042,-5849,-1,-1,-1
129.82,179.00,-134.01,187,-6054,-5859,-1,-1,0
129.82,178.99,-134.01,178,-6039,-5858,0,-1,-1
129.82,178.99,-134.01,175,-6049,-5868,-1,-1,0
129.82,178.99,-134.01,179,-6036,-5869,0,-1,0
129.82,178.99,-134.01,180,-6042,-5863,-1,-1,0
129.82,178.99,-134.02,174,-6040,-5854,-1,-1,0
129.80,178.99,-134.03,174,-6052,-5868,-1,0,0
129.80,178.99,-134.03,182,-6045,-5857,-1,-1,0
129.80,178.99,-134.03,182,-6048,-5869,0,-1,0
129.81,179.00,-134.03,176,-6047,-5858,0,-1,0
129.79,179.00,-134.04,180,-6046,-5866,-1,-1,0
129.79,179.00,-134.05,172,-6041,-5863,-1,-1,0
129.79,178.99,-134.05,172,-6048,-5871,-1,0,0
129.79,178.99,-134.06,180,-6049,-5872,0,-1,-1
129.79,178.99,-134.06,184,-6045,-5885,-1,-1,0
129.79,178.99,-134.06,193,-6041,-5878,0,-1,0
129.79,178.99,-134.06,177,-6042,-5881,-1,-1,0
129.79,178.99,-134.06,180,-6040,-5866,-1,-1,0
129.79,178.99,-134.07,173,-6032,-5871,-1,-1,0
129.79,178.99,-134.07,186,-6046,-5869,-1,-1,0
129.77,179.00,-134.08,175,-6042,-5884,-1,-1,0
129.78,179.00,-134.08,175,-6047,-5883,0,-1,0
129.78,179.00,-134.08,166,-6044,-5882,0,-1,0
129.79,179.01,-134.07,181,-6049,-5872,0,-1,0
129.79,179.01,-134.06,166,-6030,-5851,0,-1,0
129.79,179.01,-134.06,177,-6049,-5850,0,-1,0
129.78,179.02,-134.07,167,-6046,-5870,-1,-1,0
129.78,179.02,-134.08,175,-6052,-5864,-1,-1,0
129.77,179.01,-134.09,166,-6035,-5869,-1,0,-1
129.77,179.01,-134.09,180,-6041,-5868,0,-1,0
129.77,179.01,-134.09,174,-6026,-5874,0,-1,0
129.79,179.01,-134.08,180,-6039,-5877,0,-1,0
129.78,179.02,-134.07,175,-6033,-5873,0,-1,0
129.80,179.03,-134.06,175,-6042,-5860,-1,-1,0
129.80,179.04,-134.06,169,-6032,-5874,0,-1,0
129.80,179.04,-134.06,172,-6041,-5888,0,-1,0
129.80,179.05,-134.05,171,-6036,-5878,0,-1,0
129.82,179.06,-134.02,167,-6038,-5878,1,-1,0
129.84,179.08,-133.99,170,-6035,-5858,1,-1,0
129.85,179.10,-133.96,170,-6042,-5851,1,-1,0
129.87,179.11,-133.94,158,-6045,-5828,0,-1,0
129.87,179.11,-133.93,161,-6052,-5850,0,-1,0
129.87,179.12,-133.94,155,-6047,-5849,-1,-1,-1
129.87,179.11,-133.93,163,-6066,-5870,0,-1,0
129.88,179.11,-133.93,157,-6041,-5848,0,-1,0
129.88,179.11,-133.93,156,-6054,-5854,0,-1,0
129.89,179.12,-133.92,147,-6042,-5842,0,-1,0
129.89,179.12,-133.92,159,-6061,-5858,0,-1,0
129.87,179.12,-133.92,160,-6054,-5861,-1,-1,-1
129.87,179.12,-133.93,167,-6071,-5884,-1,-1,0
129.88,179.11,-133.94,173,-6073,-5870,-1,-1,0
129.88,179.11,-133.95,174,-6052,-5862,-1,-1,0
129.88,179.12,-133.95,169,-6042,-5858,0,-1,0
129.87,179.12,-133.95,154,-6029,-5849,-1,-1,0
129.87,179.13,-133.95,158,-6049,-5861,0,-1,0
129.87,179.13,-133.95,147,-6038,-5866,0,-1,0
129.88,179.13,-133.93,151,-6071,-5869,0,-1,0
129.89,179.13,-133.92,140,-6055,-5857,0,0,-1
129.89,179.13,-133.89,157,-6076,-5851,0,-1,0
129.89,179.13,-133.89,152,-6047,-5837,0,0,0
129.89,179.13,-133.88,166,-6057,-5839,-1,-1,0
129.89,179.13,-133.89,172,-6053,-5832,-1,-1,0
129.88,179.13,-133.91,167,-6068,-5851,-1,-1,0
129.88,179.13,-133.92,159,-6067,-5860,-1,-1,0
129.88,179.13,-133.92,157,-6065,-5862,-1,0,0
129.88,179.13,-133.92,160,-6063,-5864,0,-1,-1
129.88,179.12,-133.92,157,-6051,-5848,-1,0,0
129.87,179.12,-133.93,172,-6056,-5853,-1,-1,0
129.87,179.12,-133.94,151,-6036,-5842,-1,0,0
129.86,179.12,-133.94,168,-6054,-5862,-1,-1,0
129.86,179.12,-133.95,161,-6041,-5857,-1,0,-1
129.86,179.12,-133.94,172,-6064,-5872,0,0,0
129.86,179.11,-133.95,158,-6052,-5860,0,-1,0
129.86,179.12,-133.94,161,-6067,-5864,0,-1,0
129.86,179.12,-133.95,155,-6044,-5850,-1,-1,-1
129.85,179.11,-133.96,165,-6047,-5861,0,0,0
129.85,179.10,-133.96,163,-6044,-5863,-1,0,-1
129.85,179.10,-133.96,165,-6056,-5872,-1,-1,0
129.85,179.10,-133.97,159,-6047,-5864,-1,-1,-1
129.85,179.10,-133.96,159,-6061,-5865,0,-1,0
129.84,179.10,-133.97,161,-6057,-5872,0,-1,0
129.84,179.09,-133.96,168,-6058,-5878,0,0,0
129.85,179.09,-133.96,167,-6060,-5866,0,-1,0
129.85,179.09,-133.96,162,-6059,-5860,-1,0,0
129.84,179.09,-133.96,162,-6062,-5862,-1,-1,0
129.84,179.09,-133.97,157,-6054,-5862,-1,0,-1
129.83,179.08,-133.98,180,-6062,-5873,-1,-1,0
129.83,179.07,-133.99,174,-6041,-5853,-1,0,-1
129.83,179.07,-134.00,182,-6050,-5878,0,-1,0
129.83,179.07,-134.01,166,-6030,-5865,-1,0,0
129.82,179.07,-134.01,176,-6042,-5876,0,-1,0
129.82,179.06,-134.01,171,-6032,-5857,-1,0,0
129.82,179.06,-134.01,170,-6052,-5882,0,-1,0
129.81,179.06,-134.02,164,-6039,-5849,-1,0,0
129.81,179.06,-134.03,162,-6045,-5861,-1,0,0
129.81,179.06,-134.03,164,-6044,-5863,-1,-1,0
129.80,179.05,-134.03,171,-6048,-5874,0,-1,0
129.80,179.05,-134.03,170,-6047,-5858,-1,0,0
129.80,179.05,-134.04,165,-6054,-5867,0,-1,0
129.79,179.05,-134.04,169,-6058,-5867,-1,-1,0
129.79,179.05,-134.05,171,-6053,-5871,-1,-1,0
129.79,179.05,-134.05,177,-6043,-5867,-1,-1,0
129.78,179.04,-134.06,163,-6047,-5872,-1,0,0
129.78,179.04,-134.07,183,-6058,-5867,-1,-1,0
129.77,179.04,-134.08,175,-6040,-5863,-1,-1,0
129.77,179.04,-134.09,175,-6040,-5867,-1,0,0
129.76,179.03,-134.10,170,-6030,-5880,0,0,0
129.77,179.03,-134.10,180,-6039,-5880,0,-1,0
129.77,179.03,-134.09,173,-6040,-5881,0,-1,0
129.77,179.03,-134.08,181,-6043,-5861,0,-1,0
129.77,179.03,-134.08,171,-6036,-5852,0,-1,0
129.77,179.04,-134.07,176,-6055,-5852,-1,-1,0
129.77,179.03,-134.08,179,-6051,-5863,-1,-1,-1
129.77,179.03,-134.10,182,-6054,-5880,-1,-1,0
129.76,179.03,-134.10,162,-6041,-5883,-1,-1,-1
129.76,179.03,-134.10,171,-6044,-5883,-1,0,0
129.76,179.03,-134.10,173,-6035,-5881,0,-1,0
129.77,179.03,-134.10,172,-6038,-5881,-1,-1,0
129.77,179.03,-134.10,169,-6042,-5875,0,-1,0
129.77,179.03,-134.10,175,-6047,-5885,-1,-1,0
129.77,179.03,-134.09,174,-6039,-5884,0,-1,0
129.77,179.04,-134.09,179,-6034,-5885,-1,-1,0
129.77,179.04,-134.08,180,-6029,-5890,0,-1,0
129.79,179.03,-134.06,183,-6019,-5867,0,-1,0
129.79,179.03,-134.05,180,-6035,-5864,0,-1,0
129.79,179.04,-134.05,172,-6040,-5881,0,-1,0
129.80,179.03,-134.03,175,-6040,-5857,0,-1,-1
129.80,179.03,-134.04,179,-6033,-5875,0,-1,0
129.82,179.03,-134.02,180,-6058,-5873,0,-1,0
129.82,179.03,-134.02,171,-6046,-5891,0,-1,0
129.84,179.03,-133.99,181,-6050,-5865,1,-1,0
129.84,179.04,-133.98,162,-6034,-5863,0,-1,0
129.86,179.03,-133.96,186,-6055,-5876,1,-1,-1
129.87,179.03,-133.94,173,-6047,-5832,0,-1,0
129.87,179.03,-133.94,176,-6059,-5870,0,-1,-1
129.88,179.04,-133.94,160,-6051,-5873,0,-1,0
129.89,179.03,-133.92,182,-6064,-5865,0,-1,-1
129.90,179.04,-133.90,161,-6058,-5865,0,-1,0
129.92,179.04,-133.88,186,-6047,-5832,0,-1,0
129.92,179.04,-133.88,160,-6061,-5867,0,-1,0
129.92,179.04,-133.87,171,-6073,-5870,-1,-1,0
129.94,179.05,-133.86,174,-6041,-5838,0,0,-1
129.95,179.03,-133.85,173,-6057,-5861,0,0,-1
129.95,179.05,-133.84,159,-6047,-5845,0,-1,0
129.95,179.05,-133.83,162,-6057,-5832,0,0,0
129.95,179.04,-133.84,152,-6065,-5871,0,0,-1
129.96,179.04,-133.82,169,-6084,-5857,0,0,0
129.96,179.04,-133.82,150,-6073,-5829,0,0,-1
129.96,179.04,-133.82,169,-6076,-5870,0,-1,0
129.97,179.04,-133.80,156,-6059,-5853,0,0,-1
129.99,179.03,-133.78,179,-6050,-5835,0,-1,0
129.99,179.03,-133.77,172,-6063,-5804,0,-1,-1
129.99,179.03,-133.76,172,-6061,-5843,0,0,0
130.01,179.03,-133.75,169,-6101,-5840,0,-1,-1
130.01,179.03,-133.75,173,-6084,-5834,-1,-1,0
130.01,179.02,-133.75,160,-6081,-5815,-1,-1,-1
129.99,179.01,-133.78,156,-6065,-5834,-1,0,-1
130.00,179.02,-133.78,168,-6075,-5849,-1,-1,-1
130.00,179.02,-133.77,162,-6073,-5866,1,0,0
130.01,179.01,-133.76,148,-6082,-5845,0,-1,0
130.02,179.01,-133.74,178,-6075,-5892,0,-1,0
130.05,179.03,-133.69,149,-6080,-5781,0,0,-1
130.04,179.02,-133.70,150,-6089,-5879,1,-1,0
130.07,179.03,-133.68,183,-6079,-5819,0,-1,0
130.06,179.05,-133.67,138,-6072,-5785,-1,0,-1
130.06,179.05,-133.68,163,-6082,-5856,0,0,-1
130.07,179.05,-133.67,152,-6076,-5850,0,-1,0
130.08,179.04,-133.65,168,-6093,-5860,0,0,-1
130.10,179.05,-133.61,158,-6102,-5854,1,-1,0
130.13,179.05,-133.59,169,-6112,-5852,0,-1,-1
130.15,179.06,-133.56,144,-6084,-5800,0,-1,0
130.17,179.06,-133.53,184,-6117,-5856,1,-1,0
130.19,179.08,-133.50,127,-6063,-5755,-1,-1,0
130.20,179.08,-133.49,158,-6108,-5791,0,0,-1
130.19,179.08,-133.50,121,-6090,-5797,-1,-1,-1
130.20,179.08,-133.48,160,-6113,-5804,1,-1,0
130.19,179.09,-133.49,132,-6090,-5798,0,0,-1
130.20,179.08,-133.48,161,-6107,-5817,0,0,0
130.20,179.08,-133.47,146,-6091,-5779,0,-1,0
130.20,179.07,-133.47,147,-6108,-5833,-1,0,0
130.20,179.07,-133.48,166,-6106,-5785,-1,-1,0
130.19,179.08,-133.49,128,-6112,-5840,-1,0,-1
130.19,179.07,-133.49,163,-6118,-5812,-1,-1,0
130.18,179.06,-133.50,133,-6109,-5825,0,0,-1
130.20,179.06,-133.49,164,-6108,-5783,-1,-1,0
130.18,179.06,-133.51,162,-6097,-5800,0,-1,0
130.19,179.06,-133.48,126,-6130,-5828,1,0,-1
130.18,179.05,-133.50,154,-6081,-5813,-1,-1,0
130.18,179.05,-133.50,148,-6098,-5809,0,0,-1
130.18,179.06,-133.51,159,-6117,-5834,0,-1,0
130.17,179.05,-133.52,134,-6074,-5783,-2,0,-1
130.17,179.05,-133.51,155,-6120,-5836,1,0,-1
130.17,179.05,-133.52,145,-6076,-5772,-1,0,0
130.15,179.04,-133.53,171,-6118,-5818,0,-1,0
130.15,179.05,-133.54,136,-6097,-5803,-1,0,-1
130.13,179.04,-133.56,153,-6094,-5788,-2,0,0
130.13,179.03,-133.58,167,-6096,-5839,0,0,-1
130.13,179.01,-133.57,164,-6105,-5808,-1,0,0
130.13,179.01,-133.58,165,-6128,-5829,0,-1,-1
130.12,179.01,-133.59,161,-6071,-5800,-2,0,-1
130.12,179.00,-133.60,161,-6099,-5802,-1,0,-1
130.09,179.01,-133.65,128,-6076,-5817,-2,0,-1
130.09,178.98,-133.66,173,-6110,-5829,0,0,-1
130.08,178.98,-133.66,140,-6096,-5846,0,0,-1
130.09,178.97,-133.65,174,-6092,-5825,0,-1,0
130.09,178.98,-133.64,163,-6088,-5810,0,-1,0
130.09,178.98,-133.64,142,-6098,-5811,0,0,-1
130.09,178.96,-133.64,166,-6093,-5820,0,0,0
130.09,178.96,-133.63,183,-6085,-5772,-1,-1,0
130.09,178.96,-133.65,169,-6096,-5836,0,0,-1
130.08,178.95,-133.66,153,-6086,-5836,-1,0,-1
130.09,178.94,-133.65,189,-6080,-5829,0,-1,0
130.08,178.94,-133.65,163,-6095,-5840,-1,0,-1
130.09,178.93,-133.65,178,-6085,-5805,0,-1,0
130.09,178.92,-133.65,163,-6089,-5828,0,0,-1
130.09,178.93,-133.65,177,-6091,-5779,-1,-1,0
130.08,178.93,-133.66,163,-6093,-5853,1,0,-1
130.09,178.92,-133.65,164,-6098,-5809,-1,0,-1
130.09,178.92,-133.66,179,-6099,-5845,0,-1,0
130.08,178.93,-133.66,158,-6083,-5801,-2,0,-1
130.07,178.92,-133.67,166,-6088,-5834,0,0,-1
130.08,178.91,-133.66,155,-6085,-5793,-1,-1,-1
130.07,178.91,-133.68,178,-6099,-5836,0,0,0
130.06,178.92,-133.69,165,-6100,-5835,-1,0,-1
130.06,178.91,-133.69,166,-6091,-5812,-1,0,0
130.05,178.90,-133.71,154,-6077,-5809,-1,0,-1
130.03,178.90,-133.73,175,-6086,-5832,-1,0,-1
130.03,178.88,-133.74,183,-6081,-5851,-1,0,-1
130.03,178.88,-133.74,173,-6090,-5847,0,0,-1
130.03,178.88,-133.74,180,-6076,-5815,-1,-1,0
130.03,178.88,-133.75,171,-6067,-5831,-1,-1,0
130.02,178.88,-133.76,170,-6087,-5828,-1,0,-1
130.01,178.88,-133.79,166,-6075,-5818,-1,0,0
129.99,178.87,-133.80,170,-6075,-5832,-1,0,-1
129.99,178.88,-133.81,176,-6061,-5819,-1,-1,0
129.99,178.87,-133.82,173,-6070,-5857,0,0,-1
129.99,178.87,-133.81,167,-6072,-5846,0,0,0
129.98,178.87,-133.82,175,-6085,-5851,-1,0,0
129.99,178.87,-133.81,178,-6069,-5818,-1,-1,0
129.98,178.87,-133.84,175,-6074,-5831,-2,0,0
129.96,178.87,-133.85,161,-6074,-5826,-1,-1,0
129.94,178.87,-133.89,162,-6060,-5844,-2,0,-1
129.94,178.87,-133.91,169,-6063,-5860,-1,0,-1
129.92,178.87,-133.93,161,-6064,-5877,-1,0,0
129.93,178.86,-133.92,173,-6061,-5845,-1,-1,-1
129.92,178.86,-133.93,163,-6047,-5856,-1,0,-1
129.92,178.86,-133.93,178,-6053,-5846,0,-1,0
129.92,178.87,-133.94,165,-6048,-5860,0,0,0
129.92,178.87,-133.94,177,-6060,-5850,0,-1,0
129.91,178.87,-133.94,165,-6048,-5853,-1,0,0
129.91,178.87,-133.94,175,-6072,-5861,-1,-1,-1
129.91,178.87,-133.95,162,-6056,-5852,-1,0,0
129.90,178.87,-133.96,173,-6068,-5848,-1,-1,-1
129.90,178.86,-133.96,166,-6048,-5851,-1,0,0
129.90,178.86,-133.96,180,-6065,-5844,-1,-1,0
129.89,178.87,-133.98,163,-6050,-5847,-1,0,-1
129.90,178.86,-133.98,176,-6076,-5849,-1,-1,0
129.89,178.86,-133.99,164,-6052,-5862,-1,-1,-1
129.88,178.86,-134.00,179,-6058,-5865,-1,0,0
129.88,178.86,-134.01,164,-6041,-5864,-1,0,-1
129.88,178.86,-134.01,172,-6052,-5843,-1,0,0
129.87,178.86,-134.01,171,-6040,-5844,-1,0,-1
129.87,178.86,-134.01,177,-6062,-5864,-1,-1,0
129.87,178.86,-134.01,176,-6051,-5867,0,-1,-1
129.87,178.86,-134.01,178,-6065,-5861,-1,0,0
129.87,178.85,-134.02,175,-6051,-5870,0,0,-1
129.87,178.85,-134.02,176,-6060,-5874,-1,-1,0
129.88,178.85,-134.00,175,-6049,-5860,0,-1,0
129.89,178.86,-134.00,165,-6053,-5855,0,-1,0
129.89,178.87,-133.99,166,-6054,-5854,0,-1,0
129.89,178.88,-133.99,161,-6061,-5858,-1,-1,0
129.89,178.88,-133.98,164,-6063,-5861,0,-1,0
129.91,178.88,-133.97,163,-6061,-5854,0,-1,0
129.91,178.89,-133.96,168,-6062,-5858,0,-1,0
129.93,178.89,-133.94,156,-6055,-5863,0,-1,0
129.93,178.90,-133.92,157,-6070,-5855,0,-1,0
129.95,178.91,-133.90,164,-6047,-5834,0,-1,0
129.95,178.92,-133.90,154,-6047,-5842,-1,-1,0
129.95,178.92,-133.89,165,-6059,-5867,0,-1,0
129.97,178.92,-133.89,174,-6072,-5877,0,-1,0
129.97,178.93,-133.86,171,-6080,-5858,0,-1,0
129.98,178.93,-133.86,160,-6068,-5848,0,-1,0
129.97,178.94,-133.86,145,-6059,-5836,-1,-1,0
