Yaw,Pitch,Roll,AX,AY,AZ,GX,GY,GZ
65.49,8.44,-18.21,1217,-2563,7747,-1,0,0
65.48,8.46,-18.21,1241,-2550,7721,0,-1,0
65.49,8.44,-18.20,1205,-2545,7717,-1,0,0
65.49,8.46,-18.20,1228,-2558,7714,0,-1,-1
65.49,8.45,-18.19,1220,-2587,7741,0,0,-1
65.49,8.45,-18.19,1234,-2568,7758,0,0,-1
65.49,8.43,-18.19,1203,-2560,7762,-1,0,0
65.49,8.43,-18.19,1195,-2544,7760,0,0,0
65.48,8.42,-18.18,1189,-2560,7758,-1,-1,0
65.47,8.42,-18.19,1193,-2544,7735,0,0,0
65.47,8.41,-18.20,1192,-2581,7733,-1,-1,0
65.46,8.41,-18.19,1193,-2537,7729,0,0,0
65.45,8.41,-18.18,1200,-2546,7728,0,-1,0
65.45,8.41,-18.17,1194,-2551,7763,0,0,0
65.45,8.42,-18.17,1213,-2562,7759,0,-1,0
65.45,8.42,-18.16,1204,-2546,7742,0,0,0
65.44,8.42,-18.14,1217,-2519,7743,0,-1,0
65.45,8.42,-18.13,1194,-2509,7733,0,-1,0
65.43,8.43,-18.13,1199,-2502,7732,0,-1,0
65.42,8.44,-18.12,1201,-2512,7739,0,-1,0
65.42,8.46,-18.12,1225,-2511,7733,0,0,-1
65.44,8.46,-18.11,1215,-2494,7755,-1,-1,-1
65.44,8.47,-18.11,1211,-2517,7755,-1,-1,-1
65.45,8.48,-18.12,1207,-2532,7758,-1,0,-1
65.46,8.48,-18.14,1233,-2546,7748,0,-1,-1
65.46,8.48,-18.16,1227,-2589,7742,-1,0,-1
65.47,8.47,-18.17,1214,-2592,7732,-1,0,-1
65.47,8.47,-18.17,1213,-2605,7706,0,-1,-1
65.47,8.47,-18.15,1233,-2570,7733,0,0,0
65.46,8.47,-18.14,1208,-2556,7730,0,-1,0
65.46,8.48,-18.13,1222,-2543,7750,-1,0,0
65.45,8.48,-18.13,1211,-2547,7734,0,-1,0
65.44,8.48,-18.12,1212,-2548,7748,0,0,0
65.44,8.47,-18.12,1212,-2524,7753,0,0,0
65.44,8.46,-18.11,1188,-2498,7744,-1,-1,0
65.44,8.47,-18.10,1191,-2476,7757,-1,-1,0
65.44,8.46,-18.11,1180,-2505,7760,-1,0,-1
65.44,8.46,-18.12,1185,-2493,7757,-1,0,-1
65.45,8.46,-18.13,1194,-2525,7721,-1,-1,-1
65.45,8.48,-18.15,1219,-2553,7734,-1,-1,-1
65.46,8.48,-18.17,1246,-2588,7724,0,-1,-1
65.45,8.49,-18.17,1246,-2592,7726,0,-1,0
65.45,8.50,-18.16,1263,-2585,7729,0,-1,0
65.45,8.50,-18.16,1244,-2574,7736,0,0,0
65.45,8.50,-18.14,1242,-2539,7745,0,0,-1
65.45,8.49,-18.14,1227,-2557,7739,0,0,0
65.45,8.48,-18.14,1207,-2537,7772,-1,0,0
65.45,8.47,-18.14,1187,-2548,7747,-1,-1,0
65.44,8.46,-18.17,1189,-2550,7754,-1,0,0
65.43,8.46,-18.19,1192,-2558,7742,-1,-1,0
65.42,8.45,-18.20,1208,-2550,7760,-1,0,0
65.42,8.46,-18.19,1227,-2539,7754,0,-1,0
65.42,8.46,-18.19,1214,-2524,7756,-1,-1,0
65.43,8.46,-18.18,1213,-2515,7752,0,-1,-1
65.43,8.46,-18.19,1193,-2533,7723,-1,0,-1
65.44,8.45,-18.18,1180,-2539,7724,-1,0,-1
65.44,8.45,-18.18,1160,-2562,7696,0,-1,-1
65.45,8.45,-18.17,1147,-2561,7712,0,-1,-1
65.45,8.47,-18.17,1171,-2583,7722,0,-1,-1
65.45,8.48,-18.16,1192,-2581,7744,0,-1,0
65.44,8.51,-18.15,1229,-2582,7738,0,-1,0
65.44,8.52,-18.14,1242,-2571,7745,0,-1,0
65.43,8.53,-18.12,1251,-2557,7731,0,-1,0
65.44,8.54,-18.11,1253,-2570,7734,0,-1,0
65.43,8.56,-18.09,1260,-2550,7735,0,-1,0
65.43,8.56,-18.06,1251,-2542,7728,1,-1,0
65.42,8.57,-18.03,1248,-2521,7737,0,-1,0
65.42,8.58,-18.01,1261,-2517,7734,1,-1,0
65.42,8.58,-17.99,1257,-2491,7759,0,0,0
65.42,8.58,-17.97,1241,-2477,7757,0,0,-1
65.42,8.57,-17.97,1214,-2483,7767,-1,0,0
65.42,8.56,-17.98,1206,-2497,7753,-1,0,0
65.42,8.55,-17.99,1195,-2535,7736,-1,0,-1
65.41,8.54,-17.99,1200,-2539,7747,0,-1,0
65.41,8.55,-17.98,1208,-2542,7727,0,-1,0
65.40,8.55,-17.97,1209,-2518,7742,0,0,0
65.39,8.55,-17.97,1219,-2515,7733,0,-1,0
65.38,8.56,-17.97,1243,-2510,7758,0,0,0
65.37,8.56,-17.96,1237,-2512,7760,0,-1,0
65.37,8.56,-17.95,1241,-2512,7760,0,-1,-1
65.37,8.56,-17.95,1235,-2513,7747,0,0,-1
65.37,8.55,-17.95,1213,-2530,7741,-1,-1,-1
65.37,8.56,-17.94,1231,-2523,7749,0,0,0
65.38,8.55,-17.93,1210,-2500,7750,0,-1,-1
65.37,8.56,-17.91,1223,-2469,7764,-1,-1,0
65.37,8.56,-17.93,1243,-2497,7788,-1,0,0
65.36,8.55,-17.94,1230,-2494,7758,-1,0,0
65.37,8.54,-17.95,1224,-2521,7738,-1,-1,-1
65.38,8.54,-17.96,1207,-2529,7714,0,0,-1
65.39,8.55,-17.95,1220,-2520,7719,0,-1,-1
65.40,8.55,-17.94,1234,-2500,7752,-1,0,-1
65.39,8.55,-17.96,1246,-2510,7762,-1,0,-1
65.40,8.53,-17.97,1213,-2514,7744,-1,0,-1
65.40,8.53,-17.98,1216,-2532,7744,-1,0,-1
65.41,8.51,-18.00,1176,-2544,7742,-1,-1,-1
65.40,8.52,-18.01,1203,-2541,7730,-1,-1,-1
65.40,8.51,-18.01,1184,-2544,7722,0,-1,-1
65.40,8.52,-18.01,1210,-2527,7734,-1,0,-1
65.40,8.51,-18.02,1204,-2547,7746,-1,-1,-1
65.41,8.52,-18.02,1211,-2546,7744,0,-1,-1
65.40,8.53,-18.01,1208,-2558,7763,0,-1,0
65.40,8.55,-18.00,1231,-2526,7763,0,-1,-1
65.40,8.55,-18.00,1238,-2514,7755,-1,-1,0
65.40,8.56,-17.98,1231,-2489,7759,0,-1,0
65.39,8.56,-17.98,1244,-2485,7766,-1,-1,0
65.39,8.56,-17.98,1221,-2466,7751,-1,0,0
65.38,8.57,-18.00,1245,-2491,7765,-1,-1,0
65.39,8.56,-18.03,1224,-2512,7751,-2,0,-1
65.39,8.56,-18.05,1247,-2528,7727,-1,0,-1
65.40,8.55,-18.07,1243,-2544,7738,-2,0,-1
65.40,8.54,-18.10,1227,-2583,7719,-1,-1,-1
65.41,8.53,-18.11,1225,-2603,7733,-1,0,-1
65.40,8.53,-18.13,1224,-2594,7747,0,0,-1
65.40,8.51,-18.13,1192,-2593,7759,-1,0,0
65.40,8.50,-18.12,1203,-2560,7750,0,0,-1
65.40,8.49,-18.12,1189,-2560,7759,-1,0,0
65.40,8.49,-18.11,1207,-2526,7738,0,-1,0
65.39,8.48,-18.12,1216,-2521,7735,0,-1,0
65.39,8.49,-18.11,1233,-2517,7726,-1,0,0
65.39,8.48,-18.09,1209,-2489,7745,0,-1,-1
65.39,8.47,-18.08,1195,-2504,7762,-1,0,-1
65.40,8.44,-18.09,1158,-2500,7778,-1,-1,-1
65.40,8.45,-18.10,1179,-2508,7751,-2,0,-1
65.41,8.45,-18.12,1207,-2536,7731,-1,-1,-1
65.42,8.45,-18.15,1228,-2568,7708,-2,0,0
65.41,8.46,-18.17,1233,-2595,7701,0,-1,0
65.40,8.46,-18.16,1207,-2600,7701,0,-1,0
65.39,8.46,-18.16,1203,-2593,7721,0,-1,0
65.38,8.46,-18.14,1191,-2563,7736,0,-1,0
65.36,8.48,-18.13,1209,-2548,7739,0,-1,0
65.35,8.49,-18.12,1219,-2533,7742,0,-1,0
65.34,8.52,-18.10,1240,-2522,7728,0,-1,0
65.34,8.53,-18.09,1259,-2505,7739,0,-1,0
65.35,8.54,-18.07,1262,-2479,7752,0,0,-1
65.36,8.54,-18.06,1237,-2467,7755,-1,0,-1
65.37,8.53,-18.06,1233,-2470,7758,-1,0,-1
65.38,8.53,-18.09,1215,-2521,7728,-1,0,-1
65.39,8.53,-18.09,1241,-2526,7734,-1,0,-1
65.39,8.52,-18.12,1217,-2558,7707,-1,0,0
65.39,8.52,-18.13,1223,-2561,7739,-1,0,0
65.38,8.50,-18.14,1211,-2560,7720,0,0,0
65.37,8.50,-18.15,1195,-2554,7723,-1,0,0
65.37,8.49,-18.17,1204,-2566,7723,-1,-1,0
65.35,8.49,-18.18,1202,-2574,7752,-1,-1,0
65.34,8.49,-18.18,1218,-2565,7762,-1,-1,0
65.33,8.48,-18.20,1187,-2572,7774,-1,0,0
65.30,8.47,-18.21,1173,-2532,7798,-1,-1,0
65.29,8.47,-18.23,1232,-2517,7732,-2,0,0
65.29,8.48,-18.25,1262,-2550,7721,-1,0,-1
65.29,8.47,-18.27,1266,-2593,7718,0,0,-1
65.31,8.47,-18.25,1244,-2594,7771,-1,0,0
65.30,8.45,-18.25,1203,-2584,7738,0,-1,-1
65.30,8.45,-18.24,1195,-2582,7705,0,0,-1
65.32,8.45,-18.22,1193,-2545,7696,1,0,-1
65.33,8.44,-18.19,1147,-2486,7715,0,-1,0
65.31,8.44,-18.17,1147,-2390,7768,-1,-2,0
65.31,8.45,-18.19,1201,-2418,7747,-2,0,-1
65.32,8.46,-18.22,1197,-2476,7751,-2,0,-1
65.32,8.47,-18.27,1216,-2527,7730,-2,-1,0
65.32,8.47,-18.33,1219,-2583,7740,-3,0,-1
65.31,8.47,-18.38,1232,-2649,7725,-1,-1,-1
65.32,8.47,-18.41,1236,-2658,7724,-1,0,-1
65.32,8.47,-18.41,1239,-2626,7726,-1,0,-1
65.32,8.47,-18.43,1225,-2635,7729,-1,-1,0
65.32,8.47,-18.42,1222,-2593,7761,-1,0,0
65.31,8.47,-18.43,1216,-2599,7744,0,-1,0
65.32,8.46,-18.43,1215,-2584,7755,-1,0,-1
65.32,8.46,-18.43,1221,-2578,7755,0,0,-1
65.33,8.45,-18.42,1203,-2573,7739,-1,0,-1
65.35,8.44,-18.42,1196,-2572,7734,0,0,-1
65.37,8.43,-18.43,1193,-2600,7727,-1,0,-1
65.37,8.43,-18.44,1178,-2598,7712,-1,0,-1
65.38,8.43,-18.45,1185,-2624,7691,0,-1,-1
65.37,8.43,-18.45,1166,-2635,7694,0,-1,0
65.37,8.44,-18.44,1189,-2634,7692,1,-1,0
65.36,8.44,-18.42,1181,-2605,7701,0,-1,0
65.36,8.45,-18.39,1183,-2576,7711,0,-1,0
65.35,8.46,-18.38,1193,-2574,7721,0,-1,0
65.34,8.48,-18.36,1193,-2543,7747,0,-1,0
65.34,8.49,-18.36,1211,-2563,7730,-1,-1,0
65.34,8.49,-18.36,1214,-2550,7739,-1,-1,-1
65.35,8.51,-18.36,1241,-2584,7728,0,-1,-1
65.35,8.51,-18.36,1237,-2586,7743,0,-1,-1
65.35,8.52,-18.34,1236,-2576,7743,0,-1,0
65.35,8.52,-18.32,1231,-2558,7750,0,-1,0
65.34,8.53,-18.32,1242,-2544,7737,0,-1,0
65.34,8.53,-18.32,1249,-2559,7716,0,-1,0
65.34,8.53,-18.31,1258,-2565,7748,0,0,0
65.33,8.52,-18.30,1240,-2563,7725,0,0,0
65.34,8.52,-18.29,1218,-2542,7726,0,0,-1
65.34,8.51,-18.29,1222,-2534,7721,-1,0,-1
65.34,8.50,-18.29,1217,-2547,7725,-1,0,-1
65.35,8.50,-18.30,1213,-2568,7702,0,0,-1
65.35,8.49,-18.30,1183,-2592,7701,0,0,-1
65.35,8.49,-18.29,1192,-2589,7713,0,-1,-1
65.35,8.49,-18.27,1202,-2567,7733,0,-1,0
65.35,8.50,-18.26,1216,-2542,7736,0,-1,0
65.34,8.50,-18.26,1211,-2542,7737,0,-1,0
65.34,8.50,-18.25,1222,-2519,7725,0,0,0
65.34,8.50,-18.25,1209,-2522,7737,-1,-1,-1
65.35,8.50,-18.25,1221,-2524,7757,-1,0,-1
65.35,8.50,-18.25,1222,-2527,7777,-1,0,-1
65.36,8.49,-18.25,1209,-2527,7764,-1,0,-1
65.36,8.50,-18.28,1244,-2569,7746,-1,-1,-1
65.36,8.49,-18.28,1211,-2567,7734,-1,0,-1
65.37,8.49,-18.29,1220,-2583,7712,-1,-1,-1
65.37,8.48,-18.31,1202,-2611,7733,-1,0,0
65.36,8.48,-18.32,1203,-2618,7747,-1,-1,0
65.34,8.48,-18.32,1201,-2594,7717,0,-1,0
65.33,8.49,-18.33,1238,-2571,7690,0,0,0
65.32,8.48,-18.32,1204,-2571,7707,0,0,0
65.31,8.48,-18.31,1234,-2553,7737,0,-1,0
65.31,8.47,-18.31,1211,-2559,7744,-1,0,-1
65.32,8.46,-18.32,1225,-2582,7753,0,0,-1
65.33,8.45,-18.32,1198,-2594,7748,0,0,-1
65.33,8.45,-18.32,1223,-2579,7738,0,0,-1
65.33,8.44,-18.32,1207,-2566,7730,0,-1,0
65.34,8.44,-18.30,1222,-2544,7724,0,0,0
65.33,8.42,-18.30,1196,-2549,7739,0,-1,0
65.33,8.43,-18.30,1208,-2542,7739,-1,0,0
65.33,8.42,-18.29,1199,-2568,7734,0,-1,0
65.33,8.42,-18.29,1212,-2557,7741,0,0,0
65.32,8.42,-18.29,1196,-2557,7722,0,-1,0
65.32,8.42,-18.29,1198,-2536,7727,-1,0,0
65.31,8.42,-18.30,1187,-2557,7730,-1,-1,0
65.31,8.42,-18.31,1200,-2572,7720,-1,0,0
65.30,8.42,-18.33,1199,-2595,7717,-1,-1,-1
65.30,8.42,-18.32,1188,-2609,7725,0,-1,0
65.30,8.43,-18.32,1208,-2605,7730,0,-1,-1
65.31,8.44,-18.31,1206,-2594,7725,0,0,0
65.30,8.44,-18.29,1200,-2587,7729,0,-1,0
65.29,8.46,-18.27,1199,-2566,7742,0,-1,0
65.28,8.47,-18.26,1229,-2556,7744,0,-1,0
65.29,8.48,-18.24,1221,-2528,7742,0,-1,0
65.29,8.49,-18.23,1221,-2517,7732,0,-1,-1
65.30,8.49,-18.22,1232,-2504,7748,-1,0,-1
65.30,8.49,-18.24,1218,-2533,7716,-1,0,-1
65.30,8.49,-18.24,1214,-2546,7717,-1,0,-1
65.31,8.49,-18.25,1220,-2567,7717,0,-1,-1
65.30,8.48,-18.24,1203,-2581,7721,0,-1,0
65.30,8.49,-18.23,1198,-2576,7739,0,-1,0
65.30,8.48,-18.23,1170,-2578,7726,0,-1,0
65.29,8.49,-18.22,1200,-2559,7732,0,-1,0
65.29,8.49,-18.21,1207,-2567,7731,0,-1,0
65.29,8.50,-18.20,1221,-2549,7749,0,-1,0
65.29,8.51,-18.19,1226,-2554,7720,0,-1,-1
65.29,8.52,-18.19,1237,-2547,7759,0,0,-1
65.29,8.51,-18.18,1226,-2563,7759,0,0,-1
65.29,8.50,-18.17,1212,-2547,7758,0,0,0
65.29,8.51,-18.17,1219,-2541,7738,0,-1,0
65.28,8.51,-18.17,1216,-2527,7743,0,-1,0
65.28,8.52,-18.16,1230,-2527,7736,0,-1,0
65.28,8.51,-18.16,1214,-2523,7723,-1,0,0
65.28,8.51,-18.16,1220,-2511,7718,0,-1,-1
65.28,8.51,-18.16,1215,-2539,7724,-1,0,-1
65.29,8.52,-18.16,1215,-2530,7744,-1,-1,-1
65.29,8.51,-18.17,1216,-2534,7737,-1,0,-1
65.29,8.51,-18.18,1208,-2544,7743,-1,0,-1
65.29,8.50,-18.21,1193,-2585,7722,-1,-1,-1
65.29,8.50,-18.22,1197,-2598,7732,-1,0,-1
65.28,8.50,-18.22,1206,-2599,7711,0,-1,0
65.28,8.51,-18.21,1209,-2583,7723,0,-1,0
65.27,8.52,-18.20,1233,-2577,7726,1,-1,0
65.27,8.53,-18.18,1240,-2560,7755,0,-1,0
65.26,8.54,-18.16,1254,-2529,7776,0,-1,0
65.25,8.54,-18.15,1244,-2509,7769,-1,-1,0
65.27,8.54,-18.14,1248,-2501,7769,-1,0,-1
65.26,8.53,-18.16,1230,-2514,7748,-1,0,-1
65.28,8.53,-18.16,1222,-2500,7744,-1,0,-1
65.28,8.52,-18.17,1219,-2528,7732,-1,0,-1
65.29,8.53,-18.19,1210,-2547,7725,-1,0,-1
65.29,8.52,-18.21,1209,-2591,7724,-1,0,-1
65.29,8.52,-18.21,1202,-2584,7737,0,0,-1
65.29,8.52,-18.21,1199,-2578,7717,0,-1,-1
65.30,8.53,-18.20,1193,-2567,7730,0,-1,-1
65.30,8.54,-18.20,1218,-2564,7733,0,-1,-1
65.30,8.55,-18.19,1229,-2553,7749,0,-1,-1
65.30,8.56,-18.18,1251,-2537,7745,0,-1,-1
65.31,8.56,-18.19,1228,-2548,7734,-1,-1,-1
65.31,8.56,-18.18,1232,-2546,7747,0,-1,-1
65.32,8.56,-18.18,1217,-2542,7734,0,-1,-1
65.32,8.57,-18.17,1236,-2524,7754,0,-1,-1
65.32,8.57,-18.17,1227,-2529,7738,-1,-1,0
65.32,8.57,-18.17,1229,-2528,7748,-1,-1,0
65.32,8.57,-18.18,1231,-2539,7732,-1,-1,-1
65.32,8.58,-18.18,1230,-2529,7742,-1,0,-1
65.32,8.57,-18.19,1232,-2540,7734,-1,0,-1
65.32,8.56,-18.19,1216,-2529,7740,-1,0,-1
65.32,8.56,-18.22,1226,-2556,7696,-1,0,-1
65.33,8.56,-18.23,1224,-2584,7709,-1,0,-1
65.34,8.55,-18.23,1217,-2585,7714,0,-1,-1
65.34,8.55,-18.22,1210,-2580,7729,0,-1,0
65.33,8.56,-18.23,1218,-2574,7726,0,-1,0
65.33,8.56,-18.23,1210,-2565,7736,0,-1,0
65.33,8.56,-18.23,1244,-2555,7738,0,0,0
65.32,8.55,-18.23,1231,-2559,7741,-1,0,0
65.32,8.55,-18.24,1230,-2553,7741,0,-1,0
65.32,8.54,-18.24,1213,-2561,7738,0,-1,0
65.32,8.55,-18.24,1223,-2553,7732,0,0,0
65.32,8.55,-18.24,1220,-2553,7736,0,-1,0
65.32,8.55,-18.24,1238,-2542,7738,0,0,0
65.32,8.54,-18.23,1219,-2544,7741,-1,-1,0
65.32,8.54,-18.24,1219,-2539,7750,-1,0,0
65.31,8.53,-18.26,1206,-2567,7732,-1,-1,-1
65.31,8.53,-18.26,1221,-2568,7729,-1,0,-1
65.31,8.53,-18.27,1218,-2581,7714,0,0,-1
65.31,8.52,-18.26,1214,-2556,7702,0,0,-1
65.31,8.52,-18.26,1214,-2566,7728,0,-1,-1
65.31,8.53,-18.25,1219,-2557,7753,0,0,-1
65.32,8.53,-18.25,1204,-2566,7758,0,-1,-1
65.32,8.53,-18.25,1204,-2564,7762,-1,-1,0
65.31,8.53,-18.26,1213,-2569,7763,-1,-1,0
65.31,8.54,-18.26,1227,-2541,7736,-1,0,0
65.31,8.53,-18.25,1230,-2534,7734,0,-1,0
65.31,8.53,-18.25,1232,-2527,7735,-1,0,0
65.31,8.53,-18.26,1223,-2533,7731,-1,-1,0
65.31,8.54,-18.27,1221,-2538,7733,-1,0,0
65.30,8.54,-18.28,1219,-2561,7732,-1,-1,-1
65.30,8.54,-18.28,1234,-2564,7741,-1,0,-1
65.31,8.53,-18.28,1223,-2558,7735,-1,-1,-1
65.32,8.54,-18.28,1211,-2543,7718,-1,0,-1
65.32,8.53,-18.29,1219,-2559,7718,-1,-1,-1
65.32,8.53,-18.30,1202,-2568,7724,-1,0,-1
65.31,8.52,-18.32,1222,-2595,7737,-1,0,0
65.31,8.52,-18.33,1189,-2588,7701,0,0,-1
65.30,8.52,-18.32,1216,-2598,7712,0,-1,0
65.29,8.53,-18.31,1216,-2574,7728,0,-1,0
65.29,8.54,-18.31,1242,-2555,7734,-1,-1,0
65.28,8.54,-18.31,1233,-2557,7744,0,-1,0
65.28,8.54,-18.31,1256,-2551,7733,0,0,0
65.28,8.53,-18.31,1215,-2559,7715,-1,0,-1
65.28,8.54,-18.31,1225,-2558,7711,0,-1,-1
65.28,8.54,-18.30,1205,-2557,7735,-1,-1,0
65.27,8.55,-18.29,1231,-2570,7737,0,-1,0
65.28,8.55,-18.27,1201,-2572,7714,1,-1,-1
65.28,8.55,-18.24,1216,-2551,7717,1,-1,0
65.27,8.56,-18.22,1214,-2547,7723,0,-1,0
65.28,8.57,-18.20,1247,-2555,7710,0,0,-1
65.28,8.57,-18.19,1240,-2581,7728,0,0,0
65.28,8.56,-18.17,1245,-2574,7754,0,0,0
65.27,8.55,-18.17,1214,-2569,7777,0,-1,0
65.26,8.55,-18.17,1212,-2549,7758,0,0,0
65.26,8.54,-18.17,1201,-2551,7765,-1,-1,0
65.24,8.55,-18.17,1205,-2533,7746,0,-1,0
65.23,8.54,-18.17,1203,-2520,7725,-1,-1,0
65.22,8.55,-18.16,1209,-2501,7710,-1,-1,0
65.23,8.55,-18.16,1225,-2503,7719,-1,-1,-1
65.23,8.55,-18.17,1224,-2495,7716,-1,0,-1
65.24,8.56,-18.18,1213,-2523,7706,-1,-1,-1
65.26,8.57,-18.18,1231,-2523,7737,-1,0,-1
65.27,8.57,-18.19,1218,-2529,7734,-1,-1,-1
65.27,8.57,-18.20,1223,-2522,7741,-2,0,-1
65.26,8.56,-18.24,1229,-2552,7738,-1,0,0
65.26,8.56,-18.27,1221,-2580,7745,-1,0,-1
65.26,8.56,-18.29,1224,-2600,7735,-1,0,0
65.25,8.55,-18.30,1191,-2623,7716,-1,-1,-1
65.25,8.55,-18.30,1220,-2618,7714,0,-1,-1
65.26,8.56,-18.29,1237,-2603,7705,0,-1,-1
65.27,8.57,-18.25,1253,-2571,7728,0,-1,-1
65.27,8.58,-18.24,1249,-2544,7758,0,0,-1
65.28,8.58,-18.22,1248,-2518,7774,-1,0,-1
65.29,8.57,-18.24,1230,-2551,7745,-1,0,-1
65.30,8.56,-18.24,1213,-2568,7751,-1,0,-1
65.30,8.55,-18.25,1218,-2560,7730,0,0,-1
65.30,8.55,-18.24,1206,-2539,7721,-1,0,0
65.30,8.56,-18.24,1238,-2535,7714,0,-1,0
65.31,8.56,-18.25,1245,-2537,7717,-1,0,0
65.30,8.57,-18.26,1246,-2536,7724,-1,-1,0
65.30,8.56,-18.27,1204,-2565,7727,-1,0,0
65.29,8.55,-18.26,1185,-2563,7745,0,-1,0
65.28,8.56,-18.26,1178,-2546,7736,0,-1,0
65.28,8.57,-18.25,1211,-2515,7740,-1,-1,0
65.28,8.58,-18.25,1242,-2522,7721,0,-1,-1
65.28,8.60,-18.26,1274,-2551,7734,-1,0,-1
65.29,8.60,-18.30,1289,-2611,7724,-1,0,-1
65.29,8.60,-18.32,1268,-2653,7715,-1,0,-1
65.29,8.60,-18.32,1272,-2671,7725,0,0,0
65.28,8.59,-18.30,1238,-2648,7732,0,0,0
65.28,8.59,-18.27,1236,-2605,7734,1,-1,0
65.27,8.58,-18.25,1200,-2567,7734,1,-1,0
65.26,8.59,-18.22,1196,-2518,7752,0,-1,0
65.24,8.58,-18.20,1196,-2503,7744,0,0,0
65.24,8.58,-18.16,1204,-2452,7758,0,-1,0
65.23,8.58,-18.15,1214,-2450,7736,-1,-1,0
65.25,8.59,-18.15,1226,-2447,7746,-1,-1,-1
65.25,8.60,-18.17,1241,-2478,7729,-1,0,-1
65.26,8.59,-18.20,1225,-2532,7727,-2,0,-1
65.27,8.59,-18.23,1224,-2582,7724,-1,-1,-1
65.27,8.59,-18.23,1234,-2605,7716,-1,0,-1
65.27,8.60,-18.24,1245,-2606,7701,0,-1,-1
65.27,8.60,-18.23,1236,-2589,7714,0,-1,0
65.26,8.60,-18.22,1235,-2562,7745,0,-1,0
65.26,8.60,-18.22,1230,-2551,7743,-1,-1,0
65.26,8.60,-18.21,1232,-2539,7750,0,-1,-1
65.26,8.60,-18.22,1237,-2542,7769,-1,0,-1
65.27,8.60,-18.21,1232,-2508,7769,-1,-1,-1
65.27,8.60,-18.21,1220,-2524,7769,-1,0,0
65.27,8.59,-18.21,1220,-2510,7777,-1,0,-1
65.28,8.59,-18.22,1246,-2508,7730,-1,0,-1
65.30,8.59,-18.23,1252,-2527,7724,-1,0,-1
65.31,8.59,-18.25,1253,-2582,7701,-1,0,-1
65.31,8.58,-18.28,1241,-2628,7716,-1,0,-1
65.31,8.58,-18.28,1237,-2630,7714,0,0,-1
65.30,8.57,-18.27,1226,-2603,7712,0,0,0
65.31,8.56,-18.26,1224,-2566,7709,0,0,0
65.30,8.56,-18.26,1209,-2557,7717,-1,-1,0
65.28,8.56,-18.26,1207,-2559,7729,-1,-1,0
65.28,8.56,-18.27,1217,-2556,7741,-1,-1,0
65.28,8.56,-18.27,1218,-2545,7738,-1,0,0
65.27,8.56,-18.29,1239,-2565,7753,-1,0,0
65.28,8.55,-18.30,1228,-2566,7735,-1,0,-1
65.28,8.55,-18.31,1228,-2576,7722,0,-1,-1
65.28,8.55,-18.30,1228,-2589,7741,0,0,-1
65.28,8.56,-18.29,1239,-2581,7738,0,-1,-1
65.28,8.56,-18.28,1229,-2566,7729,0,0,0
65.28,8.56,-18.27,1233,-2548,7744,0,0,0
65.28,8.55,-18.27,1210,-2527,7726,-1,-1,0
65.28,8.55,-18.27,1232,-2526,7734,-1,0,0
65.27,8.54,-18.28,1219,-2560,7754,-1,0,-1
65.28,8.55,-18.30,1222,-2600,7744,0,0,-1
65.28,8.54,-18.29,1200,-2619,7737,0,-1,-1
65.28,8.55,-18.27,1227,-2600,7741,0,-1,-1
65.28,8.54,-18.25,1208,-2582,7733,0,-1,0
65.28,8.55,-18.22,1228,-2523,7716,0,0,0
65.27,8.55,-18.21,1216,-2493,7734,0,-1,0
65.26,8.55,-18.20,1225,-2442,7738,-1,0,0
65.24,8.54,-18.22,1227,-2444,7735,-2,-1,0
65.24,8.53,-18.25,1233,-2465,7742,-2,0,0
65.22,8.52,-18.30,1240,-2519,7741,-2,0,0
65.23,8.51,-18.34,1239,-2564,7714,-2,0,-1
65.22,8.50,-18.39,1243,-2632,7709,-1,0,-1
65.23,8.51,-18.42,1237,-2680,7699,-1,0,-1
65.24,8.51,-18.44,1267,-2745,7723,0,0,-1
65.24,8.51,-18.43,1239,-2771,7720,1,0,-1
65.25,8.51,-18.40,1243,-2757,7728,2,-1,0
65.23,8.50,-18.33,1212,-2683,7739,2,0,0
65.22,8.50,-18.25,1216,-2588,7762,2,-1,0
65.21,8.48,-18.16,1169,-2471,7773,1,0,1
65.18,8.47,-18.09,1170,-2367,7791,1,-1,0
65.18,8.45,-18.06,1132,-2319,7799,-1,-1,0
65.17,8.45,-18.07,1184,-2320,7789,-2,0,-1
65.19,8.44,-18.11,1177,-2395,7745,-2,0,-1
65.21,8.45,-18.16,1215,-2478,7719,-2,0,-2
65.24,8.43,-18.22,1203,-2570,7692,-2,0,-1
65.26,8.44,-18.26,1212,-2620,7668,-1,0,-1
65.26,8.44,-18.30,1196,-2663,7659,-1,-1,-1
65.25,8.44,-18.31,1192,-2661,7652,0,-1,0
65.22,8.46,-18.32,1198,-2678,7686,0,-2,0
65.19,8.48,-18.32,1217,-2650,7723,0,-1,0
65.16,8.50,-18.31,1227,-2620,7744,0,-2,1
65.13,8.51,-18.28,1224,-2591,7761,0,-1,0
65.11,8.52,-18.25,1240,-2552,7786,0,-1,0
65.10,8.53,-18.22,1246,-2500,7792,0,-1,0
65.11,8.55,-18.20,1268,-2486,7783,0,-1,-1
65.12,8.55,-18.18,1266,-2483,7775,0,0,-1
65.14,8.55,-18.17,1264,-2511,7758,0,0,-1
65.16,8.54,-18.17,1248,-2524,7756,-1,0,-1
65.17,8.53,-18.17,1236,-2560,7745,0,0,-1
65.17,8.51,-18.18,1206,-2586,7728,-1,0,-1
65.18,8.51,-18.17,1210,-2585,7713,0,0,-1
65.18,8.50,-18.17,1193,-2587,7680,0,0,0
65.18,8.49,-18.16,1190,-2565,7689,0,0,0
65.17,8.48,-18.15,1173,-2557,7680,0,-1,0
65.15,8.49,-18.14,1168,-2522,7694,0,-1,0
65.14,8.50,-18.14,1181,-2522,7702,0,-1,0
65.13,8.50,-18.12,1187,-2499,7722,-1,-1,0
65.12,8.52,-18.12,1211,-2493,7754,-1,-1,0
65.11,8.53,-18.13,1216,-2507,7765,-1,-1,0
65.11,8.54,-18.13,1240,-2499,7776,-1,-1,-1
65.11,8.54,-18.14,1235,-2523,7762,-1,-1,-1
65.11,8.55,-18.16,1250,-2515,7774,-1,0,0
65.10,8.55,-18.17,1256,-2535,7800,0,-1,-1
65.12,8.55,-18.16,1238,-2501,7766,-1,0,-1
65.13,8.56,-18.17,1246,-2531,7752,-1,-1,-1
65.12,8.56,-18.19,1262,-2562,7767,-2,0,0
65.13,8.56,-18.22,1292,-2595,7759,-1,0,-1
65.14,8.54,-18.24,1245,-2626,7736,-1,0,-1
65.14,8.52,-18.25,1222,-2636,7713,0,0,-1
65.15,8.51,-18.25,1191,-2645,7688,0,0,-1
65.15,8.51,-18.22,1196,-2588,7700,1,-1,0
65.14,8.53,-18.20,1177,-2564,7711,0,-1,0
65.08,8.54,-18.21,1120,-2505,7901,-1,-3,2
65.04,8.58,-18.25,1255,-2438,7717,-3,-1,-1
65.07,8.59,-18.28,1317,-2537,7621,0,1,-2
65.10,8.56,-18.23,1289,-2493,7647,1,1,-1
65.12,8.52,-18.21,1204,-2466,7726,-1,0,0
65.10,8.51,-18.21,1163,-2468,7759,-1,-1,0
65.08,8.52,-18.22,1155,-2473,7779,-2,-1,0
65.07,8.52,-18.26,1204,-2522,7797,-2,0,-1
65.08,8.51,-18.30,1209,-2610,7760,-1,0,-1
65.10,8.52,-18.32,1216,-2641,7743,-1,0,-1
65.10,8.53,-18.33,1233,-2655,7720,0,-1,-1
65.10,8.55,-18.32,1235,-2626,7743,0,-1,-1
65.11,8.55,-18.31,1247,-2606,7746,0,-1,-1
65.11,8.55,-18.30,1247,-2592,7752,0,0,0
65.10,8.55,-18.29,1247,-2575,7741,0,0,0
65.10,8.55,-18.30,1244,-2567,7733,0,-1,-1
65.11,8.56,-18.28,1240,-2535,7741,0,0,-1
65.11,8.55,-18.27,1227,-2530,7738,0,0,-1
65.13,8.55,-18.26,1229,-2530,7754,-1,0,-1
65.13,8.54,-18.28,1215,-2537,7723,-1,0,-1
65.13,8.53,-18.27,1195,-2550,7722,-1,-1,-1
65.14,8.54,-18.27,1206,-2545,7720,0,0,-1
65.14,8.52,-18.28,1199,-2560,7732,-1,0,-1
65.14,8.52,-18.28,1194,-2559,7715,-1,0,-1
65.14,8.53,-18.29,1205,-2567,7717,-1,-1,0
65.13,8.54,-18.29,1207,-2563,7718,0,-1,-1
65.13,8.55,-18.29,1245,-2574,7743,-1,-1,0
65.13,8.54,-18.29,1229,-2573,7769,-1,0,0
65.13,8.55,-18.29,1245,-2560,7769,-1,0,0
65.12,8.54,-18.30,1226,-2576,7759,-1,-1,0
65.12,8.55,-18.30,1256,-2557,7759,0,0,0
65.12,8.54,-18.29,1234,-2559,7753,-1,-1,0
65.11,8.54,-18.29,1256,-2520,7758,0,0,0
65.12,8.53,-18.29,1207,-2536,7724,-1,-1,-1
65.12,8.53,-18.28,1240,-2506,7733,-1,0,-1
65.12,8.53,-18.29,1228,-2508,7732,-1,-1,-1
65.12,8.53,-18.31,1230,-2529,7731,-1,0,-1
65.13,8.51,-18.33,1232,-2564,7735,-1,0,-1
65.14,8.50,-18.35,1208,-2577,7710,-1,0,-1
65.15,8.49,-18.36,1217,-2578,7708,-1,0,-1
65.15,8.48,-18.37,1191,-2584,7702,-1,0,-1
65.15,8.48,-18.38,1224,-2598,7708,-1,-1,-1
65.15,8.48,-18.39,1204,-2593,7729,-1,0,-1
65.15,8.47,-18.40,1225,-2600,7735,-1,0,0
65.15,8.46,-18.41,1179,-2585,7713,-1,0,0
65.13,8.46,-18.42,1235,-2567,7740,-1,0,0
65.13,8.45,-18.42,1192,-2576,7733,-1,0,0
65.13,8.45,-18.43,1220,-2566,7736,-1,0,-1
65.12,8.44,-18.44,1200,-2587,7732,-1,-1,0
65.12,8.45,-18.44,1246,-2581,7736,0,0,0
65.12,8.43,-18.45,1204,-2590,7745,-1,0,0
65.12,8.43,-18.44,1226,-2574,7736,0,0,-1
65.12,8.41,-18.45,1190,-2596,7728,-1,0,0
65.12,8.41,-18.45,1211,-2600,7735,0,0,0
65.12,8.40,-18.46,1206,-2609,7730,0,0,0
65.12,8.40,-18.45,1213,-2595,7711,0,0,0
65.11,8.39,-18.45,1209,-2600,7716,0,-1,0
65.12,8.38,-18.45,1188,-2571,7703,0,0,0
65.11,8.38,-18.44,1181,-2584,7704,0,-1,0
65.11,8.38,-18.44,1193,-2570,7720,0,0,0
65.10,8.37,-18.44,1206,-2569,7732,0,-1,0
65.10,8.37,-18.43,1204,-2569,7730,0,0,0
65.10,8.38,-18.43,1196,-2579,7740,0,-1,-1
65.10,8.38,-18.43,1200,-2577,7758,-1,0,-1
65.11,8.38,-18.44,1205,-2576,7756,-1,-1,-1
65.11,8.39,-18.44,1191,-2576,7737,-1,-1,-1
65.10,8.39,-18.45,1205,-2582,7732,-1,-1,-1
65.10,8.40,-18.45,1201,-2564,7725,0,-1,-1
65.10,8.40,-18.45,1204,-2569,7708,0,-1,-1
65.10,8.40,-18.44,1192,-2558,7724,-1,0,-1
65.11,8.40,-18.44,1190,-2581,7716,0,-1,-1
65.12,8.41,-18.44,1197,-2572,7727,-1,0,-1
65.11,8.41,-18.44,1212,-2574,7721,0,-1,-1
65.13,8.42,-18.44,1208,-2585,7719,-1,0,-1
65.12,8.42,-18.45,1220,-2592,7722,0,-1,-1
65.12,8.42,-18.46,1197,-2607,7708,-1,0,-1
65.12,8.42,-18.46,1204,-2604,7722,0,-1,-1
65.12,8.42,-18.46,1189,-2630,7698,0,-1,0
65.11,8.43,-18.45,1214,-2631,7714,0,-1,0
65.10,8.44,-18.43,1224,-2613,7728,1,-1,-1
65.11,8.45,-18.41,1221,-2564,7760,0,0,0
65.10,8.45,-18.39,1217,-2531,7735,0,-1,0
65.11,8.45,-18.38,1227,-2524,7772,-1,-1,0
65.10,8.46,-18.40,1231,-2525,7761,-1,0,0
65.10,8.45,-18.41,1213,-2545,7737,-1,0,-1
65.10,8.45,-18.43,1207,-2556,7736,-1,0,-1
65.11,8.45,-18.44,1210,-2572,7731,-1,-1,-1
65.11,8.46,-18.46,1225,-2567,7745,-1,0,-1
65.11,8.46,-18.48,1210,-2585,7712,-1,-1,0
65.10,8.46,-18.49,1210,-2595,7729,-1,0,0
65.10,8.45,-18.49,1196,-2601,7722,-1,0,-1
65.10,8.45,-18.52,1181,-2620,7715,-1,-1,0
65.08,8.45,-18.53,1192,-2630,7702,0,-1,0
65.09,8.47,-18.52,1211,-2613,7713,0,-1,-1
65.09,8.48,-18.50,1237,-2580,7719,0,-1,-1
65.09,8.49,-18.50,1247,-2572,7740,-1,0,-1
65.09,8.49,-18.50,1243,-2579,7767,-1,0,-1
65.10,8.49,-18.51,1241,-2623,7743,-1,0,0
65.10,8.50,-18.51,1235,-2615,7740,0,-1,-1
65.10,8.50,-18.50,1249,-2597,7717,0,0,-1
65.11,8.50,-18.49,1235,-2558,7737,0,0,-1
65.10,8.49,-18.49,1215,-2565,7723,-1,0,0
65.09,8.48,-18.49,1187,-2577,7727,-1,0,0
65.09,8.48,-18.50,1198,-2584,7724,-1,-1,-1
65.10,8.48,-18.50,1191,-2595,7706,-1,-1,-1
65.10,8.48,-18.50,1208,-2598,7716,0,-1,-1
65.10,8.49,-18.50,1217,-2600,7713,-1,-1,-1
65.10,8.50,-18.50,1237,-2587,7725,-1,-1,0
65.09,8.50,-18.51,1236,-2608,7715,-1,-1,0
65.09,8.50,-18.51,1229,-2612,7733,-1,0,0
65.08,8.50,-18.52,1218,-2606,7730,0,0,0
65.08,8.49,-18.52,1200,-2599,7730,-1,0,0
65.08,8.50,-18.52,1219,-2588,7718,0,-1,-1
65.08,8.50,-18.51,1221,-2586,7719,0,-1,-1
65.09,8.51,-18.50,1224,-2584,7723,0,-1,-1
65.09,8.51,-18.50,1225,-2585,7722,-1,-1,0
65.09,8.52,-18.50,1233,-2582,7731,0,-1,-1
65.10,8.52,-18.51,1235,-2584,7727,-1,0,-1
65.09,8.52,-18.51,1233,-2586,7728,-1,-1,-1
65.10,8.52,-18.52,1231,-2603,7714,-1,0,-1
65.10,8.52,-18.53,1222,-2611,7712,-1,0,-1
65.10,8.52,-18.53,1227,-2627,7708,0,0,0
65.10,8.51,-18.53,1205,-2613,7699,0,0,0
65.09,8.51,-18.53,1212,-2613,7701,0,-1,0
65.08,8.51,-18.52,1211,-2608,7726,0,-1,0
65.07,8.52,-18.50,1223,-2595,7724,0,-1,0
65.07,8.51,-18.50,1209,-2578,7730,0,0,0
65.07,8.51,-18.48,1207,-2565,7726,0,-1,0
65.07,8.51,-18.48,1219,-2571,7734,-1,-1,-1
65.07,8.52,-18.48,1238,-2581,7748,0,0,-1
65.07,8.52,-18.48,1236,-2588,7744,0,0,0
65.07,8.51,-18.48,1231,-2588,7736,-1,0,0
65.07,8.51,-18.49,1212,-2602,7738,0,0,0
65.07,8.50,-18.48,1225,-2599,7724,0,0,0
65.06,8.49,-18.48,1204,-2593,7710,-1,-1,0
65.06,8.50,-18.48,1207,-2595,7728,0,0,0
65.05,8.50,-18.47,1212,-2586,7733,0,-1,-1
65.05,8.50,-18.46,1208,-2563,7713,0,0,0
65.05,8.50,-18.46,1208,-2587,7721,0,-1,0
65.06,8.50,-18.46,1214,-2582,7724,0,0,-1
65.06,8.50,-18.44,1235,-2570,7732,0,0,-1
65.06,8.50,-18.44,1213,-2556,7732,-1,0,0
65.06,8.50,-18.46,1213,-2605,7730,-1,-1,0
65.05,8.50,-18.46,1211,-2617,7722,0,0,0
65.05,8.50,-18.46,1232,-2614,7726,0,0,0
65.04,8.49,-18.45,1204,-2596,7725,0,0,0
65.04,8.50,-18.45,1230,-2592,7731,0,-1,0
65.03,8.49,-18.44,1197,-2589,7728,0,0,0
65.02,8.51,-18.44,1221,-2587,7732,0,-1,0
65.01,8.50,-18.44,1227,-2583,7734,0,0,0
65.01,8.51,-18.42,1250,-2568,7738,0,0,0
65.00,8.50,-18.41,1220,-2557,7731,0,0,0
65.00,8.50,-18.41,1233,-2567,7722,0,0,0
64.99,8.48,-18.40,1196,-2573,7731,-1,0,0
64.99,8.50,-18.40,1217,-2574,7736,0,-1,0
64.99,8.49,-18.40,1200,-2585,7742,-1,0,0
64.98,8.49,-18.40,1211,-2604,7752,0,0,0
64.97,8.48,-18.40,1189,-2608,7728,0,-1,0
64.96,8.49,-18.38,1215,-2577,7716,0,0,0
64.96,8.48,-18.37,1188,-2563,7717,0,-1,0
64.95,8.49,-18.36,1217,-2554,7730,0,-1,0
64.94,8.49,-18.35,1210,-2550,7736,0,-1,0
64.94,8.50,-18.34,1243,-2550,7745,0,0,0
64.93,8.49,-18.35,1220,-2564,7742,0,0,0
64.93,8.49,-18.34,1233,-2558,7751,0,0,0
64.93,8.48,-18.33,1205,-2555,7740,-1,0,0
64.93,8.48,-18.33,1221,-2548,7742,-1,0,0
64.93,8.48,-18.34,1212,-2549,7747,-1,0,0
64.92,8.48,-18.34,1236,-2550,7743,-1,0,0
64.91,8.47,-18.35,1217,-2559,7735,-1,-1,0
64.91,8.47,-18.35,1220,-2562,7739,-1,0,0
64.91,8.46,-18.36,1193,-2567,7737,-1,0,-1
64.91,8.46,-18.37,1210,-2565,7718,-1,0,-1
64.91,8.45,-18.36,1191,-2570,7726,-1,-1,-1
64.91,8.45,-18.37,1204,-2578,7727,-1,0,-1
64.91,8.45,-18.38,1198,-2594,7734,0,-1,-1
64.92,8.46,-18.38,1217,-2586,7726,0,0,0
64.91,8.45,-18.38,1214,-2591,7742,-1,-1,0
64.90,8.45,-18.38,1208,-2584,7739,0,-1,0
64.90,8.46,-18.38,1211,-2589,7735,0,-1,0
64.89,8.46,-18.38,1210,-2588,7731,0,-1,0
64.89,8.46,-18.38,1209,-2581,7734,0,-1,0
64.88,8.47,-18.37,1224,-2558,7724,0,-1,0
64.88,8.48,-18.36,1221,-2549,7722,0,-1,0
64.87,8.48,-18.35,1225,-2528,7736,0,-1,0
64.88,8.49,-18.35,1220,-2534,7747,-1,-1,-1
64.88,8.50,-18.35,1237,-2528,7733,-1,-1,-1
64.89,8.50,-18.36,1234,-2559,7731,-1,0,-1
64.90,8.50,-18.36,1233,-2558,7739,-1,0,-1
64.90,8.49,-18.38,1203,-2578,7728,-1,0,-1
64.91,8.50,-18.39,1198,-2578,7733,-1,0,-1
64.90,8.49,-18.40,1221,-2581,7713,-1,0,0
64.90,8.48,-18.41,1203,-2575,7730,-1,0,0
64.91,8.47,-18.43,1209,-2595,7726,0,-1,-1
64.91,8.47,-18.43,1208,-2599,7723,-1,-1,0
64.90,8.49,-18.43,1238,-2601,7712,0,-1,-1
64.91,8.49,-18.42,1237,-2608,7721,0,0,-1
64.91,8.49,-18.40,1235,-2585,7756,0,0,-1
64.92,8.48,-18.39,1203,-2574,7758,-1,0,-1
64.93,8.48,-18.39,1195,-2535,7763,-1,0,-1
64.94,8.48,-18.40,1198,-2550,7746,-1,0,-1
64.94,8.48,-18.41,1200,-2549,7757,-1,0,-1
64.95,8.47,-18.43,1197,-2559,7717,-1,0,-1
64.96,8.48,-18.43,1200,-2578,7692,-1,-1,-1
64.96,8.48,-18.44,1206,-2587,7695,0,-1,-1
64.98,8.49,-18.43,1210,-2580,7691,-1,-1,-1
64.99,8.50,-18.44,1223,-2578,7707,0,-1,-1
64.98,8.50,-18.44,1220,-2578,7711,-1,-1,0
64.98,8.51,-18.46,1222,-2590,7721,-1,-1,-1
64.98,8.51,-18.47,1201,-2606,7718,-1,-1,-1
64.98,8.51,-18.47,1206,-2609,7729,0,-1,-1
64.98,8.52,-18.47,1210,-2609,7717,0,-1,-1
64.99,8.53,-18.45,1237,-2592,7725,0,-1,-1
64.99,8.54,-18.44,1242,-2581,7717,0,-1,0
64.98,8.54,-18.43,1243,-2560,7751,0,0,-1
64.98,8.55,-18.43,1246,-2563,7738,0,0,-1
64.99,8.55,-18.43,1234,-2562,7760,-1,0,-1
65.00,8.55,-18.43,1233,-2572,7744,0,-1,-1
65.01,8.55,-18.43,1227,-2570,7745,-1,0,-1
65.01,8.55,-18.43,1231,-2567,7703,-1,0,-1
65.02,8.55,-18.44,1228,-2583,7701,-1,0,-1
65.02,8.55,-18.44,1234,-2587,7716,0,-1,-1
65.00,8.55,-18.44,1226,-2586,7724,-1,-1,0
65.00,8.55,-18.45,1220,-2587,7736,-1,-1,0
65.00,8.54,-18.45,1208,-2585,7720,-1,0,0
65.00,8.54,-18.45,1215,-2572,7732,-1,0,-1
65.00,8.54,-18.46,1219,-2578,7719,-1,0,-1
65.01,8.54,-18.46,1210,-2569,7720,-1,0,-1
65.01,8.55,-18.47,1226,-2583,7720,-1,-1,-1
65.02,8.55,-18.47,1218,-2590,7748,-1,0,-1
65.02,8.55,-18.48,1227,-2587,7749,-1,0,-1
65.02,8.54,-18.48,1223,-2575,7750,-1,0,-1
65.02,8.54,-18.50,1236,-2574,7738,-1,0,0
65.02,8.54,-18.50,1232,-2574,7730,-1,0,-1
65.01,8.54,-18.51,1235,-2585,7723,-1,0,-1
65.02,8.53,-18.53,1227,-2602,7713,-1,0,0
65.02,8.53,-18.53,1231,-2594,7726,-1,0,-1
65.02,8.53,-18.53,1221,-2597,7710,0,-1,-1
65.02,8.53,-18.52,1212,-2576,7742,-1,0,-1
65.03,8.53,-18.53,1224,-2564,7728,-1,0,-1
65.03,8.53,-18.54,1219,-2575,7724,-1,0,-1
65.03,8.52,-18.56,1216,-2611,7723,-1,0,-1
65.04,8.51,-18.58,1211,-2624,7718,-1,0,-1
65.03,8.51,-18.60,1222,-2652,7709,-1,-1,-1
65.03,8.52,-18.61,1223,-2648,7709,0,-1,-1
65.03,8.52,-18.60,1237,-2638,7710,0,-1,0
65.02,8.53,-18.58,1233,-2614,7713,0,-1,0
65.02,8.52,-18.57,1232,-2587,7730,0,0,0
65.01,8.51,-18.57,1208,-2583,7739,-1,0,0
65.01,8.51,-18.57,1215,-2575,7737,-1,0,0
64.99,8.51,-18.57,1224,-2583,7742,-1,-1,0
64.99,8.51,-18.57,1233,-2577,7734,-1,0,0
64.99,8.50,-18.58,1223,-2590,7734,-1,0,0
65.00,8.50,-18.59,1216,-2595,7723,-1,0,0
64.99,8.49,-18.61,1211,-2622,7713,-1,-1,0
64.99,8.49,-18.61,1204,-2615,7722,-1,0,0
64.99,8.49,-18.62,1207,-2624,7714,-1,-1,0
64.98,8.49,-18.61,1205,-2620,7718,0,0,0
64.98,8.49,-18.61,1210,-2623,7706,-1,-1,0
64.97,8.48,-18.61,1209,-2604,7719,0,0,0
64.97,8.49,-18.60,1220,-2596,7730,-1,-1,0
64.97,8.49,-18.60,1195,-2583,7737,0,-1,0
64.97,8.50,-18.60,1241,-2600,7747,0,-1,-1
64.98,8.49,-18.59,1226,-2603,7754,-1,0,-1
64.97,8.50,-18.60,1227,-2620,7742,-1,-1,0
64.97,8.49,-18.60,1209,-2620,7741,0,0,0
64.97,8.50,-18.59,1230,-2598,7726,0,-1,0
64.96,8.50,-18.59,1225,-2598,7722,0,0,0
64.97,8.49,-18.58,1222,-2554,7737,-1,0,0
64.96,8.49,-18.59,1213,-2583,7725,-1,-1,0
64.96,8.49,-18.59,1208,-2557,7709,0,0,-1
64.97,8.48,-18.60,1205,-2580,7707,-1,-1,0
64.97,8.49,-18.60,1231,-2578,7701,0,0,-1
64.98,8.48,-18.62,1226,-2604,7704,-1,0,-1
64.98,8.48,-18.63,1204,-2602,7701,-1,-1,-1
64.98,8.47,-18.64,1206,-2622,7721,-1,0,0
64.98,8.48,-18.66,1216,-2632,7719,-1,0,-1
64.97,8.46,-18.66,1196,-2643,7718,0,-1,0
64.98,8.47,-18.65,1203,-2619,7726,0,0,0
64.96,8.47,-18.66,1223,-2632,7726,-1,-1,0
64.97,8.47,-18.65,1227,-2596,7718,0,0,0
64.96,8.46,-18.65,1218,-2613,7732,-1,-1,0
64.95,8.46,-18.65,1227,-2584,7738,-1,0,0
64.95,8.45,-18.67,1215,-2609,7710,-1,-1,0
64.94,8.45,-18.66,1209,-2603,7710,0,0,0
64.94,8.44,-18.67,1224,-2620,7736,-1,0,0
64.94,8.43,-18.67,1194,-2603,7711,0,0,-1
64.94,8.43,-18.67,1208,-2623,7727,-1,-1,0
64.94,8.43,-18.67,1186,-2623,7727,0,0,0
64.93,8.42,-18.67,1214,-2621,7726,-1,-1,0
64.93,8.42,-18.67,1186,-2607,7720,-1,0,0
64.91,8.42,-18.68,1209,-2626,7720,-1,-1,0
64.91,8.41,-18.67,1191,-2612,7708,0,0,0
64.90,8.42,-18.68,1221,-2627,7715,0,-1,0
64.89,8.42,-18.67,1205,-2615,7726,0,-1,0
64.88,8.42,-18.66,1217,-2601,7728,0,-1,0
64.87,8.42,-18.65,1193,-2602,7716,-1,-1,0
64.87,8.42,-18.65,1220,-2596,7713,0,0,0
64.86,8.41,-18.65,1190,-2608,7717,-1,-1,0
64.86,8.44,-18.64,1217,-2620,7732,0,-1,0
64.86,8.44,-18.64,1198,-2630,7735,-1,-1,0
64.86,8.44,-18.64,1208,-2613,7722,0,-1,-1
64.85,8.44,-18.63,1195,-2612,7700,0,-1,0
64.85,8.45,-18.62,1228,-2594,7719,0,-1,0
64.84,8.45,-18.62,1206,-2613,7710,-1,-1,0
64.85,8.46,-18.61,1201,-2567,7718,0,-1,-1
64.83,8.46,-18.61,1200,-2604,7701,-1,-1,0
64.84,8.47,-18.59,1206,-2587,7719,0,-1,-1
64.84,8.48,-18.59,1214,-2601,7710,0,-1,-1
64.84,8.48,-18.57,1214,-2580,7726,-1,0,-1
64.84,8.48,-18.57,1226,-2576,7728,0,-1,0
64.85,8.48,-18.58,1222,-2594,7723,-1,0,-1
64.85,8.49,-18.59,1223,-2596,7722,-1,0,-1
64.85,8.48,-18.60,1203,-2624,7704,-1,-1,0
64.85,8.48,-18.60,1233,-2625,7715,0,-1,0
64.85,8.48,-18.60,1224,-2634,7700,0,0,0
64.84,8.47,-18.58,1237,-2603,7734,0,0,0
64.84,8.47,-18.58,1224,-2586,7718,0,0,0
64.84,8.47,-18.58,1223,-2594,7731,-1,0,0
64.85,8.46,-18.58,1215,-2593,7732,0,0,0
64.85,8.46,-18.57,1204,-2589,7725,0,0,-1
64.85,8.45,-18.56,1204,-2582,7732,0,0,-1
64.85,8.45,-18.56,1191,-2595,7729,-1,0,-1
64.85,8.45,-18.56,1214,-2575,7737,-1,0,-1
64.86,8.44,-18.57,1206,-2596,7711,0,0,-1
64.86,8.44,-18.57,1200,-2607,7731,-1,0,-1
64.85,8.43,-18.57,1193,-2624,7713,0,-1,0
64.85,8.42,-18.57,1184,-2618,7715,0,0,0
64.84,8.42,-18.56,1202,-2598,7708,0,-1,0
64.83,8.42,-18.56,1195,-2597,7712,0,0,0
64.84,8.42,-18.55,1200,-2576,7729,0,-1,-1
64.83,8.42,-18.56,1205,-2595,7724,0,-1,0
64.83,8.43,-18.55,1222,-2590,7742,-1,-1,-1
64.83,8.43,-18.56,1239,-2612,7715,0,-1,-1
64.83,8.43,-18.56,1233,-2626,7728,0,0,-1
64.83,8.43,-18.55,1215,-2608,7730,0,-1,-1
64.84,8.43,-18.54,1203,-2600,7729,0,-1,0
64.83,8.43,-18.54,1201,-2581,7725,-1,-1,0
64.83,8.43,-18.54,1194,-2580,7722,-1,0,0
64.83,8.43,-18.54,1198,-2568,7732,-1,0,-1
64.83,8.43,-18.54,1196,-2581,7707,0,-1,-1
64.84,8.44,-18.54,1189,-2580,7722,0,0,-1
64.84,8.44,-18.53,1198,-2568,7709,0,-1,-1
64.85,8.44,-18.52,1204,-2561,7722,-1,-1,-1
64.86,8.45,-18.53,1213,-2568,7734,-1,0,-1
64.86,8.44,-18.54,1203,-2589,7728,-1,0,-1
64.87,8.44,-18.55,1204,-2591,7735,-1,0,-1
64.87,8.44,-18.57,1204,-2615,7721,-1,0,-1
64.87,8.44,-18.58,1208,-2611,7736,-1,0,-1
64.88,8.44,-18.59,1215,-2617,7713,0,-1,-1
64.88,8.45,-18.59,1205,-2619,7704,0,-1,-1
64.88,8.45,-18.59,1221,-2610,7716,0,-1,-1
64.88,8.46,-18.58,1222,-2593,7736,0,-1,0
64.88,8.46,-18.58,1223,-2581,7747,-1,0,0
64.88,8.46,-18.59,1211,-2581,7745,-1,0,-1
64.89,8.46,-18.59,1213,-2587,7753,-1,0,-1
64.90,8.45,-18.61,1213,-2603,7727,-1,0,-1
64.90,8.46,-18.62,1220,-2612,7726,-1,0,-1
64.91,8.46,-18.63,1219,-2622,7704,-1,0,-1
64.91,8.45,-18.64,1221,-2618,7708,-1,0,-1
64.91,8.45,-18.65,1209,-2633,7694,-1,0,0
64.91,8.45,-18.65,1209,-2634,7724,0,0,0
64.90,8.44,-18.64,1212,-2624,7708,0,0,0
64.90,8.44,-18.64,1198,-2597,7718,-1,0,0
64.90,8.44,-18.64,1203,-2588,7715,0,-1,0
64.90,8.44,-18.64,1215,-2593,7731,-1,0,-1
64.90,8.44,-18.64,1219,-2593,7723,-1,0,-1
64.90,8.44,-18.64,1207,-2624,7728,-1,-1,-1
64.90,8.44,-18.64,1206,-2617,7733,0,0,-1
64.90,8.44,-18.64,1212,-2617,7726,0,-1,0
64.90,8.43,-18.64,1204,-2608,7736,0,0,0
64.90,8.43,-18.64,1208,-2600,7730,-1,0,0
64.90,8.42,-18.64,1206,-2590,7714,0,0,0
64.90,8.42,-18.64,1224,-2595,7711,0,0,-1
64.91,8.42,-18.62,1202,-2596,7704,0,0,-1
64.91,8.42,-18.61,1205,-2583,7715,0,-1,-1
64.92,8.42,-18.61,1193,-2582,7726,-1,0,0
64.91,8.42,-18.61,1218,-2565,7728,-1,0,0
64.91,8.41,-18.62,1209,-2565,7717,-1,0,0
64.91,8.42,-18.65,1248,-2560,7711,-2,0,0
64.90,8.40,-18.69,1213,-2595,7704,-2,0,0
64.90,8.40,-18.72,1234,-2633,7711,-2,0,0
64.89,8.38,-18.77,1216,-2679,7726,-2,0,0
64.89,8.37,-18.79,1226,-2701,7713,-1,0,0
64.89,8.35,-18.81,1198,-2755,7686,0,0,-1
64.90,8.35,-18.79,1187,-2749,7694,1,0,-1
64.92,8.35,-18.75,1160,-2739,7703,1,-1,-1
64.92,8.35,-18.70,1148,-2701,7717,2,-1,-1
64.94,8.36,-18.64,1129,-2669,7718,2,-1,-1
64.95,8.37,-18.55,1128,-2600,7726,2,-1,-1
64.97,8.38,-18.46,1155,-2523,7764,2,-1,-1
64.97,8.40,-18.40,1179,-2451,7775,0,-1,0
64.96,8.41,-18.38,1213,-2415,7762,-1,-1,0
64.94,8.42,-18.39,1222,-2437,7741,-2,0,0
64.92,8.42,-18.43,1238,-2493,7744,-2,-1,0
64.91,8.42,-18.47,1216,-2555,7719,-2,0,0
64.90,8.43,-18.50,1239,-2599,7699,-1,-1,-1
64.90,8.44,-18.51,1236,-2623,7682,-1,-1,-1
64.91,8.46,-18.52,1265,-2618,7701,0,-1,-1
64.91,8.46,-18.53,1245,-2621,7702,-1,-1,0
64.91,8.47,-18.54,1268,-2625,7698,-1,0,0
64.91,8.46,-18.55,1233,-2664,7723,-1,0,0
64.91,8.46,-18.55,1225,-2633,7762,0,0,-1
64.91,8.45,-18.55,1207,-2619,7757,-1,0,-1
64.91,8.45,-18.55,1219,-2600,7760,0,0,-1
64.91,8.44,-18.54,1212,-2591,7749,0,0,0
64.92,8.43,-18.53,1211,-2560,7735,0,0,0
64.91,8.43,-18.52,1198,-2549,7735,0,0,0
64.92,8.42,-18.51,1179,-2547,7727,0,0,-1
64.92,8.43,-18.51,1189,-2546,7710,-1,-1,-1
64.93,8.43,-18.51,1190,-2559,7710,-1,0,-1
64.92,8.43,-18.53,1197,-2592,7707,-1,-1,0
64.91,8.43,-18.55,1194,-2587,7698,-1,-1,0
64.91,8.44,-18.55,1199,-2588,7689,-1,-1,0
64.92,8.43,-18.57,1178,-2603,7679,-1,-1,0
64.91,8.44,-18.58,1186,-2625,7691,-1,-1,0
64.90,8.44,-18.60,1177,-2642,7699,-1,-1,0
64.88,8.46,-18.61,1193,-2646,7697,0,-1,0
64.88,8.47,-18.60,1215,-2645,7716,0,-1,0
64.88,8.48,-18.58,1230,-2609,7749,0,-1,0
64.87,8.48,-18.56,1221,-2577,7732,0,-1,0
64.88,8.49,-18.55,1222,-2557,7763,-1,-1,-1
64.87,8.49,-18.56,1232,-2571,7760,0,-1,-1
64.88,8.50,-18.55,1233,-2579,7741,-1,0,-1
64.89,8.50,-18.56,1237,-2600,7738,0,0,-1
64.90,8.50,-18.56,1229,-2614,7741,-1,0,-1
64.89,8.50,-18.57,1233,-2606,7738,-1,0,-1
64.90,8.49,-18.58,1210,-2626,7706,-1,0,-1
64.91,8.49,-18.57,1202,-2620,7724,0,0,-1
64.91,8.48,-18.57,1187,-2638,7705,0,-1,-1
64.90,8.48,-18.56,1189,-2622,7718,0,-1,0
64.90,8.49,-18.55,1200,-2616,7710,0,-1,0
64.89,8.49,-18.54,1192,-2589,7722,0,-1,0
64.88,8.49,-18.53,1204,-2576,7709,0,-1,0
64.88,8.50,-18.53,1214,-2568,7720,-1,-1,0
64.89,8.51,-18.52,1234,-2554,7738,0,-1,-1
64.88,8.52,-18.52,1240,-2564,7740,-1,0,-1
64.89,8.52,-18.53,1230,-2581,7759,-1,0,-1
64.90,8.52,-18.54,1215,-2594,7741,-1,-1,-1
64.91,8.52,-18.55,1225,-2601,7745,-1,0,-1
64.92,8.53,-18.55,1228,-2607,7721,0,0,-1
64.92,8.53,-18.56,1221,-2606,7727,-1,0,0
64.91,8.53,-18.57,1220,-2625,7712,0,-1,0
64.90,8.53,-18.58,1213,-2648,7720,0,-1,0
64.88,8.53,-18.58,1206,-2672,7705,0,-1,0
64.88,8.53,-18.56,1190,-2659,7692,1,-1,-1
64.90,8.53,-18.51,1222,-2594,7715,2,-1,-1
64.93,8.54,-18.45,1224,-2541,7734,0,0,-1
64.94,8.54,-18.43,1232,-2527,7749,0,0,-1
64.96,8.53,-18.43,1217,-2552,7744,-1,0,-1
64.97,8.51,-18.44,1177,-2593,7721,-1,0,-1
64.98,8.50,-18.45,1149,-2646,7706,0,-1,-1
64.98,8.52,-18.44,1161,-2655,7714,0,-1,-1
64.97,8.54,-18.43,1209,-2644,7715,1,-2,0
64.94,8.56,-18.40,1241,-2607,7752,0,-1,0
64.91,8.57,-18.38,1253,-2571,7752,0,-1,1
64.88,8.56,-18.38,1244,-2558,7736,-1,-1,0
64.87,8.57,-18.38,1259,-2571,7738,0,-1,0
64.85,8.57,-18.37,1254,-2562,7728,0,0,0
64.86,8.57,-18.35,1250,-2509,7717,0,0,0
64.86,8.57,-18.32,1242,-2477,7741,0,-1,-1
64.87,8.57,-18.31,1234,-2473,7729,-1,0,-1
64.89,8.56,-18.31,1222,-2505,7721,-1,0,-1
64.91,8.56,-18.31,1202,-2547,7727,-1,0,-1
64.93,8.55,-18.32,1197,-2582,7737,-1,0,-1
64.94,8.54,-18.33,1181,-2607,7746,-1,0,-1
64.94,8.53,-18.35,1216,-2634,7757,0,0,-1
64.93,8.53,-18.35,1196,-2631,7739,0,-1,0
64.92,8.53,-18.35,1215,-2612,7719,0,-1,0
64.90,8.53,-18.34,1210,-2590,7704,0,-1,0
64.88,8.55,-18.33,1262,-2549,7706,0,-1,0
64.86,8.55,-18.33,1238,-2544,7717,0,-1,0
64.84,8.55,-18.32,1243,-2528,7754,-1,0,0
64.83,8.54,-18.33,1229,-2546,7763,-1,-1,0
64.83,8.54,-18.32,1214,-2557,7749,0,0,-1
64.84,8.54,-18.32,1223,-2559,7757,0,0,-1
64.84,8.53,-18.31,1202,-2550,7752,-1,0,-1
64.86,8.52,-18.31,1206,-2549,7740,-1,0,-1
64.86,8.50,-18.32,1179,-2572,7722,-1,0,0
64.84,8.51,-18.33,1208,-2584,7712,0,-1,0
64.83,8.50,-18.33,1182,-2588,7702,0,-1,0
64.82,8.51,-18.33,1213,-2568,7710,0,-1,0
64.80,8.51,-18.32,1204,-2557,7726,-1,-1,0
64.79,8.52,-18.32,1246,-2528,7741,-1,-1,0
64.77,8.51,-18.34,1225,-2548,7728,-1,-1,0
64.77,8.51,-18.35,1239,-2553,7752,-1,0,0
64.76,8.49,-18.37,1214,-2561,7736,-1,-1,0
64.76,8.49,-18.37,1211,-2559,7727,-1,0,0
64.76,8.49,-18.39,1206,-2573,7723,-1,-1,-1
64.76,8.49,-18.40,1203,-2585,7716,-1,0,0
64.75,8.49,-18.42,1195,-2597,7706,-1,-1,0
64.75,8.50,-18.42,1190,-2614,7707,0,-1,0
64.74,8.50,-18.43,1191,-2630,7705,0,-1,0
64.73,8.52,-18.42,1196,-2624,7729,0,-1,0
64.73,8.52,-18.41,1213,-2619,7733,0,-1,0
64.72,8.53,-18.39,1213,-2577,7755,0,-1,0
64.72,8.54,-18.37,1244,-2551,7760,0,-1,0
64.70,8.54,-18.37,1250,-2527,7761,-1,-1,0
64.70,8.54,-18.38,1247,-2523,7725,-1,0,0
64.69,8.52,-18.40,1216,-2540,7719,-1,0,0
64.69,8.52,-18.40,1210,-2543,7721,-1,0,-1
64.70,8.52,-18.42,1199,-2573,7694,-1,-1,-1
64.71,8.53,-18.43,1206,-2567,7712,-1,-1,-1
64.71,8.54,-18.44,1219,-2582,7721,-1,-1,-1
64.71,8.54,-18.45,1219,-2594,7748,-1,0,-1
64.71,8.53,-18.48,1223,-2637,7741,-1,0,-1
64.72,8.52,-18.49,1203,-2655,7747,-1,0,-1
64.72,8.51,-18.50,1203,-2667,7717,0,-1,-1
64.74,8.51,-18.48,1184,-2675,7706,1,-1,-1
64.75,8.53,-18.44,1209,-2615,7736,1,-1,-1
64.75,8.54,-18.40,1207,-2568,7745,0,-1,-1
64.76,8.55,-18.37,1213,-2522,7765,0,-1,0
64.76,8.55,-18.38,1208,-2520,7747,-1,-1,0
64.76,8.56,-18.38,1205,-2520,7749,-1,-1,-1
64.76,8.57,-18.38,1228,-2540,7739,0,-1,-1
64.77,8.57,-18.38,1228,-2534,7764,-1,0,-1
64.78,8.57,-18.39,1233,-2542,7737,-1,-1,-1
64.77,8.58,-18.42,1229,-2570,7714,-2,-1,-1
64.78,8.59,-18.44,1236,-2608,7703,-1,-1,-1
64.79,8.59,-18.45,1226,-2641,7690,0,-1,-1
64.79,8.60,-18.45,1234,-2643,7716,0,-1,-1
64.79,8.61,-18.45,1226,-2651,7710,0,-1,-1
64.79,8.61,-18.42,1213,-2609,7733,0,-1,-1
64.79,8.61,-18.40,1236,-2587,7740,0,-1,-1
64.80,8.63,-18.38,1257,-2559,7772,0,-1,0
64.79,8.63,-18.38,1279,-2554,7753,0,-1,0
64.79,8.63,-18.38,1262,-2541,7743,-1,0,0
64.78,8.63,-18.38,1245,-2534,7746,-1,0,-1
64.79,8.61,-18.39,1204,-2544,7738,-1,0,-1
64.80,8.60,-18.38,1201,-2548,7735,-1,0,-1
64.83,8.59,-18.39,1211,-2561,7722,-1,0,-1
64.83,8.59,-18.40,1225,-2562,7715,-1,0,-1
64.84,8.59,-18.42,1226,-2577,7706,-1,0,-1
64.83,8.58,-18.45,1209,-2593,7725,-2,0,0
64.83,8.57,-18.48,1214,-2633,7698,-1,0,0
64.82,8.56,-18.50,1193,-2645,7693,-1,-1,0
64.81,8.57,-18.50,1209,-2636,7707,0,-1,0
64.79,8.57,-18.49,1210,-2595,7721,0,-1,0
64.78,8.58,-18.48,1235,-2568,7726,0,-1,0
64.78,8.58,-18.47,1228,-2552,7745,-1,0,0
64.78,8.58,-18.47,1232,-2534,7773,-1,0,0
64.78,8.57,-18.49,1223,-2547,7767,-1,0,-1
64.78,8.57,-18.51,1221,-2571,7745,-1,0,-1
64.78,8.57,-18.54,1230,-2608,7718,-1,0,-1
64.78,8.57,-18.54,1240,-2620,7729,-1,0,-1
64.78,8.57,-18.55,1235,-2623,7721,0,0,-1
64.79,8.55,-18.54,1211,-2609,7719,-1,0,-1
64.80,8.54,-18.54,1203,-2601,7700,0,0,-1
64.80,8.54,-18.54,1207,-2596,7699,0,0,-1
64.80,8.55,-18.54,1214,-2599,7705,0,-1,0
64.79,8.55,-18.54,1219,-2600,7710,-1,-1,0
64.79,8.54,-18.54,1220,-2597,7713,-1,0,0
64.78,8.54,-18.55,1203,-2588,7716,-1,-1,0
64.78,8.54,-18.56,1208,-2588,7697,-1,0,-1
64.77,8.53,-18.57,1218,-2611,7716,-1,0,-1
64.78,8.53,-18.57,1207,-2603,7718,-1,0,-1
64.78,8.53,-18.58,1203,-2603,7727,-1,-1,0
64.77,8.53,-18.60,1190,-2626,7713,-1,0,0
64.77,8.53,-18.61,1200,-2636,7703,-1,-1,0
64.77,8.54,-18.61,1206,-2629,7706,0,-1,-1
64.75,8.55,-18.61,1221,-2636,7712,0,-1,0
64.75,8.55,-18.60,1213,-2619,7726,0,0,0
64.75,8.56,-18.59,1227,-2610,7720,0,-1,0
64.74,8.57,-18.59,1219,-2610,7731,0,-1,0
64.74,8.57,-18.58,1236,-2593,7738,0,-1,0
64.74,8.57,-18.58,1220,-2607,7736,-1,0,0
64.72,8.57,-18.59,1233,-2595,7721,-1,-1,0
64.72,8.56,-18.60,1213,-2637,7720,-1,0,0
64.71,8.56,-18.60,1221,-2639,7711,0,-1,0
64.70,8.56,-18.57,1217,-2622,7702,1,-1,0
64.71,8.56,-18.55,1219,-2586,7721,0,0,0
64.71,8.55,-18.52,1193,-2559,7718,0,-1,-1
64.72,8.56,-18.51,1222,-2565,7731,0,0,-1
64.72,8.56,-18.50,1206,-2569,7719,0,-1,-1
64.72,8.58,-18.50,1235,-2569,7730,-1,0,0
64.72,8.57,-18.50,1219,-2589,7748,-1,-1,-1
64.72,8.57,-18.50,1223,-2591,7757,-1,0,0
64.71,8.56,-18.52,1217,-2608,7740,-1,0,0
64.71,8.56,-18.53,1213,-2607,7716,-1,0,0
64.69,8.55,-18.54,1222,-2620,7726,0,-1,0
64.69,8.55,-18.53,1212,-2593,7715,0,0,0
64.69,8.56,-18.52,1211,-2582,7710,0,-1,0
64.66,8.55,-18.44,1210,-2596,7767,2,0,1
64.65,8.54,-18.39,1206,-2604,7715,2,0,0
64.66,8.53,-18.35,1208,-2554,7709,0,0,-1
64.67,8.53,-18.33,1203,-2540,7729,0,-1,-1
64.68,8.53,-18.34,1220,-2513,7768,-2,0,-1
64.67,8.52,-18.38,1238,-2547,7763,-2,0,0
64.66,8.51,-18.42,1220,-2569,7737,-2,0,0
64.66,8.51,-18.46,1209,-2582,7689,-1,-1,-1
64.65,8.51,-18.48,1217,-2620,7684,-1,-1,0
64.64,8.52,-18.48,1256,-2587,7718,0,0,0
64.64,8.51,-18.48,1208,-2563,7738,-1,-1,0
64.63,8.51,-18.49,1197,-2539,7758,-2,-1,0
64.62,8.51,-18.54,1184,-2588,7736,-2,-1,0
64.62,8.51,-18.58,1215,-2621,7699,-1,0,-1
64.62,8.50,-18.61,1202,-2673,7677,-1,0,-1
64.62,8.50,-18.61,1205,-2672,7694,0,0,-1
64.63,8.51,-18.59,1184,-2650,7711,0,-1,-1
64.62,8.52,-18.58,1182,-2638,7737,0,-1,0
64.61,8.52,-18.59,1215,-2629,7747,-1,-1,0
64.60,8.51,-18.59,1180,-2627,7698,0,-1,0
64.57,8.52,-18.59,1185,-2629,7669,0,-1,0
64.56,8.53,-18.59,1185,-2660,7681,0,-1,0
64.56,8.55,-18.58,1217,-2682,7684,1,-1,-1
64.57,8.55,-18.56,1226,-2665,7666,0,-1,-1
64.56,8.56,-18.55,1252,-2674,7655,1,-1,0
64.56,8.57,-18.52,1264,-2676,7684,1,-1,0
64.55,8.59,-18.47,1277,-2616,7723,1,-1,0
64.53,8.58,-18.42,1227,-2595,7752,1,-1,0
64.51,8.56,-18.36,1191,-2545,7819,1,-1,0
64.48,8.55,-18.31,1159,-2503,7828,1,-1,1
64.45,8.56,-18.26,1171,-2403,7847,0,-2,1
64.41,8.58,-18.25,1233,-2338,7841,-2,-1,1
64.36,8.57,-18.28,1243,-2290,7843,-3,-1,1
64.32,8.57,-18.34,1294,-2243,7826,-4,0,1
64.30,8.53,-18.45,1274,-2279,7817,-6,1,0
64.28,8.50,-18.59,1235,-2365,7778,-6,0,0
64.27,8.47,-18.74,1219,-2487,7718,-6,1,-1
64.27,8.45,-18.88,1215,-2602,7684,-5,1,-1
64.28,8.42,-19.00,1212,-2687,7662,-3,1,-1
64.30,8.40,-19.07,1184,-2748,7618,-3,0,-1
64.32,8.40,-19.14,1227,-2806,7589,-2,0,-1
64.32,8.39,-19.20,1209,-2891,7597,-1,0,-1
64.33,8.38,-19.21,1222,-2882,7681,0,0,-1
64.32,8.35,-19.24,1169,-2849,7708,-1,0,0
64.31,8.33,-19.26,1138,-2779,7751,-2,0,0
64.29,8.30,-19.30,1131,-2761,7715,-2,0,0
64.28,8.28,-19.35,1135,-2747,7676,-2,0,0
64.26,8.29,-19.39,1170,-2746,7615,-1,-1,-1
64.27,8.30,-19.41,1188,-2775,7605,0,-1,-1
64.27,8.31,-19.40,1215,-2726,7640,0,0,-1
64.29,8.30,-19.39,1217,-2710,7655,0,-1,-1
64.29,8.31,-19.38,1216,-2725,7716,0,0,-1
64.30,8.29,-19.37,1195,-2720,7753,0,0,-1
64.30,8.28,-19.36,1170,-2737,7745,-1,0,-1
64.31,8.28,-19.36,1182,-2705,7749,0,0,-1
64.32,8.26,-19.34,1200,-2682,7745,0,0,-1
64.32,8.24,-19.34,1196,-2624,7761,-1,0,-1
64.34,8.22,-19.34,1194,-2596,7706,-1,0,-1
64.35,8.21,-19.37,1197,-2588,7713,-2,0,-1
64.36,8.20,-19.40,1199,-2575,7684,-2,0,-1
64.37,8.18,-19.46,1211,-2611,7684,-3,1,-1
64.38,8.16,-19.52,1199,-2631,7685,-3,1,-1
64.41,8.12,-19.59,1177,-2660,7664,-3,1,-1
64.43,8.08,-19.67,1151,-2671,7669,-4,1,-1
64.46,8.04,-19.76,1143,-2731,7653,-3,1,-1
64.47,8.01,-19.85,1111,-2786,7670,-4,1,-1
64.46,7.98,-19.93,1112,-2817,7673,-3,0,0
64.45,7.94,-20.03,1095,-2861,7681,-4,1,0
64.42,7.92,-20.11,1087,-2886,7702,-3,0,0
64.38,7.90,-20.18,1108,-2914,7680,-2,0,1
64.35,7.88,-20.24,1130,-2878,7700,-2,0,1
64.31,7.85,-20.30,1120,-2870,7686,-2,0,0
64.29,7.82,-20.36,1097,-2879,7677,-3,0,0
64.27,7.80,-20.41,1114,-2878,7659,-2,0,0
64.26,7.79,-20.45,1119,-2895,7641,-2,0,0
64.26,7.77,-20.47,1125,-2878,7659,-1,1,0
64.26,7.75,-20.50,1111,-2849,7651,-2,0,0
64.27,7.73,-20.53,1098,-2854,7643,-2,1,-1
64.27,7.71,-20.56,1102,-2862,7626,-2,0,-1
64.27,7.69,-20.60,1095,-2881,7622,-2,0,-1
64.27,7.68,-20.63,1123,-2871,7635,-2,0,0
64.27,7.65,-20.67,1096,-2887,7652,-2,0,0
64.25,7.65,-20.70,1103,-2883,7655,-1,0,0
64.25,7.62,-20.73,1081,-2899,7663,-2,0,0
64.25,7.59,-20.76,1046,-2897,7634,-2,1,-1
64.25,7.56,-20.79,1015,-2920,7627,-1,0,-1
64.25,7.55,-20.81,1022,-2930,7646,-1,0,-1
64.26,7.55,-20.83,1047,-2934,7649,-1,-1,-1
64.28,7.54,-20.84,1034,-2958,7662,-1,0,-1
64.29,7.54,-20.86,1048,-2950,7644,-1,0,-1
64.30,7.53,-20.86,1025,-2968,7632,-1,0,-1
64.31,7.53,-20.87,1053,-2961,7613,0,0,-1
64.31,7.52,-20.86,1025,-2982,7599,0,-1,-1
64.32,7.55,-20.85,1071,-2967,7612,0,-1,-1
64.31,7.56,-20.86,1082,-2993,7609,0,-1,0
64.30,7.57,-20.84,1105,-2967,7609,0,-1,0
64.28,7.58,-20.84,1134,-2948,7616,0,-1,0
64.27,7.58,-20.82,1122,-2921,7639,0,0,0
64.25,7.57,-20.81,1118,-2913,7663,0,-1,0
64.22,7.56,-20.82,1085,-2914,7676,-1,0,0
64.21,7.56,-20.82,1103,-2909,7673,0,-1,0
64.19,7.55,-20.84,1073,-2947,7673,-1,0,0
64.19,7.54,-20.82,1089,-2921,7674,0,0,0
64.20,7.51,-20.81,1061,-2906,7677,0,0,0
64.21,7.49,-20.79,1068,-2845,7663,0,1,-1
64.21,7.47,-20.79,1053,-2843,7657,-1,0,0
64.21,7.46,-20.80,1040,-2849,7646,-1,0,-1
64.22,7.45,-20.81,1030,-2903,7618,-1,-1,-1
64.22,7.45,-20.81,1022,-2919,7630,0,0,0
64.21,7.46,-20.81,1022,-2921,7610,0,-2,0
64.20,7.46,-20.79,1022,-2921,7627,0,-1,0
64.20,7.47,-20.77,1040,-2898,7630,0,-1,0
64.19,7.48,-20.76,1035,-2887,7642,0,-1,0
64.17,7.51,-20.74,1071,-2872,7643,0,-1,0
64.17,7.52,-20.74,1060,-2873,7664,-1,-1,0
64.17,7.54,-20.73,1081,-2861,7663,0,-1,-1
64.17,7.56,-20.71,1094,-2844,7669,-1,-1,-1
64.18,7.57,-20.71,1127,-2825,7669,-1,-1,-1
64.19,7.59,-20.71,1165,-2843,7683,-1,0,-1
64.21,7.60,-20.73,1169,-2850,7682,-1,0,-1
64.24,7.59,-20.75,1131,-2889,7653,-1,0,-1
64.25,7.59,-20.78,1099,-2919,7659,-2,0,-1
64.28,7.57,-20.82,1074,-2977,7636,-1,0,-1
64.29,7.55,-20.84,1044,-3003,7619,-1,0,-1
64.29,7.55,-20.84,1039,-3022,7610,0,-1,-1
64.30,7.54,-20.83,1022,-3001,7620,0,-1,0
64.29,7.54,-20.80,1024,-2944,7643,0,-1,0
64.27,7.54,-20.78,1016,-2909,7626,0,-1,0
64.26,7.56,-20.76,1038,-2883,7644,0,-1,0
64.24,7.56,-20.77,1050,-2891,7618,0,-1,0
64.22,7.59,-20.77,1084,-2880,7622,-1,-1,0
64.21,7.61,-20.76,1112,-2879,7604,0,-1,0
64.22,7.62,-20.76,1137,-2887,7620,-1,-1,-1
64.23,7.64,-20.75,1146,-2874,7627,0,-1,-1
64.23,7.64,-20.75,1122,-2882,7618,-1,-1,-1
64.23,7.64,-20.75,1123,-2866,7644,-1,0,-1
64.23,7.64,-20.77,1107,-2897,7628,-1,-1,-1
64.25,7.64,-20.77,1104,-2908,7664,-1,0,-1
64.25,7.63,-20.77,1088,-2900,7653,0,0,-1
64.26,7.63,-20.78,1077,-2895,7663,-1,0,-1
64.26,7.62,-20.78,1083,-2893,7689,-1,0,-1
64.27,7.62,-20.78,1081,-2888,7687,-1,0,-1
64.28,7.62,-20.78,1083,-2875,7683,-1,0,-1
64.28,7.61,-20.80,1074,-2887,7628,-1,-1,-1
64.28,7.61,-20.82,1083,-2917,7632,-1,0,-1
64.29,7.60,-20.84,1064,-2944,7593,0,0,-1
64.29,7.60,-20.85,1074,-2939,7604,-1,0,-1
64.30,7.60,-20.86,1088,-2937,7601,-1,0,-1
64.31,7.60,-20.87,1085,-2945,7624,-1,0,-1
64.31,7.60,-20.88,1086,-2952,7635,0,0,-1
64.31,7.59,-20.88,1059,-2979,7644,0,-1,-1
64.31,7.60,-20.86,1059,-2960,7665,1,-1,-1
64.31,7.60,-20.83,1041,-2929,7649,1,-1,0
64.31,7.61,-20.78,1043,-2888,7645,1,-1,-1
64.31,7.63,-20.75,1056,-2867,7626,1,-1,-1
64.33,7.65,-20.71,1065,-2834,7653,0,-1,-1
64.33,7.67,-20.68,1091,-2818,7654,0,-1,-1
64.35,7.69,-20.67,1100,-2819,7670,-1,-1,-1
64.36,7.72,-20.67,1110,-2816,7662,-1,-1,-1
64.37,7.72,-20.68,1120,-2839,7640,-1,-1,-1
64.37,7.73,-20.70,1120,-2831,7630,-2,-1,-1
64.37,7.74,-20.74,1132,-2836,7597,-2,-1,-1
64.37,7.75,-20.78,1136,-2882,7601,-2,-1,-1
64.37,7.76,-20.83,1131,-2951,7608,-1,0,-1
64.37,7.75,-20.87,1104,-3003,7620,-1,0,-1
64.38,7.76,-20.89,1108,-3036,7639,-1,0,-1
64.37,7.75,-20.90,1081,-3047,7659,0,-1,-1
64.37,7.75,-20.90,1070,-3038,7681,0,-1,0
64.37,7.75,-20.89,1068,-3036,7658,1,-1,0
64.35,7.75,-20.86,1073,-2999,7664,1,-1,0
64.34,7.76,-20.83,1099,-2970,7631,1,-1,0
64.33,7.77,-20.80,1114,-2936,7629,1,-1,0
64.31,7.78,-20.74,1138,-2884,7615,1,-1,0
64.31,7.80,-20.69,1154,-2857,7616,1,-1,0
64.32,7.81,-20.63,1166,-2792,7639,1,-1,-1
64.33,7.83,-20.59,1172,-2746,7645,0,-1,-1
64.33,7.83,-20.57,1153,-2747,7653,-1,0,0
64.33,7.82,-20.58,1136,-2773,7639,-1,0,0
64.33,7.80,-20.60,1080,-2812,7611,-1,0,-1
64.34,7.79,-20.63,1067,-2843,7613,-1,0,-1
64.34,7.78,-20.65,1054,-2902,7631,-1,-1,-1
64.35,7.79,-20.66,1087,-2913,7639,-1,0,-1
64.36,7.79,-20.67,1103,-2935,7655,-1,-1,-1
64.37,7.80,-20.68,1113,-2918,7663,-1,0,-1
64.37,7.80,-20.68,1133,-2924,7655,-1,-1,0
64.36,7.80,-20.69,1138,-2923,7648,-1,0,0
64.35,7.80,-20.70,1146,-2911,7648,-1,0,0
64.36,7.79,-20.71,1114,-2905,7648,-1,0,0
64.35,7.79,-20.71,1133,-2899,7654,-1,0,0
64.36,7.77,-20.71,1115,-2899,7644,-1,0,-1
64.36,7.77,-20.71,1143,-2895,7650,0,0,-1
64.36,7.75,-20.71,1093,-2901,7663,0,0,-1
64.38,7.75,-20.70,1111,-2880,7663,-1,0,-1
64.38,7.73,-20.70,1076,-2890,7650,-1,0,0
64.38,7.72,-20.71,1098,-2873,7635,-1,0,-1
64.38,7.71,-20.72,1091,-2891,7625,-1,0,0
64.39,7.69,-20.72,1087,-2882,7601,-1,0,-1
64.38,7.69,-20.74,1071,-2904,7600,-1,-1,0
64.39,7.69,-20.73,1078,-2888,7615,-1,0,-1
64.38,7.69,-20.74,1092,-2888,7626,-1,-1,-1
64.39,7.69,-20.75,1083,-2888,7638,-1,0,0
64.39,7.68,-20.76,1100,-2897,7639,-1,-1,0
64.39,7.67,-20.76,1079,-2891,7656,-1,0,0
64.38,7.67,-20.79,1100,-2879,7655,-1,-1,0
64.37,7.66,-20.80,1065,-2899,7651,-1,0,0
64.37,7.67,-20.83,1113,-2905,7649,-1,0,0
64.36,7.65,-20.85,1092,-2936,7659,-1,0,0
64.35,7.65,-20.87,1129,-2934,7658,-1,0,0
64.35,7.63,-20.88,1107,-2951,7658,-1,0,0
64.35,7.63,-20.89,1122,-2931,7645,-1,0,0
64.34,7.61,-20.91,1091,-2961,7648,-1,0,0
64.34,7.60,-20.92,1085,-2939,7654,-1,0,0
64.32,7.58,-20.93,1069,-2971,7622,0,-1,0
64.32,7.57,-20.93,1069,-2946,7629,0,0,0
64.32,7.56,-20.92,1074,-2941,7625,0,0,0
64.33,7.55,-20.90,1067,-2912,7665,-1,0,0
64.33,7.54,-20.90,1088,-2884,7644,-1,0,0
64.33,7.52,-20.91,1063,-2899,7660,-2,0,0
64.32,7.50,-20.94,1071,-2909,7639,-1,0,0
64.32,7.47,-20.96,1045,-2937,7647,-2,0,0
64.30,7.45,-20.99,1069,-2923,7618,0,0,0
64.29,7.42,-21.00,1035,-2953,7620,-2,0,0
64.26,7.42,-21.03,1051,-2955,7610,0,-1,0
64.22,7.40,-21.04,1041,-2987,7614,0,0,1
64.20,7.39,-21.03,1054,-2933,7627,0,-1,0
64.18,7.38,-21.03,1054,-2933,7637,-1,-1,1
64.16,7.38,-21.02,1058,-2871,7638,0,0,0
64.14,7.38,-21.02,1045,-2872,7626,-1,-1,0
64.15,7.40,-21.02,1047,-2875,7630,-1,-1,-1
64.16,7.41,-21.04,1067,-2904,7631,-1,-1,-1
64.16,7.42,-21.05,1083,-2927,7633,-1,0,-1
64.18,7.42,-21.07,1081,-2955,7619,0,0,-1
64.20,7.43,-21.05,1079,-2942,7636,-1,0,-1
64.19,7.43,-21.06,1073,-2958,7639,-1,-1,-1
64.20,7.43,-21.08,1060,-2950,7655,-1,0,0
64.19,7.41,-21.10,1043,-2980,7621,-1,0,0
64.17,7.40,-21.12,1017,-3007,7593,-1,-1,0
64.16,7.41,-21.12,1032,-3014,7606,0,-1,0
64.15,7.41,-21.12,1017,-3023,7615,0,-1,0
64.14,7.42,-21.09,1027,-2980,7624,0,-1,0
64.13,7.42,-21.09,1022,-2984,7611,0,-1,0
64.13,7.43,-21.07,1045,-2945,7618,0,-1,0
64.12,7.43,-21.06,1051,-2953,7604,0,-1,0
64.11,7.44,-21.04,1049,-2927,7625,0,-1,0
64.09,7.46,-21.02,1059,-2914,7617,0,-1,0
64.10,7.47,-21.00,1064,-2910,7629,0,-1,-1
64.09,7.49,-20.98,1081,-2893,7633,0,-1,-1
64.11,7.50,-20.97,1080,-2902,7632,0,-1,-1
64.12,7.51,-20.95,1116,-2885,7654,0,0,-1
64.13,7.52,-20.95,1111,-2910,7651,-1,0,-1
64.14,7.51,-20.96,1098,-2909,7669,-1,0,-1
64.15,7.50,-20.97,1068,-2945,7655,-1,0,-1
64.16,7.50,-20.98,1048,-2961,7649,-1,0,-1
64.17,7.49,-20.99,1035,-2970,7633,0,-1,-1
64.17,7.49,-20.98,1023,-2963,7624,0,-1,-1
64.18,7.50,-20.97,1035,-2935,7623,0,-1,-1
64.18,7.50,-20.97,1038,-2939,7617,0,-1,0
64.17,7.52,-20.94,1050,-2910,7636,0,-1,-1
64.17,7.54,-20.94,1075,-2908,7626,0,-1,-1
64.17,7.55,-20.94,1071,-2899,7628,0,-1,-1
64.18,7.55,-20.94,1078,-2909,7615,-1,-1,-1
64.18,7.56,-20.94,1093,-2926,7622,-1,-1,-1
64.18,7.57,-20.96,1106,-2937,7639,0,-1,-1
64.18,7.57,-20.95,1088,-2950,7627,-1,-1,-1
64.18,7.58,-20.96,1099,-2937,7616,0,-1,-1
64.19,7.59,-20.96,1104,-2944,7601,0,-1,0
64.18,7.59,-20.95,1100,-2925,7646,0,0,0
64.18,7.59,-20.95,1090,-2922,7620,0,-1,0
64.17,7.59,-20.95,1079,-2910,7627,-1,-1,0
64.17,7.60,-20.95,1078,-2894,7637,0,-1,0
64.16,7.59,-20.95,1066,-2877,7625,-1,-1,0
64.16,7.59,-20.97,1084,-2890,7624,-1,-1,-1
64.15,7.60,-21.01,1094,-2927,7639,-2,0,0
64.14,7.60,-21.03,1095,-2940,7658,-1,0,-1
64.15,7.59,-21.05,1081,-2968,7648,-1,0,0
64.14,7.59,-21.06,1075,-2969,7669,-1,0,-1
64.15,7.59,-21.07,1080,-2989,7642,0,-1,-1
64.17,7.59,-21.06,1081,-2973,7645,0,0,-1
64.18,7.59,-21.05,1066,-2993,7636,1,-1,-1
64.19,7.58,-21.02,1048,-2976,7640,1,0,-1
64.19,7.58,-20.98,1047,-2950,7626,1,-1,-1
64.20,7.59,-20.95,1042,-2928,7629,0,-1,-1
64.21,7.60,-20.92,1056,-2913,7626,0,-1,-1
64.21,7.60,-20.91,1067,-2922,7640,0,-1,-1
64.21,7.62,-20.90,1081,-2920,7653,0,-1,-1
64.23,7.64,-20.90,1083,-2958,7649,0,-1,-1
64.24,7.65,-20.89,1077,-2964,7649,0,-1,-1
64.24,7.66,-20.88,1075,-2948,7611,0,-1,-1
64.24,7.67,-20.88,1065,-2897,7595,-1,-1,0
64.23,7.68,-20.88,1094,-2862,7596,-1,-1,0
64.19,7.68,-20.90,1074,-2845,7602,-1,-1,1
64.15,7.69,-20.92,1072,-2839,7612,-2,-1,1
64.11,7.70,-20.96,1071,-2858,7608,-2,-1,0
64.08,7.71,-20.99,1092,-2873,7646,-2,-1,0
64.06,7.74,-21.02,1126,-2905,7639,-1,-1,0
64.04,7.75,-21.05,1136,-2919,7639,-1,-1,-1
64.05,7.77,-21.06,1144,-2941,7644,-1,-1,-1
64.06,7.79,-21.08,1143,-2969,7632,-1,-1,-1
64.07,7.80,-21.10,1137,-3023,7613,0,-1,-1
64.06,7.81,-21.10,1128,-3040,7605,0,-1,-1
64.05,7.82,-21.09,1132,-3051,7599,0,-1,0
64.05,7.83,-21.07,1133,-3071,7590,1,-1,0
64.03,7.84,-21.02,1120,-3042,7595,2,-1,0
64.01,7.85,-20.95,1121,-2985,7586,3,-1,0
63.98,7.86,-20.86,1119,-2899,7634,2,-1,1
63.95,7.87,-20.79,1116,-2809,7644,1,-2,1
63.92,7.88,-20.74,1127,-2754,7674,0,-1,1
63.90,7.89,-20.70,1156,-2715,7696,-1,-1,0
63.89,7.88,-20.70,1164,-2687,7727,-2,0,0
63.88,7.85,-20.75,1143,-2688,7740,-4,1,0
63.89,7.82,-20.83,1125,-2734,7714,-4,1,-1
63.90,7.78,-20.92,1093,-2792,7690,-5,1,-1
63.91,7.75,-21.03,1087,-2867,7647,-4,0,-1
63.92,7.73,-21.15,1073,-2983,7609,-4,1,-1
63.93,7.72,-21.24,1100,-3035,7571,-2,0,-1
63.92,7.70,-21.29,1104,-3046,7569,-2,0,0
63.92,7.69,-21.35,1131,-3043,7579,-2,1,0
63.90,7.66,-21.40,1130,-3049,7597,-2,0,0
63.89,7.65,-21.44,1136,-3025,7604,-2,0,0
63.88,7.63,-21.49,1136,-3031,7619,-2,0,0
63.87,7.61,-21.52,1118,-3025,7612,-2,1,0
63.87,7.58,-21.55,1108,-3013,7623,-2,0,-1
63.88,7.55,-21.59,1090,-3013,7638,-2,1,-1
63.89,7.53,-21.64,1100,-3027,7624,-2,1,-1
63.91,7.49,-21.68,1081,-3049,7630,-2,1,-1
63.94,7.46,-21.71,1092,-3034,7607,-2,1,-1
63.96,7.40,-21.75,1015,-3036,7590,-2,1,-1
63.98,7.37,-21.78,1010,-3037,7590,-2,1,-1
63.99,7.34,-21.82,1004,-3050,7594,-2,0,0
63.98,7.30,-21.87,1007,-3039,7594,-2,1,-1
63.99,7.27,-21.92,1007,-3058,7577,-2,0,-1
63.99,7.24,-21.97,988,-3065,7586,-3,1,-1
63.99,7.21,-22.03,987,-3084,7572,-2,0,-1
63.99,7.18,-22.08,968,-3116,7582,-2,0,-1
63.98,7.17,-22.13,1002,-3115,7581,-2,0,-1
63.98,7.15,-22.17,1000,-3127,7592,-2,0,0
63.97,7.15,-22.21,1043,-3099,7600,-2,0,0
63.95,7.13,-22.25,1030,-3102,7597,-2,0,0
63.94,7.12,-22.29,1036,-3096,7608,-2,0,0
63.91,7.09,-22.34,1014,-3124,7571,-2,0,0
63.91,7.07,-22.37,1001,-3134,7552,-2,0,0
63.89,7.06,-22.40,979,-3151,7530,-1,-1,0
63.88,7.05,-22.43,972,-3163,7543,-2,0,0
63.85,7.05,-22.48,993,-3177,7535,-1,-1,0
63.84,7.03,-22.51,973,-3212,7547,-1,0,0
63.82,7.03,-22.53,971,-3225,7554,0,-1,0
63.81,7.02,-22.54,945,-3229,7552,0,-1,0
63.79,7.05,-22.54,960,-3215,7550,0,-1,0
63.77,7.06,-22.54,957,-3203,7549,0,-2,0
63.75,7.10,-22.53,1006,-3179,7548,0,-2,0
63.73,7.12,-22.51,1040,-3152,7545,0,-1,0
63.72,7.14,-22.49,1042,-3117,7531,0,-1,0
63.70,7.15,-22.48,1029,-3121,7519,0,-1,0
63.68,7.17,-22.46,1011,-3124,7532,0,-1,0
63.66,7.19,-22.45,1019,-3134,7543,0,-2,0
63.64,7.21,-22.44,1026,-3126,7556,0,-1,0
63.62,7.23,-22.44,1043,-3124,7551,0,-1,0
63.60,7.25,-22.43,1037,-3147,7563,0,-1,0
63.60,7.26,-22.41,1037,-3135,7580,0,-1,0
63.59,7.27,-22.40,1025,-3155,7564,0,-1,0
63.58,7.30,-22.37,1029,-3155,7562,1,-1,-1
63.58,7.33,-22.34,1044,-3173,7548,1,-2,-1
63.59,7.36,-22.29,1061,-3175,7557,1,-1,-1
63.59,7.39,-22.23,1091,-3113,7555,2,-1,-1
63.59,7.41,-22.17,1092,-3084,7568,1,-1,0
63.60,7.43,-22.12,1120,-3053,7611,1,0,-1
63.61,7.43,-22.08,1091,-3036,7606,1,0,-1
63.62,7.42,-22.04,1072,-3005,7610,0,0,-1
63.62,7.41,-22.03,1075,-3005,7597,0,0,-1
63.63,7.41,-22.02,1056,-2996,7604,-1,0,-1
63.64,7.41,-22.03,1044,-3024,7581,-1,0,-1
63.63,7.40,-22.04,1023,-3053,7564,-1,-1,-1
63.63,7.41,-22.05,1032,-3035,7555,-1,-1,-1
63.61,7.42,-22.08,1051,-3044,7564,-2,-1,0
63.59,7.43,-22.11,1075,-3041,7585,-2,-1,0
63.56,7.44,-22.16,1083,-3074,7586,-2,-1,0
63.52,7.44,-22.22,1068,-3102,7609,-2,-1,0
63.48,7.42,-22.28,1044,-3148,7589,-2,-1,0
63.45,7.41,-22.31,1027,-3181,7580,-1,0,0
63.44,7.41,-22.31,1024,-3197,7557,1,-1,0
63.44,7.42,-22.28,1021,-3191,7553,1,-1,-1
63.44,7.43,-22.23,1041,-3126,7556,2,-1,-1
63.47,7.45,-22.17,1064,-3079,7560,1,-1,-1
63.48,7.48,-22.11,1091,-3029,7574,1,-1,-1
63.51,7.51,-22.07,1123,-3000,7577,0,-1,-1
63.53,7.53,-22.04,1137,-2984,7600,0,0,-1
63.54,7.53,-22.02,1130,-2993,7603,0,0,-1
63.57,7.52,-22.03,1101,-3006,7612,-1,0,-1
63.58,7.51,-22.05,1087,-3019,7600,-2,0,-1
63.60,7.49,-22.09,1063,-3059,7590,-2,0,-1
63.61,7.47,-22.13,1036,-3089,7579,-2,0,-1
63.62,7.45,-22.18,1009,-3148,7551,-2,0,-1
63.62,7.44,-22.21,1003,-3188,7550,-1,0,-1
63.61,7.44,-22.22,1017,-3202,7532,0,-1,-1
63.61,7.44,-22.21,1015,-3175,7558,0,-1,0
63.61,7.45,-22.18,1029,-3149,7574,1,-1,0
63.61,7.46,-22.15,1053,-3126,7603,1,-1,-1
63.61,7.49,-22.11,1081,-3091,7623,1,-1,0
63.61,7.50,-22.09,1091,-3072,7613,0,-1,0
63.60,7.51,-22.07,1095,-3044,7602,0,-1,0
63.60,7.51,-22.07,1093,-3033,7570,0,-1,0
63.58,7.51,-22.07,1094,-2999,7566,-1,0,0
63.58,7.51,-22.08,1095,-3000,7550,-1,0,0
63.58,7.49,-22.09,1074,-3016,7566,-2,0,-1
63.58,7.49,-22.12,1058,-3042,7569,-1,0,-1
63.59,7.49,-22.15,1058,-3100,7586,-2,0,-1
63.59,7.48,-22.18,1063,-3118,7596,-1,0,-1
63.60,7.48,-22.22,1068,-3143,7578,-1,0,-1
63.60,7.48,-22.24,1076,-3139,7582,-1,0,-1
63.60,7.48,-22.26,1080,-3145,7560,-1,0,0
63.60,7.48,-22.26,1096,-3108,7573,-1,0,0
63.60,7.48,-22.26,1121,-3076,7559,0,0,0
63.61,7.47,-22.25,1122,-3044,7580,-1,0,-1
63.63,7.46,-22.24,1105,-3040,7570,0,1,-1
63.67,7.43,-22.24,1073,-3055,7584,-1,1,-2
63.71,7.40,-22.25,1039,-3077,7582,-1,1,-2
63.75,7.38,-22.27,1026,-3118,7582,-2,1,-2
63.77,7.35,-22.31,1001,-3150,7575,-2,1,-1
63.78,7.33,-22.35,964,-3209,7556,-1,0,-1
63.77,7.30,-22.39,914,-3270,7561,-1,0,0
63.75,7.29,-22.40,897,-3290,7557,0,-1,0
63.71,7.30,-22.38,908,-3275,7551,1,-2,0
63.68,7.35,-22.33,988,-3207,7559,2,-3,1
63.64,7.39,-22.27,1043,-3126,7554,2,-3,1
63.59,7.45,-22.21,1114,-3032,7546,1,-2,1
63.55,7.48,-22.17,1142,-2981,7565,0,-2,1
63.54,7.51,-22.14,1172,-2945,7595,-1,-1,0
63.52,7.54,-22.14,1157,-2940,7608,-1,-1,-1
63.53,7.55,-22.14,1130,-2964,7625,-2,0,-1
63.54,7.56,-22.17,1138,-2967,7622,-2,0,-1
63.55,7.54,-22.20,1094,-3006,7614,-2,0,-1
63.56,7.54,-22.24,1095,-3029,7585,-2,0,-1
63.58,7.52,-22.29,1065,-3098,7583,-2,0,-1
63.59,7.52,-22.34,1084,-3139,7595,-2,0,-1
63.60,7.50,-22.37,1076,-3198,7605,-2,0,-1
63.62,7.49,-22.40,1057,-3209,7574,-1,1,-1
63.62,7.47,-22.44,1040,-3223,7549,-1,-1,-1
