Yaw,Pitch,Roll,AX,AY,AZ,GX,GY,GZ
127.34,178.90,-134.73,169,-5982,-5937,0,-1,0
127.34,178.90,-134.73,169,-5981,-5932,0,-1,0
127.34,178.90,-134.73,171,-5984,-5936,0,-1,0
127.36,178.89,-134.72,160,-5984,-5930,0,0,-1
127.35,178.89,-134.73,168,-5983,-5950,0,-1,0
127.36,178.89,-134.72,162,-5977,-5943,0,-1,0
127.36,178.89,-134.72,158,-5974,-5931,0,0,-1
127.36,178.89,-134.71,163,-5974,-5950,0,0,0
127.36,178.89,-134.70,172,-5980,-5932,0,0,-1
127.36,178.89,-134.70,168,-5981,-5920,0,0,0
127.36,178.89,-134.70,171,-5981,-5927,-1,0,-1
127.36,178.88,-134.71,168,-5981,-5925,-1,-1,0
127.36,178.89,-134.71,162,-5980,-5919,-1,-1,-1
127.36,178.89,-134.71,162,-5977,-5915,-1,-1,-1
127.36,178.89,-134.71,164,-5983,-5928,-1,-1,-1
127.36,178.89,-134.71,163,-5985,-5939,-1,-1,0
127.36,178.89,-134.71,161,-5976,-5940,-1,-1,0
127.36,178.89,-134.72,156,-5970,-5939,-1,-1,0
127.36,178.89,-134.72,160,-5980,-5938,-1,0,-1
127.36,178.89,-134.72,163,-5981,-5936,0,-1,0
127.34,178.90,-134.73,163,-5983,-5943,-1,-1,0
127.35,178.90,-134.73,160,-5983,-5935,-1,-1,0
127.35,178.90,-134.73,156,-5972,-5918,-1,0,-1
127.34,178.90,-134.73,158,-5986,-5927,-1,0,0
127.34,178.90,-134.73,157,-5985,-5923,-1,-1,0
127.34,178.90,-134.73,167,-5977,-5916,-1,-1,0
127.34,178.90,-134.74,159,-5980,-5924,-1,0,-1
127.34,178.90,-134.75,163,-5971,-5928,-1,-1,0
127.34,178.90,-134.75,161,-5968,-5925,-1,-1,-1
127.34,178.90,-134.75,163,-5974,-5927,-1,0,0
127.34,178.90,-134.75,164,-5977,-5929,-1,-1,0
127.34,178.90,-134.76,159,-5977,-5948,-1,0,-1
127.33,178.90,-134.76,167,-5985,-5945,-1,0,0
127.34,178.89,-134.76,173,-5981,-5940,0,-1,0
127.34,178.89,-134.76,164,-5985,-5939,-1,-1,0
127.34,178.89,-134.76,164,-5980,-5937,0,0,-1
127.34,178.89,-134.76,166,-5977,-5933,0,-1,0
127.34,178.89,-134.76,160,-5974,-5935,-1,0,0
127.34,178.89,-134.76,169,-5976,-5929,-1,0,-1
127.34,178.89,-134.76,163,-5967,-5939,-1,-1,0
127.33,178.90,-134.76,152,-5967,-5942,0,-1,0
127.33,178.90,-134.76,151,-5970,-5940,0,0,0
127.33,178.90,-134.75,156,-5973,-5935,0,-1,0
127.33,178.90,-134.74,155,-5989,-5931,-1,0,-1
127.33,178.90,-134.74,158,-5986,-5925,-1,-1,-1
127.33,178.90,-134.75,156,-5978,-5931,-1,-1,-1
127.33,178.90,-134.75,157,-5980,-5928,-1,-1,-1
127.33,178.90,-134.75,155,-5980,-5933,-1,0,0
127.33,178.90,-134.75,162,-5976,-5921,0,-1,0
127.33,178.90,-134.75,157,-5977,-5917,-1,0,-1
127.33,178.90,-134.76,153,-5977,-5938,-1,0,-1
127.33,178.90,-134.76,151,-5980,-5941,0,-1,0
127.33,178.90,-134.75,158,-5977,-5938,0,0,0
127.33,178.90,-134.75,156,-5979,-5934,0,-1,0
127.33,178.90,-134.74,155,-5983,-5925,-1,-1,0
127.33,178.90,-134.75,164,-5980,-5932,-1,-1,0
127.33,178.90,-134.76,164,-5974,-5935,-1,-1,0
127.33,178.90,-134.76,162,-5973,-5934,-1,-1,0
127.33,178.90,-134.76,166,-5976,-5936,0,-1,0
127.33,178.90,-134.76,162,-5975,-5935,0,-1,-1
127.33,178.90,-134.76,159,-5984,-5933,0,-1,0
127.33,178.90,-134.76,157,-5983,-5922,-1,-1,0
127.33,178.90,-134.76,159,-5979,-5923,-1,0,0
127.33,178.90,-134.76,157,-5973,-5925,-1,0,-1
127.33,178.90,-134.76,158,-5968,-5929,0,0,0
127.33,178.90,-134.76,154,-5968,-5926,0,0,0
127.33,178.90,-134.75,154,-5975,-5917,0,0,0
127.33,178.90,-134.75,157,-5973,-5929,0,0,-1
127.33,178.90,-134.75,159,-5979,-5927,-1,0,0
127.32,178.90,-134.75,161,-5986,-5931,-1,-1,0
127.32,178.90,-134.76,169,-5976,-5937,-1,0,0
127.32,178.90,-134.75,164,-5973,-5936,0,-1,0
127.32,178.90,-134.75,159,-5979,-5931,0,-1,-1
127.32,178.90,-134.75,166,-5974,-5935,0,0,0
127.32,178.90,-134.75,162,-5980,-5927,-1,-1,-1
127.33,178.89,-134.75,163,-5981,-5937,-1,-1,-1
127.32,178.89,-134.75,158,-5969,-5937,-1,0,0
127.32,178.90,-134.76,161,-5970,-5936,-1,-1,0
127.32,178.90,-134.76,152,-5973,-5933,-1,-1,0
127.32,178.90,-134.77,152,-5975,-5932,-1,0,0
127.32,178.89,-134.76,156,-5975,-5937,0,0,0
127.32,178.90,-134.76,160,-5980,-5940,0,0,-1
127.32,178.89,-134.75,160,-5973,-5935,0,0,-1
127.32,178.89,-134.75,158,-5979,-5937,0,-1,0
127.32,178.89,-134.75,171,-5973,-5928,-1,-1,0
127.32,178.89,-134.75,164,-5977,-5922,0,-1,0
127.32,178.89,-134.75,162,-5982,-5928,0,0,-1
127.32,178.89,-134.75,160,-5982,-5932,0,0,-1
127.32,178.89,-134.74,158,-5980,-5932,0,0,0
127.32,178.89,-134.74,157,-5985,-5931,-1,0,-1
127.32,178.89,-134.74,161,-5976,-5939,0,-1,-1
127.32,178.89,-134.74,161,-5979,-5935,0,-1,-1
127.32,178.89,-134.74,166,-5984,-5939,-1,-1,0
127.32,178.89,-134.75,161,-5983,-5937,-1,-1,0
127.32,178.89,-134.75,155,-5986,-5938,-1,-1,-1
127.32,178.89,-134.75,152,-5985,-5941,0,0,0
127.32,178.89,-134.74,156,-5985,-5943,0,0,-1
127.32,178.89,-134.74,156,-5987,-5934,0,0,-1
127.32,178.89,-134.73,161,-5988,-5926,0,0,-1
127.32,178.89,-134.73,160,-5983,-5920,0,0,0
127.32,178.89,-134.72,162,-5987,-5919,0,-1,0
127.32,178.89,-134.72,165,-5986,-5930,-1,-1,-1
127.32,178.89,-134.72,163,-5979,-5926,-1,-1,0
127.32,178.89,-134.73,165,-5976,-5915,-1,0,-1
127.32,178.89,-134.73,166,-5970,-5919,-1,-1,0
127.32,178.89,-134.73,167,-5977,-5932,-1,-1,0
127.32,178.89,-134.73,160,-5981,-5929,-1,0,0
127.32,178.89,-134.73,158,-5976,-5926,0,0,0
127.32,178.89,-134.73,160,-5976,-5926,0,0,0
127.32,178.88,-134.73,170,-5978,-5920,0,0,-1
127.32,178.88,-134.73,173,-5979,-5919,0,0,0
127.32,178.88,-134.72,163,-5984,-5915,-1,0,0
127.32,178.88,-134.72,166,-5987,-5933,-1,0,0
127.32,178.87,-134.73,168,-5978,-5932,-1,0,-1
127.32,178.87,-134.73,169,-5972,-5929,0,-1,0
127.32,178.87,-134.73,165,-5978,-5936,0,0,-1
127.32,178.87,-134.73,165,-5978,-5938,-1,0,-1
127.32,178.87,-134.73,162,-5980,-5929,-1,0,-1
127.32,178.87,-134.73,156,-5988,-5935,-1,0,-1
127.32,178.87,-134.73,156,-5983,-5943,0,0,0
127.31,178.87,-134.73,159,-5985,-5945,-1,0,-1
127.30,178.87,-134.74,160,-5989,-5941,0,0,-1
127.32,178.87,-134.73,166,-5986,-5931,0,0,0
127.31,178.87,-134.73,164,-5983,-5927,-1,0,-1
127.31,178.86,-134.73,165,-5980,-5928,-1,0,-1
127.30,178.86,-134.74,159,-5982,-5932,-1,0,0
127.30,178.86,-134.74,164,-5984,-5930,0,0,0
127.32,178.86,-134.73,171,-5995,-5925,0,0,0
127.32,178.86,-134.73,167,-5986,-5925,0,0,-1
127.32,178.86,-134.73,169,-5979,-5920,-1,-1,-1
127.30,178.86,-134.73,162,-5983,-5934,-1,-1,0
127.30,178.86,-134.74,165,-5986,-5943,-1,-1,-1
127.30,178.86,-134.74,169,-5978,-5938,-1,-1,-1
127.30,178.86,-134.75,167,-5978,-5932,-1,-1,0
127.30,178.86,-134.75,164,-5979,-5937,-1,-1,0
127.30,178.86,-134.75,171,-5977,-5933,0,-1,0
127.30,178.87,-134.74,165,-5983,-5936,0,-1,0
127.30,178.87,-134.74,161,-5980,-5936,0,-1,0
127.30,178.87,-134.74,164,-5977,-5931,0,-1,-1
127.30,178.87,-134.74,163,-5991,-5930,0,0,0
127.30,178.87,-134.74,165,-5987,-5921,-1,-1,-1
127.30,178.87,-134.74,166,-5986,-5924,-1,-1,0
127.30,178.87,-134.74,165,-5982,-5925,-1,-1,0
127.30,178.87,-134.74,172,-5987,-5930,-1,0,0
127.30,178.87,-134.74,170,-5985,-5928,-1,-1,0
127.30,178.87,-134.74,168,-5978,-5927,-1,-1,-1
127.30,178.87,-134.74,167,-5986,-5927,0,-1,0
127.31,178.88,-134.75,155,-5986,-5923,-1,-1,0
127.31,178.88,-134.75,157,-5985,-5926,-1,0,-1
127.31,178.88,-134.75,170,-5980,-5938,0,-1,0
127.31,178.88,-134.75,169,-5974,-5939,0,-1,0
127.31,178.88,-134.74,165,-5975,-5951,0,-1,0
127.31,178.88,-134.74,161,-5979,-5936,0,-1,0
127.31,178.88,-134.74,160,-5978,-5935,-1,0,-1
127.31,178.88,-134.75,158,-5980,-5936,-1,0,-1
127.31,178.88,-134.75,165,-5981,-5928,-1,0,-1
127.31,178.88,-134.75,169,-5979,-5925,-1,-1,-1
127.31,178.88,-134.75,168,-5977,-5935,0,0,-1
127.31,178.88,-134.74,170,-5986,-5928,0,0,-1
127.31,178.87,-134.73,163,-5987,-5928,0,0,-1
127.32,178.87,-134.74,168,-5976,-5936,0,-1,0
127.31,178.88,-134.73,151,-5980,-5940,0,-1,0
127.31,178.88,-134.73,158,-5981,-5944,0,-1,0
127.32,178.88,-134.73,165,-5978,-5939,0,-1,0
127.31,178.88,-134.73,158,-5979,-5925,0,-1,0
127.31,178.88,-134.73,156,-5984,-5929,0,0,-1
127.32,178.88,-134.72,162,-5995,-5936,0,-1,-1
127.32,178.88,-134.72,155,-5988,-5935,0,-1,0
127.32,178.89,-134.72,164,-5988,-5932,0,-1,0
127.33,178.89,-134.71,156,-5984,-5910,0,0,-1
127.32,178.88,-134.72,168,-5986,-5918,-1,0,-1
127.32,178.88,-134.72,169,-5983,-5934,-1,-1,-1
127.32,178.88,-134.72,170,-5975,-5939,-1,-1,0
127.32,178.88,-134.73,163,-5977,-5955,0,-1,0
127.32,178.89,-134.73,165,-5974,-5931,0,-1,0
127.32,178.89,-134.73,167,-5973,-5931,-1,0,-1
127.32,178.88,-134.73,170,-5969,-5931,-1,-1,0
127.32,178.88,-134.74,175,-5979,-5930,0,-1,0
127.32,178.89,-134.73,168,-5977,-5920,0,-1,0
127.32,178.89,-134.73,155,-5977,-5935,0,0,-1
127.32,178.88,-134.72,164,-5982,-5930,0,0,-1
127.32,178.88,-134.72,165,-5981,-5931,0,-1,0
127.32,178.88,-134.72,163,-5974,-5931,0,-1,0
127.32,178.88,-134.72,155,-5973,-5920,-1,0,-1
127.32,178.89,-134.73,164,-5979,-5926,-1,-1,0
127.32,178.89,-134.72,165,-5977,-5928,0,-1,0
127.32,178.89,-134.72,166,-5981,-5940,0,-1,-1
127.32,178.89,-134.72,158,-5977,-5929,0,-1,0
127.33,178.90,-134.72,154,-5980,-5936,0,-1,0
127.32,178.89,-134.72,169,-5976,-5919,-1,-1,0
127.33,178.90,-134.72,166,-5976,-5921,-1,-1,0
127.32,178.90,-134.73,167,-5974,-5924,-1,-1,0
127.33,178.90,-134.73,173,-5977,-5927,-1,-1,0
127.31,178.90,-134.73,171,-5978,-5933,0,-1,0
127.31,178.90,-134.73,170,-5980,-5921,-1,0,0
127.31,178.90,-134.74,159,-5976,-5912,-1,0,-1
127.31,178.90,-134.74,163,-5975,-5919,-1,-1,-1
127.31,178.90,-134.74,160,-5972,-5929,-1,-1,0
127.31,178.90,-134.75,147,-5976,-5935,-1,-1,0
127.31,178.91,-134.75,147,-5976,-5940,-1,0,-1
127.30,178.91,-134.76,149,-5981,-5951,-1,-1,0
127.30,178.91,-134.76,157,-5977,-5944,-1,-1,0
127.30,178.91,-134.76,159,-5974,-5942,-1,-1,0
127.30,178.91,-134.76,159,-5974,-5943,-1,-1,0
127.30,178.91,-134.76,153,-5979,-5940,-1,-1,0
127.30,178.91,-134.76,160,-5982,-5942,-1,-1,0
127.30,178.91,-134.77,154,-5977,-5937,0,0,-1
127.30,178.91,-134.77,152,-5972,-5927,-1,0,-1
127.30,178.91,-134.76,161,-5971,-5923,0,-1,0
127.30,178.91,-134.77,163,-5976,-5937,0,-1,0
127.30,178.91,-134.77,166,-5979,-5942,0,-1,0
127.30,178.91,-134.77,160,-5974,-5941,0,0,-1
127.30,178.91,-134.77,161,-5977,-5938,-1,-1,-1
127.30,178.91,-134.77,162,-5985,-5942,0,-1,0
127.30,178.91,-134.77,159,-5971,-5937,-1,-1,0
127.30,178.92,-134.77,154,-5974,-5938,-1,-1,0
127.29,178.92,-134.78,156,-5976,-5935,-1,0,0
127.29,178.92,-134.78,159,-5976,-5950,-1,-1,0
127.29,178.92,-134.78,155,-5979,-5949,0,0,0
127.29,178.92,-134.78,156,-5975,-5957,0,0,0
127.29,178.92,-134.78,156,-5972,-5943,0,-1,0
127.29,178.92,-134.78,165,-5983,-5936,0,-1,0
127.29,178.92,-134.77,163,-5988,-5932,0,-1,0
127.29,178.92,-134.77,165,-5991,-5930,-1,-1,0
127.29,178.92,-134.77,159,-5982,-5924,-1,0,-1
127.29,178.92,-134.77,163,-5974,-5923,-1,-1,0
127.29,178.92,-134.77,163,-5975,-5938,0,0,0
127.30,178.92,-134.76,157,-5982,-5933,0,0,-1
127.30,178.91,-134.75,158,-5980,-5930,0,0,-1
127.30,178.92,-134.75,157,-5981,-5926,0,-1,0
127.31,178.92,-134.74,153,-5985,-5912,0,-1,0
127.32,178.91,-134.74,156,-5990,-5923,0,-1,0
127.32,178.91,-134.74,166,-5981,-5943,0,0,-1
127.32,178.91,-134.73,161,-5978,-5936,0,-1,0
127.32,178.91,-134.73,162,-5974,-5931,0,-1,0
127.32,178.92,-134.72,154,-5976,-5919,0,-1,0
127.32,178.93,-134.72,157,-5980,-5918,-1,-1,0
127.32,178.92,-134.72,143,-5984,-5928,-1,0,-1
127.31,178.93,-134.73,148,-5976,-5927,-1,-1,0
127.31,178.92,-134.73,155,-5976,-5928,0,0,-1
127.32,178.92,-134.73,162,-5978,-5934,0,0,-1
127.31,178.92,-134.73,161,-5988,-5945,0,-1,0
127.32,178.92,-134.73,158,-5985,-5934,0,0,-1
127.32,178.91,-134.73,164,-5980,-5929,-1,0,-1
127.32,178.92,-134.73,164,-5979,-5925,-1,-1,0
127.32,178.92,-134.73,166,-5982,-5928,-1,0,-1
127.32,178.91,-134.74,159,-5974,-5930,-1,0,0
127.30,178.91,-134.74,164,-5982,-5923,-1,-1,0
127.30,178.91,-134.74,164,-5985,-5932,-1,0,0
127.30,178.91,-134.74,160,-5986,-5937,0,0,-1
127.31,178.92,-134.74,159,-5975,-5928,0,0,0
127.30,178.91,-134.74,167,-5969,-5934,0,0,0
127.30,178.91,-134.74,157,-5968,-5931,0,-1,0
127.31,178.92,-134.74,158,-5978,-5926,-1,-1,0
127.31,178.92,-134.74,163,-5984,-5933,-1,-1,0
127.31,178.92,-134.74,161,-5983,-5936,-1,0,-1
127.30,178.91,-134.74,159,-5973,-5940,-1,0,-1
127.30,178.91,-134.75,152,-5976,-5939,-1,0,-1
127.30,178.91,-134.75,154,-5975,-5942,-1,-1,-1
127.30,178.91,-134.75,157,-5977,-5948,0,0,0
127.30,178.91,-134.75,162,-5970,-5937,0,-1,0
127.30,178.91,-134.75,163,-5966,-5941,-1,0,-1
127.30,178.91,-134.76,169,-5974,-5946,0,0,-1
127.30,178.90,-134.75,167,-5979,-5947,0,0,0
127.30,178.90,-134.74,167,-5980,-5943,0,0,0
127.31,178.89,-134.73,165,-5985,-5930,0,0,-1
127.31,178.90,-134.73,162,-5990,-5935,0,0,0
127.31,178.90,-134.73,166,-5988,-5933,-1,0,0
127.31,178.90,-134.73,163,-5982,-5927,0,0,-1
127.31,178.89,-134.72,165,-5986,-5922,0,0,0
127.31,178.89,-134.71,161,-5987,-5924,0,0,0
127.31,178.89,-134.71,162,-5974,-5925,-1,0,-1
127.31,178.89,-134.72,159,-5979,-5927,-1,0,-1
127.31,178.89,-134.72,162,-5986,-5934,-1,-1,0
127.31,178.89,-134.72,156,-5991,-5938,-1,-1,0
127.31,178.89,-134.72,157,-5988,-5940,-1,-1,-1
127.31,178.89,-134.72,158,-5972,-5926,-1,0,-1
127.31,178.89,-134.73,165,-5966,-5928,-1,-1,0
127.31,178.89,-134.73,171,-5978,-5938,-1,0,-1
127.31,178.89,-134.73,160,-5985,-5941,0,0,0
127.31,178.89,-134.73,159,-5984,-5930,-1,0,-1
127.31,178.89,-134.73,168,-5985,-5929,-1,-1,0
127.31,178.89,-134.75,163,-5980,-5933,-1,-1,0
127.31,178.89,-134.74,160,-5969,-5919,0,0,-1
127.30,178.89,-134.74,157,-5974,-5919,-1,0,-1
127.30,178.89,-134.75,168,-5981,-5918,-1,-1,0
127.30,178.89,-134.75,169,-5991,-5939,-1,0,0
127.30,178.89,-134.75,160,-5982,-5939,0,0,-1
127.30,178.89,-134.75,158,-5977,-5933,0,-1,0
127.30,178.89,-134.75,158,-5973,-5926,-1,0,-1
127.30,178.89,-134.75,166,-5974,-5922,-1,0,0
127.29,178.88,-134.76,170,-5984,-5934,-1,0,0
127.29,178.88,-134.76,163,-5981,-5931,-1,0,0
127.29,178.88,-134.76,162,-5976,-5923,0,-1,0
127.29,178.88,-134.76,162,-5976,-5920,0,0,0
127.30,178.89,-134.75,165,-5977,-5920,-1,0,-1
127.29,178.88,-134.75,172,-5976,-5931,-1,0,-1
127.29,178.88,-134.75,170,-5986,-5933,0,-1,0
127.29,178.88,-134.75,166,-5983,-5930,-1,-1,0
127.29,178.88,-134.75,160,-5977,-5922,-1,0,-1
127.29,178.88,-134.76,162,-5977,-5921,-1,0,-1
127.29,178.88,-134.77,169,-5970,-5929,-1,0,-1
127.29,178.87,-134.77,178,-5969,-5933,-1,0,-1
127.29,178.87,-134.77,173,-5976,-5934,0,-1,0
127.29,178.88,-134.76,163,-5986,-5932,-1,-1,0
127.28,178.88,-134.77,162,-5981,-5933,-1,0,-1
127.28,178.88,-134.77,156,-5977,-5934,-1,0,-1
127.29,178.87,-134.77,162,-5975,-5932,0,0,-1
127.29,178.87,-134.77,164,-5974,-5929,0,-1,0
127.29,178.87,-134.77,157,-5977,-5925,-1,-1,0
127.29,178.87,-134.78,161,-5974,-5927,-1,-1,-1
127.27,178.87,-134.79,164,-5969,-5937,-1,0,-1
127.27,178.87,-134.79,165,-5974,-5938,0,0,-1
127.28,178.87,-134.78,162,-5970,-5946,0,0,0
127.28,178.87,-134.78,166,-5968,-5936,0,-1,0
127.28,178.87,-134.78,165,-5972,-5925,-1,-1,0
127.28,178.88,-134.78,161,-5979,-5934,-1,0,-1
127.28,178.88,-134.78,161,-5976,-5939,0,0,-1
127.28,178.87,-134.78,166,-5977,-5942,0,0,0
127.28,178.87,-134.78,165,-5982,-5939,0,0,0
127.29,178.87,-134.77,160,-5986,-5942,0,0,-1
127.29,178.87,-134.77,166,-5983,-5948,-1,0,-1
127.29,178.86,-134.77,164,-5979,-5939,0,0,-1
127.29,178.86,-134.77,164,-5979,-5939,0,0,-1
127.29,178.86,-134.76,169,-5984,-5936,0,0,0
127.29,178.86,-134.76,169,-5983,-5936,-1,0,-1
127.29,178.86,-134.76,167,-5987,-5933,-1,0,-1
127.28,178.85,-134.77,164,-5983,-5938,-1,0,0
127.28,178.85,-134.77,164,-5969,-5923,0,-1,-1
127.28,178.85,-134.77,160,-5973,-5933,0,-1,0
127.29,178.86,-134.76,157,-5980,-5936,0,-1,0
127.29,178.86,-134.76,168,-5984,-5931,-1,-1,0
127.29,178.86,-134.77,165,-5979,-5936,-1,-1,0
127.28,178.87,-134.77,163,-5969,-5943,-1,-1,0
127.28,178.87,-134.77,170,-5963,-5924,-1,-1,0
127.28,178.87,-134.77,167,-5976,-5920,0,0,0
127.28,178.87,-134.77,172,-5980,-5924,-1,-1,0
127.28,178.87,-134.77,166,-5981,-5929,-1,-1,0
127.28,178.87,-134.78,165,-5984,-5930,-1,-1,0
127.27,178.87,-134.79,165,-5978,-5932,-1,-1,0
127.26,178.87,-134.80,169,-5972,-5939,-1,0,0
127.26,178.87,-134.80,168,-5970,-5939,-1,0,-1
127.26,178.87,-134.80,165,-5970,-5947,-1,-1,0
127.26,178.87,-134.80,164,-5974,-5942,0,-1,0
127.26,178.87,-134.80,167,-5970,-5937,0,-1,0
127.26,178.87,-134.80,158,-5971,-5940,0,-1,0
127.26,178.88,-134.80,161,-5976,-5934,0,0,0
127.26,178.88,-134.80,165,-5981,-5921,-1,-1,-1
127.26,178.87,-134.80,166,-5979,-5926,-1,-1,0
127.26,178.88,-134.81,164,-5975,-5936,-1,-1,0
127.25,178.89,-134.82,165,-5971,-5931,-1,-1,0
127.26,178.88,-134.82,166,-5971,-5938,0,0,-1
127.26,178.88,-134.82,163,-5970,-5948,0,0,-1
127.26,178.88,-134.82,161,-5968,-5952,0,0,-1
127.26,178.88,-134.81,166,-5964,-5941,0,-1,0
127.26,178.88,-134.81,167,-5969,-5941,-1,-1,0
127.26,178.88,-134.82,165,-5966,-5940,-1,-1,0
127.26,178.88,-134.82,172,-5969,-5946,-1,-1,0
127.26,178.88,-134.82,166,-5975,-5946,0,0,0
127.26,178.88,-134.82,157,-5979,-5951,0,0,-1
127.26,178.88,-134.81,165,-5975,-5946,0,-1,0
127.26,178.88,-134.82,165,-5976,-5945,-1,-1,-1
127.26,178.88,-134.82,165,-5970,-5944,-1,0,-1
127.26,178.88,-134.83,167,-5966,-5935,0,-1,0
127.26,178.88,-134.82,165,-5971,-5942,0,-1,0
127.26,178.88,-134.82,161,-5966,-5939,-1,-1,0
127.25,178.88,-134.82,155,-5973,-5929,-1,-1,0
127.25,178.89,-134.82,159,-5973,-5928,-1,-1,0
127.25,178.89,-134.83,159,-5975,-5943,-1,-1,0
127.25,178.89,-134.83,166,-5972,-5956,0,-1,0
127.25,178.89,-134.83,163,-5967,-5942,0,0,0
127.25,178.89,-134.83,165,-5966,-5943,-1,0,0
127.25,178.89,-134.83,171,-5976,-5936,0,-1,0
127.25,178.89,-134.83,159,-5975,-5935,-1,-1,0
127.25,178.89,-134.83,160,-5970,-5939,-1,-1,0
127.25,178.90,-134.84,159,-5966,-5943,-1,-1,0
127.24,178.90,-134.84,161,-5960,-5942,0,-1,0
127.24,178.90,-134.84,158,-5972,-5941,0,0,0
127.25,178.89,-134.83,160,-5984,-5939,0,0,-1
127.25,178.89,-134.83,166,-5981,-5940,-1,-1,0
127.25,178.89,-134.83,171,-5974,-5932,-1,-1,0
127.25,178.90,-134.84,170,-5967,-5935,-1,-1,0
127.24,178.90,-134.85,161,-5963,-5942,-1,0,0
127.24,178.90,-134.85,157,-5969,-5947,-1,-1,0
127.24,178.90,-134.85,158,-5971,-5949,0,0,0
127.24,178.90,-134.85,167,-5972,-5944,0,-1,0
127.24,178.89,-134.85,161,-5969,-5944,0,0,0
127.24,178.90,-134.84,155,-5978,-5928,-1,-1,0
127.24,178.90,-134.84,157,-5982,-5929,-1,-1,0
127.24,178.90,-134.84,156,-5976,-5941,-1,-1,-1
127.24,178.90,-134.85,162,-5973,-5940,-1,-1,0
127.24,178.90,-134.85,164,-5969,-5949,-1,-1,0
127.24,178.90,-134.85,160,-5971,-5955,0,-1,0
127.24,178.90,-134.85,163,-5970,-5957,0,-1,0
127.24,178.90,-134.86,161,-5966,-5956,0,-1,0
127.24,178.90,-134.86,162,-5963,-5960,0,-1,0
127.23,178.91,-134.85,152,-5970,-5958,0,-1,0
127.23,178.91,-134.85,157,-5973,-5946,-1,0,0
127.24,178.90,-134.86,161,-5970,-5942,-1,-1,0
127.23,178.90,-134.86,162,-5970,-5948,-1,-1,0
127.23,178.90,-134.86,163,-5968,-5948,0,-1,0
127.23,178.90,-134.86,162,-5969,-5944,0,-1,0
127.23,178.90,-134.86,159,-5970,-5935,0,-1,0
127.23,178.91,-134.85,159,-5974,-5941,0,0,0
127.23,178.91,-134.85,165,-5969,-5939,0,-1,0
127.23,178.91,-134.85,164,-5966,-5936,-1,-1,0
127.23,178.91,-134.85,161,-5961,-5940,0,-1,0
127.23,178.91,-134.85,169,-5963,-5939,0,-1,0
127.23,178.91,-134.85,172,-5970,-5945,0,0,0
127.23,178.91,-134.85,168,-5966,-5950,0,-1,0
127.23,178.91,-134.85,167,-5971,-5952,0,-1,0
127.23,178.91,-134.85,160,-5982,-5947,-1,-1,0
127.23,178.91,-134.85,161,-5976,-5935,-1,-1,0
127.23,178.91,-134.85,165,-5970,-5941,-1,-1,0
127.23,178.91,-134.85,163,-5972,-5949,0,-1,-1
127.23,178.91,-134.84,164,-5973,-5935,0,-1,0
127.24,178.90,-134.84,165,-5972,-5935,0,0,0
127.24,178.90,-134.83,171,-5978,-5930,0,-1,0
127.24,178.90,-134.83,166,-5981,-5938,0,-1,0
127.25,178.91,-134.82,166,-5976,-5940,0,-1,-1
127.25,178.91,-134.82,166,-5969,-5937,0,-1,0
127.25,178.91,-134.82,165,-5975,-5931,0,-1,-1
127.26,178.91,-134.81,165,-5978,-5931,0,0,0
127.26,178.90,-134.80,165,-5972,-5942,0,0,0
127.26,178.90,-134.80,166,-5979,-5960,0,-1,0
127.26,178.90,-134.79,156,-5976,-5958,0,-1,0
127.26,178.90,-134.78,153,-5977,-5947,0,0,-1
127.28,178.90,-134.76,158,-5976,-5943,0,0,-1
127.28,178.90,-134.76,160,-5976,-5930,0,-1,0
127.28,178.90,-134.76,158,-5979,-5923,0,0,-1
127.28,178.90,-134.76,164,-5975,-5918,0,-1,0
127.28,178.90,-134.76,165,-5974,-5926,-1,0,0
127.28,178.89,-134.75,164,-5974,-5923,0,0,-1
127.27,178.89,-134.76,172,-5968,-5918,-1,0,0
127.27,178.89,-134.76,166,-5978,-5937,0,-1,0
127.28,178.89,-134.75,157,-5971,-5931,0,-1,0
127.28,178.90,-134.74,158,-5977,-5919,0,0,0
127.28,178.89,-134.74,159,-5979,-5922,0,0,-1
127.28,178.89,-134.74,157,-5974,-5924,0,0,0
127.28,178.90,-134.74,154,-5977,-5928,-1,-1,0
127.28,178.90,-134.74,161,-5970,-5934,-1,-1,0
127.28,178.90,-134.74,163,-5972,-5935,-1,-1,0
127.28,178.90,-134.74,166,-5974,-5937,0,-1,-1
127.28,178.90,-134.74,166,-5976,-5935,-1,-1,0
127.28,178.90,-134.75,160,-5972,-5931,-1,-1,0
127.28,178.90,-134.75,163,-5982,-5931,-1,0,-1
127.27,178.90,-134.76,163,-5975,-5934,-1,-1,-1
127.26,178.90,-134.76,165,-5971,-5935,-1,-1,0
127.26,178.90,-134.76,161,-5968,-5934,0,-1,0
127.27,178.90,-134.77,159,-5972,-5936,0,-1,0
127.27,178.90,-134.77,160,-5968,-5939,0,-1,0
127.27,178.90,-134.77,158,-5969,-5933,0,0,0
127.26,178.90,-134.76,163,-5977,-5937,-1,0,0
127.26,178.90,-134.76,168,-5974,-5943,0,-1,0
127.26,178.90,-134.76,165,-5973,-5938,0,0,0
127.26,178.90,-134.76,168,-5974,-5936,0,-1,0
127.26,178.90,-134.76,163,-5969,-5927,0,-1,0
127.26,178.90,-134.76,158,-5968,-5929,0,-1,0
127.26,178.90,-134.76,158,-5968,-5933,-1,-1,-1
127.27,178.90,-134.77,156,-5974,-5936,0,-1,0
127.27,178.90,-134.77,149,-5978,-5943,0,0,-1
127.27,178.90,-134.77,155,-5974,-5947,0,0,-1
127.26,178.90,-134.76,162,-5972,-5944,0,-1,0
127.25,178.90,-134.77,157,-5973,-5944,0,0,0
127.25,178.90,-134.77,153,-5967,-5938,0,-1,0
127.25,178.90,-134.77,148,-5973,-5937,0,0,0
127.26,178.91,-134.77,152,-5969,-5941,0,0,0
127.26,178.90,-134.76,160,-5975,-5931,0,0,-1
127.26,178.90,-134.76,161,-5978,-5919,0,0,-1
127.26,178.90,-134.76,166,-5972,-5929,0,-1,0
127.26,178.90,-134.76,171,-5973,-5932,0,-1,0
127.26,178.90,-134.75,170,-5978,-5938,0,0,0
127.27,178.90,-134.75,170,-5978,-5938,0,-1,-1
127.27,178.90,-134.75,166,-5975,-5947,0,-1,0
127.27,178.90,-134.75,160,-5980,-5941,-1,-1,0
127.27,178.90,-134.75,158,-5984,-5941,-1,-1,0
127.26,178.90,-134.75,157,-5983,-5943,0,-1,0
127.26,178.90,-134.76,156,-5975,-5931,-1,0,0
127.26,178.90,-134.76,162,-5971,-5939,-1,0,-1
127.25,178.90,-134.77,165,-5971,-5948,-1,0,-1
127.25,178.89,-134.76,161,-5976,-5948,0,0,-1
127.25,178.89,-134.76,161,-5978,-5949,0,0,-1
127.25,178.89,-134.76,158,-5981,-5935,0,0,0
127.27,178.89,-134.74,160,-5991,-5928,0,0,0
127.27,178.89,-134.74,162,-5985,-5932,0,0,-1
127.27,178.88,-134.74,158,-5982,-5930,0,0,0
127.27,178.88,-134.74,161,-5975,-5920,0,-1,0
127.27,178.88,-134.73,159,-5977,-5923,0,0,-1
127.27,178.88,-134.73,151,-5979,-5934,0,0,-1
127.27,178.88,-134.73,159,-5978,-5940,0,-1,0
127.27,178.88,-134.72,159,-5984,-5941,0,0,0
127.28,178.87,-134.72,159,-5978,-5928,0,0,-1
127.28,178.87,-134.71,165,-5982,-5926,0,0,-1
127.28,178.87,-134.72,159,-5980,-5930,0,-1,0
127.28,178.87,-134.71,162,-5980,-5943,0,0,-1
127.28,178.87,-134.71,162,-5979,-5938,0,0,-1
127.28,178.87,-134.70,157,-5973,-5921,0,0,-1
127.28,178.86,-134.70,162,-5986,-5934,0,0,-1
127.29,178.85,-134.70,163,-5989,-5933,0,0,-1
127.29,178.85,-134.70,161,-5979,-5936,0,0,-1
127.29,178.86,-134.69,164,-5982,-5924,0,-1,-1
127.29,178.85,-134.70,172,-5978,-5928,-1,0,0
127.29,178.85,-134.70,178,-5977,-5931,0,-1,0
127.28,178.86,-134.70,163,-5979,-5932,-1,0,-1
127.29,178.85,-134.70,172,-5984,-5939,0,-1,-1
127.29,178.85,-134.70,169,-5985,-5929,0,-1,0
127.29,178.85,-134.70,165,-5975,-5921,0,0,-1
127.29,178.85,-134.69,168,-5970,-5910,0,0,-1
127.29,178.85,-134.70,160,-5983,-5928,0,-1,0
127.29,178.85,-134.69,164,-5979,-5916,0,-1,0
127.29,178.85,-134.69,163,-5975,-5920,0,0,-1
127.29,178.85,-134.68,158,-5981,-5923,0,0,-1
127.29,178.85,-134.68,169,-5989,-5930,0,-1,0
127.29,178.84,-134.68,171,-5980,-5929,0,0,-1
127.30,178.83,-134.67,176,-5975,-5923,0,0,-1
127.30,178.83,-134.67,175,-5979,-5926,0,0,0
127.30,178.83,-134.67,182,-5978,-5915,0,-1,-1
127.30,178.82,-134.67,179,-5988,-5925,0,0,-1
127.31,178.82,-134.66,165,-5982,-5926,0,0,-1
127.31,178.81,-134.66,173,-5977,-5905,0,0,-1
127.30,178.81,-134.66,163,-5992,-5937,0,0,-1
127.30,178.81,-134.65,174,-5990,-5920,0,-1,0
127.31,178.81,-134.66,170,-5985,-5935,0,0,-1
127.31,178.81,-134.66,163,-5980,-5923,-1,0,-1
127.32,178.80,-134.65,187,-5982,-5929,0,-1,0
127.31,178.82,-134.66,164,-5984,-5924,-1,-1,0
127.31,178.81,-134.65,183,-5989,-5924,0,-1,0
127.31,178.82,-134.66,172,-5995,-5914,-1,-1,0
127.31,178.83,-134.66,165,-5995,-5928,-1,-1,0
127.31,178.83,-134.66,180,-5980,-5907,-1,-1,0
127.30,178.83,-134.67,168,-5990,-5923,-1,-1,0
127.30,178.84,-134.68,168,-5988,-5931,-1,-1,0
127.30,178.84,-134.68,160,-5984,-5931,0,-1,0
127.30,178.84,-134.68,167,-5980,-5919,0,-1,0
127.30,178.85,-134.68,155,-5985,-5929,-1,-1,0
127.29,178.86,-134.68,156,-5982,-5927,-1,-1,0
127.29,178.86,-134.69,163,-5990,-5947,-1,0,-1
127.29,178.86,-134.69,167,-5982,-5939,0,-1,-1
127.29,178.86,-134.68,173,-5968,-5922,0,-1,0
127.29,178.86,-134.68,169,-5975,-5917,0,-1,0
127.29,178.87,-134.69,170,-5985,-5913,-1,-1,0
127.29,178.87,-134.70,166,-5989,-5918,-1,-1,0
127.28,178.87,-134.71,159,-5980,-5926,-1,0,0
127.28,178.88,-134.71,161,-5977,-5931,-1,-1,0
127.28,178.88,-134.72,162,-5977,-5931,-1,-1,0
127.28,178.88,-134.72,155,-5975,-5929,-1,-1,-1
127.28,178.88,-134.72,160,-5978,-5925,-1,0,0
127.28,178.88,-134.72,168,-5982,-5927,-1,-1,0
127.27,178.88,-134.73,165,-5978,-5936,-1,-1,0
127.27,178.88,-134.74,167,-5972,-5932,-1,-1,-1
127.26,178.88,-134.74,166,-5976,-5923,-1,-1,-1
127.26,178.88,-134.75,157,-5978,-5932,-1,-1,0
127.26,178.89,-134.75,165,-5975,-5933,-1,-1,0
127.26,178.89,-134.75,170,-5979,-5937,-1,-1,0
127.26,178.88,-134.75,163,-5980,-5944,0,-1,0
127.26,178.88,-134.75,167,-5972,-5941,0,0,0
127.26,178.88,-134.75,166,-5976,-5931,0,-1,-1
127.26,178.88,-134.75,167,-5974,-5927,-1,-1,0
127.26,178.88,-134.75,166,-5962,-5934,0,-1,0
127.26,178.88,-134.75,166,-5965,-5936,0,0,0
127.26,178.88,-134.75,172,-5974,-5943,0,-1,0
127.26,178.88,-134.74,170,-5983,-5941,0,-1,-1
127.26,178.88,-134.74,170,-5978,-5925,0,-1,0
127.26,178.88,-134.75,163,-5976,-5923,-1,-1,0
127.26,178.88,-134.75,162,-5971,-5928,-1,-1,0
127.26,178.88,-134.76,165,-5972,-5928,-1,-1,0
127.26,178.88,-134.76,165,-5972,-5928,-1,-1,-1
127.26,178.88,-134.76,164,-5970,-5938,0,-1,0
127.25,178.89,-134.76,160,-5971,-5938,0,-1,0
127.25,178.89,-134.76,163,-5974,-5941,0,-1,0
127.25,178.89,-134.76,167,-5973,-5937,0,0,0
127.25,178.88,-134.77,171,-5980,-5943,-1,-1,-1
127.25,178.88,-134.77,168,-5980,-5945,-1,-1,0
127.25,178.88,-134.78,179,-5976,-5949,-1,-1,0
127.25,178.88,-134.78,174,-5971,-5948,0,-1,0
127.25,178.89,-134.77,169,-5974,-5940,0,-1,0
127.25,178.89,-134.77,163,-5976,-5942,0,-1,0
127.25,178.89,-134.77,157,-5983,-5960,0,-1,0
127.25,178.89,-134.77,160,-5978,-5949,0,0,-1
127.25,178.89,-134.77,164,-5966,-5943,0,0,0
127.25,178.89,-134.77,167,-5968,-5936,-1,-1,0
127.25,178.89,-134.78,167,-5978,-5944,-1,-1,0
127.25,178.89,-134.78,164,-5977,-5946,-1,-1,0
127.24,178.90,-134.79,161,-5975,-5936,-1,-1,0
127.24,178.90,-134.79,160,-5973,-5947,-1,-1,0
127.24,178.89,-134.79,164,-5965,-5945,0,0,-1
127.24,178.89,-134.79,165,-5978,-5944,0,-1,0
127.25,178.89,-134.78,169,-5984,-5933,0,-1,0
127.25,178.89,-134.78,163,-5988,-5936,0,-1,0
127.25,178.89,-134.78,155,-5982,-5927,-1,-1,0
127.24,178.90,-134.78,153,-5980,-5928,-1,-1,0
127.24,178.90,-134.79,162,-5978,-5936,-1,-1,0
127.24,178.90,-134.79,157,-5972,-5938,-1,-1,0
127.24,178.90,-134.79,159,-5974,-5937,0,-1,0
127.24,178.90,-134.79,161,-5969,-5942,0,-1,0
127.24,178.90,-134.79,162,-5970,-5939,0,-1,0
127.24,178.90,-134.79,165,-5966,-5946,-1,0,0
127.24,178.90,-134.79,163,-5976,-5942,0,-1,0
127.24,178.90,-134.79,162,-5975,-5943,0,-1,0
127.24,178.90,-134.79,164,-5978,-5945,0,-1,0
127.24,178.90,-134.79,164,-5969,-5946,0,-1,0
127.24,178.90,-134.78,160,-5970,-5946,0,-1,0
127.24,178.90,-134.78,161,-5972,-5946,0,0,0
127.24,178.90,-134.77,158,-5973,-5931,0,0,-1
127.25,178.91,-134.78,148,-5975,-5925,-1,-1,0
127.24,178.91,-134.78,157,-5979,-5936,-1,-1,0
127.24,178.91,-134.78,158,-5982,-5939,-1,-1,0
127.24,178.91,-134.79,160,-5971,-5942,-1,-1,0
127.24,178.91,-134.79,164,-5981,-5936,-1,0,-1
127.24,178.91,-134.79,155,-5973,-5942,-1,0,0
127.24,178.91,-134.79,163,-5971,-5936,0,0,0
127.25,178.91,-134.78,160,-5974,-5932,0,0,0
127.25,178.91,-134.78,163,-5974,-5940,0,-1,0
127.25,178.91,-134.77,158,-5973,-5942,0,0,-1
127.25,178.91,-134.77,161,-5978,-5935,0,-1,-1
127.25,178.91,-134.77,157,-5974,-5929,0,-1,0
127.25,178.91,-134.77,157,-5978,-5928,0,-1,0
127.25,178.92,-134.76,162,-5975,-5921,0,-1,0
127.25,178.91,-134.76,160,-5968,-5936,0,-1,-1
127.25,178.92,-134.75,160,-5979,-5940,0,-1,0
127.26,178.92,-134.75,159,-5979,-5952,0,-1,0
127.26,178.92,-134.75,154,-5976,-5938,0,-1,0
127.25,178.92,-134.75,160,-5978,-5935,-1,-1,-1
127.26,178.92,-134.75,157,-5977,-5934,-1,0,-1
127.26,178.92,-134.75,158,-5981,-5935,0,0,-1
127.26,178.92,-134.75,160,-5979,-5941,0,-1,-1
127.26,178.92,-134.75,155,-5976,-5940,0,-1,0
127.26,178.92,-134.75,162,-5969,-5936,0,-1,0
127.26,178.92,-134.75,161,-5975,-5933,0,0,0
127.27,178.92,-134.74,158,-5974,-5930,0,0,0
127.27,178.92,-134.74,157,-5981,-5933,-1,0,-1
127.25,178.92,-134.75,158,-5975,-5929,-1,0,0
127.25,178.92,-134.75,156,-5976,-5930,-1,-1,0
127.25,178.92,-134.75,158,-5968,-5931,0,0,-1
127.25,178.92,-134.75,161,-5975,-5932,0,0,-1
127.25,178.91,-134.74,160,-5977,-5929,0,-1,0
127.25,178.91,-134.74,164,-5986,-5937,0,0,-1
127.26,178.91,-134.74,157,-5980,-5935,0,-1,0
127.26,178.91,-134.74,156,-5977,-5926,-1,-1,-1
127.26,178.91,-134.74,158,-5973,-5924,-1,-1,-1
127.25,178.91,-134.75,155,-5972,-5940,-1,-1,0
127.25,178.92,-134.75,155,-5977,-5949,0,-1,0
127.25,178.92,-134.75,162,-5971,-5948,0,0,-1
127.25,178.91,-134.75,167,-5978,-5941,0,0,-1
127.26,178.91,-134.74,166,-5987,-5936,0,0,-1
127.26,178.91,-134.74,162,-5986,-5926,-1,-1,0
127.26,178.91,-134.75,162,-5981,-5932,-1,0,-1
127.25,178.91,-134.76,167,-5979,-5927,-1,0,0
127.26,178.90,-134.75,168,-5978,-5931,-1,0,-1
127.24,178.90,-134.76,162,-5967,-5941,-1,0,0
127.24,178.90,-134.76,158,-5974,-5946,0,0,-1
127.24,178.90,-134.76,163,-5977,-5939,0,-1,0
127.25,178.90,-134.75,158,-5968,-5938,0,0,0
127.25,178.90,-134.75,150,-5970,-5935,0,-1,0
127.25,178.90,-134.75,147,-5978,-5943,0,0,0
127.25,178.90,-134.75,157,-5978,-5935,-1,-1,-1
127.25,178.90,-134.75,158,-5977,-5928,-1,0,0
127.25,178.91,-134.76,157,-5978,-5931,-1,-1,0
127.25,178.90,-134.76,163,-5976,-5936,-1,-1,0
127.25,178.90,-134.76,164,-5976,-5943,-1,0,0
127.25,178.90,-134.76,160,-5980,-5941,0,0,-1
127.25,178.90,-134.76,160,-5978,-5941,0,-1,-1
127.25,178.90,-134.76,159,-5967,-5930,0,0,0
127.25,178.90,-134.76,164,-5969,-5926,0,-1,0
127.25,178.90,-134.76,167,-5977,-5938,-1,-1,0
127.25,178.90,-134.76,164,-5986,-5938,-1,-1,0
127.25,178.90,-134.76,161,-5978,-5943,0,-1,0
127.25,178.90,-134.76,165,-5978,-5944,0,0,-1
127.24,178.89,-134.75,157,-5970,-5930,0,0,-1
127.24,178.89,-134.75,153,-5969,-5933,0,0,-1
127.24,178.89,-134.75,156,-5973,-5930,0,0,0
127.24,178.89,-134.75,157,-5985,-5929,0,-1,-1
127.24,178.89,-134.75,156,-5984,-5940,-1,0,0
127.24,178.89,-134.75,153,-5981,-5936,-1,-1,0
127.24,178.89,-134.76,161,-5975,-5941,-1,0,-1
127.24,178.89,-134.76,164,-5974,-5939,0,0,-1
127.24,178.89,-134.76,164,-5968,-5948,0,-1,0
127.24,178.89,-134.76,159,-5969,-5937,0,0,-1
127.24,178.89,-134.75,158,-5977,-5935,0,-1,0
127.24,178.89,-134.75,156,-5976,-5929,-1,0,-1
127.24,178.89,-134.76,161,-5971,-5932,-1,-1,0
127.24,178.89,-134.76,163,-5970,-5941,-1,0,0
127.23,178.90,-134.76,153,-5973,-5937,0,-1,0
127.23,178.90,-134.76,156,-5975,-5941,0,-1,0
127.23,178.90,-134.76,156,-5976,-5941,0,0,-1
127.23,178.89,-134.76,163,-5980,-5938,-1,0,-1
127.23,178.89,-134.77,164,-5980,-5939,-1,-1,-1
127.23,178.89,-134.77,163,-5981,-5943,-1,-1,0
127.23,178.89,-134.78,167,-5976,-5944,-1,0,-1
127.23,178.89,-134.78,162,-5966,-5936,0,0,-1
127.23,178.88,-134.77,167,-5968,-5935,0,0,-1
127.23,178.88,-134.77,176,-5973,-5929,0,0,0
127.23,178.88,-134.77,166,-5969,-5927,0,-1,0
127.23,178.88,-134.77,165,-5970,-5933,0,0,0
127.24,178.87,-134.76,167,-5968,-5931,0,0,-1
127.24,178.87,-134.76,163,-5977,-5935,0,0,-1
127.24,178.87,-134.75,163,-5969,-5925,0,0,-1
127.24,178.87,-134.75,166,-5968,-5922,0,0,0
127.24,178.87,-134.75,160,-5960,-5920,0,-1,0
127.24,178.86,-134.75,163,-5964,-5920,0,0,-1
127.24,178.86,-134.75,166,-5979,-5940,0,0,-1
127.24,178.86,-134.74,168,-5981,-5938,0,0,-1
127.25,178.85,-134.73,171,-5986,-5925,-1,0,-1
127.24,178.85,-134.73,171,-5977,-5926,-1,-1,0
127.24,178.86,-134.74,156,-5978,-5927,-1,0,-1
127.24,178.85,-134.74,172,-5975,-5948,0,0,-1
127.25,178.84,-134.73,173,-5976,-5934,0,0,-1
127.25,178.84,-134.73,175,-5981,-5923,0,-1,0
127.24,178.85,-134.74,173,-5983,-5932,-1,-1,0
127.24,178.84,-134.74,168,-5985,-5936,-1,0,-1
127.24,178.84,-134.74,167,-5985,-5944,0,0,-1
127.23,178.84,-134.74,170,-5990,-5934,0,0,0
127.24,178.84,-134.74,167,-5989,-5942,0,-1,0
127.24,178.84,-134.74,171,-5984,-5945,-1,-1,0
127.24,178.84,-134.74,167,-5974,-5930,-1,-1,0
127.24,178.85,-134.75,167,-5980,-5932,-1,-1,-1
127.23,178.85,-134.75,166,-5984,-5941,0,-1,-1
127.24,178.85,-134.74,168,-5979,-5937,0,-1,0
127.24,178.85,-134.74,167,-5984,-5935,0,-1,0
127.24,178.85,-134.74,164,-5977,-5936,-1,0,-1
127.24,178.84,-134.74,162,-5975,-5931,0,0,-1
127.24,178.84,-134.74,160,-5976,-5935,0,-1,0
127.24,178.84,-134.74,165,-5980,-5944,0,0,0
127.24,178.85,-134.74,169,-5986,-5953,0,-1,0
127.24,178.85,-134.74,174,-5970,-5945,0,0,-1
127.24,178.85,-134.73,167,-5982,-5946,0,-1,0
127.24,178.86,-134.73,166,-5986,-5942,-1,-1,0
127.24,178.86,-134.73,171,-5978,-5930,-1,0,-1
127.23,178.86,-134.74,162,-5972,-5926,-1,-1,0
127.23,178.87,-134.75,163,-5980,-5937,-1,-1,0
127.23,178.87,-134.76,161,-5973,-5936,-1,-1,0
127.23,178.87,-134.76,160,-5973,-5941,-1,-1,0
127.23,178.86,-134.77,162,-5973,-5935,-1,0,-1
127.23,178.87,-134.78,165,-5968,-5942,-1,0,0
127.23,178.87,-134.77,174,-5980,-5933,0,-1,0
127.23,178.87,-134.77,168,-5974,-5931,0,-1,0
127.22,178.87,-134.77,165,-5969,-5924,0,-1,0
127.22,178.88,-134.77,160,-5983,-5924,0,-1,0
127.22,178.88,-134.77,159,-5984,-5915,-1,-1,0
127.22,178.88,-134.78,163,-5973,-5914,-1,-1,0
127.22,178.88,-134.78,162,-5973,-5919,-1,-1,0
127.21,178.89,-134.78,162,-5971,-5927,-1,-1,0
127.21,178.89,-134.78,161,-5968,-5927,0,-1,0
127.21,178.90,-134.78,163,-5972,-5944,0,-1,0
127.21,178.90,-134.78,160,-5970,-5937,0,-1,0
127.21,178.90,-134.78,163,-5972,-5947,0,-1,0
127.21,178.90,-134.77,163,-5968,-5945,0,0,-1
127.21,178.90,-134.77,162,-5976,-5949,0,-1,0
127.22,178.89,-134.76,163,-5972,-5939,0,0,-1
127.23,178.90,-134.75,157,-5970,-5940,0,0,-1
127.22,178.89,-134.75,156,-5974,-5945,0,0,-1
127.22,178.89,-134.76,151,-5971,-5941,-1,0,-1
127.22,178.89,-134.76,154,-5978,-5936,0,-1,-1
127.22,178.89,-134.76,160,-5977,-5932,-1,-1,0
127.22,178.89,-134.76,155,-5973,-5926,0,-1,0
127.22,178.89,-134.76,159,-5974,-5929,0,0,-1
127.22,178.89,-134.76,160,-5972,-5933,0,-1,-1
127.22,178.89,-134.76,157,-5972,-5939,0,-1,0
127.23,178.90,-134.75,149,-5980,-5946,0,-1,0
127.23,178.90,-134.76,149,-5975,-5935,-1,-1,0
127.23,178.90,-134.76,150,-5974,-5924,-1,-1,0
127.23,178.91,-134.77,149,-5977,-5938,-1,-1,0
127.22,178.91,-134.76,152,-5983,-5936,0,-1,0
127.22,178.91,-134.76,150,-5978,-5936,0,0,0
127.22,178.91,-134.76,154,-5976,-5936,0,0,-1
127.22,178.91,-134.77,158,-5975,-5942,-1,-1,0
127.22,178.91,-134.77,159,-5965,-5937,0,-1,0
127.22,178.91,-134.77,157,-5963,-5930,0,-1,0
127.22,178.91,-134.76,163,-5972,-5924,0,-1,0
127.22,178.92,-134.75,160,-5979,-5932,0,-1,-1
127.22,178.91,-134.76,161,-5981,-5941,-1,-1,-1
127.22,178.92,-134.77,160,-5979,-5942,-1,-1,-1
127.22,178.92,-134.77,161,-5977,-5937,-1,-1,-1
127.22,178.91,-134.77,164,-5974,-5938,-1,-1,0
127.21,178.91,-134.77,158,-5971,-5943,0,-1,0
127.21,178.91,-134.77,160,-5973,-5934,0,-1,0
127.21,178.91,-134.77,156,-5974,-5935,0,-1,0
127.22,178.92,-134.77,151,-5971,-5939,0,-1,0
127.22,178.92,-134.77,157,-5973,-5935,0,-1,0
127.22,178.91,-134.77,162,-5976,-5933,0,0,-1
127.22,178.91,-134.77,161,-5976,-5936,-1,-1,0
127.22,178.91,-134.77,166,-5971,-5926,-1,-1,0
127.22,178.91,-134.77,164,-5966,-5935,0,-1,-1
127.22,178.91,-134.77,160,-5972,-5925,0,-1,0
127.22,178.91,-134.77,158,-5975,-5937,0,-1,0
127.22,178.92,-134.77,154,-5977,-5939,0,-1,0
127.22,178.92,-134.77,162,-5980,-5949,-1,-1,0
127.21,178.93,-134.78,160,-5972,-5956,0,-1,0
127.21,178.93,-134.78,160,-5966,-5938,-1,0,0
127.20,178.92,-134.79,162,-5966,-5945,-1,-1,0
127.20,178.92,-134.80,160,-5963,-5953,-1,0,0
127.19,178.92,-134.80,157,-5966,-5957,-1,0,0
127.19,178.91,-134.81,154,-5967,-5962,-1,0,-1
127.18,178.90,-134.82,153,-5971,-5962,-1,0,-1
127.17,178.88,-134.83,152,-5974,-5945,-1,0,-1
127.16,178.86,-134.85,147,-5975,-5935,-1,0,-1
127.16,178.83,-134.86,162,-5971,-5934,-1,0,-1
127.14,178.80,-134.89,174,-5976,-5946,-1,0,-1
127.15,178.78,-134.90,177,-5967,-5937,-1,0,-1
127.13,178.76,-134.92,179,-5959,-5937,-1,0,-1
127.13,178.76,-134.93,174,-5945,-5940,-1,0,-1
127.12,178.75,-134.94,180,-5927,-5939,-1,0,-1
127.13,178.73,-134.94,182,-5936,-5963,0,0,-1
127.13,178.71,-134.93,181,-5959,-5992,0,0,-1
127.13,178.70,-134.92,187,-5974,-5976,0,0,-1
127.14,178.66,-134.92,181,-5980,-5993,0,1,-1
127.15,178.63,-134.91,195,-5967,-5973,0,0,-1
127.15,178.60,-134.92,212,-5968,-5954,-1,1,-1
127.15,178.55,-134.93,225,-5967,-5947,-1,1,-2
127.15,178.50,-134.96,240,-5954,-5945,-1,1,-2
127.14,178.46,-135.00,248,-5939,-5974,-2,0,-2
127.14,178.42,-135.02,245,-5910,-5960,-1,0,-1
127.14,178.40,-135.03,246,-5909,-5973,0,0,-1
127.17,178.39,-134.99,233,-5929,-5973,1,0,-1
127.19,178.39,-134.93,212,-5935,-5935,2,0,0
127.23,178.39,-134.86,210,-5979,-5917,2,-1,0
127.24,178.41,-134.81,197,-6009,-5901,0,-1,0
127.25,178.41,-134.79,200,-6020,-5899,-1,0,-1
127.23,178.40,-134.83,209,-6006,-5900,-2,-1,-1
127.22,178.41,-134.85,216,-5970,-5896,-2,-1,0
127.21,178.42,-134.88,228,-5952,-5906,-1,-1,0
127.21,178.43,-134.89,221,-5947,-5913,-1,-1,0
127.20,178.44,-134.89,219,-5956,-5928,-1,-1,0
127.19,178.46,-134.91,220,-5976,-5970,-1,-1,0
127.18,178.45,-134.94,226,-5990,-5991,-2,0,-1
127.17,178.44,-134.97,238,-5986,-5995,-1,0,-1
127.17,178.42,-134.99,243,-5962,-5977,-1,0,-1
127.16,178.41,-135.02,251,-5946,-5962,-1,0,-1
127.16,178.40,-135.03,255,-5933,-5952,-1,0,-1
127.16,178.40,-135.04,255,-5920,-5943,-1,-1,0
127.15,178.40,-135.04,256,-5920,-5955,-1,-1,0
127.15,178.41,-135.04,242,-5941,-5966,-1,-1,0
127.17,178.41,-135.04,237,-5955,-5994,0,-1,0
127.17,178.41,-135.03,233,-5948,-5975,0,0,-1
127.17,178.41,-135.03,225,-5944,-5972,0,-1,-1
127.18,178.41,-135.02,224,-5933,-5942,0,-1,0
127.18,178.41,-135.02,226,-5933,-5949,0,-1,0
127.17,178.42,-135.02,218,-5944,-5950,-1,-1,0
127.18,178.42,-135.03,222,-5964,-5978,-1,-1,-1
127.18,178.42,-135.03,219,-5960,-5977,0,-1,0
127.18,178.42,-135.02,221,-5956,-5966,0,0,-1
127.18,178.41,-135.01,227,-5959,-5948,0,0,0
127.18,178.41,-135.01,223,-5955,-5928,-1,-1,0
127.17,178.42,-135.02,232,-5957,-5946,-1,-1,0
127.16,178.42,-135.03,239,-5955,-5956,-1,-1,0
127.14,178.42,-135.06,243,-5954,-5949,-1,-1,0
127.14,178.42,-135.08,242,-5956,-5961,-1,-1,0
127.13,178.43,-135.10,238,-5954,-5967,-1,-1,0
127.13,178.43,-135.10,235,-5945,-5969,-1,-1,-1
127.12,178.43,-135.11,238,-5943,-5978,-1,-1,-1
127.12,178.43,-135.12,240,-5944,-5972,-1,-1,0
127.11,178.43,-135.13,232,-5941,-5969,-1,-1,0
127.11,178.44,-135.14,227,-5939,-5974,-1,-1,0
127.10,178.44,-135.16,225,-5936,-5975,-1,-1,0
127.10,178.44,-135.17,221,-5934,-5969,-1,0,-1
127.10,178.43,-135.17,224,-5938,-5975,0,-1,-1
127.10,178.44,-135.16,220,-5931,-5977,0,0,0
127.10,178.44,-135.15,226,-5931,-5965,0,0,0
127.10,178.44,-135.15,223,-5933,-5956,0,-1,0
127.10,178.44,-135.15,223,-5937,-5967,-1,0,0
127.10,178.44,-135.15,223,-5943,-5977,-1,0,-1
127.10,178.44,-135.15,217,-5945,-5974,-1,0,0
127.10,178.44,-135.15,220,-5942,-5967,0,0,0
127.10,178.44,-135.14,224,-5945,-5961,0,0,-1
127.10,178.43,-135.14,222,-5942,-5954,0,0,-1
127.10,178.43,-135.14,222,-5940,-5953,-1,0,-1
127.10,178.43,-135.14,227,-5940,-5955,-1,-1,0
127.10,178.43,-135.14,230,-5931,-5955,0,-1,0
127.10,178.43,-135.14,227,-5925,-5958,-1,-1,0
127.10,178.43,-135.15,225,-5916,-5958,-1,-1,0
127.10,178.43,-135.15,224,-5920,-5964,-1,-1,0
127.10,178.43,-135.15,223,-5929,-5982,0,0,-1
127.10,178.43,-135.15,229,-5927,-5985,0,-1,0
127.10,178.43,-135.14,224,-5929,-5973,0,-1,0
127.10,178.43,-135.13,224,-5932,-5974,0,-1,0
127.10,178.44,-135.12,231,-5930,-5977,0,-1,0
127.10,178.44,-135.12,229,-5933,-5977,0,0,0
127.10,178.44,-135.12,228,-5941,-5970,-1,0,-1
127.10,178.43,-135.13,229,-5942,-5975,0,0,-1
127.10,178.43,-135.13,232,-5933,-5976,0,0,-1
127.10,178.42,-135.12,238,-5939,-5969,0,0,-1
127.11,178.41,-135.11,239,-5943,-5973,0,0,-1
127.11,178.41,-135.11,244,-5940,-5968,0,0,-1
127.11,178.40,-135.10,241,-5948,-5959,0,0,0
127.11,178.41,-135.11,236,-5945,-5952,-1,-1,0
127.10,178.41,-135.12,228,-5941,-5971,-1,-1,0
127.10,178.41,-135.12,233,-5939,-5972,-1,0,0
127.10,178.41,-135.13,232,-5937,-5972,-1,0,-1
127.09,178.40,-135.13,237,-5937,-5966,0,0,-1
127.10,178.41,-135.12,228,-5937,-5951,0,-1,0
127.10,178.41,-135.12,225,-5940,-5955,-1,-1,0
127.10,178.41,-135.12,226,-5945,-5955,-1,0,-1
127.09,178.40,-135.13,228,-5947,-5971,-1,0,-1
127.09,178.40,-135.13,224,-5948,-5962,-1,0,0
127.10,178.41,-135.13,228,-5936,-5957,-1,-1,0
127.09,178.41,-135.14,227,-5928,-5952,-1,-1,0
127.09,178.41,-135.14,223,-5937,-5966,-1,-1,0
127.10,178.41,-135.14,225,-5936,-5979,-1,0,0
127.08,178.41,-135.14,228,-5942,-5991,-1,0,0
127.08,178.41,-135.15,224,-5939,-5982,-1,0,0
127.08,178.41,-135.15,222,-5935,-5972,-1,0,0
127.08,178.41,-135.15,226,-5933,-5967,-1,0,-1
127.08,178.41,-135.16,231,-5930,-5971,-1,0,-1
127.08,178.40,-135.17,240,-5933,-5979,-1,0,-1
127.08,178.40,-135.17,235,-5939,-5982,-1,-1,-1
127.08,178.40,-135.17,227,-5939,-5978,-1,-1,-1
127.08,178.41,-135.17,215,-5934,-5972,-1,0,-1
127.06,178.40,-135.18,221,-5926,-5966,-1,0,-1
127.07,178.39,-135.18,235,-5928,-5973,0,0,-1
127.07,178.39,-135.18,242,-5929,-5981,0,0,-1
127.07,178.39,-135.18,245,-5924,-5981,0,-1,0
127.06,178.40,-135.18,233,-5931,-5985,0,-1,0
127.06,178.40,-135.18,230,-5934,-5982,-1,0,0
127.06,178.39,-135.18,229,-5938,-5977,-1,0,-1
127.06,178.39,-135.18,227,-5935,-5973,-1,0,0
127.06,178.39,-135.19,232,-5929,-5980,-1,0,-1
127.06,178.39,-135.19,233,-5926,-5971,-1,0,0
127.06,178.39,-135.19,242,-5931,-5964,-1,0,-1
127.06,178.39,-135.19,241,-5928,-5965,-1,0,-1
127.06,178.38,-135.20,234,-5927,-5971,-1,0,0
127.06,178.38,-135.20,236,-5925,-5979,-1,0,-1
127.05,178.38,-135.21,240,-5924,-5979,0,0,-1
127.05,178.38,-135.20,238,-5930,-5970,0,-1,0
127.06,178.38,-135.19,236,-5930,-5969,0,-1,0
127.06,178.38,-135.19,231,-5933,-5963,-1,0,-1
127.05,178.38,-135.20,237,-5934,-5975,-1,0,-1
127.05,178.37,-135.20,238,-5932,-5974,-1,0,-1
127.05,178.37,-135.21,237,-5929,-5978,-1,0,-1
127.05,178.37,-135.21,237,-5924,-5975,-1,0,-1
127.05,178.37,-135.22,240,-5920,-5977,-1,0,-1
127.05,178.36,-135.22,238,-5926,-5986,-1,0,0
127.05,178.37,-135.23,240,-5927,-5985,-1,-1,0
127.04,178.37,-135.23,234,-5916,-5979,0,-1,0
127.04,178.37,-135.23,235,-5921,-5980,0,0,0
127.04,178.37,-135.22,230,-5933,-5981,0,-1,0
127.04,178.37,-135.22,235,-5936,-5984,0,0,0
127.04,178.38,-135.21,230,-5943,-5980,0,-1,0
127.04,178.38,-135.21,237,-5939,-5979,-1,-1,0
127.04,178.37,-135.22,237,-5933,-5985,-1,-1,0
127.04,178.38,-135.23,244,-5932,-5985,-1,-1,-1
127.04,178.37,-135.24,248,-5925,-5988,-1,-1,0
127.04,178.37,-135.24,239,-5927,-5995,0,-1,-1
127.04,178.38,-135.22,230,-5922,-5980,0,-1,0
127.04,178.38,-135.21,230,-5924,-5983,0,-1,0
127.04,178.38,-135.21,234,-5934,-5971,-1,-1,-1
127.04,178.38,-135.23,233,-5937,-5970,-1,-1,-1
127.02,178.38,-135.25,230,-5932,-5990,-1,-1,0
127.02,178.38,-135.27,233,-5920,-5998,-1,-1,0
127.01,178.39,-135.28,234,-5903,-5990,-1,-1,-1
127.01,178.38,-135.29,238,-5896,-5991,0,0,0
127.01,178.38,-135.28,235,-5906,-5977,0,0,-1
127.02,178.38,-135.27,242,-5927,-5979,0,0,0
127.02,178.37,-135.26,243,-5938,-5984,0,-1,0
127.02,178.38,-135.27,229,-5930,-5987,0,0,-1
127.02,178.37,-135.26,225,-5920,-5980,0,0,-1
127.02,178.38,-135.26,230,-5923,-5971,0,0,-1
127.02,178.38,-135.25,236,-5934,-5973,0,-1,0
127.03,178.38,-135.24,240,-5934,-5973,0,-1,0
127.03,178.38,-135.22,231,-5933,-5969,0,-1,0
127.03,178.38,-135.22,229,-5939,-5971,0,-1,0
127.03,178.39,-135.22,230,-5934,-5965,0,0,-1
127.03,178.39,-135.22,229,-5927,-5973,0,0,0
127.03,178.39,-135.21,229,-5933,-5984,0,-1,0
127.04,178.39,-135.19,230,-5930,-5976,0,0,0
127.04,178.39,-135.18,229,-5934,-5969,0,0,0
127.05,178.38,-135.17,237,-5936,-5981,0,0,-1
127.05,178.38,-135.16,250,-5932,-5972,0,0,0
127.05,178.37,-135.17,256,-5922,-5972,-1,-1,0
127.05,178.37,-135.17,239,-5913,-5966,-1,0,-1
127.05,178.36,-135.17,237,-5912,-5975,0,0,-1
127.05,178.35,-135.15,235,-5927,-5978,0,0,-1
127.05,178.35,-135.13,246,-5948,-5981,0,0,-1
127.06,178.34,-135.12,238,-5942,-5972,0,0,-1
127.06,178.33,-135.11,233,-5940,-5961,0,0,-1
127.07,178.32,-135.09,241,-5938,-5951,0,0,-1
127.07,178.32,-135.09,250,-5930,-5937,0,-1,0
127.07,178.32,-135.08,241,-5932,-5931,0,-1,0
127.08,178.32,-135.07,249,-5939,-5936,0,0,-1
127.09,178.32,-135.06,253,-5946,-5949,0,-1,0
127.10,178.33,-135.05,270,-5953,-5953,0,-1,0
127.10,178.34,-135.04,255,-5941,-5954,0,-1,0
127.11,178.36,-135.03,229,-5943,-5939,-1,-1,0
127.11,178.37,-135.03,225,-5951,-5943,-1,-1,0
127.11,178.38,-135.04,219,-5945,-5953,-1,-1,0
127.10,178.39,-135.06,213,-5939,-5974,-1,-1,0
127.10,178.42,-135.06,212,-5930,-5984,0,-1,0
127.09,178.45,-135.03,206,-5945,-5984,1,-1,0
127.11,178.48,-135.00,187,-5942,-5952,1,-1,0
127.12,178.49,-134.97,198,-5954,-5939,0,0,0
127.10,178.49,-134.97,204,-5974,-5962,-1,0,0
127.10,178.48,-134.98,233,-5972,-5978,-1,0,0
127.09,178.48,-134.99,262,-5951,-5992,0,-1,0
127.09,178.49,-134.98,258,-5929,-5988,0,-1,0
127.11,178.49,-134.94,249,-5915,-5968,1,-1,0
127.12,178.51,-134.89,230,-5929,-5937,1,-1,0
127.14,178.52,-134.85,204,-5953,-5930,1,0,-1
127.16,178.50,-134.81,199,-6023,-5965,0,0,-1
127.17,178.47,-134.80,209,-6060,-5985,-1,0,-1
127.18,178.45,-134.79,233,-6032,-5965,0,0,-1
127.19,178.45,-134.79,241,-5947,-5901,0,-1,0
127.20,178.47,-134.77,239,-5895,-5841,0,-1,0
127.20,178.49,-134.76,220,-5900,-5857,0,-1,0
127.19,178.51,-134.75,200,-5954,-5918,0,-1,0
127.20,178.50,-134.76,184,-6021,-5999,-1,0,-1
127.20,178.47,-134.75,193,-6064,-6018,0,0,-1
127.21,178.44,-134.75,226,-6027,-5977,-1,0,-1
127.21,178.41,-134.77,235,-5961,-5900,-1,0,-1
127.20,178.41,-134.78,230,-5919,-5844,-1,-1,0
127.21,178.43,-134.79,224,-5909,-5840,-1,-1,0
127.20,178.45,-134.80,220,-5925,-5859,-1,-1,0
127.19,178.47,-134.80,223,-5961,-5898,0,-1,0
127.19,178.50,-134.81,225,-5990,-5967,-1,-1,0
127.19,178.53,-134.81,230,-5981,-5969,0,-1,0
127.18,178.56,-134.81,240,-5963,-5950,0,-1,0
127.17,178.59,-134.80,241,-5951,-5932,0,-2,1
127.18,178.64,-134.79,229,-5935,-5900,0,-2,1
127.18,178.68,-134.77,216,-5949,-5902,0,-2,1
127.18,178.74,-134.76,197,-5980,-5920,0,-2,1
127.17,178.79,-134.76,182,-6007,-5937,-1,-2,0
127.16,178.81,-134.78,171,-6013,-5967,-1,-1,0
127.15,178.84,-134.80,169,-6009,-5968,-1,-1,0
127.14,178.85,-134.84,154,-5986,-5970,-2,-1,0
127.13,178.85,-134.85,166,-5974,-5960,-1,-1,-1
127.13,178.84,-134.88,162,-5958,-5950,-1,0,-1
127.12,178.84,-134.89,161,-5956,-5953,-1,0,-1
127.12,178.83,-134.90,168,-5965,-5974,-1,0,-1
127.13,178.82,-134.90,173,-5969,-5977,-1,0,-1
127.12,178.81,-134.91,185,-5962,-5973,-1,0,-1
127.12,178.80,-134.91,188,-5961,-5953,-1,0,-1
127.12,178.79,-134.92,187,-5953,-5940,-1,0,-1
127.11,178.79,-134.92,187,-5952,-5947,-1,0,-1
127.12,178.79,-134.92,191,-5954,-5940,0,-1,0
127.12,178.79,-134.92,182,-5966,-5953,0,0,-1
127.13,178.79,-134.91,182,-5969,-5946,0,0,-1
127.13,178.78,-134.90,179,-5971,-5951,0,0,-1
127.14,178.77,-134.89,173,-5981,-5941,0,0,-1
127.14,178.77,-134.89,170,-5981,-5940,-1,0,-1
127.13,178.77,-134.90,164,-5971,-5933,-1,0,-1
127.13,178.75,-134.92,174,-5963,-5940,-1,0,-1
127.12,178.74,-134.93,176,-5955,-5966,-1,0,-1
127.12,178.74,-134.93,184,-5952,-5967,0,-1,0
127.12,178.74,-134.93,182,-5967,-5958,0,0,0
127.12,178.75,-134.93,181,-5966,-5953,-1,-1,0
127.12,178.74,-134.94,177,-5960,-5948,-1,0,-1
127.12,178.74,-134.94,185,-5959,-5933,-1,-1,0
127.11,178.75,-134.95,185,-5963,-5942,-1,-1,0
127.11,178.76,-134.95,189,-5966,-5946,-1,-1,0
127.10,178.77,-134.96,187,-5961,-5953,-1,-1,0
127.10,178.77,-134.96,182,-5961,-5957,-1,-1,0
127.09,178.78,-134.97,179,-5955,-5965,-1,-1,0
127.09,178.78,-134.97,180,-5949,-5963,-1,-1,0
127.10,178.79,-134.98,183,-5944,-5974,0,-1,0
127.10,178.79,-134.98,177,-5944,-5963,0,-1,0
127.09,178.80,-134.98,171,-5947,-5959,0,-1,0
127.09,178.80,-134.96,165,-5953,-5953,0,0,0
127.09,178.80,-134.96,173,-5962,-5962,0,0,-1
127.10,178.79,-134.95,171,-5962,-5966,0,0,-1
127.10,178.79,-134.95,172,-5960,-5950,0,0,-1
127.11,178.78,-134.94,178,-5965,-5944,0,0,-1
127.11,178.77,-134.94,188,-5963,-5944,-1,0,-1
127.11,178.77,-134.93,184,-5961,-5929,0,0,-1
127.11,178.76,-134.94,179,-5970,-5942,-1,0,-1
127.10,178.75,-134.94,175,-5969,-5939,-1,0,-1
127.10,178.75,-134.95,177,-5963,-5941,-1,0,-1
127.10,178.75,-134.96,178,-5962,-5948,-1,0,-1
127.10,178.74,-134.96,171,-5965,-5954,-1,0,-1
127.09,178.74,-134.97,181,-5956,-5950,-1,-1,0
127.09,178.74,-134.97,182,-5952,-5968,0,0,-1
127.09,178.74,-134.96,184,-5939,-5953,0,0,0
127.09,178.74,-134.96,191,-5944,-5964,0,-1,0
127.10,178.74,-134.95,186,-5951,-5960,-1,-1,0
127.10,178.75,-134.95,185,-5964,-5968,0,-1,0
127.11,178.74,-134.93,191,-5954,-5959,0,0,0
127.11,178.74,-134.92,186,-5953,-5941,0,-1,0
127.12,178.75,-134.91,183,-5960,-5943,-1,-1,0
127.12,178.74,-134.92,180,-5963,-5948,0,0,-1
127.11,178.74,-134.92,180,-5966,-5949,0,0,-1
127.11,178.73,-134.92,180,-5961,-5941,-1,0,-1
127.11,178.73,-134.93,185,-5968,-5947,-1,-1,0
127.10,178.74,-134.93,175,-5969,-5948,-1,0,-1
127.10,178.74,-134.94,181,-5967,-5945,-1,0,-1
127.10,178.74,-134.95,176,-5970,-5957,-1,-1,0
127.10,178.73,-134.95,183,-5963,-5952,0,0,-1
127.10,178.73,-134.95,186,-5956,-5954,-1,-1,0
127.10,178.73,-134.95,185,-5956,-5953,0,0,0
127.10,178.73,-134.95,186,-5957,-5951,-1,-1,0
127.09,178.73,-134.95,198,-5958,-5953,-1,0,-1
127.09,178.73,-134.95,189,-5961,-5955,0,-1,0
127.10,178.73,-134.95,185,-5956,-5954,0,-1,0
127.10,178.74,-134.95,179,-5953,-5946,-1,0,-1
127.10,178.73,-134.95,176,-5964,-5965,0,-1,0
127.10,178.74,-134.95,179,-5954,-5954,-1,-1,0
127.09,178.74,-134.95,190,-5952,-5952,-1,-1,0
127.09,178.74,-134.95,187,-5964,-5958,0,-1,0
127.09,178.74,-134.95,185,-5962,-5958,-1,-1,0
127.09,178.74,-134.95,183,-5961,-5956,-1,0,-1
127.09,178.74,-134.96,185,-5962,-5948,-1,-1,-1
127.09,178.74,-134.97,186,-5969,-5951,-1,-1,-1
127.08,178.74,-134.97,187,-5962,-5947,-1,0,-1
127.08,178.74,-134.98,181,-5959,-5949,-1,0,-1
127.08,178.73,-134.98,181,-5952,-5952,-1,0,-1
127.07,178.73,-134.99,188,-5951,-5964,-1,0,0
127.07,178.73,-135.00,186,-5957,-5968,-1,0,-1
127.07,178.73,-135.00,188,-5960,-5961,0,0,-1
127.06,178.72,-135.00,183,-5961,-5966,0,0,-1
127.06,178.72,-135.00,183,-5955,-5954,-1,0,-1
127.06,178.72,-135.00,190,-5942,-5946,-1,0,0
127.06,178.72,-135.00,193,-5947,-5946,-1,-1,0
127.06,178.72,-135.00,189,-5953,-5952,-1,-1,0
127.06,178.72,-135.00,192,-5949,-5966,0,0,0
127.06,178.71,-135.00,199,-5950,-5964,0,0,0
127.07,178.72,-134.99,191,-5948,-5952,0,-1,0
127.08,178.72,-134.98,187,-5947,-5940,0,-1,0
127.07,178.73,-134.98,180,-5963,-5933,-1,-1,0
127.06,178.73,-134.99,185,-5970,-5942,-1,-1,0
127.05,178.74,-135.01,184,-5973,-5961,-1,-1,0
127.04,178.74,-135.02,187,-5951,-5961,-1,-1,0
127.04,178.75,-135.03,185,-5939,-5961,0,-1,0
127.05,178.75,-135.02,188,-5946,-5965,0,-1,0
127.05,178.76,-135.00,179,-5949,-5961,0,0,0
127.06,178.75,-134.99,174,-5951,-5968,0,0,-1
127.06,178.75,-134.98,177,-5962,-5969,0,0,0
127.06,178.75,-134.97,178,-5964,-5956,0,0,-1
127.07,178.73,-134.96,186,-5964,-5945,0,0,-1
127.07,178.73,-134.96,180,-5952,-5931,-1,0,-1
127.07,178.73,-134.97,184,-5960,-5947,-1,-1,0
127.07,178.74,-134.97,178,-5955,-5952,-1,-1,-1
127.07,178.73,-134.98,175,-5948,-5960,-1,-1,0
127.07,178.74,-134.97,183,-5942,-5945,0,-1,0
127.06,178.74,-134.97,185,-5941,-5950,0,-1,0
127.07,178.75,-134.96,183,-5943,-5959,0,-1,0
127.08,178.75,-134.94,182,-5959,-5953,0,0,-1
127.08,178.75,-134.94,178,-5981,-5954,-1,-1,0
127.07,178.76,-134.95,173,-5973,-5951,-1,-1,0
127.07,178.76,-134.96,172,-5956,-5939,-1,-1,-1
127.07,178.75,-134.97,181,-5934,-5953,-1,0,-1
127.08,178.75,-134.97,182,-5940,-5961,0,0,-1
127.08,178.74,-134.95,179,-5960,-5964,0,0,0
127.08,178.75,-134.94,166,-5978,-5968,0,-1,0
127.08,178.75,-134.94,172,-5975,-5963,-1,-1,-1
127.08,178.75,-134.94,178,-5961,-5949,-1,0,-1
127.08,178.74,-134.95,185,-5950,-5938,-1,-1,0
127.08,178.74,-134.96,180,-5956,-5929,-1,-1,0
127.06,178.75,-134.97,179,-5967,-5949,-1,-1,0
127.07,178.76,-134.98,179,-5973,-5952,-1,-1,0
127.05,178.76,-134.98,187,-5962,-5956,-1,0,-1
127.06,178.75,-134.98,191,-5959,-5946,-1,0,-1
127.07,178.76,-134.98,187,-5954,-5949,-1,-1,0
127.06,178.77,-134.98,183,-5948,-5945,-1,-1,0
127.06,178.76,-134.99,179,-5951,-5947,-1,0,-1
127.05,178.76,-134.99,179,-5959,-5949,-1,0,-1
127.05,178.76,-134.99,174,-5971,-5953,-1,-1,0
127.05,178.76,-135.00,176,-5958,-5949,-1,-1,0
127.05,178.77,-135.01,177,-5949,-5950,-1,-1,0
127.05,178.77,-135.01,175,-5947,-5947,-1,-1,0
127.04,178.77,-135.02,172,-5946,-5954,-1,-1,0
127.04,178.77,-135.03,174,-5957,-5955,-1,-1,-1
127.04,178.77,-135.03,178,-5957,-5972,-1,-1,0
127.04,178.77,-135.03,174,-5954,-5978,0,0,-1
127.04,178.77,-135.03,177,-5946,-5973,0,-1,0
127.04,178.77,-135.03,177,-5946,-5969,0,-1,0
127.04,178.77,-135.03,182,-5941,-5955,0,-1,0
127.04,178.77,-135.03,185,-5950,-5949,-1,-1,0
127.03,178.78,-135.03,182,-5949,-5958,-1,-1,0
127.03,178.78,-135.04,184,-5950,-5966,-1,-1,0
127.03,178.78,-135.04,177,-5951,-5964,0,-1,-1
127.03,178.78,-135.04,179,-5950,-5959,0,-1,0
127.03,178.78,-135.04,184,-5953,-5958,0,-1,0
127.03,178.78,-135.04,177,-5954,-5954,-1,-1,0
127.03,178.79,-135.05,178,-5943,-5961,-1,-1,0
127.03,178.78,-135.05,182,-5939,-5961,-1,-1,0
127.03,178.78,-135.05,189,-5942,-5966,-1,-1,0
127.03,178.78,-135.05,181,-5942,-5959,0,-1,0
127.03,178.78,-135.05,174,-5949,-5961,-1,-1,0
127.03,178.78,-135.05,181,-5954,-5957,-1,-1,0
127.03,178.79,-135.06,180,-5948,-5965,0,-1,0
127.02,178.79,-135.05,176,-5955,-5971,0,-1,0
127.02,178.80,-135.04,169,-5958,-5973,0,-1,0
127.02,178.80,-135.04,168,-5955,-5969,0,-1,0
127.03,178.80,-135.04,172,-5951,-5953,-1,-1,-1
127.03,178.80,-135.05,171,-5949,-5963,-1,0,-1
127.02,178.80,-135.05,165,-5948,-5966,-1,0,0
127.02,178.80,-135.06,173,-5953,-5963,-1,0,-1
127.02,178.80,-135.06,174,-5951,-5962,-1,0,-1
127.03,178.80,-135.05,173,-5947,-5954,0,-1,0
127.03,178.80,-135.05,174,-5938,-5958,0,-1,0
127.02,178.80,-135.06,180,-5939,-5971,0,-1,0
127.03,178.80,-135.05,182,-5950,-5965,0,-1,0
127.03,178.80,-135.04,181,-5955,-5962,0,-1,0
127.03,178.80,-135.04,179,-5953,-5967,0,0,0
127.03,178.80,-135.03,177,-5952,-5966,0,0,0
127.04,178.80,-135.02,175,-5950,-5960,0,0,0
127.05,178.79,-135.01,175,-5952,-5960,0,0,-1
127.05,178.79,-134.99,178,-5956,-5959,0,0,0
127.06,178.79,-134.97,178,-5955,-5953,0,-1,0
127.06,178.79,-134.97,171,-5956,-5956,0,-1,0
127.06,178.79,-134.97,174,-5958,-5946,-1,0,-1
127.06,178.79,-134.97,178,-5957,-5948,-1,0,-1
127.06,178.78,-134.98,176,-5956,-5958,-1,0,-1
127.07,178.78,-134.97,188,-5954,-5964,0,0,-1
127.07,178.78,-134.96,185,-5949,-5950,0,0,-1
127.08,178.77,-134.94,178,-5957,-5952,0,0,-1
127.09,178.77,-134.92,179,-5967,-5956,0,0,-1
127.10,178.75,-134.90,185,-5966,-5937,0,0,-1
127.11,178.75,-134.88,172,-5977,-5949,0,0,-1
127.13,178.75,-134.86,186,-5969,-5930,0,-1,0
127.12,178.76,-134.86,177,-5969,-5936,0,-1,0
127.13,178.76,-134.85,175,-5952,-5931,0,0,-1
127.13,178.76,-134.85,182,-5950,-5924,0,-1,0
127.13,178.77,-134.84,175,-5973,-5947,0,0,0
127.13,178.77,-134.84,168,-5972,-5960,0,-1,0
127.14,178.77,-134.83,179,-5969,-5942,-1,0,-1
127.14,178.77,-134.82,171,-5969,-5928,0,-1,0
127.14,178.77,-134.82,170,-5968,-5935,0,0,-1
127.14,178.77,-134.81,173,-5973,-5939,0,-1,0
127.14,178.77,-134.81,169,-5970,-5927,0,0,-1
127.14,178.77,-134.81,174,-5986,-5936,0,0,-1
127.14,178.77,-134.81,180,-5975,-5946,-1,-1,0
127.14,178.78,-134.81,172,-5970,-5933,-1,0,-1
127.14,178.77,-134.81,195,-5961,-5936,0,-1,0
127.13,178.78,-134.81,172,-5971,-5938,-1,-1,-1
127.13,178.78,-134.81,175,-5960,-5940,0,-1,0
127.13,178.79,-134.82,171,-5971,-5961,0,0,-1
127.13,178.78,-134.81,180,-5972,-5930,0,0,-1
127.13,178.78,-134.81,168,-5967,-5943,-1,0,-1
127.14,178.77,-134.81,191,-5983,-5952,0,-1,-1
127.14,178.77,-134.80,176,-5977,-5944,0,0,0
127.14,178.77,-134.80,181,-5967,-5928,0,0,-1
127.14,178.77,-134.80,177,-5979,-5952,0,0,-1
127.15,178.77,-134.79,173,-5974,-5926,0,0,-1
127.15,178.77,-134.79,174,-5976,-5929,-1,0,0
127.14,178.77,-134.79,166,-5982,-5947,0,0,-1
127.14,178.76,-134.79,180,-5973,-5933,-1,0,-1
127.14,178.76,-134.80,181,-5973,-5937,-1,-1,0
127.13,178.76,-134.80,174,-5979,-5929,-1,-1,0
127.13,178.76,-134.80,173,-5959,-5926,-1,0,-1
127.13,178.76,-134.81,186,-5959,-5918,-1,-1,-1
127.13,178.76,-134.82,187,-5971,-5933,-1,-1,-1
127.13,178.76,-134.82,193,-5977,-5951,0,-1,0
127.13,178.76,-134.82,196,-5969,-5938,-1,-1,0
127.13,178.77,-134.82,191,-5967,-5935,-1,-1,0
127.12,178.77,-134.82,189,-5962,-5930,-1,-1,0
127.12,178.77,-134.83,183,-5972,-5929,-1,0,0
127.12,178.77,-134.84,185,-5979,-5935,-1,-1,-1
127.11,178.77,-134.85,186,-5985,-5942,-1,0,-1
127.10,178.77,-134.87,182,-5978,-5946,-1,0,-1
127.08,178.77,-134.89,180,-5970,-5947,-1,0,-1
127.08,178.77,-134.90,175,-5973,-5944,-1,0,-1
127.07,178.77,-134.92,172,-5972,-5947,-1,0,-1
127.07,178.77,-134.93,176,-5964,-5940,-1,0,-1
127.06,178.76,-134.94,178,-5962,-5948,-1,0,-1
127.05,178.76,-134.94,173,-5965,-5942,-1,0,-1
127.05,178.76,-134.95,176,-5967,-5943,-1,0,-1
127.05,178.77,-134.95,179,-5964,-5949,-1,0,-1
127.05,178.76,-134.95,183,-5968,-5944,-1,0,0
127.05,178.76,-134.95,189,-5963,-5949,0,0,0
127.05,178.76,-134.95,192,-5963,-5950,0,-1,-1
127.05,178.76,-134.95,180,-5966,-5951,-1,-1,-1
127.05,178.76,-134.96,173,-5961,-5946,-1,0,-1
127.05,178.76,-134.96,172,-5960,-5953,-1,0,-1
127.05,178.76,-134.96,172,-5963,-5948,-1,0,-1
127.05,178.76,-134.96,169,-5962,-5955,-1,0,-1
127.05,178.75,-134.97,177,-5959,-5961,-1,0,-1
127.05,178.75,-134.96,178,-5958,-5961,0,0,-1
127.04,178.74,-134.97,180,-5954,-5962,0,0,-1
127.04,178.74,-134.96,189,-5952,-5957,0,0,-1
127.04,178.73,-134.95,183,-5955,-5950,0,0,-1
127.04,178.73,-134.95,177,-5961,-5940,-1,0,-1
127.04,178.73,-134.96,168,-5961,-5936,-1,0,-1
127.04,178.73,-134.97,174,-5960,-5947,-1,0,0
127.04,178.74,-134.97,181,-5962,-5945,-1,-1,-1
127.04,178.73,-134.98,181,-5960,-5947,-1,0,-1
127.04,178.73,-134.98,178,-5957,-5947,-1,-1,-1
127.03,178.74,-134.99,181,-5959,-5947,-1,0,-1
127.03,178.74,-134.99,178,-5960,-5957,0,-1,-1
127.03,178.74,-134.98,172,-5956,-5955,0,0,-1
127.03,178.74,-134.98,174,-5954,-5958,0,0,-1
127.03,178.73,-134.98,180,-5953,-5953,0,0,0
127.03,178.73,-134.97,183,-5958,-5952,0,0,-1
127.03,178.74,-134.96,183,-5961,-5950,0,0,0
127.03,178.74,-134.96,175,-5963,-5947,0,0,-1
127.03,178.74,-134.95,173,-5964,-5940,0,0,-1
127.03,178.73,-134.96,183,-5969,-5942,-1,0,-1
127.03,178.73,-134.96,181,-5961,-5948,-1,0,0
127.03,178.73,-134.98,184,-5957,-5960,-1,0,-1
127.03,178.73,-134.98,179,-5950,-5960,-1,0,-1
127.02,178.73,-134.98,175,-5956,-5966,-1,0,-1
127.02,178.72,-134.99,178,-5952,-5957,-1,0,-1
127.02,178.72,-134.99,185,-5954,-5953,-1,0,-1
127.01,178.72,-135.00,185,-5954,-5948,-1,0,0
127.01,178.72,-135.00,188,-5959,-5955,-1,0,-1
127.01,178.72,-135.01,186,-5958,-5954,-1,0,0
127.01,178.72,-135.00,191,-5958,-5959,0,0,-1
127.01,178.72,-135.00,188,-5966,-5954,0,0,-1
127.01,178.72,-134.99,192,-5957,-5953,0,0,0
127.01,178.72,-134.99,190,-5955,-5942,-1,0,-1
127.01,178.71,-135.00,186,-5957,-5941,-1,0,-1
127.01,178.71,-135.00,188,-5957,-5945,-1,0,-1
127.01,178.71,-135.00,189,-5959,-5953,-1,0,-1
127.01,178.71,-135.01,187,-5955,-5960,-1,0,-1
127.00,178.70,-135.01,189,-5951,-5960,-1,0,-1
127.00,178.70,-135.01,193,-5955,-5956,-1,0,-1
127.00,178.70,-135.02,188,-5956,-5953,-1,0,-1
127.01,178.71,-135.02,184,-5958,-5948,-1,0,-1
127.00,178.71,-135.02,178,-5956,-5959,-1,-1,-1
127.00,178.71,-135.02,175,-5962,-5953,-1,0,-1
126.99,178.71,-135.02,178,-5955,-5960,-1,0,-1
126.99,178.71,-135.03,180,-5956,-5959,-1,0,-1
126.99,178.71,-135.03,187,-5952,-5971,-1,-1,-1
126.99,178.71,-135.03,184,-5956,-5968,-1,-1,-1
126.99,178.71,-135.03,189,-5953,-5959,-1,-1,-1
126.99,178.72,-135.04,182,-5950,-5969,-1,-1,-1
126.99,178.71,-135.04,182,-5951,-5972,-1,0,-1
126.99,178.71,-135.04,184,-5955,-5968,-1,0,-1
126.99,178.71,-135.04,187,-5953,-5966,0,0,-1
126.99,178.72,-135.04,185,-5951,-5954,-1,-1,-1
126.99,178.72,-135.04,183,-5949,-5951,-1,-1,-1
126.99,178.72,-135.05,187,-5949,-5960,-1,0,-1
126.99,178.72,-135.05,181,-5957,-5969,-1,-1,0
126.99,178.72,-135.05,181,-5960,-5966,0,0,-1
126.99,178.72,-135.05,177,-5953,-5966,-1,0,0
126.99,178.72,-135.05,179,-5952,-5956,-1,0,0
126.98,178.72,-135.05,179,-5944,-5953,-1,-1,0
126.98,178.72,-135.05,181,-5941,-5955,-1,0,-1
126.98,178.72,-135.06,182,-5945,-5967,-1,0,-1
126.98,178.72,-135.06,184,-5951,-5972,-1,0,-1
126.98,178.72,-135.06,180,-5950,-5965,0,0,-1
126.98,178.72,-135.06,184,-5946,-5961,-1,0,-1
126.98,178.72,-135.06,189,-5948,-5962,-1,0,0
126.98,178.72,-135.06,186,-5942,-5965,-1,0,0
126.98,178.72,-135.06,183,-5948,-5973,0,-1,0
126.98,178.72,-135.06,182,-5950,-5960,0,0,0
126.98,178.73,-135.05,182,-5956,-5959,0,0,-1
126.98,178.72,-135.05,188,-5951,-5952,-1,0,-1
126.98,178.72,-135.06,180,-5949,-5957,-1,-1,0
126.98,178.72,-135.06,183,-5948,-5969,-1,-1,-1
126.98,178.73,-135.06,178,-5953,-5968,-1,0,0
126.98,178.73,-135.06,183,-5953,-5964,0,0,0
126.98,178.72,-135.07,184,-5946,-5956,-1,0,-1
126.98,178.72,-135.07,188,-5945,-5959,-1,-1,0
126.97,178.73,-135.07,186,-5941,-5953,-1,0,0
126.97,178.73,-135.07,182,-5943,-5952,-1,0,0
126.97,178.73,-135.07,179,-5944,-5954,0,0,-1
126.97,178.73,-135.07,180,-5948,-5959,0,0,-1
126.97,178.73,-135.07,183,-5951,-5956,-1,-1,-1
126.97,178.73,-135.07,191,-5947,-5958,-1,-1,-1
126.97,178.73,-135.07,186,-5949,-5959,-1,-1,0
126.97,178.73,-135.08,181,-5939,-5962,-1,0,-1
126.97,178.73,-135.08,185,-5935,-5961,-1,0,-1
126.97,178.73,-135.08,184,-5945,-5967,0,-1,-1
126.97,178.73,-135.08,177,-5945,-5972,0,-1,-1
126.97,178.73,-135.08,178,-5948,-5966,-1,0,0
126.97,178.73,-135.07,177,-5945,-5962,0,0,0
126.97,178.73,-135.08,180,-5937,-5963,-1,-1,-1
126.96,178.74,-135.08,174,-5938,-5965,0,-1,0
126.96,178.74,-135.08,176,-5941,-5967,-1,0,0
126.96,178.74,-135.08,184,-5947,-5972,0,0,-1
126.96,178.74,-135.08,178,-5950,-5967,0,0,-1
126.96,178.74,-135.08,188,-5950,-5970,-1,0,0
126.96,178.74,-135.08,187,-5943,-5963,-1,-1,-1
126.96,178.74,-135.08,188,-5943,-5969,-1,0,0
126.96,178.74,-135.08,182,-5942,-5970,-1,0,-1
126.96,178.73,-135.09,185,-5948,-5972,-1,0,-1
126.95,178.73,-135.09,183,-5949,-5970,-1,-1,-1
126.96,178.74,-135.09,178,-5941,-5962,0,0,0
126.96,178.74,-135.08,176,-5943,-5953,0,0,0
126.96,178.74,-135.08,173,-5947,-5969,0,-1,-1
126.96,178.74,-135.08,180,-5941,-5960,0,-1,-1
126.96,178.74,-135.08,178,-5948,-5959,0,-1,-1
126.96,178.74,-135.08,173,-5954,-5964,-1,0,-1
126.96,178.74,-135.08,172,-5945,-5959,-1,0,-1
126.96,178.74,-135.08,174,-5943,-5964,0,0,0
126.96,178.74,-135.08,181,-5941,-5972,0,0,-1
126.96,178.74,-135.08,178,-5941,-5964,0,-1,0
126.96,178.74,-135.08,176,-5940,-5965,0,-1,0
126.96,178.75,-135.07,172,-5949,-5959,0,-1,-1
126.96,178.75,-135.07,173,-5950,-5950,-1,0,-1
126.96,178.75,-135.07,171,-5954,-5950,-1,0,-1
126.96,178.75,-135.08,172,-5950,-5956,-1,0,-1
126.96,178.75,-135.08,173,-5951,-5965,0,-1,-1
126.96,178.75,-135.07,175,-5946,-5957,0,0,0
126.96,178.75,-135.07,180,-5952,-5953,-1,0,-1
126.96,178.75,-135.07,181,-5950,-5957,-1,0,-1
126.96,178.75,-135.07,179,-5950,-5966,0,0,0
126.96,178.75,-135.07,181,-5954,-5974,0,-1,-1
126.96,178.75,-135.07,181,-5950,-5967,0,0,-1
126.97,178.76,-135.06,183,-5952,-5961,0,0,-1
126.97,178.75,-135.05,181,-5955,-5954,-1,0,-1
126.97,178.75,-135.05,180,-5946,-5956,0,-1,-1
126.97,178.75,-135.05,179,-5949,-5951,0,0,-1
126.97,178.75,-135.05,177,-5949,-5964,0,0,-1
126.97,178.75,-135.05,175,-5945,-5957,0,0,-1
126.97,178.75,-135.05,173,-5948,-5957,0,-1,-1
126.97,178.75,-135.05,175,-5950,-5960,0,0,-1
126.97,178.75,-135.05,181,-5948,-5959,0,0,-1
126.97,178.75,-135.05,177,-5952,-5963,-1,0,-1
126.97,178.75,-135.05,175,-5943,-5966,-1,0,-1
126.97,178.75,-135.05,174,-5945,-5968,0,0,-1
126.97,178.75,-135.05,164,-5949,-5970,0,0,0
126.97,178.76,-135.04,168,-5952,-5976,0,0,0
126.97,178.76,-135.04,174,-5948,-5963,0,0,0
126.97,178.76,-135.04,171,-5948,-5962,0,0,-1
126.97,178.76,-135.04,171,-5954,-5953,-1,0,-1
126.97,178.76,-135.04,178,-5958,-5954,-1,0,-1
126.97,178.76,-135.04,182,-5964,-5958,-1,0,-1
126.97,178.75,-135.04,179,-5961,-5958,0,0,-1
126.97,178.75,-135.04,184,-5960,-5955,0,-1,-1
126.98,178.75,-135.04,183,-5961,-5958,0,0,-1
126.98,178.75,-135.03,180,-5956,-5954,0,0,-1
126.98,178.75,-135.04,178,-5951,-5955,-1,0,-1
126.97,178.75,-135.04,174,-5952,-5966,-1,0,-1
126.97,178.75,-135.04,169,-5948,-5961,-1,0,-1
126.97,178.75,-135.04,169,-5949,-5971,0,0,-1
126.97,178.75,-135.04,170,-5948,-5972,0,0,-1
126.97,178.75,-135.04,177,-5941,-5958,0,0,-1
126.97,178.75,-135.04,177,-5944,-5951,0,0,0
126.97,178.75,-135.04,169,-5952,-5964,0,-1,0
126.97,178.75,-135.04,175,-5950,-5968,0,0,-1
126.97,178.75,-135.03,180,-5959,-5967,0,0,-1
126.97,178.75,-135.03,180,-5955,-5964,0,0,-1
126.97,178.75,-135.03,179,-5951,-5962,-1,0,-1
126.97,178.75,-135.04,171,-5953,-5964,0,-1,-1
126.97,178.75,-135.04,176,-5953,-5977,-1,0,-1
126.97,178.75,-135.03,177,-5949,-5977,0,0,-1
126.97,178.75,-135.03,177,-5948,-5967,0,0,-1
126.97,178.74,-135.03,176,-5949,-5968,0,0,-1
126.97,178.74,-135.02,178,-5959,-5973,0,0,-1
126.99,178.74,-135.00,180,-5958,-5963,0,0,-1
126.99,178.74,-134.99,179,-5954,-5947,0,0,-1
126.99,178.74,-134.98,176,-5958,-5936,0,0,-1
126.99,178.74,-134.99,172,-5963,-5948,-1,0,-1
126.99,178.74,-134.98,177,-5970,-5957,-1,0,-1
126.99,178.74,-134.98,180,-5968,-5976,0,0,-1
127.00,178.73,-134.97,176,-5952,-5945,0,0,-1
127.00,178.73,-134.97,183,-5952,-5951,0,0,-1
127.00,178.73,-134.96,179,-5963,-5953,0,-1,0
127.00,178.73,-134.96,176,-5966,-5954,0,0,-1
127.00,178.73,-134.96,182,-5961,-5967,0,0,-1
127.00,178.73,-134.95,181,-5956,-5951,0,0,-1
127.01,178.72,-134.95,186,-5961,-5961,0,0,-1
127.01,178.72,-134.94,188,-5949,-5947,0,0,-1
127.01,178.71,-134.94,188,-5953,-5942,0,0,-1
127.01,178.71,-134.94,182,-5956,-5956,0,0,0
127.01,178.72,-134.93,178,-5966,-5947,0,0,-1
127.01,178.71,-134.93,180,-5960,-5942,-1,0,-1
127.01,178.71,-134.93,180,-5967,-5963,0,0,-1
127.01,178.71,-134.92,173,-5962,-5942,0,0,-1
127.01,178.71,-134.91,176,-5961,-5945,0,-1,-1
127.02,178.71,-134.91,176,-5964,-5939,0,0,-1
127.02,178.70,-134.91,186,-5971,-5951,-1,-1,0
127.02,178.70,-134.91,184,-5959,-5950,-1,0,-1
127.02,178.70,-134.90,177,-5970,-5953,0,-1,0
127.03,178.70,-134.89,183,-5960,-5918,-1,0,-1
127.02,178.69,-134.90,189,-5982,-5951,0,0,-1
127.02,178.69,-134.89,189,-5973,-5943,0,0,-1
127.02,178.69,-134.89,181,-5970,-5935,0,0,0
127.02,178.69,-134.89,178,-5969,-5935,-1,0,0
127.02,178.69,-134.89,191,-5976,-5951,0,0,-1
127.02,178.69,-134.89,197,-5975,-5945,-1,-1,0
127.02,178.69,-134.89,185,-5970,-5939,-1,0,-1
127.02,178.69,-134.90,185,-5971,-5950,-1,0,-1
127.01,178.69,-134.92,187,-5965,-5949,-1,0,-1
127.01,178.69,-134.92,187,-5965,-5961,0,-1,-1
127.00,178.68,-134.93,183,-5958,-5942,-1,0,-1
127.00,178.68,-134.93,189,-5962,-5951,-1,0,0
127.00,178.68,-134.93,195,-5963,-5951,0,0,0
127.00,178.68,-134.93,198,-5954,-5940,-1,0,-1
127.00,178.68,-134.94,199,-5955,-5949,-1,-1,0
126.99,178.68,-134.94,192,-5957,-5956,-1,0,0
126.99,178.68,-134.95,191,-5959,-5964,-1,0,-1
126.99,178.68,-134.96,183,-5963,-5954,-1,0,-1
126.98,178.68,-134.96,187,-5970,-5953,-1,0,-1
126.98,178.68,-134.97,190,-5966,-5947,-1,0,0
126.97,178.68,-134.98,190,-5955,-5950,-1,0,-1
126.97,178.68,-134.98,185,-5960,-5952,-1,0,-1
126.97,178.68,-134.98,185,-5962,-5956,-1,0,-1
126.97,178.68,-134.97,190,-5963,-5963,0,0,-1
126.97,178.68,-134.97,188,-5959,-5948,-1,0,-1
126.97,178.67,-134.98,191,-5967,-5946,-1,-1,0
126.96,178.68,-134.98,184,-5976,-5949,-1,-1,0
126.96,178.69,-134.99,183,-5961,-5946,-1,0,-1
126.96,178.69,-134.99,187,-5958,-5947,-1,-1,0
126.96,178.69,-134.99,185,-5963,-5942,-1,-1,0
126.96,178.69,-134.99,185,-5961,-5949,-1,-1,0
126.96,178.69,-135.00,185,-5954,-5942,-1,0,-1
126.95,178.69,-135.00,180,-5955,-5946,-1,-1,-1
126.95,178.70,-135.01,186,-5948,-5955,-1,-1,-1
126.95,178.69,-135.02,190,-5945,-5950,-1,-1,0
126.95,178.70,-135.02,192,-5945,-5952,-1,-1,-1
126.95,178.69,-135.03,193,-5947,-5960,-1,-1,0
126.95,178.70,-135.04,194,-5955,-5965,-1,-1,-1
126.95,178.70,-135.04,192,-5952,-5963,-1,0,-1
126.95,178.70,-135.04,187,-5950,-5959,-1,0,-1
126.95,178.70,-135.04,186,-5946,-5949,0,0,-1
126.95,178.70,-135.04,186,-5949,-5953,-1,0,-1
126.95,178.70,-135.04,186,-5953,-5956,-1,0,-1
126.95,178.70,-135.04,185,-5953,-5953,-1,0,0
126.95,178.70,-135.04,191,-5947,-5947,0,-1,0
126.95,178.70,-135.03,189,-5955,-5953,0,0,-1
126.95,178.69,-135.03,185,-5953,-5949,0,0,-1
