Yaw,Pitch,Roll,AX,AY,AZ,GX,GY,GZ
125.47,179.82,-131.46,15,-6319,-5605,0,0,-1
125.49,179.82,-131.45,27,-6334,-5614,0,-1,-1
125.49,179.82,-131.43,30,-6336,-5611,1,0,-1
125.50,179.82,-131.41,24,-6318,-5559,0,0,-1
125.50,179.81,-131.40,25,-6299,-5546,-1,0,-1
125.50,179.81,-131.41,18,-6302,-5543,-1,0,-1
125.48,179.80,-131.44,36,-6312,-5572,-1,0,-1
125.48,179.80,-131.46,28,-6315,-5586,-1,0,-1
125.46,179.80,-131.48,26,-6319,-5591,-1,-1,-1
125.46,179.80,-131.50,31,-6317,-5587,-1,-1,-1
125.46,179.80,-131.51,32,-6316,-5591,-1,-1,0
125.45,179.81,-131.54,28,-6303,-5573,-1,-1,-1
125.44,179.81,-131.56,33,-6303,-5590,-1,-1,0
125.43,179.82,-131.58,24,-6298,-5582,-1,-1,0
125.42,179.83,-131.60,19,-6307,-5595,-2,-1,0
125.40,179.84,-131.63,18,-6316,-5603,-1,-1,0
125.40,179.85,-131.65,18,-6303,-5581,-2,-1,0
125.39,179.85,-131.68,21,-6294,-5595,-1,-1,0
125.37,179.86,-131.70,23,-6293,-5614,-1,-1,0
125.36,179.87,-131.72,28,-6298,-5609,-1,-1,0
125.36,179.87,-131.71,19,-6293,-5595,-1,-1,0
125.36,179.88,-131.72,23,-6294,-5599,-1,-1,-1
125.35,179.88,-131.74,16,-6292,-5607,-1,-1,0
125.35,179.89,-131.74,24,-6284,-5599,-1,-1,0
125.35,179.90,-131.75,21,-6288,-5603,-1,-1,0
125.36,179.90,-131.75,23,-6286,-5601,-1,-1,0
125.35,179.91,-131.75,13,-6291,-5597,-1,-1,0
125.35,179.92,-131.76,16,-6278,-5595,-1,-1,0
125.33,179.92,-131.78,18,-6281,-5607,-1,-1,0
125.33,179.93,-131.79,13,-6283,-5605,-1,-1,0
125.33,179.93,-131.80,17,-6282,-5607,-1,-1,0
125.32,179.94,-131.81,15,-6281,-5613,-1,-1,0
125.32,179.94,-131.82,11,-6275,-5615,-1,-1,0
125.31,179.95,-131.83,10,-6284,-5620,-1,-1,0
125.31,179.95,-131.83,5,-6285,-5620,-1,-1,0
125.31,179.96,-131.84,8,-6281,-5620,-1,-1,0
125.31,179.96,-131.84,3,-6277,-5616,-1,-1,0
125.31,179.97,-131.84,4,-6283,-5619,-1,-1,0
125.30,179.98,-131.85,2,-6282,-5634,-1,-1,0
125.31,179.98,-131.85,7,-6275,-5634,-1,-1,0
125.30,179.98,-131.86,7,-6277,-5634,-1,-1,0
125.29,179.98,-131.86,7,-6263,-5631,-1,-1,0
125.29,179.99,-131.87,7,-6266,-5625,-1,-1,0
125.30,-180.00,-131.87,-2,-6269,-5617,-1,-1,0
125.30,-179.99,-131.87,-7,-6273,-5612,-1,-1,0
125.29,-179.98,-131.88,-8,-6279,-5635,-1,-1,0
125.29,-179.98,-131.88,4,-6275,-5625,-1,-1,0
125.29,-179.98,-131.89,2,-6273,-5627,-1,-1,0
125.28,-179.97,-131.90,-2,-6265,-5628,-1,-1,0
125.28,-179.97,-131.91,-7,-6265,-5629,-1,-1,0
125.28,-179.96,-131.91,-4,-6261,-5634,0,-1,0
125.27,-179.95,-131.91,0,-6269,-5643,-1,-1,0
125.27,-179.95,-131.91,-2,-6269,-5645,-1,-1,0
125.27,-179.95,-131.92,1,-6268,-5631,-1,-1,0
125.27,-179.94,-131.93,-6,-6264,-5623,-1,-1,0
125.26,-179.94,-131.93,-5,-6260,-5616,-1,-1,0
125.26,-179.94,-131.94,-12,-6253,-5614,-1,-1,0
125.26,-179.93,-131.94,-10,-6256,-5623,-1,-1,0
125.25,-179.93,-131.95,-14,-6262,-5624,-1,-1,0
125.25,-179.93,-131.96,-11,-6266,-5636,-1,-1,0
125.25,-179.92,-131.97,-8,-6273,-5639,-1,-1,0
125.24,-179.91,-131.98,-5,-6263,-5628,-1,-1,0
125.24,-179.91,-131.98,-11,-6256,-5627,-1,-1,0
125.23,-179.91,-132.00,-12,-6260,-5634,-1,-1,-1
125.22,-179.90,-132.01,-16,-6264,-5638,-1,-1,0
125.22,-179.91,-132.01,-13,-6268,-5641,-1,-1,0
125.22,-179.90,-132.02,-13,-6263,-5640,-1,-1,0
125.21,-179.90,-132.03,-10,-6258,-5632,-1,-1,0
125.20,-179.89,-132.05,-10,-6254,-5640,-1,-1,0
125.19,-179.89,-132.06,-8,-6257,-5640,-1,-1,0
125.19,-179.89,-132.07,-13,-6267,-5653,-1,-1,-1
125.19,-179.89,-132.08,-18,-6265,-5656,-1,-1,-1
125.18,-179.89,-132.08,-19,-6257,-5649,-1,-1,0
125.18,-179.88,-132.09,-18,-6256,-5651,-1,-1,-1
125.18,-179.88,-132.10,-18,-6251,-5649,-1,-1,-1
125.18,-179.88,-132.11,-15,-6254,-5655,-1,-1,-1
125.17,-179.89,-132.12,-16,-6248,-5653,-1,0,-1
125.16,-179.88,-132.13,-20,-6246,-5661,-1,-1,-1
125.16,-179.89,-132.13,-21,-6248,-5658,-1,-1,-1
125.16,-179.88,-132.14,-19,-6251,-5656,-1,-1,-1
125.16,-179.88,-132.14,-18,-6254,-5657,-1,-1,0
125.16,-179.89,-132.14,-20,-6253,-5649,-1,0,-1
125.16,-179.89,-132.15,-20,-6248,-5655,-1,-1,-1
125.16,-179.89,-132.15,-23,-6243,-5650,-1,0,-1
125.15,-179.89,-132.15,-17,-6244,-5646,-1,0,-1
125.15,-179.89,-132.15,-15,-6248,-5657,-1,0,-1
125.15,-179.89,-132.16,-12,-6248,-5653,-1,-1,-1
125.15,-179.89,-132.16,-14,-6245,-5643,-1,0,-1
125.14,-179.89,-132.18,-20,-6241,-5651,-1,0,-1
125.14,-179.89,-132.19,-19,-6243,-5659,-1,0,-1
125.13,-179.90,-132.19,-20,-6244,-5669,-1,0,-1
125.12,-179.89,-132.20,-23,-6241,-5675,-1,0,-1
125.12,-179.89,-132.20,-14,-6244,-5679,0,-1,0
125.12,-179.89,-132.20,-16,-6244,-5680,0,-1,0
125.12,-179.89,-132.20,-17,-6240,-5663,0,-1,0
125.12,-179.89,-132.20,-25,-6244,-5657,-1,0,-1
125.12,-179.89,-132.21,-21,-6242,-5649,-1,0,-1
125.12,-179.89,-132.21,-17,-6240,-5646,-1,0,-1
125.12,-179.90,-132.22,-15,-6237,-5654,-1,-1,-1
125.11,-179.89,-132.22,-10,-6241,-5658,-1,0,0
125.11,-179.89,-132.23,-18,-6241,-5667,-1,0,0
125.11,-179.89,-132.24,-22,-6239,-5657,-1,-1,-1
125.11,-179.89,-132.24,-12,-6237,-5651,-1,-1,-1
125.10,-179.90,-132.24,0,-6240,-5651,-1,-1,-1
125.10,-179.90,-132.24,-1,-6242,-5647,-1,-1,0
125.10,-179.90,-132.24,-9,-6243,-5659,-1,-1,-1
125.11,-179.89,-132.25,-4,-6242,-5664,-1,-1,-1
125.11,-179.89,-132.25,-11,-6247,-5666,-1,-1,0
125.11,-179.89,-132.25,-15,-6239,-5673,0,-1,-1
125.11,-179.89,-132.25,-11,-6227,-5663,-1,-1,0
125.09,-179.89,-132.25,-18,-6232,-5660,-1,0,-1
125.09,-179.89,-132.25,-19,-6229,-5658,-1,-1,-1
125.09,-179.89,-132.26,-19,-6239,-5663,-1,0,-1
125.09,-179.89,-132.27,-22,-6243,-5661,-1,0,-1
125.09,-179.89,-132.27,-22,-6242,-5659,-1,0,-1
125.08,-179.89,-132.28,-19,-6240,-5663,-1,0,-1
125.07,-179.89,-132.29,-19,-6236,-5672,-1,0,-1
125.07,-179.90,-132.30,-22,-6229,-5678,-1,0,-1
125.06,-179.90,-132.31,-22,-6237,-5682,-1,0,-1
125.06,-179.91,-132.32,-14,-6229,-5665,-1,0,-1
125.06,-179.91,-132.32,-14,-6228,-5667,-1,0,-1
125.05,-179.91,-132.32,-12,-6227,-5662,-1,0,-1
125.05,-179.91,-132.33,-10,-6229,-5669,-1,0,-1
125.04,-179.92,-132.34,-6,-6225,-5671,-1,0,-1
125.04,-179.92,-132.34,-17,-6223,-5661,-1,0,-1
125.03,-179.92,-132.35,-14,-6223,-5669,-1,0,-1
125.03,-179.93,-132.36,-10,-6227,-5674,-1,0,-1
125.03,-179.94,-132.37,-7,-6226,-5679,-1,0,-1
125.01,-179.94,-132.38,-11,-6228,-5679,-1,0,-1
125.01,-179.94,-132.38,-13,-6231,-5689,-1,0,-1
125.01,-179.94,-132.38,-9,-6230,-5676,-1,0,-1
125.00,-179.94,-132.39,-8,-6229,-5682,-1,0,-1
125.00,-179.95,-132.40,-7,-6225,-5678,-1,0,-1
125.00,-179.95,-132.40,-7,-6229,-5673,-1,0,-1
124.99,-179.95,-132.41,-14,-6223,-5683,-1,0,-1
124.99,-179.96,-132.42,-14,-6224,-5677,-1,0,-1
124.99,-179.96,-132.42,-8,-6232,-5681,-1,0,-1
124.99,-179.96,-132.42,-3,-6225,-5681,-1,0,-1
124.99,-179.96,-132.42,-3,-6226,-5682,-1,0,-1
124.99,-179.97,-132.43,-3,-6221,-5685,-1,0,-1
124.97,-179.97,-132.44,-5,-6223,-5690,-1,0,-1
124.97,-179.97,-132.45,-3,-6220,-5691,-1,0,-1
124.97,-179.98,-132.45,-8,-6217,-5690,-1,0,-1
124.97,-179.98,-132.45,-8,-6220,-5691,-1,0,-1
124.97,-179.98,-132.46,2,-6219,-5695,-1,0,-1
124.97,-179.98,-132.46,-7,-6225,-5690,-1,0,-1
124.96,-179.99,-132.47,-9,-6216,-5686,-1,0,-1
124.96,-179.99,-132.47,-7,-6216,-5680,-1,0,-1
124.96,-179.99,-132.47,-9,-6211,-5682,-1,0,-1
124.95,-179.99,-132.48,-2,-6210,-5687,-1,0,-1
124.95,-180.00,-132.49,-3,-6215,-5686,-1,0,-1
124.94,179.99,-132.49,3,-6213,-5683,-1,0,-1
124.94,180.00,-132.49,-5,-6213,-5692,-1,0,-1
124.94,179.99,-132.49,-4,-6209,-5682,-1,0,0
124.94,179.99,-132.50,-1,-6210,-5687,-1,0,-1
124.94,179.99,-132.50,0,-6215,-5686,-1,0,-1
124.93,179.99,-132.50,3,-6213,-5677,-1,0,-1
124.92,179.98,-132.51,-3,-6213,-5689,-1,0,-1
124.92,179.98,-132.52,-4,-6210,-5698,-1,0,-1
124.92,179.98,-132.52,0,-6212,-5693,-1,0,-1
124.92,179.98,-132.53,3,-6211,-5695,-1,0,-1
124.92,179.98,-132.53,-3,-6210,-5691,0,0,-1
124.92,179.98,-132.53,-10,-6212,-5695,0,0,-1
124.92,179.98,-132.53,-8,-6214,-5698,-1,0,-1
124.91,179.98,-132.53,-5,-6214,-5689,-1,0,-1
124.91,179.98,-132.54,-8,-6214,-5689,-1,0,-1
124.90,179.97,-132.54,-1,-6214,-5689,-1,0,-1
124.90,179.97,-132.54,3,-6216,-5686,-1,0,-1
124.90,179.97,-132.54,1,-6218,-5692,-1,0,-1
124.90,179.97,-132.55,2,-6215,-5694,-1,0,-1
124.90,179.97,-132.55,-2,-6211,-5695,-1,0,-1
124.90,179.97,-132.55,4,-6210,-5698,-1,0,-1
124.90,179.96,-132.55,-4,-6212,-5705,-1,0,-1
124.90,179.96,-132.56,-4,-6210,-5697,-1,0,-1
124.90,179.96,-132.56,2,-6206,-5690,-1,0,-1
124.88,179.96,-132.57,4,-6206,-5707,-1,0,-1
124.88,179.96,-132.57,2,-6209,-5709,-1,0,-1
124.88,179.95,-132.57,4,-6207,-5709,-1,0,0
124.88,179.95,-132.57,1,-6209,-5701,-1,0,-1
124.88,179.95,-132.57,1,-6209,-5709,-1,0,-1
124.88,179.94,-132.57,7,-6206,-5706,-1,0,-1
124.88,179.94,-132.58,8,-6208,-5705,-1,0,-1
124.88,179.94,-132.58,9,-6206,-5699,-1,0,-1
124.88,179.94,-132.58,10,-6206,-5697,-1,0,-1
124.87,179.93,-132.58,10,-6206,-5694,-1,0,-1
124.87,179.93,-132.58,15,-6207,-5690,-1,0,-1
124.87,179.93,-132.59,16,-6206,-5697,-1,0,-1
124.87,179.93,-132.59,7,-6210,-5704,-1,0,-1
124.86,179.93,-132.59,2,-6207,-5695,-1,-1,0
124.86,179.93,-132.60,1,-6206,-5698,-1,-1,-1
124.86,179.93,-132.60,2,-6212,-5699,-1,-1,-1
124.86,179.93,-132.60,7,-6206,-5702,-1,0,-1
124.86,179.93,-132.60,12,-6205,-5701,-1,-1,-1
124.86,179.93,-132.60,7,-6206,-5708,-1,-1,-1
124.86,179.93,-132.60,10,-6209,-5714,-1,0,-1
124.86,179.93,-132.61,6,-6204,-5710,-1,0,0
124.86,179.93,-132.61,4,-6198,-5704,-1,-1,0
124.86,179.93,-132.61,3,-6203,-5707,-1,-1,-1
124.86,179.93,-132.61,14,-6201,-5702,0,-1,-1
124.86,179.93,-132.61,17,-6207,-5705,0,0,-1
124.86,179.93,-132.60,18,-6207,-5696,0,-1,-1
124.86,179.93,-132.61,7,-6205,-5701,-1,-1,-1
124.86,179.93,-132.62,8,-6204,-5704,-1,-1,-1
124.86,179.93,-132.63,9,-6207,-5703,-1,0,-1
124.86,179.93,-132.63,10,-6210,-5708,-1,0,-1
124.86,179.93,-132.63,13,-6202,-5708,0,-1,-1
124.86,179.93,-132.63,6,-6195,-5716,0,-1,0
124.86,179.93,-132.62,3,-6200,-5711,0,-1,-1
124.86,179.93,-132.62,7,-6201,-5700,-1,-1,-1
124.86,179.93,-132.62,9,-6200,-5687,-1,0,-1
124.86,179.93,-132.62,9,-6203,-5694,-1,-1,-1
124.86,179.93,-132.63,9,-6201,-5703,-1,-1,0
124.85,179.93,-132.63,11,-6196,-5702,-1,-1,-1
124.86,179.93,-132.63,11,-6201,-5695,0,0,-1
124.86,179.93,-132.63,17,-6205,-5697,-1,-1,-1
124.86,179.93,-132.63,18,-6211,-5698,-1,-1,-1
124.86,179.93,-132.63,15,-6210,-5696,-1,-1,-1
124.86,179.93,-132.62,17,-6212,-5699,-1,-1,-1
124.85,179.93,-132.63,19,-6207,-5712,-1,0,-1
124.85,179.92,-132.64,19,-6205,-5713,-1,-1,-1
124.85,179.92,-132.64,15,-6195,-5700,-1,0,-1
124.85,179.93,-132.63,9,-6200,-5691,0,-1,-1
124.86,179.93,-132.62,8,-6194,-5691,0,-1,0
124.86,179.93,-132.62,3,-6193,-5683,-1,0,-1
124.86,179.93,-132.62,9,-6192,-5697,-1,0,-1
124.86,179.93,-132.63,3,-6195,-5708,-1,-1,-1
124.86,179.93,-132.63,7,-6199,-5707,-1,-1,-1
124.86,179.93,-132.63,2,-6198,-5708,0,-1,-1
124.86,179.93,-132.63,8,-6198,-5707,0,-1,-1
124.86,179.93,-132.62,9,-6194,-5694,-1,-1,0
124.86,179.93,-132.62,-2,-6193,-5704,-1,-1,-1
124.85,179.94,-132.63,-1,-6195,-5706,-1,-1,-1
124.86,179.93,-132.63,5,-6200,-5708,-1,-1,-1
124.86,179.93,-132.63,7,-6200,-5704,-1,-1,-1
124.86,179.93,-132.63,4,-6198,-5699,-1,-1,-1
124.86,179.94,-132.63,9,-6199,-5697,-1,-1,0
124.85,179.94,-132.63,3,-6198,-5701,-1,-1,0
124.86,179.94,-132.63,10,-6200,-5703,-1,-1,-1
124.86,179.94,-132.63,4,-6202,-5695,-1,-1,-1
124.85,179.94,-132.63,-2,-6199,-5699,0,0,-1
124.85,179.94,-132.63,1,-6195,-5688,0,-1,0
124.85,179.94,-132.63,11,-6196,-5698,-1,-1,-1
124.85,179.94,-132.63,11,-6200,-5700,0,-1,0
124.85,179.94,-132.63,8,-6196,-5701,-1,-1,0
124.85,179.94,-132.63,11,-6190,-5707,0,-1,-1
124.85,179.94,-132.63,17,-6201,-5711,0,-1,0
124.85,179.94,-132.63,12,-6208,-5707,-1,-1,-1
124.85,179.94,-132.63,7,-6200,-5696,-1,-1,-1
124.85,179.94,-132.63,7,-6201,-5699,-1,-1,-1
124.85,179.95,-132.63,0,-6204,-5699,-1,0,-1
124.85,179.95,-132.64,2,-6198,-5697,-1,0,-1
124.85,179.95,-132.64,7,-6190,-5701,0,-1,-1
124.85,179.95,-132.64,12,-6191,-5698,0,-1,0
124.85,179.95,-132.63,8,-6184,-5695,0,-1,0
124.85,179.95,-132.63,7,-6193,-5693,0,-1,-1
124.85,179.95,-132.63,9,-6200,-5698,0,-1,-1
124.85,179.95,-132.63,-1,-6207,-5698,0,-1,-1
124.85,179.95,-132.63,2,-6207,-5699,-1,0,-1
124.85,179.95,-132.63,3,-6204,-5702,-1,-1,0
124.85,179.95,-132.63,3,-6203,-5706,-1,-1,-1
124.85,179.95,-132.63,10,-6208,-5706,0,-1,-1
124.85,179.95,-132.63,12,-6204,-5704,-1,-1,-1
124.85,179.95,-132.63,15,-6208,-5712,-1,-1,0
124.85,179.95,-132.63,4,-6205,-5707,-1,-1,0
124.84,179.96,-132.64,0,-6203,-5708,-1,-1,-1
124.84,179.96,-132.64,10,-6198,-5706,-1,-1,-1
124.84,179.96,-132.65,5,-6194,-5711,-1,-1,-1
124.84,179.96,-132.65,4,-6195,-5707,0,-1,0
124.84,179.96,-132.64,2,-6198,-5699,0,-1,0
124.84,179.97,-132.64,4,-6205,-5697,0,-1,0
124.84,179.97,-132.64,6,-6195,-5710,0,-1,0
124.84,179.97,-132.64,3,-6197,-5705,0,0,-1
124.84,179.97,-132.64,1,-6202,-5712,-1,-1,0
124.84,179.97,-132.64,6,-6197,-5708,-1,-1,0
124.84,179.97,-132.64,13,-6198,-5707,0,-1,-1
124.84,179.97,-132.64,16,-6193,-5712,0,-1,-1
124.84,179.97,-132.64,13,-6191,-5716,0,-1,-1
124.84,179.97,-132.64,7,-6194,-5718,-1,-1,0
124.84,179.97,-132.64,6,-6193,-5709,-1,-1,-1
124.84,179.97,-132.64,1,-6191,-5708,-1,-1,-1
124.84,179.97,-132.64,-3,-6193,-5712,0,-1,-1
124.84,179.98,-132.64,-2,-6196,-5712,0,-1,-1
124.86,179.97,-132.63,0,-6195,-5703,0,-1,0
124.85,179.98,-132.63,3,-6197,-5691,0,-1,0
124.85,179.98,-132.63,-2,-6196,-5701,-1,0,-1
124.84,179.98,-132.63,8,-6197,-5703,-1,0,-1
124.84,179.98,-132.63,10,-6195,-5705,0,-1,-1
124.84,179.98,-132.63,14,-6194,-5705,0,0,0
124.84,179.97,-132.63,9,-6195,-5702,0,0,-1
124.85,179.97,-132.63,10,-6208,-5699,0,-1,-1
124.86,179.97,-132.63,9,-6206,-5704,-1,-1,-1
124.84,179.97,-132.63,4,-6201,-5706,-1,-1,-1
124.84,179.97,-132.64,1,-6200,-5705,-1,-1,-1
124.84,179.97,-132.64,-3,-6195,-5706,-1,0,-1
124.84,179.97,-132.65,0,-6196,-5713,-1,-1,-1
124.84,179.97,-132.64,-6,-6192,-5715,0,-1,-1
124.84,179.97,-132.64,-4,-6190,-5719,0,0,0
124.84,179.97,-132.64,0,-6197,-5711,0,-1,0
124.84,179.97,-132.64,-2,-6203,-5720,0,-1,-1
124.84,179.97,-132.64,4,-6205,-5718,0,0,-1
124.84,179.98,-132.63,4,-6198,-5709,0,-1,-1
124.84,179.97,-132.64,3,-6197,-5705,-1,0,-1
124.84,179.97,-132.64,5,-6204,-5711,-1,-1,-1
124.84,179.97,-132.64,7,-6203,-5711,0,-1,0
124.84,179.97,-132.64,8,-6194,-5697,-1,-1,-1
124.84,179.97,-132.64,5,-6190,-5697,-1,-1,-1
124.84,179.97,-132.64,8,-6193,-5702,-1,-1,-1
124.84,179.97,-132.64,6,-6194,-5702,0,-1,-1
124.84,179.98,-132.63,7,-6208,-5707,0,-1,0
124.84,179.98,-132.63,3,-6209,-5711,-1,-1,0
124.84,179.98,-132.63,5,-6198,-5712,0,0,-1
124.84,179.97,-132.64,2,-6196,-5715,-1,-1,0
124.84,179.98,-132.63,1,-6193,-5710,0,-1,-1
124.84,179.98,-132.63,6,-6193,-5701,-1,-1,-1
124.84,179.98,-132.63,5,-6195,-5705,-1,0,-1
124.84,179.97,-132.64,1,-6202,-5711,-1,0,-1
124.84,179.97,-132.64,6,-6201,-5716,-1,0,-1
124.84,179.97,-132.64,3,-6201,-5706,-1,-1,-1
124.84,179.97,-132.64,-2,-6194,-5701,-1,0,-1
124.84,179.97,-132.65,0,-6196,-5702,-1,-1,-1
124.84,179.97,-132.65,2,-6194,-5715,-1,0,-1
124.84,179.97,-132.65,6,-6195,-5711,0,0,-1
124.84,179.97,-132.65,6,-6198,-5705,-1,-1,0
124.84,179.97,-132.65,0,-6195,-5707,0,-1,-1
124.84,179.97,-132.65,0,-6189,-5698,-1,0,-1
124.84,179.97,-132.65,11,-6189,-5698,-1,-1,-1
124.84,179.96,-132.65,7,-6188,-5707,-1,0,0
124.83,179.97,-132.66,3,-6195,-5709,-1,0,-1
124.83,179.97,-132.66,3,-6197,-5713,-1,0,0
124.83,179.97,-132.66,6,-6194,-5713,0,-1,-1
124.83,179.97,-132.66,1,-6193,-5706,0,-1,0
124.83,179.97,-132.65,1,-6192,-5709,0,0,-1
124.83,179.97,-132.65,0,-6193,-5700,-1,0,-1
124.83,179.96,-132.66,4,-6196,-5706,-1,0,-1
124.82,179.96,-132.67,2,-6192,-5712,-1,0,-1
124.83,179.96,-132.67,7,-6189,-5711,-1,0,-1
124.82,179.96,-132.68,5,-6194,-5708,-1,0,-1
124.82,179.95,-132.67,7,-6194,-5709,0,0,-1
124.82,179.96,-132.67,7,-6192,-5708,0,-1,0
124.82,179.96,-132.67,10,-6195,-5709,0,-1,-1
124.82,179.96,-132.67,2,-6196,-5695,0,-1,-1
124.82,179.96,-132.67,6,-6202,-5700,-1,0,-1
124.82,179.95,-132.66,9,-6210,-5706,-1,0,-1
124.82,179.95,-132.66,7,-6206,-5712,-1,0,-1
124.82,179.95,-132.67,16,-6201,-5706,-1,0,-1
124.82,179.95,-132.67,15,-6195,-5707,-1,-1,-1
124.82,179.95,-132.67,13,-6194,-5709,0,0,-1
124.82,179.95,-132.66,17,-6193,-5702,-1,0,-1
124.82,179.95,-132.66,8,-6193,-5707,-1,0,-1
124.82,179.95,-132.67,4,-6195,-5709,-1,-1,-1
124.82,179.95,-132.68,8,-6193,-5716,-1,0,0
124.82,179.95,-132.68,13,-6193,-5717,-1,0,0
124.82,179.94,-132.68,16,-6189,-5720,0,0,-1
124.82,179.94,-132.68,16,-6197,-5718,0,-1,0
124.82,179.94,-132.67,14,-6201,-5718,0,-1,0
124.82,179.94,-132.67,13,-6198,-5717,0,0,0
124.82,179.94,-132.67,11,-6202,-5718,0,0,-1
124.83,179.93,-132.67,12,-6203,-5711,-1,0,-1
124.83,179.94,-132.67,6,-6198,-5715,-1,-1,0
124.82,179.94,-132.67,8,-6196,-5707,0,-1,0
124.82,179.94,-132.67,4,-6192,-5708,0,0,0
124.83,179.94,-132.66,6,-6193,-5703,0,0,-1
124.83,179.94,-132.66,12,-6198,-5702,0,-1,0
124.83,179.94,-132.66,10,-6202,-5709,0,-1,0
124.83,179.94,-132.66,8,-6203,-5705,0,-1,0
124.83,179.94,-132.65,7,-6208,-5704,-1,-1,0
124.83,179.94,-132.65,12,-6202,-5708,-1,-1,-1
124.83,179.94,-132.66,17,-6198,-5716,-1,0,0
124.83,179.94,-132.66,13,-6193,-5714,0,0,-1
124.83,179.93,-132.66,14,-6191,-5709,0,-1,0
124.83,179.94,-132.65,10,-6195,-5704,0,-1,0
124.83,179.94,-132.65,3,-6194,-5713,0,0,0
124.83,179.94,-132.65,4,-6198,-5705,0,0,0
124.83,179.94,-132.65,4,-6197,-5704,-1,0,0
124.83,179.94,-132.65,8,-6193,-5705,-1,-1,0
124.83,179.93,-132.66,14,-6191,-5720,0,0,0
124.83,179.93,-132.64,20,-6192,-5708,0,0,-1
124.83,179.93,-132.64,19,-6198,-5705,0,0,-1
124.83,179.93,-132.64,16,-6188,-5703,-1,-1,-1
124.83,179.93,-132.65,9,-6191,-5711,-1,-1,-1
124.83,179.93,-132.66,7,-6197,-5719,-1,-1,0
124.83,179.93,-132.66,11,-6189,-5725,-1,0,0
124.83,179.93,-132.66,15,-6195,-5724,0,-1,-1
124.83,179.92,-132.66,13,-6192,-5729,0,0,-1
124.83,179.92,-132.66,7,-6189,-5723,0,0,0
124.83,179.93,-132.65,11,-6191,-5715,0,0,0
124.83,179.93,-132.65,12,-6196,-5710,0,0,0
124.83,179.93,-132.65,19,-6202,-5717,-1,0,0
124.82,179.92,-132.65,17,-6198,-5707,-1,-1,0
124.82,179.92,-132.65,16,-6192,-5710,0,0,0
124.82,179.92,-132.65,12,-6194,-5714,0,-1,0
124.83,179.92,-132.65,9,-6198,-5709,0,-1,0
124.83,179.92,-132.65,12,-6200,-5712,0,0,-1
124.83,179.92,-132.65,4,-6197,-5719,0,-1,0
124.83,179.93,-132.65,5,-6201,-5724,-1,-1,0
124.81,179.93,-132.66,7,-6194,-5726,-1,0,-1
124.83,179.92,-132.66,12,-6190,-5719,0,-1,0
124.81,179.93,-132.66,5,-6185,-5709,-1,0,0
124.81,179.93,-132.66,4,-6185,-5709,-1,-1,-1
124.81,179.93,-132.66,7,-6186,-5709,0,0,0
124.81,179.93,-132.66,13,-6196,-5710,0,-1,0
124.82,179.92,-132.65,15,-6198,-5703,0,0,0
124.82,179.92,-132.65,15,-6193,-5706,-1,0,0
124.82,179.92,-132.65,9,-6190,-5710,0,0,-1
124.82,179.92,-132.65,6,-6190,-5709,-1,-1,0
124.82,179.92,-132.65,6,-6193,-5710,0,-1,0
124.82,179.92,-132.65,8,-6194,-5716,0,-1,0
124.82,179.92,-132.65,12,-6186,-5714,0,0,0
124.83,179.93,-132.64,13,-6191,-5719,0,0,0
124.82,179.93,-132.64,2,-6195,-5730,0,-1,0
124.82,179.93,-132.65,1,-6195,-5717,0,-1,0
124.82,179.93,-132.65,1,-6196,-5720,0,-1,0
124.82,179.93,-132.65,4,-6192,-5704,0,-1,-1
124.82,179.94,-132.64,3,-6194,-5702,0,-1,0
124.82,179.94,-132.64,4,-6192,-5710,0,-1,-1
124.83,179.93,-132.64,13,-6193,-5714,0,-1,0
124.83,179.93,-132.64,12,-6195,-5709,-1,0,-1
124.83,179.93,-132.64,6,-6197,-5709,-1,-1,0
124.83,179.93,-132.64,15,-6192,-5712,0,-1,0
124.83,179.93,-132.64,5,-6193,-5715,0,-1,0
124.83,179.93,-132.63,5,-6189,-5706,0,-1,0
124.83,179.93,-132.63,3,-6190,-5710,-1,-1,-1
124.84,179.94,-132.63,5,-6187,-5707,-1,-1,-1
124.83,179.93,-132.64,7,-6189,-5716,-1,-1,0
124.83,179.94,-132.65,7,-6187,-5726,-1,0,0
124.82,179.94,-132.65,4,-6185,-5724,0,-1,0
124.82,179.94,-132.65,8,-6190,-5726,0,0,0
124.82,179.94,-132.65,10,-6186,-5723,0,0,-1
124.82,179.94,-132.64,6,-6189,-5719,0,-1,0
124.82,179.94,-132.64,7,-6196,-5719,0,0,0
124.82,179.94,-132.64,4,-6198,-5719,0,-1,0
124.82,179.94,-132.64,3,-6202,-5715,0,-1,0
124.82,179.94,-132.64,1,-6199,-5716,0,-1,0
124.82,179.94,-132.64,5,-6193,-5710,-1,-1,0
124.82,179.94,-132.64,11,-6195,-5715,0,0,0
124.82,179.94,-132.64,11,-6199,-5719,0,-1,0
124.82,179.95,-132.64,8,-6200,-5714,0,-1,0
124.83,179.95,-132.64,11,-6196,-5718,0,-1,0
124.82,179.95,-132.64,14,-6201,-5721,-1,-1,0
124.82,179.94,-132.64,18,-6197,-5716,-1,0,0
124.82,179.94,-132.64,14,-6196,-5726,-1,-1,0
124.82,179.94,-132.64,19,-6193,-5730,0,-1,0
124.82,179.94,-132.64,20,-6194,-5717,0,-1,0
124.82,179.94,-132.64,10,-6189,-5710,0,-1,0
124.82,179.94,-132.64,4,-6183,-5711,-1,-1,0
124.82,179.94,-132.64,7,-6185,-5709,0,0,0
124.82,179.94,-132.64,9,-6187,-5705,0,0,0
124.82,179.94,-132.64,7,-6194,-5709,0,0,0
124.82,179.94,-132.64,9,-6202,-5705,-1,-1,0
124.82,179.94,-132.64,8,-6194,-5701,-1,-1,-1
124.82,179.94,-132.64,6,-6193,-5702,-1,-1,-1
124.82,179.94,-132.64,7,-6189,-5702,-1,0,0
124.82,179.94,-132.64,6,-6193,-5719,-1,-1,0
124.82,179.95,-132.65,6,-6190,-5720,0,-1,0
124.82,179.95,-132.65,4,-6190,-5716,0,-1,0
124.82,179.95,-132.65,9,-6191,-5720,0,-1,0
124.82,179.95,-132.65,12,-6194,-5722,0,-1,0
124.82,179.95,-132.65,6,-6189,-5719,0,-1,0
124.82,179.95,-132.65,7,-6187,-5713,-1,-1,0
124.81,179.95,-132.65,7,-6188,-5718,-1,0,0
124.81,179.95,-132.65,8,-6192,-5716,0,-1,0
124.82,179.95,-132.65,4,-6187,-5710,0,-1,0
124.83,179.95,-132.64,10,-6189,-5714,0,0,0
124.83,179.95,-132.64,9,-6193,-5713,0,-1,0
124.83,179.95,-132.64,7,-6194,-5707,-1,-1,0
124.82,179.96,-132.64,1,-6197,-5698,-1,-1,0
124.81,179.96,-132.65,2,-6193,-5701,-1,0,-1
124.81,179.95,-132.66,5,-6190,-5712,-1,0,-1
124.81,179.95,-132.66,3,-6189,-5722,0,-1,0
124.81,179.95,-132.66,6,-6184,-5721,0,-1,0
124.82,179.96,-132.65,3,-6186,-5711,0,-1,0
124.82,179.96,-132.65,3,-6187,-5715,0,-1,0
124.82,179.96,-132.64,0,-6193,-5717,0,0,0
124.82,179.96,-132.64,-2,-6197,-5708,0,0,0
124.82,179.96,-132.64,-5,-6196,-5703,-1,-1,0
124.82,179.96,-132.64,4,-6193,-5709,-1,-1,-1
124.82,179.96,-132.64,10,-6193,-5708,0,0,0
124.82,179.96,-132.64,9,-6190,-5700,0,-1,0
124.82,179.96,-132.64,10,-6193,-5704,0,-1,0
124.82,179.96,-132.64,10,-6188,-5711,-1,-1,0
124.82,179.96,-132.64,8,-6188,-5721,-1,-1,0
124.82,179.96,-132.64,8,-6188,-5718,-1,-1,0
124.82,179.97,-132.65,6,-6184,-5722,-1,-1,-1
124.82,179.96,-132.65,4,-6179,-5726,0,-1,-1
124.82,179.97,-132.65,6,-6175,-5717,0,-1,0
124.82,179.97,-132.65,5,-6179,-5717,0,-1,0
124.82,179.97,-132.64,10,-6183,-5716,0,-1,0
124.82,179.97,-132.64,3,-6194,-5716,-1,-1,-1
124.82,179.97,-132.64,7,-6188,-5710,-1,-1,0
124.82,179.97,-132.65,-2,-6185,-5724,0,-1,0
124.82,179.97,-132.65,-1,-6184,-5722,0,-1,0
124.82,179.97,-132.65,0,-6187,-5714,0,-1,0
124.82,179.97,-132.65,-3,-6189,-5714,0,0,-1
124.82,179.97,-132.65,-4,-6189,-5706,0,-1,-1
124.82,179.97,-132.64,6,-6190,-5703,0,-1,0
124.82,179.97,-132.64,7,-6189,-5708,0,0,-1
124.82,179.97,-132.64,5,-6192,-5702,0,-1,0
124.82,179.97,-132.64,2,-6185,-5704,0,-1,0
124.82,179.97,-132.64,7,-6187,-5707,0,-1,0
124.82,179.97,-132.64,4,-6190,-5721,0,0,-1
124.82,179.97,-132.64,7,-6198,-5711,0,0,0
124.82,179.97,-132.64,7,-6195,-5708,0,-1,0
124.82,179.97,-132.64,5,-6193,-5712,0,-1,0
124.82,179.97,-132.63,6,-6184,-5714,0,0,0
124.82,179.97,-132.63,5,-6191,-5724,0,0,-1
124.82,179.97,-132.63,5,-6197,-5707,0,0,-1
124.82,179.97,-132.63,10,-6191,-5699,-1,-1,-1
124.82,179.96,-132.64,6,-6185,-5707,-1,-1,0
124.82,179.97,-132.64,4,-6195,-5715,0,-1,0
124.82,179.96,-132.64,6,-6194,-5711,-1,0,0
124.82,179.96,-132.64,3,-6189,-5720,-1,-1,-1
124.82,179.97,-132.64,4,-6186,-5721,0,-1,0
124.82,179.97,-132.64,0,-6188,-5720,0,0,0
124.82,179.96,-132.64,1,-6192,-5714,0,-1,0
124.82,179.97,-132.63,2,-6198,-5703,0,0,0
124.82,179.97,-132.63,7,-6195,-5708,0,-1,0
124.82,179.97,-132.63,5,-6187,-5707,-1,-1,-1
124.82,179.96,-132.64,2,-6185,-5701,-1,-1,-1
124.82,179.96,-132.64,7,-6194,-5709,-1,-1,0
124.82,179.96,-132.64,14,-6192,-5711,0,0,-1
124.82,179.96,-132.64,15,-6191,-5710,0,0,0
124.82,179.96,-132.64,15,-6186,-5710,0,-1,0
124.82,179.96,-132.64,14,-6192,-5708,-1,-1,0
124.82,179.96,-132.64,8,-6194,-5713,0,0,-1
124.82,179.96,-132.64,13,-6191,-5726,0,0,0
124.82,179.96,-132.64,10,-6192,-5717,0,0,-1
124.82,179.96,-132.64,8,-6195,-5717,0,-1,0
124.82,179.96,-132.64,10,-6196,-5707,0,-1,0
124.82,179.96,-132.64,5,-6196,-5716,0,-1,0
124.82,179.96,-132.64,7,-6199,-5720,0,-1,0
124.82,179.96,-132.63,1,-6197,-5718,0,-1,-1
124.82,179.96,-132.63,8,-6195,-5704,0,0,0
124.82,179.96,-132.62,12,-6193,-5698,0,-1,0
124.82,179.96,-132.63,7,-6191,-5704,0,-1,0
124.82,179.96,-132.63,6,-6195,-5713,-1,0,-1
124.82,179.95,-132.63,7,-6192,-5715,0,0,-1
124.83,179.95,-132.63,4,-6189,-5715,0,-1,0
124.82,179.95,-132.63,4,-6198,-5714,0,-1,0
124.82,179.95,-132.63,12,-6194,-5713,-1,0,0
124.82,179.95,-132.63,13,-6201,-5712,-1,-1,0
124.82,179.95,-132.63,11,-6199,-5711,0,-1,0
124.82,179.95,-132.63,7,-6192,-5722,0,0,0
124.82,179.96,-132.63,9,-6194,-5721,-1,0,0
124.82,179.95,-132.63,11,-6196,-5716,0,0,-1
124.82,179.95,-132.63,7,-6191,-5720,0,0,0
124.82,179.95,-132.63,13,-6189,-5716,0,0,-1
124.82,179.95,-132.63,10,-6200,-5710,-1,0,0
124.82,179.95,-132.64,14,-6194,-5710,-1,0,0
124.82,179.95,-132.64,8,-6193,-5714,0,-1,0
124.82,179.95,-132.64,11,-6189,-5709,0,-1,0
124.82,179.95,-132.63,12,-6189,-5708,0,0,-1
124.82,179.95,-132.63,3,-6196,-5702,0,0,0
124.83,179.95,-132.63,7,-6195,-5703,-1,-1,-1
124.82,179.95,-132.63,7,-6192,-5714,-1,-1,0
124.81,179.94,-132.63,10,-6193,-5704,-1,0,-1
124.81,179.95,-132.64,8,-6190,-5708,-1,0,0
124.81,179.94,-132.63,2,-6191,-5711,0,0,-1
124.81,179.94,-132.64,7,-6187,-5718,0,-1,0
124.81,179.94,-132.63,6,-6185,-5715,0,0,0
124.82,179.95,-132.63,7,-6189,-5718,0,-1,0
124.82,179.95,-132.63,0,-6191,-5720,0,0,0
124.82,179.95,-132.63,-1,-6191,-5722,-1,0,-1
124.82,179.95,-132.63,5,-6191,-5711,-1,0,-1
124.81,179.94,-132.64,14,-6188,-5712,-1,0,0
124.81,179.94,-132.64,6,-6193,-5717,0,-1,0
124.81,179.94,-132.64,8,-6190,-5722,0,0,0
124.81,179.94,-132.64,19,-6189,-5723,0,-1,0
124.81,179.94,-132.64,8,-6190,-5722,0,-1,0
124.81,179.94,-132.64,7,-6183,-5710,-1,-1,0
124.81,179.94,-132.64,10,-6192,-5707,-1,0,0
124.81,179.94,-132.65,8,-6188,-5709,-1,0,-1
124.81,179.94,-132.65,6,-6180,-5723,0,0,0
124.81,179.94,-132.65,7,-6187,-5722,0,0,0
124.80,179.94,-132.65,3,-6187,-5721,0,-1,0
124.80,179.94,-132.65,3,-6187,-5720,0,0,0
124.80,179.94,-132.65,0,-6195,-5713,-1,0,0
124.80,179.94,-132.65,5,-6192,-5715,-1,0,0
124.80,179.94,-132.65,6,-6187,-5718,0,0,0
124.80,179.94,-132.65,9,-6187,-5721,0,0,-1
124.80,179.94,-132.65,9,-6187,-5710,0,-1,0
124.80,179.94,-132.65,10,-6193,-5716,0,-1,-1
124.80,179.94,-132.65,11,-6194,-5709,0,-1,-1
124.81,179.94,-132.65,15,-6199,-5711,-1,-1,0
124.81,179.94,-132.65,20,-6201,-5708,-1,-1,0
124.81,179.94,-132.65,14,-6195,-5710,0,-1,0
124.80,179.94,-132.65,6,-6189,-5711,0,-1,0
124.80,179.94,-132.65,14,-6189,-5713,0,-1,-1
124.80,179.94,-132.64,16,-6191,-5715,-1,-1,0
124.80,179.94,-132.65,11,-6188,-5729,-1,0,0
124.80,179.94,-132.65,13,-6188,-5737,-1,-1,0
124.80,179.94,-132.65,15,-6189,-5725,0,-1,0
124.80,179.94,-132.65,14,-6190,-5725,0,0,0
124.80,179.94,-132.65,15,-6184,-5725,0,0,0
124.80,179.93,-132.65,14,-6190,-5717,0,0,0
124.80,179.93,-132.65,22,-6186,-5719,0,-1,0
124.80,179.93,-132.65,21,-6185,-5718,0,-1,0
124.80,179.93,-132.65,17,-6195,-5716,0,-1,0
124.80,179.94,-132.64,13,-6196,-5707,0,-1,0
124.80,179.94,-132.64,12,-6194,-5713,-1,-1,-1
124.80,179.93,-132.64,5,-6195,-5704,-1,-1,0
124.80,179.94,-132.65,2,-6197,-5717,-1,-1,-1
124.80,179.94,-132.65,4,-6194,-5721,0,0,-1
124.80,179.93,-132.65,9,-6183,-5715,0,-1,0
124.80,179.94,-132.65,2,-6176,-5715,0,-1,0
124.80,179.94,-132.65,6,-6179,-5719,0,-1,0
124.80,179.94,-132.65,11,-6182,-5719,0,-1,0
124.80,179.94,-132.65,6,-6193,-5728,0,0,0
124.80,179.94,-132.65,9,-6199,-5721,0,0,0
124.80,179.93,-132.65,12,-6192,-5717,0,-1,0
124.80,179.94,-132.65,12,-6187,-5708,-1,-1,0
124.80,179.94,-132.65,10,-6190,-5715,-1,-1,0
124.80,179.94,-132.65,15,-6192,-5709,0,-1,0
124.80,179.94,-132.65,9,-6186,-5702,0,0,0
124.80,179.94,-132.65,13,-6188,-5703,-1,-1,-1
124.80,179.94,-132.65,13,-6194,-5711,-1,-1,0
124.80,179.94,-132.65,10,-6197,-5712,0,-1,0
124.80,179.94,-132.65,5,-6189,-5698,0,-1,0
124.80,179.95,-132.65,6,-6184,-5712,0,-1,0
124.80,179.94,-132.65,8,-6188,-5715,0,-1,0
124.80,179.94,-132.65,11,-6185,-5713,0,-1,0
124.80,179.94,-132.65,8,-6192,-5713,0,0,-1
124.81,179.94,-132.64,8,-6197,-5712,0,-1,0
124.81,179.94,-132.63,0,-6197,-5706,0,-1,0
124.82,179.94,-132.62,6,-6198,-5705,0,0,-1
124.82,179.94,-132.62,8,-6196,-5699,-1,0,0
124.81,179.94,-132.63,11,-6195,-5706,-1,-1,0
124.80,179.95,-132.63,5,-6190,-5705,-1,-1,0
124.81,179.95,-132.64,4,-6188,-5709,-1,-1,0
124.81,179.95,-132.64,2,-6189,-5705,-1,-1,0
124.80,179.95,-132.64,0,-6190,-5702,-1,0,-1
124.80,179.95,-132.64,12,-6197,-5714,-1,-1,-1
124.81,179.95,-132.64,18,-6199,-5717,0,-1,-1
124.81,179.95,-132.64,10,-6193,-5710,0,-1,0
124.81,179.95,-132.64,10,-6190,-5708,0,-1,-1
124.81,179.95,-132.64,12,-6191,-5703,-1,-1,0
124.81,179.94,-132.65,15,-6185,-5719,-1,-1,0
124.81,179.95,-132.65,15,-6178,-5725,0,-1,0
124.81,179.94,-132.65,15,-6179,-5723,0,-1,0
124.81,179.95,-132.64,12,-6185,-5721,0,-1,0
124.82,179.95,-132.64,18,-6197,-5717,0,-1,0
124.82,179.95,-132.63,16,-6204,-5712,0,-1,0
124.82,179.95,-132.62,8,-6200,-5708,0,-1,0
124.82,179.95,-132.62,10,-6202,-5704,-1,0,0
124.82,179.96,-132.62,2,-6204,-5709,-1,-1,0
124.81,179.96,-132.63,2,-6195,-5708,-1,0,-1
124.81,179.95,-132.64,11,-6198,-5707,-1,0,-1
124.80,179.95,-132.64,14,-6199,-5714,-1,0,-1
124.80,179.95,-132.64,11,-6190,-5719,-1,0,0
124.80,179.95,-132.65,10,-6189,-5727,-1,-1,0
124.80,179.95,-132.65,12,-6187,-5711,0,-1,0
124.80,179.95,-132.65,15,-6190,-5712,0,-1,0
124.80,179.95,-132.65,5,-6190,-5713,0,-1,0
124.81,179.96,-132.65,7,-6192,-5715,0,-1,0
124.81,179.96,-132.64,9,-6196,-5721,0,-1,0
124.81,179.95,-132.64,13,-6199,-5719,0,-1,0
124.81,179.95,-132.64,7,-6198,-5718,0,-1,0
124.81,179.96,-132.64,3,-6193,-5721,-1,-1,0
124.81,179.96,-132.64,0,-6193,-5721,-1,-1,0
124.81,179.96,-132.64,2,-6196,-5718,-1,-1,0
124.81,179.96,-132.64,10,-6197,-5715,-1,-1,0
124.81,179.96,-132.65,8,-6190,-5717,-1,0,-1
124.80,179.96,-132.65,8,-6190,-5722,-1,-1,-1
124.79,179.96,-132.66,12,-6187,-5714,-1,-1,0
124.79,179.96,-132.67,8,-6183,-5714,-1,-1,0
124.79,179.96,-132.67,19,-6181,-5708,0,-1,0
124.79,179.96,-132.67,17,-6183,-5714,0,-1,0
124.79,179.96,-132.66,10,-6189,-5721,0,-1,0
124.79,179.96,-132.66,0,-6193,-5713,0,-1,0
124.81,179.97,-132.66,-5,-6186,-5712,0,-1,0
124.81,179.97,-132.66,-2,-6185,-5718,0,-1,0
124.81,179.98,-132.66,-4,-6179,-5716,0,-1,0
124.81,179.98,-132.66,1,-6182,-5721,0,-1,0
124.81,179.98,-132.66,4,-6188,-5724,0,-1,0
124.81,179.98,-132.65,3,-6189,-5719,0,-1,0
124.81,179.99,-132.65,3,-6192,-5716,0,-1,0
124.82,179.99,-132.64,3,-6197,-5709,0,-1,0
124.82,179.99,-132.64,-2,-6196,-5702,0,-1,0
124.82,179.99,-132.64,-2,-6191,-5711,-1,0,-1
124.82,179.99,-132.64,-3,-6194,-5717,0,-1,0
124.82,179.99,-132.64,-2,-6191,-5725,0,-1,0
124.83,179.99,-132.64,2,-6193,-5736,0,-1,0
124.83,179.99,-132.63,3,-6192,-5725,0,-1,0
124.83,179.99,-132.63,5,-6198,-5725,0,-1,0
124.83,180.00,-132.63,0,-6194,-5716,0,-1,0
124.83,180.00,-132.62,8,-6193,-5718,0,-1,-1
124.83,180.00,-132.62,1,-6192,-5715,0,-1,-1
124.84,180.00,-132.62,4,-6193,-5714,0,-1,-1
124.84,180.00,-132.62,2,-6187,-5711,0,-1,0
124.84,180.00,-132.62,2,-6194,-5722,0,-1,0
124.84,-180.00,-132.62,5,-6195,-5727,0,0,0
124.84,180.00,-132.62,1,-6191,-5729,0,-1,0
124.85,-180.00,-132.61,-4,-6189,-5716,0,-1,-1
124.85,-179.99,-132.61,6,-6195,-5712,0,-1,0
124.85,180.00,-132.60,5,-6197,-5719,0,0,0
124.85,-180.00,-132.60,-5,-6202,-5711,0,0,0
124.85,-180.00,-132.59,-6,-6194,-5703,-1,0,0
124.85,-180.00,-132.60,-2,-6191,-5695,-1,0,0
124.85,180.00,-132.60,-4,-6191,-5712,-1,-1,0
124.85,180.00,-132.60,8,-6192,-5708,0,-1,0
124.85,-180.00,-132.60,2,-6190,-5702,0,-1,0
124.85,-180.00,-132.59,-8,-6196,-5702,0,-1,0
124.85,-180.00,-132.59,-1,-6194,-5696,0,-1,0
124.85,-179.99,-132.58,-2,-6191,-5695,0,-1,0
124.86,-179.98,-132.58,-9,-6200,-5702,0,-1,0
124.86,-179.98,-132.58,-16,-6191,-5708,0,-1,0
124.86,-179.98,-132.58,-10,-6187,-5697,0,-1,0
124.86,-179.97,-132.57,-6,-6196,-5701,0,-1,0
124.86,-179.97,-132.57,-12,-6196,-5702,0,-1,0
124.86,-179.97,-132.57,-4,-6204,-5708,0,0,0
124.86,-179.98,-132.56,2,-6205,-5713,-1,0,0
124.86,-179.98,-132.57,7,-6202,-5709,-1,0,-1
124.86,-179.98,-132.58,3,-6208,-5715,-1,0,-1
124.86,-179.98,-132.58,1,-6203,-5714,-1,0,0
124.86,-179.99,-132.58,5,-6200,-5718,-1,0,-1
124.84,-179.99,-132.59,7,-6197,-5716,-1,0,0
124.84,-179.99,-132.60,3,-6199,-5709,-1,0,-1
124.84,-180.00,-132.60,0,-6190,-5720,-1,0,-1
124.83,180.00,-132.61,1,-6191,-5722,-1,0,-1
124.82,179.99,-132.62,1,-6192,-5722,-1,0,-1
124.82,179.99,-132.63,0,-6197,-5729,-1,0,-1
124.82,179.99,-132.63,-5,-6199,-5724,-1,0,-1
124.81,179.99,-132.63,-12,-6197,-5731,-1,0,-1
124.81,179.99,-132.63,-11,-6196,-5718,0,-1,0
124.81,179.99,-132.63,-5,-6192,-5716,0,0,-1
124.81,179.99,-132.63,0,-6189,-5714,-1,0,-1
124.81,179.98,-132.64,6,-6189,-5710,-1,0,0
124.80,179.98,-132.64,5,-6189,-5714,0,0,0
124.80,179.98,-132.64,3,-6190,-5719,0,0,0
124.81,179.98,-132.63,10,-6199,-5708,0,0,-1
124.82,179.98,-132.63,7,-6197,-5708,0,0,-1
124.81,179.97,-132.63,12,-6194,-5711,-1,-1,-1
124.81,179.98,-132.64,4,-6190,-5717,-1,0,0
124.80,179.98,-132.64,8,-6196,-5726,-1,0,0
124.80,179.97,-132.65,9,-6194,-5720,-1,-1,-1
124.80,179.97,-132.65,6,-6193,-5722,0,0,0
124.80,179.97,-132.65,7,-6195,-5720,0,0,-1
124.80,179.97,-132.65,8,-6191,-5718,0,-1,-1
124.80,179.97,-132.65,5,-6189,-5701,0,-1,0
124.80,179.98,-132.64,4,-6196,-5711,0,0,-1
124.80,179.97,-132.64,-3,-6202,-5704,0,0,0
124.80,179.97,-132.64,2,-6207,-5706,-1,0,-1
124.80,179.97,-132.65,5,-6198,-5710,-1,0,-1
124.80,179.97,-132.65,6,-6195,-5709,-1,-1,-1
124.80,179.97,-132.65,7,-6194,-5711,0,0,-1
124.80,179.97,-132.65,0,-6193,-5711,0,0,-1
124.80,179.97,-132.65,-1,-6192,-5709,0,0,-1
124.80,179.97,-132.65,-3,-6192,-5710,-1,-1,-1
124.80,179.97,-132.65,5,-6196,-5710,-1,-1,0
124.80,179.97,-132.65,-1,-6190,-5708,-1,0,-1
124.80,179.96,-132.65,2,-6185,-5723,-1,0,-1
124.79,179.96,-132.66,-1,-6182,-5727,0,0,-1
124.79,179.96,-132.66,2,-6185,-5723,0,-1,0
124.79,179.96,-132.66,-1,-6187,-5713,0,-1,-1
124.79,179.96,-132.66,3,-6191,-5721,0,0,-1
124.79,179.96,-132.66,6,-6190,-5721,-1,0,-1
124.79,179.96,-132.66,12,-6196,-5717,0,0,-1
124.79,179.96,-132.66,8,-6199,-5718,0,-1,0
124.79,179.96,-132.66,15,-6197,-5723,0,-1,-1
124.79,179.96,-132.66,9,-6201,-5719,0,0,-1
124.79,179.95,-132.66,13,-6197,-5712,0,0,-1
124.79,179.95,-132.66,15,-6194,-5715,0,0,-1
124.79,179.95,-132.66,13,-6196,-5718,0,0,-1
124.79,179.95,-132.66,14,-6198,-5715,0,-1,-1
124.79,179.95,-132.66,9,-6194,-5717,0,0,-1
124.79,179.95,-132.65,13,-6195,-5705,0,-1,0
124.79,179.95,-132.65,8,-6190,-5713,0,0,0
124.79,179.95,-132.66,11,-6196,-5718,-1,0,-1
124.79,179.94,-132.66,7,-6190,-5707,0,0,-1
124.79,179.94,-132.66,8,-6197,-5710,0,0,-1
124.79,179.95,-132.65,1,-6199,-5714,0,0,-1
124.79,179.95,-132.65,2,-6189,-5711,-1,0,-1
124.79,179.94,-132.66,2,-6192,-5716,-1,0,-1
124.79,179.94,-132.66,3,-6186,-5718,0,-1,0
124.79,179.94,-132.66,3,-6189,-5724,0,0,0
124.79,179.95,-132.65,3,-6202,-5722,0,0,-1
124.79,179.94,-132.65,7,-6200,-5719,0,0,-1
124.79,179.94,-132.65,2,-6194,-5704,0,0,-1
124.79,179.94,-132.65,0,-6201,-5710,-1,0,-1
124.78,179.95,-132.66,6,-6197,-5724,-1,0,0
124.77,179.94,-132.66,6,-6195,-5731,-1,0,-1
124.77,179.94,-132.66,4,-6191,-5730,0,0,-1
124.77,179.94,-132.66,8,-6187,-5720,0,0,-1
124.78,179.94,-132.66,5,-6193,-5709,0,-1,0
124.78,179.94,-132.66,10,-6192,-5708,0,0,0
124.78,179.94,-132.66,5,-6194,-5707,0,0,-1
124.78,179.94,-132.66,-1,-6198,-5712,0,0,-1
124.78,179.94,-132.66,1,-6198,-5706,0,0,-1
124.78,179.94,-132.66,9,-6197,-5713,-1,0,-1
124.77,179.94,-132.66,12,-6192,-5715,-1,-1,-1
124.77,179.94,-132.66,10,-6191,-5718,0,-1,-1
124.78,179.94,-132.66,13,-6190,-5719,0,0,0
124.78,179.94,-132.66,21,-6193,-5723,0,-1,-1
124.78,179.94,-132.66,16,-6193,-5719,-1,-1,0
124.77,179.94,-132.66,10,-6189,-5722,-1,-1,-1
124.77,179.94,-132.67,5,-6191,-5722,-1,0,-1
124.77,179.94,-132.67,10,-6188,-5721,0,-1,-1
124.77,179.94,-132.67,11,-6186,-5721,0,-1,-1
124.77,179.94,-132.67,12,-6193,-5723,0,-1,0
124.77,179.94,-132.67,14,-6192,-5718,0,-1,0
124.78,179.94,-132.67,8,-6193,-5705,0,-1,0
124.78,179.94,-132.67,6,-6191,-5710,-1,0,-1
124.77,179.94,-132.67,14,-6188,-5709,-1,-1,-1
124.77,179.94,-132.67,13,-6187,-5708,-1,-1,-1
124.77,179.93,-132.67,11,-6193,-5709,0,0,-1
124.77,179.93,-132.67,14,-6194,-5704,0,-1,-1
124.77,179.93,-132.67,5,-6195,-5696,0,-1,-1
124.77,179.93,-132.67,8,-6187,-5706,0,-1,-1
124.77,179.93,-132.67,4,-6189,-5699,-1,-1,-1
124.77,179.94,-132.67,6,-6186,-5701,0,-1,0
124.77,179.94,-132.67,9,-6192,-5700,-1,-1,0
124.78,179.94,-132.67,5,-6195,-5703,-1,-1,-1
124.77,179.94,-132.67,9,-6189,-5708,0,-1,-1
124.77,179.94,-132.67,2,-6191,-5716,0,-1,-1
124.77,179.94,-132.67,1,-6188,-5719,0,-1,-1
124.78,179.94,-132.66,-1,-6192,-5721,0,-1,0
124.78,179.94,-132.66,0,-6191,-5712,0,0,0
124.78,179.94,-132.66,6,-6195,-5705,-1,0,-1
124.78,179.94,-132.66,9,-6193,-5709,-1,0,-1
124.78,179.94,-132.67,0,-6190,-5712,0,-1,-1
124.78,179.94,-132.66,6,-6188,-5710,0,-1,0
124.78,179.94,-132.66,6,-6193,-5710,0,-1,-1
124.78,179.94,-132.66,6,-6192,-5711,-1,-1,-1
124.78,179.94,-132.66,10,-6190,-5703,-1,-1,-1
124.77,179.94,-132.67,13,-6194,-5719,-1,-1,-1
124.77,179.94,-132.67,6,-6197,-5725,-1,-1,-1
124.78,179.95,-132.67,8,-6194,-5716,-1,-1,-1
124.77,179.94,-132.67,7,-6189,-5715,-1,0,-1
124.77,179.94,-132.67,5,-6190,-5712,0,0,-1
124.77,179.94,-132.67,7,-6185,-5707,0,-1,-1
124.77,179.94,-132.67,2,-6189,-5707,0,-1,-1
124.77,179.94,-132.67,7,-6197,-5715,0,-1,-1
124.77,179.94,-132.67,10,-6192,-5709,0,0,-1
124.77,179.94,-132.67,5,-6187,-5716,-1,0,-1
124.76,179.94,-132.67,3,-6185,-5711,-1,-1,0
124.76,179.94,-132.67,11,-6189,-5709,0,-1,-1
124.77,179.94,-132.67,12,-6189,-5713,0,-1,0
124.78,179.94,-132.67,10,-6189,-5709,0,-1,0
124.77,179.95,-132.66,5,-6187,-5705,-1,-1,0
124.76,179.95,-132.67,4,-6187,-5708,-1,-1,-1
124.76,179.95,-132.67,4,-6191,-5714,-1,-1,-1
124.76,179.95,-132.68,2,-6188,-5726,-1,-1,-1
124.76,179.95,-132.68,7,-6185,-5724,0,-1,-1
124.76,179.95,-132.68,3,-6186,-5728,0,-1,-1
124.76,179.95,-132.68,5,-6191,-5715,0,-1,-1
124.76,179.95,-132.68,4,-6188,-5711,-1,-1,0
124.76,179.95,-132.68,6,-6198,-5705,-1,-1,-1
124.76,179.95,-132.68,13,-6198,-5710,0,-1,-1
124.76,179.95,-132.68,9,-6199,-5721,0,0,0
124.76,179.95,-132.68,-4,-6195,-5727,0,-1,-1
124.76,179.95,-132.68,-2,-6195,-5720,0,-1,-1
124.77,179.96,-132.67,7,-6197,-5716,-1,-1,0
124.77,179.96,-132.68,15,-6196,-5712,-1,-1,-1
124.78,179.95,-132.68,12,-6191,-5704,-1,0,-1
124.78,179.96,-132.68,5,-6198,-5718,-1,-1,-1
124.78,179.96,-132.68,0,-6202,-5718,0,-1,0
124.78,179.95,-132.67,-3,-6200,-5710,0,-1,-1
124.78,179.95,-132.67,4,-6197,-5710,0,-1,0
124.78,179.96,-132.66,3,-6199,-5705,0,-1,0
124.78,179.96,-132.67,3,-6192,-5713,-1,-1,0
124.77,179.97,-132.67,8,-6192,-5712,-1,-1,-1
124.77,179.96,-132.68,7,-6199,-5717,-1,0,-1
124.77,179.97,-132.67,1,-6195,-5711,0,-1,0
124.78,179.96,-132.67,8,-6194,-5708,0,-1,-1
124.78,179.96,-132.66,6,-6198,-5708,0,0,0
124.78,179.96,-132.66,-1,-6193,-5709,-1,-1,-1
124.78,179.96,-132.67,1,-6189,-5716,-1,-1,-1
124.77,179.96,-132.68,-1,-6190,-5724,-1,-1,-1
124.77,179.96,-132.68,-7,-6191,-5728,-1,0,-1
124.77,179.97,-132.68,-8,-6190,-5727,-1,0,-1
124.77,179.97,-132.68,-3,-6184,-5721,0,0,-1
124.77,179.96,-132.68,0,-6190,-5706,0,-1,-1
124.77,179.97,-132.67,-1,-6187,-5708,0,-1,0
124.77,179.97,-132.68,8,-6191,-5711,0,-1,0
124.77,179.96,-132.68,12,-6192,-5722,0,-1,-1
124.77,179.96,-132.68,12,-6190,-5718,0,0,-1
124.77,179.96,-132.68,11,-6193,-5713,-1,0,-1
124.77,179.97,-132.68,2,-6197,-5718,-1,-1,-1
124.77,179.97,-132.68,6,-6202,-5714,-1,-1,-1
124.77,179.96,-132.68,12,-6194,-5720,0,-1,-1
124.77,179.96,-132.68,12,-6196,-5728,0,0,0
124.77,179.96,-132.68,11,-6191,-5723,0,-1,0
124.77,179.96,-132.68,11,-6186,-5716,-1,-1,0
124.77,179.96,-132.68,9,-6189,-5726,-1,-1,-1
124.76,179.96,-132.69,13,-6190,-5720,-1,0,-1
124.76,179.95,-132.69,12,-6191,-5724,0,0,0
124.77,179.95,-132.69,9,-6193,-5722,0,-1,-1
124.77,179.96,-132.68,-1,-6194,-5729,0,-1,-1
124.77,179.96,-132.68,-3,-6193,-5728,-1,0,-1
124.77,179.95,-132.69,7,-6188,-5717,-1,-1,-1
124.76,179.96,-132.69,10,-6190,-5724,-1,0,0
124.76,179.96,-132.69,3,-6191,-5714,0,-1,0
124.76,179.96,-132.69,3,-6191,-5712,-1,-1,-1
124.76,179.96,-132.69,3,-6196,-5721,0,0,-1
124.76,179.96,-132.69,2,-6191,-5721,0,0,-1
124.76,179.95,-132.69,5,-6193,-5715,0,-1,-1
124.77,179.96,-132.69,1,-6194,-5712,0,-1,-1
124.77,179.95,-132.69,10,-6196,-5712,0,-1,0
124.77,179.95,-132.69,9,-6194,-5700,0,0,-1
124.77,179.95,-132.69,3,-6189,-5705,0,-1,-1
124.77,179.95,-132.69,1,-6192,-5701,-1,0,0
124.77,179.95,-132.69,1,-6192,-5708,0,-1,-1
124.77,179.96,-132.68,1,-6192,-5716,0,-1,-1
124.77,179.96,-132.68,6,-6190,-5715,0,0,-1
124.77,179.96,-132.68,7,-6190,-5709,-1,-1,0
124.77,179.96,-132.68,11,-6190,-5713,0,-1,0
124.75,179.96,-132.68,5,-6188,-5719,0,-1,0
124.75,179.96,-132.68,2,-6189,-5709,0,-1,0
124.75,179.96,-132.68,5,-6192,-5713,0,0,-1
124.77,179.96,-132.68,7,-6190,-5705,0,0,-1
124.77,179.96,-132.68,6,-6187,-5709,-1,-1,-1
124.77,179.95,-132.69,9,-6187,-5709,-1,-1,-1
124.75,179.96,-132.69,3,-6192,-5716,-1,0,-1
124.75,179.96,-132.70,6,-6190,-5724,-1,0,-1
124.75,179.95,-132.70,7,-6189,-5723,0,0,-1
124.75,179.95,-132.69,9,-6189,-5719,0,-1,-1
124.75,179.95,-132.69,9,-6184,-5712,0,-1,0
124.75,179.96,-132.69,4,-6186,-5699,0,-1,-1
124.75,179.96,-132.69,5,-6190,-5711,0,0,-1
124.75,179.95,-132.68,9,-6192,-5708,0,0,-1
124.75,179.95,-132.68,5,-6192,-5699,-1,-1,-1
124.75,179.95,-132.69,8,-6187,-5705,-1,-1,-1
124.75,179.95,-132.69,4,-6183,-5708,0,0,0
124.75,179.95,-132.69,12,-6180,-5712,0,0,0
124.75,179.95,-132.69,16,-6180,-5710,0,-1,-1
124.75,179.95,-132.69,19,-6185,-5712,0,-1,0
124.75,179.95,-132.69,6,-6188,-5718,-1,0,-1
124.75,179.95,-132.69,-2,-6189,-5718,-1,-1,-1
124.75,179.95,-132.69,2,-6183,-5716,-1,0,-1
124.75,179.95,-132.69,8,-6183,-5709,0,0,-1
124.75,179.95,-132.69,10,-6185,-5716,0,0,-1
124.75,179.95,-132.69,13,-6185,-5719,0,-1,0
124.75,179.95,-132.69,12,-6189,-5727,-1,0,-1
124.75,179.95,-132.70,6,-6192,-5725,-1,0,-1
124.75,179.94,-132.70,9,-6191,-5732,-1,0,-1
124.75,179.95,-132.70,5,-6192,-5722,0,0,-1
124.75,179.95,-132.70,6,-6190,-5718,0,-1,-1
124.75,179.95,-132.70,9,-6191,-5715,0,0,-1
124.75,179.95,-132.70,10,-6189,-5716,0,0,-1
124.75,179.95,-132.70,4,-6191,-5718,0,-1,-1
124.75,179.95,-132.70,5,-6190,-5721,-1,-1,-1
124.75,179.95,-132.70,5,-6198,-5728,0,0,-1
124.75,179.95,-132.70,9,-6201,-5724,0,-1,-1
124.75,179.95,-132.70,15,-6194,-5710,0,-1,-1
124.75,179.94,-132.69,14,-6195,-5711,0,-1,-1
124.75,179.94,-132.69,13,-6190,-5702,0,-1,-1
124.75,179.94,-132.69,12,-6191,-5718,0,-1,0
124.75,179.94,-132.69,10,-6186,-5714,0,-1,-1
124.75,179.94,-132.69,10,-6183,-5712,0,0,0
124.75,179.94,-132.69,6,-6187,-5714,-1,0,-1
124.75,179.94,-132.70,4,-6182,-5713,-1,0,-1
124.75,179.94,-132.70,9,-6185,-5721,0,-1,-1
124.74,179.94,-132.70,11,-6184,-5721,0,-1,0
124.75,179.93,-132.69,9,-6186,-5715,0,-1,-1
124.75,179.93,-132.69,11,-6191,-5708,0,0,-1
124.75,179.93,-132.69,9,-6187,-5710,0,-1,-1
124.75,179.93,-132.69,9,-6188,-5714,-1,-1,0
124.75,179.93,-132.69,7,-6184,-5723,-1,0,-1
124.73,179.94,-132.70,11,-6184,-5716,-1,0,-1
124.73,179.92,-132.71,18,-6183,-5719,-1,0,-1
124.73,179.92,-132.71,15,-6187,-5725,0,-1,-1
124.73,179.93,-132.70,7,-6187,-5718,0,-1,-1
124.73,179.93,-132.70,6,-6186,-5719,0,0,-1
124.75,179.93,-132.69,4,-6191,-5711,-1,0,-1
124.73,179.93,-132.70,9,-6192,-5711,-1,-1,0
124.73,179.93,-132.70,10,-6197,-5709,-1,0,-1
124.73,179.93,-132.70,3,-6195,-5711,-1,-1,-1
124.73,179.93,-132.70,7,-6196,-5718,0,-1,-1
124.75,179.93,-132.69,7,-6190,-5720,0,-1,-1
124.73,179.93,-132.70,6,-6188,-5717,0,-1,0
124.73,179.93,-132.70,6,-6188,-5721,-1,-1,-1
124.73,179.93,-132.70,10,-6188,-5713,0,-1,-1
124.73,179.93,-132.70,7,-6191,-5719,0,-1,0
124.73,179.93,-132.70,-1,-6188,-5705,0,-1,-1
124.73,179.93,-132.70,0,-6188,-5715,-1,0,-1
124.73,179.93,-132.70,8,-6196,-5716,0,-1,-1
124.75,179.93,-132.69,6,-6193,-5714,0,-1,0
124.74,179.94,-132.69,9,-6179,-5724,0,-1,0
124.74,179.94,-132.69,4,-6188,-5725,0,-1,-1
124.74,179.94,-132.69,3,-6196,-5727,0,0,-1
124.75,179.94,-132.69,2,-6193,-5721,0,-1,0
124.75,179.94,-132.68,7,-6190,-5709,0,0,-1
124.75,179.94,-132.68,14,-6188,-5712,0,-1,-1
124.75,179.94,-132.68,10,-6193,-5716,0,-1,0
124.75,179.94,-132.68,8,-6187,-5719,0,-1,0
124.75,179.95,-132.68,8,-6186,-5716,0,-1,-1
124.75,179.94,-132.68,9,-6191,-5714,0,-1,-1
124.75,179.94,-132.68,8,-6193,-5713,0,-1,0
124.75,179.95,-132.67,12,-6190,-5719,0,-1,0
124.75,179.95,-132.67,9,-6189,-5717,0,-1,0
124.75,179.95,-132.67,4,-6190,-5716,0,-1,0
124.76,179.95,-132.67,6,-6194,-5712,0,-1,-1
124.76,179.96,-132.67,6,-6201,-5719,0,-1,0
124.77,179.96,-132.65,8,-6201,-5715,0,-1,0
124.77,179.96,-132.65,7,-6188,-5716,0,-1,0
124.77,179.96,-132.65,9,-6188,-5709,0,-1,-1
124.77,179.96,-132.65,13,-6187,-5713,0,-1,0
124.77,179.97,-132.64,4,-6186,-5717,0,-1,0
124.78,179.97,-132.63,4,-6194,-5712,0,-1,0
124.79,179.97,-132.63,3,-6192,-5710,0,-1,-1
124.79,179.97,-132.63,4,-6206,-5724,0,-1,-1
124.79,179.98,-132.62,3,-6201,-5711,0,-1,-1
124.79,179.98,-132.62,1,-6202,-5698,0,-1,-1
124.79,179.98,-132.63,11,-6197,-5712,0,-1,-1
124.79,179.98,-132.63,7,-6193,-5709,-1,-1,-1
124.79,179.98,-132.63,7,-6201,-5725,0,-1,0
124.80,179.99,-132.63,-1,-6193,-5715,0,-1,-1
124.81,179.98,-132.62,-1,-6195,-5703,0,0,-1
124.81,179.98,-132.62,-6,-6197,-5713,-1,0,-1
124.81,179.98,-132.62,-3,-6195,-5692,0,-1,0
124.79,179.98,-132.63,-1,-6191,-5688,-1,0,0
124.79,179.98,-132.63,0,-6197,-5695,0,-1,0
124.80,179.99,-132.63,-3,-6199,-5711,-1,-1,0
124.80,179.99,-132.63,-8,-6207,-5719,0,0,-1
124.79,179.98,-132.63,4,-6205,-5713,0,0,-1
124.79,179.98,-132.63,7,-6192,-5712,0,-1,-1
124.80,179.99,-132.63,4,-6194,-5704,-1,-1,0
124.80,179.99,-132.63,0,-6192,-5709,-1,-1,0
124.79,179.99,-132.64,-5,-6197,-5713,-1,-1,-1
124.79,179.99,-132.64,-3,-6198,-5716,-1,-1,-1
124.79,179.99,-132.64,5,-6193,-5711,-1,-1,-1
124.79,179.99,-132.64,-3,-6188,-5710,0,-1,0
124.79,179.99,-132.64,-8,-6182,-5699,0,-1,0
124.78,180.00,-132.65,-6,-6189,-5706,-1,0,-1
124.78,180.00,-132.65,-2,-6198,-5712,-1,0,-1
124.78,179.99,-132.65,1,-6193,-5711,-1,-1,-1
124.78,179.99,-132.65,6,-6201,-5711,0,0,-1
124.78,179.99,-132.65,-1,-6191,-5718,0,0,-1
124.78,179.99,-132.65,1,-6195,-5715,-1,0,-1
124.78,179.99,-132.65,-2,-6198,-5712,-1,0,-1
124.78,179.99,-132.65,-4,-6202,-5702,-1,0,-1
124.78,179.99,-132.65,-5,-6198,-5709,0,0,-1
124.78,180.00,-132.65,-6,-6194,-5708,0,-1,-1
124.78,179.99,-132.66,2,-6193,-5717,-1,-1,-1
124.78,179.99,-132.66,-1,-6200,-5714,-1,-1,-1
124.78,179.99,-132.66,0,-6191,-5716,0,-1,-1
124.78,179.99,-132.66,1,-6193,-5709,0,-1,0
124.78,180.00,-132.65,6,-6194,-5705,0,-1,0
124.78,179.99,-132.66,2,-6188,-5710,-1,0,-1
124.78,179.99,-132.66,-4,-6188,-5717,0,-1,-1
124.78,179.99,-132.66,-5,-6193,-5719,0,-1,0
124.78,180.00,-132.65,-3,-6196,-5719,0,-1,0
124.78,180.00,-132.65,0,-6193,-5714,0,0,-1
124.78,180.00,-132.65,4,-6198,-5710,-1,-1,-1
124.78,179.99,-132.66,1,-6195,-5707,-1,0,-1
124.78,179.99,-132.66,-3,-6194,-5708,-1,-1,-1
124.78,180.00,-132.67,-8,-6191,-5705,-1,-1,-1
124.78,180.00,-132.67,-2,-6190,-5709,-1,-1,0
124.77,180.00,-132.67,-9,-6184,-5709,-1,-1,-1
124.77,180.00,-132.67,-4,-6184,-5715,0,-1,-1
124.77,180.00,-132.67,-7,-6183,-5716,0,0,0
124.77,-180.00,-132.68,-3,-6184,-5718,0,-1,0
124.77,-180.00,-132.68,-4,-6187,-5713,-1,-1,-1
124.77,-180.00,-132.68,-4,-6192,-5717,0,0,-1
124.77,180.00,-132.67,3,-6198,-5727,0,0,-1
124.77,-180.00,-132.68,1,-6194,-5720,-1,-1,-1
124.77,-180.00,-132.68,-1,-6197,-5717,0,-1,-1
124.77,-180.00,-132.68,-1,-6193,-5713,0,-1,-1
124.77,-180.00,-132.68,1,-6187,-5723,0,-1,-1
124.78,-180.00,-132.67,3,-6189,-5713,0,-1,-1
124.78,-180.00,-132.67,5,-6191,-5719,0,-1,0
124.78,-179.99,-132.67,1,-6188,-5725,0,-1,0
124.78,-179.99,-132.67,-1,-6187,-5706,0,-1,-1
124.78,-179.99,-132.67,-2,-6184,-5716,0,0,-1
124.78,-179.99,-132.67,0,-6194,-5716,0,-1,-1
124.78,-179.99,-132.67,3,-6187,-5716,0,-1,0
124.78,-179.99,-132.67,4,-6186,-5723,0,-1,0
124.78,-179.99,-132.67,0,-6192,-5720,0,0,-1
124.78,-179.99,-132.67,6,-6192,-5722,0,0,-1
124.78,-179.99,-132.67,3,-6194,-5716,0,0,-1
124.78,-180.00,-132.67,1,-6199,-5719,0,-1,-1
124.78,-180.00,-132.67,0,-6195,-5720,0,-1,-1
124.78,-180.00,-132.67,3,-6192,-5716,0,-1,-1
124.78,-180.00,-132.67,-3,-6195,-5718,0,0,-1
124.78,-180.00,-132.67,-4,-6195,-5716,0,-1,-1
124.78,-180.00,-132.67,-3,-6191,-5722,-1,0,-1
124.78,-180.00,-132.67,-2,-6192,-5720,0,-1,-1
124.78,-180.00,-132.67,-3,-6189,-5705,0,0,-1
124.78,-180.00,-132.67,-1,-6192,-5715,0,0,-1
124.78,-180.00,-132.67,-5,-6190,-5712,-1,-1,-1
124.78,-180.00,-132.67,0,-6196,-5713,0,0,-1
124.78,-180.00,-132.67,4,-6193,-5717,0,-1,0
124.78,180.00,-132.67,3,-6198,-5712,0,0,-1
124.78,180.00,-132.67,0,-6196,-5710,0,0,0
124.78,180.00,-132.67,-3,-6200,-5708,0,0,-1
124.78,180.00,-132.67,-3,-6182,-5702,-1,0,-1
124.78,180.00,-132.67,-5,-6185,-5702,-1,0,-1
124.78,180.00,-132.67,-10,-6187,-5717,0,0,0
124.78,180.00,-132.67,-5,-6188,-5711,0,-1,0
124.78,180.00,-132.67,-7,-6197,-5716,0,0,-1
124.78,179.99,-132.66,-8,-6200,-5714,0,0,-1
124.78,179.99,-132.66,-7,-6196,-5705,0,0,-1
124.78,179.99,-132.66,-10,-6203,-5721,-1,-1,-1
124.78,180.00,-132.67,-9,-6196,-5718,-1,-1,-1
124.78,180.00,-132.67,-6,-6192,-5711,0,-1,-1
124.78,180.00,-132.67,-4,-6196,-5714,0,-1,0
124.78,-180.00,-132.66,-3,-6185,-5711,0,-1,-1
124.78,-180.00,-132.66,-8,-6178,-5719,0,-1,-1
124.79,-179.99,-132.65,-3,-6178,-5715,0,-1,-1
124.79,-179.99,-132.65,-6,-6187,-5708,0,0,-1
124.78,-180.00,-132.65,-3,-6197,-5716,0,-1,-1
124.80,-180.00,-132.64,-9,-6195,-5710,0,-1,-1
124.80,-180.00,-132.64,-1,-6192,-5713,0,-1,-1
124.80,-180.00,-132.64,5,-6198,-5704,0,-1,0
124.80,-180.00,-132.64,4,-6199,-5706,0,-1,-1
124.80,-180.00,-132.63,9,-6200,-5710,0,-1,0
124.80,-179.99,-132.63,-2,-6198,-5703,0,-1,-1
124.80,-179.99,-132.63,-3,-6199,-5703,0,-1,-1
124.80,-179.99,-132.63,-4,-6201,-5693,0,-1,0
124.80,-179.99,-132.63,-2,-6207,-5703,0,0,0
124.80,-179.99,-132.63,-2,-6201,-5710,0,0,-1
124.80,-179.99,-132.63,-4,-6189,-5718,0,0,-1
124.80,-180.00,-132.62,0,-6191,-5712,0,0,-1
124.80,-179.99,-132.61,-8,-6190,-5718,0,0,-1
124.80,-179.99,-132.61,-6,-6196,-5722,0,0,-1
124.80,-179.99,-132.61,-9,-6198,-5716,0,0,-1
124.80,-179.99,-132.61,-5,-6196,-5712,0,0,-1
124.80,-179.99,-132.61,-3,-6189,-5707,0,0,0
124.80,-179.99,-132.61,-4,-6198,-5705,0,0,-1
124.80,-180.00,-132.61,-1,-6199,-5695,0,-1,0
124.80,-180.00,-132.61,-2,-6201,-5703,0,0,-1
124.80,-180.00,-132.61,2,-6202,-5709,-1,0,0
124.80,-179.99,-132.61,0,-6196,-5715,-1,0,0
124.80,-180.00,-132.62,0,-6198,-5717,-1,0,-1
124.80,180.00,-132.63,2,-6201,-5718,-1,0,-1
124.79,180.00,-132.63,5,-6199,-5712,-1,0,0
124.79,180.00,-132.63,0,-6198,-5710,-1,0,0
124.78,180.00,-132.63,7,-6197,-5706,-1,0,0
124.78,179.99,-132.64,0,-6194,-5698,-1,0,-1
124.78,179.99,-132.65,2,-6193,-5708,-1,0,-1
124.77,180.00,-132.65,-9,-6198,-5719,-1,0,-1
124.77,179.99,-132.66,-6,-6193,-5720,-1,0,-1
124.77,179.99,-132.66,-9,-6193,-5725,0,0,-1
124.77,179.98,-132.66,-4,-6193,-5715,-1,0,-1
124.76,179.98,-132.67,0,-6191,-5714,-1,0,-1
124.76,179.98,-132.67,4,-6195,-5715,-1,0,0
124.76,179.98,-132.67,10,-6194,-5717,0,0,0
124.76,179.98,-132.67,8,-6194,-5713,0,0,0
124.76,179.97,-132.66,6,-6194,-5712,0,0,-1
124.76,179.98,-132.66,5,-6196,-5708,0,0,-1
124.76,179.98,-132.66,11,-6191,-5706,-1,-1,0
124.76,179.97,-132.66,6,-6186,-5699,-1,0,0
124.76,179.97,-132.67,0,-6194,-5718,-1,0,-1
124.76,179.97,-132.67,2,-6195,-5722,0,0,0
124.76,179.97,-132.67,4,-6190,-5710,0,0,0
124.76,179.97,-132.67,3,-6185,-5712,0,0,0
124.76,179.97,-132.67,-2,-6185,-5717,-1,0,0
124.76,179.97,-132.67,-4,-6197,-5713,0,-1,0
124.76,179.97,-132.66,-1,-6202,-5721,0,0,-1
124.76,179.97,-132.66,0,-6200,-5709,-1,0,-1
124.76,179.97,-132.66,3,-6200,-5706,-1,0,-1
124.75,179.96,-132.67,6,-6191,-5710,-1,0,0
124.75,179.96,-132.67,6,-6193,-5706,0,0,0
124.75,179.97,-132.67,0,-6196,-5706,0,0,0
124.75,179.96,-132.67,1,-6196,-5709,-1,0,-1
124.75,179.96,-132.67,7,-6197,-5704,-1,0,0
124.75,179.96,-132.67,4,-6191,-5707,-1,0,0
124.75,179.97,-132.67,-4,-6189,-5714,-1,0,0
124.75,179.97,-132.67,-5,-6188,-5705,-1,0,-1
124.74,179.97,-132.68,-6,-6192,-5709,-1,0,0
124.74,179.97,-132.68,-3,-6194,-5721,0,0,0
124.74,179.97,-132.68,-1,-6201,-5718,0,0,0
124.74,179.96,-132.68,3,-6203,-5721,0,0,-1
124.74,179.96,-132.68,0,-6203,-5717,-1,0,0
124.74,179.96,-132.68,0,-6196,-5710,0,0,0
124.74,179.96,-132.68,0,-6194,-5718,0,0,0
124.74,179.96,-132.68,-5,-6192,-5713,0,0,0
124.74,179.96,-132.68,1,-6195,-5709,0,0,0
124.73,179.96,-132.67,1,-6195,-5709,-1,0,-1
124.73,179.96,-132.67,3,-6194,-5711,0,0,0
124.73,179.96,-132.67,5,-6188,-5713,0,0,0
124.73,179.96,-132.67,1,-6198,-5712,-1,0,0
124.74,179.96,-132.68,6,-6195,-5715,-1,0,-1
124.74,179.96,-132.68,0,-6190,-5711,-1,-1,0
124.74,179.96,-132.68,2,-6186,-5712,0,0,-1
124.74,179.96,-132.68,-5,-6187,-5716,0,0,0
124.74,179.96,-132.68,-4,-6194,-5723,0,-1,0
124.74,179.96,-132.68,-2,-6200,-5718,-1,0,0
124.72,179.97,-132.68,0,-6202,-5720,-1,0,0
124.74,179.97,-132.68,1,-6197,-5716,-1,0,-1
124.72,179.97,-132.69,9,-6195,-5722,-1,0,-1
124.72,179.97,-132.69,8,-6191,-5727,0,0,0
124.72,179.97,-132.69,4,-6189,-5727,0,-1,0
124.72,179.97,-132.69,5,-6191,-5716,0,0,0
124.74,179.96,-132.68,9,-6199,-5712,0,-1,0
124.73,179.96,-132.68,3,-6195,-5707,-1,-1,0
124.72,179.97,-132.69,3,-6197,-5711,-1,-1,0
124.72,179.97,-132.69,1,-6199,-5713,-1,0,0
124.72,179.97,-132.70,6,-6191,-5720,-1,0,-1
124.72,179.97,-132.70,6,-6194,-5722,0,0,-1
124.72,179.96,-132.70,8,-6190,-5716,0,0,0
124.72,179.96,-132.70,9,-6191,-5717,0,-1,0
124.72,179.96,-132.69,4,-6189,-5717,0,0,0
124.72,179.96,-132.69,-2,-6192,-5710,0,0,0
124.72,179.96,-132.69,-2,-6199,-5720,0,0,0
124.72,179.96,-132.69,1,-6195,-5714,0,0,0
124.72,179.96,-132.69,1,-6195,-5714,-1,0,-1
124.72,179.96,-132.69,3,-6194,-5718,-1,0,0
124.72,179.96,-132.70,10,-6196,-5712,0,0,0
124.72,179.96,-132.69,4,-6198,-5703,0,-1,0
124.72,179.97,-132.69,6,-6195,-5701,-1,0,0
124.71,179.97,-132.69,10,-6192,-5706,-1,0,0
124.71,179.97,-132.70,6,-6190,-5714,-1,0,0
124.71,179.97,-132.70,1,-6188,-5718,-1,0,0
124.71,179.97,-132.70,7,-6194,-5717,-1,0,0
124.71,179.97,-132.70,12,-6192,-5716,0,0,0
124.71,179.97,-132.70,6,-6192,-5711,0,0,0
124.71,179.97,-132.70,-3,-6190,-5716,-1,0,0
124.71,179.97,-132.70,-4,-6186,-5711,0,-1,0
124.71,179.97,-132.70,7,-6197,-5716,-1,0,0
124.71,179.97,-132.70,6,-6199,-5723,-1,0,0
124.71,179.97,-132.70,6,-6193,-5718,-1,0,0
124.71,179.97,-132.70,6,-6192,-5711,0,0,0
124.71,179.96,-132.70,9,-6194,-5713,-1,0,-1
124.71,179.96,-132.70,8,-6197,-5720,-1,-1,0
124.71,179.96,-132.70,12,-6200,-5711,-1,-1,0
124.71,179.96,-132.70,6,-6205,-5706,-1,0,0
124.71,179.97,-132.70,8,-6199,-5711,-1,0,0
124.71,179.97,-132.70,4,-6200,-5718,-1,0,0
124.71,179.97,-132.71,1,-6196,-5719,0,-1,-1
124.71,179.97,-132.71,0,-6190,-5719,0,-1,0
124.71,179.97,-132.71,1,-6188,-5718,0,-1,0
124.71,179.97,-132.70,-4,-6198,-5720,0,0,0
124.71,179.97,-132.70,-3,-6199,-5719,-1,0,0
124.71,179.97,-132.71,4,-6201,-5718,-1,0,0
124.71,179.97,-132.71,2,-6193,-5718,-1,0,0
124.71,179.97,-132.70,3,-6199,-5715,0,0,0
124.71,179.97,-132.70,0,-6204,-5709,0,0,-1
124.71,179.97,-132.70,3,-6198,-5709,-1,0,-1
124.71,179.97,-132.70,1,-6192,-5717,-1,0,0
124.71,179.97,-132.71,0,-6193,-5713,-1,0,0
124.71,179.97,-132.71,5,-6192,-5710,-1,0,0
124.70,179.98,-132.72,-1,-6186,-5715,-1,0,0
124.70,179.98,-132.72,-14,-6190,-5717,0,0,0
124.70,179.98,-132.72,-6,-6186,-5717,0,0,0
124.70,179.98,-132.72,-2,-6192,-5713,0,0,0
124.70,179.98,-132.71,-3,-6200,-5713,0,0,0
124.70,179.98,-132.71,-6,-6198,-5717,0,0,0
124.70,179.98,-132.71,-7,-6201,-5720,-1,-1,0
124.70,179.98,-132.71,-5,-6198,-5717,-1,0,0
124.70,179.98,-132.72,3,-6194,-5715,-1,0,0
124.69,179.98,-132.72,0,-6192,-5718,-1,0,0
124.69,179.98,-132.72,-2,-6193,-5714,0,0,0
124.70,179.98,-132.72,3,-6198,-5713,-1,0,0
124.69,179.98,-132.72,4,-6194,-5703,0,-1,0
124.69,179.98,-132.71,-2,-6192,-5704,-1,-1,0
124.69,179.99,-132.72,-8,-6193,-5720,-1,-1,0
124.69,179.99,-132.73,-6,-6193,-5727,-1,0,0
124.69,179.99,-132.73,-1,-6197,-5723,-1,0,0
124.69,179.99,-132.73,-5,-6191,-5716,0,0,0
124.69,179.99,-132.73,1,-6194,-5711,0,-1,0
124.69,179.99,-132.72,-1,-6188,-5705,0,0,0
124.69,179.99,-132.72,-9,-6188,-5703,-1,0,-1
124.68,180.00,-132.72,-8,-6189,-5712,-1,0,0
124.68,180.00,-132.72,-2,-6196,-5717,-1,0,-1
124.68,179.99,-132.73,3,-6189,-5717,-1,0,0
124.68,179.99,-132.73,3,-6185,-5715,-1,0,0
124.68,179.99,-132.73,-5,-6186,-5714,-1,0,-1
124.68,180.00,-132.73,-2,-6193,-5720,-1,-1,-1
124.68,180.00,-132.73,-2,-6193,-5722,-1,-1,0
124.68,180.00,-132.73,-5,-6191,-5722,0,-1,0
124.68,180.00,-132.73,0,-6194,-5715,0,-1,0
124.68,180.00,-132.73,0,-6193,-5707,-1,-1,0
124.68,-180.00,-132.73,-2,-6198,-5715,-1,0,0
124.68,180.00,-132.73,2,-6192,-5716,0,-1,0
124.68,-180.00,-132.73,-1,-6196,-5716,0,-1,0
124.69,-179.99,-132.73,-4,-6193,-5723,0,-1,0
124.69,-179.99,-132.73,-4,-6194,-5711,-1,0,0
124.69,-179.99,-132.73,-5,-6184,-5714,-1,0,-1
124.67,-179.99,-132.74,-1,-6187,-5721,-1,0,0
124.67,-179.99,-132.74,4,-6191,-5722,-1,0,0
124.67,-179.99,-132.74,2,-6192,-5723,0,-1,0
124.67,-179.99,-132.74,2,-6181,-5723,0,-1,0
124.67,-179.99,-132.73,6,-6193,-5720,0,-1,0
124.67,-179.99,-132.73,0,-6187,-5722,0,0,0
124.67,-179.99,-132.73,-2,-6190,-5721,-1,-1,0
124.67,-179.99,-132.73,2,-6192,-5717,-1,-1,0
124.68,-179.98,-132.73,1,-6191,-5718,-1,0,-1
124.67,-179.99,-132.74,1,-6193,-5716,-1,0,0
124.67,-179.99,-132.74,4,-6190,-5718,0,0,0
124.67,-179.99,-132.74,0,-6187,-5731,0,-1,0
124.68,-179.98,-132.73,0,-6193,-5728,0,-1,0
124.69,-179.99,-132.72,0,-6195,-5716,0,-1,0
124.69,-179.99,-132.72,-1,-6196,-5719,0,0,0
124.69,-179.99,-132.72,-8,-6197,-5717,-1,0,0
124.67,-179.99,-132.72,-3,-6195,-5721,-1,0,-1
124.67,-179.99,-132.73,-4,-6193,-5717,-1,0,0
124.67,-179.99,-132.73,7,-6192,-5723,0,0,0
124.67,-179.99,-132.72,4,-6193,-5731,0,0,0
124.68,-179.98,-132.72,0,-6194,-5718,-1,0,0
124.69,-179.99,-132.72,-4,-6199,-5717,-1,0,-1
124.67,-179.99,-132.73,-2,-6192,-5724,-1,0,0
124.67,-179.99,-132.73,-5,-6193,-5735,-1,0,0
124.67,-179.99,-132.74,-8,-6197,-5729,-1,0,-1
124.67,-179.99,-132.74,-4,-6187,-5728,0,0,-1
124.67,-179.99,-132.74,-8,-6191,-5721,0,0,0
124.67,-179.99,-132.74,-8,-6192,-5715,-1,0,0
124.67,-179.99,-132.74,-1,-6193,-5710,0,0,0
124.67,-180.00,-132.73,-2,-6199,-5714,0,0,0
124.67,-180.00,-132.73,-1,-6196,-5711,-1,0,0
124.67,-180.00,-132.73,-1,-6195,-5716,-1,0,0
124.67,-180.00,-132.73,-4,-6194,-5717,-1,0,0
124.66,-180.00,-132.73,0,-6190,-5725,-1,0,0
124.67,-180.00,-132.73,0,-6198,-5725,0,0,0
124.67,-180.00,-132.73,-1,-6192,-5723,0,0,0
124.67,-180.00,-132.73,-2,-6195,-5718,0,0,0
124.67,-180.00,-132.73,-7,-6196,-5725,-1,-1,0
124.67,-180.00,-132.73,-7,-6200,-5730,-1,0,0
124.66,-180.00,-132.74,-6,-6192,-5724,-1,0,0
124.66,-180.00,-132.74,-5,-6191,-5717,-1,0,-1
124.66,-180.00,-132.74,-2,-6190,-5718,-1,0,-1
124.66,-180.00,-132.74,0,-6190,-5722,-1,0,-1
124.66,-180.00,-132.74,-2,-6191,-5721,0,0,0
124.66,-180.00,-132.74,-8,-6194,-5712,-1,0,0
124.66,-180.00,-132.74,-4,-6193,-5705,0,0,0
124.66,-180.00,-132.74,-5,-6190,-5713,-1,0,0
124.66,-180.00,-132.74,-6,-6192,-5716,-1,0,-1
124.66,-180.00,-132.74,-5,-6189,-5708,-1,0,-1
124.66,180.00,-132.73,1,-6195,-5704,0,0,0
124.66,180.00,-132.73,-2,-6196,-5701,0,0,0
124.66,180.00,-132.73,8,-6194,-5694,-1,0,-1
124.66,179.99,-132.73,13,-6193,-5702,-1,0,0
124.66,179.99,-132.73,10,-6199,-5719,-1,-1,0
124.66,179.99,-132.73,3,-6196,-5715,0,0,0
124.67,179.99,-132.72,4,-6197,-5704,0,0,0
124.67,179.99,-132.72,9,-6195,-5707,0,0,-1
124.67,179.99,-132.72,3,-6194,-5708,-1,0,-1
124.67,179.99,-132.72,-2,-6194,-5713,-1,0,0
124.67,179.99,-132.73,-2,-6189,-5719,-1,-1,0
124.67,179.98,-132.74,-5,-6192,-5726,-1,0,-1
124.67,179.98,-132.74,-6,-6191,-5729,0,0,-1
124.67,179.98,-132.74,1,-6184,-5722,0,0,0
124.67,179.98,-132.74,6,-6183,-5715,0,0,0
124.67,179.99,-132.73,2,-6186,-5710,0,0,0
124.67,179.98,-132.72,-2,-6187,-5713,0,0,0
124.67,179.99,-132.72,-3,-6197,-5711,-1,0,-1
124.67,179.99,-132.72,-1,-6203,-5713,-1,0,0
124.67,179.98,-132.72,-3,-6193,-5710,-1,0,-1
124.67,179.98,-132.72,4,-6186,-5707,0,0,0
124.67,179.98,-132.72,1,-6192,-5713,0,0,0
124.67,179.98,-132.72,1,-6194,-5706,0,0,0
124.67,179.98,-132.72,-4,-6195,-5705,0,0,-1
124.67,179.98,-132.72,2,-6198,-5708,-1,0,-1
124.67,179.98,-132.72,2,-6195,-5712,-1,0,0
124.67,179.98,-132.72,0,-6204,-5718,-1,0,0
124.67,179.98,-132.72,5,-6198,-5722,-1,0,-1
124.66,179.97,-132.72,4,-6189,-5723,-1,0,-1
124.66,179.97,-132.72,4,-6184,-5713,-1,0,0
124.66,179.97,-132.72,5,-6186,-5716,0,0,0
124.66,179.97,-132.72,5,-6184,-5720,0,0,0
124.66,179.96,-132.72,5,-6192,-5719,0,0,-1
124.66,179.96,-132.72,6,-6196,-5715,0,0,-1
124.66,179.96,-132.71,6,-6194,-5705,0,0,0
124.66,179.96,-132.71,0,-6198,-5709,0,0,0
124.66,179.96,-132.71,-1,-6194,-5703,0,0,0
124.66,179.96,-132.71,-2,-6194,-5696,0,0,-1
124.66,179.96,-132.71,0,-6196,-5706,0,0,-1
124.66,179.96,-132.71,4,-6196,-5708,0,0,0
124.66,179.96,-132.71,2,-6195,-5708,0,0,-1
124.66,179.96,-132.70,3,-6198,-5706,0,0,-1
124.67,179.96,-132.70,-5,-6197,-5703,0,0,0
124.67,179.96,-132.70,-4,-6201,-5714,-1,0,0
124.67,179.96,-132.70,-7,-6198,-5711,-1,0,0
124.67,179.96,-132.70,-2,-6195,-5700,-1,0,0
124.65,179.97,-132.70,-4,-6196,-5706,0,0,-1
124.65,179.97,-132.70,-2,-6199,-5712,0,0,0
124.65,179.96,-132.70,2,-6195,-5704,0,0,-1
124.65,179.96,-132.70,-1,-6196,-5703,-1,0,0
124.65,179.96,-132.70,3,-6204,-5709,-1,0,0
124.65,179.96,-132.70,2,-6205,-5716,-1,0,0
124.65,179.95,-132.69,7,-6202,-5703,-1,0,-1
124.65,179.95,-132.70,9,-6195,-5707,-1,0,-1
124.65,179.95,-132.70,9,-6192,-5720,-1,0,-1
124.65,179.95,-132.69,20,-6193,-5705,0,0,0
124.65,179.95,-132.69,14,-6196,-5708,0,0,0
124.65,179.94,-132.69,9,-6196,-5705,0,0,-1
124.66,179.94,-132.68,6,-6197,-5694,0,0,-1
124.65,179.94,-132.69,-2,-6195,-5692,-1,0,-1
124.65,179.94,-132.69,6,-6195,-5696,-1,0,0
124.65,179.94,-132.70,0,-6199,-5712,-1,0,0
124.65,179.94,-132.70,-1,-6203,-5718,-1,0,0
124.65,179.94,-132.70,3,-6197,-5717,0,-1,0
124.65,179.94,-132.70,7,-6192,-5714,0,0,0
124.65,179.94,-132.70,6,-6188,-5708,0,-1,0
124.65,179.95,-132.70,7,-6193,-5725,0,-1,0
124.65,179.95,-132.70,3,-6196,-5718,0,-1,0
124.65,179.95,-132.70,0,-6199,-5716,-1,-1,0
124.65,179.95,-132.70,5,-6207,-5713,-1,-1,0
124.65,179.95,-132.70,11,-6206,-5708,-1,0,0
124.65,179.95,-132.70,13,-6199,-5710,-1,0,0
124.65,179.95,-132.70,11,-6195,-5712,-1,0,0
124.65,179.95,-132.70,6,-6195,-5705,-1,-1,-1
124.64,179.95,-132.70,5,-6194,-5703,-1,-1,0
124.64,179.96,-132.70,7,-6197,-5704,-1,0,0
124.64,179.96,-132.71,13,-6194,-5705,-1,-1,-1
124.64,179.96,-132.71,12,-6197,-5710,-1,0,0
124.64,179.96,-132.71,13,-6195,-5715,0,0,0
124.64,179.96,-132.71,3,-6194,-5716,0,0,0
124.64,179.96,-132.71,0,-6189,-5712,0,0,0
124.64,179.96,-132.71,2,-6186,-5708,0,0,0
124.64,179.96,-132.71,2,-6190,-5717,0,0,0
124.64,179.96,-132.71,4,-6187,-5718,-1,0,0
124.64,179.96,-132.71,5,-6192,-5722,-1,0,0
124.64,179.96,-132.71,4,-6190,-5718,-1,-1,0
124.64,179.96,-132.71,8,-6183,-5710,-1,-1,0
124.64,179.96,-132.71,6,-6192,-5716,-1,0,0
124.64,179.96,-132.71,1,-6197,-5715,-1,0,0
124.64,179.96,-132.71,6,-6199,-5715,0,-1,0
124.64,179.96,-132.71,3,-6192,-5716,-1,-1,0
124.64,179.96,-132.71,12,-6190,-5720,-1,-1,0
124.64,179.96,-132.71,5,-6191,-5714,-1,0,0
124.63,179.96,-132.72,6,-6190,-5719,-1,0,-1
124.63,179.96,-132.72,4,-6198,-5716,-1,0,0
124.63,179.96,-132.72,-2,-6201,-5715,0,-1,0
124.63,179.96,-132.72,-2,-6192,-5712,0,0,0
124.63,179.97,-132.72,-7,-6196,-5705,-1,0,-1
124.63,179.97,-132.72,-4,-6198,-5709,-1,0,-1
124.63,179.96,-132.72,0,-6192,-5717,-1,-1,0
124.63,179.96,-132.72,-2,-6194,-5718,-1,0,0
124.63,179.96,-132.72,4,-6199,-5723,0,-1,0
124.63,179.96,-132.72,11,-6194,-5713,0,0,-1
124.63,179.96,-132.72,14,-6190,-5715,-1,0,0
124.63,179.96,-132.72,11,-6194,-5713,-1,0,-1
124.63,179.96,-132.72,1,-6189,-5709,-1,-1,-1
124.63,179.96,-132.72,-3,-6192,-5716,-1,0,0
124.63,179.97,-132.73,0,-6192,-5713,-1,0,-1
124.63,179.97,-132.73,4,-6193,-5716,-1,-1,0
124.63,179.96,-132.74,7,-6192,-5717,-1,0,0
124.63,179.97,-132.73,4,-6195,-5718,0,-1,0
124.63,179.97,-132.73,3,-6193,-5712,0,0,0
124.63,179.97,-132.73,6,-6191,-5711,-1,0,0
124.63,179.97,-132.73,-3,-6195,-5695,-1,0,0
124.63,179.97,-132.73,-4,-6195,-5703,-1,0,-1
124.62,179.97,-132.73,-1,-6194,-5707,-1,0,0
124.62,179.97,-132.73,0,-6193,-5707,-1,0,0
124.63,179.97,-132.73,8,-6193,-5704,0,0,-1
124.63,179.97,-132.73,11,-6190,-5708,-1,0,0
124.63,179.97,-132.73,8,-6198,-5705,-1,-1,0
124.63,179.97,-132.73,4,-6192,-5711,-1,-1,0
124.63,179.97,-132.73,8,-6189,-5716,-1,-1,0
124.63,179.97,-132.74,8,-6191,-5722,-1,0,0
124.62,179.97,-132.74,3,-6192,-5721,-1,0,0
124.63,179.97,-132.74,7,-6188,-5726,-1,-1,0
124.62,179.97,-132.74,9,-6183,-5724,0,0,0
124.62,179.97,-132.74,10,-6186,-5726,-1,0,0
124.62,179.97,-132.74,8,-6188,-5721,0,0,0
124.62,179.97,-132.74,8,-6188,-5715,-1,0,0
124.62,179.97,-132.74,2,-6185,-5712,-1,0,0
124.62,179.97,-132.74,0,-6188,-5713,-1,0,-1
124.62,179.97,-132.75,-3,-6191,-5721,-1,0,0
124.61,179.97,-132.75,4,-6189,-5725,-1,-1,0
124.61,179.97,-132.75,3,-6187,-5724,0,-1,0
124.62,179.97,-132.75,12,-6186,-5710,0,-1,0
124.62,179.98,-132.75,7,-6188,-5707,-1,-1,0
124.61,179.97,-132.75,1,-6186,-5717,-1,0,0
124.61,179.97,-132.75,-3,-6189,-5713,-1,-1,0
124.62,179.98,-132.76,-6,-6189,-5713,-1,-1,0
124.61,179.98,-132.76,-2,-6187,-5713,0,0,0
124.61,179.98,-132.75,6,-6180,-5712,0,-1,0
124.62,179.98,-132.75,4,-6179,-5710,-1,-1,-1
124.62,179.98,-132.76,1,-6177,-5727,-1,-1,0
124.61,179.98,-132.76,4,-6184,-5722,-1,0,0
124.61,179.98,-132.76,7,-6195,-5721,-1,0,0
124.62,179.98,-132.76,5,-6190,-5706,-1,-1,-1
124.62,179.98,-132.76,4,-6190,-5705,-1,0,0
124.62,179.98,-132.76,8,-6197,-5700,-1,0,0
124.62,179.98,-132.76,6,-6192,-5705,0,-1,0
124.62,179.98,-132.75,0,-6190,-5707,0,-1,0
124.62,179.98,-132.74,1,-6196,-5706,0,0,-1
124.62,179.98,-132.74,-1,-6190,-5710,-1,-1,-1
124.62,179.98,-132.74,0,-6183,-5708,-1,-1,0
124.62,179.98,-132.75,0,-6185,-5712,-1,-1,0
124.62,179.98,-132.76,5,-6187,-5718,-1,0,0
124.62,179.98,-132.76,4,-6190,-5718,0,0,0
124.62,179.98,-132.75,5,-6195,-5718,0,-1,0
124.62,179.98,-132.74,-2,-6194,-5713,0,0,0
124.62,179.98,-132.74,3,-6197,-5713,0,-1,0
124.62,179.99,-132.75,-2,-6190,-5717,-1,0,0
124.62,179.99,-132.75,1,-6195,-5726,0,0,0
124.62,179.99,-132.74,6,-6192,-5720,0,0,0
124.62,179.99,-132.74,7,-6188,-5715,0,0,0
124.62,179.99,-132.74,7,-6189,-5713,-1,-1,0
124.62,179.99,-132.74,1,-6187,-5710,-1,0,0
124.62,179.99,-132.74,10,-6191,-5713,0,0,0
124.62,179.98,-132.74,5,-6192,-5712,0,0,-1
124.62,179.98,-132.74,6,-6198,-5714,0,0,0
124.63,179.98,-132.73,1,-6192,-5715,-1,-1,0
124.63,179.98,-132.73,-7,-6200,-5707,-1,0,0
124.63,179.98,-132.73,1,-6197,-5705,-1,0,0
124.63,179.98,-132.73,2,-6197,-5709,-1,0,-1
124.63,179.98,-132.73,4,-6188,-5712,0,0,-1
124.63,179.98,-132.73,6,-6188,-5705,0,0,0
124.63,179.97,-132.73,0,-6194,-5712,-1,0,0
124.63,179.98,-132.73,3,-6194,-5704,-1,0,-1
124.63,179.97,-132.73,8,-6191,-5712,0,0,0
124.63,179.97,-132.73,3,-6194,-5705,-1,0,0
124.63,179.98,-132.73,-2,-6194,-5715,-1,0,0
124.62,179.98,-132.73,-1,-6195,-5713,-1,0,-1
124.63,179.98,-132.73,0,-6189,-5713,0,0,0
124.63,179.98,-132.73,4,-6188,-5716,0,0,0
124.63,179.97,-132.73,12,-6193,-5717,0,0,0
